Sensor: bmi160 Accelerometer Non-wakeup
Vendor: BOSCH
TimestampAcc [ns]; AccX [m/s^2]; AccY [m/s^2]; AccZ [m/s^2]
1793374504334957;-9.4095;-0.1208;-2.3973;
1793374514499228;-9.4502;-0.0873;-2.3782;
1793374524641989;-9.4454;-0.0296;-2.3782;
1793374534733030;-9.4382;0.0159;-2.3877;
1793374544888030;-9.4406;0.0278;-2.3877;
1793374554979072;-9.4502;0.0350;-2.4188;
1793374565115114;-9.4382;0.0230;-2.4117;
1793374575193812;-9.4358;0.0063;-2.4093;
1793374585317353;-9.4454;-0.0129;-2.4428;
1793374595412249;-9.4741;-0.0682;-2.4547;
1793374605518187;-9.4071;-0.1400;-2.4500;
1793374615620010;-9.4334;-0.1783;-2.3949;
1793374625714385;-9.4597;-0.1902;-2.3252;
1793374635825426;-9.4502;-0.1807;-2.3423;
1793374645920843;-9.4525;-0.1926;-2.4212;
1793374656019801;-9.4214;-0.1878;-2.4882;
1793374666100374;-9.3832;-0.2477;-2.5337;
1793374676224801;-9.3832;-0.3604;-2.4165;
1793374686312978;-9.4502;-0.5949;-2.3204;
1793374696407770;-9.4597;-0.7531;-2.3085;
1793374706511832;-9.4286;-0.7436;-2.3061;
1793374716624228;-9.4454;-0.6957;-2.3662;
1793374726715270;-9.4310;-0.6526;-2.3806;
1793374736821624;-9.4478;-0.5399;-2.4165;
1793374746918187;-9.4549;-0.3532;-2.4715;
1793374757020791;-9.4310;-0.2189;-2.5409;
1793374767125791;-9.3855;-0.1376;-2.6584;
1793374777224020;-9.3520;-0.0730;-2.7422;
1793374787326520;-9.3808;-0.0057;-2.7206;
1793374797422145;-9.4262;0.0374;-2.6345;
1793374807526832;-9.4478;0.0326;-2.5768;
1793374817631520;-9.4549;0.0541;-2.4835;
1793374827732562;-9.4597;-0.0778;-2.3638;
1793374837841207;-9.4573;-0.2261;-2.2630;
1793374847949437;-9.4813;-0.0993;-2.3638;
1793374858045687;-9.4382;0.0159;-2.4212;
1793374868140687;-9.4095;-0.0224;-2.4763;
1793374878236155;-9.4454;-0.0392;-2.4978;
1793374888342770;-9.4573;0.2243;-2.3303;
1793374898444020;-9.5052;0.8758;-2.1769;
1793374908549749;-9.4454;0.6218;-1.9995;
1793374918672145;-9.4884;0.5668;-2.3276;
1793374928757562;-9.3999;0.7442;-2.3614;
1793374938861728;-9.4190;0.8088;-2.2965;
1793374948957770;-9.5773;0.6960;-2.3997;
1793374959064332;-9.5725;0.5692;-2.3566;
1793374969159228;-9.4454;0.5022;-2.2343;
1793374979262145;-9.4214;0.2267;-2.3061;
1793374989374645;-9.4478;0.0470;-2.4141;
1793374999472874;-9.4310;0.4759;-2.1314;
1793375009573239;-9.4789;0.6290;-1.9014;
1793375019671572;-9.5605;0.4926;-2.0692;
1793375029773812;-9.4693;0.3631;-2.2463;
1793375039881416;-9.3066;0.1714;-2.3686;
1793375049975062;-9.3568;-0.1041;-2.5193;
1793375060077249;-9.4741;-0.3796;-2.4428;
1793375070189228;-9.4837;-0.5327;-2.1314;
1793375080287405;-9.5342;-0.5758;-1.9947;
1793375090386207;-9.5868;-0.4394;-2.1027;
1793375100487405;-9.4645;-0.2931;-2.1673;
1793375110584853;-9.4214;-0.1328;-2.2487;
1793375120692249;-9.4860;0.0159;-2.3710;
1793375130786312;-9.5148;0.0517;-2.3085;
1793375140894489;-9.5004;-0.0730;-2.1601;
1793375150988499;-9.4956;-0.2620;-2.1960;
1793375161126885;-9.4717;-0.3485;-2.3204;
1793375171194020;-9.4167;-0.5375;-2.2558;
1793375181318135;-9.4645;-0.5590;-2.2678;
1793375191397510;-9.5315;-0.6479;-2.1673;
1793375201493916;-9.5052;-0.6933;-2.1529;
1793375211603187;-9.4454;-0.7747;-2.2056;
1793375221720062;-9.4621;-0.8441;-2.4284;
1793375231854905;-9.4190;-0.8489;-2.5528;
1793375241913239;-9.4119;-0.8034;-2.4763;
1793375252025010;-9.4717;-0.7292;-2.4356;
1793375262104905;-9.4717;-0.6742;-2.3495;
1793375272223499;-9.3712;-0.5877;-2.2893;
1793375282322093;-9.4047;-0.4992;-2.3447;
1793375292412822;-9.4190;-0.3170;-2.4906;
1793375302510947;-9.4406;-0.1711;-2.4787;
1793375312627145;-9.4597;-0.0945;-2.4404;
1793375322720999;-9.4860;-0.1065;-2.4500;
1793375332857405;-9.4334;-0.1232;-2.3877;
1793375342952822;-9.3688;-0.1759;-2.3758;
1793375353042510;-9.3497;-0.2668;-2.4739;
1793375363122041;-9.3879;-0.4561;-2.6393;
1793375373228499;-9.4023;-0.7675;-2.6512;
1793375383356885;-9.4406;-1.0310;-2.5792;
1793375393466676;-9.4597;-1.1821;-2.4882;
1793375403541416;-9.4430;-1.2156;-2.3447;
1793375413656312;-9.4765;-1.1988;-2.1840;
1793375423752041;-9.5414;-1.1076;-2.2534;
1793375433838551;-9.5052;-1.0023;-2.4500;
1793375443974853;-9.3138;-0.9066;-2.6441;
1793375454074228;-9.3090;-1.1438;-2.7948;
1793375464180426;-9.4813;-1.3424;-2.9267;
1793375474253812;-9.5004;-1.4743;-2.5935;
1793375484367822;-9.5629;-1.6585;-2.4547;
1793375494454645;-9.3855;-1.8742;-2.1817;
1793375504567562;-9.2922;-1.5197;-2.1864;
1793375514661832;-9.4789;-0.9042;-2.1673;
1793375524777197;-9.5868;-0.2668;-2.2415;
1793375534861207;-9.5291;-0.1902;-2.5122;
1793375544963916;-9.4143;-0.0081;-2.7996;
1793375555067978;-9.3018;0.2124;-2.6895;
1793375565167822;-9.3473;-0.0607;-2.3925;
1793375575266207;-9.5291;-0.3170;-2.3399;
1793375585368187;-9.5315;-0.3820;-2.2391;
1793375595476937;-9.4095;-0.2620;-2.2152;
1793375605575895;-9.3664;-0.0969;-2.3085;
1793375615675270;-9.3903;0.0470;-2.2295;
1793375625776624;-9.3640;0.2746;-1.9325;
1793375635883187;-9.5390;0.3440;-1.9851;
1793375645985062;-9.6012;0.4660;-2.3327;
1793375656084957;-9.4334;0.4660;-2.2941;
1793375666210791;-9.4621;0.6434;-2.3925;
1793375676310582;-9.5342;0.8423;-2.4667;
1793375686410374;-9.4334;1.0125;-2.2295;
1793375696495166;-9.4286;1.0651;-2.1099;
1793375706594957;-9.5172;1.1225;-2.1912;
1793375716694749;-9.4143;1.1871;-2.1505;
1793375726800791;-9.3616;1.1967;-2.2080;
1793375736900582;-9.4573;1.2159;-2.4547;
1793375747000374;-9.4573;1.2637;-2.4045;
1793375757108499;-9.4454;1.2999;-2.2343;
1793375767208291;-9.4645;1.2736;-2.1577;
1793375777308082;-9.4597;1.1560;-2.1673;
1793375787417978;-9.4023;0.9691;-2.2558;
1793375797517770;-9.4478;0.7490;-2.5170;
1793375807617562;-9.4980;0.4735;-2.7182;
1793375817711780;-9.4502;0.1929;-2.5624;
1793375827811572;-9.4454;-0.0730;-2.2822;
1793375837911364;-9.5172;-0.2668;-2.0644;
1793375848023291;-9.5486;-0.3027;-2.0163;
1793375858123082;-9.5390;-0.0655;-2.2415;
1793375868222874;-9.4860;0.0781;-2.4882;
1793375878323603;-9.3999;0.2219;-2.5457;
1793375888423395;-9.4071;0.3368;-2.4236;
1793375898523187;-9.4645;0.4493;-2.3013;
1793375908651416;-9.4669;0.5357;-2.2869;
1793375918751207;-9.4454;0.5812;-2.3566;
1793375928850947;-9.4358;0.5261;-2.4906;
1793375938933655;-9.4382;0.4516;-2.5337;
1793375949033447;-9.4190;0.3488;-2.5098;
1793375959133239;-9.4621;0.3129;-2.4858;
1793375969252353;-9.4717;0.2841;-2.4188;
1793375979352145;-9.4717;0.3248;-2.3758;
1793375989451937;-9.4478;0.4229;-2.3806;
1793375999560062;-9.4238;0.5094;-2.4954;
1793376009659853;-9.3784;0.5883;-2.5504;
1793376019759645;-9.3760;0.7104;-2.5816;
1793376029856780;-9.4190;0.7008;-2.5576;
1793376039956572;-9.5052;0.4660;-2.4858;
1793376050056364;-9.4884;0.1738;-2.4284;
1793376060161624;-9.4573;0.1259;-2.4643;
1793376070261416;-9.4334;0.1187;-2.5528;
1793376080361207;-9.3712;0.1044;-2.6034;
1793376090471728;-9.3616;0.1403;-2.5959;
1793376100571520;-9.3736;0.2219;-2.5744;
1793376110671312;-9.4525;0.1810;-2.5768;
1793376120778603;-9.4860;-0.0057;-2.5576;
1793376130878395;-9.4430;-0.1807;-2.5528;
1793376140978187;-9.3927;-0.2692;-2.6465;
1793376151083916;-9.3425;-0.3314;-2.6991;
1793376161183655;-9.3544;-0.2572;-2.7015;
1793376171283447;-9.4454;-0.1759;-2.7087;
1793376181386728;-9.4789;-0.1304;-2.6297;
1793376191486520;-9.3879;-0.0033;-2.5385;
1793376201586312;-9.3138;0.2124;-2.5959;
1793376211677874;-9.2874;0.4373;-2.6225;
1793376221777666;-9.3616;0.5979;-2.6201;
1793376231877457;-9.4597;0.7442;-2.5481;
1793376241996051;-9.5052;0.8686;-2.5050;
1793376252095843;-9.4238;0.8542;-2.4978;
1793376262195635;-9.3401;0.8064;-2.5098;
1793376272306885;-9.3640;0.7466;-2.5313;
1793376282406728;-9.4502;0.3488;-2.5624;
1793376292506520;-9.4549;-0.0897;-2.6560;
1793376302621937;-9.4382;-0.5518;-2.5624;
1793376312721728;-9.4334;-0.8922;-2.4619;
1793376322821520;-9.4860;-1.1486;-2.2582;
1793376332924957;-9.4167;-1.2826;-2.0186;
1793376343024749;-9.4406;-1.1339;-2.0450;
1793376353124541;-9.4860;-0.6311;-2.2319;
1793376363218707;-9.3855;0.0541;-2.4165;
1793376373318499;-9.3329;0.6840;-2.6297;
1793376383418291;-9.3736;1.3430;-2.6704;
1793376393543916;-9.2803;2.4736;-2.3566;
1793376403643655;-9.3784;2.5645;-2.6058;
1793376413743447;-9.4382;2.5717;-2.5385;
1793376423845687;-9.4502;2.1359;-2.4452;
1793376433945426;-9.4214;2.1861;-2.5026;
1793376444045218;-9.3592;1.9250;-2.2175;
1793376454152510;-9.4119;1.7142;-2.1338;
1793376464252301;-9.4621;1.6615;-2.2199;
1793376474352041;-9.4286;1.5153;-2.3085;
1793376484435895;-9.4071;1.4889;-2.4811;
1793376494535687;-9.4119;1.6472;-2.4954;
1793376504635478;-9.4167;1.7668;-2.3157;
1793376514743655;-9.4071;1.8628;-2.1793;
1793376524843447;-9.4430;1.8963;-2.1266;
1793376534943239;-9.4813;1.9490;-2.1625;
1793376545043864;-9.4430;1.9920;-2.3013;
1793376555143655;-9.4119;1.9729;-2.3949;
1793376565243447;-9.4286;1.9585;-2.4571;
1793376575355530;-9.4023;1.9442;-2.3638;
1793376585455322;-9.4238;1.8796;-2.2558;
1793376595555114;-9.4525;1.8628;-2.2893;
1793376605663812;-9.4119;1.7764;-2.3327;
1793376615763603;-9.4047;1.7189;-2.4021;
1793376625863395;-9.4167;1.6998;-2.4404;
1793376635966624;-9.3951;1.6472;-2.3949;
1793376646066416;-9.4310;1.5682;-2.3662;
1793376656166207;-9.4454;1.5033;-2.4093;
1793376666290895;-9.3927;1.5296;-2.4356;
1793376676392301;-9.3975;1.6232;-2.4715;
1793376686493707;-9.4143;1.6400;-2.4811;
1793376696577822;-9.4023;1.5443;-2.4643;
1793376706679228;-9.4190;1.4124;-2.4260;
1793376716780635;-9.4119;1.3406;-2.4906;
1793376726886468;-9.3640;1.3095;-2.5624;
1793376736987874;-9.3903;1.2613;-2.5720;
1793376747089280;-9.4023;1.1967;-2.5313;
1793376757193343;-9.4119;1.0890;-2.4882;
1793376767294749;-9.4286;1.0125;-2.3806;
1793376777396207;-9.3951;1.0364;-2.3423;
1793376787498968;-9.3712;1.1154;-2.4117;
1793376797600374;-9.3736;1.1943;-2.4571;
1793376807701780;-9.3879;1.1919;-2.4835;
1793376817797718;-9.4119;1.1632;-2.5528;
1793376827899124;-9.4119;1.0890;-2.5385;
1793376838000530;-9.3903;0.9978;-2.5098;
1793376848107093;-9.4095;0.9141;-2.4978;
1793376858208499;-9.3855;0.8399;-2.4523;
1793376868309957;-9.3975;0.7343;-2.4715;
1793376878417926;-9.3712;0.5812;-2.5720;
1793376888519332;-9.4047;0.5859;-2.4906;
1793376898620739;-9.5195;0.5453;-2.3542;
1793376908720426;-9.5243;0.3918;-2.3614;
1793376918821832;-9.3975;0.2602;-2.4117;
1793376928923239;-9.3616;0.2554;-2.4428;
1793376939020635;-9.4071;0.3320;-2.4404;
1793376949122093;-9.4741;0.3511;-2.4667;
1793376959223447;-9.4956;0.2267;-2.4571;
1793376969326728;-9.4310;0.0972;-2.4332;
1793376979428135;-9.4023;0.0900;-2.3782;
1793376989529541;-9.4167;0.0733;-2.3710;
1793376999635739;-9.4286;0.0326;-2.3303;
1793377009737145;-9.4430;-0.0057;-2.4117;
1793377019838551;-9.4214;0.0254;-2.4739;
1793377029939228;-9.4430;0.1522;-2.4619;
1793377040040635;-9.4573;0.2841;-2.4930;
1793377050142041;-9.4214;0.4229;-2.4188;
1793377060248135;-9.4525;0.6721;-2.3734;
1793377070349593;-9.5076;0.7490;-2.4954;
1793377080450999;-9.4238;0.6984;-2.5672;
1793377090556416;-9.3640;0.6553;-2.6512;
1793377100657822;-9.4119;0.6482;-2.8331;
1793377110759228;-9.4190;0.6099;-2.8499;
1793377120854385;-9.3903;0.5524;-2.6393;
1793377130955843;-9.4573;0.4854;-2.5337;
1793377141057197;-9.4789;0.3990;-2.5241;
1793377151178551;-9.4430;0.3918;-2.4045;
1793377161279957;-9.4382;0.3918;-2.4021;
1793377171381364;-9.4525;0.3966;-2.5409;
1793377181466728;-9.2827;0.7128;-2.6297;
1793377191568082;-9.2608;0.9811;-2.6154;
1793377201669541;-9.7687;0.7394;-2.3303;
1793377211800947;-9.6921;0.6697;-2.1434;
1793377221902353;-9.3568;0.8686;-2.3471;
1793377232003707;-9.3042;1.0938;-2.6871;
1793377242066780;-9.3233;1.0986;-2.5696;
1793377252168187;-9.4047;1.0603;-2.3806;
1793377262269645;-9.5366;1.0172;-2.4188;
1793377272424437;-9.5124;1.0771;-2.5313;
1793377282525843;-9.3281;1.0555;-2.4763;
1793377292627249;-9.3497;0.9308;-2.4284;
1793377302697301;-9.4908;0.9930;-2.5337;
1793377312798707;-9.4549;1.0651;-2.4523;
1793377322900114;-9.4023;1.0388;-2.2510;
1793377332987822;-9.4789;1.1273;-2.3375;
1793377343089280;-9.4095;1.2565;-2.4093;
1793377353190687;-9.3568;1.3406;-2.4165;
1793377363300530;-9.4669;1.4650;-2.5146;
1793377373401989;-9.5390;1.6280;-2.6225;
1793377383503395;-9.4621;1.6113;-2.3806;
1793377393601728;-9.3855;1.6424;-2.2199;
1793377403703187;-9.4310;1.6663;-2.2463;
1793377413804541;-9.3855;1.7955;-2.3542;
1793377423911364;-9.4214;1.6783;-2.3830;
1793377434012822;-9.5052;1.5081;-2.4117;
1793377444114228;-9.5868;1.1656;-2.3638;
1793377454244072;-9.4980;0.8925;-2.3157;
1793377464345478;-9.4525;0.4349;-2.2199;
1793377474446885;-9.4789;0.1714;-2.2893;
1793377484523760;-9.4573;0.0302;-2.2223;
1793377494625166;-9.4669;0.0206;-2.1553;
1793377504726572;-9.4741;0.0852;-2.1984;
1793377514841155;-9.4502;0.2698;-2.2774;
1793377524914437;-9.4214;0.5094;-2.3518;
1793377535015791;-9.4478;0.7080;-2.4858;
1793377545117249;-9.4525;0.7418;-2.4906;
1793377555236676;-9.4502;0.6434;-2.4523;
1793377565338082;-9.4430;0.4588;-2.4835;
1793377575439489;-9.4047;0.2171;-2.5074;
1793377585551364;-9.3568;0.0182;-2.4476;
1793377595652770;-9.4071;-0.0754;-2.3276;
1793377605754176;-9.5315;-0.1448;-2.3830;
1793377615852510;-9.5988;-0.2812;-2.5986;
1793377625953916;-9.5315;-0.3508;-2.8522;
1793377636055322;-9.3281;-0.3700;-2.8570;
1793377646155322;-9.2560;-0.2979;-2.6776;
1793377656256728;-9.2922;-0.5136;-2.1242;
1793377666358135;-9.4286;-0.5518;-1.7216;
1793377676465062;-9.5797;-0.2453;-1.8488;
1793377686566468;-9.5267;0.1140;-2.3997;
1793377696667874;-9.3042;0.2865;-2.9961;
1793377706780478;-9.2297;0.4205;-3.3123;
1793377716881885;-9.3233;0.5429;-3.2572;
1793377726983291;-9.4525;0.3344;-2.8187;
1793377737082510;-9.4837;-0.4490;-1.9516;
1793377747183916;-9.5486;-0.4107;-1.9038;
1793377757285322;-9.5124;-0.5112;-2.1529;
1793377767391780;-9.3449;-0.5518;-2.3518;
1793377777493239;-9.3568;-0.6048;-2.5816;
1793377787594593;-9.4669;-0.8058;-2.5839;
1793377797687822;-9.3808;-0.8249;-2.4715;
1793377807789228;-9.3808;-0.8707;-2.2534;
1793377817890635;-9.5821;-0.7340;-2.1769;
1793377827992718;-9.6586;-0.1902;-2.2822;
1793377838094124;-9.4908;-0.1591;-2.3228;
1793377848195530;-9.2779;0.0254;-2.5385;
1793377858301155;-9.1364;0.3942;-2.6704;
1793377868402562;-9.2560;0.5812;-2.2199;
1793377878503968;-9.5172;0.7295;-1.9158;
1793377888600010;-9.5100;0.8327;-2.2056;
1793377898701416;-9.2106;1.0603;-2.6321;
1793377908802874;-9.1053;1.4339;-2.9363;
1793377918897926;-9.3233;1.5586;-3.1735;
1793377928999385;-9.4693;0.9428;-2.6776;
1793377939100791;-9.3999;0.2387;-1.9373;
1793377949213447;-9.1340;1.0268;-2.7230;
1793377959314853;-8.9877;1.6543;-2.7900;
1793377969416260;-9.2297;1.9561;-2.5002;
1793377979532301;-9.6084;2.3515;-2.7326;
1793377989633707;-9.5916;2.2125;-2.6680;
1793377999735114;-9.2946;1.7812;-2.4045;
1793378009828968;-9.0215;1.5176;-2.0234;
1793378019930374;-9.1675;1.1441;-2.1625;
1793378030031832;-9.2321;0.9571;-2.1458;
1793378040138812;-9.1819;0.9212;-2.1864;
1793378050240218;-9.1077;0.7585;-2.1505;
1793378060341624;-8.4320;1.3190;0.0078;
1793378070446937;-9.9437;1.7812;-1.4007;
1793378080548343;-11.0001;2.8759;-7.0971;
1793378090649749;-8.0034;2.3874;-4.3831;
1793378100751051;-7.9002;2.3515;-3.7029;
1793378110852510;-9.6227;3.8964;-5.0946;
1793378120953916;-8.8944;4.1336;-2.5887;
1793378131071572;-8.4416;3.7337;-2.5696;
1793378141172978;-9.2946;3.1540;-5.0755;
1793378151274385;-9.4621;3.2713;-5.6121;
1793378161359072;-8.8179;3.7768;-5.0539;
1793378171460426;-8.8059;3.8797;-5.1233;
1793378181561832;-9.0861;3.4582;-5.0010;
1793378191658968;-8.8753;2.9575;-4.3448;
1793378201760426;-8.6979;2.5980;-4.3735;
1793378211861832;-8.8202;2.5023;-4.5197;
1793378221957770;-8.8155;2.2986;-4.2084;
1793378232059176;-8.8561;1.8437;-4.1674;
1793378242160635;-9.0000;1.3573;-4.1722;
1793378252255843;-8.8011;0.8997;-4.0382;
1793378262357249;-8.7724;0.6553;-4.4046;
1793378272458655;-8.7580;0.5453;-4.6633;
1793378282565114;-8.8920;0.5572;-4.8287;
1793378292666520;-9.2683;0.7513;-4.7402;
1793378302767978;-9.1460;1.0842;-4.1243;
1793378312879801;-8.8131;1.2278;-3.8824;
1793378322981207;-8.8035;1.0938;-4.0789;
1793378333082614;-8.7820;1.0196;-4.1818;
1793378343202405;-8.6548;1.0316;-4.4213;
1793378353303812;-8.5831;1.2637;-4.7521;
1793378363405218;-8.5161;1.3119;-4.5508;
1793378373486989;-8.7963;1.3956;-4.6657;
1793378383588447;-9.0718;1.2494;-5.0157;
1793378393689853;-9.0048;1.1393;-4.8383;
1793378403822093;-8.7867;1.1943;-4.5030;
1793378413923499;-8.7772;1.4363;-4.1363;
1793378424024905;-8.8011;1.6902;-3.9855;
1793378434132822;-8.9901;1.8341;-4.3184;
1793378444234228;-9.1914;2.0399;-4.5939;
1793378454335635;-8.9638;2.2125;-4.7231;
1793378464409176;-8.3985;2.1646;-4.7713;
1793378474510582;-8.7051;1.7548;-5.0683;
1793378484612041;-9.4884;1.4722;-5.0204;
1793378494718291;-8.9566;1.3836;-4.0789;
1793378504819697;-7.9866;1.3334;-3.4226;
1793378514921103;-8.4081;0.9260;-4.0980;
1793378525039332;-9.2321;0.6434;-4.6394;
1793378535141468;-8.9662;0.4711;-4.1626;
1793378545243551;-8.5184;0.4062;-4.1698;
1793378555324072;-8.9016;0.5381;-4.8215;
1793378565426207;-9.4837;0.6362;-4.7785;
1793378575528291;-9.8216;0.7271;-3.4801;
1793378585638343;-9.7089;0.2076;-2.3471;
1793378595740426;-9.9413;-0.7364;-2.8908;
1793378605842510;-9.2225;-0.4490;-3.9903;
1793378615941155;-6.9087;0.2076;-4.0143;
1793378626043239;-4.5514;0.4229;-2.8331;
1793378636145322;-6.1349;1.2135;-5.2935;
1793378646243239;-10.2359;-0.8512;-9.4854;
1793378656345374;-13.6831;-1.9101;-10.7480;
1793378666447457;-13.5778;-0.9808;-9.1071;
1793378676564228;-7.9890;1.1704;-4.4743;
1793378686666364;-4.7695;2.4903;-1.3313;
1793378696768447;-6.1181;2.1072;-0.7828;
1793378706863968;-8.4320;0.9523;-0.1262;
1793378716966103;-10.1091;0.6840;-2.6034;
1793378727068135;-11.5319;1.5491;-7.3534;
1793378737178395;-10.7940;2.1503;-8.2543;
1793378747280530;-8.6812;1.5419;-6.1654;
1793378757382614;-7.2464;0.3942;-4.1243;
1793378767475010;-5.7924;0.8016;-3.1229;
1793378777577093;-6.2952;1.8939;-4.9795;
1793378787679228;-8.3219;2.2747;-6.9918;
1793378797788968;-10.9140;1.3908;-6.8623;
1793378807891103;-11.1293;0.8973;-5.3079;
1793378817993187;-8.8083;1.8915;-4.4453;
1793378828084385;-7.9146;2.2412;-4.9723;
1793378838186520;-9.2010;1.3765;-5.3007;
1793378848288603;-8.8442;0.9691;-3.9688;
1793378858397822;-7.5936;1.6089;-3.8225;
1793378868499957;-8.1757;1.9848;-6.0841;
1793378878602041;-11.5319;0.5572;-6.8240;
1793378888693760;-9.2536;0.4277;-4.0669;
1793378898795843;-5.6964;2.2962;-2.5361;
1793378908897926;-7.3926;2.3755;-4.8407;
1793378919004749;-9.4023;0.3535;-5.2816;
1793378929106832;-8.6046;1.2039;-3.2931;
1793378939208968;-7.5601;2.4808;-3.9784;
1793378949303135;-11.2588;0.8088;-6.0000;
1793378959405270;-12.0230;0.5501;-3.5136;
1793378969507353;-5.9743;2.8687;0.4798;
1793378979618760;-7.0714;2.5478;-2.6106;
1793378989720895;-12.0039;0.7705;-5.6073;
1793378999822978;-9.4406;2.4257;-1.4294;
1793379009918135;-6.3386;3.6209;0.3096;
1793379020020270;-8.4320;1.7788;-4.5293;
1793379030122301;-10.6505;0.8471;-7.6672;
1793379040234228;-9.0550;1.9537;-5.2310;
1793379050336364;-7.2775;1.7836;-2.0234;
1793379060438447;-8.0871;1.2517;-3.0990;
1793379070519124;-10.2168;0.8447;-4.6418;
1793379080621207;-10.1498;-0.1137;-2.9961;
1793379090723291;-9.9580;-0.2381;-2.5600;
1793379100842405;-10.7605;-0.4944;-3.0224;
1793379110944541;-10.8757;-1.8215;-1.3241;
1793379121046624;-9.5892;-1.7904;-0.4041;
1793379131135739;-8.5998;-2.5834;-1.4988;
1793379141237822;-8.3650;-3.6470;-1.7288;
1793379151339957;-9.1890;-3.2659;-2.3351;
1793379161462926;-9.9413;-3.1845;-3.3769;
1793379171564957;-9.8767;-3.6135;-2.9698;
1793379181667041;-11.0312;-3.4983;-2.4882;
1793379191796989;-11.4649;-2.9665;-1.8224;
1793379201899072;-10.1330;-2.1664;-0.9909;
1793379212001207;-9.0766;-2.4658;-0.5312;
1793379222035895;-8.6046;-2.2193;-2.0955;
1793379232137926;-9.3497;-1.5891;-4.1578;
1793379242240062;-10.9666;-0.6263;-3.6093;
1793379252402510;-10.9834;0.1379;-2.3973;
1793379262504593;-10.1761;1.3095;-2.2367;
1793379272606676;-10.5401;1.3167;-1.4557;
1793379282680426;-8.3004;1.2565;-1.7169;
1793379292782510;-5.2292;1.2374;-3.1352;
1793379302884593;-5.7802;0.5620;-4.0765;
1793379312996416;-8.4682;1.1680;-5.2358;
1793379323098551;-11.3904;2.5765;-5.1090;
1793379333200635;-14.3994;2.1048;-2.9219;
1793379343291416;-12.7992;1.7094;-2.6106;
1793379353393551;-8.8466;2.4138;-2.2032;
1793379363495635;-6.4128;1.5993;-2.1721;
1793379373580739;-7.9122;0.7609;-5.2286;
1793379383682874;-9.6945;1.3645;-4.9316;
1793379393784957;-10.2455;1.5730;-3.0464;
1793379403904072;-10.6361;1.7620;-3.3218;
1793379414006155;-9.6634;2.2484;-1.9277;
1793379424108291;-8.5807;1.2230;-1.2906;
1793379434183082;-6.5659;1.5200;-1.5709;
1793379444285166;-6.2761;2.4209;-3.2883;
1793379454387249;-10.2263;1.4004;-6.1104;
1793379464491780;-10.7916;2.1622;-3.6428;
1793379474593916;-9.6227;2.8448;-1.6522;
1793379484695999;-11.4960;0.9141;-2.3590;
1793379494810062;-10.0923;2.1670;-0.5791;
1793379504912197;-6.7816;2.4233;0.3912;
1793379515014280;-6.6858;1.4961;-1.4007;
1793379525105322;-7.7901;2.1455;-3.3218;
1793379535207093;-9.2755;0.8088;-5.5618;
1793379545308864;-10.7390;-0.0488;-6.4576;
1793379555433812;-10.0514;0.8710;-4.4453;
1793379565535582;-8.5161;-0.2142;-3.5399;
1793379575637353;-8.4224;-0.0802;-5.2286;
1793379585727510;-8.1446;0.3679;-6.0864;
1793379595829280;-7.5936;-0.3266;-4.9436;
1793379605931051;-8.8920;0.5788;-4.8168;
1793379616034176;-10.3582;1.3167;-6.7259;
1793379626135947;-10.9140;1.5081;-5.6839;
1793379636237718;-7.7088;1.5730;-3.6619;
1793379646345322;-5.8905;1.5945;-4.8885;
1793379656447093;-7.2535;1.8197;-5.4203;
1793379666548812;-6.2306;1.2087;-1.8966;
1793379676650947;-7.3158;1.7381;-0.9383;
1793379686752718;-10.4228;1.0699;-3.7460;
1793379696854489;-12.2650;0.4253;-5.7437;
1793379706956885;-16.8715;-0.0129;-3.4513;
1793379717058655;-14.1814;0.2961;2.7099;
1793379727160426;-4.1584;1.7118;1.9579;
1793379737258135;-5.6868;0.3990;-6.3787;
1793379747359905;-7.6753;-0.3413;-6.2850;
1793379757461676;-4.4411;-2.8325;-4.2371;
1793379767563760;-5.3204;-3.6350;-6.8671;
1793379777665530;-7.9531;-4.9454;-4.5963;
1793379787767301;-12.5309;-7.3816;-2.3901;
1793379797877510;-12.6673;-6.9311;-1.6379;
1793379807979280;-15.2043;-5.0459;-1.4031;
1793379818081051;-16.5338;-4.3223;1.6822;
1793379828176051;-11.1102;-3.3739;2.1278;
1793379838277822;-6.4415;-1.5748;0.3553;
1793379848379593;-5.3779;-1.5915;-0.2414;
1793379858489489;-4.2305;-1.1653;-2.4452;
1793379868591260;-7.1937;-0.5758;-3.5638;
1793379878693030;-9.0790;-1.4145;-3.6380;
1793379888800530;-11.7978;-2.0731;-4.5006;
1793379898902301;-15.2593;-2.8516;-1.4438;
1793379909004072;-12.3512;-3.0888;0.0102;
1793379919084072;-6.3386;-1.5126;-1.2835;
1793379929185843;-6.1205;-0.6526;-1.3576;
1793379939287666;-8.8035;-0.6072;-1.5012;
1793379949408030;-9.5797;-0.1065;-0.7756;
1793379959509801;-10.0875;1.7381;-2.0019;
1793379969611572;-9.2465;1.3502;-3.0703;
1793379979700374;-8.1494;1.4530;-2.2917;
1793379989802145;-7.4524;1.0675;-2.2750;
1793379999903916;-9.3425;1.1608;-3.4585;
1793380010024489;-11.8146;2.0856;-3.5016;
1793380020126260;-11.4960;1.1082;-3.0535;
1793380030228030;-10.4539;0.4421;-2.5887;
1793380040327093;-8.7676;0.9930;-1.6905;
1793380050428864;-5.4329;0.5333;-2.1912;
1793380060530635;-3.8949;0.9356;-4.0980;
1793380070606312;-6.5252;0.6147;-5.6216;
1793380080708082;-12.0135;-0.8297;-5.3438;
1793380090809801;-14.6222;-2.0085;-2.9530;
1793380100919176;-7.3110;-1.5221;-3.3577;
1793380111020947;-10.1569;-1.9316;-6.9918;
1793380121122718;-11.3258;-3.8889;-3.2644;
1793380131225478;-6.5037;-4.5380;0.0293;
1793380141327197;-10.3534;-1.5748;-6.4433;
1793380151428968;-12.7777;-2.3988;-1.8559;
1793380161518499;-6.8895;-2.4706;3.7232;
1793380171620218;-7.0786;-0.3437;-1.1707;
1793380181721989;-7.1770;0.0254;-4.8766;
1793380191835947;-9.0263;-1.2108;-7.0660;
1793380201937718;-8.5543;-1.5508;-9.9407;
1793380212039489;-11.9151;-2.0563;-9.8833;
1793380222145895;-15.5516;-3.4696;-3.5973;
1793380232247718;-7.5745;-2.0898;1.9795;
1793380242349437;-1.9307;-0.9497;-2.6632;
1793380252449385;-8.1999;-0.4418;-9.3873;
1793380262551155;-11.4888;0.4902;-2.9506;
1793380272652926;-6.1732;1.1082;1.2583;
1793380282748864;-11.5439;2.7993;-5.0444;
1793380292850635;-7.5864;2.9169;-5.9474;
1793380302952353;-10.5879;1.3286;-6.7499;
1793380313081572;-11.3952;-0.4681;-4.7255;
1793380323183343;-7.8787;0.2530;-1.3002;
1793380333285062;-5.3348;0.9858;-2.1840;
1793380343371989;-7.5458;1.5993;-5.1425;
1793380353473760;-11.4099;1.3525;-5.4586;
1793380363575530;-12.0541;1.0125;-5.3916;
1793380373673916;-9.4478;0.2315;-4.9627;
1793380383775635;-6.5901;0.4301;-4.3543;
1793380393877405;-11.7452;-1.6131;-4.1650;
1793380404002093;-10.3989;-0.7268;-3.0799;
1793380414103864;-7.3086;0.4759;-0.7131;
1793380424205687;-3.7968;1.3406;-3.2381;
1793380434350114;-7.1818;0.1834;-5.8421;
1793380444451885;-16.9959;-1.6274;-5.8181;
1793380454553603;-13.5153;-1.2586;0.6882;
1793380464596989;-6.1253;-0.8755;-1.7961;
1793380474698760;-7.9460;-1.0286;-4.2108;
1793380484800530;-11.1392;-2.0492;-1.6283;
1793380494893447;-12.5070;-2.1879;-0.3897;
1793380504995166;-8.6692;-1.1629;-2.8211;
1793380515096937;-8.1733;1.0627;-1.8416;
1793380525196989;-10.3053;-0.8034;-1.7360;
1793380535298916;-12.7825;-1.1315;-1.8775;
1793380545400791;-9.0957;-0.6024;-1.8440;
1793380555511364;-7.4429;-0.0559;0.2498;
1793380565613291;-8.9590;-0.0033;-0.6532;
1793380575715166;-12.2049;1.1058;-0.4208;
1793380585823343;-9.0191;0.4134;-3.5542;
1793380595925270;-11.7643;-0.1232;-2.9052;
1793380606027145;-8.0895;0.7032;-2.2319;
1793380616121989;-9.8312;0.7801;-1.2739;
1793380626223916;-7.3110;0.6817;-3.9592;
1793380636325791;-11.5367;-0.0969;-3.0535;
1793380646419749;-11.2421;1.2446;-3.7842;
1793380656521624;-8.0417;1.0412;-3.7125;
1793380666623499;-12.2100;-0.5136;-3.7699;
1793380676746572;-7.1722;-0.4992;-2.4476;
1793380686848499;-8.4057;-2.5092;-5.0348;
1793380696950374;-8.1446;-0.7484;-4.0478;
1793380707044905;-9.6873;-0.5423;-3.4202;
1793380717146832;-14.8017;-0.9185;-5.2840;
1793380727248760;-10.6696;1.0026;-3.4729;
1793380737351885;-4.9274;1.4722;-3.6643;
1793380747453812;-5.0282;-1.5843;-4.5485;
1793380757555687;-10.7270;-0.6837;-6.6852;
1793380767656051;-11.3593;2.2005;-4.4429;
1793380777757978;-5.6414;1.6256;-6.3954;
1793380787859853;-8.6285;-0.7005;-7.0181;
1793380797970843;-11.8792;-0.1041;-7.0732;
1793380808072718;-6.1229;-0.4801;-4.1387;
1793380818174645;-5.2893;-0.8465;-5.5834;
1793380828265322;-14.7706;-1.5389;-9.0688;
1793380838367249;-12.5429;0.7343;-1.3409;
1793380848469124;-3.2052;1.3908;-0.3514;
1793380858572301;-2.6758;0.0326;-5.6599;
1793380868674228;-15.9538;-0.7603;-7.2075;
1793380878776103;-14.2699;-0.0296;-4.3256;
1793380888885635;-4.0340;0.0230;-0.9574;
1793380898987562;-6.9661;-1.5796;-3.5495;
1793380909089437;-10.0059;-2.2170;-3.9401;
1793380919180322;-8.7580;-3.3858;-3.1567;
1793380929282249;-9.2779;-2.5666;-2.6010;
1793380939384176;-8.0943;-3.3739;-3.7244;
1793380949495739;-6.8294;-3.2348;-3.8560;
1793380959597666;-9.4717;-2.6695;-3.0248;
1793380969699541;-13.7788;-2.4347;-1.9373;
1793380979797926;-9.0455;-2.6384;-0.4208;
1793380989899853;-5.3085;-1.3807;-0.6652;
1793381000001728;-13.8413;-3.3643;-1.1180;
1793381010110114;-12.6625;-2.4299;1.1674;
1793381020212041;-7.7997;-1.7593;1.1097;
1793381030313968;-6.9757;-1.5772;-2.2104;
1793381040412093;-10.1785;-1.5796;-3.6404;
1793381050514020;-9.5749;-2.0109;-4.4333;
1793381060615895;-8.1230;-2.2457;-2.5648;
1793381070687614;-9.5486;-1.9582;-2.8618;
1793381080789541;-12.1235;-2.0157;-2.6273;
1793381090891416;-11.0336;-0.8130;-2.1242;
1793381101003447;-8.6477;-0.1328;-2.5863;
1793381111105322;-8.3172;0.3966;-3.9401;
1793381121207197;-6.4798;0.5835;-2.8283;
1793381131316416;-6.5850;0.4445;-1.9038;
1793381141418291;-8.1446;0.1714;-4.6059;
1793381151520218;-9.7280;1.0627;-6.1391;
1793381161604228;-8.4754;0.3846;-5.1951;
1793381171706103;-8.5113;-0.2859;-3.5758;
1793381181807978;-9.5486;0.1164;-3.8417;
1793381191909905;-6.6739;-0.9736;-2.8235;
1793381202036416;-7.8117;-0.5064;-2.7541;
1793381212138343;-17.2092;-0.2453;-2.0210;
1793381222240166;-14.0112;-0.0511;1.5194;
1793381232421364;-8.3052;1.1895;0.9159;
1793381242523291;-6.7528;1.3430;-4.1961;
1793381252625166;-10.4444;1.7285;-3.7316;
1793381262659905;-10.3630;1.6878;-0.6580;
1793381272761780;-8.7867;-0.0153;-2.7948;
1793381282863707;-8.2837;0.9667;-4.1794;
1793381292973760;-6.5324;1.1728;-6.6446;
1793381303075687;-8.7963;1.2494;-7.1979;
1793381313177562;-11.4147;-0.5590;-3.8058;
1793381323272614;-4.8317;-0.7149;-0.6269;
1793381333374541;-6.6212;0.9547;-5.3438;
1793381343476416;-12.1762;-0.2094;-7.5476;
1793381353584697;-13.8147;-2.1233;-3.9425;
1793381363686624;-9.4406;-2.1042;-0.8833;
1793381373788499;-9.3592;-2.4706;-0.8402;
1793381383891780;-4.4028;0.0398;0.1493;
1793381393993655;-10.6648;0.3320;-6.0526;
1793381404095582;-13.2757;-0.7675;-3.6500;
1793381414173812;-8.7365;-2.1185;-0.4762;
1793381424275739;-5.0809;-0.2835;-3.0416;
1793381434377666;-8.3267;0.4205;-5.6647;
1793381444514957;-13.0364;-2.2911;-3.8106;
1793381454616832;-8.4897;-0.7053;-1.5132;
1793381464718760;-7.3875;-1.3711;-3.9544;
1793381474802718;-12.5812;-2.4900;-6.8384;
1793381484904645;-9.4884;-0.8994;-3.7866;
1793381495006520;-7.9316;-0.5303;-1.4270;
1793381505088239;-5.7900;-2.1568;-3.3745;
1793381515190114;-11.9752;-0.3843;-6.7259;
1793381525291989;-15.4798;-0.8297;-3.0488;
1793381535399697;-8.4296;-0.5088;1.6848;
1793381545501676;-3.1068;-0.1711;-1.3744;
1793381555603707;-7.5673;0.3176;-4.2873;
1793381565705114;-10.9187;-0.6598;-3.2740;
1793381575807145;-9.1795;0.8064;-2.7805;
1793381585909124;-10.9355;0.9954;-3.1663;
1793381596014489;-8.0297;-1.7904;-4.9029;
1793381606116520;-7.1842;-1.0143;-5.4706;
1793381616218499;-11.5630;-1.7617;-5.8059;
1793381626314801;-13.8221;-1.0717;-0.1071;
1793381636416832;-5.6007;-1.1797;-1.7647;
1793381646518812;-7.5027;-0.5016;-5.3629;
1793381656633603;-6.3314;0.5596;-4.1195;
1793381666735635;-4.8724;1.3478;-3.0344;
1793381676837666;-7.6872;1.2350;-4.8766;
1793381686940843;-8.9423;1.8317;-5.7939;
1793381697042874;-10.7127;1.7381;-3.9230;
1793381707144853;-6.6284;0.3679;-0.3514;
1793381717254593;-5.7012;-0.0057;-5.2669;
1793381727356624;-9.8432;1.0077;-6.5988;
1793381737458603;-13.4818;1.3549;0.1253;
1793381747543343;-15.8175;0.2506;1.8452;
1793381757645374;-11.6228;-1.5437;2.8609;
1793381767747353;-6.1708;-0.7220;-0.5910;
1793381777872770;-9.5291;0.2411;-4.2491;
1793381787974801;-13.5682;-0.4801;-3.0918;
1793381798076832;-13.0555;-0.1400;1.1073;
1793381808165739;-7.4189;-0.0897;2.0058;
1793381818267770;-2.5295;0.8399;-3.7579;
1793381828369749;-7.8452;0.5859;-8.6901;
1793381838467926;-10.5473;1.1536;-7.3582;
1793381848569957;-7.7782;1.2470;-2.3662;
1793381858671937;-10.8972;0.5357;-1.9062;
1793381868767093;-13.9801;-1.9845;-0.9885;
1793381878869124;-10.6074;-1.6561;0.4008;
1793381888971103;-5.9743;1.5849;1.1698;
1793381899068343;-3.5453;2.1885;-1.5012;
1793381909170374;-3.6386;2.9719;-5.9761;
1793381919272353;-9.4143;3.4463;-8.4147;
1793381929391155;-13.8676;2.7467;-2.4500;
1793381939493135;-15.6856;-0.6335;4.0274;
1793381949595166;-6.1516;-0.7555;4.8251;
1793381959680426;0.6781;0.7104;-4.6490;
1793381969782457;-8.6596;1.4698;-14.8896;
1793381979884437;-12.2459;-1.4910;-10.8365;
1793381989988447;-15.0221;-3.1989;-3.2883;
1793382000090478;-9.4789;-4.1046;4.5401;
1793382010192457;-7.1722;-2.3964;0.8486;
1793382020303812;-7.2727;-1.4456;-7.3391;
1793382030405791;-10.1186;-0.2189;-10.9373;
1793382040507822;-11.2804;-0.5830;-1.7336;
1793382050605530;-7.6271;-0.4777;4.6935;
1793382060707562;-12.3368;0.5357;0.3936;
1793382070809541;-8.0584;1.4171;-1.9181;
1793382080906780;-5.3109;0.8997;-3.4442;
1793382091008812;-7.4979;1.2517;-6.0742;
1793382101110791;-7.8452;-0.5112;-6.7355;
1793382111238239;-16.7444;-1.0741;-3.2501;
1793382121340218;-14.0928;-2.4084;4.4204;
1793382131442249;-7.8667;-0.4729;4.1952;
1793382141504072;-5.3276;0.8973;-1.5278;
1793382151606051;-4.3645;0.9858;-6.6446;
1793382161708082;-7.0355;0.4014;-9.5453;
1793382171798291;-12.3775;-0.5112;-6.2109;
1793382181900270;-12.7681;-0.7890;0.7792;
1793382192002301;-6.3841;-0.6550;4.9235;
1793382202133135;-8.4416;-0.6407;-3.8058;
1793382212235166;-10.9020;-0.4537;-8.3118;
1793382222337197;-11.6492;-1.3161;-4.0621;
1793382232439541;-5.3874;-1.7043;1.3899;
1793382242541572;-7.5601;-1.3735;-2.9267;
1793382252643603;-14.9432;-1.3735;-3.6165;
1793382262724645;-11.4912;-0.6431;0.7098;
1793382272826676;-5.7443;-0.2453;0.3287;
1793382282928655;-8.8681;-0.3485;-3.9688;
1793382293038864;-9.0191;-1.0860;-4.5461;
1793382303140895;-8.7867;-0.3051;-3.1400;
1793382313242874;-14.0279;0.7032;-1.0678;
1793382323348030;-23.2125;0.4759;3.0622;
1793382333450010;-17.0393;-2.1832;4.7988;
1793382343552041;-7.8547;-4.4183;1.8547;
1793382353653968;-4.6687;0.0948;-4.6346;
1793382363755947;-3.9239;0.4086;-7.4949;
1793382373857978;-1.2769;-0.7699;-4.3902;
1793382383950114;-2.5848;1.2903;-6.0622;
1793382394052093;-2.2134;3.4128;-9.9933;
1793382404154124;-11.8528;2.9934;-10.3935;
1793382414270114;-14.0904;4.3038;-5.3486;
1793382424372145;-15.5779;3.1059;-0.3682;
1793382434474124;-10.9714;1.8652;-2.2343;
1793382444579541;-7.2296;-0.8417;-3.6141;
1793382454681572;-7.3469;-2.1520;-2.0498;
1793382464783551;-8.5783;-1.1533;-1.5494;
1793382474886676;-12.9835;0.1690;-3.5662;
1793382484988707;-13.0508;-0.3748;-2.4404;
1793382495090687;-6.5707;-0.5686;-0.8713;
1793382505184593;-9.4478;-0.2285;-2.4284;
1793382515286572;-9.6778;-0.2812;-4.3687;
1793382525388603;-4.7169;0.2841;-4.3328;
1793382535510426;-7.6463;-0.6479;-7.3415;
1793382545612562;-14.1861;-2.5929;-11.7278;
1793382555714645;-12.4062;-1.7067;-6.8647;
1793382565804280;-7.9340;-0.1328;0.5803;
1793382575906416;-8.9375;2.6028;0.6595;
1793382586008499;-15.1756;3.7911;3.1053;
1793382596103239;-15.3981;6.5985;5.3282;
1793382606205322;-0.8456;6.9341;2.8585;
1793382616307457;3.8856;3.3072;-3.6260;
1793382626403968;6.1397;1.6304;-12.4223;
1793382636506051;5.6557;-0.3772;-17.7212;
1793382646608187;3.1789;0.0278;-19.5873;
1793382656729228;-21.6458;1.3645;-14.1305;
1793382666831364;-47.7637;2.1120;5.8983;
1793382676933499;-24.0628;0.0876;20.6907;
1793382687029280;6.0368;-3.8172;6.5477;
1793382697131416;2.0052;-6.6413;-6.2324;
1793382707233499;-12.7319;-5.0435;-4.6585;
1793382717328916;-16.6032;-4.3175;-2.1960;
1793382727431051;-12.7490;-1.6947;-0.7636;
1793382737533187;-10.2311;0.6625;2.3243;
1793382747629801;-5.1957;-0.2859;0.6619;
1793382757731937;-9.3497;-0.4777;-3.3290;
1793382767834020;-12.8399;1.9992;-1.8440;
1793382777924905;-7.5266;2.0112;0.1564;
1793382788027041;-7.4501;0.8566;-5.1138;
1793382798129124;-8.4559;0.1714;-10.0603;
1793382808246155;-12.1283;-1.0454;-6.5797;
1793382818348291;-12.8590;0.6649;1.2846;
1793382828450374;-10.8658;1.8027;6.8614;
1793382838560322;-4.4868;5.5038;9.8916;
1793382848662457;-0.2180;5.0895;6.8303;
1793382858764541;-0.1603;3.5827;-3.7484;
1793382868863395;-15.4606;0.5046;-25.8108;
1793382878965530;-23.8831;-3.7857;-28.0867;
1793382889067614;-9.2130;-6.1502;-1.5278;
1793382899172926;2.6375;-5.1778;13.3986;
1793382909275062;-7.1722;-3.3069;-2.4954;
1793382919377145;-20.8959;-2.8493;-11.8355;
1793382929470635;-12.2411;-3.5198;-1.5203;
1793382939572770;-4.6472;-3.0048;2.8011;
1793382949674853;-9.9987;0.0302;-3.9254;
1793382959777718;-9.9341;-0.5351;-2.6632;
1793382969879853;-7.7447;-0.4872;-1.0439;
1793382979981937;-8.1063;0.8830;-3.4872;
1793382990071155;-11.5869;0.0374;-3.6332;
1793383000173291;-12.6553;0.3009;-1.9660;
1793383010275374;-13.5921;-0.3075;0.0030;
1793383020384176;-2.2349;0.3033;-1.5637;
1793383030486312;-1.6193;0.4349;-5.6886;
1793383040588395;-11.9919;-0.9233;-8.3094;
1793383050695739;-13.4339;0.4878;-3.6718;
1793383060797822;-8.9064;0.6505;-1.7527;
1793383070899957;-8.7844;0.6434;-4.1411;
1793383080987926;-8.7341;-0.2429;-3.9326;
1793383091090010;-10.1833;-0.5064;-2.0043;
1793383101192145;-10.2790;-0.4705;-2.3303;
1793383111303707;-6.9326;-0.5136;-2.2798;
1793383121405843;-7.8978;-1.0502;-3.6452;
1793383131507978;-11.0527;-0.3987;-4.1818;
1793383141605947;-10.7007;-1.1100;-1.4390;
1793383151708082;-2.9010;0.0398;-3.2166;
1793383161810166;-8.8179;0.4229;-3.6284;
1793383171894645;-19.6669;-0.6933;-2.8020;
1793383181996728;-8.7051;-0.1591;-0.6867;
1793383192098864;-2.3357;-0.6790;-2.1769;
1793383202228187;-8.8394;-1.3687;-6.8647;
1793383212330322;-13.2230;-1.0310;-4.4910;
1793383222432405;-11.6109;0.4277;2.0656;
1793383232527770;-5.3324;1.3478;0.5970;
1793383242629905;-7.8069;0.7247;-5.2693;
1793383252731989;-12.2049;0.4807;-4.1076;
1793383262865895;-11.8863;0.7394;-0.7995;
1793383272968030;-5.9958;0.7152;-1.1755;
1793383283070114;-7.8188;-0.3123;-4.1339;
1793383293130426;-12.8279;-1.0190;-5.3270;
1793383303232510;-11.3306;-0.3891;-2.4476;
1793383313334645;-8.4849;0.6194;-0.1645;
1793383323455999;-6.4630;0.0948;-2.8956;
1793383333558135;-10.4133;-0.4777;-4.5245;
1793383343660218;-10.4827;0.6170;-1.2185;
1793383353745010;-6.8608;0.4253;-2.0091;
1793383363847093;-9.6323;-0.8970;-6.8937;
1793383373949228;-11.4024;-0.5925;-3.4059;
1793383384044489;-9.2178;-0.0826;-0.9574;
1793383394146624;-9.6060;0.2387;-2.4571;
1793383404248707;-9.8504;0.4397;-2.2750;
1793383414357093;-12.0637;0.2435;-1.1492;
1793383424459228;-9.1890;1.0819;-1.7838;
1793383434561312;-6.2641;-0.5877;-2.0067;
1793383444640947;-8.0847;0.2913;-4.6322;
1793383454743030;-12.9619;0.3392;-3.9760;
1793383464845166;-14.4018;0.5859;-1.3098;
1793383474970739;-6.3984;0.3009;-2.2654;
1793383485072874;-0.0837;-0.0945;-4.0095;
1793383495174957;-3.9287;-0.4944;-7.0373;
1793383505272718;-15.0772;0.1379;-7.7824;
1793383515374853;-15.7648;1.1871;-1.3600;
1793383525476937;-8.0369;0.4684;2.2020;
1793383535582822;-4.9851;0.0111;-1.5132;
1793383545684645;-7.7303;-0.4968;-6.4983;
1793383555786468;-13.2015;0.3129;-4.3256;
1793383565889385;-10.9187;0.4926;0.1732;
1793383575991207;-7.1267;0.7777;-0.2055;
1793383586093030;-8.5998;0.2794;-3.8776;
1793383596196051;-11.1269;-0.5255;-4.8742;
1793383606297874;-10.2694;-0.7364;-2.8331;
1793383616399697;-8.7485;0.8088;-0.3993;
1793383626503135;-11.3474;0.5931;-0.9191;
1793383636604957;-7.0187;0.9404;-2.5935;
1793383646706780;-6.7983;-1.1124;-6.9655;
1793383656820635;-13.1345;-0.4848;-4.6513;
1793383666922457;-10.5329;0.8758;1.9481;
1793383677024280;-4.2808;2.7132;3.5605;
1793383687116260;-6.5252;0.7056;-3.9087;
1793383697218082;-13.4889;0.1810;-8.6016;
1793383707319905;-13.1991;0.1690;-4.0669;
1793383717423343;-7.6104;0.0637;0.4989;
1793383727525166;-8.0991;0.9332;-0.8139;
1793383737626989;-8.2430;-0.0057;-2.6465;
1793383747724489;-9.4406;-0.7603;-4.6777;
1793383757826312;-14.6557;0.1068;-2.9602;
1793383767928135;-9.6180;0.2124;-0.0377;
1793383778004853;-6.4008;-0.1639;-2.6393;
1793383788106624;-9.3616;0.2148;-3.5207;
1793383798208447;-5.6892;-0.5542;-3.6332;
1793383808327978;-7.7542;-0.5518;-5.4323;
1793383818429749;-11.7093;0.3799;-4.4189;
1793383828531572;-7.7566;0.1881;-1.7934;
1793383838650218;-4.8317;0.5740;-3.3960;
1793383848752041;-14.7036;0.1164;-4.3496;
1793383858853864;-14.2412;-0.1663;-0.4065;
1793383868957614;-5.7491;-0.8201;-0.9120;
1793383879059437;-5.1479;0.2100;-5.4538;
1793383889161260;-11.2708;-0.4274;-4.5078;
1793383899255947;-10.9690;-0.6335;-0.8641;
1793383909357770;-10.5664;-0.2668;-3.1567;
1793383919459593;-8.7461;-0.8345;-1.5036;
1793383929564593;-8.4559;0.2889;-2.2032;
1793383939666416;-11.5343;-0.1663;-3.9736;
1793383949768239;-10.9738;-1.2203;-2.6800;
1793383959863499;-8.8609;0.1379;-1.1061;
1793383969965270;-8.7580;-0.4609;-1.1468;
1793383980067093;-7.5864;0.8136;-2.0043;
1793383990192978;-9.2489;0.6505;-2.7805;
1793384000294801;-9.0144;1.2879;-2.9267;
1793384010396624;-11.1942;1.1273;-2.4978;
1793384020478030;-10.0131;-0.3461;-1.4318;
1793384030579853;-5.4520;-0.4633;-5.8540;
1793384040681676;-12.3655;-0.5782;-6.5605;
1793384050777562;-9.9891;-0.7531;-0.4834;
1793384060879332;-8.9351;-0.7819;-0.1334;
1793384070981155;-10.6170;-1.5245;-1.1659;
1793384081084437;-7.7949;0.8901;-3.2166;
1793384091186207;-10.5425;-0.2142;-3.8871;
1793384101288030;-7.8404;0.2794;-2.6680;
1793384111387353;-9.6873;-0.4322;-3.9544;
1793384121489176;-9.6395;-1.0908;-2.9913;
1793384131591051;-10.4779;-1.0478;-2.6512;
1793384141712822;-7.9388;-0.1998;-1.9732;
1793384151814645;-8.0680;-0.6048;-3.2716;
1793384161916468;-10.8829;-0.6574;-4.3711;
1793384172005062;-12.5381;-0.2046;-2.7039;
1793384182106885;-11.0073;-0.1543;0.0894;
1793384192208655;-1.8757;0.1140;-1.9923;
1793384202318135;-4.1874;1.2951;-6.2300;
1793384212419957;-15.4223;-0.1998;-6.0841;
1793384222521780;-15.8845;0.3894;-1.1492;
1793384232629020;-6.8031;-1.5820;0.5109;
1793384242730895;-4.8604;0.6290;-2.8164;
1793384252832718;-10.2550;0.4181;-4.6872;
1793384262913812;-13.8963;-0.6072;-2.8669;
1793384273015582;-8.0130;-0.6502;-1.5829;
1793384283117405;-8.2071;0.0948;-2.7063;
1793384293241468;-9.1651;0.0685;-2.9435;
1793384303343291;-11.1727;-0.2907;-2.3734;
1793384313445114;-10.5209;0.1690;-2.0521;
1793384323547614;-8.8609;0.2937;-2.0859;
1793384333649437;-8.6979;0.7490;-1.4462;
1793384343751260;-7.9002;-0.6215;-3.9254;
1793384353839697;-12.8590;1.1632;-3.4442;
1793384363941520;-8.3530;1.4554;1.8906;
1793384374043343;-7.4836;-0.0272;-2.7565;
1793384384135895;-9.7711;0.0470;-6.1510;
1793384394237666;-9.7735;1.6591;-2.9865;
1793384404339489;-9.2632;0.1283;-2.3399;
1793384414452093;-8.3195;-0.5375;-2.9052;
1793384424553916;-5.6629;0.5213;-4.6274;
1793384434655739;-9.8360;-0.2118;-5.1975;
1793384444755947;-12.5716;0.4831;-2.8044;
1793384454857770;-13.7524;0.1259;-0.9598;
1793384464959593;-7.9771;0.0087;-0.0449;
1793384475071155;-4.9923;-0.2979;-2.8499;
1793384485172978;-10.4563;0.0254;-4.9627;
1793384495274801;-12.9212;0.6290;-2.7852;
1793384505365687;-10.4204;0.1235;0.2665;
1793384515467457;-8.0895;0.1259;-0.4953;
1793384525569280;-7.0594;0.6338;-4.3639;
1793384535681468;-9.2827;0.3703;-5.2840;
1793384545783395;-12.6099;-0.1280;-2.8980;
1793384555885426;-10.2670;0.5764;-0.5288;
1793384565986572;-8.4802;0.1738;-1.6259;
1793384576088499;-9.4645;-0.2979;-3.0488;
1793384586190530;-9.9365;0.1546;-2.7159;
1793384596296155;-9.4406;0.1259;-2.0210;
1793384606398082;-7.8763;-0.0778;-2.1051;
1793384616500114;-6.5276;-0.1902;-4.8861;
1793384626582457;-9.4095;-0.0921;-6.4959;
1793384636684385;-10.4300;0.3488;-3.7316;
1793384646786364;-9.8288;0.3607;-1.1085;
1793384656913603;-8.1948;-0.2931;-1.3648;
1793384667015635;-10.8781;-0.2142;-2.9243;
1793384677117614;-7.4166;-0.4968;-2.7087;
1793384687208135;-7.5841;0.3535;-4.6059;
1793384697310114;-9.9724;0.2267;-3.7364;
1793384707412093;-10.0971;-0.2429;-2.9459;
1793384717512562;-9.2560;0.1546;-2.1864;
1793384727614541;-9.2369;-1.0023;-1.4366;
1793384737716468;-9.7902;-0.7555;-3.2859;
1793384747822405;-11.4936;-0.8707;-4.3950;
1793384757924385;-13.5945;-0.9353;-0.2222;
1793384768026364;-7.9364;-2.0228;1.3493;
1793384778120114;-8.3076;0.4062;-1.9038;
1793384788222041;-9.1484;0.7223;-1.2906;
1793384798324072;-9.0407;0.7008;-2.1601;
1793384808428447;-9.9580;0.6075;-3.6212;
1793384818530426;-7.3373;0.1594;-3.4896;
1793384828632405;-8.3961;1.1800;-4.3950;
1793384838743760;-10.0011;0.8806;-4.5891;
1793384848845739;-10.6385;-0.1615;-2.4978;
1793384858947718;-8.4583;-1.3639;-0.3227;
1793384869045895;-9.0838;-1.0047;-1.1539;
1793384879147874;-13.9777;-0.3724;-3.5901;
1793384889249853;-7.2655;-1.4815;-1.9038;
1793384899347197;-0.8001;0.0924;-5.1592;
1793384909449176;-8.8705;2.0833;-10.5610;
1793384919551155;-14.4664;1.4841;-4.9268;
1793384929655843;-11.1197;-1.7474;1.1698;
1793384939757822;-9.4884;-2.1066;1.3229;
1793384949859801;-5.6821;-0.4920;-1.5661;
1793384959965895;-9.8719;1.0914;-6.0072;
1793384970067874;-13.7501;0.6529;-4.1770;
1793384980169853;-9.1675;-1.4240;1.8380;
1793384990279072;-6.2856;-0.9903;0.4678;
1793385000380999;-10.6672;1.9370;-7.1210;
1793385010483030;-8.6836;0.7080;-3.4561;
1793385020565635;-8.0632;-0.0033;-3.3218;
1793385030667562;-11.6539;0.2841;-5.1401;
1793385040769541;-12.2435;-1.3591;-3.1711;
1793385050871260;-11.4577;-2.1951;2.0560;
1793385060973239;-9.3185;-0.2357;4.5520;
1793385071075166;-7.2488;-0.5662;0.2043;
1793385081179385;-7.6487;0.9547;-6.6012;
1793385091281312;-9.2632;2.9982;-7.3128;
1793385101383291;-10.2024;0.2219;-2.7278;
1793385111485218;-8.4849;-0.3820;0.1947;
1793385121587145;-8.6213;-0.6431;-2.2152;
1793385131689124;-9.3760;-0.0176;-5.6695;
1793385141804385;-10.2191;-0.1591;-4.1578;
1793385151906364;-8.2478;-0.4657;-1.1061;
1793385162008291;-10.6911;-0.8417;-3.8369;
1793385172104905;-10.2479;-0.6598;-3.1086;
1793385182206832;-9.3951;-0.5351;-0.5862;
1793385192308864;-9.1125;-0.7484;-2.1649;
1793385202402145;-10.2503;-0.0009;-3.6260;
1793385212504124;-8.8155;0.4831;-3.0751;
1793385222606103;-10.4970;0.1594;-2.6106;
1793385232718239;-10.3149;0.2770;-2.9722;
1793385242820218;-8.9830;-0.1232;-1.5446;
1793385252922249;-8.2860;0.5118;-1.3409;
1793385263030062;-9.7376;0.2124;-3.2907;
1793385273132041;-9.9772;0.5716;-3.4872;
1793385283234072;-8.1302;0.5572;-2.0067;
1793385293326676;-6.9278;0.1307;-3.4059;
1793385303428603;-9.1460;0.7896;-5.8011;
1793385313530635;-11.5439;0.5524;-4.4791;
1793385323644853;-10.1234;-0.7962;-0.8521;
1793385333746832;-9.8886;-0.2309;-0.7756;
1793385343848812;-8.8442;-0.0993;-1.8033;
1793385353933343;-9.7615;0.3416;-2.7206;
1793385364035322;-11.3689;0.0852;-2.1745;
1793385374137249;-9.6802;-0.0559;-0.8928;
1793385384241155;-7.1145;-1.0860;-1.7527;
1793385394343135;-7.0953;-0.0778;-4.4261;
1793385404445062;-9.5148;2.0710;-5.0874;
1793385414550635;-9.6562;-0.5255;-4.0071;
1793385424652614;-10.3415;0.1834;-0.2055;
1793385434754593;-12.4636;-1.7952;-1.0822;
1793385444885062;-5.5241;-1.1964;-2.6967;
1793385454987093;-4.7094;1.7836;-3.5949;
1793385465089072;-10.6289;1.7022;-5.4491;
1793385475168239;-14.4114;-1.1390;-2.7589;
1793385485270218;-10.5736;-0.8536;1.8093;
1793385495372145;-7.4189;-1.8096;-0.7277;
1793385505458864;-9.0598;0.0972;-4.3208;
1793385515560843;-10.9666;0.8590;-4.6107;
1793385525644280;-7.8835;-0.3843;-4.0358;
1793385535746260;-9.3736;-0.5973;-1.2978;
1793385545848187;-12.1762;-0.2477;-1.0989;
1793385555978135;-9.9389;-0.2070;0.3745;
1793385566080114;-9.4621;-0.2812;-0.4953;
1793385576182093;-7.2559;0.5022;-4.8503;
1793385586291364;-9.6730;1.9825;-8.5035;
1793385596393343;-15.9613;-0.0392;-3.2285;
1793385606495270;-8.1565;-0.4729;5.5128;
1793385616585635;-12.8806;-0.3748;3.2584;
1793385626687562;-7.1267;-2.8349;-3.8130;
1793385636789593;7.4261;2.1598;-8.7718;
1793385646893239;-13.1895;6.2465;-17.6734;
1793385656995218;-19.3699;1.1130;-4.8766;
1793385667097197;-11.5487;-4.2529;7.7333;
1793385677212405;-4.9011;-3.8626;3.8743;
1793385687314332;-6.2641;0.1666;-1.0774;
1793385697416364;-8.2573;1.7501;-9.0353;
1793385707501260;-10.7725;1.5129;-9.3754;
1793385717603239;-10.2431;-1.1028;-3.4298;
1793385727705218;-11.8768;-0.8970;-1.1683;
1793385737813447;-11.8002;-0.9473;3.5291;
1793385747915426;-8.2884;-1.8981;-0.2438;
1793385758017405;-9.1579;-0.0033;-3.4561;
1793385768113551;-8.7317;1.7501;-6.5079;
1793385778215530;-17.8753;-1.2706;-6.4505;
1793385788317510;-8.8896;0.7128;9.6425;
1793385798425426;2.2735;-1.3376;9.3814;
1793385808527405;-14.9551;1.2446;-13.6801;
1793385818629385;-11.9776;5.4105;-14.5472;
1793385828739593;-5.3133;1.8508;0.6114;
1793385838841572;-7.2057;0.5620;-4.4839;
1793385848943551;-9.4741;-0.2764;-4.5843;
1793385859051260;-12.0733;-1.0836;0.0102;
1793385869153239;-8.9064;-1.5748;2.2669;
1793385879255218;-9.8384;-1.7545;-4.7207;
1793385889356051;-10.8829;-0.1352;-5.2911;
1793385899458030;-7.3540;-0.5136;-1.2691;
1793385909560010;-8.1350;-0.5590;-3.8584;
1793385919647249;-11.1631;-1.1916;-3.9377;
1793385929749228;-9.5653;-1.3113;-2.2415;
1793385939851207;-9.0598;-0.5686;-1.7743;
1793385949958343;-7.4812;-0.7819;-2.6776;
1793385960060322;-8.1975;0.4445;-3.3434;
1793385970162301;-11.9294;0.6840;-4.6585;
1793385980257822;-9.9891;0.1355;-0.0209;
1793385990359801;-8.0919;-0.4777;-1.4294;
1793386000461780;-9.0838;0.9978;-1.9301;
1793386010571051;-9.1962;-0.5518;-3.9855;
1793386020672978;-9.4621;1.0436;-3.1974;
1793386030775010;-9.3616;0.0470;-4.8622;
1793386040868968;-9.3233;-0.3413;-2.1362;
1793386050970947;-8.8179;-1.3711;-2.6847;
1793386061072874;-10.9403;-0.6072;-1.0989;
1793386071191728;-11.1054;-0.8512;-0.6772;
1793386081293707;-7.5386;-0.3580;-0.1190;
1793386091395687;-6.6356;0.8734;-3.5279;
1793386101475062;-10.4061;1.7118;-4.8885;
1793386111576989;-11.4386;-0.6455;-2.6632;
1793386121679020;-10.2072;-0.5758;-0.4496;
1793386131801572;-9.0598;-0.8465;-1.5446;
1793386141903551;-7.8954;0.1857;-2.7972;
1793386152005530;-8.6931;-0.3461;-4.4118;
1793386162071832;-10.3149;-0.0440;-2.5385;
1793386172173812;-9.1196;-0.9760;-3.0057;
1793386182275791;-10.0585;-0.0778;-1.7815;
1793386192406572;-10.7916;0.0494;-1.4988;
1793386202508551;-12.4636;-0.6861;0.3505;
1793386212610530;-6.2689;-0.9640;-1.4605;
1793386222708082;-2.5678;1.1369;-6.4433;
1793386232810114;-10.4109;2.7060;-11.2726;
1793386242912041;-12.9595;1.7477;-4.1650;
1793386253030270;-9.2201;-2.3749;2.1709;
1793386263132249;-7.4812;-2.1808;1.2224;
1793386273234228;-11.5463;1.6376;-4.4381;
1793386283313343;-7.5745;0.9643;-3.3147;
1793386293415270;-9.3305;0.4660;-3.4035;
1793386303517249;-9.4621;0.8949;-2.2845;
1793386313612093;-10.9953;0.2339;-2.1984;
1793386323714020;-10.6935;-0.4418;-1.3672;
1793386333815999;-9.4765;-0.2022;-1.6092;
1793386343927718;-7.4764;-0.2500;-3.0368;
1793386354029697;-9.4143;0.9236;-6.6852;
1793386364131624;-12.5524;0.0733;-2.8116;
1793386374231468;-7.6152;0.0494;4.2144;
1793386384333395;-8.4634;-0.2812;-2.5337;
1793386394435426;-10.9714;2.3321;-5.4826;
1793386404550218;-8.9758;0.3703;-2.0931;
1793386414652197;-8.3578;-0.6072;-2.2654;
1793386424754176;-9.4334;0.8231;-3.3434;
1793386434854801;-9.5076;0.3057;-2.5241;
1793386444956728;-9.0479;-0.3099;-2.2989;
1793386455058707;-8.8777;0.5548;-3.6619;
1793386465163551;-9.7759;-0.6526;-4.7351;
1793386475265530;-7.9795;-0.3580;-3.6021;
1793386485367457;-10.1498;-0.2500;-3.8058;
1793386495464072;-9.8958;-0.9520;-2.4356;
1793386505565999;-7.3110;0.6601;-0.7684;
1793386515667978;-12.5405;-0.2189;-3.7029;
1793386525769072;-12.5357;-0.9114;-0.5767;
1793386535871312;-7.6128;-0.4202;-0.0927;
1793386545973499;-7.9217;0.3176;-3.0823;
1793386556074905;-9.7400;1.3884;-4.3735;
1793386566177145;-8.9207;-0.6957;-3.1854;
1793386576279332;-8.5184;-0.9162;-2.7613;
1793386586374593;-10.4516;-0.1280;-2.9554;
1793386596476780;-8.8011;-0.6120;-1.8942;
1793386606579020;-9.3855;0.3392;-2.8427;
1793386616679072;-7.6176;0.5477;-4.0837;
1793386626781312;-9.2489;0.5046;-2.3085;
1793386636883499;-10.8562;0.4205;-2.8116;
1793386646990635;-9.7376;0.0278;-1.1898;
1793386657092874;-8.4105;0.0135;-0.9646;
1793386667195062;-11.3689;0.1690;-4.6155;
1793386677311155;-10.4563;-0.2189;-2.4476;
1793386687413395;-8.9686;-0.5471;-1.1228;
1793386697515582;-9.5291;-0.5877;-2.1386;
1793386707599489;-9.5629;-0.9927;-2.8283;
1793386717701728;-9.8719;1.2374;-0.5719;
1793386727803916;-8.5998;0.5501;-1.3624;
1793386737907562;-9.8575;0.2698;-4.8957;
1793386748009749;-10.4994;0.8734;-2.2822;
1793386758111989;-8.9758;-0.3796;-1.8631;
1793386768220635;-7.5434;0.4878;-2.2199;
1793386778322874;-8.5615;0.9978;-3.3769;
1793386788425062;-10.7366;0.1905;-4.5772;
1793386798519905;-11.0360;0.1403;-2.4452;
1793386808622145;-8.0393;-0.2668;-2.4500;
1793386818724332;-10.5281;-0.1950;-3.3290;
1793386828824905;-8.0010;-0.4585;-2.5265;
1793386838927145;-6.8390;0.3559;-3.0176;
1793386849029332;-10.2479;0.2698;-4.3208;
1793386859135062;-11.4769;-0.5662;-2.3830;
1793386869237249;-9.4956;0.4158;-1.7408;
1793386879339489;-8.2047;-0.4394;-3.2883;
1793386889441155;-10.7653;0.0876;-2.4069;
1793386899543395;-9.4023;-0.6718;-1.0941;
1793386909645582;-10.3415;-0.2955;-2.1553;
1793386919732874;-10.1426;0.1522;-3.1038;
1793386929835062;-7.5362;0.2913;-2.7661;
1793386939937301;-6.2234;0.0111;-4.4094;
1793386950052093;-7.7973;1.1943;-7.5165;
1793386960154332;-13.2422;1.4698;-7.4327;
1793386970256520;-13.9657;-1.5604;1.7423;
1793386980366885;-5.2316;-5.6255;8.6773;
1793386990469124;-7.0834;-0.0464;-0.3323;
1793387000571312;-13.3334;4.6415;-10.8437;
1793387010657510;-7.4213;1.0986;-7.4877;
1793387020759749;-5.9264;-0.9736;-2.8789;
1793387030861937;-9.2154;0.6147;-3.3960;
1793387040959332;-8.9016;-0.2788;-4.3950;
1793387051061520;-9.1866;0.7753;-2.9004;
1793387061163707;-11.7069;-0.9616;-1.8129;
1793387071300635;-11.6085;-1.4982;1.0187;
1793387081402822;-7.4836;-0.5638;2.0656;
1793387091505010;-8.3937;0.3823;0.4439;
1793387101585010;-10.4539;1.8843;-3.8632;
1793387111687249;-11.6157;1.4698;-7.3056;
1793387121789437;-10.3917;-0.7842;-0.5767;
1793387131893447;-8.1398;-1.5724;3.4837;
1793387141995687;-9.8767;-0.6263;0.0580;
1793387152097874;-9.2058;0.6864;0.2593;
1793387162206468;-8.2956;0.8207;-0.0592;
1793387172308707;-12.4205;1.3071;-1.1396;
1793387182410947;-11.1126;-0.1208;1.7973;
1793387192506312;-9.4262;-3.0482;4.8586;
1793387202608551;-10.0202;-2.0563;1.7901;
1793387212710739;-12.4301;1.1154;-2.1458;
1793387222836937;-9.4119;0.2124;-1.6522;
1793387232939228;-6.5492;-0.6096;-0.4738;
1793387243041364;-9.3592;1.9513;-4.3161;
1793387253120062;-10.2838;2.3827;-6.2994;
1793387263222301;-6.8847;0.9093;-3.0990;
1793387273324489;-11.9943;0.6625;-0.9885;
1793387283428707;-13.5802;-1.4432;2.1182;
1793387293530999;-11.3402;-1.4169;4.9259;
1793387303633135;-10.0585;0.0182;3.5052;
1793387313725218;-9.6682;1.4483;-2.5457;
1793387323827405;-9.5629;1.2206;-7.1644;
1793387333929645;-8.1278;0.9069;-8.4266;
1793387344029697;-7.2392;-0.2979;-6.3715;
1793387354131937;-11.9728;-0.0607;-4.8694;
1793387364234124;-13.0603;-1.7689;0.6284;
1793387374341364;-9.3042;-3.7522;5.5798;
1793387384443603;-9.5964;-1.8000;4.5449;
1793387394545791;-10.4516;0.5572;-2.7996;
1793387404641989;-8.0058;1.3071;-5.6839;
1793387414744228;-4.0579;0.2411;-4.8431;
1793387424846416;-9.1460;0.9930;-8.3070;
1793387434961260;-9.7735;0.8638;-6.7116;
1793387445063447;-10.0107;-3.1439;-1.8416;
1793387455165687;-13.4554;-4.8637;2.1182;
1793387465250322;-11.9031;-5.2759;5.3067;
1793387475352562;-3.5764;-5.1849;5.0408;
1793387485454749;-8.1613;0.3488;-5.0779;
1793387495560843;-9.9891;3.4510;-12.5184;
1793387505663082;-6.1110;-1.0310;-9.0760;
1793387515765270;-8.2334;-0.5686;-3.1926;
1793387525858343;-12.5189;-2.3629;-1.2257;
1793387535960322;-16.5051;-4.8757;6.7295;
1793387546062301;-12.7223;-5.2974;11.0318;
1793387556175843;-8.2956;-4.1548;6.6266;
1793387566277822;-8.8872;1.9657;-1.9373;
1793387576379801;-7.5984;4.7276;-10.1085;
1793387586476260;-8.4897;5.5663;-12.1038;
1793387596578239;-5.9216;3.9036;-8.8579;
1793387606680166;-0.5533;2.6174;-5.8325;
1793387616774385;-15.5587;4.6630;-7.5858;
1793387626876364;-19.0968;-0.1137;1.8763;
1793387636978343;-8.8872;-7.5443;18.1394;
1793387647085843;-6.7289;-3.8506;14.6157;
1793387657187822;-9.9030;3.8318;-3.8847;
1793387667289801;-7.9026;7.3651;-14.7652;
1793387677389072;-5.3372;6.0619;-14.4371;
1793387687491051;-5.8140;4.6463;-12.6045;
1793387697592978;-10.7246;1.3262;-7.9597;
1793387707701885;-12.7319;-2.6384;5.2014;
1793387717803864;-12.4421;-7.5156;14.4239;
1793387727905791;-12.8542;-5.5705;11.6668;
1793387738006468;-12.1738;-1.9005;3.5554;
1793387748108447;-11.5104;1.0747;-4.2009;
1793387758210374;-5.1144;2.6916;-3.7842;
1793387768311260;-3.9646;1.5873;-7.3511;
1793387778413239;-11.0360;3.6835;-17.5056;
1793387788515218;-11.5702;1.2808;-9.8234;
1793387798622301;-5.4903;-6.2100;5.1655;
1793387808724280;-8.9542;-6.8186;7.2470;
1793387818826260;-15.2163;-3.1869;3.4860;
1793387828917614;-14.3369;-2.8636;2.7505;
1793387839019593;-12.9452;-2.9569;6.5118;
1793387849121572;1.6241;-2.2672;2.1398;
1793387859237197;-2.5678;5.1111;-15.2803;
1793387869339176;-18.0981;9.2623;-24.4262;
1793387879441155;-12.8566;1.9131;-7.8972;
1793387889538864;-4.3454;-6.0233;11.2546;
1793387899640843;-9.3616;-3.8073;9.4196;
1793387909742822;-13.1273;1.9872;-2.7972;
1793387919838082;-14.0880;3.2067;-5.6097;
1793387929940114;-6.8318;1.0651;-0.7516;
1793387940042041;-7.1818;2.1814;-0.7732;
1793387950162718;-10.8996;3.5157;-3.6718;
1793387960264697;-8.4224;0.8518;-1.8248;
1793387970366676;-10.3726;-0.1567;-2.1793;
1793387980465218;-10.3391;0.9212;-2.5289;
1793387990567145;-6.3601;-1.2778;-3.2453;
1793388000669176;-14.2843;1.0364;-7.7871;
1793388010774489;-10.8733;-1.0860;7.5488;
1793388020876468;-0.7211;-6.7226;14.6109;
1793388030978447;-14.3587;2.0590;-11.0785;
1793388041075218;-15.0437;7.6669;-17.4936;
1793388051177197;-3.3751;-1.9388;-0.2844;
1793388061279124;-7.4788;-3.5608;4.3965;
1793388071392041;-12.9212;-1.6490;-1.3768;
1793388081494020;-12.5070;-1.6418;-1.0056;
1793388091595999;-7.5673;-3.2515;3.3544;
1793388101711468;-6.0221;-1.7091;-2.7063;
1793388111813447;-9.2465;2.2890;-10.3624;
1793388121915426;-9.4693;1.5033;-6.1295;
1793388131973707;-10.1952;-3.3739;-2.1912;
1793388142075635;-11.4912;-2.3438;1.7806;
1793388152177614;-8.7891;-3.2731;5.2971;
1793388162243395;-9.3520;-2.3557;-0.1358;
1793388172345322;-12.6386;2.0662;-6.4816;
1793388182447301;-8.3889;1.1680;-3.1229;
1793388192582666;-7.3158;-0.6455;-0.2031;
1793388202684645;-12.8423;1.5586;-1.9397;
1793388212786624;-7.3564;0.1881;-1.3552;
1793388222890843;-7.4213;-0.1017;-1.6331;
1793388232992822;-11.4218;2.6533;-5.0180;
1793388243094749;-9.6347;0.7753;-4.1650;
1793388253206885;-11.9848;-0.4633;0.6667;
1793388263308864;-13.1632;-2.3055;6.6841;
1793388273410791;-8.8848;-2.4972;7.1369;
1793388283528603;-8.8825;0.4493;0.8797;
1793388293630635;-9.7735;3.9781;-7.0110;
1793388303732562;-6.0966;3.3885;-8.0267;
1793388313833447;-7.8500;1.5320;-7.4351;
1793388323935426;-11.4458;1.2159;-4.8263;
1793388334037353;-10.7773;-2.1353;2.3985;
1793388344124749;-10.5568;-3.0888;5.8959;
1793388354226676;-9.6443;-2.4036;3.9197;
1793388364328655;-9.7902;-1.9606;0.2498;
1793388374429176;-8.3219;-3.9823;0.9182;
1793388384531155;-11.7021;4.1097;-11.5050;
1793388394633082;-8.9351;2.3635;-11.3635;
1793388404736468;-7.1315;-2.1520;3.3138;
1793388414838447;-10.2814;-3.9392;2.3746;
1793388424940426;-11.5726;-1.7139;-2.1601;
1793388435051051;-11.0958;-1.0789;-1.1061;
1793388445153030;-9.6586;-2.3462;-1.1037;
1793388455255010;-11.2875;-2.0515;-1.9851;
1793388465352093;-8.2167;-0.8803;-1.4438;
1793388475454072;-7.6511;-0.1735;-2.7541;
1793388485556051;-8.4296;1.3549;-4.1841;
1793388495649853;-7.9316;0.2770;-3.9159;
1793388505751832;-13.4195;0.5572;-3.1352;
1793388515853812;-14.2268;0.5788;-1.3528;
1793388525937353;-20.9175;-0.4394;2.7987;
1793388536039332;-12.7609;-0.9855;6.2049;
1793388546141312;24.2402;-0.4155;-1.0343;
1793388556275010;3.9838;5.8705;-19.8772;
1793388566376989;-30.1065;6.9245;-16.7824;
1793388576478968;-21.8542;1.1225;0.4774;
1793388586579905;-1.6959;-5.0602;7.0313;
1793388596681885;-4.8365;-2.6982;1.6439;
1793388606783812;-15.8438;3.8174;1.1288;
1793388616877822;-19.3723;2.1191;4.1067;
1793388626979801;-9.3592;-2.0180;0.7839;
1793388637081728;-2.2588;-0.3437;-0.1430;
1793388647181051;-7.3373;1.9872;-1.4581;
1793388657283030;-10.4946;0.6338;-4.7207;
1793388667384957;-8.7051;0.0972;-3.8536;
1793388677505114;-11.4553;-1.5173;-2.6704;
1793388687607093;-9.3712;-0.9425;-3.1831;
1793388697709072;-11.3186;-3.0024;-9.7490;
1793388707800947;-21.5931;-3.4672;1.3732;
1793388717902926;-4.2688;0.0182;28.9765;
1793388728004905;4.4749;-2.7197;10.9505;
1793388738119905;-13.5850;3.4558;-27.6649;
1793388748221885;-14.5190;6.7113;-15.5916;
1793388758323864;-4.7551;1.4841;6.4756;
1793388768413030;-5.5672;-0.8755;-5.1951;
1793388778515010;-11.8098;-1.5532;-10.3358;
1793388788616989;-15.3455;-1.5269;-2.8164;
1793388798727718;-8.3172;-0.8417;3.4549;
1793388808829697;-7.8906;-0.7101;0.4008;
1793388818931676;-12.0781;-0.2764;-0.7516;
1793388829032145;-9.3520;0.0589;2.1972;
1793388839134124;-8.3028;-0.4035;-0.3132;
1793388849236103;-9.7543;-0.4609;-2.7972;
1793388859334489;-9.0072;0.6194;-2.1888;
1793388869436468;-11.4410;-0.3604;-3.1687;
1793388879538447;-9.2994;1.2927;-1.2811;
1793388889650010;-7.1530;0.6601;-2.8164;
1793388899751989;-12.9356;0.1164;-4.9723;
1793388909853968;-9.8527;2.8232;0.1086;
1793388919943760;-7.5506;1.2446;0.7600;
1793388930045791;-10.3292;-0.5806;-3.9015;
1793388940147718;-9.7137;1.0555;-1.1659;
1793388950289385;-7.8715;0.4134;-0.2677;
1793388960391416;-11.1102;0.2315;-2.6752;
1793388970493343;-9.6084;0.6194;-0.3275;
1793388980574801;-7.5888;0.2028;-1.8009;
1793388990676780;-12.6051;-0.4011;-2.8594;
1793389000778760;-9.6706;0.6410;0.0126;
1793389010857405;-7.9265;0.5166;-1.3887;
1793389020959385;-9.4741;0.8925;-3.6332;
1793389031061364;-9.3927;1.1871;-1.5781;
1793389041158864;-9.4884;1.2350;-2.0836;
1793389051260843;-10.5712;0.5213;-3.7747;
1793389061362770;-7.8691;1.0747;-2.3351;
1793389071483499;-8.3435;0.7056;-2.1984;
1793389081585478;-10.6528;0.4205;-1.7695;
1793389091687457;-9.9054;0.1379;-2.0979;
1793389101803030;-10.5544;0.2722;-1.6427;
1793389111904957;-7.7279;0.4014;-1.7456;
1793389122006989;-9.9317;-1.2156;-2.7422;
1793389132076676;-10.7270;-0.1567;-2.1912;
1793389142178655;-8.9399;-0.8731;-1.8679;
1793389152280635;-8.4706;-0.3987;-2.4188;
1793389162389697;-10.0585;-1.5461;-2.8546;
1793389172491624;-12.0685;-1.4958;-2.4643;
1793389182593603;-8.1302;-1.0932;-1.0941;
1793389192697822;-5.0498;-0.3003;-2.5552;
1793389202799853;-8.7099;-1.1821;-5.6240;
1793389212901780;-11.2421;-0.6766;-5.8995;
1793389223001572;-11.4769;-0.5207;-1.7121;
1793389233103551;-8.4368;0.7777;0.6042;
1793389243205478;-8.9710;-0.5782;-1.1061;
1793389253304905;-9.7017;-2.3462;-3.8321;
1793389263406885;-8.7652;-0.8632;-4.2945;
1793389273508812;-9.9628;-1.8670;-3.1062;
1793389283629853;-9.9413;-1.7761;-1.3241;
1793389293731832;-9.5462;-0.8680;-1.5900;
1793389303833812;-10.9187;-1.0214;-2.1362;
1793389313913239;-9.8647;-0.6455;-2.4619;
1793389324015218;-9.2489;-0.2883;-2.2271;
1793389334117145;-9.4621;-0.0897;-2.1099;
1793389344221989;-9.2034;0.7104;-3.6742;
1793389354323968;-9.9724;-0.6311;-4.0071;
1793389364425895;-11.7930;1.3741;-2.1458;
1793389374527197;-8.0058;1.9753;0.2833;
1793389384629176;-8.8944;1.7836;-1.7719;
1793389394731103;-9.8815;1.7213;-3.2501;
1793389404833968;-9.7400;0.1953;-3.5327;
1793389414935947;-7.4644;1.2808;-3.6069;
1793389425037874;-8.5208;0.4540;-3.5016;
1793389435150635;-11.4864;1.3956;-3.1663;
1793389445252614;-9.5797;1.7883;-1.1563;
1793389455354541;-7.5075;1.8748;-1.2930;
1793389465446312;-7.5386;0.5931;-3.2524;
1793389475548291;-12.4086;-0.8731;-4.4692;
1793389485650218;-11.6228;1.3334;-2.2152;
1793389495769332;-8.5807;2.4568;0.6978;
1793389505871312;-6.5300;0.4564;-2.8741;
1793389515973291;-10.8515;-1.6585;-5.9880;
1793389526061885;-9.5004;1.2063;-3.5710;
1793389536164124;-8.2549;1.6496;-1.8751;
1793389546266312;-11.0169;1.4985;-2.8594;
1793389556368760;-10.6696;1.7213;-0.8593;
1793389566470947;-9.4095;1.6496;-0.9168;
1793389576573187;-8.9423;-0.3772;-2.2295;
1793389586678030;-11.4024;0.5955;-2.7637;
1793389596780270;-8.5448;0.9835;-0.7253;
1793389606882457;-6.9972;-0.5925;-3.0488;
1793389616983551;-9.5076;-1.1076;-4.7617;
1793389627085739;-8.7389;1.1177;-3.0153;
1793389637187978;-6.3338;2.2388;-2.1912;
1793389647283760;-8.3626;0.0589;-4.9340;
1793389657385947;-12.7008;0.0733;-5.2478;
1793389667488187;-11.5080;0.3009;-2.1458;
1793389677596468;-9.8408;1.2422;1.6872;
1793389687698707;-9.1340;1.5033;2.2310;
1793389697800895;-9.2536;-0.2692;-0.1621;
1793389707899176;-9.0144;-1.6828;-3.9784;
1793389718001416;-10.1426;-2.2122;-4.9603;
1793389728103603;-9.9509;-0.3365;-4.6753;
1793389738207301;-9.5557;1.6472;-1.8153;
1793389748309489;-10.2885;0.8279;-0.6867;
1793389758411728;-11.2301;0.0374;-1.6068;
1793389768511885;-11.3234;1.1225;0.2474;
1793389778614124;-8.4129;1.1584;-0.5240;
1793389788716312;-7.6415;0.6338;-2.3758;
1793389798821260;-7.7758;0.2506;-5.1497;
1793389808923447;-9.9963;0.3918;-5.4371;
1793389819025687;-8.6764;1.6759;-3.2883;
1793389829123760;-8.7099;1.2159;-1.6307;
1793389839225999;-8.8992;0.6577;-1.3146;
1793389849328187;-10.8323;-0.5495;-2.3662;
1793389859428655;-5.6892;-1.2658;-3.2261;
1793389869530843;-11.5487;-2.0061;-4.0334;
1793389879633082;-12.9308;1.6950;-2.1745;
1793389889744385;-7.1913;0.5859;-0.8498;
1793389899846624;-7.8882;-1.6875;-2.4236;
1793389909948812;-8.6668;-2.0850;-4.7713;
1793389920050322;-10.6023;-1.5102;-4.1530;
1793389930152562;-10.6146;-0.1089;-3.4083;
1793389940254749;-9.0981;0.7008;-2.7900;
1793389950340218;-9.6012;0.0781;-1.0606;
1793389960442457;-11.3713;1.0388;-2.3037;
1793389970544645;-8.5902;0.8471;-0.8713;
1793389980655114;-7.1097;-0.0778;-3.4202;
1793389990757353;-9.5797;-0.9257;-4.8574;
1793390000859541;-8.6118;0.9236;-4.3735;
1793390010952510;-9.7878;-0.3843;-3.2118;
1793390021054697;-12.1905;1.2182;-2.4332;
1793390031156937;-8.2286;3.4415;1.2559;
1793390041259593;-7.6657;-0.9281;-2.1051;
1793390051361832;-12.2387;-2.1329;-6.3114;
1793390061464020;-9.6467;0.7513;-2.8499;
1793390071572822;-7.4668;2.0686;-1.8559;
1793390081675010;-4.5156;0.7801;-3.3171;
1793390091777249;-8.8872;-2.2600;-6.2587;
1793390101878499;-12.2387;-0.0296;-6.8456;
1793390111980739;-9.5557;2.1431;-2.0091;
1793390122082926;-8.3339;1.9298;0.4415;
1793390132186676;-9.7759;-0.1232;-0.5623;
1793390142288864;-11.2564;-0.5710;-2.9363;
1793390152391103;-8.8753;-0.0559;-3.0679;
1793390162500010;-8.6955;-0.0511;-2.3734;
1793390172602145;-8.9518;0.2411;-3.8560;
1793390182704332;-9.7304;-0.5542;-3.6595;
1793390192806572;-8.8298;-0.6861;-3.6356;
1793390202922249;-7.6825;-0.5566;-2.7852;
1793390213024489;-10.2359;-0.7484;-3.1352;
1793390223126676;-11.0480;-1.0047;-3.0703;
1793390233219749;-11.8600;1.0340;-1.1563;
1793390243321989;-9.6108;3.3024;1.5147;
1793390253424176;-7.4381;2.0423;0.6018;
1793390263506572;-10.8251;-0.3748;-4.9460;
1793390273608760;-10.2000;-0.3508;-5.9952;
1793390283710999;-8.2143;1.8365;-3.4202;
1793390293816155;-9.7400;0.5524;-3.4298;
1793390303918343;-10.8757;0.5189;-3.0129;
1793390314020582;-10.0514;0.5907;-1.3552;
1793390324122197;-10.1019;0.2961;-0.8617;
1793390334224385;-8.2525;0.1116;-1.3457;
1793390344326624;-10.2000;-1.2562;-3.2524;
1793390354429176;-9.0838;-0.3628;-4.2443;
1793390364531416;-7.6056;0.2841;-3.8273;
1793390374633603;-7.6848;0.0063;-4.1148;
1793390384737978;-10.7438;0.2841;-4.4934;
1793390394840218;-11.8265;0.5453;-2.7876;
1793390404942405;-8.0847;0.8016;-0.6126;
1793390415042405;-5.6079;-1.0190;-1.8081;
1793390425144593;-11.2421;-2.8540;-5.0061;
1793390435246832;-11.2612;-1.5030;-5.4347;
1793390445364228;-8.6070;1.3095;-1.4103;
1793390455466520;-7.4237;0.0302;-0.5862;
1793390465568655;-9.9221;-1.8335;-4.6968;
1793390475657822;-8.5735;-2.6743;-4.6035;
1793390485760062;-11.5391;-1.5006;-2.4906;
1793390495862249;-9.0814;1.2760;-2.1194;
1793390505961989;-9.4645;0.4445;-0.4304;
1793390516064176;-10.6098;0.2913;-1.6786;
1793390526173082;-10.1186;0.5620;-2.9602;
1793390536275270;-9.0957;1.3238;-2.4667;
1793390546377510;-9.0550;1.4339;-2.1147;
1793390556466312;-9.5653;-0.3580;-3.7986;
1793390566568499;-8.2095;0.8973;-3.7364;
1793390576670687;-8.3172;1.5826;-2.2678;
1793390586778812;-9.8910;1.8676;-2.5986;
1793390596880999;-8.9160;1.6400;-2.8741;
1793390606983239;-10.1378;1.4865;-1.9684;
1793390617082614;-12.4349;1.3478;-1.7145;
1793390627184801;-6.8055;3.8868;-0.5934;
1793390637287041;-8.1733;0.5429;-1.9660;
1793390647392926;-9.9772;-1.5317;-7.0038;
1793390657495166;-8.6716;0.0374;-4.7450;
1793390667597353;-8.1613;0.3488;-2.9315;
1793390677695530;-10.4348;0.3248;-2.5672;
1793390687797718;-10.3487;1.4339;0.1564;
1793390697899957;-9.9939;1.0292;-1.2425;
1793390708004593;-11.2469;-1.3591;-1.6810;
1793390718106832;-8.6333;-1.1219;-1.9062;
1793390728209020;-7.3373;-1.0717;-3.1687;
1793390738308030;-9.6873;-1.0932;-3.7962;
1793390748410270;-11.4864;0.0446;-2.4667;
1793390758512457;-7.0929;1.5873;-2.4356;
1793390768618447;-7.6271;-1.7689;-3.0823;
1793390778720635;-11.7428;-1.2610;-6.0144;
1793390788822874;-6.5252;0.5883;-2.1482;
1793390798920010;-10.3316;-0.0969;-2.2869;
1793390809022197;-14.7108;1.0723;-2.4428;
1793390819124437;-7.0642;1.0699;2.1685;
1793390829228030;-3.1286;-1.0023;-2.0788;
1793390839330218;-12.0230;-4.2266;-7.3008;
1793390849432457;-13.1752;-0.3242;-6.3978;
1793390859529541;-10.2383;1.2087;-1.1755;
1793390869631728;-8.7437;2.9408;1.7255;
1793390879733916;-10.6170;-0.3365;0.3024;
1793390889836780;-3.5046;0.9930;-2.8618;
1793390899939020;-7.0738;-3.5919;-8.1775;
1793390910041207;-16.4904;-2.5810;-9.4208;
1793390920153030;-10.4922;4.1097;-0.7923;
1793390930255270;-5.2053;5.6357;4.1593;
1793390940357457;-9.7184;1.6161;0.9685;
1793390950446937;-9.6849;-1.0382;-5.7652;
1793390960549124;-9.0024;-2.8397;-7.3941;
1793390970651312;-9.9293;-2.9282;-7.2266;
1793390980770426;-7.8212;2.7969;-0.1860;
1793390990872614;-8.0680;3.3503;0.5827;
1793391000974853;-11.2540;-0.7603;-2.4476;
1793391011053760;-11.1221;-3.5489;-3.5734;
1793391021155947;-9.2755;-0.6502;-3.2931;
1793391031258187;-7.9771;0.4783;-1.8535;
1793391041369385;-10.5473;-0.4011;-2.1984;
1793391051471624;-7.2248;3.1564;-0.7516;
1793391061573812;-6.8222;-0.3987;-4.8263;
1793391071701364;-14.0928;-3.3811;-6.2372;
1793391081803603;-10.7797;0.8303;-2.8693;
1793391091905791;-5.1838;2.1048;2.1350;
1793391101971624;-11.2014;-1.5485;-2.7254;
1793391112073812;-11.1341;0.2602;-2.0907;
1793391122176051;-7.6463;0.2865;-1.9445;
1793391132305478;-8.4296;-0.5447;-2.6225;
1793391142407718;-9.0526;-0.5590;-3.9927;
1793391152509905;-9.2130;1.5296;-2.5098;
1793391162609541;-10.2431;-0.3604;-4.6944;
1793391172711780;-9.1986;-0.0320;-2.3638;
1793391182813968;-8.7844;0.9165;-1.9229;
1793391192925478;-9.6467;1.3190;-1.8153;
1793391203027718;-10.1617;-0.0706;-3.1519;
1793391213129905;-9.4884;2.2866;-1.6020;
1793391223220739;-7.7614;0.7152;-3.8895;
1793391233322978;-10.6337;-1.4838;-4.0334;
1793391243425218;-9.4478;0.9212;-3.6141;
1793391253508135;-8.4248;1.2087;-1.2763;
1793391263610322;-9.9891;0.5118;-3.1277;
1793391273712562;-11.6683;1.9322;-0.5623;
1793391283834437;-10.5927;2.4903;-0.8450;
1793391293936676;-9.4119;1.6137;-0.7875;
1793391304038864;-9.0024;-0.0655;-3.8249;
1793391314117926;-7.0164;-0.5303;-4.5317;
1793391324220114;-6.3529;0.2937;-4.9005;
1793391334322353;-6.3673;-0.2070;-5.7413;
1793391344427510;-9.6491;-0.6861;-4.5389;
1793391354529697;-14.8400;1.2494;-3.7340;
1793391364631937;-12.3464;3.8677;3.3305;
1793391374734593;-6.7768;2.4903;3.7376;
1793391384836832;-8.6118;-1.9558;-1.7240;
1793391394939020;-12.5596;-4.2960;-7.3774;
1793391405047093;-6.8462;-0.1974;-3.9135;
1793391415149332;-6.5515;0.6697;-2.8570;
1793391425251520;-11.3521;-1.1677;-6.0215;
1793391435350739;-10.9068;-0.7914;-2.6847;
1793391445452926;-8.9758;1.1297;-1.8368;
1793391455555166;-9.8743;2.7562;0.8557;
1793391465655739;-9.7543;0.2794;-0.4714;
1793391475757926;-10.0274;1.3645;-2.3228;
1793391485860166;-7.1554;1.5897;-1.1109;
1793391495960843;-6.9709;1.0866;-4.7064;
1793391506063030;-10.1904;-2.7799;-7.7273;
1793391516165270;-11.2971;-2.4227;-5.8205;
1793391526266572;-10.1952;0.8877;-0.4472;
1793391536368551;-5.8020;3.9179;2.3554;
1793391546470582;-13.9920;0.2578;-1.5685;
1793391556584072;-12.8303;0.3416;-2.8741;
1793391566686103;-5.3420;-0.2261;-1.5996;
1793391576788082;-7.0379;-0.3290;-3.2501;
1793391586877145;-9.6897;-1.8335;-6.3042;
1793391596979124;-10.2574;-0.1137;-5.0827;
1793391607081155;-7.8021;2.0856;-0.3658;
1793391617185218;-8.7556;-0.0511;-2.1793;
1793391627287197;-12.0829;0.0589;-2.0186;
1793391637389228;-10.3511;1.0316;-0.7373;
1793391647489072;-9.9485;0.5524;-0.6556;
1793391657591051;-9.2417;0.5524;-0.3419;
1793391667693082;-7.7518;0.3296;-3.3458;
1793391677798655;-11.4482;-1.8598;-5.8612;
1793391687900687;-7.8882;1.2470;-4.1746;
1793391698002666;-9.1603;0.6505;-3.5399;
1793391708104176;-10.8443;2.0566;-1.8583;
1793391718206207;-9.5390;0.8160;-0.1959;
1793391728308187;-9.7376;1.5105;-2.3276;
1793391738406468;-9.4190;0.7128;-0.7035;
1793391748508499;-8.4416;0.9739;-3.1567;
1793391758610478;-7.7782;0.6242;-2.7805;
1793391768721312;-7.4764;0.1331;-3.4944;
1793391778823291;-12.4397;-1.5915;-4.7207;
1793391788925322;-11.9294;1.1034;-1.3146;
1793391799024385;-9.9078;0.7128;0.1947;
1793391809126364;-8.8585;-0.4083;-1.7886;
1793391819228395;-7.1698;-1.1557;-1.7049;
1793391829327405;-8.9112;-0.3389;-5.0444;
1793391839429385;-9.5557;0.7394;-4.5676;
1793391849531416;-8.8561;0.9667;-1.4318;
1793391859636260;-9.8599;0.9165;-3.5734;
1793391869738239;-8.2502;-0.1017;-2.2247;
1793391879840270;-9.6012;-0.0706;-2.1888;
1793391889946155;-10.4300;0.1475;-2.5098;
1793391900048187;-10.3053;0.6960;-0.4376;
1793391910150166;-8.6716;-0.2907;-0.8426;
1793391920257145;-8.0441;-0.1543;-3.5471;
1793391930359124;-11.0001;-1.2658;-5.4227;
1793391940461155;-10.6217;0.1187;-4.7402;
1793391950552353;-6.6906;0.7104;-0.2198;
1793391960654332;-8.4754;1.2685;-1.2353;
1793391970756364;-10.4731;-0.0921;-3.0751;
1793391980865530;-8.9853;0.4564;-2.7135;
1793391990967562;-9.7137;0.3464;-2.0474;
1793392001069541;-10.3798;0.6338;-2.2080;
1793392011162926;-10.2742;-1.1677;-1.7695;
1793392021264905;-10.1043;-0.5447;-1.0678;
1793392031366937;-8.9806;-0.5542;-1.9899;
1793392041473395;-7.9819;-0.9425;-2.4069;
1793392051575374;-9.6945;-1.1605;-4.4524;
1793392061677405;-10.5018;-1.3496;-4.1650;
1793392071830739;-8.0178;-0.5901;-2.5504;
1793392081932770;-8.3219;-0.4490;-2.1003;
1793392092034749;-9.9221;-0.1089;-2.0163;
1793392102099489;-9.3903;-0.2213;-1.6499;
1793392112201468;-10.4898;-1.0717;-2.5050;
1793392122303447;-9.6108;-0.1735;-3.1038;
1793392132436207;-8.4826;-0.7053;-3.0057;
1793392142538239;-10.1761;-2.1209;-4.2826;
1793392152640218;-11.1655;-1.9487;-3.0966;
1793392162697874;-9.5845;-0.9640;-2.1386;
1793392172799853;-10.7366;-1.4121;-2.7757;
1793392182901885;-11.2110;-0.4131;-2.1625;
1793392193001155;-3.7011;0.0829;-1.2520;
1793392203103135;-3.8160;-0.5638;-5.6504;
1793392213205114;-13.1393;-0.1615;-5.7556;
1793392223311885;-13.6208;1.3238;-1.3337;
1793392233413864;-9.6538;-0.2524;-0.6867;
1793392243515895;-7.7447;-0.6239;-2.7206;
1793392253631520;-10.0466;0.3583;-3.0559;
1793392263733551;-12.1618;-1.7234;-1.6522;
1793392273835582;-8.9183;-0.5710;-1.4007;
1793392283922614;-6.3410;-0.0631;-2.4428;
1793392294024645;-9.2755;-0.8225;-4.7928;
1793392304126624;-13.0627;-0.3820;-4.3831;
1793392314239593;-7.1121;1.4961;-1.4151;
1793392324341624;-7.3899;-0.2022;-3.3912;
1793392334443603;-12.3272;0.3631;-1.8846;
1793392344545322;-7.1459;3.5085;2.3219;
1793392354647353;-7.6657;0.7223;-3.5423;
1793392364749332;-10.8610;-1.8766;-7.5093;
1793392374849176;-10.0804;-1.3161;-3.5686;
1793392384951207;-8.7027;-2.0850;-0.3323;
1793392395053187;-10.1880;-0.5662;-2.0979;
1793392405152510;-13.7309;-1.3065;-2.2774;
1793392415254541;-11.1559;-1.0717;0.8629;
1793392425356520;-10.3487;0.8375;0.5707;
1793392435467197;-9.2082;-0.7149;-1.4940;
1793392445569228;-7.9364;-0.0754;-2.0498;
1793392455671207;-4.5634;-0.4537;-4.2227;
1793392465774072;-8.7485;0.6266;-6.2420;
1793392475876103;-8.9614;0.9882;-4.5843;
1793392485978082;-12.3727;0.8710;-2.9674;
1793392496070478;-12.5477;-1.3400;0.4750;
1793392506172510;-5.5911;-1.1414;0.1349;
1793392516274489;-8.5519;-0.2309;-4.5532;
1793392526376989;-10.7533;-0.3843;-4.3711;
1793392536479072;-8.8585;-0.2907;-2.4093;
1793392546581155;-10.0107;-0.6168;-3.7149;
1793392556690843;-9.5581;0.0924;-2.0740;
1793392566792926;-8.0800;-0.7579;-1.4653;
1793392576895010;-9.0287;-0.6837;-4.0789;
1793392586996468;-12.9906;0.0254;-3.9377;
1793392597098603;-11.5271;1.0795;1.9457;
1793392607200635;-6.5563;-0.4394;3.6538;
1793392617296780;-7.1961;-0.9832;-5.2095;
1793392627398864;-8.6931;-0.8946;-8.6327;
1793392637500947;-14.0833;-0.3867;-6.2898;
1793392647608864;-8.3435;-1.0119;3.1388;
1793392657710999;-5.5385;-1.2778;-0.1071;
1793392667813082;-9.3855;0.4493;-6.3954;
1793392677911572;-10.7868;1.0388;-4.1076;
1793392688013707;-8.5591;-0.0655;-1.0439;
1793392698115791;-7.4836;1.2063;-2.8813;
1793392708220114;-12.3703;-0.0153;-2.9219;
1793392718322249;-7.6152;-0.0631;-1.1898;
1793392728424280;-7.3062;0.2722;-3.7866;
1793392738518655;-13.0460;-1.7689;-4.7952;
1793392748620791;-14.1574;-1.4169;-0.6365;
1793392758722874;-8.0082;-0.8177;2.9662;
1793392768830947;-5.6557;0.0159;-3.0105;
1793392778933030;-11.1799;-0.6215;-6.8384;
1793392789035166;-12.1786;0.6840;-2.0282;
1793392799140635;-5.3444;1.0053;0.6906;
1793392809242718;-5.9671;1.1728;-3.5590;
1793392819344801;-18.1196;-0.3556;-4.2491;
1793392829430322;-13.0866;-0.4322;1.7016;
1793392839532405;-2.6590;-0.6287;-0.3060;
1793392849634541;-7.4285;0.1762;-6.8743;
1793392859742093;-13.8099;0.4181;-2.6632;
1793392869844176;-8.1900;-1.0645;-0.4113;
1793392879946260;-0.9437;0.6123;-6.1630;
1793392890058239;-7.8236;0.4110;-9.5886;
1793392900160374;-16.6965;0.1594;-3.9302;
1793392910262457;-10.8203;0.7513;2.8681;
1793392920387197;-7.0714;-0.2548;-0.7828;
1793392930489332;-9.0814;-0.1854;-4.1961;
1793392940591416;-9.3401;-0.2357;-0.0640;
1793392950662822;-8.3363;0.0972;-4.7761;
1793392960764905;-11.8265;-1.8168;-6.6565;
1793392970867041;-11.0073;-1.6155;-1.1539;
1793392980977718;-8.1948;0.3081;0.5444;
1793392991079801;-8.7147;-0.8034;-2.9100;
1793393001181937;-11.7236;-1.0645;-3.8776;
1793393011270010;-9.8384;0.3129;0.7289;
1793393021372093;-5.8451;1.4746;1.5362;
1793393031474228;-9.9221;0.4783;-3.6452;
1793393041584489;-8.7003;-0.9425;-4.6633;
1793393051686572;-8.5878;0.0015;-3.9302;
1793393061788707;-11.3569;1.7596;-3.4346;
1793393071877978;-10.1904;-1.2993;-2.5050;
1793393081980062;-7.3516;-0.5901;-3.9927;
1793393092082145;-9.3520;-1.1390;-3.4490;
1793393102200635;-9.2465;-0.9377;-2.1147;
1793393112302718;-7.8906;-0.3003;-2.0955;
1793393122404801;-11.8887;-0.6191;-2.6417;
1793393132495270;-13.6065;-1.4647;-1.5302;
1793393142597405;-11.3569;0.0087;1.1794;
1793393152699489;-6.8871;-0.6144;1.5505;
1793393162804124;-6.8294;0.1810;-4.1052;
1793393172906260;-11.1703;0.0637;-5.1090;
1793393183008343;-9.3616;0.1331;-0.5192;
1793393193142562;-6.3841;0.4181;-3.7244;
1793393203244697;-8.7075;0.0661;-6.5629;
1793393213346780;-12.0805;0.3464;-2.6943;
1793393223446103;-10.7916;-0.0105;-0.0903;
1793393233548239;-8.6644;-0.4370;-1.1444;
1793393243650322;-7.9986;0.0470;-2.9219;
1793393253749124;-8.2190;0.4349;-1.8751;
1793393263851260;-11.5128;-0.0873;-3.5830;
1793393273953395;-10.5664;-0.7364;-2.8451;
1793393284040322;-8.7772;-0.2548;-1.9588;
1793393294142405;-9.2656;0.7561;-2.3614;
1793393304244541;-11.2947;1.1393;-2.3180;
1793393314343395;-11.4024;0.7271;-0.5025;
1793393324445530;-8.3172;-0.4992;0.3144;
1793393334547614;-7.2296;0.5022;-1.3074;
1793393344647510;-9.4454;1.2637;-2.5433;
1793393354749645;-10.9738;0.3966;-3.7842;
1793393364851728;-9.5172;0.8949;-4.0286;
1793393374957301;-9.2755;-0.1735;-1.3768;
1793393385059437;-8.7700;0.7032;-3.3697;
1793393395161520;-9.1388;0.1355;-2.4763;
1793393405263135;-7.1578;0.1283;-2.5241;
1793393415365270;-9.3520;0.2124;-4.7856;
1793393425467353;-12.7319;0.6697;-2.6991;
1793393435598343;-8.0728;0.2865;-0.9263;
1793393445700478;-10.0537;-1.9726;-2.9435;
1793393455802562;-12.8877;-0.5447;-2.2199;
1793393465883760;-7.6896;-0.3532;0.7026;
1793393475985895;-6.5515;-1.1100;-3.1496;
1793393486087978;-10.4037;0.8495;-4.7351;
1793393496194645;-9.9389;1.3597;-1.5757;
1793393506296780;-10.5449;-0.4250;-0.7373;
1793393516398864;-7.2296;-0.1687;-2.5839;
1793393526482510;-8.5735;0.0757;-3.9111;
1793393536584593;-10.4611;1.0364;-2.7829;
1793393546686676;-9.2536;-0.4609;-1.9038;
1793393556797145;-9.0814;-1.0789;-3.7555;
1793393566899228;-8.0201;-0.2835;-3.3553;
1793393577001312;-9.5773;-1.1195;-2.3758;
1793393587101572;-11.9465;0.0996;-4.4237;
1793393597203655;-15.1274;-1.2921;-1.5996;
1793393607305739;-1.5165;0.9547;0.7552;
1793393617403655;-6.8198;0.1379;-2.7805;
1793393627505739;-13.4554;0.8255;-2.5050;
1793393637607822;-10.4085;-0.0440;-2.6967;
1793393647709385;-8.5687;-0.1615;-2.8379;
1793393657811468;-7.1507;0.6242;-2.0545;
1793393667913551;-10.2574;-0.6502;-3.2979;
1793393678039385;-11.8313;0.0924;-2.7637;
1793393688141468;-10.0585;-0.5088;-1.1204;
1793393698243551;-11.2516;0.4253;-0.3754;
1793393708330218;-8.3794;-0.6694;-2.0091;
1793393718432301;-9.6036;-0.0631;-3.3410;
1793393728534385;-10.5042;-0.0969;-3.4250;
1793393738637562;-9.1579;1.0125;-0.7469;
1793393748739645;-4.4315;-0.1424;-0.5336;
1793393758841728;-10.1833;-0.2548;-7.2051;
1793393768945739;-13.0388;1.6711;-3.4848;
1793393779047822;-8.9949;-0.3338;-1.6594;
1793393789149905;-7.6415;0.4759;-2.7135;
1793393799246885;-7.3301;-0.0009;-2.4476;
1793393809348968;-11.5941;-0.0682;-3.7507;
1793393819451051;-10.7797;0.5907;-3.4083;
1793393829556155;-9.0431;-0.8010;-3.1229;
1793393839658239;-12.1905;0.6984;-2.0740;
1793393849760322;-6.9996;0.2626;-1.5470;
1793393859863760;-7.0857;0.2650;-1.8200;
1793393869965843;-9.3377;0.4110;-2.3590;
1793393880067926;-12.2985;1.3071;-2.6489;
1793393890170062;-10.3463;0.9141;-2.1147;
1793393900272145;-7.7877;0.4493;-2.2199;
1793393910374228;-6.7313;0.3918;-2.8068;
1793393920498551;-10.1139;0.8231;-3.1974;
1793393930600635;-10.4109;0.8375;-3.5303;
1793393940702718;-9.5581;0.4540;-3.5136;
1793393950762041;-10.2024;1.3549;-2.6800;
1793393960864124;-8.9279;0.8375;-2.2774;
1793393970966207;-8.9136;0.2363;-2.1482;
1793393981091572;-10.1258;0.4636;-2.2750;
1793393991193655;-9.8647;0.3272;-1.9756;
1793394001295739;-8.9088;1.4267;-1.4007;
1793394011378395;-7.5290;-0.5423;-2.9172;
1793394021480478;-11.5056;-0.2859;-2.9052;
1793394031582562;-13.5754;1.1177;-1.4390;
1793394041714176;-9.3257;0.0637;-1.2930;
1793394051816260;-4.6783;-1.5772;-1.8296;
1793394061918343;-5.5816;0.9188;-3.1134;
1793394072002874;-11.5678;0.7944;-3.9449;
1793394082104905;-11.6372;-0.0368;-3.8130;
1793394092206989;-10.0633;0.9212;-2.9028;
1793394102317562;-7.0810;0.0350;-2.7278;
1793394112419645;-9.2994;-0.2979;-3.2070;
1793394122521728;-9.8743;-0.9497;-2.3925;
1793394132614749;-13.8174;0.1905;-2.2630;
1793394142716832;-9.5581;-0.2524;0.3529;
1793394152818916;-4.5323;-1.0310;-1.9493;
1793394162919228;-8.8777;-0.2405;-4.3113;
1793394173021364;-15.0197;0.5309;-2.3013;
1793394183123447;-12.6099;0.2650;-0.2462;
1793394193218655;-8.4634;0.4711;0.7337;
1793394203320739;-6.9900;0.4205;-1.0750;
1793394213422822;-10.0322;0.1116;-2.7685;
1793394223557249;-13.3597;-0.4274;-3.3912;
1793394233659332;-7.7016;-0.9233;-1.4749;
1793394243761416;-7.7782;0.4181;-3.0894;
1793394253857666;-10.8781;-0.7986;-3.7125;
1793394263959749;-10.4516;-0.4777;-4.8694;
1793394274061885;-15.4295;0.1905;-2.9411;
1793394284137301;-2.0360;0.2052;-1.1252;
1793394294239385;1.1955;1.0244;-2.2726;
1793394304341468;-9.8815;1.3884;-6.3500;
1793394314467718;-11.3474;0.5261;-5.8899;
1793394324569801;-11.0480;0.4062;-5.5475;
1793394334671885;-11.8959;0.6218;-3.4777;
1793394344764801;-7.3110;-0.5088;-2.0692;
1793394354866885;-9.7041;-1.2299;-2.2367;
1793394364968968;-12.2243;-0.4131;0.2019;
1793394375077093;-9.6180;-0.1519;-0.7253;
1793394385179228;-12.3870;-1.5413;-0.9885;
1793394395281312;-7.1267;-0.1232;-0.2821;
1793394405375843;-1.9140;0.0876;-3.1878;
1793394415477926;-15.4893;1.8078;0.0628;
1793394425580010;-16.0762;2.0040;1.3971;
1793394435701728;-10.8948;0.5955;-1.6020;
1793394445803812;-4.1776;1.8508;-0.1813;
1793394455905895;-3.2052;0.0374;-1.7961;
1793394466008135;-9.2369;-0.8201;-5.5714;
1793394476110218;-10.0179;1.1680;-4.9436;
1793394486212301;-11.8505;-1.5556;-5.3940;
1793394496285739;-11.9513;-0.5183;-5.3797;
1793394506387822;-7.0427;-0.9592;-2.6489;
1793394516489905;-8.6931;-0.7555;-2.9100;
1793394526593551;-12.0350;0.8399;-0.7155;
1793394536695635;-5.8905;0.0422;2.8298;
1793394546797770;-5.6055;-0.3437;-4.8335;
1793394556906572;-13.7931;-1.7521;-6.1056;
1793394567008707;-14.7538;-0.7316;-2.1601;
1793394577110791;-9.6515;-1.6250;0.6165;
1793394587215426;-4.2664;-1.3543;0.2665;
1793394597317562;-10.1402;-0.0706;-1.8990;
1793394607419645;-14.2986;1.1417;-2.6010;
1793394617517093;-10.6528;-0.4083;-1.3146;
1793394627619176;-8.2860;0.6482;-2.0139;
1793394637721312;-6.7457;0.4205;-1.8320;
1793394647822978;-6.4319;-0.1902;-3.7244;
1793394657925062;-9.3712;0.2124;-5.6432;
1793394668027249;-11.3210;0.7705;-3.4609;
1793394678135843;-9.3784;-0.6909;-3.3051;
1793394688237978;-9.4478;0.2913;-3.7531;
1793394698340114;-8.7820;-0.1639;-2.2056;
1793394708433968;-7.6920;-0.7962;-1.7312;
1793394718536103;-10.3029;0.5501;-3.5901;
1793394728638239;-11.9103;-0.8130;-1.7551;
1793394738744801;-10.2168;0.7418;-1.4151;
1793394748846937;-8.6213;-0.4107;-1.5132;
1793394758949072;-8.7700;0.2483;-1.6211;
1793394769057093;-7.3469;0.4229;-1.7791;
1793394779159228;-7.8165;0.9882;-2.6369;
1793394789261364;-9.7926;0.4493;-2.5170;
1793394799356468;-10.9953;1.1895;-4.4910;
1793394809458603;-10.2718;-0.4202;-2.4978;
1793394819560687;-10.0875;0.5333;-2.5481;
1793394829672405;-8.5304;-0.4513;-2.4787;
1793394839774541;-7.1291;-0.3218;-1.8488;
1793394849876676;-9.2827;1.0795;-2.7470;
1793394859974385;-13.6591;-0.5064;-2.9937;
1793394870076520;-12.0709;-0.3218;-1.4725;
1793394880178655;-6.2665;0.3631;-0.8617;
1793394890273968;-10.1617;-0.0631;-1.1515;
1793394900376103;-11.8026;0.0326;-0.9837;
1793394910478239;-6.2474;0.4926;-0.6221;
1793394920605843;-4.0723;0.1044;-2.8884;
1793394930707978;-9.6467;0.3870;-4.9268;
1793394940810114;-15.9924;0.3033;-4.9244;
1793394950890270;-14.3058;0.4086;-1.2739;
1793394960992457;-6.5420;0.3607;-0.2725;
1793394971094593;-0.2731;-0.0296;-2.2319;
1793394981202301;-11.3426;-0.6861;-4.2009;
1793394991304489;-14.9240;-0.1065;-5.4873;
1793395001406624;-9.7304;-1.2108;-2.3037;
1793395011486885;-7.6415;0.3344;-0.1095;
1793395021588968;-8.9351;-1.1916;-3.1158;
1793395031691155;-13.0508;-1.7067;-3.8776;
1793395041796364;-11.0312;0.4062;0.9924;
1793395051898499;-5.9169;1.3310;1.5960;
1793395062000635;-9.0191;-0.4609;-1.7647;
1793395072125895;-13.7237;0.8183;-4.4357;
1793395082228030;-8.9016;0.2626;-2.7924;
1793395092330166;-4.7118;-0.5375;-0.7947;
1793395102411207;-8.4488;0.8566;-3.6045;
1793395112513343;-13.3621;-0.0873;-6.6876;
1793395122615478;-12.7032;0.0063;-1.4438;
1793395132720687;0.4983;-0.1184;-2.6273;
1793395142822822;-12.5740;-0.1472;-4.3017;
1793395152924957;-13.7261;-0.6311;-4.7665;
1793395163033239;-11.7500;-0.6622;-1.0008;
1793395173135426;-6.2976;0.6745;0.5396;
1793395183237562;-6.1062;0.3320;-2.2319;
1793395193375114;-13.8003;-0.3338;-3.5830;
1793395203477249;-9.3903;-0.3242;-1.6953;
1793395213579385;-5.1574;0.8758;-0.7397;
1793395223655218;-11.6611;1.0316;-1.9038;
1793395233757353;-9.8169;-0.1137;-3.6523;
1793395243859489;-8.0560;-0.9353;-3.4059;
1793395253965166;-11.2708;0.9165;-2.4619;
1793395264067301;-4.6711;1.9226;-1.1970;
1793395274169489;-10.9666;-2.0970;-5.8011;
1793395284256572;-24.9945;0.6936;-1.7240;
1793395294358707;-12.8279;1.6998;2.9279;
1793395304460843;5.0019;-2.1042;1.4548;
1793395314566572;9.0885;-1.0908;-4.9627;
1793395324668707;-14.1335;-0.2931;-10.9445;
1793395334770843;-25.4833;3.2713;-2.8331;
1793395344873760;-15.4247;2.0904;3.1627;
1793395354975895;-5.6868;0.2001;-2.5170;
1793395365078030;0.3954;-2.2839;-1.8416;
1793395375180947;-6.5731;-0.1759;-3.2285;
1793395385283082;-15.3144;0.5094;-3.3218;
1793395395385218;-14.9862;0.9093;-0.8976;
1793395405487510;-4.8102;-1.0478;-4.4381;
1793395415589645;-6.6835;-2.2624;-7.3630;
1793395425691780;-14.2747;-0.6646;-3.2333;
1793395435810218;-13.8700;0.0876;4.7174;
1793395445912353;-2.4673;2.5286;4.1282;
1793395456014489;-5.2508;-1.0502;-4.7880;
1793395466106989;-12.4540;0.4974;-6.9081;
1793395476209124;-12.9739;-0.9209;-4.4022;
1793395486311260;-11.6830;-0.1663;-0.7397;
1793395496402978;-7.4764;-0.2166;0.3817;
1793395506505114;-6.4128;0.0398;-2.4404;
1793395516607249;-8.3339;-0.4155;-4.2754;
1793395526705218;-11.0025;-0.3556;-4.6729;
1793395536807353;-12.2267;-0.2166;-1.5108;
1793395546909489;-6.6906;0.4301;-1.7456;
1793395557025062;-5.7347;-0.6670;-3.3458;
1793395567127197;-10.9020;-0.0655;-3.2070;
1793395577229280;-9.6873;-1.5078;-2.5313;
1793395587328760;-14.5023;-0.0921;-3.6284;
1793395597430895;-8.5783;-0.0945;-1.1779;
1793395607533030;-4.0484;-0.7029;0.0078;
1793395617627718;-11.6109;0.6290;-2.7350;
1793395627729853;-13.2039;-0.4657;-2.5265;
1793395637831989;-8.5232;-0.8441;-1.8799;
1793395647953239;-9.0838;0.4684;-1.1013;
1793395658055374;-9.1986;-0.8010;-2.7374;
1793395668157562;-9.6873;-0.4155;-2.6943;
1793395678248239;-7.8452;-0.1926;-1.5685;
1793395688350374;-7.6968;-0.6455;-3.6933;
1793395698452510;-10.1498;0.2459;-4.8335;
1793395708550947;-10.3268;0.7008;-2.8693;
1793395718653082;-12.0589;-0.9353;-3.1543;
1793395728755218;-7.8763;1.0842;-0.9526;
1793395738852770;-3.8973;-0.1472;-2.5026;
1793395748954905;-9.9700;-0.9042;-4.8048;
1793395759057041;-13.3717;0.9141;-2.6489;
1793395769163343;-8.0345;-1.1725;-2.3252;
1793395779265478;-9.4645;-0.6885;-2.5385;
1793395789367614;-7.6056;0.2100;-2.2582;
1793395799480843;-1.6337;-0.9544;-3.1301;
1793395809582978;-11.8744;1.6208;-4.0597;
1793395819685114;-21.3488;0.8806;-1.5132;
1793395829779385;-13.9920;1.8485;1.1336;
1793395839881520;-1.7919;-0.6455;-0.1406;
1793395849983655;-11.3402;-1.7186;-0.3586;
1793395860081989;-15.0628;0.6266;-0.4857;
1793395870184124;-19.5377;-0.9927;1.5840;
1793395880286260;0.5557;-0.0706;-1.1611;
1793395890395062;4.5658;-2.2023;-0.5480;
1793395900497197;-13.2087;2.6916;-7.2099;
1793395910599280;-22.2829;0.3703;-7.5356;
1793395920718864;-13.5153;4.4809;3.5052;
1793395930820999;3.3009;3.1875;0.4463;
1793395940923135;0.2611;-1.9292;-9.6796;
1793395951017614;-12.4564;-0.1208;-10.4701;
1793395961119697;-15.1322;1.0460;-3.3936;
1793395971221832;-10.4444;-0.3099;-1.8153;
1793395981310218;-11.2421;-1.5915;-7.0804;
1793395991412353;-6.8103;-2.5164;-3.3553;
1793396001514489;-16.6869;-2.1927;0.3840;
1793396011603239;-7.1459;2.5190;7.7524;
1793396021705374;-4.3454;-0.3003;0.1923;
1793396031807510;-11.5271;0.4564;-3.6933;
1793396041924801;-9.1220;1.4004;-1.5805;
1793396052026937;-10.5473;1.1728;-1.1300;
1793396062129072;-19.2742;1.5344;0.1516;
1793396072223499;-5.8451;0.4926;-0.5886;
1793396082325687;-1.7701;1.1249;-0.6102;
1793396092427770;-7.7255;0.0685;-6.5222;
1793396102527145;-16.1982;-0.1711;-6.0335;
1793396112629280;-10.3196;0.9356;-2.6201;
1793396122731416;-6.9182;-0.0778;-3.6885;
1793396132873707;-7.2631;0.1977;-4.9149;
1793396142975791;-9.2058;-0.1089;-2.2415;
1793396153077926;-9.0000;-0.0344;-3.5040;
1793396163135582;-14.0976;1.4961;-1.5781;
1793396173237718;-9.3568;-0.0682;0.5228;
1793396183339905;-3.5620;-1.1533;-3.2979;
1793396193447510;-15.3359;-2.0372;-4.1530;
1793396203549645;-10.5162;0.3655;0.9685;
1793396213651728;-4.6328;-1.5461;-1.2281;
1793396223774853;-8.3243;-0.3676;-3.9473;
1793396233877041;-16.8452;-0.3987;-3.5686;
1793396243979124;-9.2584;0.4974;-0.9718;
1793396254080166;-3.7083;-0.1831;-0.8545;
1793396264182301;-8.2406;-0.0945;-3.6885;
1793396274284489;-13.0723;0.2124;-2.5146;
1793396284374801;-7.1001;-0.5136;-3.7723;
1793396294476989;-8.7051;-0.9281;-4.9005;
1793396304579072;-12.6147;-0.2118;-2.7852;
1793396314680426;-8.5041;-1.7641;-1.8870;
1793396324782562;-9.1627;-0.1807;-2.4021;
1793396334884697;-10.8180;-0.6526;-1.2066;
1793396344985010;-8.0106;0.0422;-0.2892;
1793396355087145;-7.2631;-0.0873;-2.6201;
1793396365189228;-11.3163;0.0541;-2.0498;
1793396375292822;-11.9318;0.8590;-0.9526;
1793396385394957;-6.2689;0.2195;-2.1864;
1793396395497093;-7.5673;-0.9090;-3.3099;
1793396405600114;-12.0374;0.6362;-3.4585;
1793396415702249;-7.9388;-0.4537;-2.0330;
1793396425804385;-3.3945;-0.5806;-4.0214;
1793396435922093;-7.7758;-0.2931;-6.4983;
1793396446024228;-10.3798;1.2230;-4.5150;
1793396456126364;-5.8618;0.5285;-2.9841;
1793396466223551;-7.6415;0.6625;-4.0430;
1793396476325687;-5.8044;1.3502;-3.0153;
1793396486427822;-17.8705;1.1656;-2.2367;
1793396496529072;-20.7544;-0.0631;0.3697;
1793396506631207;-10.6959;-1.1414;2.9183;
1793396516733343;-6.0799;-2.0779;2.7963;
1793396526820322;-7.3229;-2.5522;1.3229;
1793396536922457;-11.2828;-0.7029;-0.7899;
1793396547024593;-11.7906;1.8700;-0.2533;
1793396557144905;-8.9136;0.5764;0.5109;
1793396567247041;-6.2617;2.7179;-1.5829;
1793396577349176;-7.2320;2.3611;-2.4619;
1793396587434489;-11.8217;2.4975;-3.5734;
1793396597536676;-10.4516;2.7347;-2.6249;
1793396607638812;-3.0517;1.2661;-6.7977;
1793396617738135;-7.7542;-2.8205;-12.0057;
1793396627840270;-12.9835;-2.5379;-7.9211;
1793396637942405;-13.6543;-1.3711;-2.8475;
1793396648043239;-9.2946;-1.1557;-1.3433;
1793396658145374;-6.7433;-1.0238;-2.4691;
1793396668247510;-11.1823;-0.3963;-0.2342;
1793396678361676;-9.0431;1.2808;1.3708;
1793396688463812;-8.8777;0.7944;0.7648;
1793396698565947;-9.1196;0.9356;-0.3778;
1793396708660947;-11.0791;1.1824;-1.0534;
1793396718763082;-11.1269;-0.2740;-2.2845;
1793396728865218;-9.2273;-0.5830;-1.4007;
1793396738964905;-8.3698;0.4110;-1.7599;
1793396749067041;-8.6764;-0.2381;-3.3458;
1793396759169176;-13.9968;0.7585;-4.6131;
1793396769268760;-12.9739;0.7490;-1.9780;
1793396779370895;-5.3444;1.0053;-1.4366;
1793396789473030;-6.5659;0.1164;-2.9052;
1793396799590739;-12.3320;1.3262;-3.5136;
1793396809692874;-11.7858;0.1810;-1.8966;
1793396819795010;-8.0417;0.0350;-1.0175;
1793396829897614;-7.8858;-0.6024;-3.6428;
1793396839999749;-10.4970;-0.9592;-3.3553;
1793396850101885;-7.2344;-0.3099;-0.3179;
1793396860198760;-6.8246;-0.4513;-4.0143;
1793396870300895;-12.3727;0.5237;-3.8632;
1793396880403030;-11.2612;-0.3218;-2.9770;
1793396890501051;-8.1111;-0.2213;-3.9879;
1793396900603239;-8.1278;-0.4872;-2.0258;
1793396910705322;-9.2898;0.0541;-3.3458;
1793396920802249;-8.7147;-0.5183;-3.7316;
1793396930904437;-10.7198;-1.1701;-3.1878;
1793396941006520;-9.5533;-0.3820;-2.8427;
1793396951122405;-8.9279;-0.1280;-1.8248;
1793396961224489;-10.5760;-0.8560;-1.5733;
1793396971326624;-11.1221;1.2278;-0.7732;
1793396981418447;-7.5817;0.0948;0.4869;
1793396991520582;-5.6318;0.8901;-1.2114;
1793397001622718;-8.8729;-0.2022;-3.4202;
1793397011735635;-7.8763;0.9978;-3.6117;
1793397021837770;-10.1282;0.3727;-3.0272;
1793397031939905;-13.4435;0.0159;-3.3171;
1793397042037666;-11.9103;-0.2716;-2.5050;
1793397052139801;-5.8235;-0.2835;-1.1539;
1793397062241937;-6.5109;-0.8608;-1.9134;
1793397072388135;-1.8494;-0.4346;-4.8000;
1793397082490218;-2.4218;-0.8177;-6.0622;
1793397092592353;-31.5105;1.6400;-2.5648;
1793397102656416;-25.6678;1.4124;4.5975;
1793397112758551;3.5668;-0.8827;3.4382;
1793397122860739;0.7331;-2.6695;0.6547;
1793397132935739;-15.9491;1.0220;-0.7516;
1793397143037874;-13.7764;-0.1759;-2.9770;
1793397153140010;-8.3746;-1.1749;-2.2343;
1793397163264593;-5.2292;-0.7675;-3.2788;
1793397173366728;-9.3449;0.0398;-4.9555;
1793397183468812;-10.8323;0.6793;-4.5796;
1793397193569072;-8.7266;4.0307;0.5515;
1793397203671207;0.9846;3.7792;0.8270;
1793397213773343;-5.5768;-1.5628;-14.7341;
1793397223870010;-24.0485;-1.0071;-14.2167;
1793397233972145;-16.6487;1.7405;3.5725;
1793397244074280;-2.2899;-1.1219;3.2871;
1793397254172822;-5.1455;-3.0697;-6.4433;
1793397264274957;-13.7166;-1.4384;-2.3734;
1793397274377093;-12.4445;0.3488;2.1541;
1793397284476468;-10.0561;2.0518;1.3325;
1793397294578603;-7.8404;1.1417;0.6090;
1793397304680739;-7.5721;1.2661;-0.1334;
1793397314807666;-7.5266;2.4449;-0.2198;
1793397324909853;-9.8360;2.2436;-2.0788;
1793397335011989;-9.7711;1.9944;-4.5174;
1793397345094697;-6.6332;0.8375;-4.8622;
1793397355196832;-9.9461;-0.7172;-7.6528;
1793397365298968;-11.6061;-0.1807;-5.0204;
1793397375405530;-6.5037;-0.3963;-2.7541;
1793397385507666;-11.0384;-1.1701;-4.6777;
1793397395609801;-13.5464;0.8518;-1.8344;
1793397405727353;-8.2813;-0.2883;0.0197;
1793397415829541;-6.7720;-0.7460;-0.6413;
1793397425931676;-6.2880;0.6242;-0.7708;
1793397436024385;-9.0287;0.8327;-2.4811;
1793397446126520;-9.7687;-0.1352;-1.1874;
1793397456228655;-9.1843;-0.6335;-2.8693;
1793397466327718;-13.0986;0.5692;-2.2175;
1793397476429853;-10.6768;-0.7579;-0.7397;
1793397486531989;-6.7170;-1.3232;-2.5792;
1793397496636468;-9.7424;-0.3556;-2.7924;
1793397506738603;-10.1928;-0.0993;-1.8081;
1793397516840739;-10.5162;-1.6131;-4.2778;
1793397526935010;-11.3115;-0.4777;-2.8741;
1793397537037197;-9.2034;0.2076;-1.0104;
1793397547139332;-6.7648;0.0852;-1.5278;
1793397557241780;-7.3373;0.0350;-2.0258;
1793397567343968;-10.8706;-0.6861;-2.4380;
1793397577446051;-11.2253;0.4421;-2.1745;
1793397587545114;-7.0331;-1.2514;-2.7087;
1793397597647301;-10.4228;-0.8297;-3.7172;
1793397607749437;-13.7118;-0.2142;-1.2209;
1793397617850739;-10.4085;0.1475;-1.5757;
1793397627952926;-7.8882;-1.3687;-1.7815;
1793397638055062;-7.3253;-0.0802;-2.3252;
1793397648160322;-10.7127;-0.6072;-3.2788;
1793397658262457;-8.3435;0.0182;-2.2965;
1793397668364645;-8.4559;0.0422;-3.3793;
1793397678489280;-9.4238;0.3392;-3.2118;
1793397688591468;-10.1880;-0.1639;-3.3505;
1793397698693603;-12.3823;0.5788;-3.6861;
1793397708777614;-9.7639;0.3727;-0.6939;
1793397718879801;-6.9398;0.9332;-1.2595;
1793397728981937;-8.9375;-0.1184;-2.9818;
1793397739083655;-11.1269;0.9811;-2.5002;
1793397749185843;-11.2086;0.7944;-2.4260;
1793397759287978;-8.4535;0.0517;-1.6187;
1793397769382978;-8.4583;-0.0033;-2.0716;
1793397779485166;-10.5855;1.1225;-1.7910;
1793397789587301;-8.9830;0.5046;-1.6929;
1793397799707978;-8.6716;0.3344;-3.4418;
1793397809810166;-10.3077;0.7633;-2.4667;
1793397819912301;-11.8816;1.1177;-2.5959;
1793397829991155;-8.0154;0.2100;-2.3566;
1793397840093343;-4.5921;-0.0559;-2.3351;
1793397850195478;-10.6481;0.7968;-4.1530;
1793397860301155;-13.7285;1.0077;-2.6895;
1793397870403291;-10.6433;-0.3867;-1.7743;
1793397880505426;-8.1087;-0.5662;-2.1625;
1793397890611468;-3.1980;-0.2740;-1.4964;
1793397900713655;2.4793;-1.0836;-5.5905;
1793397910815739;-2.8289;0.3392;-8.2110;
1793397920906312;-30.1304;2.0734;-3.8273;
1793397931008447;-28.3460;3.5061;4.2335;
1793397941110582;-4.9875;0.2841;3.1938;
1793397951209645;0.8288;-3.2806;0.1325;
1793397961311832;-5.8738;-0.7412;0.8847;
1793397971413968;-10.1593;-0.3389;-1.9038;
1793397981544489;-13.2087;-0.8632;-4.3950;
1793397991646676;-10.3798;0.0398;-3.7675;
1793398001748812;-7.8715;-0.3437;-1.8392;
1793398011839593;-11.5582;0.9380;-2.2008;
1793398021941780;-11.0767;3.3957;3.9030;
1793398032043916;-0.0526;3.4029;2.4488;
1793398042154228;-4.4195;-0.5686;-13.4501;
1793398052256416;-20.2107;-2.0133;-11.4835;
1793398062358551;-14.5047;-0.4418;-1.5589;
1793398072448655;-4.7982;-1.6370;-0.9766;
1793398082550843;-5.2244;-1.8431;-4.9866;
1793398092652978;-11.1607;-0.8946;-2.0764;
1793398102742353;-13.4267;0.0087;-0.0329;
1793398112844541;-10.1856;0.6218;-0.0832;
1793398122946676;-6.0870;0.9595;0.7672;
1793398133074385;-7.7423;0.3057;-0.5551;
1793398143176520;-9.5940;0.4397;-2.4571;
1793398153278655;-11.5798;0.1666;-2.2750;
1793398163371572;-12.6721;0.5237;-1.4318;
1793398173473707;-10.3798;-0.2118;-2.0091;
1793398183575843;-9.2178;-0.8632;-3.4083;
1793398193670426;-10.7055;-0.0754;-0.9072;
1793398203772614;-8.2932;0.0182;-2.6417;
1793398213874749;-8.3387;-0.7340;-3.3936;
1793398223980322;-9.3592;0.4684;-3.3003;
1793398234082510;-9.5414;0.2818;-2.9578;
1793398244184645;-9.7950;1.3262;-1.9516;
1793398254287718;-8.6644;0.2794;-2.4069;
1793398264389905;-10.4157;1.0196;-2.2128;
1793398274492041;-9.5868;0.1235;-0.8498;
1793398284608968;-7.5577;-0.2333;-2.9865;
1793398294711155;-10.0609;-1.0669;-4.1961;
1793398304813291;-7.7518;-0.8922;-2.7135;
1793398314906885;-10.0971;-0.8489;-4.4429;
1793398325009020;-13.1704;0.3153;-3.5255;
1793398335111207;-10.5879;0.0470;-0.2079;
1793398345201051;-8.3219;0.5548;-1.7145;
1793398355303187;-7.0618;0.0972;-1.0463;
1793398365405374;-10.3750;0.2530;-1.8153;
1793398375505114;-9.3592;0.6290;-2.2319;
1793398385607301;-7.1216;0.0494;-2.5863;
1793398395709385;-7.8954;-0.8034;-3.5160;
1793398405822301;-9.6945;0.5405;-4.0334;
1793398415924437;-12.5022;0.2698;-3.1639;
1793398426026624;-9.3066;0.7657;-1.1707;
1793398436139801;-4.4411;0.5046;-1.4677;
1793398446241989;-9.2058;0.2650;-3.5997;
1793398456344124;-13.3813;0.5955;-2.7996;
1793398466434385;-12.7514;0.2674;-1.4174;
1793398476536572;-8.8753;-0.2572;-0.8856;
1793398486638707;-5.5863;-1.1821;-1.4844;
1793398496742614;-13.5778;-0.4585;-1.8727;
1793398506844801;-20.3569;-0.1783;0.9948;
1793398516946885;-13.4865;0.8566;2.2549;
1793398527051260;8.8442;-1.6442;0.0942;
1793398537153447;-1.7800;0.5716;-4.2467;
1793398547255582;-14.7897;0.9284;-7.5835;
1793398557354905;-4.6352;2.0686;-3.7819;
1793398567457093;-12.1307;2.2244;-5.5376;
1793398577559176;-30.0084;1.8652;-5.0010;
1793398587666468;-12.7295;-1.0023;0.5180;
1793398597768603;18.9317;-3.4265;0.3960;
1793398607870791;8.9713;-1.4384;-7.4686;
1793398617964593;-30.3796;-0.7986;-11.8977;
1793398628066780;-41.5379;0.5453;-0.1765;
1793398638168916;-11.1894;-0.2142;7.2996;
1793398648263499;24.7911;-1.7785;4.9929;
1793398658365635;3.7825;-1.4647;-4.3328;
1793398668467822;-26.6931;2.4832;-6.1176;
1793398678587093;-21.3942;5.6644;7.0337;
1793398688689280;-1.8876;2.4903;-1.6116;
1793398698791416;-5.9456;-4.8350;-16.8159;
1793398708892197;-19.6813;-1.9726;-6.2850;
1793398718994385;-12.8088;2.4760;14.0695;
1793398729096520;5.3659;1.9896;5.9752;
1793398739195218;-5.0402;-1.2299;-17.5606;
1793398749297405;-16.5769;-3.7211;-13.8308;
1793398759399489;-22.6974;-0.9473;1.8667;
1793398769496260;-4.7934;3.4558;13.2383;
1793398779598447;1.2601;1.7596;-1.4127;
1793398789700582;-7.3950;-0.3003;-10.8580;
1793398799813030;-11.2158;-1.5939;-4.7183;
1793398809915218;-7.7064;0.2530;-0.9144;
1793398820017353;-8.2478;0.6314;-2.4380;
1793398830102926;-20.4239;-0.3266;-6.0574;
1793398840205114;-14.1311;-0.8345;0.5133;
1793398850307249;-3.7442;-0.9329;2.0249;
1793398860414489;-7.1961;-1.3902;-1.9971;
1793398870516624;-12.1714;0.0852;-1.6594;
1793398880618812;-11.6731;-0.0464;-0.8498;
1793398890720114;-9.2584;0.8447;-1.2882;
1793398900822249;-11.0384;0.1786;-1.6211;
1793398910924385;-16.8189;0.0924;-1.3935;
1793398921013499;3.3371;-0.1998;-0.9215;
1793398931115635;0.9344;1.7740;-2.2128;
1793398941217770;-15.0532;0.6218;-7.5212;
1793398951351051;-21.1211;0.4831;-8.6088;
1793398961453187;-6.5420;0.9691;-1.9851;
1793398971555322;-0.0861;-1.1315;-2.1386;
1793398981653135;-11.9800;0.0182;-5.3653;
1793398991755322;-12.9141;-0.5782;-2.7637;
1793399001857405;-9.7328;-0.8994;-1.4964;
1793399011936937;-7.4788;-0.7914;-1.0726;
1793399022039072;-3.8638;-1.3208;-3.2046;
1793399032141260;-17.0297;-3.4552;-6.1822;
1793399042239697;-16.6702;2.6222;4.3869;
1793399052341832;0.5844;2.2101;6.5333;
1793399062443968;-4.9681;-0.2381;-6.7714;
1793399072552041;-9.5988;0.2602;-6.5605;
1793399082654228;-16.6247;1.0412;0.7744;
1793399092756364;-13.5368;2.9456;1.6104;
1793399102881103;-11.0886;-0.7172;-4.1554;
1793399112983291;-14.7060;-0.8632;-1.8751;
1793399123085426;3.9670;-1.7952;0.5659;
1793399133189957;-5.5576;-1.1052;-5.4658;
1793399143292145;-17.4081;1.2927;-5.4849;
1793399153394280;-14.0880;0.6242;-1.6140;
1793399163423655;-6.2928;1.0340;-2.0378;
1793399173525791;-10.2048;0.3248;-2.5241;
1793399183627978;-5.8953;0.5931;-1.7886;
1793399193784176;-4.2808;0.8255;-0.6293;
1793399203886364;-12.1020;-0.2285;-5.2863;
1793399213988499;-13.6950;-1.4022;-5.8636;
1793399224090010;-7.2464;-2.3629;-3.4418;
1793399234192197;-12.3966;-2.7488;-5.3581;
1793399244294280;-12.6745;1.3286;1.5864;
1793399254391468;-8.1039;0.4540;1.5362;
1793399264493655;-6.3048;0.4926;-2.8499;
1793399274595791;-8.1159;0.7152;-2.0569;
1793399284703655;-9.2297;0.4349;-2.5648;
1793399294805843;-11.6061;1.1847;-2.3949;
1793399304907926;-10.1809;1.5562;-1.6881;
1793399315019176;-2.6638;0.8662;-2.3973;
1793399325121312;-6.1277;-0.4729;-5.1808;
1793399335223499;-21.3918;-0.1232;-5.2047;
1793399345312093;-17.6548;1.3980;1.4836;
1793399355414228;-4.2879;-1.2514;1.2200;
1793399365516416;-3.7657;-1.1291;-2.6608;
1793399375619905;-8.5256;-0.3075;-1.6140;
1793399385722093;-13.0627;1.4578;-2.2439;
1793399395824228;-10.3340;1.0388;-0.8139;
1793399405936780;-8.1975;1.6687;-2.2080;
1793399416038916;-7.5314;0.0015;-3.2189;
1793399426141103;-8.1541;0.8925;-2.4380;
1793399436246364;-5.8211;0.2889;-2.6417;
1793399446348551;-8.1494;0.2363;-6.2707;
1793399456450687;-16.5745;-0.8417;-6.1247;
1793399466559801;-12.8782;-0.9497;-2.8092;
1793399476661989;-8.1470;-0.3338;-0.5049;
1793399486764124;-5.3683;-0.5255;-0.8737;
1793399496856468;-9.1053;0.1235;-1.5326;
1793399506958655;-16.0427;0.8231;-0.1095;
1793399517060791;-7.0953;1.9346;-1.2425;
1793399527150895;0.2276;-1.2467;-1.3289;
1793399537253030;-6.9087;0.7801;-4.3161;
1793399547355166;-17.5687;1.2879;-4.5676;
1793399557469176;-12.6984;1.8173;1.5123;
1793399567571312;-5.8451;0.3153;-2.0043;
1793399577673395;-11.1293;-1.6732;-6.6374;
1793399587770426;-13.0675;-0.2429;-0.2055;
1793399597872562;-13.3334;-0.6933;0.6667;
1793399607974697;-9.3090;0.5548;0.9182;
1793399618076051;1.1764;-0.6670;-1.0343;
1793399628178187;-5.3085;-1.4647;-7.9573;
1793399638280322;-17.8466;1.2589;-3.7340;
1793399648396624;-13.7812;1.8150;4.3220;
1793399658498760;-6.4343;1.6280;-2.1984;
1793399668600947;-5.3803;-0.5542;-5.2959;
1793399678704801;-6.7241;-0.4944;-2.3180;
1793399688806937;-11.7021;-0.5471;-2.8427;
1793399698909072;-15.1179;-0.4872;-4.7713;
1793399708993760;-10.8203;-0.4633;-1.7240;
1793399719095895;-3.5812;-1.8766;-3.4011;
1793399729198030;0.7642;-2.1353;-5.6671;
1793399739301885;-12.3631;-0.5566;-2.9076;
1793399749404020;-19.9738;2.5621;1.3110;
1793399759506155;-19.3244;1.4435;0.1349;
1793399769603968;-8.4583;-2.2098;-0.8521;
1793399779706103;-3.3607;-1.8622;2.2214;
1793399789808239;-9.8551;-1.0190;0.7122;
1793399799921260;-12.2363;-0.0488;-0.6867;
1793399810023395;-8.2789;0.6338;-2.1218;
1793399820125478;-7.4501;0.4950;-4.2778;
1793399830229593;-9.0742;0.0900;-5.4849;
1793399840331728;-9.5124;1.4435;-2.2534;
1793399850433864;-6.7050;3.6185;0.1923;
1793399860523395;-6.7816;1.5057;-7.9451;
1793399870625530;-7.1865;-0.8779;-9.4232;
1793399880727614;-10.6217;-1.6804;-6.9583;
1793399890830530;-13.1058;-0.4657;-4.1028;
1793399900932666;-9.6012;0.0517;-1.0319;
1793399911034801;-8.9160;-2.3222;-3.5686;
1793399921157093;-10.9451;-0.4131;0.3000;
1793399931259228;-8.4658;0.0182;1.8117;
1793399941361364;-6.4128;0.4588;0.4582;
1793399951441832;-7.9412;1.6161;-1.2906;
1793399961544020;-10.4085;0.6242;-2.1458;
1793399971646103;-10.5425;1.0531;-2.1673;
1793399981825635;-10.1306;0.5070;-1.5036;
1793399991927770;-8.5759;0.5046;-2.3013;
1793400002029905;-10.3487;0.3631;-2.8379;
1793400012034332;-10.1856;0.2506;-3.0033;
1793400022136416;-8.7820;-0.3724;-2.8765;
1793400032238551;-7.5362;-0.6574;-3.5758;
1793400042425530;-9.3066;-0.6598;-3.3458;
1793400052527614;-12.7968;-1.1076;-2.3901;
1793400062629749;-9.3042;-0.5160;-1.9469;
1793400072673395;-8.3674;-0.6526;-1.4653;
1793400082775530;-8.5256;-0.6335;-0.8378;
1793400092877666;-10.0202;0.4878;-1.3648;
1793400102962874;-9.6467;-0.7292;-1.4605;
1793400113064957;-9.8958;-0.2572;-2.7517;
1793400123167093;-11.3186;0.0350;-1.8153;
1793400133271155;-9.3377;-1.2754;-2.7805;
1793400143373291;-8.1326;-1.3089;-3.5207;
1793400153475374;-8.7939;-0.5136;-2.4571;
1793400163531416;-9.5701;-1.7856;-4.6418;
1793400173633603;-11.1078;-0.1232;-4.4070;
1793400183735687;-10.4731;-0.8779;-0.9263;
1793400193900426;-9.2707;-0.5638;-2.3061;
1793400204002562;-8.4849;0.0063;-2.3061;
1793400214104697;-9.6897;-0.8297;-0.7588;
1793400224207093;-11.0504;0.2961;-2.2295;
1793400234309228;-6.8294;-0.4490;-1.4438;
1793400244411312;-7.8858;-0.3748;-2.7996;
1793400254506676;-10.1067;-0.0921;-3.0320;
1793400264608812;-8.8083;-0.2022;-3.2955;
1793400274710947;-13.4794;0.9404;-2.6824;
1793400284817822;-6.6452;0.4349;-2.6249;
1793400294919957;1.6744;-0.2596;-3.3769;
1793400305022041;-5.5481;0.0135;-6.8504;
1793400315122978;-30.8563;1.6998;-3.2357;
1793400325225114;-21.0685;1.2565;4.6095;
1793400335327249;0.7570;-2.2217;2.0560;
1793400345426364;-1.8517;-1.8766;-2.2319;
1793400355528499;-10.8491;-0.3700;-0.0712;
1793400365630635;-12.6673;0.3535;-1.9851;
1793400375731885;-10.9259;1.4770;-1.6714;
1793400385834020;-6.3721;0.9308;-0.6676;
1793400395936155;-8.5376;0.8255;-5.0970;
1793400406051155;-13.5272;2.1837;-3.0320;
1793400416153291;-12.1499;2.8687;2.9471;
1793400426255426;0.1606;1.4219;-3.4753;
1793400436361572;-9.5988;-3.1558;-13.0331;
1793400446463707;-17.8992;-1.3448;-6.3353;
1793400456565843;-8.9782;-0.3772;1.1408;
1793400466666051;-3.8853;-1.2108;-3.0416;
1793400476768187;-9.9078;-0.6718;-6.1415;
1793400486870322;-12.6194;1.8245;0.8749;
1793400496960843;-8.3578;0.9332;0.9996;
1793400507062978;-11.3306;1.3573;-1.8607;
1793400517165062;-12.6266;1.5730;-0.0544;
1793400527268760;-6.3362;-0.2213;0.4128;
1793400537370895;-9.0407;0.1092;-2.8092;
1793400547473030;-11.4984;-0.0559;-2.5002;
1793400557571885;-6.0461;-0.0153;-2.0163;
1793400567674072;-9.2321;0.0302;-4.6968;
1793400577776155;-15.4965;1.4746;-3.7101;
1793400587875739;-4.1177;0.9500;-0.3419;
1793400597977926;-7.4357;1.4746;-3.7819;
1793400608080062;-9.5486;-0.2381;-4.1100;
1793400618180114;-7.9723;1.2565;-3.0368;
1793400628282301;-16.3947;0.7944;-3.5997;
1793400638384437;-12.9811;-2.0324;-0.6939;
1793400648486676;-11.2134;0.1546;0.1564;
1793400658588864;-0.8456;-2.5881;0.0508;
1793400668690999;0.9631;-1.6226;-3.3840;
1793400678808135;-8.8848;1.4100;-5.3581;
1793400688910322;-19.2550;1.7620;-3.9111;
1793400699012457;-15.4917;0.3320;-1.1898;
1793400709103760;-5.3372;1.3334;0.7816;
1793400719205947;-7.3732;-1.4838;-3.3888;
1793400729308082;-20.1102;-1.5078;-0.9479;
1793400739406728;-3.6796;-1.3208;0.4917;
1793400749508864;-6.2928;-1.3926;-2.5911;
1793400759610999;-7.1339;-0.4322;-3.4226;
1793400769713551;-14.7538;-2.4491;-4.9627;
1793400779815739;-15.0580;1.2015;-1.5900;
1793400789917874;-6.2330;2.2149;4.4970;
1793400800022405;-0.1268;0.8901;-1.2281;
1793400810124541;-8.3459;0.1690;-7.7656;
1793400820226676;-14.8041;0.0254;-3.9927;
1793400830352093;-10.8972;-0.0224;-2.0426;
1793400840454228;-4.6424;-1.7785;-5.3844;
1793400850556364;-11.4362;-3.4433;-7.7393;
1793400860635739;-13.3430;-0.7436;-1.4892;
1793400870737874;-5.6509;0.3990;2.3937;
1793400880840062;-2.8361;-0.3820;-4.2323;
1793400890937614;-19.7414;-0.0559;-5.0731;
1793400901039749;-16.5601;0.6840;3.1531;
1793400911141885;-4.6974;-0.4537;2.4655;
1793400921241989;-7.2655;0.1546;-0.7349;
1793400931344176;-12.1546;-0.8680;-1.0941;
1793400941446312;-10.0609;0.7513;-1.1922;
1793400951530739;0.0837;-0.0344;-1.7815;
1793400961632822;1.8446;0.4540;-7.6074;
1793400971735010;-24.7310;1.1704;-8.2038;
1793400981869541;-27.3565;2.3297;-0.0233;
1793400991971728;-11.1942;1.9513;3.5653;
1793401002073812;1.6528;-0.4561;0.8031;
1793401012176103;-0.8432;-3.3643;-4.1602;
1793401022278291;-13.4124;-1.1605;-5.9163;
1793401032380426;-14.3994;0.1786;-4.1291;
1793401042468812;-5.1670;0.3966;-2.1888;
1793401052570999;-3.8542;-0.8297;-4.9292;
1793401062673135;-16.9193;0.9954;-3.6790;
1793401072782770;-12.8471;3.5755;6.1618;
1793401082884957;5.7132;3.8629;0.2258;
1793401092987093;-2.7787;-3.0912;-14.9330;
1793401103073655;-18.6921;-0.0511;-10.2879;
1793401113175791;-21.6553;0.2052;0.4199;
1793401123277926;-16.8954;-0.1184;3.1292;
1793401133388760;4.5802;-0.4059;-0.8952;
1793401143490895;3.5668;-2.7559;-4.2060;
1793401153593030;-20.9773;0.5429;-4.2299;
1793401163683499;-26.1326;3.9132;5.4649;
1793401173785635;-5.7156;2.2651;5.0288;
1793401183887822;6.4056;-2.0444;-5.1784;
1793401194000010;4.5802;-1.1892;-7.3463;
1793401204102197;-15.5468;2.0495;-5.7245;
1793401214204332;-18.4023;3.5420;0.8605;
1793401224311989;-7.1842;2.0686;-1.5805;
1793401234414176;-1.9738;-1.2443;-12.2501;
1793401244516260;-14.1455;-1.7521;-6.8456;
1793401254616572;-19.9567;0.8447;7.5464;
1793401264718760;-8.1924;1.2326;7.8891;
1793401274820895;3.7681;-2.0515;-9.3754;
1793401284941051;-3.4687;-5.2161;-12.0416;
1793401295043239;-22.1079;-2.5211;-3.7292;
1793401305145322;-16.3564;1.6400;8.2651;
1793401315242145;-4.4435;3.9347;9.1804;
1793401325344280;-4.1369;0.0924;-4.9747;
1793401335446416;-11.4841;-1.3352;-5.1999;
1793401345543655;-13.8844;2.1168;2.2430;
1793401355645843;-6.5444;0.0876;0.8773;
1793401365747978;-11.1703;0.7080;-5.9043;
1793401375848812;-15.1756;-2.9809;-6.0431;
1793401385950999;-12.5979;-3.0817;-4.0717;
1793401396053135;-10.0394;-0.6215;0.4152;
1793401406153239;-1.5595;0.0374;0.7935;
1793401416255374;-10.0418;-0.2357;-4.7474;
1793401426357562;-13.0002;-0.5734;-2.9483;
1793401436462510;-3.7250;0.8853;-3.0583;
1793401446564697;-6.3553;0.4086;-4.5317;
1793401456666832;-11.6348;-0.4155;-4.2275;
1793401466764072;-13.7381;-0.3891;-4.5341;
1793401476866260;-10.4874;0.2985;-2.0907;
1793401486968395;-5.8810;-1.9149;-3.5064;
1793401497075843;-10.5808;-1.1557;-4.8622;
1793401507178030;-6.0727;-0.3242;-2.5457;
1793401517280114;-13.6065;-0.7268;-2.0091;
1793401527372093;-11.3880;0.7968;0.4367;
1793401537474228;-2.5992;-0.2835;-2.2199;
1793401547576364;-14.6749;0.9332;-4.4094;
1793401557675218;-15.8725;1.1034;3.7926;
1793401567777353;-3.9790;1.5945;3.6610;
1793401577879437;-6.2210;0.6601;-5.0085;
1793401587990322;-11.9031;-0.4083;-4.6944;
1793401598092457;-11.3426;0.4373;-2.2534;
1793401608194593;-11.3737;1.2063;-1.7695;
1793401618291155;-11.4817;1.0196;-1.8583;
1793401628393291;-8.4802;1.0412;0.5587;
1793401638495426;-5.3970;1.2039;-3.1998;
1793401648592926;-8.1111;-0.1950;-5.0898;
1793401658695062;-5.1455;1.2541;-0.5168;
1793401668797197;-6.6811;0.0709;-7.0038;
1793401678912822;-16.0092;-0.3485;-7.9908;
1793401689014957;-10.9642;-0.6263;-0.6963;
1793401699117093;-8.7987;-1.2156;-2.8427;
1793401709211051;-6.8366;-0.4370;-2.2319;
1793401719313187;-8.5184;-1.0836;-0.9407;
1793401729415322;-13.2254;-1.6513;-2.3662;
1793401739527301;-14.6004;0.0829;-0.5073;
1793401749629437;-9.4262;-0.0873;0.5085;
1793401759731520;-9.0766;-0.9832;-0.2749;
1793401769821260;-8.6333;0.9117;0.6380;
1793401779923395;-8.4440;0.7199;-0.0927;
1793401790025530;-4.8748;1.3071;-2.4404;
1793401800155843;-7.2081;0.7008;-6.1630;
1793401810257978;-14.3321;0.4277;-6.2755;
1793401820360114;-14.2914;0.0781;-2.1553;
1793401830438655;-7.7064;0.4349;-0.4089;
1793401840540843;-4.0292;0.0565;-3.2596;
1793401850642926;-9.6730;-0.8106;-4.9244;
1793401860739905;-11.6420;-1.2610;-3.5207;
1793401870842041;-8.7027;-0.7388;-1.8511;
1793401880944176;-6.5180;0.0470;-2.6130;
1793401891047822;-4.9995;-0.4131;-3.4011;
1793401901149957;-11.8002;-0.3437;-3.5949;
1793401911252093;-14.0833;1.5419;-0.3419;
1793401921343135;-6.6954;0.1762;0.2234;
1793401931445322;-8.1781;-0.0682;-2.8717;
1793401941547405;-12.2507;-0.6072;-2.8355;
1793401951671728;-15.7457;-1.0023;-0.3969;
1793401961773864;-6.3242;-0.1735;0.3960;
1793401971875999;-3.7537;-1.6657;-3.1663;
1793401981962145;-15.5539;0.3033;-2.9578;
1793401992064228;-7.5673;0.7490;-1.0487;
1793402002166364;-2.6327;1.0292;-2.4930;
1793402012288082;-6.6188;1.1776;-4.4333;
1793402022390218;-12.9356;0.9787;-4.9771;
1793402032492353;-14.7682;0.2435;-1.6403;
1793402042577770;-7.4381;-0.5088;-1.7408;
1793402052679957;-7.7231;-0.2309;-2.0812;
1793402062782041;-10.0585;-1.3567;-3.1878;
1793402072907666;-13.1441;-3.3093;-4.0119;
1793402083009801;-13.7692;0.2602;2.0345;
1793402093111937;-4.9825;-0.8321;1.1216;
1793402103180895;-9.4765;-1.6732;-4.1650;
1793402113283030;-11.1870;1.6711;0.0461;
1793402123385114;-6.4630;1.1991;1.9217;
1793402133489645;-5.6940;0.8782;-3.7149;
1793402143591780;-9.1196;0.7705;-5.5161;
1793402153693916;-13.6520;-0.0754;-4.3974;
1793402163803135;-8.0178;0.3511;-1.9421;
1793402173905270;-3.9550;-1.6346;-4.5317;
1793402184007353;-12.8112;-0.5830;-6.0769;
1793402194119801;-13.5105;-0.4872;-1.6403;
1793402204221937;-8.8394;-2.1760;-1.7671;
1793402214324072;-9.4741;-0.4753;-2.9698;
1793402224409385;-7.9699;0.1594;-0.3849;
1793402234511520;-9.3401;-0.4178;-0.1047;
1793402244613603;-10.0732;0.5668;-1.2763;
1793402254716885;-8.3004;0.7729;-0.8928;
1793402264819020;-7.8739;0.7920;-1.7671;
1793402274921155;-9.2536;-0.3939;-2.9219;
1793402285047666;-11.4601;1.2015;-1.6546;
1793402295149801;-7.1435;1.1465;-0.8928;
1793402305251937;-10.6768;-1.0980;-6.0359;
1793402315344697;-12.7777;-0.1759;-4.5245;
1793402325446832;-6.4032;-0.4537;-0.7636;
1793402335548968;-6.5925;-0.2788;-3.7699;
1793402345644385;-10.8180;0.3416;-3.8489;
1793402355746520;-5.5457;0.3440;-1.8009;
1793402365848603;3.3419;1.2278;-4.4524;
1793402375944385;-1.4827;-0.5782;-8.8244;
1793402386046520;-22.4124;0.6386;-3.9111;
1793402396148603;-17.8825;2.9504;3.3903;
1793402406275582;-16.9528;0.3511;3.5076;
1793402416377718;-10.5114;-0.8656;-1.1420;
1793402426479905;-0.4361;-4.2840;-0.9407;
1793402436579905;-6.1349;-2.5068;-1.1157;
1793402446682041;-14.8783;-0.7077;-1.2114;
1793402456784176;-10.3846;1.8027;-0.6102;
1793402466881155;-10.2215;0.9165;-0.5480;
1793402476983291;-9.9221;1.9155;0.3649;
1793402487085426;-1.8135;4.0738;5.3043;
1793402497187562;2.8172;2.6653;-3.8656;
1793402507289697;-14.3683;-0.5016;-15.3544;
1793402517391832;-12.0039;-0.5806;-7.5117;
1793402527482510;-4.7839;-3.2396;-8.0124;
1793402537584645;-32.0973;-3.3021;-5.2167;
1793402547686780;-39.1950;-0.6431;12.1890;
1793402557790062;-0.2946;-1.5030;7.5921;
1793402567892197;12.6434;-4.5811;1.9771;
1793402577994280;-4.4725;-1.2419;0.6739;
1793402588088760;-18.7974;0.4974;-5.2119;
1793402598190895;-11.1030;4.3110;-1.1683;
1793402608292978;-0.7379;2.7227;-1.4701;
1793402618398135;-6.2402;2.6127;-5.7150;
1793402628500218;-10.0681;3.4798;-7.5978;
1793402638602353;-11.9584;1.7333;-5.5328;
1793402648717249;-4.6663;2.1407;-2.4284;
1793402658819385;-4.3406;-3.1798;-18.4472;
1793402668921572;-24.2160;-8.3973;-16.7414;
1793402679036260;-17.6788;-2.8780;4.7701;
1793402689138395;-5.5983;-0.5877;8.8974;
1793402699240530;-3.5716;1.6065;0.3840;
1793402709317301;-9.3855;0.7247;-1.3648;
1793402719419437;-12.3105;1.5105;3.0814;
1793402729521572;-8.6453;3.5922;3.9221;
1793402739630322;-7.2440;3.0293;0.2163;
1793402749732457;-7.6534;2.6270;-0.7732;
1793402759834541;-8.1852;2.3970;-2.7613;
1793402769926676;-12.8447;0.7681;-5.4682;
1793402780028812;-12.1666;0.9093;-5.5232;
1793402790130895;-8.3865;-0.4059;-4.1124;
1793402800253395;-7.3158;-0.6168;-4.8622;
1793402810355530;-7.7016;-0.1256;-5.3103;
1793402820457666;-7.7782;-0.8130;-4.7207;
1793402830545426;-5.6940;-0.0320;-4.3639;
1793402840647562;-4.9107;-0.3413;-3.8034;
1793402850749749;-7.4812;0.0470;-3.9449;
1793402860850010;-7.5099;-0.0778;-2.7374;
1793402870952145;-4.1850;-0.1328;-1.8583;
1793402881054228;1.4133;0.8255;-4.1148;
1793402891160426;7.3543;-0.6981;-8.9680;
1793402901262562;-37.0917;-0.2237;-3.8249;
1793402911364697;-40.0023;0.6864;6.9523;
1793402921479489;2.7141;-4.2147;5.2038;
1793402931581624;5.3324;-1.8957;1.8547;
1793402941683760;-19.9376;-1.4145;1.4931;
1793402951849385;-36.3661;-2.1162;5.4072;
1793402961951520;-2.1966;0.5046;5.2875;
1793402972053603;8.1784;0.9500;6.3105;
1793402982075322;-11.5343;2.0471;-1.5227;
1793402992177457;-24.3024;1.2374;-0.3706;
1793403002279593;-11.1512;5.6716;5.8768;
1793403012426832;17.9016;5.6477;1.9675;
1793403022528968;2.3859;-2.3557;-29.6940;
1793403032631103;-31.7692;-5.8771;-22.6247;
1793403042692926;-18.7185;-0.4274;5.1532;
1793403052795010;-12.4950;-2.7269;-2.2439;
1793403062897145;9.7041;-9.4271;-21.1732;
1793403073009697;-9.5486;-6.3443;-8.9919;
1793403083111832;-20.8911;-1.6274;6.9787;
1793403093213968;-10.9522;-1.9558;2.6620;
1793403103301051;-9.3592;-0.3652;-2.4093;
1793403113403187;-7.8404;-0.2931;1.3134;
1793403123505322;-0.0311;0.6793;4.8419;
1793403133600635;-15.4654;2.5573;1.4764;
1793403143702770;-30.3604;2.3249;2.5591;
1793403153804905;5.1694;4.5817;2.4320;
1793403163928135;13.4195;-3.5174;-6.5629;
1793403174030270;-29.1341;-1.9774;-14.8705;
1793403184132405;-22.7692;4.7806;3.7304;
1793403194224176;0.9966;0.6553;5.6372;
1793403204326312;-2.8122;-1.4288;-13.9077;
1793403214428447;-5.7586;-1.5820;-9.4902;
1793403224524489;-8.6836;-2.1951;-3.9087;
1793403234626624;-12.6721;1.0149;1.4548;
1793403244728707;-4.2497;1.2565;0.4678;
1793403254837718;-9.2058;-1.7521;-10.1994;
1793403264939853;-18.5746;-1.0406;-6.3739;
1793403275041989;-16.0690;-1.1533;11.1924;
1793403285159541;-3.5859;2.0255;7.2015;
1793403295261728;-3.0852;-0.3508;-6.8647;
1793403305363812;-15.9012;-1.3807;-5.0683;
1793403315448968;-15.5204;0.3727;1.5888;
1793403325551103;-3.7322;1.1608;0.6308;
1793403335653239;-6.4702;-0.0511;-4.3304;
1793403345752822;-8.7437;2.1479;-2.6321;
1793403355854957;-6.8342;1.7022;-3.5255;
1793403365957093;-10.1234;0.0087;-7.6457;
1793403376059228;-11.8696;0.3990;-4.0645;
1793403386161364;-6.5420;-0.8393;-2.5816;
1793403396263447;-9.7017;-2.7464;-7.1524;
1793403406382978;-12.3033;0.0733;-1.2209;
1793403416485166;-10.7892;-0.5016;-0.1645;
1793403426587301;-12.4158;-0.9425;-2.3157;
1793403436688551;-8.0847;-0.0368;0.9039;
1793403446790687;-3.6123;-0.5231;0.4343;
1793403456892822;-9.6562;0.9571;-1.9899;
1793403466974176;-15.5516;1.1752;-0.0999;
1793403477076312;-12.4660;0.5477;0.1181;
1793403487178447;-7.8500;0.1786;-1.4294;
1793403497285739;-7.8811;0.1499;-1.3720;
1793403507387874;-8.5759;-0.5973;-1.8416;
1793403517490010;-11.8122;-0.0368;-5.2023;
1793403527593030;-8.3722;0.3153;-3.5830;
1793403537695166;-5.5935;-0.5566;-4.8742;
1793403547797301;-12.3535;-0.5399;-5.9258;
