Sensor: bmi160 Gyroscope Non-wakeup
Vendor: BOSCH
TimestampGyro [ns]; GyroX [rad/s]; GyroY [rad/s]; GyroZ [rad/s]
577511102206289;0.0049;0.0005;-0.0020;
577511112324257;-0.0036;0.0027;-0.0009;
577511122403945;-0.0036;0.0016;0.0001;
577511132496028;-0.0025;0.0027;0.0012;
577511142632070;-0.0036;0.0027;-0.0020;
577511152672591;-0.0036;0.0016;-0.0020;
577511162825924;-0.0036;0.0037;-0.0009;
577511172920143;-0.0036;0.0037;-0.0009;
577511183053112;-0.0025;0.0016;-0.0009;
577511193154934;-0.0047;0.0005;0.0023;
577511203256601;-0.0047;0.0016;0.0023;
577511213328737;-0.0015;0.0027;0.0023;
577511223439726;-0.0025;0.0016;0.0023;
577511233546914;-0.0025;0.0016;0.0012;
577511243689101;-0.0004;0.0005;0.0001;
577511253772070;0.0017;-0.0016;-0.0009;
577511263852226;0.0039;0.0005;-0.0009;
577511273952434;0.0028;0.0016;0.0001;
577511284062955;0.0028;0.0016;0.0012;
577511294159570;0.0060;0.0027;0.0023;
577511304278007;0.0039;0.0005;0.0033;
577511314405664;0.0049;0.0005;0.0033;
577511324466809;0.0049;0.0016;0.0055;
577511334580820;0.0039;0.0005;0.0087;
577511344676601;0.0028;-0.0016;0.0108;
577511354791914;-0.0004;-0.0016;0.0129;
577511364895664;-0.0004;-0.0005;0.0150;
577511374988164;-0.0015;-0.0016;0.0172;
577511385121289;-0.0025;-0.0016;0.0204;
577511395212226;-0.0036;-0.0027;0.0236;
577511405305872;-0.0079;-0.0005;0.0257;
577511415426497;-0.0079;0.0005;0.0300;
577511425520143;-0.0089;0.0005;0.0342;
577511435613320;-0.0089;-0.0005;0.0395;
577511445715612;-0.0132;-0.0027;0.0438;
577511455850455;-0.0153;-0.0027;0.0481;
577511465943945;-0.0111;-0.0037;0.0555;
577511476014153;-0.0121;-0.0037;0.0640;
577511486120403;-0.0217;-0.0037;0.0736;
577511496229049;-0.0324;-0.0037;0.0800;
577511506332278;-0.0483;0.0016;0.0885;
577511516426445;-0.0057;-0.0048;0.0736;
577511526545195;-0.0228;0.0037;0.0896;
577511536642487;-0.0281;0.0069;0.1088;
577511546749049;-0.0547;0.0059;0.1301;
577511556850403;-0.0952;-0.0016;0.1461;
577511566982122;-0.1176;-0.0165;0.1599;
577511577058112;-0.1154;-0.0250;0.1759;
577511587162487;-0.0739;-0.0250;0.2004;
577511597267695;-0.0387;-0.0186;0.2249;
577511607374153;-0.0494;-0.0186;0.2430;
577511617474622;-0.0590;-0.0229;0.2515;
577511627574778;-0.0664;-0.0240;0.2611;
577511637677174;-0.0707;-0.0229;0.2770;
577511647797070;-0.0718;-0.0186;0.2908;
577511657887695;-0.0750;-0.0112;0.3015;
577511667995143;-0.0846;-0.0101;0.3132;
577511678091862;-0.0899;-0.0133;0.3260;
577511688194882;-0.0909;-0.0165;0.3430;
577511698300455;-0.0952;-0.0208;0.3579;
577511708405039;-0.1080;-0.0261;0.3696;
577511718512070;-0.1144;-0.0304;0.3760;
577511728613216;-0.1005;-0.0325;0.3824;
577511738713789;-0.0867;-0.0368;0.3845;
577511748817278;-0.0856;-0.0389;0.3803;
577511758921862;-0.0867;-0.0357;0.3707;
577511769022278;-0.0877;-0.0314;0.3569;
577511779125716;-0.0888;-0.0218;0.3419;
577511789228632;-0.0867;-0.0112;0.3281;
577511799331966;-0.0814;-0.0059;0.3121;
577511809436966;-0.0771;-0.0059;0.2908;
577511819539622;-0.0760;-0.0091;0.2718;
577511829644362;-0.0867;-0.0123;0.2569;
577511839746184;-0.1176;-0.0154;0.2409;
577511849849987;-0.1304;-0.0154;0.2228;
577511859952539;-0.1037;-0.0154;0.2079;
577511870069205;-0.0579;-0.0165;0.1983;
577511880131549;-0.0366;-0.0176;0.1897;
577511890273164;-0.0366;-0.0208;0.1770;
577511900369778;-0.0739;-0.0453;0.1439;
577511910468528;-0.1570;-0.0879;0.1471;
577511920607851;-0.3221;-0.0964;0.1290;
577511930672695;-0.3604;-0.0485;0.1461;
577511940781028;-0.1570;0.0123;0.1535;
577511950882695;0.0071;0.0389;0.1589;
577511960975716;-0.0302;0.0474;0.1589;
577511971087799;-0.0270;0.0282;0.1397;
577511981198112;-0.0494;-0.0186;0.1152;
577511991292591;-0.0537;-0.0506;0.1003;
577512001403320;-0.0345;-0.0421;0.0907;
577512011502539;-0.0249;-0.0165;0.0726;
577512021605299;-0.0174;0.0005;0.0513;
577512031708424;-0.0100;0.0176;0.0385;
577512041829518;-0.0057;0.0229;0.0321;
577512051915455;-0.0036;0.0048;0.0278;
577512062017382;0.0028;-0.0048;0.0204;
577512072118841;0.0316;0.0123;0.0150;
577512082250664;0.0326;0.0272;0.0129;
577512092324362;-0.0142;0.0293;0.0108;
577512102425820;-0.0089;0.0293;0.0097;
577512112535455;-0.0121;0.0176;0.0150;
577512122640507;-0.0111;-0.0048;0.0236;
577512132739778;-0.0100;-0.0123;0.0310;
577512142844153;0.0039;-0.0005;0.0310;
577512152956653;0.0294;0.0069;0.0364;
577512163056445;0.0529;0.0101;0.0459;
577512173151289;0.0688;0.0112;0.0534;
577512183262382;0.0688;0.0005;0.0609;
577512193357174;0.0539;-0.0154;0.0630;
577512203452539;0.0262;-0.0186;0.0662;
577512213547851;-0.0100;-0.0101;0.0683;
577512223688476;-0.0302;-0.0059;0.0704;
577512233783841;-0.0270;-0.0080;0.0726;
577512243879153;-0.0270;-0.0080;0.0779;
577512253986914;-0.0270;-0.0133;0.0811;
577512264082278;-0.0260;-0.0176;0.0811;
577512274177591;-0.0270;-0.0144;0.0790;
577512284338059;-0.0260;-0.0069;0.0779;
577512294433424;-0.0249;-0.0048;0.0800;
577512304528737;-0.0249;-0.0027;0.0790;
577512314615664;-0.0228;-0.0037;0.0758;
577512324710976;-0.0206;-0.0059;0.0747;
577512334806289;-0.0196;-0.0048;0.0640;
577512344900299;-0.0142;-0.0037;0.0449;
577512354995664;-0.0142;-0.0091;0.0289;
577512365090976;-0.0057;-0.0080;0.0150;
577512375219987;0.0028;0.0080;0.0001;
577512385315299;0.0017;0.0154;-0.0254;
577512395410664;0.0028;0.0154;-0.0489;
577512405554414;0.0124;0.0197;-0.0606;
577512415649778;0.0188;0.0197;-0.0659;
577512425745091;0.0220;0.0176;-0.0702;
577512435829153;0.0337;0.0154;-0.0723;
577512445924466;0.0582;0.0123;-0.0659;
577512456019830;0.0880;0.0037;-0.0595;
577512466180976;0.1115;-0.0037;-0.0553;
577512476276341;0.1040;-0.0069;-0.0542;
577512486371653;0.0646;-0.0091;-0.0585;
577512496473059;0.0103;-0.0080;-0.0606;
577512506568372;0.0113;-0.0037;-0.0489;
577512516663737;0.0124;-0.0016;-0.0403;
577512526773476;0.0081;-0.0016;-0.0457;
577512536868789;0.0071;0.0005;-0.0489;
577512546964153;0.0134;-0.0037;-0.0393;
577512557081237;0.0134;-0.0080;-0.0233;
577512567176549;0.0060;-0.0080;-0.0105;
577512577271914;-0.0025;-0.0059;-0.0020;
577512587393632;-0.0015;-0.0048;0.0097;
577512597488945;0.0113;-0.0059;0.0246;
577512607584309;0.0284;-0.0059;0.0374;
577512617720351;0.0422;-0.0048;0.0470;
577512627815716;0.0486;-0.0048;0.0545;
577512637911028;0.0390;-0.0037;0.0587;
577512648016653;0.0145;-0.0027;0.0587;
577512658112018;-0.0174;-0.0016;0.0555;
577512668207330;-0.0260;0.0005;0.0523;
577512678324674;-0.0260;-0.0005;0.0545;
577512688419987;-0.0249;-0.0016;0.0598;
577512698515351;-0.0260;-0.0005;0.0619;
577512708633737;-0.0228;0.0016;0.0587;
577512718729101;-0.0217;0.0005;0.0523;
577512728824414;-0.0196;-0.0027;0.0470;
577512738944049;-0.0142;0.0005;0.0427;
577512749039414;-0.0132;0.0059;0.0342;
577512759134726;-0.0142;0.0080;0.0236;
577512769254466;-0.0132;0.0101;0.0172;
577512779349830;-0.0089;0.0101;0.0108;
577512789445143;-0.0036;0.0059;0.0044;
577512799560559;-0.0036;0.0037;-0.0031;
577512809655872;-0.0047;0.0037;-0.0063;
577512819751237;-0.0047;0.0059;-0.0031;
577512829881341;-0.0047;0.0059;0.0033;
577512839976705;-0.0068;0.0048;0.0023;
577512850072018;-0.0079;0.0048;-0.0009;
577512860183945;-0.0089;0.0027;0.0012;
577512870279257;-0.0068;0.0016;0.0044;
577512880374674;-0.0068;0.0005;0.0055;
577512890514309;-0.0079;0.0016;0.0044;
577512900609674;-0.0068;0.0037;0.0012;
577512910704987;-0.0057;0.0027;-0.0009;
577512920788164;-0.0036;0.0027;-0.0009;
577512930883528;-0.0036;0.0027;-0.0009;
577512940978841;-0.0047;0.0005;-0.0031;
577512951114674;-0.0036;-0.0016;-0.0063;
577512961210039;-0.0004;-0.0016;-0.0073;
577512971305351;0.0007;0.0027;-0.0084;
577512981418268;-0.0015;0.0048;-0.0073;
577512991513580;-0.0036;0.0059;-0.0052;
577513001608945;-0.0036;0.0059;-0.0052;
577513011732278;-0.0068;-0.0005;-0.0041;
577513021827591;-0.0047;-0.0048;0.0023;
577513031922955;-0.0025;-0.0037;0.0129;
577513042077330;-0.0057;-0.0016;0.0204;
577513052172695;-0.0079;-0.0005;0.0246;
577513062268007;-0.0079;-0.0005;0.0257;
577513072354049;-0.0068;-0.0005;0.0246;
577513082449414;-0.0068;-0.0016;0.0225;
577513092544726;-0.0068;-0.0027;0.0214;
577513102665299;-0.0057;-0.0027;0.0214;
577513112760664;-0.0068;-0.0027;0.0236;
577513122855976;-0.0057;-0.0016;0.0225;
577513132966341;-0.0068;-0.0005;0.0225;
577513143061653;-0.0068;-0.0027;0.0225;
577513153157018;-0.0057;-0.0037;0.0225;
577513163289309;-0.0057;-0.0027;0.0246;
577513173384674;-0.0057;-0.0016;0.0268;
577513183479987;-0.0079;-0.0016;0.0300;
577513193609674;-0.0111;-0.0027;0.0310;
577513203705039;-0.0089;-0.0016;0.0332;
577513213800351;-0.0068;-0.0037;0.0374;
577513223894205;-0.0089;-0.0059;0.0395;
577513233989518;-0.0132;-0.0059;0.0427;
577513244084934;-0.0121;-0.0048;0.0481;
577513254213580;-0.0089;-0.0048;0.0502;
577513264308893;-0.0089;-0.0037;0.0481;
577513274404205;-0.0100;-0.0016;0.0438;
577513284530403;-0.0089;-0.0005;0.0395;
577513294625716;-0.0068;0.0005;0.0395;
577513304721132;-0.0068;0.0016;0.0374;
577513314818528;-0.0057;0.0005;0.0342;
577513324913841;-0.0057;0.0005;0.0310;
577513335009153;-0.0068;-0.0027;0.0278;
577513345138893;-0.0036;-0.0027;0.0236;
577513355234205;-0.0036;-0.0005;0.0193;
577513365329570;-0.0025;-0.0016;0.0161;
577513375482903;-0.0036;0.0005;0.0108;
577513385578268;-0.0036;0.0016;0.0044;
577513395673580;-0.0015;0.0016;-0.0031;
577513405768737;-0.0004;0.0005;-0.0116;
577513415864049;-0.0004;-0.0005;-0.0126;
577513425959414;0.0028;0.0027;-0.0105;
577513436081653;0.0049;0.0037;-0.0105;
577513446176966;0.0007;0.0048;-0.0148;
577513456272330;0.0028;0.0005;-0.0190;
577513466388632;0.0092;-0.0005;-0.0158;
577513476483945;0.0081;0.0016;-0.0105;
577513486579309;0.0028;0.0027;-0.0052;
577513496704153;0.0007;0.0005;-0.0041;
577513506799466;-0.0047;0.0016;0.0044;
577513516894830;-0.0025;-0.0016;0.0119;
577513527011445;-0.0004;-0.0027;0.0214;
577513537106757;0.0007;0.0005;0.0257;
577513547202122;-0.0036;-0.0016;0.0268;
577513557316341;-0.0047;-0.0048;0.0289;
577513567411705;-0.0047;-0.0037;0.0289;
577513577507018;-0.0068;-0.0016;0.0268;
577513587631862;-0.0079;-0.0005;0.0257;
577513597727226;-0.0068;-0.0027;0.0257;
577513607822539;-0.0057;-0.0048;0.0257;
577513617945559;-0.0057;-0.0059;0.0257;
577513628040872;-0.0079;-0.0069;0.0310;
577513638136237;-0.0089;-0.0027;0.0374;
577513648265403;-0.0100;-0.0005;0.0385;
577513658360768;-0.0100;-0.0016;0.0374;
577513668456080;-0.0089;-0.0005;0.0364;
577513678564362;-0.0089;-0.0016;0.0353;
577513688659726;-0.0100;-0.0005;0.0342;
577513698755039;-0.0068;0.0027;0.0310;
577513708874882;-0.0079;0.0016;0.0268;
577513718970247;-0.0068;0.0005;0.0214;
577513729065559;-0.0047;0.0005;0.0193;
577513739189153;-0.0057;-0.0016;0.0225;
577513749284518;-0.0047;-0.0037;0.0236;
577513759379830;-0.0047;-0.0037;0.0193;
577513769502487;-0.0015;-0.0016;0.0108;
577513779597799;0.0028;0.0005;0.0044;
577513789693164;0.0028;0.0005;-0.0009;
577513799799987;0.0007;-0.0016;-0.0126;
577513809895351;0.0028;-0.0027;-0.0244;
577513819990664;0.0092;0.0016;-0.0286;
577513830112487;0.0124;0.0048;-0.0286;
577513840207851;0.0049;0.0027;-0.0254;
577513850303164;-0.0025;-0.0048;-0.0308;
577513860421653;-0.0047;-0.0133;-0.0190;
577513870516966;0.0028;-0.0197;-0.0095;
577513880612330;0.0124;-0.0080;0.0023;
577513890755768;0.0060;0.0048;0.0033;
577513900851132;-0.0036;0.0016;-0.0031;
577513910946445;-0.0057;0.0037;-0.0020;
577513921049153;-0.0004;0.0112;0.0023;
577513931144518;-0.0004;0.0091;-0.0041;
577513941239830;-0.0047;0.0027;-0.0126;
577513951354257;-0.0036;0.0027;-0.0084;
577513961449570;0.0039;0.0016;0.0033;
577513971544934;0.0071;0.0027;0.0033;
577513981654466;0.0071;0.0069;-0.0041;
577513991749778;0.0060;0.0091;-0.0095;
577514001845143;0.0103;0.0016;-0.0158;
577514011973945;0.0145;0.0027;-0.0254;
577514022069309;0.0028;0.0027;-0.0361;
577514032164622;-0.0047;-0.0091;-0.0382;
577514042279049;0.0017;-0.0091;-0.0222;
577514052374362;0.0103;0.0069;-0.0052;
577514062469726;0.0113;0.0123;-0.0063;
577514072592174;0.0049;0.0059;-0.0116;
577514082687539;0.0039;0.0027;-0.0084;
577514092782851;0.0028;-0.0037;-0.0041;
577514102899257;-0.0004;-0.0101;-0.0052;
577514112994622;-0.0036;-0.0091;-0.0063;
577514123089934;-0.0025;-0.0080;0.0023;
577514133216757;0.0017;-0.0112;0.0140;
577514143312070;0.0007;-0.0080;0.0278;
577514153407434;-0.0047;-0.0027;0.0470;
577514163536237;-0.0089;-0.0069;0.0630;
577514173631601;0.0071;-0.0101;0.0811;
577514183726914;0.0518;-0.0080;0.0949;
577514193832851;0.0987;-0.0112;0.1088;
577514203928216;0.1264;-0.0123;0.1205;
577514214023528;0.1157;-0.0101;0.1312;
577514224164882;0.0624;-0.0112;0.1280;
577514234260247;-0.0111;-0.0080;0.1120;
577514244355507;-0.0430;-0.0027;0.0875;
577514254456289;-0.0281;-0.0016;0.0747;
577514264551653;-0.0196;-0.0027;0.0768;
577514274646966;-0.0153;-0.0005;0.0704;
577514284769726;-0.0196;-0.0016;0.0459;
577514294871497;-0.0174;-0.0037;0.0268;
577514304973268;-0.0025;-0.0005;0.0236;
577514315076237;0.0007;0.0080;0.0246;
577514325177955;-0.0047;0.0091;0.0108;
577514335279726;-0.0036;0.0069;-0.0073;
577514345402330;0.0049;0.0027;-0.0148;
577514355504101;0.0113;-0.0037;-0.0180;
577514365605872;0.0113;-0.0091;-0.0212;
577514375694466;0.0081;-0.0059;-0.0222;
577514385796237;0.0060;-0.0037;-0.0254;
577514395898007;0.0145;-0.0027;-0.0265;
577514406005559;0.0369;0.0016;-0.0233;
577514416107382;0.0848;0.0037;-0.0222;
577514426209153;0.1349;0.0005;-0.0212;
577514436313216;0.1594;-0.0027;-0.0190;
577514446414987;0.1477;-0.0027;-0.0212;
577514456516757;0.0933;-0.0005;-0.0265;
577514466627747;0.0113;0.0027;-0.0286;
577514476729518;-0.0153;0.0037;-0.0212;
577514486831289;-0.0047;0.0059;-0.0084;
577514496941497;0.0007;0.0048;-0.0020;
577514507043268;0.0028;0.0005;-0.0052;
577514517145039;0.0028;-0.0016;-0.0073;
577514527258737;0.0028;-0.0027;0.0001;
577514537360507;0.0017;-0.0027;0.0055;
577514547462278;-0.0025;0.0005;-0.0020;
577514557559101;-0.0004;-0.0027;-0.0148;
577514567660872;0.0060;-0.0037;-0.0212;
577514577762643;0.0081;-0.0016;-0.0233;
577514587872955;0.0092;-0.0005;-0.0286;
577514597974778;0.0060;0.0005;-0.0393;
577514608076549;0.0049;0.0027;-0.0457;
577514618188372;0.0071;0.0016;-0.0478;
577514628290195;0.0049;-0.0027;-0.0499;
577514638391966;-0.0068;-0.0059;-0.0435;
577514648486757;-0.0451;-0.0101;-0.0340;
577514658588580;-0.0760;0.0005;-0.0254;
577514668690299;-0.0888;0.0091;-0.0148;
577514678798372;-0.0941;0.0091;0.0001;
577514688900143;-0.0782;0.0101;0.0161;
577514699001914;-0.0324;0.0101;0.0268;
577514709109309;0.0049;0.0059;0.0364;
577514719211080;-0.0079;0.0016;0.0470;
577514729312851;-0.0121;0.0016;0.0523;
577514739420559;-0.0185;-0.0005;0.0577;
577514749522330;-0.0238;-0.0037;0.0651;
577514759624101;-0.0196;-0.0048;0.0715;
577514769735247;-0.0217;-0.0069;0.0715;
577514779837070;-0.0281;-0.0112;0.0747;
577514789938789;-0.0281;-0.0165;0.0832;
577514800036914;-0.0302;-0.0133;0.0928;
577514810138737;-0.0334;-0.0144;0.1003;
577514820240507;-0.0494;-0.0154;0.1045;
577514830350143;-0.0824;-0.0101;0.1088;
577514840451966;-0.1282;-0.0091;0.1120;
577514850553684;-0.1687;-0.0101;0.1152;
577514860661497;-0.2017;-0.0059;0.1141;
577514870763268;-0.2326;-0.0027;0.1130;
577514880865091;-0.2582;-0.0037;0.1152;
577514890991080;-0.2646;-0.0027;0.1184;
577514901092851;-0.2561;-0.0027;0.1194;
577514911194622;-0.2667;0.0005;0.1226;
577514921300976;-0.3232;0.0080;0.1173;
577514931402747;-0.3146;-0.0037;0.1120;
577514941504518;-0.3157;0.0037;0.1120;
577514951601080;-0.3583;0.0091;0.1099;
577514961702851;-0.3359;-0.0112;0.1056;
577514971804622;-0.3349;0.0016;0.1077;
577514981892070;-0.4285;0.0165;0.1035;
577514991993789;-0.4104;-0.0165;0.0917;
577515002095612;-0.2017;-0.0368;0.1056;
577515012220976;-0.0047;-0.0378;0.1226;
577515022322747;-0.0260;-0.0559;0.1269;
577515032424518;-0.0228;-0.0527;0.1194;
577515042529622;0.0134;-0.0240;0.1162;
577515052631445;0.0614;-0.0154;0.1162;
577515062733164;0.1029;-0.0197;0.1173;
577515072837018;0.1466;-0.0197;0.1141;
577515082938789;0.2009;-0.0144;0.0971;
577515093040559;0.2498;-0.0229;0.0768;
577515103142851;0.2839;-0.0250;0.0619;
577515113244674;0.2977;-0.0112;0.0513;
577515123346393;0.2509;-0.0005;0.0353;
577515133458059;0.1466;0.0048;0.0161;
577515143559830;0.0209;0.0218;-0.0020;
577515153661601;-0.0622;0.0282;-0.0137;
577515163763580;-0.0398;0.0282;-0.0233;
577515173865403;-0.0377;0.0368;-0.0350;
577515183967122;-0.0334;0.0431;-0.0478;
577515194053320;-0.0324;0.0314;-0.0489;
577515204155091;-0.0302;0.0165;-0.0521;
577515214256862;-0.0302;0.0080;-0.0563;
577515224424309;-0.0313;0.0112;-0.0542;
577515234526080;-0.0260;0.0197;-0.0531;
577515244627799;-0.0260;0.0250;-0.0553;
577515254694726;-0.0281;0.0197;-0.0563;
577515264796497;-0.0313;0.0133;-0.0521;
577515274898268;-0.0366;-0.0016;-0.0457;
577515285000664;-0.0217;-0.0091;-0.0446;
577515295103737;0.0475;0.0080;-0.0425;
577515305206757;0.1232;0.0357;-0.0361;
577515315332695;0.2222;0.1294;0.0353;
577515325435716;0.2201;0.2475;0.0310;
577515335538789;0.0209;0.2955;-0.0499;
577515345637070;-0.2901;0.1539;-0.1916;
577515355740091;-0.6170;-0.0804;-0.3035;
577515365843112;-0.6831;-0.1454;-0.2300;
577515375959778;-0.2699;0.0112;-0.0510;
577515386062799;0.0635;0.1241;0.0449;
577515396165872;0.0593;0.1103;0.0268;
577515406244934;0.1328;0.1348;-0.0084;
577515416347903;0.1690;0.0698;-0.0126;
577515426450976;0.0241;-0.0847;0.0225;
577515436547174;-0.0356;-0.0964;0.0885;
577515446650247;0.0134;-0.0048;0.1450;
577515456753268;0.0103;0.0463;0.1546;
577515466870872;-0.0824;0.0399;0.1322;
577515476973893;-0.1463;0.0101;0.1152;
577515487076914;-0.1165;0.0282;0.1099;
577515497170768;-0.1410;0.0538;0.1248;
577515507273841;-0.1474;0.0346;0.1418;
577515517376862;-0.1453;0.0229;0.1429;
577515527500143;-0.1431;0.0378;0.1280;
577515537603164;-0.1293;0.0218;0.1109;
577515547706184;-0.0643;0.0091;0.0854;
577515557798789;0.1317;0.0527;0.0577;
577515567901809;0.2732;0.0591;0.0321;
577515578004830;0.2328;0.0314;0.0310;
577515588108268;0.2233;0.0304;0.0491;
577515598211237;0.3425;0.0506;0.0577;
577515608314309;0.4266;0.0218;0.0332;
577515618431549;0.4053;-0.0261;-0.0105;
577515628534570;0.3414;-0.0112;-0.0308;
577515638637591;0.2413;-0.0144;-0.0254;
577515648725351;0.1977;-0.0293;-0.0372;
577515658828372;0.1775;-0.0133;-0.0553;
577515668931393;0.1455;-0.0091;-0.0712;
577515679031601;0.0880;-0.0314;-0.0883;
577515689134674;0.0241;-0.0325;-0.0947;
577515699237695;0.0103;0.0165;-0.0936;
577515709347226;0.0124;0.0431;-0.1011;
577515719450247;-0.0302;0.0016;-0.1149;
577515729553268;-0.0505;0.0027;-0.1224;
577515739654987;-0.0675;0.0208;-0.1298;
577515749758007;-0.1101;-0.0123;-0.1415;
577515759861028;-0.1687;-0.0208;-0.1458;
577515769972226;-0.2188;0.0059;-0.1511;
577515780075247;-0.2454;0.0027;-0.1724;
577515790178268;-0.2252;0.0261;-0.1905;
577515800266289;-0.2337;0.0453;-0.2033;
577515810369309;-0.3040;-0.0069;-0.2118;
577515820472382;-0.3541;-0.0240;-0.2236;
577515830594309;-0.3445;0.0144;-0.2395;
577515840697278;-0.2859;0.0453;-0.2640;
577515850800351;-0.2326;0.0442;-0.2694;
577515860908684;-0.2177;0.0357;-0.2726;
577515871011653;-0.2241;0.0272;-0.2843;
577515881114726;-0.2145;0.0410;-0.2885;
577515891225091;-0.1602;0.0666;-0.2949;
577515901328164;-0.0888;0.0815;-0.3056;
577515911431184;-0.0526;0.0847;-0.2939;
577515921524101;-0.0696;0.0581;-0.2768;
577515931627122;-0.1005;0.0293;-0.2758;
577515941730143;-0.1059;0.0442;-0.2768;
577515951837018;-0.1037;0.0485;-0.2790;
577515961940039;-0.1091;0.0144;-0.2853;
577515972043059;-0.0782;-0.0048;-0.2747;
577515982156497;-0.0313;0.0005;-0.2587;
577515992259518;-0.0419;0.0016;-0.2513;
577516002362539;-0.0419;-0.0240;-0.2523;
577516012453164;0.0401;0.0186;-0.2395;
577516022556184;0.1839;0.1262;-0.2150;
577516032659205;0.1956;0.1411;-0.2204;
577516042762070;0.0710;0.0676;-0.2438;
577516052865039;0.0039;0.0975;-0.2481;
577516062968112;-0.0505;0.1603;-0.2630;
577516073066549;-0.0739;0.1252;-0.2683;
577516083169622;-0.0835;0.0804;-0.2662;
577516093272643;-0.1250;0.0666;-0.2619;
577516103377226;-0.1357;0.0708;-0.2843;
577516113480247;-0.1378;0.0719;-0.3077;
577516123583268;-0.1229;0.0399;-0.3045;
577516133728059;-0.1197;0.0399;-0.2907;
577516143831080;-0.1336;0.0549;-0.2726;
577516153934101;-0.1794;0.0506;-0.2758;
577516163983684;-0.2305;0.0186;-0.2939;
577516174086705;-0.2103;-0.0517;-0.2811;
577516184189778;-0.1101;-0.1103;-0.2470;
577516194333476;-0.0505;-0.0858;-0.2076;
577516204436497;-0.0622;-0.0154;-0.1991;
577516214539518;-0.0835;-0.0250;-0.2108;
577516224634049;-0.0782;-0.0591;-0.2129;
577516234737070;-0.0451;-0.0048;-0.1916;
577516244840091;-0.0313;0.0655;-0.1597;
577516254952330;-0.0760;0.0613;-0.1565;
577516265055351;-0.0856;0.0538;-0.1639;
577516275158424;-0.0952;0.0613;-0.1628;
577516285242903;-0.1176;0.0804;-0.1341;
577516295345976;-0.1186;0.1166;-0.1192;
577516305448945;-0.1250;0.0794;-0.1277;
577516315573372;-0.1463;0.0495;-0.1288;
577516325676341;-0.1410;0.0634;-0.1107;
577516335779414;-0.1101;0.0591;-0.0925;
577516345855143;-0.1091;0.0431;-0.1064;
577516355958112;-0.1325;-0.0389;-0.1202;
577516366061184;-0.1048;-0.0208;-0.1107;
577516376172122;-0.0622;0.0751;-0.0979;
577516386275143;-0.0696;0.0730;-0.1096;
577516396378164;-0.1474;-0.0101;-0.1330;
577516406485820;-0.1389;-0.0378;-0.1426;
577516416588789;-0.0867;0.0314;-0.1234;
577516426691862;-0.0686;0.0772;-0.1234;
577516436793997;-0.0984;0.0463;-0.1437;
577516446897018;-0.1186;0.0304;-0.1543;
577516457000039;-0.1101;0.0751;-0.1383;
577516467106080;-0.1240;0.0900;-0.1256;
577516477209101;-0.1378;0.0272;-0.1458;
577516487312122;-0.1186;0.0176;-0.1533;
577516497430351;-0.0409;0.0762;-0.1341;
577516507533372;0.0454;0.0932;-0.1298;
577516517636393;0.0656;0.0666;-0.1597;
577516527728059;0.0784;0.0613;-0.1639;
577516537831080;0.1146;0.0591;-0.1405;
577516547934101;0.1668;0.0538;-0.1458;
577516558043580;0.2349;0.0336;-0.1565;
577516568146601;0.2977;-0.0016;-0.1256;
577516578249622;0.3734;0.0485;-0.1043;
577516588345976;0.4437;0.0389;-0.1181;
577516598448997;0.4277;-0.0751;-0.1043;
577516608552018;0.4554;-0.0368;-0.0531;
577516618666080;0.5406;-0.0176;-0.0510;
577516628769049;0.5630;-0.0847;-0.0606;
577516638872122;0.5630;-0.0549;-0.0340;
577516648988684;0.6098;-0.0144;-0.0158;
577516659091705;0.6354;-0.0421;-0.0201;
577516669194726;0.6067;-0.0144;-0.0073;
577516679278684;0.5363;0.0495;0.0012;
577516689381705;0.5012;0.0889;-0.0212;
577516699484726;0.4639;0.0730;-0.0617;
577516709589726;0.4437;-0.0442;-0.0617;
577516719692747;0.4288;-0.1145;-0.0723;
577516729795768;0.2860;-0.0186;-0.1075;
577516739906497;0.0710;-0.0208;-0.1085;
577516750009518;0.0177;0.0186;-0.1170;
577516760112539;0.0134;0.0208;-0.1575;
577516770213164;-0.0089;0.0144;-0.1554;
577516780316132;-0.0750;0.1848;-0.1298;
577516790419205;-0.1176;0.2284;-0.1245;
577516800501966;-0.0036;0.1763;-0.1415;
577516810604987;0.0113;0.1880;-0.1117;
577516820708059;-0.0025;0.0794;-0.0734;
577516830845351;0.0433;-0.0080;-0.0776;
577516840948372;-0.0057;-0.0186;-0.0510;
577516851051393;-0.0249;-0.0591;-0.0361;
577516861132382;-0.0409;-0.0794;-0.0521;
577516871235403;-0.1037;-0.0847;-0.0499;
577516881338476;-0.1676;-0.0517;-0.0393;
577516891467174;-0.1847;0.0123;-0.0670;
577516901570195;-0.1911;-0.0357;-0.0989;
577516911673268;-0.1985;-0.0570;-0.0712;
577516921748164;-0.2454;0.0336;-0.0457;
577516931851184;-0.2614;0.0389;-0.0542;
577516941954205;-0.2752;0.0197;-0.0680;
577516952070976;-0.3253;0.0889;-0.0744;
577516962173945;-0.3647;0.1198;-0.0915;
577516972277018;-0.3722;0.0538;-0.0638;
577516982387122;-0.3604;0.0368;-0.0489;
577516992490195;-0.3573;0.0442;-0.0648;
577517002593164;-0.3626;0.0240;-0.0499;
577517012687018;-0.3359;0.0431;-0.0297;
577517022789987;-0.3434;0.0549;-0.0457;
577517032893059;-0.3551;0.0336;-0.0286;
577517043000039;-0.3509;0.0091;-0.0350;
577517053103007;-0.3391;0.0250;-0.0574;
577517063206080;-0.3253;0.0453;-0.0361;
577517073304882;-0.2688;0.0208;-0.0350;
577517083407955;-0.2273;0.0197;-0.0489;
577517093510976;-0.1996;0.0261;-0.0361;
577517103647747;-0.1549;-0.0123;-0.0553;
577517113750768;-0.1272;0.0261;-0.0648;
577517123853789;-0.1176;0.0634;-0.0712;
577517133925195;-0.0984;0.0208;-0.0936;
577517144028216;-0.0973;0.0666;-0.0862;
577517154131237;-0.0973;0.1188;-0.1075;
577517164223320;-0.0760;0.1028;-0.1128;
577517174326393;-0.0569;0.0815;-0.1128;
577517184429362;-0.0206;0.0517;-0.1511;
577517194537799;0.0316;0.0410;-0.1298;
577517204640820;0.0656;-0.0218;-0.1224;
577517214743841;0.1019;-0.0858;-0.1352;
577517224857278;0.1242;-0.0804;-0.1298;
577517234960299;0.1061;-0.0708;-0.1597;
577517245063320;0.1040;-0.0176;-0.1490;
577517255157174;0.0880;0.0304;-0.1415;
577517265260247;0.0593;0.0410;-0.1703;
577517275363268;0.0262;0.0559;-0.1415;
577517285482382;-0.0387;0.1156;-0.1543;
577517295585768;-0.0526;0.1699;-0.1799;
577517305689101;-0.0622;0.1049;-0.1692;
577517315833112;-0.0856;0.0389;-0.1788;
577517325936497;-0.0782;0.0069;-0.1394;
577517336039830;-0.1442;-0.0613;-0.1543;
577517346092330;-0.1314;-0.0879;-0.1714;
577517356195664;-0.1069;-0.0879;-0.1437;
577517366298997;-0.0931;-0.1071;-0.1618;
577517376409414;-0.0632;-0.0719;-0.1160;
577517386512747;-0.0760;-0.0613;-0.1128;
577517396616080;-0.0313;-0.0442;-0.1107;
577517406724101;-0.0079;-0.0506;-0.0712;
577517416827487;0.0348;-0.0889;-0.0883;
577517426930820;0.0891;-0.0623;-0.0606;
577517437028112;0.1210;-0.0027;-0.0499;
577517447131497;0.1775;0.0091;-0.0276;
577517457234830;0.2509;0.0186;-0.0510;
577517467340091;0.2924;0.0165;-0.0361;
577517477443476;0.2903;0.0410;0.0065;
577517487546809;0.2903;0.0421;-0.0137;
577517497662174;0.2977;0.0304;0.0140;
577517507765559;0.2541;0.0112;-0.0244;
577517517868893;0.2244;-0.0005;0.0012;
577517527962903;0.1839;-0.0186;-0.0063;
577517538066289;0.1732;-0.0442;0.0236;
577517548169622;0.1700;-0.0282;-0.0041;
577517558270924;0.1530;0.0325;0.0150;
577517568374309;0.0731;0.0421;-0.0457;
577517578477643;0.0103;-0.0538;-0.0819;
577517588578737;-0.0132;-0.0495;-0.0606;
577517598682122;-0.0047;-0.0123;-0.0361;
577517608785455;0.0124;-0.0293;-0.0254;
577517618896549;0.0145;-0.1124;-0.0617;
577517628999934;0.0166;-0.1262;-0.0553;
577517639103268;0.0124;-0.1550;-0.0606;
577517649191080;0.0337;-0.1262;-0.0638;
577517659294414;0.0348;-0.0687;-0.0648;
577517669397747;0.0923;-0.0165;-0.0617;
577517679512018;0.0688;0.0751;-0.0819;
577517689615403;0.0049;0.0932;-0.0776;
577517699718737;0.0507;0.1134;-0.1021;
577517709825612;0.0816;0.1081;-0.0893;
577517719928945;0.0997;0.0602;-0.1213;
577517730032330;0.1349;0.0804;-0.0989;
577517740130091;0.1732;0.0772;-0.1032;
577517750233476;0.1871;0.0346;-0.0744;
577517760336809;0.2158;-0.0027;-0.0680;
577517770446028;0.1636;-0.0357;-0.0627;
577517780549414;0.1264;-0.0421;-0.0659;
577517790652747;0.0561;-0.0399;-0.0542;
577517800752487;0.0454;-0.0399;-0.0659;
577517810855820;0.0561;0.0186;-0.0340;
577517820959205;0.0326;0.0112;-0.0553;
577517831057539;0.0710;-0.0261;-0.0467;
577517841160872;0.0316;-0.0154;-0.0659;
577517851264205;0.0635;0.0623;-0.0510;
577517861378268;0.0433;0.1081;-0.0766;
577517871481653;0.0550;0.0996;-0.0702;
577517881584987;0.0646;0.0889;-0.0840;
577517891681445;0.0869;0.0879;-0.0734;
577517901784778;0.0635;0.0240;-0.0893;
577517911888164;0.0838;-0.0304;-0.1021;
577517922023320;0.0614;-0.0772;-0.0776;
577517932126653;0.0422;-0.1081;-0.0968;
577517942230039;0.0848;-0.0591;-0.1181;
577517952311549;0.0465;-0.0261;-0.1288;
577517962414882;0.0454;-0.0048;-0.1000;
577517972518268;0.0944;-0.0250;-0.1213;
577517982627851;0.1115;-0.0740;-0.1043;
577517992731237;0.1200;-0.0431;-0.1405;
577518002834570;0.1722;-0.0005;-0.1447;
577518012918320;0.1573;-0.0037;-0.1415;
577518023021653;0.1945;0.0059;-0.1650;
577518033124987;0.2126;0.0368;-0.1362;
577518043234153;0.1509;0.0229;-0.1501;
577518053337539;0.2722;0.0048;-0.1607;
577518063440872;0.3201;0.0144;-0.1756;
577518073538164;0.2860;0.0154;-0.1650;
577518083641445;0.2860;-0.0112;-0.1724;
577518093744830;0.3116;-0.0250;-0.1980;
577518103848684;0.3531;-0.0325;-0.1682;
577518113952018;0.3691;-0.0176;-0.1778;
577518124055403;0.3893;-0.0240;-0.1650;
577518134161809;0.4458;-0.0368;-0.1895;
577518144265143;0.5427;-0.0708;-0.1831;
577518154368476;0.5853;-0.0985;-0.1522;
577518164476028;0.6216;-0.0751;-0.1373;
577518174579414;0.6652;-0.0474;-0.1277;
577518184682747;0.6876;0.0112;-0.1383;
577518194795195;0.7015;0.1273;-0.1405;
577518204898528;0.7867;0.0133;-0.1053;
577518215001914;0.8526;-0.0357;-0.0925;
577518225081393;0.8398;0.1049;-0.0925;
577518235184726;0.8803;0.1379;-0.0744;
577518245288059;0.9527;0.1198;-0.0489;
577518255404882;0.9698;0.1326;-0.0265;
577518265508268;0.9591;0.1124;0.0182;
577518275611601;0.9240;-0.0059;0.0406;
577518285715716;0.8611;-0.0879;0.0427;
577518295819101;0.7441;-0.0911;0.0427;
577518305922487;0.6461;-0.0762;0.0609;
577518316055247;0.6013;-0.1092;0.0747;
577518326158632;0.5598;-0.1465;0.0800;
577518336261966;0.4660;-0.0868;0.0790;
577518346336549;0.4256;-0.0485;0.0800;
577518356439934;0.4415;0.0453;0.0459;
577518366543268;0.4969;0.1081;0.0481;
577518376650768;0.4820;0.0463;0.0651;
577518386754153;0.4639;0.0517;0.0555;
577518396857539;0.4756;0.0900;0.0619;
577518406956966;0.4511;0.0943;0.0651;
577518417060351;0.4618;0.1049;0.0790;
577518427163737;0.4628;0.0559;0.0758;
577518437265612;0.4447;-0.0091;0.0811;
577518447368997;0.4426;-0.0101;0.1067;
577518457472330;0.4873;-0.0080;0.1258;
577518467572695;0.4969;-0.0879;0.1205;
577518477676080;0.5161;-0.1316;0.1173;
577518487779414;0.4628;-0.0762;0.1216;
577518497893737;0.4575;-0.0112;0.1120;
577518507997122;0.4586;0.0154;0.1162;
577518518100455;0.5172;0.0602;0.0790;
577518528198424;0.5704;0.1348;0.0523;
577518538301809;0.5800;0.1124;0.0960;
577518548405143;0.6120;0.0613;0.0960;
577518558509674;0.6077;0.1571;0.0747;
577518568613059;0.5406;0.3093;0.0640;
577518578716445;0.5811;0.2104;0.0875;
577518588810143;0.6557;0.0559;0.1237;
577518598913476;0.6162;0.0559;0.1620;
577518609016809;0.5481;0.0261;0.1876;
577518619130299;0.5172;0.0613;0.2292;
577518629233684;0.4916;0.1017;0.2643;
577518639337070;0.4820;0.1007;0.2897;
577518649452018;0.4756;0.0229;0.3015;
577518659555403;0.4671;-0.0495;0.3324;
577518669658789;0.4575;-0.0282;0.3558;
577518679741341;0.4767;0.0708;0.3835;
577518689844726;0.4554;0.1305;0.3686;
577518699948059;0.4192;0.1411;0.3814;
577518710064570;0.3499;0.1241;0.4059;
577518720167955;0.3521;0.1401;0.4229;
577518730271341;0.3968;0.1795;0.4304;
577518740366028;0.4170;0.1571;0.4367;
577518750469414;0.4181;0.1475;0.4517;
577518760572799;0.4170;0.1369;0.4719;
577518770674362;0.4117;0.1241;0.4857;
577518780777747;0.4085;0.1358;0.4815;
577518790881132;0.4266;0.1198;0.4953;
577518801001445;0.4096;0.0953;0.5166;
577518811104778;0.3936;0.0549;0.5337;
577518821208164;0.3574;0.1017;0.5465;
577518831300924;0.3116;0.1433;0.5433;
577518841404309;0.2839;0.0953;0.5411;
577518851507695;0.2604;0.0613;0.5465;
577518861607382;0.1786;0.0538;0.5475;
577518871710768;0.0454;0.0804;0.5486;
577518881814153;-0.1133;0.1795;0.5145;
577518891919466;-0.1996;0.2166;0.4740;
577518902022851;-0.2518;0.1561;0.4431;
577518912126184;-0.3434;0.1124;0.4261;
577518922214309;-0.4594;0.1241;0.3963;
577518932317643;-0.5510;0.0858;0.3505;
577518942420976;-0.6522;0.0357;0.3174;
577518952542487;-0.7779;0.0453;0.2664;
577518962645872;-0.8578;0.0282;0.2345;
577518972749205;-0.9600;0.0378;0.1780;
577518982854934;-1.0355;0.0357;0.1173;
577518992958320;-1.0867;0.0410;0.0662;
577519003061653;-1.1080;0.0602;0.0246;
577519013163372;-1.1410;0.0378;-0.0297;
577519023266757;-1.1112;0.0698;-0.0830;
577519033370143;-1.0323;0.0900;-0.1277;
577519043467851;-0.9121;0.0368;-0.1618;
577519053571237;-0.8130;0.0826;-0.1927;
577519063674570;-0.6980;0.0378;-0.2172;
577519073776445;-0.5222;-0.0037;-0.2087;
577519083879830;-0.3434;0.0229;-0.2225;
577519093983216;-0.2124;-0.0069;-0.2246;
577519104100091;-0.1218;-0.0154;-0.2204;
577519114203476;0.0209;-0.0037;-0.1873;
577519124306809;0.1445;-0.0048;-0.1948;
577519134428007;0.2519;0.0261;-0.1660;
577519144531393;0.3148;0.0250;-0.1341;
577519154634726;0.3499;0.0208;-0.1064;
577519164709778;0.3680;0.0112;-0.0957;
577519174813164;0.3648;0.0005;-0.0744;
577519184916497;0.3297;0.0240;-0.0574;
577519195009205;0.2722;0.0282;-0.0510;
577519205112539;0.2604;-0.0059;-0.0190;
577519215215924;0.2551;-0.0037;-0.0031;
577519225353424;0.1775;0.0037;0.0065;
577519235456809;0.0688;-0.0176;0.0055;
577519245560143;-0.0068;-0.0495;-0.0116;
577519255653424;-0.0590;-0.0069;-0.0276;
577519265756809;-0.0771;-0.0208;-0.0137;
577519275860143;-0.1080;0.0218;-0.0105;
577519285957695;-0.1037;0.0953;-0.0414;
577519296061132;-0.1176;0.0176;-0.0478;
577519306164570;-0.1740;0.0165;-0.0531;
577519316277278;-0.1197;0.0559;-0.0862;
577519326380716;-0.0835;0.0272;-0.0979;
577519336484153;-0.0718;0.0027;-0.0968;
577519346569153;-0.0356;-0.0314;-0.0936;
577519356672539;-0.0100;-0.0144;-0.1075;
577519366775976;0.0667;0.0165;-0.1043;
577519376886028;0.1296;0.0186;-0.0915;
577519386989466;0.1786;0.0336;-0.0904;
577519397092955;0.2296;0.0218;-0.0862;
577519407200195;0.2328;0.0133;-0.0521;
577519417303632;0.2594;0.0719;-0.0531;
577519427407122;0.2190;0.0453;-0.0553;
577519437508007;0.1328;0.0165;-0.0478;
577519447611445;0.1391;0.0431;-0.0531;
577519457714882;0.1040;0.0495;-0.0521;
577519467804778;0.0486;0.0186;-0.0425;
577519477908216;0.0262;0.0165;-0.0574;
577519488011653;0.0145;0.0527;-0.0457;
577519498120507;0.0092;0.0495;-0.0499;
577519508223945;-0.0206;-0.0027;-0.0702;
577519518327382;-0.0526;0.0069;-0.0755;
577519528428945;-0.0228;0.0687;-0.0702;
577519538532434;-0.0185;0.0581;-0.0712;
577519548635872;-0.0707;0.0336;-0.0787;
577519558740507;-0.0995;0.0229;-0.0989;
577519568843945;-0.1080;0.0154;-0.0808;
577519578947434;-0.1336;-0.0101;-0.1138;
577519589051497;-0.1442;-0.0453;-0.1224;
577519599154882;-0.1815;-0.1007;-0.1245;
577519609258320;-0.1250;-0.1198;-0.1405;
577519619366757;-0.0696;-0.0985;-0.1224;
577519629470247;-0.0505;-0.0921;-0.1479;
577519639573684;-0.0441;-0.0826;-0.1831;
577519649693528;-0.0270;-0.0581;-0.1895;
577519659796966;0.0337;-0.0048;-0.1714;
577519669900455;0.0795;0.0453;-0.1831;
577519680047747;0.1029;0.0453;-0.1799;
577519690151132;0.0997;-0.0005;-0.2150;
577519700254570;0.1605;0.0527;-0.2108;
577519710293112;0.2126;0.0485;-0.1767;
577519720396601;0.2158;-0.0016;-0.1842;
577519730500039;0.2201;-0.0549;-0.2012;
577519740598580;0.2073;-0.0858;-0.2150;
577519750701966;0.2519;-0.0591;-0.2225;
577519760805403;0.2892;-0.1060;-0.2150;
577519770910768;0.3137;-0.1752;-0.2129;
577519781014205;0.3734;-0.1241;-0.2289;
577519791117695;0.3808;-0.0847;-0.2385;
577519801197487;0.3744;-0.0421;-0.2385;
577519811300924;0.4117;-0.0080;-0.2481;
577519821404362;0.4852;-0.0186;-0.2236;
577519831533164;0.5385;-0.0005;-0.2076;
577519841636601;0.5832;0.0272;-0.2055;
577519851739987;0.6226;0.0634;-0.1788;
577519861852799;0.6546;0.0261;-0.1543;
577519871956289;0.6610;-0.0272;-0.1575;
577519882059726;0.6152;-0.0506;-0.1352;
577519892166653;0.5321;-0.0953;-0.1032;
577519902270091;0.4724;-0.1028;-0.1043;
577519912373528;0.4011;-0.1294;-0.1224;
577519922460716;0.3595;-0.0719;-0.1320;
577519932564153;0.3297;-0.0112;-0.1224;
577519942667591;0.3350;-0.0059;-0.1256;
577519952774049;0.3478;0.0559;-0.1309;
577519962877487;0.3510;0.1348;-0.1277;
577519972980976;0.3957;0.1177;-0.1330;
577519983076497;0.4383;0.0495;-0.1256;
577519993179934;0.4288;0.0101;-0.0936;
577520003283372;0.3936;-0.0037;-0.0531;
577520013385351;0.3936;-0.0186;-0.0446;
577520023488737;0.4362;-0.0549;-0.0190;
577520033592226;0.4351;-0.1209;-0.0222;
577520043765039;0.3925;-0.1656;-0.0148;
577520053868424;0.3414;-0.1039;0.0023;
577520063971862;0.3446;-0.0559;0.0108;
577520073996601;0.3638;-0.0240;0.0161;
577520084100039;0.3563;0.0421;0.0140;
577520094203476;0.3606;0.1092;0.0023;
577520104357174;0.3585;0.1273;0.0097;
577520114460612;0.3979;-0.0250;0.0545;
577520124564101;0.6450;-0.4457;0.1993;
577520134614309;0.9389;-0.8590;0.3132;
577520144717747;0.7441;-1.0900;0.3142;
577520154821184;-0.0132;-0.6065;0.1663;
577520164957382;-0.8343;0.1795;0.1471;
577520175060820;-0.8706;0.4212;0.1503;
577520185164257;0.1871;0.4169;0.0193;
577520195257487;0.4969;0.4052;0.1067;
577520205360976;0.5907;0.4553;0.1706;
577520215464414;0.9804;0.4616;0.1897;
577520225585612;1.0869;0.4521;0.2876;
577520235689049;1.0198;0.3796;0.3174;
577520245792487;0.9378;0.2678;0.3324;
577520255878632;0.5608;0.2379;0.3398;
577520265982122;0.2775;0.1869;0.3441;
577520276085507;0.2265;0.1188;0.3110;
577520286196549;0.0667;0.0996;0.2823;
577520296299987;-0.1495;0.0879;0.2430;
577520306403424;-0.5073;0.3487;0.1759;
577520316490559;-0.9377;1.3872;-0.0499;
577520326593945;-0.4519;1.7482;-0.1245;
577520336697382;0.7387;0.4286;-0.1107;
577520346806966;0.9485;-0.5394;0.0928;
577520356910403;-0.1879;0.0666;0.1897;
577520367013841;-0.5542;0.1145;0.2664;
577520377120768;0.1274;-0.5138;0.1738;
577520387224205;0.0284;-0.5788;0.1674;
577520397327643;-0.4924;-0.2221;0.2569;
577520407435612;-0.2678;0.0048;0.2089;
577520417539049;-0.0036;-0.1145;0.0768;
577520427642487;-0.0142;0.1060;0.0225;
577520437736862;0.0134;0.4094;0.0236;
577520447840299;0.2434;0.2198;0.0257;
577520457943737;0.2126;0.0804;-0.0009;
577520468068945;0.1093;0.1348;-0.0510;
577520478172382;0.1850;-0.0698;-0.0553;
577520488275820;0.2233;-0.3201;0.0055;
577520498358424;0.1338;-0.3020;0.0204;
577520508461862;0.1381;-0.3041;0.0129;
577520518565299;0.1157;-0.3031;-0.0414;
577520528670507;0.1360;-0.1433;-0.0361;
577520538773945;0.1541;-0.0495;0.0001;
577520548877382;0.1945;0.0410;-0.0009;
577520558984257;0.2583;0.1294;-0.0222;
577520569087695;0.3542;0.2040;-0.0126;
577520579191132;0.4138;0.2369;-0.0382;
577520589291862;0.4458;0.2177;-0.0009;
577520599395299;0.4735;0.0772;0.0704;
577520609498737;0.4937;-0.1103;0.1333;
577520619599987;0.4011;-0.2317;0.1344;
577520629703476;0.3340;-0.2562;0.1535;
577520639806862;0.3254;-0.0272;0.1439;
577520649929778;0.4213;-0.0282;0.0726;
577520660033216;0.4607;0.0133;0.1301;
577520670136653;0.3691;0.2475;0.1471;
577520680217955;0.5161;0.1113;0.1375;
577520690321393;0.4565;0.1848;0.1865;
577520700424778;0.4394;0.1901;0.2047;
577520710528112;0.4351;0.0421;0.1929;
577520720631549;0.3595;0.0463;0.2812;
577520730734987;0.3276;0.0794;0.2398;
577520740835455;0.3020;0.0218;0.2153;
577520750938841;0.2285;-0.2178;0.2398;
577520761042278;0.1445;-0.0229;0.2770;
577520771145976;0.1679;0.2252;0.2897;
577520781249362;0.3137;0.0570;0.2759;
577520791352799;0.1988;-0.1241;0.3004;
577520801513632;-0.0345;0.1965;0.2590;
577520811617070;0.1509;0.4808;0.1961;
577520821720455;0.4149;-0.1933;0.2696;
577520831771028;0.1498;-0.4052;0.3782;
577520841874466;-0.1889;0.3061;0.3228;
577520851977903;0.1157;0.3871;0.2238;
577520862078216;0.3308;-0.0250;0.2238;
577520872181653;-0.0068;0.0868;0.2441;
577520882285091;0.0603;0.4116;0.3015;
577520892392382;0.3201;0.1081;0.3217;
577520902495820;0.1935;-0.2317;0.3505;
577520912599257;0.0390;0.0794;0.3505;
577520922715091;0.1892;0.1763;0.3569;
577520932818528;0.2359;-0.2146;0.4399;
577520942921966;-0.0334;-0.2061;0.4857;
577520953017278;-0.1879;0.1603;0.3792;
577520963120716;-0.0569;0.2806;0.3569;
577520973224153;-0.1431;-0.0112;0.3366;
577520983322903;-0.4274;0.1188;0.3579;
577520993426341;-0.4849;0.4009;0.3473;
577521003529778;-0.3477;0.2177;0.2473;
577521013646289;-0.4146;-0.0378;0.2079;
577521023749726;-0.6447;0.0783;0.1546;
577521033853112;-0.5467;0.1113;0.1482;
577521043921497;-0.5009;-0.1518;0.1216;
577521054024934;-0.5329;-0.2594;0.1226;
577521064128372;-0.5829;0.0080;0.0513;
577521074261757;-0.4306;0.1688;-0.0297;
577521084365195;-0.2933;-0.0123;0.0023;
577521094468632;-0.2816;0.0751;0.0364;
577521104539570;-0.2081;0.1827;0.0300;
577521114643007;-0.0963;-0.1912;0.0417;
577521124746445;-0.1676;-0.0730;0.0161;
577521134883268;-0.1506;0.2019;0.0726;
577521144986653;-0.0707;0.0943;0.0662;
577521155090091;0.0348;-0.2967;0.0790;
577521165204153;-0.1431;-0.1848;0.0651;
577521175307591;-0.1495;-0.0442;0.0811;
577521185411028;-0.0771;0.0314;0.0651;
577521195479830;-0.0632;0.0325;0.1067;
577521205583216;-0.0675;-0.2818;0.1812;
577521215686653;-0.1570;-0.1124;0.0417;
577521225840195;-0.1346;0.1667;0.0566;
577521235943632;-0.0419;0.0229;0.1290;
577521246047070;0.0550;-0.0197;0.1802;
577521256116341;-0.0398;0.1507;0.1855;
577521266219778;0.0241;0.1401;0.1780;
577521276323216;0.0624;-0.0112;0.1620;
577521286430716;-0.0675;0.0293;0.1834;
577521296534101;-0.0462;-0.0144;0.2632;
577521306637487;0.1093;-0.1166;0.3132;
577521316728632;0.0624;-0.0879;0.2462;
577521326832018;-0.0292;0.1039;0.1802;
577521336935455;-0.1634;-0.2104;0.1535;
577521347045716;-0.2678;-0.2083;0.2004;
577521357149101;-0.2561;-0.0559;0.1940;
577521367252487;-0.0792;0.1944;0.1333;
577521377349674;-0.1399;0.3072;0.0864;
577521387453112;-0.1847;-0.2754;0.0800;
577521397556497;-0.2465;-0.3712;0.0683;
577521407669362;-0.1719;0.0581;0.0438;
577521417772747;-0.0643;-0.0730;0.0236;
577521427876132;-0.1591;-0.0676;0.0055;
577521437979153;-0.2688;0.3604;0.0300;
577521448082539;-0.1421;0.5650;0.0310;
577521458185924;-0.0132;0.3477;0.0033;
577521468279622;0.0401;0.0154;0.0321;
577521478383007;-0.0324;0.2752;-0.0052;
577521488486393;-0.0441;0.5873;-0.0329;
577521498602799;-0.0260;0.3509;-0.0499;
577521508706184;0.1391;-0.3329;-0.0222;
577521518809570;0.0944;-0.3457;-0.0680;
577521528900716;-0.1282;-0.1624;-0.0702;
577521539004101;-0.1826;-0.2285;-0.1043;
577521549107539;-0.3008;-0.0708;-0.0915;
577521559211653;-0.3423;-0.0325;-0.0872;
577521569315039;-0.1730;-0.1358;-0.1341;
577521579418476;-0.2134;-0.0378;-0.1618;
577521589522851;-0.2646;-0.1901;-0.1256;
577521599626237;-0.1069;-0.1529;-0.0595;
577521609729622;-0.0057;0.1443;-0.0095;
577521619835924;0.0252;0.1209;0.0278;
577521629939309;0.0731;0.1337;0.0481;
577521640042695;0.0529;0.1997;0.0449;
577521650171132;0.0049;0.0527;0.0662;
577521660274518;0.0188;0.1678;0.0417;
577521670377955;0.0262;0.2561;0.0353;
577521680473059;0.0571;0.1188;-0.0105;
577521690576445;0.0806;0.1422;-0.0148;
577521700679830;0.0316;0.2369;-0.0084;
577521710757122;0.2031;-0.1305;0.0374;
577521720860455;0.2583;-0.2530;0.0491;
577521730963841;0.0731;0.2710;0.0598;
577521741071289;0.1434;0.1071;0.0854;
577521751174622;0.6152;-0.4755;0.1471;
577521761278007;0.6343;-0.2636;0.1706;
577521771389674;0.2084;-0.1795;0.2398;
577521781493112;0.1700;-0.1007;0.3089;
577521791596445;0.2903;-0.0623;0.3079;
577521801709309;0.2148;-0.1358;0.3164;
577521811812643;0.0039;0.0389;0.3142;
577521821916028;-0.1367;0.0847;0.2972;
577521832010612;-0.2007;-0.0325;0.2664;
577521842114049;-0.3509;0.1081;0.2089;
577521852217434;-0.5531;0.0634;0.2015;
577521862317695;-0.4487;-0.1742;0.1823;
577521872421132;-0.4860;-0.0314;0.1099;
577521882524518;-0.6980;-0.0623;0.0758;
577521892638112;-0.5638;-0.1593;0.0193;
577521902741497;-0.5329;-0.0112;-0.0116;
577521912844882;-0.6160;-0.0421;-0.0063;
577521922939518;-0.4743;0.0101;-0.0446;
577521933042903;-0.3615;0.0985;-0.0595;
577521943146289;-0.2284;-0.0250;-0.0563;
577521953244726;-0.0377;-0.0485;-0.0659;
577521963348059;-0.0419;0.0431;-0.0446;
577521973451445;-0.0409;-0.1358;-0.0744;
577521983563476;0.0539;-0.1209;-0.0521;
577521993666809;-0.1197;0.1028;-0.0574;
577522003770195;-0.1868;0.1624;-0.0212;
577522013861601;0.0071;0.0602;-0.0041;
577522023964934;0.1274;0.1891;-0.0244;
577522034068372;0.1083;0.2742;0.0055;
577522044197799;0.2668;0.0506;0.0694;
577522054301184;0.4884;-0.0123;0.0907;
577522064404570;0.4096;-0.0282;0.1450;
577522074475403;0.2244;0.0059;0.1791;
577522084578841;0.1860;-0.0687;0.2260;
577522094682174;0.1306;-0.0346;0.2579;
577522104805924;-0.0356;0.1060;0.2876;
577522114909309;-0.0963;0.1113;0.3079;
577522125012695;-0.0824;0.0495;0.3153;
577522135084674;-0.1900;0.2624;0.2696;
577522145188059;-0.2816;0.0581;0.2972;
577522155291445;-0.1410;-0.0730;0.3494;
577522165424049;-0.1517;0.0378;0.3409;
577522175527487;-0.3487;-0.1390;0.3814;
577522185630872;-0.4732;-0.1656;0.3750;
577522195752695;-0.5957;0.0133;0.3515;
577522205856080;-0.6586;0.0911;0.3185;
577522215959466;-0.5957;-0.1869;0.2739;
577522226037070;-0.6202;-0.7173;0.2355;
577522236140507;-1.1218;0.0165;0.2079;
577522246243893;-1.6170;0.7546;0.1375;
577522256348112;-1.4403;0.3381;0.1109;
577522266451497;-0.6692;-0.0879;0.0768;
577522276554882;-0.1048;-0.0378;-0.0340;
577522286663632;-0.4594;0.0943;-0.0542;
577522296767018;-0.6554;0.1305;-0.0009;
577522306870403;-0.5563;0.1933;0.0214;
577522316972799;-0.4977;0.0879;-0.0126;
577522327076184;-0.4146;0.1326;-0.0893;
577522337179570;-0.5563;0.0421;-0.1565;
577522347278007;-0.4604;-0.0421;-0.1767;
577522357381393;-0.4338;0.2614;-0.1394;
577522367484778;-0.7108;0.4766;-0.1522;
577522377590612;-0.7555;1.1624;-0.2790;
577522387693997;-0.5787;-0.2945;-0.2758;
577522397797382;0.9250;-1.6608;-0.2545;
577522407900299;1.1391;0.2316;-0.2853;
577522418003684;-0.6000;0.4925;-0.0340;
577522428107018;-0.9643;-0.4744;0.0417;
577522438208528;0.3531;-0.0218;-0.0904;
577522448311914;0.2743;0.3668;-0.2129;
577522458415299;-0.4626;0.0730;-0.1511;
577522468522903;-0.2007;-0.0517;-0.1362;
577522478626237;0.1402;0.1731;-0.1586;
577522488729622;-0.1911;0.7556;-0.2012;
577522498838684;-0.4818;-0.0304;-0.1501;
577522508942070;0.0997;-0.4531;-0.1565;
577522519045455;0.1881;0.3743;-0.1618;
577522529137330;-0.5031;0.0368;-0.1192;
577522539240664;-0.3125;-0.3212;-0.0947;
577522549344049;-0.0324;0.1774;-0.1309;
577522559453841;-0.3466;-0.0123;-0.1202;
577522569557226;-0.3072;-0.1720;-0.1298;
577522579660612;-0.2134;0.0698;-0.1213;
577522589772278;-0.3381;0.0154;-0.1043;
577522599875664;-0.3029;-0.0762;-0.0819;
577522609979049;-0.2486;0.1252;-0.1905;
577522620076445;-0.2710;0.1262;-0.1810;
577522630179830;-0.2997;0.0485;-0.0957;
577522640283216;-0.2475;0.0218;-0.1053;
577522650403424;-0.2337;-0.0847;-0.1224;
577522660506809;-0.2145;0.0208;-0.1373;
577522670610195;-0.2379;0.1390;-0.0957;
577522680700612;-0.3168;-0.1177;-0.1224;
577522690803997;-0.1943;-0.1113;-0.1085;
577522700907382;-0.1304;-0.0218;-0.1213;
577522711002799;-0.1272;-0.0740;-0.0872;
577522721106184;-0.0973;0.1603;-0.0872;
577522731209518;-0.0867;0.2912;-0.0723;
577522741315299;-0.1442;0.0410;-0.0446;
577522751418684;0.0039;0.0123;-0.0574;
577522761522070;0.0784;0.0570;-0.0286;
577522771636445;-0.0068;0.1007;-0.0105;
577522781739830;-0.0270;0.1411;-0.0212;
577522791843216;-0.0111;-0.0772;-0.0095;
577522801935403;0.0518;0.0879;-0.0276;
577522812038737;-0.0015;0.1784;-0.0361;
577522822142122;-0.0377;-0.0112;0.0449;
577522832245299;-0.0206;0.1134;0.0353;
577522842348684;-0.0547;0.1955;0.0108;
577522852452070;-0.0931;-0.0549;-0.0286;
577522862547226;0.0379;-0.1465;0.0268;
577522872650559;-0.0057;0.0506;0.0321;
577522882753945;-0.0792;-0.1795;0.0949;
577522892859934;-0.0079;-0.1049;0.0672;
577522902963268;-0.0451;0.1177;0.0342;
577522913066653;-0.1453;0.0453;0.0364;
577522923184570;-0.1091;0.0517;0.0715;
577522933287955;-0.1676;0.0453;0.0577;
577522943391341;-0.1932;0.0719;0.0161;
577522953484362;-0.1932;0.0485;0.0161;
577522963587747;-0.2039;-0.0996;0.0140;
577522973691080;-0.1911;0.0708;-0.0020;
577522983791080;-0.2699;0.0506;-0.0063;
577522993894466;-0.2305;-0.1784;0.0417;
577523003997799;-0.1751;0.0005;0.0012;
577523014103737;-0.2593;0.0346;-0.0201;
577523024207122;-0.2145;-0.2093;-0.0180;
577523034310455;-0.1421;-0.0581;-0.0095;
577523044411966;-0.2209;-0.0378;0.0204;
577523054515351;-0.2071;-0.2402;0.0353;
577523064618684;-0.1304;-0.0591;-0.0180;
577523074710143;-0.1591;0.1433;-0.0414;
577523084813476;-0.1815;0.0730;-0.0116;
577523094916862;-0.1804;0.0346;0.0129;
577523105030299;-0.1911;0.0176;0.0342;
577523115133632;-0.1794;-0.0080;0.0257;
577523125236966;-0.1858;0.0186;0.0129;
577523135354049;-0.1730;0.0495;0.0161;
577523145457382;-0.1953;0.0730;0.0449;
577523155560768;-0.2081;-0.0144;0.0502;
577523165672174;-0.1911;-0.0005;0.0449;
577523175775559;-0.2017;0.0005;0.0502;
577523185878893;-0.1889;-0.1188;0.0758;
577523195968007;-0.1666;-0.0176;0.0672;
577523206071393;-0.1485;0.1081;0.0395;
577523216174778;-0.1953;-0.1252;0.0704;
577523226270716;-0.1921;-0.0953;0.0758;
577523236374101;-0.1453;0.0538;0.1194;
577523246477487;-0.1921;0.0368;0.1429;
577523256588737;-0.2177;0.0101;0.1503;
577523266692122;-0.2252;-0.0144;0.1269;
577523276795507;-0.2092;0.0719;0.1237;
577523286891653;-0.2848;-0.0293;0.1567;
577523296995039;-0.2710;-0.1529;0.1855;
577523307098424;-0.2145;0.0549;0.1248;
577523317216862;-0.2816;0.1443;0.1237;
577523327320247;-0.3285;0.0783;0.1194;
577523337423632;-0.3338;0.1209;0.1226;
577523347515195;-0.3668;0.0602;0.1013;
577523357618580;-0.3806;0.0431;0.0694;
577523367721966;-0.3668;0.0772;0.0758;
577523377827851;-0.3679;-0.0687;0.0939;
577523387931237;-0.3338;-0.0048;0.0736;
577523398034622;-0.3221;0.0559;0.0768;
577523408142382;-0.3466;-0.0485;0.0630;
577523418245768;-0.3264;0.0154;0.0640;
577523428349153;-0.3093;0.0538;0.0609;
577523438448007;-0.3328;0.0485;0.0577;
577523448551393;-0.3551;0.0623;0.0417;
577523458654778;-0.3700;-0.0783;0.0470;
577523468748580;-0.3306;-0.0240;0.0364;
577523478851914;-0.2869;0.0847;0.0204;
577523488955247;-0.3061;0.0272;0.0172;
577523499069101;-0.3955;-0.0154;0.0438;
577523509172487;-0.4391;-0.0357;0.0683;
577523519275872;-0.4061;-0.0368;0.0332;
577523529381445;-0.3594;-0.0208;-0.0084;
577523539484830;-0.3189;0.0336;-0.0020;
577523549588216;-0.3668;0.0016;0.0044;
577523559691757;-0.4253;-0.0421;0.0300;
577523569795143;-0.3933;0.0144;0.0108;
577523579898528;-0.3455;0.0453;-0.0052;
577523589998268;-0.3806;0.0208;0.0161;
577523600101653;-0.3955;0.0389;0.0033;
577523610205039;-0.3487;0.0847;-0.0020;
577523620313528;-0.3530;0.0623;-0.0020;
577523630416914;-0.3923;0.0676;0.0353;
577523640520299;-0.3923;0.0336;0.0289;
577523650632382;-0.3328;0.0059;0.0161;
577523660735768;-0.3104;0.1039;0.0161;
577523670839153;-0.3402;0.1028;0.0395;
577523680938424;-0.3551;0.0389;0.0481;
577523691041809;-0.3487;0.0826;0.0459;
577523701145143;-0.3816;0.0719;0.0278;
577523711237070;-0.3732;0.0133;0.0342;
577523721340455;-0.3679;0.0027;0.0534;
577523731443841;-0.3359;0.0325;0.0332;
577523741548424;-0.3636;0.0304;0.0193;
577523751651809;-0.3743;0.0208;0.0150;
577523761755195;-0.3722;-0.0293;0.0225;
577523771860716;-0.3562;-0.0570;-0.0020;
577523781964101;-0.3583;0.0218;-0.0073;
577523792067487;-0.3498;0.0474;0.0087;
577523802144778;-0.3562;0.0740;0.0129;
577523812248112;-0.3700;0.0559;0.0236;
577523822351497;-0.3891;0.0506;0.0108;
577523832480716;-0.4114;0.0762;-0.0222;
577523842584101;-0.4285;0.0985;-0.0254;
577523852687487;-0.4573;0.0953;0.0001;
577523862782539;-0.5041;0.1262;-0.0563;
577523872885872;-0.5126;0.0804;-0.0851;
577523882989257;-0.5009;0.0836;-0.1202;
577523893091601;-0.5297;0.1156;-0.1160;
577523903194934;-0.5254;0.1710;-0.1149;
577523913298320;-0.5169;0.0804;-0.1330;
577523923415299;-0.5329;-0.0399;-0.1533;
577523933518684;-0.4679;-0.0176;-0.1682;
577523943622070;-0.4210;0.0368;-0.2044;
577523953785976;-0.4146;0.0346;-0.1533;
577523963889309;-0.4146;0.0154;-0.1618;
577523973992643;-0.3933;0.0261;-0.1501;
577523984013997;-0.4083;0.1124;-0.1756;
577523994117382;-0.3944;0.1017;-0.1714;
577524004220716;-0.3923;0.1433;-0.2044;
577524014393841;-0.4093;0.1795;-0.2172;
577524024497226;-0.4232;0.1305;-0.1884;
577524034600559;-0.4019;0.0325;-0.1831;
577524044652330;-0.3965;-0.0048;-0.2023;
577524054755716;-0.3722;0.2688;-0.2225;
577524064859101;-0.4509;0.2688;-0.2001;
577524074965924;-0.4114;-0.1518;-0.1916;
577524085069309;-0.2593;-0.0357;-0.2268;
577524095172695;-0.3604;0.0708;-0.2459;
577524105285091;-0.3551;-0.0570;-0.1873;
577524115388476;-0.2848;-0.0431;-0.2257;
577524125491809;-0.2678;0.0517;-0.2438;
577524135595403;-0.2688;0.0666;-0.2459;
577524145698789;-0.2252;-0.0250;-0.2310;
577524155802122;-0.1410;-0.0613;-0.2023;
577524165910612;-0.2060;0.0399;-0.2129;
577524176013997;-0.2401;0.0293;-0.2012;
577524186117382;-0.1953;-0.0953;-0.1895;
577524196219674;-0.1804;0.0453;-0.1916;
577524206323059;-0.3061;0.0336;-0.1628;
577524216426445;-0.2912;-0.1252;-0.1799;
577524226516445;-0.2816;0.0218;-0.2321;
577524236619830;-0.3338;0.1124;-0.2513;
577524246723216;-0.2848;0.0921;-0.2523;
577524256818997;-0.3083;0.0666;-0.2662;
577524266922330;-0.3168;-0.0559;-0.2917;
577524277025716;-0.2955;-0.0538;-0.2843;
577524287127122;-0.2752;0.0069;-0.2939;
577524297230455;-0.2550;-0.0740;-0.2768;
577524307333841;-0.2369;-0.0964;-0.2683;
577524317447695;-0.2369;-0.0730;-0.2651;
577524327551080;-0.2166;-0.0804;-0.2704;
577524337654466;-0.1772;-0.0815;-0.2683;
577524347754674;-0.1698;0.0176;-0.2928;
577524357858059;-0.1858;-0.0091;-0.2907;
577524367961445;-0.1304;-0.0485;-0.3077;
577524378064778;-0.0728;-0.0687;-0.2949;
577524388168216;-0.0803;-0.1103;-0.2928;
577524398271549;-0.0366;-0.0868;-0.2715;
577524408376601;-0.0356;-0.1156;-0.2790;
577524418479987;0.0188;-0.2477;-0.2214;
577524428583372;0.0561;-0.0453;-0.2470;
577524438681549;0.0742;0.2114;-0.2459;
577524448784987;0.0635;0.1316;-0.1724;
577524458888320;0.1423;0.0165;-0.1437;
577524469015403;0.1605;0.0751;-0.1820;
577524479118789;0.0497;0.1071;-0.1415;
577524489222174;-0.0206;0.1401;-0.1202;
577524499310820;-0.0281;0.1326;-0.1639;
577524509414205;-0.0228;0.0730;-0.1735;
577524519517591;-0.0877;0.0783;-0.1469;
577524529607434;-0.0835;0.0048;-0.1309;
577524539710768;-0.0909;-0.0218;-0.1682;
577524549814153;-0.0313;0.1028;-0.1426;
577524559943320;-0.0782;0.0719;-0.0893;
577524570046705;-0.0356;-0.1742;-0.0457;
577524580150091;0.0113;-0.0644;-0.0489;
577524590231289;-0.0920;0.1134;-0.0563;
577524600334674;-0.0920;0.0165;-0.0212;
577524610438007;-0.0782;-0.0474;-0.0158;
577524620540976;-0.1229;0.0208;-0.0425;
577524630644309;-0.1708;0.0879;-0.0585;
577524640747695;-0.1889;0.0442;-0.0574;
577524650876966;-0.1346;-0.0293;-0.0318;
577524660980351;-0.1676;-0.0037;-0.0393;
577524671083737;-0.1879;0.0304;-0.0403;
577524681160924;-0.1261;-0.0900;0.0097;
577524691264309;-0.1240;-0.0346;-0.0041;
577524701367695;-0.1538;-0.1039;-0.0031;
577524711479257;-0.1218;-0.1529;0.0129;
577524721582695;-0.1410;0.0964;0.0055;
577524731686028;-0.1570;0.1369;0.0214;
577524741792070;-0.1804;0.0900;0.0044;
577524751895507;-0.2039;0.2220;-0.0467;
577524761998893;-0.1474;0.4180;-0.0638;
577524772098737;-0.0611;0.5639;-0.0265;
577524782202174;-0.0909;0.4254;0.0534;
577524792305507;-0.1005;0.3210;0.0395;
577524802390664;-0.1091;0.2944;0.0236;
577524812493997;-0.1772;0.1720;0.0406;
577524822597382;-0.1644;0.1145;0.0129;
577524832718216;-0.1474;0.1252;0.0108;
577524842821601;-0.1655;0.0229;0.0342;
577524852924987;-0.1357;-0.0421;0.0087;
577524863029466;-0.1293;-0.1103;0.0001;
577524873132903;-0.1346;-0.1454;-0.0041;
577524883236237;-0.0739;-0.3350;0.0076;
577524893352695;0.0145;-0.5916;0.0832;
577524903456132;0.0103;-0.4766;0.0981;
577524913559466;-0.1186;-0.4350;0.1194;
577524923647695;-0.1495;-0.5181;0.1834;
577524933751080;-0.1623;-0.3265;0.1322;
577524943854518;-0.2060;-0.1230;0.0513;
577524953951601;-0.2763;-0.1795;0.0555;
577524964054987;-0.2539;-0.1614;0.0800;
577524974158320;-0.2475;-0.0762;0.0545;
577524984279309;-0.3232;-0.0399;0.0140;
577524994382695;-0.3402;0.0410;0.0161;
577525004486080;-0.3541;-0.0698;-0.0041;
577525014559570;-0.3562;-0.1124;0.0055;
577525024662955;-0.4306;0.0527;-0.0020;
577525034766341;-0.5276;0.1305;-0.0372;
577525044894362;-0.5265;0.0463;-0.0691;
577525054997747;-0.4541;-0.0943;-0.1160;
577525065101132;-0.3615;0.0048;-0.1245;
577525075198216;-0.3114;0.2241;-0.1373;
577525085301601;-0.2731;0.2997;-0.1565;
577525095404987;-0.2667;0.0591;-0.0989;
577525105501393;-0.2294;-0.0794;-0.0968;
577525115604778;-0.1581;0.0985;-0.1224;
577525125708112;-0.1826;0.0911;-0.0478;
577525135813216;-0.2145;0.1262;-0.0095;
577525145916601;-0.2156;0.1742;0.0140;
577525156019987;-0.2539;0.1134;0.0204;
577525166119882;-0.2603;0.2134;-0.0063;
577525176223268;-0.3232;0.2593;-0.0180;
577525186326653;-0.3264;0.0325;-0.0158;
577525196435559;-0.2806;-0.0463;-0.0712;
577525206538893;-0.2965;0.0250;-0.0340;
577525216642278;-0.3530;0.0378;-0.0116;
577525226749101;-0.3328;-0.0506;-0.0201;
577525236852487;-0.3093;-0.0410;-0.0329;
577525246955872;-0.3232;0.0410;-0.0627;
577525257068112;-0.3232;0.0176;-0.0276;
577525267171497;-0.3125;-0.0346;-0.0265;
577525277274882;-0.3242;-0.0154;-0.0702;
577525287380716;-0.3328;0.1838;-0.1277;
577525297484257;-0.3264;0.2582;-0.1043;
577525307587799;-0.2784;0.1390;-0.1170;
577525317698216;-0.2795;0.1614;-0.1724;
577525327801757;-0.2933;0.1230;-0.1948;
577525337905299;-0.2752;-0.0229;-0.2023;
577525348004466;-0.2806;0.1177;-0.2246;
577525358108007;-0.3051;0.0165;-0.2140;
577525368211549;-0.2411;-0.0069;-0.2161;
577525378321653;-0.2518;0.1241;-0.2118;
577525388425195;-0.2848;0.0059;-0.2150;
577525398528737;-0.2411;0.2188;-0.2651;
577525408617487;-0.2411;0.1294;-0.2939;
577525418721028;-0.1581;0.0261;-0.2864;
577525428824570;-0.1953;0.1507;-0.2875;
577525438920195;-0.2497;0.0708;-0.2875;
577525449023737;-0.1900;0.0399;-0.3141;
577525459127278;-0.2188;0.0943;-0.3184;
577525469254674;-0.2358;0.0133;-0.3312;
577525479358216;-0.1794;-0.2509;-0.3216;
577525489461757;-0.1719;-0.5991;-0.3333;
577525499544362;-0.1783;-0.5927;-0.4216;
577525509647903;-0.1889;-0.2274;-0.4375;
577525519751445;-0.1549;-0.1571;-0.3640;
577525529860091;-0.0462;-0.1454;-0.3949;
577525539963632;-0.0302;-0.0613;-0.3715;
577525550067174;-0.0601;0.1007;-0.3811;
577525560141809;0.0944;0.3466;-0.3683;
577525570245351;0.1732;0.3285;-0.3120;
577525580348893;-0.0228;0.1731;-0.3491;
577525590477591;-0.0377;-0.0218;-0.2385;
577525600581132;0.0390;0.6129;-0.3651;
577525610684674;0.3361;1.7706;-0.5047;
577525620788007;0.1881;1.5618;-0.3630;
577525630891549;0.0071;0.3764;-0.2843;
577525640995091;0.4799;0.4542;-0.3374;
577525651086705;0.3063;0.7961;-0.4216;
577525661190195;-0.0611;-0.0112;-0.2960;
577525671293789;0.1658;-0.6662;-0.2917;
577525681426132;0.3968;-0.5341;-0.2310;
577525691529674;0.1881;-0.3967;-0.2640;
577525701633216;0.3126;-0.2466;-0.2310;
577525711735612;0.4075;-0.6268;-0.1352;
577525721839153;0.5513;-1.2711;0.0001;
577525731942695;0.5246;-0.6864;0.0140;
577525742038268;0.2445;-0.3691;0.0758;
577525752141809;0.1008;-0.3819;0.1130;
577525762245351;0.1434;-0.1678;0.0491;
577525772342070;0.0923;0.0613;0.0332;
577525782445612;0.0901;0.3391;-0.0063;
577525792549153;0.1636;0.3967;-0.0403;
577525802650507;0.1764;0.2273;-0.0563;
577525812754049;0.1115;0.3466;-0.1000;
577525822857591;-0.0963;0.2465;-0.1341;
577525832954778;-0.1708;-0.0687;-0.1149;
577525843058320;-0.1772;0.1848;-0.1543;
577525853161862;-0.2646;0.0495;-0.1628;
577525863271549;-0.2401;-0.2029;-0.1756;
577525873375091;-0.2060;0.1465;-0.2193;
577525883478632;-0.2901;0.1869;-0.2055;
577525893570507;-0.1218;-0.0964;-0.1628;
577525903674049;-0.0164;0.0112;-0.2033;
577525913777591;-0.0473;0.0314;-0.1714;
577525923899049;0.0220;0.0123;-0.1160;
577525934002591;0.0742;0.0431;-0.1341;
577525944106184;0.0933;0.2019;-0.1447;
577525954210507;0.0763;0.0272;-0.1202;
577525964314049;0.1881;-0.0943;-0.0862;
577525974417591;0.0624;0.1198;-0.1000;
577525984507747;-0.0334;-0.1230;-0.0712;
577525994611289;-0.0068;-0.2722;-0.0606;
577526004714830;-0.0366;-0.2679;-0.0606;
577526014840820;-0.0824;-0.1582;-0.0712;
577526024944362;-0.0622;-0.0847;-0.0968;
577526035047903;-0.0185;-0.2349;-0.1085;
577526045121341;-0.0047;-0.1156;-0.1064;
577526055224882;-0.0068;0.1071;-0.1021;
577526065328372;-0.0004;-0.0037;-0.0904;
577526075433580;0.0763;-0.0431;-0.1021;
577526085537070;0.0603;0.1688;-0.1138;
577526095640612;0.0241;0.1933;-0.0531;
577526105760820;0.0486;0.1763;-0.0702;
577526115864362;0.1104;0.1965;-0.0478;
577526125967903;0.0369;0.2040;-0.0393;
577526136052851;0.0294;0.1507;-0.0851;
577526146156341;0.0774;0.1838;-0.0904;
577526156259882;0.0656;0.0804;-0.0478;
577526166384362;0.0901;0.0794;-0.0617;
577526176487903;0.0561;0.1880;-0.0787;
577526186591445;0.0507;-0.0442;-0.0638;
577526196678632;0.0699;-0.0634;-0.0382;
577526206782174;0.0379;-0.0431;-0.0318;
577526216885716;0.0103;-0.2019;-0.0105;
577526226998216;0.0688;-0.1838;-0.0020;
577526237101757;0.0390;0.0165;-0.0201;
577526247205299;0.0763;0.1411;-0.0116;
577526257302591;0.0944;0.1827;-0.0244;
577526267406132;0.1104;0.0634;0.0097;
577526277509674;0.0774;0.0698;0.0033;
577526287620716;0.0571;0.1880;-0.0116;
577526297724205;0.0465;0.2273;-0.0084;
577526307827643;0.0188;0.1443;-0.0308;
577526317925820;0.0049;-0.1358;-0.0233;
577526328029309;0.0252;0.1124;-0.0563;
577526338132747;-0.0079;0.1806;-0.0787;
577526348224257;0.0486;-0.1539;-0.1107;
577526358327747;0.1104;-0.2636;-0.0989;
577526368431184;0.0145;-0.1081;-0.1032;
577526378554570;0.0390;0.0186;-0.1043;
577526388658059;0.0337;-0.1827;-0.1064;
577526398761497;0.0337;-0.1720;-0.0648;
577526408858320;-0.0324;-0.0570;-0.0840;
577526418961809;0.0113;-0.1017;-0.0478;
577526429065247;-0.0068;0.1443;-0.0957;
577526439158320;-0.0569;-0.0101;-0.1458;
577526449261757;-0.0111;-0.2349;-0.0979;
577526459365247;0.0305;0.1518;-0.1458;
577526469512591;0.0049;0.3125;-0.1383;
577526479616028;-0.0462;-0.0336;-0.1117;
577526489719518;0.0071;-0.1624;-0.1213;
577526499789987;-0.0185;-0.0719;-0.1618;
577526509893476;-0.0398;-0.1571;-0.1202;
577526519996914;-0.0036;-0.2296;-0.1160;
577526530093112;0.0230;-0.1401;-0.0957;
577526540196601;0.0028;-0.1422;-0.0968;
577526550300039;-0.0142;-0.0431;-0.1330;
577526560395716;0.0049;0.1571;-0.1597;
577526570499153;0.0049;-0.1944;-0.0915;
577526580602643;0.0241;-0.1848;-0.0883;
577526590708945;0.0049;0.1518;-0.1383;
577526600812434;-0.0174;0.1039;-0.1245;
577526610915872;-0.0089;0.0080;-0.1383;
577526621022591;-0.0377;-0.0016;-0.1660;
577526631126080;-0.0047;0.0218;-0.1192;
577526641229518;-0.0164;-0.0250;-0.1011;
577526651350299;0.0337;-0.1326;-0.1341;
577526661453789;0.0433;0.0378;-0.1426;
577526671557226;0.0379;0.0389;-0.1245;
577526681666028;0.1072;-0.1230;-0.1064;
577526691769466;0.0593;0.0815;-0.1597;
577526701872955;0.0646;0.1667;-0.1724;
577526711965507;0.0859;-0.0964;-0.1032;
577526722068997;0.0859;-0.1103;-0.1181;
577526732172434;0.0710;0.0346;-0.1149;
577526742268528;0.1104;0.1987;-0.1170;
577526752371966;0.0838;0.1838;-0.1309;
577526762475455;0.1264;-0.0112;-0.1394;
577526772584987;0.1232;0.0176;-0.1426;
577526782688476;0.1391;0.1241;-0.1724;
577526792791914;0.1509;0.1156;-0.1714;
577526802888841;0.1487;-0.1166;-0.1405;
577526812992330;0.1828;0.0048;-0.1320;
577526823095768;0.1605;0.1305;-0.1490;
577526833184101;0.2095;-0.1103;-0.1362;
577526843287539;0.3499;-0.1316;-0.1373;
577526853390976;0.2711;0.1997;-0.1320;
577526863495091;0.2413;0.7695;-0.1149;
577526873598580;0.2913;0.7311;-0.1362;
577526883702018;0.2711;0.2795;-0.1181;
577526893813007;0.2169;0.1369;-0.1117;
577526903916497;0.0997;-0.1198;-0.1245;
577526914019934;0.0838;-0.1699;-0.1618;
577526924122955;0.1391;-0.1571;-0.1724;
577526934226341;0.1466;-0.3286;-0.1415;
577526944329830;0.1423;-0.3126;-0.1288;
577526954426966;0.2052;-0.0389;-0.1341;
577526964530455;0.1956;-0.6438;-0.0372;
577526974633893;0.2977;-0.7951;0.0236;
577526984739830;0.1818;0.1017;-0.0659;
577526994843320;0.0742;0.4414;-0.0936;
577527004946757;0.2222;-0.0378;-0.0340;
577527015054778;0.3190;-0.0453;-0.0947;
577527025158268;0.1786;0.4371;-0.1405;
577527035261705;0.0912;0.4308;-0.1447;
577527045381237;0.1881;-0.0527;-0.0808;
577527055484726;0.1977;-0.0953;-0.0680;
577527065588164;0.2052;0.0421;-0.0904;
577527075671237;0.1541;-0.2242;-0.0766;
577527085774674;0.1690;-0.3553;-0.0073;
577527095878112;0.2222;-0.1209;-0.0244;
577527106007591;0.2063;-0.1348;0.0033;
577527116111080;0.1924;-0.1454;0.0374;
577527126214518;0.2084;0.1017;0.0523;
577527136295247;0.2265;0.0932;0.0651;
577527146398737;0.2413;0.1795;0.0704;
577527156502174;0.2679;0.3903;0.0683;
577527166635091;0.2935;0.2379;0.0779;
577527176738580;0.3403;0.2390;0.0875;
577527186842018;0.2498;0.2859;0.0907;
577527196917382;0.1839;0.1401;0.1365;
577527207020872;0.1881;0.0549;0.1535;
577527217124309;0.1658;-0.0027;0.1599;
577527227238737;0.1626;-0.0378;0.1770;
577527237342226;0.2126;0.0538;0.1951;
577527247445664;0.1711;0.0123;0.1929;
577527257545403;0.1700;-0.0517;0.2068;
577527267648893;0.1636;0.0730;0.2089;
577527277752330;0.1573;0.0762;0.1972;
577527287856549;0.1391;0.0101;0.2047;
577527297959987;0.1349;0.1060;0.2132;
577527308063372;0.1221;0.1475;0.2121;
577527318168632;0.1370;0.1007;0.2047;
577527328272070;0.1391;0.1103;0.2196;
577527338375455;0.1051;0.0570;0.2153;
577527348462799;0.0774;0.0048;0.2068;
577527358566237;0.0539;0.0133;0.2089;
577527368669622;0.0465;0.0048;0.1738;
577527378794882;0.0422;0.0133;0.1812;
577527388898320;0.0028;0.0858;0.1951;
577527399001705;-0.0121;0.0506;0.1887;
577527409098216;0.0188;0.0325;0.1802;
577527419201653;0.0316;0.1177;0.1876;
577527429305039;0.0060;0.0996;0.1855;
577527439399049;0.0358;0.0868;0.1514;
577527449502487;0.0646;0.0879;0.1535;
577527459605872;0.0486;0.0858;0.1152;
577527469726132;0.0784;0.0815;0.1120;
577527479829570;0.0539;0.0698;0.1205;
577527489932955;0.0635;0.0474;0.1226;
577527500028424;0.0529;-0.0453;0.1482;
577527510131862;0.0720;-0.0208;0.1503;
577527520235299;0.1008;0.0208;0.1780;
577527530343007;0.0635;0.0197;0.1599;
577527540446445;0.0720;0.0059;0.1354;
577527550549830;0.0539;-0.0304;0.1429;
577527560654987;0.0507;0.0346;0.1205;
577527570758372;0.0454;-0.0123;0.1077;
577527580861809;0.0177;-0.1049;0.1205;
577527590949049;0.0124;-0.0826;0.1269;
577527601052487;0.0230;-0.1028;0.1067;
577527611155872;0.0369;-0.0985;0.1130;
577527621262487;0.0230;-0.0581;0.1237;
577527631365924;0.0049;-0.0772;0.1099;
577527641469309;-0.0025;-0.0527;0.1109;
577527651595091;-0.0089;-0.0069;0.0854;
577527661698528;0.0007;0.0229;0.0555;
577527671801914;-0.0057;0.0772;0.0779;
577527681864934;-0.0387;0.0911;0.0811;
577527691968372;-0.0366;-0.0080;0.0843;
577527702071757;-0.0196;-0.0698;0.0971;
577527712202695;0.0134;0.0037;0.1003;
577527722306132;0.0465;0.0378;0.0768;
577527732409518;0.0209;0.0165;0.0843;
577527742502591;0.0326;0.0250;0.1035;
577527752606028;0.0348;0.0463;0.0843;
577527762709414;0.0103;0.0655;0.0545;
577527772812903;-0.0036;0.0570;0.0864;
577527782916341;0.0017;0.0250;0.1429;
577527793019726;0.0007;0.0687;0.1397;
577527803110872;0.0273;0.0911;0.1386;
577527813214205;0.0220;0.0826;0.1141;
577527823317643;-0.0015;0.0570;0.1205;
577527833433528;0.0007;-0.0272;0.1216;
577527843536914;-0.0004;0.0410;0.1237;
577527853640403;-0.0153;0.0570;0.1045;
577527863758945;-0.0334;-0.0879;0.1493;
577527873862330;-0.0675;-0.0889;0.1493;
577527883965768;-0.0803;-0.1305;0.1375;
577527894048789;-0.0846;-0.1539;0.0864;
577527904152174;-0.0931;-0.0847;0.0981;
577527914255559;-0.1229;-0.0570;0.0939;
577527924401653;-0.1559;-0.0719;0.0736;
577527934505039;-0.1826;-0.1166;0.0523;
577527944608476;-0.1698;-0.0591;0.0364;
577527954694987;-0.1378;-0.0048;0.0076;
577527964798424;-0.1719;0.0336;0.0012;
577527974901809;-0.2507;0.0197;-0.0308;
577527984972434;-0.2475;-0.0506;-0.0489;
577527995075820;-0.2081;-0.0176;-0.0659;
577528005179205;-0.1069;0.0975;-0.0510;
577528015297591;-0.0846;0.1507;-0.0627;
577528025401028;-0.1644;0.1060;-0.1181;
577528035504414;-0.1996;0.1220;-0.1256;
577528045621653;-0.2060;0.0708;-0.1607;
577528055725091;-0.1410;-0.0304;-0.1671;
577528065828476;-0.1261;0.0059;-0.1852;
577528075916862;-0.1261;-0.0314;-0.1724;
577528086020299;-0.0824;-0.1305;-0.2257;
577528096123684;-0.0057;-0.1007;-0.2076;
577528106211914;0.0230;-0.0506;-0.2161;
577528116315299;0.0358;-0.1624;-0.2065;
577528126418684;0.0763;-0.2391;-0.1873;
577528136536757;0.1125;-0.0453;-0.1927;
577528146640195;0.1168;0.1081;-0.2204;
577528156743580;0.0614;0.0826;-0.1948;
577528166859934;0.0262;0.0314;-0.1842;
577528176963372;-0.0132;0.0719;-0.1959;
577528187066757;-0.0324;0.1294;-0.2150;
577528197145507;0.0262;0.1166;-0.2374;
577528207248893;0.0252;0.0858;-0.2438;
577528217352278;0.0348;0.1049;-0.2672;
577528227459153;0.0731;0.1742;-0.2779;
577528237562539;0.0742;0.1624;-0.2598;
577528247665924;0.0784;0.1273;-0.2715;
577528257773112;0.0752;0.0613;-0.2683;
577528267876549;0.0326;-0.0485;-0.2587;
577528277979934;0.0422;-0.1145;-0.2683;
577528288091966;0.0965;-0.0293;-0.2704;
577528298195351;0.1061;0.0868;-0.2758;
577528308298789;0.1168;0.0229;-0.2981;
577528318397591;0.1850;-0.0964;-0.3258;
577528328500976;0.2541;-0.1209;-0.2832;
577528338604414;0.2519;-0.2114;-0.2779;
577528348701341;0.2849;-0.2093;-0.2566;
577528358804726;0.2679;-0.0996;-0.2662;
577528368908164;0.2594;-0.1134;-0.2438;
577528379028737;0.2541;-0.0932;-0.2406;
577528389132122;0.2658;0.0836;-0.2278;
577528399235507;0.2573;0.2198;-0.2108;
577528409327799;0.2551;0.2145;-0.2278;
577528419431184;0.3126;0.1337;-0.2502;
577528429534622;0.3680;0.0783;-0.2353;
577528439635091;0.2956;0.0975;-0.2342;
577528449738476;0.1945;0.0495;-0.2193;
577528459841862;0.1775;-0.0772;-0.2108;
577528469959362;0.2222;-0.0517;-0.2236;
577528480062747;0.2276;-0.0186;-0.2172;
577528490166184;0.2116;-0.1561;-0.1852;
577528500254049;0.2391;-0.3095;-0.1320;
577528510357434;0.2679;-0.2935;-0.1320;
577528520460872;0.2551;-0.0655;-0.1256;
577528530563528;0.1924;0.0698;-0.1298;
577528540666914;0.2254;0.0282;-0.1170;
577528550770351;0.2967;0.0506;-0.1160;
577528560891757;0.3531;0.1049;-0.1234;
577528570995143;0.3276;0.0591;-0.1341;
577528581098528;0.2945;0.0378;-0.1202;
577528591190507;0.2945;0.0101;-0.1021;
577528601293893;0.2871;-0.0527;-0.1021;
577528611397330;0.2764;-0.0357;-0.0968;
577528621490820;0.2722;-0.0623;-0.0798;
577528631594153;0.2903;-0.1220;-0.0457;
577528641697591;0.2668;-0.1071;-0.0286;
577528651791914;0.2413;-0.1156;-0.0116;
577528661895247;0.2359;-0.1049;-0.0105;
577528671998684;0.2402;0.0154;-0.0105;
577528682100351;0.2530;0.1103;-0.0073;
577528692203684;0.2849;0.0943;-0.0095;
577528702307122;0.3233;0.1124;-0.0148;
577528712439570;0.3830;0.1071;0.0044;
577528722542955;0.3893;0.0879;0.0108;
577528732646393;0.3606;0.0772;0.0374;
577528742738528;0.3233;-0.0229;0.0811;
577528752841966;0.3158;0.0005;0.0875;
577528762945351;0.2818;0.0719;0.1077;
577528773049362;0.2679;0.0218;0.1322;
577528783152747;0.2775;0.0293;0.1375;
577528793256184;0.2594;0.1092;0.1162;
577528803373320;0.2583;0.1997;0.1386;
577528813476705;0.2530;0.2656;0.1567;
577528823580143;0.2732;0.3210;0.1631;
577528833683632;0.2988;0.3061;0.1748;
577528843787018;0.2945;0.3125;0.1972;
577528853890403;0.2807;0.3668;0.1844;
577528863988580;0.2871;0.3445;0.2057;
577528874091966;0.2743;0.2742;0.2079;
577528884195403;0.2445;0.1433;0.1887;
577528894289362;0.2233;0.0410;0.2153;
577528904392747;0.1690;0.0091;0.2366;
577528914496184;0.1178;-0.0336;0.2313;
577528924613007;0.0933;-0.1113;0.2611;
577528934716393;0.0518;-0.2008;0.2739;
577528944819778;-0.0047;-0.2328;0.2547;
577528954928320;-0.0228;-0.2072;0.2419;
577528965031705;-0.0590;-0.1497;0.2345;
577528975135091;-0.0664;-0.1763;0.2110;
577528985211393;-0.0430;-0.1060;0.1663;
577528995314726;-0.0494;0.0261;0.1450;
577529005418164;-0.0377;-0.0101;0.1120;
577529015527070;0.0177;-0.0250;0.1226;
577529025630507;0.0124;0.0421;0.1077;
577529035733893;0.0166;0.0644;0.1035;
577529045853112;-0.0079;0.0804;0.0811;
577529055956497;-0.0185;0.0655;0.0587;
577529066059934;0.0113;-0.0101;0.0459;
577529076140768;0.0667;-0.0314;0.0065;
577529086244101;0.0848;-0.0495;-0.0073;
577529096347539;0.0955;-0.0858;0.0119;
577529106449309;0.1455;-0.0719;-0.0073;
577529116552643;0.2126;-0.1497;0.0065;
577529126656080;0.2636;-0.2040;0.0619;
577529136794257;0.2743;-0.1316;0.0736;
577529146897643;0.2743;-0.0016;0.1056;
577529157001080;0.2466;0.0634;0.1280;
577529167097695;0.2732;0.0357;0.1386;
577529177201132;0.2839;0.1134;0.1162;
577529187304518;0.2338;0.2083;0.1205;
577529197390299;0.1881;0.1710;0.1152;
577529207493684;0.1775;0.1880;0.1184;
577529217597122;0.1349;0.1784;0.1130;
577529227695299;0.1381;0.0858;0.1280;
577529237798684;0.1210;-0.0410;0.1397;
577529247902122;0.1168;-0.0101;0.1652;
577529258009049;0.0838;0.0687;0.1493;
577529268112487;0.0912;-0.0005;0.1514;
577529278215872;0.1146;-0.0644;0.1599;
577529288329882;0.0923;0.0112;0.1514;
577529298433320;0.0593;0.1422;0.1258;
577529308536705;0.0838;0.0751;0.1525;
577529318627695;0.1136;-0.0016;0.1844;
577529328731132;0.0838;0.2145;0.1514;
577529338834518;0.0571;0.2699;0.1546;
577529348935716;0.1061;0.1156;0.1493;
577529359039153;0.1210;0.1273;0.1003;
577529369142539;0.0923;0.1816;0.1035;
577529379259362;0.0348;0.1507;0.0971;
577529389362799;0.0614;0.0250;0.0875;
577529399466184;0.0401;-0.1539;0.1184;
577529409558424;0.0284;-0.1816;0.0992;
577529419661862;0.0241;-0.1550;0.1003;
577529429765247;0.0198;-0.2051;0.0779;
577529439889518;0.0774;-0.1401;0.1130;
577529449992903;0.0816;-0.0559;0.0715;
577529460096289;0.0997;0.0037;0.0715;
577529470186862;0.0891;0.0165;0.0822;
577529480290299;0.1125;-0.0069;0.0790;
577529490393684;0.1125;0.0581;0.0768;
577529500488632;0.1051;0.2083;0.0619;
577529510592070;0.1296;0.2284;0.0619;
577529520695455;0.1615;0.2646;0.0651;
577529530796549;0.1360;0.3189;0.0609;
577529540899987;0.1115;0.1337;0.0491;
577529551003372;0.1157;-0.0932;0.0854;
577529561133632;0.0987;-0.0804;0.0875;
577529571237070;0.1040;0.0208;0.0907;
577529581340455;0.0912;0.1433;0.0896;
577529591412487;0.0816;0.0197;0.0928;
577529601515872;0.1232;0.0559;0.1141;
577529611619257;0.1296;0.1369;0.1152;
577529621730768;0.1061;-0.0559;0.1493;
577529631834205;0.0624;-0.2903;0.1610;
577529641937591;0.0614;-0.2168;0.1940;
577529652054257;0.1029;0.0495;0.1013;
577529662157695;0.0763;-0.0027;0.0832;
577529672261080;0.0465;-0.1891;0.1248;
577529682340247;0.0816;-0.0698;0.1482;
577529692443632;0.0965;-0.1007;0.1738;
577529702547018;0.0710;-0.1188;0.2238;
577529712657955;0.0486;-0.0059;0.2260;
577529722761341;0.0507;0.2688;0.2228;
577529732864726;0.0177;0.5820;0.2153;
577529742966497;-0.0025;0.6864;0.1439;
577529753069882;0.0454;0.2422;0.1322;
577529763173268;0.0550;0.0687;0.1450;
577529773272434;0.0188;0.4329;0.1067;
577529783375820;-0.0995;0.3296;0.0779;
577529793479205;-0.1410;-0.0123;0.1237;
577529803607747;-0.1240;-0.3009;0.1130;
577529813711132;-0.0142;-0.4201;0.1684;
577529823814518;0.0550;-0.4979;0.1951;
577529833886184;0.0497;-0.5245;0.2153;
577529843989570;0.0060;-0.1518;0.2004;
577529854093007;-0.0920;0.1060;0.1812;
577529864196757;-0.1517;0.0293;0.2079;
577529874300143;-0.0718;-0.0346;0.1834;
577529884403580;0.0071;0.0059;0.1663;
577529894509570;-0.1080;0.2816;0.1365;
577529904613007;-0.2209;0.3189;0.1173;
577529914716393;-0.2124;0.3775;0.0726;
577529924837903;-0.1985;0.0964;0.0332;
577529934941289;-0.1367;-0.1667;0.0385;
577529945044726;-0.1122;0.1593;0.0150;
577529955155195;-0.1964;0.0889;-0.0158;
577529965258632;-0.1900;-0.1731;0.0033;
577529975362018;-0.1005;-0.2487;0.0332;
577529985462487;-0.0771;-0.3041;0.0470;
577529995565924;-0.0558;-0.0346;0.0033;
577530005669309;-0.0526;0.0037;-0.0031;
577530015788007;-0.0111;-0.1550;0.0097;
577530025891445;0.0497;0.1806;-0.0308;
577530035994830;0.0241;0.3125;-0.0222;
577530046085195;0.0465;0.0751;0.0172;
577530056188632;0.0688;0.0485;0.0087;
577530066292018;0.0550;0.1028;0.0140;
577530076380559;-0.0142;0.1220;0.0087;
577530086483945;-0.0174;0.0325;-0.0126;
577530096587330;-0.0036;-0.0591;0.0055;
577530106688684;0.0081;-0.0218;0.0012;
577530116792070;0.0103;-0.0485;-0.0126;
577530126895455;0.0007;-0.2274;0.0140;
577530136989309;0.0443;-0.2317;0.0470;
577530147092695;0.0869;-0.1593;0.0374;
577530157196080;0.0752;-0.1262;0.0406;
577530167317799;0.0209;0.0293;0.0406;
577530177421237;0.0230;0.1603;0.0193;
577530187524622;0.0358;0.1433;0.0374;
577530197617070;0.0305;0.1443;0.0427;
577530207720455;0.0390;0.1454;0.0364;
577530217823841;0.0103;0.0176;0.0278;
577530227936237;0.0092;0.0549;0.0321;
577530238039674;-0.0153;0.1742;0.0097;
577530248143059;-0.0313;0.0495;0.0193;
577530258248112;-0.0324;-0.0900;0.0406;
577530268351549;-0.0260;-0.0538;0.0289;
577530278454934;-0.0281;-0.0453;0.0321;
577530288551184;-0.0441;-0.1252;0.0523;
577530298654466;-0.0281;-0.1273;0.0672;
577530308757747;-0.0206;-0.0165;0.0332;
577530318863684;-0.0281;0.0495;0.0278;
577530328966966;-0.0558;0.0463;0.0289;
577530339070247;-0.0430;0.0133;0.0172;
577530349173112;-0.0462;0.0314;0.0087;
577530359276393;-0.0547;0.0325;-0.0009;
577530369379726;-0.0579;-0.0112;-0.0073;
577530379483841;-0.0505;-0.0005;-0.0063;
577530389587122;-0.0387;-0.0176;-0.0095;
577530399690455;-0.0111;-0.0005;-0.0169;
577530409794518;-0.0174;-0.0069;-0.0350;
577530419897799;-0.0313;-0.0357;-0.0212;
577530430001080;-0.0249;-0.0399;-0.0276;
577530440112955;-0.0377;-0.0421;-0.0457;
577530450216184;-0.0142;-0.0570;-0.0648;
577530460319466;-0.0153;-0.0442;-0.0776;
577530470409049;-0.0015;0.0101;-0.0819;
577530480512382;0.0230;-0.0005;-0.0670;
577530490615612;0.0443;-0.0346;-0.0830;
577530500719257;0.0763;-0.0591;-0.0979;
577530510822539;0.0965;-0.0261;-0.0840;
577530520925820;0.0987;0.0154;-0.0766;
577530531032695;0.1253;-0.0314;-0.0702;
577530541135976;0.1445;0.0101;-0.0734;
577530551239257;0.1072;0.1198;-0.0787;
577530561360091;0.0859;0.0900;-0.0830;
577530571463424;0.1477;-0.0133;-0.0553;
577530581566653;0.1754;0.0623;-0.0563;
577530591655299;0.1285;0.1550;-0.0744;
577530601758632;0.1200;0.0985;-0.0553;
577530611861862;0.1455;0.1252;-0.0425;
577530621965612;0.1349;0.1518;-0.0617;
577530632068893;0.0923;0.0772;-0.0702;
577530642172174;0.0891;-0.0123;-0.0638;
577530652284153;0.0955;-0.0336;-0.0553;
577530662387434;0.0880;-0.0826;-0.0627;
577530672490716;0.0912;-0.1731;-0.0510;
577530682586549;0.1210;-0.1912;-0.0478;
577530692689830;0.1104;-0.2008;-0.0350;
577530702793112;0.1008;-0.1571;-0.0286;
577530712896184;0.1008;-0.1561;-0.0329;
577530722999466;0.1029;-0.2210;-0.0137;
577530733102747;0.1019;-0.1624;-0.0073;
577530743199466;0.0827;-0.0080;-0.0286;
577530753302747;0.0838;0.0037;-0.0308;
577530763406028;0.1093;-0.0421;0.0033;
577530773513268;0.1178;0.0336;-0.0095;
577530783616549;0.1168;0.0634;-0.0222;
577530793719830;0.0933;0.0016;-0.0254;
577530803821601;0.1072;0.0772;-0.0137;
577530813924882;0.1051;0.1060;-0.0095;
577530824028112;0.0923;0.0953;-0.0190;
577530834148528;0.1136;0.1134;-0.0084;
577530844251809;0.0955;0.0538;0.0044;
577530854355091;0.0997;0.0186;0.0353;
577530864453007;0.1136;0.0123;0.0555;
577530874556289;0.1317;0.0005;0.0545;
577530884659570;0.1083;0.0144;0.0406;
577530894750247;0.1210;-0.0091;0.0896;
577530904853528;0.1157;-0.0943;0.1024;
577530914956809;0.0965;-0.1103;0.0939;
577530925082174;0.0869;-0.0911;0.1109;
577530935185455;0.0720;-0.1209;0.1429;
577530945288737;0.0752;-0.1326;0.1471;
577530955389674;0.0912;-0.0495;0.1557;
577530965492955;0.0678;0.0218;0.1375;
577530975596237;0.0710;-0.0186;0.1610;
577530985699362;0.0497;0.0069;0.1525;
577530995802643;0.0379;0.1230;0.1461;
577531005905924;0.0049;0.0634;0.1173;
577531016015820;0.0156;0.0410;0.1205;
577531026119101;-0.0079;0.1273;0.0864;
577531036222382;-0.0206;0.0847;0.0896;
577531046324153;-0.0185;-0.0272;0.1003;
577531056427434;0.0060;-0.0378;0.0939;
577531066530716;0.0060;-0.0101;0.0885;
577531076613216;-0.0025;-0.0996;0.0928;
577531086716497;0.0177;-0.0858;0.1162;
577531096819778;-0.0111;-0.0474;0.0992;
577531106921132;-0.0036;-0.0815;0.1003;
577531117024414;-0.0164;-0.0410;0.0822;
577531127127695;-0.0196;-0.0080;0.0747;
577531137248841;-0.0313;-0.0240;0.0779;
577531147352122;-0.0238;-0.0378;0.0885;
577531157455403;-0.0025;-0.0091;0.1056;
577531167547903;-0.0068;0.0304;0.0694;
577531177651184;-0.0111;0.1134;0.0619;
577531187754466;-0.0313;0.1454;0.0566;
577531197848841;-0.0430;0.0559;0.0651;
577531207952122;-0.0664;-0.0027;0.0289;
577531218055403;-0.0707;0.0091;0.0246;
577531228162278;-0.1431;0.0037;-0.0137;
577531238265559;-0.1591;-0.1539;-0.0222;
577531248368841;-0.0462;-0.1965;-0.0212;
577531258472018;0.0007;-0.0911;-0.0340;
577531268575351;-0.0260;-0.1049;-0.0531;
577531278678580;-0.0164;-0.1433;-0.0009;
577531288777174;0.0284;-0.1497;-0.0073;
577531298880455;0.0539;-0.0517;-0.0020;
577531308983737;-0.0132;0.1166;-0.0297;
577531319096862;-0.0015;0.0559;-0.0158;
577531329200143;0.0358;-0.0655;-0.0073;
577531339303424;0.0593;0.2220;-0.0574;
577531349406341;0.0454;0.2806;-0.0585;
577531359509622;0.0049;-0.0282;-0.0393;
577531369612903;0.0379;0.0186;-0.0265;
577531379713476;0.0465;0.0996;-0.0457;
577531389816705;0.0081;0.0091;-0.0340;
577531399920039;0.0092;-0.0272;-0.0478;
577531410020507;0.0241;0.0144;-0.0265;
577531420123789;0.0071;0.0059;-0.0254;
577531430227070;0.0294;-0.0634;-0.0169;
577531440336341;0.0433;-0.0463;-0.0095;
577531450439622;0.0454;0.0080;-0.0297;
577531460542903;0.0401;-0.0314;-0.0233;
577531470642695;0.0465;-0.0772;-0.0073;
577531480746028;0.0710;0.0027;-0.0254;
577531490849257;0.0475;0.0495;-0.0382;
577531500952174;0.0305;-0.0154;-0.0222;
577531511055455;0.0475;0.0240;-0.0116;
577531521158789;0.0443;-0.0474;-0.0041;
577531531267799;0.0422;-0.1071;-0.0020;
577531541371080;0.0603;-0.0357;-0.0031;
577531551474362;0.0273;-0.0474;-0.0169;
577531561594882;0.0326;-0.0378;-0.0095;
577531571698164;0.0507;-0.0048;-0.0265;
577531581801445;0.0688;-0.0304;-0.0297;
577531591881601;0.0710;-0.0293;-0.0265;
577531601984934;0.0731;0.0059;-0.0180;
577531612088164;0.0742;-0.0570;-0.0084;
577531622191445;0.0901;-0.0506;0.0012;
577531632294726;0.1008;0.0527;0.0001;
577531642398007;0.0806;0.0229;-0.0084;
577531652529049;0.0912;0.0016;0.0033;
577531662632330;0.0912;0.0410;0.0172;
577531672735612;0.0838;0.0474;0.0097;
577531682817695;0.0699;0.0634;0.0023;
577531692920976;0.0635;0.0889;0.0182;
577531703024257;0.0614;0.0570;0.0246;
577531713123007;0.0720;0.0208;0.0300;
577531723226289;0.0742;-0.0208;0.0342;
577531733329570;0.0582;-0.0250;0.0417;
577531743461237;0.0518;0.0602;0.0140;
577531753564518;0.0582;0.0091;0.0321;
577531763667851;0.0593;0.0048;0.0385;
577531773771914;0.0656;0.0570;0.0182;
577531783875195;0.0593;-0.0112;0.0491;
577531793978476;0.0507;-0.0698;0.0683;
577531804073112;0.0656;0.0005;0.0502;
577531814176445;0.0667;0.0602;0.0491;
577531824279674;0.0475;-0.0762;0.0662;
577531834403528;0.0401;-0.0815;0.0470;
577531844506809;0.0539;0.0357;0.0555;
577531854610091;0.0379;-0.0144;0.0502;
577531864685247;0.0518;-0.0080;0.0449;
577531874788528;0.0529;0.0602;0.0395;
577531884891809;0.0518;0.0794;0.0758;
577531894962487;0.0518;0.0133;0.0843;
577531905065716;0.0624;0.0368;0.0960;
577531915168997;0.0561;0.1507;0.0907;
577531925272278;0.0422;0.1827;0.0864;
577531935393945;0.0145;0.1049;0.0864;
577531945497226;0.0103;0.0336;0.0779;
577531955600507;0.0071;0.0613;0.0545;
577531965709153;-0.0313;0.0101;0.0672;
577531975812434;-0.0483;-0.1348;0.1056;
577531985915716;-0.0345;-0.2253;0.0981;
577531996039466;0.0124;-0.1944;0.0981;
577532006142747;0.0103;-0.1316;0.1162;
577532016246028;-0.0057;-0.1049;0.1216;
577532026336757;-0.0068;-0.0165;0.1056;
577532036440039;-0.0068;-0.0123;0.1397;
577532046543320;-0.0270;-0.0218;0.1130;
577532056644049;-0.0164;0.0911;0.0875;
577532066747330;-0.0398;0.1869;0.0896;
577532076850612;-0.0739;0.1198;0.0971;
577532086954257;-0.0867;0.0581;0.0747;
577532097057539;-0.0771;0.0506;0.0630;
577532107160820;-0.0590;0.0229;0.0545;
577532117263841;-0.0366;0.0112;0.0566;
577532127367122;-0.0270;-0.0517;0.0800;
577532137470403;-0.0153;-0.0719;0.0811;
577532147580091;-0.0036;-0.0495;0.0800;
577532157683372;-0.0068;-0.0463;0.0822;
577532167786653;-0.0142;-0.0527;0.1013;
577532177906653;-0.0174;-0.0293;0.0960;
577532188009934;-0.0068;0.0538;0.0875;
577532198113216;-0.0142;0.1060;0.0949;
577532208203945;-0.0334;0.1198;0.0843;
577532218307226;-0.0249;0.1081;0.0822;
577532228410507;-0.0302;0.0208;0.0971;
577532238504153;-0.0281;0.0421;0.0704;
577532248607434;-0.0483;0.0644;0.0694;
577532258710716;-0.0973;-0.0357;0.0864;
577532268813737;-0.0718;-0.0655;0.0864;
577532278917018;-0.0601;0.0197;0.0758;
577532289020299;-0.0505;0.0091;0.0832;
577532299132591;-0.0483;-0.0282;0.0960;
577532309235976;-0.0569;-0.0027;0.0811;
577532319339257;-0.0601;0.0048;0.0832;
577532329441966;-0.0643;-0.0059;0.0640;
577532339545351;-0.0579;0.0623;0.0481;
577532349648632;-0.0973;0.1049;0.0353;
577532359741549;-0.0856;-0.0154;0.0406;
577532369844882;-0.0590;0.0080;0.0364;
577532379948216;-0.0579;0.0272;0.0555;
577532390051080;-0.0696;-0.0719;0.0662;
577532400154414;-0.0739;-0.0932;0.0438;
577532410257695;-0.0718;-0.1071;0.0619;
577532420367278;-0.0899;-0.0570;0.0257;
577532430470612;-0.0718;0.0091;0.0044;
577532440573997;-0.0782;-0.0261;0.0182;
577532450673372;-0.0654;-0.0581;0.0364;
577532460776705;-0.0686;-0.0229;0.0236;
577532470879987;-0.0483;0.0368;0.0108;
577532480970091;-0.0334;0.0485;0.0332;
577532491073424;-0.0728;0.0048;0.0321;
577532501176757;-0.0654;-0.0272;0.0182;
577532511296393;-0.0579;0.0101;0.0172;
577532521399726;-0.0569;0.0304;-0.0105;
577532531503007;-0.0494;0.0474;-0.0126;
577532541610924;-0.0473;0.0581;-0.0031;
577532551714257;-0.0409;-0.0048;0.0012;
577532561817643;-0.0228;0.0453;-0.0020;
577532571920820;-0.0228;0.0644;0.0129;
577532582024205;-0.0281;0.0016;0.0364;
577532592127487;-0.0483;0.0325;0.0012;
577532602221080;-0.0451;0.0900;-0.0031;
577532612324414;-0.0441;0.0495;-0.0190;
577532622427747;-0.0473;-0.0016;-0.0382;
577532632537903;-0.0483;-0.0037;-0.0489;
577532642641237;-0.0324;-0.0975;-0.0350;
577532652744570;-0.0025;-0.1422;-0.0158;
577532662848424;0.0049;-0.1678;0.0012;
577532672951757;0.0177;-0.1198;0.0055;
577532683055091;0.0230;0.0325;-0.0222;
577532693151497;0.0369;0.0623;0.0129;
577532703254830;0.0411;0.1017;0.0012;
577532713358164;0.0539;0.1742;-0.0467;
577532723458268;0.0337;0.1699;-0.0457;
577532733561653;-0.0015;0.1028;-0.0372;
577532743664934;0.0230;0.1678;-0.0435;
577532753764466;0.0124;0.1731;-0.0542;
577532763867851;-0.0228;0.0581;-0.0276;
577532773971132;-0.0473;-0.0676;-0.0435;
577532784080351;-0.0356;-0.2530;-0.0478;
577532794183684;-0.0281;-0.2434;-0.0382;
577532804286966;-0.0142;-0.1539;-0.0403;
577532814389466;-0.0089;-0.1656;-0.0254;
577532824492799;-0.0004;-0.1912;0.0023;
577532834596184;0.0443;-0.1390;0.0108;
577532844699466;0.1019;-0.0453;0.0278;
577532854802799;0.1487;0.0037;0.0513;
577532864906132;0.1562;0.0495;0.0790;
577532875014414;0.1168;0.1049;0.0790;
577532885117695;0.0784;0.2040;0.0864;
577532895221028;0.0401;0.2316;0.0854;
577532905315247;-0.0164;0.1529;0.0971;
577532915418580;-0.0632;0.0889;0.1216;
577532925521914;-0.1154;0.0570;0.1312;
577532935637070;-0.1666;0.0602;0.1599;
577532945740403;-0.2028;-0.0101;0.1770;
577532955843737;-0.1911;-0.0847;0.1812;
577532965933893;-0.2071;-0.0943;0.1503;
577532976037226;-0.1719;-0.1326;0.1876;
577532986140507;-0.0973;-0.0889;0.1695;
577532996270612;-0.0675;0.0581;0.1471;
577533006373945;-0.1176;0.0463;0.1738;
577533016477278;-0.1357;-0.0730;0.2110;
577533026570820;-0.1293;-0.0357;0.2079;
577533036674153;-0.1740;0.0644;0.2185;
577533046777487;-0.2550;0.0676;0.2196;
577533056880612;-0.3146;0.0314;0.1802;
577533066983997;-0.3445;0.0080;0.1525;
577533077087330;-0.3210;0.0932;0.0992;
577533087198528;-0.2965;0.1294;0.0598;
577533097301862;-0.2869;-0.0091;0.0587;
577533107405195;-0.2688;-0.0932;0.0459;
577533117501862;-0.2284;-0.0250;0.0044;
577533127605195;-0.1559;0.0314;0.0225;
577533137708580;-0.1410;0.0250;0.0491;
577533147829362;-0.1623;0.0474;0.0300;
577533157932695;-0.1804;0.0357;-0.0137;
577533168036028;-0.1730;0.0730;-0.0393;
577533178123112;-0.1708;0.1166;-0.0904;
577533188226445;-0.1612;0.0996;-0.1192;
577533198329778;-0.1282;0.0325;-0.1213;
577533208436549;-0.1186;0.0005;-0.1628;
577533218539882;-0.1186;0.0091;-0.1746;
577533228643216;-0.0952;-0.0570;-0.1660;
577533238746445;-0.0675;-0.1188;-0.1628;
577533248849778;-0.1154;-0.0804;-0.2001;
577533258953112;-0.1389;-0.0346;-0.1927;
577533269078528;-0.1325;0.0197;-0.2129;
577533279181862;-0.1165;0.0836;-0.2353;
577533289285195;-0.0462;0.0069;-0.2491;
577533299369101;-0.0324;0.0101;-0.2534;
577533309472487;-0.0739;0.0943;-0.2459;
577533319575820;-0.0004;0.0826;-0.2310;
577533329669362;0.1370;0.0549;-0.2172;
577533339772747;0.1775;0.0399;-0.2246;
577533349876080;0.2434;-0.0027;-0.2001;
577533360041809;0.2498;-0.0101;-0.1799;
577533370145143;0.1711;0.0623;-0.1490;
577533380248476;0.2359;0.0218;-0.1053;
577533390283789;0.3936;-0.0698;-0.0691;
577533400387122;0.3020;-0.0538;-0.0648;
577533410490455;0.1541;-0.0495;0.0001;
577533420597747;0.1083;-0.0740;0.0481;
577533430701080;-0.0206;-0.0250;0.0385;
577533440804414;-0.2092;0.0613;0.0278;
577533450911028;-0.3880;0.1731;0.0395;
577533461014414;-0.2710;0.1635;-0.0020;
577533471117747;0.0518;0.0410;-0.0403;
577533481201184;0.3137;-0.1273;-0.0340;
577533491304466;0.2105;-0.1486;-0.0350;
577533501407851;-0.2816;0.0634;-0.0276;
577533511522539;-0.5936;0.2198;-0.0212;
577533521625872;-0.3381;0.1411;-0.0457;
577533531729205;0.0614;-0.0165;-0.1032;
577533541843007;0.2105;-0.0623;-0.0989;
577533551946393;0.1988;-0.0858;-0.0862;
577533562049726;0.0443;-0.0485;-0.0553;
577533572153684;-0.1559;0.0655;-0.0435;
577533582257070;-0.1474;0.1007;-0.0318;
577533592360403;0.1285;0.0538;-0.0244;
577533602474257;0.6269;-0.1326;0.0012;
577533612577591;1.1221;-0.3670;0.0374;
577533622680976;0.8792;-0.3414;0.1099;
577533632767122;0.0912;-0.0304;0.2004;
577533642870455;-0.5723;0.2241;0.2025;
577533652973789;-0.7917;0.3019;0.1461;
577533663069987;-0.6043;0.2294;0.0864;
577533673173320;-0.1815;0.0858;0.0630;
577533683276653;0.1562;-0.0549;0.0534;
577533693391393;0.1551;-0.0975;0.0566;
577533703494674;-0.2806;0.0879;0.0640;
577533713598059;-0.6884;0.2475;0.0161;
577533723765039;-0.6927;0.1923;-0.0819;
577533733868320;-0.5276;0.1284;-0.1607;
577533743971705;-0.3423;0.1561;-0.2225;
577533753998893;0.1136;-0.0208;-0.2438;
577533764102226;0.6674;-0.3169;-0.2150;
577533774205559;0.6780;-0.3212;-0.1575;
577533784334153;0.2169;-0.1124;-0.0595;
577533794437487;-0.0877;0.0176;0.0108;
577533804540872;-0.0643;-0.0059;0.0300;
577533814646445;0.0017;-0.0165;-0.0052;
577533824749830;-0.1229;0.0996;-0.0276;
577533834853164;-0.0728;0.0762;-0.0276;
577533844929101;0.0635;-0.0027;-0.0489;
577533855032434;0.0326;0.0378;-0.0244;
577533865135768;0.0752;0.0549;-0.0073;
577533875250612;0.2913;-0.0453;0.0076;
577533885353997;0.4320;-0.1166;0.0364;
577533895457330;0.2381;-0.0123;0.0811;
577533905579570;0.0379;0.0346;0.0779;
577533915682955;-0.0451;0.0676;0.0651;
577533925786289;-0.0792;0.1049;0.0459;
577533935861601;0.0603;0.0218;0.0427;
577533945964934;0.2359;-0.1411;0.0470;
577533956068268;0.3180;-0.2146;0.0502;
577533966180768;0.1487;-0.1678;0.1141;
577533976284101;-0.0324;-0.0964;0.1397;
577533986387434;-0.2656;0.0037;0.1642;
577533996493476;-0.3786;0.0495;0.1418;
577534006596809;-0.4008;0.0559;0.0864;
577534016700143;-0.5041;0.1379;0.0609;
577534026807903;-0.4924;0.1752;-0.0105;
577534036911289;-0.2699;0.1284;-0.0446;
577534047014622;0.1722;-0.0549;-0.0659;
577534057115820;0.3659;-0.1124;-0.0553;
577534067219205;0.2775;-0.0783;-0.0350;
577534077322539;0.0411;-0.0165;-0.0265;
577534087417643;-0.1772;0.0804;-0.0137;
577534097520976;-0.1719;0.0772;-0.0563;
577534107624309;-0.0174;0.0655;-0.0776;
577534117737018;0.1573;0.0144;-0.0712;
577534127840403;0.4021;-0.1007;-0.0691;
577534137943737;0.5960;-0.2285;-0.0457;
577534148055924;0.4554;-0.1806;0.0161;
577534158159309;0.0401;-0.0091;0.0704;
577534168262643;-0.0909;0.0336;0.0960;
577534178360507;-0.1517;0.0815;0.1152;
577534188463893;-0.0718;0.0474;0.1035;
577534198567226;0.0454;0.0005;0.0672;
577534208659674;0.0134;0.0559;0.0630;
577534218763007;0.0326;0.0644;0.0704;
577534228866341;0.0923;-0.0016;0.0513;
577534238996653;0.0710;-0.0527;0.0374;
577534249100039;-0.0292;-0.0250;0.0417;
577534259203372;-0.0782;0.0123;0.0353;
577534269294570;-0.0707;0.0016;0.0545;
577534279397955;-0.0004;-0.0794;0.0342;
577534289501289;-0.0973;-0.0644;0.0087;
577534299603632;-0.3232;0.0442;0.0278;
577534309707018;-0.4413;0.1134;0.0012;
577534319810403;-0.3019;0.0495;-0.0190;
577534329909674;-0.1101;0.0037;-0.0542;
577534340013059;-0.0632;-0.0069;-0.0286;
577534350116393;-0.0675;-0.0325;-0.0297;
577534360210143;-0.2049;0.0623;-0.0126;
577534370313476;-0.2060;0.1092;0.0055;
577534380416809;-0.0142;-0.0101;-0.0212;
577534390521601;-0.0217;-0.0154;-0.0585;
577534400624934;-0.1208;0.0250;-0.0553;
577534410728320;-0.0973;0.0378;-0.0766;
577534420837591;-0.0174;-0.0027;-0.0670;
577534430940976;0.0582;-0.0719;-0.0531;
577534441044309;0.0007;-0.0634;-0.0585;
577534451144153;0.0039;-0.0623;-0.0201;
577534461247487;0.0901;-0.1017;0.0033;
577534471350820;0.1125;-0.1284;0.0204;
577534481448893;-0.0760;-0.0538;0.0076;
577534491552174;-0.2923;0.0762;-0.0052;
577534501655559;-0.3636;0.1358;-0.0084;
577534511764153;-0.1240;0.0431;-0.0393;
577534521867539;0.0071;-0.0410;-0.0776;
577534531970872;-0.0760;-0.0027;-0.0787;
577534542074778;-0.1016;-0.0378;-0.0606;
577534552178164;-0.1101;-0.0474;-0.0648;
577534562281497;-0.1644;-0.0325;-0.0553;
577534572386862;-0.1847;-0.0453;-0.1096;
577534582490247;-0.2614;-0.0410;-0.1639;
577534592593580;-0.3869;-0.0037;-0.1884;
577534602697278;-0.4104;0.0293;-0.2044;
577534612800664;-0.1868;-0.0463;-0.2534;
577534622903997;-0.0846;-0.0698;-0.2534;
577534633000351;-0.0803;-0.0708;-0.2438;
577534643103684;-0.0611;-0.0474;-0.2161;
577534653207018;-0.0846;0.0069;-0.1778;
577534663315299;-0.0494;0.0165;-0.1714;
577534673418684;-0.1037;0.1007;-0.2289;
577534683522018;-0.1165;0.2209;-0.2310;
577534693641080;0.1051;0.1582;-0.2289;
577534703744414;0.5821;-0.0378;-0.2278;
577534713847747;0.7963;-0.1156;-0.2065;
577534723929205;0.7292;-0.0868;-0.1309;
577534734032539;0.6312;-0.1039;-0.0648;
577534744135924;0.4415;-0.0676;0.0289;
577534754260195;0.1967;0.0123;0.0640;
577534764363528;0.1168;0.0431;0.0704;
577534774466914;0.1743;-0.0027;0.0832;
577534784542174;0.1115;0.0005;0.0854;
577534794645507;0.0891;0.0272;0.1045;
577534804748893;0.1945;-0.0250;0.0971;
577534814887174;0.3318;-0.1071;0.0896;
577534824990507;0.3915;-0.1848;0.1152;
577534835093893;0.2594;-0.1838;0.1269;
577534845183841;-0.0622;-0.1198;0.1482;
577534855287226;-0.4455;-0.0027;0.1482;
577534865390559;-0.8152;0.1507;0.0555;
577534875484934;-0.9036;0.1656;-0.0254;
577534885588268;-0.7545;0.1252;-0.1075;
577534895691601;-0.2284;-0.0762;-0.1810;
577534905838528;0.1615;-0.2168;-0.2140;
577534915941914;0.1146;-0.1965;-0.2332;
577534926045247;-0.2145;-0.0826;-0.2225;
577534936114987;-0.6224;0.1134;-0.2108;
577534946218372;-0.8077;0.2284;-0.2555;
577534956321705;-0.5403;0.1667;-0.3395;
577534966411393;-0.0771;0.0442;-0.4098;
577534976514726;0.1796;-0.0069;-0.4067;
577534986618059;0.3712;-0.0815;-0.3768;
577534996720664;0.4671;-0.0868;-0.3491;
577535006823997;0.4181;-0.0399;-0.3248;
577535016927330;0.3446;0.0240;-0.2928;
577535027038216;0.3893;0.0346;-0.2502;
577535037141601;0.6301;-0.0399;-0.1980;
577535047244934;0.7792;-0.0250;-0.1320;
577535057349101;0.8888;-0.0421;-0.0872;
577535067452487;0.9410;-0.0644;-0.0116;
577535077555820;0.8208;-0.0538;0.0704;
577535087651393;0.6802;-0.0623;0.1258;
577535097754726;0.4884;-0.0463;0.1727;
577535107858059;0.2615;-0.0144;0.2292;
577535117962955;0.1455;0.0506;0.2409;
577535128066289;0.1871;-0.0048;0.2643;
577535138169622;0.3009;-0.1294;0.2558;
577535148293945;0.1061;-0.1273;0.1972;
577535158397330;-0.3423;0.0144;0.1961;
577535168500664;-0.8237;0.1774;0.1770;
577535178593528;-0.9451;0.1997;0.1045;
577535188696914;-0.7204;0.1390;0.0065;
577535198800247;-0.2582;-0.0176;-0.0627;
577535208901132;0.1679;-0.1912;-0.0925;
577535219004518;0.2551;-0.2146;-0.0840;
577535229107851;0.0656;-0.1454;-0.0862;
577535239211184;-0.2177;0.0144;-0.0830;
577535249314570;-0.5339;0.2699;-0.1149;
577535259417903;-0.3668;0.3072;-0.1458;
577535269536549;0.4277;0.0208;-0.1501;
577535279639882;1.2393;-0.2146;-0.1202;
577535289743268;1.7526;-0.3883;-0.0137;
577535299828112;1.8005;-0.4361;0.1322;
577535309931445;1.1455;-0.2072;0.2908;
577535320034778;0.2956;0.0953;0.4176;
577535330139882;-0.0728;0.2752;0.4048;
577535340243268;0.0880;0.2177;0.3696;
577535350346601;0.4682;0.0346;0.3952;
577535360443164;0.6152;-0.0868;0.4176;
577535370546497;0.5747;-0.1806;0.4495;
577535380649830;0.2254;-0.1593;0.4708;
577535390760195;-0.4285;0.0186;0.4857;
577535400863580;-1.0568;0.2051;0.4261;
577535410966862;-1.2241;0.1561;0.3377;
577535421073216;-1.1730;0.0847;0.2110;
577535431176549;-1.1836;0.0985;0.0619;
577535441279934;-1.1655;0.1262;-0.0446;
577535451377487;-0.9951;0.0953;-0.1256;
577535461480820;-0.5553;-0.0613;-0.2406;
577535471584101;-0.3573;-0.0240;-0.2736;
577535481705091;-0.3626;0.1273;-0.2406;
577535491808424;-0.1367;0.0687;-0.2491;
577535501911757;0.0816;-0.0059;-0.2736;
577535512010351;0.0326;0.0602;-0.2917;
577535522113737;-0.0505;0.1422;-0.2651;
577535532217018;0.0976;0.1134;-0.2843;
577535542305039;0.4000;0.0229;-0.2864;
577535552408372;0.6865;-0.0879;-0.2577;
577535562511653;0.7696;-0.0399;-0.2076;
577535572619309;0.8133;-0.0378;-0.0925;
577535582722591;0.8643;-0.1294;0.0001;
577535592825924;0.4511;0.0229;0.0513;
577535602947070;-0.0696;0.1965;0.1184;
577535613050403;-0.2049;0.2443;0.1344;
577535623153737;-0.0174;0.1752;0.0822;
577535633235247;0.2349;0.0399;0.0630;
577535643338580;0.2871;-0.0123;0.0694;
577535653441914;0.2530;-0.0314;0.0768;
577535663547643;0.2828;-0.1422;0.0758;
577535673650924;0.0539;-0.1113;0.0854;
577535683754257;-0.2965;0.0431;0.0768;
577535693856393;-0.3997;0.0644;0.1056;
577535703959674;-0.2497;0.0048;0.0854;
577535714063059;-0.1421;0.0059;0.0342;
577535724188112;-0.0292;0.0368;0.0055;
577535734291445;0.1466;-0.0218;0.0214;
577535744394778;0.2956;-0.1028;0.0246;
577535754472799;0.2530;-0.0581;0.0182;
577535764576184;0.0561;0.0676;0.0491;
577535774679466;0.0379;0.0911;0.0640;
577535784820612;0.1391;0.0133;0.0651;
577535794923945;0.1413;0.0485;0.0790;
577535805027278;0.1850;0.0197;0.0896;
577535815118424;0.3020;-0.0613;0.0640;
577535825221757;0.2402;-0.0719;0.0790;
577535835325091;0.0784;-0.0623;0.0736;
577535845427903;-0.1453;0.0293;0.0470;
577535855531237;-0.2923;0.0889;0.0545;
577535865634570;-0.2252;0.0676;0.0587;
577535875720351;-0.0142;0.0144;0.0523;
577535885823632;0.2466;-0.1390;0.0726;
577535895927018;0.2201;-0.1955;0.0875;
577535906029674;-0.0675;-0.0889;0.0545;
577535916133059;-0.4796;0.0943;0.0555;
577535926236341;-0.6937;0.2114;0.0257;
577535936340143;-0.4977;0.2008;-0.0318;
577535946443424;-0.0601;0.0613;-0.0787;
577535956546757;0.3808;-0.1433;-0.0915;
577535966656132;0.3819;-0.1827;-0.0670;
577535976759466;0.1445;-0.1326;-0.0169;
577535986862851;-0.1772;-0.0453;-0.0393;
577535996960507;-0.5361;0.1273;-0.0680;
577536007063841;-0.6149;0.2104;-0.1245;
577536017167174;-0.3008;0.1060;-0.1714;
577536027271862;0.1679;-0.0410;-0.2310;
577536037375195;0.5204;-0.1635;-0.2172;
577536047478528;0.5523;-0.2083;-0.1501;
577536057584570;0.2148;-0.1039;-0.0979;
577536067687903;-0.1112;-0.0048;-0.0712;
577536077791237;-0.3722;0.1188;-0.0851;
577536087888789;-0.5414;0.2614;-0.1330;
577536097992070;-0.3434;0.2348;-0.1948;
577536108095403;0.2190;-0.0091;-0.2321;
577536118203372;0.5300;-0.0943;-0.2374;
577536128306705;0.4533;-0.0463;-0.1863;
577536138410039;0.2700;0.0016;-0.1352;
577536148538737;0.0731;0.0783;-0.1170;
577536158642122;0.0955;0.0559;-0.1149;
577536168745455;0.2445;-0.0059;-0.1085;
577536178824362;0.4671;-0.1039;-0.0968;
577536188927695;0.5321;-0.1667;-0.0947;
577536199031028;0.4138;-0.1497;-0.0617;
577536209135403;0.1690;-0.1103;-0.0233;
577536219238737;-0.1059;0.0346;-0.0201;
577536229342070;-0.2582;0.1209;-0.0201;
577536239440143;-0.1101;0.0378;-0.0084;
577536249543476;-0.0004;-0.0570;-0.0276;
577536259646809;-0.2103;0.0708;-0.0318;
577536269769049;-0.4264;0.1976;-0.0499;
577536279872382;-0.2880;0.1518;-0.1245;
577536289975716;-0.1112;0.1209;-0.1969;
577536300060664;0.1541;0.0314;-0.2193;
577536310163997;0.4011;-0.0804;-0.2289;
577536320267330;0.5598;-0.1646;-0.2406;
577536330369987;0.4799;-0.1582;-0.2161;
577536340473268;0.3009;-0.0868;-0.1575;
577536350576653;0.2583;-0.1007;-0.1128;
577536360682487;0.2148;-0.0687;-0.0648;
577536370785820;0.2583;-0.0634;-0.0446;
577536380889205;0.2636;-0.0112;-0.0787;
577536390990455;0.2519;0.0378;-0.0435;
577536401093737;0.2967;0.0581;-0.0350;
577536411197122;0.4394;0.0953;-0.0393;
577536421300559;0.5672;0.0751;-0.0031;
577536431403893;0.6184;0.0602;0.0449;
577536441507226;0.6418;-0.0250;0.0843;
577536451614205;0.5513;-0.0048;0.1290;
577536461717539;0.3755;0.0815;0.1674;
577536471820872;0.3393;0.0399;0.1812;
577536481943112;0.2903;0.0250;0.1961;
577536492046445;0.2487;0.0815;0.2174;
577536502149778;0.2317;0.0559;0.2281;
577536512239570;0.2254;0.0282;0.2462;
577536522342955;0.1413;0.0804;0.2887;
577536532446289;0.1029;0.0421;0.3015;
577536542542851;0.1242;0.0229;0.3174;
577536552646132;0.0731;0.0719;0.3089;
577536562749518;0.0337;0.0794;0.2759;
577536572862799;0.0230;0.0517;0.2728;
577536582966184;0.0060;0.0517;0.2483;
577536593069518;-0.0132;0.0953;0.2238;
577536603153893;0.0305;0.0453;0.2121;
577536613257226;0.0965;-0.0836;0.2174;
577536623360559;0.0092;-0.1678;0.2047;
577536633476549;-0.1858;-0.1134;0.2174;
577536643579934;-0.3328;-0.0506;0.1919;
577536653683268;-0.3626;-0.0176;0.1439;
577536663789778;-0.4242;0.0282;0.0800;
577536673893164;-0.3722;0.0474;0.0566;
577536683996497;-0.2294;0.0687;0.0140;
577536694094674;-0.0505;0.0389;-0.0190;
577536704198007;-0.0281;0.0506;-0.0329;
577536714301341;-0.0909;0.0879;-0.0318;
577536724408424;-0.0579;0.0794;-0.0180;
577536734511809;0.0028;0.0730;-0.0116;
577536744615143;0.0390;0.0953;-0.0542;
577536754705716;0.0156;0.1443;-0.1000;
577536764809049;0.1541;0.0368;-0.0350;
577536774912434;0.3244;-0.0538;-0.0041;
577536785050247;0.3478;-0.0879;0.0278;
577536795153580;0.2148;-0.1188;0.0619;
577536805256966;0.0337;-0.0485;0.1216;
577536815323684;0.0103;-0.0517;0.1226;
577536825426966;0.0071;-0.0208;0.1557;
577536835530351;-0.0121;0.0442;0.1738;
577536845666757;-0.0047;0.0591;0.1695;
577536855770091;0.0156;0.0144;0.1652;
577536865873476;-0.0142;0.0240;0.1652;
577536875953997;-0.0398;0.0655;0.1429;
577536886057278;-0.0164;0.0240;0.1791;
577536896160612;-0.0132;0.0091;0.1865;
577536906285403;-0.0089;-0.0282;0.1791;
577536916388737;-0.0302;-0.0655;0.1855;
577536926492122;-0.0526;0.0240;0.1780;
577536936597799;0.0060;-0.0272;0.2089;
577536946701132;0.0198;-0.1071;0.1940;
577536956804466;-0.0025;-0.0858;0.1951;
577536966898424;-0.0899;-0.0027;0.1855;
577536977001757;-0.1943;0.0730;0.1919;
577536987105143;-0.1826;0.0655;0.1919;
577536997200507;-0.0963;-0.0037;0.1929;
577537007303841;-0.0537;-0.0186;0.1876;
577537017407226;-0.0654;0.0389;0.1908;
577537027514934;-0.0963;0.0421;0.1759;
577537037618268;-0.1474;0.0666;0.1418;
577537047721653;-0.2252;0.1497;0.1450;
577537057815247;-0.2699;0.1816;0.1013;
577537067918580;-0.2252;0.0921;0.0619;
577537078021914;-0.1921;0.0101;0.0555;
577537088131757;-0.2593;0.0634;0.0598;
577537098235143;-0.3923;0.0357;0.0406;
577537108338476;-0.4285;-0.0282;0.0385;
577537118437018;-0.4019;-0.0037;-0.0095;
577537128540351;-0.3114;0.0165;-0.0563;
577537138643684;-0.1975;-0.0208;-0.1107;
577537148770924;-0.1495;-0.0527;-0.1181;
577537158874257;-0.1612;-0.0655;-0.1597;
577537168977643;-0.1463;-0.0549;-0.1724;
577537179059257;-0.1644;-0.0943;-0.1618;
577537189162591;-0.1410;-0.1273;-0.1788;
577537199265976;-0.0526;-0.0495;-0.1959;
577537209365559;0.0273;0.0037;-0.2214;
577537219468893;0.0955;0.0005;-0.2172;
577537229572226;0.0806;0.0229;-0.2118;
577537239685507;-0.0537;-0.0485;-0.2332;
577537249788841;-0.0877;-0.1156;-0.2246;
577537259892226;-0.0515;-0.1273;-0.2342;
577537269994101;0.0614;-0.1305;-0.2193;
577537280097434;0.3158;-0.0975;-0.2076;
577537290200820;0.6088;0.0059;-0.1671;
577537300298216;0.8877;0.1220;-0.0872;
577537310401601;0.9804;0.2061;-0.0073;
577537320504987;0.5534;0.1113;0.0321;
577537330606809;0.0497;-0.0794;0.0981;
577537340710143;0.1221;-0.0261;0.1344;
577537350813476;0.1924;0.0794;0.0917;
577537360927903;0.0795;0.1252;0.0736;
577537371031289;-0.0601;0.1252;0.1130;
577537381134622;-0.2454;-0.0325;0.1109;
577537391224414;-0.2475;-0.1124;0.0960;
577537401327695;-0.1975;-0.1358;0.0715;
577537411431080;-0.0601;-0.2477;0.0800;
577537421543528;0.2180;-0.1859;0.0598;
577537431646914;0.4405;0.0208;0.0598;
577537441750247;0.3510;0.0037;0.0353;
577537451855195;0.0582;-0.0751;0.0587;
577537461958580;-0.0537;-0.0368;0.0640;
577537472061914;-0.1304;-0.0762;0.0587;
577537482184778;-0.1080;-0.0399;0.0502;
577537492288112;0.0092;0.0698;0.0140;
577537502391497;-0.0142;0.0783;-0.0126;
577537512471809;-0.1804;0.0410;-0.0318;
577537522575143;-0.2848;-0.0336;-0.0393;
577537532678476;-0.2124;-0.1198;-0.0670;
577537542782278;-0.0015;-0.0602;-0.1138;
577537552885664;0.0326;-0.0549;-0.1149;
577537562988997;-0.0164;-0.1923;-0.0638;
577537573091341;0.0795;-0.1678;-0.0659;
577537583194726;0.2370;-0.0431;-0.0691;
577537593298059;0.2658;-0.0698;-0.0478;
577537603391705;0.1807;-0.0794;-0.0158;
577537613494987;0.0816;-0.0719;-0.0020;
577537623598424;0.1242;0.0059;0.0236;
577537633773372;0.1296;0.0431;-0.0020;
577537643876653;0.0092;-0.0229;-0.0031;
577537653980091;-0.0643;0.0389;0.0182;
577537664023164;-0.0856;0.0272;0.0395;
577537674126497;-0.1144;-0.0644;0.0374;
577537684229882;-0.1612;-0.0069;0.0108;
577537694391237;-0.1080;0.0005;0.0236;
577537704494570;-0.0771;-0.0740;0.0097;
577537714597955;-0.0771;-0.0463;-0.0009;
577537724650664;-0.0675;0.0112;0.0150;
577537734754049;-0.0824;-0.0570;-0.0073;
577537744857382;-0.0824;-0.0229;-0.0137;
577537754958945;-0.0867;0.0048;-0.0126;
577537765062330;-0.0867;-0.0911;-0.0020;
577537775165664;-0.0696;-0.0474;0.0001;
577537785276445;-0.0483;-0.0186;-0.0084;
577537795379830;-0.0356;-0.0655;0.0012;
577537805483164;-0.0792;-0.0921;-0.0169;
577537815598007;-0.0356;-0.0623;-0.0265;
577537825701393;0.0358;0.0250;-0.0297;
577537835804726;0.0209;0.0208;-0.0276;
577537845899987;-0.0228;0.0197;-0.0180;
577537856003372;-0.0100;0.0836;0.0108;
577537866106705;0.0071;0.1273;0.0108;
577537876194674;0.0401;0.1827;0.0161;
577537886298059;0.0241;0.2051;0.0204;
577537896401393;0.0060;0.1923;0.0033;
577537906507487;0.0017;0.1561;-0.0095;
577537916610872;0.0113;0.0826;-0.0169;
577537926714205;0.0326;-0.0208;-0.0169;
577537936843216;0.0379;-0.0304;-0.0031;
577537946946549;0.0656;-0.0261;0.0225;
577537957049934;0.0262;-0.1113;0.0470;
577537967130091;-0.0206;-0.1763;0.0513;
577537977233476;0.0113;-0.1156;0.0545;
577537987336809;0.0198;-0.0431;0.0491;
577537997439518;-0.0451;-0.0378;0.0321;
577538007542851;-0.0984;0.0186;0.0268;
577538017646237;-0.1431;0.1134;0.0097;
577538027745507;-0.1581;0.1188;-0.0499;
577538037848893;-0.1346;0.0889;-0.0755;
577538047952226;-0.1229;0.1103;-0.0627;
577538058057070;-0.1762;0.0229;-0.0670;
577538068160455;-0.1889;-0.0474;-0.0893;
577538078263789;-0.1101;-0.0154;-0.1160;
577538088370820;-0.0632;-0.0719;-0.1213;
577538098474205;-0.0664;-0.1262;-0.1415;
577538108577539;0.0060;-0.1007;-0.1341;
577538118673216;0.1210;-0.0581;-0.1597;
577538128776601;0.1796;-0.0368;-0.1831;
577538138879934;0.1061;-0.0527;-0.1724;
577538148991653;0.0369;-0.0794;-0.1383;
577538159095039;0.0795;-0.0644;-0.1469;
577538169198372;0.2201;0.0357;-0.1394;
577538179303424;0.3244;0.0804;-0.1245;
577538189406809;0.4106;0.1060;-0.1138;
577538199510143;0.4117;0.1923;-0.1075;
577538209616341;0.1924;0.2188;-0.0702;
577538219719726;0.0294;0.1433;-0.0553;
577538229823059;0.0092;0.1028;-0.0638;
577538239945195;-0.0664;0.0964;-0.0286;
577538250048580;-0.1048;0.0165;0.0119;
577538260151914;0.0230;-0.0570;0.0193;
577538270225976;0.2020;0.0091;0.0385;
577538280329309;0.3361;0.0783;0.0491;
577538290432643;0.2818;0.0804;0.0417;
577538300533476;0.0497;-0.0314;0.0779;
577538310636809;0.0678;-0.0932;0.1184;
577538320740143;0.1253;-0.0570;0.1013;
577538330847070;0.0188;-0.0730;0.1237;
577538340950455;0.0060;-0.0613;0.1727;
577538351053789;0.0049;-0.0186;0.1791;
577538361156966;0.0209;0.0474;0.1791;
577538371260351;-0.0888;0.0751;0.1865;
577538381363684;-0.2273;0.0527;0.1844;
577538391464934;-0.3551;0.0389;0.1407;
577538401568268;-0.4796;0.0240;0.1280;
577538411671601;-0.5350;0.0293;0.0811;
577538421771184;-0.5521;0.0240;0.0161;
577538431874518;-0.6256;0.0005;-0.0276;
577538441977903;-0.7012;-0.0570;-0.0585;
577538452086601;-0.6778;-0.1145;-0.1021;
577538462189934;-0.2348;-0.0069;-0.1362;
577538472293268;0.2073;0.1145;-0.1618;
577538482389101;0.3776;0.1443;-0.1692;
577538492492434;0.2466;0.0740;-0.1863;
577538502595768;0.0230;-0.0123;-0.1426;
577538512704882;0.0134;0.0229;-0.1650;
577538522808268;-0.0750;-0.0059;-0.2055;
577538532911653;-0.1602;-0.0921;-0.2055;
577538543011914;0.0316;-0.0623;-0.1788;
577538553115247;0.3798;0.0613;-0.1948;
577538563218580;0.6557;0.1465;-0.1756;
577538573331341;0.5470;0.0442;-0.0968;
577538583434726;0.3798;-0.0772;-0.0297;
577538593538059;0.5055;-0.0602;-0.0308;
577538603656966;0.6045;-0.0325;0.0321;
577538613760351;0.5438;-0.0442;0.0822;
577538623863684;0.3393;-0.0868;0.0992;
577538633929934;0.1956;-0.0506;0.1226;
577538644033320;0.1530;0.0027;0.1290;
577538654136653;0.1168;-0.0261;0.1194;
577538664265924;0.1349;0.0123;0.1471;
577538674369309;0.1818;0.0932;0.1439;
577538684472643;0.0752;0.0676;0.1439;
577538694559674;-0.1154;0.0186;0.1162;
577538704663059;-0.4072;-0.0708;0.0992;
577538714766393;-0.5361;-0.1017;0.0470;
577538724871080;-0.4881;-0.0836;0.0065;
577538734974414;-0.2965;-0.0431;-0.0052;
577538745077799;0.0379;0.0069;-0.0095;
577538755205091;0.3201;0.0549;-0.0180;
577538765308476;0.4927;0.1103;0.0172;
577538775411809;0.4160;0.0634;0.0651;
577538785499362;0.3095;0.0176;0.0992;
577538795602747;0.2626;0.0112;0.1216;
577538805706080;0.1541;-0.0229;0.1770;
577538815826341;0.1913;0.0133;0.1738;
577538825929726;0.1999;0.0314;0.1652;
577538836033059;0.1264;0.0325;0.1983;
577538846110664;0.1189;0.1060;0.1951;
577538856213997;-0.0792;0.0474;0.1972;
577538866317382;-0.3509;-0.0644;0.2409;
577538876433945;-0.3402;-0.0463;0.2313;
577538886537330;-0.1059;0.0048;0.1951;
577538896640664;0.0529;0.0783;0.1471;
577538906736705;-0.0824;0.0240;0.1791;
577538916840039;-0.2411;-0.0091;0.1844;
577538926943372;-0.2422;0.0431;0.1365;
577538937039309;-0.3232;0.0399;0.1280;
577538947142643;-0.3869;0.0591;0.1120;
577538957245976;-0.4210;0.0751;0.0577;
577538967365091;-0.5031;0.0495;0.0481;
577538977468476;-0.4935;0.0900;0.0129;
577538987571809;-0.4413;0.1039;-0.0457;
577538997671549;-0.5925;-0.0037;-0.1138;
577539007774934;-0.6639;-0.0921;-0.1426;
577539017878268;-0.3700;-0.0144;-0.1884;
577539027993737;-0.0409;0.0527;-0.2491;
577539038097122;-0.0111;-0.0037;-0.2577;
577539048200455;0.0220;-0.0165;-0.2438;
577539058285612;0.0369;-0.0442;-0.2214;
577539068388997;-0.0089;-0.1326;-0.1884;
577539078492382;0.1913;-0.0772;-0.1778;
577539088601966;0.5523;0.0261;-0.1735;
577539098705351;0.7047;0.0495;-0.1628;
577539108808737;0.6130;0.0240;-0.0893;
577539118909101;0.3936;-0.0144;-0.0095;
577539129012434;0.2116;-0.0399;-0.0233;
577539139115820;0.0262;-0.1092;-0.0158;
577539149244362;0.0294;-0.1092;0.0023;
577539159347747;0.1040;-0.0378;0.0108;
577539169451132;0.0678;-0.0794;0.0214;
577539179529882;0.0912;-0.0783;0.0598;
577539189633268;0.2105;0.0186;0.0502;
577539199736601;0.0933;-0.0037;0.0609;
577539209837487;-0.1037;-0.0858;0.0438;
577539219940820;-0.1442;-0.0921;0.0704;
577539230044205;-0.0579;-0.0293;0.0193;
577539240122330;-0.0622;-0.0229;-0.0105;
577539250225664;-0.2188;-0.0751;-0.0052;
577539260329049;-0.2550;-0.0687;-0.0148;
577539270461653;-0.2752;-0.0772;-0.0041;
577539280565039;-0.1719;-0.0559;-0.0148;
577539290668372;-0.0238;0.0048;-0.0276;
577539300775924;-0.0409;-0.0101;-0.0435;
577539310879309;-0.1485;-0.0570;-0.0755;
577539320982695;-0.2486;-0.0826;-0.0893;
577539331078268;-0.4061;-0.1656;-0.1202;
577539341181601;-0.4391;-0.2104;-0.1724;
577539351284987;-0.3019;-0.2242;-0.2055;
577539361401757;0.0518;-0.1923;-0.1873;
577539371505143;0.6365;-0.0730;-0.1628;
577539381608528;1.2116;0.0357;-0.0968;
577539391700559;1.5544;0.1071;0.0395;
577539401803893;1.5108;0.0581;0.2260;
577539411907278;1.3895;-0.0016;0.3984;
577539422018320;1.5086;0.1348;0.4623;
577539432121705;1.4363;0.2497;0.5443;
577539442225091;0.7238;0.1486;0.6541;
577539452331757;0.0369;0.0794;0.6935;
577539462435143;-0.4455;0.0559;0.6903;
577539472538528;-0.8077;0.0325;0.6572;
577539482640299;-1.0036;0.0527;0.5869;
577539492743684;-1.2379;-0.0389;0.5188;
577539502847070;-1.2901;-0.0591;0.4367;
577539512935351;-0.9771;0.0399;0.3345;
577539523038684;-0.6501;0.1337;0.2590;
577539533142070;-0.6234;0.1113;0.1780;
577539543243164;-1.0004;-0.0570;0.1652;
577539553346497;-1.2305;-0.0836;0.0907;
577539563449882;-1.1655;0.0676;-0.0169;
577539573588893;-1.3338;0.0527;-0.1224;
577539583692226;-1.4744;0.0144;-0.2055;
577539593795612;-1.2401;0.1582;-0.3333;
577539603882487;-1.1325;0.1039;-0.4290;
577539613985872;-1.0228;0.0272;-0.5292;
577539624089309;-0.5776;0.0847;-0.5750;
577539634235195;-0.1676;0.0666;-0.5931;
577539644338580;0.2317;0.0218;-0.5931;
577539654441966;0.5608;-0.0336;-0.5430;
577539664491080;0.9570;-0.0304;-0.4865;
577539674594466;1.2638;0.0218;-0.4045;
577539684697851;1.2361;-0.0698;-0.2491;
577539694840924;1.3682;0.0186;-0.1277;
577539704944309;1.5129;0.2061;-0.0904;
577539715047695;0.9389;0.0613;0.0055;
577539725108476;0.2732;-0.0485;0.0960;
577539735211809;-0.0387;-0.0368;0.0758;
577539745315195;-0.1858;-0.0889;0.0204;
577539755442278;-0.0718;-0.0059;0.0108;
577539765545664;0.0603;0.0453;0.0065;
577539775649049;0.0230;0.0176;-0.0222;
577539785751028;-0.0111;0.0719;-0.0457;
577539795854414;-0.3413;-0.0144;-0.0116;
577539805957799;-0.6991;-0.0676;-0.0276;
577539816040455;-0.9238;-0.1422;-0.1096;
577539826143789;-0.9792;-0.2413;-0.1703;
577539836247174;-0.3838;0.0112;-0.2310;
577539846357278;0.2201;0.2114;-0.3141;
577539856461006;0.2711;0.1624;-0.3438;
577539866564391;0.2519;0.2944;-0.3427;
577539876665068;-0.3359;0.1145;-0.3545;
577539886768401;-1.1527;-0.2786;-0.3896;
577539896871787;-1.0771;-0.2903;-0.4972;
577539906985016;-0.4019;-0.2072;-0.5856;
577539917088401;0.4160;-0.0868;-0.5483;
577539927191787;1.2797;0.1433;-0.5206;
577539937290224;1.4299;0.0953;-0.4024;
577539947393610;1.3852;-0.0165;-0.2726;
577539957496995;1.4724;0.0634;-0.1842;
577539967610641;1.1093;-0.0527;-0.1043;
577539977714026;0.5917;-0.2349;0.0278;
577539987817412;0.4511;-0.2956;0.0907;
577539997910120;0.8920;-0.0730;0.0939;
577540008013506;1.4756;0.2710;0.1003;
577540018116891;1.2041;0.1869;0.2153;
577540028233349;0.6035;0.0698;0.3632;
577540038336735;0.3563;0.1869;0.3654;
577540048440120;-0.1154;0.0091;0.3877;
577540058527672;-0.4977;-0.1507;0.4570;
577540068631058;0.0262;0.1603;0.3718;
577540078734391;0.1860;0.1305;0.3100;
577540088834912;-0.1538;-0.0197;0.3920;
577540098938245;-0.0387;0.1933;0.3718;
577540109041631;-0.2539;0.1411;0.3068;
577540119138401;-0.8833;-0.0772;0.2579;
577540129241787;-1.0856;-0.0644;0.1897;
577540139345172;-0.9196;0.0538;0.0779;
577540149470641;-0.8322;0.0559;-0.0297;
577540159574026;-0.9483;-0.1028;-0.0595;
577540169677412;-0.6373;-0.0399;-0.1192;
577540179783558;-0.0260;0.2093;-0.1905;
577540189886943;-0.1208;0.0357;-0.2225;
577540199990381;-0.0888;-0.0708;-0.2001;
577540210076839;0.4788;0.1379;-0.1799;
577540220180172;0.4341;-0.0069;-0.1799;
577540230283558;0.4522;-0.0740;-0.1320;
577540240395433;0.8122;0.0921;-0.0755;
577540250498818;0.9644;0.0975;-0.0116;
577540260602204;0.7654;-0.0229;0.0417;
577540270696839;0.7089;-0.0495;0.1035;
577540280800172;0.7366;-0.0538;0.1642;
577540290903558;0.8888;-0.0442;0.2324;
577540301014287;1.2265;0.0889;0.2494;
577540311117724;1.2808;0.1507;0.3079;
577540321221110;0.8675;0.0389;0.4623;
577540331314860;0.5502;-0.0378;0.5188;
577540341418193;0.4362;-0.0123;0.5326;
577540351521579;0.4288;0.0517;0.5316;
577540361644183;0.1530;-0.0197;0.5827;
577540371747568;-0.2443;-0.1028;0.6125;
577540381850954;-0.4040;0.0708;0.5933;
577540391937464;-0.4818;0.1933;0.5656;
577540402040797;-0.6309;0.1784;0.5475;
577540412144183;-0.7076;0.2656;0.4655;
577540422257099;-0.9132;0.3040;0.3632;
577540432360537;-1.1708;0.1784;0.3270;
577540442463922;-1.2507;0.1028;0.2281;
577540452554756;-1.1921;0.0037;0.0896;
577540462658089;-1.1154;-0.0261;0.0108;
577540472761474;-1.0004;-0.0048;-0.0606;
577540482868245;-0.9281;-0.1166;-0.0851;
577540492971683;-0.7917;-0.1177;-0.1341;
577540503075068;-0.5829;-0.0762;-0.1501;
577540513193193;-0.4828;-0.1103;-0.1533;
577540523296579;-0.3083;-0.0123;-0.1671;
577540533399964;-0.1996;0.0868;-0.1873;
577540543481891;-0.2103;0.0889;-0.1863;
577540553585329;-0.1740;0.1923;-0.1490;
577540563688662;-0.1005;0.3072;-0.1831;
577540573807412;-0.1506;0.2411;-0.1692;
577540583910797;-0.2124;0.1007;-0.1756;
577540594014235;-0.0089;0.0314;-0.1714;
577540604118506;0.3009;0.1326;-0.1735;
577540614221943;0.3499;0.1358;-0.1245;
577540624325276;0.2391;-0.0421;-0.0734;
577540634410120;0.3308;-0.0911;-0.0382;
577540644513506;0.4991;-0.0112;-0.0116;
577540654616891;0.4458;-0.0357;-0.0031;
577540664719183;0.3531;-0.0517;0.0491;
577540674822568;0.3169;0.0165;0.0747;
577540684925954;0.1839;0.0133;0.0800;
577540695054079;0.0720;-0.0293;0.1024;
577540705157464;0.0582;0.0304;0.1024;
577540715260849;-0.0153;0.0975;0.1173;
577540725362099;-0.1549;0.0431;0.1130;
577540735465537;-0.2007;0.0293;0.1130;
577540745568870;-0.2582;0.0868;0.1035;
577540755673610;-0.4051;0.1198;0.0811;
577540765777047;-0.5712;0.0932;0.0395;
577540775880433;-0.6767;0.0368;-0.0201;
577540785984704;-0.6905;0.0410;-0.0435;
577540796088141;-0.6831;0.0581;-0.1309;
577540806191526;-0.7342;0.0016;-0.1767;
577540816288454;-0.6841;0.0634;-0.2172;
577540826391839;-0.5936;0.0932;-0.2449;
577540836495224;-0.6639;-0.0197;-0.2843;
577540846605433;-0.5244;-0.0027;-0.3045;
577540856708818;-0.2859;0.0847;-0.3162;
577540866812256;-0.2987;0.0442;-0.3226;
577540876909183;-0.2475;-0.0197;-0.3077;
577540887012620;-0.0973;0.0634;-0.3333;
577540897116006;0.0795;0.2166;-0.3747;
577540907214026;0.0635;0.2433;-0.3248;
577540917317412;0.0209;0.1923;-0.2939;
577540927420797;0.1285;0.1358;-0.3098;
577540937522829;0.3105;0.1710;-0.3098;
577540947626214;0.4415;0.1497;-0.2417;
577540957729599;0.4895;0.0399;-0.1799;
577540967860224;0.6343;0.0336;-0.1320;
577540977963610;0.7196;0.0293;-0.0617;
577540988066995;0.6833;0.0304;-0.0095;
577540998153662;0.5843;0.0229;0.0300;
577541008257047;0.4362;-0.0644;0.0864;
577541018360433;0.3904;-0.1401;0.1546;
577541028464183;0.4160;-0.1752;0.1642;
577541038567568;0.5172;-0.0953;0.1599;
577541048670954;0.4565;0.0218;0.1663;
577541058771891;0.2276;-0.0570;0.2345;
577541068875276;0.0848;-0.1103;0.2802;
577541078978714;0.1296;-0.0069;0.2611;
577541089083558;0.0806;0.0304;0.2812;
577541099186943;-0.0739;-0.0602;0.3164;
577541109290329;-0.0920;-0.0261;0.3057;
577541119410589;-0.0824;0.0144;0.2707;
577541129513974;-0.1634;0.0293;0.2473;
577541139617360;-0.2486;0.1678;0.2292;
577541149723870;-0.3764;0.1795;0.1738;
577541159827308;-0.5638;0.0538;0.1216;
577541169930641;-0.6511;-0.0091;0.0577;
577541179995276;-0.5510;-0.0197;0.0097;
577541190098662;-0.4296;-0.0399;-0.0340;
577541200202047;-0.3498;-0.0442;-0.0648;
577541210312256;-0.2976;-0.0144;-0.0808;
577541220415589;-0.3466;-0.0900;-0.0936;
577541230518974;-0.2305;-0.1390;-0.0595;
577541240643558;-0.0579;-0.0762;-0.1160;
577541250746943;0.0049;0.0027;-0.1447;
577541260850329;-0.0419;-0.0005;-0.1362;
577541270940693;0.0017;0.0410;-0.1383;
577541281044131;0.0784;0.1784;-0.1565;
577541291147464;0.0145;0.2125;-0.1586;
577541301244391;-0.0505;0.1156;-0.1607;
577541311347776;0.0103;0.0676;-0.1607;
577541321451162;0.1072;0.0304;-0.1628;
577541331558662;0.1125;-0.0762;-0.1575;
577541341662047;0.2063;-0.1379;-0.1426;
577541351765433;0.3872;-0.0900;-0.1341;
577541361885849;0.4266;-0.0772;-0.1298;
577541371989235;0.3393;-0.1699;-0.0787;
577541382092620;0.4245;-0.1742;-0.0414;
577541392178662;0.5736;-0.0804;-0.0372;
577541402282047;0.4447;-0.0495;-0.0105;
577541412385433;0.2031;-0.1230;0.0726;
577541422489183;0.1146;-0.1134;0.1152;
577541432592568;0.0806;-0.0975;0.1077;
577541442695954;0.0390;-0.2072;0.1248;
577541452794235;0.0891;-0.2253;0.1312;
577541462897568;0.1658;-0.1230;0.1216;
577541473000954;0.1764;-0.0826;0.1280;
577541483108454;0.1093;-0.0602;0.1269;
577541493211839;0.0262;0.0123;0.1663;
577541503315224;-0.0611;0.0016;0.1791;
577541513429391;-0.2156;-0.0474;0.1876;
577541523532829;-0.3498;-0.1134;0.1770;
577541533636162;-0.3232;-0.1124;0.1738;
577541543757620;-0.1964;-0.0378;0.1525;
577541553861006;-0.1133;0.0474;0.1322;
577541563964391;-0.1538;0.1049;0.1450;
577541574038193;-0.2497;0.1624;0.1205;
577541584141579;-0.2987;0.1049;0.0907;
577541594244912;-0.3264;0.0410;0.0449;
577541604396370;-0.2912;0.0666;0.0246;
577541614499756;-0.2465;0.0037;0.0150;
577541624603089;-0.2518;-0.0527;-0.0095;
577541634658454;-0.2209;-0.0591;-0.0126;
577541644761839;-0.1879;-0.1081;-0.0233;
577541654865224;-0.1261;-0.0943;-0.0201;
577541664987516;-0.0995;-0.0613;-0.0254;
577541675090901;-0.0941;-0.1262;-0.0233;
577541685194287;-0.0739;-0.1209;-0.0318;
577541695301787;-0.0292;-0.0602;-0.0361;
577541705405172;-0.0047;-0.0474;-0.0361;
577541715508558;0.0039;0.0059;-0.0414;
577541725613766;0.0198;0.0048;-0.0403;
577541735717151;0.0177;0.0005;-0.0403;
577541745820537;0.0316;0.0431;-0.0542;
577541755884495;0.0262;0.0037;-0.0403;
577541765987829;-0.0025;-0.0527;-0.0244;
