Sensor: bmi160 Gyroscope Non-wakeup
Vendor: BOSCH
TimestampGyro [ns]; GyroX [rad/s]; GyroY [rad/s]; GyroZ [rad/s]
3103742656842636;0.0120;0.0031;-0.0134;
3103742666955761;-0.0040;0.0041;-0.0124;
3103742677068522;0.0035;0.0041;-0.0145;
3103742687170397;0.0056;0.0041;-0.0156;
3103742697271334;0.0035;0.0052;-0.0145;
3103742707365918;0.0035;0.0041;-0.0134;
3103742717478522;0.0035;0.0020;-0.0124;
3103742727580761;0.0024;0.0041;-0.0124;
3103742737700813;0.0024;0.0052;-0.0134;
3103742747805709;0.0045;0.0041;-0.0134;
3103742757919355;0.0045;0.0020;-0.0124;
3103742768016178;0.0056;0.0031;-0.0134;
3103742778123470;0.0024;0.0020;-0.0134;
3103742788232116;0.0035;0.0020;-0.0134;
3103742798353366;0.0045;0.0020;-0.0145;
3103742808444668;0.0056;0.0020;-0.0134;
3103742818551543;0.0077;0.0009;-0.0134;
3103742828661647;0.0056;0.0009;-0.0156;
3103742838785553;0.0045;0.0041;-0.0156;
3103742848873938;0.0045;0.0041;-0.0166;
3103742858979616;0.0024;0.0063;-0.0156;
3103742869081907;0.0035;0.0063;-0.0156;
3103742879180136;0.0056;0.0063;-0.0177;
3103742889297532;0.0056;0.0052;-0.0188;
3103742899400136;0.0067;0.0041;-0.0177;
3103742909507011;0.0067;0.0041;-0.0188;
3103742919626855;0.0077;0.0052;-0.0156;
3103742929727272;0.0099;0.0063;-0.0156;
3103742939832741;0.0152;0.0063;-0.0145;
3103742949949355;0.0141;0.0052;-0.0124;
3103742960058261;0.0120;0.0073;-0.0071;
3103742970140449;0.0045;0.0031;-0.0039;
3103742980259095;0.0013;0.0020;-0.0028;
3103742990367793;-0.0008;0.0009;0.0004;
3103743000473522;-0.0029;0.0009;0.0057;
3103743010582897;-0.0019;0.0009;0.0089;
3103743020684511;-0.0061;-0.0001;0.0100;
3103743030787532;-0.0061;-0.0023;0.0164;
3103743040919980;-0.0061;-0.0044;0.0228;
3103743051004824;-0.0072;-0.0065;0.0260;
3103743061110032;-0.0083;-0.0076;0.0313;
3103743071227793;-0.0104;-0.0087;0.0366;
3103743081329563;-0.0104;-0.0087;0.0430;
3103743091435188;-0.0125;-0.0119;0.0494;
3103743101541491;-0.0157;-0.0150;0.0537;
3103743111646491;-0.0168;-0.0161;0.0590;
3103743121759355;-0.0189;-0.0182;0.0664;
3103743131855293;-0.0178;-0.0193;0.0728;
3103743141957532;-0.0168;-0.0225;0.0771;
3103743152065293;-0.0189;-0.0257;0.0792;
3103743162173730;-0.0136;-0.0300;0.0782;
3103743172293209;-0.0115;-0.0342;0.0707;
3103743182391230;-0.0115;-0.0342;0.0611;
3103743192497272;-0.0093;-0.0268;0.0515;
3103743202623834;-0.0125;-0.0140;0.0441;
3103743212735397;-0.0008;-0.0065;0.0398;
3103743222836699;-0.0125;-0.0065;0.0387;
3103743232919095;-0.0274;-0.0023;0.0398;
3103743243012220;-0.0413;0.0137;0.0441;
3103743253142897;-0.1212;0.0329;0.0505;
3103743263264459;-0.2531;0.0265;0.0526;
3103743273426282;-0.2904;-0.0108;0.0515;
3103743283458105;-0.1903;-0.0459;0.0558;
3103743293582116;-0.0296;-0.0630;0.0771;
3103743303668938;0.0173;-0.0566;0.0973;
3103743313805605;-0.0072;-0.0342;0.1027;
3103743323886907;-0.0178;-0.0214;0.1005;
3103743334014668;-0.0253;-0.0278;0.1016;
3103743344097741;-0.0125;-0.0417;0.1144;
3103743354213001;0.0258;-0.0545;0.1229;
3103743364306699;0.0993;-0.0587;0.1208;
3103743374447116;0.1771;-0.0523;0.1250;
3103743384534355;0.2314;-0.0459;0.1367;
3103743394646022;0.2751;-0.0470;0.1517;
3103743404759876;0.3198;-0.0577;0.1570;
3103743414843157;0.3720;-0.0672;0.1612;
3103743424978470;0.4317;-0.0726;0.1772;
3103743435084511;0.4869;-0.0768;0.1975;
3103743445181959;0.5466;-0.0758;0.2166;
3103743455292168;0.6276;-0.0779;0.2348;
3103743465384668;0.6947;-0.0864;0.2550;
3103743475515345;0.7096;-0.0971;0.2752;
3103743485615761;0.7383;-0.1035;0.2933;
3103743495720501;0.7905;-0.1024;0.3060;
3103743505813938;0.7927;-0.1024;0.3166;
3103743515928313;0.8065;-0.0992;0.3273;
3103743526054407;0.8044;-0.0939;0.3379;
3103743536138522;0.7660;-0.0960;0.3433;
3103743546245345;0.7394;-0.0939;0.3465;
3103743556346334;0.6595;-0.0896;0.3475;
3103743566465918;0.5786;-0.0864;0.3422;
3103743576569043;0.5040;-0.0811;0.3390;
3103743586676543;0.3699;-0.0811;0.3358;
3103743596822272;0.1377;-0.0960;0.3262;
3103743606885293;-0.0445;-0.0928;0.3220;
3103743616993678;-0.0945;-0.0704;0.3220;
3103743627102428;-0.0988;-0.0513;0.3198;
3103743637174043;-0.1020;-0.0385;0.3209;
3103743647308157;-0.1148;-0.0374;0.3166;
3103743657414824;-0.1180;-0.0502;0.3177;
3103743667531543;-0.0860;-0.0587;0.3177;
3103743677640449;-0.0775;-0.0651;0.3124;
3103743687738938;-0.0700;-0.0715;0.2997;
3103743697846543;-0.0434;-0.0736;0.2880;
3103743707944980;-0.0242;-0.0747;0.2848;
3103743718031959;-0.0093;-0.0736;0.2838;
3103743728177428;0.0418;-0.0715;0.2816;
3103743738282480;0.1238;-0.0736;0.2752;
3103743748387532;0.2080;-0.0768;0.2688;
3103743758506386;0.2644;-0.0800;0.2624;
3103743768611438;0.2857;-0.0854;0.2518;
3103743778716491;0.2655;-0.0949;0.2390;
3103743788817845;0.2591;-0.0885;0.2305;
3103743798922897;0.2889;-0.0715;0.2230;
3103743809027949;0.3198;-0.0577;0.2156;
3103743819128470;0.3518;-0.0470;0.2060;
3103743829233522;0.3806;-0.0364;0.1889;
3103743839338574;0.3646;-0.0321;0.1708;
3103743849449303;0.3198;-0.0459;0.1698;
3103743859554355;0.3102;-0.0619;0.1687;
3103743869659407;0.3060;-0.0672;0.1581;
3103743879773886;0.2794;-0.0662;0.1431;
3103743889878938;0.2474;-0.0662;0.1314;
3103743899983991;0.2314;-0.0630;0.1218;
3103743910093678;0.2250;-0.0534;0.1122;
3103743920198730;0.2218;-0.0459;0.1048;
3103743930303782;0.2293;-0.0385;0.0973;
3103743940416491;0.2389;-0.0332;0.0920;
3103743950521543;0.2495;-0.0300;0.0899;
3103743960626595;0.2602;-0.0236;0.0867;
3103743970735761;0.2517;-0.0065;0.0814;
3103743980840813;0.2570;0.0233;0.0803;
3103743990945866;0.2698;0.0499;0.0824;
3103744001056178;0.2687;0.0648;0.0814;
3103744011161230;0.2644;0.0893;0.0782;
3103744021266282;0.2261;0.0627;0.0750;
3103744031365293;0.1664;-0.0438;0.0654;
3103744041470293;0.1643;-0.1099;0.0569;
3103744051575345;0.1718;-0.0917;0.0473;
3103744061687116;0.1409;-0.0598;0.0387;
3103744071792168;0.0716;-0.0523;0.0292;
3103744081897220;-0.0008;-0.0278;0.0206;
3103744092010761;-0.0455;0.0126;0.0079;
3103744102115813;-0.0594;0.0318;-0.0028;
3103744112220866;-0.0924;0.0222;-0.0007;
3103744122327584;-0.1371;-0.0150;-0.0007;
3103744132432636;-0.1382;-0.0374;-0.0103;
3103744142537741;-0.1009;-0.0481;-0.0220;
3103744152662741;-0.0839;-0.0491;-0.0358;
3103744162767793;-0.1095;-0.0268;-0.0411;
3103744172872845;-0.1318;-0.0055;-0.0326;
3103744182974355;-0.1308;0.0052;-0.0348;
3103744193079407;-0.1105;0.0041;-0.0443;
3103744203184459;-0.0828;0.0052;-0.0582;
3103744213283886;-0.0626;0.0158;-0.0688;
3103744223388938;-0.0370;0.0382;-0.0710;
3103744233493991;-0.0221;0.0510;-0.0731;
3103744243615970;-0.0242;0.0787;-0.0784;
3103744253721022;-0.0402;0.1405;-0.0827;
3103744263826074;-0.0615;0.1075;-0.0891;
3103744273937949;-0.0434;-0.0630;-0.1029;
3103744284043001;-0.0210;-0.1077;-0.1157;
3103744294148053;-0.0125;-0.0800;-0.1285;
3103744304254511;-0.0210;-0.1173;-0.1541;
3103744314359563;-0.0285;-0.1248;-0.1498;
3103744324464616;-0.0477;-0.0598;-0.1413;
3103744334589980;-0.0839;-0.0055;-0.1519;
3103744344695032;-0.1020;-0.0076;-0.1743;
3103744354800084;-0.0626;-0.0097;-0.1967;
3103744364895553;0.0024;0.0659;-0.2084;
3103744375000657;0.0248;0.0830;-0.2212;
3103744385105657;0.0599;0.0318;-0.2382;
3103744395210188;0.1451;0.1352;-0.2393;
3103744405315188;0.1718;0.2575;-0.2371;
3103744415420241;0.0620;0.1064;-0.2489;
3103744425526438;-0.0083;-0.0864;-0.2553;
3103744435631438;0.1047;0.0041;-0.2553;
3103744445736491;0.1877;0.0787;-0.2712;
3103744455852220;0.1803;0.0372;-0.3021;
3103744465957272;0.1824;0.0340;-0.3180;
3103744476062272;0.1451;-0.0204;-0.3169;
3103744486185970;0.1281;-0.0747;-0.3073;
3103744496291022;0.1952;-0.0875;-0.2936;
3103744506396074;0.3433;-0.0822;-0.3073;
3103744516522011;0.4624;0.0233;-0.3297;
3103744526627063;0.3656;0.1021;-0.3425;
3103744536732116;0.2868;0.0414;-0.3393;
3103744546813209;0.3401;-0.0225;-0.3371;
3103744556918209;0.3944;-0.0427;-0.3521;
3103744567023261;0.4413;-0.0182;-0.3585;
3103744577132168;0.5114;0.0361;-0.3563;
3103744587237168;0.4667;-0.0587;-0.3595;
3103744597342220;0.4253;-0.1439;-0.3830;
3103744607452897;0.5296;0.0158;-0.4021;
3103744617557897;0.5988;0.1309;-0.4075;
3103744627662949;0.5818;0.0020;-0.3936;
3103744637809824;0.5722;-0.1280;-0.3893;
3103744647914876;0.6169;-0.0651;-0.4245;
3103744658019928;0.6872;0.0116;-0.4543;
3103744668088938;0.6872;0.0020;-0.4458;
3103744678193991;0.6574;-0.0076;-0.4351;
3103744688298991;0.7245;0.0606;-0.4607;
3103744698412376;0.7724;0.0702;-0.4873;
3103744708517376;0.7639;-0.0555;-0.4607;
3103744718622428;0.8939;-0.0001;-0.4565;
3103744728748366;1.0100;0.0819;-0.4810;
3103744738854824;0.9397;-0.1258;-0.4405;
3103744748961230;0.9226;-0.1322;-0.4106;
3103744759081907;0.8417;0.0670;-0.4437;
3103744769188366;0.5807;0.1032;-0.4543;
3103744779294772;0.4040;0.1479;-0.4288;
3103744789379668;0.2943;0.2213;-0.3776;
3103744799486126;0.2708;0.1607;-0.3340;
3103744809592532;0.2730;0.1288;-0.3382;
3103744819698991;0.2623;0.0265;-0.3095;
3103744829805449;0.2431;-0.0822;-0.2563;
3103744839911855;0.2154;-0.0971;-0.2403;
3103744850020657;0.1963;-0.2153;-0.2222;
3103744860127116;0.1686;-0.2494;-0.2158;
3103744870233522;0.1430;-0.1546;-0.2031;
3103744880349199;0.1579;-0.1482;-0.2052;
3103744890455657;0.1356;-0.1045;-0.2371;
3103744900562063;0.1366;0.0627;-0.2627;
3103744910656751;0.1611;0.1032;-0.2489;
3103744920763209;0.1814;-0.0630;-0.2308;
3103744930869616;0.1686;-0.1056;-0.2489;
3103744940981595;0.1622;-0.0481;-0.2861;
3103744951088053;0.1995;-0.0332;-0.2979;
3103744961194459;0.2602;-0.1652;-0.2798;
3103744971303261;0.2517;-0.2398;-0.2691;
3103744981409720;0.2261;-0.1439;-0.2787;
3103744991516126;0.3443;-0.0545;-0.2755;
3103745001630136;0.5381;-0.0715;-0.2308;
3103745011736595;0.7330;-0.0438;-0.1839;
3103745021843001;0.9620;-0.0427;-0.1498;
3103745031933209;1.1696;-0.0704;-0.1200;
3103745042039668;1.4114;0.0169;-0.0912;
3103745052146074;1.6426;0.0169;-0.0103;
3103745062252845;1.7703;-0.1194;0.1133;
3103745072359303;1.8779;-0.1674;0.1463;
3103745082465709;1.9365;-0.1461;0.0824;
3103745092593991;1.9950;-0.1429;0.0931;
3103745102700449;2.0504;-0.0704;0.1698;
3103745112806855;2.1207;0.0169;0.2081;
3103745122892532;2.2432;0.1373;0.1858;
3103745132998991;2.3848;0.1735;0.2028;
3103745143105397;2.3390;0.0222;0.3220;
3103745153241074;2.2486;0.0222;0.3869;
3103745163347532;2.2347;0.0425;0.4040;
3103745173453938;2.0856;-0.0832;0.4253;
3103745183558991;1.9088;-0.0726;0.4019;
3103745193665449;1.8768;0.1149;0.3742;
3103745203771855;1.8108;0.1831;0.4509;
3103745213885345;1.4913;0.1053;0.5041;
3103745223991803;1.2559;0.1543;0.4136;
3103745234098209;1.1270;0.2277;0.3582;
3103745244186907;0.9077;0.2053;0.4519;
3103745254293366;0.6148;0.1927;0.4945;
3103745264399772;0.5573;0.3182;0.4296;
3103745274530813;0.4454;0.2788;0.4583;
3103745284637272;0.0887;0.1756;0.5457;
3103745294743678;-0.1679;0.1756;0.5595;
3103745304828574;-0.3234;0.1724;0.5158;
3103745314935032;-0.5237;0.1469;0.5244;
3103745325041438;-0.7591;0.2075;0.5339;
3103745335160761;-0.8825;0.2373;0.5265;
3103745345267220;-1.0999;0.2117;0.5190;
3103745355373626;-1.2980;0.1735;0.4956;
3103745365472741;-1.4853;0.1703;0.4722;
3103745375579199;-1.5695;0.2213;0.3944;
3103745385685605;-1.6536;0.1639;0.4051;
3103745395804407;-1.8422;0.1458;0.3774;
3103745405910866;-1.9040;0.0755;0.3305;
3103745416017272;-2.0817;-0.0854;0.3305;
3103745426103782;-2.1915;0.0095;0.2869;
3103745436210241;-2.1137;0.0862;0.2103;
3103745446316647;-2.0807;-0.0055;0.1154;
3103745456427324;-2.0966;0.0105;0.0846;
3103745466533782;-1.9954;0.1053;0.0569;
3103745476640188;-1.9221;0.0095;0.0473;
3103745486754095;-1.9775;0.0244;-0.0294;
3103745496860553;-1.8901;0.0670;-0.0944;
3103745506966959;-1.7836;0.0499;-0.1285;
3103745517052324;-1.7133;0.1330;-0.1455;
3103745527181543;-1.6323;0.0893;-0.1913;
3103745537288001;-1.5343;-0.0715;-0.2968;
3103745547394407;-1.4704;0.0968;-0.3116;
3103745557505657;-1.2969;0.2682;-0.2893;
3103745567612116;-1.0061;0.1586;-0.3340;
3103745577718522;-0.9007;0.0702;-0.3766;
3103745587818366;-0.8261;0.1128;-0.3712;
3103745597924824;-0.6228;0.0872;-0.3840;
3103745608031230;-0.4438;0.0201;-0.3648;
3103745618144095;-0.2734;0.1309;-0.3222;
3103745628250553;-0.1148;0.1959;-0.2851;
3103745638356959;-0.0562;0.1884;-0.2627;
3103745648460084;0.0280;0.2043;-0.2659;
3103745658566543;0.1142;0.1597;-0.2851;
3103745668672949;0.1547;0.1224;-0.2329;
3103745678806178;0.1068;-0.0374;-0.1935;
3103745688912636;0.1632;-0.0875;-0.1764;
3103745699019043;0.1846;-0.0278;-0.1115;
3103745709131699;0.1654;-0.1237;-0.0742;
3103745719238157;0.1728;-0.2217;-0.0710;
3103745729344563;0.1867;-0.1354;-0.0305;
3103745739418782;0.2101;-0.0981;0.0249;
3103745749525241;0.2751;0.0265;0.0185;
3103745759631647;0.3529;0.1618;0.0515;
3103745769757949;0.3145;0.1075;0.0963;
3103745779864407;0.2591;0.1224;0.0867;
3103745789970813;0.1739;0.0808;0.0515;
3103745800077741;0.0088;-0.0534;0.0707;
3103745810184199;-0.0775;-0.0342;0.0707;
3103745820290605;-0.1148;-0.0459;0.0206;
3103745830381334;-0.1627;-0.0747;0.0025;
3103745840487793;-0.1446;-0.0055;0.0025;
3103745850594199;-0.1553;-0.0182;0.0079;
3103745860703678;-0.2180;-0.1099;0.0057;
3103745870810136;-0.1700;-0.0044;-0.0060;
3103745880916543;-0.1041;0.0787;-0.0539;
3103745891026751;-0.1180;0.0819;-0.0390;
3103745901133209;-0.1222;0.0542;-0.0156;
3103745911239616;-0.1116;0.0425;-0.0337;
3103745921352949;-0.1180;0.0712;-0.0561;
3103745931459407;-0.1286;0.0435;-0.0923;
3103745941565813;-0.1435;-0.0758;-0.1391;
3103745951664928;-0.1073;-0.0385;-0.1328;
3103745961771386;-0.0583;0.0254;-0.1466;
3103745971877793;-0.0477;-0.0470;-0.1711;
3103745981990345;-0.0210;0.0222;-0.1562;
3103745992096803;0.0503;0.1618;-0.1903;
3103746002203209;0.0077;0.0574;-0.2340;
3103746012301907;-0.1446;-0.0694;-0.2308;
3103746022408366;-0.1190;-0.0417;-0.2606;
3103746032514772;-0.0338;0.0095;-0.3021;
3103746042664511;-0.0296;0.0766;-0.3095;
3103746052770970;-0.0232;0.0222;-0.3254;
3103746062877376;0.0067;0.0169;-0.3137;
3103746072932741;0.1111;0.1266;-0.3318;
3103746083039199;0.1718;0.0851;-0.3648;
3103746093145605;0.2591;0.0659;-0.3233;
3103746103265553;0.4742;0.0979;-0.3233;
3103746113372011;0.6734;0.0222;-0.2883;
3103746123478418;0.8864;0.1117;-0.2616;
3103746133602793;1.0801;0.2011;-0.2350;
3103746143709251;1.2474;0.0201;-0.1626;
3103746153815657;1.3933;-0.0289;-0.1232;
3103746163900657;1.5009;0.0510;-0.1136;
3103746174007116;1.5840;-0.0822;-0.0305;
3103746184113522;1.5883;-0.1429;0.0462;
3103746194224720;1.5425;-0.1248;0.0760;
3103746204331178;1.4924;-0.0875;0.1005;
3103746214437584;1.4168;-0.0683;0.1091;
3103746224559824;1.3273;-0.0236;0.1346;
3103746234666282;1.1973;0.0659;0.1879;
3103746244772688;1.0791;0.0531;0.1730;
3103746254870761;0.7980;-0.0353;0.1719;
3103746264977220;0.5189;-0.0491;0.1676;
3103746275083626;0.3433;0.1096;0.1389;
3103746285207220;0.1888;0.0308;0.1964;
3103746295313678;-0.0221;-0.0427;0.1964;
3103746305420084;-0.2297;-0.0161;0.1559;
3103746315519824;-0.3916;0.0148;0.1719;
3103746325626282;-0.5312;0.0254;0.1538;
3103746335732688;-0.7037;0.0403;0.1538;
3103746345842845;-0.8442;0.0808;0.1559;
3103746355949303;-0.9731;0.0329;0.1176;
3103746366055709;-1.0668;0.0521;0.1272;
3103746376164928;-1.1148;0.1597;0.1463;
3103746386271386;-1.1467;0.1117;0.1176;
3103746396377793;-1.2042;0.0595;0.1314;
3103746406463991;-1.2298;0.0265;0.1069;
3103746416570449;-1.2543;0.0446;0.0824;
3103746426676855;-1.2085;0.0553;0.0782;
3103746436849616;-1.1734;0.0201;0.0451;
3103746446956074;-1.1052;0.0435;0.0718;
3103746457062480;-1.0327;0.1043;0.0579;
3103746467112220;-0.9784;0.0361;-0.0156;
3103746477218678;-0.9390;0.0286;-0.0230;
3103746487325084;-0.8559;0.0744;-0.0518;
3103746497433886;-0.7325;0.0254;-0.0582;
3103746507540345;-0.6643;-0.0214;-0.0550;
3103746517646751;-0.4981;0.0627;-0.0838;
3103746527749928;-0.3256;0.0862;-0.0465;
3103746537856595;-0.2105;0.0137;-0.0667;
3103746547963261;-0.1510;-0.0640;-0.1146;
3103746558123782;-0.1052;0.0169;-0.1029;
3103746568230449;-0.0136;0.1192;-0.1189;
3103746578337116;0.0759;0.1170;-0.0880;
3103746588396178;0.0823;-0.0587;-0.0806;
3103746598502845;0.0684;-0.0076;-0.1008;
3103746608609511;0.1196;0.0766;-0.1093;
3103746618710449;0.1579;0.0542;-0.1274;
3103746628817116;0.0887;-0.0715;-0.1083;
3103746638923782;0.0770;-0.0875;-0.1221;
3103746649031803;0.1441;0.0180;-0.1136;
3103746659138470;0.1739;0.0542;-0.1072;
3103746669245136;0.1473;-0.0140;-0.1477;
3103746679349511;0.1313;-0.0715;-0.1040;
3103746689456178;0.1196;0.0435;-0.0688;
3103746699562845;0.1419;0.0830;-0.0774;
3103746709668157;0.1036;-0.0172;-0.0646;
3103746719774824;0.0024;-0.0800;-0.0848;
3103746729881491;-0.0210;-0.0023;-0.0720;
3103746739997116;-0.0221;0.0180;-0.0976;
3103746750103782;-0.0466;-0.0236;-0.0646;
3103746760210449;-0.0871;0.0542;-0.0774;
3103746770327741;-0.0647;0.1192;-0.0561;
3103746780434407;-0.0956;0.0638;-0.0710;
3103746790541074;-0.1222;0.0084;-0.0880;
3103746800646074;-0.1382;-0.0779;-0.0667;
3103746810752741;-0.1233;-0.1237;-0.1040;
3103746820859407;-0.0892;-0.0481;-0.0891;
3103746830965032;-0.0423;-0.0225;-0.0955;
3103746841071699;-0.0349;-0.0321;-0.0465;
3103746851178366;-0.0423;0.0286;-0.0635;
3103746861286386;-0.0115;0.0403;-0.0923;
3103746871393053;-0.0242;0.0329;-0.1274;
3103746881499720;-0.0509;-0.0108;-0.0987;
3103746891601907;-0.0562;-0.0193;-0.0944;
3103746901708574;-0.0477;0.0595;-0.1008;
3103746911815241;0.0546;0.0734;-0.0944;
3103746921926699;0.0620;0.0063;-0.1242;
3103746932033366;0.0802;-0.0214;-0.1285;
3103746942140032;0.1206;-0.0609;-0.1264;
3103746952239303;0.1569;-0.0150;-0.0997;
3103746962345970;0.2027;-0.0289;-0.0678;
3103746972452636;0.2623;-0.1035;-0.0944;
3103746982568470;0.2762;-0.1226;-0.0848;
3103746992675136;0.3816;0.0680;-0.0656;
3103747002781803;0.5359;0.1362;-0.0273;
3103747012869303;0.5711;-0.0225;-0.0433;
3103747022975970;0.4933;-0.0214;-0.0166;
3103747033082636;0.4912;0.1202;0.0068;
3103747043215970;0.5264;0.0585;0.0174;
3103747053322636;0.3635;-0.1514;0.0164;
3103747063429303;0.1846;-0.1791;0.0196;
3103747073503470;0.1377;-0.0395;0.0164;
3103747083610136;0.1079;0.0318;-0.0273;
3103747093716803;0.0876;-0.0715;-0.0774;
3103747103867428;0.0407;0.0009;-0.1104;
3103747113974095;0.0961;0.1383;-0.0944;
3103747124080761;0.1579;0.0585;-0.1168;
3103747134161699;0.1260;-0.0470;-0.1434;
3103747144268366;0.1387;-0.0225;-0.1285;
3103747154375032;0.1867;0.0798;-0.1487;
3103747164505657;0.3294;0.0968;-0.1700;
3103747174612324;0.3390;-0.0875;-0.2009;
3103747184718991;0.2911;-0.1461;-0.1551;
3103747194831595;0.2453;-0.1386;-0.1828;
3103747204938261;0.3113;-0.1834;-0.2041;
3103747215044928;0.3369;-0.1056;-0.1754;
3103747225134511;0.3316;-0.0470;-0.1743;
3103747235241178;0.4678;0.1075;-0.1551;
3103747245347845;0.5849;0.0830;-0.1700;
3103747255455032;0.7341;-0.0353;-0.1413;
3103747265561699;0.6915;-0.0214;-0.1445;
3103747275668366;0.6329;-0.0342;-0.1200;
3103747285777220;0.6808;-0.0502;-0.0827;
3103747295883886;0.6616;-0.0310;-0.0869;
3103747305990553;0.6766;-0.0332;-0.0614;
3103747316095501;0.6851;0.0190;-0.0262;
3103747326202168;0.7138;0.0276;-0.0017;
3103747336308834;0.7554;-0.0097;0.0174;
3103747346415345;0.7298;-0.0001;0.0483;
3103747356522011;0.6776;-0.0374;0.1208;
3103747366628678;0.6308;-0.0523;0.1612;
3103747376725761;0.5136;-0.0949;0.1804;
3103747386832428;0.3869;0.0766;0.1623;
3103747396939095;0.3699;0.2181;0.1144;
3103747407051074;0.5349;-0.0289;0.1431;
3103747417157741;0.5722;-0.1162;0.1900;
3103747427264407;0.3209;0.0329;0.2049;
3103747437365032;0.3124;0.0553;0.1517;
3103747447471699;0.3454;-0.0257;0.1676;
3103747457578366;0.2698;0.0073;0.2060;
3103747467708470;0.1941;0.0830;0.2198;
3103747477815136;0.2367;0.0435;0.2305;
3103747487921803;0.3017;-0.0172;0.2273;
3103747498006595;0.2453;-0.0374;0.2156;
3103747508113261;0.2336;0.0585;0.2848;
3103747518219928;0.2293;0.0872;0.2859;
3103747528328834;0.2719;0.0116;0.2859;
3103747538435657;0.2549;0.0233;0.3134;
3103747548542480;0.2367;0.0595;0.3102;
3103747558666647;0.2985;0.0382;0.3209;
3103747568773470;0.2815;-0.0172;0.3486;
3103747578880293;0.2410;-0.0055;0.3624;
3103747588978366;0.2495;0.0467;0.3731;
3103747599085188;0.2836;0.0318;0.4040;
3103747609192011;0.2506;0.0382;0.4072;
3103747619288834;0.2325;0.1490;0.4381;
3103747629395657;0.2208;0.0830;0.4935;
3103747639502480;0.1814;-0.0246;0.4647;
3103747649612532;0.0599;0.0648;0.4466;
3103747659719355;-0.0519;0.0606;0.4040;
3103747669826178;-0.0945;-0.0321;0.4413;
3103747679937324;-0.2467;-0.0385;0.4562;
3103747690044147;-0.3937;0.0723;0.4264;
3103747700150970;-0.4502;0.0925;0.3859;
3103747710258366;-0.4885;0.0308;0.3976;
3103747720365188;-0.5578;-0.0023;0.3891;
3103747730472011;-0.6856;-0.0065;0.3411;
3103747740580761;-0.8058;0.0318;0.3188;
3103747750687584;-0.7835;0.1948;0.2859;
3103747760794407;-0.7421;0.0915;0.2901;
3103747770899720;-0.7453;-0.0332;0.2635;
3103747781006543;-0.7782;0.0830;0.2156;
3103747791113366;-0.8261;0.1426;0.1932;
3103747801219303;-0.7485;0.1373;0.2103;
3103747811326126;-0.6558;0.0936;0.2060;
3103747821432949;-0.7101;0.0531;0.1602;
3103747831535657;-0.7314;0.0627;0.1421;
3103747841642480;-0.7048;-0.0001;0.1442;
3103747851749303;-0.6888;0.0116;0.1218;
3103747861854824;-0.6260;0.1064;0.1410;
3103747871961647;-0.5812;0.0031;0.1112;
3103747882068470;-0.5216;-0.0449;0.1080;
3103747892179824;-0.4608;0.1469;0.1367;
3103747902286647;-0.3596;0.2341;0.1730;
3103747912393470;-0.2744;0.0553;0.1634;
3103747922494407;-0.3064;0.0126;0.1431;
3103747932601230;-0.3202;0.1075;0.1442;
3103747942708053;-0.2712;0.1979;0.1570;
3103747952827116;-0.2734;0.1107;0.1847;
3103747962933938;-0.3479;-0.0523;0.1538;
3103747973040761;-0.3586;0.0510;0.1399;
3103747983191386;-0.4012;0.0691;0.1336;
3103747993298209;-0.4065;-0.0875;0.0931;
3103748003405032;-0.4140;-0.0087;0.0941;
3103748013453886;-0.4470;0.0734;0.1101;
3103748023560709;-0.4172;0.0510;0.0803;
3103748033667532;-0.4182;0.0638;0.0451;
3103748043772011;-0.4843;0.0084;0.0036;
3103748053878834;-0.4907;0.0766;-0.0571;
3103748063985657;-0.4896;0.1501;-0.0571;
3103748074104928;-0.5365;-0.0374;-0.1157;
3103748084211751;-0.5322;-0.0076;-0.1626;
3103748094318574;-0.5109;0.1490;-0.1828;
3103748104430761;-0.4704;0.0276;-0.2222;
3103748114537584;-0.4406;0.0148;-0.2979;
3103748124644407;-0.3884;0.0372;-0.2521;
3103748134759720;-0.3394;0.0467;-0.2393;
3103748144866543;-0.2744;0.1373;-0.2563;
3103748154973366;-0.2254;0.1266;-0.2893;
3103748165103574;-0.2393;0.0435;-0.2755;
3103748175210397;-0.2702;0.0712;-0.3158;
3103748185317220;-0.2414;0.0606;-0.3244;
3103748195386595;-0.2095;0.0084;-0.3478;
3103748205493418;-0.2222;0.0063;-0.3712;
3103748215600241;-0.1956;-0.0033;-0.3744;
3103748225728001;-0.1286;0.0212;-0.3776;
3103748235834824;-0.0413;0.1053;-0.3340;
3103748245941647;0.0099;0.0830;-0.3467;
3103748256031491;0.0727;0.0563;-0.3222;
3103748266138313;0.0791;0.0862;-0.2840;
3103748276245136;0.0876;0.0617;-0.2627;
3103748286355188;0.0972;0.0073;-0.2553;
3103748296462011;0.1111;0.0126;-0.2276;
3103748306568834;0.1238;-0.0236;-0.1850;
3103748316671595;0.1409;-0.1077;-0.1615;
3103748326778418;0.2357;0.0095;-0.1445;
3103748336885241;0.3049;0.0190;-0.0859;
3103748346985553;0.3358;-0.0747;-0.0518;
3103748357092376;0.4029;0.0137;-0.0284;
3103748367199199;0.4317;0.0595;0.0164;
3103748377313001;0.4114;-0.0033;0.0558;
3103748387419824;0.4518;0.0478;0.0686;
3103748397526647;0.4539;0.0872;0.1176;
3103748407626178;0.3923;0.0084;0.1240;
3103748417733001;0.3113;-0.1099;0.1708;
3103748427839824;0.1782;-0.0704;0.1900;
3103748437939824;0.1174;0.0297;0.1708;
3103748448046647;0.0812;-0.0843;0.1751;
3103748458153470;0.0099;-0.0587;0.1581;
3103748468279928;-0.0360;0.0851;0.1463;
3103748478386751;-0.0818;0.0254;0.1272;
3103748488493574;-0.1382;-0.0992;0.0760;
3103748498589303;-0.2276;-0.0427;0.0654;
3103748508696126;-0.2638;0.0755;0.0792;
3103748518802949;-0.2702;-0.0236;0.0462;
3103748528917011;-0.2883;-0.0087;-0.0166;
3103748539023938;-0.3501;0.0361;-0.0348;
3103748549130866;-0.3852;-0.0683;-0.0635;
3103748559230866;-0.4087;-0.1535;-0.0795;
3103748569337793;-0.4076;-0.0182;-0.1157;
3103748579444720;-0.3330;0.0819;-0.1083;
3103748589552949;-0.2883;0.0063;-0.1573;
3103748599659876;-0.2936;0.0009;-0.1722;
3103748609766803;-0.3266;0.0148;-0.1764;
3103748619866491;-0.3160;0.0073;-0.2137;
3103748629973418;-0.2691;0.0627;-0.2425;
3103748640080345;-0.2063;0.1149;-0.1988;
3103748650190866;-0.2233;-0.0225;-0.2350;
3103748660297793;-0.1977;-0.0001;-0.2350;
3103748670404720;-0.2084;0.0851;-0.2563;
3103748680520241;-0.1648;0.0276;-0.2659;
3103748690627168;-0.1446;-0.1077;-0.2702;
3103748700734095;-0.1775;-0.0917;-0.2755;
3103748710834616;-0.1414;0.0180;-0.2861;
3103748720941543;-0.0967;0.0382;-0.3084;
3103748731048470;-0.0349;0.1383;-0.2616;
3103748741148157;-0.0008;0.1692;-0.2521;
3103748751255084;0.0301;0.0478;-0.2766;
3103748761362011;-0.0083;-0.0449;-0.2510;
3103748771475345;-0.0924;-0.0268;-0.2670;
3103748781582272;-0.0871;-0.0129;-0.2553;
3103748791689199;-0.0626;-0.0587;-0.2680;
3103748801794199;-0.0296;-0.0204;-0.2627;
3103748811901126;-0.0242;0.0190;-0.2276;
3103748822008053;0.0439;0.0553;-0.2158;
3103748832109303;0.1047;-0.0310;-0.2446;
3103748842216230;0.1356;0.0329;-0.2457;
3103748852323157;0.1537;0.1192;-0.2116;
3103748862429303;0.2730;0.1256;-0.2233;
3103748872536230;0.3678;0.0606;-0.1711;
3103748882643157;0.3646;0.0340;-0.1594;
3103748892768886;0.3795;0.0244;-0.1434;
3103748902875813;0.3827;-0.0534;-0.1317;
3103748912982741;0.4296;-0.0459;-0.0838;
3103748923091178;0.4561;0.0137;-0.0667;
3103748933198105;0.5029;0.0116;-0.0273;
3103748943305032;0.5104;-0.0033;0.0047;
3103748953390241;0.4869;-0.0332;0.0121;
3103748963497168;0.4699;-0.0374;0.0526;
3103748973604095;0.4413;-0.0097;0.0814;
3103748983751595;0.3987;-0.0214;0.1272;
3103748993858522;0.3539;0.0158;0.1644;
3103749003965449;0.3071;0.1064;0.1559;
3103749014036803;0.2421;-0.0353;0.1634;
3103749024143730;0.1324;-0.0843;0.1527;
3103749034250657;-0.0008;0.0031;0.1570;
3103749044360241;-0.0306;-0.0364;0.1304;
3103749054467168;-0.0924;-0.0683;0.1463;
3103749064574095;-0.1935;0.0350;0.1176;
3103749074695397;-0.1924;-0.0087;0.1027;
3103749084802324;-0.2521;-0.1322;0.0952;
3103749094909251;-0.3692;-0.1354;0.0728;
3103749104991907;-0.4023;-0.1173;0.0377;
3103749115098834;-0.3522;-0.0736;0.0111;
3103749125205761;-0.3320;-0.0076;-0.0230;
3103749135323834;-0.3064;-0.0822;-0.0198;
3103749145430761;-0.2915;0.0372;-0.0252;
3103749155537688;-0.1913;0.0372;-0.0774;
3103749165654616;-0.1265;-0.1120;-0.1274;
3103749175761543;-0.1425;0.0350;-0.1338;
3103749185868470;-0.1137;0.1362;-0.1264;
3103749195979511;-0.0008;0.0766;-0.1562;
3103749206086438;0.0386;0.1288;-0.1860;
3103749216193366;0.0631;0.1989;-0.1956;
3103749226306334;0.1153;0.1490;-0.2116;
3103749236413261;0.1728;0.0851;-0.1913;
3103749246520188;0.1366;0.0925;-0.1988;
3103749256610866;0.1142;0.0904;-0.2148;
3103749266717793;0.1483;0.1330;-0.2190;
3103749276824720;0.1771;0.1096;-0.1530;
3103749286929199;0.1782;0.0968;-0.1881;
3103749297036126;0.1686;0.1053;-0.1796;
3103749307143053;0.1142;-0.0545;-0.1530;
3103749317259199;0.0866;0.0063;-0.1754;
3103749327366126;0.0834;0.1064;-0.1860;
3103749337473053;0.1441;-0.0822;-0.1636;
3103749347566595;0.1473;-0.0885;-0.1605;
3103749357673522;0.0759;0.0361;-0.1988;
3103749367780449;0.1111;-0.0001;-0.2073;
3103749377889720;0.1345;-0.0928;-0.2212;
3103749387996647;0.1089;-0.1216;-0.2489;
3103749398103574;0.1036;-0.1312;-0.2606;
3103749408206282;0.1238;-0.1397;-0.2670;
3103749418313209;0.1547;-0.1258;-0.2734;
3103749428420136;0.2154;0.0233;-0.2776;
3103749438540866;0.3230;0.1064;-0.2585;
3103749448647793;0.4763;0.1000;-0.2648;
3103749458754720;0.5775;0.0968;-0.2638;
3103749468856907;0.5402;-0.0108;-0.2542;
3103749478963834;0.4827;-0.0427;-0.2201;
3103749489070761;0.3976;-0.0662;-0.2116;
3103749499178782;0.4029;-0.0907;-0.1956;
3103749509285709;0.3901;-0.0981;-0.1924;
3103749519392636;0.3497;-0.1493;-0.1999;
3103749529498366;0.3433;-0.1258;-0.1913;
3103749539605241;0.3347;-0.0332;-0.1764;
3103749549712116;0.3454;0.0350;-0.1828;
3103749559828574;0.4114;0.0318;-0.1871;
3103749569935449;0.4646;0.0617;-0.1370;
3103749580042324;0.4603;-0.0736;-0.1455;
3103749590136074;0.4571;-0.1652;-0.1136;
3103749600242949;0.3529;-0.1024;-0.1700;
3103749610349824;0.3987;-0.0193;-0.1636;
3103749620453366;0.4976;0.0265;-0.1487;
3103749630560241;0.5306;-0.0172;-0.1285;
3103749640667116;0.5264;0.0276;-0.0752;
3103749650766907;0.4774;0.0425;-0.0156;
3103749660873782;0.4338;-0.0065;0.0249;
3103749670980657;0.3806;-0.0225;0.0409;
3103749681094720;0.3188;-0.0427;0.0483;
3103749691201595;0.2911;-0.0108;0.0526;
3103749701308470;0.3039;0.0105;0.0973;
3103749711421334;0.2857;0.0361;0.0995;
3103749721528209;0.2612;-0.0119;0.0803;
3103749731635084;0.2655;0.0073;0.0931;
3103749741733678;0.2559;0.0318;0.0782;
3103749751840553;0.2666;-0.0619;0.0931;
3103749761947428;0.2538;-0.0278;0.1208;
3103749772049616;0.1952;-0.0097;0.1144;
3103749782156491;0.2293;0.0308;0.1463;
3103749792263366;0.2325;0.0105;0.1431;
3103749802368834;0.2676;0.0531;0.2134;
3103749812475709;0.2389;0.0435;0.2316;
3103749822582584;0.1952;-0.0268;0.2475;
3103749832752532;0.1995;0.0190;0.2646;
3103749842859407;0.1856;0.0510;0.3008;
3103749852966282;0.1558;0.0169;0.3188;
3103749863016699;0.1217;-0.0161;0.3198;
3103749873123574;0.1270;0.0212;0.3029;
3103749883230449;0.1260;-0.0182;0.3102;
3103749893377793;0.1377;0.0222;0.3198;
3103749903484668;0.1707;0.0989;0.3326;
3103749913591543;0.1760;0.1043;0.3475;
3103749923634199;0.1632;0.0830;0.3763;
3103749933741074;0.1238;0.0563;0.4040;
3103749943847949;0.0716;0.0148;0.4274;
3103749953989928;-0.0232;-0.0108;0.3997;
3103749964096803;-0.0658;0.0585;0.3965;
3103749974203678;-0.0892;0.1298;0.4253;
3103749984317011;-0.1510;0.0425;0.4178;
3103749994423886;-0.2031;0.0009;0.4083;
3103750004530761;-0.2425;0.0712;0.3923;
3103750014685761;-0.3309;0.0286;0.3326;
3103750024792636;-0.3682;-0.0332;0.3198;
3103750034899511;-0.4385;-0.0172;0.3102;
3103750044953157;-0.4768;0.0393;0.2667;
3103750055060032;-0.5184;0.0617;0.1975;
3103750065166907;-0.5130;0.1181;0.1858;
3103750075258366;-0.4790;0.0659;0.1634;
3103750085365241;-0.4608;-0.0140;0.1517;
3103750095472116;-0.5205;0.0372;0.1091;
3103750105586751;-0.5748;0.0712;0.0718;
3103750115693626;-0.5642;0.0766;0.0419;
3103750125800501;-0.5141;0.0446;-0.0220;
3103750135905501;-0.4598;0.0212;-0.0145;
3103750146012376;-0.4747;0.0020;-0.0688;
3103750156119251;-0.4459;0.0137;-0.0763;
3103750166233782;-0.3565;0.0947;-0.0965;
3103750176340657;-0.2595;0.1043;-0.1200;
3103750186447532;-0.2201;-0.0534;-0.1402;
3103750196538574;-0.1775;-0.0449;-0.1594;
3103750206645449;-0.1350;0.0457;-0.1743;
3103750216752324;-0.0828;-0.0257;-0.1913;
3103750226892636;0.0503;0.0393;-0.1658;
3103750236999511;0.0972;0.0819;-0.1551;
3103750247106386;0.1739;0.0350;-0.1636;
3103750257183991;0.2559;-0.0140;-0.1445;
3103750267290866;0.3209;-0.0427;-0.1296;
3103750277397741;0.3497;0.0169;-0.1093;
3103750287497532;0.3838;-0.0342;-0.0965;
3103750297604407;0.4486;0.0158;-0.0284;
3103750307711282;0.4774;0.0222;0.0111;
3103750317840970;0.5264;-0.0161;0.0228;
3103750327947845;0.5477;0.0137;0.0675;
3103750338054720;0.4774;-0.0108;0.1399;
3103750348151907;0.4210;-0.0214;0.1581;
3103750358258782;0.4433;0.0648;0.2007;
3103750368365657;0.3838;0.0510;0.2071;
3103750378466699;0.3912;-0.0108;0.2294;
3103750388573574;0.3454;-0.0811;0.2635;
3103750398680449;0.2293;-0.0161;0.2774;
3103750408791491;0.1473;0.0744;0.2688;
3103750418898366;0.1718;0.0723;0.2720;
3103750429005241;0.1739;0.0808;0.3337;
3103750439099511;0.1142;0.0244;0.3443;
3103750449206386;0.0834;0.0617;0.3305;
3103750459313261;0.0013;0.1053;0.3294;
3103750469431282;-0.0317;0.0744;0.3497;
3103750479538157;-0.0509;0.0190;0.3411;
3103750489645032;-0.1201;-0.0406;0.3008;
3103750499752011;-0.2084;-0.0704;0.3019;
3103750509858886;-0.3011;-0.0534;0.2550;
3103750519965761;-0.2627;-0.0065;0.2539;
3103750530082324;-0.2137;-0.0459;0.2593;
3103750540189199;-0.2489;-0.0800;0.2092;
3103750550296126;-0.2435;-0.0598;0.1985;
3103750560399407;-0.2265;0.0158;0.1804;
3103750570506282;-0.2084;-0.0236;0.1708;
3103750580613209;-0.1585;-0.0438;0.1591;
3103750590710032;-0.1499;0.0425;0.1165;
3103750600816907;-0.1616;0.0190;0.1122;
3103750610923834;-0.0743;0.0744;0.1261;
3103750621026595;-0.0626;0.0297;0.1218;
3103750631133470;-0.0434;-0.0214;0.0824;
3103750641240397;-0.0434;-0.0353;0.0867;
3103750651347949;-0.0668;-0.1024;0.0654;
3103750661454824;-0.0722;-0.0640;0.1122;
3103750671561751;-0.1265;0.1490;0.1304;
3103750681674095;-0.1063;0.1714;0.1027;
3103750691780970;-0.0189;0.0031;0.0973;
3103750701887897;-0.0040;0.1096;0.0856;
3103750711992636;-0.0679;0.1884;0.1037;
3103750722099511;-0.0519;0.0063;0.0824;
3103750732206438;-0.0605;-0.1109;0.0611;
3103750742307428;-0.1297;-0.1791;0.0483;
3103750752414303;-0.2041;-0.2025;0.0111;
3103750762521230;-0.2105;-0.1482;-0.0017;
3103750772649616;-0.1839;0.0105;0.0015;
3103750782756491;-0.1084;0.1224;0.0079;
3103750792863418;-0.0136;0.0297;0.0419;
3103750802943782;-0.0061;-0.0651;0.0462;
3103750813050657;-0.0839;0.0361;0.0057;
3103750823157584;-0.1116;0.1426;0.0057;
3103750833303470;-0.0530;0.0862;0.0313;
3103750843410345;0.0045;-0.0768;0.0079;
3103750853517272;-0.0360;-0.0949;0.0142;
3103750863608678;-0.1371;-0.0289;0.0377;
3103750873715553;-0.1679;-0.0044;-0.0071;
3103750883822480;-0.0967;0.0446;0.0089;
3103750893916699;-0.0573;0.0989;0.0089;
3103750904023574;-0.0551;0.0915;0.0228;
3103750914130501;-0.0743;0.0414;0.0515;
3103750924236751;-0.0860;0.0084;0.0505;
3103750934343626;-0.1244;-0.0108;0.0973;
3103750944450553;-0.2947;-0.0779;0.0356;
3103750954554095;-0.3596;-0.0747;0.0121;
3103750964660970;-0.3064;0.0233;0.0153;
3103750974767897;-0.3096;-0.0193;-0.0252;
3103750984870136;-0.2915;-0.0694;-0.0017;
3103750994977011;-0.3234;0.0308;0.0132;
3103751005083938;-0.3458;0.0617;0.0057;
3103751015215970;-0.2329;0.0659;0.0142;
3103751025322845;-0.1786;0.0489;0.0334;
3103751035429772;-0.2169;0.0020;-0.0060;
3103751045531699;-0.2403;0.0180;0.0089;
3103751055638574;-0.2595;0.1053;0.0111;
3103751065745501;-0.2446;0.2192;0.0462;
3103751075842428;-0.2382;0.0638;0.0441;
3103751085949303;-0.2585;-0.0822;0.0164;
3103751096056230;-0.2936;0.0350;0.0313;
3103751106164303;-0.4065;-0.0065;-0.0316;
3103751116271178;-0.4076;-0.1088;-0.0880;
3103751126378105;-0.3543;0.0425;-0.0614;
3103751136483157;-0.3746;0.1383;-0.0742;
3103751146590032;-0.2947;0.0893;-0.1104;
3103751156696959;-0.2084;0.0617;-0.1477;
3103751166810553;-0.2158;0.1011;-0.1349;
3103751176917428;-0.2158;0.0521;-0.1700;
3103751187024355;-0.1999;0.0638;-0.1828;
3103751197134616;-0.2190;0.0691;-0.1754;
3103751207241491;-0.2212;-0.0427;-0.2063;
3103751217348418;-0.1913;-0.0204;-0.2457;
3103751227464303;-0.1850;-0.0065;-0.2638;
3103751237571178;-0.1350;-0.2483;-0.2723;
3103751247678105;-0.1265;-0.1855;-0.2830;
3103751257763418;-0.1818;0.1138;-0.2830;
3103751267870293;-0.1201;0.2021;-0.2936;
3103751277977220;0.1057;-0.0065;-0.3702;
3103751288083782;0.4869;-0.1269;-0.3190;
3103751298190657;0.4806;0.0872;-0.3499;
3103751308297584;0.3305;0.1671;-0.3084;
3103751318431282;0.3614;-0.0023;-0.3286;
3103751328538157;0.6063;0.0830;-0.2297;
3103751338645084;0.5530;0.0680;-0.2063;
3103751348733001;0.4720;-0.1610;-0.1796;
3103751358839876;0.6126;0.1873;-0.1115;
3103751368946803;0.5104;0.5270;-0.0273;
3103751379054511;0.4083;-0.2121;-0.0028;
3103751389161386;0.7618;-0.3591;0.0356;
3103751399268313;0.4264;-0.0502;0.0228;
3103751409373991;0.1185;0.0489;0.0814;
3103751419480866;0.1153;-0.0736;0.0654;
3103751429587793;0.1654;-0.1780;0.0664;
3103751439691491;0.1899;0.1128;0.1186;
3103751449798366;0.0961;-0.0129;0.0803;
3103751459905293;0.1142;-0.3069;0.0984;
3103751470019407;0.0024;-0.0161;0.1634;
3103751480126282;-0.2297;0.1245;0.1644;
3103751490233157;-0.1371;0.0553;0.1676;
3103751500340084;0.0748;-0.0012;0.1431;
3103751510441595;0.1111;-0.0374;0.1900;
3103751520548470;-0.0349;-0.0193;0.2007;
3103751530655397;-0.1700;-0.0385;0.1879;
3103751540748938;-0.2957;-0.0726;0.1751;
3103751550855866;-0.4481;0.0915;0.1442;
3103751560962741;-0.3831;0.1192;0.1367;
3103751571085657;-0.0988;0.0819;0.1005;
3103751581192532;0.0354;-0.0779;0.1485;
3103751591299459;-0.0679;-0.0640;0.1144;
3103751601410761;-0.3309;0.0105;0.1133;
3103751611517636;-0.5013;0.1575;0.1612;
3103751621624563;-0.2393;0.0393;0.0867;
3103751631716595;-0.1063;-0.0726;0.0664;
3103751641823470;-0.2180;0.1437;0.1037;
3103751651930397;-0.1318;0.1181;0.0877;
3103751662042116;-0.0115;0.0585;0.0707;
3103751672148991;0.1206;-0.0225;0.1027;
3103751682255918;0.3347;-0.2846;0.0398;
3103751692354303;-0.0530;-0.1557;0.0739;
3103751702461178;-0.3501;0.0851;0.0686;
3103751712568105;-0.4971;0.1703;0.0526;
3103751722734928;-0.3458;0.1511;0.0622;
3103751732841803;0.1441;-0.1652;0.0356;
3103751742948730;0.2655;-0.2004;-0.0007;
3103751753016907;-0.1659;0.1160;0.0238;
3103751763123782;-0.1606;-0.0385;-0.0007;
3103751773230709;-0.1340;-0.1525;-0.0305;
3103751783326386;-0.4577;0.1053;-0.0294;
3103751793433261;-0.4289;0.0446;-0.0795;
3103751803540188;-0.2947;-0.0278;-0.1178;
3103751813656386;-0.3032;0.0126;-0.1466;
3103751823763261;-0.2052;-0.0747;-0.1924;
3103751833870188;-0.3415;-0.0172;-0.1860;
3103751843977949;-0.4672;0.0329;-0.2116;
3103751854084824;-0.4672;0.0382;-0.2563;
3103751864191751;-0.4300;0.0329;-0.2936;
3103751874298366;-0.3671;-0.0033;-0.3691;
3103751884405241;-0.4257;0.0957;-0.4011;
3103751894512168;-0.4694;0.2064;-0.3702;
3103751904618782;-0.0072;-0.0427;-0.3893;
3103751914725657;0.4232;-0.2121;-0.4320;
3103751924832584;0.2953;-0.0885;-0.3787;
3103751934921907;0.0855;0.0286;-0.3286;
3103751945028782;0.0226;0.0648;-0.2680;
3103751955135709;0.1824;-0.0193;-0.2574;
3103751965248261;0.5008;-0.1120;-0.2393;
3103751975355136;0.5146;-0.0364;-0.1722;
3103751985462063;0.4720;0.0244;-0.1178;
3103751995573782;0.5477;0.0073;-0.0635;
3103752005680657;0.6691;-0.0108;0.0686;
3103752015787584;0.8917;-0.1663;0.1186;
3103752025897584;0.9588;-0.1674;0.2230;
3103752036004459;0.8214;-0.0140;0.3347;
3103752046111386;0.7724;-0.1620;0.3763;
3103752056213991;0.4061;-0.1375;0.4818;
3103752066320866;-0.1956;0.1895;0.5137;
3103752076427793;-0.3415;0.2533;0.4828;
3103752086530084;-0.0487;0.0254;0.4818;
3103752096636959;0.1824;-0.1418;0.5020;
3103752106743886;-0.0466;-0.0417;0.4775;
3103752116850188;-0.4129;0.0840;0.4445;
3103752126957063;-0.4470;0.0212;0.3784;
3103752137063991;-0.4076;-0.0182;0.3603;
3103752147172845;-0.5525;0.0233;0.3019;
3103752157279720;-0.7421;0.1107;0.1996;
3103752167386647;-0.9539;0.2639;0.1495;
3103752177490553;-0.8421;0.1522;0.0899;
3103752187597428;-0.3778;-0.1322;-0.0348;
3103752197704355;-0.3415;-0.0278;-0.1168;
3103752207807532;-0.6153;0.2202;-0.1445;
3103752217914407;-0.3959;0.0989;-0.1977;
3103752228021334;0.0493;-0.0960;-0.2893;
3103752238153053;0.3987;-0.1780;-0.2840;
3103752248259928;0.7405;-0.2409;-0.3276;
3103752258366855;0.6670;-0.3687;-0.3169;
3103752268465761;-0.4268;0.0819;-0.2116;
3103752278572636;-1.6590;0.7944;-0.2222;
3103752288679563;-1.6259;0.8539;-0.3957;
3103752298775345;-0.1126;0.2053;-0.4959;
3103752308882220;1.5765;-0.4112;-0.5129;
3103752318989147;2.4402;-0.5933;-0.3872;
3103752329093782;2.2635;-0.5316;-0.2861;
3103752339200657;1.2218;-0.2164;-0.0795;
3103752349307584;-0.2414;0.3843;0.0494;
3103752359421334;-1.0136;0.6304;-0.0209;
3103752369528209;-0.8964;0.6410;-0.0433;
3103752379635136;0.0610;0.3246;0.0004;
3103752389738418;1.7330;-0.7776;-0.0103;
3103752399845293;2.2900;-1.0885;0.0558;
3103752409952220;1.0684;-0.4836;0.1666;
3103752420067324;-0.4417;0.0435;0.2166;
3103752430174199;-1.4374;0.2746;0.2060;
3103752440281126;-2.0040;0.5324;0.0814;
3103752450380345;-1.8006;0.5153;-0.0273;
3103752460487220;-0.6473;0.0904;-0.0593;
3103752470594147;0.7319;-0.4698;-0.0880;
3103752480710032;1.1441;-0.5550;-0.0869;
3103752490816907;0.3997;-0.1514;-0.0348;
3103752500923834;-0.6015;0.2181;0.0313;
3103752511019303;-1.0924;0.3619;-0.0134;
3103752521126178;-0.8879;0.2533;-0.1221;
3103752531233105;-0.2329;0.0350;-0.2137;
3103752541332793;0.2964;-0.0491;-0.1850;
3103752551439668;0.6052;-0.1780;-0.1764;
3103752561546595;0.7277;-0.3101;-0.1626;
3103752571662741;0.3518;-0.1130;-0.1189;
3103752581769616;-0.2158;0.1565;-0.0561;
3103752591876543;-0.3234;0.1788;-0.1040;
3103752601988678;-0.0221;0.0393;-0.0912;
3103752612095553;0.2346;-0.0268;-0.1019;
3103752622202480;0.5264;-0.0715;-0.0859;
3103752632289095;0.9823;-0.3346;-0.0369;
3103752642395970;0.7607;-0.2355;0.0494;
3103752652502897;0.0727;0.1256;0.0952;
3103752662640866;-0.1881;0.2075;0.1059;
3103752672747741;0.0141;0.0680;0.1272;
3103752682854668;0.3337;-0.0640;0.1272;
3103752692936386;0.4454;-0.0885;0.1325;
3103752703043261;0.4072;-0.0992;0.1889;
3103752713150188;0.3901;-0.0917;0.2571;
3103752723256386;0.4603;-0.1855;0.3029;
3103752733363261;0.5338;-0.3612;0.2603;
3103752743470188;-0.0391;-0.1067;0.3561;
3103752753595241;-0.8410;0.3523;0.3198;
3103752763702116;-1.0285;0.1298;0.2337;
3103752773809043;-1.4726;0.3001;0.1879;
3103752783905241;-1.7996;0.6186;0.0153;
3103752794012116;-1.2639;0.3246;-0.0891;
3103752804119043;-0.1276;-0.1684;-0.1796;
3103752814250241;0.3933;-0.3240;-0.2201;
3103752824357116;0.1537;-0.1354;-0.2467;
3103752834464043;-0.3298;0.0190;-0.2126;
3103752844550032;-0.8538;0.1937;-0.2180;
3103752854656907;-1.2469;0.6016;-0.2776;
3103752864763834;-0.7367;0.2671;-0.3403;
3103752874871074;0.3092;-0.0523;-0.4138;
3103752884977949;0.9546;-0.3463;-0.3968;
3103752895084876;1.7564;-0.7212;-0.4245;
3103752905191699;1.6341;-0.6434;-0.2574;
3103752915298574;0.8427;-0.3005;-0.1594;
3103752925405501;-0.0466;0.0542;-0.0486;
3103752935512636;-0.3096;0.2415;-0.0166;
3103752945619511;0.4880;-0.0044;0.0302;
3103752955726438;2.2198;-0.7712;0.1943;
3103752965845032;2.8183;-1.1301;0.2933;
3103752975951907;0.8299;-0.2462;0.4999;
3103752986058834;-1.5130;0.8401;0.5318;
3103752996149511;-2.0253;0.7529;0.4221;
3103753006256386;-1.0530;0.0840;0.2614;
3103753016363313;-0.3043;-0.0651;0.2507;
3103753026473834;0.3241;-0.2366;0.3008;
3103753036580709;0.7618;-0.5316;0.2326;
3103753046687636;0.0887;-0.3346;0.2497;
3103753056791907;-1.7239;0.3587;0.2603;
3103753066898782;-3.7379;1.3631;0.1272;
3103753077005709;-4.3652;1.6250;-0.0593;
3103753087106074;-2.4365;0.4013;-0.4788;
3103753097212949;-0.0008;-0.5688;-0.7856;
3103753107319876;0.8236;-0.5102;-0.8623;
3103753117428782;0.4146;-0.1344;-0.9007;
3103753127535657;-0.4971;0.2075;-0.8996;
3103753137642584;-1.4438;0.6868;-0.9124;
3103753147748574;-1.9231;1.1128;-1.0049;
3103753157855449;-1.0583;0.9434;-1.1317;
3103753167962376;0.9407;0.1959;-1.2350;
3103753178067949;3.1985;-0.6775;-1.1913;
3103753188174824;4.5841;-0.8948;-0.9463;
3103753198281751;4.1548;-0.5198;-0.5896;
3103753208394720;2.5946;0.0180;-0.1956;
3103753218501595;1.3848;0.3534;0.0558;
3103753228608522;1.0451;0.2767;0.1410;
3103753238722532;1.2378;0.1565;0.2326;
3103753248829407;1.6128;-0.0310;0.4253;
3103753258936334;1.9482;-0.2600;0.6234;
3103753269048366;1.7149;-0.2696;0.8194;
3103753279155241;0.8534;-0.0182;0.9951;
3103753289262168;-0.1988;0.2991;1.0867;
3103753299356803;-0.9433;0.4812;1.0707;
3103753309463678;-1.1254;0.4407;1.0068;
3103753319570605;-0.7453;0.1181;0.9578;
3103753329686178;-0.3799;-0.1067;0.9280;
3103753339793053;-0.4545;-0.1205;0.8844;
3103753349899980;-0.9965;-0.0193;0.8461;
3103753360006751;-1.8827;0.3108;0.7576;
3103753370113626;-2.4269;0.4343;0.5702;
3103753380220553;-2.3129;0.2799;0.3379;
3103753390322220;-1.9104;0.1394;0.1122;
3103753400429095;-1.4672;0.0425;-0.0838;
3103753410536022;-0.9443;-0.1003;-0.2318;
3103753420646074;-0.5493;-0.1631;-0.3638;
3103753430752949;-0.5748;0.0222;-0.4085;
3103753440859876;-0.7069;0.2245;-0.4575;
3103753450967636;-0.6153;0.3193;-0.5118;
3103753461074511;-0.1627;0.2330;-0.5928;
3103753471181438;0.6435;-0.0896;-0.5939;
3103753481288261;1.3369;-0.4282;-0.6013;
3103753491395136;1.5414;-0.5134;-0.5055;
3103753501502063;1.2740;-0.3229;-0.3872;
3103753511602168;0.6638;-0.0459;-0.2915;
3103753521709043;0.1313;0.0457;-0.2340;
3103753531795501;0.0226;0.1170;-0.1328;
3103753541902376;0.4317;0.0840;-0.0965;
3103753552009303;1.2325;-0.2057;-0.0497;
3103753562135501;1.8885;-0.7542;0.0153;
3103753572242376;0.7746;-0.7329;0.1304;
3103753582349303;-1.4672;0.5164;0.3102;
3103753592448261;-0.8261;0.9828;0.2049;
3103753602555136;1.2975;0.4557;-0.0230;
3103753612662063;1.5968;0.1628;0.0441;
3103753622786907;1.1302;0.0414;0.2113;
3103753632893782;0.7309;0.0403;0.3337;
3103753643000709;0.4667;-0.0065;0.3635;
3103753653133157;0.2410;-0.1684;0.3475;
3103753663240032;-0.2989;-0.0001;0.3838;
3103753673346959;-0.9784;0.5877;0.3305;
3103753683421647;-0.7346;0.3864;0.3891;
3103753693528522;0.4987;-1.0321;0.1900;
3103753703635449;-0.1095;-0.7403;0.1559;
3103753713752845;-1.3054;0.0862;0.1314;
3103753723859720;-1.4140;0.1096;-0.0145;
3103753733966647;-0.8346;-0.1557;-0.1274;
3103753744080970;-0.6057;-0.0012;-0.1264;
3103753754187845;-0.4321;0.1959;-0.1541;
3103753764294772;0.1718;0.0808;-0.1636;
3103753774400345;0.6478;-0.1695;-0.1711;
3103753784507220;0.5626;-0.0939;-0.1306;
3103753794614147;0.2538;-0.0800;-0.0955;
3103753804706074;0.0067;-0.1397;-0.1253;
3103753814812949;-0.0732;0.0883;-0.1051;
3103753824919876;0.2176;0.0766;-0.1562;
3103753835012584;0.3987;-0.1589;-0.1860;
3103753845119459;0.2101;-0.0129;-0.1253;
3103753855226386;0.1888;0.0723;-0.1264;
3103753865360553;0.4093;-0.0715;-0.1104;
3103753875467428;0.3838;0.0116;-0.0124;
3103753885574355;0.3401;0.0169;-0.0209;
3103753895663574;0.4614;-0.0119;-0.0039;
3103753905770449;0.5008;0.1352;0.0217;
3103753915877376;0.5764;0.1873;0.0515;
3103753925989095;0.6052;0.0382;0.0547;
3103753936095970;0.4518;-0.0193;0.1208;
3103753946202897;0.3102;0.0585;0.1538;
3103753956304824;0.3209;-0.0374;0.1730;
3103753966411699;0.2048;-0.0907;0.1953;
3103753976518626;0.0951;-0.0683;0.2113;
3103753986628157;0.0908;-0.0885;0.2092;
3103753996735032;0.0567;0.0286;0.2422;
3103754006841959;0.0258;0.0393;0.1836;
3103754016945970;0.0109;0.0063;0.1740;
3103754027052845;-0.0871;0.0574;0.1858;
3103754037159772;-0.1041;-0.0044;0.1463;
3103754047266595;-0.1553;0.0009;0.1080;
3103754057373470;-0.1670;-0.0172;0.1069;
3103754067480397;-0.2009;-0.0651;0.1165;
3103754077580761;-0.1881;-0.1109;0.1208;
3103754087687636;-0.1009;-0.0246;0.0750;
3103754097794563;0.0354;0.1383;0.0302;
3103754107939095;0.0450;0.0126;0.0100;
3103754118045970;0.0663;-0.0161;0.0494;
3103754128152897;0.0706;0.0446;0.0441;
3103754138230449;0.1142;0.0158;0.0462;
3103754148337324;0.0791;-0.0150;0.0601;
3103754158444251;0.0407;-0.1695;0.0398;
3103754168556751;0.0535;-0.0736;0.0846;
3103754178663626;0.0738;-0.0342;0.1154;
3103754188770553;0.0706;-0.0417;0.0824;
3103754198904147;-0.0136;-0.1589;0.0451;
3103754209011022;-0.0892;-0.4783;0.0654;
3103754219117949;-0.0253;-0.0087;0.1069;
3103754229214511;0.2453;0.4599;0.1367;
3103754239321386;0.2378;0.2479;0.1027;
3103754249428313;0.1398;0.1373;0.1016;
3103754259518991;0.0109;0.2565;0.1794;
3103754269625866;-0.0093;0.1543;0.1687;
3103754279732793;-0.0850;-0.1109;0.1751;
3103754289841178;-0.2137;-0.0353;0.1836;
3103754299948053;-0.1796;0.1469;0.1527;
3103754310054980;-0.0381;0.2522;0.1538;
3103754320163574;-0.1457;-0.1461;0.1804;
3103754330270449;-0.3064;-0.3005;0.1399;
3103754340377376;-0.3916;0.1277;0.1005;
3103754350476491;-0.2063;0.1607;0.0611;
3103754360583366;-0.0743;0.0403;0.0686;
3103754370690293;-0.2254;0.0755;0.0888;
3103754380798886;-0.2883;0.0073;0.0909;
3103754390905761;-0.2297;-0.0204;0.0313;
3103754401012688;-0.1956;-0.1013;-0.0188;
3103754411123574;-0.1435;0.0691;-0.0017;
3103754421230449;-0.0072;0.4109;0.0324;
3103754431337376;-0.0029;0.0148;0.0238;
3103754441419095;-0.1169;-0.4272;-0.0134;
3103754451525970;-0.3234;-0.0854;-0.0294;
3103754461632897;-0.3138;0.0435;-0.0795;
3103754471736074;-0.0647;-0.2164;-0.0912;
3103754481842949;-0.0892;-0.1908;-0.0955;
3103754491949876;-0.1201;0.0499;-0.1083;
3103754502075449;-0.0029;0.0734;-0.0955;
3103754512182324;0.1015;0.0680;-0.0997;
3103754522289251;0.0631;-0.0076;-0.1083;
3103754532397220;0.0365;0.0478;-0.1115;
3103754542504251;0.0333;0.0680;-0.0891;
3103754552611334;0.0184;0.0499;-0.0667;
3103754562742116;-0.0349;0.0446;-0.0891;
3103754572849147;-0.0573;-0.0470;-0.0912;
3103754582956230;-0.0296;-0.0236;-0.0539;
3103754593043157;-0.0189;0.0670;-0.0326;
3103754603150188;-0.0605;-0.0523;-0.0912;
3103754613257272;-0.0562;-0.0395;-0.1072;
3103754623400241;-0.0402;0.0925;-0.1029;
3103754633507272;-0.0722;-0.0300;-0.1146;
3103754643614355;-0.0754;0.0031;-0.1178;
3103754653672845;-0.0732;0.1288;-0.0987;
3103754663779876;-0.0935;0.0276;-0.1051;
3103754673886959;-0.0509;0.0382;-0.0955;
3103754684009824;-0.0381;0.1852;-0.1189;
3103754694116855;-0.0274;0.1842;-0.0838;
3103754704223938;-0.0530;0.1032;-0.0965;
3103754714328470;-0.0594;0.0755;-0.0688;
3103754724435501;-0.1361;-0.0097;-0.1125;
3103754734542584;-0.1690;-0.1237;-0.0965;
3103754744667063;-0.2073;-0.1972;-0.0486;
3103754754774095;-0.1828;-0.2579;-0.0465;
3103754764881178;-0.1063;-0.2004;-0.0859;
3103754774960449;-0.0338;-0.1162;-0.1178;
3103754785067480;-0.0402;-0.0598;-0.1125;
3103754795174563;-0.0573;0.0084;-0.1115;
3103754805300866;-0.0573;0.0180;-0.1317;
3103754815407897;-0.0445;0.0585;-0.1349;
3103754825514980;-0.0636;0.0297;-0.0955;
3103754835606386;-0.0722;-0.0481;-0.0561;
3103754845713418;-0.0317;-0.0023;-0.0518;
3103754855820501;-0.0477;0.0148;-0.0411;
3103754865925761;-0.1137;-0.3304;0.0430;
3103754876032793;0.0684;-0.2015;-0.0252;
3103754886139876;0.2218;0.3044;-0.1051;
3103754896250761;-0.0487;0.3800;-0.1061;
3103754906357793;-0.0306;0.1799;-0.0699;
3103754916464876;-0.0306;0.1256;-0.0635;
3103754926576907;-0.0317;0.1756;-0.0752;
3103754936683938;-0.0913;0.0915;-0.0593;
3103754946790970;-0.1158;0.0265;-0.0156;
3103754956902845;-0.0860;-0.1067;0.0004;
3103754967009876;0.1356;0.1394;0.0313;
3103754977116907;0.1643;0.2170;0.0356;
3103754987218991;-0.3490;-0.4378;-0.0198;
3103754997326022;-0.3341;-0.3378;-0.0294;
3103755007433105;-0.0072;0.0372;-0.1083;
3103755017539824;0.0067;-0.0534;-0.1626;
3103755027646855;-0.1350;-0.1407;-0.1306;
3103755037753938;-0.0370;-0.0385;-0.1178;
3103755047857011;0.1260;0.1767;-0.1168;
3103755057964043;0.0876;0.2788;-0.0933;
3103755068071126;-0.0722;0.0680;-0.0997;
3103755078177741;-0.0615;0.0510;-0.0561;
3103755088284772;-0.0466;0.0531;-0.0529;
3103755098391855;-0.0881;-0.1269;-0.0422;
3103755108519511;-0.0509;-0.1194;-0.0454;
3103755118626543;-0.0051;0.0276;-0.0103;
3103755128733626;-0.0636;-0.2206;-0.0103;
3103755138825970;-0.0178;-0.1130;-0.0145;
3103755148933001;0.0695;0.1202;-0.0571;
3103755159040032;-0.0519;0.0222;-0.0976;
3103755169143834;-0.1881;0.0116;-0.0848;
3103755179250866;-0.1732;0.0350;-0.1029;
3103755189357949;-0.0370;0.0563;-0.0848;
3103755199458574;0.0013;0.1575;-0.1029;
3103755209565605;-0.0285;0.2043;-0.0614;
3103755219672636;-0.1606;-0.1301;-0.0518;
3103755229790918;-0.0104;0.1660;0.0089;
3103755239897949;0.0354;0.1075;0.0356;
3103755250005032;-0.2734;-0.3399;-0.0273;
3103755260102532;-0.1977;-0.0800;-0.0134;
3103755270209563;-0.0274;-0.0683;-0.0262;
3103755280316647;-0.0413;-0.1344;-0.0465;
3103755290424511;-0.0477;-0.0278;-0.0571;
3103755300531543;-0.0711;-0.1003;-0.0710;
3103755310638574;-0.0562;-0.0896;-0.0337;
3103755320741803;-0.0285;0.0457;-0.0571;
3103755330848834;-0.1201;-0.0609;-0.0561;
3103755340955918;-0.1924;-0.0321;0.0015;
3103755351064095;-0.1850;0.0201;-0.0401;
3103755361171126;-0.1542;-0.0491;-0.0571;
3103755371278157;-0.1031;0.0936;-0.0550;
3103755381394824;-0.0945;0.0510;-0.0507;
3103755391501855;-0.1126;0.0297;-0.0571;
3103755401608938;-0.0370;0.1671;-0.0103;
3103755411706178;-0.1009;0.0915;-0.0326;
3103755421813209;-0.1690;-0.0246;-0.0262;
3103755431920293;-0.1020;0.0212;-0.0166;
3103755442040553;-0.0764;0.0361;0.0015;
3103755452147584;-0.0935;0.0180;-0.0092;
3103755462254668;-0.0828;0.0095;-0.0166;
3103755472325970;-0.0999;-0.0683;-0.0081;
3103755482433001;-0.0221;-0.0023;-0.0177;
3103755492540084;-0.0615;0.1096;-0.0646;
3103755502677741;-0.1553;-0.0577;-0.0241;
3103755512784772;-0.1956;-0.1780;-0.0134;
3103755522891855;-0.0850;-0.0651;-0.0230;
3103755532973782;-0.1020;-0.0289;-0.0550;
3103755543080657;-0.1073;-0.0864;-0.0550;
3103755553187532;-0.0892;-0.0864;-0.0561;
3103755563360553;-0.0381;-0.1706;-0.0348;
3103755573467428;0.0503;-0.0790;-0.0252;
3103755583574303;0.0407;0.2181;-0.1104;
3103755593631907;-0.0381;0.3108;-0.1455;
3103755603738782;0.0152;0.2138;-0.0901;
3103755613845657;-0.0232;0.2085;-0.0752;
3103755623951178;-0.1126;0.0489;-0.0688;
3103755634058053;-0.1308;0.0222;-0.0507;
3103755644164928;-0.1244;0.0851;-0.0869;
3103755654263366;-0.1041;-0.1205;0.0079;
3103755664370241;-0.0008;-0.2398;0.0174;
3103755674477116;0.1441;0.1352;-0.0593;
3103755684599563;-0.1169;0.0180;-0.1146;
3103755694706438;-0.2510;-0.2345;-0.1391;
3103755704813313;-0.2084;-0.2835;-0.1146;
3103755714922897;-0.0402;-0.0960;-0.1615;
3103755725029772;-0.0477;-0.0364;-0.1967;
3103755735136647;-0.1318;-0.2771;-0.1711;
3103755745232532;0.0301;-0.0694;-0.1647;
3103755755339407;0.1185;0.2714;-0.2425;
3103755765446282;0.1803;0.3310;-0.1722;
3103755775567532;0.0525;0.0063;-0.1487;
3103755785674407;-0.0860;-0.1109;-0.1700;
3103755795781282;-0.0104;0.1181;-0.1466;
3103755805876595;0.0684;0.1000;-0.1487;
3103755815983470;-0.0136;-0.0981;-0.1466;
3103755826090345;0.0067;-0.1354;-0.1636;
3103755836190761;0.2357;0.2469;-0.1434;
3103755846297636;0.2399;0.1149;-0.1296;
3103755856404511;-0.0722;-0.2558;-0.1711;
3103755866535761;0.0418;-0.0087;-0.1498;
3103755876642636;0.1707;0.1628;-0.1690;
3103755886749511;0.0631;0.1479;-0.2265;
3103755896837532;-0.0562;-0.0672;-0.2084;
3103755906944407;0.0471;-0.0427;-0.1626;
3103755917051282;0.1877;0.1810;-0.1754;
3103755927158678;0.1622;0.1639;-0.1956;
3103755937265553;0.0674;-0.0012;-0.1828;
3103755947372428;0.1249;0.0084;-0.1594;
3103755957479616;0.2581;0.0776;-0.1498;
3103755967586491;0.2975;0.0723;-0.1274;
3103755977693366;0.1377;-0.0332;-0.1072;
3103755987807584;0.0407;-0.2387;-0.1178;
3103755997914459;0.2186;-0.0491;-0.1104;
3103756008021334;0.3230;0.0425;-0.1040;
3103756018126803;0.2048;-0.1919;-0.0774;
3103756028233678;0.2027;-0.1109;-0.0316;
3103756038340553;0.3646;0.1767;-0.0646;
3103756048440032;0.3422;0.1533;-0.0209;
3103756058546907;0.2889;0.0627;-0.0252;
3103756068653782;0.3262;0.1256;-0.0241;
3103756078775657;0.3273;0.1916;0.0345;
3103756088882532;0.2304;-0.0076;0.0473;
3103756098989407;0.2197;-0.1045;0.1229;
3103756109083261;0.2943;-0.0119;0.1495;
3103756119190136;0.4178;0.1565;0.1751;
3103756129297011;0.3198;-0.0055;0.1932;
3103756139405866;0.1707;-0.2483;0.2220;
3103756149512741;0.1590;-0.1035;0.2369;
3103756159619616;0.1505;-0.0470;0.2294;
3103756169720241;0.0493;-0.2611;0.2284;
3103756179827116;0.0056;-0.2632;0.2561;
3103756189933991;0.0109;0.0126;0.2614;
3103756200046386;-0.0008;0.3044;0.2475;
3103756210153261;0.1995;0.2724;0.2284;
3103756220260136;0.2495;0.1831;0.2507;
3103756230384720;0.1547;0.2362;0.2678;
3103756240491595;0.1142;0.2991;0.3008;
3103756250598470;0.0610;0.1735;0.3198;
3103756260692324;0.0056;0.0617;0.3369;
3103756270799199;-0.0360;0.0904;0.3656;
3103756280906074;-0.0636;0.1064;0.3848;
3103756291005449;-0.1881;-0.1184;0.3763;
3103756301112324;-0.2883;-0.1344;0.3710;
3103756311219199;-0.3320;0.0233;0.3273;
3103756321337324;-0.2915;-0.0097;0.2624;
3103756331444199;-0.2254;-0.0289;0.2230;
3103756341551074;-0.2723;-0.0800;0.2124;
3103756351643678;-0.3170;-0.1695;0.2007;
3103756361750553;-0.3117;-0.2004;0.2188;
3103756371857428;-0.3415;-0.3144;0.2188;
3103756381969095;-0.3660;-0.4144;0.2028;
3103756392075970;-0.3554;-0.3772;0.1836;
3103756402182845;-0.3405;-0.3069;0.1623;
3103756412281907;-0.3298;-0.3112;0.1016;
3103756422388782;-0.2861;-0.2132;0.0313;
3103756432495657;-0.2521;-0.0917;-0.0156;
3103756442622741;-0.1595;0.0691;-0.0422;
3103756452729616;-0.0892;0.3268;-0.0422;
3103756462836491;0.0099;0.3278;-0.0358;
3103756472946543;0.0823;0.3566;-0.0177;
3103756483053418;0.0546;0.5718;0.0068;
3103756493160293;0.0567;0.4780;0.0260;
3103756503263209;0.0130;0.1628;0.0356;
3103756513370084;-0.1616;-0.0108;0.0334;
3103756523476959;-0.2499;-0.0736;-0.0166;
3103756533561386;-0.2297;-0.1876;-0.0646;
3103756543668313;-0.2063;-0.2462;-0.1157;
3103756553775241;-0.1967;-0.1919;-0.1626;
3103756563876491;-0.1563;-0.1056;-0.2276;
3103756573983418;-0.1616;-0.1280;-0.2680;
3103756584090345;-0.1158;-0.2089;-0.3148;
3103756594208053;-0.0477;0.0201;-0.2925;
3103756604314980;0.0226;0.1842;-0.3084;
3103756614421907;0.2005;0.1969;-0.3084;
3103756624527220;0.2921;0.2128;-0.2734;
3103756634634147;0.3433;0.2394;-0.2265;
3103756644741074;0.3710;0.2692;-0.1775;
3103756654847428;0.2644;0.0116;-0.1605;
3103756664954355;0.2421;-0.1333;-0.1445;
3103756675061282;0.3039;-0.0640;-0.1083;
3103756685173053;0.3742;-0.0097;-0.0774;
3103756695279980;0.2953;-0.0971;-0.0667;
3103756705386907;0.2282;-0.1887;-0.0358;
3103756715497168;0.2623;-0.0076;-0.0337;
3103756725604095;0.2016;0.1053;-0.0454;
3103756735711022;0.1111;0.0297;-0.0369;
3103756745819407;0.1025;-0.0619;0.0015;
3103756755926334;0.0940;0.0340;0.0057;
3103756766033261;0.0929;0.0893;-0.0071;
3103756776135449;0.0834;-0.0342;0.0270;
3103756786242376;0.1047;-0.0033;0.0846;
3103756796349303;0.1398;0.0691;0.0643;
3103756806456074;0.1377;0.0020;0.0877;
3103756816563001;0.1089;-0.0182;0.1176;
3103756826669928;0.0770;-0.0491;0.1314;
3103756836803157;0.0599;-0.1067;0.1410;
3103756846910084;0.0301;-0.1013;0.1527;
3103756857017011;-0.0317;-0.0694;0.1314;
3103756867114720;-0.0242;-0.0683;0.1581;
3103756877221647;-0.0679;0.0052;0.1708;
3103756887328574;-0.0796;0.0329;0.1751;
3103756897420657;-0.0828;0.0414;0.1346;
3103756907527584;-0.0594;0.0478;0.1740;
3103756917634511;-0.0945;0.0041;0.1879;
3103756927746595;-0.1265;0.0009;0.1740;
3103756937853522;-0.1286;0.0201;0.1921;
3103756947960449;-0.1435;-0.0214;0.1772;
3103756958093157;-0.1563;-0.0928;0.1517;
3103756968200084;-0.1542;0.0052;0.1666;
3103756978307011;-0.2009;-0.0385;0.1644;
3103756988387741;-0.2137;-0.1674;0.1357;
3103756998494668;-0.2286;-0.1003;0.1069;
3103757008601595;-0.2467;0.0521;0.0984;
3103757018703991;-0.2340;0.0819;0.0686;
3103757028810918;-0.1446;-0.0001;0.0611;
3103757038917845;-0.1807;-0.0023;0.0366;
3103757049037532;-0.2276;0.1075;0.0185;
3103757059144459;-0.2084;0.1192;0.0079;
3103757069251386;-0.1371;0.1011;-0.0198;
3103757079338470;-0.0871;0.2266;-0.0166;
3103757089445397;-0.1095;-0.0790;-0.0188;
3103757099552324;-0.1553;-0.2611;-0.0443;
3103757109663001;-0.1467;-0.0310;-0.0379;
3103757119769928;-0.1574;-0.0278;-0.1040;
3103757129876855;-0.1318;-0.0992;-0.1509;
3103757139993782;-0.0903;-0.0651;-0.1210;
3103757150100709;-0.0956;-0.0651;-0.1647;
3103757160207636;-0.0924;-0.0577;-0.1945;
3103757170310449;-0.1286;-0.1269;-0.2169;
3103757180417376;-0.0924;-0.1471;-0.2830;
3103757190524303;0.0067;0.3012;-0.2574;
3103757200641074;0.0386;0.2852;-0.2308;
3103757210748001;0.1867;-0.1684;-0.2755;
3103757220854928;0.1505;0.0318;-0.2542;
3103757230959303;-0.0125;0.1501;-0.2563;
3103757241066230;0.0727;-0.0470;-0.2744;
3103757251173157;0.1302;-0.0651;-0.2276;
3103757261275449;0.1036;-0.0417;-0.2553;
3103757271382376;0.2240;0.0244;-0.2585;
3103757281489303;0.2304;-0.0374;-0.2350;
3103757291595866;0.1963;-0.0917;-0.2190;
3103757301702793;0.2272;0.0510;-0.2222;
3103757311809720;0.2463;0.0169;-0.2169;
3103757321918782;0.2410;-0.0598;-0.2031;
3103757332025709;0.2474;0.0020;-0.1818;
3103757342132636;0.2474;-0.0395;-0.1679;
3103757352223782;0.2559;-0.1130;-0.1232;
3103757362330709;0.3134;-0.0065;-0.0763;
3103757372437636;0.3273;-0.0023;-0.1061;
3103757382561751;0.3166;-0.0790;-0.0667;
3103757392668678;0.3102;-0.0065;-0.0358;
3103757402775605;0.3060;0.0254;-0.0443;
3103757412886178;0.2549;0.0020;-0.0273;
3103757422993105;0.2474;0.0840;0.0079;
3103757433100032;0.2389;0.1053;0.0281;
3103757443211595;0.2069;-0.0076;0.0696;
3103757453318522;0.1846;0.0957;0.1037;
3103757463425449;0.1675;0.1096;0.1016;
3103757473512011;0.1579;0.1160;0.1091;
3103757483618938;0.1750;0.2628;0.0920;
3103757493725866;0.1409;0.0553;0.1250;
3103757503824511;0.0003;-0.2899;0.1666;
3103757513931438;-0.0903;-0.2260;0.2092;
3103757524038366;-0.0562;-0.0630;0.1804;
3103757534157428;-0.0338;0.0009;0.1634;
3103757544264407;-0.0264;-0.0289;0.1442;
3103757554371438;0.0567;-0.0523;0.1730;
3103757564502532;-0.0178;-0.0481;0.1591;
3103757574609511;-0.1244;-0.0736;0.1581;
3103757584716543;-0.1595;-0.1983;0.1133;
3103757594830970;-0.0519;0.0883;0.1059;
3103757604937949;-0.0296;0.3747;0.1389;
3103757615044980;0.0940;0.0606;0.1229;
3103757625117011;0.1036;-0.0630;0.1623;
3103757635223991;-0.0860;0.1096;0.1985;
3103757645331022;-0.0945;0.1085;0.1858;
3103757655439720;-0.0530;-0.0885;0.1666;
3103757665546699;-0.1041;-0.1024;0.1474;
3103757675653730;-0.1148;0.0052;0.1431;
3103757685760345;-0.1201;0.0084;0.1218;
3103757695867324;-0.1265;-0.0406;0.1016;
3103757705974355;-0.1276;-0.0640;0.0856;
3103757716081491;-0.1478;0.0372;0.0909;
3103757726188470;-0.1563;-0.0161;0.0867;
3103757736295501;-0.0892;-0.0406;0.0909;
3103757746409720;-0.1308;0.0095;0.0430;
3103757756516699;-0.1041;0.0467;0.0451;
3103757766623730;-0.0509;0.0499;0.0334;
3103757776720136;-0.0370;0.0617;0.0302;
3103757786827116;-0.0413;0.0734;0.0228;
3103757796934147;-0.0317;0.0531;-0.0156;
3103757807055761;-0.0253;0.0595;0.0036;
3103757817162741;-0.0626;-0.0949;0.0217;
3103757827269772;-0.0594;-0.0289;-0.0326;
3103757837379616;-0.0445;0.1181;-0.0198;
3103757847486595;-0.0413;0.0403;-0.0220;
3103757857593626;-0.0328;-0.0395;-0.0507;
3103757867695345;-0.0402;0.0254;-0.0774;
3103757877802324;-0.0221;0.0414;-0.0678;
3103757887909355;-0.0466;-0.0545;-0.0752;
3103757898013001;-0.0168;-0.0044;-0.0838;
3103757908119980;0.0035;0.0265;-0.0710;
3103757918227011;0.0482;0.0617;-0.0678;
3103757928325501;0.0514;-0.0374;-0.0561;
3103757938432480;0.0173;-0.0854;-0.0731;
3103757948539511;0.0482;0.0116;-0.0678;
3103757958668782;0.0429;-0.0065;-0.0987;
3103757968775761;0.0695;0.0073;-0.1029;
3103757978882793;0.0844;0.0606;-0.0731;
3103757988984199;0.0727;-0.0257;-0.0443;
3103757999091178;0.0503;-0.0790;-0.0646;
3103758009198209;0.0802;0.0297;-0.0593;
3103758019294199;0.0876;-0.0523;-0.0294;
3103758029401178;0.1089;-0.0395;-0.0699;
3103758039508209;0.1398;0.1618;-0.0497;
3103758049623991;0.0706;-0.5252;0.0537;
3103758059730970;0.0855;-0.2632;0.0398;
3103758069838001;0.0727;1.0148;-0.1274;
3103758079939095;0.4859;1.3791;-0.1924;
3103758090046074;0.6936;0.3971;-0.1189;
3103758100153105;0.3550;-0.2824;0.0824;
3103758110255032;-0.1276;0.0648;0.1495;
3103758120362011;0.0684;-0.0651;0.1527;
3103758130469043;0.0344;-0.5976;0.2103;
3103758140574511;-0.0818;-0.7851;0.2390;
3103758150681491;0.2559;0.3513;0.2593;
3103758160788522;-0.1148;-0.4783;0.2869;
3103758170894407;-0.4182;-1.5871;0.0632;
3103758181001386;-0.4960;-0.0055;0.0334;
3103758191108418;-0.1361;0.9285;-0.0891;
3103758201220761;0.4072;1.1884;-0.0997;
3103758211327741;0.6723;0.7688;0.0601;
3103758221434772;0.7256;0.6048;0.1144;
3103758231550657;0.3188;1.4855;0.0590;
3103758241657636;0.2240;0.9839;0.1176;
3103758251764668;-0.1031;-0.6061;0.2784;
3103758261859824;-0.7069;-1.1343;0.3422;
3103758271966803;-0.6622;-1.1961;0.4210;
3103758282073834;-0.8090;-1.3932;0.3060;
3103758292175032;-0.5610;-1.0236;0.2017;
3103758302282011;0.0077;-0.4943;0.0739;
3103758312389043;0.0439;-0.5816;-0.0603;
3103758322497116;-0.4843;-0.5145;-0.0294;
3103758332604095;-0.3362;-0.2100;-0.0337;
3103758342711126;0.0844;0.5963;-0.0198;
3103758352817845;0.3763;1.2385;0.0611;
3103758362924824;0.4656;0.8294;0.1101;
3103758373031855;0.2197;0.4290;0.1847;
3103758383192636;-0.0498;0.2724;0.2667;
3103758393299616;-0.2126;-0.8650;0.3433;
3103758403406647;-0.2606;-0.8905;0.2539;
3103758413451491;-0.0115;0.1085;0.2305;
3103758423558470;-0.0509;0.0712;0.2060;
3103758433665501;-0.1158;-0.6466;0.1474;
3103758443796178;-0.3426;-0.7851;0.1527;
3103758453903157;-0.6473;-0.4039;0.1027;
3103758464010188;-0.6483;-0.5113;0.1059;
3103758474091491;-0.5823;-0.8405;0.1581;
3103758484198470;-0.6537;-0.9779;0.0856;
3103758494305501;-0.2222;0.2405;0.0047;
3103758504430345;0.1718;1.0371;-0.1668;
3103758514537324;0.1217;0.8603;-0.1221;
3103758524644355;0.0706;0.1256;-0.0518;
3103758534750761;-0.0913;0.6634;-0.1413;
3103758544857741;-0.0370;1.6154;-0.2297;
3103758554964772;0.1419;1.4301;-0.2254;
3103758565069199;0.0525;0.6080;-0.1626;
3103758575176178;-0.1679;0.9615;-0.1839;
3103758585283209;-0.1414;1.6612;-0.2137;
3103758595383782;-0.4513;-1.3335;-0.0401;
3103758605490761;-1.3715;-2.8310;-0.3563;
3103758615597793;-0.7261;-1.2004;-0.2190;
3103758625705866;-0.0328;-0.2228;-0.2478;
3103758635812845;0.4944;-0.8160;-0.5225;
3103758645919876;0.1803;-0.9811;-0.6567;
3103758656025761;0.1366;0.0031;-0.6013;
3103758666132741;0.6137;0.7113;-0.6557;
3103758676239772;0.8832;0.6676;-0.5129;
3103758686350761;1.0046;0.7901;-0.3979;
3103758696457741;1.2048;1.2832;-0.3350;
3103758706564772;1.3070;0.9668;-0.2105;
3103758716670657;1.2495;0.4407;-0.0433;
3103758726777636;1.2048;1.3524;-0.0390;
3103758736884668;1.0100;-0.5081;0.3188;
3103758746995866;0.0674;-2.0674;0.4913;
3103758757102845;0.0674;-0.8149;0.3486;
3103758767209876;0.2410;-0.3101;0.2976;
3103758777310449;0.0013;-0.9662;0.2433;
3103758787417428;-0.3000;-1.2196;0.5180;
3103758797524459;-1.0658;-0.0875;0.5265;
3103758807633574;0.2197;1.0989;0.1453;
3103758817740553;0.3784;1.0595;0.1336;
3103758827847584;0.1973;0.2383;0.2933;
3103758837959824;0.2005;0.5845;0.3582;
3103758848066803;0.0344;0.7965;0.4008;
3103758858173834;0.1217;0.1873;0.3241;
3103758868294772;0.0397;-0.1780;0.3710;
3103758878401751;0.0141;0.5643;0.3166;
3103758888508782;-0.4608;1.6346;0.2965;
3103758898604616;-0.2808;-1.9172;0.6128;
3103758908711595;-0.6718;-2.3282;0.1794;
3103758918818626;-1.7655;0.1831;0.1346;
3103758928923574;-2.9657;0.6549;0.0089;
3103758939030553;-0.8485;-0.7425;-0.1818;
3103758949137584;0.1601;-0.4889;-0.3979;
3103758959248678;-0.2957;0.5856;-0.3382;
3103758969355657;-0.1126;0.6090;-0.2616;
3103758979462688;0.1920;0.3278;-0.2861;
3103758989564407;0.2868;0.3949;-0.3084;
3103758999671386;0.2911;0.4035;-0.2744;
3103759009778418;0.3049;-0.1088;-0.2414;
3103759019883418;0.1111;0.0830;-0.2819;
3103759029990397;-0.1403;0.1160;-0.2830;
3103759040097428;-0.0615;-0.1802;-0.3840;
3103759050215241;0.0045;-0.1280;-0.4032;
3103759060322220;-0.0402;-0.0246;-0.3616;
3103759070429251;0.0258;-0.0651;-0.3574;
3103759080527949;0.1079;-0.0545;-0.3776;
3103759090634928;0.1771;0.0925;-0.3840;
3103759100741959;0.2719;0.0158;-0.3904;
3103759110844407;0.4624;0.3928;-0.3382;
3103759120951386;0.4784;0.0851;-0.3286;
3103759131058418;0.5072;-0.3218;-0.2957;
3103759141172636;0.3806;0.0265;-0.2489;
3103759151279616;0.3955;0.0425;-0.2276;
3103759161386647;0.5413;-0.2473;-0.2265;
3103759171490970;0.5530;-0.4144;-0.1093;
3103759181597949;0.4678;-0.0545;-0.0880;
3103759191704980;0.4603;0.0276;-0.1232;
3103759201812584;0.5487;-0.0097;-0.1381;
3103759211919563;0.4774;0.1352;-0.0678;
3103759222026595;0.3603;0.0084;-0.0529;
3103759232143157;0.2836;-0.0023;-0.0379;
3103759242250136;0.1696;0.0531;-0.0092;
3103759252357168;0.1643;0.0020;-0.0060;
3103759262440501;0.2016;-0.0960;0.0025;
3103759272547480;0.1632;-0.0150;0.0313;
3103759282654511;0.1270;0.0244;0.0995;
3103759292767636;0.1047;-0.3367;0.0387;
3103759302874616;0.0546;0.0212;0.0057;
3103759312981647;0.0461;0.1852;0.0004;
3103759323095866;0.2975;0.0265;-0.0209;
3103759333202845;0.2016;0.0691;-0.0241;
3103759343309876;0.1398;0.0968;-0.0188;
3103759353397428;0.1611;0.0531;0.0238;
3103759363504407;0.2016;0.1021;0.0238;
3103759373611438;0.2112;0.1298;0.0377;
3103759383732741;0.2208;0.0403;0.0473;
3103759393839720;0.1963;0.0734;0.0718;
3103759403946751;0.1654;-0.0321;0.0356;
3103759414039928;0.1430;-0.1834;0.0739;
3103759424146907;0.1356;-0.1269;0.0909;
3103759434253938;0.1505;0.0680;0.0611;
3103759444364928;0.1814;0.0680;0.0238;
3103759454471907;0.2218;0.0329;0.0643;
3103759464578938;0.1654;0.0297;0.1197;
3103759474706334;0.1558;0.0276;0.1282;
3103759484813313;0.1324;-0.0609;0.1378;
3103759494920345;0.1334;-0.0278;0.1826;
3103759505017584;0.1728;0.1085;0.1698;
3103759515124563;0.2005;0.1895;0.1996;
3103759525231595;0.1803;0.1383;0.2369;
3103759535339928;0.0812;-0.0513;0.2507;
3103759545446907;0.0003;0.0009;0.2763;
3103759555553834;-0.0253;-0.0140;0.3198;
3103759565655032;-0.0690;-0.0502;0.3019;
3103759575762011;-0.0413;0.0435;0.2848;
3103759585868938;0.0109;0.2575;0.3166;
3103759595960866;-0.0743;0.0957;0.3390;
3103759606067845;-0.1945;-0.1003;0.3891;
3103759616174772;-0.4246;-0.2377;0.3795;
3103759626291803;-0.4843;-0.2526;0.3305;
3103759636398782;-0.3586;-0.0321;0.2838;
3103759646505709;-0.3351;-0.0800;0.2880;
3103759656616699;-0.3671;-0.0651;0.2848;
3103759666723678;-0.3458;0.1873;0.2166;
3103759676830605;-0.2957;0.1437;0.2337;
3103759686933418;-0.2904;0.1032;0.2145;
3103759697040397;-0.3447;0.0893;0.1826;
3103759707147324;-0.4257;-0.0001;0.2103;
3103759717253157;-0.4875;-0.0971;0.1804;
3103759727360136;-0.3905;-0.0715;0.1815;
3103759737467063;-0.3202;-0.0204;0.1357;
3103759747578053;-0.3170;-0.0470;0.1176;
3103759757684980;-0.3543;-0.1365;0.0963;
3103759767791959;-0.2925;-0.0992;0.0632;
3103759777899199;-0.2190;0.0925;0.0025;
3103759788006178;-0.2425;0.0435;-0.0379;
3103759798113105;-0.2308;-0.0609;-0.0518;
3103759808224407;-0.2063;0.0936;-0.0742;
3103759818331386;-0.1913;0.1394;-0.0838;
3103759828438313;-0.2009;0.0659;-0.0539;
3103759838556491;-0.2180;0.0244;-0.0379;
3103759848663470;-0.1818;0.0095;-0.0976;
3103759858770397;-0.1340;0.0638;-0.1029;
3103759868868782;-0.1148;0.0169;-0.1210;
3103759878975761;-0.0754;0.0819;-0.1274;
3103759889082688;-0.0754;0.0808;-0.1178;
3103759899180032;-0.0892;0.0084;-0.1423;
3103759909287011;-0.0583;-0.0332;-0.1338;
3103759919393938;-0.0168;-0.0353;-0.1328;
3103759929505449;-0.0019;-0.0406;-0.1285;
3103759939612428;0.0482;-0.0119;-0.1083;
3103759949719355;0.0791;0.0776;-0.1477;
3103759959825918;0.0237;0.0691;-0.1434;
3103759969932897;0.0077;0.1053;-0.1200;
3103759980039824;-0.0700;0.0393;-0.1242;
3103759990148991;-0.0828;-0.0800;-0.1370;
3103760000255970;-0.0487;-0.0108;-0.1157;
3103760010362897;-0.1137;-0.1013;-0.0614;
3103760020473470;-0.1807;-0.5081;0.0313;
3103760030580449;-0.1414;-0.6104;0.0068;
3103760040687376;0.0237;-0.2441;0.0111;
3103760050776126;0.3337;-0.0928;-0.0369;
3103760060883105;0.2527;0.0393;-0.1381;
3103760070990032;-0.0423;0.3619;-0.1455;
3103760081115084;0.0535;0.3427;-0.1977;
3103760091222063;0.0738;0.1554;-0.1328;
3103760101328991;-0.1233;0.0819;-0.1157;
3103760111433157;-0.1786;0.0467;-0.0997;
3103760121540136;0.0919;0.6804;-0.0411;
3103760131647063;0.1547;0.5547;0.0047;
3103760141749095;-0.0029;-0.2366;0.0068;
3103760151856074;-0.0221;0.0201;0.0643;
3103760161963001;-0.0487;0.0478;0.0292;
3103760172067220;-0.2563;-0.5603;-0.0806;
3103760182174199;-0.1967;-0.3517;-0.0838;
3103760192281126;0.0152;-0.1099;-0.1157;
3103760202392741;0.1941;-0.0310;-0.1658;
3103760212499720;0.1622;-0.0055;-0.1328;
3103760222606647;0.0578;-0.0395;-0.1274;
3103760232740345;0.1473;0.0670;-0.1210;
3103760242847324;0.1569;0.0425;-0.1157;
3103760252954251;0.1185;-0.0065;-0.0859;
3103760263044720;0.1281;0.0680;-0.0603;
3103760273151699;0.1142;0.0446;-0.0561;
3103760283258626;0.1025;-0.1152;-0.0348;
3103760293386126;0.1931;0.0137;-0.0145;
3103760303493105;0.3134;0.1511;0.0377;
3103760313600032;0.2122;-0.1450;0.0739;
3103760323673053;0.1111;-0.1312;0.0792;
3103760333780032;0.1558;0.1032;0.0899;
3103760343886959;0.1068;-0.0523;0.0867;
3103760354010553;0.0482;-0.2185;0.0952;
3103760364117532;0.0823;0.0169;0.0782;
3103760374224459;0.0546;0.0648;0.0750;
3103760384331178;0.0120;-0.0545;0.0846;
3103760394438157;-0.0274;-0.0481;0.1016;
3103760404545084;-0.0402;-0.0161;0.1080;
3103760414640449;0.0205;0.0830;0.1176;
3103760424747428;0.0567;0.0851;0.1218;
3103760434854355;0.0429;-0.0119;0.1144;
3103760444958366;0.0344;0.0382;0.1165;
3103760455065345;0.0439;0.2565;0.1208;
3103760465172272;0.0375;0.1586;0.1325;
3103760475268886;0.0503;0.0180;0.1783;
3103760485375866;0.0013;0.0925;0.1708;
3103760495482793;-0.0360;0.0084;0.1612;
3103760505595657;-0.0605;-0.0513;0.1932;
3103760515702636;-0.0743;0.0212;0.1911;
3103760525809563;-0.0551;-0.0310;0.1911;
3103760535923261;-0.0370;-0.0033;0.1921;
3103760546030136;-0.0626;0.0595;0.1719;
3103760556137063;-0.0562;-0.0065;0.1921;
3103760566242324;-0.0487;-0.0779;0.1858;
3103760576349199;-0.1095;-0.1226;0.1740;
3103760586456126;-0.1297;-0.1003;0.2092;
3103760596588053;-0.1201;-0.0257;0.2220;
3103760606694928;-0.0860;0.0233;0.1964;
3103760616801855;-0.0658;-0.0332;0.1953;
3103760626882116;-0.0743;-0.0491;0.2348;
3103760636988991;-0.1031;0.0659;0.2358;
3103760647095918;-0.1126;0.0798;0.1953;
3103760657204303;-0.0509;0.0318;0.1879;
3103760667311178;-0.0999;-0.0864;0.2209;
3103760677418105;-0.1340;-0.0087;0.2252;
3103760687530657;-0.1775;0.0361;0.2369;
3103760697637532;-0.2286;0.0137;0.2198;
3103760707744459;-0.1967;-0.0076;0.2007;
3103760717850449;-0.2052;0.0148;0.1921;
3103760727957324;-0.2393;0.0041;0.1921;
3103760738064251;-0.3341;-0.0640;0.1261;
3103760748173678;-0.3511;0.0009;0.0888;
3103760758280553;-0.3543;0.0787;0.1016;
3103760768387480;-0.3160;0.1096;0.0526;
3103760778491178;-0.2478;0.0691;0.0270;
3103760788598053;-0.2265;-0.0076;0.0196;
3103760798704980;-0.2734;-0.0268;-0.0113;
3103760808809303;-0.3053;-0.0140;-0.0113;
3103760818916178;-0.3128;-0.0577;-0.0262;
3103760829023105;-0.2478;0.0073;-0.0688;
3103760839128366;-0.2435;0.1053;-0.1008;
3103760849235241;-0.2286;-0.0364;-0.1306;
3103760859342168;-0.1881;-0.0736;-0.1402;
3103760869454199;-0.2361;0.0457;-0.1573;
3103760879561074;-0.2105;0.0084;-0.2073;
3103760889668001;-0.1553;0.0435;-0.2158;
3103760899765657;-0.0999;0.1554;-0.2297;
3103760909872532;-0.0999;-0.0182;-0.2169;
3103760919979459;-0.1414;-0.3389;-0.1626;
3103760930098782;-0.0913;-0.0704;-0.2382;
3103760940205657;-0.1308;0.2820;-0.3011;
3103760950312584;-0.0594;0.1490;-0.2851;
3103760960434303;0.0812;-0.2185;-0.2616;
3103760970541230;0.0162;-0.1695;-0.2819;
3103760980648105;-0.1105;0.0180;-0.2947;
3103760990739616;-0.0881;-0.0342;-0.3126;
3103761000846491;-0.0455;-0.0609;-0.3382;
3103761010953418;0.0322;0.1277;-0.3457;
3103761021058991;0.0855;0.5217;-0.2883;
3103761031165866;0.0482;0.0308;-0.2680;
3103761041272793;0.0003;-0.3634;-0.3403;
3103761051374511;-0.0839;0.0510;-0.3032;
3103761061481386;-0.0636;0.0478;-0.2723;
3103761071588313;-0.0530;-0.1951;-0.2808;
3103761081699616;0.0152;-0.1130;-0.2893;
3103761091806491;0.1281;0.1842;-0.3105;
3103761101913418;0.0695;0.1554;-0.3212;
3103761112024199;0.0610;-0.0332;-0.3265;
3103761122131074;0.0983;0.0286;-0.3542;
3103761132238001;0.0535;0.1575;-0.3011;
3103761142333886;-0.0264;-0.0278;-0.3011;
3103761152440761;-0.0413;-0.1631;-0.3233;
3103761162547688;0.1068;0.1352;-0.2595;
3103761172679511;0.1121;0.1767;-0.2936;
3103761182786386;0.1387;0.0574;-0.3043;
3103761192893313;0.2069;0.1128;-0.2883;
3103761202979772;0.1260;-0.0981;-0.2904;
3103761213086647;0.1057;-0.0854;-0.2606;
3103761223193574;0.2218;0.1107;-0.2265;
3103761233362324;0.2325;-0.0246;-0.2137;
3103761243469199;0.1111;-0.2984;-0.1913;
3103761253576126;0.2027;-0.0534;-0.1519;
3103761263625241;0.4029;0.1937;-0.1754;
3103761273732116;0.3071;0.0095;-0.1828;
3103761283839043;0.1867;-0.2110;-0.1402;
3103761293969199;0.1526;-0.1759;-0.0976;
3103761304076074;0.2229;0.0276;-0.0816;
3103761314183001;0.2591;0.0276;-0.0806;
3103761324274616;0.1899;-0.0917;-0.0582;
3103761334381491;0.1643;-0.0640;-0.0422;
3103761344488418;0.2442;0.1000;-0.0252;
3103761354597324;0.1803;-0.0587;0.0419;
3103761364704199;0.1302;-0.0981;0.0473;
3103761374811126;0.1270;0.1277;0.0313;
3103761384925136;0.1313;0.0606;0.0281;
3103761395032011;0.1718;0.0851;0.0473;
3103761405138938;0.1590;0.1405;0.0505;
3103761415224720;0.1377;0.0680;0.0387;
3103761425331595;0.1121;0.1160;0.0696;
3103761435438522;0.1047;0.0478;0.0877;
3103761445545866;0.0972;0.0648;0.1037;
3103761455652741;0.0972;0.1330;0.1442;
3103761465759668;0.0738;-0.0119;0.1325;
3103761475880501;0.0844;-0.0225;0.0803;
3103761485987376;0.1047;0.1160;0.0877;
3103761496094303;0.1206;0.0467;0.1133;
3103761506193574;0.1015;-0.0033;0.1378;
3103761516300449;0.0695;-0.0214;0.1229;
3103761526407376;0.0812;-0.0992;0.1431;
3103761536514668;0.0578;0.0233;0.1762;
3103761546621647;0.0194;0.1202;0.1570;
3103761556728574;0.0951;-0.0108;0.1176;
3103761566839511;0.1292;-0.0310;0.1581;
3103761576946491;0.0727;-0.0172;0.1527;
3103761587053418;0.0418;-0.2057;0.1730;
3103761597149720;0.0216;-0.2302;0.2060;
3103761607256699;-0.0668;0.2362;0.1858;
3103761617363626;-0.0562;0.4333;0.1602;
3103761627465345;0.3145;0.2522;0.1485;
3103761637572324;0.3614;0.0180;0.2177;
3103761647679251;0.0993;-0.0662;0.2869;
3103761657781803;-0.0850;0.0915;0.2816;
3103761667888782;-0.1126;0.0712;0.2561;
3103761677995709;-0.0477;-0.1450;0.2720;
3103761688109303;0.0589;0.0009;0.2933;
3103761698216282;0.0333;0.3790;0.3241;
3103761708323209;-0.1807;-0.3655;0.3433;
3103761718452063;-0.1297;-0.5092;0.2593;
3103761728559043;-0.2776;-0.1141;0.2401;
3103761738665970;-0.4736;-0.0747;0.1879;
3103761748759407;-0.3490;-0.0449;0.1336;
3103761758866386;-0.1690;-0.1035;0.0963;
3103761768973313;-0.1318;0.0531;0.0728;
3103761779079251;-0.2222;0.2884;0.0814;
3103761789186230;-0.1648;0.1266;0.0750;
3103761799293157;-0.0477;0.0798;0.1069;
3103761809406803;-0.1828;-0.0662;0.1122;
3103761819513782;-0.2723;-0.1940;0.0174;
3103761829620709;-0.2755;0.1011;-0.0039;
3103761839729824;-0.4001;0.1266;-0.0124;
3103761849836803;-0.1627;-0.1759;-0.0624;
3103761859943730;-0.0743;-0.0822;-0.1242;
3103761870055188;-0.1679;0.0585;-0.1434;
3103761880162168;-0.1350;-0.0225;-0.1626;
3103761890269095;-0.0764;0.0787;-0.1700;
3103761900363261;-0.0711;-0.0172;-0.1541;
3103761910470241;-0.0477;-0.0577;-0.2084;
3103761920577168;-0.0189;0.0925;-0.1722;
3103761930686282;-0.0232;0.0414;-0.1786;
3103761940793261;0.1079;-0.0555;-0.1988;
3103761950900188;0.1324;-0.1248;-0.1988;
3103761961009095;0.2154;-0.0044;-0.1977;
3103761971116074;0.2932;-0.0129;-0.1349;
3103761981223001;0.3518;-0.1482;-0.0987;
3103761991335761;0.4667;-0.0321;-0.0912;
3103762001442741;0.4582;-0.0161;-0.0358;
3103762011549668;0.4688;-0.0619;0.0121;
3103762021664668;0.4507;-0.0172;0.0814;
3103762031771647;0.3965;-0.0257;0.1240;
3103762041878574;0.3869;-0.0321;0.1517;
3103762051972428;0.3188;0.0318;0.1783;
3103762062079407;0.2463;0.0063;0.2422;
3103762072186334;0.1739;-0.0523;0.2965;
3103762082291491;0.1558;0.0744;0.3209;
3103762092398470;0.0748;-0.0204;0.3624;
3103762102505397;-0.0232;-0.1099;0.3806;
3103762112620761;-0.1531;0.0180;0.4083;
3103762122727741;-0.2276;-0.0001;0.4029;
3103762132834668;-0.2893;-0.0427;0.4200;
3103762142911491;-0.4289;0.0020;0.4008;
3103762153018418;-0.4822;0.0787;0.3369;
3103762163125397;-0.5120;0.1320;0.2752;
3103762173259980;-0.5823;0.1383;0.2678;
3103762183366959;-0.6451;0.1735;0.2156;
3103762193473886;-0.6526;0.1011;0.1698;
3103762203583626;-0.6845;-0.0566;0.1325;
3103762213690605;-0.7218;-0.0971;0.0664;
3103762223797532;-0.6100;0.0329;-0.0017;
3103762233888678;-0.4949;0.0872;-0.0475;
3103762243995657;-0.4470;-0.0310;-0.1040;
3103762254102584;-0.3735;-0.0459;-0.1381;
3103762264230188;-0.3021;-0.0598;-0.2041;
3103762274337168;-0.2073;-0.0747;-0.2350;
3103762284444095;-0.1329;0.0595;-0.2521;
3103762294544928;-0.1180;-0.0704;-0.2585;
3103762304651907;-0.0487;-0.3101;-0.2904;
3103762314758834;0.0674;-0.1184;-0.3212;
3103762324849720;0.1260;0.1298;-0.3148;
3103762334956699;0.2687;0.1298;-0.3190;
3103762345063626;0.2826;0.0041;-0.2947;
3103762355174095;0.2091;-0.0768;-0.2979;
3103762365281074;0.3209;-0.0065;-0.2638;
3103762375388001;0.4454;0.3566;-0.2830;
3103762385497220;0.4317;0.4280;-0.2723;
3103762395604199;0.4061;0.0531;-0.2095;
3103762405711126;0.3390;0.2394;-0.1690;
3103762415823782;0.2250;0.3822;-0.1083;
3103762425930761;0.2367;-0.1876;-0.0816;
3103762436037688;0.1632;-0.2249;-0.0987;
3103762446147116;-0.0104;0.0084;-0.1232;
3103762456254095;0.0258;-0.0214;-0.1051;
3103762466361022;0.1569;0.1245;-0.0976;
3103762476471699;-0.0626;-0.2941;-0.0933;
3103762486578678;-0.0860;-0.3634;-0.1306;
3103762496685605;-0.2872;-0.0427;-0.1647;
3103762506816074;-0.2276;-0.1493;-0.2073;
3103762516923053;-0.0061;-0.1109;-0.2435;
3103762527029980;-0.1169;0.0340;-0.2222;
3103762537106282;-0.0423;0.0180;-0.2244;
3103762547213261;0.0344;0.1053;-0.2478;
3103762557320241;0.0439;0.1320;-0.2563;
3103762567421178;0.0823;0.1213;-0.2425;
3103762577528157;0.1015;0.1650;-0.2244;
3103762587635136;0.1217;-0.0087;-0.2137;
3103762597751595;0.1281;-0.1823;-0.2201;
3103762607858574;0.1068;-0.0374;-0.2148;
3103762617965553;0.1068;0.0190;-0.2031;
3103762628059199;0.2272;-0.1152;-0.1754;
3103762638166178;0.2485;-0.1226;-0.1913;
3103762648273157;0.1941;-0.0300;-0.1945;
3103762658383366;0.2357;-0.0012;-0.1807;
3103762668490345;0.3614;0.0095;-0.1871;
3103762678597324;0.3326;0.0819;-0.1615;
3103762688706699;0.2911;0.0659;-0.1519;
3103762698813678;0.3379;0.0553;-0.1115;
3103762708920657;0.2612;0.0830;-0.1125;
3103762719043313;0.2612;0.0095;-0.0987;
3103762729150293;0.2367;0.0585;-0.0752;
3103762739257272;0.2325;0.0830;-0.0348;
3103762749348157;0.2165;-0.0278;-0.0752;
3103762759455136;0.1814;-0.0193;-0.0422;
3103762769562116;0.1025;-0.0843;-0.0529;
3103762779668470;0.0983;-0.0598;-0.0614;
3103762789775449;0.0567;-0.0438;-0.0699;
3103762799882428;0.0929;-0.0736;-0.0678;
3103762809999720;0.0535;-0.0640;-0.1157;
3103762820106699;0.0834;0.0372;-0.0955;
3103762830213678;0.1611;0.0563;-0.0923;
3103762840315345;0.1814;0.0222;-0.0806;
3103762850422324;0.1366;-0.0289;-0.1168;
3103762860529303;0.1590;0.0084;-0.0891;
3103762870637845;0.1792;-0.0374;-0.1040;
3103762880744824;0.1909;-0.0960;-0.0838;
3103762890851803;0.1228;-0.1695;-0.0582;
3103762900957949;0.0876;-0.2196;-0.0561;
3103762911064928;0.1611;-0.1290;-0.0646;
3103762921171907;0.1909;-0.3229;-0.0507;
3103762931274720;0.0439;-0.1887;-0.0252;
3103762941381699;0.2676;0.1959;-0.0486;
3103762951488678;0.5956;0.3406;-0.1221;
3103762961592636;0.4901;0.2437;-0.0827;
3103762971699616;0.3177;0.1341;0.0025;
3103762981806595;0.3507;0.2053;0.0185;
3103762991908366;0.4720;0.1724;0.0366;
3103763002015345;0.4646;0.0244;0.1016;
3103763012122324;0.3347;-0.1024;0.1666;
3103763022227324;0.2527;-0.0800;0.1708;
3103763032334303;0.3571;0.2660;0.2156;
3103763042441282;0.4678;0.0617;0.2891;
3103763052549616;0.3316;-0.3804;0.2699;
3103763062656595;-0.0498;-0.0939;0.2369;
3103763072763574;-0.0253;0.0627;0.2252;
3103763082883678;0.2463;0.0446;0.1676;
3103763092990657;0.1206;0.0126;0.1676;
3103763103097636;-0.0360;0.0414;0.2017;
3103763113215553;0.0109;0.1671;0.1762;
3103763123322532;0.1057;0.0478;0.1932;
3103763133429511;0.0503;-0.1056;0.2667;
3103763143533574;-0.0839;0.0201;0.2688;
3103763153640553;-0.0818;0.0467;0.2869;
3103763163747532;0.0141;-0.0545;0.2422;
3103763173834824;-0.0328;0.0126;0.2561;
3103763183941803;-0.1137;0.0787;0.2433;
3103763194048782;-0.0391;0.0499;0.2060;
3103763204158782;-0.0562;0.0563;0.2316;
3103763214265761;-0.1478;-0.0662;0.1921;
3103763224372741;-0.1659;-0.0470;0.1474;
3103763234499095;-0.2084;0.0201;0.1314;
3103763244606074;-0.1871;-0.0023;0.1549;
3103763254713053;-0.1860;0.0126;0.1389;
3103763264828470;-0.1711;0.0499;0.1293;
3103763274935449;-0.1818;0.0627;0.1144;
3103763285042428;-0.1531;0.0063;0.1304;
3103763295127845;-0.1606;-0.0119;0.0867;
3103763305234824;-0.1521;0.0095;0.0579;
3103763315341803;-0.1521;-0.0459;0.1048;
3103763325449824;-0.1276;0.0233;0.0196;
3103763335556803;-0.0605;0.0638;0.0228;
3103763345663782;-0.0700;-0.0342;0.0654;
3103763355768886;-0.0647;0.0276;0.0622;
3103763365875866;-0.0306;0.0755;0.0792;
3103763375982845;-0.0242;0.0031;0.0760;
3103763386089511;0.0067;-0.0353;0.0739;
3103763396196491;0.0067;-0.0236;0.0867;
3103763406303470;-0.0008;0.0052;0.1122;
3103763416405241;-0.0541;-0.0225;0.1080;
3103763426512220;-0.0189;-0.0087;0.0899;
3103763436619199;-0.0796;-0.0459;0.1304;
3103763446724928;-0.1052;-0.1003;0.1197;
3103763456831907;-0.0541;-0.0161;0.1122;
3103763466938886;-0.0690;0.0989;0.1421;
3103763477060345;-0.0903;0.0915;0.1442;
3103763487167324;-0.0956;0.0212;0.1059;
3103763497274303;-0.0668;0.0840;0.1314;
3103763507385657;-0.1052;0.1426;0.1240;
3103763517492636;-0.1148;0.0308;0.1549;
3103763527599616;-0.0913;0.0915;0.1666;
3103763537687324;-0.1254;0.1192;0.1804;
3103763547794251;-0.1542;-0.0012;0.1666;
3103763557901230;-0.1489;-0.0140;0.1549;
3103763568011282;-0.1659;-0.0076;0.1740;
3103763578118209;-0.1935;0.0116;0.1826;
3103763588225188;-0.2340;-0.1088;0.1868;
3103763598347324;-0.2137;-0.0779;0.1325;
3103763608454251;-0.2361;0.0329;0.1186;
3103763618561230;-0.2776;-0.0119;0.0995;
3103763628652428;-0.2276;-0.0065;0.0611;
3103763638759355;-0.2616;0.1266;0.0419;
3103763648866334;-0.3351;0.0489;0.0430;
3103763658975866;-0.3181;-0.0779;-0.0007;
3103763669082793;-0.2830;-0.0087;-0.0209;
3103763679189772;-0.3117;0.0691;-0.0411;
3103763689298261;-0.2467;0.1415;-0.0049;
3103763699405188;-0.2819;0.0340;-0.0497;
3103763709512168;-0.1956;-0.0172;-0.1200;
3103763719616491;-0.1350;0.0872;-0.1146;
3103763729723418;-0.1818;0.0787;-0.0880;
3103763739830397;-0.1158;0.0744;-0.0848;
3103763749943574;-0.1095;0.1266;-0.1061;
3103763760050501;-0.1679;0.0563;-0.1338;
3103763770157480;-0.1521;-0.0289;-0.1658;
3103763780256595;-0.0988;-0.0161;-0.1530;
3103763790363522;-0.0679;0.0265;-0.1551;
3103763800470501;-0.1254;0.0244;-0.1818;
3103763810577532;-0.1553;-0.1429;-0.1636;
3103763820684459;-0.0594;-0.2047;-0.1498;
3103763830791438;0.1707;-0.0087;-0.1807;
3103763840890241;0.0823;0.0766;-0.2052;
3103763850997168;-0.0573;0.0744;-0.1988;
3103763861104147;-0.0317;0.1107;-0.2137;
3103763871219616;-0.0818;-0.0150;-0.2009;
3103763881326543;-0.0871;-0.1194;-0.1935;
3103763891433522;0.0088;-0.0438;-0.2063;
3103763901545032;0.0525;-0.0097;-0.1935;
3103763911651959;-0.0083;-0.0523;-0.1871;
3103763921758938;0.0418;-0.0268;-0.1818;
3103763931862116;0.1643;0.0872;-0.1477;
3103763941969043;0.0983;0.1927;-0.1253;
3103763952076022;-0.0413;-0.0193;-0.1168;
3103763962188157;0.0642;-0.0832;-0.1274;
3103763972295084;0.2282;0.0734;-0.1477;
3103763982402063;0.0589;0.0553;-0.1232;
3103763992499303;-0.0466;-0.0694;-0.1189;
3103764002606230;0.1174;-0.0023;-0.1253;
3103764012713209;0.1196;0.0446;-0.1434;
3103764022824303;0.0375;0.0393;-0.1285;
3103764032931230;0.0439;0.0276;-0.0997;
3103764043038209;0.0706;-0.0044;-0.0827;
3103764053140241;0.0834;-0.0193;-0.1115;
3103764063247168;0.1185;0.0169;-0.1019;
3103764073354147;0.1196;0.1128;-0.0891;
3103764083456386;0.0450;0.0297;-0.0827;
3103764093563313;0.0312;-0.1152;-0.0688;
3103764103670293;0.1089;-0.1258;-0.0646;
3103764113805553;0.1121;-0.0981;-0.0603;
3103764123912480;0.0567;-0.1216;-0.0635;
3103764134019459;0.1164;-0.1280;-0.0507;
3103764144100866;0.1899;-0.0204;-0.0497;
3103764154207793;0.1537;0.0521;-0.0294;
3103764164314772;0.1164;-0.0033;-0.0230;
3103764174429199;0.1601;-0.0097;-0.0252;
3103764184536126;0.1430;0.0755;-0.0209;
3103764194643105;0.1185;-0.0097;0.0089;
3103764204747116;0.1174;-0.1471;-0.0060;
3103764214854043;0.1760;-0.0768;0.0206;
3103764224961022;0.0983;0.0350;0.0281;
3103764235087897;0.0493;-0.4102;0.1272;
3103764245194824;0.2154;-0.6221;0.1676;
3103764255301803;0.3869;-0.0928;0.0973;
3103764265386751;0.3113;0.3662;0.0739;
3103764275493678;0.2122;0.3513;0.1144;
3103764285600657;0.1601;0.1032;0.1272;
3103764295718261;0.1260;0.1831;0.1165;
3103764305825188;0.0706;0.2075;0.0835;
3103764315932168;0.0237;-0.0651;0.1240;
3103764326043053;0.0652;-0.1493;0.1666;
3103764336149980;0.1398;-0.0704;0.1581;
3103764346256959;0.1632;-0.0236;0.1836;
3103764356360032;0.1185;-0.0353;0.2156;
3103764366466959;0.1121;-0.0438;0.2156;
3103764376573938;0.1952;0.4184;0.2166;
3103764386672220;0.1632;0.3672;0.2305;
3103764396779147;0.0695;-0.4399;0.3145;
3103764406886126;-0.0850;-0.4762;0.3040;
3103764416999511;-0.0977;-0.1919;0.2752;
3103764427106438;0.0397;-0.1834;0.2699;
3103764437213418;-0.0360;-0.1908;0.2614;
3103764447317584;-0.1063;-0.0587;0.2486;
3103764457424511;-0.1265;0.2213;0.2071;
3103764467531491;-0.1318;0.2394;0.1868;
3103764477635970;-0.2212;0.0776;0.1900;
3103764487742897;-0.2297;0.0957;0.1815;
3103764497849876;-0.2350;0.0052;0.2156;
3103764507962897;-0.2467;-0.1716;0.1900;
3103764518069824;-0.2382;-0.1013;0.1847;
3103764528176803;-0.2542;-0.0268;0.1517;
3103764538282949;-0.1839;-0.0289;0.1186;
3103764548389928;-0.2009;0.1149;0.1346;
3103764558496907;-0.2105;0.1937;0.1389;
3103764568602845;-0.2180;0.0883;0.1218;
3103764578709824;-0.2361;0.0819;0.0771;
3103764588816803;-0.1967;0.1075;0.0537;
3103764598951386;-0.2095;-0.0300;0.0281;
3103764609058366;-0.1679;-0.0587;0.0153;
3103764619165345;-0.1743;-0.0172;0.0036;
3103764629244511;-0.1340;-0.0310;-0.0241;
3103764639351491;-0.1233;-0.0140;-0.0220;
3103764649458470;-0.1158;0.0126;-0.0305;
3103764659568001;-0.0679;0.0968;-0.0710;
3103764669674980;-0.0413;0.1383;-0.0369;
3103764679781959;-0.0051;0.1075;-0.0582;
3103764689889251;0.0088;0.0542;-0.0252;
3103764699996230;0.0312;0.0627;-0.0880;
3103764710103209;0.0802;0.0691;-0.0667;
3103764720229095;0.0876;-0.0012;-0.0379;
3103764730336074;0.1292;-0.0119;-0.0252;
3103764740443053;0.1473;0.0276;-0.0316;
3103764750534095;0.1537;0.0382;-0.0198;
3103764760641074;0.1377;0.0222;0.0153;
3103764770748053;0.1164;-0.0459;0.0217;
3103764780847011;0.0759;-0.0385;0.0196;
3103764790953991;0.0695;0.0190;0.0100;
3103764801060970;0.0695;0.0095;0.0270;
3103764811171282;0.0056;-0.0321;0.0238;
3103764821278261;0.0099;0.0329;0.0164;
3103764831385241;0.0184;0.0446;0.0206;
3103764841497480;-0.0083;0.0190;0.0036;
3103764851604459;-0.0349;-0.0225;-0.0081;
3103764861711438;-0.0296;-0.0076;-0.0198;
3103764871801126;-0.0391;0.0382;0.0036;
3103764881908105;-0.0242;-0.0257;-0.0220;
3103764892015084;-0.0253;-0.0459;-0.0316;
3103764902128678;-0.0498;0.0510;-0.0166;
3103764912235657;-0.0743;-0.0385;0.0025;
3103764922342636;-0.0807;-0.0704;-0.0230;
3103764932445084;-0.0924;-0.0214;-0.0337;
3103764942552063;-0.1158;-0.0268;-0.0316;
3103764952659043;-0.1158;-0.0321;-0.0241;
3103764962789355;-0.1254;-0.0459;-0.0518;
3103764972896334;-0.1063;-0.0214;-0.0497;
3103764983003313;-0.1254;-0.0150;-0.0976;
3103764993098782;-0.1073;-0.0087;-0.1157;
3103765003205761;-0.1052;0.0350;-0.1253;
3103765013312741;-0.0924;0.0744;-0.1445;
3103765023410449;-0.0690;0.0744;-0.1807;
3103765033517428;-0.0434;0.1181;-0.1541;
3103765043624407;-0.0754;-0.1067;-0.1636;
3103765053749407;-0.1308;-0.2121;-0.1274;
3103765063856386;-0.0477;0.0478;-0.1860;
3103765073963366;0.0876;0.1000;-0.1764;
3103765084050032;0.0823;-0.0577;-0.1477;
3103765094157011;0.0407;-0.0438;-0.1434;
3103765104263991;0.1025;0.0499;-0.1328;
3103765114397897;0.1771;0.0595;-0.0891;
3103765124504876;0.2165;0.0286;-0.1019;
3103765134611855;0.2154;0.0201;-0.1093;
3103765144696907;0.2474;-0.0033;-0.0763;
3103765154803886;0.2517;-0.0182;-0.0390;
3103765164910866;0.2879;-0.0715;-0.0465;
3103765175012324;0.2836;-0.0640;-0.0433;
3103765185119303;0.2698;-0.0417;-0.0273;
3103765195226282;0.2953;-0.0843;0.0249;
3103765205344511;0.2676;0.0734;0.0281;
3103765215451491;0.2943;-0.0097;0.0728;
3103765225558470;0.2495;-0.1365;0.0696;
3103765235666699;0.2016;0.0425;0.1048;
3103765245773678;0.1899;0.0957;0.1421;
3103765255880657;0.2623;0.0414;0.1389;
3103765265982116;0.2048;0.0361;0.1549;
3103765276089095;0.1249;0.0350;0.1623;
3103765286196074;0.1292;0.0233;0.1943;
3103765296307428;0.1100;-0.0055;0.2220;
3103765306414407;0.0716;0.0009;0.2071;
3103765316521386;0.0354;0.0105;0.2081;
3103765326626386;0.0248;0.0691;0.2145;
3103765336733366;0.0312;0.0084;0.2422;
3103765346840345;-0.0072;-0.1088;0.2401;
3103765356944928;-0.1595;-0.0854;0.2294;
3103765367051907;-0.3011;-0.0523;0.2156;
3103765377158886;-0.2595;-0.0076;0.2124;
3103765387263574;-0.1711;-0.0289;0.1826;
3103765397370553;-0.1659;-0.1258;0.1879;
3103765407477532;-0.3128;-0.0427;0.1538;
3103765417581595;-0.2787;0.0095;0.1623;
3103765427688574;-0.1233;-0.0001;0.1176;
3103765437795553;-0.0807;0.0009;0.0973;
3103765447906803;-0.1116;0.0403;0.0835;
3103765458013782;-0.0722;0.1149;0.0824;
3103765468120761;0.0173;0.1096;0.0696;
3103765478219199;0.0375;0.0286;0.0622;
3103765488326178;-0.0328;0.0233;0.0824;
3103765498433157;-0.0413;0.0542;0.0569;
3103765508572324;-0.0200;0.0382;0.0483;
3103765518679303;-0.0349;-0.0055;0.0483;
3103765528786282;-0.0594;0.0009;0.0451;
3103765538876699;-0.0551;0.0414;0.0505;
3103765548983678;-0.0189;0.0425;0.0430;
3103765559090657;0.0045;0.0979;0.0270;
3103765569203782;0.0301;0.0851;0.0526;
3103765579310761;0.0258;0.0020;-0.0017;
3103765589417741;-0.0115;-0.0097;-0.0497;
3103765599512116;-0.0754;0.0723;-0.0358;
3103765609619095;-0.0285;0.1043;-0.0550;
3103765619726074;0.0418;0.0318;-0.0784;
3103765629830657;0.0525;0.0158;-0.1051;
3103765639937636;0.0290;0.1053;-0.0891;
3103765650044616;0.0269;0.0308;-0.1061;
3103765660157011;0.0471;-0.0246;-0.1168;
3103765670263991;0.0802;0.0201;-0.0997;
3103765680370970;0.0887;0.0350;-0.1029;
3103765690474407;0.1174;0.0052;-0.0752;
3103765700581386;0.1238;0.0148;-0.0379;
3103765710688366;0.1217;0.0851;-0.0433;
3103765720802011;0.1473;0.0659;-0.0294;
3103765730908938;0.1313;-0.0129;-0.0305;
3103765741015918;0.1036;0.0137;-0.0230;
3103765751122897;0.0812;0.0563;-0.0113;
3103765761240136;0.0631;-0.0193;-0.0422;
3103765771347116;0.0578;-0.0619;-0.0507;
3103765781454095;0.0855;0.0936;-0.0039;
3103765791550241;0.0866;0.1245;-0.0049;
3103765801657220;0.0897;-0.0161;-0.0028;
3103765811764199;0.0439;-0.0736;0.0217;
3103765821875032;0.0067;-0.0395;0.0419;
3103765831982011;0.0407;0.0446;0.0270;
3103765842088991;0.0823;0.1064;0.0675;
3103765852180761;0.0802;0.0137;0.1080;
3103765862287741;0.0439;0.0020;0.1325;
3103765872394720;-0.0019;0.0286;0.1410;
3103765882510866;-0.0349;0.0126;0.1229;
3103765892617845;-0.0594;0.0265;0.1282;
3103765902724824;-0.0647;0.0787;0.1527;
3103765912823366;-0.1116;0.0648;0.1485;
3103765922930345;-0.1254;0.1011;0.1367;
3103765933037324;-0.1679;0.1117;0.1261;
3103765943202324;-0.2531;-0.0609;0.1229;
3103765953309303;-0.3149;-0.0566;0.1069;
3103765963416282;-0.4150;0.0712;0.0590;
3103765973503157;-0.4268;0.1096;0.0345;
3103765983610136;-0.3714;0.1128;0.0025;
3103765993717116;-0.3703;0.0808;-0.0103;
3103766003818991;-0.3820;0.0872;-0.0039;
3103766013925970;-0.4108;0.0862;-0.0348;
3103766024032949;-0.4108;0.0212;-0.0731;
3103766034112116;-0.4033;0.0020;-0.1136;
3103766044219095;-0.4033;-0.0055;-0.1434;
3103766054326074;-0.3767;-0.0406;-0.1498;
3103766064444928;-0.2957;0.0052;-0.1871;
3103766074551907;-0.2212;0.0883;-0.2126;
3103766084658886;-0.2020;0.0702;-0.2350;
3103766094754824;-0.1999;-0.0513;-0.2798;
3103766104861803;-0.0402;0.1000;-0.1636;
3103766114968782;-0.1052;0.4045;-0.3032;
3103766125078001;-0.1700;-0.0140;-0.2776;
3103766135184980;-0.1233;-0.3133;-0.3126;
3103766145291959;-0.1371;-0.2398;-0.3021;
3103766155396751;-0.0700;-0.0065;-0.3180;
3103766165503730;0.0482;0.0968;-0.3021;
3103766175610709;0.1824;-0.0321;-0.3073;
3103766185723001;0.3039;0.1554;-0.2883;
3103766195829980;0.3177;0.3129;-0.2521;
3103766205936959;0.2463;0.0595;-0.2371;
3103766216046803;0.2623;-0.1216;-0.1881;
3103766226153782;0.2186;-0.2771;-0.1498;
3103766236260761;0.1686;-0.4112;-0.1381;
3103766246367011;0.1356;-0.4410;-0.0774;
3103766256473991;0.1334;-0.5039;-0.2435;
3103766266580970;0.4699;-0.1461;-0.2361;
3103766276695501;0.6521;0.4450;-0.0710;
3103766286802480;0.5019;0.2288;0.0409;
3103766296909459;0.5913;-0.2324;0.1005;
3103766307013782;0.6350;-0.1450;0.1144;
3103766317120761;0.3507;0.0190;0.0867;
3103766327227741;0.2794;-0.0470;0.0920;
3103766337328001;0.3379;-0.1727;0.1623;
3103766347434980;0.2964;-0.2803;0.1623;
3103766357541959;0.2612;-0.0598;0.1538;
3103766367637949;0.2091;0.2202;0.1069;
3103766377744928;0.2740;0.1575;0.1602;
3103766387851907;0.4093;0.1266;0.2039;
3103766397981074;0.3443;0.1277;0.2816;
3103766408088053;0.2069;0.0893;0.3358;
3103766418195032;0.1473;0.0936;0.3390;
3103766428283782;0.0993;-0.0214;0.3454;
3103766438390761;-0.0072;-0.0012;0.3156;
3103766448497741;-0.1126;0.1021;0.2646;
3103766458603366;-0.1020;0.1352;0.2422;
3103766468710345;0.0525;0.1213;0.2060;
3103766478817324;0.0759;0.0478;0.2507;
3103766488930032;0.0173;-0.0342;0.2529;
3103766499037011;-0.0786;0.0499;0.2348;
3103766509143991;-0.1169;-0.0044;0.2273;
3103766519239303;-0.1137;-0.2409;0.1772;
3103766529346282;-0.1531;-0.2718;0.1730;
3103766539453261;-0.1913;-0.1354;0.1740;
3103766549577220;-0.1871;-0.2057;0.1517;
3103766559684199;-0.2201;-0.4730;0.1463;
3103766569791178;-0.2148;-0.5262;0.1804;
3103766579900241;-0.5013;0.0031;0.1783;
3103766590007220;-0.6750;0.4194;0.1282;
3103766600114199;0.1558;0.3193;0.0643;
3103766610209720;0.5860;0.0787;0.0206;
3103766620316699;0.4475;0.1905;0.0931;
3103766630423678;0.1387;0.2820;0.1282;
3103766640543886;0.0557;0.1309;0.0973;
3103766650650866;0.0045;0.0446;0.1197;
3103766660757845;-0.0743;0.0755;0.1367;
3103766670868261;-0.1542;-0.0001;0.1517;
3103766680975241;-0.1638;-0.0470;0.1740;
3103766691082220;-0.2063;0.0542;0.1900;
3103766701182116;-0.2638;0.1778;0.1911;
3103766711289095;-0.2169;0.3694;0.1921;
3103766721396074;-0.2233;0.1256;0.2273;
3103766731522324;-0.4055;-0.5443;0.1165;
3103766741629303;-0.6941;-0.5443;0.0313;
3103766751736282;-0.9241;-0.3698;-0.0624;
3103766761824616;-0.7963;-0.1897;-0.1466;
3103766771931595;-0.6355;0.0361;-0.1988;
3103766782038574;-0.4470;0.2352;-0.2510;
3103766792132011;-0.1446;0.1767;-0.2798;
3103766802238991;-0.0019;0.1256;-0.2212;
3103766812345970;-0.0519;0.3055;-0.1530;
3103766822459199;-0.0775;0.4951;-0.1136;
3103766832566178;0.0322;0.3736;-0.0720;
3103766842673157;0.0397;0.2160;-0.0614;
3103766852786803;-0.1169;0.2618;-0.0326;
3103766862893782;-0.2158;0.3683;-0.0177;
3103766873000761;-0.1828;0.4610;-0.0529;
3103766883121126;-0.0988;0.5995;-0.0348;
3103766893228105;-0.1084;0.4876;0.0089;
3103766903335084;-0.1903;0.1639;-0.0316;
3103766913424928;-0.3969;0.0947;-0.0955;
3103766923531907;-0.5471;0.1170;-0.1051;
3103766933638886;-0.4917;0.2394;-0.1402;
3103766943754147;-0.3969;0.1884;-0.1679;
3103766953861126;-0.3192;0.0148;-0.2031;
3103766963968105;-0.4065;-0.0278;-0.2616;
3103766974081803;-0.3522;0.1330;-0.2744;
3103766984188782;-0.1722;0.2373;-0.2787;
3103766994295761;-0.0221;0.1565;-0.2638;
3103767004404928;-0.0594;-0.1045;-0.3043;
3103767014511907;-0.0850;-0.1450;-0.2776;
3103767024618886;-0.0647;-0.0246;-0.2510;
3103767034722741;0.0205;-0.0129;-0.2691;
3103767044829720;0.0951;-0.0449;-0.2446;
3103767054936699;0.0727;-0.0885;-0.2350;
3103767065044928;0.0652;-0.0790;-0.2318;
3103767075151907;-0.0136;-0.0630;-0.2350;
3103767085258886;-0.1095;-0.1663;-0.2489;
3103767095350553;-0.1297;-0.1652;-0.2979;
3103767105457532;-0.1796;-0.1216;-0.3446;
3103767115564511;-0.2467;-0.2238;-0.3925;
3103767125674095;-0.2744;-0.2355;-0.4671;
3103767135781074;-0.2233;-0.1738;-0.5214;
3103767145888053;-0.1531;-0.1759;-0.5587;
3103767155992011;-0.0956;-0.0917;-0.6035;
3103767166098991;-0.0189;0.0126;-0.6226;
3103767176205970;0.1047;-0.0300;-0.6109;
3103767186310449;0.2165;-0.0459;-0.5960;
3103767196417428;0.3060;-0.0076;-0.6003;
3103767206524407;0.3933;0.0009;-0.6035;
3103767216650397;0.5296;0.0883;-0.5555;
3103767226757376;0.6787;0.1522;-0.5438;
3103767236864355;0.7735;0.0947;-0.5161;
3103767246960084;0.8129;0.0158;-0.4458;
3103767257067063;0.8236;-0.0502;-0.4138;
3103767267174043;0.7959;-0.1258;-0.4075;
3103767277292636;0.9035;-0.1503;-0.3073;
3103767287399616;0.8939;-0.2750;-0.2659;
3103767297506595;0.8843;-0.2686;-0.2680;
3103767307588678;1.0546;-0.0555;-0.2371;
3103767317695657;1.1568;-0.0438;-0.2222;
3103767327802636;1.1494;-0.0406;-0.1466;
3103767337915553;1.0972;-0.0534;-0.0742;
3103767348022532;1.1164;0.0180;-0.0507;
3103767358129511;1.1995;-0.0438;-0.0358;
3103767368235241;1.3454;-0.0790;0.0718;
3103767378342220;1.4690;-0.1088;0.1666;
3103767388449199;1.6149;-0.1386;0.2752;
3103767398576074;1.7532;0.0830;0.3411;
3103767408683053;1.8853;0.2064;0.3912;
3103767418790032;1.9482;0.1000;0.5180;
3103767428881334;1.7426;0.1554;0.6916;
3103767438988313;1.5382;0.1778;0.8162;
3103767449095293;1.3699;0.1959;0.8056;
3103767459215918;1.2570;0.2490;0.9141;
3103767469322897;1.1526;0.2192;0.9855;
3103767479429876;0.9642;0.2224;1.0153;
3103767489524720;0.8843;0.2394;1.1293;
3103767499631699;0.8012;0.1415;1.1591;
3103767509738678;0.6563;0.1671;1.1772;
3103767519848678;0.5157;0.2533;1.1921;
3103767529955657;0.5466;0.2352;1.2912;
3103767540062636;0.5029;0.2597;1.2550;
3103767550178886;0.4008;0.2298;1.3189;
3103767560285866;0.2357;0.2522;1.3125;
3103767570392897;0.0216;0.2852;1.2710;
3103767580491907;-0.1212;0.2362;1.3445;
3103767590598886;-0.4651;0.2149;1.3168;
3103767600705918;-0.7304;0.2607;1.2539;
3103767610801282;-0.9443;0.2277;1.2134;
3103767620908261;-1.1275;0.2522;1.1495;
3103767631015293;-1.3672;0.1682;1.0441;
3103767641122324;-1.6622;0.0925;0.9727;
3103767651229303;-1.9189;0.1852;0.8716;
3103767661336334;-1.9583;0.1011;0.7449;
3103767671454511;-2.0295;0.0201;0.6522;
3103767681561491;-2.2106;0.0222;0.5265;
3103767691668522;-2.2223;-0.0182;0.4189;
3103767701767532;-2.2021;-0.0033;0.3401;
3103767711874511;-2.1819;-0.1865;0.2039;
3103767721981543;-2.0721;-0.2494;0.0675;
3103767732101178;-1.8443;-0.1141;-0.0017;
3103767742208157;-1.5780;-0.1312;-0.0774;
3103767752315188;-1.3193;-0.2260;-0.1541;
3103767762401595;-0.9987;-0.0960;-0.1796;
3103767772508574;-0.8261;0.0340;-0.1764;
3103767782615605;-0.6718;-0.0268;-0.1945;
3103767792742428;-0.3618;0.1735;-0.1881;
3103767802849407;-0.1828;0.5505;-0.1434;
3103767812956438;-0.2521;0.3694;-0.0049;
3103767823047324;-0.4608;-0.0225;-0.0177;
3103767833154303;-0.4800;-0.1578;0.0196;
3103767843261334;-0.4097;-0.0502;0.0611;
3103767853366907;-0.2979;-0.0097;0.0867;
3103767863473886;-0.2201;0.0084;0.1091;
3103767873580918;-0.1988;0.1490;0.1463;
3103767883683053;-0.2563;0.1682;0.2134;
3103767893790032;-0.3064;0.0979;0.1996;
3103767903897063;-0.3831;0.1735;0.2305;
3103767914028991;-0.5525;0.1746;0.1698;
3103767924135970;-0.7037;-0.0001;0.0888;
3103767934243001;-0.8325;-0.1684;0.0430;
3103767944332116;-0.8431;0.0297;0.0334;
3103767954439095;-0.8144;0.1820;0.0760;
3103767964546126;-0.6803;0.3246;0.0750;
3103767974662845;-0.5887;0.3811;0.0995;
3103767984769824;-0.6089;0.1320;0.0750;
3103767994876855;-0.6377;0.0244;0.0462;
3103768004981699;-0.6718;0.0020;0.0047;
3103768015088678;-0.6590;0.0009;-0.0475;
3103768025195709;-0.6792;-0.0374;-0.0806;
3103768035309251;-0.7133;-0.0598;-0.1423;
3103768045416230;-0.7293;0.0318;-0.2244;
3103768055523261;-0.6760;0.2043;-0.2595;
3103768065614511;-0.5770;0.2043;-0.2830;
3103768075721491;-0.5482;0.1989;-0.2851;
3103768085828522;-0.5631;0.2788;-0.3105;
3103768095953366;-0.5290;0.3012;-0.3201;
3103768106060345;-0.5003;0.2234;-0.3563;
3103768116167376;-0.5024;0.2096;-0.3414;
3103768126263053;-0.5333;0.1586;-0.3851;
3103768136370032;-0.5248;0.0286;-0.4202;
3103768146477063;-0.5152;0.0510;-0.4501;
3103768156575657;-0.5067;0.2565;-0.4543;
3103768166682636;-0.3969;0.2394;-0.4820;
3103768176789668;-0.3106;0.0979;-0.5129;
3103768186904928;-0.3916;0.0851;-0.5214;
3103768197011907;-0.4129;0.0595;-0.5331;
3103768207118938;-0.3916;-0.0545;-0.5576;
3103768217239303;-0.3895;-0.0907;-0.6088;
3103768227346282;-0.4076;0.0095;-0.6109;
3103768237453313;-0.3447;0.1533;-0.6706;
3103768247548366;-0.1297;0.2628;-0.6865;
3103768257655345;0.0578;0.6549;-0.6620;
3103768267762376;0.2559;0.6538;-0.6312;
3103768277887220;0.2932;0.0340;-0.6631;
3103768287994199;0.1803;-0.0150;-0.6226;
3103768298101230;0.1441;0.0872;-0.5907;
3103768308186699;0.2186;-0.1301;-0.6024;
3103768318293678;0.3369;-0.3112;-0.5566;
3103768328400709;0.3976;-0.1109;-0.5129;
3103768338522324;0.2389;0.2170;-0.4778;
3103768348629303;0.3955;0.1458;-0.4511;
3103768358736334;0.6989;0.0563;-0.5044;
3103768368832845;0.5551;0.1916;-0.4682;
3103768378939824;0.4306;0.0915;-0.4341;
3103768389046855;0.4465;-0.1450;-0.5097;
3103768399150657;0.4104;0.4035;-0.4277;
3103768409257636;0.4317;0.1884;-0.4724;
3103768419364668;0.6563;-0.3581;-0.4064;
3103768429476178;0.3465;0.1053;-0.3158;
3103768439583157;0.3007;0.3332;-0.2861;
3103768449690188;0.7959;0.0617;-0.2702;
3103768459803105;0.9205;-0.0374;-0.1924;
3103768469910084;0.4306;-0.3559;-0.2041;
3103768480017116;0.1867;-0.4112;-0.1040;
3103768490114199;0.0184;-0.0800;-0.1594;
3103768500221178;0.0727;0.0148;-0.2382;
3103768510328209;0.2154;0.0744;-0.2616;
3103768520442116;0.2336;-0.0513;-0.2499;
3103768530549095;0.2346;0.0244;-0.2286;
3103768540656126;0.0993;0.3843;-0.2116;
3103768550757220;0.3071;0.0574;-0.2467;
3103768560864199;0.3923;-0.0832;-0.1999;
3103768570971178;0.1270;0.1288;-0.1700;
3103768581083834;0.1281;-0.2792;-0.1839;
3103768591190813;0.1877;-0.1535;-0.1562;
3103768601297793;0.0972;0.1362;-0.1115;
3103768611393678;0.1334;-0.4144;-0.1690;
3103768621500657;0.1238;-0.1727;-0.1913;
3103768631607636;-0.0977;0.0723;-0.1935;
3103768641725657;0.1632;-0.1099;-0.2222;
3103768651832636;0.1984;-0.0694;-0.1924;
3103768661939616;0.0471;-0.0566;-0.2425;
3103768672040761;0.1324;0.0393;-0.2052;
3103768682147741;0.1718;0.0286;-0.1881;
3103768692254720;0.1920;-0.1397;-0.2052;
3103768702359511;0.2048;-0.0726;-0.2052;
3103768712466491;0.1824;0.0787;-0.1754;
3103768722573470;0.2144;0.0766;-0.1775;
3103768732739824;0.2932;0.1650;-0.1722;
3103768742846803;0.3252;0.1011;-0.1658;
3103768752953782;0.3486;-0.0332;-0.1498;
3103768763012220;0.2091;0.0467;-0.1605;
3103768773119199;0.1675;0.0276;-0.1477;
3103768783226178;0.1515;-0.1908;-0.1626;
3103768793376803;0.1281;-0.2462;-0.1306;
3103768803483782;0.1047;-0.2664;-0.1455;
3103768813590761;0.1782;-0.2494;-0.1413;
3103768823650032;0.2421;-0.0246;-0.1040;
3103768833757011;0.2666;-0.0907;-0.1477;
3103768843863991;0.3156;-0.3367;-0.1253;
3103768853987011;0.2240;-0.3612;-0.0869;
3103768864093991;0.1739;-0.2206;-0.1349;
3103768874200970;0.2304;-0.1493;-0.1487;
3103768884291595;0.2431;-0.1194;-0.1210;
3103768894398574;0.3326;0.0840;-0.1264;
3103768904505553;0.4264;0.0233;-0.1328;
3103768914620970;0.3806;-0.2430;-0.1168;
3103768924727949;0.1952;-0.3783;-0.0561;
3103768934834928;0.2261;-0.3336;-0.0060;
3103768944950241;0.1569;0.0467;-0.0113;
3103768955057220;-0.2648;0.4162;-0.0624;
3103768965164199;-0.0019;0.5931;-0.0944;
3103768975236178;0.6414;0.5196;-0.0933;
3103768985343157;0.8289;0.4333;-0.0518;
3103768995450136;0.6680;0.4077;-0.0060;
3103769005587324;0.4019;0.3555;0.0142;
3103769015694303;0.1622;0.2170;0.0217;
3103769025801282;0.0546;0.2256;0.0356;
3103769035898678;0.0333;0.4897;0.0356;
3103769046005657;0.1579;0.6335;0.0728;
3103769056112636;0.3092;0.2575;0.1091;
3103769066229511;0.1803;-0.1120;0.1474;
3103769076336491;-0.0210;-0.1887;0.1527;
3103769086443470;-0.0391;-0.3144;0.1517;
3103769096544303;-0.0423;-0.4017;0.1186;
3103769106651282;-0.0668;-0.3943;0.0643;
3103769116758261;-0.0306;-0.2057;0.0494;
3103769126856595;-0.0029;-0.0321;0.0079;
3103769136963574;0.1515;0.0606;0.0324;
3103769147070553;0.2996;0.1352;0.0814;
3103769157161595;0.3955;0.2160;0.0909;
3103769167268574;0.5125;0.2352;0.1463;
3103769177375553;0.4072;0.0265;0.1868;
3103769187497532;0.1941;-0.1088;0.2049;
3103769197604511;0.0599;-0.2409;0.1953;
3103769207711491;0.0120;-0.4868;0.2316;
3103769217825084;0.1111;-0.2739;0.2348;
3103769227932063;-0.1308;0.1788;0.2103;
3103769238039043;-0.3533;0.2501;0.2166;
3103769248147324;0.1015;0.1170;0.1495;
3103769258254303;0.3582;0.0553;0.1826;
3103769268361282;0.2122;-0.0150;0.2028;
3103769278474511;-0.0285;-0.0332;0.2081;
3103769288581491;-0.1935;0.1788;0.1666;
3103769298688470;-0.1892;0.2959;0.1304;
3103769308784616;0.0077;0.1128;0.1431;
3103769318891595;0.1057;0.4461;0.1591;
3103769328998574;0.0876;0.1767;0.2379;
3103769339111803;0.1260;-0.3112;0.2134;
3103769349218782;-0.0125;-0.1908;0.2262;
3103769359325761;-0.0605;-0.0481;0.1975;
3103769369427636;0.0375;-0.0119;0.1506;
3103769379534616;0.0269;-0.0065;0.1698;
3103769389641595;0.0024;0.0499;0.1772;
3103769399753470;0.0301;0.1692;0.1858;
3103769409860449;0.0599;-0.0012;0.1708;
3103769419967428;0.0482;-0.0427;0.1719;
3103769430066282;-0.0349;0.1989;0.2454;
3103769440173261;-0.0423;0.1170;0.2422;
3103769450280241;-0.0093;-0.0779;0.2177;
3103769460383157;-0.0732;0.0009;0.2273;
3103769470490136;-0.1659;-0.0417;0.1911;
3103769480597116;-0.1244;-0.1418;0.1495;
3103769490716282;-0.1425;-0.0577;0.1655;
3103769500823261;-0.1796;-0.0630;0.1431;
3103769510930241;-0.1711;-0.0928;0.1069;
3103769521041334;-0.1881;0.0222;0.1208;
3103769531148313;-0.2148;0.1213;0.1112;
3103769541255293;-0.2073;0.1064;0.1016;
3103769551354928;-0.2169;0.0084;0.0803;
3103769561461907;-0.2457;0.0297;0.0643;
3103769571568886;-0.3192;0.0063;0.0398;
3103769581674616;-0.2968;0.0617;-0.0081;
3103769591781595;-0.2542;0.0798;-0.0241;
3103769601888574;-0.1956;0.0318;-0.0305;
3103769611990657;-0.1531;0.0755;-0.0422;
3103769622097636;-0.1126;0.0627;-0.0348;
3103769632204616;-0.1467;0.0201;-0.0571;
3103769642315345;-0.1670;-0.0129;-0.0603;
3103769652422324;-0.1606;-0.0481;-0.0720;
3103769662529303;-0.1446;0.0020;-0.0859;
3103769672680657;-0.0977;0.0680;-0.0869;
3103769682787636;-0.0796;0.0712;-0.1178;
3103769692894616;-0.0573;0.0180;-0.1200;
3103769702972636;-0.0296;0.0585;-0.1168;
3103769713079616;-0.0200;0.0670;-0.0944;
3103769723186595;-0.0317;0.0148;-0.0795;
3103769733278782;-0.0296;-0.0353;-0.0550;
3103769743385761;-0.0700;-0.0822;-0.0646;
3103769753492741;-0.1020;-0.1194;-0.0518;
3103769763586178;-0.0977;-0.0992;-0.0710;
3103769773693157;-0.0732;-0.1013;-0.0763;
3103769783800136;-0.0668;-0.0917;-0.0965;
3103769793921334;-0.0445;-0.0193;-0.0475;
3103769804028313;-0.0754;-0.1130;-0.0454;
3103769814135293;-0.0679;-0.2366;-0.0582;
3103769824232011;-0.0818;-0.0885;-0.0646;
3103769834338991;-0.1020;0.1597;-0.0742;
3103769844445970;-0.1084;0.0776;-0.0816;
3103769854552116;-0.0679;-0.0555;-0.0816;
3103769864659095;-0.0594;0.0372;-0.0678;
3103769874766074;-0.1116;0.1011;-0.0624;
3103769884872428;-0.1212;-0.0268;-0.0869;
3103769894979407;-0.1116;-0.1365;-0.0806;
3103769905086386;-0.0850;-0.1397;-0.0838;
3103769915196803;-0.0210;0.1234;-0.0774;
3103769925303782;-0.0264;0.1554;-0.0656;
3103769935410761;-0.0541;-0.1652;-0.0752;
3103769945516074;-0.0786;-0.2292;-0.0944;
3103769955623053;-0.1627;-0.1493;-0.1008;
3103769965730032;-0.1265;0.0073;-0.1317;
3103769975841491;-0.1020;0.0414;-0.1828;
3103769985948470;-0.0083;-0.0204;-0.1573;
3103769996055449;0.0333;0.0830;-0.1700;
3103770006163886;0.0407;0.1511;-0.1668;
3103770016270866;0.0578;0.0862;-0.1732;
3103770026377845;0.1313;0.0712;-0.1573;
3103770036483782;0.1270;0.0787;-0.1317;
3103770046590761;0.1473;0.0329;-0.1125;
3103770056697741;0.1601;-0.0087;-0.1146;
3103770066819095;0.1462;-0.0502;-0.0997;
3103770076926074;0.1387;-0.0427;-0.1115;
3103770087033053;0.1579;-0.0140;-0.1157;
3103770097124511;0.1877;0.0020;-0.1338;
3103770107231491;0.1995;-0.0246;-0.1136;
3103770117338470;0.1877;-0.0161;-0.1136;
3103770127448678;0.1856;0.0158;-0.1189;
3103770137555657;0.1867;0.0095;-0.1029;
3103770147662636;0.1877;-0.0140;-0.1029;
3103770157770970;0.1792;-0.0310;-0.0912;
3103770167877949;0.1750;-0.0182;-0.0784;
3103770177984928;0.1824;-0.0310;-0.0699;
3103770188099511;0.1995;-0.0545;-0.0646;
3103770198206491;0.1941;-0.0694;-0.0742;
3103770208313470;0.2101;-0.0534;-0.0710;
3103770218416907;0.2016;0.0126;-0.0635;
3103770228523886;0.2037;-0.0044;-0.0561;
3103770238630866;0.2293;0.0425;-0.0337;
3103770248737324;0.1643;0.0680;-0.0433;
3103770258844303;0.1249;-0.0449;-0.0475;
3103770268951282;0.1260;-0.0598;-0.0614;
3103770279077532;0.1132;0.0063;-0.0316;
3103770289184511;0.1228;0.0457;-0.0507;
3103770299291491;0.1590;0.0222;-0.0369;
3103770309371803;0.1654;0.0382;-0.0816;
3103770319478782;0.1483;0.0403;-0.0827;
3103770329585761;0.1441;0.0063;-0.0774;
3103770339694407;0.1334;0.0712;-0.0635;
3103770349801386;0.1068;-0.0076;-0.0582;
3103770359908366;0.0972;-0.1141;-0.0656;
3103770370015241;0.0919;-0.0545;-0.0603;
3103770380122220;0.0972;-0.0023;-0.0635;
3103770390229199;0.1441;-0.0119;-0.0891;
3103770400333782;0.1558;-0.0577;-0.0678;
3103770410440761;0.1654;-0.0278;-0.0923;
3103770420547741;0.1601;0.0680;-0.0752;
3103770430658366;0.1824;0.1053;-0.0752;
3103770440765345;0.2133;0.0904;-0.0688;
3103770450872324;0.2304;0.0372;-0.0401;
3103770460988730;0.1846;-0.0044;-0.0614;
3103770471095709;0.1537;-0.0001;-0.0507;
3103770481202688;0.1803;-0.0023;-0.0305;
3103770491310761;0.1867;0.0212;-0.0188;
3103770501417741;0.2091;-0.0129;-0.0060;
3103770511524720;0.2357;-0.0172;0.0015;
3103770521630657;0.2421;0.0553;-0.0039;
3103770531737636;0.2612;0.0542;0.0366;
3103770541844616;0.2740;0.0308;0.0313;
3103770551940345;0.2325;-0.0651;0.0324;
3103770562047324;0.2101;-0.0907;0.0601;
3103770572154303;0.2005;-0.0406;0.0686;
3103770582254407;0.2240;-0.0172;0.1005;
3103770592361386;0.2463;-0.0108;0.1165;
3103770602468366;0.2602;-0.0012;0.1027;
3103770612599928;0.2847;0.0862;0.1538;
3103770622706907;0.2687;0.0350;0.1676;
3103770632813886;0.2975;0.0126;0.1868;
3103770642895241;0.1984;-0.0321;0.1943;
3103770653002220;0.1036;-0.2664;0.1858;
3103770663109199;0.1356;-0.2590;0.2443;
3103770673237845;0.0844;0.0510;0.2422;
3103770683344824;0.0493;0.2128;0.2209;
3103770693451803;0.1973;0.0095;0.2369;
3103770703553157;0.2708;-0.1258;0.2688;
3103770713660136;0.0162;-0.2462;0.2134;
3103770723767116;-0.1371;-0.5561;0.2838;
3103770733894616;-0.0754;-0.2590;0.3049;
3103770744001595;-0.4321;0.3470;0.1975;
3103770754108574;-0.5109;0.3864;0.1644;
3103770764198886;0.0130;0.3577;0.1644;
3103770774305866;0.3049;0.5078;0.1549;
3103770784412845;0.4987;0.4248;0.1655;
3103770794527220;0.6936;0.0776;0.2071;
3103770804634199;0.4720;-0.0449;0.2230;
3103770814741178;-0.0232;0.1192;0.2752;
3103770824855761;-0.1542;0.7241;0.2614;
3103770834962741;-0.1329;0.2991;0.3582;
3103770845069720;0.0482;-0.3964;0.3060;
3103770855151907;-0.2851;-0.2142;0.3049;
3103770865258886;-0.6057;-0.2547;0.2656;
3103770875365866;-0.4161;-0.6679;0.1762;
3103770885475084;-0.4076;-0.6754;0.1282;
3103770895582063;-0.3799;-0.3634;0.0877;
3103770905689043;-0.3011;0.0830;0.0387;
3103770915786074;-0.2691;0.0872;0.0505;
3103770925893053;0.1292;-0.0342;0.0686;
3103770936000032;0.4008;0.2522;0.1122;
3103770946116699;0.4518;0.0968;0.1783;
3103770956223678;0.6723;-0.1503;0.2230;
3103770966330657;0.6361;0.0702;0.2955;
3103770976452532;0.2655;0.2160;0.3284;
3103770986559511;0.1760;0.0521;0.3081;
3103770996666491;0.2293;0.0180;0.2997;
3103771006774095;0.0610;0.0872;0.3326;
3103771016881074;-0.0306;-0.0779;0.3550;
3103771026988053;-0.0786;-0.0523;0.3635;
3103771037056959;-0.2670;0.0041;0.3550;
3103771047163938;-0.3277;-0.2015;0.2933;
3103771057270918;-0.3522;-0.1983;0.2678;
3103771067400449;-0.5141;0.0169;0.2113;
3103771077507428;-0.6004;0.1213;0.1676;
3103771087614407;-0.3991;0.0957;0.1272;
3103771097723261;-0.2063;0.1075;0.0899;
3103771107830241;-0.1137;0.1969;0.0835;
3103771117937220;-0.0615;0.2575;0.1005;
3103771128040032;-0.0274;0.1703;0.0877;
3103771138147011;-0.0019;0.0169;0.0856;
3103771148253991;-0.0732;0.0702;0.0856;
3103771158380345;-0.1244;0.1543;0.0931;
3103771168487324;-0.1297;0.0787;0.0760;
3103771178594303;-0.0999;0.0233;0.0537;
3103771188684407;-0.1222;-0.0097;0.0324;
3103771198791386;-0.1467;-0.0161;-0.0039;
3103771208898366;-0.1542;-0.0076;-0.0230;
3103771219006074;-0.1276;0.0190;-0.0411;
3103771229113053;-0.0892;-0.0065;-0.0731;
3103771239220032;-0.0573;0.0670;-0.0422;
3103771249325553;-0.0338;0.0734;-0.0624;
3103771259432532;0.0471;-0.0044;-0.0635;
3103771269539511;0.0375;-0.0640;-0.0348;
3103771279652116;0.0013;-0.1173;-0.0124;
3103771289759095;0.0120;-0.0917;-0.0017;
3103771299866074;-0.0051;-0.1503;-0.0326;
3103771309987741;0.0226;-0.1003;-0.0369;
3103771320094720;-0.0168;0.0276;-0.0305;
3103771330201699;0.0173;0.0521;-0.0262;
3103771340298574;0.1558;0.0137;-0.0294;
3103771350405553;0.2325;-0.0012;0.0111;
3103771360512532;0.1494;0.0308;0.0260;
3103771370622949;0.0652;0.1138;0.0707;
3103771380729928;0.0738;0.1692;0.0856;
3103771390836907;0.0983;0.0787;0.0654;
3103771400945032;0.1302;0.1650;0.1091;
3103771411052011;0.0397;0.1852;0.1282;
3103771421158991;0.0514;-0.0246;0.1208;
3103771431260970;0.0141;-0.0236;0.1037;
3103771441367949;-0.1020;-0.0417;0.1005;
3103771451474928;-0.1244;-0.0694;0.1037;
3103771461574199;-0.1690;0.0126;0.1080;
3103771471681126;-0.1627;0.0510;0.0963;
3103771481788157;-0.0487;0.0190;0.0952;
3103771491900449;-0.0296;-0.0246;0.0782;
3103771502007428;-0.0732;0.0105;0.1037;
3103771512114407;-0.0679;0.0169;0.0931;
3103771522219251;-0.0487;-0.0438;0.0760;
3103771532326230;-0.0455;-0.0555;0.0941;
3103771542433209;-0.0391;0.0318;0.1101;
3103771552532011;-0.0455;-0.0577;0.1059;
3103771562638991;-0.0487;-0.1993;0.1314;
3103771572745970;-0.1020;-0.0395;0.1463;
3103771582855449;-0.2276;0.1117;0.1112;
3103771592962428;-0.1595;0.0574;0.1069;
3103771603069407;-0.0413;-0.0268;0.0952;
3103771613182063;-0.0658;0.0116;0.0664;
3103771623289043;-0.0764;0.0595;0.0814;
3103771633396022;-0.0796;0.0244;0.0909;
3103771643489563;-0.1329;-0.0481;0.0995;
3103771653596543;-0.1659;0.0840;0.1122;
3103771663703522;-0.2052;0.2330;0.1357;
3103771673861699;-0.1553;-0.0832;0.1037;
3103771683968678;-0.0636;-0.1642;0.0824;
3103771694075657;-0.2052;0.0680;0.0952;
3103771704164303;-0.3138;0.0638;0.0601;
3103771714271282;-0.1913;-0.0491;0.0270;
3103771724378261;-0.1031;0.0105;0.0313;
3103771734472168;-0.1446;0.1597;0.0547;
3103771744579147;-0.1648;0.1085;0.0324;
3103771754686126;-0.0977;-0.0566;0.0409;
3103771764808470;-0.0850;0.0457;0.0686;
3103771774915449;-0.1478;0.1383;0.0750;
3103771785022428;-0.1446;0.0340;0.0750;
3103771795100449;-0.1574;-0.0459;0.0537;
3103771805207428;-0.1457;-0.0502;0.0579;
3103771815314407;-0.1286;-0.0289;0.0505;
3103771825429199;-0.1521;-0.0417;0.0537;
3103771835536178;-0.1585;-0.0875;0.0451;
3103771845643157;-0.1340;-0.0449;0.0569;
3103771855753261;-0.1244;-0.0172;0.0750;
3103771865860241;-0.1435;-0.1844;0.0909;
3103771875967220;-0.1786;-0.4081;0.0601;
3103771886071803;-0.2489;-0.0726;0.0505;
3103771896178782;-0.6462;0.4098;0.0100;
3103771906285761;-0.6409;0.4194;0.0153;
3103771916400136;-0.0232;-0.0001;-0.0092;
3103771926507116;0.3965;-0.1599;-0.0081;
3103771936614095;0.1771;0.0659;0.0174;
3103771946716178;-0.3469;0.1820;0.0356;
3103771956823157;-0.3778;0.1714;0.0430;
3103771966930136;-0.2361;0.2224;0.0025;
3103771977063366;-0.2031;0.4248;0.0430;
3103771987170345;-0.2105;0.0776;0.0121;
3103771997277324;-0.1935;-0.3080;-0.0742;
3103772007357532;-0.2553;-0.1237;-0.0891;
3103772017464511;-0.4001;0.0201;-0.0933;
3103772027571491;-0.4630;-0.0917;-0.1168;
3103772037658782;-0.3650;-0.0854;-0.1732;
3103772047765761;-0.4001;0.1330;-0.2116;
3103772057872741;-0.4470;0.2447;-0.2403;
3103772068013991;-0.1361;0.0830;-0.2521;
3103772078120970;0.0834;-0.0523;-0.2734;
3103772088227949;0.0120;0.0595;-0.3000;
3103772098313053;-0.1201;0.1565;-0.2712;
3103772108420032;-0.0455;0.0968;-0.2574;
3103772118527011;0.0908;-0.0406;-0.2371;
3103772128633991;0.1036;-0.1482;-0.2403;
3103772138740970;0.0727;-0.1109;-0.2180;
3103772148847949;0.0130;-0.0885;-0.2318;
3103772158983782;-0.0008;-0.1514;-0.2830;
3103772169090761;0.0642;-0.1631;-0.2638;
3103772179197741;0.0631;-0.0928;-0.2648;
3103772189278261;0.0109;-0.0268;-0.2744;
3103772199385241;0.0077;-0.0076;-0.2830;
3103772209492220;0.0866;-0.0001;-0.2734;
3103772219603157;0.1356;0.0798;-0.2499;
3103772229710136;0.1451;0.2202;-0.2361;
3103772239817116;0.2410;0.1714;-0.2052;
3103772249926595;0.3880;-0.0289;-0.1754;
3103772260033574;0.3646;-0.0012;-0.1370;
3103772270140553;0.1579;0.0521;-0.1136;
3103772280256334;0.0876;0.0638;-0.1264;
3103772290363313;0.1558;0.0180;-0.0955;
3103772300470293;0.1387;-0.0843;-0.0965;
3103772310564720;0.0951;-0.1375;-0.0848;
3103772320671699;0.0631;-0.1791;-0.0603;
3103772330778678;0.0322;-0.2835;-0.0582;
3103772340891074;0.0088;-0.2686;-0.0294;
3103772350998053;-0.0711;-0.0928;-0.0326;
3103772361105032;-0.1531;-0.0087;-0.0571;
3103772371213834;-0.0285;0.0670;-0.0731;
3103772381320813;0.1217;0.0244;-0.0688;
3103772391427793;0.1877;0.0169;-0.0582;
3103772401527636;0.1111;0.0808;-0.0326;
3103772411634616;0.0525;0.1607;-0.0209;
3103772421741595;0.0940;0.1703;0.0057;
3103772431858366;0.1313;0.1405;0.0515;
3103772441965345;0.1057;0.0595;0.0686;
3103772452072324;0.0269;-0.0555;0.0920;
3103772462160501;-0.0530;-0.0587;0.0824;
3103772472267480;-0.1606;0.0233;0.0526;
3103772482374459;-0.2073;0.0925;0.0409;
3103772492491386;-0.1700;0.0084;0.0313;
3103772502598366;-0.0935;-0.0928;-0.0081;
3103772512705345;-0.1425;-0.0406;-0.0124;
3103772522820553;-0.2361;0.1362;0.0068;
3103772532927532;-0.1903;0.1820;-0.0113;
3103772543034511;0.0077;-0.0353;-0.0156;
3103772553144616;0.0301;-0.0662;0.0047;
3103772563251647;-0.0583;0.0276;0.0249;
3103772573358678;-0.0732;-0.0193;0.0249;
