Sensor: bmi160 Accelerometer Non-wakeup
Vendor: BOSCH
TimestampAcc [ns]; AccX [m/s^2]; AccY [m/s^2]; AccZ [m/s^2]
77771934786671;-8.3985;2.7419;-4.6011;
77771944910525;-8.2382;2.0112;-3.5351;
77771955037817;-8.5591;1.5921;-2.7422;
77771965113703;-10.4755;1.7381;-2.4739;
77771975268598;-10.6074;1.5395;0.0078;
77771985344484;-9.1125;1.3765;1.3923;
77771995489484;-9.8527;2.2531;-2.1529;
77772005565369;-9.4358;3.0556;-4.9340;
77772015676880;-7.9699;2.0112;-3.5997;
77772025798025;-9.0287;1.5873;-3.7842;
77772035910942;-10.1593;1.8556;-4.1483;
77772046012348;-8.8848;1.6759;-1.1013;
77772056117869;-8.0608;2.0710;0.2569;
77772066218182;-10.1378;2.6103;-2.2415;
77772076295630;-10.9546;2.5573;-3.9568;
77772086434900;-8.8298;1.5224;-2.2845;
77772096525578;-8.3530;1.9274;-2.9578;
77772106628911;-9.1962;1.8843;-3.6814;
77772116731359;-9.3951;1.6304;-2.3495;
77772126843703;-8.4200;1.7788;-0.4232;
77772136934848;-9.5557;2.2819;-1.6475;
77772147045682;-11.0982;2.0518;-3.1301;
77772157164067;-9.6921;1.4937;-1.6857;
77772167259744;-8.5113;2.2460;-2.1218;
77772177366203;-9.5868;2.2866;-4.3184;
77772187460682;-9.4525;1.4794;-4.1243;
77772197575317;-9.0550;1.1249;-2.2080;
77772207676723;-9.1364;1.6759;-1.0104;
77772217806775;-8.7820;2.2005;-1.3241;
77772227883182;-10.1450;1.9202;-2.4452;
77772237989640;-9.0909;1.6735;-2.3949;
77772248092140;-9.5076;1.8915;-3.7914;
77772258200317;-10.3726;1.2206;-3.7603;
77772268331880;-9.6060;1.0771;-0.8737;
77772278418598;-8.7676;1.6783;-0.0377;
77772288515213;-8.4897;2.0686;-2.6871;
77772298641984;-9.6682;1.1824;-5.2669;
77772308751515;-9.4214;0.0685;-3.3912;
77772318855109;-8.2143;1.0026;-1.6211;
77772328946098;-10.1354;1.7812;-3.2166;
77772339103130;-11.3952;0.5740;-2.1123;
77772349223546;-8.7509;0.5189;0.3697;
77772359294171;-7.9579;1.6280;-1.8272;
77772369357661;-9.0048;1.2541;-5.5328;
77772379483286;-10.1402;0.0709;-5.3175;
77772389608807;-10.1833;-0.0706;-2.6201;
77772399701307;-9.3162;0.8734;-1.0439;
77772409792348;-9.4095;0.9954;-0.4690;
77772419879953;-10.0418;0.4878;0.1421;
77772430013703;-9.1819;0.6194;-0.2174;
77772440100890;-9.3209;1.1321;-3.1253;
77772450227869;-10.5568;0.1116;-4.7255;
77772460330109;-10.1019;-0.2500;-3.2453;
77772470436098;-9.1196;0.3320;-2.6249;
77772480523494;-9.2154;0.6051;-3.2285;
77772490633078;-8.0728;0.1451;-1.8009;
77772500736828;-6.9494;0.5644;-1.1133;
77772510841411;-9.0000;0.7319;-1.9397;
77772520939275;-10.1833;0.7223;-1.9134;
77772531051828;-10.8805;1.1991;-1.9373;
77772541160786;-10.4324;1.5658;-3.1229;
77772551271515;-9.4525;1.5200;-4.0765;
77772561369848;-8.4754;0.9380;-4.0143;
77772571461932;-8.6596;0.8997;-3.1854;
77772581595161;-8.9830;1.1417;-1.2233;
77772591691723;-9.8192;1.7883;-1.0463;
77772601779536;-10.7342;1.9848;-1.5179;
77772611900369;-9.7208;1.6735;-0.4881;
77772622011515;-9.1914;2.2986;-1.4127;
77772632116932;-9.5462;2.2986;-2.5816;
77772642219536;-8.2573;2.2172;-2.6465;
77772652316150;-8.9064;2.2268;-3.6428;
77772662422817;-9.7567;1.8556;-3.2405;
77772672540994;-8.0417;2.2101;-2.2726;
77772682635890;-8.4320;2.8256;-3.3027;
77772692749432;-9.3209;2.7873;-3.3218;
77772702849223;-10.1019;2.8905;-2.0402;
77772712959432;-10.3606;3.3263;-1.3217;
77772723072661;-9.4334;3.8103;-0.7588;
77772733162869;-7.6848;3.9565;-1.5829;
77772743270057;-8.2143;3.7122;-3.5471;
77772753380473;-8.7147;2.9527;-3.5088;
77772763481932;-8.9806;3.5109;-2.7852;
77772773589640;-9.2683;3.6978;-2.8908;
77772783691828;-9.8360;3.7122;-3.6694;
77772793807140;-9.7998;3.2163;-3.3625;
77772803903494;-10.0490;3.2402;-2.7829;
77772814024015;-9.0742;3.5300;-1.6738;
77772824134119;-9.3592;3.7672;-1.3528;
77772834231411;-9.3544;3.4199;-1.3768;
77772844329744;-7.7518;3.2952;-1.0510;
77772854434848;-8.5089;2.2866;-2.3853;
77772864536098;-10.2072;1.2975;-2.9291;
77772874655682;-9.8623;0.9117;-4.3807;
77772884747244;-10.1330;1.4602;-6.5151;
77772894861098;-9.4023;1.6735;-5.6958;
77772904964744;-7.4166;1.6304;-3.1519;
77772915063598;-6.6332;0.8662;0.7504;
77772925183598;-7.2966;0.4636;1.8811;
77772935258286;-8.7317;2.2460;-1.5852;
77772945389744;-10.1426;5.0127;-7.0086;
77772955503078;-10.9068;5.9231;-8.0076;
77772965595578;-10.4970;4.1049;-3.3864;
77772975688494;-10.6863;2.5143;-0.7277;
77772985798598;-9.5677;2.7251;-1.5541;
77772995907557;-7.7303;3.4005;-1.8535;
77773006016828;-7.6848;2.5502;-1.3983;
77773016113390;-7.5769;2.2101;-1.7312;
77773026224848;-9.4047;2.1957;-4.0023;
77773036332140;-10.4611;2.6342;-5.5256;
77773046436619;-10.1186;2.2172;-3.3171;
77773056542140;-11.1006;1.7716;-1.2018;
77773066660109;-9.1077;2.0566;-0.4232;
77773076776984;-7.2607;2.9527;-3.3099;
77773086876723;-8.6261;3.8629;-6.9511;
77773096976411;-7.5218;2.9767;-3.8584;
77773107060630;-4.8915;2.0327;-0.8713;
77773117160369;-6.5659;2.7969;-5.2047;
77773127260057;-11.1197;3.8318;-7.7608;
77773137385630;-13.1369;2.1407;-2.6489;
77773147485317;-13.9274;1.6567;0.7816;
77773157585057;-11.4697;3.0389;-0.1645;
77773167696567;-8.9160;3.5204;-2.3518;
77773177796255;-7.1363;2.0040;-2.2032;
77773187895994;-6.3960;1.5368;-3.1158;
77773198000161;-7.6657;1.3980;-5.0109;
77773208099848;-9.9915;0.9308;-3.6643;
77773218199588;-10.2359;0.4902;-0.4184;
77773228343703;-10.5209;1.7237;-2.2941;
77773238443390;-9.4478;2.2842;-5.0539;
77773248543130;-10.0875;1.3310;-5.3892;
77773258639223;-11.7619;0.8016;-2.5744;
77773268738911;-6.9685;0.7561;1.8571;
77773278838598;-6.1875;2.1933;-1.2114;
77773288960057;-9.9915;2.0614;-6.2468;
77773299059796;-10.6840;1.4626;-4.2514;
77773309159484;-8.1517;0.2554;0.0966;
77773319272921;-8.4296;1.4865;-3.4442;
77773329372609;-10.9786;2.1120;-5.8875;
77773339472348;-9.5581;1.0412;-2.1218;
77773349636932;-7.7614;1.2494;-1.9445;
77773359736671;-10.8805;2.6270;-4.5915;
77773369836411;-9.2513;2.3034;-2.2798;
77773379911984;-4.7384;1.7046;-1.0008;
77773390011671;-5.3611;3.7959;-5.2454;
77773400111359;-11.1559;4.7204;-8.3142;
77773410230630;-12.0063;4.3253;-5.1616;
77773420330369;-8.4392;5.2570;-3.3027;
77773430430057;-9.7352;6.4789;-6.5844;
77773440551775;-11.1847;4.6080;-5.5762;
77773450651515;-9.3377;3.5683;-0.6126;
77773460751203;-6.5827;4.7157;0.3215;
77773470918494;-7.1937;3.9733;-2.1960;
77773481018234;-9.3042;2.7778;-4.3400;
77773491117921;-9.7184;3.2904;-6.1774;
77773501176359;-9.8862;2.4425;-6.9631;
77773511276046;-11.0743;1.7357;-5.1999;
77773521375786;-7.5218;0.3559;2.3124;
77773531507921;-1.6528;-0.1232;7.8437;
77773541607609;-0.5103;3.5180;2.4799;
77773551707296;-10.4827;3.6835;-5.0204;
77773561805994;-20.8624;2.6246;-5.2262;
77773571905682;-16.0020;2.6701;-1.6475;
77773582005421;-9.5653;2.9527;-3.5710;
77773592134328;-7.4716;1.8269;-4.2203;
77773602234067;-4.9490;0.0781;-1.4318;
77773612333755;-5.3420;-0.2022;-1.7312;
77773622448703;-6.9254;-0.7005;-3.4609;
77773632548390;-10.9331;-0.2572;-4.2491;
77773642648078;-13.6304;-0.2859;-3.2620;
77773652758442;-12.1020;-0.3556;-1.6618;
77773662858130;-10.4109;-1.5413;-3.0057;
77773672957869;-8.9686;-2.9450;-4.8670;
77773683070838;-8.8896;-3.0912;-4.4862;
77773693170578;-9.2201;-3.7810;-3.7436;
77773703270265;-8.3961;-2.9163;-3.4394;
77773713400161;-8.3076;-3.0242;-2.4165;
77773723499900;-7.6609;-3.1917;-3.5518;
77773733599588;-10.3678;-3.0072;-5.1114;
77773743706984;-13.9537;-3.4241;-2.9387;
77773753806671;-10.5233;-3.5489;-0.7373;
77773763906411;-10.1186;-2.7775;-0.8833;
77773774026984;-5.9192;-1.9582;-1.5132;
77773784126671;-5.8522;-1.6923;-4.2419;
77773794226411;-11.7188;-2.4060;-3.4777;
77773804357921;-9.7807;-2.7894;-0.4304;
77773814457609;-10.4659;-2.0515;-2.0474;
77773824557296;-12.6817;-1.4599;-2.8068;
77773834674588;-10.0585;-1.4240;-1.8607;
77773844774275;-8.5974;-1.6274;-2.4691;
77773854874015;-9.9197;-1.0741;-1.6666;
77773864988025;-8.9088;-0.8321;-0.7564;
77773875087713;-7.5529;-0.4944;-3.4298;
77773885187453;-8.9710;0.4158;-5.0061;
77773895294744;-8.9566;-0.4513;-3.0272;
77773905394432;-8.3483;-0.0033;-4.9914;
77773915494171;-11.1440;-0.2620;-6.1128;
77773925603442;-8.5783;0.0733;-2.7278;
77773935703182;-8.7604;-0.0129;-3.5207;
77773945802869;-10.1928;0.9547;-5.3486;
77773955909015;-7.1387;0.4950;-3.0631;
77773966008755;-10.2215;0.2148;-3.0488;
77773976108442;-10.5353;0.5381;-1.5972;
77773986237817;-7.1722;0.7920;-1.1874;
77773996337505;-10.6313;1.8245;-4.3472;
77774006437244;-9.5052;2.3249;-2.8092;
77774016556984;-9.2608;1.5033;-3.9015;
77774026656723;-11.0910;2.1024;-5.9139;
77774036756411;-8.6836;1.0531;-2.3204;
77774046865838;-9.1173;0.9978;-3.0918;
77774056965578;-8.1470;2.0952;-3.5375;
77774067065265;-8.8753;2.1096;-2.7589;
77774077204067;-10.5185;2.1287;-4.1865;
77774087308286;-7.5529;1.2661;-2.1147;
77774097412453;-8.0824;0.8590;-3.9520;
77774107514484;-11.3809;1.5248;-5.3246;
77774117618703;-8.5615;1.0866;-2.6249;
77774127722869;-6.5180;1.7261;-3.8154;
77774137817973;-8.7748;1.0316;-5.1808;
77774147922192;-11.5989;0.1714;-4.4166;
77774158026359;-9.1173;0.8040;-1.7121;
77774168135317;-7.7207;0.0900;-4.4644;
77774178239536;-10.0346;0.8710;-6.0048;
77774188343703;-8.0465;0.7370;-4.4910;
77774198473338;-8.8513;0.8088;-5.8397;
77774208577505;-9.1125;0.3870;-4.4142;
77774218681723;-8.0608;-1.1677;-1.9612;
77774228762140;-8.6596;-0.0296;-3.8824;
77774238866359;-8.8346;-0.6096;-6.1965;
77774248970578;-10.5975;-1.3878;-6.1487;
77774259101932;-8.3889;-0.5710;-5.6815;
77774269206098;-7.0283;0.5022;-5.7317;
77774279310317;-7.7830;-1.3017;-5.0683;
77774289382453;-12.8758;-1.1892;-6.2180;
77774299486671;-10.2407;-1.2347;-2.7900;
77774309590838;-7.3253;-1.5413;-1.2667;
77774319740317;-7.1387;-2.0204;-3.0224;
77774329844484;-8.3722;-1.7498;-5.2406;
77774339948703;-10.9857;-0.9544;-6.3209;
77774350050630;-9.5486;-0.6168;-4.6035;
77774360154796;-7.6415;-0.9042;-5.3079;
77774370259015;-9.4932;0.0685;-5.3940;
77774380350057;-8.7676;0.1451;-3.5901;
77774390454275;-9.7184;0.3990;-3.2357;
77774400558442;-8.7676;1.1201;-1.9516;
77774410663442;-10.8443;1.6472;-2.0907;
77774420767661;-8.6548;1.7668;-3.0655;
77774430871828;-10.5592;1.9585;-1.6881;
77774440977973;-9.0574;2.2268;-1.4509;
77774451082192;-8.1422;1.3310;-3.0105;
77774461186359;-10.1378;1.0316;-4.3759;
77774471300317;-9.7017;2.7395;-3.0081;
77774481404536;-8.5256;1.5754;-4.5628;
77774491508703;-10.0322;1.7022;-5.8158;
77774501627609;-9.7615;1.0842;-2.2247;
77774511731828;-8.8657;1.1871;-1.1228;
77774521835994;-6.7505;-0.0488;-1.3265;
77774531948703;-7.6801;0.3703;-3.9664;
77774542052869;-11.9608;0.0709;-5.3797;
77774552157088;-11.3450;-0.9616;-3.1472;
77774562243130;-10.1378;-2.7894;-1.8703;
77774572347348;-12.0422;-2.6886;-1.5972;
77774582451515;-9.2513;-3.2157;1.1216;
77774592571046;-1.7800;-2.9952;-1.6905;
77774602675265;-6.0870;-1.1844;-7.1931;
77774612779432;-12.8207;-0.3266;-7.2697;
77774622880630;-14.0495;-1.8957;-5.0492;
77774632984848;-8.9710;-2.2839;-2.7948;
77774643089015;-8.4897;-2.6336;0.1158;
77774653207400;-8.8226;-3.0697;-0.9646;
77774663311619;-10.1593;-2.0587;-2.0186;
77774673415786;-9.7854;-1.7880;-2.3614;
77774683519588;-8.8753;-0.9162;-4.2562;
77774693623807;-7.9217;-0.4825;-4.3328;
77774703727973;-8.8155;0.0087;-6.3763;
77774713835213;-10.4252;-0.0969;-6.4002;
77774723939432;-9.8336;0.3464;-3.9520;
77774734043598;-6.8294;0.0565;-3.6595;
77774744147088;-7.5458;0.8303;-5.1879;
77774754251307;-10.6648;1.7357;-6.1941;
77774764358078;-8.9686;0.8518;-3.3864;
77774774462296;-8.8537;1.0603;-3.7771;
77774784566463;-7.7949;0.3511;-3.8034;
77774794672400;-9.1603;0.5716;-4.0884;
77774804776619;-10.8227;0.5309;-4.2084;
77774814880786;-8.1135;0.7343;-3.5327;
77774825004796;-8.1781;1.0268;-3.7651;
77774835109015;-9.4956;0.6075;-5.0204;
77774845213182;-10.6505;1.0292;-4.6250;
77774855316984;-8.0584;0.7032;-4.2443;
77774865421203;-7.8667;0.5142;-6.9416;
77774875525369;-12.7343;1.2398;-4.5556;
77774885632192;-9.8384;0.5859;2.7458;
77774895736411;-3.3897;0.5524;2.1446;
77774905840578;-9.5342;1.3143;-7.0181;
77774915953546;-14.6172;1.4291;-9.4950;
77774926057765;-10.2263;0.4253;-4.3400;
77774936161932;-5.4640;-1.1868;-3.1400;
77774946261671;-10.0633;-0.0730;-6.5581;
77774956365890;-12.1642;-0.4657;-2.8956;
77774966470057;-7.0379;-1.6971;0.7385;
77774976573859;-6.6787;-0.5351;-3.5830;
77774986678078;-11.9007;0.5740;-7.5117;
77774996782244;-11.5606;-0.2668;-2.9411;
77775006893025;-7.6319;-1.1892;0.1732;
77775016997244;-7.6558;-1.4958;-3.0607;
77775027101411;-10.9666;0.0517;-5.0492;
77775037213130;-8.1374;0.0757;-3.0224;
77775047317348;-7.9531;-0.6144;-3.1181;
77775057421515;-9.3927;0.6864;-5.4562;
77775067519744;-9.2465;0.0637;-4.7231;
77775077623911;-8.6094;-1.7833;-2.2223;
77775087728130;-8.1852;-1.6418;-4.4548;
77775097835630;-10.0107;-0.9425;-5.1927;
77775107939848;-9.3832;-1.0334;-3.7747;
77775118044015;-8.9351;-1.0454;-3.0703;
77775128160473;-10.0394;-1.1677;-1.5948;
77775138264692;-9.5725;-1.9316;-1.3983;
77775148368859;-9.3497;-1.5293;-2.7182;
77775158488130;-8.9518;-1.2467;-4.9101;
77775168592296;-11.2756;-1.3591;-5.4849;
77775178696515;-10.0418;-1.6537;-1.7815;
77775188787713;-6.6715;-1.5341;-2.3495;
77775198891932;-8.6907;-1.3998;-4.3807;
77775208996150;-10.6792;-0.1065;-6.6948;
77775219118650;-11.6997;-0.2931;-2.2080;
77775229222817;-6.9230;-1.8814;0.3697;
77775239327036;-8.3195;-1.4384;-4.6657;
77775249411567;-10.2072;-0.9281;-5.1855;
77775259515786;-8.6381;-1.3161;-2.3351;
77775269619953;-7.5936;-1.3137;-2.0545;
77775279727140;-8.9303;-0.4777;-5.4275;
77775289831359;-10.2694;-0.8707;-3.7005;
77775299935525;-7.4764;-1.2299;-2.8044;
77775310071359;-8.8848;-1.4336;-4.1267;
77775320175525;-10.0322;-1.4527;-5.6336;
77775330279744;-9.9628;-0.4537;-1.3026;
77775340382088;-7.7686;-0.1998;-1.5805;
77775350486307;-9.0479;-0.3170;-4.3065;
77775360590473;-9.5533;0.2554;-5.0085;
77775370721880;-8.8107;0.8495;-3.3266;
77775380826046;-7.6992;0.8088;-3.8465;
77775390930265;-9.9915;1.2565;-5.8349;
77775401008963;-11.4697;1.7285;-6.1630;
77775411113182;-10.1474;1.5467;-1.4174;
77775421217348;-9.5940;0.7753;-0.7325;
77775431323546;-10.6792;0.9571;-0.5336;
77775441427765;-7.2200;0.4636;-1.4677;
77775451531932;-8.5998;0.8136;-4.7303;
77775461643650;-11.6516;0.2913;-6.1654;
77775471747869;-9.5773;0.1786;-2.7948;
77775481852036;-6.3120;0.0781;-3.0129;
77775491960317;-7.5888;1.1656;-5.2669;
77775502064536;-10.6074;-0.2620;-4.2395;
77775512168703;-9.1340;0.8782;-2.4667;
77775522256150;-8.1975;0.4902;-2.0979;
77775532360369;-11.2038;0.3799;-4.8239;
77775542464588;-12.6218;0.2698;-0.6269;
77775552590838;-8.1350;-0.2213;0.5109;
77775562695057;-0.7546;-0.2118;-5.0372;
77775572799275;-7.3804;0.2435;-10.0340;
77775582910005;-12.7439;1.0220;-5.8011;
77775593014223;-9.0646;-0.2572;-0.9000;
77775603118390;-9.1436;-0.9185;-3.0153;
77775613226567;-11.7763;0.4373;-2.7182;
77775623330786;-9.7807;-1.0214;0.2210;
77775633434953;-8.3339;-1.8670;-2.3252;
77775643536671;-10.9570;-1.1940;-4.3854;
77775653640890;-10.8299;-0.9257;-3.4513;
77775663745057;-7.9531;-1.4838;-2.2798;
77775673869484;-8.2765;-1.3065;-3.2309;
77775683973703;-9.5677;-0.2261;-4.7737;
77775694077869;-7.9651;-0.0897;-4.6825;
77775704164900;-10.5520;0.1977;-3.9039;
77775714269119;-10.9475;-0.8465;-2.1888;
77775724373286;-8.4873;-0.5399;-1.1252;
77775734502661;-8.6572;-0.7196;-2.6297;
77775744606828;-8.5735;-0.7747;-4.3496;
77775754710994;-9.3257;-0.8225;-5.9521;
77775764797505;-10.9211;-0.3170;-6.5701;
77775774902661;-13.1536;0.1953;-2.1553;
77775785007869;-6.4487;0.3057;5.2349;
77775795119796;-4.0029;0.5261;0.2856;
77775805224953;-10.7366;0.4588;-9.0832;
77775815330161;-9.9006;0.7343;-6.7235;
77775825442400;-7.4979;0.9667;-3.1253;
77775835547557;-8.7290;-0.9066;-7.2194;
77775845652765;-11.1293;-1.6155;-7.7919;
77775855746671;-8.7218;-0.3389;-2.2080;
77775865851828;-7.6801;-1.0310;-3.5662;
77775875957036;-8.7317;-0.0802;-3.3458;
77775886064900;-10.2311;0.0517;-2.2175;
77775896170057;-11.1054;0.5309;-0.9960;
77775906275265;-8.7413;0.7657;-0.9144;
77775916377921;-8.2430;-0.1639;-3.9159;
77775926483078;-8.5878;0.2148;-5.9234;
77775936588286;-9.9413;-0.4920;-5.3557;
77775946690838;-9.7807;-0.1687;-2.5839;
77775956795994;-8.9112;-0.6526;-3.4920;
77775966901203;-9.0838;-0.6024;-4.3687;
77775977020734;-10.0828;0.1211;-3.5136;
77775987125890;-8.7915;-0.3437;-2.5433;
77775997231098;-8.3435;-0.5303;-3.7196;
77776007329796;-9.2201;-0.5853;-2.5696;
77776017434953;-9.8312;-0.5638;-1.7384;
77776027540161;-8.7867;-0.3075;-2.3375;
77776037639744;-9.0790;-0.1376;-3.2668;
77776047744900;-7.9843;-0.5877;-5.3270;
77776057850109;-9.1651;-0.4370;-4.3496;
77776067979588;-9.7496;0.3535;-4.5461;
77776078084744;-10.0274;-0.1807;-2.5935;
77776088189953;-8.9016;-0.5183;-1.9612;
77776098275005;-8.4488;-0.6550;-3.5710;
77776108380161;-10.0370;-0.0105;-2.7063;
77776118485369;-9.9532;-0.7627;-1.5805;
77776128618234;-8.9231;-1.1339;-2.1960;
77776138723390;-10.1163;-0.2500;-2.5361;
77776148828598;-9.6371;-0.3532;-2.7852;
77776158894171;-10.7222;-1.3687;-3.6356;
77776168999328;-9.0144;-0.9497;-3.2429;
77776179104536;-8.1733;-0.9616;-3.8584;
77776189219796;-8.7051;-0.9903;-4.3543;
77776199324953;-8.1446;-0.4705;-3.3171;
77776209430161;-7.7088;-0.7531;-4.7088;
77776219552036;-12.3655;-0.1328;-5.8516;
77776229657244;-11.9031;-0.5830;-2.2750;
77776239762453;-7.3397;0.3440;-0.3275;
77776249852817;-7.7590;-0.2596;-0.9191;
77776259957973;-10.2718;-0.1567;-3.2955;
77776270063182;-9.4382;0.4373;-3.0799;
77776280173130;-8.9375;-0.4513;-4.8335;
77776290278286;-10.6050;0.1618;-6.4863;
77776300383494;-10.6959;0.4540;-4.1985;
77776310484223;-8.5878;0.7370;-2.1123;
77776320589380;-7.7782;-0.1663;-2.7278;
77776330694588;-7.9771;0.9452;-5.1281;
77776340798546;-8.5089;2.0016;-5.3749;
77776350903703;-10.3125;0.6625;-6.7834;
77776361008911;-11.8002;1.2398;-4.4668;
77776371132505;-7.5482;0.4783;-1.0582;
77776381237661;-7.9460;0.0805;-3.7077;
77776391342869;-9.1914;-0.1137;-3.0416;
77776401430109;-10.7366;-0.0730;-1.8200;
77776411535317;-10.8586;-0.7555;-4.5748;
77776421640473;-11.8193;-1.8263;-4.7713;
77776431763546;-9.0120;-0.8536;-3.1301;
77776441868703;-7.4022;-1.3926;-2.6393;
77776451973911;-8.8729;-0.2931;-4.0908;
77776462077973;-10.2359;-1.0693;-3.9326;
77776472183130;-7.9962;-0.7723;-2.7111;
77776482288338;-7.9316;-2.2911;-3.1711;
77776492397400;-9.8599;-2.1855;-5.0898;
77776502502557;-10.0828;-1.5293;-4.3208;
77776512607765;-8.8202;-1.7785;-3.0942;
77776522718546;-9.1053;-1.3017;-2.7829;
77776532823703;-8.7556;-1.0143;-2.9195;
77776542928911;-9.0933;0.0063;-2.7278;
77776553044171;-8.4392;0.9739;-0.7995;
77776563149328;-7.5649;0.1714;1.1506;
77776573254536;-9.6658;0.5596;-2.3495;
77776583345317;-13.0220;-0.6742;-4.5197;
77776593450473;-10.1713;-0.9066;-3.6069;
77776603555682;-10.6385;-0.9736;-4.1483;
77776613661307;-12.1403;-0.1783;-2.3901;
77776623766463;-7.4381;-0.8827;1.7423;
77776633871671;-6.4678;-0.3772;-2.5816;
77776643978390;-11.7667;-0.3123;-6.7235;
77776654083546;-15.3287;-0.2931;-3.3529;
77776664188755;-11.9608;0.2937;0.8605;
77776674296775;2.3501;0.4540;-4.3328;
77776684401932;-9.7161;0.8901;-8.8077;
77776694507140;-15.4415;-0.4513;-3.1181;
77776704615421;-6.3434;-0.8249;-0.1501;
77776714720578;-7.1674;0.1307;-4.8526;
77776724825786;-9.5028;-0.1543;-5.3222;
77776734930734;-9.6251;0.1570;-1.9205;
77776745035890;-9.2731;0.4540;-2.6321;
77776755141098;-11.1464;-0.0392;-3.7364;
77776765242505;-12.9571;0.8542;-1.0822;
77776775347921;-7.8093;-0.2381;2.0249;
77776785453390;-6.4750;-0.2022;-2.8522;
77776795565213;-9.8288;-0.6742;-5.5184;
77776805670630;-10.6576;-0.4274;-2.6824;
77776815776098;-7.4907;-0.2572;-1.9014;
77776825898859;-6.6308;-0.2548;-7.5093;
77776836004275;-12.1905;-0.0993;-9.9814;
77776846109744;-14.0782;-0.2979;-0.9239;
77776856202713;-4.4052;-1.4934;6.5453;
77776866308130;-5.3970;-0.3939;-5.0850;
77776876413598;-13.8676;-0.4561;-7.1907;
77776886513130;-9.9772;-0.8225;1.5817;
77776896618546;-6.2880;-0.4848;-2.6895;
77776906724015;-12.0589;-0.5782;-6.1510;
77776916823546;-11.1488;-0.3075;-2.8932;
77776926928963;-6.0918;-0.4585;-2.2367;
77776937034432;-7.1363;-0.3389;-7.0349;
77776947133963;-11.9848;-0.6215;-5.8301;
77776957239380;-9.7448;-0.5925;-1.6259;
77776967344848;-6.6404;-0.1519;-1.8488;
77776977455005;-10.2000;-0.2764;-4.3878;
77776987560421;-10.7079;-0.1065;-2.8717;
77776997665890;-8.3004;0.2985;-0.9742;
77777007774067;-8.1661;0.0446;-2.7996;
77777017879484;-9.1388;-0.6957;-3.9254;
77777027984953;-9.8575;-0.0754;-4.0884;
77777038083546;-11.8337;-0.3772;-3.7484;
77777048188963;-10.8538;-0.0631;-3.3673;
77777058294432;-8.3674;0.5261;-1.6546;
77777068403234;-5.0426;0.3488;-1.6092;
77777078508650;-7.8763;-0.4992;-5.4443;
77777088614119;-13.2470;0.3129;-5.6647;
77777098710525;-10.4037;-0.2357;-1.3026;
77777108815942;-6.7863;0.1283;-1.4198;
77777118921411;-8.0225;-0.1950;-4.7279;
77777129089432;-10.9762;-0.2166;-4.2251;
77777139194848;-8.1661;0.4277;-2.6776;
77777149300317;-9.1005;-0.3676;-4.1315;
77777159348130;-10.2981;-0.4394;-3.2213;
77777169453546;-8.4897;-0.2931;-1.2811;
77777179559015;-9.1029;0.0517;-2.9937;
77777189670786;-11.2253;-0.3532;-3.2501;
77777199776203;-9.2946;0.5261;-2.3447;
77777209881671;-8.1159;0.1522;-3.6790;
77777220006359;-9.4932;-0.7675;-3.8441;
77777230111775;-10.7222;-0.8560;-2.6010;
77777240217244;-7.1507;-0.0416;-1.3026;
77777250317296;-6.9230;-0.1065;-3.8967;
77777260422713;-10.4061;-0.1974;-5.8083;
77777270528182;-10.3316;-0.0849;-3.6814;
77777280618807;-8.5591;-0.4059;-3.7125;
77777290724223;-11.0575;-0.8489;-1.8392;
77777300829692;-9.5892;-0.4155;0.1995;
77777310938650;-7.3974;-0.7388;-0.1167;
77777321044067;-7.7877;-0.6359;-5.2502;
77777331149536;-13.1369;-0.4274;-5.6384;
77777341270317;-10.5257;-0.5830;-0.9215;
77777351375734;-5.7395;-0.1400;-2.6512;
77777361481203;-8.3985;-1.0047;-5.8540;
77777371571984;-10.7342;-0.9568;-3.4083;
77777381677400;-7.9074;-0.5255;-3.0894;
77777391782869;-7.0977;-0.0631;-4.9316;
77777401881046;-10.6170;-0.8656;-3.9688;
77777411986463;-10.6552;-0.2405;-2.2989;
77777422091932;-8.8681;-0.8058;-2.0764;
77777432208130;-8.3507;-1.0190;-2.3037;
77777442313546;-8.4897;-0.6790;-2.6201;
77777452419015;-9.8432;-0.8393;-3.7316;
77777462517400;-10.4013;-0.3147;-5.0803;
77777472622817;-11.5152;-0.1639;-3.4466;
77777482728286;-8.3530;-0.3820;-1.2858;
77777492849796;-6.5874;-0.0153;-2.8980;
77777502955213;-8.8202;-0.1854;-4.5221;
77777513060682;-10.5616;-0.7555;-3.9903;
77777523165005;-10.3173;-0.0464;-2.0234;
77777533270421;-7.5218;0.1666;-1.9134;
77777543375890;-8.2167;-0.0897;-4.7641;
77777553477713;-12.5477;-0.2094;-2.9195;
77777563583130;-8.9064;-0.0009;-1.1731;
77777573688598;-7.7231;-0.7316;-3.3601;
77777583793025;-9.4525;-0.0272;-2.1769;
77777593898442;-6.4510;0.0996;-3.6909;
77777604003911;-10.6576;0.2052;-6.1176;
77777614104380;-13.8485;-0.2022;-1.9947;
77777624209796;-7.4453;-0.3123;-1.3146;
77777634315265;-10.8876;-0.4346;-2.2774;
77777644413650;-12.7391;-0.6694;-2.2175;
77777654519067;-5.4377;-0.3242;-2.3686;
77777664624536;-6.1134;0.4134;-3.6861;
77777674741307;-3.8806;0.2052;-6.3209;
77777684846723;-11.7093;0.8160;-6.4911;
77777694952192;-16.1192;-0.6526;-4.2179;
77777705059640;-9.7065;-0.1591;0.3239;
77777715165057;-5.9121;-0.7292;-0.7059;
77777725270525;-9.2970;-0.4944;-4.6561;
77777735391880;-12.2267;0.1235;-3.1519;
77777745497296;-8.3172;0.0948;-0.8737;
77777755602765;-1.2263;0.7561;-0.8856;
77777765679484;-5.9504;-0.9473;-10.2018;
77777775784900;-11.8983;0.3009;-9.1932;
77777785890317;-10.2383;-0.8321;-5.6504;
77777796014275;-9.2417;-0.1854;-5.8181;
77777806119692;-12.6793;-1.1171;-2.6680;
77777816225109;-11.7045;-1.6633;4.3531;
77777826344223;-8.7556;-0.8154;6.4469;
77777836449640;-5.3468;-0.5901;3.3114;
77777846555057;-10.4635;-0.7172;-7.0851;
77777856635057;-14.9695;-1.1964;-9.6317;
77777866740473;-10.5473;0.4158;-3.7220;
77777876845890;-6.6021;0.9356;-1.2568;
77777886950942;-6.9924;-1.8837;-4.7375;
77777897056359;-10.8682;-0.4777;-3.3338;
77777907161775;-9.9700;-0.0416;0.3745;
77777917274171;-6.7217;0.0278;1.1408;
77777927379588;-6.7337;-0.4657;-3.4657;
77777937485005;-10.2191;-0.1208;-5.1401;
77777947568130;-12.1499;-0.7747;-6.4505;
77777957673546;-9.2683;-0.6526;-3.3577;
77777967778963;-5.9145;-1.5006;-4.0167;
77777977903546;-9.3784;-1.2179;-4.6155;
77777988008963;-12.1834;0.2100;-2.7900;
77777998114380;-11.7763;-0.4011;-3.2357;
77778008216150;-7.7590;0.1499;-1.1587;
77778018321567;-7.7662;-0.2309;-1.9684;
77778028426984;-9.1268;0.0159;-2.4787;
77778038554223;-9.3066;0.9643;-2.1625;
77778048659640;-7.4166;0.0852;-3.8847;
77778058765057;-8.8346;0.8207;-5.6312;
77778068852765;-12.3248;1.2709;-5.5666;
77778078958182;-8.6931;1.2927;-2.1482;
77778089063598;-4.3956;0.2148;-3.5734;
77778099168025;-8.6429;0.4807;-4.8574;
77778109273442;-11.3713;0.9882;-3.3984;
77778119378859;-11.0791;0.8638;-1.7838;
77778129463234;-9.4382;1.1656;-1.1515;
77778139568650;-6.6069;0.5094;-4.2778;
77778149674067;-11.7643;-0.5016;-3.8106;
77778159822817;-12.1427;-0.7723;-1.7264;
77778169928234;-9.4884;0.4205;-0.5719;
77778180033650;-8.6477;0.2363;-1.2425;
77778190135369;-11.0456;-0.3003;-1.9875;
77778200240786;-9.7807;-0.4825;-0.6508;
77778210346203;-6.9398;-0.2668;-1.2233;
77778220446359;-7.4189;-0.1280;-5.1592;
77778230551775;-10.1019;-0.7029;-5.4921;
77778240657192;-9.0550;0.6745;-1.8966;
77778250736880;-8.1494;-0.7101;-3.6885;
77778260842296;-9.2656;-0.8803;-4.4309;
77778270947713;-10.6624;-1.3184;-3.8656;
77778281062088;-11.3426;-1.9439;-4.5820;
77778291167505;-9.7041;-2.5905;-1.0965;
77778301272921;-7.4166;-1.5700;-1.4127;
77778311384171;-10.5951;-0.9616;-4.3711;
77778321489536;-10.9451;-0.8922;-3.6188;
77778331595005;-9.4430;-0.3508;-2.8307;
77778341699067;-6.9015;-0.9353;-2.8187;
77778351804484;-8.0656;-0.4250;-3.8728;
77778361909900;-11.9752;-0.8106;-3.7125;
77778372013442;-12.7152;0.0900;-0.8617;
77778382118859;-7.5649;-0.6766;0.4845;
77778392224275;-6.2282;-0.3027;-2.7733;
77778402326984;-8.9231;-1.8024;-6.3547;
77778412432400;-11.2134;-2.0659;-6.5151;
77778422537817;-8.9112;-0.6024;-4.6705;
77778432655317;-8.8466;0.1403;-4.8431;
77778442760734;-10.5497;-0.2070;-4.2921;
77778452866150;-8.3889;-0.4992;-1.4127;
77778462972400;-6.4199;-0.4585;-1.7743;
77778473077817;-10.5999;-0.5112;-2.0716;
77778483183234;-11.4888;-0.2788;-1.4055;
77778493285109;-9.9078;0.1235;-0.2509;
77778503390525;-7.1674;0.3081;-1.9684;
77778513495942;-9.4095;-0.2357;-4.9292;
77778523592921;-10.0923;-0.5183;-5.6192;
77778533698338;-7.9579;-0.4107;-3.5351;
77778543803755;-5.9910;-0.6909;-3.6694;
77778553922505;-7.8882;-0.3652;-5.3940;
77778564027921;-13.7094;0.0422;-3.3362;
77778574133338;-10.4516;0.0230;0.2976;
77778584234796;-5.1479;-0.3075;-1.2619;
77778594340213;-9.4286;-0.3218;-3.1472;
77778604445630;-11.4266;-0.6790;-0.9239;
77778614550473;-9.3473;0.1977;-2.0139;
77778624655890;-6.6523;-0.1232;-3.5614;
77778634761307;-8.1637;0.1546;-5.2840;
77778644878234;-11.4817;-0.8106;-4.4767;
77778654983650;-10.3053;-0.5949;-3.5351;
77778665089067;-7.4620;-0.1208;-2.6417;
77778675190838;-6.8776;0.1929;-1.5494;
77778685296255;-9.7376;-0.0272;-1.5132;
77778695401671;-9.0670;0.2100;-0.8952;
77778705502400;-10.2359;-0.3389;-3.3386;
77778715607817;-11.1559;-0.9855;-4.3543;
77778725713234;-9.0072;-0.3508;-2.6489;
77778735826463;-6.1756;0.3296;-2.6728;
77778745931880;-8.0967;-0.1496;-3.6718;
77778756037296;-10.6098;-0.6191;-2.9435;
77778766121463;-14.1239;0.2794;-2.0836;
77778776226880;-8.8155;-0.2907;0.5827;
77778786332296;-5.4018;-0.0009;-3.0942;
77778796467973;-9.9365;-0.7316;-5.6958;
77778806573390;-10.1904;0.3368;-1.5733;
77778816678807;-7.8619;0.0876;-1.2042;
77778826775213;-9.5462;-0.1854;-3.4418;
77778836880630;-9.0407;-0.8273;-3.7962;
77778846986046;-9.6993;-0.2333;-4.6370;
77778857080005;-10.4803;-0.5136;-4.0717;
77778867185421;-8.4730;-0.1424;-1.5829;
77778877290838;-5.8427;0.3703;-0.9526;
77778887392505;-6.1851;-0.2189;-3.4825;
77778897497921;-8.9542;-0.8874;-6.4002;
77778907603338;-9.7232;-1.1797;-7.7273;
77778917712088;-12.6625;-0.8321;-5.9354;
77778927817505;-10.3292;-0.1998;-0.9574;
77778937922921;-9.4789;-0.9209;1.7734;
77778948040942;-7.8978;-1.1243;2.0225;
77778958146359;-3.4424;-1.0597;-2.9411;
77778968251775;-3.9168;-0.5830;-8.5370;
77778978333807;-44.6426;-2.7655;-0.2916;
77778988439223;-39.7149;-4.4542;19.2269;
77778998544640;8.3674;1.4148;17.7969;
77779008673911;-3.7920;0.7152;-9.2148;
77779018779328;-24.7765;-2.3581;-5.5475;
77779028884744;-7.4477;0.0972;8.5143;
77779038982400;5.3683;1.9896;-0.0233;
77779049087817;-4.6161;1.1632;-17.9848;
77779059193234;-6.2043;0.9882;-17.8890;
77779069307817;-5.8116;-0.1974;-7.8829;
77779079413234;-9.6275;0.3248;-11.3970;
77779089518650;-13.2374;-0.3508;-13.4405;
77779099595734;-4.7070;0.2387;7.8748;
77779109701150;12.7968;-2.0515;-3.1807;
77779119806567;-11.0001;-4.3319;-45.6766;
77779129917713;-28.3914;-2.6121;-23.1637;
77779140023130;-5.1718;-2.5834;12.5985;
77779150128546;1.9116;-0.6622;-4.2491;
77779160259275;-11.3761;0.6051;-2.6704;
77779170364692;-15.2641;0.2698;12.8596;
77779180470109;-13.2135;1.4626;14.3450;
77779190550005;-10.0708;1.6974;7.3143;
77779200655421;-10.2120;1.2736;0.8847;
77779210760838;-9.1436;-0.4801;-3.2094;
77779220871567;-5.0474;-0.0392;-6.1989;
77779230976984;-9.4549;0.2435;-12.3745;
77779241082400;-10.8924;-1.6155;-3.8201;
77779251190057;-6.2186;-0.3820;0.0317;
77779261295473;-6.8055;0.9212;-5.9521;
77779271400890;-7.0570;-0.6455;-1.9325;
77779281514640;-6.0631;-1.2610;0.2306;
77779291620057;-9.3425;-0.7364;-3.8058;
77779301725473;-13.5129;-0.6814;-2.3830;
77779311835109;-10.4300;-1.2969;0.5157;
77779321940525;-7.9866;-1.7258;-4.6561;
77779332045942;-5.5047;-0.9090;-10.4940;
77779342160838;-5.7012;-1.4169;-8.6040;
77779352266255;-10.5544;-0.8512;-2.6512;
77779362371671;-8.5902;1.3549;0.5970;
77779372465473;-8.2430;0.8495;-1.2353;
77779382570890;-8.5615;1.7764;-3.4848;
77779392676307;-12.0278;2.2220;-2.0812;
77779402775317;-10.2168;0.7032;-0.4570;
77779412880734;-7.4309;-0.4968;-1.8727;
77779422986150;-7.0092;-0.1113;-4.2682;
77779433100421;-8.2789;-0.6144;-4.6705;
77779443205838;-13.3095;-1.2993;-4.6035;
77779453311255;-14.4233;-1.4456;-2.1362;
77779463415525;-13.5682;-0.9592;2.2932;
77779473520942;-5.5935;-0.6311;5.9629;
77779483626359;-7.7016;-0.0802;0.4678;
77779493734223;-17.2546;-0.4825;-2.4739;
77779503839640;-13.8197;0.0757;1.5697;
77779513945057;-3.6987;1.2470;0.3697;
77779524047921;-0.3544;-0.6885;-9.3610;
77779534153338;-6.8414;-0.0033;-13.6322;
77779544258755;-7.5936;1.5873;-3.7077;
77779554356880;-5.8355;1.0053;-3.0057;
77779564462296;-5.4808;0.4277;-7.2266;
77779574567713;-6.4678;-0.6574;-5.8564;
77779584687140;-9.7304;-0.6455;-7.1426;
77779594792557;-12.1857;-0.4035;-5.9043;
77779604897973;-13.9298;-1.0334;-0.6197;
77779615000630;-10.2455;-0.9927;3.3975;
77779625106046;-12.5788;-1.7474;-0.0425;
77779635211463;-18.5100;-1.2730;-0.4304;
77779645326984;-12.7032;0.2171;4.1833;
77779655432400;-11.2875;-0.7986;8.4497;
77779665537817;-6.6021;0.0709;5.9055;
77779675639275;-9.1747;0.3583;-0.3156;
77779685744692;-13.5730;-0.2764;-3.6885;
77779695850109;-8.4658;-0.2213;-5.5905;
77779705942921;-8.6907;0.7537;-9.5405;
77779716048338;-8.5065;0.0302;-7.9451;
77779726153755;-5.4736;-0.2524;-3.4920;
77779736273025;-5.0665;-0.6718;-8.9704;
77779746378442;-7.9843;-0.5375;-10.9828;
77779756483859;-6.6428;-0.9473;-9.9814;
77779766576671;-8.3889;-0.3580;-8.0100;
77779776682244;-5.2053;-0.4226;-4.8933;
77779786787817;-10.1426;-0.7675;-6.1367;
77779796887921;-15.3550;-0.3987;-0.7469;
77779806993494;-8.5878;0.1355;0.6332;
77779817099067;-10.2550;0.7223;-4.7136;
77779827231046;-9.6036;0.7729;-1.8583;
77779837336619;-5.1622;1.4985;1.1336;
77779847442192;-8.1852;1.0196;-1.2835;
77779857523546;-9.2683;1.3860;-3.7436;
77779867629119;-11.1245;1.7883;-3.8800;
77779877734692;-22.1007;-1.0334;0.3505;
77779887826567;-15.3335;-1.0597;4.6768;
77779897932140;-10.0804;-0.7053;3.7759;
77779908037713;-6.8294;-1.2347;0.3577;
77779918152557;-4.8365;-0.9114;-5.5017;
77779928258130;-7.9122;-1.2778;-9.9766;
77779938363703;-10.4228;-0.5231;-6.4170;
77779948475109;-7.3277;1.6711;-1.7432;
77779958580682;-8.4009;0.5357;-2.6154;
77779968686255;-4.6089;0.7295;-3.9808;
77779978780630;-6.4463;1.1177;-4.2009;
77779988886203;-10.5616;0.6290;-3.6909;
77779998991775;-3.5692;-1.7091;-9.1621;
77780009118234;-13.3765;-1.7665;-16.2072;
77780019223807;-17.7817;-2.4371;-7.4037;
77780029329380;-11.1293;-2.0922;-0.8043;
77780039407869;-4.9923;-0.7890;4.6047;
77780049513442;-9.8192;-0.3266;7.3020;
77780059619015;-14.1144;-0.4418;6.6482;
77780069762713;-9.7208;0.3823;4.0035;
77780079868286;-5.7156;0.8160;-1.5156;
77780089973859;-9.3999;0.1379;-7.0229;
77780100059588;-12.0494;0.2674;-4.0884;
77780110165161;-8.8346;-0.3123;-5.4562;
77780120270734;-8.8657;-0.6766;-7.1067;
77780130375005;-8.7796;-0.3939;-2.2367;
77780140480578;-7.8452;-0.8803;-4.5437;
77780150586150;-11.4123;-1.1892;-2.9052;
77780160726046;-9.7184;-0.5973;0.3167;
77780170831619;-6.9494;0.1068;-0.1741;
77780180937192;-9.2560;-0.0248;-3.4035;
77780191012400;-12.8184;0.1068;-1.7985;
77780201117973;-9.8815;0.5405;0.1493;
77780211223546;-7.5075;-0.0296;-0.7107;
77780221332557;-9.6108;-0.3748;-4.3950;
77780231438130;-16.2966;-0.7914;-3.1998;
77780241543703;-9.8121;0.2602;-1.2473;
77780251652088;-4.2520;-0.7651;-2.3423;
77780261757661;-8.2214;0.3655;-4.2323;
77780271863234;-11.1607;0.4181;-2.6656;
77780281951359;-9.8575;0.8806;-2.4236;
77780292056932;-7.2870;0.5405;-3.3769;
77780302162505;-8.6213;-0.0200;-3.0799;
77780312278442;-9.3975;0.0278;-3.7795;
77780322384015;-10.4563;-0.5327;-4.4982;
77780332489588;-9.3018;-0.5782;-2.8980;
77780342596671;-9.4525;-0.6790;-2.9674;
77780352702244;-9.4406;-0.5423;-4.8096;
77780362807817;-12.3870;-0.4442;-4.0214;
77780372904796;-8.0417;-0.1089;-0.6796;
77780383010369;-0.8958;2.0856;-0.6796;
77780393115942;-11.6659;-0.3242;-4.7569;
77780403219223;-14.5837;0.9141;-3.2955;
77780413324796;-7.4931;1.0220;-1.2042;
77780423430369;-5.1861;-1.1124;-4.4839;
77780433545005;-8.5184;-0.2381;-5.4586;
77780443650578;-10.1426;0.2913;-3.1134;
77780453756150;-8.4177;-0.0706;-5.1209;
77780463863390;-7.5888;0.2602;-4.7785;
77780473968963;-7.7590;0.5429;-3.4155;
77780484074536;-10.3606;-0.4825;-3.0823;
77780494179380;-13.1656;1.7668;0.0918;
77780504284953;-7.4022;0.5261;3.7711;
77780514390525;-5.7996;-1.3424;-0.7804;
77780524508650;-12.3344;-0.9138;-9.7298;
77780534614223;-16.6463;0.0230;-3.6933;
77780544719796;-7.3253;0.3631;4.1952;
77780554812192;-4.3741;-1.4767;-2.3013;
77780564917765;-10.6720;-0.8755;-7.9549;
77780575023338;-12.4086;0.6553;-1.2715;
77780585128755;-8.5232;0.5189;1.6726;
77780595234328;-8.5759;1.0699;-3.0942;
77780605339900;-8.2310;-0.2979;-4.5532;
77780615436463;-7.7758;0.2889;-3.8728;
77780625542036;-8.8394;0.1235;-5.2454;
77780635647609;-9.4095;-0.3170;-6.5605;
77780645757817;-12.1953;-0.3003;-4.8909;
77780655863390;-9.8121;-0.5231;-2.9746;
77780665968963;-6.3266;-0.9592;-3.2477;
77780676081671;-9.9796;0.5835;-3.2524;
77780686187244;-11.1823;1.1154;-0.4834;
77780696292817;-12.1786;0.8949;-0.5192;
77780706387505;-10.2383;0.4229;-0.9885;
77780716493078;-4.3358;0.6099;-2.7015;
77780726598650;-8.4392;1.2254;-6.9511;
77780736691307;-11.8983;0.8088;-4.6155;
77780746796880;-9.1603;0.2339;-1.6187;
77780756902453;-5.6892;0.1929;-4.5652;
77780767016880;-9.4765;0.0900;-5.9258;
77780777122348;-12.9284;1.2159;-4.9914;
77780787227817;-8.9255;0.4469;0.2617;
77780797336567;-7.8619;0.0517;0.8991;
77780807442036;-16.5721;-0.9736;-1.6020;
77780817547505;-7.2177;-0.0583;-1.3672;
77780827662921;4.6232;0.6027;-5.4993;
77780837768390;-8.9830;-0.7436;-9.6509;
77780847873859;-16.8811;0.3655;-1.8176;
77780857961567;-10.3606;0.1857;-0.9598;
77780868066984;-6.1134;-0.1424;-4.0119;
77780878172505;-9.7208;-1.3256;-2.3375;
77780888273755;-10.5281;-0.8225;-1.2162;
77780898379223;-12.2100;-1.0430;-1.0463;
77780908484692;-9.5797;-1.1291;0.1349;
77780918655005;-6.3960;-0.8249;-2.0378;
77780928760473;-8.4272;-1.5269;-10.3310;
77780938865942;-17.0103;-1.2562;-4.9005;
77780948908286;-7.5171;0.2794;9.9180;
77780959013755;3.9574;0.0470;3.0335;
77780969119223;-7.4046;-1.8742;-15.1747;
77780979271150;-21.0371;-1.1988;-10.7169;
77780989376619;-16.1815;-0.0392;4.6911;
77780999482088;-5.7491;-1.6322;0.2689;
77781009550942;-6.0679;-1.3113;-4.4477;
77781019656411;-9.2034;-0.9664;-3.0823;
77781029761880;-10.2000;-1.1100;-0.5934;
77781039864588;-11.1990;-0.8584;-2.5337;
77781049970057;-10.7079;-1.4022;-3.7172;
77781060075525;-8.3961;-0.6933;-0.1959;
77781070192088;-7.2607;-0.3003;-2.7446;
77781080297557;-9.6299;-0.4920;-3.6380;
77781090403025;-8.8035;-0.4561;-1.6666;
77781100508338;-7.5721;-0.6646;-4.4501;
77781110613807;-8.2717;-0.4681;-8.5059;
77781120719275;-12.7319;-0.3338;-6.2420;
77781130814067;-12.2818;-0.3748;-1.0152;
77781140919536;-6.2210;0.0900;0.1373;
77781151025005;-9.4789;-1.4527;-1.1276;
77781161139171;-11.9342;-1.6732;-1.4438;
77781171244640;-0.0646;-0.2046;-3.7196;
77781181350109;-8.8633;-0.1280;-7.1883;
77781191451463;-18.3613;-0.2716;-2.4763;
77781201556932;-13.0074;0.0709;2.1829;
77781211662400;-4.5778;0.0661;0.9063;
77781221771150;-7.2464;-0.1376;-4.3448;
77781231876619;-11.7380;-0.1687;-3.5590;
77781241982088;-9.3736;-0.5542;-1.2233;
77781252090630;-10.5377;-1.4408;-4.0071;
77781262196098;-11.0839;-0.5136;-5.1377;
77781272301567;-8.0154;-0.4178;-4.0262;
77781282400890;-10.6337;-0.0296;-4.1770;
77781292506359;-9.6706;1.1465;6.7415;
77781302611828;-1.7318;0.0589;2.0608;
77781312722505;-9.7424;-0.2644;-11.9336;
77781322827921;-14.9504;0.5429;-10.4964;
77781332933442;-9.4597;1.6783;0.9135;
77781343044380;-6.2354;-0.6933;-3.1687;
77781353149848;-7.6152;-0.2620;-7.0875;
77781363255317;-10.5305;-0.0730;-1.5781;
77781373353025;-9.4549;-0.0057;-2.4835;
77781383458494;-10.8467;-0.6048;-4.1339;
77781393563963;-9.6299;0.1451;-0.0975;
77781403663234;-8.0513;1.2350;0.7289;
77781413768703;-9.2850;0.3129;-2.5816;
77781423874171;-10.3893;0.8877;-3.1352;
77781433985005;-6.7863;0.6864;-2.1170;
77781444090473;-7.8236;0.0135;-5.3198;
77781454195942;-12.0972;-0.0655;-5.2983;
77781464301828;-10.5425;0.7175;-1.6881;
77781474407296;-7.0475;-0.3676;-2.8642;
77781484512765;-9.2970;0.2865;-4.2108;
77781494620213;-11.9414;0.6027;-0.3945;
77781504725682;-9.8982;1.6089;-0.5767;
77781514831150;-9.2898;-0.2381;-0.5910;
77781524948025;-8.8394;0.8279;-2.2487;
77781535053494;-10.3702;-0.1256;-3.7699;
77781545158963;-10.4850;-0.0631;-3.1735;
77781555267192;-9.9796;0.0015;-0.3610;
77781565372661;-9.3066;-0.0081;-3.2812;
77781575478130;-12.0852;-0.6837;-5.2334;
77781585570057;-3.7131;0.4301;-3.1807;
77781595675525;-5.4018;-0.1711;-3.7412;
77781605780994;-13.3693;0.3799;-5.3533;
77781615889484;-11.2540;1.1201;-3.1878;
77781625994953;-8.5735;0.4902;-2.3782;
77781636100421;-7.1240;-0.3485;-4.1363;
77781646206046;-8.9375;-0.4633;-4.5365;
77781656311515;-10.1019;-0.5590;-2.5935;
77781666416984;-9.4047;-0.6144;-2.6393;
77781676533234;-12.6793;-1.0143;-3.4107;
77781686638703;-11.3904;-0.9760;-2.2391;
77781696744171;-12.2243;0.4062;0.4941;
77781706834171;-4.3214;0.4783;4.5353;
77781716939640;-4.5203;-0.3915;-2.1482;
77781727045109;-12.0541;-0.9497;-10.2616;
77781737154380;-11.1440;-0.6861;-6.1128;
77781747259848;-6.2234;0.2315;-1.7097;
77781757365317;-8.7413;-0.2644;-4.2562;
77781767463234;-9.3185;-1.0382;-5.4921;
77781777568755;-10.0418;0.0781;-1.0989;
77781787674275;-8.7604;0.1690;-1.2162;
77781797780473;-9.0838;-0.1950;-4.7040;
77781807885994;-10.1115;-0.3075;-3.8297;
77781817991463;-11.8505;0.1618;-0.6843;
77781828108650;-9.1843;-0.0583;1.0283;
77781838214119;-7.8667;-0.6909;-1.7767;
77781848319640;-10.7533;-1.3208;-4.7713;
77781858417817;-8.0608;0.2650;-2.1075;
77781868523338;-5.6246;-0.5231;-1.6403;
77781878628807;-9.6945;-0.8874;-5.1353;
77781888728755;-11.0240;0.7370;-3.3458;
77781898834275;-10.9522;-0.1902;-1.6594;
77781908939796;-7.0044;0.1929;-2.2510;
77781919105213;-9.2369;0.0852;-2.7589;
77781929210682;-12.3990;-1.2227;-1.9804;
77781939316203;-8.5783;-0.7819;-1.2233;
77781949383859;-12.1762;-0.4490;-1.2954;
77781959489328;-17.9088;-1.3615;-0.1525;
77781969594848;-6.9517;-0.0320;3.6634;
77781979693963;5.4090;0.4134;-2.1290;
77781989799484;-4.1201;-0.6144;-10.2568;
77781999904953;-27.1624;1.3669;-4.2706;
77782009991567;-29.4000;1.3454;11.0584;
77782020097088;-1.2359;2.4520;10.2102;
77782030202557;0.8216;-0.8417;-5.7461;
77782040329067;-12.9428;-5.2328;-18.0805;
77782050434588;-15.2952;-1.6780;-2.7781;
77782060540057;-7.3421;1.1106;9.7792;
77782070632400;-7.0594;0.0924;-2.2654;
77782080737921;-14.7371;-0.2668;-12.5375;
77782090843390;-11.7021;1.6591;3.8623;
77782100958963;0.2515;2.6462;15.4947;
77782111064484;-0.2515;2.4688;-7.0899;
77782121169953;-15.5994;-1.5413;-34.1543;
77782131265213;-18.9987;-1.3926;-12.2282;
77782141370734;-3.7681;2.4879;11.6620;
77782151476203;-1.5882;1.5176;-1.3457;
77782161572557;-10.3487;-0.2166;-10.0795;
77782171678078;-13.8075;0.1235;-2.0788;
77782181783546;-12.5548;1.4722;6.1235;
77782191896463;-7.6609;1.5562;2.2741;
77782202001984;-7.8811;-0.7364;-2.7470;
77782212107453;-11.2612;-0.2644;-4.8096;
77782222221150;-6.9326;0.8758;-2.2343;
77782232326671;-7.2200;-0.2381;-3.3242;
77782242432140;-10.6289;0.2148;-4.6442;
77782252532713;-8.8872;1.5248;-1.9995;
77782262638234;-8.0680;0.6721;-2.2367;
77782272743703;-11.6707;1.0771;-4.8239;
77782282849223;-13.3621;1.2087;-1.2954;
77782292954744;-9.2249;0.2961;0.7839;
77782303060213;-5.1670;-0.0248;-4.6968;
77782313176671;-8.9112;-1.6322;-8.1823;
77782323282192;-9.7256;0.3320;-4.2060;
77782333387661;-10.1091;-0.4011;-1.0080;
77782343497505;-8.6812;1.0699;-2.1218;
77782353603025;-6.6715;-0.3051;-3.8800;
77782363708494;-10.4635;0.1786;-3.9230;
77782373805473;-12.8399;-0.0392;-2.1170;
77782383910994;-7.1145;-0.5255;0.3383;
77782394016463;-6.1349;-0.5255;-5.7915;
77782404120838;-13.2637;0.4277;-10.0388;
77782414226359;-11.6877;-0.9616;-2.4021;
77782424331828;-7.8906;-0.0802;2.1206;
77782434437817;-10.3798;0.0159;-1.0295;
77782444543338;-7.3875;-1.1940;-2.4165;
77782454648807;-8.0489;-0.3003;-3.2931;
77782464750734;-13.8027;-0.0535;-1.9301;
77782474856255;-9.0694;0.8806;0.3191;
77782484961723;-6.8728;-0.3676;-2.7852;
77782495067140;-16.9050;-0.8154;-4.0071;
77782505172661;-15.7241;0.6338;1.3636;
77782515278130;-7.5434;-0.7412;2.1972;
77782525405057;-2.5223;-2.0276;-6.0168;
77782535510578;-4.4291;-1.6226;-8.4482;
77782545616046;-6.4582;-1.2036;-5.7700;
77782555705109;-11.7739;0.9523;-3.4825;
77782565810630;-12.7514;1.3573;-0.0712;
77782575916098;-8.0130;1.5802;0.6882;
77782586023338;-8.0441;-0.7005;-2.5385;
77782596128859;-10.9044;-0.9353;-4.5269;
77782606234328;-7.5266;-0.8922;-3.4107;
77782616333130;-9.6562;-1.6971;-7.6409;
77782626438650;-12.6051;-1.4216;-6.8360;
77782636544119;-11.6204;-0.9832;1.4548;
77782646651723;-6.8222;0.0326;6.9691;
77782656757244;-9.6227;0.5764;4.8395;
77782666862713;-12.7920;0.3607;1.8188;
77782676978234;-10.4420;-0.3556;-0.0520;
77782687083755;-7.2344;-0.3532;-4.7088;
77782697189223;-8.1326;0.2052;-8.4434;
77782707298650;-10.2790;-0.3389;-5.6408;
77782717404171;-9.6778;-0.9425;-1.6642;
77782727509640;-10.0346;-0.5877;-0.1959;
77782737600838;-7.4189;-0.4346;-1.2544;
77782747706359;-9.0670;0.1642;-3.9927;
77782757811828;-12.9930;1.1417;-1.3983;
77782767906567;-7.1626;0.3344;0.8653;
77782778012036;-8.7485;-1.0454;-3.8297;
77782788117557;-13.0026;-0.5806;-7.0612;
77782798222557;-9.9987;1.1058;-2.3228;
77782808328025;-5.6103;0.0709;0.7648;
77782818433494;-6.0799;-0.6383;-3.5901;
77782828590630;-7.5099;0.2171;-6.0769;
77782838696098;-11.2158;1.1871;-4.4022;
77782848801619;-11.8050;0.9643;-1.9158;
77782858861359;-10.7103;0.5142;0.8007;
77782868966828;-4.3573;1.5969;-2.1649;
77782879072348;-11.9103;0.0876;-5.1640;
77782889215525;-4.3382;-0.1376;-4.1483;
77782899320994;-1.0708;0.8495;-6.2061;
77782909426515;-11.4266;0.9332;-9.2865;
77782919506775;-13.9753;1.1465;-1.9995;
77782929612244;-11.8744;0.5309;4.2766;
77782939717765;-10.7940;0.3703;3.1651;
77782949811671;-12.0350;0.5620;1.4501;
77782959917140;-11.1126;0.3942;0.4056;
77782970022661;-7.1650;-0.4011;-2.0740;
77782980143130;-8.6955;0.6123;-5.5113;
77782990248598;-8.7939;0.4878;-6.9177;
77783000354119;-10.3415;-0.1448;-4.7016;
77783010447921;-10.6816;1.2613;5.7332;
77783020553390;-6.0870;0.3033;5.4120;
77783030658911;-8.5304;-0.0706;-6.2444;
77783040761775;-9.9867;-0.2644;-11.2391;
77783050867244;-13.7477;0.4253;-7.6098;
77783060972765;-8.6644;0.2530;-1.4079;
77783071073546;-5.0761;0.1546;-3.7412;
77783081179015;-12.6410;0.2865;-6.3114;
77783091284484;-10.2838;-0.7101;-0.3873;
77783101390005;-4.8987;0.0757;0.7026;
77783111510630;-11.1006;-0.8034;-4.1124;
77783121616098;-9.3688;-0.8010;-1.4749;
77783131721619;-8.7365;-0.9473;-2.1386;
77783141825630;-13.6950;-0.2883;-4.7785;
77783151931098;-10.0298;-0.4226;-0.3706;
77783162036619;-4.9609;-0.0200;-0.8474;
77783172146463;-8.8418;-0.5207;-6.9440;
77783182251932;-10.8227;-0.2022;-4.5126;
77783192357453;-7.8739;-0.6766;-0.1693;
77783202491671;-10.7701;-0.7388;-3.9712;
77783212597140;-9.9317;-1.2610;-2.1793;
77783222702661;-6.0846;-1.2706;-0.5288;
77783232777296;-9.9461;-0.5399;-4.5269;
77783242882765;-12.3559;-0.2357;-2.8932;
77783252988286;-11.5367;-1.0071;0.3960;
77783263092296;-10.7677;-0.8130;-0.1860;
77783273197765;-5.5648;-0.2835;-3.2644;
77783283303286;-4.8389;-0.5973;-6.3595;
77783293416671;-9.3903;-0.6837;-3.1038;
77783303522140;-4.4629;-1.2251;-2.2319;
77783313627661;-16.1743;-0.2859;-5.3629;
77783323739067;-17.1111;-1.1219;0.3553;
77783333844536;-10.6863;-0.0754;3.5940;
77783343950057;-8.4488;-0.1878;1.8093;
77783354047973;-7.3301;-0.9281;-1.9277;
77783364153442;-6.1253;-1.5676;-6.6159;
77783374258963;-10.3965;-0.4681;-9.4304;
77783384356671;-15.0150;0.0924;-1.7985;
77783394462140;-8.8944;-0.4633;9.2737;
77783404567661;-2.5152;-0.1424;1.9002;
77783414680109;-13.1680;-0.2859;-5.9091;
77783424785578;-9.8839;-1.3184;-2.8475;
77783434891098;-10.8323;-0.6933;-7.5787;
77783444993442;-12.4564;-0.5255;-5.7915;
77783455098911;-8.7485;-1.3448;-0.4256;
77783465204432;-6.1612;-0.8177;-2.3375;
77783475310734;-8.2645;-0.2740;-3.5877;
77783485416203;-10.3439;-0.4370;-0.2605;
77783495521723;-6.9494;0.4181;-0.1286;
77783505630630;-15.4606;-0.5088;-3.0248;
77783515736098;-14.0710;-0.9616;0.8342;
77783525841619;-4.0579;-0.0682;1.0834;
77783535962192;-6.1325;-0.6742;-8.2184;
77783546067661;-9.8671;-1.0262;-10.2090;
77783556173182;-10.7510;0.1857;0.1780;
77783566268755;-7.7231;0.8853;0.2928;
77783576374223;-12.6984;-0.2477;-4.9412;
77783586479744;-12.2291;-0.3724;-0.2222;
77783596574380;-4.7118;-0.2213;1.2009;
77783606679848;-7.3301;-0.0559;-3.9278;
77783616785369;-8.5232;-0.8249;-7.9837;
77783626886307;-13.3143;0.0063;-9.8880;
77783636991775;-8.0680;0.4301;-0.2988;
77783647097296;-7.3158;0.4469;1.0116;
77783657207192;-11.5176;1.0002;-3.1519;
77783667312661;-10.5090;0.4397;-0.3467;
77783677418182;-9.1579;-0.1711;-0.8521;
77783687525317;-6.5109;-0.7890;-4.9795;
77783697630786;-9.4262;-0.5518;-7.6938;
77783707736307;-15.2857;-0.2166;-2.6895;
77783717832713;-5.9408;0.5309;0.5420;
77783727938182;-9.7376;0.2315;-2.2247;
77783738043703;-7.1315;0.2435;-4.7255;
77783748169588;-8.1876;0.0661;-1.7264;
77783758275057;-6.6500;0.9643;-1.4892;
77783768380525;-12.4086;0.8471;-7.0397;
77783778480317;-12.4277;-0.9449;-4.6226;
77783788585994;-5.7996;-0.6742;-1.4007;
77783798691671;-13.1130;-1.3615;-3.4226;
77783808773546;-15.3431;-0.5830;1.2057;
77783818879223;-7.5601;0.6793;1.0522;
77783828984953;-7.1459;-0.4418;-0.8139;
77783839115786;4.4557;-0.8946;-5.3414;
77783849221515;-6.9661;0.0685;-12.8321;
77783859327192;-25.4354;1.9872;-0.4570;
77783869444432;-10.4611;2.2842;7.2063;
77783879550109;5.0282;-0.5686;-4.2467;
77783889655786;-6.3120;-2.6145;-14.3602;
77783899726359;-15.1660;-0.5471;-2.8499;
77783909832036;-8.9925;1.9609;-0.1286;
77783919937713;-6.3000;-1.3902;-5.0085;
77783930072609;-9.8121;-0.4825;-3.7651;
77783940178286;-14.4879;-0.1256;-0.4618;
77783950283963;-15.6808;0.2530;6.8423;
77783960368130;-2.4745;0.2674;12.9461;
77783970473807;2.1344;-0.5016;-6.4887;
77783980579484;-15.9395;-1.7737;-23.2693;
77783990684588;-6.0655;-1.1076;-2.6345;
77784000790265;-5.3492;2.9958;10.6367;
77784010895942;-18.1268;1.7118;-6.1439;
77784020992400;-19.1160;-0.6407;-1.5251;
77784031098078;-9.4214;-0.3338;9.0126;
77784041203755;-5.7754;-0.4035;0.3673;
77784051317192;-10.5209;0.3703;-10.0989;
77784061422869;-7.4070;-0.5495;-7.5117;
77784071528546;-5.8355;-1.5987;-2.3180;
77784081650630;-12.4831;0.2100;-1.9229;
77784091756307;-16.1910;0.9906;1.3014;
77784101861984;-18.1412;0.3631;11.4248;
77784111965421;-3.2435;0.3464;7.1369;
77784122071098;-7.0092;1.3621;-13.6968;
77784132176775;-16.3325;-1.7713;-21.1828;
77784142268807;-13.9202;-0.9018;-2.9028;
77784152374484;-11.0886;1.6783;6.3488;
77784162480161;-5.3420;-0.5471;-2.7494;
77784172588807;-4.1010;-0.5710;-4.7641;
77784182694484;0.4074;-0.2094;-0.3849;
77784192800161;-6.4199;0.7777;-7.8230;
77784202902400;-13.4889;0.6960;-9.6293;
77784213008078;-7.6511;1.7716;-7.5835;
77784223113755;-8.7365;0.0326;-10.8700;
77784233230421;-14.3516;-0.5255;-5.0946;
77784243336098;-16.5577;-0.6191;2.7194;
77784253441775;-7.1192;-1.2682;5.6468;
77784263539900;-1.5428;-2.1449;0.6332;
77784273645578;-10.8323;-1.1052;-5.5977;
77784283751255;-9.2369;-0.7603;2.5687;
77784293861775;-0.3951;1.1154;4.8275;
77784303967453;-3.9045;1.8365;-2.9243;
77784314073130;-12.6290;0.3033;-6.3090;
77784324186046;-11.0791;0.1331;-4.3376;
77784334291723;-10.5927;0.7753;-4.2275;
77784344397400;-13.2999;-0.7986;-4.7112;
77784354500734;-13.2808;-3.0048;-4.6250;
77784364606411;-15.0269;-2.0803;-1.3098;
77784374712088;-7.0642;-1.7952;5.1054;
77784384808234;0.0550;-1.0334;3.9556;
77784394913911;-19.6645;0.0613;-0.5767;
77784405019588;-23.3010;0.5979;10.5171;
77784415122505;-5.0928;1.1847;13.8108;
77784425228182;2.0554;0.7968;-10.4868;
77784435333859;-13.6854;-1.0573;-22.1411;
77784445440213;-19.3244;-0.1113;-4.0406;
77784455545890;-17.3722;-0.7484;6.3775;
77784465651567;-25.0352;-0.5351;-2.4500;
77784475761723;-32.0231;-0.8803;-0.2151;
77784485867400;-4.8221;-0.4513;13.4225;
77784495973078;30.2216;0.9787;10.6511;
77784506074692;6.1325;-1.0214;-24.8121;
77784516180369;-19.3771;1.0747;-33.8860;
77784526286046;-14.1335;0.4759;-3.0846;
77784536406046;-5.1646;0.7271;-11.2989;
77784546511723;1.8972;0.3009;-9.6006;
77784556617400;-1.7653;-1.3998;-4.9053;
77784566716255;-14.1861;-1.6705;-10.9564;
77784576821932;-16.3708;-1.6899;-7.7441;
77784586927609;-5.6653;-0.8707;-6.6805;
77784597021671;-19.4321;-0.0296;-8.4482;
77784607127348;-19.5186;-0.7675;21.1098;
77784617233025;4.3863;-0.7507;26.9860;
77784627392921;0.3138;-0.6120;10.6678;
77784637498598;-12.6147;-1.7091;-8.3644;
77784647604275;-14.4138;1.7907;-2.8020;
77784657657088;-6.9781;1.8556;4.5879;
77784667762765;-6.9996;-1.9774;-9.5189;
77784677868442;-15.1804;-0.0129;-19.1489;
77784687966046;-10.9187;-1.9917;-2.2510;
77784698071723;-4.1608;-4.0134;3.4286;
77784708177400;-6.8151;-2.7751;-10.2329;
77784718283442;-10.0585;-2.6216;-7.7536;
77784728389119;-6.2928;-2.6958;2.0680;
77784738494796;-10.9857;-2.2983;-0.1693;
77784748632505;-12.9093;-0.4490;0.5228;
77784758738182;-5.2149;-0.9305;1.7518;
77784768843859;-5.0258;-0.4418;-5.7078;
77784778896984;-9.2560;0.1068;-8.1177;
77784789002296;-13.9561;-0.8345;-4.3184;
77784799107609;-9.0191;-0.7938;-1.8703;
77784809269536;-9.6634;-1.5485;-4.1650;
77784819374900;-11.6468;-0.5303;-3.2955;
77784829480213;-10.1593;-0.0897;0.3864;
77784839550317;-7.1291;-0.4657;2.4583;
77784849655630;-7.1626;-1.9893;-3.9015;
77784859760942;-11.9198;0.2650;-7.7560;
77784869878755;-12.4110;0.8518;2.0943;
77784879984067;-6.0799;0.3153;4.3220;
77784890089380;-8.8729;-0.2740;-1.7934;
77784900189900;-5.5528;0.1977;-4.1937;
77784910295213;-8.3076;0.2746;-6.0694;
77784920400525;-11.8265;0.0924;-2.5289;
77784930498755;-8.9207;-0.1639;-2.4284;
77784940604067;-9.7759;1.0747;-4.3950;
77784950709380;-11.2732;0.7681;-1.7097;
77784960825005;-9.3425;-0.3580;1.5984;
77784970930317;-7.1025;1.6615;1.2129;
77784981035630;-7.5051;0.9643;-3.0679;
77784991144484;-14.1814;-0.1448;-5.9976;
77785001249744;-12.0518;1.4530;-1.5012;
77785011355109;-5.1503;1.0723;1.2392;
77785021451671;-5.0163;0.2195;-1.7719;
77785031556984;-9.1603;0.0613;-6.3619;
77785041662296;-13.0986;1.3167;-4.0573;
77785051766463;-7.9316;1.3430;-1.9158;
77785061871775;-7.0403;1.4889;-5.7987;
77785071977088;-9.2874;0.4253;-6.1989;
77785082088025;-11.2684;0.9021;-1.2233;
77785092193338;-10.0756;0.4110;-0.1741;
77785102298650;-7.5027;0.1283;-2.0043;
77785112406567;-10.5233;0.2243;-3.9951;
77785122511828;-13.5344;0.4684;0.5228;
77785132617192;-13.8437;1.3884;2.6357;
77785142722921;-10.2933;1.2254;2.2573;
77785152828234;-10.3606;1.2182;-1.4677;
77785162933546;-11.3258;-0.3891;-4.6011;
77785173037609;-6.8151;0.3535;-3.0918;
77785183142921;-9.7400;0.2770;-1.1755;
77785193248234;-9.2560;1.2206;-4.2323;
77785203362921;-2.9512;-0.0682;-5.7891;
77785213468234;-9.1531;0.5094;-7.3487;
77785223573546;-14.2436;0.7657;-3.0703;
77785233676567;-12.1403;1.8508;-2.1769;
77785243781880;-10.2766;0.1403;-4.9268;
77785253887192;-6.4606;0.9500;-4.2323;
77785263989692;-6.2521;-1.7713;-4.2347;
77785274095005;-13.5224;-0.3820;-5.2816;
77785284200317;-11.1488;-0.9329;0.0413;
77785294312296;-1.7581;-0.1376;0.1612;
77785304417609;-12.7705;-0.6168;-6.8097;
77785314522921;-20.2852;-1.4599;3.0598;
77785324609484;-1.5380;1.2975;6.8518;
77785334714796;-3.9311;0.4469;-7.0756;
77785344820109;-11.1174;-1.1509;-14.2860;
77785354952140;-13.0890;-1.5173;-4.4862;
77785365057453;-12.2842;0.0565;5.2325;
77785375162765;-5.5241;2.5454;-0.8450;
77785385251567;-10.1928;-0.1376;-4.7498;
77785395356880;-14.7945;-2.8780;-0.2581;
77785405462192;-8.9662;0.8830;4.2096;
77785415573130;-1.4611;-0.6024;-2.6058;
77785425678442;-11.3163;-0.8779;-11.7230;
77785435783755;-13.6878;-1.2754;-3.6957;
77785445886671;-7.9364;0.1570;3.6323;
77785455991984;-8.7724;0.3966;-1.7336;
77785466097296;-8.2334;-0.5542;-4.4381;
77785476212921;-13.7189;-1.2371;-4.6920;
77785486318234;-9.3760;-0.7340;-0.8450;
77785496423546;-9.6658;-1.4073;-0.9694;
77785506527505;-8.0728;0.0159;-6.8719;
77785516632817;-8.3913;-0.3027;-4.7136;
77785526738130;-8.9782;-0.3700;-1.1659;
77785536841880;-10.6457;-1.0860;-0.2270;
77785546947192;-14.7706;0.2339;-0.0138;
77785557052505;-4.5203;-0.8177;-1.3696;
77785567156150;-5.0163;-0.7819;-6.6613;
77785577261463;-14.1335;-0.5040;-5.2887;
77785587366723;-9.9341;0.2148;-0.1573;
77785597480890;-4.4725;-0.4609;-3.6476;
77785607586203;-6.5037;-0.6120;-8.5513;
77785617691515;-13.7931;-0.9688;-3.2668;
77785627810265;-10.2000;0.5764;2.7963;
77785637915630;-4.4076;0.0613;0.2330;
77785648020942;-7.7040;-0.4418;-5.7772;
77785658093807;-12.7343;-0.8803;-6.0168;
77785668199119;-12.3799;-0.9520;0.8222;
77785678304432;-9.1029;-0.3003;1.4213;
77785688454328;-8.7748;0.2195;-1.7408;
77785698559692;-5.4784;-0.8058;-4.3496;
77785708665005;-11.5343;0.7394;-2.0115;
77785718723911;-9.2803;0.6290;2.5017;
77785728829223;-7.2775;0.3105;-1.7527;
77785738934536;-9.6156;-0.2453;-7.0875;
77785749071567;-10.3149;0.0470;-4.9627;
77785759176828;-8.6309;-0.2524;1.4189;
77785769282192;-13.9346;0.0278;-3.0607;
77785779360213;-18.9054;0.9954;0.2234;
77785789465838;-3.7896;-0.5686;3.9054;
77785799571411;-5.3898;-1.6828;-4.8694;
77785809700942;-16.1791;0.0350;-7.4758;
77785819806567;-12.3535;2.1311;5.1030;
77785829912140;-7.7877;0.9835;3.2393;
77785839994223;-9.0574;-0.2740;-6.9894;
77785850099848;-11.6492;-1.7785;-6.1822;
77785860205421;-4.5323;0.0709;0.3287;
77785870320578;-6.8800;0.2554;-4.6226;
77785880426203;-8.4559;-0.8441;-11.5361;
77785890531775;-8.9399;-0.9688;-11.1673;
77785900643546;-14.3898;1.7405;-3.1352;
77785910749171;-8.5496;1.3573;3.2321;
77785920854744;-6.1421;0.5261;-0.6269;
77785930954067;-15.5755;-0.8130;-4.4572;
77785941059692;-17.9351;-1.9101;3.0838;
77785951165265;-8.7147;-1.1267;6.5524;
77785961265525;-6.5515;0.0135;-2.8187;
77785971371150;-10.6481;-1.5317;-5.6312;
77785981476723;-5.2292;-0.5495;0.1660;
77785991597505;-7.6128;0.2411;-3.6188;
77786001703130;-8.4993;1.0771;-4.7351;
77786011808703;-7.1339;0.2195;-3.1519;
77786021898234;-7.4477;0.5189;-5.8732;
77786032003859;-13.3358;-0.9927;-6.9799;
77786042109432;-17.2666;-1.6011;-3.8512;
77786052221359;-1.0110;-1.4958;-3.3171;
77786062326984;-1.5763;-3.2085;-8.0578;
77786072432557;-18.2082;-2.2071;-6.7355;
77786082547088;-17.9303;-0.1543;7.5993;
77786092652713;-3.5357;-0.3652;9.8414;
77786102758286;-7.2870;-1.3161;-0.9909;
77786112855838;-11.7356;-0.3099;-5.6886;
77786122961463;-9.3616;0.7056;-0.3443;
77786133067036;-7.4070;0.0948;-0.8856;
77786143175317;-13.9011;-1.2275;-6.7618;
77786153280942;-12.2339;-1.7139;-10.3238;
77786163386515;-8.9542;-1.0765;1.1818;
77786173487557;0.9392;-0.5279;6.9835;
77786183593182;-5.2484;-0.5040;-11.6725;
77786193698755;-15.3861;-0.0057;-14.3530;
77786203793442;-10.1115;-0.4848;2.3961;
77786213899067;-5.7778;0.4636;1.9651;
77786224004640;-9.5653;-0.2357;-6.0431;
77786234122713;-14.2436;-0.8970;-2.7015;
77786244228338;-10.3941;-0.5782;5.1485;
77786254333911;-2.5801;1.3813;-2.1027;
77786264445005;-11.1365;-0.7220;-11.6725;
77786274550630;-14.6964;-0.3027;-2.7948;
77786284656203;-8.8609;0.9882;9.8749;
77786294756880;-5.5935;1.3430;5.0767;
77786304862505;-8.7796;-0.1615;-6.6972;
77786314968078;-19.0179;0.0063;-7.3582;
77786325096984;-11.7260;0.8327;6.9188;
77786335202609;-2.8651;-0.0176;3.7854;
77786345308182;-9.0933;-1.5102;-11.6653;
77786355392505;-12.0111;-1.0860;-8.7885;
77786365498130;-8.6812;0.1403;3.9820;
77786375603703;-10.0011;2.0064;5.8768;
77786385710213;-4.4219;2.3444;-3.1038;
77786395815838;-9.1962;-1.6418;-8.2998;
77786405921411;-10.4683;-0.0224;-2.8884;
77786416022817;-7.7734;1.4219;2.1135;
77786426128442;-9.6132;-0.1184;-3.7364;
77786436234015;-16.6319;-0.7388;-6.5007;
77786446340317;-10.4635;0.0517;2.5041;
77786456445942;-9.0933;-0.0559;4.3412;
77786466551515;-9.6993;0.9858;-0.6221;
77786476660317;-7.8380;0.7295;0.3577;
77786486765942;-8.7867;-0.1041;1.4429;
77786496871515;-8.7604;0.9619;-0.8880;
77786506967557;-14.4951;-0.4513;-1.5012;
77786517073182;-11.6563;1.2565;0.0894;
77786527178755;-1.2936;-0.4561;1.2057;
77786537288130;-5.8187;-1.5987;-5.3581;
77786547393755;-11.7858;-1.6490;-9.5524;
77786557499328;-10.6792;-0.7388;-5.7891;
77786567600421;-6.1205;-0.8970;-3.5638;
77786577706046;-7.3636;-0.7149;-4.6322;
77786587811671;-11.5199;-1.2084;-0.3395;
77786597917088;-12.8997;-0.3242;2.3818;
77786608022713;-16.1671;0.6912;2.1852;
77786618128286;-9.8934;1.6950;0.3359;
77786628219484;-3.8183;-1.5748;-1.0343;
77786638325057;-11.0958;-0.8034;-1.8918;
77786648430682;-9.2874;-0.6191;1.1506;
77786658590317;-5.4760;-1.1076;-2.9722;
77786668695890;-11.6683;0.5692;-7.2171;
77786678801515;-14.1215;-1.2993;-0.9000;
77786688859796;-4.5634;-0.7244;2.3291;
77786698965421;-5.5433;1.5081;-4.5508;
77786709071046;-12.9763;-1.1677;-8.9800;
77786719252192;-12.4831;-1.9822;-4.9101;
77786729357817;-6.8294;-1.1892;-4.2634;
77786739463390;-9.7256;-0.9090;-3.7412;
77786749517505;-10.3244;-1.1028;0.5803;
77786759623130;-4.6113;-0.5495;2.3483;
77786769728703;-8.7003;-0.7149;-1.2257;
77786779829744;-14.1622;0.0135;0.0413;
77786789935473;-12.0733;-0.4011;4.3579;
77786800041203;-16.7420;1.0460;-1.0199;
77786810138078;-11.2277;-1.1076;0.2426;
77786820243807;-4.3813;-2.3031;1.8835;
77786830349536;-4.7647;-0.2931;-3.8465;
77786840470890;-12.8184;-2.3629;-7.6002;
77786850576671;-10.7510;-1.2299;-0.6245;
77786860682400;-6.9302;0.1881;0.4582;
77786870766255;-11.4218;0.9667;-3.5662;
77786880872036;-10.1713;0.3511;1.1650;
77786890977713;-6.6954;-0.7340;3.9939;
77786901091255;-12.5046;1.5945;-3.0703;
77786911196984;-14.0303;0.8949;-6.5390;
77786921302713;-9.6251;-1.0980;-2.3180;
77786931400421;-8.3746;-0.8898;-1.2377;
77786941506203;-10.1785;-0.1424;-0.3132;
77786951611880;-6.9876;0.2578;2.9279;
77786961725734;-11.2732;2.0088;-3.2166;
77786971831463;-9.7089;1.6543;-1.9851;
77786981937192;-4.2497;0.5405;0.9829;
77786992047400;-9.0072;0.6386;-4.7160;
77787002153078;-13.7907;1.5419;-4.5174;
77787012258859;-7.1216;0.3535;0.1397;
77787022356567;-8.3889;0.8327;-5.1425;
77787032462296;-13.7836;0.6721;-5.7867;
77787042568025;-7.8428;0.3057;0.4917;
77787052671463;-2.0073;-0.6694;-0.9984;
77787062777192;-10.1115;0.7633;-6.7834;
77787072882869;-16.7877;0.5333;-0.6652;
77787082991567;-7.7447;1.8437;5.7284;
77787093097296;-6.7816;-0.5064;0.7169;
77787103203025;-13.3406;0.2841;-2.5816;
77787113310005;-8.6764;0.7992;1.2320;
77787123415734;-10.5281;-1.4216;-0.2677;
77787133521463;-8.4392;0.6912;-4.6681;
77787143622088;-7.9819;-1.7115;-2.4523;
77787153727817;-11.8983;-1.4910;-3.7244;
77787163833494;-15.7696;-2.1903;-0.6150;
77787173942088;-5.9240;-0.0488;4.4109;
77787184047765;-2.0264;-1.0789;1.3421;
77787194153546;-9.8240;-0.2788;-7.6986;
77787204263755;-15.7146;0.2937;-5.8158;
77787214369484;-9.3401;-2.0898;3.2728;
77787224475213;-11.3761;-0.2716;-0.6293;
77787234593025;-7.2153;-0.9281;-3.6718;
77787244698755;-11.6468;-1.4647;-3.7149;
77787254804484;-11.0958;-2.0204;0.1851;
77787264899380;-4.6519;-1.1414;0.6906;
77787275005109;-6.9302;-1.0669;-5.4156;
77787285110838;-10.3316;-0.7125;-6.6733;
77787295210317;-8.9518;-0.0153;-2.4691;
77787305316046;-10.5209;-1.2491;1.1025;
77787315421775;-9.7232;0.8901;0.7433;
77787325511984;-7.3229;-0.3413;-1.6307;
77787335617661;-12.1881;-0.2500;-3.1376;
77787345723442;-11.8361;-0.8994;-2.0282;
77787355846046;-14.3273;-0.5064;-0.2653;
77787365951775;-8.6524;-0.6239;0.9302;
77787376057505;-5.9958;-0.9640;-0.7397;
77787386163234;-8.8322;-1.5867;-1.5613;
77787396268963;-12.4684;-0.2381;0.6571;
77787406374692;-11.3163;0.1116;1.7064;
77787416478338;-9.7687;1.1154;-0.2103;
77787426584067;-6.7672;-0.1280;-1.6140;
77787436689796;-9.2874;-0.6048;-4.4668;
77787446794588;-11.0001;0.3296;-2.5170;
77787456900317;-7.4596;-1.6059;-2.1529;
77787467006046;-8.1565;-0.2572;-5.6623;
77787477116567;-11.0504;-1.9822;-5.1999;
77787487222296;-11.4721;-0.8656;-5.3031;
77787497328025;-10.2335;-0.6431;-0.9742;
77787507425005;-7.8715;0.1020;5.8672;
77787517530734;-7.4237;0.2291;1.5338;
77787527636463;-5.8068;-0.5686;-6.2372;
77787537730265;-10.0107;-0.7795;-6.6565;
77787547835994;-9.1364;0.4421;-3.3721;
77787557941723;0.2946;-0.4585;-1.1946;
77787568044015;4.5514;-0.5207;-9.7920;
77787578149796;-1.9164;-1.9702;-12.8632;
77787588255525;-0.9652;-0.7005;-7.3893;
77787598371359;-26.0845;0.8016;-1.0247;
77787608477088;-79.2694;0.5812;18.9586;
77787618582817;-60.5007;1.7548;50.9842;
77787628674692;59.6145;-11.0154;9.2928;
77787638780421;52.3035;-32.4960;49.6283;
77787648886098;-48.5327;-3.9583;-38.2532;
77787659035786;-47.2678;13.4593;-41.4679;
77787669141567;23.5119;14.1518;30.3350;
77787679247244;8.8442;1.0436;-19.4411;
77787689309953;-17.5421;-3.5174;-43.7267;
77787699415682;1.5547;7.9615;12.1460;
77787709521411;8.7365;5.4607;33.0754;
77787719672453;-7.3158;-4.6651;-3.2070;
77787729778182;-11.1655;-0.3796;-36.5979;
77787739883963;-18.1149;1.7333;-56.1213;
77787749974223;-30.7822;-2.5666;-54.8396;
77787760079953;-16.1528;5.8346;3.9532;
77787770185682;26.9207;9.2408;52.3807;
77787780269484;26.1326;3.0963;33.9927;
77787790375005;-54.5025;2.9623;-1.5685;
77787800480473;-65.5720;5.6213;-3.4274;
77787810586046;32.7897;0.9595;25.6277;
77787820691515;31.4411;0.5501;14.5487;
77787830797036;-31.2036;7.5042;-18.7681;
77787840905838;-28.4656;6.6153;-11.3444;
77787851011359;12.8016;-0.3820;-3.8441;
77787861116828;5.1646;-0.3413;-20.6581;
77787871227817;-20.4862;3.0197;-19.2664;
77787881333286;-16.5960;-1.9678;0.1971;
77787891438807;4.4988;-3.6757;10.5242;
77787901545734;-2.8460;-3.8363;6.4134;
77787911651203;-18.1675;-2.4924;-0.3921;
77787921756723;-14.3489;-0.4418;-5.0970;
77787931859380;-6.2498;0.2889;-19.8820;
77787941964848;-15.9060;2.9312;-26.5630;
77787952070369;-12.1881;-1.3017;-7.7178;
77787962174484;4.6834;-5.6952;17.3728;
77787972279953;5.3276;-7.7025;16.3953;
77787982385473;-20.2131;-4.3920;1.9289;
77787992505734;-28.5544;-4.5643;2.9207;
77788002611255;-7.4859;-3.9535;8.7897;
77788012716723;-1.8852;-2.6049;3.1555;
77788022807973;-16.6630;-1.7833;-4.7976;
77788032913442;-13.8293;-2.0731;-2.0521;
77788043018963;-4.5299;-2.4443;-2.3133;
77788053129900;-6.0990;0.0517;-7.4734;
77788063235369;-11.5343;1.8341;-7.2721;
77788073340890;-11.8433;0.5189;-4.7809;
77788083441567;-4.8197;0.7295;3.0622;
77788093547036;-5.7900;0.5046;1.0427;
77788103652557;-11.9055;0.6027;-1.9349;
77788113760734;-14.4592;-0.1304;-0.5073;
77788123866203;-10.1521;-1.2132;1.2631;
77788133971723;-9.9341;-0.8441;1.8236;
77788144077400;-9.8839;-1.2012;0.8967;
77788154182869;-8.9949;-1.4527;-1.0104;
77788164288390;-10.0995;0.1905;-1.3457;
77788174392921;-9.3951;0.9739;-1.0989;
77788184498390;-10.6911;1.7046;-1.3361;
77788194603911;-11.4745;1.4722;1.4596;
77788204706463;-5.4592;0.9069;3.3066;
77788214811932;-7.6295;0.9332;-1.9947;
77788224917453;-9.7184;0.4636;-4.6298;
77788235027557;-13.0388;2.2819;-1.5972;
77788245133025;-7.5003;1.4291;-0.3873;
77788255238546;-11.0264;0.0087;-4.9029;
77788265343025;-13.0747;1.0651;-3.3673;
77788275448494;-6.8198;1.1058;-0.4328;
77788285554015;-10.2933;-0.0009;-3.3290;
77788295661671;-10.9929;0.3129;-2.3590;
77788305767140;-9.0646;2.9264;-1.4605;
77788315872661;-9.3855;0.9356;-3.1735;
77788326002400;-6.5587;1.1991;-3.1086;
77788336107921;-7.8715;1.2015;-3.7364;
77788346213390;-11.8624;1.7836;-4.6131;
77788356297400;-11.1823;-0.6885;-1.8870;
77788366402869;-8.9064;0.4181;-1.3696;
77788376508390;-6.7193;0.3488;-0.9120;
77788386619484;-8.7963;-0.5495;-3.5351;
77788396724953;-12.0733;-1.0382;-3.0511;
77788406830473;-10.3558;-0.1663;-1.7025;
77788416935213;-8.0106;0.0350;-1.0774;
77788427040682;-7.4620;-0.6144;-4.9220;
77788437146203;-6.9996;-0.3123;-5.6815;
77788447245630;-11.2780;0.5213;-1.8464;
77788457351098;-11.9848;0.1642;2.7338;
77788467456619;-6.8414;-0.1902;1.2320;
77788477554484;-4.2879;0.1235;-2.6321;
77788487660005;-10.5688;0.1786;-5.9163;
77788497765473;-12.2578;0.3224;-4.9292;
77788507883234;-10.5257;-0.8656;0.3745;
77788517988703;-9.7208;-1.1964;3.8384;
77788528094223;-11.5798;-2.4132;1.7255;
77788538182400;-7.8571;-1.9316;-1.0774;
77788548287869;-13.0651;-0.6479;-4.4357;
77788558393390;-17.6883;-2.7679;1.9361;
77788568520421;-9.9485;-1.5389;8.2843;
77788578625890;-5.2798;-1.2012;1.8643;
77788588731411;-8.4873;-1.7474;-4.5365;
77788598819692;-7.5458;-0.9425;-5.8947;
77788608925213;-9.7543;0.6386;-7.1501;
77788619030734;-10.2120;1.5395;0.3864;
77788629140421;-8.6118;0.5859;2.0560;
77788639245890;-10.3846;-0.2022;-3.6212;
77788649351411;-9.6227;-1.2371;-2.4117;
77788659470421;-11.0695;-0.0535;1.2320;
77788669575890;-11.7165;-0.3099;1.8332;
77788679681411;-8.2406;-0.1161;-5.1664;
77788689759796;-7.7064;-0.5399;-3.7029;
77788699865265;-8.8490;0.4205;-1.5060;
77788709970786;-10.6337;0.6386;-4.5963;
77788720108025;-10.5832;1.2927;-4.8431;
77788730213494;-8.0800;2.6342;-1.1061;
77788740319015;-11.3426;1.3813;-0.0066;
77788750440213;-12.1618;2.2364;2.1182;
77788760545682;-9.9939;1.3549;4.0035;
77788770609223;-7.6391;-0.2596;2.4153;
77788780714744;-9.1053;1.3932;-5.9234;
77788790820265;-14.7586;1.4148;-6.3452;
77788800957505;-3.4424;2.7514;-0.3395;
77788811063025;-8.6716;1.0125;-6.2061;
77788821168494;-5.8211;1.5658;-7.9645;
77788831266463;-7.2942;2.7323;-1.2739;
77788841371932;-17.0465;3.3622;2.2430;
77788851477453;-8.6142;1.3789;0.6906;
77788861574171;-5.7514;-1.0167;-3.7029;
77788871679640;-10.3893;-0.7986;-3.6861;
77788881785161;-13.4818;0.9906;1.6534;
77788891890630;-11.6420;0.8710;2.8872;
77788901996098;-7.4907;0.2387;-2.5241;
77788912101619;-9.7089;-1.4982;-3.4561;
77788922207140;-9.3544;0.6817;-2.2415;
77788932312609;-5.2436;1.3956;-0.7660;
77788942418130;-8.5615;1.3262;-4.4815;
77788952529796;-19.8132;1.5176;-3.0344;
77788962635265;-6.6954;1.1010;3.9437;
77788972740786;-4.6567;-0.2405;2.9949;
77788982845317;-8.0943;-0.4992;-1.2691;
77788992950786;-12.7343;-0.8656;-5.1281;
77789003056307;-14.0566;-0.5590;-6.2898;
77789013155942;-7.0499;1.1441;1.1384;
77789023261411;-6.1971;-0.3003;0.7959;
77789033366932;-10.5257;-1.2802;-4.6274;
77789043477817;-13.8628;0.5118;-4.9531;
77789053583286;-10.9259;-0.9233;0.1181;
77789063688807;-5.8379;-0.7460;0.1899;
77789073806984;-11.6587;1.1536;-3.3625;
77789083912453;-10.2359;0.2626;-0.3323;
77789094017973;-11.4601;0.7152;2.3483;
77789104095525;-7.7136;0.1164;-0.7923;
77789114201046;-9.4071;-0.3437;-5.2717;
77789124306515;-13.6472;-0.4561;-1.2906;
77789134477296;-12.9835;-0.5088;0.0966;
77789144582817;-6.3864;-0.7938;-1.1683;
77789154688286;-7.8284;0.2459;-1.0175;
77789164739275;-7.1937;-1.6828;-1.7264;
77789174844744;-9.9221;0.5261;-4.5700;
77789184950265;-7.9265;-0.0224;-4.6825;
77789195052817;-11.6877;-0.1161;-3.9182;
77789205158286;-10.8299;0.0972;-1.3816;
77789215263807;-6.0030;1.9131;-1.6738;
77789225383234;-5.6749;-1.2778;-3.1519;
77789235488703;-6.9159;0.7609;-4.8431;
77789245594223;-11.3498;1.0364;-2.3204;
77789255697817;-18.2560;0.8231;1.1169;
77789265803286;-15.4582;-0.1926;3.7161;
77789275908807;-6.4271;-0.2429;0.1445;
77789286008807;-8.5974;-3.6087;-1.1515;
77789296114275;-10.0875;-0.8225;0.1325;
77789306219796;-10.6911;-0.1519;-0.5695;
77789316327400;-10.2981;-0.6766;-1.1707;
77789326432869;-6.8510;0.3775;0.4965;
77789336538390;-12.2267;0.8495;-1.6881;
77789346641671;-7.9388;-0.7196;-2.6106;
77789356747140;-11.3330;1.1919;-3.5710;
77789366852661;-15.4965;-0.5160;-2.4428;
77789376960005;-8.4826;0.9882;2.4993;
77789387065473;-6.6978;-0.8010;2.1135;
77789397170994;-10.6193;-0.1639;-0.1983;
77789407261567;-9.8216;0.3440;3.7567;
77789417367088;-6.0870;-1.1339;-3.7005;
77789427472557;-15.6616;-2.0850;-16.7605;
77789437583650;-14.4377;-1.2610;-9.4519;
77789447689119;-3.8040;0.2961;7.5296;
77789457794640;-0.8025;-0.4777;2.0106;
77789467928390;-11.2804;-0.2237;-11.8618;
77789478033911;-14.7036;1.4411;-3.5710;
77789488139432;-8.2262;2.2484;4.7581;
77789498213025;-12.3559;1.1560;-1.5374;
77789508318494;-7.1865;-0.9281;-5.2669;
77789518424015;-6.8680;-0.2620;0.2809;
77789528559171;-12.2578;-0.7077;-1.9756;
77789538664640;-13.9370;-0.1304;-4.7737;
77789548770161;-8.7218;-1.3328;0.4845;
77789558831775;-7.0187;1.0125;0.3577;
77789568937296;-12.2148;-0.4944;-4.0573;
77789579042765;-11.6853;-1.2227;-2.3830;
77789589232296;-6.1229;1.1536;-0.1573;
77789599337765;-3.5477;0.4205;-2.9770;
77789609443286;-17.0198;0.9476;-4.3089;
77789619484067;-17.9734;0.4469;3.7878;
77789629589536;-3.0398;1.4602;3.0622;
77789639695057;-3.7490;-1.4264;-3.9568;
77789649816984;-11.3163;-1.1844;-5.8780;
77789659922505;-14.1144;-0.0081;-3.3601;
77789670027973;-7.3062;2.4736;1.6944;
77789680123546;-6.2354;0.0350;-1.3074;
77789690229067;-10.4850;-1.4791;-5.1425;
77789700334536;-9.0526;-0.4418;-3.1615;
77789710468286;-7.5745;1.6065;-2.6130;
77789720573755;-9.1627;1.5105;-5.9521;
77789730679275;-12.7056;0.3727;-2.4284;
77789740778234;-6.8486;-0.9999;1.3205;
77789750883703;-8.9518;-0.0416;-2.3734;
77789760989223;-14.7443;0.2698;0.1660;
77789771088911;-6.1493;-0.2764;6.0589;
77789781194692;-7.7423;-1.0956;-6.1463;
77789791300473;-13.2709;-2.1688;-11.7589;
77789801373546;-14.4233;0.8877;0.1421;
77789811479275;-5.3348;2.2101;7.7716;
77789821585057;-4.3525;-0.1567;-2.4165;
77789831720994;-13.1919;-1.7976;-6.7068;
77789841826775;-12.3105;1.9561;1.1384;
77789851932557;-8.2047;1.1106;1.6152;
77789862025473;-9.9748;-0.4992;-4.6561;
77789872131255;-10.8180;-0.2022;-3.0679;
77789882237036;-5.6533;-0.2237;2.1087;
77789892338598;-5.9240;-0.9544;-1.4486;
77789902444380;-13.3047;-0.0631;-6.5438;
77789912550161;-10.6911;1.0220;-1.4629;
77789922673025;-6.5252;-0.2883;0.7863;
77789932778755;-9.8336;-0.1831;-6.2994;
77789942884536;-13.6304;-0.1232;-5.0970;
77789952978494;-10.1330;0.1857;3.4119;
77789963084275;-8.6596;-1.1315;3.5530;
77789973190057;-10.2263;-0.3242;-1.8870;
77789983291411;-10.3678;-1.1438;-2.3013;
77789993397192;-8.2143;-1.0047;0.0532;
77790003502973;-8.1374;-1.2873;-1.6714;
77790013603755;-10.4516;-0.2070;-3.8991;
77790023709536;-10.5951;-0.8201;-2.4212;
77790033815317;-7.6176;-0.8154;-0.4810;
77790043925265;-10.3654;-0.8608;-3.2596;
77790054031046;-11.8098;-1.2634;-2.1577;
77790064136828;-8.4583;-1.2897;1.2440;
77790074228182;-7.9364;-0.8321;-1.1468;
77790084333963;-11.3402;-1.1291;-3.1998;
77790094439744;-9.2321;-0.7890;-2.4978;
77790104555473;-8.7075;-1.2826;-0.9670;
77790114661255;-8.6979;-1.2873;-0.8474;
77790124767036;-7.9241;-1.8981;-3.4202;
77790134856411;-13.2087;-0.2022;-6.0168;
77790144962192;-10.5999;-0.0706;-2.0330;
77790155067973;-7.4596;-1.9053;0.2474;
77790165192140;-11.9536;0.1594;-3.6571;
77790175297921;-10.2861;-0.2477;-1.3720;
77790185403703;-5.7610;-0.9353;1.4548;
77790195512505;-9.0168;-0.2309;-1.4318;
77790205618286;-12.3918;0.7271;-3.0392;
77790215724067;-12.6817;-0.9855;-2.0043;
77790225835005;-6.5850;-0.5590;-0.5862;
77790235940786;-6.2689;0.1522;-3.7819;
77790246046567;-15.4415;0.1044;-7.2386;
77790256148078;-14.7921;0.9643;0.0269;
77790266253859;-0.8982;-0.1807;2.1470;
77790276359640;-2.3572;-1.4073;-5.7580;
77790286458182;-11.5367;0.0852;-7.2314;
77790296563963;-11.4936;1.6759;-2.4045;
77790306669744;-12.1403;1.0603;-1.1659;
77790316781203;-10.5473;-0.4178;-0.9335;
77790326887036;-7.7207;-0.4202;-1.5227;
77790336992765;-9.7759;0.3033;-1.7503;
77790347098234;-10.0274;-0.3891;-0.6867;
77790357203963;-11.1512;-0.1113;-1.2835;
77790367309744;-11.1894;-0.0105;-1.2066;
77790377421671;-9.5845;0.4229;-1.5278;
77790387527505;-8.7099;0.9452;-3.4346;
77790397633234;-8.4081;1.1177;-4.4767;
77790407728807;-11.8600;1.2398;-2.8068;
77790417834588;-11.6949;1.4818;0.3984;
77790427940369;-6.8294;1.2832;-0.4905;
77790438034848;-10.2239;0.3057;-5.2382;
77790448140630;-10.2239;1.1967;-2.4571;
77790458246411;-11.7954;1.1512;4.3292;
77790468363494;-9.9556;0.8088;1.8763;
77790478469275;-9.0239;0.5572;-3.1926;
77790488575057;-8.2980;0.7609;-4.1578;
77790498677817;-6.2593;0.7152;-4.0334;
77790508783546;-6.4774;0.9069;-5.9306;
77790518889328;-10.1186;0.3488;-5.3486;
77790528999328;-11.2062;0.2506;-1.8344;
77790539105109;-12.3368;1.0244;0.9039;
77790549210890;-9.9748;0.8351;0.2210;
77790559305369;-6.7600;0.7729;-2.5050;
77790569411150;-6.7361;-0.0368;-2.3710;
77790579516932;-10.3654;-0.2620;-1.0989;
77790589644640;-10.8203;-0.1974;0.3144;
77790599750421;-10.1521;-0.5375;-0.3514;
77790609856203;-12.4349;-0.5112;-1.0534;
77790619961098;-14.9336;0.1164;-0.6413;
77790630066880;-7.3974;-0.5183;2.1446;
77790640172661;-5.5863;-0.9042;-1.2233;
77790650281932;-11.9752;0.0422;-5.2549;
77790660387713;-13.0002;-0.5758;-0.3108;
77790670493494;-8.9064;-1.2419;3.1962;
77790680590473;-8.6477;0.0517;-0.6772;
77790690696255;-10.5520;-0.6694;-1.7169;
77790700802036;-7.3134;-0.6335;1.0953;
77790710894432;-8.5807;-0.1998;-1.9684;
77790721000213;-11.1918;-0.3580;-5.9067;
77790731105994;-10.5999;-0.2309;-3.4490;
77790741205473;-7.9074;-1.2251;0.9494;
77790751311255;-6.7026;-1.9510;-0.0736;
77790761417036;-9.8815;-2.2600;-3.7507;
77790771526046;-10.5760;-0.4681;-1.3241;
77790781631515;-9.1914;-0.7962;0.3431;
77790791737036;-8.7485;-1.9149;-4.0454;
77790801853755;-10.9283;1.6615;-6.4289;
77790811959223;-12.5189;0.7247;-2.7541;
77790822064744;-10.5138;-1.1414;1.0044;
77790832170942;-9.0048;-0.3987;-0.4184;
77790842276411;-9.2465;0.7394;-2.5504;
77790852381932;-10.4109;1.1991;-2.3518;
77790862474796;-9.2273;0.4181;-0.5527;
77790872580265;-9.1627;0.2770;-1.7456;
77790882685786;-8.8801;0.9188;-3.7771;
77790892787713;-9.5219;0.1642;-3.7914;
77790902893182;-10.4922;0.2530;-2.7972;
77790912998703;-10.1282;-0.0607;-2.1410;
77790923117192;-7.0116;1.0579;-3.1352;
77790933222661;-8.2932;-0.8034;-3.8512;
77790943328182;-10.7725;0.3918;-2.9650;
77790953434640;-9.4837;0.0996;-0.3275;
77790963540109;-11.8241;-0.1376;-1.0893;
77790973645630;-11.0192;0.2100;-1.5012;
77790983737817;-4.4411;0.6697;-0.9120;
77790993843286;-7.4453;0.1379;-3.4322;
77791003948807;-10.7725;-0.4370;-6.0287;
77791014052609;-11.0527;-0.4657;-6.5151;
77791024158078;-10.3654;-0.1041;-4.3184;
77791034263598;-9.0168;-0.2835;-1.4127;
77791044370734;-8.5328;-0.4705;-1.1157;
77791054476203;-9.6227;-0.2907;-2.7302;
77791064581723;-8.8155;0.2171;-1.9397;
77791074691307;-7.3301;-0.7364;-0.4352;
77791084796775;-11.6587;-0.4490;-1.9971;
77791094902296;-12.2674;0.4205;-3.1038;
77791105016046;-10.2957;-0.1184;-1.5179;
77791115121515;-7.3851;-0.5136;-0.1334;
77791125227036;-6.7696;-0.1424;-1.9636;
77791135338130;-11.5726;-0.9425;-3.9903;
77791145443598;-10.1330;0.1187;-3.7842;
77791155549119;-9.5677;0.0876;-3.8106;
77791165644484;-10.1210;-0.8177;-4.8742;
77791175749953;-9.4645;0.0613;-1.3911;
77791185855473;-8.6668;-0.6431;1.4644;
77791195970317;-8.8705;-0.3266;-0.9479;
77791206075786;-9.3760;-0.1926;-1.8966;
77791216181307;-9.1077;-0.1424;-2.3830;
77791226283650;-9.8671;0.1044;-3.9377;
77791236389119;-8.6261;-0.1448;-3.2285;
77791246494640;-8.1135;-1.3256;-1.9325;
77791256605838;-11.8074;-0.2189;-1.0558;
77791266711307;-9.1986;0.6601;0.6858;
77791276816828;-6.7505;0.1810;-0.9936;
77791286908390;-9.0981;0.0996;-4.3256;
77791297013859;-9.7184;0.8495;-3.6595;
77791307119380;-10.7892;1.1512;-1.5733;
77791317233494;-12.4660;-0.8082;0.8773;
77791327338963;-12.0829;-0.8584;2.6955;
77791337444484;-8.2525;0.2411;0.5683;
77791347554015;-10.2670;-0.5949;-2.6895;
77791357659536;-12.6529;-0.9114;-1.5733;
77791367765005;-8.6764;-0.7412;1.2248;
77791377858130;-6.0703;-0.1998;-0.8210;
77791387963598;-10.5138;-0.0730;-5.0922;
77791398069119;-11.1174;0.4134;-3.3793;
77791408179380;-8.7700;0.6984;0.2641;
77791418284848;-10.9953;-0.3915;0.5204;
77791428390369;-11.9513;-0.3437;-0.7588;
77791438503130;-8.8394;0.2339;-0.0401;
77791448608598;-5.6868;-0.3604;-1.8224;
77791458714119;-10.9522;-1.1773;-4.3089;
77791468816671;-10.1952;-0.4729;-1.5613;
77791478922140;-9.0311;0.2865;-1.0726;
77791489027661;-10.0633;0.2076;-1.8320;
77791499138234;-8.4512;-0.5590;-1.3265;
77791509243703;-7.0690;0.0254;-3.6718;
77791519349223;-9.7184;-0.7938;-6.7331;
77791529459171;-11.3952;-1.3184;-4.2227;
77791539564640;-8.7939;0.0470;-2.2439;
77791549670161;-8.1039;0.0733;-2.7135;
77791559781984;-9.2489;-0.1519;-4.0645;
77791569887453;-10.1545;0.2746;-3.5710;
77791579992973;-9.1747;0.5357;-1.2377;
77791590099796;-10.2550;0.2650;-0.8091;
77791600205265;-13.0747;0.4445;-0.1430;
77791610310786;-12.0637;-0.3748;1.0618;
77791620419484;-7.5793;-1.0143;0.7983;
77791630524953;-10.4611;-0.3772;-2.9363;
77791640630473;-13.9896;-0.5447;-2.9004;
77791650718025;-11.2182;0.0159;-0.0329;
77791660823494;-6.3841;-0.5279;-0.1836;
77791670929015;-5.6175;-0.5782;-4.4548;
77791681033650;-8.3865;0.6194;-6.5486;
77791691139119;-8.0560;0.2626;-3.3505;
77791701244640;-8.8657;0.4807;-2.4093;
77791711349640;-10.2694;0.2363;-3.4083;
77791721455109;-8.5783;-0.0583;-0.6628;
77791731560630;-7.8021;-0.2859;0.5515;
77791741667921;-7.8787;-0.0129;-2.6249;
77791751773390;-12.7367;-0.4274;-3.7388;
77791761878911;-10.5879;0.1546;0.1971;
77791771980838;-10.1354;-0.7364;2.4846;
77791782086359;-10.0274;-0.1878;-1.5470;
77791792191880;-8.0967;-0.8082;-1.9325;
77791802276671;-10.2694;0.1355;-1.7862;
77791812382192;-12.5237;-0.6287;-2.5050;
77791822487661;-9.9269;0.8327;-2.6991;
77791832625734;-5.2702;0.1857;-4.4213;
77791842731255;-6.9135;-0.5016;-7.0612;
77791852836775;-8.3004;0.6458;-5.3390;
77791862934796;-11.4769;1.2350;-1.7432;
77791873040317;-16.7085;0.7825;1.2248;
77791883145838;-14.0952;-0.3437;6.5764;
77791893254067;-4.7910;0.4325;5.3234;
77791903359588;-6.4128;-1.3424;-3.1110;
77791913465109;-13.0555;-1.6804;-3.8943;
77791923574067;-9.4525;0.8830;-1.5179;
77791933679588;-7.9436;-1.0238;-1.6977;
77791943785109;-12.0757;-0.4705;-4.9125;
77791953891671;-10.9786;0.8207;-2.3276;
77791963997192;-6.5563;-0.7675;-0.5216;
77791974102713;-5.7251;-0.4011;-4.5891;
77791984198130;-11.0025;-0.1376;-7.4590;
77791994303650;-12.7439;0.0087;-2.4787;
77792004409171;-8.6118;-0.4178;1.4115;
77792014515838;-8.0536;-0.2859;-1.7192;
77792024621359;-10.0298;0.4759;-3.6694;
77792034726880;-10.3822;0.0494;-2.3710;
77792044838338;-10.9642;-0.1926;1.4644;
77792054943859;-9.0694;-0.2907;3.2608;
77792065049380;-7.1626;-1.1677;-0.1047;
77792075163338;-9.9317;-0.7029;-4.3232;
77792085268859;-9.9269;-0.2931;-4.8168;
77792095374380;-10.4563;-1.0334;-4.4886;
77792105471307;-10.5185;-0.4442;-4.8263;
77792115576828;-8.5208;-0.5853;-3.1783;
77792125682348;-10.5042;0.0015;-1.6546;
77792135775317;-11.4817;1.0795;-0.5958;
77792145880838;-6.3482;0.0876;0.7241;
77792155986359;-7.3038;-0.0416;-3.4848;
77792166102921;-12.0470;0.4950;-3.3458;
77792176208442;-10.7868;0.1235;0.0799;
77792186313963;-9.6562;-0.5662;0.0700;
77792196415317;-8.1852;-0.3628;-3.7172;
77792206520838;-8.5615;-0.9018;-4.6537;
77792216626359;-9.1292;-0.1328;-3.2788;
77792226738755;-10.0418;0.1857;-1.5302;
77792236844275;-13.1297;0.1810;-1.3528;
77792246949796;-9.6826;0.7992;-1.2018;
77792257057140;-5.0019;0.2195;-1.4629;
77792267162609;-9.3832;-0.2309;-3.7579;
77792277268182;-12.6577;-0.1161;-1.7001;
77792287364900;-9.7998;0.2841;1.1794;
77792297470421;-8.2454;1.0914;-1.7097;
77792307575942;-10.6552;-1.0071;-3.9425;
77792317681307;-12.1642;-0.2309;-1.9947;
77792327786828;-9.0335;0.0948;0.5803;
77792337892348;-6.4534;-0.5590;-0.3347;
77792347990630;-8.6907;-0.3963;-4.6992;
77792358096150;-13.1824;-0.2835;-2.2558;
77792368201671;-9.1244;0.2961;2.0177;
77792378311046;-6.0437;0.3942;-1.4318;
77792388416567;-10.0083;-0.4202;-7.3869;
77792398522088;-11.3928;-0.3963;-3.9473;
77792408635578;-8.6548;0.2339;1.9026;
77792418741098;-8.3291;0.0206;-0.4089;
77792428846619;-13.8963;-0.5686;-2.8451;
77792438938234;-9.1484;0.0494;-0.3586;
77792449043755;-6.5061;-0.8393;-0.0736;
77792459149275;-10.8275;-1.0980;-4.0813;
77792469300942;-10.5760;-0.5710;-2.5361;
77792479406463;-9.7017;-0.0176;0.4917;
77792489511984;-10.9020;-0.6383;-3.2644;
77792499568546;-8.8322;-0.0607;-4.2538;
77792509674067;-9.9987;-0.7388;-1.2787;
77792519779536;-10.4779;0.2961;-0.3562;
77792529911046;-8.0560;0.4158;-1.4151;
77792540016567;-10.6744;-0.7555;-3.3673;
77792550122088;-9.7543;-0.2046;-2.1075;
77792560212400;-10.2024;-0.5375;-1.6499;
77792570317921;-11.8433;-0.6670;-1.1133;
77792580423442;-7.2894;-1.7521;0.1899;
77792590523442;-6.1588;0.3392;-3.7579;
77792600628963;-14.2125;-0.2788;-4.5317;
77792610734484;-10.7773;-0.9688;1.6534;
77792620857609;-5.1168;0.0374;0.1229;
77792630963130;-9.1412;-1.0597;-5.9234;
77792641068650;-10.1856;-0.9497;-3.5303;
77792651177713;-10.1665;-0.7507;0.2785;
77792661283234;-10.2263;0.5716;-1.9253;
77792671388755;-11.1607;-0.3218;-3.2788;
77792681485630;-8.9255;-0.6646;-1.6235;
77792691591150;-9.6538;-0.0105;-1.0989;
77792701696671;-12.0063;-0.4681;-1.1228;
77792711798338;-7.8715;-0.2907;-1.2353;
77792721903859;-6.9900;-0.4513;-1.9493;
77792732009380;-10.1258;-1.2203;-0.9502;
77792742125213;-7.7088;0.4807;-2.6345;
77792752230734;-10.7222;0.1714;-5.3222;
77792762336255;-11.5750;-0.0631;-3.4011;
77792772442713;-10.6409;0.3870;-0.6197;
77792782548234;-5.9504;-0.0607;-0.4786;
77792792653807;-10.8829;-0.7125;-4.5532;
77792802751255;-13.6304;0.4469;-2.0569;
77792812856775;-8.9830;-0.1543;3.7950;
77792822962348;-8.3722;-0.7316;-0.0281;
77792833077713;-9.6610;0.0900;-4.1028;
77792843183234;-10.3149;-0.3939;-1.7169;
77792853288807;-9.9700;-0.2381;-0.5336;
77792863402244;-9.2393;0.6936;-1.6475;
77792873507765;-9.2273;-0.1878;-2.5887;
77792883613338;-10.1139;0.0733;-2.4165;
77792893701880;-8.9901;1.0771;-2.3853;
77792903807400;-8.6070;0.0757;-4.8239;
77792913912973;-8.1254;0.0805;-4.2467;
77792924037400;-5.9408;0.5931;-0.9550;
77792934142921;-8.1637;-0.4418;-3.0823;
77792944248494;-14.2962;0.8973;-4.2682;
77792954333130;-9.5342;1.2927;1.2535;
77792964438650;-5.6892;-0.7819;0.9996;
77792974544223;-8.4440;-0.0873;-4.9436;
77792984649380;-10.5353;0.2889;-3.1134;
77792994754900;-10.5951;-0.0945;1.6968;
77793004860473;-9.0144;0.1594;-2.2247;
77793014969275;-11.7858;-0.1424;-5.1999;
77793025074796;-10.4635;-0.0945;-0.9144;
77793035180369;-6.0150;-0.1184;-0.3084;
77793045281046;-6.7289;-0.6837;-4.6226;
77793055386567;-12.7490;-0.5303;-5.2573;
77793065492140;-12.2530;0.2028;-1.0080;
77793075612921;-9.1651;0.3942;1.9457;
77793085718442;-9.7041;-0.0655;-1.2930;
77793095824015;-11.8122;-0.2644;-3.6476;
77793105922817;-10.1569;0.2315;-1.2257;
77793116028338;-7.5147;-0.7579;-0.4857;
77793126133911;-9.6299;-0.5662;-2.9530;
77793136259796;-10.3463;0.5501;-2.5839;
77793146365317;-8.7939;-0.0368;-0.4929;
77793156470890;-8.5089;0.4445;-0.7875;
77793166563650;-10.2383;0.5213;-2.1266;
77793176669171;-8.7939;0.8877;-1.9564;
77793186774744;-8.2071;0.2001;-3.7747;
77793196871984;-9.1962;-0.8779;-4.5221;
77793206977505;-10.1976;-0.2070;-2.0210;
77793217083078;-10.3846;-0.9592;0.0197;
77793227196828;-9.4286;-0.7244;-0.7947;
77793237302348;-8.6979;-0.3170;-1.4749;
77793247407921;-7.9217;-0.6120;-2.0883;
77793257504900;-9.0790;-0.6933;-3.9111;
77793267610421;-10.5401;-0.7627;-2.3877;
77793277715994;-12.1187;-0.4920;0.2689;
77793287818338;-10.4611;-0.5088;0.7074;
77793297923859;-7.6439;-1.0860;-0.9960;
77793308029432;-11.2349;-0.0706;-2.8379;
77793318134796;-10.7270;-0.2740;-2.0644;
77793328240317;-7.4309;-0.2955;-2.5839;
77793338345890;-10.0947;0.0661;-3.1711;
77793348445109;-9.7735;0.0517;-2.2319;
77793358550630;-9.5797;0.6888;-1.0510;
77793368656203;-10.9379;0.3368;-1.6953;
77793378754900;-9.9293;0.0087;-2.5265;
77793388860473;-7.8978;-0.1639;-2.2056;
77793398965994;-9.4573;0.0876;-1.3720;
77793409102296;-9.0048;0.0517;-1.8392;
77793419207817;-9.5267;0.6817;-3.6117;
77793429313390;-9.7854;0.0781;-2.6345;
77793439401150;-10.0561;0.6051;-2.3542;
77793449506671;-9.0814;0.4660;-1.1300;
77793459612244;-8.8322;-0.1735;-1.1157;
77793469716567;-11.0049;-0.3891;-2.9674;
77793479822088;-11.4147;0.5620;-1.9062;
77793489927661;-8.8466;-0.1232;-0.3921;
77793500048963;-8.8992;-0.1232;-2.7278;
77793510154484;-10.0107;0.3918;-2.3614;
77793520260057;-12.8519;0.5548;0.1516;
77793530370109;-12.8231;0.2195;-0.9455;
77793540475630;-8.1757;-0.0464;-1.0008;
77793550581203;-5.5720;-0.6144;-2.3204;
77793560665734;-7.7423;-0.6861;-4.4309;
77793570771255;-8.1087;-0.4322;-4.0047;
77793580876828;-6.9111;-0.1352;-3.6861;
77793591002140;-8.8729;-0.4513;-4.4791;
77793601107661;-13.1225;-0.1184;-2.9483;
77793611213234;-9.4597;-0.2094;-0.5456;
77793621315005;-10.3077;-1.0143;-1.0175;
77793631420525;-11.4697;-1.0023;-1.4773;
77793641526098;-10.0780;-1.4456;0.4893;
77793651625421;-9.1436;-1.4312;1.3469;
77793661730942;-9.8049;-0.4825;0.0628;
77793671836515;-10.6457;0.0565;-1.1587;
77793681938234;-8.9877;-0.6455;-1.5422;
77793692043755;-9.5486;-0.5375;-2.4500;
77793702149328;-9.9532;0.2001;-4.2156;
77793712256775;-8.3865;-0.8584;-3.2979;
77793722362296;-9.0455;-0.7579;-3.6428;
77793732467869;-11.6830;-0.1878;-4.2251;
77793742579171;-10.7486;-0.7053;-2.3901;
77793752684692;-8.3722;-0.8297;-0.2797;
77793762790265;-10.1330;-0.5016;-1.6187;
77793772894640;-8.0608;-0.6909;-1.3959;
77793783000161;-10.1019;-0.6431;-2.4787;
77793793105734;-10.6816;0.5764;-4.8598;
77793803217713;-10.2933;0.2315;-2.2678;
77793813323234;-8.3076;0.0087;0.3912;
77793823428755;-10.6935;1.4602;-0.1382;
77793833538859;-8.4849;1.6065;-1.0080;
77793843644380;-7.5553;0.9236;-1.7503;
77793853749953;-10.8876;0.6936;-0.9239;
77793863850213;-8.1350;0.9930;-1.9181;
77793873955734;-9.3473;0.8662;-5.5499;
77793884061307;-13.2087;0.0206;-6.0912;
77793894162713;-8.4224;-0.4131;-1.9301;
77793904268234;-3.9239;-0.3772;-0.9861;
77793914373807;-8.7389;-0.7507;-4.1411;
77793924500630;-11.0958;1.7524;-2.9698;
77793934606150;-8.9566;0.0111;0.1110;
77793944711723;-9.8647;-0.5758;-2.3180;
77793954791984;-12.8590;-0.8755;-1.4581;
77793964897505;-12.5142;-1.2036;1.9481;
77793975003078;-10.2335;-0.8297;1.4524;
77793985107088;-8.4754;-1.6633;1.1626;
77793995212609;-10.5305;-0.9090;-0.8498;
77794005318182;-8.9255;0.3511;-2.9411;
77794015429067;-10.8371;-1.0573;-4.0262;
77794025534588;-10.4994;1.0914;-4.3065;
77794035640161;-8.1278;0.7152;-2.1793;
77794045742609;-8.6572;0.6266;-3.0799;
77794055848130;-9.0598;0.1714;-2.7805;
77794065953703;-8.1637;-0.5734;-2.1003;
77794076048650;-10.9259;0.0541;-1.8440;
77794086154171;-9.4143;-0.4609;0.0870;
77794096259744;-7.6633;-0.8369;-2.3423;
77794106365005;-11.8624;-0.7196;-3.0918;
77794116470525;-11.5415;-0.0993;-0.5240;
77794126576098;-6.6954;0.1211;-0.9670;
77794136704640;-7.0164;-1.0214;-3.2668;
77794146810161;-12.4110;0.1355;-4.2299;
77794156915734;-10.7031;-0.0272;-2.2702;
77794167004171;-9.7256;-0.4442;-2.7111;
77794177109692;-13.2278;0.1235;-1.1946;
77794187215265;-8.9327;0.2794;1.8763;
77794197333546;-6.5396;-0.6096;-0.6293;
77794207439067;-5.5528;-0.6790;-5.7485;
77794217544640;-0.9823;0.8877;-6.1439;
77794227618025;-4.5275;1.7429;-9.6748;
77794237723546;-13.2446;2.0375;-11.9551;
77794247829119;-18.8740;1.4578;-7.0397;
77794257963234;-9.6084;-0.3676;-0.0760;
77794268068755;-5.2508;-0.9329;0.0221;
77794278174328;-11.2469;-1.1028;0.2115;
77794288261567;-11.9127;-1.2730;3.2417;
77794298367088;-10.3774;0.4062;0.8127;
77794308472661;-10.7175;-0.3147;-1.5060;
77794318651255;-7.9651;-0.9616;-1.9062;
77794328756775;-9.2249;0.3153;-4.6992;
77794338862348;-10.9834;-0.2955;-5.3127;
77794348916567;-9.5076;-0.6191;-4.2156;
77794359022088;-8.6022;-1.1148;-4.4572;
77794369127661;-10.2718;-0.4705;-3.9808;
77794379271671;-9.6658;-1.4432;-1.4486;
77794389377192;-8.3507;-2.4227;-2.1003;
77794399482765;-9.2513;-1.6513;-2.7709;
77794409547296;-9.4358;-0.8970;-2.0043;
77794419652817;-8.8681;-0.9808;-2.3566;
77794429758390;-12.0518;0.0063;-3.1759;
77794439886046;-10.0585;-0.1017;-2.7613;
77794449991567;-6.6954;-0.1759;-3.0894;
77794460097140;-8.5854;-0.0682;-4.1076;
77794470185890;-12.4397;0.6912;-3.5997;
77794480291411;-12.3559;1.7955;2.7748;
77794490396984;-3.8064;1.4052;6.6817;
77794500487557;-3.9191;-0.3170;0.2402;
77794510593078;-12.9595;0.5596;-8.8938;
77794520698650;-15.6832;0.7271;-8.5513;
77794530811984;-7.5314;1.4602;-4.0478;
77794540917505;-4.7142;-0.9568;-5.3318;
77794551023078;-9.9197;-0.4561;-6.8480;
77794561113130;-10.4803;1.2063;-3.0751;
77794571218650;-7.2081;0.7008;-1.8846;
77794581324223;-8.2190;0.7753;-3.8249;
77794591461880;-12.1116;0.8662;-2.8693;
77794601567453;-10.1402;1.3621;-1.3265;
77794611672973;-6.8776;1.2808;-1.9397;
77794621751463;-9.5390;0.0422;-2.8594;
77794631856984;-11.6877;0.4564;-4.6681;
77794641962557;-9.9532;-0.0344;-4.1818;
77794652082400;-9.3233;-0.8297;-3.0703;
77794662187921;-8.7532;-0.1663;-2.8717;
77794672293494;-7.5099;-0.3338;-2.5337;
77794682397088;-8.4416;-0.2166;-2.8546;
77794692502609;-8.1637;-0.3963;-5.5786;
77794702608182;-10.2861;0.1116;-5.3198;
77794712710213;-10.2263;-0.2333;-3.0248;
77794722815734;-8.4200;-0.0559;-2.9052;
77794732921307;-7.8811;-1.2443;-1.7192;
77794743031046;-9.8192;-0.6144;-2.9818;
77794753136567;-9.8121;-1.0190;-2.3518;
77794763242140;-8.4993;-2.1353;-3.5016;
77794773342400;-10.6720;-2.5977;-4.3496;
77794783447921;-10.3678;-1.8239;-3.4681;
77794793553494;-7.5338;-1.3591;-1.6857;
77794803682713;-9.5940;-1.1677;-3.9350;
77794813788234;-11.0073;0.1451;-3.1783;
77794823893807;-10.4922;0.7968;-1.2691;
77794833978546;-8.1350;0.4950;-2.1553;
77794844084067;-9.1914;-0.2788;-2.6441;
77794854189640;-11.7787;0.4878;-3.7651;
77794864299067;-9.7663;2.0016;-3.5160;
77794874404588;-7.6609;1.0795;-4.5126;
77794884510161;-9.1388;1.7788;-4.9675;
77794894616775;-9.4143;2.2436;-5.1018;
77794904722296;-9.1149;1.0340;-4.8550;
77794914827869;-10.5209;0.1211;-3.3099;
77794924946255;-9.7639;1.0507;-3.7914;
77794935051775;-9.7878;1.1345;-2.4045;
77794945157348;-10.7151;0.8016;-1.7599;
77794955309536;-9.5486;0.5142;-1.2930;
77794965415109;-8.8633;0.6410;-3.7531;
77794975520682;-9.0072;0.1905;-2.4428;
77794985562088;-9.1962;0.3248;-5.1903;
77794995667609;-8.2454;0.5596;-5.1305;
77795005773182;-6.9422;1.0244;-6.4265;
77795015879484;-4.7982;0.5692;-6.2803;
77795025985005;-7.7949;0.9619;-7.4638;
77795036090578;-10.1186;1.1536;-5.9545;
77795046193546;-6.9039;0.3296;-3.9278;
77795056299067;-7.0451;-1.1339;-3.5638;
77795066404640;-12.4277;-0.3604;-3.7316;
77795076530890;-12.4831;0.6769;-1.5084;
77795086636411;-9.7519;-1.2658;0.2234;
77795096741984;-9.3736;-0.8922;-1.6283;
77795106822505;-10.9427;0.4205;-2.0955;
77795116928025;-9.7352;-0.1017;-3.1950;
77795127033598;-8.5807;0.2698;-3.4370;
77795137161150;-6.6954;1.1201;-7.1572;
77795147266671;-10.3173;1.1273;-7.0445;
77795157372244;-11.2636;0.6960;-5.9952;
77795167454380;-8.2789;-0.2692;-4.5317;
77795177559900;-7.9747;-1.0119;-3.3553;
77795187665473;-11.4024;-1.8048;-1.7910;
77795197771046;-18.1364;-2.4634;-0.0855;
77795207876567;-17.7506;-3.0673;1.5482;
77795217982140;-1.3654;-2.1999;4.2120;
77795228105525;2.4003;-1.5508;-0.2246;
77795238211046;-14.1957;1.5993;-5.0010;
77795248316619;-15.5898;2.3707;-5.8612;
77795258399380;-7.1937;0.2315;-3.6332;
77795268504900;-4.8987;-0.7819;-3.8608;
77795278610473;-11.0384;-0.5399;-6.3281;
77795288744328;-9.2584;0.1977;-5.2286;
77795298849848;-6.2689;-0.6048;-3.8967;
77795308955421;-8.8490;-0.9162;-4.9771;
77795319098755;-11.6204;0.0900;-4.9795;
77795329204275;-11.1870;0.3105;-3.0799;
77795339309848;-7.6534;0.6649;-1.5060;
77795349361775;-9.2273;-0.0682;-0.1573;
77795359467296;-10.4827;1.1800;-1.6331;
77795369572869;-9.0000;0.8997;-2.3495;
77795379701567;-10.3077;0.5907;-2.5026;
77795389807088;-12.3607;-0.5303;-3.1352;
77795399912661;-8.3459;-0.4011;-4.3854;
77795409986880;-7.9265;-1.0980;-6.5557;
77795420092400;-6.6930;-0.2118;-9.3634;
77795430197973;-12.8710;0.1714;-9.3180;
77795440337817;-16.5218;1.4195;-1.9756;
77795450443338;-2.6088;1.0555;6.4612;
77795460548911;2.0004;-1.2323;1.1961;
77795470629588;-16.0068;-1.6609;-7.7895;
77795480735109;-19.1207;2.0566;-6.2180;
77795490840682;-5.3324;1.1704;-2.9315;
77795500951880;-2.7045;-2.1233;-3.2668;
77795511057400;-11.4577;0.3870;-5.2238;
77795521162973;-11.7619;1.3956;-4.6753;
77795531264588;-6.6500;-0.3772;-3.4513;
77795541370109;-6.7600;-0.4657;-3.4322;
77795551475682;-10.4707;0.7705;-4.5676;
77795561584796;-9.7161;-0.1759;-3.0942;
77795571690317;-7.8284;-0.5734;-2.2726;
77795581795890;-9.2608;-0.1208;-4.3328;
77795591913546;-9.2297;-0.3724;-4.2586;
77795602019067;-7.5529;-0.2070;-3.3314;
77795612124640;-6.6763;-0.0754;-4.9412;
77795622217400;-9.2803;0.2841;-6.4672;
77795632322921;-11.1990;0.1522;-3.4633;
77795642428494;-7.9484;-0.3772;-1.4964;
77795652525890;-7.3086;-1.0095;-1.5948;
77795662631411;-8.3698;-0.4322;-3.3984;
77795672736984;-10.7031;0.2001;-3.7077;
77795682850421;-10.1521;-0.6096;-3.2979;
77795692955942;-10.6911;-0.6048;-3.5375;
77795703061515;-9.4789;-0.9688;-2.1123;
77795713171880;-8.0608;-0.4131;-1.6475;
77795723277400;-9.4502;-1.1940;-3.1181;
77795733382973;-10.4970;0.0326;-2.5528;
77795743486359;-9.2417;-0.4561;-2.4858;
77795753591880;-9.3736;-1.0956;-2.6393;
77795763697453;-8.4754;-0.5997;-3.0368;
77795773803442;-9.1053;-0.8680;-4.1698;
77795783909015;-10.9594;-0.3508;-3.5327;
77795794014588;-6.2545;-0.4777;-2.4523;
77795804132505;-7.4979;-0.9544;-4.1267;
77795814238078;-10.3367;-0.3963;-2.9100;
77795824343650;-9.6371;0.7801;-1.2643;
77795834442557;-8.6620;-0.6144;-2.3327;
77795844548130;-7.3684;0.0182;-3.0751;
77795854653703;-9.4334;0.0135;-4.0597;
77795864753650;-11.2708;0.4086;-5.0827;
77795874859223;-6.6236;1.7429;-2.8594;
77795884964796;-6.9398;0.1187;-5.2095;
77795895073390;-10.8757;0.4660;-4.6011;
77795905178963;-9.7567;0.4854;-5.7006;
77795915284536;-8.2167;0.2554;-3.3386;
77795925373546;-7.4668;0.3703;-4.0430;
77795935479119;-10.3558;0.5213;-3.5279;
77795945584692;-8.2813;0.4612;-4.1818;
77795955675994;-8.5974;-0.1400;-3.7125;
77795965781567;-10.1043;0.4038;-2.2056;
77795975887140;-9.3640;0.4807;-2.8164;
77795986019067;-10.7533;0.0230;-3.9832;
77795996124640;-13.3143;0.3153;-1.6451;
77796006230213;-8.7628;0.1092;-0.0449;
77796016338546;-7.7566;-0.5160;-2.1649;
77796026444119;-9.0981;-0.1711;-4.1746;
77796036549692;-8.7580;0.8040;-3.7675;
77796046655005;-9.0598;1.4124;-4.6992;
77796056760578;-9.5462;2.0662;-5.8158;
77796066866150;-10.5999;0.6912;-4.8838;
77796076976671;-5.2149;0.8112;-2.1386;
77796087082244;-7.9627;-0.3772;-2.5050;
77796097187817;-9.3353;-0.2931;-4.6274;
77796107298859;-7.5793;0.8112;-4.2706;
77796117404432;-11.2349;0.1307;-3.6212;
77796127510005;-13.9274;-0.9162;-1.2858;
77796137601307;-9.7161;-1.0717;-0.0808;
77796147706880;-12.8662;-1.7761;-0.4161;
77796157812453;-12.1020;-1.7880;1.4931;
77796167908442;-8.7003;-1.4791;0.7911;
77796178014015;-3.9598;-0.6455;-4.3137;
77796188119588;-6.9159;-0.6957;-9.3802;
77796198231671;-13.7429;0.9428;-9.7968;
77796208337244;-8.5328;1.1393;-5.3629;
77796218442817;-5.9504;-0.2429;-5.5451;
77796228544275;-9.6156;-0.7699;-3.3171;
77796238649848;-9.9150;-0.6431;-1.3600;
77796248755421;-8.1805;-1.4192;-2.1482;
77796258863442;-9.8958;-1.3950;-1.4270;
77796268969015;-11.4171;-1.6490;-1.9086;
77796279074588;-11.1293;-1.2993;-1.7910;
77796289214692;-7.7830;-0.2740;-1.6905;
77796299320265;-8.6094;-0.6191;-3.4753;
77796309425838;-10.0370;-0.3987;-3.9254;
77796319507400;-7.6487;-1.0597;-7.2936;
77796329612973;-11.6300;-0.1376;-8.5657;
77796339718546;-11.6276;0.2483;-6.9009;
77796349805057;-4.1249;-0.7364;-4.9699;
77796359910630;-5.5409;-0.2668;-4.8670;
77796370016203;-11.7141;0.2841;-3.2859;
77796380131150;-11.4482;1.1058;-0.2509;
77796390236723;-6.9135;-0.0559;1.9361;
77796400342296;-7.4596;-0.5949;-0.8402;
77796410450838;-11.3426;-0.0488;-3.9760;
77796420556411;-11.2110;0.0589;-4.3639;
77796430661984;-7.0905;0.2985;-3.8608;
77796440762921;-6.5635;0.0900;-4.2443;
77796450868494;-5.4592;0.5333;-5.6791;
77796460974067;-9.6586;0.0350;-8.3812;
77796471107296;-12.8231;0.3368;-5.8851;
77796481212869;-7.8093;0.3846;-2.7111;
77796491318442;-5.8403;-0.7723;-1.9158;
77796501408130;-11.0360;1.2302;-1.5637;
77796511513703;-9.6275;-0.0655;-0.1645;
77796521619275;-9.4717;0.7152;-3.0416;
77796531717817;-10.6624;1.0268;-2.2080;
77796541823390;-8.7867;0.5668;0.4941;
77796551928963;-10.2526;0.3631;-1.4294;
77796562042921;-8.4081;-0.3027;-2.3037;
77796572148494;-8.8920;-0.2764;-4.2849;
77796582254067;-9.4693;0.6577;-4.0119;
77796592361567;-10.0442;-0.1902;-3.8536;
77796602467140;-11.7069;-0.2166;-4.2036;
77796612572713;-11.4506;-0.5949;-0.0712;
77796622680005;-4.2162;-0.0320;0.1780;
77796632785578;-8.6237;-1.0478;-3.0727;
77796642891150;-12.8040;-0.3628;-2.7182;
77796652992713;-9.4214;0.6984;-2.7087;
77796663098286;-6.4941;0.5309;-3.6476;
77796673203859;-7.5984;0.9882;-3.7484;
77796683302713;-9.0455;0.5189;-5.2502;
77796693408286;-10.3917;-0.3915;-7.3487;
77796703513859;-10.7294;-0.1089;-4.3232;
77796713622400;-8.2095;1.8772;-0.8880;
77796723727973;-5.9599;-1.4240;-0.7445;
77796733833546;-9.8599;-1.0717;-5.9258;
77796743940734;-14.2914;-0.0945;-3.3864;
77796754046307;-9.1866;0.9117;-1.6116;
77796764151880;-5.0450;-0.6072;-1.4486;
77796774251046;-6.0413;-0.6574;-4.5556;
77796784356619;-11.6997;-0.4585;-8.0435;
77796794462140;-14.2603;0.7394;-5.9569;
77796804579484;-9.3473;1.2182;-1.7264;
77796814685057;-2.7978;-0.8898;-2.4308;
77796824790578;-11.9584;-1.0190;-5.6049;
77796834888755;-16.6869;0.4974;-0.7923;
77796844994328;-5.3803;1.0723;1.4357;
77796855099848;-3.7490;-0.1089;-0.9550;
77796865207296;-11.1535;0.0350;-4.9412;
77796875312869;-15.1732;1.5897;-3.7819;
77796885418390;-11.1894;0.3894;-1.8990;
77796895527817;-4.9777;-0.9281;-2.5720;
77796905633390;-6.4941;-1.0071;-6.6996;
77796915738911;-11.6635;0.5788;-4.0813;
77796925850630;-5.1574;1.8365;-4.1076;
77796935956203;-8.5974;0.1187;-4.4477;
77796946061723;-12.5357;-0.4490;-2.4188;
77796956156671;-9.2536;0.0900;-1.1444;
77796966262244;-8.8394;-0.7125;-0.4714;
77796976367765;-10.2622;-0.6670;-0.9144;
77796986473130;-12.7466;-0.1543;-2.9650;
77796996578703;-10.9905;0.5788;-2.2008;
77797006684223;-6.2809;-0.8297;-3.1759;
77797016792817;-9.1914;-0.3796;-3.7962;
77797026898390;-9.3497;0.8064;-1.6403;
77797037003911;-5.6294;1.0699;-3.6188;
77797047101463;-6.4271;-0.1089;-7.8350;
77797057207036;-12.6936;-0.2094;-8.8890;
77797067312557;-13.6759;-1.0430;-5.2911;
77797077445317;-8.3770;-1.2921;-0.6939;
77797087550890;-5.7849;-0.8850;2.2044;
77797097656411;-11.1607;-1.5508;1.3923;
77797107713286;-11.8361;-0.9616;1.3158;
77797117818859;-7.8404;-0.0778;-3.2572;
77797127924380;-10.0561;-1.2826;-7.2314;
77797138057505;-9.2707;-0.4585;-6.8408;
77797148163078;-10.4133;1.1417;-5.5041;
77797158268598;-7.7160;0.4301;-4.4477;
77797168365005;-5.0450;0.1666;-5.1329;
77797178470525;-9.5219;0.2937;-4.4572;
77797188576098;-9.2994;0.4878;-1.4462;
77797198686880;-6.6667;-0.2405;-2.6465;
77797208792453;-8.5783;-0.5853;-3.6117;
77797218898025;-11.6901;-0.1950;-2.0306;
77797229034275;-7.4740;0.2243;-1.9708;
77797239139848;-6.8608;-0.8106;-3.4513;
77797249245369;-12.4469;-0.3338;-5.3988;
77797259315317;-11.5678;-0.0535;-4.0406;
77797269420890;-6.7720;-0.0296;-2.9363;
77797279526411;-6.5037;-0.1998;-5.2167;
77797289650942;-11.5534;1.2709;-4.7665;
77797299756515;-10.3077;0.9978;-1.9732;
77797309862036;-6.4080;0.1570;-1.1731;
77797319951463;-9.9939;0.5501;-1.1874;
77797330057036;-12.7849;-0.2524;-1.4581;
77797340162557;-7.0977;0.6458;-1.6810;
77797350299119;-8.3602;-0.2405;-2.4595;
77797360404692;-12.0589;-0.0105;-2.3327;
77797370510213;-7.5338;0.2459;-3.1998;
77797380603234;-8.8107;-0.1232;-4.5748;
77797390708807;-11.4745;0.8471;-3.8536;
77797400814328;-8.4826;1.0149;-2.2941;
77797410904588;-7.4309;0.4807;-3.3936;
77797421010161;-10.8108;-0.4561;-5.2262;
77797431115734;-9.5797;0.6027;-3.0990;
77797441218025;-9.3066;0.9715;-1.7145;
77797451323598;-6.3864;0.2650;-2.8283;
77797461429119;-11.0336;-0.2261;-4.0358;
77797471542088;-11.6300;-0.1902;-1.7336;
77797481647661;-8.0058;-0.2692;-2.0521;
77797491753182;-5.7491;-0.0897;-4.4381;
77797501863442;-9.0670;-1.0214;-5.3605;
77797511969015;-11.7093;-0.0057;-5.3868;
77797522074536;-9.2827;1.1465;-2.1362;
77797532173963;-7.3899;-0.6574;-2.8187;
77797542279536;-8.1135;-0.8082;-2.6154;
77797552385109;-7.1411;-0.1041;-2.7852;
77797562498859;-10.7557;-0.6742;-6.6781;
77797572604380;-11.9513;-0.8058;-5.7987;
77797582709953;-8.8585;-0.2883;-2.3351;
77797592808130;-6.1732;-0.9855;-1.7192;
77797602913703;-7.6609;-0.7484;-3.3290;
77797613019275;-11.8552;-0.3170;-4.1100;
77797623115317;-7.8571;-0.0368;-1.1898;
77797633220890;-10.7342;-0.4059;-2.3133;
77797643326463;-10.7103;-1.4838;-3.0894;
77797653437088;-9.5533;-0.7364;-1.6140;
77797663542661;-10.2024;-1.3687;-1.5251;
77797673648234;-8.3291;-0.6359;-2.7254;
77797683753755;-9.1484;0.3248;-2.0692;
77797693859328;-10.0226;-0.4346;-4.5054;
77797703964848;-10.0708;0.6003;-3.8584;
77797714071046;-7.5697;0.5189;-2.0955;
77797724176619;-6.9589;-0.6766;-4.7327;
77797734282140;-6.3072;0.2937;-4.8000;
77797744389640;-6.1349;0.1475;-3.8776;
77797754495213;-6.8824;0.7442;-5.7437;
77797764600734;-8.5567;0.3918;-4.8048;
77797774680473;-9.5605;0.6027;-4.1363;
77797784786046;-9.2154;-0.2189;-1.8870;
77797794891619;-10.2526;-0.7340;-3.4178;
77797805025213;-11.7021;-2.0898;-2.1529;
77797815130786;-9.0885;0.3392;-0.5982;
77797825236307;-10.6385;-1.4527;-1.7961;
77797835356150;-9.0550;0.3176;-1.1994;
77797845461723;-7.7255;0.4014;-3.6332;
77797855567244;-9.4454;-0.1328;-4.6944;
77797865661984;-8.9279;1.0077;-2.6249;
77797875767557;-7.4692;0.3224;-3.5231;
77797885873130;-8.3124;-0.4944;-2.4835;
77797895983650;-6.9829;0.0494;-0.4256;
77797906089223;-5.4162;0.0182;-1.0606;
77797916194744;-7.6558;-0.6957;-2.7135;
77797926303442;-9.8767;-1.9268;-6.4744;
77797936409015;-14.9719;-0.5877;-3.6766;
77797946514536;-9.6419;-0.9712;-1.3457;
77797956602817;-3.6147;-1.8503;-2.2917;
77797966708390;-7.6872;-0.9999;-4.5317;
77797976813963;-12.5859;0.0206;-3.6212;
77797986926255;-8.2047;0.5596;-2.6608;
77797997031828;-6.8557;-0.4274;-2.8956;
77798007137348;-9.4358;-0.3147;-1.3146;
77798017248650;-9.0503;-0.0224;-1.7838;
77798027354223;-8.8179;-0.3365;-0.8402;
77798037459744;-8.5424;-1.2108;-1.9158;
77798047556567;-8.9566;-0.1137;-1.4007;
77798057662140;-9.0861;-1.0454;-1.5012;
77798067767661;-7.9890;-1.2299;-3.9855;
77798077891984;-7.9603;-2.2098;-4.2060;
77798087997557;-8.5878;0.5070;-5.3246;
77798098103130;-8.9758;-0.3700;-9.8378;
77798108174796;-12.4517;0.4062;-4.2395;
77798118280369;-8.2525;0.8136;0.4199;
77798128385890;-3.2889;-0.2189;-1.1994;
77798138551567;-9.5462;-1.2467;-3.0416;
77798148657140;-11.4817;1.0675;-1.1276;
77798158762661;-7.8978;1.4435;-3.6069;
77798168808025;-6.8608;0.6099;-3.5423;
77798178913598;-7.7495;0.8997;-4.4692;
77798189019171;-11.6420;-0.2453;-5.8035;
77798199146567;-8.8729;0.2985;-2.5528;
77798209252140;-7.7614;0.1235;-3.3864;
77798219357661;-11.7069;0.3296;-2.3542;
77798229452973;-8.9471;0.6266;-0.4496;
77798239558546;-5.4090;0.1164;-2.8789;
77798249664067;-7.5649;0.0446;-3.6523;
77798259778546;-9.5076;0.2291;-4.5245;
77798269884119;-9.9676;0.1044;-5.1473;
77798279989692;-6.2713;0.4831;-4.7160;
77798290109796;-8.4081;0.1283;-3.3051;
77798300215369;-10.6648;0.4540;-3.7029;
77798310320890;-10.6887;0.1570;-1.3289;
77798320434692;-7.6582;-0.6048;-1.0845;
77798330540265;-9.3018;-1.4022;-1.2401;
77798340645786;-9.4167;-1.3567;-3.2620;
77798350736307;-7.3158;-0.6861;-3.5614;
77798360841880;-10.1402;0.4253;-5.2887;
77798370947400;-13.0914;0.2291;-3.7962;
77798381053442;-7.5051;0.5046;-1.1946;
77798391159015;-7.8093;-0.1280;-0.6030;
77798401264536;-6.3912;-0.8850;-1.5709;
77798411361984;-14.9934;-1.1100;-2.1817;
77798421467557;-40.9008;-1.5772;3.7496;
77798431573078;-42.5154;-2.8253;16.8817;
77798441680630;17.4751;-2.4419;14.4503;
77798451786203;4.1228;-5.8747;-10.3911;
77798461891723;-22.8051;-4.5021;-15.1340;
77798472004900;-8.9853;2.6940;5.6850;
77798482110473;-4.6591;8.2851;-1.6522;
77798492216046;-7.1097;2.5837;-13.2631;
77798502311150;-7.7782;-0.1041;-11.3348;
77798512416723;-10.3268;3.0365;-9.3538;
77798522522244;-8.6740;1.6854;-6.5055;
77798532629171;-10.2072;-2.4443;-4.9173;
77798542734744;-6.3000;-3.0482;-0.2127;
77798552840265;-1.4180;-3.8985;-10.7862;
77798562943390;-14.7203;-4.1764;-29.2484;
77798573048963;-37.3938;0.3296;-12.5590;
77798583154484;-6.2186;3.7074;8.3704;
77798593273546;12.5357;0.0111;7.1082;
77798603379119;-15.5516;0.3870;5.4168;
77798613484640;-22.0433;4.5864;3.8910;
77798623581880;-3.8638;2.7658;0.3817;
77798633687453;-1.3487;-0.6837;-5.2669;
77798643792973;-13.9896;1.5778;-10.1300;
77798653892088;-13.8051;2.3034;-9.1334;
77798663997661;-6.1660;-0.5183;-8.5346;
77798674103234;-4.8987;-0.4011;-4.3496;
77798684210005;-8.3100;-0.6048;-2.4404;
77798694315578;-9.4406;0.3679;-2.6393;
77798704421098;-9.3233;0.6817;-0.8186;
77798714529900;-10.9116;0.7466;-0.3802;
77798724635473;-11.6300;0.5907;0.3625;
77798734741046;-10.4587;0.1929;-1.0893;
77798744845890;-13.8844;-0.3338;-1.8464;
77798754951463;-11.4888;0.7872;0.8055;
77798765056984;-3.7992;0.5405;1.7877;
77798775163650;-6.3769;-0.2524;-4.1937;
77798785269275;-10.4061;0.2841;-4.8766;
77798795374900;-9.3544;0.7753;-4.1435;
77798805483755;-8.3865;-0.1424;-4.6633;
77798815589380;-6.7361;-0.2046;-3.7675;
77798825695005;-8.8226;-0.4083;-4.4524;
77798835808650;-8.5017;-0.6024;-2.7996;
77798845914275;-7.2081;-1.4384;-2.8908;
77798856019900;-8.8466;-1.5987;-4.9340;
77798866108755;-13.7740;-1.1195;-2.7111;
77798876214380;-8.2238;-2.1640;-2.2223;
77798886320005;-9.7376;-0.9162;-2.4500;
77798896432400;-23.6315;-0.7771;0.9230;
77798906538025;-13.9633;-0.4490;5.9680;
77798916643650;-4.0196;-0.8297;4.8275;
77798926755005;-10.3316;-1.2610;-2.7111;
77798936860630;-10.5281;-0.4107;-2.5361;
77798946966255;-7.0140;0.9906;-3.4155;
77798957061255;-7.3540;0.7585;-6.5677;
77798967166880;-12.3057;-0.3338;-7.6552;
77798977272505;-8.8298;0.4878;-3.5088;
77798987380109;-1.0205;0.0135;-2.5313;
77798997485734;-3.1956;-1.2419;-6.5486;
77799007591359;-11.2804;-1.5724;-6.2276;
77799017687973;-8.0776;0.3488;-3.4777;
77799027793598;-5.9647;-0.8827;-11.2080;
77799037899223;-17.3794;-1.3878;-11.0258;
77799048002817;-16.0666;1.1967;-2.7446;
77799058108442;-0.6754;0.4397;0.8797;
77799068214067;-3.1310;0.1690;2.3100;
77799078337088;-11.3210;0.9954;1.1818;
77799088442713;-11.1488;2.4042;-1.6211;
77799098548338;-9.4143;1.8341;-3.0535;
77799108672713;-11.6611;-0.2883;-5.3868;
77799118778338;-8.4440;-0.6885;-1.9134;
77799128883963;-4.3454;0.0302;-0.2557;
77799138936671;-3.7418;-0.8201;-2.0186;
77799149042296;-7.4596;-0.4274;-5.7580;
77799159147921;-9.7472;-0.0945;-7.2745;
77799169270630;-11.4290;0.5931;-7.6962;
77799179376255;-12.3344;-0.9473;-4.6729;
77799189481880;-11.5917;-0.7268;0.5898;
77799199593755;-7.7231;-0.6311;2.9590;
77799209699380;-11.4793;-0.2859;3.2177;
77799219805005;-16.3445;-0.9999;2.5400;
77799229930317;-5.7371;0.2913;0.1229;
77799240035942;-2.4338;-0.7507;-7.2434;
77799250141567;-11.1245;-0.0945;-6.5940;
77799260244900;3.9885;1.1273;-4.4285;
77799270350525;-16.7854;3.0293;-8.2038;
77799280456150;-29.0429;2.0785;-1.9780;
77799290543546;3.4256;1.1895;2.5328;
77799300649171;16.4716;-1.3926;-7.8661;
77799310754796;-19.8443;-4.1955;-11.8140;
77799320881775;-30.1209;0.2674;-2.4595;
77799330987400;0.8025;2.0856;-2.0067;
77799341093025;4.8150;-3.7953;-7.7584;
77799351192557;-19.7653;-3.8937;-8.1320;
77799361298182;-37.7243;0.8016;6.0350;
77799371403807;-5.9480;2.8953;13.3771;
77799381498755;6.1397;-0.6646;4.1976;
77799391604380;-2.1846;-2.7413;-3.6742;
77799401709953;-10.4563;0.8782;-9.0305;
77799411810213;-11.1054;0.1953;-11.9842;
77799421915838;-11.8265;1.8796;-8.7356;
77799432021463;-14.4305;0.2841;0.8605;
77799442131567;-19.5162;-0.9616;1.8141;
77799452237192;-32.8256;-0.4872;2.2334;
77799462342817;-11.8600;0.3464;14.2684;
77799472456150;10.6170;-2.1257;9.1633;
77799482561775;-0.3520;-3.9990;-13.9962;
77799492667400;-12.6362;-2.5427;-16.8254;
77799502759484;-11.4099;-1.0119;-8.3166;
77799512865109;-8.2573;2.1861;-8.9489;
77799522970734;-0.4214;-2.2023;-6.4935;
77799533092400;-0.5198;-1.7617;-1.0989;
77799543198025;-6.1014;-0.8441;0.5300;
77799553303650;-7.1650;-1.8335;-2.0139;
77799563400005;-8.5161;-1.7689;-16.1545;
77799573505630;-22.5536;-4.0540;-22.0977;
77799583611255;-30.0874;-1.4408;-9.0039;
77799593725734;-4.8389;-0.5614;6.8351;
77799603831359;5.8953;-0.6885;13.0633;
77799613936984;-8.5878;-1.5987;9.4965;
77799624041880;-13.6304;1.1704;5.9055;
77799634147505;-7.5960;1.5873;3.8647;
77799644253130;-6.4989;1.1800;-2.4787;
77799654355421;-10.6241;0.3176;-5.8540;
77799664461046;-10.0370;0.5812;-6.1726;
77799674566671;-1.9116;-1.1052;-9.5237;
77799684673807;1.1498;-1.5461;-13.9938;
77799694779432;-8.0082;-0.8827;-12.0918;
77799704885057;-6.4750;0.0541;-7.9717;
77799714989640;1.2936;0.9308;-2.9411;
77799725095265;-0.5509;0.1187;-1.9014;
77799735200890;-10.6720;0.8303;-1.7791;
77799745299484;-32.9716;1.2374;4.0418;
77799755405109;-51.6326;0.6290;21.6344;
77799765510734;-25.3660;-1.3687;27.3093;
77799775622817;11.5558;3.2856;15.5210;
77799785728442;2.9154;-4.6579;-23.8681;
77799795834067;-17.6525;-7.9397;-15.9030;
77799805936671;-15.7170;-0.9185;13.3627;
77799816042296;0.5677;3.8246;17.1739;
77799826147921;1.2003;7.3938;-9.5719;
77799836257140;-15.8270;4.9385;-13.2607;
77799846362765;-7.0475;2.7108;3.1938;
77799856468390;3.0159;3.8246;-12.8800;
77799866575317;-6.7744;-0.5949;-27.2339;
77799876680942;-7.0307;-3.9248;-24.5462;
77799886786567;-20.9940;-3.0194;-30.7720;
77799896886359;-27.5507;-4.2123;-11.6318;
77799906991984;4.6762;-1.9941;12.6392;
77799917097609;7.3110;-1.0956;15.7176;
77799927208442;-22.1919;-1.3256;6.3057;
77799937314067;-27.8931;0.4516;10.7731;
77799947419692;-9.2393;3.3191;10.6271;
77799957518807;9.3449;2.6509;0.4774;
77799967624432;-6.2761;-2.9354;-20.2316;
77799977730057;-25.1695;-4.0756;-10.2832;
77799987849692;-7.6199;6.4597;-0.8593;
77799997955317;2.8196;2.3515;-11.4571;
77800008060942;-4.6854;-5.7622;-13.2177;
77800018144484;-17.2283;-0.5040;-10.1803;
77800028250109;-15.6616;2.5430;-0.3156;
77800038355734;3.6461;-0.1567;6.8758;
77800048489275;-0.2420;-0.5207;-3.6260;
77800058594900;-19.0537;-2.2122;-8.3118;
77800068700525;-13.0795;0.1499;0.5492;
77800078792713;-3.0517;1.3310;-3.5782;
77800088898338;-8.4344;-1.0573;-4.5867;
77800099003963;-22.2972;-1.9869;0.2186;
77800109117296;-5.1526;0.3823;1.6056;
77800119222921;-1.0421;-0.2166;-3.7316;
77800129328546;-12.9404;0.3153;-5.0803;
77800139408859;-10.7581;4.2392;-0.8617;
77800149514484;-6.8127;2.5262;-7.6002;
77800159620109;-12.6171;1.9250;-4.5174;
77800169725317;-9.3760;2.5549;-0.7202;
77800179830942;-4.8532;1.7596;-1.8464;
77800189936567;-9.6969;0.6625;-0.9526;
77800200051671;-12.8327;0.9954;0.9661;
77800210157296;-3.6652;-1.1509;-1.6570;
77800220262921;-7.1435;-1.1821;-10.3935;
77800230395525;-19.9834;0.9117;-8.1751;
77800240501150;-12.1690;2.6103;2.2645;
77800250606775;1.8565;0.1020;-0.1669;
77800260715734;-7.8476;-1.3017;-2.8475;
77800270821359;-20.0551;1.0125;-0.9335;
77800280926984;-8.4897;2.3563;-0.6197;
77800291017609;-2.8098;-0.7149;-2.7039;
77800301123234;-11.4984;-0.8946;-5.0444;
77800311228859;-16.1025;0.2267;-3.0655;
77800321331046;-8.3961;0.9284;-1.0893;
77800331436671;-1.6887;0.0326;-2.9913;
77800341542296;-9.3042;-0.2453;-3.7029;
77800351648130;-12.6171;1.6256;-4.0334;
77800361753755;-9.0526;0.2243;-3.3099;
77800371859380;-2.7858;-0.3365;-3.9855;
77800381949640;-13.4865;-0.4370;-3.8536;
77800392055265;-19.0131;-0.1496;-3.4274;
77800402160890;-4.0555;-0.9114;0.5061;
77800412276984;-4.3669;-1.9029;-1.1372;
77800422382609;-14.1263;-1.6035;-1.9421;
77800432488234;-10.9355;0.0063;-2.0979;
77800442589640;-7.1073;-0.5614;-4.0573;
77800452695265;-10.5520;0.0135;-2.7087;
77800462800890;-8.9949;1.1991;-1.6475;
77800472913859;-8.9830;-0.3147;-1.3887;
77800483019484;-7.4381;-1.2993;-3.3936;
77800493125109;-12.7008;0.8758;-0.7804;
77800503217609;-4.0436;-0.3266;-2.9770;
77800513323234;-10.2933;-2.1114;-12.4582;
77800523428859;-20.3665;-0.4944;-0.8689;
77800533543807;-4.9131;-0.1807;1.1432;
77800543649432;0.1941;-1.0310;-3.7268;
77800553755057;-13.2494;-0.6072;-1.8799;
77800563855005;-13.5873;1.0819;-2.7135;
77800573960630;-8.0058;-0.8273;-0.5192;
77800584066255;-3.6556;0.4373;-3.3601;
77800594180838;-12.3775;-0.7172;-4.7952;
77800604286463;-13.6998;0.0182;-2.9602;
77800614392088;-6.0583;0.1642;-2.4787;
77800624499796;-6.4869;-0.6502;-3.6667;
77800634605421;-10.0708;0.8495;-2.4715;
77800644711046;-8.0632;-0.1591;-4.3974;
77800654807400;-7.7207;0.8901;-3.6643;
77800664913025;-11.9103;0.4158;-3.6069;
77800675018650;-12.9404;1.2302;-1.5900;
77800685123650;-6.8752;0.2937;0.3287;
77800695229275;-6.9517;-1.3137;-1.9588;
77800705334900;-9.9652;-0.0416;-2.8331;
77800715452921;-10.4587;-0.3338;-2.8307;
77800725558546;-10.5066;0.0924;-3.8489;
77800735664171;-8.8825;-0.7579;-2.0740;
77800745755734;-6.8824;-0.5016;-3.0918;
77800755861359;-10.5497;0.5644;-4.0549;
77800765966984;-10.0657;0.8279;-2.0644;
77800776067505;-6.4487;0.1355;-1.0678;
77800786173130;-5.2606;-1.0167;-3.2501;
77800796278703;-12.3224;-0.7914;-9.1119;
77800806391046;-15.0509;0.1164;-3.6838;
77800816496619;-7.5434;0.2483;-1.4318;
77800826602244;-5.9288;-1.4623;-1.3241;
77800836703338;-10.8251;1.1321;-1.4366;
77800846808963;-10.7773;-0.7196;-2.2917;
77800856914536;-10.6337;-1.8144;-2.2654;
77800867022609;-6.7481;-1.0693;-1.6379;
77800877128234;-7.3756;0.0182;-3.6332;
77800887233807;-14.2364;-0.1854;-3.5638;
77800897342817;-17.7290;0.6362;-1.6953;
77800907448390;-4.1297;-0.5255;-1.4055;
77800917554015;-3.6171;-0.9520;-3.1735;
77800927662713;-15.7146;-0.3915;-3.6933;
77800937768286;-12.4493;-0.3218;-2.1051;
77800947873911;-3.0685;1.3454;-3.7603;
77800957966567;-9.0168;-0.0200;-6.2348;
77800968072140;-15.2402;-0.0511;-3.3817;
77800978177765;-8.1015;1.1536;-2.0545;
77800988290109;-5.8235;0.5979;-1.9875;
77800998395682;-7.3469;-1.0143;-2.8140;
77801008501307;-4.3813;0.7896;-5.4682;
77801018655630;-13.5754;-0.1902;-9.8880;
77801028761255;-19.6047;1.3119;-3.6356;
77801038866828;-3.7825;0.0972;1.6872;
77801048902713;0.2803;-1.4073;-4.0956;
77801059008338;-14.0495;0.7104;-5.4873;
77801069113911;-14.9910;1.7309;0.2474;
77801079300525;-3.4854;3.6784;-1.6570;
77801089406098;-4.4533;0.2459;-4.6466;
77801099511723;-16.3158;0.1475;-4.8359;
77801109565213;-15.1780;1.8365;-2.1936;
77801119670786;-7.7160;0.8734;1.7136;
77801129776411;-5.7586;-0.0730;0.6643;
77801139874692;-4.7743;-1.4022;-4.3639;
77801149980265;-6.8198;0.6194;-5.5953;
77801160085890;-14.1742;1.8820;-5.6121;
77801170194588;-9.8192;0.8806;-4.8455;
77801180300213;-5.4544;0.3488;-2.0617;
77801190405786;-5.4999;-0.3123;-0.6341;
77801200508234;-17.3004;-0.6335;-2.4260;
77801210613859;-17.3052;0.2291;0.5085;
77801220719432;-4.1584;-1.2347;-0.1813;
77801230832088;-7.5171;-3.0721;-2.9937;
77801240937661;-14.6342;-0.3604;-3.4537;
77801251043286;-16.7252;-0.2548;-2.2726;
77801261147400;-8.1948;0.1762;3.6634;
77801271253025;2.1775;-0.2859;3.2922;
77801281358598;-2.5391;-0.9736;-8.5322;
77801291484275;-10.2287;0.6170;-7.7536;
77801301589848;-14.9958;1.7907;-4.1913;
77801311695473;-3.5740;0.2001;-5.7509;
77801321761828;-7.1650;-1.6513;-12.5854;
77801331867400;-26.9614;-2.5164;-7.9140;
77801341973025;-10.0274;-1.1148;4.2215;
77801352078598;1.8398;-1.4216;4.8802;
77801362212400;-4.2329;-4.1429;-2.4165;
77801372317973;-16.8356;-2.1090;-3.9927;
77801382423598;-17.7769;1.0771;1.1360;
77801392524484;-10.3893;0.9930;0.7792;
77801402630057;-10.5138;0.2243;3.0526;
77801412735682;-5.0354;-0.1113;3.1220;
77801422850473;-6.0918;0.1475;-5.9091;
77801432956046;-9.3688;-0.1567;-8.1775;
77801443061671;-8.9949;-1.4838;-8.9991;
77801453153546;-14.8977;0.2315;-9.9598;
77801463259119;-8.9566;1.4315;-4.3472;
77801473364744;-5.9288;-1.3208;-2.4404;
77801483475734;-5.1048;-2.2409;-0.5599;
77801493581307;-9.0096;-0.9736;-0.6628;
77801503686932;-12.2889;0.2865;-3.7507;
77801513787817;-10.7940;-0.4753;-2.7781;
77801523893390;-6.0990;-1.2084;-6.0287;
77801533999015;-15.1947;-0.2237;-6.2348;
77801544106671;-11.6877;0.6936;1.3732;
77801554212296;-0.8264;1.0866;1.1841;
77801564317869;-6.4463;-0.2979;-4.6059;
77801574421984;-14.0423;0.7271;-1.5757;
77801584527557;-9.7256;1.1728;-3.6742;
77801594633182;-11.4242;0.9165;-4.7785;
77801604733025;-8.8681;-0.1208;-1.4629;
77801614838598;-8.4873;0.2746;-3.5495;
77801624944223;-9.5004;-0.0754;-4.0143;
77801635057973;-10.6744;-0.3772;-1.9588;
77801645163546;-9.9963;-0.5590;-3.0200;
77801655269171;-8.4272;0.3105;-0.4208;
77801665376359;-7.8260;0.1642;-1.6020;
77801675481932;-9.7017;0.7944;-2.7374;
77801685587557;-11.4529;0.1499;-3.2094;
77801695691984;0.7475;0.0470;-3.6284;
77801705797557;-2.3309;-0.3075;-8.3788;
77801715903182;-20.6827;1.3430;-5.2382;
77801726018963;-10.6433;0.0230;-3.0655;
77801736124588;-7.0953;0.3631;-2.5720;
77801746230161;-2.6542;-0.3915;-0.1167;
77801756323025;-12.0087;0.1092;-3.0224;
77801766428598;-24.7621;0.9404;-1.1109;
77801776534223;-11.4123;-1.0454;3.0598;
77801786636463;4.6786;-0.8827;-1.4557;
77801796742088;-12.3751;-0.5160;-4.2467;
77801806847713;-16.8380;0.8183;1.6056;
77801816951880;-11.2708;0.6051;5.1293;
77801827057505;-5.1861;1.5610;-0.8928;
77801837163130;-10.0107;-2.2672;-10.0436;
77801847263755;-12.5166;-1.5843;-8.7981;
77801857369380;-10.5281;2.3492;0.5061;
77801867474953;0.5988;0.6362;-0.7636;
77801877588130;0.1606;-0.5949;-11.4281;
77801887693755;-16.5673;-0.9760;-12.7002;
77801897799380;-24.8270;1.6926;-2.3252;
77801907900213;-0.5581;0.6649;3.3497;
77801918005838;-0.3066;-1.9845;-0.6508;
77801928111463;-15.1394;-2.6647;-2.2247;
77801938218338;-15.8318;0.4086;-4.9842;
77801948323963;-8.9877;0.4759;-3.5447;
77801958429588;-7.6558;-0.7005;-2.2367;
77801968546567;-9.5315;0.1068;0.1301;
77801978652192;-8.4416;0.8136;1.2416;
77801988757817;-5.0785;0.9045;-1.0439;
77801998854900;-11.8457;-0.1400;-2.5504;
77802008960525;-12.3440;0.1738;-4.0789;
77802019066150;-8.5567;-0.7675;-5.7150;
77802029220109;-8.6692;-1.7426;-5.6240;
77802039325734;-8.2597;-0.8034;-4.6202;
77802049431359;-8.2143;-0.9975;-3.7771;
77802059499796;-11.4649;-0.5160;-3.0440;
77802069605421;-7.1961;-0.3748;0.4774;
77802079711046;-7.7542;-0.9018;-0.6341;
77802089806723;-10.7486;-0.1448;-3.0176;
77802099912348;-12.4469;-0.2189;-1.2209;
77802110017973;-8.0058;-0.0969;-3.0224;
77802120139275;-7.8212;-0.7771;-4.5389;
77802130244900;-11.1703;-1.3089;-2.7589;
77802140350525;-9.8121;-0.1280;-1.9684;
77802150479067;-9.6778;1.6831;-1.2667;
77802160584692;-9.7448;-0.2859;0.5013;
77802170690317;-3.7059;-0.7125;-3.9377;
77802180754380;-12.6027;-1.1462;-5.3175;
77802190860005;-18.4262;0.0972;-2.0644;
77802200965630;-6.4343;-0.3338;-2.2295;
77802211075005;0.6494;-0.9090;-1.5565;
77802221180630;-11.1631;-0.6981;-7.3630;
77802231286255;-21.6841;-0.2644;0.3482;
77802241391359;-7.2129;0.4735;-0.3897;
77802251496984;11.1296;-0.6694;-3.3984;
77802261602609;0.3568;-1.0573;-9.1932;
77802271705890;-16.7228;0.4086;-8.8890;
77802281811515;-25.5359;2.1981;-6.3739;
77802291917140;-16.0618;-0.0535;2.1422;
77802302023963;10.4587;-1.5269;1.6128;
77802312129588;-31.5942;-0.4872;-4.2467;
77802322235213;-29.4790;-0.3867;11.3961;
77802332347817;10.7581;2.6868;13.9902;
77802342453442;10.1593;-2.4610;-11.7781;
77802352559067;-8.3507;-3.7403;-28.5440;
