Sensor: bmi160 Gyroscope Non-wakeup
Vendor: BOSCH
TimestampGyro [ns]; GyroX [rad/s]; GyroY [rad/s]; GyroZ [rad/s]
3099504591599658;-0.0007;-0.0013;0.0044;
3099504601728720;-0.0039;-0.0056;0.0055;
3099504611812418;0.0004;0.0008;0.0076;
3099504621956949;0.0004;0.0008;0.0087;
3099504632059970;0.0004;0.0008;0.0108;
3099504642106324;-0.0007;0.0019;0.0129;
3099504652245387;-0.0028;0.0040;0.0140;
3099504662368564;-0.0028;0.0040;0.0129;
3099504672466585;-0.0017;0.0029;0.0129;
3099504682582783;-0.0007;0.0019;0.0129;
3099504692681741;-0.0007;0.0008;0.0119;
3099504702782574;-0.0017;-0.0003;0.0097;
3099504712889970;-0.0007;-0.0003;0.0087;
3099504723016793;0.0004;0.0008;0.0044;
3099504733102158;0.0025;0.0008;0.0023;
3099504743210491;0.0025;-0.0013;0.0012;
3099504753321533;0.0036;-0.0024;-0.0020;
3099504763413720;0.0036;-0.0013;-0.0031;
3099504773537939;0.0047;-0.0013;-0.0041;
3099504783631324;0.0036;-0.0013;-0.0041;
3099504793737262;0.0015;-0.0003;-0.0063;
3099504803870699;0.0047;-0.0003;-0.0073;
3099504813953512;0.0057;-0.0003;-0.0073;
3099504824061897;0.0047;-0.0024;-0.0084;
3099504834166429;0.0057;-0.0024;-0.0105;
3099504844275908;0.0079;-0.0013;-0.0105;
3099504854379658;0.0079;-0.0035;-0.0137;
3099504864478408;0.0079;-0.0035;-0.0158;
3099504874593564;0.0079;-0.0045;-0.0169;
3099504884703356;0.0089;-0.0045;-0.0180;
3099504894821949;0.0089;-0.0045;-0.0212;
3099504904992106;0.0121;-0.0056;-0.0244;
3099504915025335;0.0111;-0.0067;-0.0276;
3099504925115491;0.0100;-0.0067;-0.0286;
3099504935254241;0.0132;-0.0088;-0.0318;
3099504945367887;0.0142;-0.0088;-0.0350;
3099504955467470;0.0142;-0.0088;-0.0372;
3099504965606845;0.0153;-0.0099;-0.0393;
3099504975663616;0.0164;-0.0120;-0.0403;
3099504985751741;0.0174;-0.0109;-0.0414;
3099504995890804;0.0174;-0.0109;-0.0425;
3099505005974866;0.0174;-0.0088;-0.0435;
3099505016089866;0.0174;-0.0088;-0.0435;
3099505026199033;0.0153;-0.0077;-0.0425;
3099505036293981;0.0153;-0.0077;-0.0414;
3099505046424449;0.0164;-0.0088;-0.0403;
3099505056521012;0.0164;-0.0099;-0.0372;
3099505066619762;0.0174;-0.0109;-0.0350;
3099505076735491;0.0206;-0.0099;-0.0329;
3099505086841949;0.0228;-0.0077;-0.0329;
3099505096965179;0.0249;-0.0067;-0.0286;
3099505107047783;0.0249;-0.0056;-0.0265;
3099505117162314;0.0270;-0.0077;-0.0244;
3099505127257574;0.0281;-0.0077;-0.0222;
3099505137375387;0.0345;-0.0077;-0.0222;
3099505147504241;0.0441;-0.0077;-0.0212;
3099505157597054;0.0569;-0.0067;-0.0169;
3099505167697991;0.0696;-0.0056;-0.0169;
3099505177810491;0.0771;-0.0077;-0.0169;
3099505187911897;0.0771;-0.0099;-0.0180;
3099505198019345;0.0728;-0.0088;-0.0222;
3099505208129658;0.0632;-0.0077;-0.0265;
3099505218250179;0.0494;-0.0056;-0.0308;
3099505228339241;0.0302;-0.0045;-0.0382;
3099505238446429;0.0121;-0.0067;-0.0457;
3099505248559449;0.0153;-0.0067;-0.0510;
3099505258690908;0.0196;-0.0099;-0.0553;
3099505268779658;0.0206;-0.0109;-0.0585;
3099505278886429;0.0228;-0.0120;-0.0627;
3099505288992366;0.0228;-0.0130;-0.0648;
3099505299094241;0.0228;-0.0130;-0.0691;
3099505309208199;0.0260;-0.0120;-0.0723;
3099505319310804;0.0270;-0.0120;-0.0744;
3099505329410283;0.0281;-0.0141;-0.0766;
3099505339518304;0.0281;-0.0152;-0.0776;
3099505349625074;0.0270;-0.0152;-0.0776;
3099505359736324;0.0270;-0.0130;-0.0744;
3099505369844970;0.0281;-0.0109;-0.0734;
3099505379951845;0.0260;-0.0099;-0.0680;
3099505390051481;0.0238;-0.0120;-0.0606;
3099505400173095;0.0206;-0.0152;-0.0531;
3099505410281949;0.0185;-0.0184;-0.0446;
3099505420379345;0.0206;-0.0205;-0.0403;
3099505430473304;0.0196;-0.0226;-0.0435;
3099505440594137;0.0238;-0.0173;-0.0478;
3099505450704345;0.0270;-0.0120;-0.0499;
3099505460798095;0.0270;-0.0141;-0.0499;
3099505470888251;0.0228;-0.0216;-0.0563;
3099505481017991;0.0228;-0.0269;-0.0659;
3099505491117158;0.0281;-0.0280;-0.0691;
3099505501224345;0.0356;-0.0237;-0.0670;
3099505511329241;0.0356;-0.0162;-0.0617;
3099505521432522;0.0398;-0.0109;-0.0553;
3099505531549554;0.0483;-0.0077;-0.0478;
3099505541651220;0.0515;-0.0099;-0.0393;
3099505551764033;0.0547;-0.0088;-0.0318;
3099505561870022;0.0611;-0.0077;-0.0244;
3099505571964345;0.0579;-0.0067;-0.0180;
3099505582077679;0.0505;-0.0045;-0.0084;
3099505592193981;0.0441;-0.0013;-0.0009;
3099505602288824;0.0313;0.0029;0.0055;
3099505612402731;0.0068;0.0040;0.0119;
3099505622506533;0.0025;0.0061;0.0225;
3099505632629449;0.0068;0.0104;0.0332;
3099505642690908;-0.0007;0.0115;0.0459;
3099505652835231;-0.0071;0.0146;0.0609;
3099505662938929;-0.0124;0.0200;0.0726;
3099505673045595;-0.0145;0.0253;0.0864;
3099505683152262;-0.0177;0.0285;0.1013;
3099505693256012;-0.0198;0.0306;0.1152;
3099505703362679;-0.0241;0.0317;0.1290;
3099505713469345;-0.0336;0.0328;0.1397;
3099505723592574;-0.0421;0.0370;0.1514;
3099505733699241;-0.0559;0.0402;0.1620;
3099505743805908;-0.0794;0.0434;0.1716;
3099505753898199;-0.0889;0.0423;0.1802;
3099505764004866;-0.0794;0.0402;0.1908;
3099505774111533;-0.0517;0.0391;0.2036;
3099505784209241;-0.0463;0.0391;0.2164;
3099505794315908;-0.0538;0.0445;0.2270;
3099505804422574;-0.0581;0.0530;0.2345;
3099505814532679;-0.0644;0.0605;0.2441;
3099505824639345;-0.0740;0.0658;0.2558;
3099505834746012;-0.0858;0.0679;0.2643;
3099505844864449;-0.0921;0.0636;0.2739;
3099505854971116;-0.1039;0.0636;0.2792;
3099505865077783;-0.1092;0.0626;0.2814;
3099505875154137;-0.0868;0.0615;0.2824;
3099505885260804;-0.0676;0.0658;0.2814;
3099505895367470;-0.0687;0.0605;0.2750;
3099505905480595;-0.0762;0.0541;0.2632;
3099505915587262;-0.0772;0.0551;0.2505;
3099505925693929;-0.0708;0.0562;0.2409;
3099505935821533;-0.0698;0.0562;0.2334;
3099505945928199;-0.0655;0.0541;0.2228;
3099505956034866;-0.0634;0.0466;0.2121;
3099505966137262;-0.0666;0.0381;0.2079;
3099505976243929;-0.0666;0.0413;0.2057;
3099505986350595;-0.0623;0.0445;0.2057;
3099505996461949;-0.0634;0.0413;0.2025;
3099506006568616;-0.0644;0.0391;0.1972;
3099506016675283;-0.0613;0.0370;0.1940;
3099506026774970;-0.0644;0.0328;0.1951;
3099506036881637;-0.0666;0.0370;0.1972;
3099506046988304;-0.0634;0.0445;0.1972;
3099506057095699;-0.0687;0.0434;0.1940;
3099506067202366;-0.2775;0.0051;0.1248;
3099506077309033;-0.8249;-0.0322;0.1290;
3099506087402158;-1.0433;-0.0035;0.0768;
3099506097508824;-1.0358;0.0743;0.1024;
3099506107615491;-1.0987;0.1157;0.0885;
3099506117732626;-1.2222;0.1221;0.0598;
3099506127839293;-1.3062;0.1020;0.0459;
3099506137945960;-1.3797;0.0668;0.0545;
3099506148064033;-1.4064;0.0509;0.0885;
3099506158170699;-1.3584;0.0583;0.1290;
3099506168277366;-1.2743;0.0668;0.1631;
3099506178376429;-1.2126;0.0700;0.1983;
3099506188483095;-1.1338;0.0722;0.2302;
3099506198589762;-1.0560;0.0594;0.2664;
3099506208706324;-0.9868;0.0402;0.3091;
3099506218812991;-0.9527;0.0370;0.3495;
3099506228919658;-0.9314;0.0477;0.3847;
3099506239025387;-0.9378;0.0530;0.4081;
3099506249132054;-0.9399;0.0498;0.4272;
3099506259238720;-0.9144;0.0445;0.4453;
3099506269348720;-0.9197;0.0317;0.4634;
3099506279455387;-0.9218;0.0178;0.4783;
3099506289562054;-0.9293;0.0221;0.4868;
3099506299676012;-0.9687;0.0296;0.4868;
3099506309782679;-0.9655;0.0168;0.4783;
3099506319889345;-0.9272;-0.0056;0.4719;
3099506329985074;-0.9027;-0.0226;0.4634;
3099506340091741;-0.8654;-0.0375;0.4463;
3099506350198408;-0.8579;-0.0418;0.4293;
3099506360300595;-0.9005;-0.0280;0.4007;
3099506370407262;-0.9208;-0.0205;0.3676;
3099506380513929;-0.9325;-0.0216;0.3357;
3099506390638199;-0.9410;-0.0141;0.3069;
3099506400744866;-0.9197;-0.0141;0.2846;
3099506410851533;-0.8920;-0.0184;0.2696;
3099506420950179;-0.8292;-0.0099;0.2537;
3099506431056845;-0.8078;0.0029;0.2345;
3099506441163512;-0.8782;0.0136;0.2110;
3099506451276845;-0.9335;0.0264;0.1802;
3099506461383512;-0.9538;0.0434;0.1514;
3099506471490179;-0.9442;0.0615;0.1312;
3099506481562574;-0.8260;0.0700;0.1141;
3099506491669241;-0.6939;0.0796;0.0555;
3099506501775908;-0.5939;0.1020;0.0023;
3099506511898564;-0.5161;0.1264;-0.0467;
3099506522005231;-0.4511;0.1498;-0.0840;
3099506532111897;-0.4032;0.1807;-0.1192;
3099506542217470;-0.3670;0.2116;-0.1511;
3099506552324137;-0.4117;0.2286;-0.1873;
3099506562430804;-0.4277;0.2414;-0.2224;
3099506572538095;-0.3616;0.2457;-0.2543;
3099506582644762;-0.3201;0.2340;-0.2852;
3099506592751429;-0.3158;0.2190;-0.3097;
3099506602858199;-0.2892;0.1945;-0.3363;
3099506612964866;-0.2296;0.1605;-0.3608;
3099506623071533;-0.1411;0.1274;-0.3800;
3099506633185231;-0.0474;0.0967;-0.3971;
3099506643291897;0.0100;0.0647;-0.4130;
3099506653398564;0.0611;0.0423;-0.4312;
3099506663509137;0.1144;0.0253;-0.4525;
3099506673615856;-0.0378;-0.0056;-0.4620;
3099506683722626;-0.1923;-0.0695;0.2515;
3099506693818929;0.0611;-0.0876;1.0184;
3099506703925647;0.2987;-0.0897;0.9875;
3099506714032418;0.2241;-0.0961;0.6892;
3099506724144241;0.1506;-0.0887;0.6562;
3099506734250960;0.1197;-0.0482;0.5624;
3099506744357731;0.1474;-0.0684;0.4676;
3099506754454554;0.1421;-0.1611;0.3474;
3099506764561272;0.1314;-0.2165;0.2324;
3099506774668043;0.0931;-0.1590;0.0609;
3099506784792679;-0.0772;-0.0620;0.0023;
3099506794899397;-0.0751;-0.0152;0.0587;
3099506805006168;0.0111;-0.0067;0.0736;
3099506815093929;0.0387;0.0029;0.0300;
3099506825200647;0.0206;0.0200;-0.0286;
3099506835307418;0.0451;0.0349;-0.0830;
3099506845386220;0.0590;0.0264;-0.1138;
3099506855492939;0.0632;0.0168;-0.1213;
3099506865599710;0.0909;0.0264;-0.1181;
3099506875736637;0.1751;0.0338;-0.1202;
3099506885843356;0.2667;0.0264;-0.1352;
3099506895950126;0.3359;0.0221;-0.1469;
3099506906082574;0.3732;-0.0013;-0.1490;
3099506916189293;0.3849;-0.0290;-0.1373;
3099506926296064;0.3807;-0.0280;-0.1128;
3099506936372887;0.3679;-0.0248;-0.0979;
3099506946479606;0.3668;-0.0280;-0.1032;
3099506956586376;0.3775;-0.0248;-0.1170;
3099506966709033;0.3636;-0.0301;-0.1192;
3099506976815751;0.3104;-0.0344;-0.1032;
3099506986922522;0.2710;-0.0216;-0.0798;
3099506997042470;0.2965;-0.0099;-0.0755;
3099507007149189;0.3775;-0.0045;-0.0893;
3099507017255960;0.4478;-0.0013;-0.0968;
3099507027337574;0.4595;-0.0099;-0.0872;
3099507037444293;0.4339;-0.0237;-0.0627;
3099507047551064;0.4073;-0.0258;-0.0435;
3099507057667991;0.4094;-0.0258;-0.0425;
3099507067774710;0.4435;-0.0248;-0.0467;
3099507077881481;0.4553;-0.0226;-0.0446;
3099507087989762;0.4126;-0.0258;-0.0276;
3099507098096481;0.3370;-0.0290;0.0076;
3099507108203251;0.1943;0.1423;0.0001;
3099507118342366;0.2081;0.2190;-0.0478;
3099507128449085;0.1964;0.0605;-0.2064;
3099507138555856;0.2784;-0.1185;-0.2479;
3099507148635387;0.3509;-0.1590;-0.1309;
3099507158742106;0.2614;-0.0866;-0.0137;
3099507168848876;0.0515;0.0700;0.0513;
3099507178951949;-0.0092;0.1168;0.0822;
3099507189058668;0.0952;-0.0557;0.1088;
3099507199165439;0.1261;-0.0748;0.1482;
3099507209278408;0.0867;0.0253;0.1791;
3099507219385126;-0.0378;0.0455;0.1855;
3099507229491897;-0.0314;0.1083;0.1535;
3099507239591429;-0.0284;0.1052;0.1226;
3099507249698147;-0.0474;0.0104;0.1226;
3099507259804918;-0.0421;-0.0056;0.1482;
3099507269895387;-0.0495;-0.0045;0.1663;
3099507280002106;-0.0634;-0.0269;0.1748;
3099507290108876;-0.1507;-0.0290;0.1940;
3099507300238408;-0.2573;-0.0312;0.2228;
3099507310345126;-0.3095;-0.0173;0.2270;
3099507320451897;-0.3286;-0.0013;0.1961;
3099507330554762;-0.3425;-0.0056;0.1589;
3099507340661481;-0.3276;0.0061;0.1407;
3099507350768251;-0.2871;0.0072;0.1344;
3099507360878095;-0.2359;-0.0067;0.1237;
3099507370984814;-0.1869;0.0061;0.1099;
3099507381091585;-0.1539;0.0083;0.0949;
3099507391212158;-0.1124;-0.0024;0.0811;
3099507401318876;-0.0570;0.0093;0.0790;
3099507411425647;-0.0209;0.0072;0.0800;
3099507421514241;-0.0209;-0.0013;0.0779;
3099507431620960;-0.0113;0.0104;0.0715;
3099507441727731;0.0025;0.0104;0.0577;
3099507451831481;0.0238;-0.0035;0.0459;
3099507461938199;0.0771;-0.0077;0.0449;
3099507472044970;0.0696;-0.0162;0.0481;
3099507482171272;-0.0113;-0.0258;0.0459;
3099507492277991;-0.0336;-0.0152;0.0353;
3099507502384762;-0.0166;-0.0013;0.0310;
3099507512472679;-0.0049;-0.0067;0.0321;
3099507522579397;-0.0156;-0.0088;0.0332;
3099507532686168;-0.0220;-0.0088;0.0332;
3099507542801845;-0.0241;-0.0130;0.0321;
3099507552908564;-0.0209;-0.0067;0.0374;
3099507563015335;-0.0092;0.0093;0.0385;
3099507573114970;-0.0145;0.0115;0.0332;
3099507583221689;-0.0220;0.0040;0.0246;
3099507593328460;-0.0220;0.0019;0.0257;
3099507603451429;-0.0198;-0.0024;0.0236;
3099507613558147;-0.0113;-0.0013;0.0119;
3099507623664918;-0.0060;0.0061;-0.0009;
3099507633758408;-0.0060;0.0083;-0.0095;
3099507643865126;-0.0081;0.0029;-0.0158;
3099507653971897;-0.0081;0.0019;-0.0244;
3099507664071116;-0.0028;-0.0024;-0.0372;
3099507674177783;0.0036;-0.0056;-0.0510;
3099507684284501;0.0142;0.0008;-0.0648;
3099507694395595;0.0174;0.0061;-0.0734;
3099507704502262;0.0142;0.0061;-0.0819;
3099507714608981;0.0132;0.0072;-0.0862;
3099507724717887;0.0174;0.0061;-0.0904;
3099507734824554;0.0228;0.0029;-0.0947;
3099507744931272;0.0238;0.0051;-0.1011;
3099507755034918;0.0228;0.0083;-0.1032;
3099507765141585;0.0164;0.0051;-0.1000;
3099507775248304;0.0153;0.0029;-0.0957;
3099507785365283;0.0164;0.0040;-0.0968;
3099507795471949;0.0206;0.0051;-0.1021;
3099507805578668;0.0217;0.0051;-0.1085;
3099507815679554;0.0174;0.0061;-0.1096;
3099507825786220;0.0100;0.0061;-0.1085;
3099507835892939;0.0036;0.0051;-0.1107;
3099507846016637;0.0025;0.0051;-0.1138;
3099507856123304;0.0089;0.0083;-0.1181;
3099507866230022;0.0164;0.0104;-0.1181;
3099507876303408;0.0153;0.0093;-0.1181;
3099507886410074;0.0153;0.0083;-0.1170;
3099507896516793;0.0185;0.0051;-0.1138;
3099507906664866;0.0249;0.0008;-0.1085;
3099507916771533;0.0238;0.0051;-0.1064;
3099507926878251;0.0196;0.0051;-0.1000;
3099507936960595;0.0174;0.0051;-0.0925;
3099507947067262;0.0153;0.0061;-0.0840;
3099507957173981;0.0164;0.0061;-0.0744;
3099507967282314;0.0174;0.0029;-0.0659;
3099507977388981;0.0111;-0.0003;-0.0542;
3099507987495699;0.0068;-0.0003;-0.0414;
3099507997591324;0.0036;0.0019;-0.0276;
3099508007697991;0.0015;0.0061;-0.0148;
3099508017804710;-0.0017;0.0072;-0.0031;
3099508027921533;-0.0039;0.0019;0.0076;
3099508038028199;-0.0081;-0.0035;0.0225;
3099508048134918;-0.0145;-0.0045;0.0364;
3099508058250699;-0.0156;-0.0035;0.0470;
3099508068357366;-0.0156;-0.0003;0.0545;
3099508078464085;-0.0166;-0.0003;0.0598;
3099508088567574;-0.0198;-0.0035;0.0651;
3099508098674241;-0.0209;-0.0056;0.0704;
3099508108780960;-0.0209;-0.0056;0.0736;
3099508118885647;-0.0198;-0.0035;0.0726;
3099508128992314;-0.0177;-0.0013;0.0704;
3099508139099033;-0.0188;-0.0003;0.0694;
3099508149215074;-0.0177;-0.0035;0.0704;
3099508159321741;-0.0166;-0.0056;0.0704;
3099508169428460;-0.0188;-0.0024;0.0726;
3099508179535647;-0.0156;-0.0013;0.0747;
3099508189642314;-0.0156;-0.0024;0.0736;
3099508199749033;-0.0177;-0.0024;0.0747;
3099508209851220;-0.0177;-0.0013;0.0758;
3099508219957887;-0.0188;-0.0024;0.0779;
3099508230064606;-0.0220;-0.0024;0.0811;
3099508240170491;-0.0220;-0.0045;0.0854;
3099508250277158;-0.0220;-0.0045;0.0928;
3099508260383876;-0.0230;-0.0056;0.0971;
3099508270497054;-0.0241;-0.0056;0.0992;
3099508280603720;-0.0252;-0.0045;0.0981;
3099508290710439;-0.0252;-0.0045;0.0981;
3099508300819814;-0.0230;-0.0045;0.0949;
3099508310926481;-0.0230;-0.0045;0.0896;
3099508321033199;-0.0230;-0.0035;0.0843;
3099508331131741;-0.0209;-0.0056;0.0758;
3099508341238408;-0.0177;-0.0056;0.0683;
3099508351345126;-0.0166;-0.0024;0.0577;
3099508361449241;-0.0113;-0.0024;0.0459;
3099508371555908;-0.0081;-0.0035;0.0364;
3099508381662626;-0.0049;-0.0013;0.0278;
3099508391772783;-0.0081;-0.0024;0.0193;
3099508401879449;-0.0049;-0.0035;0.0119;
3099508411986168;-0.0017;-0.0024;0.0076;
3099508422094345;0.0004;0.0008;-0.0009;
3099508432201012;-0.0007;0.0029;-0.0052;
3099508442307731;0.0015;0.0008;-0.0073;
3099508452420491;0.0047;-0.0003;-0.0105;
3099508462527158;0.0036;-0.0003;-0.0116;
3099508472633876;0.0025;-0.0003;-0.0116;
3099508482712366;0.0025;-0.0003;-0.0116;
3099508492819033;0.0047;0.0019;-0.0137;
3099508502925751;0.0036;0.0019;-0.0190;
3099508513050074;0.0057;0.0008;-0.0254;
3099508523156741;0.0089;0.0008;-0.0329;
3099508533263460;0.0111;0.0019;-0.0403;
3099508543372366;0.0142;0.0029;-0.0510;
3099508553479033;0.0174;0.0040;-0.0595;
3099508563585751;0.0174;0.0029;-0.0648;
3099508573688512;0.0185;0.0019;-0.0691;
3099508583795179;0.0185;0.0008;-0.0766;
3099508593901897;0.0228;0.0029;-0.0840;
3099508603998824;0.0238;0.0051;-0.0904;
3099508614105491;0.0238;0.0061;-0.0915;
3099508624212210;0.0249;0.0051;-0.0936;
3099508634329970;0.0249;0.0029;-0.0925;
3099508644436637;0.0228;0.0029;-0.0915;
3099508654543356;0.0228;0.0040;-0.0904;
3099508664642939;0.0228;0.0040;-0.0872;
3099508674749710;0.0206;0.0051;-0.0840;
3099508684856429;0.0196;0.0040;-0.0808;
3099508694986012;0.0196;0.0029;-0.0798;
3099508705092783;0.0196;0.0029;-0.0766;
3099508715199501;0.0174;0.0029;-0.0734;
3099508725292679;0.0174;0.0029;-0.0712;
3099508735399449;0.0153;0.0029;-0.0691;
3099508745506168;0.0153;0.0029;-0.0670;
3099508755642054;0.0153;0.0029;-0.0648;
3099508765748824;0.0164;0.0029;-0.0617;
3099508775855543;0.0164;0.0029;-0.0553;
3099508785916533;0.0142;0.0040;-0.0489;
3099508796023304;0.0111;0.0051;-0.0425;
3099508806130022;0.0100;0.0029;-0.0318;
3099508816238824;0.0057;0.0008;-0.0212;
3099508826345595;0.0057;0.0008;-0.0137;
3099508836452314;0.0015;0.0008;-0.0020;
3099508846591533;-0.0017;-0.0003;0.0108;
3099508856698304;-0.0039;-0.0003;0.0225;
3099508866805022;-0.0081;-0.0013;0.0342;
3099508876886220;-0.0124;-0.0035;0.0449;
3099508886992991;-0.0156;-0.0024;0.0545;
3099508897099710;-0.0177;-0.0035;0.0662;
3099508907227679;-0.0198;-0.0045;0.0768;
3099508917334449;-0.0220;-0.0045;0.0854;
3099508927441168;-0.0252;-0.0056;0.0928;
3099508937529762;-0.0273;-0.0045;0.1024;
3099508947636533;-0.0284;-0.0045;0.1067;
3099508957743251;-0.0305;-0.0067;0.1109;
3099508967862991;-0.0305;-0.0077;0.1099;
3099508977969762;-0.0294;-0.0088;0.1067;
3099508988076481;-0.0284;-0.0088;0.1056;
3099508998179137;-0.0252;-0.0067;0.1003;
3099509008285908;-0.0273;-0.0045;0.0971;
3099509018392626;-0.0252;-0.0056;0.0939;
3099509028491064;-0.0230;-0.0077;0.0907;
3099509038597835;-0.0230;-0.0099;0.0864;
3099509048704554;-0.0220;-0.0077;0.0822;
3099509058820804;-0.0220;-0.0045;0.0790;
3099509068927574;-0.0198;-0.0013;0.0758;
3099509079034293;-0.0198;-0.0035;0.0747;
3099509089140491;-0.0198;-0.0035;0.0747;
3099509099247262;-0.0220;-0.0045;0.0736;
3099509109353981;-0.0188;-0.0056;0.0704;
3099509119456741;-0.0188;-0.0024;0.0672;
3099509129563512;-0.0177;-0.0024;0.0640;
3099509139670231;-0.0188;-0.0024;0.0587;
3099509149791741;-0.0134;-0.0024;0.0523;
3099509159898512;-0.0124;-0.0035;0.0449;
3099509170005231;-0.0092;-0.0024;0.0374;
3099509180103512;-0.0081;-0.0013;0.0310;
3099509190210283;-0.0060;-0.0003;0.0246;
3099509200317001;-0.0039;0.0008;0.0161;
3099509210423616;-0.0017;-0.0003;0.0087;
3099509220530387;0.0015;-0.0003;0.0023;
3099509230637106;0.0025;0.0008;-0.0041;
3099509240744762;0.0036;0.0019;-0.0084;
3099509250851533;0.0036;0.0029;-0.0126;
3099509260958251;0.0036;0.0019;-0.0158;
3099509271065595;0.0047;0.0008;-0.0169;
3099509281172366;0.0047;0.0008;-0.0169;
3099509291279085;0.0047;0.0019;-0.0169;
3099509301386064;0.0036;0.0019;-0.0180;
3099509311492835;0.0047;0.0019;-0.0190;
3099509321599606;0.0057;0.0019;-0.0212;
3099509331710074;0.0068;0.0029;-0.0254;
3099509341816845;0.0068;0.0019;-0.0276;
3099509351923564;0.0068;0.0019;-0.0286;
3099509362000647;0.0079;0.0029;-0.0308;
3099509372107418;0.0089;0.0019;-0.0350;
3099509382214137;0.0079;0.0008;-0.0361;
3099509392336429;0.0089;0.0019;-0.0382;
3099509402443147;0.0089;0.0019;-0.0425;
3099509412549918;0.0100;0.0029;-0.0457;
3099509422662574;0.0111;0.0029;-0.0489;
3099509432769345;0.0132;0.0040;-0.0489;
3099509442876064;0.0153;0.0029;-0.0510;
3099509452983564;0.0142;0.0029;-0.0510;
3099509463090335;0.0142;0.0029;-0.0510;
3099509473197054;0.0142;0.0008;-0.0510;
3099509483317887;0.0142;0.0029;-0.0499;
3099509493424658;0.0121;0.0019;-0.0499;
3099509503531376;0.0111;0.0008;-0.0489;
3099509513616324;0.0121;0.0029;-0.0467;
3099509523723095;0.0132;0.0019;-0.0435;
3099509533829814;0.0111;0.0008;-0.0435;
3099509543935179;0.0100;0.0019;-0.0414;
3099509554041949;0.0111;0.0029;-0.0361;
3099509564148668;0.0100;0.0019;-0.0340;
3099509574258720;0.0089;0.0019;-0.0318;
3099509584365491;0.0079;0.0008;-0.0297;
3099509594472210;0.0057;0.0019;-0.0276;
3099509604577054;0.0068;0.0019;-0.0254;
3099509614683824;0.0079;0.0019;-0.0244;
3099509624790595;0.0068;0.0019;-0.0244;
3099509634922470;0.0047;0.0019;-0.0222;
3099509645029241;0.0036;0.0019;-0.0190;
3099509655135960;0.0047;0.0019;-0.0158;
3099509665212783;0.0047;-0.0003;-0.0148;
3099509675319501;0.0036;0.0019;-0.0116;
3099509685426272;0.0015;-0.0013;-0.0063;
3099509695606949;0.0015;-0.0003;-0.0041;
3099509705713720;-0.0007;0.0008;-0.0009;
3099509715820439;-0.0007;0.0008;0.0023;
3099509725887054;-0.0017;-0.0003;0.0087;
3099509735993772;-0.0039;-0.0013;0.0129;
3099509746100543;-0.0039;-0.0024;0.0193;
3099509756170231;-0.0060;-0.0013;0.0246;
3099509766276949;-0.0081;-0.0024;0.0300;
3099509776383720;-0.0081;-0.0024;0.0342;
3099509786501845;-0.0103;-0.0024;0.0406;
3099509796608564;-0.0113;-0.0035;0.0459;
3099509806715335;-0.0124;-0.0024;0.0513;
3099509816818512;-0.0156;-0.0024;0.0545;
3099509826925231;-0.0134;-0.0024;0.0598;
3099509837032001;-0.0156;-0.0035;0.0630;
3099509847175179;-0.0177;-0.0035;0.0630;
3099509857281897;-0.0166;-0.0045;0.0662;
3099509867388668;-0.0177;-0.0045;0.0683;
3099509877461845;-0.0177;-0.0035;0.0704;
3099509887568564;-0.0166;-0.0035;0.0704;
3099509897675335;-0.0188;-0.0045;0.0726;
3099509907791949;-0.0177;-0.0056;0.0726;
3099509917898668;-0.0188;-0.0056;0.0736;
3099509928005439;-0.0188;-0.0045;0.0758;
3099509938099449;-0.0198;-0.0045;0.0779;
3099509948206168;-0.0188;-0.0035;0.0800;
3099509958312939;-0.0198;-0.0045;0.0800;
3099509968429033;-0.0209;-0.0045;0.0811;
3099509978535751;-0.0220;-0.0045;0.0854;
3099509988642522;-0.0230;-0.0045;0.0864;
3099509998750699;-0.0220;-0.0035;0.0875;
3099510008857418;-0.0220;-0.0035;0.0885;
3099510018964189;-0.0220;-0.0035;0.0864;
3099510029132887;-0.0241;-0.0045;0.0875;
3099510039239606;-0.0230;-0.0035;0.0875;
3099510049346376;-0.0230;-0.0013;0.0875;
3099510059387887;-0.0230;-0.0013;0.0854;
3099510069494606;-0.0230;-0.0045;0.0843;
3099510079601376;-0.0220;-0.0045;0.0822;
3099510089712783;-0.0209;-0.0056;0.0800;
3099510099819501;-0.0188;-0.0056;0.0768;
3099510109926272;-0.0188;-0.0056;0.0747;
3099510120035491;-0.0177;-0.0045;0.0715;
3099510130142210;-0.0177;-0.0035;0.0683;
3099510140248981;-0.0177;-0.0035;0.0662;
3099510150346272;-0.0177;-0.0024;0.0630;
3099510160452991;-0.0156;-0.0024;0.0619;
3099510170559762;-0.0166;-0.0024;0.0598;
3099510180666533;-0.0156;-0.0024;0.0566;
3099510190774814;-0.0134;-0.0035;0.0566;
3099510200881585;-0.0145;-0.0024;0.0555;
3099510210988304;-0.0166;-0.0045;0.0555;
3099510221097470;-0.0156;-0.0035;0.0555;
3099510231204189;-0.0145;-0.0024;0.0534;
3099510241310960;-0.0134;-0.0024;0.0523;
3099510251416012;-0.0134;-0.0045;0.0491;
3099510261522731;-0.0134;-0.0024;0.0459;
3099510271629501;-0.0103;-0.0013;0.0438;
3099510281738512;-0.0103;-0.0013;0.0438;
3099510291845231;-0.0092;-0.0024;0.0406;
3099510301952001;-0.0103;-0.0056;0.0364;
3099510312068095;-0.0103;-0.0056;0.0342;
3099510322174814;-0.0081;-0.0013;0.0289;
3099510332281585;-0.0071;-0.0013;0.0257;
3099510342375647;-0.0071;-0.0013;0.0236;
3099510352482366;-0.0060;-0.0024;0.0193;
3099510362589137;-0.0039;-0.0013;0.0161;
3099510372693512;-0.0028;-0.0003;0.0161;
3099510382800231;-0.0028;-0.0003;0.0150;
3099510392907001;-0.0039;-0.0013;0.0161;
3099510403033408;-0.0049;-0.0024;0.0172;
3099510413140179;-0.0071;-0.0003;0.0193;
3099510423246897;-0.0060;-0.0013;0.0204;
3099510433351481;-0.0060;-0.0003;0.0236;
3099510443458199;-0.0060;-0.0013;0.0257;
3099510453564970;-0.0071;-0.0013;0.0268;
3099510463659554;-0.0071;-0.0013;0.0278;
3099510473766272;-0.0071;-0.0013;0.0278;
3099510483873043;-0.0060;-0.0013;0.0246;
3099510493981637;-0.0049;-0.0013;0.0225;
3099510504088356;-0.0049;-0.0003;0.0225;
3099510514195126;-0.0039;-0.0013;0.0193;
3099510524298304;-0.0039;-0.0024;0.0172;
3099510534405022;-0.0028;-0.0003;0.0140;
3099510544511793;-0.0017;-0.0003;0.0097;
3099510554609762;0.0004;-0.0003;0.0065;
3099510564716533;0.0004;0.0008;0.0033;
3099510574823251;0.0015;-0.0003;-0.0009;
3099510584999970;0.0015;-0.0003;-0.0031;
3099510595106741;0.0036;-0.0013;-0.0052;
3099510605213460;0.0025;-0.0003;-0.0073;
3099510615246741;0.0036;0.0008;-0.0116;
3099510625353460;0.0036;0.0008;-0.0137;
3099510635460231;0.0047;0.0019;-0.0137;
3099510645622783;0.0057;0.0008;-0.0169;
3099510655729554;0.0057;0.0008;-0.0190;
3099510665836272;0.0057;-0.0003;-0.0212;
3099510675896116;0.0047;0.0008;-0.0254;
3099510686002939;0.0068;0.0019;-0.0254;
3099510696109762;0.0057;0.0019;-0.0286;
3099510706224137;0.0068;0.0008;-0.0318;
3099510716330960;0.0089;0.0019;-0.0329;
3099510726437783;0.0089;0.0008;-0.0350;
3099510736540491;0.0089;0.0019;-0.0372;
3099510746647314;0.0100;0.0019;-0.0403;
3099510756754137;0.0100;0.0029;-0.0403;
3099510766860074;0.0111;0.0029;-0.0425;
3099510776966897;0.0100;0.0019;-0.0425;
3099510787073720;0.0100;0.0019;-0.0435;
3099510797197679;0.0111;0.0019;-0.0435;
3099510807304501;0.0100;0.0019;-0.0435;
3099510817411324;0.0089;0.0019;-0.0435;
3099510827505231;0.0121;0.0029;-0.0425;
3099510837612054;0.0100;0.0029;-0.0425;
3099510847718876;0.0089;0.0019;-0.0425;
3099510857820699;0.0089;0.0019;-0.0414;
3099510867927522;0.0089;0.0029;-0.0414;
3099510878034345;0.0100;0.0019;-0.0393;
3099510888145179;0.0111;0.0029;-0.0372;
3099510898252001;0.0089;0.0040;-0.0361;
3099510908358824;0.0089;0.0019;-0.0350;
3099510918479449;0.0100;0.0029;-0.0340;
3099510928586272;0.0100;0.0019;-0.0318;
3099510938693095;0.0079;0.0019;-0.0308;
3099510948779241;0.0068;0.0019;-0.0276;
3099510958886064;0.0068;0.0029;-0.0265;
3099510968992887;0.0068;0.0019;-0.0254;
3099510979113981;0.0057;0.0008;-0.0233;
3099510989220804;0.0057;0.0008;-0.0212;
3099510999327626;0.0068;0.0019;-0.0180;
3099511009436637;0.0036;0.0008;-0.0180;
3099511019543460;0.0036;0.0008;-0.0137;
3099511029650283;0.0036;0.0019;-0.0105;
3099511039747470;0.0015;0.0019;-0.0084;
3099511049854293;0.0015;0.0008;-0.0052;
3099511059961116;0.0015;0.0008;-0.0020;
3099511070077679;-0.0007;-0.0003;0.0023;
3099511080184501;-0.0017;-0.0003;0.0065;
3099511090291324;-0.0028;-0.0003;0.0119;
3099511100391845;-0.0028;-0.0013;0.0161;
3099511110498668;-0.0039;-0.0013;0.0182;
3099511120605491;-0.0060;-0.0013;0.0225;
3099511130711429;-0.0049;-0.0024;0.0257;
3099511140818251;-0.0060;-0.0024;0.0300;
3099511150925022;-0.0060;-0.0024;0.0321;
3099511161031637;-0.0081;-0.0013;0.0332;
3099511171138460;-0.0103;-0.0013;0.0374;
3099511181245283;-0.0103;-0.0035;0.0395;
3099511191357366;-0.0103;-0.0024;0.0417;
3099511201464189;-0.0103;-0.0024;0.0449;
3099511211571012;-0.0113;-0.0035;0.0470;
3099511221678616;-0.0124;-0.0024;0.0481;
3099511231785439;-0.0113;-0.0024;0.0513;
3099511241892262;-0.0124;-0.0013;0.0534;
3099511251991949;-0.0145;-0.0035;0.0555;
3099511262098772;-0.0156;-0.0035;0.0577;
3099511272205595;-0.0145;-0.0035;0.0598;
3099511282339762;-0.0156;-0.0024;0.0630;
3099511292446585;-0.0177;-0.0035;0.0640;
3099511302553408;-0.0156;-0.0035;0.0672;
3099511312626481;-0.0156;-0.0035;0.0672;
3099511322733304;-0.0177;-0.0035;0.0694;
3099511332840126;-0.0188;-0.0056;0.0715;
3099511342944033;-0.0188;-0.0035;0.0736;
3099511353050856;-0.0188;-0.0035;0.0736;
3099511363157679;-0.0177;-0.0045;0.0736;
3099511373268720;-0.0188;-0.0056;0.0736;
3099511383375543;-0.0188;-0.0045;0.0747;
3099511393482366;-0.0188;-0.0024;0.0758;
3099511403588720;-0.0198;-0.0024;0.0758;
3099511413695543;-0.0198;-0.0045;0.0758;
3099511423802366;-0.0177;-0.0045;0.0768;
3099511433911220;-0.0188;-0.0045;0.0779;
3099511444018043;-0.0188;-0.0035;0.0790;
3099511454124866;-0.0177;-0.0045;0.0779;
3099511464227470;-0.0188;-0.0045;0.0758;
3099511474334293;-0.0198;-0.0045;0.0747;
3099511484441116;-0.0177;-0.0045;0.0758;
3099511494546741;-0.0177;-0.0035;0.0736;
3099511504653564;-0.0188;-0.0013;0.0758;
3099511514760387;-0.0177;-0.0024;0.0768;
3099511524897991;-0.0188;-0.0045;0.0758;
3099511535004814;-0.0188;-0.0056;0.0758;
3099511545111637;-0.0177;-0.0056;0.0736;
3099511555208512;-0.0188;-0.0045;0.0736;
3099511565315335;-0.0188;-0.0024;0.0726;
3099511575422106;-0.0188;-0.0024;0.0726;
3099511585514137;-0.0166;-0.0045;0.0715;
3099511595620960;-0.0177;-0.0045;0.0715;
3099511605727783;-0.0198;-0.0045;0.0704;
3099511615818876;-0.0177;-0.0035;0.0683;
3099511625925699;-0.0177;-0.0013;0.0672;
3099511636032522;-0.0166;-0.0024;0.0651;
3099511646173616;-0.0156;-0.0045;0.0630;
3099511656280439;-0.0156;-0.0045;0.0619;
3099511666387262;-0.0166;-0.0024;0.0609;
3099511676478512;-0.0156;-0.0013;0.0598;
3099511686585387;-0.0156;-0.0024;0.0587;
3099511696692262;-0.0145;-0.0024;0.0587;
3099511706797887;-0.0145;-0.0045;0.0587;
3099511716904762;-0.0156;-0.0035;0.0577;
3099511727011637;-0.0156;-0.0035;0.0577;
3099511737122470;-0.0156;-0.0024;0.0577;
3099511747229345;-0.0156;-0.0013;0.0545;
3099511757336220;-0.0145;-0.0003;0.0513;
3099511767451220;-0.0134;-0.0045;0.0491;
3099511777558095;-0.0134;-0.0035;0.0470;
3099511787664970;-0.0134;-0.0035;0.0427;
3099511797764866;-0.0124;-0.0024;0.0395;
3099511807871741;-0.0124;-0.0013;0.0385;
3099511817978616;-0.0113;-0.0013;0.0342;
3099511828079449;-0.0060;-0.0013;0.0310;
3099511838186324;-0.0071;-0.0045;0.0289;
3099511848293199;-0.0060;-0.0024;0.0225;
3099511858409137;-0.0060;-0.0003;0.0193;
3099511868516012;-0.0039;-0.0003;0.0172;
3099511878622887;-0.0039;-0.0003;0.0140;
3099511888721012;-0.0028;-0.0013;0.0108;
3099511898827887;-0.0017;-0.0024;0.0076;
3099511908934762;-0.0007;-0.0013;0.0055;
3099511919044449;0.0004;-0.0003;0.0012;
3099511929151324;0.0015;0.0008;-0.0009;
3099511939258199;0.0015;-0.0003;-0.0041;
3099511949356741;0.0036;-0.0003;-0.0073;
3099511959463616;0.0047;0.0008;-0.0116;
3099511969570491;0.0068;-0.0013;-0.0126;
3099511979679033;0.0068;-0.0024;-0.0148;
3099511989785908;0.0068;0.0008;-0.0190;
3099511999892783;0.0068;0.0029;-0.0201;
3099512009999554;0.0089;0.0040;-0.0222;
3099512020106429;0.0089;-0.0024;-0.0244;
3099512030213304;0.0068;-0.0003;-0.0254;
3099512040319345;0.0079;0.0008;-0.0254;
3099512050426220;0.0068;0.0008;-0.0244;
3099512060533095;0.0068;0.0019;-0.0244;
3099512070657262;0.0057;-0.0003;-0.0244;
3099512080764137;0.0068;0.0008;-0.0233;
3099512090871012;0.0079;0.0008;-0.0222;
3099512100962574;0.0057;0.0019;-0.0212;
3099512111069449;0.0057;0.0008;-0.0222;
3099512121176324;0.0089;0.0008;-0.0233;
3099512131281429;0.0068;0.0019;-0.0244;
3099512141388304;0.0057;-0.0003;-0.0254;
3099512151495179;0.0068;0.0008;-0.0244;
3099512161651116;0.0079;0.0019;-0.0265;
3099512171757991;0.0057;-0.0003;-0.0286;
3099512181864866;0.0068;0.0008;-0.0265;
3099512191928408;0.0079;0.0008;-0.0286;
3099512202035283;0.0089;0.0008;-0.0308;
3099512212142158;0.0089;0.0019;-0.0318;
3099512222258199;0.0089;0.0019;-0.0308;
3099512232365074;0.0089;0.0019;-0.0318;
3099512242471949;0.0068;0.0019;-0.0318;
3099512252566741;0.0079;0.0008;-0.0340;
3099512262673616;0.0089;0.0008;-0.0350;
3099512272780491;0.0089;0.0008;-0.0340;
3099512282874033;0.0100;0.0019;-0.0350;
3099512292980908;0.0089;0.0029;-0.0361;
3099512303087783;0.0089;0.0008;-0.0350;
3099512313194137;0.0089;0.0019;-0.0350;
3099512323301012;0.0100;0.0019;-0.0350;
3099512333407887;0.0100;0.0008;-0.0350;
3099512343524866;0.0089;0.0019;-0.0350;
3099512353631741;0.0089;0.0019;-0.0340;
3099512363738616;0.0100;0.0019;-0.0329;
3099512373841897;0.0089;0.0029;-0.0329;
3099512383948772;0.0089;0.0029;-0.0329;
3099512394055647;0.0079;0.0008;-0.0329;
3099512404172262;0.0100;0.0008;-0.0340;
3099512414279137;0.0100;0.0008;-0.0350;
3099512424386012;0.0100;0.0019;-0.0361;
3099512434488304;0.0100;0.0029;-0.0382;
3099512444595179;0.0111;0.0029;-0.0393;
3099512454702054;0.0121;0.0019;-0.0393;
3099512464824658;0.0100;0.0019;-0.0382;
3099512474931533;0.0100;0.0029;-0.0393;
3099512485038408;0.0121;0.0040;-0.0382;
3099512495114554;0.0100;0.0040;-0.0382;
3099512505221429;0.0100;0.0008;-0.0372;
3099512515328304;0.0111;0.0019;-0.0361;
3099512525460699;0.0111;0.0029;-0.0329;
3099512535567574;0.0068;0.0040;-0.0265;
3099512545674449;0.0047;0.0029;-0.0222;
3099512555752679;0.0057;0.0029;-0.0190;
3099512565859554;0.0036;-0.0003;-0.0105;
3099512575966429;0.0036;-0.0003;-0.0052;
3099512586081637;0.0015;0.0019;-0.0009;
3099512596188512;-0.0007;0.0019;0.0044;
3099512606295387;-0.0017;0.0019;0.0076;
3099512616403564;-0.0028;0.0008;0.0119;
3099512626510439;-0.0049;-0.0003;0.0150;
3099512636617314;-0.0028;-0.0003;0.0193;
3099512646750283;-0.0060;-0.0003;0.0214;
3099512656857158;-0.0071;0.0008;0.0225;
3099512666964033;-0.0071;-0.0013;0.0246;
3099512677056429;-0.0060;-0.0013;0.0246;
3099512687163251;-0.0060;-0.0013;0.0268;
3099512697270126;-0.0060;-0.0013;0.0300;
3099512707370179;-0.0081;-0.0003;0.0300;
3099512717477001;-0.0092;-0.0013;0.0321;
3099512727583876;-0.0103;-0.0024;0.0353;
3099512737688304;-0.0092;-0.0024;0.0374;
3099512747795126;-0.0092;-0.0024;0.0406;
3099512757902001;-0.0113;-0.0013;0.0449;
3099512768012262;-0.0113;-0.0024;0.0481;
3099512778119085;-0.0134;-0.0035;0.0534;
3099512788225960;-0.0166;-0.0035;0.0577;
3099512798337574;-0.0177;-0.0024;0.0598;
3099512808444397;-0.0166;-0.0045;0.0630;
3099512818551272;-0.0177;-0.0035;0.0662;
3099512828647054;-0.0166;-0.0013;0.0672;
3099512838753876;-0.0177;-0.0024;0.0662;
3099512848860751;-0.0166;-0.0035;0.0651;
3099512858975595;-0.0145;-0.0035;0.0640;
3099512869082418;-0.0156;-0.0045;0.0640;
3099512879189293;-0.0166;-0.0024;0.0640;
3099512889301012;-0.0156;-0.0003;0.0619;
3099512899407835;-0.0145;-0.0024;0.0587;
3099512909514710;-0.0145;-0.0035;0.0566;
3099512919629345;-0.0156;-0.0024;0.0555;
3099512929736168;-0.0145;-0.0035;0.0545;
3099512939843043;-0.0124;-0.0024;0.0545;
3099512949941064;-0.0145;-0.0035;0.0534;
3099512960047887;-0.0134;-0.0024;0.0523;
3099512970154762;-0.0124;-0.0024;0.0513;
3099512980256845;-0.0124;-0.0003;0.0513;
3099512990363668;-0.0124;-0.0013;0.0513;
3099513000470543;-0.0145;-0.0035;0.0534;
3099513010574970;-0.0156;-0.0035;0.0545;
3099513020681793;-0.0145;-0.0035;0.0555;
3099513030788668;-0.0124;-0.0024;0.0566;
3099513040896324;-0.0145;-0.0045;0.0555;
3099513051003147;-0.0156;-0.0024;0.0577;
3099513061110022;-0.0145;-0.0013;0.0587;
3099513071224762;-0.0145;-0.0035;0.0598;
3099513081331585;-0.0134;-0.0035;0.0587;
3099513091438460;-0.0156;-0.0035;0.0577;
3099513101538095;-0.0156;-0.0013;0.0577;
3099513111644918;-0.0134;-0.0003;0.0577;
3099513121751793;-0.0156;-0.0013;0.0587;
3099513131857679;-0.0145;-0.0013;0.0587;
3099513141964501;-0.0145;-0.0024;0.0609;
3099513152071376;-0.0166;-0.0024;0.0630;
3099513162194970;-0.0156;-0.0035;0.0640;
3099513172301793;-0.0166;-0.0035;0.0672;
3099513182408668;-0.0177;-0.0035;0.0704;
3099513192493304;-0.0198;-0.0024;0.0736;
3099513202600126;-0.0220;-0.0045;0.0779;
3099513212707001;-0.0220;-0.0035;0.0811;
3099513222822262;-0.0230;-0.0024;0.0832;
3099513232929085;-0.0220;-0.0035;0.0832;
3099513243035960;-0.0220;-0.0035;0.0875;
3099513253136481;-0.0252;-0.0045;0.0907;
3099513263243304;-0.0241;-0.0045;0.0949;
3099513273350179;-0.0262;-0.0045;0.0949;
3099513283478304;-0.0262;-0.0035;0.0992;
3099513293585126;-0.0273;-0.0035;0.1035;
3099513303692001;-0.0273;-0.0045;0.1056;
3099513313781897;-0.0273;-0.0045;0.1088;
3099513323888720;-0.0305;-0.0056;0.1130;
3099513333995595;-0.0314;-0.0045;0.1205;
3099513344113512;-0.0336;-0.0045;0.1258;
3099513354220335;-0.0368;-0.0035;0.1312;
3099513364327210;-0.0378;-0.0056;0.1365;
3099513374420491;-0.0368;-0.0067;0.1439;
3099513384527314;-0.0399;-0.0056;0.1503;
3099513394634189;-0.0921;-0.0088;0.1876;
3099513404755231;-0.1763;0.0008;0.1855;
3099513414862054;-0.0463;-0.0280;0.1684;
3099513424968929;-0.0113;-0.0056;0.1620;
3099513435062054;-0.1273;-0.0205;0.1738;
3099513445168876;-0.2466;-0.0535;0.2142;
3099513455275751;-0.3489;-0.0067;0.1940;
3099513465432262;-0.2892;0.0264;0.1738;
3099513475539085;-0.1081;0.0338;0.1770;
3099513485645960;0.0079;0.0210;0.1695;
3099513495730387;-0.0346;-0.0099;0.1525;
3099513505837210;-0.0538;-0.0280;0.1322;
3099513515944085;-0.0591;-0.0365;0.1152;
3099513526040074;-0.0911;-0.0205;0.1024;
3099513536146897;-0.2445;0.0019;0.0790;
3099513546253772;-0.4799;0.0115;0.0385;
3099513556330595;-0.7013;0.0455;-0.0052;
3099513566437418;-0.8909;0.0775;-0.0372;
3099513576544293;-1.0411;0.0711;-0.0659;
3099513586661741;-1.0827;0.0594;-0.1011;
3099513596768564;-1.0667;0.0413;-0.1383;
3099513606875439;-1.0305;0.0146;-0.1735;
3099513616978512;-1.0134;0.0232;-0.2032;
3099513627085335;-1.1050;0.0541;-0.2405;
3099513637192210;-1.1828;0.0786;-0.2831;
3099513647320074;-1.2594;0.0999;-0.3118;
3099513657426897;-1.2988;0.1125;-0.3289;
3099513667533772;-1.3116;0.1063;-0.3406;
3099513677630595;-1.2732;0.1083;-0.3598;
3099513687737418;-1.2297;0.1296;-0.3864;
3099513697844189;-1.2764;0.1487;-0.3971;
3099513707946220;-1.3627;0.1668;-0.3896;
3099513718053043;-1.4277;0.1754;-0.3715;
3099513728159814;-1.4277;0.1775;-0.3800;
3099513738264762;-1.4181;0.1732;-0.3885;
3099513748371585;-1.4650;0.1690;-0.3779;
3099513758478356;-1.4980;0.1605;-0.3555;
3099513768583199;-1.3648;0.1573;-0.3385;
3099513778690022;-1.1104;0.1690;-0.3097;
3099513788796793;-0.8579;0.1658;-0.2852;
3099513798911533;-0.7141;0.1445;-0.2724;
3099513809018356;-0.6045;0.1360;-0.2458;
3099513819125126;-0.5172;0.1349;-0.2053;
3099513829213929;-0.4746;0.1221;-0.1746;
3099513839320699;-0.4767;0.1052;-0.1543;
3099513849427522;-0.4437;0.0977;-0.1522;
3099513859544814;-0.3403;0.0999;-0.1501;
3099513869651637;-0.2242;0.1031;-0.1352;
3099513879758408;-0.1379;0.1009;-0.1075;
3099513889868981;-0.1081;0.0945;-0.0840;
3099513899975804;-0.1486;0.0775;-0.0766;
3099513910082574;-0.2029;0.0573;-0.0776;
3099513920198251;-0.2423;0.0391;-0.0723;
3099513930305074;-0.2541;0.0296;-0.0595;
3099513940411845;-0.2434;0.0328;-0.0425;
3099513950521429;-0.2519;0.0466;-0.0286;
3099513960628251;-0.3244;0.0498;-0.0212;
3099513970735022;-0.4277;0.0402;-0.0180;
3099513980841324;-0.4937;0.0402;-0.0095;
3099513990948147;-0.5236;0.0541;0.0023;
3099514001054918;-0.5555;0.0636;0.0001;
3099514011157783;-0.5853;0.0562;-0.0148;
3099514021264606;-0.6120;0.0562;-0.0201;
3099514031371376;-0.6502;0.0636;-0.0116;
3099514041459137;-0.6736;0.0924;-0.0073;
3099514051565960;-0.6502;0.1349;-0.0158;
3099514061672731;-0.6640;0.1498;-0.0329;
3099514071798512;-0.7407;0.1232;-0.0393;
3099514081905335;-0.7983;0.1200;-0.0297;
3099514092012106;-0.8249;0.1562;-0.0403;
3099514102112470;-0.8760;0.1668;-0.0893;
3099514112219293;-0.9218;0.1626;-0.1064;
3099514122326064;-0.9421;0.1413;-0.0840;
3099514132426949;-0.8728;0.1477;-0.0744;
3099514142533772;-0.7780;0.1860;-0.0947;
3099514152640543;-0.7706;0.1956;-0.1266;
3099514162762887;-0.7194;0.2212;-0.1213;
3099514172869658;-0.6545;0.2553;-0.1117;
3099514182976481;-0.6534;0.2403;-0.1138;
3099514193073199;-0.6280;0.2212;-0.1298;
3099514203180022;-0.5651;0.2371;-0.1341;
3099514213286793;-0.5257;0.2489;-0.1415;
3099514223402679;-0.5108;0.2446;-0.1447;
3099514233509501;-0.4948;0.2414;-0.1383;
3099514243616272;-0.4820;0.2382;-0.1330;
3099514253718512;-0.4927;0.2244;-0.1511;
3099514263825335;-0.4724;0.2276;-0.1628;
3099514273932106;-0.4405;0.2819;-0.1618;
3099514284032574;-0.4170;0.2798;-0.1724;
3099514294139397;-0.3371;0.3234;-0.1820;
3099514304246168;-0.2551;0.3969;-0.1575;
3099514314356949;-0.3542;0.3575;-0.1735;
3099514324463772;-0.4778;0.2851;-0.1746;
3099514334570543;-0.5012;0.3138;-0.1426;
3099514344672731;-0.5449;0.3266;-0.1778;
3099514354779554;-0.5811;0.2712;-0.2607;
3099514364886324;-0.3957;0.3362;-0.2320;
3099514374989033;-0.1326;0.4491;-0.1266;
3099514385095856;-0.1401;0.3852;-0.1575;
3099514395202626;-0.1475;0.3692;-0.2160;
3099514405326949;-0.0815;0.4896;-0.1799;
3099514415433772;-0.3308;0.3618;-0.2383;
3099514425540543;-0.7035;0.0871;-0.3278;
3099514435630804;-0.4820;0.0455;-0.3001;
3099514445737626;0.0451;0.2744;-0.2192;
3099514455844397;0.3999;0.3234;-0.2469;
3099514465933512;0.4361;0.2180;-0.2735;
3099514476040335;0.5618;0.3011;-0.1852;
3099514486147106;0.6458;0.3703;-0.1660;
3099514496285647;0.3402;0.1860;-0.2426;
3099514506392470;0.2987;0.2361;-0.1989;
3099514516499241;0.4883;0.3788;-0.1075;
3099514526596324;0.4851;0.3234;-0.1810;
3099514536703147;0.3818;0.2627;-0.2170;
3099514546809918;0.3881;0.3213;-0.2096;
3099514556910491;0.4201;0.3085;-0.2394;
3099514567017314;0.4233;0.2712;-0.2469;
3099514577124085;0.4521;0.2702;-0.2160;
3099514587232262;0.4457;0.1796;-0.2245;
3099514597339085;0.5490;0.1200;-0.2927;
3099514607445856;0.7640;0.2499;-0.3278;
3099514617558095;0.7246;0.3639;-0.3044;
3099514627664918;0.4925;0.1999;-0.2778;
3099514637771689;0.5925;0.1232;-0.2565;
3099514647873981;0.8003;0.2297;-0.2639;
3099514657980804;0.6564;0.2148;-0.3353;
3099514668087574;0.5756;0.1477;-0.3640;
3099514678208720;0.7853;0.2510;-0.3012;
3099514688315543;0.7736;0.3213;-0.2969;
3099514698422366;0.5808;0.2063;-0.3374;
3099514708535231;0.5660;0.0722;-0.3513;
3099514718642054;0.6820;0.0764;-0.3566;
3099514728748876;0.6959;0.1063;-0.3736;
3099514738846429;0.6085;0.0434;-0.3726;
3099514748953251;0.7044;0.0924;-0.3225;
3099514759060074;0.7076;0.1370;-0.3108;
3099514769163304;0.5989;0.1317;-0.3289;
3099514779270126;0.6149;0.1988;-0.3598;
3099514789376949;0.5692;0.2286;-0.3587;
3099514799485908;0.5160;0.1626;-0.3406;
3099514809592731;0.6160;0.2095;-0.3182;
3099514819699554;0.5767;0.1679;-0.3033;
3099514829809449;0.5245;0.0903;-0.2895;
3099514839916272;0.6032;0.0988;-0.3129;
3099514850023095;0.5405;0.0796;-0.3246;
3099514860128512;0.4904;0.1562;-0.3353;
3099514870235335;0.3849;0.1200;-0.3832;
3099514880342158;0.2997;0.0775;-0.3822;
3099514890447470;0.2198;0.1658;-0.3896;
3099514900554293;0.0196;0.1210;-0.4301;
3099514910661116;-0.1348;0.0605;-0.4738;
3099514920767679;-0.2583;0.1328;-0.4876;
3099514930874501;-0.4884;0.0477;-0.5004;
3099514940981324;-0.6056;0.0573;-0.5249;
3099514951084762;-0.6928;0.1221;-0.5100;
3099514961191585;-0.7887;0.0509;-0.4865;
3099514971298408;-0.7855;0.0562;-0.4823;
3099514981417679;-0.7386;0.0754;-0.4567;
3099514991524501;-0.7439;0.0668;-0.4290;
3099515001631324;-0.6619;-0.0130;-0.4130;
3099515011726533;-0.5236;-0.0013;-0.3949;
3099515021833356;-0.5278;0.0200;-0.3683;
3099515031940179;-0.5342;-0.0620;-0.3619;
3099515042040126;-0.3861;-0.0471;-0.3566;
3099515052146949;-0.3766;0.0423;-0.3321;
3099515062253772;-0.4660;-0.0397;-0.3065;
3099515072358512;-0.3521;-0.0652;-0.2969;
3099515082465335;-0.2445;0.0349;-0.3097;
3099515092572158;-0.3190;-0.0205;-0.3033;
3099515102698720;-0.2573;-0.0791;-0.2586;
3099515112805543;-0.1049;-0.0045;-0.2266;
3099515122912366;-0.0644;-0.0344;-0.2394;
3099515133009554;0.0675;-0.0642;-0.2309;
3099515143116376;0.1602;-0.0546;-0.1905;
3099515153223199;0.2401;-0.0045;-0.1565;
3099515163322470;0.2816;-0.0130;-0.1650;
3099515173429293;0.3477;-0.0844;-0.1469;
3099515183536116;0.4734;-0.0269;-0.0979;
3099515193655699;0.5607;0.0296;-0.0840;
3099515203762522;0.6192;-0.0418;-0.0787;
3099515213869345;0.6618;-0.0727;-0.0446;
3099515223973824;0.7086;-0.0088;-0.0126;
3099515234080647;0.7502;-0.0226;-0.0308;
3099515244187470;0.8173;-0.0674;-0.0542;
3099515254291897;0.8940;0.0008;-0.0073;
3099515264398720;0.8514;-0.0035;0.0225;
3099515274505543;0.7236;-0.0983;-0.0169;
3099515284613512;0.7427;-0.0557;-0.0478;
3099515294720335;0.8056;-0.0099;-0.0041;
3099515304827158;0.6756;-0.0589;0.0193;
3099515314997991;0.5522;-0.0535;-0.0180;
3099515325104814;0.5138;-0.0386;-0.0382;
3099515335211637;0.4616;0.0051;-0.0265;
3099515345225283;0.3626;0.0360;-0.0297;
3099515355332106;0.1602;-0.0578;-0.0212;
3099515365438929;0.0782;-0.0407;-0.0063;
3099515375613095;0.0973;0.0466;-0.0372;
3099515385719918;0.0451;-0.0674;-0.0414;
3099515395826741;0.1027;-0.0024;-0.0393;
3099515405907158;0.1634;0.0743;-0.0116;
3099515416013981;0.0217;-0.1025;-0.0190;
3099515426120804;0.1101;-0.0301;-0.0393;
3099515436209293;0.2433;-0.0067;-0.0318;
3099515446316116;0.2326;-0.1057;-0.0126;
3099515456422939;0.3988;0.0168;-0.0403;
3099515466541533;0.4989;0.0061;-0.0414;
3099515476648356;0.4446;-0.0642;-0.0233;
3099515486755179;0.5426;0.0061;-0.0063;
3099515496836220;0.6916;-0.0088;0.0055;
3099515506943043;0.7033;-0.0631;0.0001;
3099515517049866;0.7576;-0.0503;0.0321;
3099515527179085;0.8663;-0.0738;0.0097;
3099515537285908;0.8727;-0.0354;0.0502;
3099515547392731;0.8493;-0.0599;0.0800;
3099515557492366;0.7981;-0.1025;0.0949;
3099515567599189;0.8003;-0.0226;0.1354;
3099515577706012;0.7449;-0.0013;0.0907;
3099515587814762;0.6011;-0.0471;0.1109;
3099515597921585;0.5000;0.0115;0.0768;
3099515608028408;0.5117;0.0402;0.0768;
3099515618132731;0.4329;-0.0130;0.0928;
3099515628239554;0.3466;-0.0525;0.0939;
3099515638346376;0.3594;-0.0461;0.0928;
3099515648458720;0.3796;-0.0535;0.0864;
3099515658565543;0.4276;-0.0418;0.1077;
3099515668672366;0.4968;-0.0866;0.1258;
3099515678776637;0.6149;-0.0525;0.1727;
3099515688883356;0.6596;-0.0130;0.1770;
3099515698990126;0.6660;-0.0226;0.2409;
3099515709102262;0.6554;0.0306;0.2473;
3099515719208981;0.7214;0.0913;0.2814;
3099515729315751;0.6991;0.0605;0.3037;
3099515739413304;0.5778;0.0146;0.3048;
3099515749520022;0.5437;0.1913;0.2941;
3099515759626793;0.4233;0.3426;0.2185;
3099515769745283;0.1506;0.2084;0.2355;
3099515779852001;-0.0273;0.1381;0.2483;
3099515789958772;-0.3563;0.1924;0.1940;
3099515800070804;-0.5555;0.1754;0.1908;
3099515810177522;-0.8089;0.0786;0.1748;
3099515820284293;-1.0177;0.0626;0.1333;
3099515830373408;-1.0742;0.1104;0.0289;
3099515840480126;-1.2275;0.1041;-0.0563;
3099515850586897;-1.3350;0.0360;-0.1160;
3099515860706741;-1.3744;-0.0429;-0.1618;
3099515870813460;-1.4085;0.0328;-0.1628;
3099515880920231;-1.4085;0.0232;-0.2053;
3099515891027054;-1.3489;-0.0109;-0.2160;
3099515901133824;-1.2084;0.0210;-0.2256;
3099515911240543;-1.1423;-0.0035;-0.2362;
3099515921336845;-1.0230;0.0264;-0.2352;
3099515931443564;-0.9325;0.0455;-0.2873;
3099515941550335;-0.8409;0.0232;-0.2927;
3099515951650804;-0.5832;0.0296;-0.2618;
3099515961757522;-0.4213;0.0232;-0.2383;
3099515971864293;-0.1901;0.0040;-0.2043;
3099515981984137;-0.0060;-0.0418;-0.2053;
3099515992090856;0.1900;-0.0610;-0.1842;
3099516002197626;0.4116;-0.0993;-0.1330;
3099516012301741;0.5682;-0.1153;-0.0872;
3099516022408460;0.7821;-0.1356;-0.0190;
3099516032515231;0.9771;-0.1302;0.0119;
3099516042637470;1.1252;-0.0557;0.0289;
3099516052744189;1.2411;-0.0567;0.0843;
3099516062850960;1.2816;-0.0184;0.1290;
3099516072941897;1.2987;0.0051;0.1791;
3099516083048616;1.2539;0.0008;0.1684;
3099516093155387;1.2188;0.0274;0.1876;
3099516103259814;1.1326;-0.0226;0.2515;
3099516113366533;0.9856;-0.0887;0.2622;
3099516123473304;0.9409;-0.0791;0.2867;
3099516133592418;0.8311;-0.0620;0.2622;
3099516143699137;0.6266;-0.0759;0.2483;
3099516153805908;0.4478;-0.0972;0.2867;
3099516163909345;0.3051;-0.0727;0.2537;
3099516174016064;0.1591;0.0146;0.2302;
3099516184122835;0.0036;-0.0429;0.2558;
3099516194219554;-0.1571;0.0029;0.1983;
3099516204326272;-0.2530;0.0509;0.1780;
3099516214433043;-0.4437;-0.0652;0.1897;
3099516224541324;-0.6024;-0.0258;0.1514;
3099516234648043;-0.6248;-0.0471;0.1375;
3099516244754814;-0.6843;-0.0269;0.0779;
3099516254906533;-0.7354;0.0722;0.0172;
3099516265013251;-0.8196;-0.0312;0.0321;
3099516275120022;-0.8899;-0.0397;-0.0095;
3099516285172939;-0.7759;0.0700;-0.0553;
3099516295279658;-0.7056;0.0146;-0.0680;
3099516305386429;-0.7141;-0.0045;-0.1181;
3099516315511324;-0.6312;0.0168;-0.1320;
3099516325618043;-0.4895;-0.0152;-0.1394;
3099516335724814;-0.3478;-0.0248;-0.1586;
3099516345842158;-0.2093;-0.0226;-0.1575;
3099516355948876;-0.0368;-0.0152;-0.1873;
3099516366055647;0.0664;-0.0056;-0.1927;
3099516376140179;0.0760;-0.0727;-0.1522;
3099516386246897;0.1826;-0.0397;-0.1618;
3099516396353668;0.3956;0.0168;-0.1511;
3099516406483929;0.4755;-0.0791;-0.1362;
3099516416590647;0.4872;-0.0141;-0.1948;
3099516426697418;0.5554;-0.0056;-0.2085;
3099516436784137;0.6064;-0.1260;-0.1937;
3099516446890856;0.5968;-0.0652;-0.2011;
3099516456997626;0.6234;0.0104;-0.1628;
3099516467099137;0.6458;-0.0684;-0.1628;
3099516477205856;0.6181;-0.0333;-0.1575;
3099516487312626;0.6586;-0.0386;-0.1224;
3099516497449345;0.6447;-0.0866;-0.1266;
3099516507556064;0.5490;-0.0866;-0.0968;
3099516517662835;0.5501;-0.0461;-0.0670;
3099516527745699;0.5447;-0.0152;-0.0467;
3099516537852418;0.5075;-0.0269;0.0246;
3099516547959189;0.4744;0.0008;0.0310;
3099516558070804;0.4158;0.0562;0.0758;
3099516568177522;0.3519;-0.0013;0.1333;
3099516578284293;0.3455;-0.0152;0.1738;
3099516588396637;0.2518;-0.0077;0.1802;
3099516598503356;0.2667;0.0178;0.1674;
3099516608610126;0.1932;-0.0205;0.1961;
3099516618707262;0.2198;0.0541;0.1940;
3099516628813981;0.2060;0.1115;0.1493;
3099516638920751;0.1112;-0.0290;0.1951;
3099516649053304;0.1581;0.0115;0.1972;
3099516659160022;0.1431;0.0679;0.1961;
3099516669266793;0.1655;-0.0152;0.2132;
3099516679360804;0.1517;0.0093;0.1961;
3099516689467679;0.1272;0.0455;0.2047;
3099516699574554;0.1634;-0.0312;0.1770;
3099516709674970;0.2039;-0.0226;0.1205;
3099516719781845;0.1900;0.0360;0.0779;
3099516729888720;0.1442;-0.0003;0.0395;
3099516739998512;0.1612;0.0125;0.0310;
3099516750105387;0.1218;-0.0173;-0.0158;
3099516760212262;0.1133;-0.0471;-0.0372;
3099516770328147;0.1517;0.0072;-0.0638;
3099516780435022;0.1208;-0.0088;-0.0862;
3099516790541897;0.1783;-0.0375;-0.0840;
3099516800641220;0.2326;-0.0301;-0.1298;
3099516810748095;0.2103;-0.0599;-0.1117;
3099516820854970;0.2145;-0.0045;-0.1096;
3099516830976793;0.2518;0.0317;-0.0648;
3099516841083668;0.2688;-0.0599;-0.0350;
3099516851190543;0.3455;-0.0407;-0.0403;
3099516861280387;0.5128;0.0541;-0.0222;
3099516871387262;0.6213;0.0466;-0.0254;
3099516881494137;0.5628;0.0381;0.0246;
3099516891604658;0.5746;0.0232;0.0491;
3099516901711533;0.6224;0.0434;0.0736;
3099516911818408;0.6373;0.0647;0.0854;
3099516921911324;0.5798;0.0146;0.0832;
3099516932018199;0.5724;-0.0386;0.1503;
3099516942125074;0.5596;0.0519;0.1269;
3099516952242262;0.5053;0.0349;0.1301;
3099516962349137;0.4148;0.0125;0.1461;
3099516972456012;0.3541;0.0466;0.1759;
3099516982557887;0.3093;0.0551;0.1759;
3099516992664762;0.2230;0.0423;0.1354;
3099517002771637;0.2230;0.0764;0.1535;
3099517012876845;0.2049;0.0146;0.1738;
3099517022983720;0.2550;0.0125;0.2313;
3099517033090595;0.2348;0.0338;0.2228;
3099517043192887;0.2305;0.0093;0.2313;
3099517053299762;0.2124;0.0157;0.2505;
3099517063406637;0.1879;0.0445;0.2494;
3099517073523512;0.1623;0.0541;0.2707;
3099517083630387;0.0952;0.0317;0.2398;
3099517093737262;-0.0039;0.0445;0.2366;
3099517103841064;-0.0220;0.0029;0.2441;
3099517113947939;-0.0858;0.0722;0.2355;
3099517124054814;-0.0900;0.0913;0.2462;
3099517134162887;-0.1827;0.0083;0.2249;
3099517144269762;-0.2775;0.0061;0.2089;
3099517154376637;-0.2253;0.0210;0.1834;
3099517164506168;-0.2370;0.0509;0.1738;
3099517174613043;-0.3095;0.0125;0.1972;
3099517184719918;-0.3585;-0.0770;0.1684;
3099517194815595;-0.3798;-0.0620;0.1407;
3099517204922470;-0.2903;-0.0631;0.1194;
3099517215029345;-0.3435;-0.0109;0.0907;
3099517225103824;-0.4128;0.0178;0.1024;
3099517235210699;-0.4288;-0.0759;0.1045;
3099517245317574;-0.4799;0.0029;0.0545;
3099517255459606;-0.4341;0.0413;0.0364;
3099517265566481;-0.4479;0.0317;0.0182;
3099517275673356;-0.5310;0.0530;0.0172;
3099517285755543;-0.4948;0.0338;0.0140;
3099517295862418;-0.5363;0.0136;-0.0095;
3099517305969293;-0.5065;-0.0258;-0.0222;
3099517316107887;-0.3787;0.0274;-0.0734;
3099517326214762;-0.3574;0.0402;-0.0595;
3099517336321637;-0.3073;0.0285;-0.0393;
3099517346440491;-0.3446;0.1232;-0.0830;
3099517356547366;-0.3787;-0.0429;-0.0723;
3099517366654241;-0.1433;-0.0439;-0.0457;
3099517376724241;-0.0847;0.1360;-0.0372;
3099517386831116;-0.0826;-0.0450;-0.0126;
3099517396937991;-0.0273;-0.0812;-0.0254;
3099517407057054;0.0547;0.0221;-0.0169;
3099517417163929;0.1612;-0.0077;-0.0009;
3099517427270804;0.0750;-0.0961;0.0033;
3099517437375595;0.0302;-0.1185;0.0236;
3099517447482470;0.2145;0.0445;-0.0063;
3099517457589345;0.2294;0.0360;-0.0095;
3099517467713199;0.0611;-0.0802;0.0651;
3099517477820074;0.0206;0.0104;0.0459;
3099517487926949;0.1005;0.0658;0.0268;
3099517498012262;0.0931;-0.0951;0.0555;
3099517508119137;0.0015;-0.0375;0.0438;
3099517518226012;0.0707;0.0509;0.0577;
3099517528324762;0.0707;-0.0791;0.0630;
3099517538431637;-0.0252;-0.0461;0.0513;
3099517548538512;0.0164;0.0072;0.0651;
3099517558655595;0.0004;-0.0333;0.0715;
3099517568762470;0.0558;0.0008;0.1013;
3099517578869345;0.2017;0.0551;0.0864;
3099517588964137;0.0643;0.0285;0.0491;
3099517599071012;-0.1262;0.0178;0.0523;
3099517609177887;-0.2541;-0.0706;0.0374;
3099517619288512;-0.3020;-0.0248;0.0438;
3099517629395387;-0.1688;0.0253;0.0534;
3099517639502262;-0.0985;0.0189;0.0129;
3099517649614345;-0.2988;-0.0375;0.0119;
3099517659721220;-0.3755;-0.0525;-0.0233;
3099517669828095;-0.3457;-0.0194;-0.0382;
3099517679934449;-0.2977;-0.0546;-0.0169;
3099517690041272;-0.0399;0.0189;-0.0329;
3099517700148043;0.0057;0.0519;-0.0425;
3099517710251845;-0.0762;0.0093;-0.0201;
3099517720358668;-0.0581;0.0338;-0.0393;
3099517730465439;-0.1752;-0.0365;-0.0361;
3099517740570179;-0.2573;-0.1057;-0.0638;
3099517750677001;-0.1465;-0.1441;-0.0521;
3099517760783772;0.0814;0.0051;-0.0350;
3099517770898564;0.1879;0.1136;-0.0585;
3099517781005387;-0.0953;-0.0759;-0.0617;
3099517791112158;-0.0506;-0.0578;-0.0350;
3099517801217574;0.1208;0.1189;-0.0712;
3099517811324397;-0.0399;0.0338;-0.0691;
3099517821431168;-0.0900;-0.0631;-0.0425;
3099517831542470;0.0973;0.0732;-0.0830;
3099517841649293;0.0664;0.0605;-0.0787;
3099517851756064;0.0153;0.0200;-0.0680;
3099517861856324;0.1112;0.0871;-0.0574;
3099517871963147;0.2198;0.0796;-0.0499;
3099517882069918;0.2891;0.0786;-0.0936;
3099517892169658;0.2379;0.0370;-0.0755;
3099517902276429;0.2305;0.0402;-0.0830;
3099517912383251;0.2667;0.1009;-0.1149;
3099517922484137;0.0675;0.0040;-0.0830;
3099517932590960;0.0196;0.0008;-0.0787;
3099517942697783;0.0281;0.0072;-0.0957;
3099517952820647;-0.0017;-0.0610;-0.0627;
3099517962927470;0.0622;-0.0312;-0.1021;
3099517973034241;0.0217;-0.0375;-0.0680;
3099517983130647;0.0089;-0.0525;-0.0254;
3099517993237470;0.0867;-0.0003;-0.0648;
3099518003344241;0.0547;0.0370;-0.0499;
3099518013456429;0.0057;0.0360;-0.0563;
3099518023563251;-0.0262;0.0338;-0.0308;
3099518033670022;0.0057;-0.0162;0.0012;
3099518043764554;0.0622;0.0051;-0.0116;
3099518053871376;0.0228;0.0200;-0.0148;
3099518063978147;-0.0124;0.0775;-0.0158;
3099518074115908;-0.0399;-0.0056;0.0353;
3099518084222731;0.0270;0.0690;0.0587;
3099518094329501;-0.0687;0.0200;0.0545;
3099518104408929;-0.0262;-0.0162;0.0300;
3099518114515751;0.0313;0.0125;0.0119;
3099518124622522;0.0132;-0.0130;0.0364;
3099518134730231;0.0952;-0.0003;0.0758;
3099518144837054;0.2241;0.0029;0.0662;
3099518154943876;0.1751;0.0264;0.0768;
3099518165042210;-0.0039;-0.0194;0.0736;
3099518175149033;-0.0485;-0.0748;0.0289;
3099518185255804;0.0292;-0.0578;0.0417;
3099518195376220;0.0185;-0.0482;0.0395;
3099518205483043;-0.0241;-0.0823;0.0406;
3099518215589866;0.0324;-0.1025;0.0630;
3099518225689658;0.1772;-0.0599;0.0577;
3099518235796481;0.1985;-0.0386;0.0715;
3099518245903304;0.1122;-0.0429;0.0545;
3099518256046949;0.0324;-0.0706;0.0438;
3099518266153772;-0.0145;-0.0482;0.0715;
3099518276260595;-0.1614;-0.0780;0.0257;
3099518286333512;-0.4469;-0.3049;0.0481;
3099518296440335;-0.0081;-0.3848;0.1173;
3099518306547106;1.1007;-0.0578;0.0364;
3099518316679866;1.3892;0.1860;0.0150;
3099518326786689;0.6000;0.0551;0.0491;
3099518336893512;-0.0996;-0.1004;0.0971;
3099518347014554;-0.0804;-0.0567;0.1194;
3099518357121376;0.0483;-0.0152;0.1013;
3099518367228199;0.1069;0.0008;0.0310;
3099518377304033;0.1122;0.0519;0.0161;
3099518387410856;0.0664;0.0956;0.0033;
3099518397517626;-0.0389;0.0850;0.0193;
3099518407638512;-0.2583;-0.0237;0.0768;
3099518417745335;-0.1209;0.0104;0.0214;
3099518427852106;0.0057;0.0871;-0.0276;
3099518437945491;-0.1699;0.0328;-0.0116;
3099518448052314;-0.1912;0.0732;-0.0169;
3099518458159085;-0.1699;0.0338;-0.0308;
3099518468277991;-0.2242;0.0178;-0.0137;
3099518478384814;-0.1049;0.0509;-0.0446;
3099518488491585;-0.0538;0.0519;-0.0063;
3099518498591324;-0.0868;0.0360;0.0140;
3099518508698147;-0.0719;0.0221;0.0108;
3099518518804918;0.0142;-0.0162;0.0193;
3099518528916845;0.0782;-0.0056;0.0587;
3099518539023668;0.2145;0.0722;0.0332;
3099518549130439;0.1911;0.0903;0.0417;
3099518559226741;0.0270;0.0200;0.0545;
3099518569333564;0.0728;0.0146;0.0481;
3099518579440335;0.0537;0.0658;0.0364;
3099518589544658;0.0047;0.0349;0.0310;
3099518599651481;-0.0039;-0.0194;0.0065;
3099518609758251;-0.0166;0.0541;-0.0169;
3099518619867158;-0.1369;0.0253;-0.0297;
3099518629973981;-0.2391;-0.0972;-0.0574;
3099518640080751;-0.0847;0.0498;-0.0840;
3099518650184762;0.0100;0.1498;-0.1501;
3099518660291585;-0.2349;0.0573;-0.1458;
3099518670398408;-0.3190;0.0264;-0.1096;
3099518680508408;-0.1624;0.0786;-0.1032;
3099518690615179;-0.1049;0.0764;-0.1128;
3099518700722001;-0.1891;-0.0727;-0.0510;
3099518710833095;-0.0071;-0.0727;0.0055;
3099518720939866;0.2401;0.1828;0.0065;
3099518731046689;0.0611;0.1679;0.0513;
3099518741145387;-0.0305;0.1636;0.0864;
3099518751252158;-0.0230;0.3788;0.0939;
3099518761358981;-0.5395;0.0423;0.1535;
3099518771479137;-1.2329;-0.3965;0.2057;
3099518781585908;-1.0912;-0.2421;0.1248;
3099518791692731;-0.4501;0.0913;0.0864;
3099518801803824;-0.5172;0.0583;0.1589;
3099518811910595;-0.8409;-0.1419;0.2441;
3099518822017418;-0.7365;-0.1292;0.3144;
3099518832112574;-0.4980;0.0040;0.2835;
3099518842219345;-0.6322;-0.0546;0.2270;
3099518852326168;-0.7684;-0.0834;0.2483;
3099518862429397;-0.5640;0.0679;0.2803;
3099518872536168;-0.5800;-0.0333;0.2899;
3099518882642991;-0.7461;-0.2005;0.2803;
3099518892758095;-0.5502;-0.0386;0.2409;
3099518902864866;-0.4160;0.0615;0.2100;
3099518912971689;-0.6523;-0.0897;0.2228;
3099518923071845;-0.6981;-0.0887;0.2600;
3099518933178616;-0.4596;0.0317;0.2366;
3099518943285439;-0.3808;0.0008;0.1844;
3099518953396637;-0.4746;-0.0503;0.1695;
3099518963503408;-0.4873;-0.0194;0.1738;
3099518973610231;-0.4703;-0.0514;0.1567;
3099518983715595;-0.4021;-0.0706;0.1344;
3099518993822366;-0.2807;-0.0184;0.1226;
3099519003929189;-0.2519;-0.0120;0.1099;
3099519014037574;-0.2818;-0.0162;0.1013;
3099519024144345;-0.2711;-0.0067;0.0875;
3099519034251168;-0.2434;-0.0045;0.0630;
3099519044354814;-0.2242;0.0051;0.0385;
3099519054461585;-0.1944;0.0115;0.0204;
3099519064568408;-0.1507;0.0264;0.0204;
3099519074676741;-0.1369;0.0242;0.0321;
3099519084783512;-0.1166;-0.0173;0.0374;
3099519094890335;-0.0772;0.0423;0.0289;
3099519104983408;-0.1156;0.0913;0.0023;
3099519115090179;-0.1422;0.0125;-0.0286;
3099519125197001;-0.0655;0.0594;-0.0265;
3099519135325179;-0.0570;0.1370;-0.0222;
3099519145431949;-0.1443;0.0551;-0.0372;
3099519155538772;-0.1976;-0.0248;-0.0372;
3099519165665699;-0.1145;-0.0109;-0.0265;
3099519175772470;-0.0453;-0.0067;-0.0276;
3099519185879293;-0.0559;-0.0184;-0.0372;
3099519195957887;-0.0039;0.0402;-0.0393;
3099519206064658;0.0142;0.0881;-0.0393;
3099519216171481;-0.0751;0.0519;-0.0372;
3099519226269449;-0.1134;-0.0013;-0.0244;
3099519236376220;-0.1305;-0.0269;-0.0073;
3099519246483043;-0.1124;-0.0226;-0.0031;
3099519256603929;-0.0634;-0.0120;0.0044;
3099519266710699;-0.0421;-0.0045;0.0225;
3099519276817522;-0.0103;0.0104;0.0332;
3099519286923512;0.0174;0.0061;0.0364;
3099519297030283;0.0036;-0.0258;0.0459;
3099519307137106;-0.0007;-0.0354;0.0630;
3099519317243720;0.0526;-0.0280;0.0715;
3099519327350491;0.1091;-0.0365;0.0683;
3099519337457314;0.2039;-0.0152;0.0736;
3099519347566116;0.3189;0.0168;0.0843;
3099519357672887;0.2987;-0.0162;0.0949;
3099519367779710;0.2816;-0.0407;0.1003;
3099519377885231;0.3253;-0.0333;0.0971;
3099519387992001;0.3690;-0.0312;0.0928;
3099519398098824;0.3956;-0.0322;0.0907;
3099519408223616;0.3988;-0.0365;0.0907;
3099519418330387;0.3807;-0.0375;0.0843;
3099519428437210;0.3445;-0.0301;0.0747;
3099519438522054;0.3061;-0.0205;0.0704;
3099519448628824;0.3029;-0.0056;0.0672;
3099519458735647;0.2987;0.0061;0.0566;
3099519468853929;0.2561;0.0029;0.0438;
3099519478960699;0.1932;0.0008;0.0374;
3099519489067522;0.1570;0.0083;0.0364;
3099519499180908;0.1495;0.0072;0.0332;
3099519509287679;0.1527;0.0125;0.0300;
3099519519394501;0.1453;0.0189;0.0257;
3099519529489345;0.1282;0.0072;0.0246;
3099519539596116;0.1336;0.0029;0.0225;
3099519549702939;0.1485;0.0029;0.0193;
3099519559804866;0.1506;-0.0099;0.0182;
3099519569911637;0.1506;-0.0130;0.0161;
3099519580018460;0.1453;-0.0162;0.0108;
3099519590124137;0.1272;-0.0237;0.0033;
3099519600230908;0.1112;-0.0216;-0.0052;
3099519610337731;0.0973;-0.0173;-0.0126;
3099519620444345;0.0888;-0.0173;-0.0201;
3099519630551116;0.0984;-0.0120;-0.0286;
3099519640657939;0.1091;-0.0056;-0.0361;
3099519650779449;0.1133;-0.0045;-0.0435;
3099519660886220;0.1208;-0.0024;-0.0510;
3099519670993043;0.1325;0.0019;-0.0542;
3099519681099866;0.1495;0.0019;-0.0563;
3099519691204137;0.1826;0.0051;-0.0531;
3099519701311064;0.2241;0.0072;-0.0478;
3099519711417991;0.2614;0.0029;-0.0425;
3099519721515179;0.2933;-0.0013;-0.0372;
3099519731622106;0.3242;-0.0045;-0.0276;
3099519741729033;0.3604;-0.0056;-0.0158;
3099519751828251;0.3956;-0.0035;-0.0041;
3099519761935179;0.4222;-0.0024;0.0044;
3099519772042106;0.4403;-0.0045;0.0097;
3099519782154866;0.4457;-0.0088;0.0182;
3099519792261793;0.4457;-0.0120;0.0257;
3099519802368720;0.4425;-0.0141;0.0289;
3099519812479762;0.4212;-0.0130;0.0310;
3099519822586689;0.3849;-0.0152;0.0300;
3099519832693616;0.3391;-0.0141;0.0257;
3099519842810960;0.2859;-0.0109;0.0182;
3099519852917887;0.2369;-0.0088;0.0076;
3099519863024814;0.1879;-0.0045;-0.0031;
3099519873115804;0.1378;-0.0035;-0.0105;
3099519883222731;0.0899;-0.0035;-0.0190;
3099519893329658;0.0558;-0.0013;-0.0265;
3099519903446637;0.0334;-0.0013;-0.0318;
3099519913553564;0.0164;-0.0045;-0.0372;
3099519923660491;0.0089;-0.0067;-0.0414;
3099519933759762;0.0100;-0.0067;-0.0446;
3099519943866689;0.0111;-0.0077;-0.0467;
3099519953973616;0.0142;-0.0088;-0.0457;
3099519964070595;0.0238;-0.0067;-0.0478;
3099519974177522;0.0409;-0.0056;-0.0489;
3099519984284449;0.0558;-0.0045;-0.0457;
3099519994395804;0.0707;-0.0045;-0.0414;
3099520004502731;0.0824;-0.0035;-0.0382;
3099520014609658;0.0899;-0.0013;-0.0350;
3099520024714241;0.0952;0.0019;-0.0340;
3099520034821168;0.0995;0.0019;-0.0308;
3099520044928095;0.0995;0.0019;-0.0265;
3099520055027470;0.0973;0.0008;-0.0212;
3099520065134397;0.0995;-0.0003;-0.0190;
3099520075241324;0.1016;0.0008;-0.0169;
3099520085365804;0.1037;0.0029;-0.0158;
3099520095472731;0.1080;0.0061;-0.0148;
3099520105579658;0.1059;0.0083;-0.0158;
3099520115678408;0.0995;0.0061;-0.0137;
3099520125785335;0.0899;0.0040;-0.0105;
3099520135892262;0.0846;0.0019;-0.0116;
3099520146015960;0.0782;0.0008;-0.0126;
3099520156122887;0.0675;0.0019;-0.0126;
3099520166229814;0.0611;0.0029;-0.0126;
3099520176352783;0.0558;0.0051;-0.0137;
3099520186459710;0.0515;0.0072;-0.0126;
3099520196566637;0.0483;0.0083;-0.0105;
3099520206643304;0.0494;0.0072;-0.0105;
3099520216750231;0.0515;0.0051;-0.0084;
3099520226857158;0.0515;0.0019;-0.0052;
3099520236965283;0.0547;0.0008;0.0001;
3099520247072210;0.0632;0.0019;0.0033;
3099520257179137;0.0750;0.0029;0.0055;
3099520267290179;0.0824;0.0019;0.0097;
3099520277397106;0.0899;0.0008;0.0150;
3099520287504033;0.0973;-0.0013;0.0204;
3099520297609554;0.1005;-0.0013;0.0257;
3099520307716481;0.1037;-0.0013;0.0310;
3099520317823408;0.1069;-0.0003;0.0342;
3099520327933304;0.1069;0.0019;0.0385;
3099520338040231;0.1005;0.0019;0.0406;
3099520348147158;0.0931;0.0029;0.0427;
3099520358251012;0.0867;0.0019;0.0459;
3099520368357939;0.0814;0.0019;0.0459;
3099520378464866;0.0728;0.0019;0.0481;
3099520388569762;0.0643;0.0029;0.0491;
3099520398676689;0.0537;0.0008;0.0491;
3099520408783616;0.0441;0.0008;0.0491;
3099520418888824;0.0356;0.0008;0.0491;
3099520428995751;0.0292;-0.0003;0.0491;
3099520439102679;0.0228;-0.0013;0.0481;
3099520449218616;0.0185;-0.0024;0.0491;
3099520459325543;0.0153;-0.0056;0.0481;
3099520469432470;0.0121;-0.0077;0.0470;
3099520479533304;0.0079;-0.0088;0.0470;
3099520489640231;0.0079;-0.0099;0.0470;
3099520499747158;0.0079;-0.0099;0.0470;
3099520509855804;0.0089;-0.0088;0.0449;
3099520519962731;0.0100;-0.0088;0.0417;
3099520530069658;0.0121;-0.0077;0.0385;
3099520540165387;0.0121;-0.0077;0.0353;
3099520550272314;0.0100;-0.0077;0.0342;
3099520560379241;0.0132;-0.0077;0.0300;
3099520570493929;0.0142;-0.0067;0.0246;
3099520580600856;0.0142;-0.0045;0.0246;
3099520590707783;0.0164;-0.0013;0.0182;
3099520600812574;0.0174;-0.0003;0.0140;
3099520610919501;0.0174;0.0019;0.0097;
3099520621026429;0.0217;0.0019;0.0065;
3099520631159970;0.0302;-0.0003;0.0033;
3099520641266897;0.0356;-0.0024;0.0023;
3099520651373824;0.0430;-0.0013;0.0012;
3099520661469345;0.0515;-0.0013;-0.0031;
3099520671576272;0.0590;-0.0056;-0.0041;
3099520681683199;0.0707;-0.0056;-0.0031;
3099520691775491;0.0877;-0.0056;-0.0052;
3099520701882262;0.1037;-0.0067;-0.0052;
3099520711989085;0.1197;-0.0056;-0.0041;
3099520722126741;0.1293;-0.0045;-0.0041;
3099520732233512;0.1336;-0.0045;-0.0052;
3099520742340335;0.1431;-0.0045;-0.0041;
3099520752409658;0.1517;-0.0056;-0.0041;
3099520762516429;0.1623;-0.0035;-0.0041;
3099520772623251;0.1740;-0.0035;-0.0020;
3099520782732731;0.1836;-0.0045;0.0001;
3099520792839501;0.1921;-0.0056;0.0012;
3099520802946324;0.1985;-0.0045;0.0044;
3099520813054554;0.2049;-0.0035;0.0055;
3099520823161324;0.2166;-0.0035;0.0065;
3099520833268147;0.2284;-0.0024;0.0087;
3099520843391637;0.2337;-0.0035;0.0119;
3099520853498408;0.2411;-0.0045;0.0129;
3099520863605231;0.2443;-0.0035;0.0150;
3099520873703095;0.2433;-0.0077;0.0161;
3099520883809866;0.2369;-0.0088;0.0182;
3099520893916689;0.2294;-0.0067;0.0182;
3099520904026637;0.2252;-0.0056;0.0182;
3099520914133408;0.2220;-0.0035;0.0193;
3099520924240231;0.2156;-0.0003;0.0204;
3099520934336429;0.2060;0.0008;0.0193;
3099520944443199;0.1911;0.0008;0.0204;
3099520954550022;0.1751;-0.0003;0.0182;
3099520964677210;0.1602;-0.0013;0.0140;
3099520974783981;0.1549;-0.0013;0.0150;
3099520984890804;0.1602;0.0008;0.0161;
3099520994974501;0.1655;-0.0003;0.0172;
3099521005081272;0.1612;-0.0003;0.0172;
3099521015188095;0.1463;-0.0003;0.0161;
3099521025308512;0.1314;-0.0035;0.0129;
3099521035415283;0.1197;-0.0013;0.0097;
3099521045522106;0.1080;-0.0003;0.0076;
3099521055657054;0.1027;-0.0003;0.0012;
3099521065763824;0.1154;0.0008;-0.0009;
3099521075870647;0.1399;0.0029;-0.0009;
3099521085931533;0.1623;0.0029;0.0001;
3099521096038304;0.1911;0.0051;0.0001;
3099521106145126;0.2273;0.0061;0.0001;
3099521116255074;0.2582;0.0029;0.0044;
3099521126361845;0.2624;-0.0088;0.0065;
3099521136468668;0.2081;-0.0258;0.0140;
3099521146600908;0.1975;-0.0237;0.0225;
3099521156707679;0.2593;-0.0130;0.0310;
3099521166814501;0.2869;-0.0077;0.0332;
3099521176904449;0.2678;0.0019;0.0300;
3099521187011220;0.2348;0.0051;0.0246;
3099521197118043;0.2017;-0.0003;0.0193;
3099521207229137;0.1762;-0.0035;0.0225;
3099521217335908;0.1602;-0.0067;0.0236;
3099521227442731;0.1389;-0.0056;0.0193;
3099521237549554;0.1165;-0.0035;0.0129;
3099521247656324;0.1133;0.0072;0.0087;
3099521257763147;0.1112;0.0115;0.0076;
3099521267871845;0.0973;0.0072;0.0076;
3099521277978616;0.0803;0.0029;0.0076;
3099521288085439;0.0611;-0.0088;0.0108;
3099521298198929;0.0505;-0.0258;0.0129;
3099521308305699;0.0569;-0.0322;0.0150;
3099521318412522;0.0569;-0.0226;0.0097;
3099521328517574;0.0547;-0.0162;0.0065;
3099521338624345;0.0558;-0.0258;0.0119;
3099521348731168;0.0569;-0.0333;0.0172;
3099521358834762;0.0611;-0.0258;0.0172;
3099521368941533;0.0654;-0.0109;0.0150;
3099521379048356;0.0696;-0.0035;0.0108;
3099521389151637;0.0728;0.0029;0.0076;
3099521399258408;0.0728;0.0008;0.0129;
3099521409365231;0.0718;-0.0130;0.0289;
3099521419479970;0.0771;-0.0130;0.0300;
3099521429586741;0.0814;0.0274;0.0140;
3099521439693564;0.0835;0.0360;0.0044;
3099521449794658;0.0792;0.0051;0.0150;
3099521459901429;0.0824;-0.0226;0.0278;
3099521470008251;0.0792;-0.0461;0.0342;
3099521480120804;0.0899;-0.0258;0.0236;
3099521490227574;0.1027;0.0146;0.0087;
3099521500334397;0.1037;-0.0162;0.0097;
3099521510435908;0.1165;-0.0471;0.0278;
3099521520542679;0.1250;-0.0226;0.0310;
3099521530649501;0.1016;-0.0439;0.0278;
3099521540759241;0.1005;-0.0546;0.0161;
3099521550866012;0.1325;0.0178;-0.0020;
3099521560972835;0.1357;0.0402;0.0012;
3099521571077887;0.1282;-0.0024;0.0140;
3099521581184658;0.1261;-0.0056;0.0129;
3099521591291481;0.1272;0.0200;-0.0020;
3099521601398512;0.1080;-0.0258;0.0023;
3099521611505283;0.0867;-0.0929;0.0225;
3099521621612106;0.1336;-0.0365;0.0119;
3099521631715908;0.1794;0.0487;-0.0020;
3099521641822679;0.1431;0.0200;0.0108;
3099521651929501;0.1463;-0.0141;0.0150;
3099521662031324;0.1708;0.0434;-0.0095;
3099521672138095;0.1442;0.0370;-0.0201;
3099521682244918;0.0877;-0.0738;0.0097;
3099521692359658;0.0387;-0.1004;0.0172;
3099521702466481;0.1474;0.0029;-0.0126;
3099521712573304;0.1730;0.0029;0.0065;
3099521722692470;0.1847;-0.0045;0.0321;
3099521732799293;0.2124;0.0690;-0.0020;
3099521742906116;0.1389;0.0051;-0.0212;
3099521753002054;0.1133;-0.0759;-0.0105;
3099521763108876;0.1122;-0.0439;-0.0084;
3099521773215699;0.1122;-0.0354;0.0225;
3099521783324345;0.1474;-0.0312;0.0342;
3099521793431168;0.1921;0.0051;0.0161;
3099521803537991;0.1655;-0.0088;0.0076;
3099521813640179;0.1634;-0.0077;0.0001;
3099521823747001;0.1495;0.0029;0.0129;
3099521833853824;0.1304;0.0306;0.0289;
3099521843952991;0.1975;0.1041;-0.0084;
3099521854059814;0.1772;0.0626;-0.0308;
3099521864166637;0.0877;0.0647;-0.0137;
3099521874286845;0.0515;0.0573;0.0023;
3099521884393668;-0.0474;-0.0908;0.0310;
3099521894500491;-0.0868;-0.0695;-0.0105;
3099521904618408;0.0611;0.0104;-0.0617;
3099521914725231;0.1826;-0.0045;-0.0340;
3099521924832054;0.2507;0.0477;-0.0084;
3099521934983512;0.2390;0.0679;-0.0180;
3099521945090335;0.1442;-0.0322;-0.0286;
3099521955197158;0.0888;-0.1004;-0.0361;
3099521965241116;0.1357;-0.0077;-0.0286;
3099521975347939;0.2071;0.0892;-0.0457;
3099521985454762;0.1336;0.0434;-0.0691;
3099521995606220;0.0398;0.0391;-0.0670;
3099522005713043;0.0089;0.0764;-0.0467;
3099522015819866;-0.0517;0.0924;-0.0318;
3099522025892054;-0.1784;0.0360;-0.0606;
3099522035998876;-0.2509;0.0200;-0.1053;
3099522046105699;-0.1635;0.0818;-0.1096;
3099522056213876;-0.0506;0.0679;-0.0968;
3099522066320699;-0.0314;0.0818;-0.1032;
3099522076427522;-0.0804;0.0402;-0.0989;
3099522086527262;-0.1848;-0.0397;-0.0776;
3099522096634085;-0.1518;-0.0067;-0.1256;
3099522106740908;-0.1422;-0.0130;-0.1543;
3099522116841533;-0.2551;-0.0344;-0.1394;
3099522126948356;-0.2668;0.0370;-0.1703;
3099522137055179;-0.3286;0.0125;-0.1873;
3099522147185804;-0.5268;-0.0780;-0.1767;
3099522157292626;-0.6237;-0.0866;-0.1979;
3099522167399449;-0.6184;-0.0567;-0.2320;
3099522177493147;-0.7311;-0.0003;-0.2618;
3099522187599970;-0.8931;-0.0248;-0.2778;
3099522197706793;-0.9868;-0.0429;-0.2724;
3099522207817054;-1.0262;0.0040;-0.2831;
3099522217923876;-1.0869;0.0083;-0.2778;
3099522228030699;-1.2265;0.0189;-0.2927;
3099522238132262;-1.3094;-0.0546;-0.3353;
3099522248239085;-1.2700;-0.0557;-0.3321;
3099522258345908;-1.1423;0.0413;-0.2905;
3099522268456637;-0.9548;0.0210;-0.2778;
3099522278563460;-0.8856;-0.0248;-0.2937;
3099522288670283;-0.7066;0.0178;-0.2735;
3099522298779241;-0.4948;0.0466;-0.2405;
3099522308886064;-0.4767;0.0040;-0.2437;
3099522318992887;-0.3861;-0.0258;-0.2501;
3099522329104397;-0.1763;-0.0045;-0.2170;
3099522339211220;-0.0644;0.0168;-0.2266;
3099522349318043;-0.0220;0.0072;-0.2330;
3099522359419137;0.0228;-0.0301;-0.1979;
3099522369525960;0.1101;-0.0418;-0.1671;
3099522379632783;0.1921;-0.0493;-0.1607;
3099522389739345;0.2198;-0.0503;-0.1810;
3099522399846168;0.2465;-0.0674;-0.1554;
3099522409952991;0.3093;-0.0386;-0.1458;
3099522420069762;0.3232;-0.0184;-0.1575;
3099522430176585;0.3157;-0.0439;-0.1341;
3099522440283408;0.3455;-0.0280;-0.1043;
3099522450384554;0.3647;-0.0525;-0.1234;
3099522460491376;0.4457;-0.0493;-0.1458;
3099522470598199;0.5277;0.0274;-0.1075;
3099522480707158;0.5053;0.0210;-0.1341;
3099522490813981;0.5085;0.0168;-0.1415;
3099522500920804;0.5415;-0.0077;-0.0862;
3099522511020491;0.6266;0.0402;-0.0638;
3099522521127314;0.6479;0.0296;-0.0957;
3099522531234137;0.6437;-0.0578;-0.0723;
3099522541345387;0.7587;-0.0429;-0.0574;
3099522551452210;0.9036;0.0242;-0.0382;
3099522561559033;0.8333;-0.0141;0.0033;
3099522571688095;0.8556;-0.0280;0.0033;
3099522581802470;0.9856;0.0072;0.0225;
3099522591909293;0.9473;0.0242;0.0566;
3099522602016116;0.8642;0.0743;0.0640;
3099522612091533;0.8290;0.0690;0.0374;
3099522622198356;0.7576;-0.0130;0.0758;
3099522632305179;0.6703;-0.0610;0.0715;
3099522642416949;0.7204;-0.0003;0.0640;
3099522652523772;0.6522;0.0391;0.1312;
3099522662630595;0.5288;0.0391;0.1503;
3099522672739137;0.4670;0.0157;0.1354;
3099522682845960;0.4105;0.0328;0.1397;
3099522692952783;0.2912;0.0040;0.1503;
3099522703057679;0.2039;-0.0557;0.1503;
3099522713164501;0.1953;-0.0802;0.1791;
3099522723271324;0.2113;-0.0056;0.1557;
3099522733377470;0.2198;0.1178;0.1716;
3099522743484293;0.2145;0.1466;0.1738;
3099522753591116;0.2134;0.1668;0.1940;
3099522763689137;0.1719;0.1317;0.2047;
3099522773795960;0.1868;0.1232;0.2047;
3099522783902783;0.1485;0.1063;0.2419;
3099522794010074;0.1091;0.0711;0.1834;
3099522804116897;0.1634;0.0636;0.1887;
3099522814223720;0.1474;0.0210;0.2217;
3099522824332731;0.1059;0.0242;0.2079;
3099522834439554;0.1016;0.0690;0.2089;
3099522844546376;0.0601;0.0296;0.1780;
3099522854650908;0.0824;-0.0226;0.1684;
3099522864757731;0.1048;0.0328;0.1770;
3099522874864554;0.0718;0.1052;0.1301;
3099522884989137;0.0792;0.0647;0.1578;
3099522895095960;0.1197;0.0700;0.1429;
3099522905202783;0.1229;0.0881;0.1056;
3099522915281533;0.1208;0.0072;0.0896;
3099522925388356;0.1208;0.0306;0.0790;
3099522935495179;0.0931;0.0072;0.1152;
3099522945618460;0.1069;0.0051;0.1237;
3099522955725283;0.0877;0.0200;0.0875;
3099522965832106;0.1048;-0.0375;0.0609;
3099522975932418;0.1506;-0.0258;0.0566;
3099522986039241;0.1740;0.0029;0.0896;
3099522996146064;0.1847;0.0498;0.0758;
3099523006284762;0.1463;0.0210;0.1003;
3099523016391585;0.0941;-0.0056;0.0715;
3099523026498408;0.0196;0.0402;0.0438;
3099523036582262;-0.0325;0.0519;0.0289;
3099523046689085;-0.0826;0.0413;-0.0073;
3099523056795908;-0.1316;0.0391;-0.0137;
3099523066894449;-0.2072;0.0328;-0.0265;
3099523077001272;-0.3041;0.0519;-0.0425;
3099523087108095;-0.3744;-0.1366;-0.0670;
3099523097214345;-0.3819;-0.0834;-0.0798;
3099523107321168;-0.4852;-0.0887;-0.1096;
3099523117427991;-0.5278;-0.0802;-0.0979;
3099523127550699;-0.5193;0.0328;-0.0734;
3099523137657522;-0.5470;0.0711;-0.0947;
3099523147764345;-0.5491;0.0455;-0.0723;
3099523157876116;-0.5246;0.0146;-0.1128;
3099523167982939;-0.4192;-0.0013;-0.0606;
3099523178089762;-0.4106;0.0839;-0.0872;
3099523188194449;-0.3893;0.0786;-0.0936;
3099523198301272;-0.3403;-0.0024;-0.0862;
3099523208408095;-0.2839;0.0242;-0.0957;
3099523218501012;-0.2434;-0.0237;-0.0744;
3099523228607835;-0.2359;-0.0386;-0.0798;
3099523238714658;-0.1667;-0.0780;-0.0734;
3099523248834345;-0.0783;-0.0035;-0.0819;
3099523258941168;-0.0655;-0.0386;-0.0340;
3099523269047991;-0.0421;-0.1132;-0.0435;
3099523279151012;-0.0325;-0.0525;-0.0031;
3099523289257835;-0.0421;-0.0248;-0.0403;
3099523299364658;-0.0346;-0.0344;-0.0158;
3099523309467470;-0.0506;0.0029;-0.0350;
3099523319574293;-0.0368;0.0455;-0.0180;
3099523329681116;-0.0794;0.0583;-0.0126;
3099523339796533;-0.0730;0.0796;0.0065;
3099523349903356;-0.0932;0.0722;-0.0276;
3099523360010179;-0.0613;0.0679;-0.0286;
3099523370139449;-0.0847;-0.0088;-0.0329;
3099523380246272;-0.0847;-0.0056;-0.0691;
3099523390353095;-0.0687;0.0509;-0.0435;
3099523400440491;-0.0772;0.0679;-0.0499;
3099523410547314;-0.0676;0.0413;-0.0648;
3099523420654137;-0.0442;0.0903;-0.0744;
3099523430770543;-0.0252;0.1189;-0.0553;
3099523440877366;-0.0305;0.1115;-0.0872;
3099523450984189;0.0025;0.0658;-0.0755;
3099523461076741;-0.0081;-0.0706;-0.0691;
3099523471183564;0.0451;-0.0695;-0.0840;
3099523481290387;0.0899;0.1189;-0.1277;
3099523491391741;0.0888;0.1945;-0.1032;
3099523501498564;0.1122;0.0306;-0.0989;
3099523511605387;0.2348;-0.0429;-0.0968;
3099523521737314;0.1975;0.0466;-0.1234;
3099523531844137;0.1325;0.0466;-0.1192;
3099523541950960;0.1336;-0.0684;-0.1000;
3099523552035595;0.1623;-0.1409;-0.1064;
3099523562142418;0.1644;-0.1398;-0.0989;
3099523572249241;0.1293;-0.1153;-0.1160;
3099523582358564;0.1996;0.0136;-0.1043;
3099523592465335;0.2337;0.1541;-0.1341;
3099523602572106;0.2060;0.0487;-0.1075;
3099523612676897;0.1996;-0.0589;-0.1383;
3099523622783668;0.1868;-0.0493;-0.1341;
3099523632890439;0.1442;0.0072;-0.1415;
3099523643015022;0.1197;-0.0897;-0.1458;
3099523653121793;0.1953;-0.1366;-0.1117;
3099523663228564;0.2060;-0.0035;-0.1533;
3099523673312783;0.2411;-0.0940;-0.1128;
3099523683419554;0.3338;-0.1068;-0.1202;
3099523693526324;0.3924;0.0328;-0.1149;
3099523703639970;0.4297;-0.0344;-0.0670;
3099523713746741;0.4584;-0.1792;-0.0393;
3099523723853512;0.5893;-0.4381;0.0119;
3099523733958720;0.7044;-0.2304;-0.0489;
3099523744065491;0.7971;0.0146;-0.0073;
3099523754172262;1.0495;-0.0194;0.0640;
3099523764282314;1.2166;-0.0866;0.0896;
3099523774389085;1.2816;-0.0993;0.0779;
3099523784495856;1.2710;-0.0514;0.1013;
3099523794596637;1.2028;-0.1057;0.1652;
3099523804703408;1.1911;-0.0961;0.1887;
3099523814810179;1.1369;-0.0035;0.1770;
3099523824984137;1.0687;0.0232;0.2079;
3099523835090908;0.9824;-0.0205;0.2345;
3099523845197679;0.8620;-0.0940;0.2068;
3099523855247991;0.7651;-0.1909;0.2174;
3099523865354762;0.6522;-0.1366;0.2334;
3099523875461533;0.5861;0.0061;0.2377;
3099523885604137;0.5904;0.0455;0.2366;
3099523895710908;0.5490;0.0647;0.2324;
3099523905817679;0.4979;0.1125;0.2494;
3099523915902158;0.4606;0.1063;0.2430;
3099523926008929;0.4595;0.0935;0.2547;
3099523936115699;0.4446;0.1668;0.2600;
3099523946231533;0.3988;0.1860;0.2579;
3099523956338304;0.3924;0.1956;0.2750;
3099523966445074;0.3274;0.0988;0.2931;
3099523976526012;0.1921;0.0647;0.3112;
3099523986632783;0.1240;0.0423;0.3325;
3099523996739554;0.0473;0.0700;0.3474;
3099524006848512;0.0430;0.0818;0.3836;
3099524016955283;0.0057;0.0999;0.4060;
3099524027062054;-0.0570;0.0242;0.4623;
3099524037167679;-0.0911;0.1615;0.4623;
3099524047274449;-0.1188;0.1764;0.4538;
3099524057381220;-0.2573;0.0690;0.4815;
3099524067482679;-0.3883;0.0594;0.4964;
3099524077589449;-0.4714;0.0647;0.4517;
3099524087696220;-0.5715;0.0360;0.4463;
3099524097813824;-0.6555;-0.0099;0.4293;
3099524107920595;-0.7290;-0.0386;0.4272;
3099524118027366;-0.7738;-0.0109;0.4071;
3099524128130908;-0.7748;0.0541;0.3708;
3099524138237679;-0.8345;0.1031;0.3336;
3099524148344449;-0.9730;-0.0130;0.3154;
3099524158451012;-1.0177;-0.0312;0.3218;
3099524168557783;-1.0262;0.0477;0.3091;
3099524178664554;-0.9943;0.0807;0.2483;
3099524188775804;-0.9943;0.0999;0.2334;
3099524198882574;-1.0624;0.0881;0.2100;
3099524208989345;-1.0710;0.0221;0.1865;
3099524219094970;-0.9623;-0.0035;0.1557;
3099524229201741;-0.9122;0.0221;0.1077;
3099524239308512;-0.9186;0.0019;0.1045;
3099524249426949;-0.9325;0.0051;0.0619;
3099524259533720;-0.9442;-0.0951;0.0374;
3099524269640491;-0.8909;-0.1313;0.0023;
3099524279740595;-0.7066;0.0136;-0.0382;
3099524289847366;-0.6280;0.0892;-0.0680;
3099524299954137;-0.6672;0.0754;-0.0862;
3099524310055908;-0.6438;0.1041;-0.0776;
3099524320162679;-0.5598;0.0818;-0.0862;
3099524330269449;-0.5555;0.0977;-0.1501;
3099524340376533;-0.4458;0.0796;-0.1373;
3099524350483304;-0.3190;0.1786;-0.1202;
3099524360590074;-0.3627;0.2031;-0.1565;
3099524370700491;-0.4447;0.0647;-0.1810;
3099524380807262;-0.4096;0.0274;-0.1905;
3099524390914033;-0.3734;0.0040;-0.1969;
3099524401001220;-0.3659;-0.0589;-0.2075;
3099524411107991;-0.3531;-0.0631;-0.2320;
3099524421214762;-0.2935;-0.0120;-0.2298;
3099524431321533;-0.2455;0.0445;-0.2192;
3099524441445074;-0.3393;0.0008;-0.2149;
3099524451551845;-0.3830;-0.0407;-0.2383;
3099524461658616;-0.2434;0.1573;-0.2415;
3099524471768095;-0.2061;0.1913;-0.2565;
3099524481874866;-0.4170;0.0828;-0.2426;
3099524491981637;-0.4341;0.0935;-0.2916;
3099524502089137;-0.3180;0.0945;-0.2650;
3099524512195908;-0.3201;0.0828;-0.2852;
3099524522302679;-0.3041;0.0115;-0.2799;
3099524532407158;-0.1816;0.0402;-0.2788;
3099524542513929;-0.0666;0.1168;-0.2842;
3099524552620699;-0.1550;0.0093;-0.2916;
3099524562737887;-0.1017;-0.0493;-0.2884;
3099524572844658;0.1506;0.0136;-0.2426;
3099524582951429;0.2635;0.0839;-0.2106;
3099524593050699;0.2220;0.0381;-0.1989;
3099524603157470;0.1783;0.0029;-0.1639;
3099524613264293;0.3136;0.0178;-0.1277;
3099524623368408;0.4563;0.0732;-0.1053;
3099524633475179;0.3338;-0.0035;-0.0851;
3099524643582001;0.2720;-0.0375;-0.0606;
3099524653720387;0.3903;-0.0823;-0.0286;
3099524663827158;0.4968;-0.0248;0.0342;
3099524673933981;0.4755;0.0519;0.0587;
3099524684005179;0.4148;-0.0727;0.1003;
3099524694111949;0.3839;-0.0120;0.1173;
3099524704218772;0.3583;0.0498;0.0822;
3099524714333304;0.3040;0.0178;0.1130;
3099524724440074;0.1549;-0.0269;0.1450;
3099524734546897;0.1005;-0.0471;0.1546;
3099524744649554;0.0579;-0.0290;0.1237;
3099524754756376;0.0387;0.0328;0.1024;
3099524764863147;-0.0708;-0.0045;0.1205;
3099524774969449;-0.1603;-0.0482;0.1237;
3099524785076220;-0.1411;0.0647;0.0981;
3099524795183043;-0.1869;0.0615;0.0928;
3099524805278616;-0.2828;0.0104;0.0896;
3099524815385387;-0.3340;-0.0333;0.0640;
3099524825492210;-0.3073;-0.0035;0.0704;
3099524835617783;-0.2690;0.0690;0.0513;
3099524845724554;-0.2871;0.0296;0.0129;
3099524855831376;-0.2988;-0.0130;0.0214;
3099524865978460;-0.2051;0.1168;0.0023;
3099524876085231;-0.1795;0.0093;-0.0137;
3099524886192054;-0.1869;-0.0620;0.0246;
3099524896281429;-0.0953;0.0519;0.0076;
3099524906388199;-0.0506;0.0658;0.0044;
3099524916495022;-0.0868;-0.0067;-0.0297;
3099524926605179;-0.0538;0.0413;-0.0340;
3099524936711949;-0.0188;0.0136;-0.0425;
3099524946818772;0.0111;0.0051;-0.0286;
3099524956902158;0.0174;0.0668;-0.0478;
3099524967008929;-0.0092;-0.0258;-0.0265;
3099524977115751;0.0100;-0.0216;-0.0393;
3099524987224241;0.0387;0.0370;-0.0105;
3099524997331012;-0.0017;0.0157;-0.0244;
3099525007437835;-0.0209;-0.0003;-0.0382;
3099525017547470;-0.0527;-0.0908;-0.0009;
3099525027654241;-0.0389;-0.0099;-0.0169;
3099525037761064;-0.0463;0.0285;-0.0158;
3099525047869970;-0.0953;-0.0684;-0.0084;
3099525057976741;-0.0794;0.0136;-0.0393;
3099525068083564;-0.0794;-0.0056;-0.0222;
3099525078190231;-0.1379;-0.0951;-0.0169;
3099525088297001;-0.1017;-0.0024;-0.0403;
3099525098403824;-0.0783;0.1146;-0.0222;
3099525108508929;-0.1166;-0.0120;-0.0073;
3099525118615699;-0.1316;-0.0951;-0.0190;
3099525128722522;-0.1028;0.0370;-0.0414;
3099525138826429;-0.0858;-0.0077;-0.0393;
3099525148933199;-0.0730;-0.0503;-0.0052;
3099525159040022;-0.0495;-0.0067;-0.0020;
3099525169153824;-0.0559;-0.0024;0.0150;
3099525179260595;-0.0623;-0.0802;-0.0009;
3099525189367418;-0.0399;-0.0322;0.0012;
3099525199475595;-0.0166;0.0040;-0.0031;
3099525209582366;-0.0294;-0.0056;-0.0041;
3099525219689189;-0.0336;-0.0003;-0.0031;
3099525229824554;-0.0399;0.0221;-0.0126;
3099525239931324;-0.0294;0.0136;-0.0052;
3099525250038147;0.0025;0.0072;0.0193;
3099525260111949;-0.0177;0.0945;0.0055;
3099525270218720;-0.0453;0.1573;-0.0126;
3099525280325543;-0.1049;0.0988;0.0023;
3099525290433720;-0.1369;-0.0716;0.0161;
3099525300540491;-0.1081;0.0146;-0.0222;
3099525310647314;-0.0740;0.0519;0.0065;
3099525320749970;-0.0985;-0.0024;0.0108;
3099525330856741;-0.0772;0.1031;-0.0361;
3099525340963564;-0.0836;0.1487;-0.0116;
3099525351073304;-0.1060;0.0306;-0.0063;
3099525361180074;-0.1017;0.0722;-0.0233;
3099525371286897;-0.1039;0.0690;-0.0169;
3099525381388668;-0.1326;0.0594;-0.0467;
3099525391495439;-0.1358;0.0168;-0.0414;
3099525401602262;-0.0932;0.0008;-0.0499;
3099525411730074;-0.0996;0.0168;-0.0574;
3099525421836845;-0.1028;0.0072;-0.0712;
3099525431943668;-0.1145;-0.0535;-0.0830;
3099525442039137;-0.1188;-0.1132;-0.0308;
3099525452145908;-0.0953;-0.1302;-0.0425;
3099525462252731;-0.0463;-0.0716;-0.0510;
3099525472367679;-0.0613;-0.0695;-0.0670;
3099525482474449;-0.0847;-0.0908;-0.0574;
3099525492581272;-0.0495;-0.0141;-0.0201;
3099525502681741;-0.0124;0.0583;-0.0393;
3099525512788512;-0.0762;-0.0077;-0.0446;
3099525522895335;-0.1944;-0.1345;-0.0553;
3099525532999762;-0.1316;-0.0503;-0.0478;
3099525543106533;-0.0644;0.0818;-0.0574;
3099525553213356;-0.0836;0.0519;-0.0595;
3099525563349501;-0.1017;0.0871;-0.0936;
3099525573456272;-0.1635;-0.0610;-0.0723;
3099525583563095;-0.1656;-0.0258;-0.0830;
3099525593637106;-0.1028;0.0477;-0.1021;
3099525603743929;-0.0815;-0.0557;-0.1043;
3099525613850751;-0.0730;-0.0152;-0.1149;
3099525623962991;-0.0687;0.0360;-0.0862;
3099525634069814;-0.0836;-0.0280;-0.0915;
3099525644176637;-0.0762;-0.0589;-0.0979;
3099525654284866;-0.0836;-0.0557;-0.1533;
3099525664391689;-0.0262;-0.0706;-0.1479;
3099525674498512;0.0004;-0.0407;-0.0989;
3099525684606012;-0.0145;-0.0557;-0.1181;
3099525694712835;-0.0166;-0.0599;-0.1256;
3099525704819658;-0.0156;-0.0344;-0.1085;
3099525714977470;-0.0198;-0.0194;-0.1117;
3099525725084293;-0.0431;-0.0471;-0.0968;
3099525735191116;-0.0634;-0.0706;-0.0862;
3099525745244658;-0.0442;-0.0727;-0.1032;
3099525755351481;-0.0103;-0.0461;-0.1128;
3099525765458304;-0.0346;-0.0375;-0.1341;
3099525775613199;-0.0410;-0.1068;-0.1469;
3099525785720022;-0.0188;-0.0407;-0.1682;
3099525795826845;0.0324;-0.0237;-0.1575;
3099525805882470;0.0047;-0.0663;-0.1415;
3099525815989293;-0.0060;-0.0397;-0.1682;
3099525826096116;0.0377;-0.0897;-0.1266;
3099525836207158;0.0302;-0.1356;-0.1575;
3099525846313981;0.1069;-0.0099;-0.1799;
3099525856420804;0.1176;-0.0525;-0.1650;
3099525866531116;0.0984;-0.1111;-0.1533;
3099525876637939;0.1378;-0.0248;-0.1277;
3099525886744762;0.1591;0.0306;-0.1298;
3099525896876324;0.1005;-0.0706;-0.1138;
3099525906983147;0.0366;-0.1111;-0.1426;
3099525917089970;0.1442;-0.0152;-0.1245;
3099525927172366;0.2209;0.0232;-0.1373;
3099525937279189;0.2188;0.0210;-0.1309;
3099525947386012;0.1399;0.0360;-0.1192;
3099525957486481;0.0750;-0.0578;-0.1043;
3099525967593304;0.1293;0.0125;-0.0819;
3099525977700126;0.2241;0.0818;-0.1096;
3099525987815231;0.2284;0.0498;-0.1053;
3099525997922054;0.1059;-0.0045;-0.1107;
3099526008028876;0.1229;0.0328;-0.0787;
3099526018139137;0.2337;0.1285;-0.0627;
3099526028245960;0.1474;0.0232;-0.0425;
3099526038352783;0.0100;-0.0759;-0.0595;
3099526048459866;0.1527;0.0423;-0.0244;
3099526058566689;0.2081;0.0871;-0.0340;
3099526068673512;0.1591;0.0168;-0.0457;
3099526078777731;0.1112;0.0487;-0.0233;
3099526088884554;0.1005;0.0551;-0.0148;
3099526098991376;0.1080;0.0296;-0.0041;
3099526109098824;0.1165;0.0551;-0.0116;
3099526119205647;0.1399;0.0658;-0.0148;
3099526129312470;0.1208;0.0370;0.0097;
3099526139437887;0.0856;0.0253;0.0140;
3099526149544710;0.0909;0.0423;0.0087;
3099526159651533;0.1037;0.0189;0.0225;
3099526169740908;0.1101;0.0253;0.0289;
3099526179847731;0.1059;0.0615;0.0150;
3099526189954554;0.0686;0.0626;0.0257;
3099526200065179;0.0750;-0.0237;0.0545;
3099526210172001;0.0803;-0.0109;0.0502;
3099526220278824;0.1176;0.0690;0.0364;
3099526230383512;0.0601;-0.0748;0.0800;
3099526240490335;0.0196;-0.1430;0.0736;
3099526250597158;0.1346;-0.0035;0.0598;
3099526260710491;0.1921;-0.0354;0.1099;
3099526270817314;0.1367;-0.0738;0.0736;
3099526280924137;0.0973;0.0093;0.0843;
3099526291018981;0.0728;0.0125;0.1184;
3099526301125804;0.0622;-0.0471;0.1216;
3099526311232626;0.0366;-0.0418;0.1130;
3099526321340908;0.0441;-0.0045;0.1130;
3099526331447731;0.0601;-0.0269;0.1216;
3099526341554554;0.0601;-0.0003;0.1152;
3099526351666897;0.0419;0.0317;0.1280;
3099526361773720;0.0377;0.0477;0.1589;
3099526371880543;-0.0081;0.0178;0.1184;
3099526381987262;-0.0188;0.0881;0.0779;
3099526392094085;-0.0188;0.0775;0.1141;
3099526402200908;-0.0826;-0.0429;0.0672;
3099526412314241;-0.0368;-0.0312;0.0832;
3099526422421064;0.0739;-0.0003;0.1109;
3099526432527887;0.0995;0.0892;0.0992;
3099526442624293;0.0270;0.1242;0.1152;
3099526452731116;-0.1177;-0.1164;0.1130;
3099526462837939;-0.1092;-0.1387;0.1130;
3099526472959137;0.0654;0.1125;0.0854;
3099526483065960;0.1581;0.1583;0.0790;
3099526493172783;0.0132;0.0455;0.1322;
3099526503271637;-0.1965;-0.0983;0.1301;
3099526513378460;-0.2583;-0.1196;0.1269;
3099526523485283;-0.0485;0.1253;0.0023;
3099526533592314;0.1410;0.1328;0.0374;
3099526543699137;-0.0357;0.1221;0.0598;
3099526553805960;-0.1486;0.0594;0.0619;
3099526563924866;-0.2178;-0.0226;-0.0020;
3099526574031689;-0.2359;-0.0269;0.0033;
3099526584138512;-0.1379;0.0040;-0.0095;
3099526594224658;0.0249;0.1221;-0.0222;
3099526604331481;-0.0209;0.0850;-0.0467;
3099526614438356;-0.2029;-0.1643;-0.0403;
3099526624544554;-0.1997;-0.1409;-0.0265;
3099526634651376;0.0590;0.0083;-0.0446;
3099526644758251;0.1016;-0.0237;-0.0361;
3099526654902991;0.0015;0.1093;-0.0073;
3099526665009814;-0.0719;-0.0035;-0.0638;
3099526675116689;-0.0804;-0.1377;-0.0276;
3099526685194970;-0.0783;0.0051;-0.0478;
3099526695301793;0.0089;0.0977;-0.0638;
3099526705408668;-0.0284;0.0445;-0.0766;
3099526715551741;-0.0581;0.0498;-0.0467;
3099526725658564;-0.1081;0.0668;-0.0776;
3099526735765439;-0.1060;-0.0216;-0.0925;
3099526745822158;-0.0495;-0.0077;-0.1181;
3099526755928981;0.0441;0.1189;-0.0808;
3099526766035856;0.0217;0.1041;-0.0893;
3099526776172366;-0.0644;-0.0929;-0.0819;
3099526786279189;-0.0442;-0.0397;-0.0883;
3099526796386064;0.0409;0.0008;-0.0979;
3099526806478616;0.1101;-0.0205;-0.0680;
3099526816585439;0.0867;0.0743;-0.0819;
3099526826692314;-0.0017;0.0285;-0.0872;
3099526836801897;-0.0623;-0.1590;-0.0212;
3099526846908720;0.0089;-0.0067;-0.0585;
3099526857015595;0.2230;0.1860;-0.0521;
3099526867126533;0.1826;0.1189;-0.0638;
3099526877233356;-0.0399;0.0913;-0.0787;
3099526887340231;-0.2381;0.0285;-0.0712;
3099526897457679;-0.3350;-0.0780;-0.0585;
3099526907564501;-0.1433;-0.0823;-0.0755;
3099526917671376;0.1581;0.0328;-0.1266;
3099526927766116;0.2646;0.1722;-0.1266;
3099526937872939;0.1964;0.0956;-0.1011;
3099526947979814;-0.0836;-0.1057;-0.0712;
3099526958088095;-0.1326;-0.0269;-0.1320;
3099526968194918;0.0792;0.0647;-0.1107;
3099526978301793;0.0941;0.0232;-0.1053;
3099526988401845;-0.0017;-0.0375;-0.1170;
3099526998508668;0.0174;-0.1164;-0.0691;
3099527008615543;0.0750;-0.1270;-0.0403;
3099527018726116;0.1698;-0.0077;-0.0457;
3099527028832939;0.2475;0.0764;-0.0329;
3099527038939814;0.1644;0.0434;-0.0712;
3099527049053408;-0.0007;0.0008;-0.0851;
3099527059160231;-0.0188;0.0264;-0.0457;
3099527069267106;0.0356;0.0264;-0.0840;
3099527079370804;0.0345;-0.0322;-0.0968;
3099527089477626;0.1016;0.1434;-0.0617;
3099527099584501;0.0558;0.0786;-0.0393;
3099527109690283;0.0036;-0.0546;-0.0574;
3099527119797106;0.0622;0.1221;-0.0840;
3099527129903981;0.0739;0.0285;-0.0617;
3099527140026376;0.0324;0.0093;-0.0702;
3099527150133199;0.0888;0.0061;-0.0712;
3099527160240074;0.0707;-0.1132;-0.0169;
3099527170336481;0.1165;0.0690;-0.0489;
3099527180443304;0.1431;-0.0493;-0.0691;
3099527190550179;0.0771;-0.0546;-0.0553;
3099527200657262;0.0377;-0.0237;-0.0190;
3099527210764085;0.1048;-0.1782;-0.0116;
3099527220870960;0.2401;0.0775;-0.0382;
3099527230983095;0.2901;0.1850;-0.0286;
3099527241089918;0.0558;-0.0099;-0.0425;
3099527251196793;-0.1486;-0.2463;-0.0105;
3099527261297262;-0.0698;-0.0812;-0.0265;
3099527271404085;0.1953;0.1136;-0.0254;
3099527281510960;0.1889;0.0104;-0.0297;
3099527291615751;0.0377;-0.0812;-0.0510;
3099527301722574;0.0441;-0.1270;-0.0020;
3099527311829449;0.1176;-0.0322;-0.0265;
3099527321920387;0.1612;0.0594;-0.0531;
3099527332027210;0.1293;-0.0780;-0.0286;
3099527342134085;0.1101;-0.0152;-0.0222;
3099527352264658;0.0973;-0.0802;-0.0190;
3099527362371533;0.0803;-0.1569;-0.0116;
3099527372478356;0.1304;0.0072;-0.0084;
3099527382580908;0.1602;-0.0056;-0.0265;
3099527392687731;0.0835;-0.1132;0.0001;
3099527402794606;0.0835;-0.0546;0.0364;
3099527412911637;0.1069;-0.0258;0.0108;
3099527423018460;0.0579;-0.2453;0.0278;
3099527433125335;0.0377;-0.3241;0.0332;
3099527443239554;0.3040;-0.0216;0.0097;
3099527453346376;0.8003;0.2904;0.0140;
3099527463453251;0.8642;0.3863;0.0459;
3099527473551533;0.3072;0.1551;0.1514;
3099527483658356;-0.0336;-0.1835;0.2228;
3099527493765231;-0.2168;-0.0375;0.1344;
3099527503864449;-0.0826;0.2137;0.0587;
3099527513971272;0.1122;0.1615;0.0704;
3099527524078147;0.0558;0.0370;0.0758;
3099527534194397;0.0611;0.0956;0.0949;
3099527544301272;0.0856;0.0892;0.0619;
3099527554408095;0.0963;0.1690;0.0513;
3099527564502470;0.1186;0.2744;0.0172;
3099527574609293;-0.0209;-0.2154;-0.0169;
3099527584716168;-0.0092;-0.3305;0.0438;
3099527594879554;0.1559;-0.1249;0.0609;
3099527604986376;0.1602;-0.1835;0.1216;
3099527615093251;0.0814;-0.2431;0.1024;
3099527625128356;0.1346;0.0466;0.0800;
3099527635235179;0.1644;0.1253;0.1035;
3099527645342054;0.0057;-0.1835;0.1834;
3099527655485074;-0.0325;0.0168;0.1290;
3099527665591897;0.0196;0.0860;0.0470;
3099527675698772;0.0483;0.0828;0.0747;
3099527685798304;-0.0591;0.0200;0.0619;
3099527695905126;-0.0889;0.1178;0.0427;
3099527706012001;-0.0410;0.1031;0.0161;
3099527716132783;-0.0549;-0.0567;0.0609;
3099527726239606;-0.0730;0.0445;0.0417;
3099527736346481;0.0814;0.1945;-0.0020;
3099527746446637;0.0409;-0.0663;-0.0372;
3099527756553460;-0.0007;-0.1909;-0.0105;
3099527766660335;0.0846;0.0754;0.0587;
3099527776750647;0.0611;-0.0759;0.0289;
3099527786857470;0.1527;-0.0674;0.0981;
3099527796964345;0.1559;0.1083;0.0502;
3099527807079970;0.1314;0.0498;0.0971;
3099527817186793;0.0185;0.0509;0.1067;
3099527827293668;-0.0900;-0.0407;0.0534;
3099527837396741;-0.1017;-0.0344;0.1013;
3099527847503564;-0.0538;0.0178;0.0364;
3099527857610439;-0.0124;0.0796;0.0609;
3099527867713304;-0.1284;-0.0578;0.0971;
3099527877820126;-0.2189;-0.1313;0.0300;
3099527887927001;-0.0474;-0.0003;0.0427;
3099527898067783;-0.0431;0.0083;-0.0254;
3099527908174606;-0.1177;-0.0897;-0.0308;
3099527918281481;-0.1305;-0.2293;0.0076;
3099527928358720;-0.0623;-0.2261;-0.0169;
3099527938465543;0.0867;0.0498;-0.0446;
3099527948572418;0.0920;-0.0322;0.0119;
3099527958682991;0.0047;-0.1036;0.0321;
3099527968789814;0.0409;0.0072;0.0427;
3099527978896689;0.0920;0.0924;0.0364;
3099527988998408;0.0430;0.1796;-0.0020;
3099527999105231;-0.0410;0.2244;-0.0297;
3099528009212106;-0.1262;-0.0887;0.0246;
3099528019319762;-0.2253;-0.0386;-0.0531;
3099528029426585;-0.1348;0.1818;-0.0830;
3099528039533460;0.0025;0.0605;-0.1000;
3099528049644345;0.0015;0.1125;-0.1533;
3099528059751168;0.0089;0.1636;-0.1426;
3099528069858043;-0.0252;-0.0748;-0.1224;
3099528079965387;-0.0113;-0.0578;-0.1650;
3099528090072210;0.0941;-0.1579;-0.1309;
3099528100179085;0.1165;-0.2059;-0.0872;
3099528110293929;0.2284;-0.0077;-0.1043;
3099528120400751;0.2901;0.0040;-0.0329;
3099528130507626;0.1325;-0.1356;0.0182;
3099528140609658;0.0952;-0.0908;-0.0041;
3099528150716481;0.2848;0.1573;0.0023;
3099528160823356;0.3136;0.3128;-0.0361;
3099528170935804;-0.0007;0.0264;-0.0425;
3099528181042626;-0.3691;-0.2921;-0.0382;
3099528191149501;-0.2040;0.0178;-0.0936;
3099528201260387;0.2252;0.3213;-0.1767;
3099528211367210;0.2166;-0.0216;-0.1000;
3099528221474085;-0.0220;-0.0375;-0.0840;
3099528231573408;0.0739;0.0402;-0.0648;
3099528241680231;0.1655;-0.0407;-0.0830;
3099528251787106;0.1879;0.0828;-0.0968;
3099528261896533;0.1868;-0.0141;-0.0702;
3099528272003356;0.1367;-0.2165;0.0182;
3099528282110231;0.1953;0.0136;0.0012;
3099528292214658;0.3796;0.2052;-0.0340;
3099528302321481;0.2678;0.0551;-0.0084;
3099528312428356;0.0217;-0.1142;0.0651;
3099528322515699;0.0281;-0.0386;0.0470;
3099528332622522;0.2028;0.0615;0.0257;
3099528342729397;0.1879;-0.0258;0.0513;
3099528352859137;0.1048;-0.1238;0.1152;
3099528362965960;0.2635;0.2744;0.0747;
3099528373072835;0.2955;0.1924;0.0800;
3099528383177887;-0.0889;-0.1814;0.1067;
3099528393284710;-0.1891;-0.0248;0.0534;
3099528403391585;0.1367;0.0892;0.0875;
3099528413501116;0.1495;-0.0514;0.1354;
3099528423607939;0.0419;-0.0322;0.0800;
3099528433714814;0.1495;0.0913;0.0843;
3099528443810283;0.1048;0.1200;0.1003;
3099528453917106;0.0025;-0.0823;0.1173;
3099528464023981;-0.0049;-0.0834;0.1514;
3099528474149762;0.0739;-0.1334;0.1365;
3099528484256585;0.0835;-0.2570;0.1865;
3099528494363460;0.1208;0.0051;0.1748;
3099528504468095;0.1826;0.0860;0.1642;
3099528514574918;0.0153;-0.1142;0.1589;
3099528524681793;-0.1582;-0.1590;0.1631;
3099528534781741;-0.0932;-0.0237;0.1557;
3099528544888616;0.1069;0.1093;0.1397;
3099528554995491;0.0100;-0.1387;0.2185;
3099528565103824;0.0004;0.0200;0.2398;
3099528575210699;0.1666;0.3692;0.1961;
3099528585317574;0.0451;0.1754;0.1738;
3099528595422054;-0.2232;-0.0152;0.2068;
3099528605528929;-0.3787;0.0136;0.2249;
3099528615635804;-0.0740;0.2414;0.1290;
3099528625734866;0.1698;0.3458;0.1248;
3099528635841741;-0.0346;0.1232;0.1834;
3099528645948616;-0.0634;0.3213;0.1631;
3099528656087574;0.0505;0.4268;0.1067;
3099528666194449;-0.1699;0.0786;0.1631;
3099528676301324;-0.3712;0.1668;0.1727;
3099528686406845;-0.3073;-0.0546;0.1375;
3099528696513720;-0.1379;-0.2410;0.1088;
3099528706620595;0.0004;-0.0003;0.0981;
3099528716721533;-0.0453;-0.0791;0.1045;
3099528726828408;-0.1177;-0.1462;0.1162;
3099528736935283;-0.0943;-0.2367;0.1365;
3099528747044137;-0.0879;-0.3720;0.1471;
3099528757151012;-0.0826;-0.2144;0.0960;
3099528767257887;-0.0474;-0.3007;0.1375;
3099528777351220;-0.0889;-0.3561;0.1589;
3099528787458095;-0.0230;-0.1047;0.2089;
3099528797564970;-0.0325;0.0210;0.1674;
3099528807673981;-0.0730;-0.0162;0.1759;
3099528817780856;-0.0889;0.0700;0.1365;
3099528827887731;-0.0485;0.1999;0.0907;
3099528838000804;-0.1198;0.2776;0.0854;
3099528848107679;-0.3382;0.0743;0.0758;
3099528858214554;-0.4426;0.0029;0.0566;
3099528868313772;-0.2221;0.4001;0.0353;
3099528878420647;-0.0581;0.4651;-0.0318;
3099528888527522;-0.2871;0.0146;-0.0499;
3099528898652054;-0.4778;-0.0450;-0.0116;
3099528908758929;-0.2381;0.1903;-0.0830;
3099528918865804;0.0483;0.0860;-0.0542;
3099528928964137;-0.0698;-0.0450;-0.0553;
3099528939071012;-0.1284;-0.0748;-0.0393;
3099528949177887;-0.0708;-0.1632;-0.0350;
3099528959278408;0.0302;-0.0226;-0.0137;
3099528969385283;0.0931;0.0391;0.0140;
3099528979492158;-0.0368;-0.0834;0.0257;
3099528989598929;-0.1976;-0.0876;0.0790;
3099528999705804;-0.2253;-0.0162;0.0470;
3099529009812679;-0.2807;-0.0897;0.0001;
3099529019923564;-0.2317;-0.0280;-0.0286;
3099529030030439;-0.0985;0.0626;-0.0372;
3099529040137314;-0.1443;0.1072;-0.1075;
3099529050247262;-0.2221;0.0690;-0.1149;
3099529060354137;-0.2519;0.0210;-0.1298;
3099529070461012;-0.2040;-0.0546;-0.1469;
3099529080563512;-0.1294;-0.0940;-0.1415;
3099529090670387;-0.0666;-0.1632;-0.1032;
3099529100777262;-0.0177;-0.2218;-0.0670;
3099529110883981;0.0675;-0.2154;-0.0446;
3099529120990856;0.1570;0.0104;-0.0798;
3099529131097731;0.2273;0.1285;-0.0648;
3099529141213512;0.0941;-0.1675;-0.0105;
3099529151320387;-0.0506;-0.1387;0.0044;
3099529161427262;0.0792;0.1189;-0.0180;
3099529171528824;0.1559;-0.0759;-0.0158;
3099529181635699;0.0643;-0.1089;0.0758;
3099529191742574;0.0856;0.1509;0.1205;
3099529201839345;0.2007;0.1285;0.0449;
3099529211946220;0.0494;0.0722;0.0587;
3099529222053095;-0.1092;0.1349;0.0630;
3099529232169449;-0.0794;0.0807;0.0534;
3099529242276324;-0.0698;0.0700;0.0587;
3099529252383199;-0.0198;0.1093;0.0310;
3099529262489762;-0.0071;0.1104;0.0374;
3099529272596637;-0.0644;0.0115;0.0470;
3099529282703512;-0.0783;-0.0940;0.0779;
3099529292811637;-0.0336;-0.0322;0.0822;
3099529302918512;-0.0113;-0.0748;0.0843;
3099529313025387;-0.0081;-0.1089;0.1162;
3099529323126533;0.0111;0.0136;0.1482;
3099529333233408;-0.0188;0.0264;0.1322;
3099529343340283;-0.0368;0.0562;0.1461;
3099529353453824;-0.0751;0.1253;0.1365;
3099529363560699;-0.1933;0.0477;0.1099;
3099529373667574;-0.3361;-0.0546;0.0864;
3099529383766845;-0.3318;-0.0386;0.0640;
3099529393873720;-0.1880;0.0178;0.0395;
3099529403980595;-0.1582;-0.0535;0.0470;
3099529414098304;-0.2019;-0.0312;0.0214;
3099529424205179;-0.1369;-0.0003;0.0417;
3099529434312054;-0.0858;-0.0386;-0.0116;
3099529444418720;-0.1049;-0.0652;0.0140;
3099529454525595;-0.0495;0.0115;0.0289;
3099529464632470;0.0121;0.0743;0.0193;
3099529474733564;-0.0463;0.0850;0.0246;
3099529484840439;-0.1539;-0.0173;0.0406;
3099529494947314;-0.1177;0.0434;0.0182;
3099529505062158;-0.1113;0.0988;-0.0158;
3099529515169033;-0.1071;-0.0045;-0.0137;
3099529525275908;-0.1071;0.0349;-0.0265;
3099529535367054;-0.0943;0.0360;-0.0446;
3099529545473929;-0.1049;-0.0557;-0.0361;
3099529555580804;-0.0815;-0.0546;-0.0457;
3099529565690543;-0.0368;-0.0365;-0.0606;
3099529575797418;-0.0262;-0.0258;-0.0403;
3099529585904293;-0.0794;-0.0578;-0.0265;
3099529596024033;-0.0719;0.0381;-0.0329;
3099529606130908;-0.0517;0.0562;-0.0158;
3099529616237783;-0.0591;0.0668;-0.0403;
3099529626364137;-0.0666;0.1104;-0.0446;
3099529636471012;-0.0921;0.0370;-0.0201;
3099529646577887;-0.1571;-0.0642;-0.0989;
3099529656656324;-0.1134;-0.0407;-0.0947;
3099529666763199;-0.0485;0.0317;-0.1000;
3099529676870074;-0.0570;-0.0109;-0.0968;
3099529686980595;-0.0975;-0.1664;-0.0819;
3099529697087470;-0.0623;0.0296;-0.1053;
3099529707194345;-0.0336;-0.0130;-0.0276;
3099529717306429;-0.0581;-0.1952;-0.0627;
3099529727413304;-0.0124;-0.0844;-0.0606;
3099529737520179;-0.0177;0.0200;-0.0372;
3099529747617887;-0.0783;-0.0312;-0.0787;
3099529757724762;-0.1071;-0.0961;-0.0936;
3099529767831637;-0.0847;-0.0908;-0.0915;
3099529777946116;-0.0113;0.1210;-0.1085;
3099529788052991;-0.0591;0.0573;-0.1330;
3099529798159866;-0.1454;-0.0791;-0.1021;
3099529808268512;-0.1710;-0.1185;-0.1362;
3099529818375387;-0.0463;-0.0983;-0.1000;
3099529828482262;0.0366;0.1722;-0.1511;
3099529838583408;0.0739;0.1360;-0.1096;
3099529848690283;-0.0943;-0.0759;-0.0947;
3099529858797158;-0.1667;-0.0333;-0.1426;
3099529868922679;0.0302;0.1360;-0.1586;
3099529879029554;0.1218;0.2393;-0.1948;
3099529889136429;-0.0007;0.0093;-0.1213;
3099529899231116;-0.1411;-0.0439;-0.1053;
3099529909337991;-0.0357;0.0434;-0.1383;
3099529919444866;0.0249;-0.0407;-0.1383;
3099529929557366;0.0132;-0.0386;-0.1064;
3099529939664241;0.0430;-0.0812;-0.1043;
3099529949771116;0.0835;-0.1281;-0.0819;
3099529959872783;0.0973;-0.0493;-0.1117;
3099529969979658;0.1975;0.1296;-0.0989;
3099529980086533;0.2124;0.0360;-0.0478;
3099529990197887;0.0260;-0.1121;-0.0563;
3099530000304762;-0.0103;0.0136;-0.0478;
3099530010411637;0.0451;0.0764;-0.0531;
3099530020520908;0.0515;0.0445;-0.0563;
3099530030627783;0.0153;0.0871;-0.0744;
3099530040734658;0.0505;0.1413;-0.0766;
3099530050840179;0.0121;0.0668;-0.1032;
3099530060947054;-0.0177;-0.0429;-0.0915;
3099530071053929;0.0462;-0.0003;-0.0734;
3099530081161324;0.0920;0.0306;-0.1043;
3099530091268199;0.1112;-0.0258;-0.0680;
3099530101375074;0.0941;-0.0035;-0.0659;
3099530111484449;0.0835;-0.0503;0.0001;
3099530121591324;0.0483;-0.0929;-0.0052;
3099530131698199;0.0760;-0.0535;-0.0137;
3099530141808408;0.0782;-0.0471;-0.0105;
3099530151915283;0.0824;-0.0237;-0.0403;
3099530162022158;0.0760;0.0977;-0.0148;
3099530172124762;0.0462;0.0775;-0.0073;
3099530182231637;-0.0124;-0.0162;-0.0286;
3099530192338512;-0.1348;-0.0695;-0.0073;
3099530202447054;-0.1539;-0.0631;-0.0148;
3099530212553929;0.0174;-0.1089;-0.0137;
3099530222660804;0.0899;0.0232;-0.0063;
3099530232765387;0.0739;0.1530;-0.0276;
3099530242872262;0.0313;0.0349;-0.0340;
3099530252979137;-0.0230;-0.1004;0.0055;
3099530263080595;0.0270;-0.0258;-0.0073;
3099530273187470;0.0952;0.0370;-0.0041;
3099530283294345;0.0675;-0.0226;0.0236;
3099530293412887;0.0409;-0.0088;0.0395;
3099530303519762;0.0718;0.0711;0.0225;
3099530313626637;0.0579;0.0530;0.0417;
3099530323721741;0.0057;-0.0141;0.0140;
3099530333828616;0.0611;0.0370;0.0438;
3099530343935491;0.0419;0.0413;0.0502;
3099530354047991;0.0302;-0.0589;0.0545;
3099530364154866;0.0419;-0.0429;0.0438;
3099530374261741;0.0366;-0.0791;0.0395;
3099530384361897;0.0899;0.0296;0.0545;
3099530394468772;0.1730;0.1509;0.0907;
3099530404575647;0.0675;-0.0173;0.0939;
3099530414689241;-0.0241;-0.1398;0.1003;
3099530424796116;0.0824;0.0796;0.0790;
3099530434902991;0.0771;0.0306;0.1013;
3099530445018824;0.0356;-0.1153;0.1226;
3099530455125699;0.0686;0.0519;0.1205;
3099530465232574;0.0856;0.1690;0.0992;
3099530475342366;0.0302;0.0413;0.1386;
3099530485449241;-0.0442;0.0232;0.1077;
3099530495556116;-0.0389;0.0317;0.1056;
3099530505675699;-0.0230;-0.0482;0.1333;
3099530515782574;-0.0188;-0.0663;0.1290;
3099530525889449;-0.0049;0.0040;0.0992;
3099530535970908;0.0334;0.0146;0.1397;
3099530546077835;0.0100;-0.0887;0.1493;
3099530556184762;-0.0166;-0.0503;0.1067;
3099530566279137;0.0153;0.0477;0.1162;
3099530576386064;-0.0166;-0.0141;0.1567;
3099530586492991;-0.0698;-0.0375;0.1663;
3099530596631220;-0.0305;0.0370;0.1397;
3099530606738147;-0.0305;-0.0226;0.1312;
3099530616845074;-0.0676;-0.0162;0.1439;
3099530626935908;-0.0442;0.0583;0.1365;
3099530637042835;-0.0124;0.0732;0.1280;
3099530647149762;-0.0421;0.0455;0.1354;
3099530657262366;-0.0676;0.0786;0.1045;
3099530667369293;-0.0858;-0.0386;0.1184;
3099530677476220;-0.0804;-0.0258;0.1056;
3099530687582054;-0.0273;0.0285;0.0971;
3099530697688981;-0.0305;-0.0471;0.1130;
3099530707795908;-0.0273;-0.0194;0.1258;
3099530717891429;-0.0220;-0.0205;0.1099;
3099530727998356;-0.0049;0.0019;0.1354;
3099530738105283;-0.0060;-0.0099;0.1525;
3099530748219970;0.0015;0.0008;0.1354;
3099530758326897;-0.0378;0.0072;0.1141;
3099530768433824;-0.0708;-0.0727;0.1450;
3099530778535595;-0.0634;0.0423;0.1354;
3099530788642522;-0.0591;0.0306;0.1194;
3099530798749449;-0.0868;-0.0322;0.1365;
3099530808861533;-0.0762;0.0360;0.1003;
3099530818968460;-0.0602;0.0296;0.1109;
3099530829075387;-0.0740;0.0391;0.1280;
3099530839189814;-0.1241;-0.0120;0.1194;
3099530849296741;-0.0847;-0.0162;0.0832;
3099530859403668;-0.0549;0.0391;0.0949;
3099530869512262;-0.1294;0.0157;0.1312;
3099530879619189;-0.1699;-0.0120;0.1067;
3099530889726116;-0.1262;-0.0354;0.0822;
3099530899823981;-0.0581;0.0850;0.0917;
3099530909930908;-0.1923;-0.0077;0.1312;
3099530920037835;-0.2700;-0.1483;0.1216;
3099530930142731;-0.0921;0.0306;0.0790;
3099530940249658;0.0590;0.2254;0.0971;
3099530950356585;-0.0953;0.1328;0.1216;
3099530960472470;-0.2967;-0.0940;0.1439;
3099530970579397;-0.4256;-0.0162;0.1152;
3099530980686324;-0.2754;0.1679;0.0704;
3099530990793929;-0.1433;0.1020;0.0545;
3099531000900856;-0.2445;-0.0290;0.0715;
3099531011007783;-0.2796;0.0615;0.0651;
3099531021102991;-0.1326;0.2329;0.0140;
3099531031209918;-0.1667;0.0221;0.0076;
3099531041316845;-0.3435;-0.1419;-0.0084;
3099531051430074;-0.2604;-0.0312;0.0097;
3099531061537001;-0.0921;0.0839;0.0023;
3099531071643929;-0.2146;0.0679;-0.0148;
3099531081738251;-0.3446;-0.1004;-0.0190;
3099531091845179;-0.3361;0.0115;-0.0457;
3099531101952106;-0.2349;0.0509;-0.0244;
3099531112073720;-0.2594;0.0008;-0.0819;
3099531122180647;-0.3329;0.0189;-0.0734;
3099531132287574;-0.4181;-0.0642;-0.0968;
3099531142392887;-0.4064;-0.0823;-0.1234;
3099531152499814;-0.2924;-0.0748;-0.1245;
3099531162606741;-0.2253;-0.0546;-0.1565;
3099531172711949;-0.2391;-0.0503;-0.1628;
3099531182818876;-0.1901;0.1647;-0.2021;
3099531192925804;-0.1869;0.1168;-0.1873;
3099531203054345;-0.2935;-0.0375;-0.2202;
3099531213161272;-0.2935;0.0189;-0.2405;
3099531223268199;-0.2391;0.0338;-0.2479;
3099531233355387;-0.1901;-0.0216;-0.2554;
3099531243462314;-0.1124;0.0413;-0.2650;
3099531253569241;0.0217;0.1583;-0.2426;
3099531263681324;-0.0060;0.1317;-0.2735;
3099531273788251;-0.2061;-0.0237;-0.2522;
3099531283895179;-0.2274;-0.0461;-0.2660;
3099531293999137;-0.0570;-0.0482;-0.2937;
3099531304106064;0.0547;-0.0812;-0.2852;
3099531314212991;0.1772;-0.0972;-0.2479;
3099531324323824;0.3061;0.0221;-0.2053;
3099531334430751;0.3668;0.0594;-0.1863;
3099531344537679;0.2518;0.0125;-0.1820;
3099531354639241;0.0153;-0.0386;-0.1202;
3099531364746168;-0.0783;-0.0972;-0.1170;
3099531374853095;0.0760;0.0178;-0.1383;
3099531384983095;0.1921;0.1264;-0.1405;
3099531395090022;0.1048;0.0530;-0.0968;
3099531405196949;-0.0431;0.0562;-0.0851;
3099531415265804;-0.0378;0.0626;-0.1064;
3099531425372731;-0.0284;-0.0876;-0.0766;
3099531435479658;-0.0113;-0.1174;-0.0563;
3099531445596376;0.0664;0.0360;-0.0670;
3099531455703304;0.0718;-0.0024;-0.0318;
3099531465810231;-0.0996;-0.0961;-0.0372;
3099531475921012;-0.0975;-0.0727;-0.0137;
3099531486027939;-0.0252;-0.0344;0.0129;
3099531496134866;-0.0506;-0.0152;-0.0265;
3099531506260908;-0.0453;0.0455;-0.0063;
3099531516367835;-0.1348;0.1146;-0.0169;
3099531526474762;-0.2690;0.0360;-0.0169;
3099531536573824;-0.3893;-0.0184;-0.0542;
3099531546680751;-0.3031;0.0530;-0.1330;
3099531556787731;-0.1624;0.1063;-0.1277;
3099531566883981;-0.3041;0.0509;-0.1597;
3099531576990908;-0.3595;-0.0407;-0.1618;
3099531587097887;-0.1465;0.0115;-0.1916;
3099531597218720;-0.0644;0.0381;-0.2011;
3099531607325647;-0.0985;-0.0152;-0.1937;
3099531617432626;-0.0868;-0.1100;-0.2043;
3099531627526637;-0.0252;-0.0983;-0.2192;
3099531637633564;0.0696;0.0168;-0.1863;
3099531647740543;0.0217;-0.1292;-0.1916;
3099531657852470;-0.0284;-0.1451;-0.2245;
3099531667959397;0.1634;0.1041;-0.2352;
3099531678066376;0.2635;0.2340;-0.2458;
3099531688165908;0.0100;-0.0716;-0.2053;
3099531698272835;-0.1699;-0.1835;-0.2075;
3099531708379814;0.0622;0.0157;-0.2213;
3099531718488720;0.2891;0.0423;-0.2362;
3099531728595647;0.2731;-0.0003;-0.2181;
3099531738702626;0.1943;-0.0184;-0.1927;
3099531748812054;0.2156;0.0008;-0.1842;
3099531758918981;0.2561;-0.0301;-0.1852;
3099531769025960;0.2348;-0.2208;-0.1650;
3099531779135491;0.2965;-0.2304;-0.1330;
3099531789242418;0.5053;-0.0493;-0.0915;
3099531799349397;0.5840;-0.0067;-0.0563;
3099531809455387;0.3828;0.0423;-0.0265;
3099531819562314;0.0973;-0.0802;0.0023;
3099531829669293;0.0654;-0.1547;0.0087;
3099531839778824;0.2699;0.1020;0.0172;
3099531849885751;0.2475;0.1967;0.0033;
3099531859992731;0.0441;0.0477;0.0300;
3099531870101220;-0.0602;0.0711;0.0182;
3099531880208147;0.0387;0.0956;0.0204;
3099531890315126;0.0877;0.0061;0.0332;
3099531900422679;0.0483;-0.0983;0.0545;
3099531910529606;0.0611;-0.0993;0.0342;
3099531920636585;0.1240;0.0285;0.0736;
3099531930753408;0.0782;0.0051;0.0726;
3099531940860335;0.0526;-0.1036;0.0907;
3099531950967314;0.0963;-0.0045;0.0864;
3099531961056429;0.1229;0.2276;0.0726;
3099531971163356;-0.1156;0.0381;0.0885;
3099531981270335;-0.4873;-0.6126;0.0651;
3099531991384397;-0.0804;-0.7490;-0.0190;
3099532001491324;0.5362;0.1104;0.0119;
3099532011598304;0.8141;0.5152;0.1056;
3099532021701012;0.3743;0.2169;0.1908;
3099532031807939;-0.0613;0.0573;0.1791;
3099532041914918;-0.1518;0.2755;0.2015;
3099532052021949;-0.3403;0.1551;0.1770;
3099532062128876;-0.5385;-0.3880;0.1056;
3099532072235856;-0.1262;-0.3358;0.0875;
3099532082343304;0.4648;1.2746;0.0150;
3099532092450231;0.1048;0.8037;-0.1117;
3099532102557210;-0.5363;-1.2602;0.0119;
3099532112661949;-0.2487;-0.2463;0.0747;
3099532122768876;0.5192;0.9518;-0.0553;
3099532132875856;0.3338;0.0232;0.0044;
3099532142977470;-0.4128;-0.6584;0.1418;
3099532153084397;-0.3286;0.1125;0.1013;
3099532163191376;0.2624;0.9592;-0.0925;
3099532173302262;-0.1305;-0.1728;-0.1234;
3099532183409189;-0.5747;-0.6553;-0.1011;
3099532193516168;0.0025;0.4491;-0.2245;
3099532203647887;0.2720;0.1168;-0.2437;
3099532213754814;-0.2136;-0.6201;-0.0830;
3099532223861793;-0.2573;0.0541;-0.1479;
3099532233950179;-0.0517;-0.4061;-0.1650;
3099532244057106;-0.1518;-0.9098;-0.1597;
3099532254164085;-0.0655;-0.2879;-0.1831;
3099532264266481;-0.1529;-0.4924;-0.1969;
3099532274373408;-0.1710;-0.9663;-0.1735;
3099532284480387;0.6831;-0.0972;-0.2096;
3099532294581324;1.7684;0.7707;-0.1989;
3099532304688251;1.7887;0.5194;0.0704;
3099532314795231;0.2443;0.0360;0.2185;
3099532324952679;-0.4820;0.1924;0.2803;
3099532335059606;-0.8963;0.6430;0.2047;
3099532345166585;-0.6386;0.6675;0.0172;
3099532355218199;-0.5172;0.0967;-0.0446;
3099532365325126;-0.2786;0.8868;-0.0723;
3099532375432106;0.2933;1.6835;-0.1842;
3099532385555179;-0.5097;-0.3156;-0.2724;
3099532395662106;-1.0049;-1.3784;-0.0052;
3099532405769085;0.3168;-0.0301;-0.1341;
3099532415886116;1.0293;-0.0067;-0.1000;
3099532425993043;0.3583;-0.8917;0.0747;
3099532436100022;-0.1103;-0.5668;0.1333;
3099532446187574;0.4787;0.2467;0.0811;
3099532456294501;0.7747;0.0924;0.0353;
3099532466401481;0.0590;-0.3060;0.1205;
3099532476509241;-0.5044;0.2446;0.1045;
3099532486616168;-0.7226;0.1988;-0.0244;
3099532496723147;-0.9730;-0.4945;-0.0553;
3099532506852366;-0.7066;0.2126;-0.1309;
3099532516959293;-0.0847;0.5535;-0.2597;
3099532527066272;-0.2530;-0.0578;-0.2213;
3099532537180387;-0.7471;0.0615;-0.2192;
3099532547287366;-0.4788;0.1360;-0.2873;
3099532557394397;-0.0783;-0.1238;-0.3246;
3099532567478199;-0.0346;-0.0099;-0.2650;
3099532577585179;0.0995;-0.1015;-0.2991;
3099532587692210;0.3498;-0.2410;-0.2927;
3099532597795699;0.7118;0.4481;-0.2980;
3099532607902679;0.5936;0.2126;-0.3193;
3099532618009710;-0.2061;-0.4242;-0.2160;
3099532628121533;-0.2647;-0.0759;-0.1979;
3099532638228512;0.4893;0.1338;-0.2916;
3099532648335543;0.5703;0.0168;-0.2852;
3099532658449137;0.1048;0.0061;-0.2106;
3099532668556116;0.1016;-0.0333;-0.2106;
3099532678663147;0.3828;0.1605;-0.2639;
3099532688773512;0.3892;0.0711;-0.2522;
3099532698880491;0.1250;-0.0727;-0.1969;
3099532708987522;0.2145;-0.0567;-0.2128;
3099532719088929;0.4616;-0.0589;-0.1873;
3099532729195908;0.4744;-0.0386;-0.1245;
3099532739302887;0.3913;-0.0834;-0.1075;
3099532749406220;0.3967;-0.1334;-0.0766;
3099532759513199;0.4883;-0.0663;-0.0542;
3099532769620231;0.5256;-0.0003;-0.0435;
3099532779729762;0.4542;-0.0620;0.0300;
3099532789836741;0.2848;-0.0429;0.0236;
3099532799943772;0.3711;0.1253;0.0491;
3099532810055908;0.2987;-0.0780;0.0470;
3099532820162887;0.2614;-0.1984;0.0992;
3099532830269866;0.4254;0.0541;0.1333;
3099532840375491;0.4553;0.0892;0.1557;
3099532850482470;0.2401;-0.0130;0.1663;
3099532860589501;0.2401;-0.0855;0.1716;
3099532870702262;0.2827;-0.0205;0.2047;
3099532880809241;0.2443;-0.0088;0.1695;
3099532890916272;0.1953;-0.0897;0.1663;
3099532900990804;0.1421;-0.0866;0.1865;
3099532911097731;0.0483;-0.2027;0.1589;
3099532921204762;0.0867;-0.2644;0.1695;
3099532931311741;0.0963;-0.3007;0.1940;
3099532941446324;0.0909;-0.1664;0.1855;
3099532951553304;0.1858;-0.0802;0.1876;
3099532961660335;0.1367;0.0061;0.2334;
3099532971763929;-0.0241;0.0349;0.1876;
3099532981870908;0.0654;0.0945;0.2132;
3099532991977939;0.2678;0.0573;0.1919;
3099533002088199;0.4712;0.4225;0.2909;
3099533012195179;0.2209;1.3129;0.2814;
3099533022302210;-0.1699;0.9752;0.2153;
3099533032402366;-0.6354;-0.0248;0.2292;
3099533042509345;-0.4905;0.4651;0.1855;
3099533052616376;0.1581;0.7675;0.0427;
3099533062724554;-0.1209;0.2499;0.0523;
3099533072831533;-0.4320;0.2989;0.0364;
3099533082938512;-0.1987;-0.1249;-0.0712;
3099533093049397;0.0025;-0.1345;-0.0105;
3099533103156376;-0.0017;-0.6244;0.0992;
3099533113263408;0.1357;-0.8640;0.2334;
3099533123351064;0.3626;-0.3518;0.2004;
3099533133458043;0.4521;-0.2570;0.2537;
3099533143565074;0.2241;-0.1856;0.2750;
3099533153676897;0.0803;0.2563;0.2803;
3099533163783876;-0.0060;0.4790;0.2270;
3099533173890908;-0.2828;0.5706;0.2089;
3099533184003147;-0.5374;0.9294;0.1184;
3099533194110126;-0.8845;0.4470;0.0214;
3099533204217158;-1.0742;0.0200;-0.0126;
3099533214319137;-0.5055;0.2521;-0.1479;
3099533224426116;-0.1433;0.2957;-0.2980;
3099533234533095;-0.3808;-0.0109;-0.4056;
3099533244644033;-0.5374;-0.2602;-0.3182;
3099533254751012;-0.1316;-0.2442;-0.3001;
3099533264858043;0.0302;-0.2772;-0.3310;
3099533274986533;-0.1049;-0.7181;-0.2117;
3099533285093512;-0.0262;-1.1909;-0.1213;
3099533295200543;0.0142;-1.2229;-0.2469;
3099533305287783;0.1133;-0.9301;-0.2309;
3099533315394762;0.3743;-0.6627;-0.3193;
3099533325501793;1.0346;-0.2772;-0.3449;
3099533335605804;0.9430;-0.0216;-0.3023;
3099533345712783;-0.0241;-0.3102;-0.0830;
3099533355819814;-0.8526;-0.3252;-0.1149;
3099533365915908;-1.0592;-0.4626;-0.1543;
3099533376022887;-0.2988;-0.8012;-0.2362;
3099533386129918;0.7768;-0.0290;-0.3406;
3099533396243043;1.7876;0.9156;-0.4546;
3099533406350022;0.6628;0.3085;-0.4280;
3099533416457054;-0.7397;-0.2485;-0.1969;
3099533426582887;-0.0485;0.0008;-0.1298;
3099533436689866;0.9888;0.0008;-0.1224;
3099533446796845;1.3540;0.0509;-0.0169;
3099533456911012;1.2252;0.3873;0.1897;
3099533467017991;1.0037;0.7515;0.2814;
3099533477125022;1.0964;1.6792;0.3133;
3099533487215074;0.8088;1.4481;0.2047;
3099533497322054;0.1410;0.4193;0.3911;
3099533507429033;-0.5076;0.7835;0.5305;
3099533517539137;-0.0676;0.8559;0.4229;
3099533527646116;0.2379;-0.0535;0.4538;
3099533537753095;0.1282;-0.3667;0.5699;
3099533547852262;0.2571;-0.4498;0.6498;
3099533557959189;0.1282;-0.3550;0.7478;
3099533568066116;-0.0549;-0.3795;0.7840;
3099533578188408;-0.2626;-0.7170;0.8735;
3099533588295335;-0.3105;-0.3124;0.8298;
3099533598402262;0.0025;0.2254;0.7403;
3099533608502470;-0.2967;-0.1505;0.7244;
3099533618609397;-0.9027;0.1063;0.6903;
3099533628716324;-1.0710;0.9081;0.5241;
3099533638817574;-1.2307;0.4939;0.3091;
3099533648924501;-1.6407;-0.1047;0.1546;
3099533659031429;-1.6769;0.2553;-0.0169;
3099533669131637;-1.2382;0.2744;-0.2043;
3099533679238564;-1.0720;0.0360;-0.3545;
3099533689345491;-1.0699;0.1764;-0.4493;
3099533699467783;-1.0145;-0.0407;-0.5462;
3099533709574710;-0.7716;-0.3049;-0.7529;
3099533719681637;-0.3616;-0.0322;-0.8326;
3099533729789137;-0.1763;-0.1547;-0.8177;
3099533739896064;0.1048;-0.0674;-0.8188;
3099533750002991;0.4116;0.1115;-0.8284;
3099533760107991;0.5501;-0.1292;-0.8369;
3099533770214918;0.6543;0.0200;-0.7326;
3099533780321845;0.8567;0.2297;-0.6900;
3099533790431064;0.8748;-0.1387;-0.6378;
3099533800537991;0.8855;0.0668;-0.5675;
3099533810644918;0.9963;0.0711;-0.5675;
3099533820761324;1.0644;-0.4434;-0.4397;
3099533830868251;1.2465;-0.1185;-0.3822;
3099533840975179;1.5628;0.0700;-0.3214;
3099533851087366;1.3956;-0.1728;-0.1277;
3099533861194293;1.1571;-0.1334;0.0353;
3099533871301220;1.2891;-0.1537;0.1269;
3099533881397783;1.3008;-0.1526;0.2696;
3099533891504710;1.2241;0.0370;0.3367;
3099533901611637;1.1326;0.0551;0.4495;
3099533911728929;0.8695;0.2031;0.5230;
3099533921835856;0.6437;0.3628;0.5422;
3099533931942783;0.3849;0.0210;0.6168;
3099533942035699;0.1506;-0.0301;0.6849;
3099533952142626;0.1485;0.2137;0.6807;
3099533962249606;0.0515;0.1594;0.6754;
3099533972361220;-0.2423;0.0210;0.7180;
3099533982468147;-0.4351;0.0519;0.6711;
3099533992575074;-0.4575;0.0413;0.6040;
3099534002694137;-0.5001;-0.0450;0.5944;
3099534012801064;-0.5896;0.0306;0.5102;
3099534022907991;-0.5971;0.1052;0.4708;
3099534032994866;-0.6885;0.1083;0.3730;
3099534043101793;-0.7365;-0.0290;0.2984;
3099534053208720;-0.6907;-0.1739;0.2079;
3099534063318720;-0.5001;-0.0493;0.1610;
3099534073425647;-0.3744;0.0093;0.0726;
3099534083532574;-0.3020;-0.0514;0.0310;
3099534093632262;-0.2168;-0.0344;0.0150;
3099534103739189;-0.0943;0.0189;-0.0222;
3099534113846116;-0.0421;-0.0173;-0.0702;
3099534123950595;-0.0220;-0.0642;-0.0798;
3099534134057522;0.0611;-0.0067;-0.0979;
3099534144164449;0.1996;0.0253;-0.0744;
3099534154286949;0.2571;0.0274;-0.0702;
3099534164393876;0.3093;0.0551;-0.0499;
3099534174500804;0.3306;0.0615;-0.0638;
3099534184589762;0.3754;0.0146;-0.0670;
3099534194696689;0.4158;-0.0397;-0.0478;
3099534204803616;0.4425;-0.0684;0.0023;
3099534214975231;0.4446;-0.0642;0.0023;
3099534225082158;0.4670;-0.1185;0.0236;
3099534235189085;0.5032;-0.1047;0.0864;
3099534245218668;0.5149;-0.0418;0.1365;
3099534255325595;0.4702;-0.0897;0.1972;
3099534265432522;0.4403;-0.0983;0.2718;
3099534275569241;0.4467;0.0445;0.3091;
3099534285676168;0.4084;0.1115;0.3655;
3099534295783095;0.2550;0.1434;0.3623;
3099534305887679;0.1581;0.1402;0.3719;
3099534315994606;0.0771;0.1700;0.3804;
3099534326101533;-0.0389;0.1306;0.3570;
3099534336201637;-0.1326;0.0807;0.3399;
3099534346308564;-0.1880;0.0796;0.3463;
3099534356415491;-0.2807;0.0423;0.3293;
3099534366523512;-0.3861;0.0019;0.2664;
3099534376630439;-0.4192;-0.0674;0.2249;
3099534386737366;-0.3872;0.0008;0.2036;
3099534396860699;-0.3627;0.0722;0.1642;
3099534406967626;-0.3595;0.0509;0.1333;
3099534417074554;-0.3851;0.0029;0.1173;
3099534427163824;-0.3308;0.0594;0.0971;
3099534437270751;-0.3063;0.0391;0.0736;
3099534447377679;-0.2871;-0.1111;0.0481;
3099534457499397;-0.1742;-0.0226;0.0182;
3099534467606324;-0.0634;0.0988;-0.0425;
3099534477713251;-0.0868;0.0434;-0.0158;
3099534487808929;-0.1060;-0.0216;-0.0244;
3099534497915856;-0.0889;-0.0120;-0.0808;
