Sensor: bmi160 Gyroscope Non-wakeup
Vendor: BOSCH
TimestampGyro [ns]; GyroX [rad/s]; GyroY [rad/s]; GyroZ [rad/s]
704448718889870;-0.0012;0.0015;-0.0001;
704448728990130;-0.0012;0.0036;-0.0001;
704448739107578;-0.0012;0.0004;-0.0023;
704448749208412;0.0009;-0.0017;-0.0023;
704448759307995;0.0020;-0.0017;-0.0044;
704448769410964;0.0041;-0.0007;-0.0055;
704448779504037;0.0041;-0.0007;-0.0044;
704448789589557;0.0041;-0.0028;-0.0055;
704448799695964;0.0031;-0.0028;-0.0065;
704448809797162;0.0041;-0.0017;-0.0055;
704448819891953;0.0052;-0.0017;-0.0055;
704448829986745;0.0052;-0.0017;-0.0055;
704448840098985;0.0052;0.0004;-0.0055;
704448850196797;0.0031;0.0004;-0.0044;
704448860295547;0.0031;0.0004;-0.0033;
704448870408672;0.0031;-0.0007;-0.0033;
704448880499245;0.0031;-0.0007;-0.0012;
704448890596641;0.0041;-0.0028;-0.0012;
704448900694037;0.0009;-0.0028;-0.0001;
704448910799453;0.0031;-0.0017;0.0009;
704448920898151;0.0031;0.0004;0.0020;
704448930993047;0.0031;0.0015;0.0020;
704448941100912;0.0041;0.0015;0.0031;
704448951194193;0.0020;-0.0007;0.0041;
704448961293880;0.0009;0.0004;0.0052;
704448971397526;0.0020;0.0004;0.0063;
704448981498828;0.0020;0.0004;0.0073;
704448991585964;0.0009;0.0015;0.0084;
704449001698203;0.0009;0.0025;0.0105;
704449011792995;0.0009;0.0025;0.0105;
704449021887057;0.0031;0.0004;0.0137;
704449032016068;0.0031;0.0015;0.0137;
704449042104557;0.0041;0.0004;0.0148;
704449052197787;0.0073;0.0015;0.0137;
704449062300287;0.0073;0.0036;0.0116;
704449072407839;0.0041;0.0057;0.0095;
704449082499089;0.0031;0.0057;0.0041;
704449092593672;0.0020;0.0036;0.0009;
704449102697787;0.0041;0.0015;-0.0033;
704449112797578;0.0041;-0.0039;-0.0076;
704449122900026;0.0052;-0.0049;-0.0097;
704449133000547;0.0041;-0.0039;-0.0097;
704449143097995;0.0031;-0.0039;-0.0087;
704449153197735;0.0031;0.0015;-0.0065;
704449163312682;0.0041;0.0047;-0.0044;
704449173397266;0.0020;0.0036;-0.0033;
704449183496641;0.0009;0.0057;-0.0001;
704449193601901;-0.0001;0.0036;0.0031;
704449203701485;-0.0023;0.0004;0.0084;
704449213827214;-0.0097;-0.0007;0.0169;
704449223900182;-0.0214;0.0047;0.0201;
704449233998620;-0.0353;0.0057;0.0265;
704449244101120;-0.0459;0.0079;0.0308;
704449254179141;-0.0566;0.0079;0.0382;
704449264297474;-0.0758;0.0100;0.0457;
704449274406589;-0.1013;0.0111;0.0521;
704449284502474;-0.1365;0.0111;0.0563;
704449294618672;-0.1738;0.0089;0.0606;
704449304703724;-0.1983;0.0079;0.0648;
704449314802578;-0.2110;0.0079;0.0702;
704449324907370;-0.2100;0.0089;0.0755;
704449335002526;-0.2004;0.0089;0.0808;
704449345098724;-0.1834;0.0121;0.0851;
704449355199193;-0.1589;0.0111;0.0925;
704449365323151;-0.1322;0.0111;0.0989;
704449375425860;-0.0992;0.0121;0.1053;
704449385498099;-0.0587;0.0121;0.1128;
704449395593724;-0.0246;0.0121;0.1192;
704449405699610;-0.0246;0.0132;0.1213;
704449415828255;-0.0268;0.0100;0.1181;
704449425918932;-0.0321;0.0089;0.1160;
704449436061693;-0.0289;0.0142;0.1181;
704449446106380;-0.0289;0.0152;0.1181;
704449456187943;-0.0289;0.0152;0.1117;
704449466308620;-0.0300;0.0142;0.1085;
704449476428255;-0.0289;0.0111;0.1085;
704449486533047;-0.0374;0.0111;0.1117;
704449496646120;-0.0406;0.0132;0.1096;
704449506703047;-0.0300;0.0132;0.1032;
704449516797526;-0.0385;0.0121;0.1032;
704449526895964;-0.0704;0.0142;0.1053;
704449537055339;-0.1184;0.0121;0.1011;
704449547118880;-0.1759;0.0089;0.0936;
704449557218047;-0.2334;0.0089;0.0893;
704449567299662;-0.2877;0.0057;0.0862;
704449577407682;-0.3389;0.0057;0.0830;
704449587528672;-0.3857;0.0047;0.0766;
704449597626797;-0.4156;0.0036;0.0702;
704449607708412;-0.4198;0.0036;0.0648;
704449617827110;-0.4166;0.0015;0.0659;
704449627931172;-0.4134;0.0025;0.0648;
704449638014610;-0.4145;0.0036;0.0638;
704449648107526;-0.4198;0.0004;0.0627;
704449658200703;-0.4188;0.0025;0.0627;
704449668319297;-0.4145;0.0015;0.0670;
704449678400078;-0.4220;-0.0017;0.0712;
704449688513568;-0.4411;-0.0039;0.0702;
704449698616380;-0.4465;-0.0028;0.0702;
704449708709349;-0.4209;0.0036;0.0734;
704449718809141;-0.3208;0.0205;0.0851;
704449728904557;-0.1461;0.0397;0.1117;
704449739011641;-0.0545;0.0248;0.1394;
704449749111849;-0.1152;-0.0092;0.1511;
704449759207682;-0.2132;-0.0273;0.1437;
704449769317214;-0.2931;-0.0326;0.1373;
704449779423932;-0.3474;-0.0252;0.1383;
704449789526432;-0.3506;0.0036;0.1437;
704449799628932;-0.3325;0.0205;0.1458;
704449809714974;-0.3367;0.0142;0.1469;
704449819817474;-0.3176;0.0057;0.1479;
704449829919974;-0.2324;0.0057;0.1543;
704449840025495;-0.1141;0.0036;0.1714;
704449850127995;-0.0193;0.0057;0.1863;
704449860230495;-0.0172;0.0047;0.1937;
704449870330287;0.0073;-0.0049;0.1895;
704449880432787;0.0340;-0.0113;0.1873;
704449890535287;0.0425;-0.0092;0.1884;
704449900627526;0.0541;-0.0081;0.1863;
704449910730026;0.0562;-0.0081;0.1767;
704449920832526;0.0487;-0.0039;0.1639;
704449930921432;0.0414;0.0015;0.1522;
704449941023932;0.0466;0.0025;0.1415;
704449951126432;0.0605;0.0068;0.1309;
704449961220182;0.0732;0.0057;0.1192;
704449971322682;0.0732;0.0025;0.1085;
704449981425182;0.0679;0.0025;0.0989;
704449991531693;0.0679;0.0015;0.0883;
704450001634193;0.0668;0.0047;0.0776;
704450011736693;0.0636;0.0089;0.0691;
704450021830860;0.0594;0.0079;0.0595;
704450031933255;0.0636;0.0025;0.0510;
704450042035755;0.0775;-0.0039;0.0457;
704450052138255;0.0935;-0.0049;0.0403;
704450062229610;0.0956;0.0025;0.0372;
704450072332110;0.0860;0.0079;0.0308;
704450082434610;0.0807;0.0121;0.0244;
704450092528516;0.0977;0.0100;0.0222;
704450102631016;0.1276;0.0047;0.0222;
704450112733516;0.1627;0.0025;0.0265;
704450122835391;0.1915;0.0015;0.0329;
704450132937891;0.2043;0.0015;0.0425;
704450143040391;0.1872;0.0004;0.0499;
704450153129662;0.1510;-0.0007;0.0553;
704450163232162;0.0977;0.0025;0.0531;
704450173334662;0.0414;0.0047;0.0563;
704450183435912;-0.0023;0.0068;0.0638;
704450193538412;-0.0204;0.0036;0.0680;
704450203640912;-0.0182;-0.0007;0.0670;
704450213749037;-0.0161;-0.0039;0.0712;
704450223851537;-0.0182;-0.0049;0.0734;
704450233954037;-0.0214;-0.0039;0.0766;
704450244028828;-0.0268;-0.0028;0.0840;
704450254131328;-0.0289;-0.0039;0.0893;
704450264233828;-0.0353;-0.0039;0.0947;
704450274327891;-0.0598;-0.0017;0.1000;
704450284430391;-0.0896;0.0004;0.1053;
704450294532891;-0.1088;0.0025;0.1149;
704450304631693;-0.1152;0.0025;0.1256;
704450314734193;-0.1077;0.0015;0.1362;
704450324836693;-0.0939;-0.0017;0.1469;
704450334927474;-0.0832;-0.0017;0.1586;
704450345029974;-0.0768;-0.0007;0.1714;
704450355132422;-0.0747;0.0015;0.1799;
704450365249870;-0.0758;0.0015;0.1852;
704450375352370;-0.0843;0.0015;0.1895;
704450385454870;-0.0917;0.0015;0.1927;
704450395534610;-0.0981;0.0025;0.1959;
704450405637110;-0.1035;0.0025;0.1959;
704450415739610;-0.1077;0.0025;0.1948;
704450425834766;-0.1056;0.0025;0.1969;
704450435937266;-0.0981;0.0047;0.2023;
704450446039766;-0.0854;0.0057;0.2097;
704450456123620;-0.0609;0.0089;0.2161;
704450466226172;-0.0470;0.0089;0.2214;
704450476328672;-0.0513;0.0132;0.2268;
704450486438255;-0.0470;0.0162;0.2300;
704450496540807;-0.0438;0.0173;0.2342;
704450506643255;-0.0129;0.0162;0.2363;
704450516727266;0.0594;0.0142;0.2342;
704450526829766;0.1531;0.0111;0.2310;
704450536932214;0.2298;0.0025;0.2246;
704450547063203;0.2639;-0.0028;0.2097;
704450557165651;0.2415;-0.0039;0.1863;
704450567268203;0.1893;0.0004;0.1586;
704450577354974;0.1350;0.0089;0.1288;
704450587457474;0.0945;0.0184;0.1064;
704450597559974;0.0786;0.0216;0.0862;
704450607637162;0.0913;0.0173;0.0744;
704450617739662;0.1286;0.0089;0.0648;
704450627842162;0.1712;0.0004;0.0574;
704450637939453;0.1925;-0.0071;0.0542;
704450648041953;0.1670;-0.0103;0.0521;
704450658144453;0.0967;-0.0039;0.0425;
704450668247266;0.0105;0.0015;0.0265;
704450678349714;-0.0225;0.0036;0.0148;
704450688452214;-0.0055;-0.0007;0.0095;
704450698558412;-0.0023;-0.0049;0.0063;
704450708660912;0.0052;-0.0071;-0.0033;
704450718763412;0.0020;-0.0060;-0.0087;
704450728838932;-0.0001;0.0004;-0.0108;
704450738941432;-0.0065;0.0025;-0.0129;
704450749043932;-0.0065;0.0025;-0.0193;
704450759141328;0.0116;0.0025;-0.0236;
704450769243828;0.0148;0.0015;-0.0257;
704450779346328;0.0180;0.0036;-0.0310;
704450789445287;0.0201;0.0047;-0.0427;
704450799546016;0.0276;0.0025;-0.0566;
704450809646641;0.0446;-0.0007;-0.0640;
704450819744610;0.0477;-0.0092;-0.0768;
704450829845287;0.0562;-0.0081;-0.0917;
704450839945964;0.0477;-0.0081;-0.1056;
704450850048828;0.0297;-0.0060;-0.1225;
704450860149505;0.0435;0.0015;-0.1374;
704450870250182;0.0626;0.0025;-0.1513;
704450880343464;0.0871;-0.0039;-0.1609;
704450890444141;0.1116;-0.0071;-0.1704;
704450900544766;0.1297;-0.0103;-0.1779;
704450910649557;0.1265;-0.0145;-0.1885;
704450920750287;0.0924;-0.0145;-0.1928;
704450930850912;0.0446;-0.0124;-0.1960;
704450940948932;0.0446;-0.0113;-0.1992;
704450951049662;0.0457;-0.0081;-0.1928;
704450961150339;0.0435;-0.0071;-0.1790;
704450971251641;0.0403;-0.0071;-0.1640;
704450981352318;0.0393;-0.0039;-0.1513;
704450991452995;0.0372;0.0015;-0.1353;
704451001542735;0.0318;0.0036;-0.1130;
704451011643412;0.0286;0.0015;-0.0875;
704451021744089;0.0180;0.0004;-0.0619;
704451031860860;0.0084;-0.0039;-0.0385;
704451041961537;0.0031;-0.0092;-0.0161;
704451052062214;-0.0023;-0.0092;0.0020;
704451062157891;-0.0087;-0.0060;0.0169;
704451072258568;-0.0172;-0.0092;0.0361;
704451082359297;-0.0417;-0.0103;0.0563;
704451092456328;-0.1077;-0.0092;0.0712;
704451102557005;-0.1812;-0.0071;0.0798;
704451112657682;-0.2206;0.0015;0.0840;
704451122751589;-0.2366;0.0047;0.0979;
704451132852214;-0.2281;0.0004;0.1128;
704451142952891;-0.1855;-0.0007;0.1256;
704451153053568;-0.1322;0.0004;0.1352;
704451163154245;-0.0939;0.0004;0.1341;
704451173254922;-0.0555;0.0025;0.1192;
704451183360287;-0.0129;0.0057;0.0989;
704451193461016;-0.0119;0.0089;0.0787;
704451203561641;0.0180;0.0079;0.0521;
704451213656068;0.0690;0.0025;0.0308;
704451223756693;0.1031;-0.0039;0.0169;
704451233857422;0.0999;-0.0071;0.0041;
704451243963360;0.0850;0.0036;-0.0161;
704451254064089;0.0754;0.0173;-0.0374;
704451264164766;0.0754;0.0226;-0.0598;
704451274272995;0.0732;0.0111;-0.0715;
704451284373724;0.0551;-0.0049;-0.0768;
704451294474401;0.0233;-0.0156;-0.0843;
704451304562839;0.0158;-0.0188;-0.0907;
704451314663516;0.0084;-0.0156;-0.0875;
704451324764193;-0.0129;-0.0071;-0.0779;
704451334873099;-0.0300;0.0047;-0.0672;
704451344973776;-0.0129;0.0121;-0.0534;
704451355074401;0.0084;0.0079;-0.0268;
704451365165287;0.0041;0.0025;0.0063;
704451375266016;-0.0023;-0.0007;0.0276;
704451385366641;-0.0097;-0.0028;0.0382;
704451395462005;-0.0087;0.0047;0.0574;
704451405562630;-0.0129;0.0132;0.0712;
704451415663360;-0.0172;0.0111;0.0734;
704451425760860;-0.0182;0.0057;0.0670;
704451435874401;-0.0119;0.0047;0.0680;
704451445975078;-0.0087;0.0036;0.0617;
704451456075755;-0.0001;0.0036;0.0478;
704451466163932;-0.0033;0.0036;0.0382;
704451476264610;-0.0108;0.0004;0.0372;
704451486365287;-0.0065;-0.0071;0.0318;
704451496465339;-0.0065;-0.0124;0.0095;
704451506566068;-0.0076;-0.0166;-0.0076;
704451516666745;-0.0044;-0.0177;-0.0076;
704451526778099;-0.0129;-0.0060;-0.0097;
704451536878776;-0.0321;0.0057;-0.0246;
704451546979453;-0.0417;0.0089;-0.0406;
704451557058620;-0.0332;0.0079;-0.0417;
704451567159297;-0.0001;0.0036;-0.0342;
704451577259974;0.0212;-0.0007;-0.0342;
704451587362162;0.0095;0.0015;-0.0385;
704451597462787;0.0095;0.0068;-0.0364;
704451607563464;0.0105;0.0068;-0.0268;
704451617688203;0.0063;0.0015;-0.0150;
704451627788880;0.0031;-0.0028;-0.0065;
704451637889557;-0.0001;-0.0017;0.0031;
704451647970495;-0.0012;0.0004;0.0073;
704451658071172;-0.0012;-0.0017;0.0105;
704451668171797;-0.0044;-0.0028;0.0095;
704451678261276;-0.0001;-0.0007;0.0084;
704451688361901;-0.0001;0.0036;0.0052;
704451698462630;-0.0012;0.0025;-0.0033;
704451708575912;-0.0012;0.0015;-0.0055;
704451718676641;0.0031;0.0025;-0.0001;
704451728777266;0.0020;0.0036;0.0020;
704451738875495;-0.0023;0.0057;0.0031;
704451748976172;-0.0033;0.0036;0.0084;
704451759076849;-0.0001;0.0025;0.0126;
704451769176641;-0.0012;-0.0007;0.0158;
704451779277318;-0.0055;-0.0028;0.0137;
704451789378047;-0.0065;-0.0049;0.0126;
704451799481641;-0.0044;-0.0113;0.0105;
704451809582318;-0.0044;-0.0113;0.0084;
704451819682995;-0.0023;-0.0039;0.0052;
704451829783360;-0.0033;0.0036;0.0052;
704451839883985;-0.0033;0.0068;0.0031;
704451849984662;0.0052;0.0079;0.0031;
704451860094037;0.0031;0.0036;-0.0001;
704451870194766;0.0063;-0.0017;-0.0001;
704451880295443;0.0126;0.0015;-0.0044;
704451890380182;-0.0065;0.0004;-0.0012;
704451900480860;0.0041;-0.0081;0.0020;
704451910581537;0.0041;0.0015;-0.0033;
704451920682474;0.0063;0.0057;-0.0150;
704451930783151;0.0126;0.0036;-0.0150;
704451940883828;0.0551;0.0205;-0.0119;
704451950986432;0.1233;0.0184;-0.0236;
704451961087110;0.0562;-0.0177;-0.0268;
704451971187787;-0.0076;-0.0294;-0.0225;
704451981285182;-0.0001;-0.0188;-0.0204;
704451991385860;-0.0087;-0.0081;-0.0225;
704452001486537;-0.0364;0.0057;-0.0182;
704452011589245;-0.0896;0.0121;-0.0097;
704452021689974;-0.0854;0.0068;-0.0001;
704452031790599;-0.0193;0.0057;0.0158;
704452041889245;0.0095;0.0121;0.0329;
704452051989922;0.0009;0.0089;0.0372;
704452062090599;0.0041;0.0025;0.0403;
704452072194193;0.0254;0.0100;0.0457;
704452082294870;0.0754;0.0132;0.0531;
704452092395599;0.1180;0.0036;0.0553;
704452102475860;0.1222;0.0015;0.0478;
704452112576537;0.0573;-0.0071;0.0329;
704452122677214;-0.0417;-0.0294;0.0137;
704452132796693;-0.0726;-0.0294;-0.0044;
704452142897370;-0.1407;-0.0166;-0.0129;
704452152998047;-0.2366;-0.0092;-0.0268;
704452163088880;-0.3240;-0.0017;-0.0427;
704452173189557;-0.3708;0.0047;-0.0491;
704452183290182;-0.3282;0.0036;-0.0438;
704452193390860;-0.1961;0.0004;-0.0289;
704452203491485;-0.0502;-0.0039;-0.0172;
704452213592214;0.0329;-0.0049;-0.0150;
704452223706953;0.0095;0.0015;-0.0236;
704452233807630;0.0052;0.0068;-0.0332;
704452243908307;0.0084;0.0079;-0.0332;
704452253984766;0.0084;0.0068;-0.0321;
704452264085443;0.0073;0.0004;-0.0353;
704452274186120;0.0041;-0.0060;-0.0364;
704452284295807;-0.0055;-0.0071;-0.0342;
704452294396485;-0.0268;-0.0071;-0.0321;
704452304497162;-0.0587;-0.0071;-0.0310;
704452314601224;-0.0960;-0.0092;-0.0289;
704452324701901;-0.1290;-0.0092;-0.0204;
704452334802630;-0.1439;-0.0028;-0.0182;
704452344902370;-0.1610;0.0025;-0.0193;
704452355003099;-0.1748;0.0047;-0.0193;
704452365103724;-0.1663;0.0047;-0.0204;
704452375204662;-0.1333;-0.0007;-0.0193;
704452385305339;-0.0864;-0.0060;-0.0129;
704452395406016;-0.0374;-0.0049;-0.0087;
704452405492735;0.0041;-0.0049;-0.0108;
704452415593412;0.0095;-0.0049;-0.0204;
704452425694037;0.0063;-0.0007;-0.0278;
704452435798880;0.0063;-0.0007;-0.0332;
704452445899505;-0.0012;-0.0039;-0.0406;
704452456000182;-0.0108;-0.0028;-0.0491;
704452466114297;-0.0246;-0.0017;-0.0598;
704452476214974;-0.0385;0.0015;-0.0672;
704452486315651;-0.0449;0.0025;-0.0768;
704452496425599;-0.0491;0.0025;-0.0822;
704452506526224;-0.0609;-0.0028;-0.0843;
704452516626953;-0.0672;-0.0071;-0.0875;
704452526707370;-0.0704;-0.0071;-0.0896;
704452536808047;-0.0736;-0.0028;-0.0928;
704452546908724;-0.0822;0.0004;-0.0939;
704452556998828;-0.0854;0.0025;-0.0939;
704452567099505;-0.0822;0.0036;-0.0960;
704452577200182;-0.0715;0.0004;-0.0981;
704452587294297;-0.0577;-0.0060;-0.0939;
704452597394974;-0.0513;-0.0060;-0.0907;
704452607495599;-0.0481;-0.0049;-0.0885;
704452617630078;-0.0491;-0.0007;-0.0864;
704452627730755;-0.0619;0.0015;-0.0843;
704452637831432;-0.0694;0.0015;-0.0811;
704452647914557;-0.0726;0.0025;-0.0790;
704452658015287;-0.0736;-0.0007;-0.0726;
704452668115964;-0.0758;-0.0017;-0.0662;
704452678200078;-0.0811;-0.0017;-0.0587;
704452688300703;-0.0907;-0.0017;-0.0545;
704452698401380;-0.1109;0.0004;-0.0481;
704452708518047;-0.1418;0.0025;-0.0417;
704452718618724;-0.1716;0.0004;-0.0395;
704452728719401;-0.1876;-0.0007;-0.0385;
704452738815912;-0.1929;0.0015;-0.0353;
704452748916589;-0.1940;0.0047;-0.0321;
704452759017266;-0.1620;0.0100;-0.0289;
704452769118620;-0.0800;0.0162;-0.0257;
704452779219297;0.0276;0.0216;-0.0225;
704452789319974;0.0276;0.0248;-0.0310;
704452799416693;0.0340;0.0290;-0.0438;
704452809517422;0.0764;0.0237;-0.0481;
704452819618047;0.1403;0.0121;-0.0374;
704452829713203;0.2309;-0.0071;-0.0225;
704452839813880;0.3161;-0.0273;-0.0108;
704452849914557;0.3960;-0.0294;0.0041;
704452860024453;0.4663;-0.0134;0.0297;
704452870125130;0.5228;0.0111;0.0563;
704452880225807;0.5334;0.0322;0.0723;
704452890324193;0.4674;0.0386;0.0744;
704452900424870;0.3545;0.0237;0.0680;
704452910525547;0.2405;0.0025;0.0574;
704452920625026;0.1478;-0.0134;0.0489;
704452930725703;0.0881;-0.0188;0.0403;
704452940826380;0.0722;-0.0092;0.0318;
704452950922682;0.0871;0.0036;0.0233;
704452961023360;0.1201;0.0111;0.0169;
704452971124037;0.1446;0.0111;0.0095;
704452981229141;0.1457;0.0068;0.0031;
704452991329818;0.1265;0.0004;-0.0044;
704453001430495;0.1063;-0.0028;-0.0129;
704453011530026;0.1041;-0.0060;-0.0193;
704453021630703;0.1297;-0.0049;-0.0236;
704453031731380;0.1798;-0.0060;-0.0278;
704453041830495;0.2501;-0.0049;-0.0310;
704453051931172;0.3332;-0.0028;-0.0321;
704453062031849;0.4088;0.0015;-0.0342;
704453072135026;0.4610;0.0025;-0.0364;
704453082235703;0.4887;0.0025;-0.0438;
704453092336380;0.4929;-0.0017;-0.0523;
704453102429766;0.5249;0.0025;-0.0726;
704453112530443;0.4557;-0.0198;-0.0715;
704453122631120;0.0711;-0.0869;-0.0651;
704453132735807;-0.1120;-0.0731;-0.0779;
704453142836485;-0.0300;-0.0113;-0.0843;
704453152937162;0.0487;0.0111;-0.0715;
704453163019818;0.0626;0.0375;-0.0619;
704453173120443;0.0977;0.0674;-0.0662;
704453183221120;0.0594;0.0429;-0.0630;
704453193328360;-0.0406;-0.0081;-0.0449;
704453203429037;-0.1013;-0.0177;-0.0257;
704453213529714;-0.1727;-0.0060;-0.0055;
704453223641953;-0.2121;-0.0103;0.0105;
704453233742630;-0.2057;-0.0028;0.0286;
704453243843307;-0.1908;0.0132;0.0521;
704453253948672;-0.1791;-0.0039;0.0766;
704453264049349;-0.1823;-0.0252;0.0936;
704453274150026;-0.1908;-0.0134;0.1021;
704453284226745;-0.1855;-0.0007;0.1128;
704453294327370;-0.1642;-0.0060;0.1352;
704453304428047;-0.0949;-0.0113;0.1522;
704453314544714;-0.0236;-0.0188;0.1565;
704453324645391;-0.0502;-0.0241;0.1554;
704453334746068;-0.0790;-0.0188;0.1554;
704453344828568;-0.1407;-0.0134;0.1575;
704453354929193;-0.2089;-0.0071;0.1607;
704453365029922;-0.2419;-0.0081;0.1586;
704453375132370;-0.2600;-0.0092;0.1533;
704453385233047;-0.2920;0.0004;0.1533;
704453395333724;-0.3208;0.0025;0.1533;
704453405431276;-0.3027;-0.0039;0.1511;
704453415531953;-0.2462;-0.0092;0.1501;
704453425632578;-0.1951;-0.0145;0.1479;
704453435710860;-0.1652;-0.0198;0.1415;
704453445811537;-0.1589;-0.0188;0.1288;
704453455912214;-0.1706;-0.0156;0.1128;
704453466027630;-0.1791;-0.0166;0.1011;
704453476128307;-0.1770;-0.0156;0.0883;
704453486228985;-0.1674;-0.0103;0.0734;
704453496341016;-0.1557;-0.0039;0.0574;
704453506441693;-0.1429;-0.0007;0.0414;
704453516542370;-0.1194;-0.0017;0.0297;
704453526685651;-0.0971;0.0025;0.0169;
704453536786328;-0.1269;0.0226;0.0073;
704453546887005;-0.1844;0.0386;-0.0065;
704453556944505;-0.2100;0.0301;-0.0193;
704453567045182;-0.2068;0.0226;-0.0236;
704453577145860;-0.2238;0.0280;-0.0204;
704453587259349;-0.2675;0.0333;-0.0193;
704453597360026;-0.3059;0.0312;-0.0204;
704453607460703;-0.3005;0.0226;-0.0214;
704453617558203;-0.2579;0.0132;-0.0161;
704453627658880;-0.2206;-0.0039;-0.0150;
704453637759557;-0.1983;-0.0092;-0.0129;
704453647851745;-0.2089;0.0121;-0.0161;
704453657952422;-0.2217;0.0216;-0.0278;
704453668053099;-0.2142;-0.0007;-0.0406;
704453678167578;-0.2270;-0.0092;-0.0513;
704453688268255;-0.2526;0.0015;-0.0609;
704453698368932;-0.2569;0.0047;-0.0651;
704453708440443;-0.2462;0.0047;-0.0630;
704453718541068;-0.2047;0.0089;-0.0640;
704453728641797;-0.1365;-0.0124;-0.0662;
704453738747995;-0.0577;-0.0507;-0.0609;
704453748848672;0.0105;-0.0422;-0.0555;
704453758949401;0.0116;-0.0039;-0.0619;
704453769048516;0.0105;0.0036;-0.0662;
704453779149193;0.0126;-0.0039;-0.0566;
704453789249870;0.0052;0.0194;-0.0513;
704453799350078;0.0297;0.0258;-0.0513;
704453809450755;0.0775;0.0121;-0.0534;
704453819551432;0.1340;0.0205;-0.0545;
704453829643151;0.1893;0.0322;-0.0555;
704453839743828;0.2160;0.0248;-0.0577;
704453849844505;0.2149;0.0248;-0.0598;
704453859949870;0.2213;0.0333;-0.0577;
704453870050547;0.2469;0.0194;-0.0513;
704453880151224;0.2746;-0.0039;-0.0566;
704453890253412;0.3065;-0.0166;-0.0609;
704453900354089;0.3310;-0.0134;-0.0587;
704453910454818;0.3523;-0.0071;-0.0555;
704453920553724;0.3534;0.0047;-0.0587;
704453930654453;0.3417;-0.0039;-0.0577;
704453940755078;0.3300;-0.0390;-0.0534;
704453950856068;0.3246;-0.0475;-0.0577;
704453960956797;0.3204;0.0004;-0.0672;
704453971057422;0.3289;0.0461;-0.0715;
704453981156224;0.3470;0.0365;-0.0694;
704453991256901;0.3715;-0.0017;-0.0598;
704454001357630;0.3949;-0.0060;-0.0704;
704454011455235;0.4088;0.0132;-0.0672;
704454021555912;0.4141;0.0184;-0.0545;
704454031656537;0.4322;0.0173;-0.0449;
704454041748620;0.4525;0.0173;-0.0534;
704454051849245;0.4461;0.0162;-0.0630;
704454061949922;0.4216;0.0184;-0.0694;
704454072064349;0.3896;0.0121;-0.0662;
704454082165026;0.3683;-0.0252;-0.0822;
704454092265755;0.3374;-0.0337;-0.1077;
704454102365182;0.3118;-0.0411;-0.1067;
704454112465860;0.2991;-0.0614;-0.0864;
704454122566537;0.2831;-0.0539;-0.0726;
704454132661849;0.2597;-0.0326;-0.0768;
704454142762526;0.2064;-0.0166;-0.0949;
704454152863255;0.1350;-0.0316;-0.1216;
704454162965078;0.1009;-0.0337;-0.1353;
704454173065807;0.0988;0.0079;-0.1342;
704454183166485;0.1233;0.0205;-0.1162;
704454193265807;0.1393;0.0015;-0.1067;
704454203366485;0.1606;-0.0230;-0.1045;
704454213467214;0.1766;-0.0284;-0.1141;
704454223562943;0.2075;-0.0156;-0.1109;
704454233663568;0.2362;-0.0081;-0.0971;
704454243764297;0.2245;0.0439;-0.0949;
704454253889818;0.2256;0.1142;-0.1225;
704454263990495;0.2075;0.0929;-0.1523;
704454274091120;0.1659;-0.0060;-0.1630;
704454284168724;0.1766;-0.0646;-0.1523;
704454294269401;0.2330;-0.1242;-0.1310;
704454304370078;0.3214;-0.1029;-0.1141;
704454314464818;0.3907;-0.0593;-0.1099;
704454324565495;0.4248;-0.0646;-0.1130;
704454334666172;0.4386;-0.0326;-0.1374;
704454344765912;0.4439;-0.0220;-0.1598;
704454354866537;0.3917;-0.0262;-0.1470;
704454364967266;0.3332;-0.0060;-0.1035;
704454375050599;0.2937;-0.0262;-0.0768;
704454385151276;0.3129;-0.0262;-0.0917;
704454395251953;0.3417;0.0004;-0.1438;
704454405364818;0.3385;0.0290;-0.1587;
704454415465495;0.2735;0.0216;-0.1332;
704454425566172;0.2160;-0.0401;-0.1035;
704454435676432;0.2000;-0.0784;-0.1194;
704454445777110;0.2011;-0.0699;-0.1683;
704454455877787;0.1893;-0.0103;-0.1523;
704454466001745;0.1542;-0.0113;-0.1395;
704454476102422;0.1616;0.0132;-0.1715;
704454486203047;0.1616;0.0216;-0.1971;
704454496260807;0.1787;0.0173;-0.1651;
704454506361485;0.1819;0.0226;-0.1184;
704454516462162;0.1595;-0.0294;-0.0928;
704454526573620;0.1435;-0.0806;-0.1173;
704454536674297;0.1840;-0.0593;-0.1363;
704454546774974;0.2064;0.0057;-0.1130;
704454556893932;0.2117;-0.0198;-0.0800;
704454566994610;0.2607;-0.0145;-0.0822;
704454577095287;0.3406;0.0100;-0.0640;
704454587170495;0.4248;0.0407;-0.0214;
704454597271172;0.4525;0.0068;0.0148;
704454607371849;0.4876;-0.0529;0.0190;
704454617488516;0.5398;-0.0103;-0.0001;
704454627589193;0.5345;0.0301;0.0084;
704454637689870;0.4993;-0.0007;0.0457;
704454647777005;0.5217;-0.0880;0.0680;
704454657877682;0.5164;-0.0358;0.0670;
704454667978360;0.4535;0.0546;0.0712;
704454678111745;0.3513;-0.0177;0.1245;
704454688212422;0.2160;-0.0284;0.1703;
704454698313099;0.1318;0.0589;0.1383;
704454708377630;0.0541;0.0727;0.0947;
704454718478255;-0.0736;0.0258;0.0979;
704454728578985;-0.2217;0.0397;0.0979;
704454738681745;-0.3197;0.0940;0.0893;
704454748782422;-0.3378;0.0535;0.1011;
704454758883099;-0.3868;-0.0017;0.1053;
704454768991693;-0.4859;0.0844;0.1149;
704454779092370;-0.5146;0.0599;0.1362;
704454789193099;-0.5093;0.0111;0.1394;
704454799292266;-0.5933;0.0780;0.1117;
704454809392995;-0.6051;0.0503;0.1170;
704454819493620;-0.6051;0.0407;0.0936;
704454829582995;-0.6743;0.1004;0.0531;
704454839683672;-0.6999;0.0620;0.0393;
704454849784349;-0.6945;-0.0220;0.0063;
704454859889557;-0.7371;-0.0582;-0.0108;
704454869990287;-0.7808;-0.0177;-0.0119;
704454880090912;-0.8053;-0.0294;-0.0236;
704454890190182;-0.8415;-0.0294;-0.0736;
704454900290912;-0.8841;0.0237;-0.0992;
704454910391589;-0.8916;-0.0060;-0.1077;
704454920485026;-0.8160;-0.0944;-0.1289;
704454930585703;-0.8256;-0.0209;-0.1715;
704454940686380;-0.9204;0.0578;-0.2056;
704454950785339;-0.8607;-0.0358;-0.1885;
704454960886016;-0.7478;-0.0688;-0.2099;
704454970986641;-0.7478;0.0237;-0.2194;
704454981101537;-0.7957;0.0525;-0.2013;
704454991202266;-0.7190;0.0237;-0.2173;
704455001302943;-0.5763;0.0089;-0.2525;
704455011392787;-0.4806;-0.0049;-0.2652;
704455021493412;-0.3857;-0.1253;-0.2205;
704455031594089;-0.2973;-0.0880;-0.1917;
704455041696849;-0.2792;-0.0017;-0.2120;
704455051797526;-0.2015;0.0142;-0.1917;
704455061898203;-0.1120;0.0237;-0.1534;
704455072000912;-0.0854;0.0514;-0.1662;
704455082101641;0.0084;0.0333;-0.1598;
704455092202318;0.0892;-0.0209;-0.1374;
704455102304557;0.1329;-0.0230;-0.1534;
704455112405235;0.1158;0.0057;-0.1502;
704455122505912;0.0988;-0.0156;-0.1216;
704455132603724;0.1393;0.0004;-0.1162;
704455142704401;0.1201;-0.0049;-0.1099;
704455152805078;0.0924;-0.0348;-0.0896;
704455162899818;0.1169;-0.0220;-0.0875;
704455173000443;0.1414;-0.0220;-0.0800;
704455183101120;0.1414;-0.0252;-0.0587;
704455193199505;0.1531;0.0290;-0.0832;
704455203300182;0.1680;0.0929;-0.0683;
704455213400860;0.1158;0.0866;-0.0300;
704455223500964;0.0871;0.0695;-0.0566;
704455233601641;0.0668;0.0716;-0.0438;
704455243702318;-0.0129;0.0887;-0.0619;
704455253845495;-0.0928;0.0961;-0.0864;
704455263946172;-0.1184;0.0993;-0.0598;
704455274046849;-0.1173;0.0068;-0.0523;
704455284108828;-0.1099;-0.0273;-0.0523;
704455294209453;-0.0960;-0.0039;-0.0523;
704455304310130;-0.0822;-0.0422;-0.0481;
704455314408828;-0.0747;-0.0688;-0.0225;
704455324509505;-0.0459;-0.0337;-0.0395;
704455334610182;0.0562;0.0418;-0.0609;
704455344702943;0.1585;0.0684;-0.0119;
704455354803620;0.1489;0.0695;-0.0545;
704455364904297;0.0828;0.0503;-0.0896;
704455375066641;0.0658;-0.0529;-0.0981;
704455385167318;0.0818;-0.0742;-0.1088;
704455395267995;0.1318;-0.0124;-0.0843;
704455405301068;0.1201;-0.0955;-0.0907;
704455415401745;0.0743;-0.0848;-0.1088;
704455425502370;0.0222;-0.0933;-0.1152;
704455435619037;0.0063;-0.1019;-0.1491;
704455445719714;0.0393;-0.0369;-0.1406;
704455455820391;0.0466;0.0047;-0.1715;
704455465952735;-0.0534;-0.0550;-0.1843;
704455476053360;-0.0704;-0.0646;-0.1949;
704455486154089;-0.0310;-0.0230;-0.1928;
704455496240182;-0.0321;-0.0049;-0.1832;
704455506340860;-0.0182;-0.0060;-0.1992;
704455516441537;-0.0119;-0.0113;-0.2077;
704455526527839;0.0350;-0.0688;-0.1864;
704455536628568;0.0818;-0.0316;-0.1672;
704455546729245;0.1201;0.0578;-0.1779;
704455556803412;0.1158;0.0929;-0.1885;
704455566904089;0.0105;-0.0433;-0.1470;
704455577004766;0.0372;-0.1221;-0.1427;
704455587117995;0.0679;-0.0518;-0.1694;
704455597218672;0.1222;-0.0859;-0.1513;
704455607319349;0.1723;-0.0529;-0.1300;
704455617438412;0.1148;0.0184;-0.1024;
704455627539089;0.0530;-0.0209;-0.1332;
704455637639766;0.0201;0.0173;-0.1694;
704455647721328;0.0180;-0.0390;-0.1342;
704455657822005;0.0052;-0.0454;-0.0928;
704455667922682;0.0297;0.0397;-0.1013;
704455678039245;-0.0023;0.0503;-0.1523;
704455688139922;-0.0395;0.0269;-0.1438;
704455698240599;-0.0108;0.0152;-0.1257;
704455708323255;0.0201;0.0365;-0.0726;
704455718423932;0.0605;0.0333;-0.0683;
704455728524610;0.1531;0.0354;-0.0672;
704455738624245;0.2160;0.0375;-0.0534;
704455748724922;0.2245;0.0280;-0.0353;
704455758825599;0.2501;0.0407;-0.0449;
704455768926068;0.2394;0.0344;-0.0108;
704455779026693;0.2128;-0.0241;0.0009;
704455789127422;0.0605;-0.1935;0.0020;
704455799235495;0.1318;-0.2702;0.0190;
704455809336224;0.2799;-0.1935;0.0329;
704455819436849;0.3949;-0.0134;0.0084;
704455829531745;0.3662;0.0823;-0.0044;
704455839632422;0.2831;-0.0071;0.0627;
704455849733099;0.2362;0.0397;0.1107;
704455859829453;0.3033;0.0929;0.1330;
704455869930078;0.3065;0.1228;0.0936;
704455880030755;0.2820;0.1206;0.0893;
704455890131276;0.1680;0.0727;0.1138;
704455900231901;0.1297;0.1324;0.1064;
704455910332630;0.1265;0.1015;0.1149;
704455920430287;0.0743;0.0482;0.0808;
704455930530964;0.0690;0.0706;0.0755;
704455940631641;0.0786;0.0036;0.1000;
704455950731589;0.0690;0.0216;0.0830;
704455960832214;0.0541;0.0546;0.0510;
704455970932943;0.0530;-0.0028;0.0648;
704455981037943;0.0551;-0.0103;0.0627;
704455991138672;0.0743;0.0354;0.0755;
704456001239297;0.0679;0.0397;0.0553;
704456011334610;0.0807;0.0100;0.0595;
704456021435235;0.0679;0.0152;0.0329;
704456031535912;0.0786;0.0100;0.0435;
704456041637943;0.0871;-0.0475;0.0446;
704456051738568;0.0615;-0.0273;0.0435;
704456061839245;0.0425;-0.0071;0.0073;
704456071944297;-0.0033;0.0237;-0.0150;
704456082044974;-0.0598;0.1366;-0.0193;
704456092145651;-0.0917;0.3347;-0.0790;
704456102246745;0.0350;0.3188;-0.0928;
704456112347422;0.1648;0.0152;-0.0619;
704456122448099;0.1425;-0.0774;-0.0726;
704456132547474;0.0403;0.0791;-0.1236;
704456142648203;0.0967;-0.0284;-0.0577;
704456152748828;0.2053;-0.1296;-0.0044;
704456162841589;0.1808;-0.1530;0.0244;
704456172942266;0.1371;-0.1296;0.0158;
704456183042943;0.1350;-0.0923;0.0105;
704456193143568;0.1680;-0.0774;0.0489;
704456203244193;0.1648;-0.0166;0.0414;
704456213344922;0.1478;0.0716;0.0222;
704456223445547;0.1957;0.0471;-0.0119;
704456233546172;0.2138;0.0663;-0.0332;
704456243646901;0.1798;0.1015;0.0148;
704456253761068;0.1553;0.0546;0.0148;
704456263861745;0.1915;0.0354;0.0009;
704456273962422;0.1702;-0.0028;-0.0076;
704456284056016;0.1542;-0.0965;-0.0129;
704456294156693;0.1063;-0.0859;-0.0321;
704456304257422;0.1063;-0.0614;-0.0236;
704456314347630;0.1574;-0.0401;0.0009;
704456324448307;0.1574;-0.0475;-0.0150;
704456334548985;0.1915;-0.0656;-0.0129;
704456344650495;0.1435;-0.0688;-0.0310;
704456354751172;0.1851;-0.0571;-0.0012;
704456364851797;0.1542;-0.0156;-0.0001;
704456374949193;0.1691;0.0226;-0.0502;
704456385049922;0.1989;0.0111;-0.0321;
704456395150599;0.1787;0.0322;-0.0353;
704456405279037;0.1957;0.0546;-0.0513;
704456415379714;0.1744;0.0716;-0.0555;
704456425480391;0.1968;0.0589;-0.0332;
704456435547943;0.1925;0.0802;-0.0214;
704456445648307;0.1904;0.0111;-0.0150;
704456455748672;0.1893;-0.0348;-0.0140;
704456465856172;0.1585;-0.0433;-0.0172;
704456475956537;0.1403;-0.0646;-0.0225;
704456486056901;0.1553;-0.0539;-0.0119;
704456496153985;0.1616;-0.1019;0.0009;
704456506254349;0.1457;-0.0529;0.0116;
704456516354714;0.1648;-0.0113;0.0084;
704456526479974;0.2064;-0.0806;0.0435;
704456536580391;0.1542;-0.0326;0.0254;
704456546680703;0.1542;0.0047;0.0063;
704456556752266;0.2096;0.0972;0.0169;
704456566852682;0.2543;0.1079;-0.0023;
704456576952995;0.3640;0.0887;-0.0055;
704456587077682;0.3491;0.1771;0.0201;
704456597178047;0.3790;0.0993;0.0553;
704456607278412;0.4077;0.0152;0.0361;
704456617380964;0.3619;-0.0561;0.0734;
704456627481328;0.2756;-0.0529;0.0734;
704456637581693;0.3204;-0.0635;0.0872;
704456647662422;0.3853;-0.0294;0.0766;
704456657762787;0.4567;-0.0092;0.0840;
704456667863151;0.4983;0.0184;0.1213;
704456677980599;0.4961;0.0375;0.1202;
704456688080964;0.4833;0.0802;0.1128;
704456698181328;0.5036;0.1260;0.1170;
704456708267318;0.4993;0.1579;0.1202;
704456718367682;0.4759;0.1281;0.1575;
704456728468047;0.3704;0.0546;0.1671;
704456738568203;0.2650;0.0791;0.1543;
704456748668568;0.2160;0.0631;0.1362;
704456758768932;0.2437;0.0015;0.1660;
704456768869505;0.1723;0.0152;0.2023;
704456778969870;0.1638;0.0397;0.1980;
704456789070235;0.1616;0.0429;0.1969;
704456799181693;0.1531;0.0015;0.1820;
704456809282057;0.1616;0.0079;0.2150;
704456819382422;0.1095;0.0780;0.2236;
704456829474610;0.1265;0.0354;0.2033;
704456839574974;0.1009;-0.0241;0.2193;
704456849675339;0.0020;0.0652;0.2385;
704456859774610;-0.0502;0.0908;0.2513;
704456869874974;-0.0513;-0.0049;0.2534;
704456879975339;-0.1088;-0.0039;0.2470;
704456890074297;-0.2036;0.0450;0.2608;
704456900174662;-0.2089;0.0471;0.2736;
704456910275026;-0.2079;-0.0017;0.2694;
704456920375755;-0.3176;0.0535;0.2800;
704456930476120;-0.4017;0.0461;0.2587;
704456940576485;-0.4379;-0.0699;0.2406;
704456950678464;-0.5402;-0.1125;0.2300;
704456960778828;-0.6019;-0.0348;0.1980;
704456970879193;-0.6232;-0.0411;0.2087;
704456980987839;-0.6871;-0.0401;0.1948;
704456991088203;-0.7616;0.0716;0.1330;
704457001188568;-0.7510;0.0652;0.0808;
704457011290130;-0.7638;0.0375;0.0819;
704457021390495;-0.8170;0.0386;0.0744;
704457031490860;-0.8192;0.0205;0.0382;
704457041597005;-0.8064;-0.0103;-0.0214;
704457051697370;-0.7254;-0.0145;-0.0236;
704457061797735;-0.6679;-0.0092;-0.0278;
704457071901589;-0.5635;-0.0166;-0.0502;
704457082001953;-0.4774;-0.0869;-0.0427;
704457092102318;-0.3730;-0.1157;-0.0491;
704457102195130;-0.2451;-0.0103;-0.0662;
704457112295495;-0.1929;0.0482;-0.0577;
704457122395860;-0.1120;-0.0422;-0.0129;
704457132501172;-0.0001;-0.0656;0.0095;
704457142601589;0.0562;0.0089;-0.0044;
704457152701953;0.1244;0.0322;0.0095;
704457162791589;0.1712;0.0036;0.0510;
704457172891953;0.2138;0.0482;0.0862;
704457182992318;0.2213;0.0333;0.1160;
704457193093776;0.2096;-0.0039;0.1234;
704457203194141;0.1776;-0.0188;0.1682;
704457213294505;0.1126;-0.0294;0.2065;
704457223401485;0.0605;0.0258;0.2033;
704457233501849;0.0169;0.0844;0.2033;
704457243602214;-0.0470;0.0482;0.2417;
704457253705339;-0.1503;-0.0369;0.2630;
704457263805703;-0.2473;-0.0763;0.2321;
704457273906068;-0.3399;-0.0252;0.1991;
704457284000391;-0.4230;0.0354;0.2097;
704457294100755;-0.5253;0.0738;0.1884;
704457304201120;-0.5168;-0.0071;0.1767;
704457314292526;-0.5880;-0.0923;0.1352;
704457324392891;-0.6988;-0.0092;0.0766;
704457334493255;-0.6913;0.0716;0.0542;
704457344600651;-0.6541;0.0450;0.0531;
704457354701016;-0.6668;0.0057;0.0308;
704457364801380;-0.6935;0.0514;-0.0385;
704457374896953;-0.6679;0.0780;-0.0747;
704457384997370;-0.6487;-0.0081;-0.0758;
704457395097735;-0.6136;-0.0273;-0.1045;
704457405198151;-0.5891;0.0004;-0.1395;
704457415298516;-0.5296;-0.0422;-0.1385;
704457425398880;-0.4731;-0.1360;-0.1502;
704457435496016;-0.4262;-0.1264;-0.1609;
704457445596485;-0.4273;0.0525;-0.1832;
704457455696953;-0.3975;0.1313;-0.1928;
704457465798255;-0.3091;0.0770;-0.2045;
704457475898724;-0.2451;0.0855;-0.2525;
704457485999193;-0.2505;0.0610;-0.2312;
704457496096016;-0.2505;0.0599;-0.2546;
704457506196485;-0.1642;0.0578;-0.2759;
704457516296953;-0.1226;0.0493;-0.2557;
704457526420912;-0.1056;0.0333;-0.2439;
704457536521380;-0.0523;-0.0092;-0.2365;
704457546621849;-0.0257;-0.0028;-0.2429;
704457556697682;0.0190;-0.0486;-0.2439;
704457566798151;0.0722;-0.0710;-0.2173;
704457576898620;0.0340;-0.0156;-0.2077;
704457586999297;0.0435;0.0173;-0.2035;
704457597099714;0.1361;0.0100;-0.2024;
704457607200182;0.1787;0.0068;-0.1768;
704457617323203;0.1904;0.0079;-0.1427;
704457627423672;0.2181;0.0142;-0.1205;
704457637524141;0.2820;0.0386;-0.0896;
704457647614141;0.3214;0.1792;-0.1152;
704457657714662;0.3278;0.2208;-0.0854;
704457667815078;0.2767;-0.0071;-0.0140;
704457677925287;0.2703;-0.1881;0.0212;
704457688025755;0.1798;-0.1796;-0.0342;
704457698126224;0.0786;-0.1605;-0.0683;
704457708218516;0.0487;-0.1530;-0.0534;
704457718318985;0.0487;-0.1306;-0.0161;
704457728419505;0.0487;-0.0923;-0.0087;
704457738514401;0.0382;-0.0443;-0.0076;
704457748614870;0.0073;0.0375;-0.0236;
704457758715287;-0.0065;0.1015;-0.0182;
704457768830391;0.0063;0.0866;0.0020;
704457778930860;-0.0587;0.0333;0.0095;
704457789031328;-0.0800;0.1366;-0.0150;
704457799120391;0.0031;0.2911;-0.0012;
704457809220860;-0.0555;0.1345;-0.0182;
704457819321328;-0.0640;-0.0795;0.0073;
704457829418776;-0.0907;-0.2510;0.0254;
704457839519193;-0.2025;-0.3383;0.0063;
704457849619662;-0.3421;-0.1328;-0.0619;
704457859724037;-0.3964;0.1760;-0.1024;
704457869824557;-0.2984;0.1494;-0.0981;
704457879924974;-0.0917;0.0121;-0.1257;
704457890024193;-0.0758;0.0578;-0.1609;
704457900124610;-0.1141;0.1835;-0.1672;
704457910225078;-0.0683;0.0663;-0.1502;
704457920330443;0.0105;-0.0869;-0.1363;
704457930430912;0.0393;-0.0731;-0.1152;
704457940531380;0.0148;-0.0806;-0.0928;
704457950635860;0.0850;-0.0912;-0.0715;
704457960736328;0.1126;-0.0188;-0.0470;
704457970836797;0.1521;-0.1743;-0.0321;
704457980934610;0.2117;-0.2659;-0.0268;
704457991035078;0.0393;0.0525;-0.0587;
704458001135547;-0.0097;0.3284;-0.0470;
704458011230391;0.0690;0.2059;-0.0662;
704458021330912;0.1553;0.1111;-0.0992;
704458031431328;0.1201;0.1345;-0.1289;
704458041542057;0.0382;0.0791;-0.1194;
704458051642526;-0.0044;0.0194;-0.1088;
704458061742995;0.0009;-0.0039;-0.0811;
704458071851276;0.0105;-0.0678;-0.1003;
704458081951797;0.0201;-0.1253;-0.0747;
704458092052214;-0.0172;0.0068;-0.1003;
704458102150391;-0.0108;0.0589;-0.0811;
704458112250860;0.1499;-0.0326;-0.0598;
704458122351328;0.1968;-0.0284;-0.0364;
704458132441537;0.1265;-0.0017;-0.0481;
704458142542005;0.1158;0.0068;-0.0640;
704458152642474;0.1808;0.0365;-0.0332;
704458162742057;0.1915;0.0132;0.0041;
704458172842526;0.2628;-0.0784;0.0126;
704458182942995;0.1787;-0.0763;0.0041;
704458193050860;0.0329;0.0834;-0.0310;
704458203151328;0.0551;0.1068;0.0180;
704458213251797;0.1308;0.0057;0.0190;
704458223344974;0.0881;0.0301;-0.0150;
704458233445443;0.0414;0.0354;-0.0438;
704458243545912;0.0977;0.0015;-0.0332;
704458253641589;0.0956;-0.0230;0.0116;
704458263742005;0.0551;-0.0401;0.0414;
704458273842526;0.0126;-0.0028;0.0340;
704458283961693;0.0052;-0.0603;0.0606;
704458294062214;-0.0598;-0.0230;0.0222;
704458304162630;-0.1173;0.0162;0.0063;
704458314251849;-0.1088;-0.0028;0.0254;
704458324352318;-0.1173;0.0089;0.0137;
704458334452839;-0.1067;0.0216;-0.0140;
704458344543464;-0.0885;0.0375;-0.0161;
704458354643880;-0.0353;0.0100;0.0095;
704458364744349;-0.0108;-0.0326;0.0009;
704458374872995;-0.0598;-0.0134;-0.0364;
704458384973412;-0.1067;-0.0060;-0.0257;
704458395073932;-0.1184;-0.0017;-0.0214;
704458405151849;-0.1088;-0.0134;-0.0193;
704458415252370;-0.1599;0.0057;-0.0172;
704458425352787;-0.1546;0.0237;-0.0193;
704458435452162;-0.0971;-0.0060;-0.0033;
704458445552735;-0.0598;-0.0337;-0.0481;
704458455653307;-0.1120;-0.0230;-0.0683;
704458465749193;-0.1184;-0.0039;-0.0523;
704458475849766;-0.1503;-0.0039;-0.0683;
704458485950287;-0.2015;0.0557;-0.1003;
704458496072891;-0.1887;0.0684;-0.1035;
704458506173464;-0.0736;0.0237;-0.1109;
704458516273985;-0.0193;0.0162;-0.1130;
704458526358464;0.0201;-0.0198;-0.0917;
704458536458985;0.0329;-0.0379;-0.1056;
704458546559557;0.0477;-0.0188;-0.1225;
704458556650495;0.0754;-0.0603;-0.1013;
704458566751068;0.0541;-0.0475;-0.1067;
704458576851589;-0.0268;0.0047;-0.0726;
704458586950182;-0.0012;0.0152;-0.0683;
704458597050755;0.0754;-0.0379;-0.0971;
704458607151276;0.0148;-0.0305;-0.1045;
704458617276432;-0.2537;0.1547;-0.0726;
704458627377005;-0.3059;0.2698;-0.0694;
704458637477526;0.1670;0.1387;-0.0790;
704458647557318;0.9828;-0.1285;-0.0822;
704458657657839;1.5952;-0.3447;-0.0193;
704458667758412;1.4066;-0.2499;0.0819;
704458677875235;0.9285;-0.1221;0.1266;
704458687975755;0.3300;-0.0017;0.1298;
704458698076328;-0.2803;0.1643;0.1202;
704458708164141;-0.6583;0.3007;0.1256;
704458718264714;-0.4880;0.2634;0.1426;
704458728365287;0.0583;0.1121;0.1469;
704458738464401;0.6568;-0.1051;0.1511;
704458748564922;0.9583;-0.2553;0.1863;
704458758665495;0.6824;-0.2020;0.2065;
704458768768724;0.1371;-0.0124;0.2683;
704458778869297;-0.0566;-0.0838;0.3194;
704458788969818;-0.1429;-0.1242;0.2577;
704458799084453;-0.6391;0.0375;0.1820;
704458809185026;-1.4465;0.3454;0.0979;
704458819285547;-1.6947;0.4104;0.0308;
704458829370287;-0.9566;0.0461;-0.0566;
704458839470860;-0.1514;-0.1562;-0.1491;
704458849571380;0.0212;-0.1296;-0.1609;
704458859675860;0.1222;-0.1945;-0.1088;
704458869776432;0.1190;-0.2116;-0.0854;
704458879876953;-0.1993;-0.1168;-0.0832;
704458889977995;-0.5487;0.0344;-0.0758;
704458900078568;-0.8671;0.1899;-0.1141;
704458910179141;-0.7755;0.1632;-0.1545;
704458920288099;-0.4347;0.0983;-0.1907;
704458930388672;-0.0438;-0.0156;-0.2173;
704458940489245;0.2533;-0.0976;-0.2322;
704458950579193;0.1734;-0.0497;-0.2418;
704458960679766;0.0222;-0.0092;-0.2077;
704458970780287;-0.1045;0.0301;-0.1513;
704458980889037;-0.2079;0.1494;-0.1577;
704458990989610;-0.0651;0.1387;-0.1694;
704459001090130;0.2650;0.0142;-0.1225;
704459011177057;0.5302;-0.0326;-0.0843;
704459021277630;0.6632;-0.0603;-0.0300;
704459031378151;0.6941;-0.0891;0.0233;
704459041485964;0.5324;-0.0571;0.0776;
704459051586485;0.2149;0.0386;0.1032;
704459061687057;0.0148;0.1047;0.1032;
704459071776328;0.0446;0.0663;0.0819;
704459081876849;0.1616;0.0079;0.0776;
704459091977370;0.1840;0.0142;0.0734;
704459102094662;0.2533;-0.0220;0.0915;
704459112195235;0.4003;-0.1093;0.1298;
704459122295755;0.3395;-0.1019;0.1479;
704459132392110;0.1371;-0.0209;0.1714;
704459142492682;0.0636;0.0184;0.2065;
704459152593203;0.0647;0.0333;0.2278;
704459162694453;0.0530;0.0738;0.2353;
704459172795026;0.0711;0.0855;0.2619;
704459182895547;0.1925;0.0354;0.2321;
704459192986432;0.2916;0.0258;0.2395;
704459203087005;0.3662;-0.0028;0.2790;
704459213187578;0.4312;-0.0220;0.2907;
704459223290860;0.3268;0.0205;0.2790;
704459233391432;0.2628;0.0418;0.2779;
704459243492005;0.3939;-0.0348;0.3013;
704459253593985;0.3715;-0.1423;0.2939;
704459263694505;-0.0928;0.0727;0.3269;
704459273795078;-0.2686;0.1973;0.3482;
704459283916797;0.1158;-0.0209;0.3631;
704459294017370;0.2628;-0.1125;0.3525;
704459304117943;-0.0076;0.0057;0.3663;
704459314194453;-0.3378;0.1089;0.3770;
704459324295026;-0.1951;0.0897;0.3322;
704459334395599;0.1648;-0.0007;0.3194;
704459344496380;0.7719;-0.2691;0.3354;
704459354596901;1.0169;-0.4640;0.3003;
704459364697474;0.0839;-0.1786;0.3141;
704459374800807;-1.1664;0.2549;0.3003;
704459384901328;-1.7904;0.4253;0.2161;
704459395001901;-1.7639;0.4210;0.1085;
704459405100391;-1.3751;0.3710;-0.0225;
704459415200964;-0.2366;-0.1008;-0.0417;
704459425301485;0.6824;-0.4087;-0.0300;
704459435404349;0.2288;-0.0923;-0.0172;
704459445504922;-0.3399;0.0759;0.0340;
704459455605443;-0.3826;0.0015;0.0031;
704459465700287;-0.4816;0.0152;-0.0332;
704459475800860;-0.8820;0.2421;-0.0736;
704459485901380;-1.1759;0.3422;-0.1768;
704459496039453;-1.1951;0.4402;-0.2812;
704459506139974;-0.8756;0.3635;-0.3366;
704459516240495;0.2149;-0.1413;-0.3110;
704459526310964;1.0680;-0.3778;-0.3409;
704459536411432;1.2022;-0.3746;-0.2865;
704459546512005;0.5249;-0.1711;-0.1704;
704459556610912;-0.0917;0.0280;-0.0587;
704459566711432;-0.5008;0.1856;-0.0310;
704459576811953;-0.5082;0.2261;-0.0374;
704459586921016;-0.0790;0.0706;-0.0928;
704459597021589;0.2959;-0.0337;-0.1363;
704459607122110;0.4067;-0.0284;-0.1035;
704459617229766;0.4642;-0.0539;-0.0630;
704459627330287;0.4418;-0.0188;-0.0587;
704459637430860;0.3087;0.0482;-0.0513;
704459647505547;0.4056;-0.0241;-0.0502;
704459657606068;0.3864;-0.0241;-0.0459;
704459667706589;0.2415;0.0344;-0.0310;
704459677827839;0.1851;0.0375;-0.0182;
704459687928412;0.2149;0.0205;0.0105;
704459698028932;0.2692;-0.0145;0.0148;
704459708114349;0.3896;-0.0710;0.0350;
704459718214922;0.3843;-0.1189;0.0670;
704459728315443;0.1563;-0.0507;0.0393;
704459738411485;-0.0534;0.0471;0.0489;
704459748512005;-0.1290;0.0684;0.0531;
704459758612526;-0.0001;0.0205;0.0489;
704459768739037;0.0913;-0.0358;0.0052;
704459778839557;0.0498;-0.0252;-0.0236;
704459788940078;-0.0108;0.0057;-0.0300;
704459799018203;0.0052;-0.0134;-0.0150;
704459809118776;-0.0321;-0.0241;-0.0044;
704459819219297;-0.1120;-0.0220;-0.0289;
704459829325703;-0.2185;0.0344;-0.0587;
704459839426276;-0.2643;0.0620;-0.0406;
704459849526797;-0.1589;-0.0198;-0.0619;
704459859624557;-0.0800;-0.0081;-0.1268;
704459869725130;-0.0928;0.0216;-0.1194;
704459879825651;-0.0481;0.0089;-0.1130;
704459889924557;0.0435;-0.0134;-0.1310;
704459900025130;0.0881;-0.0475;-0.1449;
704459910125651;0.1265;-0.0507;-0.1609;
704459920223255;0.0935;-0.0518;-0.1651;
704459930323776;0.1073;-0.0731;-0.1363;
704459940424297;0.0828;-0.0433;-0.1523;
704459950540807;0.0340;0.0025;-0.1406;
704459960641380;0.0105;0.0397;-0.0811;
704459970741901;0.1308;-0.0060;-0.0630;
704459980837474;0.2575;-0.0507;-0.0747;
704459990938047;0.3012;-0.0720;-0.0843;
704460001038568;0.2032;-0.0294;-0.0854;
704460011134557;0.0711;0.0333;-0.0694;
704460021235130;0.0403;0.0791;-0.0768;
704460031335651;0.0903;0.0248;-0.0672;
704460041446537;0.1489;-0.0166;-0.0747;
704460051547110;0.1830;-0.0028;-0.0907;
704460061647630;0.1201;0.0152;-0.0768;
704460071744037;0.1031;-0.0134;-0.0832;
704460081844610;0.1457;-0.0305;-0.0587;
704460091945130;0.1148;-0.0103;-0.0534;
704460102037266;0.0977;-0.0603;-0.0161;
704460112137839;0.1126;-0.0742;-0.0150;
704460122238360;0.0477;-0.0262;-0.0364;
704460132339453;-0.0491;0.0047;-0.0417;
704460142440026;-0.0843;0.0248;-0.0300;
704460152540547;-0.0640;0.0132;-0.0513;
704460162636641;-0.0044;-0.0007;-0.0438;
704460172737214;0.0169;-0.0103;-0.0800;
704460182837735;0.0084;-0.0039;-0.0662;
704460192935964;-0.0427;0.0354;-0.0513;
704460203036485;-0.0278;0.0162;-0.0523;
704460213137005;0.0126;-0.0326;-0.0662;
704460223243620;0.0158;-0.0273;-0.0534;
704460233344193;-0.0278;0.0620;-0.0470;
704460243444714;-0.0236;0.0397;-0.0619;
704460253540339;0.0393;0.0237;-0.0747;
704460263640860;0.0361;0.0983;-0.1184;
704460273741380;0.0435;-0.0571;-0.0949;
704460283863880;0.0446;-0.0358;-0.1077;
704460293964453;-0.0119;0.2165;-0.1534;
704460304064974;0.0519;0.1473;-0.1056;
704460314146016;0.0764;-0.0656;-0.1035;
704460324246589;0.1425;-0.1360;-0.1013;
704460334347110;0.1947;-0.0433;-0.0939;
704460344439193;0.1414;0.0344;-0.0715;
704460354539714;0.0711;-0.0198;-0.0481;
704460364640235;0.1020;-0.0699;-0.0417;
704460374732474;0.1446;-0.0955;-0.0225;
704460384832995;0.1073;-0.1146;-0.0417;
704460394933568;0.0636;0.0025;-0.0715;
704460405053932;0.0509;-0.0486;-0.0427;
704460415154505;0.0414;0.0866;-0.0640;
704460425255026;0.0297;-0.0252;-0.0640;
704460435354245;0.0615;-0.2819;-0.0619;
704460445454818;0.0892;-0.0049;-0.0694;
704460455555287;0.0041;0.1569;-0.0534;
704460465646537;-0.0395;-0.0166;-0.0044;
704460475747110;0.0361;-0.1274;-0.0193;
704460485847578;0.0668;-0.1008;-0.0193;
704460495995495;0.0605;-0.0049;-0.0193;
704460506096016;0.0201;-0.0507;-0.0310;
704460516196485;0.0498;-0.0379;-0.0672;
704460526251328;0.0382;0.0173;-0.0449;
704460536351849;0.0393;-0.0262;-0.0427;
704460546452370;0.0690;-0.0443;-0.0598;
704460556562474;0.0573;-0.0550;-0.0598;
704460566662995;0.0860;-0.0624;-0.0459;
704460576763516;0.0636;-0.1349;-0.0140;
704460586868932;0.0318;-0.2542;-0.0012;
704460596969453;0.1286;-0.2222;0.0233;
704460607069922;0.1989;-0.0252;0.0126;
704460617169245;0.2064;0.0738;0.0276;
704460627269818;0.0711;0.0802;0.0595;
704460637370287;0.0892;0.1228;0.0414;
704460647456797;0.1382;0.1707;0.0521;
704460657557318;0.1382;0.1526;0.0467;
704460667657787;0.0881;0.1377;0.0382;
704460677773828;0.0414;0.1185;0.0382;
704460687874349;0.0222;0.1004;0.0190;
704460697974870;-0.0364;0.0716;0.0329;
704460708061172;-0.0726;0.0111;0.0340;
704460718161641;-0.1013;0.1079;0.0105;
704460728262162;-0.1109;0.1803;-0.0033;
704460738362943;-0.0896;-0.0497;0.0158;
704460748463412;0.0254;-0.2308;0.0435;
704460758563932;0.0807;-0.1764;0.0116;
704460768665130;0.0807;-0.1391;0.0233;
704460778765599;0.1329;-0.1541;0.0904;
704460788866120;0.1403;-0.1115;0.0862;
704460798978099;0.1563;-0.0305;0.0563;
704460809078620;0.1222;-0.0017;0.0648;
704460819179141;0.0700;0.0375;0.0968;
704460829272682;0.0477;0.0993;0.0776;
704460839373203;0.0158;0.1185;0.0467;
704460849473724;-0.0353;0.0887;0.0542;
704460859571849;-0.0630;0.0461;0.0819;
704460869672422;-0.1152;0.0312;0.0595;
704460879772891;-0.0811;0.0748;0.0308;
704460889881120;-0.0300;0.0344;0.0702;
704460899981641;0.0158;0.0322;0.0627;
704460910082162;0.0446;0.0205;0.0563;
704460920171172;0.0562;-0.0497;0.0851;
704460930271641;0.0913;-0.0795;0.0862;
704460940372162;0.1212;-0.0614;0.0883;
704460950496797;0.1137;-0.0742;0.1075;
704460960597318;0.0935;-0.0742;0.1554;
704460970697787;0.0935;-0.0401;0.1788;
704460980782682;0.0871;-0.0284;0.1969;
704460990883203;0.1041;0.0216;0.2023;
704461000983724;0.0796;0.1292;0.1650;
704461011080495;-0.0129;0.1238;0.1905;
704461021181068;-0.0150;0.0844;0.2225;
704461031281537;-0.0236;0.0407;0.2150;
704461041386537;-0.0470;0.0461;0.2012;
704461051487110;-0.0630;0.0557;0.2118;
704461061587578;-0.0885;0.0036;0.2363;
704461071702474;-0.1024;-0.0124;0.2513;
704461081802995;-0.1045;0.0152;0.2449;
704461091903516;-0.1226;-0.0230;0.2694;
704461101988099;-0.1184;0.0089;0.2395;
704461112088672;-0.0960;0.0248;0.2630;
704461122189141;-0.1045;-0.0241;0.2395;
704461132291016;-0.1067;-0.0220;0.2513;
704461142391537;-0.1557;-0.0241;0.2332;
704461152492057;-0.1929;0.0079;0.1895;
704461162590703;-0.2292;0.0514;0.1714;
704461172691224;-0.2494;0.0258;0.1842;
704461182791745;-0.2547;0.0047;0.1895;
704461192893620;-0.2632;0.0791;0.1352;
704461202994141;-0.2696;0.1004;0.1692;
704461213094662;-0.3410;0.0897;0.1383;
704461223193203;-0.3048;0.0525;0.1224;
704461233293724;-0.3059;0.0015;0.0915;
704461243394245;-0.3325;0.0226;0.0446;
704461253492839;-0.3794;0.0397;0.0553;
704461263593360;-0.4284;0.0759;-0.0001;
704461273693880;-0.4134;0.0663;-0.0246;
704461283789141;-0.3581;-0.0134;-0.0758;
704461293889662;-0.2686;-0.0401;-0.0885;
704461303990130;-0.2057;-0.0411;-0.0917;
704461314101224;-0.2079;-0.0305;-0.0949;
704461324201745;-0.1642;-0.1019;-0.0885;
704461334302318;-0.1248;-0.1285;-0.1035;
704461344399193;-0.0981;-0.0593;-0.1003;
704461354499766;-0.1301;0.0375;-0.1374;
704461364600235;-0.1312;0.0684;-0.0960;
704461374678620;-0.1674;0.0450;-0.1109;
704461384779141;-0.0981;0.0578;-0.1491;
704461394879662;-0.1067;0.0791;-0.1800;
704461405011693;-0.0939;0.1111;-0.1832;
704461415112266;-0.1003;0.0642;-0.1406;
704461425212735;-0.0790;0.0695;-0.1342;
704461435292995;-0.0555;0.0663;-0.1395;
704461445393516;-0.0502;-0.0507;-0.0917;
704461455493985;-0.0555;-0.0497;-0.1088;
704461465609037;-0.0172;-0.0539;-0.1246;
704461475709610;-0.0150;-0.0071;-0.1268;
704461485810078;-0.0055;0.0503;-0.1056;
704461495942682;0.0031;-0.0390;-0.0630;
704461506043203;0.0041;-0.0561;-0.0843;
704461516143672;0.0212;-0.0103;-0.1067;
704461526224818;0.0063;-0.0273;-0.0747;
704461536325391;0.0233;0.0695;-0.0353;
704461546425912;-0.0342;-0.0486;-0.0193;
704461556511485;-0.0598;-0.2414;-0.0001;
704461566612005;-0.0321;-0.1477;-0.0427;
704461576712474;-0.0172;0.1036;-0.0406;
704461586824974;-0.0470;0.1515;-0.0566;
704461596925443;-0.0150;0.1036;-0.0023;
704461607025964;-0.0481;0.0876;-0.0129;
704461617119245;-0.0087;0.0972;-0.0395;
704461627219766;-0.0534;0.1569;-0.0630;
704461637320287;-0.0790;0.1025;-0.0715;
704461647406797;-0.0619;0.0514;-0.0726;
704461657507318;-0.0683;-0.0774;-0.0715;
704461667607787;-0.0481;-0.0965;-0.0790;
704461677730755;-0.0545;0.2591;-0.0864;
704461687831276;-0.0182;0.1036;-0.0630;
704461697931745;0.0265;-0.1988;-0.0800;
704461708008151;0.0466;-0.1519;-0.1109;
704461718108672;0.0318;-0.1040;-0.0768;
704461728209141;0.0116;-0.0582;-0.0609;
704461738308828;0.0541;-0.0273;-0.0704;
704461748409297;0.0754;0.0068;-0.0502;
704461758509818;0.0435;0.0226;-0.0672;
704461768618620;0.0466;0.0269;-0.0800;
704461778719141;0.0414;0.1015;-0.0609;
704461788819662;0.0148;0.0312;-0.0406;
704461798920287;0.0244;-0.0486;-0.0502;
704461809020807;0.0265;0.0121;-0.0854;
704461819121328;-0.0119;0.0620;-0.0736;
704461829262422;-0.0023;0.0589;-0.0864;
704461839362943;0.0414;0.0015;-0.0704;
704461849463412;0.0137;-0.0198;-0.1077;
704461859527943;0.0244;-0.0305;-0.1141;
704461869628464;0.0372;-0.0806;-0.0747;
704461879728985;0.0403;-0.1019;-0.0747;
704461889824401;0.0382;-0.1061;-0.0822;
704461899924870;0.0711;-0.1040;-0.0374;
704461910025391;0.0935;0.0237;-0.0459;
704461920129557;0.0892;0.0589;-0.0374;
704461930230130;0.0732;-0.0891;-0.0225;
704461940330599;0.0850;-0.0358;-0.0342;
704461950434870;0.0786;0.1174;-0.0342;
704461960535391;0.0562;0.1121;-0.0630;
704461970635912;0.0786;0.1196;-0.0843;
704461980737474;0.0636;0.0375;-0.0459;
704461990838047;0.0148;-0.0060;-0.0385;
704462000938516;0.0382;0.0578;-0.0353;
704462011034974;0.0551;0.0802;-0.0182;
704462021135547;0.0828;0.0844;-0.0129;
704462031236016;0.1116;-0.0539;0.0308;
704462041341120;0.0509;-0.0784;0.0201;
704462051441641;0.0212;0.2091;-0.0246;
704462061542162;0.0615;0.0674;0.0020;
704462071623516;0.1254;-0.1860;0.0308;
704462081724037;0.0743;-0.0124;-0.0214;
704462091824505;0.0222;0.0397;-0.0150;
704462101943307;0.0636;-0.0742;0.0073;
704462112043828;0.0403;0.0972;-0.0033;
704462122144349;0.0679;-0.0262;0.0372;
704462132244141;0.1371;-0.2095;0.0680;
704462142344662;0.0658;-0.1668;0.0425;
704462152445182;0.0509;-0.0699;0.0521;
704462162544557;0.0425;0.0450;0.0489;
704462172645078;0.0679;0.0397;0.0542;
704462182745599;0.0935;0.0375;0.0425;
704462192853412;0.0732;0.1324;0.0052;
704462202953932;0.0457;0.0620;-0.0119;
704462213054453;0.0233;0.0184;-0.0268;
704462223157682;-0.0012;-0.0017;0.0009;
704462233258203;0.0158;-0.0593;0.0201;
704462243358724;0.0382;-0.0529;0.0212;
704462253449766;0.0361;0.0333;0.0382;
704462263550287;0.0435;0.0132;0.0308;
704462273650807;0.0551;0.0695;-0.0182;
704462283751745;0.0668;0.0089;0.0063;
704462293852318;0.0573;-0.0891;0.0180;
704462303952787;0.0541;-0.0326;0.0031;
704462314061953;0.0190;-0.0220;0.0063;
704462324162474;0.0425;-0.0411;0.0084;
704462334263047;0.0116;0.0429;0.0148;
704462344356016;0.0063;0.0397;0.0073;
704462354456537;0.0393;-0.0475;0.0169;
704462364557057;0.0329;-0.0411;0.0233;
704462374668412;0.0063;-0.0379;0.0254;
704462384768880;0.0244;-0.0806;0.0276;
704462394869401;0.0052;-0.0348;0.0233;
704462404952526;-0.0023;-0.0017;0.0212;
704462415053099;0.0201;0.0132;0.0020;
704462425153568;0.0073;0.0450;0.0009;
704462435236016;-0.0076;0.0482;-0.0172;
704462445336485;-0.0033;0.0258;0.0063;
704462455437005;-0.0236;0.0079;0.0073;
704462465556328;0.0148;-0.0348;0.0169;
704462475656849;-0.0119;-0.0678;0.0116;
704462485757370;-0.0225;-0.0603;0.0126;
704462495886224;-0.0374;-0.0678;0.0009;
704462505986745;0.0095;-0.0060;-0.0193;
704462516087266;0.0126;-0.0060;-0.0012;
704462526169141;0.0201;-0.0092;-0.0395;
704462536269662;0.0073;0.0142;-0.0140;
704462546370235;-0.0087;0.0194;-0.0097;
704462556511745;0.0073;0.0525;0.0212;
704462566612214;-0.0097;0.0620;0.0212;
704462576712735;0.0063;0.0258;0.0201;
704462586749453;-0.0236;0.0620;0.0116;
704462596850026;-0.0364;0.1270;-0.0033;
704462606950495;-0.0278;0.0887;-0.0150;
704462617075339;-0.0087;0.0589;-0.0119;
704462627175860;-0.0119;0.0237;-0.0246;
704462637276380;-0.0129;-0.0294;-0.0513;
704462647355547;-0.0268;-0.0656;-0.0523;
704462657456068;-0.0289;-0.0848;-0.0087;
704462667556537;-0.0257;-0.0614;-0.0225;
704462677682266;0.0105;-0.0848;-0.0268;
704462687782787;0.0180;-0.0806;-0.0193;
704462697883307;0.0233;-0.0635;-0.0012;
704462707961485;0.0169;-0.1115;0.0031;
704462718062005;0.0414;0.0132;-0.0225;
704462728162474;0.0807;0.0919;-0.0246;
704462738260651;0.0286;-0.0017;-0.0236;
704462748361120;0.0265;0.0036;-0.0577;
704462758461641;0.0190;0.1228;-0.0790;
704462768579037;0.0340;0.1771;-0.0790;
704462778679557;0.0594;0.1877;-0.0481;
704462788780078;0.1158;0.0290;-0.0268;
704462798880443;0.1648;-0.0912;-0.0225;
704462808980964;0.1233;-0.0891;-0.0236;
704462819081485;0.0318;-0.0933;-0.0246;
704462829177682;-0.0012;-0.0017;-0.0683;
704462839278203;0.0786;-0.1679;0.0052;
704462849378724;0.0041;-0.1700;-0.0097;
704462859483776;-0.0758;0.1196;-0.0662;
704462869584297;0.0350;-0.0486;-0.0055;
704462879684766;0.1798;-0.1519;0.0158;
704462889782266;0.1254;-0.0795;-0.0119;
704462899882787;0.0605;-0.1093;0.0467;
704462909983307;0.0308;-0.0390;0.0787;
704462920093412;-0.0012;0.0482;0.0542;
704462930193932;0.0084;0.0823;0.0372;
704462940294453;0.0286;0.1015;0.0105;
704462950392474;0.0435;0.0365;0.0201;
704462960493047;0.0137;0.0684;-0.0332;
704462970593516;0.0382;0.1004;-0.0619;
704462980684610;0.1126;-0.0241;-0.0342;
704462990785130;0.0679;-0.0390;-0.0300;
704463000885651;0.0126;-0.0092;-0.0076;
704463010993099;0.0509;-0.0859;0.0020;
704463021093672;-0.0609;-0.0507;0.0031;
704463031194141;-0.2398;0.0631;-0.0129;
704463041291224;-0.2792;0.1121;-0.0246;
704463051391745;-0.1120;0.0876;-0.0598;
704463061492266;0.0626;0.0216;-0.0704;
704463071599349;0.1308;0.0047;-0.0960;
704463081699870;0.0881;0.0121;-0.1310;
704463091800391;0.0361;0.0216;-0.1141;
704463101891537;0.0403;0.0450;-0.0747;
704463111992057;0.1542;0.0015;-0.0289;
704463122092578;0.4365;-0.1477;-0.0502;
704463132189193;0.3044;-0.1093;-0.0800;
704463142289714;-0.1407;0.0397;-0.0076;
704463152390235;-0.2206;0.0802;0.0052;
704463162485860;-0.1077;0.0514;-0.0065;
704463172586380;0.0828;0.0057;-0.0523;
704463182686849;0.1627;-0.0177;-0.0491;
704463192800026;0.2160;-0.0486;-0.0119;
704463202900547;0.2181;-0.0497;-0.0001;
704463213001068;0.1467;-0.0901;0.0212;
704463223100912;0.0095;-0.0710;0.0212;
704463233201432;-0.2121;0.0280;0.0340;
704463243301953;-0.4422;0.1558;0.0222;
704463253402787;-0.3485;0.1356;-0.0140;
704463263503360;0.0988;-0.0582;-0.0704;
704463273603828;0.2000;-0.0933;-0.0651;
704463283714089;-0.0065;0.0111;-0.0640;
704463293814662;-0.0747;0.0429;-0.0545;
704463303915130;-0.0640;0.0068;-0.0683;
704463314005807;-0.1865;0.0642;-0.0885;
704463324106328;-0.2686;0.1270;-0.0822;
704463334206901;-0.0097;0.0312;-0.0917;
704463344304766;0.3108;-0.1008;-0.0971;
704463354405339;0.4429;-0.1317;-0.1120;
704463364505807;0.4301;-0.1178;-0.0385;
704463374624089;0.3246;-0.0763;-0.0268;
704463384724610;0.3150;-0.0806;-0.0129;
704463394825078;0.3427;-0.1402;-0.0225;
704463404901641;0.1638;-0.1242;-0.0065;
704463415002214;-0.2100;0.1153;0.0489;
704463425102682;0.0158;0.0993;0.0776;
704463435215443;0.5782;-0.2478;0.0627;
704463445315964;0.3896;-0.2073;0.0893;
704463455416485;-0.3304;0.0961;0.1128;
704463465502526;-0.7979;0.2655;0.0893;
704463475603047;-0.7052;0.2208;0.0222;
704463485703516;-0.3527;0.1142;-0.0651;
704463495825078;-0.0683;0.0791;-0.1332;
704463505925599;0.0530;0.0770;-0.1726;
704463516026120;0.2192;0.0461;-0.1726;
704463526121068;0.4684;-0.0539;-0.1779;
704463536221589;0.6782;-0.2489;-0.1152;
704463546322110;0.1158;0.0780;-0.1205;
704463556423985;-0.3911;0.3209;-0.0822;
704463566524505;0.2341;-0.0230;-0.0332;
704463576624974;0.6632;-0.1530;-0.0683;
704463586703412;0.4961;-0.0230;-0.0523;
704463596803985;0.3491;0.0258;0.0201;
704463606904401;0.3662;-0.0422;0.0276;
704463617011068;0.2138;0.0205;0.0382;
704463627111537;0.0977;0.1153;0.0872;
704463637212057;0.2128;0.0812;0.1032;
704463647339141;0.3811;0.0226;0.1202;
704463657439662;0.5569;-0.0337;0.1490;
704463667540182;0.5760;-0.0518;0.1852;
704463677631641;0.4333;0.0015;0.2204;
704463687732162;0.2202;0.0674;0.2289;
704463697832630;0.2117;0.0258;0.2577;
704463707914818;0.1521;0.0121;0.2427;
704463718015287;-0.0438;0.1185;0.2332;
704463728115807;-0.0395;0.1004;0.2630;
704463738212318;0.1968;-0.0007;0.2694;
704463748312839;0.2842;-0.0774;0.2864;
704463758413307;0.2895;-0.1413;0.2758;
704463768546016;0.1382;-0.1285;0.2939;
704463778646537;-0.1109;-0.0348;0.3098;
704463788747057;-0.3112;-0.0071;0.2875;
704463798823307;-0.5264;0.0961;0.2289;
704463808923828;-0.6082;0.1569;0.1842;
704463819024349;-0.2739;0.0450;0.1479;
704463829127370;0.1084;-0.0475;0.1224;
704463839227943;0.2543;-0.0699;0.1298;
704463849328412;0.3161;-0.1189;0.1607;
704463859436276;0.1222;-0.0731;0.1788;
704463869536849;-0.0811;0.0269;0.1991;
704463879637318;-0.3463;0.0908;0.1607;
704463889732943;-0.5901;0.2197;0.1565;
704463899833464;-0.4859;0.2122;0.0925;
704463909933985;0.1457;0.0173;0.0340;
704463920036016;0.5366;-0.1434;0.0510;
704463930136589;0.5579;-0.1583;0.0744;
704463940237057;0.2575;-0.0784;0.0925;
704463950332110;-0.1290;0.0205;0.1234;
704463960432630;-0.3091;0.0407;0.1479;
704463970533151;-0.3442;0.0546;0.1266;
704463980639766;-0.2025;0.0100;0.0957;
704463990740287;-0.1610;0.0759;0.1064;
704464000840807;0.0881;-0.0071;0.1000;
704464010941432;0.4833;-0.2489;0.1096;
704464021042005;0.1105;-0.0656;0.1096;
704464031142474;-0.5114;0.1899;0.1266;
704464041251849;-0.5093;0.1419;0.1064;
704464051352370;-0.2728;0.0642;0.0563;
704464061452891;-0.0694;0.0089;0.0361;
704464071549349;0.0605;-0.0497;0.0435;
704464081649870;-0.0289;-0.0443;0.0414;
704464091750391;-0.1099;0.0132;0.0574;
704464101852787;-0.1333;0.0152;0.0435;
704464111953307;-0.1940;-0.0326;0.0084;
704464122053828;-0.5923;0.1483;-0.0321;
704464132153099;-0.6828;0.2133;-0.0513;
704464142253620;-0.3048;0.0759;-0.0768;
704464152354141;0.0903;-0.0507;-0.1109;
704464162448828;0.2703;-0.1274;-0.0939;
704464172549349;0.2266;-0.1455;-0.0864;
704464182649870;-0.0704;-0.0134;-0.0736;
704464192756953;-0.2387;0.0642;-0.0364;
704464202857474;-0.1130;-0.0060;-0.0694;
704464212957995;-0.1535;0.0132;-0.1278;
704464223047578;-0.3314;0.2208;-0.1141;
704464233148099;0.1489;-0.0177;-0.0822;
704464243248620;0.6632;-0.2095;-0.0704;
704464253348412;0.4770;-0.0049;-0.0385;
704464263448932;0.6984;-0.1647;-0.0012;
704464273549453;0.4993;-0.2531;0.0670;
704464283658776;-0.3911;0.0748;0.0798;
704464293759297;-1.0407;0.3241;0.0968;
704464303859818;-1.0269;0.3049;0.0574;
704464313960443;-0.4624;0.1356;-0.0566;
704464324060964;0.0530;0.0152;-0.0992;
704464334161485;0.4620;-0.1423;-0.1003;
704464344252474;0.4972;-0.1881;-0.0747;
704464354352995;-0.0364;0.0738;-0.0310;
704464364453516;-0.1088;-0.0603;0.0137;
704464374568620;-0.2537;0.0036;-0.0587;
704464384669141;-0.7691;0.3145;-0.1045;
704464394769610;-0.1130;-0.0774;-0.0960;
704464404858412;0.5696;-0.3309;-0.1109;
704464414958985;0.2842;-0.1881;-0.1099;
704464425059453;-0.1013;-0.0539;-0.0640;
704464435164349;-0.3272;0.0194;-0.0161;
704464445264870;-0.4198;0.0663;-0.0822;
704464455365391;-0.3602;0.1260;-0.1289;
704464465457422;0.0509;-0.0220;-0.1236;
704464475557891;0.4588;-0.1945;-0.1321;
704464485658360;0.2788;-0.0848;-0.1300;
704464495782057;-0.0214;0.0248;-0.0939;
704464505882578;-0.0960;0.0748;-0.0832;
704464515983099;-0.0832;0.1728;-0.0939;
704464526060964;0.2170;0.0770;-0.1268;
704464536161432;0.6995;-0.0880;-0.1141;
704464546261953;0.9008;-0.1498;-0.0939;
704464556364870;0.7314;-0.1178;-0.0193;
704464566465391;0.3289;-0.0358;0.0467;
704464576565860;-0.1130;0.0780;0.0957;
704464586664922;-0.4273;0.1984;0.0925;
704464596765443;-0.3293;0.1899;0.0798;
704464606865964;0.0903;0.0312;0.0787;
704464616963724;0.4418;-0.1146;0.0617;
704464627064245;0.4567;-0.1477;0.0776;
704464637164714;0.0881;0.0057;0.1085;
704464647262422;-0.0885;0.0439;0.1192;
704464657362891;-0.1908;0.0780;0.1053;
704464667463412;-0.2483;0.1324;0.0851;
704464677579453;0.0095;-0.0017;0.1000;
704464687679974;0.2000;-0.0742;0.0840;
704464697780495;0.2075;-0.0965;0.0872;
704464707867735;0.0881;-0.0997;0.1160;
704464717968203;-0.0917;-0.0060;0.1352;
704464728068724;-0.3453;0.0652;0.1170;
704464738166068;-0.3783;0.1185;0.0883;
704464748266537;-0.2547;0.0866;0.0340;
704464758367057;-0.0076;0.0132;-0.0236;
704464768470860;0.0190;-0.0039;-0.0172;
704464778571328;0.1190;-0.0539;0.0329;
704464788671849;0.1414;-0.0699;0.0158;
704464798787266;0.0403;-0.0113;0.0148;
704464808887787;-0.0577;0.0344;0.0297;
704464818988255;-0.0385;0.0620;0.0414;
704464829084766;0.0487;0.0482;-0.0119;
704464839185287;0.1063;0.0429;0.0233;
704464849285755;0.2714;-0.0134;0.0244;
704464859392787;0.4141;-0.0454;0.0425;
704464869493307;0.3427;-0.0049;0.0670;
704464879593776;0.4961;-0.1242;0.1160;
704464889679662;0.4280;-0.1423;0.1820;
704464899780130;0.0551;0.0280;0.2023;
704464909880599;-0.0491;0.0535;0.2598;
704464919985912;0.0743;-0.0209;0.2640;
704464930086432;-0.1567;0.0025;0.2960;
704464940186901;-0.3005;0.0780;0.2449;
704464950293307;-0.0097;-0.0486;0.2587;
704464960393828;-0.0619;-0.0465;0.2278;
704464970494297;-0.1919;0.0727;0.1991;
704464980593203;-0.1152;-0.0134;0.2523;
704464990693724;-0.0609;-0.0358;0.2257;
704465000794193;-0.2334;0.0047;0.1842;
704465010900703;-0.2963;-0.0156;0.1703;
704465021001224;-0.3634;-0.0007;0.1490;
704465031101745;-0.5423;0.0897;0.0957;
704465041193099;-0.2728;-0.0145;0.0542;
704465051293620;-0.0300;-0.2265;0.0009;
704465061394089;-0.4806;-0.0316;-0.0438;
704465071513880;-0.9438;0.1494;-0.0609;
704465081614401;-0.7499;0.0173;-0.1056;
704465091714870;-0.5562;-0.0230;-0.1662;
704465101800807;-0.6999;0.1132;-0.2322;
704465111901328;-0.5178;0.0706;-0.2642;
704465122001797;-0.1929;-0.0593;-0.3142;
704465132107057;-0.2590;0.0610;-0.4165;
704465142207578;-0.2430;0.0546;-0.3952;
704465152308047;-0.1780;0.0578;-0.4218;
704465162391485;-0.1269;0.2218;-0.5113;
704465172491953;0.3097;-0.0550;-0.4719;
704465182592422;0.7527;-0.2244;-0.4261;
704465192706120;0.5334;-0.0646;-0.4005;
704465202806641;0.2565;0.0301;-0.3142;
704465212907110;0.3353;0.0025;-0.2493;
704465223010078;0.3523;0.0121;-0.2386;
704465233110599;0.1542;0.1164;-0.2280;
704465243211068;0.2096;0.0844;-0.1854;
704465253307162;0.2948;0.0450;-0.1864;
704465263407682;0.2415;0.1558;-0.1651;
704465273508151;0.4631;0.0514;-0.1300;
704465283614245;0.6069;-0.1221;-0.0672;
704465293714818;0.3438;-0.0465;-0.0609;
704465303815235;0.1222;0.0365;0.0009;
704465313911016;0.1680;0.0184;0.0403;
704465324011537;0.2170;-0.0571;0.0393;
704465334112057;0.1116;-0.0166;0.0041;
704465344207682;0.0222;0.0004;0.0169;
704465354308203;0.0084;0.0205;0.0403;
704465364408724;0.0105;0.0205;0.0617;
704465374537370;0.1329;-0.1328;0.0883;
704465384637839;-0.0736;0.0535;0.0563;
704465394738360;-0.1706;0.1004;0.0606;
704465404814557;0.1585;-0.0933;0.0840;
704465414915078;0.1467;-0.0816;0.0734;
704465425015547;-0.0385;-0.0103;0.0403;
704465435113099;-0.1844;0.1057;0.0446;
704465445213620;-0.1535;0.1249;0.0723;
704465455314141;0.1052;0.0386;0.0297;
704465465412005;0.1286;0.0301;0.0105;
704465475512474;0.2085;-0.0923;0.0414;
704465485612995;0.1872;-0.1178;0.0627;
704465495726953;0.0498;-0.0252;0.0585;
704465505827422;-0.0395;0.0386;0.1245;
704465515927943;-0.0342;0.0887;0.1330;
704465526108099;0.0519;0.1281;0.0989;
704465536208620;0.1766;0.0354;0.0840;
704465546309089;0.2799;-0.0784;0.1117;
704465556305235;0.3406;-0.0486;0.1405;
704465566405703;0.2660;-0.0507;0.1778;
704465576506224;0.2181;-0.0699;0.2150;
704465586660495;0.1446;0.0301;0.2204;
704465596760964;0.0764;0.0216;0.2310;
704465606861485;0.0265;0.0652;0.2545;
704465616933932;-0.0268;0.0578;0.2715;
704465627034453;-0.0928;-0.0646;0.2481;
704465637134974;-0.0875;-0.0188;0.2459;
704465647225078;-0.1482;0.0312;0.2257;
704465657325599;-0.2654;0.0940;0.2033;
704465667426068;-0.3804;0.0674;0.2204;
704465677514610;-0.4273;-0.0433;0.1852;
704465687615078;-0.4166;-0.0624;0.1288;
704465697715599;-0.4379;-0.0007;0.0862;
704465707826797;-0.5104;0.0844;0.0595;
704465717927266;-0.5667;0.0111;0.0254;
704465728027787;-0.4997;-0.0092;-0.0332;
704465738117422;-0.4774;0.1100;-0.0694;
704465748217891;-0.4880;-0.0017;-0.0694;
704465758318360;-0.4166;-0.0049;-0.1726;
704465768430391;-0.3346;-0.0241;-0.1939;
704465778530912;-0.3112;-0.0497;-0.2045;
704465788631380;-0.2782;0.0132;-0.2397;
704465798742682;-0.2696;0.0111;-0.2759;
704465808843203;-0.2313;-0.0390;-0.2759;
704465818943672;-0.1173;0.0142;-0.2589;
704465829044766;-0.0395;0.1643;-0.3505;
704465839145287;-0.2228;-0.0539;-0.3228;
704465849245755;-0.1269;-0.1509;-0.3153;
704465859342891;0.1702;-0.0145;-0.3483;
704465869443412;0.2447;0.0631;-0.3494;
704465879543880;0.1233;0.0194;-0.3036;
704465889635807;0.0551;-0.0039;-0.2929;
704465899736328;0.1212;0.0397;-0.2695;
704465909836797;0.1574;0.0111;-0.2482;
704465919945703;0.2181;0.0397;-0.2493;
704465930046224;0.2490;-0.0166;-0.2642;
704465940146693;0.2607;-0.2244;-0.1609;
704465950254766;0.4684;0.1867;-0.1726;
704465960355287;0.4216;0.1696;-0.1427;
704465970455755;0.2341;-0.1935;-0.0310;
704465980554610;0.2469;-0.1573;0.0020;
704465990655130;0.3534;0.0237;-0.0033;
704466000755599;0.3630;0.0812;0.0478;
704466010856328;0.2437;-0.0124;0.1245;
704466020956849;0.1915;0.0312;0.1394;
704466031057318;0.1776;0.0684;0.1522;
704466041163203;0.1286;-0.0433;0.1884;
704466051263724;0.1020;-0.0071;0.1948;
704466061364193;0.0583;0.0354;0.2012;
704466071460599;0.0414;-0.0763;0.2587;
704466081561120;0.0105;-0.0326;0.2651;
704466091661589;-0.0502;0.0535;0.2704;
704466101750703;-0.1312;-0.0316;0.3056;
704466111851224;-0.1535;-0.0550;0.3077;
704466121951693;-0.2238;0.0301;0.2662;
704466132052682;-0.3293;0.0493;0.2427;
704466142153203;-0.3421;0.0876;0.2278;
704466152253672;-0.2899;0.1015;0.1820;
704466162360391;-0.0960;-0.0411;0.1831;
704466172460912;-0.0161;-0.1434;0.1618;
704466182561380;-0.1684;-0.1125;0.1256;
704466192663307;-0.4337;-0.0028;0.1341;
704466202763828;-0.6817;0.0983;0.1202;
704466212864297;-0.5573;0.0280;0.0723;
704466222968203;-0.4284;0.0344;-0.0321;
704466233068724;-0.3378;0.0089;-0.0790;
704466243169193;-0.2174;-0.0667;-0.0854;
704466253266432;-0.2398;0.0015;-0.1257;
704466263366953;-0.2036;0.0173;-0.1278;
704466273467422;-0.1652;0.0450;-0.1427;
704466283566953;-0.2025;0.1281;-0.1747;
704466293667474;-0.1141;0.1281;-0.1939;
704466303767943;-0.0065;0.0142;-0.1715;
704466313871432;0.0743;-0.0656;-0.1928;
704466323971953;0.0031;-0.0209;-0.2258;
704466334072474;-0.0545;0.0216;-0.1790;
704466344158620;-0.0353;0.1473;-0.1715;
704466354259141;0.1691;0.0983;-0.1800;
704466364359662;0.2927;-0.2201;-0.1736;
704466374461224;0.1638;-0.2702;-0.1555;
704466384561693;-0.0033;-0.1200;-0.1385;
704466394662214;-0.0300;-0.0177;-0.0928;
704466404759662;0.0265;-0.0241;-0.0854;
704466414860130;0.0169;-0.0262;-0.0949;
704466424960599;-0.0182;0.0322;-0.1205;
704466435061068;0.0839;0.0057;-0.0885;
704466445161537;0.1467;-0.0678;-0.0768;
704466455262005;0.0372;-0.1455;-0.0747;
704466465363255;-0.1418;0.0429;-0.0949;
704466475463724;-0.1951;0.2122;-0.0683;
704466485564193;-0.0395;0.0226;-0.0587;
704466495683412;0.0519;-0.0550;-0.0811;
704466505783932;0.0031;-0.0060;-0.0917;
704466515884401;-0.0012;0.0121;-0.0832;
704466526015755;0.0286;-0.0071;-0.0864;
704466536116276;0.0169;-0.0337;-0.0555;
704466546216745;-0.0023;0.0237;-0.0917;
704466556265547;0.0466;-0.0262;-0.0939;
704466566366068;0.0924;-0.1083;-0.0704;
704466576466537;0.0393;-0.0475;-0.0779;
704466586573203;0.0116;-0.0252;-0.0683;
704466596673724;0.0850;-0.0688;-0.0353;
704466606774193;0.1382;-0.0720;-0.0161;
704466616887787;0.1137;-0.0390;-0.0619;
704466626988255;0.1382;-0.0273;-0.0491;
704466637088776;0.1382;0.0184;-0.0012;
704466647177526;0.1073;0.0269;0.0031;
704466657277995;0.1489;0.0557;-0.0204;
704466667378464;0.1425;0.1004;-0.0076;
704466677467735;0.1041;0.0674;-0.0044;
704466687568151;0.1073;0.0535;0.0063;
704466697668672;0.1020;0.0100;0.0286;
704466707774922;0.0977;-0.0337;0.0499;
704466717875391;0.0775;0.0322;0.0190;
704466727975860;0.0807;0.0365;0.0286;
704466738106120;0.0871;0.0333;0.0425;
704466748206641;0.0818;-0.0337;0.0563;
704466758307110;0.0711;-0.1040;0.0712;
704466768386849;0.0530;-0.0561;0.0659;
704466778487370;0.0297;0.0132;0.0617;
704466788587839;0.0340;0.0216;0.0904;
704466798693360;0.0519;0.0089;0.0872;
704466808793880;0.0530;0.0674;0.0744;
704466818894349;0.0690;0.0684;0.0606;
704466828977162;0.0551;0.0184;0.0755;
704466839077630;0.0212;0.0738;0.0648;
704466849178099;0.0105;0.0652;0.0670;
704466859289974;-0.0023;0.0599;0.0670;
704466869390495;-0.0087;0.0205;0.0712;
704466879490964;-0.0182;0.0089;0.0680;
704466889584922;-0.0033;-0.0113;0.0798;
704466899685391;-0.0108;-0.0134;0.0808;
704466909785860;-0.0087;-0.0092;0.0617;
704466919890599;0.0169;-0.0316;0.0680;
704466929991120;-0.0023;-0.0049;0.0744;
704466940091589;-0.0225;-0.0017;0.0521;
704466950194662;0.0084;-0.0635;0.0617;
704466960295182;-0.0172;0.0004;0.0318;
704466970395651;-0.0406;0.0993;0.0254;
704466980500547;-0.0481;0.0940;0.0680;
704466990601068;0.0190;0.0610;0.0680;
704467000701485;0.0137;0.0951;0.0510;
704467010799766;-0.0385;0.0727;0.0254;
704467020900287;-0.0353;0.0068;0.0180;
704467031000755;-0.0694;0.0301;0.0180;
704467041101953;-0.0609;0.0079;0.0201;
704467051202474;-0.0310;-0.0518;0.0233;
704467061302943;-0.0353;-0.0603;0.0297;
704467071417162;-0.0278;-0.0784;0.0435;
704467081517682;-0.0236;-0.1104;0.0435;
704467091618151;-0.0193;-0.1391;0.0648;
704467101706224;-0.0662;-0.1157;0.0265;
704467111806745;-0.0747;-0.0593;0.0169;
704467121907214;-0.0800;-0.0305;0.0169;
704467132012370;-0.0726;-0.0305;-0.0236;
704467142112891;-0.0395;-0.0518;-0.0385;
704467152213360;-0.0119;0.0471;-0.0182;
704467162311016;-0.0374;-0.0731;-0.0012;
704467172411537;-0.0001;-0.2787;0.0126;
704467182512057;0.0180;-0.2233;-0.0076;
704467192608932;-0.0097;-0.0348;0.0244;
704467202709453;-0.0321;0.0748;0.0084;
704467212809922;0.0573;-0.0252;0.0169;
704467222914037;0.1371;-0.0624;0.0393;
704467233014557;0.0892;0.1313;-0.0001;
704467243115026;0.1393;0.1345;0.0478;
704467253217162;0.1798;0.0375;0.1032;
704467263317682;0.1798;0.0525;0.1383;
704467273418151;0.0190;0.3912;0.0989;
704467283511224;0.0414;0.3646;0.1202;
704467293611745;0.2085;0.1142;0.1341;
704467303712162;0.1830;0.1345;0.1032;
704467313814870;0.0212;0.1601;0.1447;
704467323915391;-0.0172;0.1750;0.1522;
704467334015912;0.0116;-0.0688;0.1959;
704467344113203;-0.0150;-0.2755;0.2118;
704467354213724;-0.1397;-0.0337;0.1565;
704467364314193;-0.1812;-0.1264;0.1820;
704467374416589;-0.0747;-0.1498;0.1937;
704467384517110;-0.0917;-0.0688;0.2140;
704467394617578;-0.1280;-0.0092;0.1842;
704467404721953;-0.0811;0.1345;0.1650;
704467414822474;-0.0907;0.1846;0.1703;
704467424922943;-0.1194;0.1430;0.1298;
704467435024870;-0.1567;0.1398;0.0947;
704467445125495;-0.2292;0.1238;0.0691;
704467455226120;-0.2505;0.0855;0.0467;
704467465312735;-0.2899;0.0418;0.0126;
704467475413307;-0.2505;-0.1093;0.0137;
704467485513932;-0.2100;-0.1487;-0.0268;
704467495634922;-0.2164;-0.1775;-0.0534;
704467505735547;-0.1354;-0.2489;-0.0385;
704467515836172;-0.1269;-0.1530;-0.0651;
704467525977005;-0.1184;-0.0188;-0.0854;
704467536077578;-0.0875;0.0036;-0.0779;
704467546178203;-0.0800;0.0111;-0.0960;
704467556210912;-0.0800;0.0514;-0.1088;
704467566311537;-0.0822;0.0897;-0.1246;
704467576412110;-0.0395;0.1164;-0.1395;
704467586524245;-0.0523;0.1153;-0.1417;
704467596624870;-0.0374;0.0663;-0.1640;
704467606725495;-0.0289;0.0418;-0.1534;
704467616810703;-0.0545;-0.0593;-0.1609;
704467626911328;-0.0097;-0.2265;-0.1481;
704467637011901;-0.0257;-0.1317;-0.1481;
704467647120755;-0.0587;-0.0326;-0.1300;
704467657221328;-0.0193;-0.0401;-0.1120;
704467667321953;0.0414;0.0036;-0.0960;
704467677454662;0.0414;0.0748;-0.0928;
704467687555287;0.0435;0.0844;-0.1088;
704467697655912;0.0732;0.1057;-0.0981;
704467707731276;0.0403;0.1206;-0.0939;
704467717831901;0.0212;0.1409;-0.1045;
704467727932474;0.0137;0.1079;-0.0896;
704467738062422;-0.0023;0.0344;-0.0800;
704467748163047;0.0126;-0.0124;-0.0779;
704467758263672;0.0084;-0.1242;-0.0555;
704467768332005;0.0222;-0.2063;-0.0502;
704467778432578;0.0169;-0.2073;-0.0513;
704467788533203;0.0180;-0.1360;-0.0300;
704467798630860;0.0084;-0.0294;-0.0140;
704467808731485;0.0137;0.0226;-0.0321;
704467818832057;0.0286;0.0631;-0.0427;
704467828959557;0.0063;0.0876;-0.0662;
704467839060182;-0.0108;0.0844;-0.0395;
704467849160807;-0.0150;0.1036;-0.0353;
704467859243620;-0.0150;0.0866;-0.0502;
704467869344245;0.0180;0.1217;-0.0598;
704467879444870;0.0105;0.0866;-0.0566;
704467889544089;0.0084;-0.0007;-0.0662;
704467899644662;0.0073;-0.0678;-0.0577;
704467909745287;0.0073;-0.1967;-0.0278;
704467919843255;0.0020;-0.2169;-0.0481;
704467929943828;0.0158;-0.1136;-0.0683;
704467940044453;0.0201;-0.0742;-0.0566;
704467950153516;0.0276;-0.1051;-0.0427;
704467960254141;0.0509;-0.0795;-0.0321;
704467970354766;0.0487;0.0194;-0.0609;
704467980456849;0.1073;0.0738;-0.0715;
704467990557474;0.0786;0.1004;-0.0268;
704468000658099;0.0498;0.1462;-0.0406;
704468010756953;0.0764;0.1409;-0.0609;
704468020857578;0.0498;0.1164;-0.0672;
704468030958203;0.0372;-0.0145;-0.0374;
704468041061641;0.0297;-0.1040;-0.0449;
704468051162266;0.0435;-0.0422;-0.0438;
704468061262891;0.0605;0.0237;-0.0459;
704468071374505;0.0711;-0.0028;-0.0257;
704468081475130;0.0818;-0.0688;-0.0108;
704468091575703;0.0786;-0.1051;0.0020;
704468101666328;0.0340;-0.1296;-0.0097;
704468111766953;0.0382;-0.0965;-0.0268;
704468121867578;0.0435;0.0142;-0.0310;
704468131971641;0.0382;0.0919;-0.0278;
704468142072266;0.0615;0.1409;-0.0278;
704468152172891;0.0892;0.0290;0.0031;
704468162262995;0.1148;-0.0443;0.0308;
704468172363620;0.0732;0.0004;0.0063;
704468182464245;0.0414;0.0429;0.0095;
704468192569037;0.0498;0.0503;0.0095;
704468202669662;0.0509;-0.0326;0.0372;
704468212770287;0.0190;-0.0348;0.0244;
704468222866016;0.0286;-0.0369;-0.0044;
704468232966641;0.0393;-0.1157;0.0073;
704468243067266;0.0519;-0.1210;0.0414;
704468253173620;0.0711;-0.0593;0.0670;
704468263274245;0.0530;-0.0071;0.0521;
704468273374870;0.1073;-0.0049;0.0574;
704468283474714;0.0764;0.0142;0.0872;
704468293575391;0.0551;0.0386;0.0553;
704468303675964;0.0626;0.0812;0.0553;
704468313767682;0.0403;0.1260;0.0467;
704468323868307;0.0446;0.0759;0.0595;
704468333968985;0.0276;0.0258;0.0627;
704468344067005;0.0158;0.0205;0.0723;
704468354167578;0.0297;-0.0007;0.0808;
704468364268203;0.0382;-0.0401;0.0617;
704468374377110;0.0340;-0.0561;0.0840;
704468384477735;0.0201;-0.0454;0.1000;
704468394578360;0.0318;-0.0593;0.0840;
704468404675287;0.0222;-0.0422;0.0734;
704468414775964;0.0190;0.0100;0.0851;
704468424876537;0.0169;0.0706;0.0862;
704468434979766;0.0126;0.0503;0.0499;
704468445080339;0.0265;0.0173;0.1117;
704468455180964;-0.0001;0.0216;0.0936;
704468465273099;0.0073;0.0397;0.0659;
704468475373672;0.0180;0.1590;0.0776;
704468485474297;0.0126;0.1270;0.0915;
704468495589766;-0.0172;-0.0198;0.0819;
704468505690339;-0.0395;-0.0326;0.0755;
704468515790912;-0.0704;-0.0177;0.0691;
704468525915599;-0.0449;-0.0209;0.0830;
704468536016172;-0.0662;-0.0134;0.0553;
704468546116745;-0.0438;0.0738;0.0521;
704468556162370;-0.0246;-0.0209;0.0531;
704468566262891;-0.0076;-0.0507;0.0595;
704468576363464;-0.0513;-0.0465;0.0435;
704468586473985;0.0063;-0.1573;0.0499;
704468596574557;-0.0449;0.0450;0.0233;
704468606675130;-0.0534;0.0578;0.0329;
704468616776745;-0.0001;-0.0294;0.0340;
704468626877318;-0.0076;-0.0422;0.0478;
704468636977891;-0.0140;-0.0369;0.0627;
704468647110495;-0.0300;-0.0017;0.0585;
704468657211068;-0.0257;0.0025;0.0276;
704468667311641;-0.0406;0.0079;0.0499;
704468677373672;-0.0417;-0.0134;0.0435;
704468687474245;-0.0406;-0.0518;0.0169;
704468697574818;-0.0268;0.0248;0.0116;
704468707686172;-0.0385;0.0780;0.0233;
704468717786693;-0.0012;-0.0284;0.0595;
704468727887318;-0.0012;-0.0134;0.0936;
704468737977162;-0.0321;0.0429;0.0872;
704468748077682;-0.0182;0.0258;0.0702;
704468758178255;-0.0502;0.0100;0.0819;
704468768295599;-0.0577;-0.0305;0.0862;
704468778396172;-0.0566;-0.0230;0.0553;
704468788496745;-0.0491;0.0535;0.0467;
704468798594974;-0.0395;0.0748;0.0521;
704468808695599;-0.0310;0.0025;0.0947;
704468818796120;-0.0704;-0.0273;0.1277;
704468828890755;-0.0747;-0.0166;0.1405;
704468838991276;-0.0981;-0.0241;0.1234;
704468849091849;-0.1141;0.0599;0.0989;
704468859201693;-0.1397;0.0599;0.0936;
704468869302266;-0.1471;0.0450;0.0467;
704468879402839;-0.1567;0.0567;0.0329;
704468889486693;-0.1748;0.0162;0.0180;
704468899587266;-0.1589;-0.0582;0.0201;
704468909687839;-0.1780;-0.0774;0.0382;
704468919809766;-0.1461;0.1047;0.0265;
704468929910339;-0.1354;0.0312;0.0382;
704468940010912;-0.1951;-0.1498;0.0137;
704468950107266;-0.1354;-0.1413;0.0126;
704468960207839;-0.1461;-0.0987;-0.0289;
704468970308412;-0.1173;-0.0113;-0.0683;
704468980415860;-0.0992;0.0535;-0.0928;
704468990516485;-0.0992;0.0025;-0.0949;
704469000617005;-0.0885;-0.0624;-0.0694;
704469010708099;-0.0481;-0.0156;-0.0704;
704469020808724;-0.0427;-0.0699;-0.0534;
704469030909245;-0.0119;-0.0987;-0.0523;
704469041016641;-0.0321;0.2261;-0.0896;
704469051117214;-0.0662;0.1632;-0.0609;
704469061217787;-0.0268;0.0514;-0.0758;
704469071319193;0.0190;0.0514;-0.1173;
704469081419766;0.0361;0.0290;-0.0960;
704469091520391;-0.0342;0.0866;-0.0907;
704469101622110;-0.0246;0.0429;-0.0704;
704469111722682;0.0137;0.0162;-0.0491;
704469121823255;0.0169;0.0111;-0.0246;
704469131909193;-0.0055;-0.0699;-0.0321;
704469142009714;0.0031;-0.0433;-0.0406;
704469152110287;-0.0076;-0.0550;-0.0364;
704469162220182;-0.0055;-0.0656;-0.0236;
704469172320755;-0.0332;0.0226;-0.0385;
704469182421328;-0.0310;-0.0134;-0.0246;
704469192531380;-0.0278;-0.1040;0.0063;
704469202631953;-0.0353;-0.0699;-0.0023;
704469212732526;-0.0278;-0.0241;-0.0140;
704469222824453;-0.0513;-0.0465;0.0105;
704469232925026;-0.0481;0.0354;-0.0182;
704469243025599;-0.0385;0.0727;-0.0023;
704469253132943;-0.0566;0.0365;-0.0044;
704469263233516;-0.0470;0.0610;-0.0087;
704469273334141;-0.0832;0.0418;0.0041;
704469283437005;-0.0949;0.0205;-0.0204;
704469293537578;-0.0896;0.0312;-0.0214;
704469303638151;-0.0917;0.0162;-0.0236;
704469313730287;-0.0662;-0.0252;-0.0268;
704469323830860;-0.0854;-0.0742;-0.0640;
704469333931485;-0.0790;-0.1168;-0.0427;
704469344023776;-0.0566;-0.1423;-0.0385;
704469354124349;-0.0289;0.0674;-0.0864;
704469364224974;-0.0374;0.1835;-0.0875;
704469374346016;-0.0555;0.1579;-0.0491;
704469384446537;-0.0683;0.1111;-0.0449;
704469394547162;-0.0598;0.1068;-0.0513;
704469404626849;-0.0619;0.1569;-0.0683;
704469414727474;-0.0832;0.1068;-0.0907;
704469424827995;-0.0704;0.1217;-0.0960;
704469434929557;-0.1045;0.1356;-0.1162;
704469445030078;-0.0672;-0.0710;-0.1236;
704469455130651;-0.0182;-0.1881;-0.1353;
704469465216276;-0.0076;-0.1818;-0.1225;
704469475316745;-0.0236;-0.2116;-0.1024;
704469485417266;0.0063;-0.2435;-0.0822;
704469495547787;0.0158;-0.1530;-0.0928;
704469505648307;0.0446;-0.0827;-0.0981;
704469515748828;0.0466;-0.0316;-0.1088;
704469525827839;0.0509;0.0589;-0.1056;
704469535928360;0.0477;0.0855;-0.1353;
704469546028828;0.0487;0.1632;-0.1481;
704469556124610;0.0361;0.1515;-0.1491;
704469566225130;0.0340;0.0919;-0.1438;
704469576325651;0.0244;0.0866;-0.1449;
704469586488724;0.0297;0.0354;-0.1374;
704469596589193;0.0519;-0.0188;-0.1173;
704469606689766;0.0403;-0.0624;-0.1088;
704469616730287;0.0509;-0.0646;-0.1035;
704469626830807;0.0562;-0.1104;-0.0960;
704469636931328;0.0711;-0.1296;-0.1024;
704469647061953;0.0498;-0.0614;-0.1152;
704469657162474;0.0583;-0.0348;-0.1035;
704469667262995;0.0573;-0.0539;-0.0896;
704469677356849;0.0615;-0.0486;-0.0875;
704469687457422;0.0679;-0.0081;-0.0630;
704469697557943;0.0668;0.0173;-0.0715;
704469707638360;0.0615;0.0557;-0.0822;
704469717738880;0.0658;0.0525;-0.0417;
704469727839349;0.0509;0.0216;-0.0609;
704469737976016;0.0583;0.0567;-0.0640;
704469748076537;0.0308;0.0940;-0.0459;
704469758177057;0.0361;0.0290;-0.0459;
704469768254141;0.0498;-0.0390;-0.0225;
704469778354662;0.0487;-0.0092;-0.0225;
704469788455235;0.0530;0.0450;-0.0182;
704469798552162;0.0254;0.0132;-0.0385;
704469808652682;0.0594;-0.0007;-0.0353;
704469818753203;0.0340;-0.0348;-0.0150;
704469828870703;0.0297;-0.0252;-0.0268;
704469838971224;0.0265;-0.0475;-0.0342;
704469849071745;0.0265;-0.0752;-0.0353;
704469859160287;0.0329;-0.0550;-0.0672;
704469869260807;0.0446;-0.1072;-0.0406;
704469879361328;0.0541;-0.0933;-0.0108;
704469889458724;0.0839;-0.0198;-0.0268;
704469899559245;0.0839;0.0535;-0.0214;
704469909659766;0.0807;0.0929;0.0095;
704469919754766;0.0668;0.0525;0.0020;
704469929855287;0.0425;0.0748;-0.0278;
704469939955807;0.0265;0.1281;-0.0385;
704469950061328;0.0201;0.1196;-0.0406;
704469960161849;0.0158;-0.0177;-0.0300;
704469970262370;0.0276;0.0642;-0.0555;
704469980365391;0.0435;0.0269;-0.0459;
704469990465912;0.0562;-0.1605;-0.0395;
704470000566432;0.0487;-0.1636;-0.0268;
704470010665599;0.0372;-0.1818;-0.0140;
704470020766172;0.0551;-0.1573;-0.0236;
704470030866641;0.0466;-0.0901;-0.0459;
704470040964141;0.0530;-0.0529;-0.0193;
704470051064662;0.0732;-0.0326;-0.0204;
704470061165182;0.0828;0.0015;-0.0012;
704470071276745;0.0711;0.0823;-0.0161;
704470081377266;0.0786;0.1292;-0.0204;
704470091477787;0.0615;0.1494;-0.0182;
704470101584974;0.0466;0.1377;0.0073;
704470111685495;0.0329;0.1153;-0.0374;
704470121786016;0.0308;0.0375;-0.0427;
704470131878203;0.0212;-0.0497;-0.0332;
704470141978724;0.0286;-0.0763;-0.0140;
704470152079245;0.0180;-0.1274;-0.0044;
704470162174610;0.0583;-0.1860;0.0180;
704470172275130;0.0732;0.0152;0.0095;
704470182375651;0.0828;0.0631;0.0148;
704470192473307;0.0244;-0.0901;0.0521;
704470202573828;0.0297;-0.1115;0.0201;
704470212674349;0.0276;0.0290;-0.0225;
704470222769557;0.0126;0.1643;-0.0374;
704470232870078;0.0052;0.1952;-0.0246;
704470242970599;-0.0150;0.0993;-0.0236;
704470253067110;0.0031;0.0791;-0.0364;
704470263167578;0.0020;0.0663;-0.0385;
704470273268099;0.0009;-0.0678;-0.0236;
704470283399089;0.0233;-0.2329;-0.0012;
704470293499610;-0.0087;0.0599;-0.0246;
704470303600130;-0.0204;0.1238;-0.0491;
704470313683412;0.0254;-0.0422;-0.0353;
704470323783932;0.0297;-0.0198;-0.0491;
704470333884505;0.0276;-0.0017;-0.0566;
704470343982057;0.0435;-0.0017;-0.0598;
704470354082578;0.0457;-0.0039;-0.0449;
704470364183151;0.0435;0.0471;-0.0513;
704470374245391;0.0583;0.1771;-0.0896;
704470384345912;0.0913;0.1068;-0.0555;
704470394446432;0.0743;0.0567;-0.0459;
704470404594766;0.0626;0.0748;-0.0630;
704470414695339;0.0466;-0.0124;-0.0555;
704470424795860;0.0668;0.0674;-0.0715;
704470434884766;0.0435;-0.0326;-0.0800;
704470444985339;0.0583;-0.1903;-0.0640;
704470455085860;0.0913;-0.1232;-0.0310;
704470465178047;0.0541;-0.0561;-0.0577;
704470475278568;0.0913;-0.1168;-0.0640;
704470485379141;0.1446;-0.1487;-0.0342;
704470495505339;0.0977;-0.0710;-0.0236;
704470505605912;0.0786;-0.0284;-0.0193;
704470515706432;0.1020;0.0407;-0.0470;
704470525810807;0.1169;-0.0518;-0.0321;
704470535911380;0.1020;-0.0177;0.0009;
704470546011953;0.0956;0.2431;-0.0214;
704470556092110;0.0881;0.1174;-0.0044;
704470566192682;0.0764;0.0152;-0.0236;
704470576293203;0.0913;0.0418;-0.0108;
704470586357682;0.0700;0.0057;-0.0182;
704470596458255;0.0871;-0.0039;-0.0225;
704470606558776;0.0626;-0.0294;-0.0055;
704470616681745;0.0711;-0.0379;0.0116;
704470626782318;0.0945;-0.0316;0.0276;
704470636882839;0.0988;-0.0262;0.0499;
704470646990078;0.0892;0.0015;0.0595;
704470657090651;0.0764;0.0301;0.0435;
704470667191172;0.0807;-0.0124;0.0553;
704470677306224;0.0945;0.1079;0.0723;
704470687406797;0.0743;0.1973;0.0457;
704470697507370;0.0393;0.1238;0.0563;
704470707596745;0.0414;0.0567;0.0648;
704470717697266;0.0297;0.0418;0.0414;
704470727797787;0.0509;-0.0007;0.0574;
704470737926953;0.0020;-0.0710;0.0702;
704470748027526;-0.0065;-0.0976;0.0606;
704470758128047;0.0169;-0.0784;0.0254;
704470768203724;0.0382;-0.0784;0.0680;
704470778304297;0.0158;-0.0997;0.0425;
704470788404870;0.0700;-0.1913;0.0489;
704470798506016;0.0414;-0.0060;0.0308;
704470808606589;0.0350;0.0365;0.0489;
704470818707110;0.0487;-0.0891;0.0254;
704470828812474;0.0828;-0.0390;0.0095;
704470838913047;0.0446;0.0706;0.0393;
704470849013568;0.0605;0.1132;0.0180;
704470859122110;0.0860;0.0610;0.0329;
704470869222682;0.0573;-0.0071;0.0340;
704470879323203;0.0509;0.0503;-0.0119;
704470889416016;0.0487;0.0471;-0.0119;
704470899516589;0.0573;-0.0507;0.0180;
704470909617110;0.0562;-0.0699;0.0169;
704470919716537;0.0818;-0.0401;0.0372;
704470929817110;0.0796;-0.0060;0.0563;
704470939917630;0.0754;0.0365;0.0510;
704470950025495;0.0913;0.0450;0.0691;
704470960126068;0.0636;0.0418;0.0819;
704470970226589;0.0509;0.0802;0.0425;
704470980321120;0.0425;0.0919;0.0265;
704470990421693;0.0382;0.0759;0.0435;
704471000522214;0.0212;0.0887;0.0318;
704471010625807;0.0498;0.0748;0.0531;
704471020726380;0.0435;0.0152;0.0723;
704471030826901;0.0457;-0.0252;0.0936;
704471040926953;0.0233;-0.0252;0.0766;
704471051027526;0.0254;-0.0997;0.0787;
704471061128047;0.0084;-0.1668;0.0776;
704471071241120;0.0105;-0.0071;0.0435;
704471081341693;0.0169;0.0354;0.0329;
704471091442214;0.0308;-0.0518;0.0446;
704471101530755;0.0519;-0.0454;0.0446;
704471111631276;0.0457;0.0354;0.0585;
704471121731849;0.0403;0.0887;0.0574;
704471131846849;0.0361;0.0631;0.0755;
704471141947422;0.0190;0.0226;0.0904;
704471152047943;0.0137;0.0322;0.0670;
704471162129453;0.0116;0.1142;0.0158;
704471172230026;0.0158;0.0589;0.0244;
704471182330547;0.0212;-0.0880;0.0435;
704471192432474;-0.0001;0.0344;-0.0023;
704471202533047;0.0190;-0.0337;0.0286;
704471212633568;0.0583;-0.1136;0.0617;
704471222731276;0.0372;-0.0550;0.0734;
704471232831849;0.0116;-0.0294;0.0712;
704471242932370;0.0318;-0.0443;0.0883;
704471253029297;0.0190;-0.0273;0.0425;
704471263129818;0.0222;0.0525;0.0052;
704471273230391;0.0222;0.0834;0.0052;
704471283337943;0.0190;-0.0039;0.0244;
704471293438516;0.0254;0.0312;0.0126;
704471303539089;0.0350;-0.0007;0.0244;
704471313641641;0.0519;-0.0965;0.0755;
704471323742214;0.0244;-0.0145;0.0499;
704471333842787;0.0222;-0.0177;0.0521;
704471343937057;0.0318;-0.0497;0.0595;
704471354037630;0.0201;0.0173;0.0350;
704471364138203;0.0180;0.0121;0.0382;
704471374211537;0.0063;-0.0316;0.0595;
704471384312057;0.0361;-0.0188;0.0563;
704471394412630;0.0466;0.0216;0.0627;
704471404543464;0.0265;0.0121;0.0808;
704471414643985;0.0105;0.0876;0.0617;
704471424744557;0.0233;0.0525;0.0606;
704471434844610;0.0222;-0.0241;0.0915;
704471444945235;0.0126;0.0418;0.0808;
704471455045807;-0.0087;0.0557;0.0553;
704471465141745;-0.0023;0.0036;0.0680;
704471475242370;-0.0182;-0.0092;0.0766;
704471485342943;-0.0182;0.0162;0.0659;
704471495456537;-0.0097;-0.0316;0.0819;
704471505557110;-0.0108;-0.0337;0.0989;
704471515657735;-0.0332;-0.0752;0.0893;
704471525771745;-0.0310;-0.1200;0.1000;
704471535872318;-0.0449;-0.0103;0.0776;
704471545972943;-0.0587;-0.0188;0.0553;
704471556039818;-0.0587;-0.0518;0.0691;
704471566140443;-0.0811;-0.0614;0.0808;
704471576241016;-0.0854;-0.0369;0.0393;
704471586350182;-0.0204;-0.0039;0.0585;
704471596450807;-0.0417;-0.0060;0.0648;
704471606551380;-0.0513;0.0269;0.0510;
704471616686224;-0.0449;-0.0166;0.0670;
704471626786797;-0.0438;0.0205;0.0585;
704471636887422;-0.0342;0.0194;0.0137;
704471646954245;-0.0268;0.0226;0.0041;
704471657054870;-0.0406;0.0876;-0.0033;
704471667155443;-0.0182;-0.0039;0.0031;
704471677251276;0.0116;-0.0134;0.0137;
704471687351849;0.0052;-0.0294;0.0478;
704471697452474;-0.0172;-0.0337;0.0585;
704471707553724;-0.0001;-0.0039;0.0446;
704471717654349;-0.0065;-0.0198;0.0521;
704471727754922;-0.0140;0.0162;0.0095;
704471737874766;-0.0193;0.0407;-0.0055;
704471747975391;-0.0225;0.0471;0.0148;
704471758075964;-0.0214;0.0589;0.0254;
704471768179766;-0.0065;0.0493;0.0073;
704471778280339;-0.0044;-0.0113;0.0254;
704471788380964;-0.0119;-0.0188;0.0499;
704471798457578;-0.0332;0.0025;0.0393;
704471808558151;-0.0119;-0.0177;0.0617;
704471818658724;-0.0438;-0.0166;0.0563;
704471828754974;-0.0310;0.0173;0.0052;
704471838855599;-0.0481;0.0312;0.0148;
704471848956172;-0.0321;0.0269;0.0350;
704471859059349;-0.0246;0.0280;0.0340;
704471869159974;-0.0438;0.0184;0.0254;
704471879260547;-0.0459;0.0312;0.0425;
704471889373307;-0.0662;0.0132;0.0340;
704471899473932;-0.0470;-0.0081;0.0084;
704471909574505;-0.0577;-0.0081;0.0158;
704471919671641;-0.0481;0.0216;-0.0055;
704471929772266;-0.0609;0.0194;-0.0182;
704471939872839;-0.0513;-0.0507;-0.0001;
704471949986120;-0.0353;-0.0678;-0.0097;
704471960086745;-0.0150;-0.0667;-0.0055;
704471970187318;-0.0321;-0.0614;0.0158;
704471980294141;-0.0300;0.0100;0.0286;
704471990394766;-0.0310;0.0375;0.0031;
704472000495339;-0.0204;0.0152;0.0041;
704472010590287;-0.0374;0.0269;-0.0140;
704472020690912;-0.0214;0.0823;-0.0481;
704472030791485;-0.0246;0.0823;-0.0417;
704472040874453;-0.0182;0.0344;-0.0129;
704472050975078;-0.0129;0.0365;-0.0182;
704472061075651;0.0020;0.0205;-0.0055;
704472071191120;-0.0119;0.0089;0.0095;
704472081291745;-0.0246;-0.0103;-0.0044;
704472091392318;-0.0108;-0.0763;-0.0033;
704472101488412;0.0020;-0.0688;0.0180;
704472111589037;-0.0119;0.0079;-0.0257;
704472121689610;-0.0172;-0.0156;-0.0193;
704472131781537;-0.0140;-0.0529;-0.0150;
704472141882162;0.0020;-0.0156;-0.0119;
704472151982735;0.0063;-0.0252;-0.0182;
704472162089193;0.0233;-0.0284;0.0286;
704472172189818;0.0052;0.0132;0.0329;
704472182290391;0.0222;0.0216;0.0116;
704472192388307;0.0212;0.0312;0.0222;
704472202488932;-0.0055;0.0216;0.0116;
704472212589505;-0.0076;0.0290;-0.0172;
704472222699037;0.0031;0.0173;0.0116;
704472232799662;-0.0097;-0.0156;0.0137;
704472242900235;0.0190;-0.0071;0.0073;
704472253010912;0.0041;-0.0252;0.0318;
704472263111537;0.0052;-0.0198;0.0712;
704472273212110;-0.0204;-0.0401;0.0308;
704472283308568;0.0052;-0.0923;0.0382;
704472293409193;-0.0214;-0.0529;0.0372;
704472303509766;-0.0055;0.0142;0.0158;
704472313599037;-0.0246;0.0194;0.0095;
704472323699662;0.0052;-0.0188;0.0212;
704472333800287;0.0052;0.0162;0.0073;
704472343897578;0.0169;0.0047;0.0542;
704472353998203;-0.0097;-0.0209;0.0766;
704472364098828;-0.0108;0.0269;0.0617;
704472374185755;-0.0161;0.0290;0.0542;
704472384286328;-0.0364;-0.0316;0.0446;
704472394386953;-0.0076;-0.0071;0.0180;
704472404496432;-0.0332;0.0312;0.0158;
704472414597057;-0.0225;0.0514;0.0340;
704472424697630;-0.0140;0.0344;0.0254;
704472434803776;-0.0129;-0.0422;0.0340;
704472444904401;-0.0193;-0.0507;0.0414;
704472455004974;-0.0332;-0.0358;0.0819;
704472465095339;-0.0182;-0.0134;0.0585;
704472475195912;-0.0065;-0.0262;0.0542;
704472485296485;-0.0300;0.1047;0.0265;
704472495413828;-0.0246;0.0983;0.0222;
704472505514453;-0.0268;-0.0539;0.0425;
704472515615026;-0.0342;-0.0230;0.0265;
704472525721328;-0.0278;0.0036;0.0233;
704472535821901;-0.0182;-0.0071;0.0329;
704472545922526;-0.0268;0.0226;0.0670;
704472556061172;-0.0406;0.0386;0.0435;
704472566161745;-0.0129;0.0057;0.0531;
704472576262370;-0.0491;-0.0198;0.0467;
704472586314401;-0.0364;0.0684;-0.0055;
704472596414974;-0.0513;0.0738;0.0031;
704472606515547;-0.0417;-0.0156;0.0457;
704472616667943;-0.0300;0.0248;0.0212;
704472626768568;-0.0087;0.0493;0.0446;
704472636869193;-0.0491;0.0152;0.0957;
704472646924089;-0.0459;0.0100;0.0798;
704472657024662;-0.0332;-0.0145;0.0680;
704472667125287;-0.0779;-0.0433;0.0659;
704472677206068;-0.0800;-0.0401;0.0393;
704472687306641;-0.0971;-0.0220;0.0467;
704472697407266;-0.1226;-0.0454;0.0393;
704472707514141;-0.1077;-0.0422;0.0382;
704472717614766;-0.1290;-0.0220;0.0190;
704472727715339;-0.1013;-0.0422;0.0542;
704472737839245;-0.1290;-0.0049;0.0691;
704472747939870;-0.1471;-0.0103;0.0393;
704472758040443;-0.1248;-0.0209;0.0318;
704472768112787;-0.1418;0.0780;-0.0097;
704472778213412;-0.1493;0.1345;-0.0321;
704472788314037;-0.1333;0.1142;-0.0481;
704472798413360;-0.1322;0.0631;-0.0587;
704472808513932;-0.1162;0.0216;-0.0481;
704472818614505;-0.1003;-0.0103;-0.0374;
704472828759141;-0.0800;0.0333;-0.0182;
704472838859714;-0.0971;0.0068;-0.0342;
704472848960339;-0.0513;0.0652;-0.0332;
704472859023620;-0.0662;0.1121;-0.0417;
704472869124245;-0.0875;0.0397;-0.0598;
704472879224818;-0.1024;-0.0379;-0.0598;
704472889323776;-0.0726;-0.0901;-0.0704;
704472899424401;-0.0566;-0.0795;-0.1045;
704472909525026;-0.0385;-0.0891;-0.0875;
704472919629870;-0.0332;-0.0955;-0.0566;
704472929730495;0.0031;-0.1061;-0.0523;
704472939831068;0.0009;-0.1115;-0.0555;
704472949930182;-0.0023;-0.0795;-0.0598;
704472960030807;0.0041;-0.0944;-0.0417;
704472970131380;-0.0182;-0.0007;-0.0491;
704472980226953;-0.0481;0.0812;-0.0566;
704472990327578;-0.0481;0.1281;-0.0683;
704473000428151;-0.0491;0.1419;-0.0875;
704473010530860;-0.0683;0.0972;-0.0768;
704473020631485;-0.0502;0.0855;-0.0758;
704473030732057;-0.0278;0.0015;-0.0683;
704473040830860;-0.0268;-0.0337;-0.0598;
704473050931485;-0.0332;-0.0369;-0.0662;
704473061032057;-0.0321;-0.0688;-0.0726;
704473071152474;-0.0427;-0.1029;-0.0651;
704473081253099;-0.0364;-0.1178;-0.0662;
704473091353672;-0.0225;-0.1157;-0.0651;
704473101439453;-0.0289;0.0450;-0.0321;
704473111540078;-0.0545;0.0216;-0.0150;
704473121640651;-0.0981;-0.2126;-0.0129;
704473131752474;-0.0587;-0.1423;-0.0587;
704473141853099;-0.0257;0.1281;-0.0896;
704473151953672;-0.0364;0.2346;-0.0971;
704473162044870;-0.0779;0.1739;-0.0811;
704473172145495;-0.0630;0.1505;-0.0736;
704473182246068;-0.0406;0.1707;-0.0555;
704473192344193;-0.0449;0.1451;-0.0513;
704473202444818;-0.0438;0.0567;-0.0129;
704473212545443;-0.0651;-0.0465;-0.0097;
704473222643203;-0.0523;0.2804;-0.1109;
704473232743828;-0.0566;0.0855;-0.1141;
704473242844453;-0.0651;-0.3266;-0.1013;
704473252946016;0.0212;-0.1839;-0.1236;
704473263046641;0.0700;-0.0539;-0.1003;
704473273147214;0.0350;-0.1487;-0.0800;
704473283257995;0.0126;-0.2073;-0.0726;
704473293358620;0.0435;-0.1264;-0.0630;
704473303459193;0.0244;-0.0305;-0.0449;
704473313569610;-0.0129;-0.0358;-0.0630;
704473323670182;0.0009;0.0738;-0.1056;
704473333770807;0.0116;0.1622;-0.1184;
704473343852110;-0.0193;0.2080;-0.1374;
704473353952735;0.0095;0.1632;-0.1406;
704473364053360;0.0116;-0.0049;-0.1321;
704473374125339;0.0297;-0.0103;-0.1438;
704473384225912;0.0679;0.0132;-0.1162;
704473394326537;0.0519;-0.0518;-0.0768;
704473404455495;0.0498;-0.2350;-0.0651;
704473414556120;0.0732;-0.1775;-0.0885;
704473424656693;0.0605;-0.0103;-0.1332;
704473434759193;0.0754;-0.0497;-0.1035;
704473444859818;0.0487;-0.0497;-0.0939;
704473454960391;0.0647;0.0493;-0.1077;
704473465050339;0.0711;0.0557;-0.0939;
704473475150912;0.0254;0.1079;-0.1045;
704473485251485;0.0722;0.0557;-0.0747;
704473495364089;0.0573;0.0184;-0.0193;
704473505464714;0.0212;0.1835;-0.0768;
704473515565287;0.0775;0.2037;-0.0715;
704473525670912;0.0350;0.0079;-0.0587;
704473535771537;0.0318;-0.0007;-0.0875;
704473545872110;0.0509;-0.0454;-0.0640;
704473555980860;0.0583;-0.1285;-0.0598;
704473566081432;0.0690;-0.1541;-0.0459;
704473576182005;0.0477;-0.0838;-0.0172;
704473586272005;0.0509;-0.0209;-0.0065;
704473596372578;0.0393;-0.0454;-0.0119;
704473606473203;0.0435;-0.0337;0.0126;
704473616579610;0.0105;0.0057;-0.0140;
704473626680235;0.0286;0.0716;-0.0513;
704473636780860;0.0116;0.0695;-0.0534;
704473646875755;0.0169;0.0620;-0.0577;
704473656976380;0.0180;0.0461;-0.0981;
704473667077005;0.0477;-0.0284;-0.0577;
704473677168203;0.0487;-0.0561;-0.0268;
704473687268828;0.0860;-0.1125;0.0041;
704473697369401;0.0668;-0.1051;-0.0364;
704473707471849;0.0818;-0.1136;-0.0257;
704473717572474;0.0318;-0.0859;-0.0225;
704473727673047;0.0414;0.0173;-0.0555;
704473737791537;0.0711;0.0972;-0.0715;
704473747892162;0.0477;0.1409;-0.0736;
704473757992735;0.0594;0.1750;-0.0577;
704473768084974;0.0372;0.2176;-0.0513;
704473778185599;0.0393;0.1515;-0.0502;
704473788286172;0.0466;0.0716;-0.0768;
704473798380807;0.0647;0.0132;-0.0534;
704473808481432;0.0350;-0.0060;-0.0971;
704473818582005;0.0594;-0.0177;-0.1205;
704473828681328;0.0551;-0.2009;-0.0854;
704473838781953;0.0956;-0.1871;-0.0619;
704473848882526;0.0935;-0.1594;-0.0619;
704473858983516;0.1009;-0.2073;-0.0385;
704473869084141;0.1009;-0.1573;0.0073;
704473879184714;0.0722;-0.0891;0.0041;
704473889282787;0.0647;0.0089;-0.0449;
704473899383412;0.0605;0.0897;-0.0736;
704473909483985;0.0425;0.1494;-0.0907;
704473919586537;0.0487;0.1771;-0.1109;
704473929687162;0.0807;0.1601;-0.1077;
704473939787735;0.0658;0.0972;-0.0971;
704473949887370;0.0647;0.0695;-0.0832;
704473959987995;0.0850;0.0269;-0.0427;
704473970088568;0.0935;-0.0529;-0.0161;
704473980194193;0.0956;-0.0475;-0.0491;
704473990294818;0.1297;-0.0060;-0.0438;
704474000395391;0.1041;0.0079;-0.0459;
704474010490703;0.1095;0.0121;-0.0459;
704474020591328;0.1084;0.0025;-0.0406;
704474030691901;0.1031;0.0184;-0.0406;
704474040794766;0.0988;-0.0134;-0.0150;
704474050895391;0.0828;0.0100;0.0052;
704474060995964;0.1009;0.0791;0.0350;
704474071095547;0.0892;0.1111;0.0350;
704474081196172;0.1009;0.0727;0.0393;
704474091296745;0.0807;0.0503;0.0393;
704474101415026;0.0796;0.0344;0.0372;
704474111515651;0.0658;-0.0188;0.0382;
704474121616224;0.0924;-0.0134;0.0116;
704474131695807;0.0786;-0.0550;0.0499;
704474141796432;0.0562;-0.0742;0.0862;
704474151897005;0.0700;-0.0241;0.0734;
704474161999349;0.0690;-0.0273;0.0915;
704474172099974;0.0562;-0.0124;0.0766;
704474182200547;0.0690;-0.0039;0.0776;
704474192302266;0.0466;0.0386;0.0808;
704474202402891;0.0276;0.0652;0.0734;
704474212503464;0.0116;0.0068;0.0180;
704474222606224;0.0414;-0.1125;0.0585;
704474232706849;0.0233;-0.0624;0.0712;
704474242807422;0.0393;0.0940;0.0744;
704474252903099;0.0647;0.0983;0.1032;
704474263003724;0.0498;0.0503;0.0989;
704474273104297;0.0519;0.0706;0.1117;
704474283214662;-0.0065;0.0684;0.0957;
704474293315287;-0.0172;0.0642;0.0553;
704474303415860;-0.0108;0.0397;0.0489;
704474313510807;-0.0353;0.0642;0.0627;
704474323611432;-0.0513;0.1771;0.0116;
704474333712057;-0.0023;0.0439;0.0116;
704474343811432;0.0446;-0.1700;0.0702;
704474353912057;0.0530;-0.2126;0.0766;
704474364012630;0.0425;-0.1093;0.0712;
704474374087995;0.0308;-0.0060;0.0723;
704474384188568;0.0361;-0.0188;0.0755;
704474394289141;0.0233;-0.0177;0.0574;
704474404422266;0.0361;-0.0390;0.0382;
704474414522891;0.0222;-0.0305;0.0372;
704474424623464;0.0222;0.0546;0.0446;
704474434705339;0.0297;0.0589;0.0883;
704474444805860;0.0254;0.0162;0.0744;
704474454906485;0.0276;0.0940;0.0095;
704474465011432;0.0361;0.0972;0.0158;
704474475112005;0.0329;-0.0241;0.0478;
704474485212578;0.0350;-0.0976;0.0435;
704474495301641;0.0446;-0.0475;0.0340;
704474505402214;0.0009;-0.0688;0.0638;
704474515502787;0.0095;-0.1434;0.0627;
704474525594401;0.0297;-0.0678;0.0446;
704474535694974;0.0519;-0.0656;0.0798;
704474545795547;0.0286;-0.0401;0.0798;
704474555926693;0.0435;-0.0071;0.0925;
704474566027266;0.0009;0.0047;0.0734;
704474576127787;-0.0076;0.0503;0.0457;
704474586201224;-0.0236;0.1153;0.0521;
704474596301797;-0.0087;0.0961;0.0521;
704474606402318;-0.0065;0.0908;0.0712;
704474616532474;-0.0566;0.1121;0.0840;
704474626633047;-0.0257;0.0759;0.0957;
704474636733620;-0.0204;0.0216;0.0936;
704474646831224;-0.0427;-0.0092;0.0744;
704474656931745;-0.0523;0.0079;0.0489;
704474667032318;-0.0523;-0.0209;0.0648;
704474677127839;-0.0577;-0.0795;0.0478;
704474687228412;-0.0289;-0.0731;0.0457;
704474697328985;-0.0470;-0.0529;0.0329;
704474707420443;-0.0289;-0.0539;0.0702;
704474717521068;-0.0427;-0.0241;0.1011;
704474727621641;-0.0268;-0.0497;0.0947;
704474737741432;-0.0225;0.0079;0.0457;
704474747842005;-0.0172;0.0983;0.0467;
704474757942578;-0.0598;0.1164;0.0393;
704474768026120;-0.0321;0.0876;0.0212;
704474778126693;-0.0459;0.1047;-0.0012;
704474788227266;-0.0459;0.0535;-0.0119;
704474798362839;-0.0374;0.0047;-0.0055;
704474808463412;-0.0395;-0.0060;0.0031;
704474818563985;-0.0119;-0.0720;0.0372;
704474828650807;-0.0204;-0.1093;0.0116;
704474838751380;-0.0001;-0.1029;-0.0150;
704474848851953;-0.0182;-0.0891;-0.0108;
704474858942891;-0.0087;-0.0774;-0.0300;
704474869043464;0.0073;-0.0177;-0.0332;
704474879144037;0.0020;0.0132;-0.0246;
704474889240443;-0.0055;0.0057;-0.0332;
704474899341016;-0.0182;0.0397;-0.0172;
704474909441589;-0.0257;-0.0784;0.0063;
704474919542266;-0.0055;-0.0880;-0.0150;
704474929642839;-0.0033;0.0770;-0.0587;
704474939743412;0.0244;0.1760;-0.0619;
704474949849453;0.0180;0.1409;-0.0491;
704474959950078;0.0041;0.0567;-0.0406;
704474970050599;0.0180;0.0280;-0.0332;
704474980141849;0.0063;-0.0262;-0.0395;
704474990242422;0.0031;-0.0252;-0.0289;
704475000342995;0.0105;-0.0390;-0.0065;
704475010457057;0.0361;0.0375;-0.0140;
704475020557630;0.0222;0.1345;-0.0758;
704475030658203;0.0425;-0.0262;-0.0385;
704475040747682;0.0254;-0.0912;-0.0193;
704475050848255;0.0393;-0.0518;-0.0395;
704475060948828;0.0233;-0.0134;-0.0310;
704475071062526;0.0116;-0.0007;-0.0108;
704475081163151;0.0158;0.0503;-0.0065;
704475091263672;0.0105;0.1121;-0.0076;
704475101355912;-0.0033;0.0471;0.0063;
704475111456485;0.0009;-0.0017;0.0169;
704475121557110;0.0148;0.0184;-0.0172;
704475131661641;0.0095;-0.0081;-0.0214;
704475141762214;0.0095;-0.0486;-0.0065;
704475151862787;0.0126;-0.0039;-0.0342;
704475161962162;0.0276;-0.0582;-0.0268;
704475172062735;0.0169;-0.1391;0.0329;
704475182163307;0.0158;-0.1306;0.0297;
704475192262266;0.0372;-0.1700;0.0489;
704475202362839;0.0329;-0.1178;0.0638;
704475212463412;0.0382;0.0258;0.0297;
704475222565130;0.0403;0.0557;0.0222;
704475232665703;0.0041;0.0599;0.0158;
704475242766276;0.0126;0.0663;0.0031;
704475252875599;0.0308;0.0642;0.0020;
704475262976172;-0.0055;0.0567;0.0073;
704475273076745;0.0031;0.0770;0.0201;
704475283169089;0.0052;0.0397;0.0595;
704475293269662;0.0126;-0.0284;0.0851;
704475303370235;0.0137;-0.0358;0.0329;
704475313467682;0.0350;-0.0422;0.0180;
704475323568307;0.0041;-0.0646;0.0531;
704475333668880;0.0148;-0.0582;0.0254;
704475343768932;0.0551;0.1526;0.0201;
704475353869505;0.0190;-0.0071;0.0712;
704475363970130;-0.0278;-0.0806;0.0308;
704475374056224;0.0020;-0.0007;0.0553;
704475384156745;-0.0150;-0.0571;0.0787;
704475394257318;-0.0055;-0.0209;0.0457;
704475404368932;-0.0065;-0.0241;-0.0087;
704475414469505;0.0009;0.0111;0.0201;
704475424570130;0.0105;0.1398;0.0020;
704475434665078;-0.0033;0.1142;-0.0321;
704475444765651;0.0222;-0.0284;-0.0150;
704475454866224;0.0095;0.0450;0.0372;
704475464962422;-0.0672;0.2325;0.0361;
704475475062943;-0.0119;-0.0582;0.0606;
704475485163568;-0.0236;0.0727;0.0095;
704475495263099;-0.0225;0.1537;-0.0598;
704475505363672;0.0041;0.0610;-0.0374;
704475515464245;0.0063;0.1409;-0.0513;
704475525594349;0.0308;-0.1945;-0.0150;
704475535694922;0.0286;-0.0731;-0.0225;
704475545795547;0.0573;-0.0220;-0.0321;
704475555884193;0.0562;-0.2414;0.0329;
704475565984766;0.0169;-0.0379;0.0435;
704475576085391;0.0382;-0.0166;0.0563;
704475586169245;0.0169;-0.0475;0.0382;
704475596269766;0.0308;0.0557;-0.0182;
704475606370339;0.0137;0.0397;0.0105;
704475616475547;-0.0087;0.0855;0.0031;
704475626576120;0.0286;0.1366;-0.0129;
704475636676745;0.0041;0.0418;-0.0012;
704475646764557;0.0009;0.0312;0.0137;
704475656865130;0.0020;0.0162;0.0372;
704475666965703;0.0073;-0.1232;0.0627;
704475677107578;0.0222;-0.0742;0.0595;
704475687208151;0.0340;-0.0103;0.0116;
704475697308724;0.0180;-0.0539;0.0435;
704475707371901;0.0084;-0.0305;0.0425;
704475717472422;0.0318;-0.0241;0.0329;
704475727572995;-0.0012;-0.0848;0.0393;
704475737696745;0.0137;-0.0635;0.0478;
704475747797318;-0.0001;-0.0017;0.0691;
704475757897891;-0.0044;-0.0124;0.0989;
704475767998672;0.0126;0.0514;0.0957;
704475778099245;0.0020;0.0791;0.0659;
704475788199818;-0.0033;0.0365;0.0702;
704475798290287;-0.0353;-0.0113;0.0648;
704475808390860;-0.0129;-0.0326;0.0638;
704475818491432;-0.0076;-0.0401;0.0531;
704475828597266;-0.0172;0.0036;0.0510;
704475838697839;-0.0257;0.0439;0.0617;
704475848798412;-0.0182;-0.0103;0.0893;
704475858911276;-0.0214;-0.0561;0.1213;
704475869011849;-0.0374;-0.0113;0.1128;
704475879112422;-0.0236;0.1025;0.0680;
704475889192266;-0.0577;0.1153;0.0723;
704475899292839;-0.0768;0.0100;0.0798;
704475909393412;-0.0768;0.1387;0.0361;
704475919501276;-0.0758;0.0567;0.0350;
704475929601849;-0.0939;-0.0252;0.0276;
704475939702422;-0.0694;-0.0411;0.0169;
704475949800026;-0.0566;-0.1221;0.0670;
704475959900599;-0.0438;-0.0997;0.0734;
704475970001172;-0.0353;-0.0699;0.0361;
704475980113516;-0.0278;-0.1051;0.0244;
704475990214089;-0.0353;-0.1008;0.0297;
704476000314662;-0.0257;0.0791;0.0116;
704476010380755;-0.0161;0.1302;0.0148;
704476020481328;-0.0662;0.0258;0.0190;
704476030581901;-0.0566;0.0386;0.0052;
704476040702787;-0.0449;0.0951;0.0403;
704476050803360;-0.0406;0.0642;0.0308;
704476060903932;-0.0289;0.0365;-0.0001;
704476071014870;-0.0332;0.0397;-0.0140;
704476081115495;-0.0193;-0.0081;0.0233;
704476091216016;-0.0225;-0.0145;-0.0001;
704476101311224;-0.0033;0.0216;-0.0332;
704476111411797;-0.0300;-0.1690;0.0254;
704476121512370;-0.0427;-0.0443;0.0329;
704476131623828;-0.0161;0.0194;0.0148;
704476141724401;-0.0097;-0.1477;0.0830;
704476151824974;-0.0204;-0.0561;0.0595;
704476161913412;-0.0119;0.0738;0.0009;
704476172013985;-0.0385;0.0663;0.0084;
704476182114557;-0.0332;0.0162;0.0382;
704476192210599;-0.0278;0.0567;0.0116;
704476202311172;-0.0289;0.0951;-0.0033;
704476212411745;-0.0385;0.0908;0.0361;
704476222512266;-0.0470;0.0908;0.0510;
704476232612839;-0.0545;0.1281;0.0638;
704476242713412;-0.1695;-0.2510;0.0862;
704476252824662;-0.1301;-0.4438;0.0563;
704476262925235;0.0988;-0.0156;-0.0140;
704476273025807;0.3033;0.3081;-0.0150;
704476283126745;0.2138;0.3688;0.0276;
704476293227318;-0.0364;0.3124;0.0936;
704476303327891;-0.0768;0.2485;0.1352;
704476313424766;-0.1141;0.2826;0.1330;
704476323525339;-0.1471;0.3188;0.1107;
704476333625964;-0.1620;0.1803;0.1266;
704476343720026;-0.1652;0.3017;0.0723;
704476353820599;-0.2238;0.8662;-0.0374;
704476363921224;-0.3612;0.1068;-0.0374;
704476374009037;-0.4230;-0.7323;-0.0065;
704476384109557;-0.4230;-0.5471;-0.0545;
704476394210182;-0.2718;-0.4545;-0.0268;
704476404327110;-0.0342;-0.5770;-0.0044;
704476414427735;0.0041;-0.6098;0.0190;
704476424528307;0.0265;-0.3096;-0.0065;
704476434622370;0.0605;-0.1178;-0.0417;
704476444722995;0.0244;-0.3703;-0.0555;
704476454823516;-0.0374;-0.3948;-0.0640;
704476464926849;-0.0385;-0.1839;-0.0854;
704476475027422;0.0329;-0.0944;-0.0949;
704476485127995;0.0286;0.0908;-0.1427;
704476495213203;-0.0406;0.2826;-0.1491;
704476505313776;-0.1035;0.2421;-0.1438;
704476515414349;-0.0800;0.2144;-0.1470;
704476525538516;-0.0268;0.2367;-0.1523;
704476535639141;-0.0321;0.0812;-0.1534;
704476545739714;-0.0491;0.0802;-0.1630;
704476555823932;-0.0885;0.0461;-0.1427;
704476565924557;-0.1674;-0.3447;-0.1363;
704476576025078;-0.0736;-0.4523;-0.1555;
704476586121276;0.2618;-0.2169;-0.1417;
704476596221849;0.7538;-0.0465;-0.0758;
704476606322422;0.7570;-0.0028;-0.0438;
704476616401953;0.2586;-0.1242;0.0872;
704476626502526;0.0668;-0.1402;0.1863;
704476636603099;0.2138;0.0620;0.1330;
704476646730807;0.2192;0.2666;0.1341;
704476656831380;-0.0715;0.3134;0.1224;
704476666931953;-0.1141;0.4849;0.0627;
704476677054974;-0.1205;0.6074;0.0126;
704476687155547;-0.2547;0.3880;0.0297;
704476697256120;-0.3517;0.0695;0.0478;
704476707325339;-0.2877;-0.0742;0.0744;
704476717425912;-0.0619;-0.0369;0.0830;
704476727526485;0.0041;-0.1061;0.0872;
704476737651589;-0.0907;-0.2371;0.1202;
704476747752162;-0.0353;-0.3021;0.1575;
704476757852735;0.0477;-0.1881;0.1234;
704476767944974;0.0754;-0.0539;0.1032;
704476778045599;-0.0204;-0.0124;0.1000;
704476788146120;-0.1237;0.0407;0.1043;
704476798252682;-0.1535;0.0365;0.1277;
704476808353255;-0.1738;0.1505;0.1224;
704476818453828;-0.1738;0.2080;0.0851;
704476828528932;-0.1929;0.0908;0.0457;
704476838629505;-0.1695;0.1356;0.0425;
704476848730078;-0.1589;0.1142;0.0201;
704476858845912;-0.1290;-0.0156;0.0137;
704476868946485;-0.1003;-0.0092;0.0095;
704476879047057;-0.0651;-0.0103;0.0233;
704476889141120;-0.0822;-0.1242;0.0276;
704476899241693;-0.0193;-0.1232;0.0521;
704476909342266;-0.0023;-0.0944;0.0659;
704476919454974;0.0169;-0.0316;0.0521;
704476929555599;-0.0108;0.0269;0.0276;
704476939656120;-0.0534;0.0375;0.0361;
704476949752891;-0.0438;0.1419;0.0148;
704476959853464;-0.0694;0.1387;0.0180;
704476969954037;-0.0885;0.0642;0.0435;
704476980061016;-0.1130;0.0386;0.0403;
704476990161589;-0.0875;-0.0422;0.0851;
704477000262162;-0.0790;-0.0475;0.0670;
704477010353724;-0.0577;-0.0316;0.0478;
704477020454349;-0.0609;0.0248;0.0329;
704477030554870;-0.0747;-0.0838;0.0915;
704477040657370;-0.0736;-0.0518;0.0542;
704477050757943;-0.0726;-0.0081;0.0340;
704477060858516;-0.1173;-0.0710;0.0744;
704477070971380;-0.1301;0.0015;0.0585;
704477081072005;-0.1301;-0.0422;0.0563;
704477091172526;-0.1301;0.0036;0.0510;
704477101269245;-0.1141;0.0876;0.0446;
704477111369818;-0.1589;0.0589;0.0158;
704477121470391;-0.1471;0.0418;0.0084;
704477131573880;-0.1344;0.0057;0.0116;
704477141674453;-0.1589;0.0226;-0.0065;
704477151775026;-0.1844;-0.1157;-0.0246;
704477161855339;-0.0758;0.0004;0.0020;
704477171955860;-0.0779;0.2921;0.0009;
704477182056432;-0.2366;0.2314;0.0521;
704477192160391;-0.3559;-0.0720;0.0606;
704477202260964;-0.2153;-0.1306;-0.0033;
704477212361537;-0.1056;-0.0081;-0.0672;
704477222475443;-0.1812;0.0068;-0.0395;
704477232576068;-0.2068;-0.0294;-0.0566;
704477242676589;-0.1269;-0.0614;-0.0822;
704477252787682;-0.1429;0.0322;-0.0928;
704477262888255;-0.1759;-0.0273;-0.0726;
704477272988828;-0.1546;-0.4065;0.0063;
704477283087943;-0.0672;-0.2308;-0.0129;
704477293188516;-0.0395;0.1409;-0.0395;
704477303289089;-0.1823;0.1068;-0.0470;
704477313379557;-0.2079;-0.0646;-0.0566;
704477323480130;-0.1194;-0.0124;-0.0971;
704477333580755;-0.1322;0.1036;-0.1459;
704477343680807;-0.1567;0.0695;-0.1513;
704477353781380;-0.1418;-0.0049;-0.1120;
704477363881953;-0.1333;-0.0433;-0.0843;
704477373980339;-0.1045;-0.1146;-0.0736;
704477384080912;-0.0694;-0.1072;-0.0928;
704477394181485;-0.0747;-0.0379;-0.1162;
704477404272526;-0.0768;0.0025;-0.1268;
704477414373099;-0.0779;0.0258;-0.1268;
704477424473672;-0.0917;0.1089;-0.1694;
704477434584089;-0.0928;0.0876;-0.1587;
704477444684662;-0.1216;0.0493;-0.1449;
704477454785287;-0.0779;0.1877;-0.1310;
704477464878203;-0.1141;0.1771;-0.1088;
704477474978828;-0.1216;0.0493;-0.1205;
704477485079401;-0.0960;0.0216;-0.1481;
704477495193672;-0.0949;0.0142;-0.1939;
704477505294245;-0.0577;-0.0326;-0.1864;
704477515394870;-0.0502;-0.0358;-0.1747;
704477525487787;-0.0587;-0.0667;-0.2003;
704477535588412;-0.0406;-0.0763;-0.1928;
704477545688932;-0.0577;-0.0561;-0.2056;
704477555769089;-0.0097;-0.1913;-0.1875;
704477565869662;0.0009;-0.2009;-0.1459;
704477575970235;-0.0055;0.0514;-0.1864;
704477586098880;-0.0332;0.0461;-0.2226;
704477596199505;0.0020;-0.0198;-0.2120;
704477606300026;0.0169;0.0471;-0.2248;
704477616386693;0.0244;0.1132;-0.2791;
704477626487318;0.0372;0.1249;-0.2887;
704477636587891;0.0329;0.0876;-0.2525;
704477646678203;0.0222;0.0567;-0.2429;
704477656778828;0.0530;0.0450;-0.2375;
704477666879349;0.0647;-0.0071;-0.2269;
704477676976745;0.0711;0.0100;-0.2418;
704477687077370;0.0786;0.0344;-0.2780;
704477697177891;0.1137;0.0079;-0.2780;
704477707273985;0.1148;-0.0177;-0.2844;
704477717374557;0.1446;-0.0550;-0.2684;
704477727475130;0.1457;-0.0656;-0.2525;
704477737610078;0.1265;-0.0337;-0.2450;
704477747710651;0.1393;-0.0518;-0.2258;
704477757811276;0.1265;-0.0859;-0.2141;
704477767908255;0.1137;-0.0987;-0.2099;
704477778008828;0.1148;-0.1168;-0.2418;
704477788109401;0.1638;0.0333;-0.2365;
704477798190078;0.1467;0.0908;-0.2130;
704477808290651;0.1478;0.0025;-0.2301;
704477818391224;0.1648;-0.0124;-0.2162;
704477828493828;0.1308;0.0674;-0.1939;
704477838594453;0.1308;0.0407;-0.1822;
704477848695026;0.1414;-0.0198;-0.1651;
704477858807526;0.1414;-0.0081;-0.1683;
704477868908151;0.1222;0.0386;-0.1854;
704477879008724;0.1489;0.0716;-0.2088;
704477889094870;0.1627;-0.0262;-0.1928;
704477899195495;0.1595;-0.0752;-0.2035;
704477909296068;0.1489;0.0961;-0.2045;
704477919396276;0.1308;0.0226;-0.1683;
704477929496849;0.1403;-0.0933;-0.1459;
704477939597422;0.1521;-0.1306;-0.1300;
704477949714193;0.1425;-0.0348;-0.1300;
704477959814818;0.1489;0.0142;-0.1246;
704477969915391;0.1659;0.0004;-0.1395;
704477980009557;0.1893;0.0951;-0.1502;
704477990110182;0.1904;0.0727;-0.1609;
704478000210755;0.1872;-0.0454;-0.1342;
704478010306016;0.1435;-0.0092;-0.1438;
704478020406641;0.1659;0.0333;-0.1459;
704478030507214;0.1574;-0.0273;-0.0971;
704478040615182;0.1851;-0.0103;-0.0960;
704478050715807;0.1723;0.0111;-0.0960;
704478060816380;0.1606;0.0312;-0.1332;
704478070919245;0.2288;-0.0039;-0.1152;
704478081019870;0.2170;-0.0614;-0.0843;
704478091120443;0.2447;-0.0039;-0.0736;
704478101220599;0.2170;0.1494;-0.0800;
704478111321224;0.2426;0.1409;-0.0864;
704478121421797;0.2969;0.0908;-0.0662;
704478131532787;0.2405;0.1047;-0.0651;
704478141633412;0.2043;0.0439;-0.0481;
704478151733985;0.2032;0.0079;-0.0385;
704478161827162;0.1915;0.0068;-0.0928;
704478171927787;0.2383;-0.0060;-0.0768;
704478182028360;0.2032;0.0652;-0.0768;
704478192116745;0.2469;-0.0369;-0.0502;
704478202217370;0.2426;-0.0891;-0.0704;
704478212317943;0.2405;-0.1477;-0.0140;
704478222420182;0.1936;-0.1913;0.0052;
704478232520807;0.2320;-0.0880;0.0063;
704478242621380;0.2149;0.1387;0.0265;
704478252734037;0.2810;0.2027;0.0126;
704478262834662;0.3608;0.2165;0.0052;
704478272935235;0.3545;0.2911;-0.0044;
704478283023360;0.2586;0.1590;-0.0129;
704478293123985;0.2501;0.0684;-0.0055;
704478303224557;0.2138;0.1025;-0.0087;
704478313332474;0.1915;0.0482;-0.0193;
704478323433099;0.2288;-0.0443;-0.0374;
704478333533672;0.2522;-0.0912;0.0361;
704478343629766;0.2170;-0.2446;0.0712;
704478353730391;0.2714;-0.0273;0.0276;
704478363830964;0.3246;-0.1967;0.1011;
704478373928151;0.3140;-0.3458;0.1565;
704478384028724;0.1989;-0.0710;0.1543;
704478394129297;0.1222;0.1899;0.1266;
704478404227682;0.2767;0.2559;0.1064;
704478414328307;0.2916;0.0301;0.1266;
704478424428880;0.2586;0.0855;0.1021;
704478434529453;0.1925;0.2751;0.1032;
704478444630026;0.2234;0.0674;0.1298;
704478454730599;0.2181;0.0333;0.1330;
704478464823776;0.1776;0.0663;0.1192;
704478474924297;0.1553;-0.1264;0.1288;
704478485024870;0.1308;-0.0454;0.1575;
704478495121537;0.0913;0.0333;0.1905;
704478505222110;0.1521;-0.1061;0.2001;
704478515322682;0.1467;-0.0614;0.1724;
704478525448203;0.1009;0.0471;0.2140;
704478535548776;0.1105;0.0004;0.1831;
704478545649297;0.1915;0.0025;0.1650;
704478555724401;0.1478;-0.0007;0.1863;
704478565824922;0.1329;0.0450;0.1820;
704478575925495;0.1148;0.1462;0.1820;
704478586056901;0.1393;0.1196;0.1916;
704478596157422;0.1531;-0.0784;0.2140;
704478606257995;0.1116;0.0015;0.2193;
704478616336589;0.0020;0.0951;0.2289;
704478626437162;0.0457;0.0887;0.2300;
704478636537735;0.1126;0.0599;0.1884;
704478646675391;0.0679;0.0674;0.1820;
704478656775964;0.0105;0.1004;0.1586;
704478666876485;0.0530;0.0589;0.1639;
704478676958099;0.0487;0.0111;0.1330;
704478687058672;0.0457;0.0047;0.1628;
704478697159245;0.0308;-0.0422;0.1788;
704478707231745;0.0361;-0.0134;0.1618;
704478717332318;0.0414;-0.0358;0.1554;
704478727432839;0.0764;-0.1349;0.1533;
704478737560599;0.0509;-0.0838;0.1479;
704478747661224;0.0244;0.0237;0.1522;
704478757761745;0.0457;-0.0454;0.1373;
704478767843724;0.0340;-0.2009;0.1149;
704478777944349;0.0073;-0.1210;0.0968;
704478788044870;-0.0332;-0.0497;0.1277;
704478798154870;-0.0161;0.0269;0.1298;
704478808255443;0.0818;0.1313;0.1256;
704478818356016;0.0573;0.1185;0.1341;
704478828442422;0.0286;0.1228;0.1043;
704478838542995;0.0308;0.1419;0.1032;
704478848643516;0.0148;0.1483;0.0925;
704478858759974;-0.0001;0.1025;0.0862;
704478868860547;-0.0491;0.2485;0.0606;
704478878961120;-0.0715;0.1718;0.0446;
704478889061641;0.0190;-0.2105;0.0819;
704478899162214;0.0626;-0.2052;0.0840;
704478909262787;0.0457;-0.0742;0.0989;
704478919365287;0.0233;-0.0816;0.1149;
704478929465860;0.0711;-0.1296;0.1511;
704478939566432;0.0732;-0.0859;0.1277;
704478949662162;0.0839;0.0047;0.1234;
704478959762735;-0.0150;-0.1264;0.1128;
704478969863307;0.0009;-0.0103;0.0925;
704478979978932;0.0425;0.2570;0.1213;
704478990079505;0.0222;0.2911;0.1362;
704479000180078;0.0318;0.2186;0.1256;
704479010278932;0.0169;0.1196;0.1224;
704479020379505;-0.0246;0.0258;0.0947;
704479030480078;-0.0161;0.0610;0.1000;
704479040575339;-0.0193;0.1057;0.0872;
704479050675912;-0.0300;-0.0571;0.1107;
704479060776432;-0.0033;-0.0923;0.1266;
704479070873307;-0.0140;-0.0145;0.0819;
704479080973932;0.0466;-0.3373;0.1479;
704479091074453;0.0722;-0.2776;0.1799;
704479101177526;0.0382;0.0237;0.1362;
704479111278099;0.0350;0.0716;0.1469;
704479121378672;0.0201;-0.0539;0.1884;
704479131481693;0.0073;-0.0284;0.1128;
704479141582318;0.0265;0.1132;0.0617;
704479151682839;-0.0332;0.1835;0.0947;
704479161769557;-0.0257;0.1686;0.1160;
704479171870130;-0.0044;0.1228;0.1224;
704479181970703;-0.0065;0.0951;0.1277;
704479192073932;-0.0119;-0.0369;0.1373;
704479202174505;-0.0246;-0.0795;0.1597;
704479212275078;-0.0395;-0.1509;0.1341;
704479222376120;-0.0119;-0.1274;0.1288;
704479232476693;-0.0385;0.0269;0.1096;
704479242577266;-0.0427;-0.0241;0.1213;
704479252673516;-0.0204;-0.0997;0.1650;
704479262774089;-0.0268;-0.0955;0.1682;
704479272874662;-0.0204;-0.0337;0.1756;
704479282984766;-0.0502;0.0280;0.1618;
704479293085339;-0.0513;0.0919;0.1575;
704479303185912;-0.0491;0.1185;0.1490;
704479313289453;-0.0395;0.1164;0.1479;
704479323390026;-0.0587;0.1963;0.1117;
704479333490599;-0.0800;0.0567;0.1213;
704479343586172;-0.1035;-0.1115;0.1554;
704479353686745;-0.0768;-0.1136;0.1628;
704479363787318;-0.0854;-0.0273;0.1405;
704479373874922;-0.0864;-0.0688;0.1746;
704479383975495;-0.0885;-0.1178;0.1959;
704479394076016;-0.0651;-0.0593;0.1724;
704479404185287;-0.0928;-0.0156;0.1192;
704479414285860;-0.0843;0.0004;0.1394;
