Sensor: bmi160 Accelerometer Non-wakeup
Vendor: BOSCH
TimestampAcc [ns]; AccX [m/s^2]; AccY [m/s^2]; AccZ [m/s^2]
687405700748242;-9.5052;1.5176;-1.7791;
687405710852356;-9.4980;1.5153;-1.8344;
687405720872200;-9.5243;1.5296;-1.8631;
687405731042669;-9.5124;1.4985;-1.8679;
687405741062513;-9.4956;1.5296;-1.9253;
687405751256367;-9.5052;1.5081;-1.8894;
687405761276211;-9.4884;1.4889;-1.8559;
687405771473502;-9.5124;1.5224;-1.8511;
687405781568711;-9.5028;1.5395;-1.8392;
687405791687565;-9.4789;1.5491;-1.8033;
687405801799127;-9.5100;1.5993;-1.8320;
687405811886159;-9.5076;1.6089;-1.8703;
687405821991575;-9.4908;1.6161;-1.9086;
687405832108659;-9.4741;1.6017;-1.9373;
687405842217409;-9.4549;1.6041;-2.0692;
687405852319127;-9.3999;1.5897;-2.0474;
687405862420221;-9.4382;1.5368;-1.9684;
687405872534804;-9.4837;1.5224;-1.9564;
687405882639700;-9.4956;1.5610;-1.8799;
687405892745221;-9.5219;1.5562;-1.8823;
687405902858502;-9.5028;1.5730;-1.9516;
687405912956784;-9.4430;1.6089;-1.9564;
687405923065586;-9.4358;1.6448;-2.0139;
687405933163659;-9.4382;1.7429;-2.0716;
687405943278502;-9.4238;1.7740;-2.0812;
687405953382929;-9.4167;1.8102;-2.0979;
687405963494909;-9.4310;1.8293;-2.1099;
687405973619752;-9.3927;1.7142;-2.0836;
687405983719804;-9.3688;1.5993;-2.1625;
687405993801106;-9.3736;1.5224;-2.1386;
687406003937617;-9.4238;1.5033;-2.1553;
687406014057044;-9.4597;1.4818;-2.1410;
687406024143867;-9.4358;1.4865;-2.1482;
687406034252200;-9.4597;1.5706;-2.2391;
687406044359284;-9.4645;1.6567;-2.4619;
687406054476731;-9.4190;1.6950;-2.5337;
687406064561002;-9.3640;1.6496;-2.5839;
687406074695273;-9.3592;1.4865;-2.6943;
687406084786419;-9.3425;1.1800;-2.5672;
687406094884596;-9.3257;0.9643;-2.3495;
687406104990013;-9.3329;1.0244;-2.4212;
687406115103711;-9.3401;1.0699;-2.4284;
687406125227409;-9.3784;1.0866;-2.3590;
687406135317929;-9.4597;1.1082;-2.4428;
687406145425117;-9.4717;1.1369;-2.4715;
687406155538867;-9.3975;1.1728;-2.3949;
687406165644388;-9.3616;1.2350;-2.3997;
687406175748450;-9.3760;1.3119;-2.4500;
687406185854596;-9.4549;1.3836;-2.3614;
687406195967825;-9.5004;1.4698;-2.2343;
687406206070846;-9.4789;1.5272;-2.1386;
687406216180325;-9.4525;1.6041;-2.2104;
687406226273659;-9.5797;1.6974;-2.3925;
687406236391836;-9.5291;1.7142;-2.5146;
687406246497409;-9.3114;1.7501;-2.5696;
687406256602617;-9.1460;1.7907;-2.5457;
687406266712513;-9.1101;1.7836;-2.3566;
687406276819075;-9.1699;1.8003;-2.0692;
687406286927669;-9.2536;1.9681;-1.9086;
687406297033346;-9.3999;2.1120;-1.8583;
687406307141471;-9.5940;2.2436;-2.1577;
687406317249179;-9.8097;2.2699;-2.5193;
687406327361784;-9.7208;2.1383;-2.2845;
687406337467825;-9.2536;1.9705;-1.8918;
687406347577200;-9.0072;1.7166;-1.6451;
687406357679492;-9.2489;1.6280;-1.6977;
687406367791784;-9.3377;1.6184;-1.7886;
687406377898659;-9.2058;1.6065;-1.9397;
687406388019388;-9.3903;1.8628;-2.7876;
687406398110169;-9.7854;2.0566;-3.5566;
687406408224284;-9.8145;1.8150;-3.0200;
687406418327929;-9.4502;1.2903;-1.9636;
687406428443086;-9.5390;1.2374;-2.0402;
687406438537617;-9.2536;1.2975;-2.2463;
687406448651263;-8.3650;1.0026;-1.6211;
687406458756159;-8.0632;0.7729;-1.7934;
687406468870950;-8.7509;1.1082;-3.5255;
687406478981263;-9.6897;1.4195;-4.5030;
687406489083919;-10.1785;0.9404;-3.2668;
687406499186888;-10.0780;0.2818;-1.6546;
687406509268294;-10.1689;0.3488;-1.4677;
687406519398867;-9.9796;0.9069;-1.9205;
687406529510534;-9.0263;1.1632;-1.8535;
687406539615429;-8.3124;0.9476;-1.4725;
687406549719596;-8.5926;1.8413;-2.8546;
687406559822669;-8.6716;2.6004;-3.9999;
687406569935013;-8.6501;2.4066;-3.2333;
687406580061002;-9.3066;2.7826;-3.7244;
687406590156784;-10.4611;3.3479;-4.8359;
687406600258763;-9.8312;2.9575;-3.7579;
687406610361836;-8.9614;1.6567;-1.8846;
687406620471679;-9.3209;1.3143;-1.6259;
687406630582200;-9.4693;2.1120;-3.3960;
687406640690117;-8.3650;4.1240;-7.2506;
687406650792513;-7.1937;1.4554;-2.6082;
687406660916159;-9.3425;0.6649;-0.6437;
687406671007513;-10.7773;2.1742;-4.6107;
687406681110846;-9.3497;1.0627;-1.4653;
687406691216679;-8.7051;2.0809;-2.4500;
687406701323138;-10.3965;2.6821;-4.3400;
687406711431679;-9.7137;1.6735;-2.3782;
687406721537929;-8.6261;2.4832;-2.8475;
687406731643138;-7.9962;2.7658;-2.9554;
687406741753763;-7.6176;2.7179;-2.4715;
687406751870742;-9.7137;2.9408;-3.7460;
687406761977825;-10.7103;2.8256;-3.3864;
687406772084075;-9.6299;2.9599;-2.3710;
687406782187617;-8.9758;3.4558;-3.4418;
687406792296575;-8.3530;3.1011;-2.8499;
687406802408138;-7.6753;2.9264;-1.1994;
687406812509492;-8.1709;3.0245;-0.6413;
687406822630221;-9.2154;3.6042;-2.3853;
687406832703034;-10.7510;3.4965;-5.4562;
687406842792825;-11.8959;2.9551;-6.9870;
687406852882565;-9.8192;2.2196;-4.4166;
687406863036836;-6.8270;1.9442;-0.5192;
687406873126679;-6.8175;3.3431;-0.2916;
687406883216419;-8.7867;3.3048;-0.8067;
687406893366106;-9.3784;2.8472;-0.8115;
687406903455846;-10.4994;3.0102;-2.5313;
687406913545690;-10.4324;3.1588;-4.5939;
687406923665429;-9.7161;3.3215;-5.6169;
687406933755273;-9.3090;2.3249;-3.7747;
687406943845013;-8.5304;1.7979;-0.8234;
687406953980065;-7.5027;3.4077;-1.2930;
687406964069856;-8.2765;3.3981;-2.2869;
687406974159648;-9.6538;2.8017;-2.9172;
687406984349440;-10.7270;2.6677;-3.4250;
687406994439231;-10.4157;2.8113;-2.7972;
687407004529023;-8.1350;2.9934;-1.5589;
687407014631106;-7.7925;3.3574;-2.3180;
687407024720898;-9.9269;3.2067;-2.8427;
687407034810690;-9.9556;2.9169;-2.3133;
687407044989856;-8.8179;3.2378;-2.9841;
687407055079648;-8.8011;3.2569;-4.1459;
687407065169440;-8.1661;2.9623;-3.2788;
687407075290013;-8.9112;2.6270;-1.9660;
687407085379700;-9.3401;2.4736;-1.4390;
687407095469492;-9.7878;3.2521;-2.4954;
687407105612044;-9.9652;3.5204;-3.2094;
687407115701836;-9.4358;2.8208;-3.2022;
687407125791627;-9.3066;2.6486;-3.5016;
687407135933450;-9.0838;2.1096;-3.3410;
687407146023242;-8.9806;2.3201;-2.8908;
687407156113034;-8.2167;2.3659;-2.0426;
687407166261784;-8.5974;2.5310;-2.0306;
687407176351575;-8.5974;2.2603;-2.3204;
687407186441367;-9.6323;2.1670;-2.7111;
687407196580013;-9.9796;2.0542;-2.5959;
687407206669804;-6.8967;2.7275;-3.0751;
687407216759596;-7.7782;3.1035;-4.7593;
687407226884596;-8.2286;2.8567;-5.3725;
687407236974388;-9.8599;3.1394;-5.2717;
687407247064179;-10.2981;2.3468;-3.4705;
687407257254023;-8.6692;1.8580;-3.1325;
687407267343815;-10.0947;0.7175;-3.8177;
687407277433606;-8.2884;-0.8154;-0.5743;
687407287543346;-6.1134;-0.8177;0.7911;
687407297633138;-6.8656;0.4038;-2.5986;
687407307722929;-8.9423;0.8399;-4.2203;
687407317882565;-10.1426;-0.1280;-3.1400;
687407327972356;-9.0598;-0.6933;-2.0234;
687407338062148;-7.7064;0.2889;-2.6752;
687407348199804;-10.1067;0.4735;-4.8335;
687407358289596;-13.8197;-0.2189;-4.1770;
687407368379388;-11.1727;-1.6513;-1.1133;
687407378513867;-9.2707;-1.2227;-3.9401;
687407388603659;-10.0681;-1.1677;-5.6240;
687407398693502;-12.3775;-0.9664;-3.5112;
687407408834492;-9.2584;-0.4920;-0.6485;
687407418924284;-4.4725;0.7681;-2.8092;
687407429014075;-6.4319;0.3535;-5.5065;
687407439156679;-13.6974;0.7968;-5.0635;
687407449246471;-13.5153;2.0255;-2.3614;
687407459336263;-7.2512;2.4473;-2.9937;
687407469479909;-9.5988;2.7036;-3.8297;
687407479569700;-9.9772;2.0447;-1.5203;
687407489659492;-9.8456;-0.0009;-2.7350;
687407499811054;-10.2024;0.5094;-1.6905;
687407509900794;-7.5075;0.6888;-0.7178;
687407519990638;-9.4454;0.7537;-3.2381;
687407530118346;-10.9403;0.9428;-2.3037;
687407540208138;-7.3110;1.0914;-0.9215;
687407550297929;-8.1302;1.2709;-3.3458;
687407560445013;-10.7773;0.9308;-3.7412;
687407570534804;-10.8156;0.3272;-2.4954;
687407580624596;-9.1938;0.2722;-1.2619;
687407590771159;-7.2416;0.5357;-2.2798;
687407600861002;-9.2608;0.1738;-3.7388;
687407610950742;-10.4372;0.0159;-3.0057;
687407621097825;-9.5243;0.3057;-1.9373;
687407631187617;-6.8533;-0.2620;-2.6512;
687407641277409;-8.6859;-0.7531;-5.7748;
687407651401263;-12.0900;-1.0645;-4.0071;
687407661491054;-9.7902;-0.8201;-2.9124;
687407671580846;-7.8332;-0.9162;-3.1711;
687407681727096;-8.7461;-1.5700;-3.8154;
687407691816888;-8.6285;-0.9736;-4.4094;
687407701906679;-9.7543;-1.0119;-3.6212;
687407712046159;-9.0096;-1.3161;-3.1253;
687407722135950;-8.7987;-0.9377;-4.0190;
687407732225742;-9.8958;-0.3194;-4.3017;
687407742362409;-9.4597;-0.6598;-3.2046;
687407752452200;-8.4105;-0.9090;-3.7484;
687407762541992;-9.1460;-0.6670;-3.6547;
687407772692096;-9.5725;-0.6383;-3.1110;
687407782781940;-7.6104;-0.9808;-2.9243;
687407792871679;-9.0359;-0.6790;-4.0932;
687407802997981;-9.8671;0.0972;-4.6561;
687407813087825;-9.1029;-0.5542;-4.1483;
687407823177617;-9.2898;-0.4801;-3.0224;
687407833347304;-7.6558;0.1953;-3.2142;
687407843437044;-7.0977;0.1953;-4.1554;
687407853526888;-9.6849;-0.3389;-5.7532;
687407863694804;-11.0527;0.1857;-4.5030;
687407873784544;-7.0929;-0.5973;-3.6619;
687407883874336;-9.1651;-0.6814;-5.3605;
687407893971211;-10.7055;-0.5710;-3.9616;
687407904061002;-8.5950;-0.5734;-4.0956;
687407914150794;-7.2775;-1.3352;-4.4189;
687407924324596;-8.6118;-0.0057;-5.8011;
687407934414388;-13.1656;-0.5566;-5.8373;
687407944504179;-9.3114;0.1666;-3.1831;
687407954608346;-5.0521;0.9476;-3.8943;
687407964698138;-10.8180;0.0182;-6.4074;
687407974787929;-11.0982;-0.8850;-3.2429;
687407984936627;-8.0560;-1.3950;-2.1960;
687407995026419;-9.9102;-1.6732;-3.8991;
687408005116211;-10.1402;-1.0454;-3.4394;
687408015272773;-7.9508;-0.6455;-2.4452;
687408025362565;-7.6104;-0.7986;-3.9520;
687408035452356;-8.5376;-0.3242;-4.3280;
687408045603086;-9.5124;-0.1328;-3.9664;
687408055692877;-9.7735;2.1359;-4.0214;
687408065782669;-10.2646;2.4377;-2.4882;
687408075928815;-8.8585;3.7624;-2.9243;
687408086018554;-7.6633;3.9637;-4.0167;
687408096108294;-8.6716;3.2139;-5.2840;
687408106198086;-10.6911;1.6328;-5.3246;
687408116332409;-11.3785;0.0996;-3.9664;
687408126422200;-9.1412;0.2483;-3.7053;
687408136511992;-5.6127;0.7295;-3.5901;
687408146650742;-6.4056;0.7152;-4.8455;
687408156740534;-9.1340;1.3238;-5.8493;
687408166830325;-9.0144;0.9619;-4.0238;
687408176976888;-7.8476;0.7633;-3.1687;
687408187066679;-9.3114;0.9045;-4.6609;
687408197156471;-8.5017;0.4759;-3.2524;
687408207302252;-8.1374;0.6123;-3.1974;
687408217392044;-7.0379;1.1728;-6.0311;
687408227481836;-10.6983;1.3860;-6.9105;
687408237627096;-10.0971;0.4421;-2.3758;
687408247716888;-6.4271;-0.1687;-1.9014;
687408257806679;-8.2502;0.2889;-6.3667;
687408267954700;-9.7831;-0.1711;-6.7570;
687408278044492;-8.1326;-1.0334;-3.9975;
687408288134284;-6.0102;-0.8321;-3.7077;
687408298269700;-10.3654;0.0039;-7.2817;
687408308359492;-15.0724;-0.0488;-4.3137;
687408318449284;-9.3042;-1.7043;2.5926;
687408328578034;-9.3377;-1.1100;0.6018;
687408338667825;-13.8820;-0.6024;-4.0621;
687408348757617;-5.4114;-1.0980;-2.9913;
687408358915534;-0.3951;-0.1472;-7.9211;
687408369005325;-8.4583;1.3717;-10.7934;
687408379095117;-12.7585;-1.0023;-4.3472;
687408389258971;-8.4129;-4.9837;1.2153;
687408399348763;-9.2225;-5.3189;-0.5575;
687408409438554;-8.8442;-1.3543;-4.1291;
687408419560950;-10.6768;-2.7894;-3.8249;
687408429650742;-12.3942;-1.5724;-2.0186;
687408439740534;-10.5042;-1.3304;-1.0726;
687408449895846;-10.0681;-0.2955;-2.5935;
687408459985638;-9.3209;-1.2706;0.2067;
687408470075429;-9.3760;-0.7627;-1.5852;
687408480200586;-10.5592;-2.2792;-2.9363;
687408490290377;-8.8537;-1.6756;-3.2764;
687408500380169;-9.0766;-2.0779;-4.1865;
687408510501784;-8.0058;-1.6226;-3.4872;
687408520591575;-8.6309;-1.2682;-6.4887;
687408530681367;-9.5342;-1.5532;-5.5929;
687408540841263;-9.7304;-1.8168;-2.8403;
687408550944909;-10.4133;-2.2672;-1.0798;
687408561048554;-6.9709;-0.7986;-1.6834;
687408571165534;-9.1962;-0.5566;-4.8479;
687408581269179;-9.5438;-1.4743;-3.4011;
687408591372825;-6.9996;-0.4298;-1.5422;
687408601494388;-7.4596;0.0996;-5.5953;
687408611598034;-10.8634;-0.0897;-7.1501;
687408621701679;-6.0942;-0.6670;-4.3400;
687408631816471;-9.5291;0.9284;-7.9621;
687408641920117;-12.8542;0.2363;-2.0668;
687408652023763;-6.4032;0.7872;3.4669;
687408662124804;-11.2612;1.5873;-8.4987;
687408672228450;-8.3530;0.3511;-4.9340;
687408682332096;-3.1358;0.7585;1.6920;
687408692447825;-9.8839;0.6458;-5.8588;
687408702551471;-11.3856;1.3214;-11.9650;
687408712655117;-10.9618;1.5921;-9.8088;
687408722773659;-10.3220;2.4568;-3.8895;
687408732877356;-9.7328;1.2350;2.1805;
687408742980950;-10.5568;-0.2261;-0.1669;
687408753089909;-11.0456;-0.7460;-3.1158;
687408763193606;-7.0235;-0.5710;-2.7613;
687408773297200;-9.6945;-0.8946;-4.9866;
687408783414752;-9.8360;-1.5843;-3.3075;
687408793518398;-7.0618;-0.7220;-2.3327;
687408803621992;-6.5755;-1.5365;-5.0755;
687408813734179;-8.5184;-0.7627;-8.4745;
687408823837825;-9.8049;-1.8479;-6.3329;
687408833941471;-9.4071;-2.0396;0.2378;
687408844062461;-10.1378;-1.5891;-0.6461;
687408854166159;-10.3316;-0.4202;-1.1707;
687408864269804;-8.2047;0.8231;-4.3328;
687408874367513;-10.4085;-0.9592;-3.1878;
687408884471159;-7.5218;-1.5341;-1.4127;
687408894574804;-8.5304;-0.0993;-5.3533;
687408904742721;-8.9949;-0.2022;-6.9990;
687408914846367;-10.6983;-0.8010;-4.1172;
687408924950013;-10.7366;0.6218;-1.0654;
687408935039179;-8.2932;-0.1304;-0.4065;
687408945142825;-7.6582;-0.2596;-3.0727;
687408955246471;-12.9141;-0.5925;-7.3965;
687408965343971;-9.7113;0.6577;-3.0799;
687408975447617;-5.7924;2.1598;-1.7049;
687408985551263;-11.5152;0.0613;-5.6264;
687408995667825;-14.4449;0.0733;-5.0228;
687409005771523;-7.1121;0.8806;0.3072;
687409015875117;-6.7720;0.9332;-1.8535;
687409025971627;-10.1737;0.1618;-6.0912;
687409036075221;-9.4597;0.8806;-2.1553;
687409046178867;-12.1116;0.4086;0.0942;
687409056308659;-8.9399;-0.0945;-0.2533;
687409066412304;-8.4559;0.7370;-2.2463;
687409076515950;-7.0140;-0.0368;-4.2299;
687409086640846;-9.1460;-0.8465;-7.2410;
687409096744492;-11.4242;-0.9281;-4.0167;
687409106848138;-8.3435;-0.2189;-2.6895;
687409116952773;-8.4105;1.3956;-3.2309;
687409127056419;-8.7051;0.0829;-2.1769;
687409137160065;-9.9006;-1.4169;-3.3218;
687409147290429;-11.5295;-2.2768;-3.0918;
687409157394075;-10.5808;-2.1712;-2.5313;
687409167497721;-5.8618;-1.9149;-2.4117;
687409177589909;-9.7065;-1.4910;-5.8277;
687409187693554;-9.5510;-2.8301;-3.7603;
687409197797200;-5.4688;-0.8177;-3.5112;
687409207921471;-12.8566;-1.6995;-6.0168;
687409218025169;-10.9546;-1.2036;-4.5700;
687409228128763;-8.6740;0.9739;-0.1693;
687409238238867;-9.5172;-1.4743;-1.5108;
687409248342513;-10.0107;-1.0693;-4.5532;
687409258446159;-7.7806;-0.1519;-4.3926;
687409268562617;-7.2607;-0.5375;-6.3114;
687409278666263;-10.5544;0.1092;-8.5513;
687409288769909;-9.9939;-0.2142;-4.0621;
687409298889388;-10.6193;-0.4418;-0.9239;
687409308993086;-10.2718;-0.7436;-1.2114;
687409319096679;-9.0503;-0.1256;-5.0946;
687409329208971;-9.5052;0.1403;-2.9339;
687409339312617;-8.1039;-0.0440;0.3191;
687409349416263;-7.9723;-0.4705;-4.5628;
687409359535534;-9.1364;-0.9162;-10.5538;
687409369639179;-13.7405;0.3751;-6.8073;
687409379742825;-8.8992;1.7668;1.6582;
687409389855690;-7.4094;1.5562;0.6619;
687409399959336;-6.2378;0.1475;-3.6838;
687409410062981;-10.5664;-0.6168;-7.5882;
687409420179492;-11.5463;0.0565;-1.8799;
687409430283138;-7.7495;0.5261;2.0177;
687409440386784;-3.4328;0.0494;-4.0573;
687409450502617;-9.7065;-1.6923;-10.3696;
687409460606263;-12.9236;-0.9855;-5.9354;
687409470709909;-9.5557;0.9739;0.8605;
687409480821471;-7.2057;0.6577;-1.4198;
687409490925117;-11.6731;-0.5662;-4.1435;
687409501028763;-10.5520;-0.8731;0.0652;
687409511140950;-5.5167;0.3870;-1.1468;
687409521244596;-8.7939;-1.5532;-8.4075;
687409531348242;-10.5855;-2.2023;-8.9178;
687409541465065;-11.3880;-0.0392;-4.6753;
687409551571679;-7.6968;-0.4561;0.4845;
687409561678242;-4.1034;-0.0320;-3.5686;
687409571777252;-10.9164;-1.1195;-7.3941;
687409581883867;-16.1719;-1.7617;-0.4184;
687409591990429;-13.2015;0.0182;5.3210;
687409602104752;-7.9460;-0.8922;2.1948;
687409612211367;-4.4701;-2.2648;-7.3223;
687409622317929;-10.3292;-0.9616;-8.5250;
687409632412669;-8.3339;-0.8130;-1.5829;
687409642519284;-7.5027;-0.3652;-1.0080;
687409652625846;-9.2707;0.3416;-6.8842;
687409662810586;-10.7222;0.2674;-6.1343;
687409672917200;-7.6391;0.6458;-2.3901;
687409683023763;-6.2952;-0.1448;-4.3831;
687409693060586;-9.8145;-0.0272;-7.2960;
687409703167200;-9.1890;0.2961;-4.5197;
687409713273763;-8.6357;0.4998;-2.7876;
687409723387044;-10.0131;0.8662;-2.0521;
687409733493659;-6.8967;-0.5925;0.5635;
687409743600221;-8.5304;-1.9487;-1.5589;
687409753711106;-11.9222;-0.7579;0.5707;
687409763817721;-3.6410;-0.7005;1.6968;
687409773924284;-4.3430;-1.2012;-16.9379;
687409784021002;-18.3206;2.8065;-23.7051;
687409794127617;-16.7276;4.2727;6.9763;
687409804234179;-6.2354;2.7084;15.1164;
687409814354336;-0.5055;0.5070;-2.5193;
687409824460950;-8.2837;-2.0252;-12.6476;
687409834567513;-13.9944;-3.2061;-4.4477;
687409844700377;-10.3558;-2.6432;5.6085;
687409854806992;-8.7003;-1.2849;-2.1170;
687409864913554;-9.0957;-2.2935;-7.2362;
687409875015065;-7.8595;-1.4862;-2.7805;
687409885121679;-8.4682;-0.1472;-2.5002;
687409895228242;-11.4817;-1.4838;-4.4166;
687409905320898;-11.2756;-1.2371;-1.4246;
687409915427513;-6.8824;-0.9257;-1.0128;
687409925534075;-7.2870;-1.0932;-4.5604;
687409935632513;-9.4454;-1.3735;-5.4012;
687409945739127;-8.5137;-0.4346;-4.1961;
687409955845690;-9.9820;-0.4346;-3.8058;
687409965950586;-9.1555;-1.1892;-3.1424;
687409976057200;-9.1173;-0.9999;-6.4696;
687409986163763;-10.1115;-0.7675;-3.8991;
687409996291211;-8.8848;-1.2634;3.7591;
687410006397825;-10.9522;-0.6981;-1.9062;
687410016504388;-12.0733;-0.5279;-6.7451;
687410026598971;-7.7351;-0.6287;-1.3576;
687410036705586;-5.3707;-0.5590;0.2426;
687410046812148;-9.6180;-0.1735;-6.2444;
687410056948294;-12.1331;0.8279;-7.1596;
687410067054909;-9.9748;0.7394;-1.2595;
687410077161471;-7.3301;0.8279;-1.7216;
687410087236940;-10.6457;1.0316;-5.3318;
687410097343554;-11.2110;0.0805;-1.1970;
687410107450117;-6.6619;-0.4561;-0.3514;
687410117581002;-11.3402;-1.3639;-2.4715;
687410127687617;-7.8667;-1.0980;-2.0788;
687410137794179;-10.6552;0.0182;-6.9846;
687410147900794;-12.3009;-0.8369;-2.8187;
687410158007409;-8.7075;-1.4671;2.0512;
687410168113971;-5.5935;-1.0334;-3.0894;
687410178228971;-11.2636;-0.4394;-8.7838;
687410188335586;-14.0351;-0.2453;-3.3745;
687410198442148;-9.0191;-1.5269;1.6582;
687410208537981;-4.4844;-1.3878;-2.0019;
687410218644596;-7.8428;-2.6671;-4.2802;
687410228751159;-11.4745;-0.8201;-5.5666;
687410238856315;-10.9211;-0.3508;-4.2009;
687410248962929;-9.0431;-1.7880;-3.7890;
687410259069492;-10.6146;-1.7019;-3.0344;
687410269194231;-8.3889;-1.3974;-1.6642;
687410279300846;-9.9341;-2.0827;-3.4178;
687410289407409;-11.0695;-1.2179;-3.2070;
687410299506315;-8.2860;-0.6742;-2.4452;
687410309612929;-9.5725;-0.3266;-6.1176;
687410319719492;-12.3727;-0.2524;-4.5532;
687410329826523;-10.3316;1.0914;0.2282;
687410339933138;-6.4056;1.1489;-3.4920;
687410350039700;-8.9255;1.2230;-6.2683;
687410360156106;-11.8361;0.7080;-4.2610;
687410370262721;-9.8886;3.3096;-1.8990;
687410380369284;-5.9169;3.2234;-4.0549;
687410390475898;-8.0465;0.9021;-6.3547;
687410400582513;-10.5138;1.2206;-3.6212;
687410410689075;-7.2200;1.3813;-4.3184;
687410420801315;-9.2417;0.4612;-5.8516;
687410430907929;-11.9800;0.3894;-5.2119;
687410441014492;-11.2158;-0.2859;-1.0534;
687410451120481;-6.9111;-1.0382;0.9063;
687410461227096;-6.6595;-1.7761;-2.0883;
687410471333659;-13.2135;-2.3007;-5.1425;
687410481444648;-10.7342;-1.8885;-3.5255;
687410491551263;-4.3860;0.0422;-2.3109;
687410501657825;-5.3755;0.0350;-7.4806;
687410511768190;-2.0913;0.1475;-7.9451;
687410521874804;-1.2434;0.3607;-8.7670;
687410531981367;-24.4101;3.0532;-8.8173;
687410542072877;-31.6684;5.0007;2.9207;
687410552179909;-6.7768;3.1226;10.9744;
687410562286940;-0.2731;1.1584;4.2646;
687410572404752;-12.0159;0.0182;-6.0120;
687410582511784;-15.3574;1.1632;-5.8516;
687410592618815;-6.6978;2.1359;-2.1170;
687410602723711;-2.2660;-0.6574;-2.0931;
687410612830742;-5.1144;-0.6072;-8.9871;
687410622937773;-11.2875;1.5419;-9.1669;
687410633030377;-9.2584;2.2771;-1.5350;
687410643137409;-6.9398;0.7825;-1.6977;
687410653244440;-6.4463;0.8303;-1.0463;
687410663365481;-1.9403;-0.2620;4.4133;
687410673472513;3.4974;-1.7043;-6.0096;
687410683579544;-10.0708;-0.0320;-28.5706;
687410693671211;-19.4659;5.5181;-13.4716;
687410703778242;-14.1550;5.4990;3.2608;
687410713885273;-10.7390;3.4941;1.5410;
687410723981627;-8.7218;1.9681;5.8146;
687410734088659;-14.3130;0.7080;5.9847;
687410744195690;-16.3421;-0.6526;8.2531;
687410754315065;-5.9288;-2.4084;7.9825;
687410764422096;-5.6103;-2.5307;-3.3147;
687410774529127;-9.6921;-3.3404;-9.1262;
687410784676002;-10.4827;-3.6565;-4.8479;
687410794783034;-13.1824;-3.4505;-0.7421;
687410804890065;-12.2243;-1.3113;0.5228;
687410814971731;-8.3315;0.0517;0.8943;
687410825078763;-8.6812;-0.3604;-2.6991;
687410835185794;-10.2383;-1.0190;-3.5949;
687410845311523;-7.0786;-1.8574;-2.8837;
687410855418554;-7.1387;-1.1773;-5.5857;
687410865525586;-9.5988;-1.6059;-6.6709;
687410875633711;-7.1145;-1.3448;-3.4131;
687410885740742;-7.5362;-2.2071;-6.1750;
687410895847773;-9.8719;-1.8957;-5.7269;
687410905939961;-7.1097;-2.3103;-1.1157;
687410916046992;-7.2846;-2.0133;-4.7136;
687410926154023;-10.1330;-1.7641;-6.7546;
687410936251471;-10.5760;-1.1629;-3.7125;
687410946358502;-11.3234;-0.5806;-4.0071;
687410956465534;-12.3153;-0.0081;-2.9626;
687410966577877;-9.6562;-0.6766;-1.9732;
687410976684909;-10.8156;-0.1256;-2.9339;
687410986791940;-13.2808;-0.2070;-1.3528;
687410996918919;-11.8887;0.1594;0.6954;
687411007025950;-11.0145;-0.1161;-0.3179;
687411017132981;-9.1699;-1.1988;-0.8258;
687411027217461;-10.4635;-0.9951;-1.4390;
687411037324492;-4.7312;-1.6155;-2.5935;
687411047431523;-5.7275;-1.3328;-5.7030;
687411057530690;-10.1426;-1.3735;-5.9833;
687411067637721;-9.7950;-0.3508;-4.1004;
687411077744752;-9.6586;1.7213;-4.1889;
687411087864231;-7.4429;0.6194;-4.0669;
687411097971263;-7.1145;-0.3461;-4.6178;
687411108078294;-10.0322;0.8686;-6.3858;
687411118206106;-12.8040;0.7418;-4.7952;
687411128313138;-13.5272;1.5730;-2.4906;
687411138420169;-10.5090;0.4588;-0.9407;
687411148515690;-7.5123;0.0900;-2.7206;
687411158622721;-9.1723;0.5859;-5.0874;
687411168729752;-11.9103;1.4722;-4.9196;
687411178836315;-10.1306;1.4363;-0.2151;
687411188943346;-7.9146;1.3597;-0.8091;
687411199050377;-7.9316;0.1092;-4.5556;
687411209151731;-7.7518;-0.2979;-4.8598;
687411219258763;-9.9987;-0.2477;-6.3954;
687411229365794;-8.8346;0.0852;-4.7160;
687411239477148;-5.6725;0.6817;-4.3256;
687411249584179;-7.9074;0.0254;-7.6505;
687411259691211;-9.5653;-0.0897;-6.6398;
687411269806419;-9.3999;0.6314;-4.4596;
687411279913450;-9.7950;0.8782;-1.8320;
687411290020481;-9.7424;2.3563;0.0556;
687411300139127;-10.3053;2.4951;0.2306;
687411310246159;-8.1398;0.4373;-0.3682;
687411320353190;-7.4859;-0.6622;-2.4428;
687411330425690;-9.8192;-0.6287;-4.4982;
687411340532721;-9.4908;1.4435;-3.3529;
687411350639752;-8.1206;1.0364;-2.6895;
687411360777304;-9.7017;0.8160;-3.5207;
687411370884336;-10.2598;1.0388;-2.2439;
687411380991367;-9.7424;0.4158;-1.3457;
687411391098919;-9.1316;0.8997;-2.2415;
687411401205950;-8.6524;0.9619;-1.0487;
687411411312981;-8.2190;1.0699;-1.5398;
687411421415690;-7.3205;0.2267;-2.5672;
687411431522721;-7.1698;0.5022;-4.4501;
687411441629752;-8.0034;0.8447;-5.1449;
687411451743086;-7.7877;0.8471;-3.6909;
687411461850117;-8.6716;0.7561;-3.6452;
687411471957148;-10.3534;0.2411;-3.3266;
687411482061106;-10.2838;0.2315;-1.2715;
687411492168138;-9.7448;-0.5351;-1.5661;
687411502275169;-11.1341;0.2985;-2.1147;
687411512381106;-10.7175;0.6482;-0.5192;
687411522488138;-11.1918;0.7992;-0.2725;
687411532580586;-10.1163;-0.0200;-0.8378;
687411542687617;-9.7615;-0.0248;-1.2329;
687411552794648;-11.7906;-0.1567;-2.2199;
687411562915169;-12.6936;-0.0392;-0.6293;
687411573022200;-11.5128;-0.1352;1.1360;
687411583129231;-10.3316;-1.2084;-0.5767;
687411593221940;-8.3889;-1.2969;-2.9937;
687411603328971;-7.3684;-1.3950;-5.5929;
687411613436002;-7.2535;-1.9510;-6.5270;
687411623554961;-8.6333;-1.9172;-5.4706;
687411633661992;-9.1819;-0.0129;-5.5666;
687411643769023;-8.7218;0.4759;-4.1148;
687411653853815;-10.1617;-0.0511;-3.5758;
687411663960846;-14.0136;-1.2179;-2.1960;
687411674067877;-2.5726;-0.8106;-3.0751;
687411684192565;-8.6716;-2.0085;-5.7987;
687411694299596;-18.3111;-0.6622;-6.8264;
687411704406627;-13.9992;0.3990;-2.2869;
687411714510794;-8.0680;0.5572;-1.0008;
687411724617825;-8.5615;0.6003;-1.6546;
687411734724856;-11.4769;0.0852;-0.0090;
687411744842356;-9.7448;-0.8345;-1.0487;
687411754949388;-6.8656;-0.1902;-1.8057;
687411765056419;-9.7831;-1.1964;-4.1530;
687411775187669;-11.2612;-0.3266;-4.9866;
687411785294700;-8.6237;-0.2381;-3.5997;
687411795401731;-7.9531;-0.7268;-3.9206;
687411805473815;-8.8107;-0.2070;-5.1760;
687411815580846;-8.6668;-0.1280;-6.2037;
687411825687877;-9.2465;0.6218;-6.8842;
687411835797877;-8.5424;1.2206;-4.1459;
687411845904909;-8.5950;1.7046;-2.2128;
687411856011940;-8.2765;0.9117;-2.0569;
687411866142148;-8.5950;0.3679;-2.7230;
687411876249179;-8.0704;-0.0897;-2.8451;
687411886356211;-2.2205;-1.0286;-3.3673;
687411896460481;0.0024;-0.5925;-8.7670;
687411906567513;-4.0316;0.0829;-11.0713;
687411916674544;-25.8930;0.4253;-5.4443;
687411926779023;-47.3184;1.9753;8.9862;
687411936886054;-3.0781;5.0079;16.5512;
687411946993086;9.0838;5.4081;6.6841;
687411957097565;-7.3636;-4.1357;-7.2194;
687411967204596;-17.6118;-5.8914;-8.7957;
687411977311627;-14.2651;0.1594;-1.9828;
687411987419961;-5.5409;1.5538;1.3181;
687411997526992;-6.5683;1.9872;-3.7484;
687412007634023;-10.0011;-1.6780;-2.3997;
687412017736419;-8.0513;-1.0023;1.7351;
687412027843450;-2.2540;-0.6431;2.7987;
687412037950481;0.8384;-4.1979;-10.9540;
687412048063554;-17.0198;-0.2405;-39.7550;
687412058170586;-23.3967;2.9432;-18.2794;
687412068277617;-0.6706;3.7792;20.1419;
687412078424961;-1.6481;3.8103;4.1426;
687412088531992;-15.4750;2.1694;-11.3324;
687412098639023;-16.9505;-2.8373;-0.7851;
687412108761211;-13.1249;-3.2372;10.6917;
687412118868242;-5.0976;-2.4562;3.6897;
687412128975273;-8.2932;-1.3448;-5.6216;
687412139030794;-12.4974;-1.4791;-5.2071;
687412149137825;-9.7208;-2.2576;1.4453;
687412159244856;-8.8657;-2.1401;-4.3113;
687412169350586;-10.0250;-0.6574;-6.0622;
687412179457617;-5.3396;-0.4394;-3.5327;
687412189564648;-9.4190;0.8638;-5.3629;
687412199669231;-9.7687;-0.9664;-2.3590;
687412209776263;-8.1374;-0.9808;-2.5504;
687412219883294;-7.4668;-0.6790;-5.8205;
687412229999023;-7.1626;-0.8755;-4.4644;
687412240106054;-8.7700;-1.1462;-2.6776;
687412250213086;-12.2818;-0.7268;-2.2008;
687412260314804;-10.8012;-1.1653;-0.2797;
687412270421836;-7.4931;-0.9832;0.0030;
687412280528867;-8.4320;-0.9784;-3.7196;
687412290633815;-12.7514;-1.5963;-4.1124;
687412300740846;-7.3181;-2.1975;0.7528;
687412310847877;-7.7566;-0.7795;-3.1301;
687412320951419;-9.1436;-1.0932;-4.7689;
687412331058450;-7.6463;-1.0956;-5.1185;
687412341165481;-6.9111;0.4926;-4.6011;
687412351278971;-1.9953;1.7692;-3.2357;
687412361386002;-15.3957;-0.3437;-2.2487;
687412371493034;-16.7468;1.0627;-1.0271;
687412381609231;-4.2975;2.6318;-0.5527;
687412391716263;-2.4218;0.2506;-2.8211;
687412401823294;-9.0215;0.3440;-4.2562;
687412411930794;-12.9069;1.4865;-3.7244;
687412422037825;-12.5788;1.3143;-0.2438;
687412432144856;-8.1876;0.8447;-1.0247;
687412442242877;-8.6788;0.9045;-2.0836;
687412452349909;-11.4123;1.3023;0.1564;
687412462456940;-11.7093;1.3789;2.0201;
687412472559544;-5.7948;0.1259;2.6716;
687412482666575;-2.6830;0.8877;-9.6532;
687412492773606;-16.0188;-0.8177;-14.0513;
687412502875586;-8.0130;0.7223;0.0006;
687412512982617;-6.7241;3.9275;0.7002;
687412523089648;-11.6587;-0.1352;-5.0468;
687412533176159;-12.5668;0.4831;-3.8656;
687412543283190;-12.8423;0.2243;-0.0808;
687412553390221;-6.1205;1.0268;0.5827;
687412563534231;-8.8202;0.3679;-2.5361;
687412573641263;-9.8934;0.7343;-5.2983;
687412583748294;-8.0225;0.6888;-5.1592;
687412593834856;-8.3387;0.6984;-4.9125;
687412603941888;-13.0531;0.0254;-2.9076;
687412614048919;-12.2578;-0.2453;-0.1597;
687412624244336;-7.9603;-1.1509;-3.0846;
687412634351367;-5.8331;-0.8465;-4.7856;
687412644458398;-8.1039;-0.5901;-4.6394;
687412654490169;-3.2746;0.5572;-6.2731;
687412664597200;-15.1804;0.2171;-5.9593;
687412674704231;-15.6616;1.2975;-0.5815;
687412684802669;-9.6347;1.9777;-1.1300;
687412694909700;-8.2597;1.4435;-0.3682;
687412705016731;-7.4477;-0.7699;2.1829;
687412715127356;-9.2850;-1.4910;-2.3830;
687412725234388;-10.2024;-2.0324;-7.4133;
687412735341419;-10.8876;-0.3724;-7.1043;
687412745448711;-11.3354;2.1311;-0.9479;
687412755555742;-8.2430;2.4903;-0.1406;
687412765662773;-7.3469;0.5524;0.2210;
687412775752148;-3.9933;-0.6670;-0.7469;
687412785859179;-10.3391;0.1642;-9.6772;
687412795966211;-11.5606;0.9332;-7.8087;
687412806114284;-8.3411;-0.0296;-1.3528;
687412816221315;-9.3927;1.0412;-3.9401;
687412826328346;-8.8585;0.1905;-3.7627;
687412836423919;-10.4731;0.1857;-0.7732;
687412846530950;-11.5391;-0.0706;0.5085;
687412856637981;-7.2655;0.2148;0.3553;
687412866747044;-9.9102;-0.2381;-2.7039;
687412876854075;-11.9079;-0.1376;-1.6857;
687412886961106;-9.9915;-0.1280;-0.9239;
687412897057356;-8.4754;-1.0932;-3.0392;
687412907164388;-9.5868;0.2913;-4.6825;
687412917271419;-9.4478;-1.1004;-0.9718;
687412927403190;-8.3530;-0.0200;-4.1148;
687412937510221;-12.2937;-0.5471;-4.7183;
687412947617252;-9.2034;0.2937;-0.5240;
687412957709544;-6.5300;-0.4370;-1.7719;
687412967816575;-5.1838;-0.1304;-4.2227;
687412977923606;-5.8834;-0.2022;-5.5666;
687412988044961;-8.8370;0.2387;-7.0684;
687412998151992;-9.8551;-0.9066;-4.5987;
687413008259023;-20.0743;-1.0143;-1.8344;
687413018352461;-21.4014;0.7442;4.0346;
687413028459492;-9.9556;0.9236;7.3669;
687413038566523;-5.6462;2.2771;1.4163;
687413048673502;-8.0369;-0.5447;-3.3840;
687413058780534;-9.6562;-2.8086;-6.1941;
687413068887565;-5.3180;-1.1267;-7.8948;
687413078993606;-7.5290;0.0685;-5.1855;
687413089100638;-8.5974;-0.5160;0.7337;
687413099207669;-7.6896;-1.1291;-1.5948;
687413109316211;-6.4199;-3.3667;-5.4586;
687413119423242;-2.2158;-1.9292;-10.1157;
687413129530273;-11.0025;-0.0296;-17.2277;
687413139645898;-17.9327;2.8376;-8.7476;
687413149752929;-7.8380;0.6482;3.8815;
687413159859961;-3.3105;1.1967;1.7255;
687413169953711;-10.3822;1.4722;-2.1625;
687413180060742;-15.7505;-0.5136;2.9925;
687413190167773;-8.7652;-2.3749;5.9486;
687413200277148;-6.5925;-2.2385;0.7863;
687413210384179;-10.7677;-2.7413;-4.2443;
687413220491211;-12.2049;-1.1028;-2.3351;
687413230600481;-13.1967;-0.0945;1.5769;
687413240707513;-8.5113;-1.0980;-0.3634;
687413250814544;-9.0287;-1.1267;-4.7569;
687413260929127;-11.4529;0.5501;-4.6513;
687413271036159;-12.5213;-0.1998;-1.1827;
687413281143190;-11.4075;-0.0849;0.5444;
687413291243398;-7.5362;-0.8994;-0.4041;
687413301350429;-2.4266;-1.6466;-3.5830;
687413311457461;-10.6074;-1.6298;-5.6575;
687413321572461;-15.7146;-0.1065;-4.7255;
687413331679492;-7.5529;-0.0416;-2.5481;
687413341786523;-4.5778;-1.2060;-4.9531;
687413351891888;-5.1574;-1.1988;-6.8384;
687413361998919;-10.6959;0.1403;-6.6900;
687413372105950;-12.8495;-0.1687;-3.2548;
687413382213711;-10.4300;0.0326;-3.2309;
687413392320742;-11.1727;-0.6455;-3.2883;
687413402427773;-14.3321;-1.0980;2.7314;
687413412529648;-12.4974;-0.3796;6.0087;
687413422636679;-6.8007;-0.0057;1.8739;
687413432743711;-3.2722;-1.6705;-4.3113;
687413442864440;-8.6548;-2.6049;-7.8470;
687413452971471;-14.5741;-2.7535;-3.6093;
687413463078502;-13.3741;-0.2500;3.4023;
687413473161836;-8.0297;0.9404;1.9265;
687413483268867;-8.1975;0.1116;-5.3318;
687413493375898;-7.7471;-0.7795;-5.3438;
687413503507981;-10.6600;-1.4097;-2.6919;
687413513615013;-12.8686;1.6496;-3.5423;
687413523722044;-9.8097;2.1120;-3.8106;
687413533822461;-8.0034;1.1273;-0.9120;
687413543929492;-7.8284;0.3440;1.2679;
687413554036523;-9.3688;0.1403;-3.0607;
687413564157669;-10.4659;-1.1195;-3.8800;
687413574264700;-9.5052;0.3200;-2.8044;
687413584371731;-9.9652;0.3416;-5.2047;
687413594441106;-10.8610;0.6099;-5.9330;
687413604548138;-11.0910;1.6041;-1.0941;
687413614655169;-9.9652;2.8184;-1.9229;
687413624767565;-9.3975;1.0747;-2.8427;
687413634874596;-10.2622;2.6438;-2.1960;
687413644981627;-7.5290;1.2230;-2.1075;
687413655107565;-7.9962;0.8207;-4.0095;
687413665214596;-8.5184;0.6745;-3.9230;
687413675321627;-8.6405;-0.2477;-2.6776;
687413685422669;-8.7772;0.4181;-3.7436;
687413695529700;-11.3569;0.0541;-4.8718;
687413705636731;-9.8408;0.4493;-1.9397;
687413715772148;-5.1766;0.1929;-0.0353;
687413725879179;-6.1971;0.0039;-4.2036;
687413735986211;-10.5018;0.0733;-6.4146;
687413746070481;-12.9595;0.9069;-2.8546;
687413756177513;-11.6516;0.5548;0.8390;
687413766284544;-10.4731;-0.5447;1.0044;
687413776381002;-7.5577;-0.4609;0.5827;
687413786488034;-10.8491;-0.1280;-2.1075;
687413796595065;-9.2946;-0.1687;-2.6656;
687413806711054;-5.2606;-1.1124;-2.2487;
687413816818086;-9.2946;-0.7531;-4.1937;
687413826925117;-12.0039;-0.7842;-3.1543;
687413837036731;-10.7342;0.7128;-1.6905;
687413847143763;-9.7328;1.3406;-1.3074;
687413857250794;-6.9613;-0.7555;-1.8009;
687413867364752;-10.0274;-0.6502;-4.5341;
687413877471784;-11.1535;-0.2572;-3.9999;
687413887578815;-12.4325;1.4100;-3.0751;
687413897678815;-7.8165;0.5309;-0.3706;
687413907785846;-5.4975;0.1905;-0.2725;
687413917892877;-9.5315;-0.6263;-2.7494;
687413928004648;-11.6468;0.0230;-3.5064;
687413938111679;-11.3354;0.6817;-1.9373;
687413948218711;-8.3483;-0.4777;-3.1615;
687413958320065;-9.7854;0.0422;-3.4633;
687413968427096;-9.3712;-0.2548;-2.8717;
687413978534127;-9.9556;0.8375;-4.5030;
687413988640794;-9.4023;0.9236;-2.6632;
687413998747825;-6.1660;1.5176;-1.2497;
687414008854856;-8.7604;0.8542;-2.5050;
687414018971315;-9.3640;0.4421;-3.2524;
687414029078346;-9.2803;0.8375;-2.6321;
687414039185377;-8.5256;0.0709;-2.2774;
687414049302981;-8.2549;0.3464;-3.3529;
687414059410013;-10.5425;0.4158;-3.3314;
687414069517044;-13.8915;0.4325;-3.3482;
687414079628398;-11.5582;1.6232;-0.4424;
687414089735429;-9.0239;-0.1543;1.7231;
687414099842461;-8.8848;0.6027;0.4463;
687414109935534;-8.0824;0.8997;-2.0402;
687414120042565;-11.2014;0.4636;-3.7675;
687414130149596;-10.3029;-0.0921;-1.6594;
687414140255690;-6.2976;0.1092;-1.6235;
687414150362721;-7.0499;-1.1509;-5.9521;
687414160469752;-10.0274;0.3679;-4.4524;
687414170574544;-7.7327;0.5979;-2.7709;
687414180681575;-11.7404;1.1369;-6.5821;
687414190788606;-12.8112;0.0733;-3.9063;
687414200906315;-5.3372;0.4469;0.3359;
687414211013346;-8.0465;0.2243;-3.4178;
687414221120377;-12.8207;-0.3532;-2.0378;
687414231230221;-9.5243;-0.4442;0.2474;
687414241337252;-10.0899;-1.1749;-1.4701;
687414251444284;-11.7882;-0.8994;-1.8942;
687414261534544;-12.1092;0.4110;-0.3203;
687414271641575;-10.4874;-0.1113;1.7088;
687414281748606;-6.8390;-0.3242;-0.7732;
687414291861836;-6.0485;-1.1462;-6.7092;
687414301968867;-9.0168;-2.1999;-8.1559;
687414312075898;-8.8633;-0.0754;-3.7484;
687414322182721;-8.5400;1.6232;-2.4619;
687414332289752;-10.1545;-0.7005;-2.6297;
687414342396784;-10.3367;-0.6718;-3.9473;
687414352509648;-10.0250;0.8901;-0.9048;
687414362616679;-9.3640;-0.0129;0.4199;
687414372723711;-9.1771;0.3918;-2.8307;
687414382838398;-8.1613;-0.1400;-3.4753;
687414392945429;-9.5462;1.4195;-3.5710;
687414403052461;-12.8806;1.4100;-1.0774;
687414413139856;-11.6758;-0.0248;0.5970;
687414423246888;-10.4659;0.0709;0.4630;
687414433353919;-9.3425;-0.2883;-0.8833;
687414443477044;-8.5950;0.7394;-3.5638;
687414453584075;-7.7303;1.1824;-3.8632;
687414463691106;-9.7496;0.6697;-3.2931;
687414473788398;-13.8485;1.4004;-4.9651;
687414483895429;-10.7294;1.8293;-2.2487;
687414494002461;-6.7887;1.2999;1.1097;
687414504114127;-7.2488;0.1546;-1.8129;
687414514221159;-10.1976;-0.5495;-4.7474;
687414524328190;-9.9844;0.5620;-4.0813;
687414534426523;-11.5176;1.8891;-4.6513;
687414544533606;-8.9112;1.0412;-2.4571;
687414554640690;-8.1709;1.8891;-1.5900;
687414564744127;-10.9762;0.5142;-1.5829;
687414574851211;-8.5519;0.5070;-2.6297;
687414584958294;-9.5243;0.4974;-5.2935;
687414595096731;-9.1699;0.2411;-2.4045;
687414605203815;-7.0092;0.6099;-1.6666;
687414615310898;-11.6563;0.6673;-3.6500;
687414625396836;-16.0977;1.3645;-2.1099;
687414635503919;-11.8193;0.5189;1.3253;
687414645611002;-8.4658;0.5357;2.0058;
687414655724336;-7.9675;-0.3413;-1.0056;
687414665831419;-5.7299;-0.4633;-3.7268;
687414675938502;-9.3975;-0.0368;-6.5127;
687414686031054;-10.9690;1.4722;-4.6418;
687414696138138;-11.0527;0.5835;-1.3816;
687414706245221;-12.8854;-0.0897;-0.5647;
687414716361836;-8.2358;-0.0153;0.5755;
687414726468919;-4.3956;-1.4288;-1.6044;
687414736576002;-8.2358;-0.2644;-8.2543;
687414746699804;-8.8657;0.6601;-7.3223;
687414756806888;-10.6457;2.0183;-3.5638;
687414766913971;-13.8293;1.1967;-2.0091;
687414777007148;-8.9279;0.3416;1.3828;
687414787114231;-5.3563;-0.4801;1.6463;
687414797221315;-8.8466;-0.8536;-1.9038;
687414807319231;-9.3473;0.2889;-4.6394;
687414817426315;-8.1948;1.0460;-6.7140;
687414827533398;-8.6883;1.7668;-3.8656;
687414837645169;-8.5591;1.2951;-0.2390;
687414847752252;-7.2296;0.7513;-2.4763;
687414857859336;-2.8531;0.2770;-3.4753;
687414867976731;-25.7133;0.2483;-0.7083;
687414878083815;-23.7491;1.0651;4.3702;
687414888190898;0.8049;0.2626;7.1441;
687414898296731;2.6303;-0.4370;-2.5217;
687414908403815;-11.0360;-3.4170;-10.1157;
687414918510898;-17.5974;0.4469;-5.1185;
687414928613294;-10.9475;2.7921;4.3364;
687414938720377;-7.3158;1.2951;0.9589;
687414948827461;-10.2814;-1.2514;-4.6131;
687414958935898;-11.5558;-0.9855;-0.0760;
687414969042981;-1.8278;0.5142;3.6873;
687414979150065;-7.8284;-1.9388;-15.3186;
687414989259023;-19.5449;-1.0645;-20.6797;
687414999366106;-5.9001;1.7668;4.7318;
687415009473190;-4.2760;2.7251;7.1919;
687415019581523;-12.5405;0.8542;-5.2119;
687415029688606;-9.1938;-1.9630;-4.0334;
687415039795690;-8.9925;-1.2395;0.5707;
687415049910481;-9.8480;-1.0238;-0.5934;
687415060017565;-10.5760;-1.0143;-4.0286;
687415070124648;-11.7691;-0.7292;-2.0812;
687415080219648;-8.3267;-0.2070;-0.2007;
687415090326731;-8.7317;-0.3314;-5.1808;
687415100433815;-13.3693;-0.1400;-2.7111;
687415110566315;-7.5864;0.1929;4.2981;
687415120673398;-6.6021;-0.3891;-1.0845;
687415130780481;-10.2311;-1.1076;-7.5141;
687415140873815;-9.0359;-0.0009;-2.4882;
687415150980898;-5.4592;-0.3652;0.1493;
687415161087981;-10.1976;-1.0095;-5.5929;
687415171189961;-12.3847;-0.2213;-3.9736;
687415181297044;-9.4956;0.4735;-0.7421;
687415191404127;-7.7231;-0.4968;-2.2941;
687415201516106;-8.0919;0.2650;-2.8379;
687415211623190;-9.0168;-0.3987;-1.2568;
687415221730273;-12.4660;0.7872;-2.9746;
687415231837461;-13.3765;-0.5112;-1.0152;
687415241944544;-12.2626;1.0962;1.3995;
687415252051627;-9.4478;0.4878;2.2549;
687415262150377;-7.0140;-0.0488;0.3144;
687415272257461;-4.3884;-2.4227;-4.7713;
687415282364544;-7.9890;-0.2788;-8.9369;
687415292473398;-10.6935;1.4411;-6.8001;
687415302580481;-14.3683;1.4770;0.7983;
687415312687565;-12.4229;1.2927;1.7399;
687415322784336;-8.2214;2.2101;-0.7155;
687415332891419;-6.7648;0.4660;-3.1519;
687415342998502;-7.6633;-2.4275;-4.9316;
687415353118294;-12.2985;-0.6694;-5.8851;
687415363225377;-11.6830;2.4185;-2.8884;
687415373332461;-10.8371;1.7022;2.2140;
687415383435794;-8.4344;0.4445;1.3828;
687415393542877;-7.9388;0.1307;0.4487;
687415403649961;-6.3697;-0.5088;-2.8116;
687415413756731;-9.0048;0.0972;-8.5513;
687415423863815;-10.4611;-1.5006;-7.4710;
687415433970898;-9.9485;-1.0789;-2.6369;
687415444097877;-10.9570;0.3655;-0.4400;
687415454204961;-7.3804;0.7681;-0.0497;
687415464312044;-6.9230;-1.0214;-3.6093;
687415474395794;-10.2168;-0.5877;-5.7532;
687415484502877;-9.7113;-1.5532;-1.9277;
687415494609961;-9.7687;-0.3724;-0.0377;
687415504712461;-10.8706;0.0494;0.4152;
687415514819544;-13.2757;-1.0908;0.3191;
687415524926627;-11.1006;-0.3700;0.2019;
687415535036836;-7.3493;-1.0478;-0.4184;
687415545143971;-3.9359;-2.4084;-3.7484;
687415555251159;-9.3185;-1.3567;-7.6146;
687415565367877;-14.8591;-0.5231;-4.0430;
687415575475013;-10.6983;0.3272;2.0824;
687415585582200;-8.6070;1.0340;0.6042;
687415595702148;-7.9388;-1.1148;-1.7838;
687415605809284;-7.1435;-0.7699;-4.5221;
687415615916471;-8.2765;-0.2835;-5.7006;
687415626024231;-12.3775;0.9069;-6.4696;
687415636131367;-8.2645;0.4325;-2.8908;
687415646238554;-9.4047;0.6242;-0.5288;
687415656336940;-13.4602;1.5081;-1.4055;
687415666444075;-10.3917;1.0002;1.4883;
687415676551263;-7.3277;1.0268;-0.5719;
687415686656106;-10.0828;-0.8731;-3.9664;
687415696763242;-11.4960;-0.3194;-3.8010;
687415706870429;-9.4358;1.4219;-2.1721;
687415716981054;-10.2670;1.1895;-0.6604;
687415727088190;-8.9590;0.4735;-0.2988;
687415737195377;-8.6046;0.3464;-3.6667;
687415747319127;-10.2526;0.1068;-3.6766;
687415757426263;-7.6415;0.9428;-2.5385;
687415767533450;-7.5697;0.3655;-5.0324;
687415777627981;-11.2540;0.2459;-4.8359;
687415787735117;-6.4439;0.2794;-3.2955;
687415797842304;-8.5783;0.0326;-2.9004;
687415807945481;-14.6533;-0.3796;-2.9219;
687415818052617;-10.5927;0.3009;0.6260;
687415828159804;-6.0918;-0.3170;-0.0999;
687415838277981;-11.0623;0.8853;-4.2060;
687415848385117;-10.3487;-0.2596;-1.3289;
687415858492304;-9.6443;0.7777;-1.4462;
687415868595586;-11.9414;0.1642;-0.7612;
687415878702721;-8.0871;0.0541;-0.9024;
687415888809909;-10.5449;-0.3772;-3.3840;
687415898920377;-13.3190;0.1116;-1.3026;
687415909027513;-5.2630;-0.8803;0.0700;
687415919134700;-4.0842;-0.3003;-5.4156;
687415929235169;-6.7385;-0.6598;-9.7107;
687415939342304;-10.2598;-0.0730;-7.2458;
687415949449492;-10.8132;0.7080;-1.9612;
687415959563294;-5.0761;0.8662;0.4152;
687415969670429;-7.3998;0.0015;-4.0621;
687415979777617;-13.7285;0.4134;-4.2610;
687415989900065;-12.6912;0.2459;1.7351;
687416000007200;-7.4644;1.8796;0.8486;
687416010114388;-11.4338;1.0196;-3.9568;
687416020204023;-11.3737;0.5788;-1.2520;
687416030311159;-9.8216;0.9858;2.2645;
687416040418346;-11.9800;0.9787;2.3818;
687416050523554;-6.2019;0.6769;0.9972;
687416060630690;-5.8881;-0.8058;-3.9712;
687416070737877;-12.6338;0.3296;-5.3198;
687416080862461;-9.3999;0.0494;-1.3313;
687416090969596;-6.1828;-0.5542;-2.9841;
687416101076784;-10.7175;0.0350;-6.4146;
687416111185273;-11.7643;0.5812;-3.8465;
687416121292409;-7.3445;0.1546;-1.6905;
687416131399596;-6.3912;-0.0583;-2.8499;
687416141487981;-10.9666;0.1116;-2.6249;
687416151595117;-9.2178;0.3105;-1.2209;
687416161702304;-8.7844;0.2698;-1.5326;
687416171815481;-13.0866;-0.0631;-0.4232;
687416181922617;-11.0527;1.1752;-0.0185;
687416192029804;-9.9365;0.3392;-0.6963;
687416202129648;-9.8767;0.0565;-1.9612;
687416212236784;-12.9476;0.3105;-3.9206;
687416222343971;-10.7222;0.1403;-2.3806;
687416232457461;-4.9971;-0.1615;0.0341;
687416242564596;-5.9504;-0.1902;-2.5816;
687416252671784;-12.2937;-0.3867;-5.3773;
687416262794127;-10.8251;1.0196;-1.6546;
687416272901263;-6.8776;-0.0607;0.4008;
687416283008450;-6.3314;-0.6909;-4.5150;
687416293090690;-11.4697;-0.5112;-7.9164;
687416303197825;-11.1512;0.4134;-3.8417;
687416313305013;-7.1435;1.5057;-1.0487;
687416323412304;-9.3640;0.6027;-3.8201;
687416333519440;-12.2100;0.0111;-2.7398;
687416343626627;-10.1856;0.8136;2.2430;
687416353751419;-9.2779;0.8973;0.5874;
687416363858554;-9.3784;-0.0730;-3.4968;
687416373965742;-10.0804;-0.8608;-1.6881;
687416384063398;-10.4874;0.9452;-0.4642;
687416394170534;-7.4524;-0.2429;-4.1411;
687416404277721;-8.3865;0.2195;-4.1435;
687416414370950;-9.0024;0.8231;-1.5036;
687416424478086;-9.5940;0.5668;-2.1170;
687416434585273;-7.8117;0.3488;-3.8943;
687416444727252;-8.5711;0.5429;-3.1950;
687416454834388;-10.2957;0.2387;-1.8631;
687416464941575;-11.4553;-0.0873;-1.9349;
687416475037200;-10.7175;0.4926;0.0389;
687416485144336;-9.1723;0.2076;-2.2822;
687416495251523;-12.4301;-0.0754;-2.7589;
687416505345794;-9.8575;0.1618;1.5458;
687416515452929;-7.7997;-0.5806;1.3660;
687416525560117;-11.3378;-1.0071;-1.3576;
687416535654023;-14.3635;-0.3027;-1.9038;
687416545761263;-8.9542;-0.2524;0.3455;
687416555868450;-6.0679;-1.4384;-0.0233;
687416565994856;-10.5377;-0.8130;-3.7005;
687416576102096;-12.4807;-1.0382;-5.2334;
687416586209284;-9.2731;-0.4155;-3.1352;
687416596311523;-6.3745;-0.5351;-2.0306;
687416606418763;-7.4524;-1.5652;-3.6547;
687416616525950;-12.1164;-0.8082;-2.4643;
687416626636627;-14.2747;-0.6646;-1.2787;
687416636743867;-10.7151;1.0579;-0.5958;
687416646851054;-5.1359;-1.7163;-0.0903;
687416656953711;-8.6548;0.0063;-1.4318;
687416667060950;-9.2034;-1.2275;-2.3925;
687416677168138;-12.2100;-0.1089;-4.5724;
687416687277148;-11.2851;0.2578;-2.3830;
687416697384388;-8.0225;-0.8082;1.4285;
687416707491575;-8.5950;-0.4992;0.0173;
687416717592721;-11.4697;-0.4561;-0.7971;
687416727699961;-13.7237;0.1594;-2.2152;
687416737807148;-7.0355;-0.0272;-0.2270;
687416747930794;-8.7867;-0.3051;-0.7732;
687416758038034;-11.7284;-0.2381;-2.6010;
687416768145221;-11.2158;-0.3123;-1.6092;
687416778242044;-9.7807;0.9858;-0.4113;
687416788349284;-6.0727;-0.8489;0.0150;
687416798456471;-8.2119;-0.8803;-2.1242;
687416808554336;-12.4660;0.1235;-3.2357;
687416818661575;-15.3215;0.4902;-2.7015;
687416828768763;-6.9996;0.0254;-0.7469;
687416838887461;-4.8652;-0.1041;-2.2319;
687416848994700;-11.6782;0.2171;-3.6165;
687416859101888;-12.8542;0.5740;-3.1496;
687416869213398;-10.6935;0.4998;-1.8033;
687416879320638;-4.3190;-0.1017;-1.0941;
687416889427825;-7.1530;-0.0631;-2.0498;
687416899529127;-12.1905;0.1211;-2.7948;
687416909636367;-13.2808;0.5118;-1.1539;
687416919743554;-8.7123;-0.0535;-1.4533;
687416929859127;-5.6892;0.1140;-1.8966;
687416939966367;-10.8805;0.5118;-3.1711;
687416950073554;-12.6458;-0.2118;-0.9960;
687416960170794;-7.2894;-0.1663;-1.7503;
687416970278034;-7.1121;0.1834;-3.4059;
687416980385221;-8.9710;0.1834;-2.0836;
687416990498711;-10.8012;-0.5806;0.5228;
687417000605950;-11.2875;-0.3314;-1.5132;
687417010713138;-8.3411;-0.4035;-1.9134;
687417020832044;-5.7108;-0.3123;-0.3826;
687417030939284;-10.8203;-1.1291;-2.1290;
687417041046471;-14.3082;-1.2754;-2.6010;
687417051143554;-10.4324;-0.2046;0.9996;
687417061250794;-7.6558;-0.3051;-0.4834;
687417071357981;-8.3339;-1.0143;-1.7647;
687417081477877;-9.1460;-0.5064;-0.2509;
687417091585117;-11.0312;-0.5806;0.2282;
687417101692304;-12.9428;-0.0754;-1.8176;
687417111802721;-10.2096;-0.3413;-0.8809;
687417121909961;-6.8752;0.1953;0.6691;
687417132017148;-6.7959;-0.8249;-0.7947;
687417142100065;-11.5391;-1.5245;-3.9159;
687417152207304;-14.9097;0.6577;-3.8010;
687417162314492;-10.4348;0.3440;-1.6977;
687417172429544;-6.9398;0.3942;-0.8354;
687417182536784;-6.5874;-0.2716;-0.0927;
687417192643971;-11.9390;0.7466;-1.4844;
687417202747981;-8.4873;0.3607;-2.0115;
687417212855221;-7.1363;-0.2142;-3.3386;
687417222962409;-9.8599;0.5524;-3.5183;
687417233067148;-10.0346;0.0709;-3.3529;
687417243174388;-9.1220;-0.1065;-1.3241;
687417253281575;-8.7748;-0.1998;-1.4797;
687417263403606;-8.3698;-0.1472;-3.8393;
687417273510846;-8.3052;0.4301;-2.8618;
687417283618086;-6.8318;0.8495;-1.8440;
687417293713919;-8.0680;0.7466;-3.6117;
687417303821159;-8.7772;0.0781;-2.0907;
687417313928346;-8.4682;0.6577;-1.0702;
687417324039856;-19.0011;1.0507;0.1014;
687417334147096;-21.2647;0.2722;3.5892;
687417344254336;-8.6812;0.5070;4.6983;
687417354360898;-2.0722;-0.1137;2.7724;
687417364468138;-11.8457;0.3153;-1.8200;
687417374575325;-14.5286;0.8495;-2.2798;
687417384680898;-7.5625;0.8207;0.1588;
687417394788138;-5.1646;-0.4083;-2.9315;
687417404895325;-7.1746;-0.6694;-4.3687;
687417415010794;-9.3114;0.2818;-3.1301;
687417425118034;-8.0919;-0.4011;-3.3314;
687417435225221;-7.4166;-0.6790;-4.9603;
687417445337981;-9.5940;-0.4681;-10.8676;
687417455445221;-12.2363;0.5118;-11.9504;
687417465552409;-8.5017;1.1919;-2.4500;
687417475655169;-8.9231;1.2087;3.6084;
687417485762409;-12.5309;1.1512;1.5888;
687417495869596;-11.1942;1.4435;-0.9861;
687417505962877;-10.7916;0.7992;2.7338;
687417516070117;-8.7820;1.1082;2.3746;
687417526177304;-9.1531;0.4588;0.1301;
687417536282356;-11.4218;-0.0921;-1.7264;
687417546389700;-9.2560;0.1403;-1.9684;
687417556496992;-5.8451;-1.2203;-3.3434;
687417566601523;-10.7988;-1.0358;-7.3367;
687417576708867;-12.4950;0.4711;-3.1110;
687417586816159;-8.4583;1.1824;3.0263;
687417596926315;-6.6739;-0.2548;-1.5179;
687417607033659;-8.9925;-0.5064;-5.1736;
687417617140950;-11.6973;0.6625;-1.9780;
687417627262252;-9.5797;0.3248;0.2928;
687417637369596;-7.5912;-1.1629;-0.6461;
687417647476940;-8.9064;0.1977;-2.0617;
687417657572565;-11.0336;-0.2716;-1.4127;
687417667679909;-11.5750;-0.1711;-1.5637;
687417677787200;-12.4540;-0.3314;0.2641;
687417687893554;-10.9929;1.1967;1.2535;
687417698000898;-9.1819;-1.1291;0.0724;
687417708108190;-10.8996;0.0039;-1.9445;
687417718210481;-11.4290;0.6697;-2.2319;
687417728317825;-11.0384;-0.0200;-0.0640;
687417738425117;-10.2048;-0.7771;-1.8823;
687417748536575;-10.4468;-1.3448;-2.5887;
687417758643919;-6.3817;-0.8994;0.3191;
687417768751211;-5.4066;-1.7545;-2.3614;
687417778859231;-11.1990;-0.5447;-7.6289;
687417788966575;-9.1268;-0.4011;-3.7220;
687417799073867;-3.9766;-0.6383;-1.4270;
687417809174336;-9.1579;-0.9425;-5.4706;
687417819281679;-14.3201;-0.0682;-5.8780;
687417829388971;-13.2589;0.4612;0.8919;
687417839507044;-8.9183;-0.4561;3.1268;
687417849614388;-10.8227;-0.1663;-1.3744;
687417859721679;-10.0346;-0.2189;-1.1396;
687417869830898;-10.9977;0.0541;0.2880;
687417879938242;-13.2015;1.0412;-0.0688;
687417890045534;-9.6491;0.1355;0.4822;
687417900142877;-7.7375;-1.2610;0.8605;
687417910250221;-9.9604;0.4038;-1.7886;
687417920357513;-8.4754;-0.7436;-2.9291;
687417930478138;-8.2023;-0.7842;-3.7890;
687417940585481;-7.1554;-0.9377;-4.9627;
687417950692773;-7.4477;-1.1291;-6.4863;
687417960792044;-8.4658;-1.3137;-6.0550;
687417970899388;-7.4070;-0.6790;-2.3303;
687417981006679;-9.8862;-0.0440;-3.8560;
687417991122669;-12.8088;0.9547;-2.6273;
687418001230013;-5.3922;1.6735;1.9938;
687418011337304;-6.1277;1.1297;-0.8880;
687418021433502;-12.3679;0.0470;-3.9182;
687418031540846;-11.0025;1.2808;-1.4844;
687418041648138;-9.6778;0.8447;0.8486;
687418051754336;-9.4549;0.8662;0.3649;
687418061861679;-9.8480;-0.8177;-0.0592;
687418071968971;-11.3474;0.0805;-0.1501;
687418082097669;-12.1451;0.2913;0.0508;
687418092205013;-12.8351;2.2149;0.2378;
687418102312304;-7.7040;0.2770;1.9074;
687418112404388;-7.4070;-0.0802;-0.2031;
687418122511731;-12.1092;0.5740;-2.0569;
687418132619023;-8.7628;-0.1256;-1.0606;
687418142732981;-8.8466;0.5046;-2.1027;
687418152840325;-9.8240;0.3416;-1.2568;
687418162947617;-7.4189;-0.7149;-2.7422;
687418173039752;-9.1268;-0.9736;-3.2189;
687418183147096;-12.2889;-0.6191;-1.9181;
687418193254388;-12.1834;1.2278;-2.5959;
687418203359752;-8.6094;-0.3508;-2.1290;
687418213467096;-5.0665;-0.1950;-0.9984;
687418223574388;-10.0370;0.4974;-3.6619;
687418233682773;-13.3549;-0.0392;-3.5758;
687418243790117;-8.9016;-0.1998;-1.3193;
687418253897409;-9.9891;-0.0224;-1.5613;
687418264001731;-9.4956;-0.6718;-0.7011;
687418274109023;-8.9542;-1.3065;-0.9622;
687418284216367;-11.1174;-0.6072;-1.6570;
687418294324752;-12.1403;-0.7172;-1.8081;
687418304432096;-12.3057;-0.0368;-1.9301;
687418314539388;-9.0407;-0.4322;-1.2906;
687418324648606;-9.0957;0.6458;0.1732;
687418334755950;-9.7113;-0.0392;-0.9502;
687418344863242;-10.6696;-0.9712;-1.9325;
687418354961888;-9.5172;-0.1400;-1.8823;
687418365069231;-10.0298;-1.0836;-1.2691;
687418375176575;-9.2489;-0.6526;-1.7097;
687418385291002;-10.6935;-1.2945;-1.6977;
687418395398346;-9.3616;-0.9616;-1.5203;
687418405505638;-9.0861;-0.6790;-2.6297;
687418415613815;-10.0131;-0.7172;-4.0310;
687418425721159;-7.9675;0.4878;-3.2357;
687418435828450;-9.6754;0.0757;-3.0583;
687418445945377;-10.1976;0.3200;-3.5136;
687418456052721;-10.6337;-0.0081;-2.1218;
687418466160013;-6.8704;-0.2285;-2.6871;
687418476255273;-7.7231;0.1331;-1.3839;
687418486362617;-9.7161;-1.0023;-1.8200;
687418496469909;-11.6587;0.3176;-3.9544;
687418506594127;-11.6925;1.2087;-0.7636;
687418516701471;-7.2081;0.0206;0.3120;
687418526808763;-7.2248;0.0494;-2.7182;
687418536904336;-9.6419;0.7920;-2.7900;
687418547011627;-12.2363;1.0125;-1.5924;
687418557118919;-9.2465;0.5907;0.0772;
687418567223294;-8.7532;0.6817;-0.5815;
687418577330586;-12.9595;0.8853;-1.6068;
687418587437877;-10.6217;0.5835;1.1674;
687418597546211;-6.2665;-0.0488;2.3028;
687418607653502;-10.9642;-0.1328;-2.8765;
687418617760794;-11.6782;1.1106;-2.3542;
687418627871627;-6.5515;-0.4370;-0.9359;
687418637978919;-7.8404;0.2028;-3.6476;
687418648086211;-10.0875;0.0924;-2.6369;
687418658187669;-8.6261;0.2865;-0.5527;
687418668294961;-7.8547;0.4783;-1.8751;
687418678402252;-10.0681;-0.0631;-3.3266;
687418688508711;-12.4493;-0.6718;-1.6857;
687418698616002;-10.5855;-0.6814;0.9757;
687418708723294;-11.5343;-0.2189;-1.2042;
687418718825586;-12.7585;0.2770;-1.1946;
687418728932877;-9.7902;-0.2955;0.9685;
687418739040169;-9.5533;-0.6814;-0.3586;
687418749152461;-12.5620;1.2182;-2.3949;
687418759259752;-9.0981;0.8423;-0.2079;
687418769367044;-5.7706;-1.0813;0.9470;
687418779471627;-8.6453;-0.8536;-3.9999;
687418789578919;-10.3558;-1.2395;-4.0382;
687418799686211;-8.0943;-0.5806;-1.7985;
687418809801211;-6.1493;-0.7364;-4.3663;
687418819908502;-9.7687;-1.1964;-6.2515;
687418830015794;-13.1489;-0.3194;-3.1878;
687418840111731;-11.8887;-0.3676;0.1301;
687418850219023;-6.3697;-0.6479;-1.8703;
687418860326315;-10.8706;1.3095;-2.7494;
687418870442877;-11.3809;0.9380;-1.4414;
687418880550169;-10.7653;0.4783;-0.4280;
687418890657461;-10.0899;0.8279;0.1708;
687418900770481;-7.8380;-0.1017;0.0150;
687418910877773;-19.9400;0.2387;-0.3012;
687418920985065;-3.3153;0.0398;0.0078;
687418931089023;-2.8361;-0.8994;0.4104;
687418941196315;-14.9791;-1.4958;-5.4849;
687418951303606;-13.7572;0.0015;-2.8140;
687418961411054;-6.2976;-0.5925;-0.7035;
687418971518346;-4.7432;0.2674;-6.3185;
687418981625638;-12.8160;-0.4920;-6.4002;
687418991731211;-12.4038;0.3296;-0.3132;
687419001838502;-7.4836;1.1058;2.4129;
687419011945794;-8.1565;0.5668;-3.2907;
687419022048606;-11.3689;-0.6861;-3.4298;
687419032155898;-6.5803;-0.2692;1.1961;
687419042263190;-5.1885;-0.3556;-4.3783;
687419052372721;-19.4273;-0.2189;-9.4256;
687419062480013;-8.3243;1.0436;5.0599;
687419072587304;-0.3185;-0.1280;3.7519;
687419082706002;-10.7940;-1.1797;-9.2291;
687419092813294;-16.6702;0.3894;-7.8637;
687419102920586;-7.8619;0.7370;4.7055;
687419113018086;-7.8021;0.3799;3.8213;
687419123125377;-10.0851;-0.3027;-4.0789;
687419133232669;-9.2106;-0.5040;-4.9388;
687419143360481;-7.7160;-0.5375;-0.0616;
687419153467773;-10.5855;-0.3580;-1.7623;
687419163575065;-13.7979;-0.0488;-2.2223;
687419173678294;-10.0756;-0.0754;2.8059;
687419183785586;-4.0316;-0.6766;1.0594;
687419193892877;-9.0072;-1.1677;-6.2898;
687419203966211;-12.4445;-0.6766;-3.4011;
687419214073502;-8.0417;0.7394;1.6463;
687419224180794;-10.7988;-0.6024;-1.5852;
687419234295377;-11.3593;-0.0631;-2.8140;
687419244402669;-6.0365;-0.8249;1.4620;
687419254509961;-8.8872;-0.8970;-2.9913;
687419264616627;-12.9954;0.2698;-5.1185;
687419274723919;-11.0121;-0.4513;2.4631;
687419284831211;-8.6477;0.4181;1.2799;
687419294960221;-8.9877;-1.0262;-3.6814;
687419305067513;-8.0560;-0.5830;-2.8451;
687419315174804;-10.3029;-0.4729;-2.2941;
687419325289856;-11.3163;-0.4609;-2.1290;
687419335397148;-7.7351;0.7657;-1.9325;
687419345504440;-9.2417;-0.4298;-0.8665;
687419355594440;-9.4549;0.4831;-1.7575;
687419365701731;-9.6180;-0.3652;-2.6106;
687419375809023;-8.6836;-0.4083;-2.4380;
687419385912356;-10.6457;-0.5782;-1.3768;
687419396019648;-11.4075;0.5309;-1.4366;
687419406126940;-9.8025;-0.0849;-1.6259;
687419416239440;-6.6500;-0.7388;-1.6283;
687419426346731;-8.9853;-1.2634;-2.6967;
687419436454023;-13.4530;0.2387;-3.0368;
687419446557877;-10.2957;-0.0873;0.0006;
687419456665169;-7.2703;0.0541;-0.7493;
687419466772461;-12.0063;-0.6718;-1.6594;
687419476863294;-8.0178;-0.8922;1.1121;
687419486970586;-6.9015;-0.2931;-1.4701;
687419497077877;-11.4171;-1.3208;-5.2286;
687419507196419;-15.8773;-0.6455;-3.0344;
687419517303711;-8.7772;0.3009;1.5888;
687419527411002;-3.5022;-0.2716;-1.2568;
687419537517148;-8.9040;-2.0133;-5.5642;
687419547624388;-13.1321;-0.6191;-2.8669;
687419557731575;-10.4946;-1.6298;1.3780;
687419567836419;-10.7892;0.5835;-1.7001;
687419577943606;-11.6925;-0.4609;-1.7288;
687419588050846;-9.9341;0.1164;0.7122;
687419598169231;-8.5615;-1.2323;1.2248;
687419608276471;-6.5515;-0.1041;-3.4729;
687419618383659;-10.1450;-0.2261;-5.8756;
687419628489127;-15.6736;-1.2897;-2.1745;
687419638596367;-10.4803;-1.3161;2.5256;
687419648703554;-5.4855;-0.0778;-2.4667;
687419658831315;-7.9098;-0.5423;-6.4193;
687419668938554;-7.8667;-1.2467;-2.1075;
687419679045742;-11.4434;-0.1448;-1.9469;
687419689131836;-13.5105;0.0111;-1.9732;
687419699239075;-10.1665;-0.8154;2.1159;
687419709346263;-6.6045;0.4277;0.6715;
687419719447148;-7.0810;0.7152;-5.1257;
687419729554336;-8.2813;-0.5471;-6.5701;
687419739661575;-10.5808;-0.0945;-3.2740;
687419749776731;-15.4965;0.3200;1.7973;
687419759883971;-15.3048;2.0928;4.9570;
687419769991159;-4.4677;1.2063;3.5028;
687419780105586;-5.0689;0.2411;-6.6230;
687419790212825;-10.2742;-0.1113;-8.2998;
687419800320013;-10.4085;0.7561;-1.3361;
687419810417461;-10.8562;0.8327;1.5362;
687419820524700;-10.2407;0.8183;0.5970;
687419830631888;-9.1555;0.7418;-1.5565;
687419840731888;-6.9398;0.1355;-2.4954;
687419850839127;-8.8346;-0.1280;-3.7005;
687419860946315;-10.9857;0.1475;-2.8618;
687419871076471;-10.7342;0.7080;0.1851;
687419881183711;-10.3798;0.4783;1.6319;
687419891290898;-8.0058;0.3344;-0.1167;
687419901385586;-8.9806;0.4205;-5.9785;
687419911492825;-13.2927;0.2076;-8.0219;
687419921600013;-10.0732;0.2028;0.7433;
687419931717252;-6.0751;-0.6287;4.6143;
687419941824492;-11.4075;-0.4250;-1.7121;
687419951931679;-15.1564;0.2076;-5.0034;
687419962024752;-6.3625;-0.2070;0.1014;
687419972131940;-4.0819;-1.0119;0.3984;
687419982239179;-10.5329;-1.3400;-5.7221;
687419992350377;-13.0555;-0.2740;-4.7928;
687420002457617;-12.5213;0.0876;0.0389;
687420012564804;-6.6739;-0.7723;1.5123;
687420022708294;-8.5567;-0.2166;-2.6273;
687420032815534;-8.3554;-1.1533;-2.6847;
687420042922721;-8.5113;-0.0176;-4.2036;
687420052998815;-8.5807;-0.5231;-4.8120;
687420063106054;-10.1306;-0.6072;-3.6260;
687420073213242;-12.6458;-0.1448;-0.7828;
687420083330481;-10.9881;0.4950;0.7648;
687420093437721;-7.8260;0.4926;1.6944;
687420103544909;-8.2358;-0.2524;-1.4079;
687420113682148;-13.2015;-0.2453;-3.8345;
687420123789388;-15.0580;0.3703;-0.9048;
687420133896575;-6.0942;-0.4872;3.0622;
687420143955794;-4.2592;-0.6287;-0.8234;
687420154062981;-11.3426;-0.0682;-8.7526;
687420164170221;-11.2445;0.4205;-5.1808;
687420174274648;-7.1865;-1.2514;1.4477;
687420184381888;-9.5195;-0.2333;0.1899;
687420194489075;-10.3053;-0.6574;-2.3303;
687420204603919;-11.3474;0.2435;-2.0812;
687420214711159;-9.6538;-0.0440;0.3840;
687420224818346;-6.3386;-0.7890;0.1158;
687420234911315;-8.9423;0.0446;-3.8010;
687420245018502;-9.9556;0.0637;-4.8431;
687420255125742;-9.9413;-0.0754;-2.2869;
687420265242044;-8.9351;0.0039;-2.3303;
687420275349231;-11.8959;0.4516;-1.3528;
687420285456471;-13.0098;0.5285;0.5731;
687420295580169;-13.6687;-0.2405;2.2884;
687420305687409;-9.2731;0.0685;1.2894;
687420315794596;-8.0273;-0.5638;-0.0497;
687420325911784;-11.3163;0.1810;-1.3457;
687420336019023;-9.9867;-1.1100;-2.4858;
687420346126211;-5.8140;-0.5590;-2.0979;
687420356212148;-6.8871;-1.0525;-4.6681;
687420366319388;-7.9484;-1.2993;-5.8011;
687420376426575;-8.9806;-1.4480;-4.0645;
687420386539336;-9.6706;-0.9329;-1.9684;
687420396646575;-8.0082;-0.3123;0.4415;
687420406753763;-9.3114;0.3440;0.0724;
687420416852461;-10.0537;-0.2118;-1.8296;
687420426959700;-10.4348;0.0685;-3.1711;
687420437066888;-10.2048;-0.0993;-3.6718;
687420447175481;-13.1082;0.3655;-2.2391;
687420457282721;-9.6443;0.8830;-0.0353;
687420467389909;-9.9724;0.0900;-1.2425;
687420477501731;-10.7270;1.2135;-1.7264;
687420487608971;-8.6357;0.8375;-0.2222;
687420497716159;-9.2683;0.2339;-1.0080;
687420507832304;-12.8495;1.1034;-1.3002;
687420517939544;-8.2549;-0.0200;1.1240;
687420528046731;-6.1397;-0.6957;-0.7660;
687420538139961;-9.7472;-0.3676;-3.0511;
687420548247252;-11.6133;0.6553;-1.6929;
687420558354544;-11.2110;-0.2094;-1.7551;
687420568463815;-9.1268;-0.2309;-3.5327;
687420578571106;-8.2143;-0.3796;-3.1711;
687420588678398;-5.4544;-0.0921;-1.8990;
687420598784648;-6.7313;-0.7603;-4.6944;
687420608891940;-12.9954;-0.1519;-7.4279;
687420618999231;-15.4125;0.8949;-0.9263;
687420629111002;-7.2703;0.8686;5.3641;
687420639218294;-8.3339;1.0962;-1.9588;
687420649325586;-11.1365;0.0781;-3.3625;
687420659435690;-10.8467;-0.2237;2.2717;
687420669542981;-10.6122;0.8351;-0.4137;
687420679650273;-9.2010;0.4038;-2.7063;
687420689750273;-7.0475;-0.9090;-1.3744;
687420699857565;-9.1508;0.2195;-4.4453;
687420709964856;-10.4492;-0.5351;-5.7891;
687420720070638;-8.8825;-0.7460;-3.5925;
687420730177929;-10.3869;-0.4872;-2.6130;
687420740285221;-9.5533;-0.1137;-0.7995;
687420750390273;-10.2526;-0.1543;0.3144;
687420760497565;-8.7147;-0.3652;1.0044;
687420770604856;-11.2277;0.0517;-1.1109;
687420780723190;-10.2072;0.3009;-3.3960;
687420790830481;-6.5635;-1.1004;-1.1300;
687420800937773;-9.7208;0.1187;-1.0391;
687420811034856;-9.0766;0.1116;-4.0980;
687420821142148;-10.5090;-0.5088;-4.0502;
687420831249440;-10.4396;0.2554;-1.7264;
687420841355690;-10.1641;0.0206;-0.7131;
687420851462981;-9.8121;0.3200;-0.6652;
687420861570273;-10.3487;-0.2979;0.2378;
687420871685065;-8.1159;-0.2907;-1.7791;
687420881792356;-4.5610;-1.5772;-3.5423;
687420891899648;-5.9049;-0.5088;-4.0573;
687420901995794;-11.9560;0.2315;-4.1148;
687420912103086;-12.1690;0.3224;-1.8129;
687420922210377;-8.2621;0.2459;0.0870;
687420932322252;-7.9651;-0.5327;-0.9383;
687420942429544;-11.3019;-0.0607;-3.5566;
687420952536836;-14.3803;0.7271;-1.2305;
687420962647148;-13.1034;0.9069;3.1507;
687420972754440;-7.4764;1.4363;2.0608;
687420982861731;-8.9183;-1.3161;-1.4629;
687420992965065;-9.6682;-1.6947;-1.8511;
687421003072356;-7.3253;0.5213;-1.4151;
687421013179648;-8.5065;-0.7412;-3.3505;
687421023296106;-10.8371;-0.3915;-6.2324;
687421033403398;-10.1737;-0.3556;-3.1591;
687421043510690;-11.1535;0.4349;2.6907;
687421053667773;-9.9939;0.3942;3.6897;
687421063775065;-11.4482;-1.6131;0.7552;
687421073882356;-15.9996;-0.8512;-0.8306;
687421083929440;-11.1392;0.6290;0.7720;
687421094036731;-5.0306;-0.9138;-0.2868;
687421104144023;-5.8427;-0.8297;-3.6452;
687421114303502;-10.7773;0.5237;-4.7303;
687421124410794;-10.5185;0.0924;-5.5546;
687421134518086;-5.8140;-0.5901;-7.5595;
687421144573919;-9.8480;-1.8479;-6.7642;
687421154681211;-11.5152;0.3511;-1.1396;
687421164788502;-4.7022;0.0685;0.7768;
687421174943034;-9.6132;-0.0464;-3.7244;
687421185050325;-14.8807;0.3081;-1.1300;
687421195157617;-8.8585;0.1929;3.7543;
687421205212356;-4.1225;-0.6287;-1.2305;
687421215319648;-10.5497;-1.3591;-4.1507;
687421225426940;-11.6611;0.8303;-2.7326;
687421235560950;-10.4157;0.8423;-5.4586;
687421245668242;-10.8562;-0.1400;-9.6389;
687421255775534;-8.1924;1.0364;-3.4681;
687421265864127;-8.1565;2.2101;4.0418;
687421275971419;-12.1355;0.5740;1.8308;
687421286078711;-10.7007;-0.1496;-3.0583;
687421296186054;-6.6715;-0.5423;-0.3491;
687421306293346;-6.1899;-0.9305;1.1865;
687421316400638;-11.6204;0.0829;-2.6106;
687421326482148;-11.9848;-0.7412;-1.7838;
687421336589388;-7.3014;-0.1902;2.1039;
687421346696627;-7.5745;-0.6168;-2.5026;
687421356803919;-11.7476;-0.8130;-5.9976;
687421366943711;-12.3823;-0.0682;-1.2329;
687421377051002;-8.8729;0.5812;0.9733;
687421387158294;-8.3937;-0.0392;-2.3423;
687421397263711;-8.9877;-0.1328;-2.6034;
687421407371002;-13.6496;-0.4011;-0.5001;
687421417478294;-10.9762;0.6386;0.1851;
687421427590169;-5.5696;-0.9760;0.3144;
687421437697461;-8.0847;-1.0334;-1.8416;
687421447804752;-11.5654;-0.9927;-2.4284;
687421457910065;-12.4708;-0.8321;-1.9851;
687421468017356;-12.7681;-0.1113;-1.5156;
687421478124648;-8.3602;-0.7220;-0.1549;
687421488230221;-4.7599;-1.5963;-0.7445;
687421498337513;-7.1001;-0.4155;-1.9636;
687421508444804;-11.1392;-0.9329;-3.3960;
687421518544752;-11.1823;-0.7149;-4.4668;
687421528652044;-9.4167;-1.1773;-4.4213;
687421538759336;-8.6692;-0.1687;-2.6177;
687421548872252;-7.9627;0.2626;-1.6092;
687421558979544;-9.3185;-0.9879;-2.0569;
687421569086888;-10.5712;-0.0416;-3.2764;
687421579200794;-10.0274;-0.6933;-1.4151;
687421589308086;-7.3516;0.0039;-0.5815;
687421599415429;-10.5281;-0.5160;-1.1300;
687421609513502;-13.9537;0.5859;-1.8248;
687421619620794;-12.2411;1.1489;0.0078;
687421629728138;-5.4903;0.8518;0.2593;
687421639828294;-8.4464;0.0230;-2.6919;
687421649935586;-13.1154;0.4373;-3.6909;
687421660042929;-9.8886;0.6410;-0.7253;
687421670152044;-5.1550;-0.3724;-0.9239;
687421680259336;-10.1402;-0.0511;-4.5915;
687421690366679;-14.0495;0.1522;-2.9506;
687421700476002;-8.9542;1.0531;1.0379;
687421710583294;-4.9466;0.2459;-1.1013;
687421720690638;-8.8179;-0.6191;-3.5231;
687421730791888;-11.1894;-0.4011;-1.7240;
687421740899179;-8.6189;0.5716;-0.5312;
687421751006523;-10.3173;0.1690;-2.4715;
687421761115586;-14.0207;0.9858;-2.4954;
687421771222877;-11.6635;0.5907;1.1121;
687421781330221;-4.1704;0.3679;0.0966;
687421791438815;-7.1770;-0.3915;-3.6045;
687421801546106;-12.9978;-0.1759;-3.9640;
687421811653450;-11.4410;0.3870;-1.7527;
687421821758815;-8.3794;0.1905;-1.9014;
687421831866106;-8.0943;0.0063;-2.3542;
687421841973450;-10.8299;-1.3950;-0.9936;
687421852089231;-11.0551;-0.1591;-0.2749;
687421862196523;-8.1541;-0.4944;-1.5132;
687421872303867;-8.1948;-1.6083;-4.4309;
687421882412981;-7.6080;-0.2883;-2.4452;
687421892520273;-10.5760;-1.7713;-0.2892;
687421902627617;-14.5621;-0.0224;-2.0836;
687421912726731;-9.1723;0.3703;-0.8450;
687421922834023;-6.1325;-0.9568;-1.7408;
687421932941367;-9.8049;-0.8201;-1.9493;
687421943031159;-10.1569;0.5213;-2.9100;
687421953138450;-12.4540;-0.1400;-2.7637;
687421963245794;-9.7998;0.4301;-0.0927;
687421973365273;-6.3721;-0.1208;0.0918;
687421983472565;-8.9303;-0.0320;-3.4059;
687421993579909;-14.3106;-0.8512;-2.6441;
687422003692252;-9.7615;1.5344;-0.2653;
687422013799544;-8.6740;-0.5614;0.8967;
687422023906888;-6.2521;0.4636;-2.1194;
687422034015846;-8.8250;-1.2969;-2.9985;
687422044123138;-10.8515;0.0996;-3.2572;
687422054230481;-12.4540;-0.0826;-1.2066;
687422064346940;-11.1655;0.7585;-0.8115;
687422074454231;-7.2009;0.0206;-1.0798;
687422084561575;-8.3148;1.0388;-3.0176;
687422094670794;-10.4922;-0.2883;-1.3624;
687422104778086;-11.5176;0.4902;-0.3467;
687422114885429;-10.3316;0.7247;-1.3026;
687422125049856;-8.3578;0.2124;-1.7073;
687422135157148;-8.7772;-0.0945;-1.5829;
687422145264492;-10.8876;-0.2524;-1.3648;
687422155318502;-9.5100;0.1522;-2.1051;
687422165425794;-7.7590;-0.3147;-1.8846;
687422175533138;-7.9603;-0.1232;-2.2247;
687422185626523;-10.5305;-0.5662;-3.1424;
687422195733815;-10.8491;-0.9520;-1.4964;
687422205841159;-9.9532;0.2363;-0.0329;
687422215937773;-10.3196;-0.2333;0.1253;
687422226045065;-11.0958;0.5046;0.3817;
687422236152409;-6.7074;-0.2309;-0.3682;
687422246264648;-8.4535;-0.6383;-2.3375;
687422256371940;-10.2550;-0.1974;-2.3471;
687422266479284;-11.0264;-0.4561;-1.0439;
687422276598554;-10.1713;-0.5375;-1.9804;
687422286705846;-7.1049;-0.0921;-2.9363;
687422296813190;-10.0107;-0.8130;-1.9158;
687422306916888;-11.1751;-0.8177;-1.3504;
687422317024179;-10.0131;-0.6837;-1.2018;
687422327131471;-9.3640;-0.1615;-0.8737;
687422337243502;-8.0130;-0.8154;1.1961;
687422347350794;-9.5291;-0.8058;-0.5192;
687422357458138;-10.1713;-1.1605;-1.9110;
687422367555169;-8.4392;-1.0525;-1.5251;
687422377662461;-10.0657;-0.7579;-1.5156;
687422387769804;-9.3951;-0.8970;-1.7862;
687422397891888;-6.5635;-0.7747;-2.1147;
687422407999179;-8.8585;-0.4131;-4.2514;
687422418106523;-8.4993;0.1187;-3.2644;
687422428207877;-5.0761;0.0278;-1.8727;
687422438315169;-2.7571;-0.0057;-3.6188;
687422448422513;-23.0997;-0.4322;-2.4595;
687422458520169;-32.0519;1.8843;7.5730;
687422468627461;-12.2148;4.3110;6.6697;
687422478734804;2.9895;-0.8584;2.7529;
687422488853711;-6.7672;-2.5881;8.5262;
687422498961002;-14.3587;0.3535;-0.8689;
687422509068346;-8.2238;-1.0932;-5.6049;
687422519160377;-6.5492;-3.2683;-7.4231;
687422529267617;-10.3149;-0.6431;-9.2818;
687422539374961;-8.1254;-0.2883;-4.4213;
687422549482252;-7.2033;-0.1567;-2.2008;
687422559599804;-9.1125;1.2927;-3.8106;
687422569707096;-7.2703;2.5645;-4.1770;
687422579814440;-7.7590;-0.0488;-1.8535;
687422589926211;-10.3125;0.1475;-1.9493;
687422600033502;-11.3019;0.8207;-0.2390;
687422610140846;-9.5004;-0.1137;3.2489;
687422620241731;-7.1315;0.3009;1.5123;
687422630349023;-10.1043;0.1211;0.2521;
687422640456367;-6.9494;-0.4537;3.7113;
687422650557773;-5.0904;-1.0454;-6.7020;
687422660665065;-20.0121;-1.4982;-24.7998;
687422670772409;-15.3957;1.2808;-15.7546;
687422680895169;-0.2587;2.0785;9.1633;
687422691002461;-3.9957;2.6318;6.9595;
687422701109804;-17.1230;3.1636;-8.5944;
687422711207981;-16.4880;2.1383;-3.7101;
687422721315273;-6.4582;0.9619;7.6041;
687422731422617;-3.1143;-1.5365;4.2909;
687422741524961;-9.9844;-0.5973;-3.1277;
687422751632252;-14.4760;-1.0334;-1.9062;
687422761739596;-8.4488;-0.8369;0.0126;
687422771845481;-8.4200;-0.6431;-4.3352;
687422781952773;-10.0899;-1.3424;-4.3807;
687422792060117;-5.1072;-1.1414;-0.0090;
687422802171523;-9.0670;-0.3051;-1.5132;
687422812278815;-13.1058;0.0087;-3.8967;
687422822386159;-9.5028;-0.1735;-1.2739;
687422832514961;-8.4512;-0.0754;-1.1898;
687422842622252;-8.4200;0.1738;-0.9407;
687422852729596;-8.9973;-0.3194;-0.3778;
687422862803606;-12.6817;0.1427;-2.5816;
687422872910898;-11.6758;0.3176;-0.7995;
687422883018242;-8.2717;-0.7412;1.7758;
687422893130221;-10.5640;0.4684;-1.5709;
687422903237513;-10.4348;-0.9185;-1.1228;
687422913344856;-8.7844;-0.7914;-0.5456;
687422923461002;-10.0732;-1.0502;-2.4188;
687422933568294;-10.3726;-0.5447;-2.6800;
687422943675638;-10.1498;-0.5662;-0.8569;
687422953788398;-10.2670;-0.7196;-0.5767;
687422963895690;-11.2995;-1.1171;-1.6546;
687422974003034;-9.8695;-0.7747;-0.5503;
687422984104648;-8.1999;-0.7699;0.6236;
687422994211940;-10.0780;-0.3987;-1.3624;
687423004319284;-10.8996;-0.8898;-2.7135;
687423014412877;-8.2382;-1.7545;-2.1051;
687423024520169;-10.0322;-0.3532;-2.6082;
687423034627513;-11.2612;0.7513;-2.4452;
687423044732877;-10.5999;-0.4657;-0.5097;
687423054840169;-8.7218;0.7848;-1.9277;
687423064947513;-10.1163;0.0541;-2.2247;
687423075079961;-11.2493;0.0589;-1.2739;
687423085187252;-7.2129;0.2219;-1.1157;
687423095294596;-5.9480;-0.4801;-1.5565;
687423105390221;-7.4166;-0.0392;-4.1028;
687423115497513;-9.2130;-0.6383;-5.5400;
687423125604856;-9.2946;-0.8970;-4.6585;
687423135742461;-9.1819;0.1857;-3.9206;
687423145849752;-7.7925;0.2626;-2.1458;
687423155957096;-9.6227;0.1164;-1.3504;
687423166029231;-8.6836;0.5405;-3.6957;
687423176136523;-12.8830;0.0254;-3.0607;
687423186243867;-12.2842;0.9571;1.0187;
687423196363919;-6.9422;0.4158;0.2330;
687423206471211;-10.6241;-0.2022;-2.4619;
687423216578554;-13.3334;-0.8082;-0.8067;
687423226697981;-11.2014;0.7056;2.1374;
687423236805273;-8.4945;0.3966;-1.1228;
687423246912617;-9.9628;-0.8465;-3.8871;
687423257001940;-11.6085;-0.6861;-2.1075;
687423267109231;-9.6323;-0.4992;-1.7791;
687423277216575;-7.4668;-0.7244;-2.8475;
687423287316627;-8.8179;-0.5495;-3.7172;
687423297423919;-8.9949;-0.5423;-2.3399;
687423307531263;-6.2402;-0.2812;-1.3169;
687423317640794;-8.1517;-0.5853;-2.9602;
687423327748086;-9.5557;-0.0682;-1.7456;
687423337855429;-7.7112;0.1546;0.2498;
687423347974752;-7.5936;0.3344;-2.9124;
687423358082044;-10.6720;0.0900;-4.3807;
687423368189388;-10.1809;-0.0778;-0.8545;
687423378304961;-8.7939;0.4926;-1.0175;
687423388412252;-6.4702;1.6998;-4.2371;
687423398519596;-5.9910;0.1235;-4.5532;
687423408622721;-6.0703;-1.1390;-3.4226;
687423418730013;-7.2248;0.8399;-5.2310;
687423428837356;-11.9704;1.5443;-6.4170;
687423438931523;-11.6133;1.2182;-2.9148;
687423449038815;-9.6826;0.8351;0.2091;
687423459146159;-2.2875;0.8399;-0.3467;
687423469254961;-3.3993;-0.5830;-4.2610;
687423479362252;-13.6161;-0.8680;-6.0287;
687423489469596;-47.1171;-1.1486;5.1556;
687423499583711;-32.2672;4.8117;20.2523;
687423509691002;12.1502;3.8916;4.0753;
687423519798346;7.2368;-10.6083;5.7835;
687423529897044;-7.1097;-4.0636;2.7051;
687423540004388;-18.8572;1.8772;-10.9421;
687423550111784;-19.4249;-4.8903;-5.1185;
687423560241940;-5.1622;-2.9043;-0.7636;
687423570349284;-2.6758;-0.7866;-8.5131;
687423580456679;-3.5166;-1.0190;-8.1512;
687423590545065;-7.7327;-1.2562;-2.9889;
687423600652409;-15.0174;-0.3580;-0.6676;
687423610759804;-11.4482;-0.3170;-0.3730;
687423620870794;-6.2952;0.4950;0.9948;
687423630978138;-10.2168;-0.3365;2.7724;
687423641085534;-15.4005;-0.3796;3.4860;
687423651174336;-13.9633;-0.9162;0.5348;
687423661281679;-13.4770;-2.2648;-0.4881;
687423671389075;-6.4822;-1.8359;2.7748;
687423681516315;-3.5094;-1.1749;4.5233;
687423691623659;-6.8728;-1.9220;0.6260;
687423701731002;-4.4533;-3.5342;-16.3271;
687423711835273;-26.2618;0.2315;-39.0389;
687423721942617;-22.6783;2.0303;-7.4471;
687423732050013;4.0651;2.6414;23.0118;
687423742143138;-1.8924;3.7816;3.8237;
687423752250481;-12.7729;1.3813;-8.7790;
687423762357877;-11.5463;-0.4681;-3.8800;
687423772470690;-5.7900;-0.8922;-0.2892;
687423782578034;-2.5223;-1.7139;-1.4797;
687423792685429;5.5385;-1.5987;-5.5953;
687423802793919;-9.2154;-0.8034;-7.2290;
687423812901263;-65.6582;-4.5212;6.6577;
687423823008659;-57.6380;3.0006;29.1778;
687423833133919;25.3660;11.7108;-2.8403;
687423843241263;25.7348;-22.1067;24.0467;
687423853348659;-19.6286;-7.8054;10.4091;
687423863433190;-23.5286;13.6989;-26.3139;
687423873540534;1.7345;-0.0033;-15.7379;
687423883647929;4.3262;-6.0616;-13.8165;
687423893755742;-5.3970;1.0002;-12.8584;
687423903863086;-6.9182;1.6400;-2.1960;
687423913970429;-6.7457;0.4086;-5.7245;
687423924132565;-9.8647;-0.8297;-8.9895;
687423934239909;-9.9317;-1.9965;-1.7575;
687423944347304;-7.6415;-0.7412;1.3684;
687423954391211;-10.9762;0.0805;1.6630;
687423964498554;-10.1043;0.8231;4.2359;
687423974605950;-7.7112;1.9896;1.9385;
687423984722356;-9.8695;-1.0167;-1.3217;
687423994829700;-10.3391;-3.0096;0.3431;
687424004937096;-9.9628;-1.9149;2.2717;
687424015036836;-11.3163;-0.1424;5.1221;
687424025144179;-2.8771;0.8901;10.8284;
687424035251523;7.8332;-3.1774;-15.3257;
687424045350638;-26.8200;-3.1965;-61.8966;
687424055457981;-32.2529;7.0872;-23.3842;
687424065565325;0.2037;14.4559;31.1997;
687424075687669;-10.4492;14.5947;12.9365;
687424085795013;-16.8141;9.6864;4.6983;
687424095902409;-7.6247;3.9709;5.0097;
687424106020377;-5.0880;-3.7307;8.3130;
687424116127721;-0.7307;-6.3275;7.0412;
687424126235117;-7.2512;-7.1276;-3.4442;
687424136326211;-13.9537;-6.1334;-2.0378;
687424146433554;-3.0398;-2.1162;2.1589;
687424156540950;-13.2230;-0.5662;-14.9857;
687424166662252;-19.8610;-0.6383;-14.7317;
687424176769596;-4.0938;0.2315;5.2588;
687424186876992;-2.0264;1.1273;2.5017;
687424196992148;-11.7858;1.9394;-6.4026;
687424207099492;-7.2703;-0.0535;3.3903;
687424217206888;-9.7137;-0.7914;0.4534;
687424227314752;-15.4965;-1.7880;-10.5132;
687424237422096;-7.3469;-4.9837;-3.0607;
687424247529492;-5.9504;-3.8025;2.9375;
687424257625638;-11.6204;-0.8417;-0.7684;
687424267732981;-8.2621;-0.3652;-0.6820;
687424277840377;-11.8648;0.7080;-4.8024;
687424287955481;-13.1417;1.6448;-5.1736;
687424298062825;-8.5065;1.8389;-2.4882;
687424308170221;-8.0895;1.6831;-6.1798;
687424318286940;-11.5917;-0.1950;-4.1602;
687424328394284;-6.7696;-0.0511;0.3936;
687424338501679;-8.1374;-1.1844;-5.6384;
687424348590065;-10.4516;-1.9220;-6.1750;
687424358697409;-7.2512;-1.4719;0.4439;
687424368804804;-7.0546;-2.2361;-0.5599;
687424378917565;-11.3856;-1.5748;-9.1573;
687424389024909;-10.8084;-0.8536;-4.8335;
687424399132304;-4.1632;0.5692;-0.4089;
687424409234388;-8.5448;0.5142;-5.8059;
687424419341731;-10.5520;0.1355;-6.7522;
687424429449127;-7.6681;0.2435;-4.2538;
687424439558138;-10.4492;0.1929;-5.3270;
687424449665481;-10.2957;-0.4825;-3.4370;
687424459772877;-12.0111;0.1881;-2.5935;
687424469887669;-10.4635;0.9260;-0.9936;
687424479995013;-9.5510;0.8782;0.0772;
687424490102409;-13.7213;0.5644;-2.7948;
687424500202252;-11.7930;0.7080;-1.8105;
687424510309596;-6.6045;-0.1184;2.7171;
687424520416992;-5.9169;-0.7938;-4.0382;
687424530532044;-11.0145;-1.8024;-6.8695;
687424540639440;-10.0298;-0.6550;-3.4083;
687424550746888;-7.6295;0.0900;-2.3423;
687424560854752;-7.9651;-0.2046;-3.2548;
687424570962148;-8.2502;-0.0488;-3.4537;
687424581069596;-9.9365;0.3296;-3.6236;
687424591171836;-9.2922;0.3703;-3.5160;
687424601279231;-7.7566;0.4421;-1.6068;
687424611386679;-8.5950;-0.3485;-2.4882;
687424621492981;-11.5439;-0.1831;-3.7531;
687424631600377;-10.5162;-0.6814;-0.7947;
687424641707825;-8.7290;-0.7747;-1.6857;
687424651816263;-10.9618;-0.2118;-4.2371;
687424661923659;-9.5291;-0.5949;-3.5231;
687424672031106;-9.1866;-0.3413;-2.6871;
687424682136002;-11.5678;0.0709;-3.7771;
687424692243398;-10.1617;0.4612;-4.0741;
687424702350846;-9.4860;0.0063;-2.8499;
687424712450065;-9.3329;-0.0849;-3.2572;
687424722557461;-9.3640;0.3033;-4.7327;
687424732664909;-8.8107;-0.0921;-4.3256;
687424742786419;-8.6166;-0.4178;-2.6441;
687424752893815;-8.5998;-0.7627;-2.5744;
687424763001263;-10.4779;-0.5782;-3.6188;
687424773089440;-10.1928;0.5668;-4.2108;
687424783196836;-8.4105;0.4301;-1.9875;
687424793304284;-6.1325;-0.6837;-2.9459;
687424803403086;-9.7041;0.2411;-4.8861;
687424813510481;-8.9471;0.7944;-5.2816;
687424823617877;-8.7867;0.2219;-5.2119;
687424833721523;-9.1962;0.0805;-5.3653;
687424843828919;-10.5233;0.4636;-4.0071;
687424853936315;-6.5779;0.8542;-3.9326;
687424864049179;-11.6013;-0.1926;-4.3759;
687424874156575;-12.9858;0.5668;-2.5098;
687424884264023;-8.1422;0.9858;-1.4079;
687424894374023;-8.5017;0.5788;-3.1205;
687424904481419;-9.9126;0.6218;-3.4322;
687424914588867;-9.6323;0.1953;-3.4322;
687424924712773;-8.5352;0.2387;-4.6059;
687424934820169;-9.3305;0.1953;-3.3194;
687424944927617;-9.9413;0.3799;-4.1602;
687424955013398;-10.5090;1.0125;-2.4858;
687424965120794;-8.1541;0.5716;-1.2858;
687424975228242;-6.7552;0.3200;-3.4657;
687424985344752;-8.5089;0.5237;-4.1459;
687424995452148;-10.4803;0.5788;-5.3557;
687425005559596;-12.0302;0.3344;-4.3232;
687425015664961;-10.7629;0.4660;-2.1601;
687425025772356;-8.3578;0.1546;-1.1444;
687425035879804;-8.7820;0.6458;-1.5278;
687425045989231;-10.4492;-0.4202;-2.4595;
687425056096627;-10.6552;0.4325;-2.5026;
687425066204075;-11.4960;-0.4083;-2.4021;
687425076298919;-8.5448;0.0470;-3.0224;
687425086406315;-7.4836;-0.2070;-2.9052;
687425096513763;-9.4119;-0.6096;-5.0779;
687425106621159;-11.2229;-0.1639;-3.6909;
687425116752148;-8.5304;-0.6383;-2.5600;
687425126859544;-6.4463;-0.2429;-3.5447;
687425136966992;-9.1890;-0.4681;-3.1567;
687425147079648;-8.2047;-0.7819;-4.4357;
687425157187044;-8.2406;-0.5495;-3.8680;
687425167294492;-9.3329;-0.9640;-5.0085;
687425177375898;-9.1579;-0.9066;-3.9401;
687425187483294;-8.6477;-0.9473;-4.3089;
687425197590742;-8.2358;-0.6742;-4.1841;
687425207714648;-8.9136;-0.8177;-4.7928;
687425217822044;-10.7940;-0.2166;-3.9278;
687425227929492;-9.8791;-0.8106;-3.3171;
687425238034648;-9.3305;-0.0826;-2.8741;
687425248142044;-9.2178;-0.2812;-2.8379;
687425258249492;-10.6505;-0.2524;-3.1998;
687425268363398;-10.6959;-0.4346;-1.2042;
687425278470794;-6.7528;-0.8632;-2.9913;
687425288578242;-8.3842;-0.3700;-3.3505;
687425298676106;-10.2335;-0.3532;-4.5389;
687425308783450;-9.2994;-0.2166;-3.9520;
687425318890950;-8.1398;-0.6622;-3.5064;
687425328985794;-7.6944;-0.6598;-2.3734;
687425339093190;-8.9016;-0.7938;-3.2381;
687425349200638;-9.2345;-0.9855;-2.9315;
687425359328398;-7.6753;-0.5112;-4.7207;
687425369435794;-8.3219;-0.4513;-2.6297;
687425379543242;-10.4252;-0.7268;-3.6332;
687425389641836;-10.1043;-0.4466;-3.4968;
687425399749231;-10.0059;-0.1472;-3.0488;
687425409856679;-9.0048;-0.6909;-1.4438;
687425419965221;-8.3770;-0.1926;-2.8475;
687425430072617;-9.5486;-0.0583;-2.5481;
687425440180065;-10.6481;-0.9903;-2.5696;
687425450283138;-7.9292;-0.7101;-4.9484;
687425460390534;-8.1063;0.1475;-3.6021;
687425470497981;-12.2889;-1.1438;-3.5542;
687425480611315;-15.1274;-0.6191;-3.4681;
687425490718711;-8.9590;0.1427;0.4032;
687425500826159;-4.0101;-0.0009;-0.2031;
687425510943086;-8.9447;-0.3123;-5.1688;
687425521050481;-11.6013;-1.0789;-5.1042;
687425531157929;-12.2435;-0.1902;-4.1913;
687425541252252;-9.5219;0.0494;-3.7196;
687425551359492;-6.9470;0.1762;-2.9483;
687425561466731;-9.5004;-0.5542;-3.1038;
687425571577981;-9.8480;-0.2788;-3.9879;
687425581685221;-24.4867;0.1618;-2.2845;
687425591792461;-29.3952;0.7295;6.7128;
687425601893502;-3.5955;2.5980;9.9012;
687425612000742;9.1508;1.1249;-0.9455;
687425622107981;-4.9585;-5.0794;-20.0378;
687425632219804;-11.4171;-6.7660;-15.0742;
687425642327044;-9.9628;0.5859;-0.0449;
687425652434284;-7.3397;3.9084;0.4893;
687425662533711;-5.1550;-0.0272;-12.0033;
687425672640950;-5.9264;-0.9066;-11.0713;
687425682748190;-6.5013;0.3368;-6.5151;
687425692859440;-8.5591;0.4205;-6.9846;
687425702966679;-9.1364;-0.1304;-5.4610;
687425713073919;-5.9575;-0.1352;-3.6356;
687425723175794;-7.7686;-0.2883;-4.5628;
687425733283034;-9.8886;0.6218;-4.8120;
687425743390273;-8.2765;0.8734;-4.2009;
687425753505377;-10.3726;1.1297;-3.4753;
687425763612617;-11.3809;-0.8994;-5.4251;
687425773719856;-11.8840;2.3034;-13.2775;
687425783832304;-24.0126;5.9949;-8.0028;
687425793939544;-21.0446;4.0020;9.2234;
687425804046784;-1.0875;0.8542;12.4502;
687425814163502;-3.4137;-0.6502;4.1952;
687425824270742;-11.6420;-3.0096;-4.6083;
687425834377981;-12.7849;-3.8267;-4.7689;
687425844462565;-7.5194;-2.5786;0.4415;
687425854569804;-4.0842;-1.3424;-4.3519;
687425864677044;-7.7255;-0.3676;-9.9598;
687425874790273;-7.6872;-0.7531;-4.6490;
687425884897513;-6.4558;-0.7340;-6.0024;
687425895004752;-8.6548;0.9093;-7.5093;
687425905103398;-6.5109;1.1082;-1.3313;
687425915210638;-4.2568;0.2913;-0.8856;
687425925317877;-6.6667;-0.5949;-3.7938;
687425935429752;-9.3329;-0.0873;-3.6356;
687425945536992;-9.5964;0.7008;-4.5915;
687425955644231;-12.6529;1.8820;-7.4351;
687425965787669;-11.0958;1.9322;-4.9914;
687425975894909;-12.3033;2.0471;-2.7326;
687425986002148;-10.7892;2.8352;-1.1348;
687425996066731;-9.8025;1.8820;0.3793;
687426006173971;-10.9116;1.4124;-1.5470;
687426016281211;-11.5893;0.3942;-2.3303;
687426026378606;-8.0297;-1.2682;-0.5910;
687426036485846;-9.5219;-0.8417;-2.5050;
687426046593086;-9.7448;-0.2333;-3.9736;
687426056731731;-8.0847;-1.4886;-3.2859;
687426066838971;-8.9399;-0.6742;-3.7077;
687426076946211;-10.3774;-0.6981;-2.4619;
687426087021471;-8.5543;-1.7569;-1.0822;
687426097128711;-7.0834;-0.6120;-1.0750;
687426107235950;-7.3974;-0.5949;-2.1147;
687426117367981;-9.4597;-0.1926;-2.6656;
687426127475221;-9.3927;-0.7627;-2.2965;
687426137582461;-7.9508;-0.6526;-3.4872;
687426147697461;-7.6534;-0.3556;-4.6705;
687426157804700;-8.8537;-0.6239;-3.9760;
687426167911940;-11.6228;-0.1639;-3.1086;
687426178001002;-10.9594;-1.1797;-0.9622;
687426188108242;-8.8537;-0.2381;-0.8952;
687426198215481;-8.9016;-0.3628;-1.9636;
687426208336836;-7.6487;-0.4561;-2.3542;
687426218444075;-8.9279;-1.2730;-4.1339;
687426228551315;-10.6313;-0.8632;-5.2214;
687426238644544;-10.7462;-1.0047;-3.0511;
687426248751784;-6.9517;-1.1076;-2.3061;
687426258859023;-11.0958;-0.7603;-4.5915;
687426268981836;-12.7080;-1.1868;-2.2941;
687426279089075;-7.1842;-1.1725;0.6930;
687426289196315;-7.0810;-0.6574;-1.6379;
687426299297721;-9.3760;-0.6431;-5.0010;
687426309404961;-12.0685;-1.3878;-2.9004;
687426319512200;-10.6528;-2.0276;1.2392;
687426329617461;-7.1169;-1.7880;0.5204;
687426339724700;-6.8752;-1.5293;-5.0324;
687426349831940;-10.5664;-1.2132;-5.6623;
687426359945221;-9.2010;-0.1208;-2.3518;
687426370052461;-8.2406;-0.6502;-1.0175;
687426380159700;-8.7218;-0.7077;-1.9469;
687426390271940;-7.7949;-0.1519;-2.3085;
687426400379179;-8.2693;-0.0897;-2.4882;
687426410486419;-6.7744;0.5237;-3.8824;
687426420589023;-9.5195;-0.1065;-5.2863;
687426430696263;-14.4664;0.7199;-2.5074;
687426440803502;-11.5606;0.8471;2.8059;
687426450904648;-11.4242;1.9705;1.7949;
687426461011888;-13.4530;2.2866;-0.7780;
687426471119127;-11.4147;0.7848;-0.3514;
687426481231523;-11.0408;0.6410;0.3745;
687426491338763;-8.0154;0.6840;-1.1061;
687426501446002;-9.9054;-1.0717;-2.4619;
687426511557773;-13.7046;-0.7460;-3.4298;
687426521665013;-11.6420;1.9346;0.2498;
687426531772252;-7.4309;1.5538;1.4524;
687426541882252;-7.4883;1.1704;-2.8427;
687426551989596;-11.1464;-0.1113;-3.1424;
687426562096940;-10.7510;0.1929;-1.1898;
687426572205273;-6.6619;0.8662;-1.0989;
687426582312617;-10.3173;0.8040;-3.5901;
687426592419961;-12.2913;1.2422;-2.2606;
687426602515169;-7.3828;-0.0849;2.2980;
687426612622513;-5.4640;0.7128;-1.3122;
687426622729856;-10.8347;0.4110;-5.6934;
687426632829648;-9.4980;-2.0396;-5.4203;
687426642936992;-7.8547;-0.4202;-5.4467;
687426653044336;-7.1746;-1.1725;-6.6781;
687426663124961;-10.5473;-0.4777;-6.2946;
687426673232304;-11.3474;-0.1137;-3.5375;
687426683339648;-7.8643;0.8662;-2.8618;
687426693481002;-10.2024;-0.3628;-2.4380;
687426703588294;-9.7902;0.9835;-1.7575;
687426713695690;-7.5577;0.2674;-0.5791;
687426723801211;-9.7448;0.3511;-3.4035;
687426733908554;-11.3569;-0.0897;-1.9038;
687426744015898;-8.4993;-0.4825;-1.4414;
687426754111211;-8.2860;0.3344;-3.8154;
687426764218554;-8.3339;-0.3676;-3.1496;
687426774325898;-10.0875;-0.4322;-1.8655;
687426784432877;-10.2239;0.2267;-2.5457;
687426794540221;-9.3425;0.3990;-2.6919;
687426804647565;-6.4822;0.1020;-1.9899;
687426814779284;-9.3975;-0.4825;-1.7599;
687426824886627;-10.9642;0.5716;-0.7083;
687426834993971;-9.5821;0.2770;1.6944;
687426845101627;-9.4621;-0.1878;-0.2725;
687426855208971;-9.7854;0.4373;-1.8894;
687426865316315;-9.0455;-0.1352;-0.3060;
687426875431211;-9.9532;0.3679;0.3072;
687426885538554;-11.4888;0.8566;-0.3658;
687426895645898;-7.6199;0.7008;-1.0247;
687426905736627;-10.0274;-0.1519;-1.3528;
687426915843971;-10.9427;1.1441;-1.0582;
687426925951315;-7.6801;0.9523;-1.7527;
687426936048398;-6.3434;0.3440;-3.7723;
687426946155742;-8.2813;-0.0153;-2.7374;
687426956263086;-7.7016;1.0101;-2.4356;
687426966381627;-8.6309;0.0541;-3.5040;
687426976488971;-13.9825;-0.2500;-3.3314;
687426986596315;-14.6148;0.6721;-0.7131;
687426996712356;-10.1904;0.3775;2.5519;
687427006819700;-7.2272;-0.4346;3.3568;
687427016927044;-4.8652;-1.3472;0.1493;
687427027029388;-9.1890;0.4062;-4.7279;
687427037136731;-14.4616;-0.1089;-3.7675;
687427047244075;-12.0948;0.0757;-1.8153;
687427057357773;-6.0102;0.5883;-3.5064;
687427067465117;-6.1971;-0.3051;-2.4595;
687427077572461;-10.7342;-0.3867;-3.7962;
687427087665377;-12.0183;0.5333;-4.9699;
687427097772721;-8.6166;1.0340;-1.9421;
687427107880065;-6.1971;-0.1017;-1.3768;
687427117994752;-8.6859;1.1417;-2.6465;
687427128102096;-11.0192;0.6745;-1.3002;
687427138209440;-8.9351;1.6280;-1.7456;
687427148301731;-8.3052;0.9308;-0.6676;
687427158409075;-7.7949;0.3057;0.4104;
687427168516419;-8.3291;1.2422;-1.2667;
687427178638294;-10.4300;-0.0296;-2.3853;
687427188745638;-9.6371;0.1187;-5.4395;
687427198852981;-13.5969;-0.1783;-9.0353;
687427208971419;-9.9580;-0.9425;-3.9015;
687427219078763;-5.0330;0.4564;2.4344;
687427229186106;-6.1971;-0.3939;1.5577;
687427239281419;-8.8825;-0.6168;-2.6680;
687427249388763;-12.7415;-0.2070;-3.0559;
687427259496106;-12.1499;-0.2381;-1.1372;
687427269602877;-8.6213;1.2589;0.2450;
687427279710221;-7.3469;-0.3123;-1.0630;
687427289817565;-8.3842;0.2674;-2.6225;
687427299923190;-12.5429;0.3559;-3.4107;
687427310030534;-11.9680;0.8160;-2.4835;
687427320137877;-9.3879;0.6218;-0.9431;
687427330225273;-9.3640;0.2794;-1.8129;
687427340332617;-10.8395;0.6960;-1.1133;
687427350439961;-7.6223;0.9356;-0.4017;
687427360562148;-7.7638;0.1570;-1.7791;
687427370669492;-10.9834;-0.7077;-2.6297;
687427380776836;-11.4194;0.6170;-1.2858;
687427390895377;-6.8390;-2.2409;-3.2620;
687427401002721;-8.7389;-1.9582;-5.5738;
687427411110065;-10.3989;-0.1567;-3.4944;
687427421204648;-11.0025;0.4926;0.0870;
687427431311992;-11.1464;1.0484;0.4965;
687427441419336;-7.9026;1.1752;-0.5145;
687427451522148;-10.2048;-0.8850;-1.5302;
687427461629492;-9.0885;-0.8130;0.2282;
687427471736836;-5.4425;0.7247;-0.5025;
687427481848398;-11.7428;-0.2979;-4.2156;
687427491955742;-14.4664;0.8088;-3.3960;
687427502063086;-6.7146;3.4463;-0.0329;
687427512172148;-3.7011;0.2770;-2.3061;
687427522279492;-10.5066;-1.8455;-6.1822;
687427532386836;-11.6901;-0.4346;-3.8824;
687427542486731;-9.3305;1.8772;-1.7647;
687427552594023;-10.3726;1.8772;-1.4701;
687427562701315;-9.1675;0.1164;-0.3778;
687427572812773;-6.7935;1.4315;-2.4452;
687427582920065;-9.6634;0.3105;-2.9076;
687427593027356;-10.9834;-0.6694;-2.2128;
687427603123398;-10.0298;1.1058;-0.0640;
687427613230690;-9.8575;0.6888;0.8725;
687427623337981;-10.4157;1.3167;-1.6738;
687427633445794;-8.6477;0.4998;-1.5422;
687427643553086;-7.9026;-1.4456;-1.0487;
687427653660377;-8.8872;-0.5590;-3.2716;
687427663779961;-9.3688;0.2578;-4.2275;
687427673887252;-9.2441;0.1953;-2.1697;
687427683994544;-8.9327;0.0972;0.2282;
687427694103346;-11.3210;-0.2644;-1.8703;
687427704210638;-10.7318;1.0172;-3.0272;
687427714317929;-9.2297;0.5692;-0.2653;
687427724404231;-12.1427;-1.0167;0.2856;
687427734511523;-8.0800;-0.1878;-0.6748;
687427744618815;-8.7437;-0.3194;-0.4543;
687427754744440;-9.6610;0.7657;-1.5179;
687427764851731;-10.7342;-0.5590;-2.2463;
687427774959023;-12.2530;-0.4178;-3.5566;
687427785051523;-8.6572;0.8375;-3.8393;
687427795158815;-8.8083;-0.7005;0.4582;
687427805266106;-12.4110;-1.8694;1.2559;
687427815374961;-5.7419;1.3549;-2.6776;
687427825482252;-1.2000;0.5788;-4.7809;
687427835589544;-11.4841;-0.5566;-5.6384;
687427845714336;-17.5687;0.0398;-4.1459;
687427855821627;-9.5533;0.7418;1.2583;
687427865928919;-4.6735;-0.2764;-0.5312;
687427876018711;-12.2961;0.0326;-3.8895;
687427886126002;-7.3516;0.1642;-0.5647;
687427896233294;-6.9948;-0.8922;1.6080;
687427906372304;-8.6788;0.1020;-4.2227;
687427916479596;-14.8615;-0.5758;-4.5341;
687427926586888;-11.8050;-0.3389;-2.0859;
687427936671106;-4.3884;-0.4872;-2.7494;
687427946778398;-7.4836;-0.5279;-4.8981;
687427956885690;-8.8107;-0.2644;-2.2152;
687427966999023;-9.5148;-0.1161;-2.3085;
687427977106315;-15.1514;-0.0081;-4.8120;
687427987213606;-12.0326;1.5538;-1.4198;
687427997327148;-8.0536;-0.8465;2.9231;
687428007434440;-8.3243;-1.4192;-1.4222;
687428017541731;-9.8599;1.7907;-1.8703;
687428027621106;-8.4849;-0.5064;1.1432;
687428037728398;-8.1589;0.0637;-2.9961;
687428047835690;-16.0546;-0.2524;-5.0300;
687428057969804;-10.4539;-1.0908;-0.3084;
687428068077096;-7.7830;0.2387;-0.3586;
687428078184388;-3.9838;1.3262;-4.0071;
687428088292461;-10.7533;-0.1232;-4.3687;
687428098399752;-14.1766;-0.6479;-2.9411;
687428108507044;-5.5744;1.8628;-3.8680;
687428118597044;-12.3966;-1.1940;-2.5768;
687428128704336;-3.2387;-0.5040;1.1985;
687428138811627;2.3118;-0.7555;-1.8751;
687428148915221;-14.4927;-1.0502;-12.2788;
687428159022513;-28.2356;0.4878;-5.3103;
687428169129804;-5.3444;2.1670;11.2140;
687428179246211;2.1559;1.8556;1.6415;
687428189353502;-11.6925;-1.1291;-11.7565;
687428199460794;-12.3368;-1.9654;-3.1591;
687428209572981;-8.3985;1.4171;2.4081;
687428219680273;-10.4037;1.6878;-2.0426;
687428229787565;-9.5892;0.3392;-5.1975;
687428239893502;-7.5171;0.0015;-1.5876;
687428250000794;-4.9298;0.5979;-3.1615;
687428260108086;-12.9428;0.8877;-6.6972;
687428270211002;-12.2339;0.5668;-0.0449;
687428280318294;1.1907;0.7466;1.0666;
687428290425586;-6.4415;-0.0802;-8.5681;
687428300541211;-17.8490;0.3799;-3.8130;
687428310648502;-16.1528;1.1871;6.0541;
687428320755794;-9.0933;1.6137;5.8600;
687428330848398;-5.8116;0.6218;2.9949;
687428340955690;-8.8729;-0.7938;-2.2726;
687428351062981;-11.7906;-0.5016;-5.4993;
687428361200377;1.6098;-0.5351;2.2406;
687428371307669;5.9599;-0.9425;-4.7976;
687428381414961;-23.5167;-0.2716;-14.0489;
687428391515481;-26.4871;2.7562;-2.1314;
687428401622773;-5.1000;1.0962;10.2894;
687428411730065;12.4038;1.6017;0.4104;
687428421828502;-2.2516;-0.7412;-11.9842;
687428431935794;-43.9693;-2.7607;-3.0607;
687428442043086;-64.9565;5.2403;22.7554;
687428452148502;-20.0815;15.6368;12.7974;
687428462255794;38.2753;-6.6389;6.8399;
687428472363086;16.3660;-19.2990;25.7740;
687428482463554;-38.2944;2.3539;-11.4739;
687428492570846;-24.0724;4.8404;-20.3324;
687428502678138;6.2859;-4.4710;1.0594;
687428512792356;7.0164;-2.0348;-8.6495;
687428522899648;-2.3812;-1.3352;-15.9126;
687428533006940;-3.0876;-2.3366;-12.6787;
687428543106523;-3.8518;-2.3198;-13.2679;
687428553213815;-8.9231;-1.6585;-11.4835;
687428563321106;-9.4454;-2.2792;-2.9506;
687428573419856;-6.3817;-1.9487;0.1923;
687428583527096;-11.6181;-0.7268;2.1278;
687428593634440;-16.2727;0.6051;10.1791;
687428603745898;-7.0259;1.9250;20.2116;
687428613853190;-17.6644;-3.0123;-6.3162;
687428623960481;-40.4767;-4.1524;-7.6146;
687428634118763;-7.4237;3.0556;21.7926;
687428644226054;13.4411;2.1000;14.6204;
687428654333346;-8.7051;-3.1487;-4.9866;
687428664394752;-24.2423;0.8710;-37.0098;
687428674502044;-21.4684;5.6524;-41.0558;
687428684609336;-35.0103;4.7949;-10.5347;
687428694727773;-10.0681;9.7511;20.3743;
687428704835065;14.4114;5.0536;13.8586;
687428714942356;-5.8977;-7.6881;1.3253;
687428725035481;-19.8251;-7.9732;4.0346;
687428735142773;-8.6429;-1.3208;12.1675;
687428745250065;1.1426;-1.5796;5.7882;
687428755357044;-6.8055;-4.1118;-6.7379;
687428765464336;-13.0050;-1.5508;-7.8326;
687428775571627;-8.1685;0.3918;0.9230;
687428785678815;-6.9422;0.9954;-2.3375;
687428795786106;-15.3550;0.7343;-13.8909;
687428805893398;-15.7672;1.0002;-8.6877;
687428816006627;-6.8632;1.1608;1.1264;
687428826113919;-3.9117;1.3238;-2.3375;
687428836221211;-4.0842;-0.5518;-9.5719;
687428846341471;-1.3152;-1.7234;-16.1019;
687428856448763;-5.2989;-4.3008;-15.3640;
687428866556054;-5.2845;-1.8144;-7.6672;
687428876652252;-8.8513;1.8652;-3.3338;
687428886759544;-15.5085;2.2651;-8.0889;
687428896866836;-18.2034;3.7863;-4.0023;
687428906981731;-9.3449;4.3134;-2.9818;
687428917089023;-2.6638;1.6041;-2.1290;
687428927196315;-20.7473;-0.2668;-0.7923;
687428937292773;-24.9180;0.1834;0.5779;
687428947400065;-11.5774;0.1403;3.6036;
687428957507356;-9.3879;-2.0348;5.2756;
687428967616731;-8.0441;-3.9775;4.0561;
687428977724023;-6.4606;-4.0253;-2.1003;
687428987831315;-6.0655;-4.0878;-5.8684;
687428997944961;-4.1994;-4.1548;-10.2736;
687429008052252;-3.5979;-3.1295;-14.6480;
687429018159544;-5.2436;0.8614;-15.0838;
687429028268190;-9.4143;2.3659;-11.3348;
687429038375481;-7.3588;3.3000;-6.3500;
687429048482773;-4.6448;2.2795;-3.9616;
687429058584752;-4.2832;1.2135;-3.1181;
687429068692044;-7.7710;1.1249;1.8930;
687429078799336;-10.4683;1.1273;5.0982;
687429088908919;-7.8380;0.2148;4.0322;
687429099016211;-11.0432;-0.2644;-1.1133;
687429109123502;-10.6505;-1.3519;-3.1325;
687429119219648;-11.0527;-0.1161;-1.5709;
687429129326940;-10.5114;1.1106;-1.3983;
687429139434231;-5.1861;1.3071;-0.7708;
687429149551263;-5.5816;1.3167;-10.5562;
687429159658554;-11.6659;4.1982;-11.5505;
687429169765846;-11.2516;6.3206;-6.3401;
687429179870065;-15.4606;6.4549;-8.4817;
687429189977356;-13.9609;3.6544;-0.0688;
687429200084648;-11.1416;-0.0559;7.1632;
687429210201315;-12.1666;-0.7651;5.3809;
687429220308606;-9.0790;-3.1295;5.8863;
687429230415898;-12.5596;-3.8025;8.0231;
687429240504336;-1.3558;-5.1296;1.5003;
687429250611627;-5.2005;-3.1534;-12.4415;
687429260718919;-10.6170;-1.5269;-9.0449;
687429270841836;-11.6707;-0.6215;-1.3457;
687429280949127;-10.5879;-0.7699;-3.4250;
687429291056419;-2.0169;-1.6995;-2.8765;
687429301155638;-4.6496;1.0292;-6.8312;
687429311262929;-11.5750;1.0819;-4.8503;
687429321370221;-9.0503;-1.1821;-1.9804;
687429331497148;-9.8073;0.6290;-5.8684;
687429341604440;-10.8323;-0.9066;-1.4844;
687429351711731;-10.5138;-1.5078;2.5711;
687429361802669;-9.8791;0.4831;-3.2620;
687429371909961;-11.8552;-0.2094;-3.2836;
687429382017252;-11.4242;0.3033;-1.9828;
687429392133606;-9.9915;0.0254;-3.1759;
687429402240898;-7.5888;-0.9951;-4.0813;
687429412348190;-6.5973;-1.9196;-3.3888;
687429422437669;-9.9724;-0.3652;-8.3094;
687429432544961;-8.4081;0.5237;-7.5811;
687429442652252;-10.6792;-1.2897;-5.3916;
687429452757773;-8.8107;-1.7761;-1.3002;
687429462865065;-7.6128;-1.1773;-3.5901;
687429472972356;-8.1206;-0.7603;-6.2468;
687429483077877;-8.2597;0.1187;-3.3936;
687429493185169;-11.1607;1.0172;-2.7781;
687429503292461;-10.9068;0.8710;-5.4179;
687429513407148;-9.1340;1.2975;-2.6776;
687429523514440;-4.4557;-0.1161;-2.1673;
687429533621731;-11.7595;1.7142;-5.0372;
687429543750794;-13.7716;0.5189;-2.1912;
687429553858138;-5.8211;1.7166;-1.3289;
687429563965481;-6.7576;0.1522;-5.5834;
687429574020377;-13.0149;1.4746;-6.4911;
687429584127721;-9.4143;1.6137;-1.6499;
687429594235065;-8.3746;1.6926;-4.0119;
687429604375273;-8.9495;1.6328;-4.0573;
687429614482617;-8.7867;-0.6550;-0.5695;
687429624589961;-8.4969;0.5453;-2.6943;
687429634681211;-9.4621;-0.5423;-4.7904;
687429644788554;-10.9786;-1.0525;-2.6656;
687429654895898;-7.3014;0.0517;-1.9828;
687429665004856;-6.9876;-0.4777;-4.2658;
687429675112200;-10.8036;-0.2070;-4.4405;
687429685219544;-10.6433;-0.8803;-3.3482;
687429695350117;-9.4621;0.5644;-1.3576;
687429705457461;-7.4907;-0.1591;-3.4609;
687429715564804;-10.0828;0.1427;-3.8273;
687429725682773;-8.5448;-0.1974;-1.3600;
687429735790117;-11.3450;0.3464;-4.4815;
687429745897461;-9.8145;-0.2118;-2.8403;
687429755976627;-9.0144;-0.7244;-3.8273;
687429766083971;-8.2860;-0.5207;-2.7494;
687429776191315;-8.4464;-0.2835;-2.7613;
687429786301888;-10.8251;-0.3915;-5.2262;
687429796409231;-9.6730;0.1522;-3.7747;
687429806516575;-8.6644;0.2100;-2.6584;
687429816625481;-8.2813;-0.5590;-3.1543;
687429826732825;-6.8704;-0.2620;-4.4767;
687429836840169;-9.8145;0.3464;-6.4433;
687429846959648;-12.4158;0.9452;-5.0683;
687429857066992;-10.1067;2.7179;-2.3204;
687429867174336;-4.2353;-0.1926;-1.0917;
687429877261940;-8.6237;0.2171;-4.1770;
687429887369284;-9.9891;0.3464;-3.8776;
687429897476627;-9.1986;0.3416;-4.7665;
687429907612981;-11.1894;0.7223;-3.8847;
687429917720325;-7.9890;-0.0897;-3.3338;
687429927827669;-6.8079;0.4397;-3.7412;
687429937921002;-7.7686;-0.3051;-4.7976;
687429948028346;-9.7950;0.6338;-6.1415;
687429958135690;-11.6901;0.4950;-4.0478;
687429968242981;-9.3832;-0.5997;-0.7131;
687429978350325;-4.8580;0.2076;-1.4773;
687429988457669;-10.3702;-0.1711;-4.5867;
687429998561523;-12.1977;-0.2548;-2.5481;
687430008668867;-8.4754;0.4807;-2.4691;
687430018776211;-10.1354;-0.4250;-4.0382;
687430028865898;-8.3507;0.2291;-1.1468;
687430038973242;-7.2464;0.1140;-2.8642;
687430049080586;-11.7452;0.0087;-4.3519;
687430059212356;-10.7270;0.1881;-2.0955;
687430069319700;-10.4779;-0.1400;-2.4141;
687430079427044;-7.6391;-0.0057;-2.9722;
687430089528919;-7.9938;0.1044;-2.8307;
687430099636263;-11.1293;-0.3532;-3.4585;
687430109743606;-10.9427;-0.1926;-2.9172;
687430119850794;-6.1899;-0.7077;-2.7278;
687430129958138;-7.0738;-0.3485;-4.5628;
687430140065481;-11.2899;0.0326;-3.4083;
687430150159752;-9.2536;-0.0897;-3.5016;
687430160267096;-9.1819;0.2171;-5.1640;
687430170374440;-11.1269;0.6984;-3.0679;
687430180495377;-9.3903;1.2589;-1.0247;
687430190602721;-7.1770;0.2650;-3.0631;
687430200710065;-8.8490;0.2650;-3.6188;
687430210813971;-9.3951;1.0460;-4.1100;
687430220921315;-10.7653;0.5788;-4.2826;
687430231028659;-7.9217;0.8566;-4.2060;
687430241142669;-8.1661;0.5572;-6.0742;
687430251250013;-9.7304;0.8806;-5.4036;
687430261357356;-10.2622;1.3717;-4.1172;
687430271453606;-10.4922;1.1656;-4.1076;
687430281560950;-8.2525;0.4974;-2.5313;
687430291668294;-8.1254;0.2171;-2.3471;
687430301779804;-9.3449;0.7343;-1.3672;
687430311887148;-12.8064;-0.8755;-2.5361;
687430321994492;-11.3163;-1.8263;-2.6536;
687430332085377;-1.4492;1.2422;-2.6608;
687430342192721;-6.4032;0.4062;-4.2084;
687430352300065;-11.3545;-0.4059;-6.9751;
687430362417044;-12.4950;0.7537;-5.5161;
687430372524388;-7.7016;0.2028;-2.2008;
687430382631731;-4.1728;-1.2060;-2.9004;
687430392755169;-9.2656;0.4445;-3.7795;
687430402862513;-13.5440;-0.1208;-2.9459;
687430412969856;-11.3976;-0.3843;-1.9325;
687430423041315;-6.5468;-0.4968;-0.8904;
687430433148659;-10.2479;-0.6287;-1.6499;
687430443256002;-10.4204;-3.2300;-1.6164;
687430453373502;-11.2110;-1.8287;-3.6069;
687430463480846;-7.4261;-1.0262;-2.9841;
687430473588190;-9.2584;-0.4968;-3.6117;
687430483712669;-9.0479;-1.2227;-3.0009;
687430493820013;-8.2095;-0.8827;-3.5495;
687430503927304;-8.6022;0.1522;-3.7460;
687430514022773;-9.2656;-0.9281;-3.2524;
687430524130117;-9.6921;-0.3772;-2.9554;
687430534237461;-8.1230;-1.0765;-1.9732;
687430544363867;-9.6562;-0.0559;-3.8536;
687430554471159;-10.7318;-0.0105;-1.7408;
687430564578502;-9.4789;-0.3915;-1.6570;
687430574695534;-12.6242;-0.9927;-2.3997;
687430584802825;-6.5850;0.8853;-3.2261;
687430594910169;-7.3134;-0.1639;-2.7876;
687430605008919;-9.1101;-0.0897;-3.9688;
687430615116211;-11.5032;-0.4059;-5.4849;
687430625223554;-12.7295;-0.0153;-4.1794;
687430635318398;-8.4607;1.5200;-1.3839;
687430645425690;-5.7060;-0.6215;-1.6929;
687430655533034;-9.7232;-0.2764;-3.2477;
687430665645898;-10.7629;0.0900;-2.0234;
687430675753190;-8.2382;-1.0095;-2.5648;
687430685860534;-7.9914;0.0757;-5.5857;
687430695962981;-10.3798;-0.2692;-4.4958;
687430706070273;-9.4813;0.3033;-3.4370;
687430716177617;-8.9303;-0.3867;-3.9206;
687430726277565;-11.5487;-0.3485;-4.7402;
687430736384856;-8.4778;0.6099;-3.4178;
687430746492200;-8.1781;0.1690;-3.9497;
687430756594856;-8.9901;-0.2764;-2.9435;
687430766702148;-11.7978;0.4564;-2.9052;
687430776809492;-12.7896;0.1092;-2.5217;
687430786925481;-5.9073;-0.1400;-1.0463;
687430797032773;-4.6352;0.1140;-3.9015;
687430807140117;-8.4802;-0.2237;-5.0683;
687430817246419;-9.3879;-0.0559;-5.7461;
687430827353711;-9.7878;0.1642;-6.3257;
687430837461054;-8.1805;0.1259;-5.0850;
687430847568138;-6.3144;-0.0057;-2.8187;
687430857675429;-7.4620;-0.1424;-3.6667;
687430867782773;-10.8757;-0.0655;-4.2227;
687430877897304;-9.6467;0.4612;-3.0918;
687430888004596;-9.1747;0.2411;-2.7900;
687430898111940;-13.0173;-0.6048;-2.2965;
687430908224440;-8.9327;1.0723;-1.2739;
687430918331731;-9.2707;0.4854;-0.2103;
687430928439075;-10.2885;1.4339;-2.3782;
687430938528971;-10.1450;0.3727;-2.9459;
687430948636263;-12.2818;0.2961;-3.0009;
687430958743606;-9.3042;0.3105;-1.1994;
687430968857669;-6.3434;-0.0897;-1.6331;
687430978964961;-5.3539;-1.3280;-3.8871;
687430989072304;-14.1239;0.5644;-4.2873;
687430999177877;-18.3326;-0.2381;-2.2463;
687431009285169;-6.7361;0.4062;0.0150;
687431019392513;-2.1081;-0.1902;-0.7708;
687431029506731;-8.7820;-0.8608;-4.5891;
687431039614023;-13.0531;0.0685;-4.9819;
687431049721367;-2.5223;0.3823;-4.1794;
687431059827981;-7.2775;0.1546;-7.7704;
687431069935273;-21.4134;1.2182;-4.6896;
687431080042617;-7.7853;0.3081;0.5515;
687431090151002;1.4252;-0.2524;-2.6321;
687431100258294;-7.6008;-0.5662;-5.5929;
687431110365638;-15.0293;0.3918;-6.3138;
687431120469127;-14.4855;0.6984;-5.3151;
687431130576419;-7.3974;0.5429;-0.7277;
687431140683763;-5.1144;-0.2907;1.3062;
687431150777669;-4.2520;-1.0071;-6.1104;
687431160884961;-13.7213;-0.7579;-11.7876;
687431170992304;-15.5707;0.9978;-3.4585;
687431181109961;-8.8825;-1.3065;-0.5121;
687431191217252;-8.0321;0.3320;-1.4916;
687431201324596;-9.4645;-0.6526;0.5611;
687431211436940;-11.7547;-0.8970;3.0885;
687431221544231;-4.7142;-1.1100;1.0499;
687431231651575;-11.8098;-1.4169;-13.6537;
687431241765221;-18.0524;-1.2562;-5.9952;
687431251872513;-5.8546;2.4353;5.9991;
687431261979856;-4.7623;-0.1639;-2.4715;
687431272075377;-12.5644;-1.3567;-6.1415;
687431282182669;-12.6290;-0.4394;-2.8813;
687431292290013;-9.1436;0.6577;-1.2425;
687431302394336;-8.4009;-0.5830;-2.4930;
687431312501627;-11.6037;-0.7244;-3.9688;
687431322608971;-10.0851;0.1834;-0.8737;
687431332704648;-7.6681;0.1403;-4.0358;
687431342811940;-6.0030;0.2841;-4.7928;
687431352919284;-7.3564;-1.0214;-5.7724;
687431363030221;-7.3998;0.1235;-5.8780;
687431373137513;-7.6199;-0.2500;-8.0794;
687431383244856;-9.3592;0.6697;-6.7642;
687431393358919;-9.8862;-0.4968;-4.5939;
687431403466211;-10.0442;0.0302;-4.1865;
687431413573554;-8.4634;-0.3724;-1.6235;
687431423752252;-10.9714;0.4229;-1.4198;
687431433859544;-12.0206;-0.2596;-1.5012;
687431443966888;-12.1953;0.3129;-1.4557;
687431454002044;-11.9584;1.5296;-1.2042;
687431464109336;-11.0192;1.1249;-2.2199;
687431474216679;-7.5529;1.3693;-1.3241;
687431484320377;-7.7064;0.5859;-2.5098;
687431494427669;-9.4573;0.0182;-2.7446;
687431504535013;-8.8992;-0.1232;-3.6117;
687431514644961;-8.9064;0.1164;-3.9063;
687431524752252;-9.4478;-0.2213;-2.8283;
687431534859596;-5.5119;-0.4777;-1.8655;
687431544958294;-5.7972;-0.5686;-5.2047;
687431555065534;-10.7175;-0.0730;-6.5677;
687431565172773;-10.0899;0.1044;-4.1507;
687431575290065;-7.9651;0.5644;-2.9841;
687431585397304;-9.7184;0.1570;-4.1195;
687431595504544;-10.8538;1.5248;-3.0368;
687431605628190;-8.2071;0.4735;-2.2702;
687431615735429;-8.3004;1.0699;-2.5098;
687431625842669;-10.6481;0.3966;-3.0894;
687431635937669;-11.9895;0.8399;-1.9588;
687431646044909;-11.7045;-0.2094;-1.5156;
687431656152148;-8.0010;0.2794;-0.4543;
687431666253502;-8.3746;-1.0813;-3.1014;
687431676360742;-8.6740;-1.7928;-4.1124;
687431686467981;-12.2411;-1.3735;-4.6705;
687431696585377;-8.8394;0.0278;-2.5170;
687431706692617;-7.5099;-0.2596;-4.7833;
687431716799856;-10.7605;0.4735;-4.0956;
687431726896836;-11.5822;0.6769;-2.1003;
687431737004075;-8.4272;-0.0754;-0.5121;
687431747111315;-7.8858;-0.0009;-2.2415;
687431757221002;-8.3172;-0.4753;-2.1745;
687431767328242;-9.2465;0.2243;-3.0918;
687431777435481;-8.7987;-0.5471;-3.6766;
687431787547252;-7.8212;-0.4178;-4.8694;
687431797654492;-7.7686;-0.7340;-5.3103;
687431807761731;-8.0393;-0.2620;-5.3438;
687431817864648;-8.0824;-1.3854;-5.4395;
687431827971888;-11.0934;-0.7172;-4.9364;
687431838079127;-11.2851;0.1905;-2.6249;
687431848197773;-10.5975;0.6123;-1.0798;
687431858305013;-9.1196;0.0805;0.4845;
687431868412252;-8.2023;-0.2405;-1.1228;
687431878503919;-9.5510;-0.2477;-3.2405;
687431888611159;-11.7763;-0.3963;-4.8622;
687431898718398;-11.1966;0.0924;-3.6452;
687431908796523;-10.0708;0.0422;-1.3648;
687431918903763;-10.3726;-0.1543;-2.4619;
687431929011002;-9.1651;-0.4059;-1.9516;
687431939149648;-7.6729;-0.8608;-2.5074;
687431949256888;-9.0311;-1.2634;-2.4811;
687431959364127;-9.0909;-0.7340;-3.0846;
687431969477721;-11.0815;-0.0248;-4.3065;
687431979584961;-9.8862;0.1762;-2.7230;
687431989692200;-6.1277;0.8542;-1.6905;
687431999802148;-7.7016;-0.2477;-5.1281;
687432009909388;-11.0049;0.2530;-5.5714;
687432020016627;-8.2286;0.7561;-3.9616;
687432030141002;-9.4286;0.6147;-4.2108;
687432040248242;-11.1990;-0.2429;-2.7015;
687432050355481;-10.6265;0.8566;-2.2654;
687432060440638;-9.3281;-0.1280;-3.3960;
687432070547877;-9.4023;-0.7938;-3.8824;
687432080655117;-9.6586;0.2483;-2.9076;
687432090770794;-9.0168;0.3655;-2.9937;
687432100878034;-9.2201;0.5381;-3.6021;
687432110985273;-8.1470;0.1140;-2.7087;
687432121094127;-7.6343;-0.1878;-4.5891;
687432131201367;-9.4717;-0.4202;-5.0874;
687432141308606;-8.9495;-0.2429;-4.0645;
687432151393398;-9.7950;0.3272;-3.8130;
687432161500638;-8.6261;-0.2979;-1.8583;
687432171607877;-8.6070;-0.2309;-2.3303;
687432181725377;-9.3473;-0.4681;-3.0176;
687432191832617;-10.3822;-0.1543;-3.6766;
687432201939856;-8.9040;-0.2429;-2.9578;
687432212057721;-9.9580;0.0326;-3.2022;
687432222164961;-10.6792;0.6410;-1.7791;
687432232272200;-8.1039;-0.1328;-1.3935;
687432242384336;-8.3674;0.0302;-2.1123;
687432252491575;-7.7518;0.3320;-3.0799;
687432262598867;-10.9307;-0.3652;-3.5662;
687432272693919;-10.0250;-0.0778;-2.7996;
687432282801159;-7.4213;-0.0993;-2.2989;
687432292908398;-9.7831;-0.1137;-3.7842;
687432303011211;-8.6572;-1.5580;-3.5112;
687432313118450;-8.5926;-0.3891;-3.5686;
687432323225690;-10.2718;-0.6550;-3.8273;
687432333349231;-12.6147;-0.6885;-2.5002;
687432343456471;-11.5678;0.5046;-0.9024;
687432353563711;-6.5013;-0.1519;0.0437;
687432363668971;-7.6271;-0.2883;-2.6512;
687432373776211;-10.5592;-0.2189;-3.3147;
687432383883450;-10.1354;-0.6933;-3.9497;
687432393982356;-8.2238;-0.8225;-3.7268;
687432404089596;-5.3061;-1.0454;-4.5508;
687432414196836;-5.2774;-0.8465;-6.3667;
687432424308919;-4.8245;-1.4671;-6.7140;
687432434416159;-2.0674;-2.3677;-7.8517;
687432444523398;-0.7235;-2.2863;-9.1621;
687432454605794;-16.1791;-2.0372;-7.2314;
687432464713034;-34.3920;-0.1208;2.0680;
687432474820273;-20.6492;2.7634;15.7199;
687432484963867;-0.9365;7.2598;11.3387;
687432495071106;-5.0976;5.5493;-1.6427;
687432505178346;-10.6768;-2.4203;-14.4371;
687432515254231;-12.0302;-4.6555;-10.0292;
687432525361471;-7.5841;-2.4419;0.5707;
687432535468086;-7.7136;-0.8465;-0.3969;
687432545575325;-8.7628;-0.6574;-0.5384;
687432555682565;-7.3660;0.2698;-0.4881;
687432565791523;-8.6883;-0.4801;-1.3600;
687432575898763;-9.4837;-1.7163;-0.4184;
687432586006002;-0.1941;-1.0717;4.7270;
687432596125169;1.5571;-2.8540;-9.2291;
687432606232409;-14.0662;-3.9416;-36.7056;
687432616339648;-16.3780;-0.4537;-20.1790;
687432626445481;-2.0961;2.8113;6.0996;
687432636552721;-7.9340;4.6726;0.7433;
687432646659961;-12.6936;1.6711;0.7983;
687432656778502;-12.5548;-0.7914;2.9566;
687432666885742;-12.7968;0.3775;2.9231;
687432676992981;-7.0259;-1.5796;3.3855;
687432687087356;-10.5425;-3.3069;-2.6201;
687432697194596;-14.2340;-1.9941;-2.9530;
687432707301836;-9.6347;-0.7268;-0.5815;
687432717412252;-10.0202;0.7633;-1.3074;
687432727519492;-6.4845;-1.8168;1.4067;
687432737626731;-3.6891;-1.6059;-6.6661;
687432747728086;-12.3751;-1.8383;-13.8431;
687432757835325;-11.0982;-1.6561;-0.8569;
687432767942565;-3.2483;3.0891;3.8070;
687432778047356;-7.5745;0.9117;-5.9665;
687432788154596;-11.5941;-1.7139;-5.4443;
687432798261836;-7.1698;-0.4155;-0.2653;
687432808366002;-8.2932;-0.9832;-4.0669;
687432818473242;-11.4817;-0.2070;-5.1138;
687432828580481;-10.6122;0.5189;-1.2715;
687432838698398;-8.7700;0.9380;-1.5613;
687432848805638;-9.5749;0.4038;-3.9951;
687432858912877;-12.2411;1.0819;-3.6814;
687432869022044;-11.5606;1.3813;-1.7934;
687432879129284;-10.8586;1.0555;-0.6748;
687432889236523;-10.6576;0.2291;-1.2787;
687432899331731;-7.8978;-1.1509;-0.6867;
687432909438971;-7.8643;-1.3113;-2.9746;
687432919546211;-8.2573;-0.9927;-4.9292;
687432929669752;-9.6634;-0.8369;-5.1975;
687432939776992;-9.9245;-0.1591;-3.7986;
687432949884231;-7.8595;1.3717;-3.8345;
687432959982044;-8.0034;-0.0464;-4.3759;
687432970089284;-8.1733;0.2530;-4.0382;
687432980196523;-7.8978;0.4253;-4.4501;
687432990308919;-11.7763;0.5237;-4.3184;
687433000416159;-11.8409;0.4349;-1.4366;
687433010523398;-6.8608;0.2100;-1.2377;
687433020624231;-6.9637;-0.4920;-4.2538;
687433030731471;-11.4673;-0.4992;-4.1004;
687433040838711;-11.9967;-0.0969;-2.2702;
687433050941836;-11.7691;0.3320;-2.1458;
687433061049075;-8.0010;-0.5064;0.2354;
687433071156315;-6.8632;-0.6502;-1.7432;
687433081283086;-9.9413;-0.6096;-4.5987;
687433091390325;-8.6548;-1.2299;-4.1172;
687433101497565;-6.4678;-1.3400;-4.8885;
687433111601315;0.3377;-0.8321;-5.9426;
687433121708554;-12.1379;-0.1448;-7.1282;
687433131815794;-28.0538;-1.1773;-3.4131;
687433141912773;-15.7193;-1.4312;5.5965;
687433152020013;3.4950;0.8112;5.0791;
687433162127252;-3.1765;0.1140;-5.9952;
687433172231315;-10.5688;-3.6805;-9.1908;
687433182338554;-10.1545;-1.1195;-4.6777;
687433192445794;-8.7509;1.8341;-4.3496;
687433202558815;-9.0909;1.2808;-3.8106;
687433212666054;-9.1029;0.2001;-3.6141;
687433222773294;-12.0661;0.2028;-2.3806;
687433232879023;-10.3965;-0.9592;0.1684;
687433242986263;-9.7663;-0.5830;4.2359;
687433253093502;0.7187;-1.8335;2.1876;
687433263161731;-7.3062;-2.7488;-20.1215;
687433273268971;-17.9614;0.6840;-18.4663;
687433283376211;-11.8170;4.5482;5.5295;
687433293527565;-9.5797;3.5061;3.8575;
687433303634804;-8.4583;-0.2668;0.8824;
687433313742044;-10.5975;-1.3902;1.1169;
687433323848034;-12.8877;-0.0559;-0.2677;
687433333955273;-8.8537;-0.3218;-0.0999;
687433344062513;-6.7050;-1.8598;-4.0884;
687433354173398;-7.7064;-1.2395;-7.6768;
687433364280638;-6.1971;-0.3820;-6.3835;
687433374387877;-9.7496;1.1154;-5.6791;
687433384494752;-13.9274;1.3119;-3.3984;
687433394601992;-10.6433;-0.1208;0.4271;
687433404709231;-4.9083;-0.7268;-0.3323;
687433414808711;-7.4237;-0.4777;-1.3409;
687433424915950;-9.6395;0.4807;-3.6284;
687433435023190;-13.0771;1.3358;-6.6350;
687433445118294;-12.7080;1.2975;-3.3147;
687433455224833;-9.5581;0.6793;-1.1539;
687433465332072;-8.5998;1.1584;-2.3495;
687433475461239;-7.8021;-0.1041;-1.3026;
687433485568478;-10.4779;-0.8560;-1.8200;
687433495675718;-14.5478;-1.7498;-0.8450;
687433505769260;-10.4946;-0.9760;-1.3313;
687433515876499;-6.0293;-0.5423;-1.2401;
687433525983739;-6.0870;-1.7617;-4.9962;
687433536090874;-12.4612;-0.6981;-5.0898;
687433546198114;-9.7424;-0.7101;-3.5136;
687433556305353;-8.1159;-0.0248;-3.8297;
687433566418114;-6.7241;0.0446;-4.3783;
687433576525353;-9.1723;-0.7101;-5.6049;
687433586632593;-11.4745;-0.5279;-4.4429;
687433596748426;-9.4214;-0.2955;-1.6857;
687433606855666;-10.1139;-1.1195;-0.6652;
687433616962905;-9.1125;-0.8082;-1.9756;
687433627060041;-7.5888;-0.4035;-2.5552;
687433637167280;-9.0311;-0.6814;-3.6332;
687433647274520;-11.3115;-0.8874;-4.6418;
687433657390510;-9.7543;-0.6096;-4.8168;
687433667497749;-10.3391;-0.2070;-2.6345;
687433677604989;-9.2731;-1.0382;-1.3863;
687433687705093;-7.8691;-1.6083;-1.9564;
687433697812333;-9.8073;-2.5092;-2.0498;
687433707919572;-9.3736;-1.4432;-3.3721;
687433718024885;-9.9413;-0.4298;-4.2009;
687433728132124;-8.1829;-0.7962;-1.5060;
687433738239364;-6.1373;-0.9520;-3.5040;
687433748351187;-10.1450;-1.1964;-5.3031;
687433758458426;-9.6108;-0.3194;-3.8154;
687433768565666;-9.5868;0.4397;-2.9052;
687433778677176;-8.9901;-0.2907;-2.6680;
687433788784416;-8.7580;-0.2692;-1.9277;
687433798891655;-10.1521;-0.7819;-2.8092;
687433808998218;-11.1269;-0.4992;-2.2869;
687433819105458;-9.0215;-0.2716;-2.4691;
687433829212697;-7.3086;0.1283;-3.3410;
687433839307489;-9.7208;1.2278;-2.9148;
687433849414728;-11.6782;0.8542;-1.0630;
687433859521968;-8.5878;-0.0368;-2.2415;
687433869631603;-2.5777;-0.1472;-3.3673;
687433879738843;-14.3683;0.9858;-4.6490;
687433889846083;-13.1441;-0.0057;-2.0354;
687433899957385;-7.3998;0.4998;-2.1745;
687433910064624;-5.8786;0.7633;-2.5552;
687433920171864;-9.0120;0.8901;-3.2644;
687433930282072;-12.6171;1.0651;-4.4548;
687433940389312;-11.0121;1.2398;-4.0693;
687433950496551;-8.7987;1.7596;-0.3562;
687433960600405;-5.8810;0.8877;0.7504;
687433970707645;-6.2091;0.2267;-4.0095;
687433980814885;-10.9786;0.7394;-8.0148;
687433990921760;-15.0174;0.7370;-0.8210;
687434001028999;-4.7312;0.0517;2.4200;
687434011136239;-7.9843;0.6793;-8.9895;
687434021239520;-10.5832;0.1570;-5.3079;
687434031346760;-8.4607;0.7080;-0.2198;
687434041453999;-11.0934;0.1618;-3.1543;
687434051562385;-9.5462;-0.7555;-2.7852;
687434061669624;-8.0297;0.1881;-2.1218;
687434071776864;-9.0933;0.3344;-1.2643;
687434081915926;-8.1230;-0.6694;-3.2979;
687434092023166;-9.1101;-0.8034;-4.7713;
687434102130405;-8.6668;-0.4035;-2.3518;
687434112210718;-7.8930;-0.7316;-3.2931;
687434122317958;-8.6859;-1.3543;-5.9306;
687434132425197;-9.6538;-0.7914;-3.4896;
687434142521864;-9.0814;-0.4442;-2.7517;
687434152629103;-11.4936;0.4735;-2.7829;
687434162736343;-11.0958;-0.5040;-0.2844;
687434172840718;-6.7816;-0.5614;-0.1143;
687434182947958;-8.3267;-0.3556;-3.4059;
687434193055197;-11.1655;-0.3580;-4.0597;
687434203163218;-11.3426;0.6840;-3.1205;
687434213270458;-8.7748;-0.4585;-1.7623;
687434223377697;-8.9566;-0.8177;-1.7432;
687434233500301;-9.7113;-0.8874;-1.2978;
687434243607541;-10.9164;-0.8130;-4.2969;
687434253714780;-11.6444;-0.0559;-1.9612;
687434263849364;-9.3377;0.5548;-0.8833;
687434273956603;-6.5587;0.5309;-3.0535;
687434284063843;-7.7207;-0.6168;-5.6192;
687434294127280;-11.4242;0.2435;-5.3127;
687434304234520;-11.2971;1.5224;-3.6452;
687434314341760;-12.0015;1.4674;-2.4858;
687434324448010;-10.6600;0.4349;-0.9191;
687434334555249;-6.8342;-0.4968;-1.7647;
687434344662489;-8.0967;-0.6048;-3.0703;
687434354802905;-12.1738;-0.0296;-4.2921;
687434364910145;-11.9967;0.8183;-4.3304;
687434375017437;-7.0714;0.7104;-2.0668;
687434385088426;-6.9374;0.5668;-3.2118;
687434395195666;-11.6901;0.1403;-4.4767;
687434405302905;-12.6099;0.3368;-1.9564;
687434415421030;-7.0738;0.4445;-1.2066;
687434425528270;-6.3553;-0.7555;-3.7699;
687434435635510;-9.6251;-0.2524;-4.9795;
687434445743635;-10.9068;0.3296;-4.9842;
687434455850874;-11.7547;-0.0320;-3.5901;
687434465958114;-10.5640;-0.3099;-1.3217;
687434476087385;-8.6524;0.2985;-1.0247;
687434486194624;-7.3301;-0.2261;-1.4916;
687434496301864;-9.3473;-0.7436;-1.9971;
687434506391551;-9.2201;-0.3147;-3.2381;
687434516498791;-11.5702;-0.5447;-5.0946;
687434526606030;-7.4166;-0.1424;-3.2189;
687434536694885;-7.4333;-0.6168;-3.4155;
687434546802124;-10.0322;-1.1964;-3.2955;
687434556909416;-10.1833;-1.4910;-3.4250;
687434567033843;-11.3163;-0.3338;-3.0894;
687434577141083;-7.4955;-0.7699;-1.3074;
687434587248322;-6.8752;-0.3123;-2.5217;
687434597356968;-12.5142;-0.6742;-3.6814;
687434607464208;-13.7022;0.0278;-2.0593;
687434617571447;-9.1005;0.3416;-0.8115;
687434627677593;-8.4272;-0.9927;-0.4786;
687434637784833;-9.3760;-1.0406;-3.4753;
687434647892072;-9.5940;-1.3472;-3.8752;
687434657998739;-7.4620;-1.0478;-2.7852;
687434668105978;-9.0718;-1.1844;-4.4381;
687434678213218;-10.6146;-0.5160;-4.4719;
687434688327801;-7.9170;0.0230;-2.5098;
687434698435041;-7.1240;-0.6191;-2.7422;
687434708542280;-5.9767;-1.1267;-4.3496;
687434718637385;-5.7658;-0.4537;-7.6241;
687434728744624;-6.6595;0.4516;-7.2841;
687434738851864;-5.4425;0.1666;-5.3605;
687434748971187;-6.4367;-0.4585;-6.6494;
687434759078426;-33.2878;0.0326;-0.2414;
687434769185666;-34.5383;0.3488;13.6478;
687434779297853;-0.2252;7.6717;16.2494;
687434789405093;7.6633;8.1724;0.6042;
687434799512333;-8.3387;-3.9990;-16.0540;
687434809613530;-15.2498;-7.6618;-9.9311;
687434819720770;-9.1603;-5.2998;-1.3839;
687434829828010;-4.7384;-0.5901;-1.6068;
687434839937593;-4.1489;0.2889;-2.0067;
687434850044833;-7.0451;0.1522;-1.9612;
687434860152072;-9.6682;0.0733;-2.0883;
687434870259468;-5.6821;0.0876;-2.0306;
687434880366708;-3.3464;-0.7340;-20.7060;
687434890473947;-17.0656;1.6878;-26.3880;
687434900568739;-13.0771;3.7361;-3.6694;
687434910675978;-5.3420;3.3957;7.3430;
687434920783218;-8.3698;1.8221;1.7040;
687434930898114;-13.5873;0.0446;1.8739;
687434941005353;-13.7572;-0.9449;5.9581;
687434951112593;-8.9303;-1.1076;5.2469;
687434961213947;-9.4430;-1.7139;0.2306;
687434971321187;-11.3928;-2.4491;-2.8642;
687434981428426;-7.2535;-2.3533;-2.7613;
687434991552801;-4.4940;-1.9965;-6.3401;
687435001660041;-8.7628;-1.7665;-7.5811;
687435011767280;-8.9758;-0.5375;-3.9712;
687435021855614;-8.3842;2.9240;-3.7149;
687435031962853;-10.8852;3.5707;-5.3725;
687435042070145;-8.5663;1.6711;-3.1974;
687435052188322;-6.9087;1.4746;-3.6117;
687435062295562;-8.7580;1.7979;-4.5102;
687435072402801;-9.0909;1.6280;-3.2859;
687435082521968;-10.5712;1.6376;-3.8536;
687435092629208;-12.4902;2.1096;-3.1134;
687435102736447;-11.6061;2.4760;1.5984;
687435112821239;-7.0953;1.1058;2.5208;
687435122928478;-8.9112;0.7223;-2.7876;
687435133035718;-12.5644;-1.7641;-2.8235;
687435143125614;-8.4248;-0.8731;-2.1434;
687435153232853;-8.9064;0.0781;-3.6476;
687435163340145;-8.1829;-0.4537;-3.8369;
687435173461187;-8.6979;-0.3628;-4.4719;
687435183568426;-12.0326;0.2219;-4.7833;
687435193675666;-9.8408;1.4961;-2.5624;
687435203789572;-7.1363;0.6099;-1.4773;
687435213896812;-6.8656;0.4158;-3.4442;
687435224004103;-10.1426;0.8112;-5.1568;
687435234109989;-12.0302;0.0541;-2.6608;
687435244217228;-7.0379;0.5524;-2.3085;
687435254324468;-8.5831;-1.0549;-2.9148;
687435264416239;-10.4420;-1.3735;-2.7924;
687435274523478;-5.0952;-0.8369;-2.7470;
687435284630718;-15.8127;-1.4288;-3.9712;
687435294758322;-16.5242;-1.6011;0.8222;
687435304865562;-8.4512;1.0962;3.0165;
687435314972801;-5.2292;-0.0921;-0.5623;
687435325092176;-8.3387;-1.5676;-4.8885;
687435335199416;-10.5544;-2.6982;-5.2744;
687435345306655;-10.9092;-1.8646;-4.1698;
687435355400926;-10.6816;-0.6239;-2.4117;
687435365508166;-8.3459;0.0087;-1.3863;
687435375615405;-5.9288;-1.2251;-3.5566;
687435385724364;-11.4386;-1.4312;-5.8469;
687435395831603;-8.0656;0.5548;-1.5060;
687435405938843;-3.3368;-0.5040;-5.1329;
