Sensor: bmi160 Accelerometer Non-wakeup
Vendor: BOSCH
TimestampAcc [ns]; AccX [m/s^2]; AccY [m/s^2]; AccZ [m/s^2]
1457282205907276;-9.4837;0.7681;-2.0716;
1457282216054307;-9.4717;0.8064;-1.9875;
1457282226172796;-9.4980;0.8973;-1.9397;
1457282236246494;-9.5315;0.9404;-1.9756;
1457282246364984;-9.5366;0.9404;-1.9804;
1457282256476234;-9.5438;0.9523;-2.0186;
1457282266549984;-9.4956;0.9404;-2.0716;
1457282276687119;-9.4884;0.9021;-2.0402;
1457282286788057;-9.5076;0.9045;-2.0234;
1457282296870505;-9.4980;0.9452;-1.9851;
1457282306999515;-9.5291;0.9643;-1.9660;
1457282317090192;-9.5510;0.9715;-1.9493;
1457282327193421;-9.5414;0.9428;-1.9397;
1457282337305921;-9.5315;0.9715;-1.9564;
1457282347405505;-9.5148;0.9571;-1.9684;
1457282357512796;-9.5438;0.9188;-1.9756;
1457282367615088;-9.5581;0.8973;-2.0019;
1457282377723578;-9.5315;0.8949;-1.9828;
1457282387826494;-9.5414;0.8925;-2.0019;
1457282397923213;-9.5533;0.9236;-1.9397;
1457282408036130;-9.4980;0.9093;-1.9181;
1457282418143317;-9.5557;0.8901;-1.8918;
1457282428252276;-9.5605;0.8399;-1.8846;
1457282438360817;-9.5605;0.7848;-1.9397;
1457282448463630;-9.5486;0.7633;-1.9804;
1457282458570505;-9.5342;0.7394;-2.0234;
1457282468673734;-9.5243;0.7152;-2.0859;
1457282478777692;-9.5267;0.7199;-2.0545;
1457282488881390;-9.5653;0.8064;-1.9899;
1457282498983890;-9.5773;0.7896;-1.8511;
1457282509093265;-9.5797;0.8279;-1.8894;
1457282519202588;-9.5581;0.8782;-2.0521;
1457282529309828;-9.5028;0.9523;-2.1362;
1457282539410557;-9.4693;0.8590;-2.0740;
1457282549519515;-9.5124;0.6721;-1.9445;
1457282559620765;-9.5462;0.6577;-1.9660;
1457282569727744;-9.5773;0.6601;-2.0498;
1457282579858421;-9.5605;0.4950;-2.1673;
1457282589944880;-9.5701;0.4181;-2.2941;
1457282600096494;-9.5004;0.4062;-2.2845;
1457282610157484;-9.4143;0.3870;-2.0907;
1457282620263734;-9.4310;-0.0129;-1.8775;
1457282630365765;-9.6299;0.1953;-2.1984;
1457282640473838;-9.6299;0.4086;-2.2510;
1457282650576286;-9.4454;0.4397;-2.2893;
1457282660684723;-9.4860;0.4397;-2.3686;
1457282670790609;-9.3257;0.4807;-2.2917;
1457282680898890;-9.4621;0.6601;-2.3375;
1457282691001078;-9.5486;0.1451;-2.0210;
1457282701097171;-9.7424;-0.0224;-2.1793;
1457282711211911;-9.5366;0.0350;-2.2487;
1457282721315557;-9.3257;0.1092;-2.2654;
1457282731425140;-9.4837;0.1164;-2.4284;
1457282741528473;-9.5892;0.1929;-2.2774;
1457282751637796;-9.4597;0.4445;-1.8559;
1457282761755453;-9.5172;0.8830;-1.7910;
1457282771874255;-9.7041;1.5443;-2.5552;
1457282781959619;-9.4214;1.1201;-2.3252;
1457282792060557;-9.3784;0.6194;-2.4523;
1457282802183994;-9.4430;0.4014;-2.5552;
1457282812278005;-9.3760;0.2889;-1.9923;
1457282822366182;-9.4908;0.2650;-1.6881;
1457282832487380;-9.7256;0.2865;-1.8679;
1457282842585036;-9.6945;0.5788;-2.1458;
1457282852690557;-9.4382;0.8830;-2.3997;
1457282862797119;-9.2994;1.0292;-2.5289;
1457282872899203;-9.4382;0.9930;-2.4284;
1457282883014463;-9.4789;0.9667;-2.1003;
1457282893135921;-9.4597;1.0196;-1.8559;
1457282903243369;-9.5581;1.0675;-1.8990;
1457282913331598;-9.5725;1.0316;-2.0306;
1457282923435140;-9.4238;1.0196;-2.1410;
1457282933543057;-9.4047;1.0747;-2.3157;
1457282943659880;-9.4262;1.1560;-2.3853;
1457282953769515;-9.4238;1.1656;-2.2056;
1457282963896859;-9.4765;1.1130;-2.1051;
1457282973956911;-9.5195;0.8973;-1.9540;
1457282984062015;-9.4956;0.6601;-1.9301;
1457282994190557;-9.4860;0.5070;-1.9851;
1457283004329984;-9.4525;0.4038;-2.0593;
1457283014390140;-9.4382;0.4038;-2.1864;
1457283024500244;-9.4454;0.4902;-2.2247;
1457283034591911;-9.4573;0.5166;-2.1888;
1457283044707015;-9.4717;0.4684;-2.1170;
1457283054811286;-9.4884;0.3559;-2.1625;
1457283064918786;-9.4286;0.2195;-2.1242;
1457283075022796;-9.3784;0.1642;-2.0402;
1457283085131963;-9.3927;0.1594;-2.0788;
1457283095244255;-9.3808;0.3009;-2.2463;
1457283105323213;-9.3090;0.5429;-2.4260;
1457283115454984;-9.2489;0.7585;-2.4954;
1457283125550244;-9.3018;0.8566;-2.3973;
1457283135677744;-9.3305;0.9643;-2.2487;
1457283145772901;-9.2946;1.3071;-2.3710;
1457283155875713;-9.1531;1.8652;-2.7494;
1457283165982067;-9.0239;2.2292;-2.8717;
1457283176090401;-8.9614;2.6844;-3.0368;
1457283186193265;-9.1029;2.8929;-2.8642;
1457283196294411;-9.1675;3.0437;-2.9172;
1457283206404932;-8.9040;3.6018;-3.6188;
1457283216510140;-8.5328;4.2248;-4.2754;
1457283226615348;-9.1388;2.8786;-3.1158;
1457283236721286;-9.8216;1.5296;-1.9875;
1457283246827848;-9.6060;2.4042;-2.7757;
1457283256934203;-8.9471;2.7849;-2.8068;
1457283267034411;-8.7171;3.1250;-3.3649;
1457283277144255;-8.6836;3.2617;-3.8297;
1457283287249932;-8.6237;3.4199;-3.7747;
1457283297357276;-8.5998;4.1647;-4.1339;
1457283307464776;-8.6381;5.4200;-4.9555;
1457283317567640;-8.8490;5.0967;-4.2371;
1457283327683421;-9.0694;4.1647;-3.1759;
1457283337791859;-9.5486;3.7816;-2.9865;
1457283347900296;-9.6778;3.6377;-3.0535;
1457283357999463;-8.9327;3.1923;-3.1301;
1457283368107901;-8.6668;2.9623;-3.9326;
1457283378216338;-8.7796;2.9551;-4.5365;
1457283388315713;-8.5711;2.6533;-3.7196;
1457283398424151;-8.5496;2.3635;-3.1950;
1457283408532588;-9.1603;2.1957;-3.8321;
1457283418629776;-9.5267;1.7548;-4.2682;
1457283428738213;-9.2803;1.4770;-4.1100;
1457283438846598;-9.0670;1.4291;-3.6380;
1457283448951546;-8.7051;1.5200;-3.1735;
1457283459059984;-8.5735;1.5754;-2.9889;
1457283469168421;-8.6405;1.6663;-3.0105;
1457283479270192;-8.8466;1.7836;-3.1543;
1457283489378630;-9.4119;1.9992;-3.3697;
1457283499487067;-9.7113;2.1239;-3.3027;
1457283509584255;-9.0191;2.0375;-3.7029;
1457283519692692;-8.4682;1.6711;-4.3065;
1457283529801078;-8.0082;1.3095;-4.2108;
1457283539896182;-8.5232;1.5778;-4.1889;
1457283550004619;-10.1354;2.2029;-3.8154;
1457283560113005;-9.4597;2.5190;-2.7182;
1457283570202588;-8.8346;2.5837;-3.7125;
1457283580311026;-9.0646;2.0734;-4.3496;
1457283590419463;-8.4634;1.7955;-2.6608;
1457283600527848;-7.3804;2.3297;-2.4882;
1457283610643421;-8.0130;2.6844;-4.7474;
1457283620751859;-9.4382;2.6222;-6.0168;
1457283630860244;-8.8274;2.5645;-4.6035;
1457283640945609;-8.2143;2.4688;-3.6500;
1457283651054046;-10.7462;2.5693;-3.9230;
1457283661162484;-11.3904;2.4879;-2.8044;
1457283671283005;-7.7160;2.4927;-2.5600;
1457283681391442;-7.9938;2.5286;-4.7665;
1457283691499828;-9.2803;2.1790;-4.2395;
1457283701591651;-6.1588;2.0952;-1.3313;
1457283711700088;-7.1626;3.4893;-4.1841;
1457283721808473;-11.7619;2.9791;-7.9813;
1457283731910713;-13.8365;2.6366;-6.7307;
1457283742019151;-9.9174;2.9169;-1.4055;
1457283752127588;-5.4808;4.0857;-0.4113;
1457283762256546;-5.3492;4.1504;-2.2630;
1457283772364984;-7.9146;3.0963;-2.4093;
1457283782473369;-9.5557;3.0269;-2.8669;
1457283792563317;-10.8156;3.3694;-5.0061;
1457283802671755;-11.8122;3.3215;-7.0038;
1457283812780140;-9.2536;2.6892;-6.5486;
1457283822860296;-6.9278;2.2795;-5.1114;
1457283832968682;-7.2823;1.6256;-3.3218;
1457283843077119;-7.7183;0.5859;-0.4041;
1457283853198578;-8.6859;0.5142;0.3144;
1457283863307015;-8.9423;0.7442;-0.7253;
1457283873415505;-8.8513;0.9308;-3.0942;
1457283883507276;-12.4014;1.7381;-10.7599;
1457283893615661;-14.2436;1.8051;-12.2596;
1457283903724098;-6.9374;1.8772;-2.0450;
1457283913816130;-2.0913;1.3023;3.8166;
1457283923924567;-6.7385;2.1622;-1.0582;
1457283934033005;-11.0049;3.1564;-3.9879;
1457283944128421;-12.0374;3.4558;-1.6929;
1457283954236859;-11.1535;4.6271;-3.7819;
1457283964345244;-10.9738;5.1326;-6.2228;
1457283974472276;-9.4071;4.2416;-3.3529;
1457283984580713;-4.3645;3.1780;1.3493;
1457283994689151;-5.5193;2.7156;-0.8402;
1457284004775713;-9.4262;2.9001;-3.6093;
1457284014884151;-10.6552;2.2005;-3.0823;
1457284024992536;-11.9465;2.0833;-4.9795;
1457284035084359;-11.2660;0.5381;-2.5074;
1457284045192796;-6.7050;0.1762;-0.4714;
1457284055301182;-7.3804;-0.4848;-1.0199;
1457284065405348;-7.2153;-1.9654;-0.9072;
1457284075513786;-9.4406;-1.7186;-2.2822;
1457284085622223;-11.4577;-0.9329;-2.9124;
1457284095732432;-10.2694;-0.1065;-1.0295;
1457284105840869;-10.2479;0.3153;-0.8043;
1457284115949307;-10.3511;1.5754;-2.2343;
1457284126044463;-9.3066;2.3130;-1.3624;
1457284136152901;-8.8155;1.8269;1.5123;
1457284146261338;-8.8250;0.8590;1.4644;
1457284156361182;-10.4587;1.4770;-2.3109;
1457284166469619;-11.3689;0.6721;-3.9855;
1457284176578057;-11.0599;-0.2357;-2.2080;
1457284186676130;-9.5148;0.0374;-1.4940;
1457284196784567;-9.9652;0.4445;-0.9742;
1457284206893005;-8.5280;1.1297;-0.4496;
1457284216997015;-8.2956;1.3358;-1.9301;
1457284227105453;-10.7151;0.7705;-3.2142;
1457284237213838;-11.4697;-0.3652;-1.5227;
1457284247316963;-10.0657;-1.0932;-0.3826;
1457284257425401;-8.3937;-0.9520;-2.5146;
1457284267533786;-8.7700;-1.4934;-3.6957;
1457284277632692;-10.5736;-2.4443;-3.1325;
1457284287741130;-10.4587;-3.2563;-0.9837;
1457284297849515;-7.2727;-3.1128;-0.6030;
1457284307945401;-7.8643;-2.3701;-3.1639;
1457284318053786;-10.0346;-1.1004;-4.7641;
1457284328162223;-11.3545;-0.0897;-2.9506;
1457284338273942;-10.0394;-0.4657;-1.2811;
1457284348380348;-8.4105;0.5812;-3.4466;
1457284358486807;-8.1733;0.2459;-4.2586;
1457284368595609;-9.1125;-0.2740;-2.8717;
1457284378702015;-8.4607;-0.4825;-1.6283;
1457284388808473;-8.5352;0.3631;-3.2022;
1457284398908526;-9.7759;0.1283;-4.8574;
1457284409014932;-9.2178;0.3511;-5.3318;
1457284419121390;-9.8695;0.5572;-5.8035;
1457284429226598;-9.3927;-0.3580;-3.1998;
1457284439333005;-7.4357;-0.7723;-1.0869;
1457284449439463;-8.4969;-0.2931;-4.2419;
1457284459537432;-11.2851;-0.5471;-5.6384;
1457284469643838;-8.4105;-0.3843;-1.8488;
1457284479750296;-7.2344;0.0948;-1.9253;
1457284489862067;-11.1751;0.0039;-4.9364;
1457284499968473;-8.3148;0.1546;-5.7485;
1457284510074932;-7.6609;0.4301;-4.5245;
1457284520239255;-9.6730;0.1211;-3.8800;
1457284530345661;-10.3367;0.0230;-5.2047;
1457284540452119;-10.5329;1.8987;-5.1162;
1457284550498942;-8.3387;1.8173;-1.2066;
1457284560605348;-8.5759;1.6376;-2.5935;
1457284570711807;-9.9437;1.7022;-4.9316;
1457284580826442;-8.4826;0.7705;-2.7015;
1457284590932848;-9.1101;0.1164;-1.7815;
1457284601039307;-9.8145;-0.1352;-3.6045;
1457284611123213;-9.5414;1.1895;-5.5041;
1457284621229619;-9.7878;0.4110;-2.0474;
1457284631336078;-9.0598;-0.7460;-0.1238;
1457284641441442;-9.8480;-0.3338;-2.6297;
1457284651547848;-10.2694;0.2506;-3.6742;
1457284661654307;-9.1053;-0.8970;-0.1119;
1457284671764151;-9.4334;-0.9927;-2.4428;
1457284681870557;-12.2100;-2.1497;-4.0597;
1457284691977015;-8.7867;-3.6613;1.8882;
1457284702079359;-5.3755;-3.3523;1.4788;
1457284712185765;-13.3860;-1.0430;-2.9195;
1457284722292223;-13.4530;-1.5341;-2.3061;
1457284732402588;-8.0130;-0.5662;-1.2018;
1457284742508994;-8.7485;-0.8297;-2.7852;
1457284752615453;-14.3178;-0.8512;-3.1158;
1457284762712276;-8.0201;0.0517;2.0010;
1457284772818682;-4.1273;-0.4513;0.3960;
1457284782925140;-13.6472;0.0087;-4.1602;
1457284793032484;-14.0904;2.3082;-2.6632;
1457284803138890;-4.5108;2.9934;-0.5551;
1457284813245296;-7.9843;1.9848;-4.9603;
1457284823365609;-14.4999;2.7993;-4.6896;
1457284833472015;-10.2335;2.6725;-1.7862;
1457284843578473;-7.1650;1.8532;-2.6895;
1457284853725088;-10.5090;1.3525;-3.9927;
1457284863831494;-11.4482;1.8915;-2.0139;
1457284873937953;-8.0943;0.3846;-0.6580;
1457284883983734;-9.2034;0.5285;-1.2619;
1457284894090140;-9.9197;0.4373;-1.3935;
1457284904196598;-9.6012;0.2124;-0.9311;
1457284914333317;-10.0923;-0.1280;-2.5241;
1457284924439723;-10.0923;-0.5136;-2.2678;
1457284934546182;-7.0977;-0.5016;-0.2246;
1457284944617432;-8.5974;-1.7450;-2.1170;
1457284954723838;-12.9500;-1.8574;-3.6909;
1457284964830296;-8.7099;-0.3867;-1.3409;
1457284974946546;-6.3096;-0.9808;-1.6929;
1457284985052953;-11.8911;-1.4575;-3.8010;
1457284995159411;-11.3737;-0.9951;-2.1577;
1457285005285296;-7.5003;-0.7388;-0.9024;
1457285015391703;-9.4214;-0.7603;-3.8297;
1457285025498161;-13.1943;0.2506;-4.7255;
1457285035575505;-8.5759;1.0938;-0.5695;
1457285045681911;-5.8092;-0.1735;0.7265;
1457285055788369;-8.9877;-0.3075;-1.7336;
1457285065909984;-10.9092;0.6649;-3.1062;
1457285076016390;-10.1928;0.5213;-2.6824;
1457285086122848;-9.7208;-0.2189;-3.4418;
1457285096216442;-10.0971;0.0206;-3.9449;
1457285106322848;-9.8336;0.3679;-1.1850;
1457285116429307;-7.8476;-0.1974;0.3482;
1457285126537692;-9.3855;-0.5016;-1.5302;
1457285136644098;-10.3678;0.2578;-1.0056;
1457285146750557;-8.7317;0.9117;0.9781;
1457285156852380;-6.8510;-0.4490;-2.5696;
1457285166958786;-13.3167;-0.1998;-7.0684;
1457285177065244;-12.8016;-0.6168;-6.5964;
1457285187165192;-8.9518;-1.1964;-3.9473;
1457285197271598;-6.2809;-0.9688;-1.1683;
1457285207378057;-8.5711;-1.3567;-0.2749;
1457285217482796;-10.9929;-0.6837;1.4955;
1457285227589203;-8.7485;-0.5183;0.3215;
1457285237695661;-10.0609;1.0292;-2.5528;
1457285247803265;-11.6157;2.1957;-3.1831;
1457285257909671;-8.1829;0.4974;-1.9923;
1457285268016130;-8.1206;0.1259;-3.5016;
1457285278122171;-12.8997;-0.5471;-3.6141;
1457285288228578;-11.0527;-0.8560;-1.4581;
1457285298335036;-6.4510;-0.4633;-2.7829;
1457285308451442;-9.1005;-0.7866;-4.4791;
1457285318557848;-9.7208;-0.6837;-1.4581;
1457285328664307;-6.6811;-0.1759;-0.9502;
1457285338769463;-9.2297;0.2530;-4.3352;
1457285348875557;-11.4482;0.6003;-3.5997;
1457285358956182;-7.7710;-1.0238;-3.0272;
1457285369062328;-10.5736;-0.7340;-7.0110;
1457285379168421;-12.1211;-0.9233;-5.3390;
1457285389296442;-6.3338;-0.9042;-1.3935;
1457285399402536;-7.3756;-0.3003;-3.6885;
1457285409508630;-11.8026;0.6362;-5.0898;
1457285419610765;-9.7089;1.3430;-2.1793;
1457285429716859;-7.4189;1.1225;-2.4930;
1457285439822953;-9.2489;2.0471;-6.4744;
1457285449927432;-9.5868;1.6902;-6.4528;
1457285460033526;-7.4405;1.2613;-5.8732;
1457285470139619;-11.5893;1.9777;-7.6002;
1457285480239359;-9.8791;2.4401;-7.1740;
1457285490345453;-6.9613;2.8786;-5.6360;
1457285500451546;-8.1422;3.1828;-3.7819;
1457285510566026;-6.7935;3.0413;-2.6225;
1457285520672119;-9.8695;3.2163;-4.9914;
1457285530778213;-9.3736;3.6305;-6.1487;
1457285540880921;-8.1326;3.2091;-6.7714;
1457285550987015;-9.8647;4.0259;-6.2109;
1457285561093109;-6.6715;3.4534;-2.6895;
1457285571192380;-9.0000;2.0016;-4.9053;
1457285581298421;-12.5285;2.3515;-6.8575;
1457285591404515;-5.1383;0.8495;-1.0487;
1457285601508109;-3.8614;-0.7555;-3.3266;
1457285611614203;-9.2632;-2.2457;-5.2478;
1457285621720296;-10.5138;-3.9583;-0.8737;
1457285631834984;-10.9786;-4.4231;-1.3552;
1457285641941078;-9.7328;-5.6614;-0.6102;
1457285652047171;-7.8715;-5.9563;0.9230;
1457285662157432;-7.2081;-4.4710;-1.0893;
1457285672263526;-8.0824;-5.4867;0.3649;
1457285682369619;-9.9580;-4.8182;-1.4773;
1457285692470192;-10.9092;-3.7451;-2.2702;
1457285702576286;-8.8920;-1.8287;-0.6628;
1457285712682380;-9.3114;-0.3242;-0.0544;
1457285722779984;-9.4358;0.0805;-0.1911;
1457285732886078;-12.0087;1.0651;-2.4739;
1457285742992171;-13.2832;2.3393;-3.5710;
1457285753144046;-11.3186;2.4879;-2.0859;
1457285763250140;-10.7246;2.9432;-1.0750;
1457285773356234;-8.2358;2.3898;-0.2964;
1457285783423838;-7.8978;1.8508;-1.2763;
1457285793529932;-8.9327;0.1451;-1.3887;
1457285803636026;-10.1713;-1.1052;-1.5565;
1457285813733161;-12.6553;-1.7498;-2.5217;
1457285823839255;-12.4588;-1.9582;-1.4821;
1457285833945348;-8.9064;-2.0946;-0.5145;
1457285844050296;-9.5605;-2.2768;-2.8235;
1457285854156390;-10.0561;-2.5570;-2.0426;
1457285864262484;-9.7998;-1.9364;-0.9574;
1457285874404880;-11.6782;-1.1363;-1.1779;
1457285884510973;-10.7845;-0.9975;-0.0042;
1457285894617067;-9.0120;-0.6957;-1.0630;
1457285904741026;-9.9437;-1.4647;-2.1888;
1457285914847119;-8.5113;-1.4312;-0.4519;
1457285924953213;-8.3626;-1.7210;-3.5136;
1457285935030817;-11.8481;-1.7019;-4.2084;
1457285945136911;-9.1149;-1.0717;-2.0498;
1457285955243005;-7.1937;-1.5197;-3.1229;
1457285965352484;-10.3005;-1.8742;-3.8560;
1457285975458578;-10.7055;-1.7833;-2.3013;
1457285985564671;-8.5065;-1.0789;-2.6177;
1457285995649515;-9.7328;-0.8465;-1.8894;
1457286005755609;-8.7915;-0.7986;-2.5337;
1457286015861703;-8.9542;-0.4944;-3.1567;
1457286025979359;-7.7973;-0.3338;-2.7063;
1457286036085453;-8.4057;-0.7220;-5.2621;
1457286046191546;-9.5510;-0.4226;-5.5594;
1457286056300921;-10.8733;0.0230;-4.9986;
1457286066407015;-7.1483;0.2818;-4.3663;
1457286076513109;-7.3445;0.4229;-4.4934;
1457286086603421;-8.8490;0.1068;-5.6169;
1457286096709515;-11.0336;-0.2477;-4.0789;
1457286106815609;-9.3377;0.8375;-3.3051;
1457286116924463;-7.2416;0.5548;-3.9111;
1457286127030557;-8.9638;0.3464;-3.5207;
1457286137136651;-10.3029;-0.0368;-5.3079;
1457286147252380;-8.7461;-0.3437;-3.6284;
1457286157358473;-8.0943;0.0829;-6.0431;
1457286167464567;-8.4440;-0.0730;-6.0000;
1457286177560401;-8.3076;0.3488;-5.3533;
1457286187666494;-6.2210;-0.6574;-6.4792;
1457286197772588;-9.1268;-0.6550;-6.8937;
1457286207882067;-10.4563;-0.4896;-6.3667;
1457286217988161;-8.1039;-0.9927;-3.4825;
1457286228094255;-6.3912;-0.0057;-3.7651;
1457286238171651;-9.7041;-0.0849;-4.2849;
1457286248277744;-11.6396;0.2291;-2.7182;
1457286258383838;-7.0379;-0.6359;-1.3839;
1457286268512848;-8.1733;-0.4202;-2.6943;
1457286278618942;-10.6241;0.1786;-4.6226;
1457286288725036;-11.4984;0.1140;-4.2132;
1457286298838213;-7.7279;0.9308;-5.4251;
1457286308944307;-7.4764;0.7537;-4.8191;
1457286319050401;-7.9098;1.3238;-6.2300;
1457286329167848;-8.6381;-0.0009;-4.3065;
1457286339273942;-8.9231;0.7418;-4.6825;
1457286349380036;-9.6634;0.4086;-3.3099;
1457286359472276;-9.1986;0.6745;-3.3984;
1457286369578473;-9.3090;-0.1663;-3.8369;
1457286379684671;-10.1833;0.3296;-4.7474;
1457286389786130;-10.2861;0.2339;-2.2223;
1457286399892328;-6.9422;0.3129;-1.8703;
1457286409998526;-8.4248;0.0422;-2.7709;
1457286420096026;-10.2407;1.0244;-4.2969;
1457286430202223;-10.4372;0.6003;-6.0550;
1457286440308421;-9.1196;0.7247;-6.1223;
1457286450412588;-6.9326;0.4636;-4.0956;
1457286460518786;-5.6533;-0.4083;-4.3280;
1457286470624984;-8.7987;0.9787;-5.3414;
1457286480729776;-8.1470;-0.1807;-5.1185;
1457286490835973;-9.7926;1.5706;-6.1630;
1457286500942171;-11.1631;-1.2921;-2.5959;
1457286511050609;-9.5100;0.1355;-0.7780;
1457286521156807;-8.3435;-1.8550;-0.0999;
1457286531263005;-10.9857;-0.5136;-1.9947;
1457286541371546;-10.8156;-0.6718;-0.5216;
1457286551477744;-8.6907;-0.7627;-2.2391;
1457286561583942;-8.4849;-0.9592;-2.6656;
1457286571683578;-8.3746;-0.5566;-4.1483;
1457286581789723;-9.8145;-0.1974;-5.4491;
1457286591895921;-9.2489;-0.2692;-5.4706;
1457286602002119;-5.3228;0.0446;-4.1004;
1457286612116026;-7.0092;-0.5255;-5.7293;
1457286622222223;-17.8801;0.0661;-3.9111;
1457286632328421;-12.1762;-1.0836;-0.0568;
1457286642421755;-5.3396;-0.5303;-0.2605;
1457286652527953;-7.8906;-0.0993;-2.2845;
1457286662634151;-11.2612;0.6817;-2.8355;
1457286672755401;-10.0537;0.7466;-2.3204;
1457286682861598;-7.8356;0.2195;-3.9951;
1457286692967796;-8.1278;0.6218;-6.3329;
1457286703078005;-8.3267;0.5907;-5.9617;
1457286713184203;-7.2440;0.3200;-4.0286;
1457286723290401;-6.6308;0.5524;-5.6504;
1457286733398786;-11.4314;0.2435;-5.6791;
1457286743504984;-12.4349;1.2159;-3.6356;
1457286753611182;-9.2827;0.6410;-2.4236;
1457286763714255;-7.7782;0.6864;-1.7551;
1457286773820453;-8.4634;0.6338;-0.5671;
1457286783926651;-8.3794;0.6242;-1.7671;
1457286794014567;-9.4502;0.6242;-6.5127;
1457286804120765;-10.5640;1.1369;-5.7915;
1457286814226963;-7.9074;0.7466;-4.0549;
1457286824369463;-9.3497;0.2411;-6.1774;
1457286834475661;-9.4837;0.1211;-4.6370;
1457286844581859;-6.8704;0.6864;-4.0190;
1457286854655921;-8.7266;0.5046;-5.5690;
1457286864762119;-11.7045;0.4325;-3.0200;
1457286874868317;-6.9206;1.1417;-1.5996;
1457286884977588;-6.6404;-0.1663;-4.4620;
1457286895083786;-12.0087;0.7223;-7.9813;
1457286905189984;-10.8227;1.0579;-4.6274;
1457286915321546;-4.8389;0.9308;-1.8200;
1457286925427744;-8.1805;0.5668;-5.0803;
1457286935533942;-10.5832;0.0039;-5.3318;
1457286945612171;-10.7988;1.0507;-3.0176;
1457286955718369;-7.9675;-0.0969;-1.1539;
1457286965824567;-8.6453;0.2100;-2.7374;
1457286975929776;-10.4516;0.6458;-3.8393;
1457286986035973;-11.8337;0.3248;-1.3313;
1457286996142171;-11.5941;-0.2572;-4.6394;
1457287006260401;-10.4611;0.9045;-4.3567;
1457287016366598;-7.7662;-0.3365;-1.0582;
1457287026472796;-6.4941;-0.4035;-3.4202;
1457287036562067;-11.1488;0.5812;-5.9426;
1457287046668265;-10.4228;-0.1448;-2.8451;
1457287056774463;-6.4128;-0.2285;-3.8895;
1457287066887484;-10.1426;0.4373;-5.8947;
1457287076993682;-10.5544;0.2483;-2.5720;
1457287087099880;-7.2057;-0.3194;-1.0080;
1457287097218109;-7.1435;0.4110;-5.5065;
1457287107324307;-15.4750;0.2363;-3.1735;
1457287117430505;-11.9728;-0.4537;-0.6700;
1457287127523630;-4.0771;-0.6048;-0.9407;
1457287137629828;-7.4070;1.1082;-3.6308;
1457287147736026;-12.9643;0.0398;-1.6235;
1457287157848109;-8.7556;-0.0873;-3.4035;
1457287167954307;-7.0642;0.4735;-5.1449;
1457287178060505;-10.4276;0.3440;-4.3950;
1457287188158838;-7.6511;0.3703;-5.5352;
1457287198265036;-10.3726;1.0627;-8.0291;
1457287208371234;-9.3975;0.9858;-5.0779;
1457287218482067;-7.5266;0.4493;-2.6058;
1457287228588265;-4.5562;0.4711;-3.6500;
1457287238694463;-15.9900;1.0675;-5.0874;
1457287248800192;-20.0288;1.0914;0.9398;
1457287258906390;-5.8905;0.0111;4.1426;
1457287269012588;-3.9742;1.0196;-2.1888;
1457287279114046;-9.5124;1.2637;-4.5102;
1457287289220244;-7.1240;1.5562;-4.0980;
1457287299326442;-7.6415;0.5835;-6.9105;
1457287309431546;-10.0035;0.3488;-6.5462;
1457287319537744;-9.1866;0.1427;-4.3424;
1457287329643942;-12.4182;0.5883;-4.0621;
1457287339762588;-7.4501;0.1379;-2.2080;
1457287349868786;-5.3827;0.6458;-1.0606;
1457287359974984;-7.8165;-0.0272;-3.8465;
1457287370076234;-9.4717;0.9404;-5.9593;
1457287380182328;-10.8757;0.6912;-5.0157;
1457287390288369;-10.4803;1.1201;-3.6718;
1457287400381807;-6.8198;1.0196;-1.3169;
1457287410487901;-5.4353;0.4038;-4.2610;
1457287420593942;-10.7055;0.9858;-5.0444;
1457287430694671;-10.4348;1.4243;-2.2941;
1457287440800765;-7.7016;0.2076;-0.3538;
1457287450906807;-5.3468;-0.6359;-3.0105;
1457287461019463;-11.8863;1.6926;-11.5959;
1457287471125557;-17.9351;2.1837;-6.3018;
1457287481231598;-9.0933;1.2326;3.1555;
1457287491338734;-7.4381;0.8734;2.8155;
1457287501444828;-14.8687;-0.1424;-0.1549;
1457287511550869;-13.2135;-0.4753;3.1101;
1457287521645609;-7.4907;0.1762;1.5194;
1457287531751703;-8.5400;0.2722;-5.3414;
1457287541857744;-12.6745;1.0340;-7.4183;
1457287551977901;-11.8074;0.3511;-1.5156;
1457287562083994;-9.9413;-0.6455;-2.3495;
1457287572190036;-8.0824;-0.1424;-3.7747;
1457287582312380;-6.6547;0.3583;-2.4715;
1457287592418473;-5.5047;-0.2859;-4.4070;
1457287602524515;-8.7796;0.1714;-7.1955;
1457287612603942;-12.1427;0.1690;-6.0769;
1457287622710036;-7.6152;-0.0631;-1.7121;
1457287632816078;-6.9494;-0.4226;-2.5433;
1457287642926755;-12.2937;0.1164;-1.9301;
1457287653032848;-11.6635;-0.1878;-2.5098;
1457287663138890;-7.3469;0.2841;-3.3793;
1457287673299046;-8.6189;-0.0706;-5.5570;
1457287683405140;-1.7222;0.0446;-5.9043;
1457287693511182;0.3018;0.6888;-11.8355;
1457287703556338;-26.0438;2.0160;-13.7423;
1457287713662432;-15.9709;0.5764;-3.4035;
1457287723768473;0.5797;2.2149;-1.9062;
1457287733925296;-12.3344;1.4506;-1.0008;
1457287744031390;-18.2225;1.1752;1.2344;
1457287754137432;-9.1364;1.2398;0.2689;
1457287764200192;-6.5204;1.8915;-2.4141;
1457287774306286;-13.4650;1.3238;-1.3457;
1457287784412328;-8.0273;1.0747;-0.9622;
1457287794521182;-6.9422;1.2111;-3.7484;
1457287804627276;-10.0179;1.0771;-6.4433;
1457287814733317;-9.5701;0.9212;-5.2525;
1457287824860296;-8.7051;0.0924;-3.4848;
1457287834966390;-6.8680;0.4421;-6.2109;
1457287845072432;-8.8753;0.4038;-8.5298;
1457287855149359;-11.5582;0.2363;-1.3816;
1457287865255453;-5.5792;-0.6024;1.1746;
1457287875361494;-4.6089;-0.0033;-0.6269;
1457287885489046;1.1569;-0.7125;-2.0788;
1457287895595140;-13.5562;1.3262;-17.0985;
1457287905701182;-22.7357;2.6701;-12.1445;
1457287915792588;0.0359;1.3334;6.5213;
1457287925898682;3.3969;0.4711;-5.1568;
1457287936004723;-12.9428;0.3105;-11.9575;
1457287946125921;-14.7036;1.1991;-0.8713;
1457287956232015;-9.9891;3.1442;-0.3323;
1457287966338057;-8.0010;2.1646;-2.1099;
1457287976439046;-7.3974;1.4315;-2.3758;
1457287986545140;-17.2881;1.7740;-1.7360;
1457287996651182;-15.1732;0.9547;3.3042;
1457288006758265;-7.6008;0.6505;1.1961;
1457288016864359;-9.9078;0.5142;-1.8918;
1457288026970401;-12.5118;0.0924;-1.0487;
1457288037076546;-9.0503;0.1905;-2.9818;
1457288047182640;-8.1829;-0.3365;-3.9326;
1457288057288682;-3.6194;-1.4049;-0.4905;
1457288067403421;-5.4784;-1.2754;-5.5161;
1457288077509515;-11.9007;-2.5881;-6.6135;
1457288087615557;-6.4487;-2.5499;-2.9243;
1457288097715192;-8.4730;-1.9534;-3.2692;
1457288107821286;-7.1411;-2.1185;0.4439;
1457288117927328;-9.4789;-1.6875;-2.1697;
1457288128025713;-11.3904;-0.7986;-6.0096;
1457288138131807;-8.5735;0.0326;-2.0163;
1457288148237848;-8.0297;0.6529;-1.1492;
1457288158352171;-6.9254;-0.3987;-3.0751;
1457288168458265;-7.0092;-0.2381;-10.3358;
1457288178564307;-22.9155;1.1800;-10.8796;
1457288188665192;-12.4831;1.9753;1.9890;
1457288198771286;-3.7657;1.5754;-0.0401;
1457288208877328;-11.3378;1.2350;-5.9163;
1457288218983005;-12.1427;2.0566;-1.5900;
1457288229089098;-9.0239;2.2555;0.0580;
1457288239195140;-6.8246;0.6362;-0.8474;
1457288249291130;-8.4802;0.3559;-3.8082;
1457288259397223;-12.7968;-0.3051;-4.9771;
1457288269503265;-12.6625;-0.4298;-0.3012;
1457288279611546;-4.4411;-0.3580;-1.6451;
1457288289717640;-7.4381;-0.2859;-6.5055;
1457288299823682;-8.9949;-0.3748;-3.1181;
1457288309929932;-6.8175;-0.9185;-5.7843;
1457288320036026;-5.9504;-0.1328;-7.1620;
1457288330142067;-4.6089;-0.7675;-4.9316;
1457288340246182;-13.4818;-0.1472;-7.5523;
1457288350352276;-18.6105;-0.4681;-2.8140;
1457288360458317;-8.2573;-0.0873;-1.7838;
1457288370559671;-2.2277;1.5778;-3.9425;
1457288380665609;-9.0335;0.2985;-3.2429;
1457288390771546;-15.3120;0.1044;-2.5528;
1457288400884151;-11.4242;0.5285;0.4223;
1457288410990088;-3.9981;0.7872;1.6822;
1457288421096026;-8.6070;-1.2443;-6.3353;
1457288431202484;-13.5200;0.6170;-8.1727;
1457288441308421;-7.9914;0.2961;-4.4142;
1457288451414359;-10.5353;0.1379;-3.8560;
1457288461516234;-7.4166;-0.8994;-1.9134;
1457288471622171;-7.4716;-1.2634;-5.7389;
1457288481728109;-10.7007;-0.5471;-3.6500;
1457288491840713;-8.5352;0.1044;0.8390;
1457288501946651;-9.7400;-0.2979;-1.2257;
1457288512052588;-7.8500;0.3464;-3.2022;
1457288522173421;-6.2617;0.3559;-6.6230;
1457288532279359;-10.4922;0.2411;-6.4265;
1457288542385296;-11.2182;0.0900;-2.8044;
1457288552471026;-10.0609;0.1642;-3.6861;
1457288562576963;-9.3042;0.5261;-4.4022;
1457288572682901;-5.5095;1.1369;-0.6221;
1457288582787484;-8.6788;0.4325;-2.6871;
1457288592893421;-13.5634;1.3190;-4.1865;
1457288602999359;-10.4133;1.9394;-0.6173;
1457288613117484;-6.8991;1.3813;-0.9024;
1457288623223421;-4.8748;1.5969;-4.2108;
1457288633329359;-13.7620;1.3430;-3.8776;
1457288643425817;-14.1120;1.8365;0.1349;
1457288653531755;-4.3286;1.1728;-2.3925;
1457288663637692;-7.2703;1.7548;-6.7546;
1457288673731494;-9.1436;1.5921;-4.8144;
1457288683837432;-11.6925;1.2087;-2.8741;
1457288693943369;-8.2190;1.2494;-1.7934;
1457288704054984;-8.4778;0.3966;-3.6308;
1457288714160921;-13.3956;1.2494;-3.9302;
1457288724266859;-10.6217;0.6697;-1.2473;
1457288734396234;-7.9651;1.3310;-1.3337;
1457288744502171;-9.3473;0.4974;-0.5001;
1457288754608109;-11.8863;-0.2357;-3.4609;
1457288764704463;-12.2001;1.0890;-4.8526;
1457288774810401;-6.6141;0.5716;-0.9168;
1457288784916338;-5.5816;0.4660;-1.4318;
1457288795037067;-5.7467;-1.0095;-3.2477;
1457288805143005;-8.9375;-0.1472;-14.8992;
1457288815248942;-12.7729;1.4865;-9.3682;
1457288825353213;-4.6998;0.9547;2.7628;
1457288835459151;-7.6367;-1.5245;-3.6452;
1457288845565088;-15.6664;-1.9558;-5.0324;
1457288855654255;-12.2842;0.2961;0.7433;
1457288865760192;-7.7806;0.3823;1.3038;
1457288875866130;-9.2225;-0.7364;-4.2227;
1457288885982276;-9.9532;-0.1232;-5.7772;
1457288896088213;-9.2441;-0.2357;-2.9985;
1457288906194151;-7.5506;-0.2716;-4.0980;
1457288916293682;-12.3081;-0.6359;-9.0975;
1457288926399619;-13.1656;-0.3003;-2.9841;
1457288936505557;-9.2683;0.1283;1.3780;
1457288946609463;-7.6801;-0.4513;-2.3085;
1457288956715401;-2.3716;-0.1831;-2.4954;
1457288966821338;-16.6319;-0.1113;-1.2138;
1457288976926130;-22.5990;-0.3365;1.5984;
1457288987032067;0.6517;-0.3700;1.6080;
1457288997138005;6.2163;-0.4825;-8.4745;
1457289007247848;-9.0000;0.0230;-15.8695;
1457289017353786;-15.7552;-0.0440;-10.9134;
1457289027459723;-3.2650;-0.6311;-5.5376;
1457289037561859;-0.1627;-0.9090;-9.8833;
1457289047667796;-7.7925;-0.4920;-6.2707;
1457289057773734;-11.9007;-0.7579;1.6822;
1457289067897692;-9.3497;-1.3161;1.3660;
1457289078003630;-15.0293;0.2195;-5.1066;
1457289088109567;-15.1131;2.0207;-0.2892;
1457289098204098;-9.5605;1.5849;3.6323;
1457289108310036;-9.9652;1.2470;0.8342;
1457289118415973;-9.9939;0.6888;3.5267;
1457289128524880;-8.0895;0.6386;-9.2028;
1457289138630817;-19.7079;2.8543;-13.1794;
1457289148736755;-9.6419;3.0006;6.7872;
1457289158842692;1.4471;0.9117;5.7691;
1457289168948630;-7.1001;-1.5820;-8.6782;
1457289179054567;-21.2863;0.9882;-5.6169;
1457289189161338;-11.0432;0.8901;8.3680;
1457289199267276;2.5513;-0.5782;5.7715;
1457289209373213;-2.8241;-0.5495;-9.2650;
1457289219473213;-16.2727;-0.9257;-11.8140;
1457289229579151;-11.4482;1.2470;-1.7647;
1457289239685088;-2.8241;1.0795;-5.7269;
1457289249792796;-8.5591;-0.3218;-15.7089;
1457289259898734;-14.1263;1.0723;-5.5256;
1457289270004671;-7.9938;-0.7340;1.5410;
1457289280146963;-8.7147;-0.1400;-4.9149;
1457289290252901;-11.1269;1.2470;-2.3037;
1457289300358838;-9.0024;1.3286;1.0834;
1457289310426130;-9.9867;1.2135;-0.4089;
1457289320532067;-8.6237;0.5764;-0.4618;
1457289330638005;-8.4583;0.9212;-6.0670;
1457289340745088;-13.2111;1.8628;-7.4013;
1457289350851026;-10.8180;1.2709;-2.1769;
1457289360956963;-8.9423;0.4783;-0.3658;
1457289371074776;-5.5552;-0.6766;-4.3065;
1457289381180921;-6.2545;0.2195;-5.0563;
1457289391287119;-11.7882;-0.5806;-4.5078;
1457289401375817;-10.1210;-0.8154;-3.2836;
1457289411481963;-7.0164;-0.9329;-4.1770;
1457289421588161;-10.8757;-0.7244;-6.8121;
1457289431695817;-8.9303;-0.2285;0.8557;
1457289441801963;-5.1814;-1.0167;0.1205;
1457289451908161;-12.0685;-1.2467;-5.9521;
1457289462016338;-14.0686;-0.1831;0.0030;
1457289472122484;-7.4142;-0.3772;2.4416;
1457289482228682;-8.0273;0.0039;-3.4131;
1457289492343213;-13.7764;0.2387;-7.2099;
1457289502449359;-8.6285;1.3669;-0.3610;
1457289512555557;-5.9647;0.5572;-3.6814;
1457289522653005;-8.7003;0.3224;-5.5161;
1457289532759151;-8.1829;-0.1448;-3.4490;
1457289542865348;-8.0106;-0.0009;-4.8096;
1457289552969671;-9.3975;0.1929;-6.1941;
1457289563075817;-8.3028;0.2722;-3.7125;
1457289573182015;-7.5936;0.1762;-2.9602;
1457289583296546;-8.9255;-0.8779;-3.4992;
1457289593402692;-13.8027;0.4516;-2.0186;
1457289603508890;-11.3521;-0.1352;-0.5743;
1457289613609567;-8.2502;0.4469;-1.8583;
1457289623715713;-11.2253;0.7175;-5.0492;
1457289633821859;-11.4529;1.3190;-1.4127;
1457289643923838;-7.5458;0.9739;-1.6044;
1457289654029984;-8.3602;0.3655;-3.4466;
1457289664136182;-9.5004;-0.0129;-3.8680;
1457289674227901;-9.8240;0.6410;-3.3505;
1457289684334046;-9.7543;-0.1759;-2.1362;
1457289694440244;-6.4917;-0.4035;-2.1793;
1457289704573161;-7.8260;-0.3604;-3.5925;
1457289714679307;-9.5342;-0.5997;-3.3912;
1457289724785505;-8.1063;0.6482;-2.4571;
1457289734896859;-5.6055;-0.3485;-5.0563;
1457289745003005;-15.8318;-0.3796;-9.6150;
1457289755109203;-13.1082;0.1570;-4.9962;
1457289765192796;-3.1068;0.5668;-0.0329;
1457289775298942;-3.7753;-0.4729;-3.8943;
1457289785405140;-12.6769;-0.8827;-5.5376;
1457289795522067;-13.8939;1.4291;-2.8211;
1457289805628213;-10.3822;0.7920;-0.9048;
1457289815734411;-9.0048;0.7896;-0.9861;
1457289825843317;-9.2536;-0.1137;-1.6594;
1457289835949463;-9.9078;0.3679;-1.6905;
1457289846055661;-11.1751;0.5070;-1.1611;
1457289856163942;-8.2406;0.4062;-1.9899;
1457289866270088;-7.3708;-0.2189;-4.8981;
1457289876376286;-8.3913;-0.0296;-5.7700;
1457289886477588;-9.0622;0.7223;-5.8301;
1457289896583734;-10.8108;0.7466;-6.7451;
1457289906689932;-8.3746;0.4684;-2.3252;
1457289916801859;-6.2593;-0.1424;0.3263;
1457289926908005;-7.4716;-0.6718;-4.6753;
1457289937014203;-10.7557;-0.6168;-4.3783;
1457289947116963;-11.2995;0.2722;-3.3482;
1457289957223109;-8.7939;-0.4585;-3.4657;
1457289967329307;-6.7792;-0.4178;-3.3888;
1457289977435192;-10.4731;0.0829;-3.5088;
1457289987541338;-11.0456;-0.3796;-1.8870;
1457289997647536;-7.3158;0.1546;-3.0488;
1457290007756963;-9.6132;0.7466;-4.1602;
1457290017863109;-9.0479;0.5812;-0.7540;
1457290027969307;-6.9230;1.0388;-1.5781;
1457290038061651;-10.0274;0.1522;-5.9043;
1457290048167796;-11.8385;0.9811;-4.1339;
1457290058273994;-8.3770;0.8303;-1.6642;
1457290068395192;-9.0814;0.3583;-2.9554;
1457290078501338;-10.1043;0.4564;-2.0617;
1457290088607536;-11.4841;0.5524;-2.6704;
1457290098704671;-12.0733;1.2039;-1.5805;
1457290108810817;-6.3625;0.6673;0.4582;
1457290118917015;-6.8198;1.1560;-3.7388;
1457290129024671;-12.6864;0.9739;-5.4754;
1457290139130817;-12.2985;1.5200;-1.3744;
1457290149237015;-5.5983;0.7032;0.6523;
1457290159340401;-5.6246;0.8327;-4.3783;
1457290169446546;-9.3544;0.5764;-6.3090;
1457290179552744;-11.2899;1.2398;-5.3725;
1457290189658213;-9.2656;1.1130;-3.0942;
1457290199764359;-8.1135;-0.1208;-3.3266;
1457290209870557;-8.0393;0.2100;-4.0358;
1457290219972848;-8.9040;0.1499;-3.4178;
1457290230078994;-12.4926;0.1690;-3.2022;
1457290240185192;-10.4946;1.0771;-3.9999;
1457290250291442;-9.6945;1.1536;-1.3409;
1457290260397588;-8.0704;0.2889;-0.0736;
1457290270503786;-8.2286;0.9404;-3.3817;
1457290280605609;-8.0106;0.2411;-5.0324;
1457290290711755;-9.1388;0.6434;-4.5389;
1457290300817953;-11.5104;-0.0706;-4.3496;
1457290310927588;-10.1450;0.0254;-2.5481;
1457290321033734;-8.7413;-0.9018;-1.8368;
1457290331139932;-11.2182;-0.7675;-2.0091;
1457290341238005;-9.9293;-1.0836;-1.0175;
1457290351344151;-10.5377;-0.7651;-0.6628;
1457290361519203;-7.9122;-0.4513;-3.1205;
1457290371625348;-5.7323;0.5668;-6.9081;
1457290381731494;-8.9518;0.4711;-7.1524;
1457290391769984;-9.2417;-0.3266;-3.1950;
1457290401876130;-7.2344;-1.3687;-3.8345;
1457290411982328;-10.0828;-0.3485;-4.5030;
1457290422093213;-11.2947;-0.6239;-1.4222;
1457290432199359;-7.9890;-0.7292;-0.4089;
1457290442305557;-7.2296;-0.7053;-3.9497;
1457290452403890;-10.4085;-0.4226;-4.9819;
1457290462510036;-9.4023;0.0159;-2.9985;
1457290472616234;-7.9316;0.2243;-5.1712;
1457290482715296;-9.7161;0.2818;-6.7642;
1457290492821442;-11.4434;0.8064;-3.6188;
1457290502927640;-9.6706;0.3751;0.9924;
1457290513036755;-6.3362;-0.0706;1.4955;
1457290523142901;-8.6309;-0.0921;-1.6451;
1457290533249098;-9.8767;0.2865;-3.3625;
1457290543358213;-7.0618;0.8088;-3.9206;
1457290553464359;-9.7137;0.8231;-6.3281;
1457290563570557;-12.0565;0.3416;-4.4381;
1457290573660401;-10.5066;0.2650;-2.4476;
1457290583766546;-9.8145;-0.1376;0.4965;
1457290593872744;-7.9675;0.3990;-0.5862;
1457290603996026;-11.7021;0.4735;-3.3529;
1457290614102171;-10.7725;1.1871;-0.5192;
1457290624208369;-8.8872;2.0447;-0.6604;
1457290634359776;-9.4071;1.2951;-3.7101;
1457290644465921;-7.3373;1.1871;-3.0200;
1457290654572119;-7.9843;0.6314;-5.2119;
1457290664650921;-11.1078;0.9428;-6.2300;
1457290674757067;-8.9853;0.7729;-2.0306;
1457290684863265;-6.0870;0.3464;-1.8846;
1457290694967588;-9.2082;-0.2333;-6.3233;
1457290705073734;-11.1102;-0.0105;-4.5437;
1457290715179932;-9.2656;1.1847;-3.3458;
1457290725274671;-11.2493;0.3727;-4.8909;
1457290735380817;-11.4864;1.1106;-1.5302;
1457290745487015;-9.2536;0.7848;-0.5838;
1457290755598265;-7.6944;0.1427;-1.7384;
1457290765704411;-8.3243;0.6936;-3.3912;
1457290775810609;-13.5392;0.5812;-4.6777;
1457290785910505;-11.6516;0.4110;-1.1372;
1457290796016651;-5.4808;-0.5351;-1.7599;
1457290806122848;-7.7423;-1.2921;-5.2238;
1457290816231026;-10.9857;-0.8874;-2.4906;
1457290826337171;-9.6610;-1.0836;-1.7985;
1457290836443369;-10.1091;-1.1363;-5.8780;
1457290846556182;-8.8585;-0.2979;-3.9760;
1457290856662328;-6.5563;-1.0908;-2.3495;
1457290866768526;-8.6883;-1.0597;-5.2047;
1457290876873317;-8.9542;-1.3017;-4.9125;
1457290886979463;-9.6371;-0.8946;-3.9999;
1457290897085661;-10.3917;-1.1916;-3.3577;
1457290907186546;-7.8332;-0.6335;-3.2237;
1457290917292692;-12.5046;-1.2347;-3.3242;
1457290927398890;-11.2445;-0.6670;-0.3586;
1457290937515713;-6.8414;-0.7938;1.1025;
1457290947621859;-8.8490;-0.6502;-3.4274;
1457290957728057;-13.0149;0.0972;-4.8311;
1457290967830192;-11.4314;0.4612;-1.4557;
1457290977936338;-8.4897;0.6888;-0.7636;
1457290988042536;-5.7900;-0.7077;-2.7996;
1457290998138682;-5.0234;-0.0778;-4.7375;
1457291008244828;-8.3483;0.1546;-6.2946;
1457291018351026;-9.9796;0.6386;-5.3222;
1457291028457276;-9.8432;0.2483;-5.4371;
1457291038563421;-9.6323;0.1403;-4.1698;
1457291048669619;-7.9555;-0.0655;-1.7097;
1457291058789776;-8.7748;0.0852;-2.1745;
1457291068895921;-9.9820;0.6697;-3.1591;
1457291079002119;-12.9308;1.5897;-1.7671;
1457291089100505;-12.3153;1.3717;0.8824;
1457291099206651;-7.9292;1.2855;-0.5336;
1457291109312848;-6.0559;1.8102;-3.2740;
1457291119413421;-10.6481;1.4339;-4.1076;
1457291129519567;-11.7954;1.5248;-1.3839;
1457291139625765;-8.7194;1.2182;-0.4161;
1457291149733682;-6.7505;0.7992;-4.0119;
1457291159839828;-10.8156;0.8471;-5.1090;
1457291169946026;-12.4325;1.1847;-2.2917;
1457291180063526;-12.1068;1.0603;-2.6321;
1457291190169671;-11.6830;1.1369;-2.0740;
1457291200275869;-8.2286;1.0412;1.2248;
1457291210369359;-5.0426;0.6840;-2.5122;
1457291220475505;-8.5998;0.3655;-8.6016;
1457291230581703;-10.2526;1.0579;-5.7509;
1457291240704255;-6.7624;0.5022;-3.6981;
1457291250810401;-8.4873;-0.2692;-6.2874;
1457291260916598;-8.4129;-0.0535;-4.6298;
1457291271002171;-9.4286;-0.6215;-2.9913;
1457291281108317;-9.4023;-0.5016;-0.9646;
1457291291214515;-8.5376;-0.3461;-4.1841;
1457291301316546;-8.8753;0.5261;-7.2888;
1457291311422692;-8.8442;0.0494;-3.6957;
1457291321528890;-9.3329;-0.6359;-3.4681;
1457291331656546;-9.2249;-0.4561;-3.7627;
1457291341762692;-9.7280;-0.3891;-1.5108;
1457291351868890;-11.4290;-0.6766;-0.4065;
1457291361979359;-10.6505;-0.2381;-0.1478;
1457291372085140;-8.2143;-0.7890;0.1134;
1457291382190921;-8.7099;-0.6311;-2.4188;
1457291392275557;-9.4932;-0.5207;-2.3375;
1457291402381286;-7.2559;-1.2538;-2.8741;
1457291412487067;-9.9700;-1.0932;-7.9331;
1457291422590713;-14.1191;-0.6096;-2.8932;
1457291432696494;-8.3961;-0.7172;3.3999;
1457291442802223;-4.9394;-0.9927;-2.3085;
1457291452901130;-8.4488;-0.3867;-6.8913;
1457291463006911;-6.2043;-0.5590;-3.4178;
1457291473112692;-8.8992;-0.2572;-5.8158;
1457291483287328;-14.5190;-0.1017;-6.5246;
1457291493393057;-11.9270;-0.1807;-0.4543;
1457291503498838;-6.3290;-0.4513;1.5864;
1457291513549046;-8.5591;0.6697;-4.5939;
1457291523654828;-12.6099;0.9811;-4.5604;
1457291533760557;-11.2086;1.5443;2.3889;
1457291543903786;-7.2464;1.0077;0.3673;
1457291554009463;-7.2488;0.8207;-6.9535;
1457291564115244;-6.7792;1.2613;-6.7690;
1457291574165765;-7.5841;1.0507;-4.4142;
1457291584271494;-12.2530;0.9045;-4.1937;
1457291594377223;-12.6912;1.1656;-0.8163;
1457291604508838;-8.1350;0.2435;0.7911;
1457291614614619;-5.7491;0.8207;-4.8383;
1457291624720401;-6.9254;1.0842;-6.5964;
1457291634829515;-9.7974;1.4937;-5.3103;
1457291644935296;-9.7950;1.0914;-1.8009;
1457291655041026;-8.3052;0.9236;-2.6321;
1457291665134098;-11.8600;1.0651;-3.3888;
1457291675239880;-12.8662;1.4865;-0.0233;
1457291685345661;-11.0169;1.6376;2.2502;
1457291695456182;-9.0239;1.1536;1.5099;
1457291705561963;-6.5061;0.2794;-2.7398;
1457291715667640;-9.1220;0.5022;-6.5198;
1457291725776494;-8.9160;0.8518;-5.5256;
1457291735882276;-8.7891;1.4602;-5.4849;
1457291745988005;-10.7079;0.7271;-3.7795;
1457291756097848;-9.0838;0.1259;0.9398;
1457291766203630;-8.3315;-0.0535;-0.0066;
1457291776309359;-10.8515;-0.0802;-3.3410;
1457291786411651;-9.1412;-0.0921;-2.9052;
1457291796517432;-8.2310;0.4253;-5.7963;
1457291806623161;-8.6620;0.2124;-7.3295;
1457291816732484;-9.3784;0.5381;-6.3715;
1457291826838265;-11.3019;-0.4083;-1.3648;
1457291836943994;-8.9901;-0.7196;-0.3084;
1457291847043057;-9.5988;-0.1304;-2.1529;
1457291857148838;-10.4085;0.6793;-0.5862;
1457291867254567;-7.2320;-0.3724;0.6643;
1457291877376703;-10.3173;-0.8201;-3.3242;
1457291887482432;-10.8658;-0.4250;-4.6442;
1457291897588213;-7.7495;-0.1400;-4.1530;
1457291907683265;-9.2731;-0.6072;-5.7532;
1457291917788994;-8.7987;-0.8656;-5.2047;
1457291927894776;-11.7619;-0.7220;-2.9243;
1457291938008682;-10.1761;-1.1148;0.7265;
1457291948114411;-8.6812;-1.0334;-1.1779;
1457291958220192;-12.3990;-0.1256;-4.1315;
1457291968320244;-10.4803;0.4783;-0.2270;
1457291978426026;-6.9517;-0.1256;0.3625;
1457291988531755;-8.2908;-0.5686;-4.2921;
1457291998645817;-7.6801;0.0637;-4.9795;
1457292008751598;-9.0239;-0.1017;-5.7437;
1457292018857328;-10.4539;0.1044;-5.2478;
1457292028964098;-6.8557;-0.2046;-4.1650;
1457292039069828;-7.9627;-0.7795;-4.6561;
1457292049175609;-8.9399;-0.2285;-2.4236;
1457292059276182;-9.5845;0.1140;-4.5245;
1457292069381911;-11.0145;1.0914;-4.7136;
1457292079487692;-7.9364;0.5979;-1.3600;
1457292089603473;-10.7127;1.0675;-1.6259;
1457292099709255;-11.9390;0.6793;-1.3839;
1457292109814932;-8.2956;1.1345;-0.2486;
1457292119905817;-7.2177;0.7681;-1.9349;
1457292130011598;-9.7448;0.0637;-3.3840;
1457292140117328;-11.6468;0.2243;-4.6920;
1457292150241703;-11.5511;0.6505;-0.7059;
1457292160347484;-5.8594;1.3310;0.7816;
1457292170453161;-7.4046;-0.2142;-4.5772;
1457292180539932;-12.0470;0.3559;-6.4505;
1457292190645713;-8.3267;0.3176;-1.2643;
1457292200751390;-6.6500;1.0962;-1.7575;
1457292210859359;-7.8380;-0.6550;-4.8096;
1457292220965140;-9.7759;-0.3123;-7.0756;
1457292231070921;-11.4649;0.4110;-3.7436;
1457292241197015;-8.3578;1.0125;-0.3921;
1457292251302744;-8.6070;0.8207;-1.8703;
1457292261408473;-13.2278;-0.3748;-2.6369;
1457292271499463;-10.7773;0.4902;-2.0521;
1457292281605244;-9.3162;0.9619;-1.7456;
1457292291710973;-9.6180;0.1857;-0.9024;
1457292301822901;-8.8059;0.6218;-0.9598;
1457292311928630;-10.9929;0.4014;-2.5792;
1457292322034359;-11.4099;0.7944;-3.2979;
1457292332140661;-7.0427;0.6027;-1.4270;
1457292342246390;-5.2316;-0.9090;-4.3400;
1457292352352171;-7.2535;-1.7545;-8.9178;
1457292362479255;-9.2082;-1.2897;-6.4600;
1457292372585244;-6.4247;0.9882;-3.6308;
1457292382691234;-8.1757;0.6697;-6.3353;
1457292392768682;-13.8820;0.2937;-5.9258;
1457292402874671;-11.5750;1.6639;1.9795;
1457292412980661;-7.7183;2.4568;2.1063;
1457292423091026;-10.5568;0.9021;-2.0378;
1457292433197015;-9.0287;-0.9712;-3.3290;
1457292443303005;-7.3564;-1.2179;-4.6585;
1457292453405244;-11.2469;1.0220;-5.6145;
1457292463511234;-12.1140;1.4195;-1.2497;
1457292473617276;-8.5567;2.1048;2.8944;
1457292483725140;-7.6223;1.6113;0.5372;
1457292493831130;-12.7968;0.0278;-3.5327;
1457292503937119;-11.5678;1.1249;-1.5494;
1457292514055973;-6.2139;0.7104;-1.0654;
1457292524161963;-7.8978;-0.1424;-6.5103;
1457292534267953;-10.4970;-0.2405;-7.9140;
1457292544389359;-7.5769;1.1225;-5.1784;
1457292554495348;-7.3804;2.0662;-3.4801;
1457292564601338;-10.4228;1.6902;-3.1253;
1457292574706651;-11.4123;0.8830;-2.4882;
1457292584812640;-10.5760;0.7175;-1.9181;
1457292594918630;-9.1627;0.8590;-2.1505;
1457292605017067;-9.3257;0.1068;-2.6465;
1457292615123057;-9.4095;0.5477;-2.2750;
1457292625229046;-9.5076;0.2578;-3.9903;
1457292635316026;-10.5760;0.5859;-4.3137;
1457292645422015;-9.0526;0.8925;-3.1711;
1457292655528057;-7.1240;0.6793;-3.0918;
1457292665635505;-9.6586;0.0541;-4.1339;
1457292675741494;-10.2383;0.2626;-2.7206;
1457292685847484;-8.7820;-0.1974;-2.0788;
1457292695958005;-8.5017;-0.4681;-4.5915;
1457292706063994;-11.6731;0.0996;-4.9364;
1457292716169984;-11.2038;0.4759;-0.5623;
1457292726287796;-8.3004;-0.8755;0.1923;
1457292736393786;-11.7954;-0.2524;-2.9818;
1457292746499776;-11.7308;-0.4896;-2.6010;
1457292756598265;-6.5731;0.3511;-0.9383;
1457292766704255;-6.4822;-0.8417;-4.6131;
1457292776810244;-11.7308;-0.3915;-6.0455;
1457292786910088;-10.4157;-0.0200;-2.1338;
1457292797016078;-6.6763;-0.2692;-3.7053;
1457292807122067;-10.1474;-0.4226;-5.2840;
1457292817248421;-12.2025;0.4158;-1.7719;
1457292827354411;-6.2641;0.4878;-0.1430;
1457292837460401;-5.4066;-0.7172;-5.6647;
1457292847556182;-9.6180;-0.3532;-7.8063;
1457292857662171;-10.5114;0.7825;-4.0956;
1457292867768161;-7.8404;0.0159;-3.9688;
1457292877867015;-9.6060;0.1762;-4.1578;
1457292887973005;-11.2947;0.2602;0.2019;
1457292898078994;-9.2850;0.6051;0.0150;
1457292908176755;-12.1857;0.9978;-3.8776;
1457292918282744;-11.2947;0.8901;1.1818;
1457292928388734;-7.5864;1.3860;1.2990;
1457292938516546;-8.3363;0.0924;-5.9545;
1457292948622536;-9.0646;0.7370;-4.5628;
1457292958728526;-6.6428;1.3956;-0.2821;
1457292968826546;-7.9699;0.7295;-3.0751;
1457292978932536;-11.6252;0.9428;-5.5232;
1457292989038526;-11.6611;0.5620;-1.3289;
1457292999140921;-8.7003;0.9165;0.8509;
1457293009246911;-9.8336;1.6831;-5.4778;
1457293019352901;-9.8839;0.9523;-4.7136;
1457293029466442;-9.3616;1.5658;0.6404;
1457293039572432;-10.7916;1.6328;-1.7121;
1457293049678473;-14.4449;1.8820;-2.8860;
1457293059777380;-10.3220;1.9848;2.1182;
1457293069883369;-4.6232;1.4195;1.5242;
1457293079989359;-6.4893;-0.1854;-5.4203;
1457293090103630;-13.6950;-0.3628;-7.3319;
1457293100209619;-11.1535;0.1475;0.1062;
1457293110315609;-7.7495;0.9141;-2.3252;
1457293120408109;-10.7246;0.6553;-6.5294;
1457293130514098;-12.6051;0.0111;-0.0927;
1457293140620140;-8.7891;0.7513;2.8035;
1457293150732796;-8.5089;-0.0511;-3.7220;
1457293160838786;-10.2024;-1.6466;-4.5293;
1457293170944776;-11.0886;-0.9353;-1.7647;
1457293181055296;-9.7902;-0.4561;-0.1454;
1457293191161286;-9.6227;-1.1171;-0.2438;
1457293201267328;-7.9508;-0.7842;0.4343;
1457293211359255;-8.1374;-1.0430;-1.7216;
1457293221465244;-12.9500;-0.5638;-4.5580;
1457293231571286;-11.4410;-0.1926;0.2210;
1457293241701755;-7.5194;0.0135;0.8847;
1457293251807744;-10.4013;-0.4633;-3.0488;
1457293261913734;-7.8380;-0.3939;-3.2836;
1457293272000088;-7.0666;0.7633;-2.3495;
1457293282106078;-7.5506;0.7343;-3.4202;
1457293292212119;-11.3378;0.6888;-5.2095;
1457293302320505;-14.4018;1.0866;-2.1817;
1457293312426494;-7.2679;1.6280;1.0235;
1457293322532536;-6.9159;0.9667;-1.5613;
1457293332641859;-12.8734;0.4759;-0.5432;
1457293342747848;-11.6157;2.0279;0.8847;
1457293352853890;-8.8896;1.2494;0.1014;
1457293362953838;-9.0072;-0.1615;-1.3337;
1457293373059671;-9.9556;1.7046;-2.4476;
1457293383165557;-11.1488;1.6256;-2.1840;
1457293393265817;-7.7638;1.2135;-1.7384;
1457293403371651;-7.6944;0.8231;-3.8776;
1457293413477484;-10.2335;1.2350;-4.3615;
1457293423606390;-8.2860;1.0579;-3.7699;
1457293433712223;-8.7266;1.1034;-5.6408;
1457293443818057;-11.0886;1.5897;-3.3505;
1457293453908109;-10.7988;1.8963;-0.5216;
1457293464013942;-8.2956;0.4110;-1.8703;
1457293474119776;-8.3076;0.3751;-0.9885;
1457293484221651;-8.1494;1.1800;-1.6690;
1457293494327484;-7.5458;0.1642;-2.5146;
1457293504433369;-9.4956;0.4783;-4.3161;
1457293514539046;-11.2493;0.5213;-5.6121;
1457293524644880;-10.4324;0.6840;-2.6034;
1457293534750713;-5.4927;0.2602;-1.1133;
1457293544862588;-4.8006;-0.9185;-4.5580;
1457293554968421;-10.0418;0.0757;-4.4644;
1457293565074255;-13.7405;1.5778;0.0102;
1457293575172171;-8.2071;0.4540;-0.1047;
1457293585278005;-8.5256;-0.6718;-3.9975;
1457293595383838;-11.0719;1.0723;0.0485;
1457293605506130;-7.0546;0.7080;1.1746;
1457293615611963;-5.2893;-0.2859;-0.3538;
1457293625717796;-8.5807;-0.4705;-3.7938;
1457293635821859;-14.5860;-0.0440;-4.4791;
1457293645927692;-11.4290;0.6697;0.9757;
1457293656033526;-9.4908;-0.0081;-0.9885;
1457293666141338;-10.0657;-0.1831;-0.9502;
1457293676247171;-8.8179;0.3320;5.0623;
1457293686353005;-6.9350;-1.1390;0.8871;
1457293696455817;-13.1584;-0.5566;-4.4070;
1457293706561651;-12.2913;0.7466;-0.0449;
1457293716667484;-7.8595;0.2865;-0.1454;
1457293726784046;-10.0609;-0.0583;-2.8044;
1457293736889880;-10.7916;-0.2189;-1.4557;
1457293746995713;-9.7854;-0.2261;0.3840;
1457293757097380;-8.9016;-1.2036;-0.2318;
1457293767203213;-10.8972;-1.0621;-3.5997;
1457293777309046;-12.1499;0.0637;-3.6404;
1457293787421598;-11.6806;0.6673;-1.3074;
1457293797527432;-8.0106;0.1092;0.9230;
1457293807633265;-9.0191;-1.1267;-2.4571;
1457293817754880;-10.0561;-0.0248;-2.3471;
1457293827860713;-8.3770;0.3392;-2.3327;
1457293837966546;-8.9040;-0.3218;-3.7292;
1457293848055609;-9.5773;0.2124;-4.8503;
1457293858161442;-8.0728;-0.7699;-4.4910;
1457293868267276;-8.9901;-0.2548;-3.2381;
1457293878380609;-10.0828;0.3176;-2.7517;
1457293888486442;-9.3616;-0.1998;-3.1735;
1457293898592276;-10.8491;0.5357;-2.4117;
1457293908687901;-7.9723;0.3057;-0.1621;
1457293918793734;-6.1469;0.1499;-0.7059;
1457293928899567;-10.3029;-0.1376;-4.2156;
1457293939003838;-13.9226;1.0795;-1.9899;
1457293949109671;-7.8452;1.3813;0.0870;
1457293959215505;-9.3616;-0.0248;-1.2353;
1457293969332380;-10.1545;0.0350;-1.5996;
1457293979438213;-8.5400;0.2889;-1.5012;
1457293989544046;-8.9901;0.4854;-0.4496;
1457293999635713;-6.3048;0.1379;-2.0545;
1457294009741546;-8.1087;-0.1208;-5.3964;
1457294019847380;-12.2435;0.7585;-3.8656;
1457294029956598;-13.1632;1.8867;-0.1884;
1457294040062484;-13.5921;1.6902;1.3421;
1457294050168265;-10.4181;0.6290;1.5458;
1457294060274151;-7.8835;-0.1448;1.4477;
1457294070379984;-7.8404;0.1834;-0.0281;
1457294080485817;-10.8658;1.4243;-2.1984;
1457294090595609;-11.1440;1.4554;-4.9699;
1457294100701442;-6.9852;0.5333;-4.2945;
1457294110807276;-4.3382;0.9787;-3.2189;
1457294120913526;-10.0537;0.5166;-6.3619;
1457294131019359;-15.1947;1.8508;-2.2199;
1457294141125192;-6.8943;1.1082;2.8920;
1457294151228526;-3.4950;0.3583;-1.1635;
1457294161334359;-9.0933;-0.7651;-4.6992;
1457294171440244;-14.8663;1.4698;-6.0550;
1457294181558005;-11.7332;2.0255;-3.3529;
1457294191663838;-6.6787;1.1728;-2.0330;
1457294201769671;-10.9379;1.0364;-2.8451;
1457294211867901;-12.8088;1.5849;0.5611;
1457294221973734;-11.2899;0.9619;2.1350;
1457294232079567;-7.4524;1.2760;1.3588;
1457294242194671;-10.0609;0.5979;0.8533;
1457294252300505;-12.9930;1.2422;0.1038;
1457294262406338;-9.5581;0.3488;0.0102;
1457294272508838;-9.8743;1.5248;-2.2128;
1457294282614671;-7.3014;-0.1639;-1.8153;
1457294292720505;-4.7336;0.0326;-3.5207;
1457294302810192;-9.9102;0.4134;-7.5021;
1457294312916026;-14.4879;1.2326;-6.3930;
1457294323021911;-11.0647;0.6147;-0.5527;
1457294333157953;-7.8093;-0.0368;-0.3969;
1457294343263734;-8.4488;0.2076;-2.7302;
1457294353369567;-8.9160;0.8231;-1.5302;
1457294363437484;-14.7921;1.7166;-2.3997;
1457294373543369;-12.6649;1.4411;2.4105;
1457294383649255;-5.9288;-0.1998;0.9111;
1457294393788734;-9.5195;1.2784;-2.5935;
1457294403894619;-9.6826;0.5405;-2.5624;
1457294414000505;-8.3698;1.0101;-3.8584;
1457294424103526;-8.4033;0.7466;-2.3180;
1457294434209411;-6.5850;0.0470;-3.7555;
1457294444315296;-7.8165;0.0900;-7.3511;
1457294454408109;-9.4860;-0.2261;-5.2816;
1457294464513994;-9.2273;-0.1711;-1.3361;
1457294474619880;-10.0899;-0.3290;-2.2247;
1457294484733630;-12.0039;0.6625;-1.8057;
1457294494839515;-9.7878;0.5166;1.1985;
1457294504945401;-9.0814;-0.0057;0.4080;
1457294515043421;-11.5511;1.2015;-0.7971;
1457294525149307;-12.0948;0.8877;0.0748;
1457294535255192;-9.1388;0.3775;-0.2366;
1457294545366442;-9.9150;0.2650;0.5157;
1457294555472328;-10.4420;-0.7340;0.0173;
1457294565578213;-11.0767;-0.8130;-1.7985;
1457294575681338;-11.1894;-1.4982;-0.5767;
1457294585787223;-9.4789;-1.4743;0.1995;
1457294595893109;-6.1445;-2.0324;-0.4594;
1457294606011338;-7.9193;-1.9292;-4.5006;
1457294616117223;-10.9786;-1.4575;-6.3233;
1457294626223109;-10.9905;-1.4910;-2.0282;
1457294636326598;-7.4883;-0.9018;-1.2667;
1457294646432484;-7.8284;-1.4958;-4.1507;
1457294656538369;-8.3985;-1.2012;-3.8776;
1457294666647276;-9.4525;-0.0921;-2.7685;
1457294676753161;-10.1019;0.4807;-2.5935;
1457294686859046;-9.7998;0.0111;-3.1711;
1457294696962796;-10.6672;1.0723;-1.9229;
1457294707068682;-9.5725;0.4014;-0.9407;
1457294717174567;-6.7672;0.0613;-1.4342;
1457294727285505;-7.7279;1.3382;-3.8632;
1457294737391390;-10.8084;1.3884;-3.0870;
1457294747497276;-8.8537;0.8088;-0.9263;
1457294757602588;-9.1268;0.8447;-1.2425;
1457294767708473;-10.0322;0.4660;-1.4557;
1457294777814359;-9.6275;-0.0945;-0.7493;
1457294787921182;-9.3640;0.3248;-0.1959;
1457294798027067;-12.2435;0.3894;-1.3959;
1457294808132953;-13.1417;0.6553;1.0068;
1457294818253317;-9.5219;0.2961;1.2248;
1457294828359203;-7.2368;-0.0009;-0.4304;
1457294838465088;-9.4621;0.8279;-2.0955;
1457294848556338;-10.0202;0.3775;-1.8296;
1457294858662223;-9.8073;0.1164;-2.9722;
1457294868768109;-10.4085;0.6027;-2.3949;
1457294878870505;-8.6381;-0.4490;0.5252;
1457294888976390;-7.9866;-0.4250;0.5946;
1457294899082276;-8.0560;-0.5207;-2.1888;
1457294909185609;-6.8557;-0.1232;-3.3721;
1457294919291494;-7.7399;0.4636;-4.7617;
1457294929397380;-10.5042;0.3727;-5.0228;
1457294939508213;-13.0412;0.6362;-4.2275;
1457294949614098;-10.6074;0.8040;-2.5050;
1457294959719984;-6.8342;0.6314;-3.0751;
1457294969823942;-7.1698;1.9513;-2.4021;
1457294979929828;-8.3530;1.1225;-0.0927;
1457294990035713;-11.6372;0.2913;-2.4954;
1457295000165348;-13.2039;1.4937;-1.5565;
1457295010271234;-8.7003;-0.0272;1.1626;
1457295020377119;-8.4512;0.1546;0.3048;
1457295030466755;-9.6993;0.5333;-0.6676;
1457295040572640;-9.1340;-0.6263;-2.2223;
1457295050678526;-9.7974;0.6793;-1.8129;
1457295060777796;-9.5052;-0.5638;-1.1994;
1457295070883682;-9.8073;-0.3556;-2.1840;
1457295080989567;-9.2632;-0.0511;-2.0067;
1457295091094255;-8.1999;-0.6598;-4.1530;
1457295101200140;-11.7188;0.2148;-4.0430;
1457295111306026;-9.4167;0.2219;1.4812;
1457295121404984;-6.1469;-0.7603;-0.2844;
1457295131510869;-10.1737;0.9236;-3.1759;
1457295141616755;-11.6396;0.1331;-0.7325;
1457295151744151;-9.2297;-0.0873;-0.0377;
1457295161850036;-8.0632;0.3511;-1.9421;
1457295171955921;-8.8035;0.5166;-3.5710;
1457295182045505;-10.5305;0.5166;-3.3171;
1457295192151390;-7.1073;0.5453;-1.6522;
1457295202257276;-7.6534;-0.2213;-3.8871;
1457295212365921;-13.2063;0.7418;-4.6274;
1457295222471807;-13.2832;0.0996;-0.0712;
1457295232577692;-8.0680;-0.0129;-0.5264;
1457295242686234;-7.2990;0.5070;-1.9325;
1457295252792119;-10.4731;1.0555;-0.3467;
1457295262898005;-12.0015;0.3368;-1.6618;
1457295273004880;-11.7739;0.5668;-0.4738;
1457295283110765;-8.2262;0.4110;0.0942;
1457295293216651;-8.3650;0.8040;-1.8966;
1457295303327171;-8.2645;0.2770;-2.5576;
1457295313433057;-8.8298;-0.0754;-2.5217;
1457295323538942;-9.3497;0.1187;-3.6595;
1457295333662640;-9.6395;-0.1663;-4.0310;
1457295343768526;-11.1966;0.0206;-1.2329;
1457295353874411;-8.7652;-0.6239;2.3602;
1457295363964776;-8.5926;-0.7125;-1.0989;
1457295374071026;-11.0097;-0.1472;-3.0488;
1457295384177276;-12.3655;0.5453;0.5970;
1457295394284984;-10.2144;0.4181;1.3062;
1457295404391234;-8.4873;1.0002;-0.5743;
1457295414497484;-8.5831;0.3631;-1.9277;
1457295424619671;-11.1631;0.8303;-1.3696;
1457295434725921;-7.6199;0.6505;-0.7636;
1457295444832171;-6.4917;0.0852;-2.6632;
1457295454912692;-10.0155;-0.3532;-2.5457;
1457295465018942;-12.6362;-0.5686;0.5276;
1457295475125192;-10.6792;-1.1390;0.0772;
1457295485234359;-8.6883;0.2626;-0.5934;
1457295495340609;-9.1771;-0.1232;1.0092;
1457295505446859;-8.5663;-0.3508;0.3649;
1457295515548317;-11.0121;0.4759;-1.0941;
1457295525654567;-11.4434;-0.1735;-0.5456;
1457295535760817;-11.1078;0.2076;0.5946;
1457295545863005;-10.8900;0.4998;-0.4448;
1457295555969255;-9.5821;0.5357;-0.8952;
1457295566075505;-10.1474;0.0829;0.4199;
1457295576191963;-12.1738;-0.0535;1.2488;
1457295586298213;-8.7485;0.2267;0.3553;
1457295596404463;-8.8107;-0.6622;-0.0879;
1457295606512588;-7.5984;-0.2692;1.9265;
1457295616618838;-6.2115;-1.2491;-0.4594;
1457295626725088;-12.0494;-0.3218;-4.1889;
1457295636824515;-13.1369;-0.1424;-4.2634;
1457295646930765;-9.6826;-0.3290;-1.5972;
1457295657037015;-8.3626;-0.3508;-0.6987;
1457295667145036;-10.2718;0.4349;-0.1334;
1457295677251286;-10.2120;-0.3628;0.8007;
1457295687357536;-9.5052;0.0230;0.8151;
1457295697464359;-8.5017;0.8279;-1.1707;
1457295707570609;-10.6816;0.1187;-3.1854;
1457295717676859;-10.2838;1.1680;-2.7613;
1457295727793005;-7.8500;0.7271;-1.7503;
1457295737899255;-9.8839;0.5716;-1.7599;
1457295748005505;-11.5582;0.9930;-2.8499;
1457295758102067;-10.0657;0.6434;-1.3002;
1457295768208317;-9.0526;0.5883;-0.3251;
1457295778314567;-9.6012;0.3129;0.1349;
1457295788428109;-10.8060;0.1834;0.5946;
1457295798534359;-10.7222;0.4516;0.2067;
1457295808640609;-10.2072;0.3655;-0.9383;
1457295818757067;-11.5798;0.0781;-1.2595;
1457295828863317;-10.8781;-0.0368;-1.5350;
1457295838969567;-10.6648;0.2411;-1.3983;
1457295849043265;-10.8156;0.0135;-0.6915;
1457295859149515;-8.1446;0.4831;-1.2353;
1457295869255765;-8.4368;0.3320;-2.8765;
1457295879383317;-11.2373;0.1235;-1.1037;
1457295889489567;-8.7266;0.1762;0.2210;
1457295899595817;-7.9217;-0.0057;-1.3217;
1457295909690296;-8.5328;-0.3628;-0.8761;
1457295919796546;-8.9614;1.0172;-2.0210;
1457295929902796;-9.6371;0.1953;-2.8379;
1457295940009046;-10.6959;1.1417;-3.4657;
1457295950115296;-11.2947;0.6625;-2.1601;
1457295960221546;-10.0298;1.0364;0.7792;
1457295970327171;-6.1158;-0.1232;0.6404;
1457295980433421;-8.6620;0.8590;-2.3109;
1457295990539671;-13.5826;1.5658;-2.1960;
1457296000635921;-12.1738;1.2206;-0.4881;
1457296010742171;-7.8284;0.9715;-0.2653;
1457296020848421;-8.4658;1.2230;-0.3179;
1457296030968630;-10.3702;0.8471;-1.3935;
1457296041074880;-11.1870;1.0196;-1.9732;
1457296051181130;-10.2431;1.3382;-0.0760;
1457296061277015;-8.4607;0.1259;0.8991;
1457296071383265;-10.3340;0.5668;-0.3275;
1457296081489515;-11.2229;-0.1567;1.0475;
1457296091606026;-10.2455;0.0230;1.9193;
1457296101712276;-9.6802;-0.4585;0.8991;
1457296111818526;-10.2790;-0.3796;-0.7301;
1457296121919046;-10.7055;0.5022;-0.3227;
1457296132025296;-8.8920;-0.2907;-0.3706;
1457296142131546;-9.5725;-0.3724;-1.7862;
1457296152241546;-9.8145;-0.9592;-1.5900;
1457296162347796;-10.8876;-0.2022;-1.3744;
1457296172454046;-8.0991;-0.1711;-0.2462;
1457296182566026;-8.7628;-0.3075;1.1841;
1457296192672276;-10.9570;-0.4633;-0.5025;
1457296202778526;-12.4854;-0.5782;-1.1444;
1457296212885765;-10.4204;-0.3147;-0.7708;
1457296222992015;-10.0179;0.0326;0.4247;
1457296233098265;-10.7031;-0.6479;1.5577;
1457296243209984;-10.8443;-0.3485;0.3383;
1457296253316234;-11.6758;-0.3724;0.0030;
1457296263422484;-9.7041;-0.7747;1.1937;
1457296273509463;-10.2455;-0.4083;-0.7301;
1457296283615713;-10.5927;-0.3748;-1.4701;
1457296293721963;-8.6429;0.0613;-3.0990;
1457296303888317;-9.0239;-0.4274;-3.2907;
1457296313994567;-8.9758;-0.8731;-3.6165;
1457296324100817;-8.3076;0.0446;-3.0535;
1457296334149984;-8.0728;0.2219;-2.9698;
1457296344256234;-10.7605;-0.8779;-0.8498;
1457296354355921;-9.4454;-0.3820;0.0724;
1457296364462119;-8.5256;1.0268;-0.3849;
1457296374568369;-9.9532;-0.3218;0.0293;
1457296384697276;-9.9891;0.2746;1.3277;
1457296394803526;-6.4582;0.8518;0.0221;
1457296404909776;-6.4654;0.8590;-2.8980;
1457296415011026;-10.5425;0.5620;-5.0420;
1457296425117276;-13.3071;1.5443;-4.1195;
1457296435223526;-9.7328;1.2999;-1.6977;
1457296445324463;-9.6203;1.1489;0.0604;
1457296455430713;-10.9044;1.6232;1.2368;
1457296465536963;-9.6873;2.2364;1.0140;
1457296475621130;-11.9608;1.8485;0.4845;
1457296485727380;-10.9953;1.6854;0.5157;
1457296495833630;-10.2359;1.8508;0.1301;
1457296505942276;-10.0011;1.5921;-1.1515;
1457296516048526;-11.3737;1.4554;-1.0319;
1457296526154776;-8.2573;0.5357;0.1660;
1457296536273838;-6.8991;0.1259;-0.1717;
1457296546380088;-9.2201;0.5955;-1.1468;
1457296556486338;-11.0767;0.0278;-0.9936;
1457296566583630;-7.6896;-0.2070;0.7122;
1457296576689880;-7.1435;0.3033;-1.8559;
1457296586796130;-10.7151;0.3583;-1.6427;
1457296596911338;-9.2584;0.0422;-0.0879;
1457296607017588;-9.9676;-0.3314;-0.8354;
1457296617123838;-11.5343;0.4038;0.0461;
1457296627228213;-9.4478;-0.2022;1.2799;
1457296637334463;-8.9160;0.0398;-0.1911;
1457296647440713;-11.9465;0.3583;1.1913;
1457296657547588;-9.5557;-0.6766;1.0451;
1457296667653838;-8.8729;0.6003;-1.1204;
1457296677760088;-8.9495;-0.6479;-0.9718;
1457296687874932;-11.2971;0.3775;-3.2501;
1457296697981182;-7.9340;-0.2812;-2.9219;
1457296708087432;-7.0546;-1.0813;-3.1376;
1457296718183682;-12.6458;0.8662;-2.9052;
1457296728289932;-14.3273;-0.6191;-1.3576;
1457296738396182;-13.5921;0.1690;0.1277;
1457296748519359;-8.8202;-0.6048;2.6548;
1457296758625609;-6.8895;-0.1902;1.9699;
1457296768731859;-8.8801;0.0326;-0.7253;
1457296778830765;-12.8566;-0.1687;-0.8163;
1457296788937015;-8.7389;0.4926;-0.6365;
1457296799043265;-4.7647;-1.0765;-0.5982;
1457296809138838;-10.8036;-0.4513;-2.9841;
1457296819245088;-14.1263;-0.4466;-1.6259;
1457296829351338;-9.6156;-0.6909;-0.6772;
1457296839477484;-4.9226;0.2722;-0.7780;
1457296849583734;-10.0585;0.0494;-0.5097;
1457296859689984;-8.8346;0.4421;-1.4151;
1457296869779880;-11.0982;0.3248;-1.5350;
1457296879886130;-11.5008;0.9093;-2.4165;
1457296889992380;-7.8978;1.1130;-1.1324;
1457296900089880;-10.6050;1.9920;-2.3399;
1457296910196130;-11.6252;2.3659;0.9422;
1457296920302380;-6.4199;0.9093;0.3649;
1457296930405088;-11.9294;2.3779;-1.0750;
1457296940511338;-9.4860;0.2937;1.2631;
1457296950617588;-9.0861;1.5730;-1.4151;
1457296960726026;-11.4984;0.4493;-1.7312;
1457296970832276;-11.8337;0.6123;-1.9181;
1457296980938526;-9.1077;-0.7029;0.5420;
1457296991043942;-7.0977;0.6099;1.4907;
1457297001150192;-7.4788;-0.0993;-0.6197;
1457297011256442;-11.5750;0.5166;-6.1750;
1457297021363838;-15.5133;1.6783;-4.5221;
1457297031470088;-8.7461;1.0436;0.9326;
1457297041576338;-3.7298;0.1881;0.9135;
1457297051672067;-11.7332;0.6051;-0.0999;
1457297061778317;-10.8203;0.7128;1.5482;
1457297071884567;-13.2063;0.5859;1.1865;
1457297081987276;-11.5008;-0.2788;1.6822;
1457297092093526;-10.9857;0.0637;1.8978;
1457297102199776;-7.8260;-0.1639;2.3219;
1457297112316755;-7.6487;0.2219;-1.5278;
1457297122423005;-11.5080;0.6027;-3.8393;
1457297132529255;-10.0609;0.3440;-2.3351;
1457297142632588;-9.4095;0.6410;-2.1123;
1457297152738838;-7.6534;-0.5518;-2.7900;
1457297162845088;-11.6539;1.1584;-2.3758;
1457297172951338;-8.2214;-0.2166;0.8462;
1457297183057588;-8.3004;0.7561;-0.5456;
1457297193163838;-12.9595;0.5883;0.1612;
1457297203264359;-10.0466;0.0972;2.2525;
1457297213370609;-8.0225;-0.1950;1.2320;
1457297223476859;-10.6146;0.6194;-0.3514;
1457297233588838;-11.8863;-0.0392;0.4223;
1457297243695088;-10.3391;0.5668;0.0799;
1457297253801338;-10.2670;0.7466;-1.6403;
1457297263900921;-10.6481;0.7801;-0.6580;
1457297274007171;-9.0455;0.7777;-0.9670;
1457297284113421;-9.6323;0.2674;-2.0043;
1457297294211651;-10.3029;0.1738;-1.5685;
1457297304317901;-8.7147;-0.3170;-0.2581;
1457297314424151;-10.9594;0.1881;-1.0534;
1457297324542276;-13.1178;1.0507;-0.0401;
1457297334648526;-8.3315;-0.6431;1.1554;
1457297344754776;-7.4022;0.5213;0.5707;
1457297354871338;-11.9031;0.6817;0.3577;
1457297364977588;-9.0311;0.1211;-0.3347;
1457297375083786;-9.9389;0.6386;-0.7564;
1457297385175296;-10.8156;0.3224;-1.7216;
1457297395281546;-10.4061;0.7825;-0.9191;
1457297405387744;-8.7147;0.5668;-0.1047;
1457297415517901;-9.0670;0.5572;-1.0223;
1457297425624151;-10.6337;1.0938;-2.4188;
1457297435730348;-11.7188;1.2111;-2.1434;
1457297445817171;-8.5687;0.1092;0.1181;
1457297455923421;-8.7003;0.9763;-1.5132;
1457297466029619;-11.6396;0.6864;-0.2246;
1457297476125765;-8.7676;0.5453;-0.3036;
1457297486232015;-7.6176;0.4735;-1.2544;
1457297496338213;-11.3378;0.3033;-2.1697;
1457297506453682;-11.1894;0.4038;-0.1095;
1457297516559932;-8.8442;0.1283;-0.5121;
1457297526666130;-8.8609;-0.1065;-0.2844;
1457297536767692;-10.2215;0.2028;-0.6628;
1457297546873942;-10.0923;0.0637;0.4558;
1457297556980140;-8.5687;-0.4729;0.2521;
1457297567103161;-9.5892;-0.3628;-0.5121;
1457297577209411;-10.5377;-0.3867;-0.2629;
1457297587315609;-8.4559;-1.1605;-0.8904;
1457297597409151;-10.0202;-1.1267;-1.9086;
1457297607515401;-10.4611;-0.5447;-1.3193;
1457297617621598;-8.7604;-0.5590;-0.6939;
1457297627730401;-9.3664;-0.8177;-1.4127;
1457297637836651;-10.8733;-0.5255;-1.9899;
1457297647942848;-9.8121;-0.2118;-0.3634;
1457297658042796;-8.9614;-0.5710;-0.8713;
1457297668149046;-10.0179;-0.1783;-1.5972;
1457297678255244;-10.2550;0.3272;-1.0247;
1457297688372692;-11.0599;0.1427;-1.2473;
1457297698478942;-11.1293;-0.6957;-0.7226;
1457297708585140;-7.3950;-0.4107;0.4845;
1457297718677171;-8.4081;-0.0440;-0.1430;
1457297728783421;-14.4209;0.1116;-1.4773;
1457297738889619;-11.5439;-0.2883;0.6691;
1457297748994932;-5.6653;-0.4992;1.1097;
1457297759101182;-9.4669;0.1259;-0.5862;
1457297769207380;-13.3549;0.3272;-0.3562;
1457297779321234;-9.8312;0.6817;0.8533;
1457297789427484;-7.0092;1.0699;-0.9694;
1457297799533682;-10.9283;1.0220;-1.5302;
1457297809639515;-12.0302;1.3119;-0.2390;
1457297819745765;-8.7987;0.8160;0.5611;
1457297829851963;-7.7327;1.4889;-0.8545;
1457297839993526;-11.5367;1.9801;-0.5767;
1457297850099776;-11.1440;1.5682;0.5683;
1457297860205973;-7.9026;0.2746;0.7887;
1457297870273109;-9.2369;0.7848;-0.4089;
1457297880379359;-10.3534;1.4195;-0.3227;
1457297890485557;-10.4587;1.3334;0.2474;
1457297900595817;-10.2311;0.9236;-1.0510;
1457297910702067;-11.3091;0.6553;-1.2066;
1457297920808265;-9.6682;1.1991;0.6260;
1457297930904932;-7.4740;0.8327;0.9350;
1457297941011182;-9.0933;1.1752;-0.4834;
1457297951117380;-13.9633;1.3525;-1.3361;
1457297961238213;-11.3617;1.1417;-0.4184;
1457297971344463;-6.5707;0.5237;0.0799;
1457297981450661;-8.2358;0.8710;-0.7516;
1457297991541442;-12.3583;0.8877;-0.8426;
1457298001647692;-11.3809;0.4759;0.1540;
1457298011753890;-9.1675;0.2722;0.4271;
1457298021863005;-9.8264;0.0230;-0.0640;
1457298031969255;-8.8490;0.3440;0.3601;
1457298042075453;-8.6979;1.4889;-0.6915;
1457298052179776;-9.6610;2.2268;-1.7575;
1457298062286026;-10.7103;1.9466;-1.7073;
1457298072392223;-12.1355;1.7883;-0.6078;
1457298082507796;-8.8274;1.0077;-0.1669;
1457298092614046;-7.4836;1.0460;-1.0822;
1457298102720244;-9.0383;1.6974;-2.0931;
1457298112821026;-11.8313;2.6797;-3.3123;
1457298122927276;-10.0804;3.0700;-2.4045;
1457298133033473;-6.7146;3.0341;-2.1529;
1457298143149880;-9.6969;2.9791;-2.8980;
1457298153256130;-12.3870;2.4712;-1.3624;
1457298163362328;-9.6610;1.9490;-1.0487;
1457298173440296;-8.5663;1.9059;-1.8416;
1457298183546546;-8.7796;1.5562;-0.7421;
1457298193652744;-8.8226;1.5200;-0.0544;
1457298203791234;-9.2560;2.0904;-0.5862;
1457298213897484;-10.2550;2.4999;-0.5360;
1457298224003682;-11.3665;2.7371;-0.0425;
1457298234097796;-9.8695;2.8352;-0.3610;
1457298244204046;-9.2082;3.0365;-1.0319;
1457298254310244;-9.9963;3.2354;-0.9144;
1457298264413630;-9.4525;3.1780;0.2043;
1457298274519880;-8.8801;3.3072;0.5827;
1457298284626078;-10.4850;3.0652;0.0532;
1457298294723526;-10.1474;2.6366;0.5611;
1457298304829776;-8.5998;2.5119;-0.0185;
1457298314935973;-9.1484;2.2364;-1.1922;
1457298325084463;-11.0097;1.7501;-0.4881;
1457298335190713;-10.8996;1.7907;0.3505;
1457298345296911;-9.9867;1.9011;-0.4328;
1457298355361442;-10.0561;1.5538;-1.5374;
1457298365467484;-10.3846;0.5835;-0.5527;
1457298375573473;-9.9700;-0.4226;0.5444;
1457298385673421;-9.1627;-0.7172;0.3625;
1457298395779463;-8.8992;-0.1639;-0.1190;
1457298405885453;-9.3736;0.0422;-0.4065;
1457298415998526;-10.2120;1.1273;-1.6355;
1457298426104567;-10.8467;1.2879;-1.3911;
1457298436210557;-10.8323;0.6793;-0.9766;
1457298446317901;-10.4516;1.0149;-1.8966;
1457298456423942;-9.7208;-1.3328;0.1110;
1457298466529932;-10.0995;-1.2060;-1.6451;
1457298476639515;-10.3391;-1.1414;-2.5552;
1457298486745557;-10.6505;-1.4097;-1.7097;
1457298496851546;-10.3774;-0.5495;-2.5481;
1457298506953526;-9.5366;-1.3161;-2.3758;
1457298517059567;-8.8968;-1.3831;-2.5313;
1457298527165557;-8.2765;-0.9329;-2.2439;
1457298537270192;-7.9217;-0.8970;-1.6738;
1457298547376234;-7.9938;-1.1171;-1.9277;
1457298557482223;-8.2430;-1.0932;-2.2774;
1457298567608526;-9.6180;0.2961;-1.7384;
1457298577714515;-10.5329;0.0637;-1.1396;
1457298587820557;-11.1535;-0.1567;-1.7862;
1457298597908109;-10.1402;-0.3532;-2.0450;
1457298608014151;-9.0479;-0.1184;-1.9277;
1457298618120140;-8.9830;-0.1759;-1.9564;
1457298628236130;-9.4478;0.0733;-2.3133;
1457298638342171;-9.8264;-0.4442;-1.7408;
1457298648448161;-9.9197;-0.5518;-1.2425;
1457298658547796;-10.0609;-0.1448;-1.7240;
1457298668653838;-9.8456;0.2985;-1.9516;
1457298678759828;-9.2683;0.6170;-1.3337;
1457298688866442;-9.5366;0.5046;-1.3217;
1457298698972484;-10.0708;0.7056;-2.0545;
1457298709078473;-9.8839;1.2541;-1.8823;
1457298719188265;-9.4980;1.7118;-1.5709;
1457298729294307;-9.6251;1.8027;-1.6977;
1457298739400296;-9.6538;1.8150;-1.5805;
1457298749515296;-9.4214;1.7644;-1.4701;
1457298759621338;-9.2803;1.8820;-1.5972;
1457298769727328;-9.3640;2.1335;-2.0282;
1457298779818630;-9.3760;2.2771;-2.2965;
1457298789924671;-9.3066;2.5382;-2.0043;
1457298800030661;-9.6849;2.7108;-2.2223;
1457298810148213;-9.5797;2.7227;-2.0210;
1457298820254255;-9.4143;2.3755;-1.9349;
1457298830360244;-9.3449;2.1263;-1.9301;
1457298840466130;-9.3090;2.1263;-1.6905;
1457298850572171;-9.4573;2.0614;-1.6977;
1457298860678161;-9.5414;2.0064;-1.8392;
1457298870771755;-9.5366;1.9370;-2.0545;
1457298880877796;-9.4669;2.0423;-2.2343;
1457298890983786;-9.3951;1.8939;-2.0450;
1457298901088630;-9.4334;1.7979;-2.0426;
1457298911194671;-9.4669;1.6161;-2.0330;
1457298921300661;-9.3855;1.3932;-1.8870;
1457298931410921;-9.5291;1.2951;-2.0019;
1457298941516963;-9.6036;1.2446;-2.0668;
1457298951622953;-9.4860;1.0938;-1.8870;
1457298961745921;-9.5557;0.9452;-2.0091;
1457298971851963;-9.6419;0.7729;-2.0979;
1457298981957953;-9.5219;0.6386;-1.9397;
1457298992056598;-9.4908;0.5979;-1.9804;
1457299002162640;-9.5315;0.6194;-2.2247;
1457299012268630;-9.4454;0.5213;-2.1745;
1457299022363005;-9.5004;0.5644;-2.0883;
1457299032469046;-9.5677;0.6003;-2.0019;
1457299042575036;-9.5581;0.6482;-1.9062;
1457299052680192;-9.5773;0.6601;-1.9062;
1457299062786234;-9.5868;0.5261;-2.1170;
1457299072892223;-9.4693;0.4373;-2.1960;
1457299083008942;-9.4358;0.4134;-2.0378;
1457299093114932;-9.5797;0.3344;-2.1697;
1457299103220973;-9.5052;0.3679;-2.1410;
1457299113321703;-9.4789;0.4277;-2.0931;
1457299123427744;-9.5390;0.5285;-2.2367;
1457299133533734;-9.5100;0.6290;-2.1984;
1457299143659255;-9.4884;0.7992;-2.0593;
1457299153765296;-9.5100;0.8949;-1.9804;
1457299163871286;-9.5533;0.8710;-2.1505;
1457299173962484;-9.5653;0.7729;-2.1817;
1457299184068526;-9.4741;0.7152;-2.1888;
1457299194174515;-9.4765;0.6458;-2.2415;
1457299204267276;-9.5629;0.5405;-2.2343;
1457299214373317;-9.5100;0.4564;-2.0354;
1457299224479307;-9.4573;0.4421;-2.0258;
1457299234580296;-9.5749;0.4807;-2.2128;
1457299244686338;-9.5342;0.4950;-2.2080;
1457299254792328;-9.4669;0.5046;-2.1266;
1457299264909255;-9.5653;0.5668;-2.1721;
1457299275015296;-9.5892;0.6147;-2.0644;
1457299285121286;-9.5195;0.5907;-1.9421;
1457299295233630;-9.5414;0.5835;-2.0306;
1457299305339671;-9.4956;0.5477;-2.1218;
1457299315445661;-9.5076;0.5261;-2.1625;
1457299325546546;-9.5581;0.5118;-2.2223;
1457299335652588;-9.5462;0.5166;-2.1386;
1457299345758578;-9.5653;0.5357;-2.0692;
1457299355872796;-9.5701;0.5668;-1.9947;
1457299365978942;-9.5243;0.5883;-1.9134;
1457299376085088;-9.5366;0.6769;-2.0426;
1457299386190765;-9.5267;0.7152;-2.1817;
1457299396296911;-9.4502;0.7247;-2.2008;
1457299406403057;-9.4884;0.7801;-2.1601;
1457299416507171;-9.5243;0.8830;-2.1290;
1457299426613317;-9.4980;0.9619;-2.0330;
1457299436719463;-9.4860;1.0172;-2.0378;
1457299446827848;-9.5195;1.0651;-2.1314;
1457299456933994;-9.4765;1.0747;-2.1793;
1457299467040140;-9.4789;1.0819;-2.2391;
1457299477144567;-9.4884;0.9284;-2.2008;
1457299487250713;-9.4573;0.7609;-2.0569;
1457299497356859;-9.4813;0.6625;-2.1577;
1457299507463526;-9.5172;0.5644;-2.1960;
1457299517569671;-9.4765;0.4735;-2.1458;
1457299527675817;-9.4956;0.3990;-2.1123;
1457299537777432;-9.5195;0.2794;-2.0210;
1457299547883578;-9.5342;0.1738;-1.9301;
1457299557989723;-9.5797;0.0781;-1.9564;
1457299568113109;-9.6036;-0.0081;-1.9947;
1457299578219255;-9.5701;-0.1041;-1.9660;
1457299588325401;-9.5964;-0.2405;-1.9325;
1457299598421130;-9.5701;-0.3170;-1.9038;
1457299608527276;-9.5581;-0.3508;-1.9684;
1457299618633421;-9.5868;-0.4298;-1.9899;
1457299628732432;-9.6036;-0.5207;-2.0545;
1457299638838578;-9.5868;-0.5183;-2.0186;
1457299648944723;-9.6227;-0.4633;-1.9540;
1457299659054359;-9.6323;-0.4442;-1.8703;
1457299669160505;-9.6036;-0.3389;-1.8870;
1457299679266651;-9.6036;-0.2596;-1.9564;
1457299689364776;-9.6012;-0.2094;-1.9851;
1457299699470921;-9.5267;-0.1208;-2.1051;
1457299709577067;-9.5124;-0.0200;-2.1386;
1457299719684984;-9.4980;0.0924;-2.1099;
1457299729791130;-9.4932;0.0924;-2.0258;
1457299739897276;-9.5701;0.1020;-2.0668;
1457299750004046;-9.5581;0.1187;-2.0764;
1457299760110192;-9.5124;0.1140;-2.0859;
1457299770216338;-9.5486;0.1714;-2.1482;
1457299780338421;-9.4980;0.1953;-2.1194;
1457299790444567;-9.4717;0.1762;-2.0836;
1457299800550713;-9.5076;0.1714;-2.0692;
1457299810641442;-9.5414;0.1522;-2.0474;
1457299820747588;-9.5486;0.0924;-2.0258;
1457299830853734;-9.5342;-0.0057;-2.0258;
1457299840976234;-9.5219;-0.0344;-2.0019;
1457299851082380;-9.5605;-0.0559;-2.0115;
1457299861188526;-9.5701;-0.1232;-2.0258;
1457299871285713;-9.5315;-0.2333;-2.0788;
1457299881391859;-9.5605;-0.3700;-2.0019;
1457299891498005;-9.5988;-0.4418;-1.9421;
1457299901596130;-9.6036;-0.4059;-1.8655;
1457299911702276;-9.5821;-0.3389;-1.8464;
1457299921808421;-9.5845;-0.3437;-1.8894;
1457299931920401;-9.5797;-0.4202;-1.9373;
1457299942026546;-9.5797;-0.4155;-1.9828;
1457299952132692;-9.5845;-0.4178;-1.9947;
1457299962257067;-9.5892;-0.3796;-1.9540;
1457299972363213;-9.5773;-0.3628;-1.9445;
1457299982469359;-9.5533;-0.4920;-1.9588;
1457299992540192;-9.5821;-0.3652;-2.3925;
1457300002646338;-9.5486;-0.3194;-2.2008;
1457300012752484;-9.4645;-0.3796;-1.6881;
1457300022856963;-9.5605;-0.3437;-1.7001;
1457300032963109;-9.5725;-0.2907;-1.8559;
1457300043069255;-9.5100;-0.3314;-2.0258;
1457300053203838;-9.6036;-0.4896;-2.4476;
1457300063309984;-9.5821;-0.6574;-2.4954;
1457300073416130;-9.4119;-0.6861;-2.1673;
1457300083517380;-9.4023;-0.6550;-1.9445;
1457300093623526;-9.5845;-0.5973;-1.9325;
1457300103729671;-9.6634;-0.5495;-1.8751;
1457300113850505;-9.6084;-0.4777;-1.9828;
