Sensor: bmi160 Gyroscope Non-wakeup
Vendor: BOSCH
TimestampGyro [ns]; GyroX [rad/s]; GyroY [rad/s]; GyroZ [rad/s]
598208747377709;-0.1554;0.0372;-0.0369;
598208757480314;-0.1458;0.0372;-0.0443;
598208767610730;-0.1394;0.0414;-0.0411;
598208777716251;-0.1394;0.0457;-0.0369;
598208787796147;-0.1469;0.0393;-0.0411;
598208797879532;-0.1554;0.0276;-0.0475;
598208808042397;-0.1597;0.0233;-0.0539;
598208818117449;-0.1522;0.0244;-0.0529;
598208828217605;-0.1458;0.0244;-0.0486;
598208838338022;-0.1458;0.0254;-0.0486;
598208848425991;-0.1437;0.0286;-0.0454;
598208858550418;-0.1490;0.0297;-0.0443;
598208868645991;-0.1628;0.0297;-0.0507;
598208878766772;-0.1660;0.0308;-0.0507;
598208888848282;-0.1597;0.0382;-0.0486;
598208898959324;-0.1469;0.0489;-0.0433;
598208909048230;-0.1437;0.0499;-0.0369;
598208919154584;-0.1565;0.0467;-0.0358;
598208929280157;-0.1735;0.0382;-0.0369;
598208939376824;-0.2012;0.0244;-0.0401;
598208949484741;-0.2246;0.0105;-0.0433;
598208959587449;-0.2204;0.0084;-0.0401;
598208969691199;-0.1937;0.0158;-0.0326;
598208979796407;-0.1692;0.0180;-0.0230;
598208989896407;-0.1533;0.0254;-0.0188;
598209000000834;-0.1650;0.0254;-0.0188;
598209010112970;-0.1820;0.0201;-0.0198;
598209020212814;-0.1863;0.0254;-0.0188;
598209030322032;-0.1873;0.0361;-0.0156;
598209040424324;-0.2044;0.0393;-0.0145;
598209050531199;-0.2321;0.0382;-0.0156;
598209060639012;-0.2704;0.0329;-0.0209;
598209070754741;-0.3706;0.0020;-0.0262;
598209080853751;-0.4366;-0.0161;-0.0348;
598209090950991;-0.4782;-0.0097;-0.0379;
598209101057762;-0.4899;0.0137;-0.0369;
598209111163907;-0.4814;0.0308;-0.0326;
598209121268803;-0.4771;0.0308;-0.0305;
598209131376616;-0.4782;0.0276;-0.0305;
598209141472970;-0.4675;0.0276;-0.0294;
598209151581095;-0.4409;0.0286;-0.0305;
598209161700418;-0.3908;0.0350;-0.0337;
598209171798803;-0.3322;0.0425;-0.0337;
598209181902553;-0.2715;0.0478;-0.0326;
598209192002866;-0.2012;0.0574;-0.0337;
598209202108907;-0.1703;0.0478;-0.0326;
598209212215574;-0.1597;0.0329;-0.0379;
598209222312032;-0.1533;0.0233;-0.0433;
598209232420053;-0.1373;0.0276;-0.0454;
598209242524532;-0.1298;0.0276;-0.0507;
598209252635001;-0.1256;0.0403;-0.0529;
598209262737501;-0.1309;0.0489;-0.0582;
598209272841251;-0.1458;0.0467;-0.0635;
598209282957137;-0.1501;0.0563;-0.0593;
598209293063751;-0.1533;0.0723;-0.0571;
598209303155887;-0.1660;0.0755;-0.0614;
598209313232866;-0.1671;0.0712;-0.0624;
598209323357866;-0.1628;0.0712;-0.0603;
598209333489116;-0.1650;0.0648;-0.0582;
598209343588074;-0.1628;0.0489;-0.0529;
598209353691668;-0.1543;0.0382;-0.0443;
598209363772032;-0.1352;0.0244;-0.0358;
598209373901928;-0.1032;0.0073;-0.0284;
598209384010678;-0.0714;-0.0033;-0.0230;
598209394109428;-0.0394;-0.0044;-0.0134;
598209404220574;-0.0128;-0.0001;-0.0028;
598209414312032;0.0032;0.0084;0.0121;
598209424425418;-0.0064;0.0169;0.0281;
598209434530157;-0.0469;0.0212;0.0377;
598209444637553;-0.1266;0.0126;0.0409;
598209454743178;-0.2140;-0.0033;0.0377;
598209464849428;-0.2076;-0.0055;0.0441;
598209474952345;-0.1969;-0.0033;0.0611;
598209485052970;-0.2055;-0.0076;0.0675;
598209495222137;-0.2076;-0.0161;0.0750;
598209505245834;-0.2065;-0.0225;0.0846;
598209515365157;-0.2129;-0.0289;0.0931;
598209525475001;-0.2161;-0.0321;0.1016;
598209535574168;-0.2161;-0.0332;0.1069;
598209545681251;-0.2172;-0.0332;0.1112;
598209555780887;-0.2193;-0.0257;0.1176;
598209565909949;-0.2246;-0.0204;0.1272;
598209575995782;-0.2342;-0.0182;0.1325;
598209586088022;-0.2417;-0.0246;0.1399;
598209596192970;-0.2342;-0.0300;0.1485;
598209606284220;-0.2332;-0.0332;0.1517;
598209616408334;-0.2363;-0.0449;0.1527;
598209626515366;-0.2395;-0.0577;0.1527;
598209636615939;-0.2417;-0.0598;0.1581;
598209646733126;-0.2459;-0.0555;0.1644;
598209656865418;-0.2545;-0.0513;0.1602;
598209666955939;-0.2577;-0.0417;0.1485;
598209677030574;-0.2672;-0.0321;0.1250;
598209687148439;-0.2843;-0.0321;0.1474;
598209697246251;-0.2438;-0.0140;0.1485;
598209707402345;-0.2566;-0.0119;0.1421;
598209717464428;-0.2523;-0.0044;0.1250;
598209727557814;-0.2662;0.0031;0.1005;
598209737661564;-0.2715;-0.0033;0.0792;
598209747778439;-0.2662;-0.0097;0.0686;
598209757876043;-0.2481;-0.0023;0.0558;
598209767985314;-0.2630;0.0052;0.0366;
598209778078126;-0.2651;0.0126;0.0164;
598209788188439;-0.2651;0.0180;0.0036;
598209798295418;-0.2779;0.0148;-0.0039;
598209808427501;-0.3652;-0.0055;0.0025;
598209818520626;-0.4632;-0.0129;0.0079;
598209828627345;-0.4600;0.0116;0.0057;
598209838734064;-0.4441;0.0297;-0.0092;
598209848830418;-0.4643;0.0286;-0.0252;
598209858937137;-0.5027;0.0403;-0.0379;
598209869043855;-0.5453;0.0627;-0.0465;
598209879159376;-0.6049;0.0712;-0.0582;
598209889266095;-0.6742;0.0489;-0.0774;
598209899372814;-0.6465;0.0585;-0.0923;
598209909443439;-0.5197;0.1032;-0.0912;
598209919550157;-0.4142;0.1394;-0.0944;
598209929656876;-0.3770;0.1501;-0.1061;
598209939779897;-0.3674;0.1469;-0.1200;
598209949886616;-0.3546;0.1362;-0.1274;
598209959993334;-0.3471;0.1192;-0.1285;
598209970091668;-0.3386;0.1117;-0.1349;
598209980198387;-0.3461;0.1202;-0.1498;
598209990305105;-0.3631;0.1277;-0.1636;
598210000424376;-0.3802;0.1437;-0.1775;
598210010531095;-0.3961;0.1490;-0.1732;
598210020637814;-0.3940;0.1415;-0.1594;
598210030721251;-0.3908;0.1415;-0.1509;
598210040827970;-0.3897;0.1373;-0.1551;
598210050934689;-0.3919;0.1330;-0.1668;
598210061046459;-0.3993;0.1437;-0.1732;
598210071153178;-0.4089;0.1586;-0.1615;
598210081259897;-0.4121;0.1522;-0.1445;
598210091351355;-0.4025;0.1298;-0.1413;
598210101458074;-0.3961;0.0957;-0.1477;
598210111564793;-0.3972;0.0787;-0.1636;
598210121663022;-0.4079;0.0830;-0.1658;
598210131769741;-0.4100;0.1000;-0.1466;
598210141876459;-0.4132;0.1107;-0.1296;
598210151981355;-0.4068;0.1011;-0.1306;
598210162088074;-0.4100;0.0776;-0.1466;
598210172194793;-0.4153;0.0787;-0.1583;
598210182289376;-0.4302;0.0925;-0.1455;
598210192396095;-0.4324;0.0872;-0.1264;
598210202502814;-0.4302;0.0851;-0.1136;
598210212607918;-0.4324;0.0936;-0.1115;
598210222714637;-0.4355;0.0915;-0.1285;
598210232821355;-0.4430;0.0851;-0.1381;
598210242924480;-0.4430;0.0766;-0.1210;
598210253031199;-0.4387;0.0808;-0.0955;
598210263137918;-0.4355;0.1021;-0.0827;
598210273235834;-0.4590;0.1032;-0.0987;
598210283342553;-0.4728;0.0851;-0.1168;
598210293399897;-0.4579;0.0691;-0.1040;
598210303506616;-0.4632;0.0585;-0.0795;
598210313613334;-0.4728;0.0499;-0.0742;
598210323751251;-0.4696;0.0617;-0.0784;
598210333857970;-0.4845;0.0734;-0.0901;
598210343964689;-0.4973;0.0648;-0.0869;
598210354082397;-0.4824;0.0531;-0.0699;
598210364189116;-0.4973;0.0510;-0.0635;
598210374295834;-0.5122;0.0925;-0.0635;
598210384396564;-0.5474;0.1447;-0.0593;
598210394503282;-0.5559;0.1266;-0.0891;
598210404610001;-0.5485;0.0872;-0.1381;
598210414715105;-0.5591;0.0648;-0.1722;
598210424821824;-0.5453;0.0531;-0.1647;
598210434928543;-0.5197;0.0744;-0.1413;
598210445025834;-0.5027;0.1138;-0.1328;
598210455132553;-0.5059;0.1213;-0.1711;
598210465239272;-0.5261;0.1213;-0.2019;
598210475340522;-0.5421;0.1373;-0.1965;
598210485447241;-0.5410;0.1405;-0.1869;
598210495553959;-0.5293;0.1405;-0.1869;
598210505636980;-0.5272;0.1458;-0.2189;
598210515743699;-0.5367;0.1682;-0.2519;
598210525850418;-0.5421;0.2300;-0.2583;
598210535968022;-0.5389;0.2522;-0.2562;
598210546074741;-0.5240;0.2204;-0.2786;
598210556181459;-0.5240;0.1937;-0.2903;
598210566295626;-0.5186;0.2001;-0.3063;
598210576402345;-0.5048;0.2150;-0.3212;
598210586509064;-0.5367;0.2044;-0.3244;
598210596582397;-0.5517;0.1969;-0.3158;
598210606689116;-0.5495;0.1810;-0.3297;
598210616795834;-0.5644;0.1639;-0.3467;
598210626961459;-0.5644;0.2055;-0.3308;
598210637068178;-0.5698;0.2554;-0.2913;
598210647174897;-0.5847;0.2437;-0.2977;
598210657223855;-0.5879;0.1873;-0.3265;
598210667330574;-0.5751;0.2055;-0.3244;
598210677437293;-0.5825;0.2639;-0.3052;
598210687528959;-0.5857;0.2554;-0.3265;
598210697635678;-0.5676;0.1991;-0.3499;
598210707742397;-0.5644;0.1948;-0.3457;
598210717852397;-0.5666;0.2236;-0.3244;
598210727959116;-0.5623;0.2278;-0.3190;
598210738065834;-0.5090;0.2129;-0.3233;
598210748189376;-0.3951;0.1671;-0.3286;
598210758296095;-0.2651;0.1522;-0.3137;
598210768402814;-0.1234;0.1756;-0.2754;
598210778497501;0.0011;0.1682;-0.2551;
598210788604220;0.0831;0.1107;-0.2370;
598210798710939;0.2045;0.0989;-0.1987;
598210808811668;0.3728;0.1479;-0.1519;
598210818918387;0.3803;0.1234;-0.1349;
598210829025105;0.3355;0.0350;-0.1328;
598210839139793;0.4037;0.0435;-0.0944;
598210849246512;0.4453;0.0989;-0.0710;
598210859353230;0.2663;0.0638;-0.0720;
598210869430939;0.0565;0.0031;-0.0688;
598210879537657;0.0234;0.0403;-0.0539;
598210889644376;-0.0989;0.0744;-0.0529;
598210899749897;-0.3610;0.0180;-0.0646;
598210909856616;-0.5208;0.0084;-0.0816;
598210919963334;-0.5517;0.0638;-0.0923;
598210930067709;-0.5794;0.0744;-0.1146;
598210940174428;-0.7379;0.0361;-0.1349;
598210950281147;-0.8221;0.0617;-0.1477;
598210960372241;-0.8359;0.1000;-0.1573;
598210970478959;-0.9031;0.0734;-0.1796;
598210980585678;-0.8881;0.0648;-0.2019;
598210990689168;-0.8136;0.1053;-0.2083;
598211000795887;-0.8093;0.1075;-0.2136;
598211010902605;-0.7624;0.0840;-0.2189;
598211021008074;-0.6081;0.0936;-0.2264;
598211031114793;-0.5197;0.1043;-0.2306;
598211041221512;-0.5250;0.0904;-0.2317;
598211051327241;-0.4292;0.0734;-0.2359;
598211061433959;-0.2896;0.0808;-0.2391;
598211071540678;-0.2523;0.0893;-0.2306;
598211081636147;-0.1820;0.0872;-0.2264;
598211091742866;-0.1075;0.1064;-0.2264;
598211101849584;-0.1256;0.1405;-0.2242;
598211111949064;-0.1075;0.1256;-0.2264;
598211122055782;-0.0925;0.0872;-0.2338;
598211132162501;-0.0947;0.1021;-0.2168;
598211142267605;-0.0405;0.1096;-0.1987;
598211152374324;-0.0597;0.0723;-0.2136;
598211162481043;-0.0852;0.0638;-0.2083;
598211172585105;-0.0575;0.0755;-0.2019;
598211182691824;-0.1330;0.0297;-0.2210;
598211192798543;-0.1724;0.0180;-0.2274;
598211202895730;-0.1256;0.0670;-0.2338;
598211213002449;-0.1842;0.0819;-0.2551;
598211223109168;-0.2438;0.0936;-0.2487;
598211233210418;-0.2332;0.1352;-0.2359;
598211243317137;-0.3088;0.1458;-0.2370;
598211253423855;-0.3727;0.1490;-0.2413;
598211263530314;-0.3972;0.1415;-0.2636;
598211273637032;-0.4579;0.0936;-0.2796;
598211283743751;-0.4441;0.1000;-0.2796;
598211293843387;-0.4377;0.0989;-0.2892;
598211303949064;-0.4600;0.0659;-0.2871;
598211314054845;-0.3993;0.0851;-0.2892;
598211324168126;-0.3695;0.0808;-0.2945;
598211334273855;-0.3077;0.0766;-0.2849;
598211344379584;-0.1927;0.1021;-0.2945;
598211354472293;-0.0831;0.0542;-0.2732;
598211364578022;0.1236;0.0776;-0.2381;
598211374683751;0.3547;0.1160;-0.2157;
598211384795991;0.4996;0.0617;-0.1722;
598211394901720;0.6742;0.0585;-0.1487;
598211405007449;0.8339;0.0787;-0.1264;
598211415110262;0.9298;0.0659;-0.0891;
598211425215991;0.9735;0.0499;-0.0699;
598211435321720;1.0065;0.0329;-0.0209;
598211445417657;0.9937;0.0212;0.0047;
598211455523387;0.9319;0.0308;0.0004;
598211465629116;0.8925;0.0063;0.0047;
598211475730053;0.8094;0.0158;-0.0145;
598211485835782;0.7242;0.0499;0.0068;
598211495941459;0.5740;0.0446;0.0185;
598211506040366;0.3792;0.0190;0.0260;
598211516146095;0.2812;0.0329;0.0174;
598211526251824;0.1225;0.0521;-0.0294;
598211536349480;-0.0053;0.0222;-0.0529;
598211546455209;-0.1501;0.0340;-0.0827;
598211556560991;-0.1788;0.0521;-0.0859;
598211566673022;-0.1778;0.0158;-0.1072;
598211576778751;-0.1714;0.0095;-0.1115;
598211586884480;-0.1895;-0.0033;-0.1136;
598211596990262;-0.1756;-0.0055;-0.1296;
598211607095991;-0.1330;0.0031;-0.1264;
598211617201720;-0.1330;-0.0193;-0.1445;
598211627301043;-0.0936;-0.0257;-0.1391;
598211637406772;-0.1138;0.0084;-0.1274;
598211647512553;-0.0788;-0.0012;-0.1189;
598211657608803;-0.0863;-0.0278;-0.1136;
598211667714584;-0.0682;-0.0001;-0.1168;
598211677820262;0.0138;-0.0055;-0.0923;
598211687952084;-0.0330;-0.0342;-0.0806;
598211698057814;0.0330;-0.0246;-0.0699;
598211708163543;0.0810;-0.0321;-0.0646;
598211718243334;0.1395;-0.0289;-0.0443;
598211728349064;0.1843;-0.0214;-0.0369;
598211738454793;0.2365;-0.0129;-0.0145;
598211748575470;0.2812;-0.0033;-0.0049;
598211758681199;0.3430;0.0095;0.0174;
598211768786928;0.3622;0.0031;0.0462;
598211778895001;0.3377;-0.0076;0.0654;
598211789000730;0.3995;0.0020;0.0558;
598211799106459;0.3931;0.0031;0.0824;
598211809216720;0.3750;0.0137;0.0952;
598211819322449;0.3505;0.0244;0.1176;
598211829428230;0.3228;0.0084;0.1261;
598211839505418;0.2450;-0.0257;0.1218;
598211849611199;0.2248;-0.0150;0.1037;
598211859716928;0.1609;-0.0182;0.1080;
598211869833491;0.1182;-0.0076;0.1133;
598211879939220;0.0735;-0.0076;0.1080;
598211890044949;0.0043;-0.0204;0.0941;
598211900143959;-0.0245;0.0063;0.0718;
598211910249689;-0.0352;0.0403;0.0739;
598211920355418;-0.0288;0.0680;0.0675;
598211930457449;-0.0288;0.0766;0.0622;
598211940563178;-0.0075;0.0457;0.0547;
598211950668907;-0.0128;-0.0001;0.0601;
598211960772553;-0.0032;0.0063;0.0377;
598211970878282;-0.0149;-0.0246;0.0409;
598211980984012;0.0107;-0.0236;0.0387;
598211991083074;0.0117;-0.0193;0.0515;
598212001188803;0.0181;-0.0470;0.0334;
598212011294532;-0.0053;-0.0598;0.0409;
598212021398282;0.0117;-0.0278;0.0419;
598212031504012;0.0075;-0.0236;0.0654;
598212041609741;-0.0117;-0.0353;0.0505;
598212051718126;-0.0032;-0.0395;0.0515;
598212061823803;-0.0149;-0.0289;0.0356;
598212071929584;-0.0341;-0.0385;0.0345;
598212082027657;-0.0650;-0.0214;0.0111;
598212092133387;-0.0767;-0.0044;0.0142;
598212102239116;-0.1724;0.0116;0.0004;
598212112348491;-0.2417;-0.0353;-0.0071;
598212122454220;-0.3120;-0.0854;-0.0390;
598212132559949;-0.3035;-0.0726;-0.0454;
598212142662241;-0.3226;-0.0726;-0.0816;
598212152767918;-0.2395;-0.1099;-0.0891;
598212162873647;-0.2417;-0.0779;-0.0827;
598212172965053;-0.1916;-0.0332;-0.0539;
598212183070782;-0.1415;-0.0087;-0.0593;
598212193176459;-0.0458;-0.0044;-0.0465;
598212203285574;-0.0266;0.0031;-0.0198;
598212213391303;-0.0458;-0.0065;0.0164;
598212223497032;-0.0181;-0.0225;0.0398;
598212233607866;-0.0479;-0.0332;0.0505;
598212243713595;-0.0309;-0.0481;0.0505;
598212253819324;-0.0778;-0.0609;0.0537;
598212263924324;-0.0724;-0.0310;0.0760;
598212274030053;-0.0746;-0.0161;0.0750;
598212284135782;-0.0703;-0.0385;0.0888;
598212294236772;-0.0905;-0.0427;0.0899;
598212304341928;-0.0842;-0.0119;0.1144;
598212314447032;-0.0820;-0.0033;0.1069;
598212324573334;-0.0915;-0.0385;0.1080;
598212334678491;-0.0936;-0.0214;0.0973;
598212344783647;-0.1383;0.0073;0.0622;
598212354864376;-0.1138;0.0510;0.0430;
598212364969532;-0.1703;0.0702;0.0313;
598212375074689;-0.1852;0.0787;0.0270;
598212385184897;-0.2523;0.0638;-0.0124;
598212395290053;-0.2545;0.0553;-0.0529;
598212405395209;-0.2385;0.0521;-0.0710;
598212415492918;-0.2449;0.0254;-0.0827;
598212425598074;-0.2236;0.0190;-0.0838;
598212435703230;-0.2001;0.0244;-0.0869;
598212445810053;-0.1288;0.0158;-0.0901;
598212455915157;-0.1011;0.0073;-0.0901;
598212466020314;-0.0915;0.0318;-0.0891;
598212476136043;-0.0842;0.0457;-0.0901;
598212486241199;-0.0778;0.0308;-0.1040;
598212496346355;-0.0895;0.0233;-0.1221;
598212506429741;-0.0842;0.0350;-0.1210;
598212516534845;-0.0735;0.0403;-0.1232;
598212526640001;-0.0714;0.0329;-0.1200;
598212536749741;-0.0639;0.0254;-0.1178;
598212546854897;-0.0724;0.0254;-0.1242;
598212556960053;-0.0735;0.0137;-0.1157;
598212567084064;-0.0682;0.0041;-0.1104;
598212577189220;-0.0968;0.0254;-0.1370;
598212587294376;-0.0979;0.0755;-0.1466;
598212597434532;-0.0852;0.1181;-0.1445;
598212607539689;-0.0873;0.0851;-0.1306;
598212617644845;-0.0820;0.0265;-0.1349;
598212627697189;-0.1032;-0.0108;-0.1551;
598212637802345;-0.1000;-0.0257;-0.1636;
598212647907501;-0.0820;-0.0332;-0.1700;
598212658018230;-0.0968;-0.0438;-0.1775;
598212668123387;-0.0714;-0.0161;-0.1668;
598212678228543;-0.0575;0.0137;-0.1668;
598212688322241;-0.0714;0.0222;-0.1509;
598212698427345;-0.0533;0.0499;-0.1242;
598212708532501;-0.0639;0.0680;-0.1274;
598212718656668;-0.0746;0.0403;-0.1264;
598212728761824;-0.0533;0.0297;-0.1019;
598212738866980;-0.0533;0.0467;-0.0976;
598212748981043;-0.0202;0.0435;-0.0806;
598212759086199;-0.0202;0.0126;-0.0593;
598212769191355;-0.0383;0.0084;-0.0561;
598212779310887;0.0373;0.0254;-0.0369;
598212789416043;0.0522;0.0308;-0.0262;
598212799521199;0.0501;0.0318;-0.0582;
598212809605574;0.1001;0.0744;-0.0561;
598212819710730;0.1065;0.1096;-0.0326;
598212829815887;0.0479;0.0680;-0.0273;
598212839907189;0.0597;0.0244;-0.0337;
598212850012345;0.0810;0.0276;-0.0529;
598212860117501;0.0618;0.0265;-0.0806;
598212870240418;0.0597;0.0105;-0.0806;
598212880345574;0.0320;0.0286;-0.0848;
598212890450730;0.0128;0.0457;-0.1019;
598212900538907;0.0213;0.0340;-0.1051;
598212910644064;0.0181;0.0414;-0.1051;
598212920749220;-0.0075;0.0606;-0.1125;
598212930858022;-0.0053;0.0499;-0.1306;
598212940963178;0.0107;0.0137;-0.1381;
598212951068334;0.0000;0.0020;-0.1445;
598212961171355;0.0202;0.0041;-0.1519;
598212971276512;0.0288;-0.0321;-0.1498;
598212981381668;0.0309;-0.0406;-0.1477;
598212991480574;0.0266;0.0084;-0.1573;
598213001585730;0.0309;0.0222;-0.1848;
598213011690887;0.0426;0.0052;-0.2072;
598213021794897;0.0501;0.0084;-0.1933;
598213031900053;0.0618;-0.0108;-0.1700;
598213042005209;0.0660;-0.0662;-0.1743;
598213052129220;0.0905;-0.0758;-0.1818;
598213062234376;0.1065;-0.0417;-0.1997;
598213072339532;0.1161;-0.0438;-0.1997;
598213082432241;0.1427;-0.0523;-0.1764;
598213092537397;0.1960;-0.0449;-0.1636;
598213102642553;0.2429;-0.0374;-0.1605;
598213112741043;0.2940;-0.0406;-0.1391;
598213122846199;0.3451;-0.0449;-0.1221;
598213132951355;0.3675;-0.0406;-0.1157;
598213143056355;0.4016;-0.0577;-0.0933;
598213153161512;0.4410;-0.0939;-0.0603;
598213163266668;0.4826;-0.0758;-0.0571;
598213173380001;0.5304;-0.0545;-0.0486;
598213183485157;0.5943;-0.0672;-0.0028;
598213193590314;0.5996;-0.0768;0.0111;
598213203697814;0.6017;-0.0758;-0.0017;
598213213802970;0.6188;-0.0832;0.0185;
598213223908126;0.5996;-0.0917;0.0664;
598213234009272;0.5431;-0.0992;0.0707;
598213244114428;0.5007;-0.0843;0.0526;
598213254219584;0.4847;-0.0726;0.0356;
598213264322709;0.4304;-0.0672;0.0334;
598213274427866;0.3632;-0.0566;0.0345;
598213284533022;0.3025;-0.0332;0.0345;
598213294618543;0.2780;-0.0268;0.0132;
598213304723491;0.2865;-0.0374;0.0004;
598213314828439;0.2578;-0.0374;0.0025;
598213324966824;0.2642;-0.0300;0.0217;
598213335071720;0.2855;-0.0395;0.0228;
598213345176668;0.2887;-0.0715;0.0228;
598213355262709;0.2844;-0.0832;0.0302;
598213365367657;0.3015;-0.0555;0.0356;
598213375472553;0.3217;-0.0438;0.0409;
598213385584689;0.2983;-0.0598;0.0483;
598213395689637;0.2738;-0.0438;0.0281;
598213405794584;0.2865;0.0169;0.0377;
598213415905418;0.2919;0.0382;0.0643;
598213426010366;0.2961;0.0276;0.0824;
598213436115262;0.3036;0.0382;0.0941;
598213446183387;0.2802;0.0382;0.0973;
598213456288282;0.2738;0.0308;0.1208;
598213466393230;0.2620;0.0148;0.1463;
598213476512501;0.2620;0.0169;0.1549;
598213486617449;0.2706;0.0222;0.1612;
598213496722397;0.2546;0.0212;0.1815;
598213506873543;0.2525;0.0361;0.1932;
598213516978491;0.2493;0.0510;0.2220;
598213527083387;0.2514;0.0382;0.2433;
598213537146512;0.2514;0.0212;0.2635;
598213547251407;0.2525;0.0521;0.2901;
598213557356355;0.2834;0.0936;0.3019;
598213567527866;0.2652;0.0936;0.3008;
598213577632762;0.2418;0.1149;0.2955;
598213587737657;0.2344;0.1266;0.3125;
598213597788334;0.2141;0.0936;0.3466;
598213607893282;0.1832;0.0862;0.3562;
598213617998178;0.1672;0.0766;0.3466;
598213628123334;0.1342;0.0531;0.3381;
598213638228282;0.0650;0.0478;0.3381;
598213648333178;-0.0053;0.0787;0.3391;
598213658409272;-0.0245;0.1021;0.3200;
598213668514220;-0.0213;0.0957;0.3125;
598213678619168;-0.0437;0.1000;0.3136;
598213688731355;-0.0309;0.1415;0.3221;
598213698836303;-0.0288;0.1415;0.3242;
598213708941199;-0.0266;0.1032;0.3232;
598213719027084;-0.0192;0.0893;0.3264;
598213729132032;-0.0501;0.0893;0.3338;
598213739236928;-0.1149;0.0734;0.3114;
598213749376043;-0.1234;0.0968;0.2774;
598213759480991;-0.1735;0.1011;0.2827;
598213769585887;-0.2491;0.0755;0.2795;
598213779679220;-0.3067;0.1053;0.2688;
598213789784116;-0.3791;0.1181;0.2379;
598213799889064;-0.4270;0.0989;0.2081;
598213809985314;-0.4355;0.1021;0.1964;
598213820090262;-0.4643;0.1096;0.1943;
598213830195157;-0.5218;0.1096;0.1762;
598213840302918;-0.5495;0.0819;0.1378;
598213850407866;-0.5612;0.0766;0.1208;
598213860512762;-0.5570;0.1021;0.1325;
598213870624168;-0.6039;0.0723;0.1240;
598213880729168;-0.5879;0.0276;0.0888;
598213890834012;-0.5229;0.0372;0.0643;
598213900938647;-0.4824;0.0798;0.0387;
598213911043595;-0.4377;0.1085;0.0217;
598213921148543;-0.4142;0.0755;0.0334;
598213931254272;-0.4047;0.0063;0.0334;
598213941359220;-0.3290;0.0063;0.0196;
598213951464116;-0.2747;0.0265;0.0057;
598213961557709;-0.2811;-0.0033;0.0132;
598213971662605;-0.2736;-0.0119;0.0100;
598213981767553;-0.2406;0.0201;0.0004;
598213991874272;-0.2332;0.0350;0.0004;
598214001979220;-0.2342;0.0073;0.0025;
598214012084116;-0.2076;0.0105;0.0047;
598214022196251;-0.1959;0.0425;0.0196;
598214032301199;-0.2172;-0.0033;0.0142;
598214042406095;-0.2108;-0.0864;0.0270;
598214052511772;-0.1788;-0.0587;0.0345;
598214062616720;-0.1863;-0.0182;-0.0166;
598214072721668;-0.1937;-0.0321;-0.0358;
598214082835053;-0.2257;-0.0854;-0.0188;
598214092939949;-0.2236;-0.0896;-0.0241;
598214103044897;-0.2055;-0.0449;-0.0241;
598214113145314;-0.2140;-0.0204;-0.0337;
598214123250262;-0.1916;-0.0119;-0.0401;
598214133355157;-0.2055;-0.0214;-0.0348;
598214143457709;-0.2055;-0.0513;-0.0369;
598214153562657;-0.1927;-0.0491;-0.0422;
598214163667553;-0.1820;-0.0406;-0.0390;
598214173770314;-0.1543;-0.0076;-0.0092;
598214183875314;-0.1522;0.0531;-0.0039;
598214193980157;-0.1724;0.0084;-0.0081;
598214204086980;-0.1682;-0.0587;0.0015;
598214214191928;-0.1330;0.0340;0.0036;
598214224296824;-0.1192;0.1522;-0.0262;
598214234396772;-0.1458;0.1330;-0.0273;
598214244501720;-0.2161;0.0648;0.0153;
598214254606616;-0.2140;0.0617;0.0366;
598214264725418;-0.1948;0.0819;0.0430;
598214274830366;-0.2108;0.1202;0.0462;
598214284935314;-0.2300;0.2714;0.0142;
598214295075887;-0.2214;0.3726;-0.0039;
598214305181355;-0.2545;0.3278;-0.0028;
598214315286876;-0.3290;0.2300;-0.0017;
598214325364949;-0.3652;0.2214;0.0068;
598214335470418;-0.3663;0.2300;0.0313;
598214345575887;-0.3759;0.0957;0.0004;
598214355655991;-0.4249;-0.0939;-0.0411;
598214365761459;-0.3620;-0.0800;-0.0656;
598214375866928;-0.2310;0.0936;-0.0795;
598214385973387;-0.1959;0.1778;-0.0667;
598214396078855;-0.2395;0.1447;-0.0955;
598214406184324;-0.2481;0.1575;-0.1200;
598214416283074;-0.2246;0.3129;-0.1274;
598214426388543;-0.2257;0.3928;-0.1562;
598214436494012;-0.2513;0.2650;-0.1933;
598214446622918;-0.2491;0.1309;-0.2146;
598214456728387;-0.2150;-0.0012;-0.2509;
598214466833855;-0.1873;-0.1301;-0.2636;
598214476966512;-0.1373;-0.0715;-0.2722;
598214487071980;-0.0735;0.0510;-0.2711;
598214497177449;-0.0767;0.0276;-0.2828;
598214507207762;-0.0362;-0.0214;-0.2977;
598214517313230;0.0639;0.1096;-0.3212;
598214527418699;0.1609;0.2650;-0.3212;
598214537583387;0.0810;0.1362;-0.3222;
598214547688855;0.0096;-0.1535;-0.3201;
598214557794324;0.1672;-0.4293;-0.3052;
598214567872241;0.2290;-0.6626;-0.2913;
598214577977709;-0.0320;-0.7574;-0.2967;
598214588083178;-0.1597;-0.5933;-0.3350;
598214598182709;-0.0469;-0.3750;-0.3009;
598214608288178;0.0703;-0.2760;-0.2775;
598214618393699;0.3153;-0.1951;-0.2498;
598214628488595;0.5868;-0.0427;-0.2242;
598214638594064;0.6592;-0.0012;-0.1786;
598214648699584;0.5357;-0.0768;-0.1232;
598214658826772;0.4698;-0.0768;-0.1381;
598214668932241;0.5156;-0.0193;-0.1146;
598214679037709;0.3899;-0.1386;-0.1232;
598214689126512;0.2759;-0.2600;-0.1125;
598214699231980;0.1779;-0.2696;-0.0806;
598214709337501;0.1587;-0.1844;-0.0465;
598214719454532;0.2695;-0.0204;0.0174;
598214729560001;0.5282;0.3640;0.0622;
598214739665470;0.7029;0.5164;0.1186;
598214749754220;0.3728;0.0776;0.1836;
598214759859689;0.0831;-0.1439;0.2369;
598214769965157;0.2013;0.0585;0.2316;
598214780067553;0.1885;0.0595;0.2933;
598214790173022;-0.0053;-0.1439;0.3285;
598214800278491;-0.0107;-0.1216;0.2976;
598214810391876;-0.0543;0.0510;0.2859;
598214820497345;-0.1628;0.0510;0.3008;
598214830602866;-0.2672;-0.0214;0.2997;
598214840699532;-0.3706;0.0542;0.2667;
598214850805001;-0.4547;0.1607;0.1996;
598214860910470;-0.5815;0.1362;0.1826;
598214871025366;-0.6901;0.0968;0.1485;
598214881130834;-0.7710;0.0350;0.1218;
598214891236303;-0.8370;-0.0246;0.0387;
598214901323803;-0.7731;-0.0481;-0.0401;
598214911429272;-0.7433;-0.0747;-0.0614;
598214921534741;-0.6997;-0.1152;-0.0678;
598214931646303;-0.5655;-0.0353;-0.0955;
598214941751772;-0.4228;0.0446;-0.1455;
598214951857241;-0.3887;-0.0843;-0.1636;
598214961964637;-0.2832;-0.0747;-0.2040;
598214972070105;-0.1501;0.0489;-0.2232;
598214982175626;-0.2012;-0.0374;-0.2200;
598214992275678;-0.1565;-0.0811;-0.2296;
598215002381147;-0.0490;-0.0044;-0.2519;
598215012486616;-0.0192;0.0020;-0.2125;
598215022596407;-0.0021;-0.0097;-0.2296;
598215032701876;0.0479;-0.0129;-0.2317;
598215042807345;0.0959;-0.0097;-0.1923;
598215052898491;0.1055;0.0084;-0.1658;
598215063003959;0.2024;0.0180;-0.1445;
598215073109428;0.2184;0.0063;-0.1711;
598215083224845;0.2120;0.0063;-0.1690;
598215093330314;0.2056;0.0116;-0.1349;
598215103435782;0.2184;0.0222;-0.1264;
598215113540262;0.2045;0.0297;-0.1232;
598215123645730;0.1598;0.0222;-0.1115;
598215133751199;0.0991;0.0606;-0.1093;
598215143859637;0.1129;0.1192;-0.0859;
598215153965105;0.0554;0.1298;-0.0923;
598215164070574;0.0394;0.1298;-0.0688;
598215174169116;0.0991;-0.0246;-0.0710;
598215184274584;-0.0383;-0.2164;-0.0848;
598215194380053;-0.0181;-0.0822;-0.0497;
598215204488803;0.0181;0.1107;-0.0848;
598215214594272;0.0937;0.1181;-0.1381;
598215224699741;0.0980;0.0648;-0.0912;
598215234803699;0.0501;0.0989;-0.0965;
598215244909168;0.0820;0.2097;-0.1274;
598215255014637;0.1065;0.1905;-0.1466;
598215265121616;0.1619;0.0403;-0.1115;
598215275227084;0.1406;-0.1173;-0.1146;
598215285332553;0.0490;-0.2270;-0.1125;
598215295423803;0.0245;-0.2622;-0.0774;
598215305528543;0.0479;-0.2217;-0.0976;
598215315633230;0.0724;-0.1674;-0.1328;
598215325753543;0.1790;0.1426;-0.1072;
598215335858282;0.2354;0.2884;-0.0763;
598215345962970;0.2471;-0.0704;-0.0933;
598215356058178;0.2439;-0.1130;-0.0901;
598215366162918;0.3036;0.1224;-0.0955;
598215376267605;0.2919;0.0531;-0.1019;
598215386357032;0.2216;-0.1258;-0.0933;
598215396461772;0.1619;-0.1525;-0.1189;
598215406566459;0.2557;-0.0108;-0.0806;
598215416675366;0.3142;0.1575;-0.0337;
598215426780053;0.3025;0.1565;0.0142;
598215436884793;0.3515;0.1394;0.0260;
598215447012657;0.3451;0.1426;0.0622;
598215457117397;0.2333;0.0936;0.0718;
598215467222084;0.1811;0.0489;0.0803;
598215477343699;0.1779;0.0340;0.1282;
598215487448439;0.1395;-0.0577;0.0867;
598215497553178;0.1172;-0.0875;0.0579;
598215507631720;0.1310;0.0020;0.0696;
598215517736459;0.1150;-0.0332;0.0824;
598215527841147;0.0831;-0.0555;0.0814;
598215537968074;0.0873;0.0361;0.0590;
598215548072814;0.1459;0.0702;0.1027;
598215558177501;0.1097;-0.0214;0.1016;
598215568268178;0.1353;-0.0427;0.1016;
598215578372918;0.1609;0.0361;0.0739;
598215588477605;0.1651;0.0734;0.0750;
598215598597970;0.1481;0.0254;0.1080;
598215608702709;0.1694;-0.0055;0.1485;
598215618807397;0.1587;0.0521;0.1069;
598215628923699;0.1214;0.0531;0.0909;
598215639028439;0.1097;-0.0864;0.1304;
598215649133126;0.1001;-0.0715;0.1442;
598215659237866;0.1236;0.0446;0.1293;
598215669342605;0.0969;0.0158;0.1730;
598215679447293;0.1257;-0.0342;0.1943;
598215689523699;0.1651;0.0095;0.2209;
598215699628439;0.0937;0.0372;0.1612;
598215709733126;0.1193;0.0862;0.1612;
598215719828699;0.1332;0.1405;0.1772;
598215729933439;0.0884;0.0595;0.1847;
598215740038126;0.0628;-0.0268;0.1666;
598215750155157;0.0565;-0.0119;0.1953;
598215760259897;-0.0586;0.0254;0.2230;
598215770364584;-0.1383;-0.0395;0.2134;
598215780464949;-0.1735;-0.0417;0.1953;
598215790569689;-0.2502;-0.0332;0.2209;
598215800674376;-0.3642;-0.0672;0.2241;
598215810805470;-0.3429;-0.0694;0.1847;
598215820910209;-0.3589;-0.0630;0.1314;
598215831014897;-0.4132;0.0212;0.0888;
598215841098907;-0.4068;0.0585;0.0941;
598215851203647;-0.3770;0.0041;0.0899;
598215861308334;-0.3429;0.1138;0.0611;
598215871415157;-0.2619;0.2108;0.0292;
598215881519897;-0.2822;-0.2217;0.0451;
598215891624584;-0.2949;-0.1759;0.0451;
598215901729532;-0.3184;0.2554;0.0174;
598215911834272;-0.3461;0.1405;0.0270;
598215921938959;-0.1671;-0.0577;0.0505;
598215932045157;-0.1000;-0.0246;0.0494;
598215942149897;-0.1511;0.0744;0.0132;
598215952254584;-0.1309;0.1692;0.0057;
598215962348387;-0.1405;0.0766;0.0047;
598215972453126;-0.1575;-0.0470;-0.0081;
598215982557814;-0.1373;-0.0044;-0.0071;
598215992678595;-0.1863;-0.0790;-0.0379;
598216002783334;-0.1852;-0.2558;-0.0294;
598216012888022;-0.0586;0.1799;-0.0092;
598216022996043;-0.1863;0.2108;0.0057;
598216033100782;-0.3812;-0.4208;-0.0017;
598216043205470;-0.0714;-0.1993;-0.0348;
598216053296876;-0.0533;0.1607;-0.1072;
598216063401564;-0.2172;0.0318;-0.1381;
598216073506303;-0.1117;-0.0513;-0.0955;
598216083620053;-0.0554;-0.0395;-0.1136;
598216093724793;0.0543;0.0531;-0.1285;
598216103829480;0.2450;0.0393;0.0036;
598216113945053;0.0905;-0.3176;-0.0678;
598216124049793;0.1182;-0.2036;-0.0955;
598216134154480;0.0543;0.2427;-0.0699;
598216144253178;-0.0533;0.2236;0.0047;
598216154357918;0.1790;0.1724;0.0302;
598216164462605;0.3270;0.1554;0.0174;
598216174565574;0.2652;0.0318;-0.0188;
598216184670314;0.2610;0.0382;0.0260;
598216194775001;0.1747;-0.0161;0.0771;
598216204885782;0.0213;-0.2185;0.0739;
598216214990522;-0.0320;-0.1365;0.0260;
598216225095209;-0.0522;0.0798;0.0047;
598216235206616;-0.1192;0.1224;0.0590;
598216245311355;-0.0703;0.4205;0.0899;
598216255416043;0.0330;0.3023;0.1325;
598216265522137;-0.0905;-0.2483;0.1037;
598216275626876;-0.0107;-0.1695;0.0164;
598216285731564;-0.1149;0.0020;-0.0348;
598216295807814;-0.2917;-0.0800;-0.0316;
598216305912553;-0.2001;0.0222;0.0153;
598216316017293;-0.1288;0.1170;0.0025;
598216326140366;-0.0788;0.1447;-0.0422;
598216336245105;0.0021;0.1916;-0.0273;
598216346349845;-0.0192;0.0755;0.0015;
598216356453126;-0.0394;-0.0545;-0.0007;
598216366557866;-0.0426;-0.0694;-0.0177;
598216376662553;-0.0618;-0.1269;-0.0316;
598216386771095;-0.0575;-0.1791;-0.0411;
598216396875782;-0.0607;-0.1386;-0.0731;
598216406980522;-0.0341;-0.0406;-0.1061;
598216417090314;0.0107;0.0340;-0.0987;
598216427195053;-0.0138;0.0180;-0.1189;
598216437299741;0.0117;-0.0108;-0.1200;
598216447394949;0.0447;0.0638;-0.1029;
598216457499689;0.0107;0.0617;-0.1189;
598216467604376;0.0181;-0.0395;-0.1317;
598216477691303;0.0735;-0.0161;-0.1008;
598216487796095;0.0479;0.0244;-0.0486;
598216497900782;0.0021;-0.1024;-0.0390;
598216508024689;0.0107;-0.1344;-0.1019;
598216518129480;-0.0075;-0.0246;-0.1019;
598216528234168;-0.0330;0.0095;-0.1168;
598216538333126;0.0202;-0.0481;-0.1125;
598216548437918;-0.0021;-0.0161;-0.0827;
598216558542605;0.0234;0.0393;-0.0816;
598216568668595;0.0245;0.0318;-0.0806;
598216578773334;-0.0043;-0.0012;-0.0965;
598216588878022;0.0117;0.0105;-0.0838;
598216599006512;0.0064;0.0148;-0.0198;
598216609111251;-0.0277;-0.0364;0.0089;
598216619215939;-0.0160;-0.0907;-0.0273;
598216629316928;-0.0160;0.0105;-0.0720;
598216639421616;0.0075;0.1075;-0.0475;
598216649526355;-0.0170;0.0169;-0.0198;
598216659606824;0.0245;-0.0214;-0.0262;
598216669711564;-0.0043;0.0244;-0.0198;
598216679816251;-0.0107;0.0755;-0.0273;
598216689927241;0.0202;0.0957;-0.0113;
598216700031980;0.0000;0.0137;0.0164;
598216710136668;0.0107;-0.0417;0.0441;
598216720240991;-0.0266;-0.0427;0.0217;
598216730345730;-0.0320;-0.0598;-0.0017;
598216740450418;-0.0128;-0.0459;-0.0262;
598216750555157;-0.0192;-0.0246;-0.0134;
598216760659897;-0.0405;-0.0481;-0.0603;
598216770764584;-0.0138;-0.0161;-0.0667;
598216780866303;-0.0490;0.0095;-0.0933;
598216790971043;-0.0170;0.0585;-0.0987;
598216801075730;-0.0107;0.0531;-0.1093;
598216811196928;0.0415;-0.0651;-0.0923;
598216821301668;-0.0309;0.0478;-0.0955;
598216831406355;0.0138;0.1373;-0.1072;
598216841505366;0.0352;-0.0055;-0.0965;
598216851610105;0.0213;-0.0545;-0.1029;
598216861714793;0.0149;0.0936;-0.1210;
598216871811199;0.0256;0.1820;-0.1519;
598216881915939;0.0714;0.1064;-0.1370;
598216892020626;0.0969;0.0702;-0.1370;
598216902140991;0.1609;0.1160;-0.1051;
598216912245730;0.1321;0.0180;-0.0720;
598216922350418;0.1076;-0.0939;-0.0752;
598216932433959;0.1971;0.0638;-0.0699;
598216942538699;0.0575;-0.0129;-0.0529;
598216952643387;0.0735;-0.1589;-0.0358;
598216962749532;0.2503;0.1128;-0.0273;
598216972854272;0.0937;0.1426;-0.0177;
598216982958959;0.0458;-0.0939;0.0260;
598216993067032;0.1395;-0.0864;0.0505;
598217003171772;0.1118;0.0414;0.0206;
598217013276459;0.0490;-0.0172;0.0739;
598217023380678;0.0533;-0.0747;0.1027;
598217033485418;0.0490;-0.0001;0.1080;
598217043590105;0.0032;0.1021;0.1027;
598217053702449;0.0085;0.0244;0.0877;
598217063807137;0.0373;-0.0640;0.0558;
598217073911876;0.0107;0.0254;0.0302;
598217084025470;0.0053;0.0478;0.0292;
598217094130209;-0.0011;-0.0790;0.0057;
598217104234897;0.0511;-0.0779;-0.0252;
598217114345782;0.0863;0.0009;-0.0369;
598217124450522;0.1204;0.0009;-0.0124;
598217134555209;0.1438;0.0308;-0.0081;
598217144653178;0.1129;0.0382;-0.0571;
598217154757918;0.1683;0.0510;-0.0593;
598217164862605;0.2056;0.0265;-0.0731;
598217174966824;0.2322;-0.0459;-0.0763;
598217185071564;0.2312;-0.0289;-0.0763;
598217195176251;0.2077;0.0116;-0.0699;
598217205283959;0.2216;-0.0055;-0.0518;
598217215388699;0.2961;0.0041;-0.0262;
598217225493387;0.3537;0.0286;0.0334;
598217235600053;0.3164;-0.0097;0.0409;
598217245704793;0.3079;-0.0246;0.0569;
598217255809480;0.2695;-0.0001;0.0739;
598217265920782;0.1832;-0.0033;0.0814;
598217276025522;0.1459;-0.0417;0.0718;
598217286130209;0.1832;0.0467;0.0846;
598217296247449;0.1885;0.1256;0.1208;
598217306352709;0.1459;0.0340;0.1272;
598217316458022;0.1822;-0.0917;0.1943;
598217326541095;0.1193;-0.0758;0.2039;
598217336646355;0.1023;-0.0289;0.2007;
598217346751668;0.0554;-0.0353;0.1517;
598217356870314;0.0692;-0.0364;0.1762;
598217366975626;0.0799;-0.0182;0.2017;
598217377080939;0.0969;0.0638;0.1836;
598217387164324;0.0820;0.0670;0.2028;
598217397269637;0.0639;-0.0012;0.2145;
598217407374897;0.0628;-0.0119;0.2017;
598217417477293;0.0522;0.0254;0.2081;
598217427582605;0.0437;0.0308;0.1900;
598217437687918;0.0703;0.0361;0.2230;
598217447812241;-0.0053;0.0265;0.2060;
598217457917553;0.0011;0.0233;0.1943;
598217468022814;-0.0426;-0.0800;0.1889;
598217478112553;-0.1181;-0.1429;0.1612;
598217488217866;-0.1788;-0.0854;0.1602;
598217498323126;-0.3258;-0.1003;0.1357;
598217508437032;-0.3205;-0.0811;0.1133;
598217518542293;-0.2896;-0.0619;0.1165;
598217528647605;-0.2747;-0.0427;0.1048;
598217538756720;-0.2779;-0.0704;0.0984;
598217548861980;-0.2864;-0.0097;0.0547;
598217558967293;-0.2630;0.0435;0.0473;
598217569065678;-0.2608;0.0073;0.0547;
598217579170991;-0.2651;0.0244;0.0174;
598217589276251;-0.2555;0.0617;0.0047;
598217599380782;-0.2630;0.0712;0.0196;
598217609486043;-0.2598;0.0233;0.0419;
598217619591355;-0.2534;-0.0672;0.0153;
598217629697970;-0.2193;-0.0438;0.0153;
598217639803230;-0.2726;-0.0534;-0.0092;
598217649908543;-0.2960;-0.0481;-0.0294;
598217660012866;-0.3141;-0.0768;-0.0465;
598217670118126;-0.3088;-0.1205;-0.0774;
598217680223439;-0.3280;-0.0332;-0.0710;
598217690322345;-0.3290;0.0734;-0.1083;
598217700427605;-0.2672;0.0393;-0.1051;
598217710532918;-0.2118;-0.0140;-0.1242;
598217720628282;-0.2012;0.0425;-0.1019;
598217730733543;-0.1618;0.0276;-0.1242;
598217740838855;-0.1309;-0.0619;-0.1434;
598217750953491;-0.0756;-0.0481;-0.1072;
598217761058751;-0.1160;-0.0609;-0.0838;
598217771164064;-0.1426;-0.1045;-0.1104;
598217781260782;-0.1128;-0.0619;-0.1274;
598217791366095;-0.1128;-0.0364;-0.1146;
598217801471355;-0.1405;0.0137;-0.1434;
598217811598022;-0.0692;0.0702;-0.1434;
598217821703282;-0.1011;0.0435;-0.1370;
598217831808595;-0.0671;0.0105;-0.1583;
598217841892866;-0.0660;0.0553;-0.1775;
598217851998126;-0.0352;0.0957;-0.2051;
598217862103439;-0.0682;-0.0374;-0.1848;
598217872208803;-0.1320;-0.0896;-0.2232;
598217882314116;-0.0394;-0.0981;-0.2381;
598217892419376;-0.0309;-0.1344;-0.1987;
598217902549532;0.0213;-0.0971;-0.1636;
598217912654793;0.0479;-0.0726;-0.1923;
598217922760105;0.1385;-0.0832;-0.2125;
598217932845678;0.1545;-0.0449;-0.2402;
598217942950991;0.2578;0.0585;-0.2114;
598217953056251;0.2716;0.0670;-0.1827;
598217963156459;0.2503;-0.0353;-0.1848;
598217973261720;0.2727;0.0585;-0.1434;
598217983367032;0.2834;0.1873;-0.1200;
598217993467449;0.2780;0.1991;-0.1274;
598218003572709;0.1917;-0.1461;-0.0923;
598218013678022;0.1065;-0.2856;-0.0103;
598218023804116;0.1225;-0.0087;-0.0188;
598218033909376;0.1917;0.1820;-0.0965;
598218044014689;0.1534;0.1138;-0.1178;
598218054106512;0.0671;0.0201;-0.1104;
598218064211824;0.0597;0.0084;-0.0582;
598218074317084;0.1076;0.0350;-0.0582;
598218084420157;0.1055;-0.0140;-0.0774;
598218094525418;0.0916;-0.0736;-0.0859;
598218104630730;0.1118;0.0627;-0.0582;
598218114727241;0.1662;0.2385;-0.0955;
598218124832501;0.1854;-0.0353;-0.0710;
598218134937814;0.0927;-0.2260;-0.0710;
598218145051512;0.0469;-0.1461;-0.1306;
598218155156772;0.0831;-0.0960;-0.1083;
598218165262084;0.1502;-0.0268;-0.0955;
598218175364949;0.1672;0.0489;-0.1040;
598218185470209;0.1800;0.0798;-0.1072;
598218195575522;0.1843;0.0648;-0.0752;
598218205667084;0.1907;0.0670;-0.0795;
598218215772449;0.2226;0.0297;-0.0656;
598218225877709;0.1332;-0.0513;-0.0624;
598218235996199;0.1790;-0.0651;-0.0816;
598218246101459;0.1747;-0.0395;-0.0156;
598218256206772;0.1257;-0.1067;-0.0230;
598218266302553;0.1278;-0.0949;0.0111;
598218276407866;0.1459;-0.0001;0.0217;
598218286513126;0.1832;0.0787;-0.0028;
598218296663751;0.2067;0.0063;0.0302;
598218306769012;0.1278;0.0286;0.0526;
598218316874220;0.1651;0.1905;0.0505;
598218326980418;0.1513;0.2108;0.0782;
598218337085678;0.1118;0.1298;0.0846;
598218347190887;0.0778;0.0904;0.0835;
598218357257605;0.0831;0.0009;0.1059;
598218367362814;0.0021;-0.0310;0.1346;
598218377468022;-0.0692;-0.0321;0.1346;
598218387597814;-0.1107;-0.1024;0.1122;
598218397703074;-0.1479;-0.0662;0.0515;
598218407808282;-0.1213;-0.0278;0.0047;
598218417873387;-0.1032;-0.0875;0.0025;
598218427978595;-0.1170;-0.0204;-0.0422;
598218438083803;-0.0607;0.0808;-0.0422;
598218448221199;0.0032;0.0638;-0.0497;
598218458326407;0.0426;0.0830;-0.0763;
598218468431616;0.0586;0.1415;-0.0795;
598218478527866;0.1055;0.0989;-0.0486;
598218488633074;0.0703;0.0968;-0.0955;
598218498738334;0.1917;-0.0300;-0.1264;
598218508840053;0.1470;-0.1844;-0.0443;
598218518945262;0.1427;0.0734;-0.0241;
598218529050470;0.2674;0.2182;-0.0348;
598218539167553;0.1885;0.1405;-0.0390;
598218549272762;0.1342;0.1224;-0.0486;
598218559377970;0.1523;0.1511;0.0004;
598218569479220;0.1545;0.0702;0.0377;
598218579584428;0.1118;-0.0470;0.0164;
598218589689689;0.1087;-0.0960;-0.0039;
598218599772241;0.0831;-0.0214;-0.0092;
598218609877449;0.1172;0.0840;-0.0007;
598218619982657;0.0490;-0.4101;0.0537;
598218630091616;-0.0309;-0.6082;0.0462;
598218640196824;-0.0767;-0.2920;-0.0284;
598218650302084;-0.1202;-0.2292;-0.0273;
598218660407032;0.0107;-0.1823;-0.0220;
598218670512241;0.0639;-0.0640;-0.0188;
598218680617449;0.1087;0.0126;-0.0071;
598218690716095;0.2333;0.0808;0.0260;
598218700821303;0.2919;0.1639;-0.0028;
598218710926512;0.3377;0.2788;0.0185;
598218721037866;0.3132;0.2363;0.0643;
598218731143074;0.2439;0.1565;0.1027;
598218741248334;0.2205;0.1501;0.1133;
598218751350470;0.2482;0.1458;0.1730;
598218761455678;0.1577;0.0265;0.1623;
598218771560887;0.1896;-0.0001;0.2071;
598218781666303;0.1236;0.0244;0.2198;
598218791771512;0.1118;0.0435;0.2103;
598218801876720;0.0767;0.0595;0.2017;
598218812000939;0.0362;0.0180;0.2465;
598218822106147;-0.0820;0.0446;0.2294;
598218832211355;-0.0957;0.0989;0.2145;
598218842301303;-0.1266;0.0233;0.2188;
598218852406512;-0.1937;-0.0651;0.1794;
598218862511720;-0.2395;-0.0204;0.1559;
598218872628282;-0.2321;0.0467;0.1080;
598218882733491;-0.2438;-0.0342;0.0696;
598218892838699;-0.2534;-0.0907;0.0238;
598218902933699;-0.3067;-0.1578;-0.0145;
598218913038907;-0.2545;-0.1141;0.0025;
598218923144116;-0.1937;-0.0619;-0.0507;
598218933259116;-0.0735;-0.0598;-0.0635;
598218943364324;-0.0458;-0.0513;-0.0912;
598218953469532;0.0213;-0.0502;-0.0848;
598218963555262;0.0863;-0.0161;-0.1115;
598218973660470;0.2386;0.0148;-0.1125;
598218983765678;0.2141;0.0009;-0.1168;
598218993878803;0.2280;-0.0491;-0.0955;
598219003984012;0.2290;-0.0523;-0.0348;
598219014089220;0.2780;-0.0545;0.0217;
598219024199741;0.3142;0.0084;0.0451;
598219034304949;0.3398;0.0137;0.0611;
598219044410157;0.3313;-0.0150;0.0718;
598219054521512;0.3260;0.0403;0.0856;
598219064626720;0.2205;0.0126;0.1101;
598219074731928;0.1300;-0.0651;0.1410;
598219084817553;0.0522;-0.0758;0.1815;
598219094922762;0.0522;-0.0236;0.1964;
598219105027970;0.0149;-0.0150;0.2081;
598219115130157;0.0107;-0.0310;0.1953;
598219125235366;0.0138;-0.0044;0.2039;
598219135340574;0.0053;0.0702;0.1719;
598219145444012;0.0021;0.0808;0.1730;
598219155549220;-0.0479;0.0403;0.2198;
598219165654428;-0.1170;0.0372;0.2103;
598219175765991;-0.1447;0.0308;0.2017;
598219185871199;-0.1373;0.0063;0.2017;
598219195976459;-0.1522;0.0244;0.1921;
598219206085782;-0.1320;0.0723;0.1399;
598219216190991;-0.0575;0.0435;0.1261;
598219226296251;-0.0597;-0.0364;0.1059;
598219236392032;-0.0714;-0.0715;0.0920;
598219246497241;-0.0660;-0.0555;0.1069;
598219256602449;-0.0979;-0.0257;0.1037;
598219266721355;-0.0735;-0.0012;0.0814;
598219276826616;-0.0682;0.0148;0.1240;
598219286931824;-0.0245;0.0393;0.0920;
598219297019949;0.0043;0.1170;0.0835;
598219307124689;-0.0170;0.1117;0.0547;
598219317229428;-0.0266;0.0723;0.0142;
598219327366512;-0.0501;0.0776;0.0057;
598219337471251;-0.0415;0.0563;0.0292;
598219347575991;-0.0479;-0.0193;0.0547;
598219357644949;-0.0437;-0.0704;0.0846;
598219367749637;-0.0245;-0.0449;0.0643;
598219377854428;0.0064;-0.0150;-0.0017;
598219387988282;0.0138;0.0148;0.0121;
598219398093022;-0.0138;-0.0023;0.0100;
598219408197762;0.0128;0.0126;0.0068;
598219418275730;0.0394;0.0276;0.0441;
598219428380522;0.0160;0.1192;0.0473;
598219438485262;0.0628;0.1575;0.0462;
598219448605053;0.0383;-0.0651;0.0984;
598219458709793;-0.0128;-0.0598;0.1453;
598219468814532;0.0522;0.1948;0.1272;
598219478934428;0.0884;0.1980;0.0760;
598219489039168;0.0373;0.1192;0.0558;
598219499143907;0.0170;0.1533;0.0856;
598219509254012;0.0075;0.1639;0.1506;
598219519358751;-0.0202;0.0883;0.1538;
598219529463491;-0.0437;-0.1450;0.1772;
598219539546407;-0.0490;-0.0193;0.1953;
598219549651147;-0.0543;0.1820;0.1730;
598219559755887;-0.0288;-0.0779;0.1751;
598219569874324;-0.0405;-0.2100;0.1186;
598219579979064;-0.1075;-0.1109;0.0441;
598219590083803;-0.1138;-0.1290;0.0537;
598219600186043;-0.0565;-0.0875;0.0792;
598219610290782;-0.0852;-0.0864;0.1112;
598219620395522;-0.0989;-0.1045;0.1122;
598219630503282;0.0107;0.0031;0.0569;
598219640608022;0.0149;0.0158;0.0696;
598219650712762;-0.0383;-0.1130;0.0451;
598219660814949;-0.0373;-0.2142;0.0313;
598219670919689;-0.0426;-0.1823;0.0494;
598219681024428;-0.0117;-0.1045;0.0483;
598219691127032;-0.0117;-0.0672;0.0856;
598219701231772;-0.0181;-0.0672;0.1176;
598219711336512;-0.0021;0.0169;0.0984;
598219721439532;0.0437;0.0308;0.0771;
598219731544272;0.0863;0.0425;0.0984;
598219741649012;0.0458;0.0702;0.1261;
598219751754324;0.0075;0.1021;0.1644;
598219761859064;-0.0011;0.0915;0.1975;
598219771963803;-0.0447;0.0680;0.2220;
598219782070887;-0.0820;0.0659;0.2337;
598219792175500;-0.1320;0.0095;0.2475;
598219802280240;-0.2129;0.0116;0.2198;
598219812401281;-0.2438;0.0723;0.2124;
598219822506021;-0.3716;0.0521;0.2017;
598219832610761;-0.4483;0.0169;0.1708;
598219842709511;-0.4963;0.0680;0.1389;
598219852814250;-0.5165;0.1064;0.0814;
598219862918990;-0.5272;0.0606;0.0963;
598219873015344;-0.5698;-0.0438;0.0483;
598219883120083;-0.4632;-0.0640;-0.0252;
598219893224823;-0.3482;0.0169;-0.0465;
598219903331906;-0.2885;0.0403;-0.0667;
598219913436646;-0.2545;0.0531;-0.1210;
598219923541386;-0.1873;0.0350;-0.1370;
598219933645656;-0.0820;0.0499;-0.1274;
598219943750396;-0.0021;0.1085;-0.0987;
598219953855136;0.0170;0.1107;-0.0742;
598219963952948;0.0213;-0.0204;-0.0582;
598219974057688;0.0735;0.0073;-0.0529;
598219984162427;0.1044;0.0670;-0.0976;
598219994277323;0.0852;0.0190;-0.0997;
598220004382063;0.0746;-0.0225;-0.0742;
598220014486802;0.0085;-0.0140;-0.0294;
598220024590344;-0.0128;0.0052;-0.0156;
598220034695083;-0.0405;-0.0033;0.0174;
598220044799823;-0.0968;0.0276;-0.0156;
598220054926490;-0.0788;0.1373;-0.0422;
598220065031229;-0.0692;0.1916;-0.0252;
598220075135969;-0.0979;0.1192;-0.0326;
598220085221073;-0.1011;0.0318;-0.0411;
598220095325813;-0.0628;0.0457;-0.0220;
598220105430552;-0.0682;0.0830;0.0366;
598220115541698;-0.0915;0.0095;0.0377;
598220125646438;-0.1256;-0.0949;-0.0071;
598220135751177;-0.0852;-0.0885;-0.0422;
598220145845136;-0.1107;-0.0321;-0.0646;
598220155949875;-0.0936;-0.0246;-0.0774;
598220166054615;-0.0968;-0.0577;-0.0603;
598220176152531;-0.0810;-0.0268;-0.0507;
598220186257271;-0.0650;-0.0236;-0.0497;
598220196362011;-0.0543;-0.0044;-0.0166;
598220206493208;-0.0831;0.0254;-0.0561;
598220216597948;-0.0660;0.0190;-0.0678;
598220226702688;-0.0618;-0.0129;-0.0774;
598220236807219;-0.0703;-0.0640;-0.1051;
598220246911958;-0.0522;-0.1567;-0.0806;
598220257016698;-0.0905;-0.2920;-0.0539;
598220267098886;-0.0979;-0.3165;-0.0262;
598220277203677;-0.1160;-0.2121;0.0068;
598220287308365;-0.1181;-0.0885;-0.0433;
598220297440500;-0.0522;0.0467;-0.1178;
598220307545656;-0.0426;0.1778;-0.1519;
598220317650813;0.0277;0.2533;-0.1328;
598220327723104;0.0298;0.3065;-0.0827;
598220337828261;0.0181;0.3449;-0.0688;
598220347933417;0.0692;0.4035;-0.0230;
598220358042740;0.0224;0.2703;0.0483;
598220368147896;-0.0511;-0.0843;0.0728;
598220378253052;-0.0746;-0.2622;0.0451;
598220388367583;-0.0863;-0.1983;-0.0039;
598220398472740;-0.1011;-0.1525;-0.0369;
598220408577896;-0.0957;-0.1514;-0.0188;
598220418703313;-0.1085;-0.0491;-0.0124;
598220428808469;-0.0192;0.1426;0.0036;
598220438913625;-0.0831;0.1820;0.0569;
598220449001021;-0.1117;0.2033;0.0153;
598220459106229;-0.0957;0.2118;0.0111;
598220469211386;-0.1330;0.1511;-0.0188;
598220479317063;-0.1618;0.0478;-0.0667;
598220489422219;-0.1778;-0.0939;-0.0699;
598220499527375;-0.2065;-0.1834;-0.0475;
598220509632688;-0.2182;-0.2079;-0.0688;
598220519737844;-0.1362;-0.2036;-0.0401;
598220529843000;-0.1245;-0.1269;-0.0763;
598220539947063;-0.1075;-0.0214;-0.0880;
598220550052219;-0.0703;0.1192;-0.1242;
598220560157375;0.0160;0.2353;-0.1807;
598220570276281;0.0916;0.3044;-0.1690;
598220580381438;0.0565;0.3577;-0.1349;
598220590486594;0.0341;0.3140;-0.0763;
598220600580500;0.0224;0.1277;-0.0177;
598220610685656;-0.0234;0.0212;-0.0422;
598220620790813;-0.0426;-0.0630;-0.0497;
598220630899615;-0.1021;-0.1706;-0.0965;
598220641004771;-0.0522;-0.2036;-0.1306;
598220651109927;-0.0810;-0.2057;-0.1178;
598220661217583;-0.0362;-0.1897;-0.1040;
598220671322740;-0.0170;-0.0822;-0.0859;
598220681427948;-0.0224;-0.0566;-0.0838;
598220691524042;-0.0607;-0.1003;-0.0763;
598220701629250;-0.0660;0.0851;-0.0763;
598220711734354;0.0149;0.2863;-0.1434;
598220721841542;-0.0064;0.2916;-0.1965;
598220731946698;-0.0554;0.1575;-0.1807;
598220742051854;-0.0266;0.1383;-0.1434;
598220752163208;0.0224;0.1277;-0.0827;
598220762268417;0.0064;0.0095;-0.0710;
598220772373573;0.0149;0.0414;-0.0816;
598220782463156;-0.0149;0.0862;-0.0742;
598220792568261;-0.1277;-0.3824;-0.0624;
598220802673417;-0.0586;-0.5092;-0.1413;
598220812804771;-0.0128;-0.2494;-0.1360;
598220822909927;-0.0756;-0.1077;-0.1232;
598220833015083;0.0330;-0.0065;-0.0784;
598220843121229;0.0064;0.1703;-0.0880;
598220853226386;0.0586;0.3832;-0.0965;
598220863331542;0.0447;0.3779;-0.0965;
598220873420396;0.0181;0.2342;-0.0955;
598220883525552;0.0064;0.1170;-0.0550;
598220893630708;0.0288;0.0382;-0.0486;
598220903732271;0.0575;-0.0236;-0.0337;
598220913837427;0.0469;-0.1482;-0.0177;
598220923942583;0.0138;-0.2260;-0.0465;
598220934046021;0.0053;-0.2281;-0.0646;
598220944151177;-0.0415;-0.3112;-0.0518;
598220954256333;-0.0373;-0.1652;-0.0582;
598220964361125;-0.0266;0.1394;-0.0561;
598220974466281;-0.0138;0.2660;-0.0784;
598220984571438;0.0266;0.2108;-0.0518;
598220994681646;0.0107;0.2214;-0.1125;
598221004786802;0.0181;0.2937;-0.1413;
598221014891958;-0.0352;0.2023;-0.1285;
598221024996542;-0.0096;0.0052;-0.1210;
598221035101698;-0.0128;-0.1280;-0.1146;
598221045206854;-0.0170;-0.2409;-0.0965;
598221055314146;-0.0224;-0.4016;-0.0795;
598221065419354;0.0394;-0.3549;-0.0987;
598221075524458;0.0245;-0.1631;-0.1445;
598221085621854;0.0373;-0.0726;-0.1317;
598221095727063;0.0192;-0.0694;-0.1391;
598221105832167;0.0586;0.0787;-0.1466;
598221115945396;0.1150;0.3864;-0.1594;
598221126050552;0.0969;0.4599;-0.1519;
598221136155761;0.0948;0.1724;-0.0976;
598221146242844;0.1172;0.0009;-0.0582;
598221156348000;0.1214;-0.0300;-0.0806;
598221166453156;0.0746;-0.1706;-0.0848;
598221176562896;0.0660;-0.2600;-0.0582;
598221186668052;0.0394;-0.1823;-0.0667;
598221196773208;0.0394;-0.2451;-0.0624;
598221206903781;0.0916;-0.1983;-0.0465;
598221217008886;0.1332;0.0084;-0.0081;
598221227114042;0.0842;0.1341;-0.0443;
598221237186854;0.1523;0.1202;-0.0390;
598221247292011;0.1342;0.1011;-0.0060;
598221257397167;0.0884;0.0915;0.0089;
598221267573521;0.0458;0.0467;-0.0007;
598221277678677;0.0607;-0.0150;-0.0039;
598221287783833;0.0394;-0.0055;0.0409;
598221297830917;0.0415;-0.0917;0.0803;
598221307935917;0.0288;-0.1993;0.0473;
598221318040917;0.0277;-0.1248;0.0206;
598221328167167;0.0096;-0.0033;0.0334;
598221338272167;-0.0192;0.0073;0.0206;
598221348377167;0.0043;-0.0385;0.0174;
598221358481958;0.0107;0.0659;0.0132;
598221368586958;0.0394;0.1064;0.0643;
598221378691958;0.0288;0.0041;0.0718;
598221388768104;0.0746;-0.0076;0.0441;
598221398873104;0.0543;0.0691;0.0601;
598221408978104;0.0075;0.1117;0.0398;
598221419114927;-0.0096;0.1415;0.0164;
598221429219927;-0.0202;0.1085;0.0121;
598221439324927;-0.0415;-0.0044;0.0068;
598221449408365;-0.0362;-0.2110;0.0451;
598221459513365;-0.0947;-0.2792;0.0324;
598221469618365;-0.0565;-0.2558;0.0142;
598221479718365;-0.1000;-0.3995;0.0068;
598221489823365;-0.1746;-0.3506;0.0185;
598221499928365;-0.0947;0.0158;-0.0582;
598221510039563;0.0639;0.3875;-0.1754;
598221520144615;-0.0192;0.4397;-0.0859;
598221530249563;-0.0053;0.3779;-0.0422;
598221540349979;0.1374;0.5015;-0.0273;
598221550454979;0.1587;0.3822;0.0079;
598221560559979;0.1087;0.2724;-0.0145;
598221570679354;-0.0234;-0.0481;0.0068;
598221580784354;-0.0810;-0.6722;0.0057;
598221590889354;-0.0820;-0.8437;-0.0784;
598221600988313;-0.0820;-0.4868;-0.0763;
598221611093313;-0.1447;-0.1919;-0.1242;
598221621198365;0.0639;0.0372;-0.1189;
598221631290865;0.0597;0.1948;-0.0997;
598221641395865;0.1193;0.2991;-0.1210;
598221651500865;0.1758;0.2991;-0.1083;
598221661622375;0.1843;0.2353;-0.0539;
598221671727375;0.1129;0.1959;0.0015;
598221681832375;0.0884;0.0776;-0.0092;
598221691928521;0.0660;-0.1258;-0.0294;
598221702033521;0.0447;-0.1631;-0.0518;
598221712138521;0.0107;-0.1173;-0.0390;
598221722256490;-0.0064;-0.1301;-0.0166;
598221732361490;0.0000;-0.1493;-0.0294;
598221742466438;0.0671;0.0286;-0.0017;
598221752569979;0.0863;0.1746;0.0441;
598221762674979;0.0735;0.1831;0.0270;
598221772779979;0.1129;0.1628;-0.0273;
598221782870708;0.0820;0.1149;-0.0316;
598221792975708;0.0170;-0.0214;0.0004;
598221803080708;-0.0320;-0.1067;0.0217;
598221813207375;0.0160;-0.0406;0.0142;
598221823312427;0.0245;-0.0236;0.0409;
598221833417375;0.0192;-0.0683;0.0238;
598221843505448;0.0703;-0.0310;-0.0017;
598221853610448;0.0671;0.0222;-0.0316;
598221863715448;0.0405;-0.0204;-0.0284;
598221873825604;0.0501;-0.0332;-0.0177;
598221883930604;0.1001;0.0499;0.0324;
598221894035604;0.1172;0.1149;0.0707;
598221904140865;0.1332;0.1522;0.0611;
598221914245865;0.1534;0.1064;0.0057;
598221924350917;0.1481;0.0542;0.0089;
598221934453365;0.0969;0.0329;0.0302;
598221944558365;0.0618;0.2076;0.0632;
598221954663365;0.0650;0.3065;0.0622;
598221964770083;0.0618;0.1533;0.0707;
598221974875083;0.0618;0.0329;0.0952;
598221984980083;0.0447;-0.1258;0.0473;
598221995084563;-0.0224;-0.4176;0.0089;
598222005189563;-0.0968;-0.3696;-0.0198;
598222015294563;-0.0245;0.0041;-0.0134;
598222025394302;-0.0202;0.0638;-0.0795;
598222035499250;-0.0501;-0.0992;-0.0561;
598222045604250;0.0053;0.0531;-0.0379;
598222055708938;0.0628;0.2417;-0.0198;
598222065813990;0.1534;0.2991;0.0387;
598222075918938;0.2301;0.5462;0.1762;
598222086021281;0.1182;0.4407;0.1357;
598222096126281;0.0607;0.0297;0.0984;
598222106231229;-0.0117;-0.1077;0.0601;
598222116337375;-0.0394;0.0925;0.0387;
598222126442427;-0.0957;-0.0278;0.1176;
598222136547375;-0.1138;-0.3538;0.0302;
598222146648886;-0.0426;-0.3728;-0.0401;
598222156753886;0.0405;-0.0981;0.1549;
598222166858886;-0.1490;0.1181;0.0760;
598222176962948;0.0138;-0.1344;0.0398;
598222187067896;0.0021;-0.2803;0.0089;
598222197172896;0.0746;0.0872;0.0654;
598222207291490;0.0820;0.3640;0.0515;
598222217396490;0.1321;0.4833;0.0590;
598222227501490;0.1023;0.6570;0.0270;
598222237593000;0.1246;0.5004;0.0569;
598222247698000;-0.0053;-0.0640;0.1357;
598222257803000;-0.0597;-0.2228;0.1357;
598222267906333;-0.0714;-0.0214;0.1421;
598222278011333;-0.1383;-0.0790;0.1208;
598222288116333;-0.1032;-0.2654;0.0920;
598222298218104;-0.0554;-0.1184;0.0377;
598222308323052;-0.0234;0.1202;0.0196;
598222318428000;-0.0288;0.1756;0.0505;
598222328552271;-0.0053;0.2097;0.0728;
598222338657219;0.0107;0.2353;0.1272;
598222348762167;0.0000;0.1266;0.1112;
598222358884771;-0.0011;0.0222;0.0643;
598222368989719;-0.0202;-0.0470;0.0526;
598222379094667;-0.0138;-0.0768;0.0100;
598222389179563;-0.0458;-0.1301;0.0281;
598222399284511;-0.0426;-0.1077;0.0611;
598222409389458;-0.0330;-0.0108;0.0675;
598222419484250;0.0096;0.0766;0.1027;
598222429589198;0.0096;0.1075;0.0686;
598222439694146;-0.0043;0.0830;0.0483;
598222449819146;-0.0064;0.0435;0.0057;
598222459924094;0.0064;0.0862;-0.0103;
598222470029042;-0.0192;0.0925;0.0015;
598222480127271;-0.0298;0.0201;0.0409;
598222490232219;-0.0394;0.0073;0.0718;
598222500337167;-0.0075;0.0489;0.0462;
598222510437063;-0.0075;0.0425;-0.0060;
598222520542011;-0.0426;-0.1642;0.0196;
598222530646958;-0.0213;-0.0896;0.0569;
598222540756021;0.0021;0.1352;0.0302;
598222550860969;0.0107;0.1628;0.0228;
598222560965917;-0.0149;0.1373;0.0707;
598222571096229;-0.0181;0.1916;0.0707;
598222581201177;0.0149;0.2214;0.0963;
598222591306125;-0.0458;0.1746;0.0760;
598222601390813;0.0256;0.3630;0.0601;
598222611495761;-0.0915;0.1330;0.1122;
598222621600708;-0.1543;-0.3154;0.1229;
598222631710813;-0.1256;-0.2920;0.1112;
598222641815761;-0.2555;-0.1312;0.0750;
598222651920708;-0.2981;-0.0843;0.0377;
598222662032948;-0.1905;-0.0364;0.0409;
598222672137896;-0.1895;0.0126;-0.0017;
598222682242844;-0.1213;0.0947;-0.0124;
598222692334667;-0.0511;0.1373;-0.0103;
598222702439615;-0.0586;0.2012;0.0249;
598222712544563;-0.1021;0.0819;-0.0039;
598222722653938;-0.0895;-0.0364;0.0121;
598222732758886;-0.0639;0.0798;0.0036;
598222742863833;-0.0501;0.1405;-0.0379;
598222752967271;-0.0607;0.0489;-0.0465;
598222763072219;-0.0979;-0.1003;-0.0326;
598222773177167;-0.0842;-0.0939;-0.0230;
598222783278729;-0.0660;-0.0257;0.0185;
598222793383677;-0.0905;0.0372;-0.0028;
598222803488625;-0.0160;0.1884;-0.0220;
598222813614458;-0.0852;-0.0065;0.0015;
598222823719406;-0.0383;-0.0747;-0.0529;
598222833824354;0.0330;0.1490;-0.0699;
598222843915708;0.0298;0.2321;-0.0316;
598222854020656;-0.0341;0.0755;0.0409;
598222864125604;0.0192;0.0382;0.0302;
598222874230031;0.0714;0.2012;-0.0103;
598222884334979;0.0788;0.2735;-0.0177;
598222894439927;0.0000;0.1170;0.0025;
598222904546281;-0.0117;0.0095;-0.0145;
598222914651229;0.0085;-0.0055;-0.0081;
598222924756229;-0.0277;-0.0374;0.0142;
598222934855396;-0.0660;-0.0321;0.0196;
598222944960344;-0.0437;-0.0470;-0.0188;
598222955065292;-0.0011;0.0137;-0.0465;
598222965171021;-0.0288;0.1746;-0.0933;
598222975275969;0.0011;0.1905;-0.1253;
598222985380917;-0.0213;0.0425;-0.1242;
598222995492479;0.0490;-0.0236;-0.0230;
598223005597427;0.0096;-0.0481;-0.0209;
598223015702375;0.0341;-0.1482;-0.0784;
598223025806646;0.0842;-0.1589;-0.0731;
598223035911594;0.0181;-0.1386;-0.0987;
598223046016594;0.0447;-0.0704;-0.1168;
598223056110708;0.0330;-0.4826;-0.1029;
598223066215656;-0.0341;-0.5710;0.0132;
598223076320604;0.0884;0.0723;0.0345;
598223086451073;0.1683;0.4993;-0.0411;
598223096556021;0.0021;0.3374;-0.0401;
598223106660969;0.0288;0.2575;-0.0561;
598223116755240;0.0884;0.4599;0.0324;
598223126860136;-0.1469;0.2023;-0.0113;
598223136965136;-0.0298;-0.0321;0.0877;
598223147063833;0.0501;0.6378;0.1229;
598223157168781;-0.0149;0.2671;0.1389;
598223167273781;-0.1277;-0.8511;0.1240;
598223177375292;-0.0842;-0.6274;0.0366;
598223187480240;-0.0820;-0.0896;-0.0401;
598223197585188;-0.1288;-0.3527;-0.0188;
598223207681750;-0.1234;-0.4304;0.0142;
598223217786698;0.0330;0.2831;-0.0081;
598223227891646;0.0383;0.4450;-0.0145;
598223238021438;-0.0671;0.0212;-0.0784;
598223248126386;0.1161;0.2873;-0.1317;
598223258231333;0.0064;0.5654;-0.1743;
598223268336594;-0.0405;0.1426;-0.1551;
598223278441542;-0.0458;-0.1855;-0.1008;
598223288546490;-0.0330;-0.0481;-0.1115;
598223298632844;0.0138;-0.0513;-0.1136;
598223308737948;0.0213;-0.2473;-0.1115;
598223318843104;0.0117;-0.1130;-0.1093;
598223328958729;-0.0011;0.0340;-0.1413;
598223339063886;-0.0383;-0.0491;-0.1530;
598223349169042;-0.0362;0.0372;-0.1583;
598223359257115;0.0075;0.2479;-0.1008;
598223369362219;-0.0202;0.2342;-0.0124;
598223379467375;0.0085;0.0936;-0.0039;
598223389580500;0.0394;0.1298;-0.0177;
598223399685604;0.0245;0.1810;-0.0124;
598223409790761;-0.0298;0.0126;-0.0422;
598223419898677;-0.0405;-0.0065;-0.0422;
598223430003781;-0.0373;0.1053;-0.0209;
598223440108938;-0.0320;0.0691;-0.0007;
598223450219667;-0.0479;-0.0470;0.0079;
598223460324823;-0.0362;-0.0768;-0.0529;
598223470429979;-0.0277;0.0627;-0.0646;
598223480527167;-0.0607;0.0457;-0.0550;
598223490632271;-0.0895;-0.0406;-0.0997;
598223500737427;-0.0597;0.0137;-0.1370;
598223510846021;-0.0362;0.1170;-0.1498;
598223520951177;-0.0330;0.1053;-0.1700;
598223531056333;0.0330;0.0126;-0.1434;
598223541169771;0.0032;-0.1258;-0.0944;
598223551274927;0.0128;-0.0598;-0.1264;
598223561380083;0.0181;0.0638;-0.2168;
598223571494979;0.0884;0.0297;-0.2370;
598223581600136;0.0831;0.0329;-0.2136;
598223591705292;0.1300;0.1149;-0.1955;
598223601794563;0.1662;0.0489;-0.1594;
598223611899719;0.1971;-0.0534;-0.1434;
598223622004875;0.3110;0.1202;-0.1647;
598223632112688;0.4133;0.2310;-0.1072;
598223642217844;0.3643;-0.0811;-0.1029;
598223652323000;0.3611;-0.1770;-0.0699;
598223662428625;0.3877;-0.0172;-0.0667;
598223672533781;0.3984;-0.0140;-0.0092;
598223682638938;0.3015;-0.0960;0.0409;
598223692739458;0.2610;-0.0289;0.0632;
598223702844615;0.2844;0.0372;0.0984;
598223712949771;0.2194;0.0265;0.0611;
598223723060500;0.2067;0.0766;0.0462;
598223733165656;0.1907;0.1415;0.0952;
598223743270813;0.1800;0.0648;0.1314;
598223753367271;0.1917;0.0201;0.1719;
598223763472427;0.1513;0.0574;0.1826;
598223773577583;0.1150;0.1107;0.1399;
598223783680031;0.1598;0.0787;0.1719;
598223793785136;0.0980;0.0169;0.1953;
598223803890292;-0.0021;-0.0108;0.1730;
598223813980969;-0.0128;0.0403;0.1815;
598223824086073;0.0511;0.1842;0.1602;
598223834191229;0.1076;0.2118;0.1751;
598223844296333;-0.0011;0.0904;0.1889;
598223854426125;-0.1043;0.0510;0.1655;
598223864531281;-0.0968;0.0126;0.1421;
598223874636438;-0.1352;-0.0896;0.1708;
598223884747688;-0.2587;-0.1471;0.1495;
598223894852844;-0.3003;-0.0779;0.1399;
598223904958000;-0.2204;-0.0502;0.0995;
598223915062479;-0.0426;0.0009;0.0877;
598223925167636;-0.0607;0.0457;0.0856;
598223935272792;-0.0905;0.1075;0.0867;
598223945369354;-0.0405;0.2129;0.1122;
598223955474511;-0.0511;0.2044;0.0984;
598223965579667;-0.0405;0.1895;0.0750;
598223975685292;-0.0884;0.1277;0.1005;
598223985790448;-0.0586;-0.0651;0.0601;
598223995895604;-0.0490;-0.2590;0.0973;
598224006013625;-0.0979;-0.3122;0.0952;
598224016118781;-0.0714;-0.2228;0.0622;
598224026223938;-0.0138;-0.0438;0.0579;
598224036312688;-0.0064;0.0382;0.0558;
598224046417896;0.0064;0.1213;0.0590;
598224056523000;-0.0586;0.1842;0.0675;
598224066623521;-0.0277;0.1138;0.0760;
598224076728729;-0.0447;0.0617;0.1101;
598224086833833;-0.0426;0.1043;0.0899;
598224096982844;0.0149;0.1245;0.0654;
598224107088000;-0.0021;0.0169;0.0760;
598224117193156;-0.0597;-0.0417;0.0366;
598224127251386;-0.0842;-0.0406;0.0430;
598224137356542;-0.1138;-0.0726;0.0707;
598224147461646;-0.1117;-0.0385;0.0590;
598224157566594;-0.0597;0.0883;0.0952;
598224167671750;-0.1011;0.0766;0.0856;
598224177776906;-0.1043;-0.1024;0.0494;
598224187884458;-0.1032;-0.1887;0.0174;
598224197989615;-0.1501;-0.1876;-0.0103;
598224208094771;-0.1682;-0.2398;-0.0039;
598224218193886;-0.2012;-0.2462;-0.0369;
598224228298990;-0.1224;-0.1216;-0.0358;
598224238404146;-0.0522;-0.0321;-0.0369;
598224248518000;-0.0852;-0.1216;-0.0198;
598224258623156;-0.0746;-0.0055;-0.0422;
598224268728313;-0.0469;0.2437;-0.0497;
598224278854354;-0.0458;0.2023;-0.0433;
598224288959511;-0.0298;0.1469;-0.0390;
598224299064667;-0.0618;0.1288;-0.0166;
598224309168677;-0.1160;0.0020;-0.0656;
598224319273990;-0.0639;-0.1674;-0.0529;
598224329379302;-0.0735;-0.2558;-0.0561;
598224339458365;-0.0957;-0.2281;-0.0305;
598224349563677;-0.1064;-0.1642;-0.0454;
598224359668990;-0.0586;-0.1983;-0.0880;
598224369778156;-0.0639;-0.2047;-0.1051;
598224379883469;-0.1021;-0.2100;-0.0816;
598224389988781;-0.1096;-0.2899;-0.0252;
598224400092167;-0.0341;-0.0204;-0.0230;
598224410197479;0.1129;0.3395;-0.0784;
598224420302792;0.1044;0.4173;-0.1146;
598224430436698;0.0469;0.3577;-0.0603;
598224440542011;0.0053;0.3321;-0.0379;
598224450647323;-0.0288;0.2639;-0.0273;
598224460725656;-0.0925;0.1607;-0.0635;
598224470830969;-0.0884;0.0957;-0.0720;
598224480936281;-0.0447;0.2300;-0.0230;
598224491041073;-0.1170;-0.0715;-0.0411;
598224501146386;-0.0501;-0.4367;-0.1370;
598224511251698;-0.0075;-0.2888;-0.1594;
598224521356490;0.0011;-0.0811;-0.1668;
598224531461802;0.0309;-0.0960;-0.1466;
598224541567115;0.1033;-0.0449;-0.1296;
598224551674094;0.1619;0.1575;-0.1221;
598224561779354;0.2365;0.2543;-0.1104;
598224571884719;0.3217;0.0925;-0.1210;
598224581993469;0.3611;0.0350;-0.1146;
598224592098781;0.3324;0.1107;-0.0731;
598224602204094;0.3366;0.0510;-0.0997;
598224612307115;0.3675;-0.0587;-0.0667;
598224622412427;0.2770;-0.0342;-0.0081;
598224632517740;0.1822;-0.0172;0.0270;
598224642625865;0.1854;-0.1099;0.1144;
598224652731177;0.1726;-0.0896;0.1122;
598224662836490;0.2003;0.1703;0.0515;
598224672943677;0.1790;0.0893;0.0675;
598224683048990;0.1097;-0.1706;0.1272;
598224693154302;0.0511;-0.1045;0.1197;
598224703244667;-0.0298;-0.0768;0.1144;
598224713349979;-0.0245;-0.0044;0.1272;
598224723455292;-0.0767;-0.2142;0.1538;
598224733567115;-0.1597;-0.2483;0.1921;
598224743672427;-0.1309;0.2607;0.1570;
598224753777740;0.0511;0.4237;0.0835;
598224763868573;-0.0277;0.2087;0.0590;
598224773973886;-0.0925;0.2937;0.0941;
598224784079198;-0.1959;0.3087;0.1421;
598224794202427;-0.2630;0.1298;0.1506;
598224804307740;-0.2640;-0.0800;0.1357;
598224814413052;-0.2800;-0.0736;0.0877;
598224824515240;-0.3770;0.0947;0.0324;
598224834620552;-0.5165;-0.4431;-0.0017;
598224844725865;-0.2513;-0.7521;-0.0997;
598224854823677;-0.1735;-0.3399;-0.1349;
598224864928990;-0.2811;0.0169;-0.1157;
598224875034302;-0.2033;-0.0257;-0.0997;
598224885145448;-0.0181;0.0244;-0.0806;
598224895250708;0.0021;0.2012;-0.0827;
598224905356073;-0.0170;0.2852;-0.1381;
598224915458573;0.0352;0.2437;-0.1285;
598224925563886;0.0160;0.1511;-0.1509;
598224935669198;0.0405;0.1011;-0.1509;
598224945767219;0.0107;-0.0385;-0.1296;
598224955872531;0.0021;-0.2547;-0.1264;
598224965977844;0.0522;-0.2654;-0.0827;
598224976083781;0.0298;-0.2142;-0.0646;
598224986189094;0.0341;-0.2792;-0.1040;
598224996294406;0.1726;-0.0694;-0.1264;
598225006409302;0.2503;0.1224;-0.1391;
598225016514615;0.1491;0.0286;-0.1210;
598225026619927;0.2173;0.0819;-0.0901;
598225036707948;0.3025;0.2479;-0.0358;
598225046813313;0.2365;0.2575;-0.0348;
598225056918625;0.3174;0.1873;0.0302;
598225067021073;0.1981;0.0201;-0.0145;
598225077126386;0.2674;-0.0289;0.0909;
598225087231698;0.2471;-0.0875;0.1889;
598225097394979;0.0948;-0.1312;0.1208;
598225107500292;0.1555;-0.1003;0.0952;
598225117605656;0.1161;-0.2217;0.0867;
598225127657896;0.0405;-0.1780;0.1442;
598225137763208;-0.0192;-0.0427;0.1687;
598225147868521;0.0202;-0.1205;0.1325;
598225157979719;0.0160;-0.0225;0.0771;
598225168085031;0.0117;0.1128;0.0526;
598225178190344;0.0447;0.1948;0.0803;
598225188280031;0.0085;0.1266;0.0601;
598225198385344;0.0011;-0.2260;0.0526;
598225208490656;0.0724;0.1298;0.0739;
598225218625761;0.0490;0.4077;0.1517;
598225228731073;-0.1511;-0.0779;0.1485;
598225238836386;-0.0075;-0.1908;0.1357;
598225248926073;0.0671;0.1479;0.1336;
598225259031386;-0.0597;0.1959;0.1293;
598225269136698;-0.2481;-0.0395;0.0995;
598225279240240;-0.1213;-0.0907;0.0899;
598225289345552;-0.0947;-0.1269;0.0931;
598225299450865;-0.2843;-0.1088;0.1197;
598225309546021;-0.2992;0.0340;0.1272;
598225319650969;-0.2033;0.0723;0.0302;
598225329755865;-0.1714;-0.0065;-0.0156;
598225339875969;-0.1884;-0.1248;-0.0113;
598225349980865;-0.2417;-0.0928;-0.0220;
598225360085761;-0.2726;-0.0694;-0.0379;
598225370191854;-0.2555;-0.2366;-0.0518;
598225380296802;-0.1160;-0.1365;-0.0699;
598225390401698;-0.0011;0.3140;-0.0092;
598225400498625;-0.2619;0.0084;-0.0550;
598225410603573;-0.1756;-0.2888;-0.0880;
598225420708469;0.0469;0.0244;-0.1221;
598225430821021;-0.0692;0.1575;-0.1423;
598225440925969;-0.1692;-0.0055;-0.1072;
598225451030865;-0.0799;-0.0300;-0.0891;
598225461138729;0.0128;0.0755;-0.0891;
598225471243677;0.0117;0.1341;-0.0699;
598225481348573;-0.0128;0.0499;-0.1125;
598225491442896;0.0160;-0.0534;-0.1115;
598225501547844;0.0756;-0.0481;-0.1296;
598225511652740;0.0458;-0.0193;-0.0933;
598225521763417;0.0415;-0.0023;-0.0816;
598225531868365;0.1427;0.0819;-0.0710;
598225541973261;0.1981;0.1277;-0.0518;
598225552110500;0.1800;0.0052;-0.0134;
598225562215448;0.2173;0.0542;-0.0017;
598225572320344;0.1949;0.1096;-0.0103;
598225582392531;0.1406;-0.0182;0.0228;
598225592497479;0.1470;0.0574;0.0430;
598225602602375;0.0831;0.2172;0.0739;
598225612717375;0.0192;0.1011;0.0515;
598225622822323;0.0916;-0.0683;0.0654;
598225632927219;0.0618;-0.1013;0.0803;
598225643016854;-0.0266;-0.1077;0.0632;
598225653121802;-0.0778;-0.1525;0.0537;
598225663226698;-0.1000;-0.1695;0.0313;
598225673341333;-0.0309;-0.0246;-0.0422;
598225683446281;0.0138;0.1256;-0.0411;
598225693551177;-0.0266;0.0808;-0.0049;
598225703651333;0.0256;0.0446;-0.0358;
598225713756281;0.0607;0.0680;0.0068;
598225723861177;0.0256;0.0329;0.0111;
598225733969615;0.0256;0.0052;-0.0369;
598225744074563;0.0362;0.0126;-0.0177;
598225754179458;0.0415;-0.0353;-0.0593;
598225764283104;0.0447;-0.1301;-0.0869;
598225774388052;0.0181;-0.1056;-0.0667;
598225784492948;0.0362;-0.0406;-0.0720;
598225794602479;0.0618;-0.0364;0.0015;
598225804707427;0.0842;0.1000;-0.0241;
598225814812375;0.1001;-0.0332;-0.0369;
598225824919354;0.0064;-0.1237;0.0281;
598225835024302;0.0330;0.0190;0.0100;
598225845129250;0.0565;0.0755;-0.0220;
598225855231854;0.0202;-0.0640;-0.0561;
598225865336802;0.0256;-0.1194;-0.0348;
598225875441698;0.0660;0.0095;0.0036;
598225885543365;0.0905;0.0542;0.0654;
598225895648313;0.0192;-0.1067;0.0505;
598225905753208;0.0639;-0.0406;0.0004;
598225915861021;0.1321;0.4003;0.0089;
598225925966021;-0.0256;0.0947;0.0430;
598225936070865;-0.0256;-0.2526;0.0654;
598225946168313;0.0352;-0.0630;0.0387;
598225956273261;-0.0096;0.0340;0.0260;
598225966378208;-0.0352;-0.1365;0.0814;
598225976479198;-0.0085;-0.2334;0.0579;
598225986584146;0.0245;-0.0790;0.0377;
598225996689042;-0.0011;0.0830;0.0292;
598226006796073;-0.0096;-0.0385;0.0111;
598226016901021;-0.0075;-0.0726;0.0079;
598226027005865;0.0256;0.0787;0.0153;
598226037107011;0.0011;0.0265;0.0302;
598226047211906;0.0352;-0.0811;0.0611;
598226057316854;0.0479;-0.0097;0.0675;
598226067454823;0.0501;0.0233;0.0164;
598226077559771;0.0405;0.0009;0.0462;
598226087664667;-0.0224;-0.0726;0.0025;
598226097734875;-0.0575;-0.1099;-0.0379;
598226107839823;-0.0117;0.0041;-0.0337;
598226117944719;0.0117;0.1160;0.0004;
598226128098104;0.0469;0.0563;0.0451;
598226138203052;0.0554;-0.0108;0.0249;
598226148307948;0.0373;0.0201;-0.0166;
598226158397271;0.0362;-0.0278;-0.0401;
598226168502219;0.1459;-0.3357;-0.0230;
598226178607115;0.0991;-0.7936;-0.0071;
598226188712792;-0.1458;-0.8533;-0.0230;
598226198817740;-0.4249;-0.3314;-0.0869;
598226208922636;-0.6156;0.0947;-0.0699;
598226219029771;-0.1128;0.0595;-0.0603;
598226229134719;0.3867;0.1021;-0.1509;
598226239239615;0.5208;0.3747;-0.1626;
598226249321229;0.4985;0.4588;-0.0869;
598226259426177;0.3281;0.3608;-0.0411;
598226269531073;0.4325;0.7145;0.0079;
598226279645917;0.4389;0.9924;0.0718;
598226289750865;0.0703;0.1767;0.1410;
598226299855761;0.0959;-0.5635;0.1527;
598226309963521;-0.0415;-0.6178;0.0590;
598226320068729;-0.4228;-0.4602;-0.0039;
598226330173886;-0.4249;-0.3824;0.0313;
598226340276854;-0.3365;-0.3792;-0.0039;
598226350382063;-0.2118;-0.1514;-0.0326;
598226360487219;-0.0117;0.2246;-0.0571;
598226370600708;0.1342;0.3662;-0.0742;
598226380705917;0.2162;0.4237;-0.0326;
598226390811073;0.3004;0.6698;-0.0166;
598226400909771;0.2493;0.5814;-0.0252;
598226411014979;0.0565;-0.0097;0.0696;
598226421120136;-0.0011;0.0989;0.0441;
598226431223417;0.1055;0.5909;0.0068;
598226441328625;0.0213;0.4482;-0.0294;
598226451433781;-0.1224;0.0297;0.0100;
598226461540396;-0.1000;-0.1280;0.0558;
598226471645604;-0.0989;0.0222;0.0782;
598226481750761;-0.2193;-0.0097;0.0228;
598226491859042;-0.1117;-0.2824;-0.0028;
598226501964250;0.0799;0.0840;-0.0443;
598226512069406;0.0320;0.3939;-0.0326;
598226522190083;-0.2992;-0.4421;-0.0198;
598226532295292;-0.1682;-0.7478;-0.1157;
598226542400448;0.0341;-0.1439;-0.1573;
598226552486438;0.0064;0.1320;-0.0997;
598226562591646;-0.0192;-0.0502;-0.0635;
598226572696802;-0.0107;-0.1109;-0.0880;
598226582799979;0.1129;0.0585;-0.1381;
598226592905188;0.1118;0.1533;-0.1722;
598226603010344;0.0810;0.0787;-0.1189;
598226613127583;0.0618;-0.0246;-0.0891;
598226623232792;0.1182;0.0105;-0.1051;
598226633337948;0.1534;-0.0246;-0.0816;
598226643436646;0.1427;-0.1322;-0.0305;
598226653541854;0.1459;-0.0598;-0.0678;
598226663647011;0.2088;-0.0065;-0.0497;
598226673742948;0.1587;-0.0960;-0.0316;
598226683848156;0.1864;-0.0300;0.0004;
598226693953365;0.2003;0.0563;0.0292;
598226704052219;0.1651;0.0435;-0.0007;
598226714157375;0.1949;0.0510;0.0281;
598226724262531;0.1843;0.0052;0.0920;
598226734378729;0.1225;-0.0491;0.0601;
598226744483938;0.1587;0.0137;0.0750;
598226754589094;0.1204;-0.0076;0.0750;
598226764683677;0.0756;-0.0736;0.0877;
598226774788833;0.1214;0.0819;0.1367;
598226784893990;0.0288;-0.1162;0.1538;
598226795013208;-0.0298;-0.3686;0.1708;
598226805118417;0.0256;-0.0108;0.1272;
598226815223573;0.0362;0.0233;0.1080;
598226825325083;-0.1117;-0.2100;0.1229;
598226835430292;0.0213;0.0233;0.1506;
598226845535448;0.1374;0.2703;0.1240;
598226855633573;-0.0330;0.1746;0.1527;
598226865738729;-0.2822;-0.0427;0.1474;
598226875843886;-0.2577;-0.1876;0.1591;
598226886013313;-0.0989;0.2268;0.1495;
598226896118521;-0.1799;0.2161;0.1474;
598226906223677;-0.4600;-0.3080;0.1048;
598226916260656;-0.1937;0.1586;0.0835;
598226926365813;-0.1011;0.1597;0.0089;
598226936470969;-0.3098;-0.3240;0.0601;
598226946574667;-0.2108;-0.1652;0.0835;
598226956679823;-0.1224;0.0222;0.0579;
598226966784979;-0.1959;-0.0321;0.0451;
598226976944563;-0.1479;-0.0481;0.0941;
598226987049771;-0.1064;-0.0555;0.0675;
598226997154927;-0.0767;0.0883;0.0526;
598227007236698;-0.1085;0.1117;0.0334;
598227017341854;-0.1298;-0.0204;-0.0007;
598227027447063;-0.0511;0.0840;0.0196;
598227037581229;-0.0543;0.1650;0.0505;
598227047686386;-0.1256;0.0137;0.0856;
598227057791594;-0.0756;-0.0065;0.1016;
598227067831229;-0.0405;0.0095;0.0899;
598227077936438;-0.0895;-0.0470;0.0856;
598227088041594;-0.0884;-0.0364;0.0846;
598227098165813;-0.0607;-0.0662;0.0718;
598227108271021;-0.0989;-0.1099;0.0473;
598227118376177;-0.0639;-0.0150;0.0494;
598227128477948;-0.0533;0.0403;0.0782;
598227138583156;-0.0426;0.0265;0.1048;
598227148688313;0.0075;0.0766;0.0792;
598227158811333;0.0192;0.1085;0.0696;
598227168916542;0.0277;0.1330;0.1133;
598227179021698;0.0682;0.1490;0.0973;
598227189104615;0.0671;0.1373;0.0675;
598227199209771;0.0831;0.0936;0.1229;
598227209314927;-0.0085;-0.1216;0.1527;
598227219423938;-0.1330;-0.3005;0.1421;
598227229529146;-0.1554;-0.2153;0.1357;
598227239634302;-0.2342;-0.0310;0.1250;
598227249742479;-0.1788;0.0308;0.0632;
598227259847688;-0.0639;0.0435;0.0121;
598227269952844;-0.0724;0.1075;-0.0166;
598227280053313;-0.0873;0.1160;-0.0166;
598227290158521;-0.0863;0.0425;-0.0316;
598227300263677;-0.0554;0.0723;-0.0475;
598227310372063;-0.0352;0.1778;-0.0145;
598227320477271;-0.0309;-0.0161;0.0238;
598227330582427;-0.0692;-0.2164;-0.0379;
598227340689615;-0.1053;-0.1706;-0.0379;
598227350794771;-0.1937;-0.1258;-0.0901;
598227360899979;-0.1373;-0.1450;-0.1530;
598227370999042;-0.0639;-0.1333;-0.1838;
598227381104250;-0.0607;-0.0427;-0.1253;
598227391209406;-0.0352;0.0531;-0.0955;
598227401318313;0.0597;0.0819;-0.0784;
598227411423521;0.1491;0.1309;-0.1115;
598227421528677;0.2471;0.2586;-0.1402;
598227431634875;0.2546;0.1927;-0.0912;
598227441740083;0.1513;0.0169;-0.0774;
598227451845240;0.1278;-0.0502;-0.0699;
598227461946281;0.0543;-0.1130;-0.0422;
598227472051490;0.0064;-0.1365;-0.0593;
598227482156646;0.0256;-0.1290;-0.0081;
598227492262479;0.0011;-0.1354;0.0047;
598227502367688;0.0341;-0.0385;-0.0667;
598227512472844;0.0788;0.0989;-0.0518;
598227522584042;0.0969;0.1543;-0.0497;
598227532689250;0.1289;0.1341;-0.0401;
598227542794406;0.1236;0.0819;-0.0358;
598227552899667;0.0565;-0.0150;-0.0039;
598227563004875;0.0256;0.0286;0.0398;
598227573110031;0.0586;0.0595;0.0270;
598227583207479;0.0373;-0.0491;0.0174;
598227593312688;-0.0085;-0.0577;-0.0113;
598227603417844;-0.0117;-0.0182;-0.0262;
598227613534458;-0.0234;-0.0747;-0.0635;
598227623639667;-0.0224;-0.1045;-0.0806;
598227633744823;-0.0107;0.0041;-0.0614;
598227643840188;0.0756;0.1682;-0.0230;
598227653945344;0.1427;0.2543;-0.0166;
598227664050552;0.1172;-0.0896;-0.0220;
598227674161438;0.0820;-0.0438;-0.0539;
598227684266646;0.0746;0.0883;-0.0465;
598227694371750;0.0671;-0.1184;-0.0188;
598227704464511;0.0160;-0.1759;-0.0422;
598227714569667;0.0586;0.0063;-0.0518;
598227724674823;0.0959;0.0403;-0.0593;
598227734778521;0.0980;-0.0364;-0.0049;
598227744883729;0.0628;-0.1067;0.0196;
598227754988886;0.0511;-0.0896;-0.0220;
598227765101438;0.1161;0.1597;-0.0198;
598227775206646;0.1001;0.0105;-0.0262;
598227785311802;0.1300;0.0009;-0.0134;
598227795415917;0.1076;0.0915;0.0387;
598227805521125;0.0522;-0.0566;0.0419;
598227815626281;0.0628;-0.1344;0.0526;
598227825740188;0.0426;-0.0470;0.0877;
598227835845396;0.0352;-0.0662;0.0877;
598227845950552;0.0224;-0.0758;0.0547;
598227856052636;0.0234;-0.0076;0.0462;
598227866157844;0.0415;0.0158;0.0451;
598227876263000;0.0266;0.0648;0.0739;
598227886376229;0.0543;0.0787;0.0739;
598227896481386;0.0628;0.0553;0.0771;
598227906586594;0.0426;0.0542;0.1176;
598227916668521;0.0511;-0.0140;0.1644;
598227926773677;-0.0298;-0.1067;0.1453;
598227936878886;-0.0170;0.0180;0.0984;
598227946985500;-0.0075;0.0169;0.0856;
598227957090656;-0.0458;-0.0875;0.0835;
598227967195865;-0.0650;-0.0736;0.1101;
598227977327688;-0.1043;-0.0129;0.1101;
598227987432896;-0.0660;0.0084;0.1048;
598227997538000;-0.0234;0.0084;0.1208;
598228007616594;-0.0714;-0.0289;0.1218;
598228017721802;-0.0628;0.0222;0.0909;
598228027826958;-0.0458;0.1032;0.0941;
598228037950396;-0.0905;0.0254;0.0643;
598228048055604;-0.0957;0.0041;0.0569;
598228058160761;-0.1064;0.0840;0.0696;
598228068283104;-0.2129;0.0766;0.0664;
598228078388313;-0.0607;0.0670;0.0835;
598228088493469;-0.0682;-0.2973;0.0814;
598228098583000;-0.3407;-0.3718;0.0451;
598228108688156;-0.6955;0.0819;0.0015;
598228118793365;-0.5133;0.2097;-0.0731;
598228128881646;-0.0989;0.0414;-0.1615;
598228138986854;-0.1043;0.0350;-0.1413;
598228149092011;-0.1309;0.1043;-0.1434;
598228159214250;-0.0820;0.1554;-0.1370;
598228169319406;-0.0863;0.0585;-0.1168;
598228179424615;-0.0383;-0.0033;-0.1200;
598228189519771;0.1545;0.5324;-0.1253;
598228199624979;0.0724;0.2714;-0.0614;
598228209730136;-0.1117;-0.4410;-0.0593;
598228219833104;0.0309;-0.3133;-0.1317;
598228229938313;-0.0309;-0.0577;-0.1466;
598228240043469;-0.1064;-0.1770;-0.0997;
598228250141958;-0.0565;-0.2505;-0.0571;
598228260247167;0.0075;-0.1589;-0.0624;
598228270352323;0.0149;0.0212;-0.0923;
598228280483938;0.0405;0.0723;-0.0763;
598228290589094;0.0437;0.0329;-0.0859;
598228300694302;0.1438;0.1852;-0.0933;
598228310780708;0.1960;0.2172;-0.0635;
598228320885865;0.0916;0.0489;0.0004;
598228330991021;0.1342;0.0915;0.0430;
598228341093104;0.1640;0.0830;0.1005;
598228351198261;0.0788;-0.1088;0.0920;
598228361303417;0.0501;-0.0150;0.0771;
598228371417896;-0.0085;0.0446;0.1197;
598228381523052;-0.0522;-0.1471;0.0846;
598228391628208;-0.0266;-0.0694;0.0356;
598228401724198;-0.0447;0.0425;0.0409;
598228411829354;-0.0692;-0.0097;0.0473;
598228421934563;0.0000;0.0126;0.0696;
598228432039979;0.0202;0.0190;0.1240;
598228442145188;-0.0405;0.0361;0.0675;
598228452250292;-0.0032;0.1064;0.0664;
598228462354563;-0.0224;0.0350;0.0686;
598228472459719;-0.0224;-0.0182;0.0430;
598228482564875;-0.0405;0.0073;0.0292;
598228492677063;-0.0746;-0.0406;0.0228;
598228502782219;-0.0831;-0.1461;0.0377;
598228512887375;-0.1128;-0.1109;0.0483;
598228522998729;-0.1511;-0.0438;0.0068;
598228533103886;-0.1852;-0.0108;-0.0316;
598228543209042;-0.0979;0.0393;-0.0635;
598228553315865;-0.0511;-0.0459;-0.0774;
598228563421021;-0.0873;-0.1237;-0.0710;
598228573526177;-0.0788;-0.0332;-0.0646;
598228583623729;-0.0543;0.0180;-0.0656;
598228593728886;-0.0277;-0.0342;-0.0635;
598228603834042;0.0160;-0.0364;-0.0337;
598228613943104;-0.0160;0.0190;-0.0582;
598228624048261;-0.0032;0.0872;-0.0635;
598228634153417;-0.0117;0.0755;-0.0667;
598228644258938;0.0170;0.0148;-0.0710;
598228654364094;0.0543;0.1597;-0.0838;
598228664469250;0.1044;0.3065;-0.0475;
598228674569042;0.0266;0.0968;-0.0039;
598228684674198;0.0149;-0.0214;0.0728;
598228694779354;0.0692;0.1799;0.0856;
598228704872375;0.0352;0.2417;0.0377;
598228714977479;0.0032;0.1277;0.0643;
598228725082636;-0.0724;-0.0214;0.0622;
598228735193625;-0.0437;-0.0609;0.0675;
598228745298781;-0.0799;-0.0140;0.0675;
598228755403938;-0.1479;-0.0502;0.0664;
598228765513313;-0.1192;-0.1439;0.0995;
598228775618469;-0.0957;0.0233;0.1186;
598228785723625;-0.1969;0.0180;0.0739;
598228795815344;-0.2182;-0.2100;0.0451;
598228805920448;-0.1756;-0.1088;-0.0092;
598228816025604;-0.2257;-0.0246;-0.0603;
598228826147063;-0.2161;-0.0044;-0.0752;
598228836252271;-0.1511;0.0137;-0.0614;
598228846357427;-0.0714;0.1011;-0.0784;
598228856451229;0.0298;-0.0459;-0.0113;
598228866556386;-0.0373;-0.1844;-0.0166;
598228876661542;-0.0947;-0.0257;-0.1093;
598228886773313;-0.1639;0.0190;-0.1008;
598228896878469;-0.1863;-0.0076;-0.1040;
598228906983625;-0.0884;0.0009;-0.1530;
598228917095500;-0.0490;0.0084;-0.1987;
598228927200656;0.0660;0.0393;-0.1955;
598228937305865;0.0810;0.0734;-0.1786;
598228947392323;0.1065;0.0276;-0.1264;
598228957497427;0.1523;0.2204;-0.1221;
598228967602583;0.1854;0.3598;-0.1029;
598228977704875;0.1214;0.0755;-0.0710;
598228987810031;0.2567;0.1660;-0.0720;
598228997915240;0.2056;0.0286;-0.0539;
598229008100083;0.1001;-0.1013;-0.0497;
598229018205292;0.1310;-0.0513;-0.0241;
598229028310396;0.0522;-0.2387;0.0505;
598229038338365;0.0021;-0.2483;0.0441;
598229048443469;-0.0234;-0.0353;0.0196;
598229058548625;-0.0714;0.0233;-0.0049;
598229068674146;0.0277;0.0084;0.0174;
598229078779354;-0.0064;0.0105;0.0174;
598229088884458;-0.0181;-0.0726;0.0292;
598229098976958;0.0043;-0.0300;0.0334;
598229109082167;0.0021;0.0265;0.0281;
598229119187323;0.0298;0.0116;0.0419;
598229129301854;0.0394;0.1053;0.0569;
598229139407011;0.0341;0.1447;0.0462;
598229149512167;0.0032;-0.0481;0.0537;
598229159642375;-0.0298;-0.0491;0.0185;
598229169747531;-0.0554;0.0521;0.0068;
598229179852688;-0.1011;-0.0310;0.0025;
598229189922896;-0.0533;-0.0364;-0.0071;
598229200028052;0.0075;0.0414;0.0409;
598229210133208;-0.0160;-0.0150;0.0398;
598229220254042;-0.0138;-0.0353;0.0249;
598229230359198;-0.0032;0.0350;0.0174;
598229240464354;-0.0160;0.0574;0.0153;
598229250563729;-0.0277;0.0893;-0.0134;
598229260668938;-0.0533;0.0276;0.0164;
598229270774094;-0.0639;-0.0949;0.0164;
598229280857844;-0.0373;-0.0055;0.0079;
598229290962948;-0.0628;0.0627;0.0324;
598229301068104;-0.0714;-0.0534;0.0505;
598229311201958;-0.0820;-0.0055;-0.0007;
598229321307167;-0.0362;0.1149;0.0015;
598229331412323;-0.0565;0.0467;0.0089;
598229341499979;-0.0660;-0.0811;0.0164;
598229351605188;-0.1075;-0.1184;0.0164;
598229361710396;-0.1767;-0.0246;0.0047;
598229371806594;-0.2363;0.0723;-0.0049;
598229381911750;-0.1735;-0.0076;0.0132;
598229392016906;-0.1373;-0.0726;-0.0198;
598229402125917;-0.1895;0.0372;-0.0731;
598229412231073;-0.2374;0.0457;-0.0646;
598229422336229;-0.2214;-0.0374;-0.1146;
598229432445031;-0.1778;0.0095;-0.1338;
598229442550240;-0.2470;0.0574;-0.1455;
598229452655396;-0.2118;0.0084;-0.1434;
598229462762688;-0.1330;-0.0747;-0.1061;
598229472867896;-0.1107;-0.1365;-0.0933;
598229482973052;-0.1650;-0.1407;-0.1360;
598229493076646;-0.2204;-0.0545;-0.1445;
598229503181854;-0.1362;0.1810;-0.2072;
598229513287011;0.0660;0.2586;-0.2541;
598229523411386;0.2322;-0.0225;-0.1923;
598229533516594;0.2067;-0.5624;-0.1519;
598229543621750;-0.1043;-0.3197;-0.1711;
598229553710604;-0.5197;0.3385;-0.0763;
598229563815813;-0.2033;0.3310;-0.1466;
598229573920969;0.3196;0.0467;-0.2232;
598229584046125;0.3217;0.0851;-0.2253;
598229594151333;0.2024;0.0734;-0.1775;
598229604256490;0.0831;-0.2494;-0.1786;
598229614352792;0.1843;-0.2355;-0.1965;
598229624458000;0.1832;0.1767;-0.1838;
598229634563156;0.1715;0.6708;-0.1221;
598229644658521;0.2184;0.1639;0.0174;
598229654763729;0.3164;-0.5901;0.0313;
598229664868886;0.4399;-0.2025;-0.0923;
598229674971958;0.1108;0.1543;-0.0646;
598229685077167;-0.0915;-0.1141;-0.0198;
598229695182375;0.1023;-0.2622;-0.0060;
598229705284875;0.0895;-0.0427;-0.0241;
598229715390083;0.0607;0.0680;-0.0348;
598229725495240;0.1001;-0.0566;0.0079;
598229735595865;0.1278;-0.1599;0.0547;
598229745701021;0.0778;-0.0385;0.0228;
598229755806177;0.0107;0.1075;-0.0262;
598229765985969;0.0213;0.0499;0.0025;
598229776091125;0.1044;-0.0033;-0.0294;
598229786196281;0.0937;0.0190;-0.0305;
598229796226802;0.0213;-0.0065;-0.0379;
598229806331958;0.0426;-0.0012;-0.0262;
598229816437115;0.0490;0.0105;0.0015;
598229826537792;0.0916;-0.0076;0.0068;
598229836643000;0.0778;-0.0033;-0.0028;
598229846748156;0.0863;0.0521;0.0004;
598229856872531;0.0873;-0.0076;0.0036;
598229866977792;0.0778;-0.0555;-0.0166;
598229877082896;0.0533;-0.0470;-0.0284;
598229887207583;0.0128;-0.0896;-0.0198;
598229897312792;0.0245;-0.1471;0.0121;
598229907417948;-0.0011;-0.1045;0.0622;
598229917493833;-0.0043;-0.0055;0.0249;
598229927599042;0.0565;0.0414;-0.0284;
598229937704198;0.0735;0.0382;-0.0060;
598229947783000;0.0479;-0.0598;0.0249;
598229957888208;0.0618;-0.0630;0.0419;
598229967993365;-0.0011;0.0063;0.0281;
598229978131958;0.0149;0.0265;0.0238;
598229988237167;0.0096;0.0318;0.0451;
598229998342323;0.0469;0.0361;0.0451;
598230008428833;0.0479;-0.0246;0.0462;
598230018533990;0.0096;-0.1003;0.0079;
598230028639146;0.0053;-0.1056;0.0515;
598230038748208;-0.0437;-0.0758;-0.0049;
598230048853417;-0.0362;-0.0268;0.0047;
598230058958573;-0.0831;0.0020;0.0324;
598230069081750;-0.0202;0.0830;0.0142;
598230079186958;0.0415;0.1682;0.0121;
598230089292115;0.0778;0.2001;0.0483;
598230099395708;0.1353;0.2575;0.0111;
598230109500917;0.1758;0.3353;-0.0177;
598230119606073;0.2056;0.3715;0.0494;
598230129702792;0.1172;0.3640;0.0899;
598230139808000;0.1033;0.3672;0.0664;
598230149913156;0.1129;0.2788;0.1037;
598230160016333;0.0224;0.0691;0.1485;
598230170121542;0.0021;-0.1173;0.1634;
598230180226698;0.0085;-0.2643;0.1559;
598230190342115;-0.0746;-0.3867;0.1431;
598230200447323;-0.2310;-0.3686;0.1272;
598230210552479;-0.3450;-0.2888;0.0611;
598230220628990;-0.4324;-0.1844;-0.0209;
598230230734146;-0.5272;-0.0662;-0.0411;
598230240839302;-0.4206;0.0723;-0.0976;
598230250971750;-0.1234;0.1149;-0.1285;
598230261076958;-0.0256;0.1501;-0.1264;
598230271182115;0.0341;0.1639;-0.1093;
598230281289771;0.0660;0.2150;-0.1253;
598230291394979;0.0991;0.2735;-0.1189;
598230301500136;0.0746;0.1980;-0.1285;
598230311577219;0.0586;0.1341;-0.1402;
598230321682271;0.0192;0.1138;-0.1466;
598230331787375;0.0053;-0.0012;-0.1413;
598230341925396;0.0309;-0.1471;-0.1189;
598230352030500;0.1033;-0.3336;-0.0731;
598230362135656;0.0224;-0.5198;-0.0497;
598230372227792;-0.1181;-0.2153;-0.1615;
598230382332896;-0.0543;0.1820;-0.1477;
598230392438052;0.1076;0.1224;-0.1466;
598230402543521;0.2333;0.0467;-0.1711;
598230412648625;0.3696;0.0595;-0.1093;
598230422753781;0.3920;-0.0182;-0.0731;
598230432865031;0.3142;-0.0012;-0.0252;
598230442970136;0.2365;0.0372;0.0356;
598230453075240;0.2823;0.1959;0.0718;
598230463174563;0.3888;0.4450;0.0899;
598230473279667;0.2812;0.0819;0.1900;
598230483384771;0.1694;-0.3091;0.1879;
598230493491333;0.2599;-0.2047;0.1453;
598230503596438;0.1204;-0.0736;0.1602;
598230513701542;-0.0213;-0.0470;0.2007;
598230523797219;-0.0863;0.0393;0.2401;
598230533902271;-0.0522;0.0340;0.2550;
598230544007375;-0.0043;0.0212;0.1858;
598230554117688;0.0607;0.0414;0.2017;
598230564222844;-0.0011;0.0244;0.2198;
598230574327896;-0.0213;0.0340;0.1858;
598230584457271;-0.0458;-0.0023;0.1730;
598230594562375;-0.1117;-0.0076;0.1879;
598230604667479;-0.0746;0.0308;0.2092;
598230614730969;-0.1192;0.0265;0.2188;
598230624836073;-0.1053;-0.0779;0.2007;
598230634941177;-0.1320;-0.1099;0.1091;
598230645077115;-0.1937;0.0116;0.0643;
598230655182219;-0.2268;-0.0065;0.0707;
598230665287323;-0.1959;-0.0161;0.0537;
598230675389771;-0.1373;0.0041;0.0377;
598230685494875;-0.0799;-0.0140;0.0494;
598230695600031;-0.0405;0.0116;0.0004;
598230705687792;-0.0213;-0.0012;0.0142;
598230715792896;-0.0501;-0.1354;0.0558;
598230725898052;-0.0320;-0.0843;0.0132;
598230736005708;-0.0288;0.0340;-0.0209;
598230746110865;-0.0618;-0.0992;-0.0294;
598230756215969;-0.0575;-0.1013;-0.0571;
598230766314875;-0.0352;0.0244;-0.0337;
598230776419979;-0.0309;-0.0108;-0.0369;
598230786525083;-0.0043;-0.0342;-0.0465;
598230796626281;0.0096;-0.0012;-0.0262;
598230806731386;-0.0096;-0.0332;-0.0103;
598230816836490;-0.0437;-0.0246;-0.0166;
598230826940917;-0.0075;0.0915;0.0004;
598230837046073;-0.0234;0.0020;-0.0294;
598230847151177;-0.0469;-0.0896;-0.0337;
598230857253313;-0.1043;-0.0854;0.0057;
598230867358365;-0.1224;-0.0321;-0.0028;
598230877463469;-0.0810;-0.0214;0.0089;
598230887577583;-0.0767;-0.0577;-0.0071;
598230897682688;-0.0692;0.0169;0.0217;
598230907787792;-0.0533;0.1170;0.0015;
598230917892688;-0.0426;0.1266;-0.0134;
598230927997844;-0.1000;-0.0577;-0.0198;
598230938102896;-0.0437;0.0553;-0.0071;
598230948214354;0.0256;0.3012;0.0025;
598230958319458;-0.0842;0.0446;0.0004;
598230968424563;-0.1149;-0.1706;-0.0113;
598230978529563;0.0021;-0.1983;0.0611;
598230988634667;0.0426;0.0073;0.0441;
598230998739771;-0.0968;-0.0875;-0.0188;
598231008852063;-0.1245;-0.1983;-0.0273;
598231018957219;-0.0330;-0.1237;-0.0294;
598231029062323;0.0053;0.1160;-0.0497;
598231039168365;-0.0341;0.1245;-0.0060;
598231049273521;-0.0831;-0.0033;-0.0060;
598231059378625;0.0202;0.1213;-0.0209;
598231069491958;0.0533;0.1075;0.0249;
598231079597115;0.1182;0.2735;0.0601;
598231089702219;-0.0064;0.0329;0.0473;
598231099791438;-0.1032;-0.1993;0.0238;
598231109896542;-0.0160;-0.0928;-0.0198;
598231120001698;-0.0032;0.0925;-0.0273;
598231130109458;-0.1064;-0.0417;-0.0369;
598231140214615;-0.2012;-0.2292;-0.0316;
598231150319667;-0.0724;0.0521;-0.0316;
598231160429563;0.0447;0.1394;-0.0071;
598231170534667;-0.0650;0.0020;-0.0081;
598231180639771;-0.0352;-0.0076;-0.0390;
598231190742115;-0.0064;0.0489;-0.0273;
598231200847219;-0.0021;-0.0023;-0.0646;
598231210952323;-0.0032;-0.0470;-0.0358;
598231221056958;0.0085;0.0531;-0.0113;
598231231162063;-0.0107;-0.0300;-0.0454;
598231241267167;0.0138;-0.0097;-0.0433;
598231251373417;0.0202;0.0382;-0.0284;
598231261478521;0.0117;0.0137;-0.0433;
598231271583625;0.0000;0.0276;-0.0358;
598231281684875;-0.0341;-0.0193;-0.0901;
598231291789979;0.0469;0.0233;-0.0997;
598231301895136;0.0554;0.0957;-0.0848;
598231311985031;0.0234;0.0105;-0.0443;
598231322090083;0.0703;0.0648;-0.0475;
598231332195240;0.1640;0.1511;-0.0177;
598231342317375;0.1310;-0.1663;0.0121;
598231352422531;0.1087;-0.3877;0.0260;
598231362527636;0.0160;-0.1184;-0.0284;
598231372632167;0.0138;0.0318;-0.0241;
598231382737323;-0.0053;-0.0023;-0.0507;
598231392842427;0.0298;-0.0033;-0.0603;
598231402950188;0.0597;0.0467;-0.0358;
598231413055344;0.0703;0.0265;-0.0081;
598231423160448;0.0810;-0.0640;0.0121;
598231433276750;0.0735;-0.2025;0.0547;
598231443381906;0.1278;0.1810;0.0345;
598231453487011;0.1534;0.3832;0.0345;
598231463576854;0.0213;-0.0577;0.0899;
598231473682011;-0.0181;-0.1770;0.0473;
598231483787115;0.0682;-0.0555;-0.0017;
598231493897271;0.0128;-0.1620;-0.0113;
598231504002427;-0.0011;-0.1578;0.0153;
598231514107531;-0.0628;-0.0683;0.0547;
598231524200500;-0.0511;0.0382;0.0505;
598231534305604;0.0394;0.0734;0.0292;
598231544410708;0.0511;0.0744;-0.0134;
598231554528208;0.0565;0.0435;0.0047;
598231564633313;0.0842;0.0457;0.0089;
598231574738417;0.0490;-0.0609;0.0132;
598231584843729;0.0682;-0.0129;0.0036;
598231594948886;0.1087;0.1266;0.0302;
598231605053990;0.0618;0.0041;0.0899;
598231615158625;0.0756;-0.0268;0.1016;
598231625263781;0.0479;0.0531;0.0494;
598231635368886;0.0160;0.0627;0.0238;
598231645467896;-0.0309;-0.1088;0.0142;
598231655573052;-0.0905;-0.3782;0.0654;
598231665678156;-0.1895;-0.2398;0.0089;
598231675796021;-0.1852;-0.0800;0.0132;
598231685901177;-0.1873;0.0595;0.1059;
598231696006281;-0.1224;0.1426;0.1165;
598231706093052;0.0128;-0.0704;0.1027;
598231716198156;-0.1277;-0.2366;0.0249;
598231726303261;-0.0288;0.2778;0.0441;
598231736402011;0.1981;0.8008;0.0249;
598231746507115;0.1087;0.5856;-0.0262;
598231756612219;-0.0362;0.4557;0.0526;
598231766731750;-0.0968;0.4599;0.0782;
598231776836854;-0.0266;0.1469;0.1698;
598231786941958;-0.1437;-0.1439;0.1527;
598231797029198;-0.0692;-0.4304;0.1261;
598231807134302;-0.0138;-0.1834;0.0483;
598231817239406;0.0543;0.2236;0.0803;
598231827412688;-0.2896;-0.7861;0.1591;
598231837517792;-0.5080;-1.2824;0.0579;
598231847622948;-0.1628;-0.0470;-0.1221;
598231857666125;-0.0032;0.4610;-0.0933;
598231867771281;-0.1756;0.0446;-0.0550;
598231877876333;-0.1437;0.0105;0.0366;
598231887985500;0.0810;0.3438;0.0292;
598231898090656;0.2961;0.4674;0.0132;
598231908195761;0.2876;0.1373;0.0121;
598231918338625;0.2237;-0.1450;0.0824;
598231928443781;0.4101;0.7166;0.0366;
598231938548886;0.4325;0.6144;0.1122;
598231948617167;-0.0852;-0.8575;0.2039;
598231958722323;0.0309;-0.5102;0.1474;
598231968827427;0.1278;0.2118;0.1069;
598231978931906;-0.1703;-0.2196;0.1474;
598231989037011;-0.4814;-0.4165;0.1133;
598231999142115;-0.3812;-0.0726;0.0451;
598232009275917;-0.3077;0.1362;0.0153;
598232019381073;-0.3514;0.1021;0.0004;
598232029486177;-0.3344;-0.0587;-0.0326;
598232039559823;-0.1160;0.0553;-0.0316;
598232049664927;-0.0149;0.1895;-0.0507;
598232059770031;-0.0842;-0.0364;-0.0156;
598232069900396;-0.0735;-0.0992;-0.0209;
598232080005552;-0.0192;0.1415;-0.1093;
598232090110656;-0.0820;0.0798;-0.0933;
598232100199875;-0.1213;-0.0182;-0.0667;
598232110305031;-0.0650;0.1948;-0.1051;
598232120410136;-0.1085;0.0457;-0.1178;
598232130527115;-0.1266;-0.1738;-0.1178;
598232140632271;-0.0256;-0.0364;-0.1072;
598232150737375;-0.0746;-0.0364;-0.0710;
598232160842271;-0.1064;-0.1620;-0.0635;
598232170947427;-0.0746;-0.0395;-0.0891;
598232181052531;-0.0256;0.0734;-0.0880;
598232191148313;-0.0724;-0.0097;-0.0816;
598232201253469;-0.1320;-0.0587;-0.1242;
598232211358573;-0.1320;-0.0864;-0.1391;
598232221463208;-0.0905;-0.0885;-0.1168;
598232231568365;-0.0405;0.0201;-0.1019;
598232241673469;-0.0383;-0.0491;-0.0710;
598232251784354;-0.0479;-0.0246;-0.0422;
598232261889511;-0.0032;0.2161;-0.0561;
598232271994615;-0.0160;0.2001;-0.0838;
598232282091646;-0.0575;-0.0470;-0.0774;
598232292196802;0.0202;-0.0534;-0.0901;
598232302301906;0.0639;-0.1013;-0.0667;
598232312426958;-0.0714;-0.2377;-0.0518;
598232322532167;-0.0788;-0.1301;-0.0571;
598232332637323;-0.0107;0.0329;-0.0507;
598232342733104;-0.0192;0.1618;-0.0294;
598232352838313;-0.0181;0.2118;-0.0774;
598232362943469;-0.0288;-0.0395;-0.0859;
598232373047896;-0.0469;-0.2398;-0.0806;
598232383153104;-0.0011;-0.0119;-0.1530;
598232393258261;-0.0650;0.0446;-0.1157;
598232403347375;-0.1085;-0.0736;-0.0912;
598232413452583;-0.1021;0.0073;-0.1221;
598232423557740;-0.0618;0.0595;-0.1104;
598232433668625;-0.0501;0.0403;-0.0795;
598232443773833;-0.0320;0.0286;-0.1146;
598232453878990;0.0234;-0.0161;-0.1848;
598232463982688;0.0160;-0.0108;-0.1541;
598232474087896;0.0053;0.1415;-0.1944;
598232484193052;0.0096;0.1000;-0.1818;
598232494288573;0.0234;-0.0342;-0.1583;
598232504393729;0.1193;0.1053;-0.1838;
598232514498886;0.0810;0.0904;-0.1764;
598232524626646;0.1374;-0.0001;-0.1168;
598232534731854;0.1566;-0.1109;-0.1370;
598232544837063;0.0991;-0.2057;-0.1711;
598232554930396;0.0362;-0.0683;-0.2051;
598232565035604;0.0501;0.0105;-0.1933;
598232575140761;0.0511;-0.0470;-0.1976;
598232585248208;0.1204;-0.0300;-0.1869;
598232595353417;0.1118;-0.0609;-0.2200;
598232605458625;0.1385;-0.1024;-0.1615;
598232615564146;0.1363;0.0265;-0.1083;
598232625669354;0.1449;0.1458;-0.0987;
598232635774511;0.1513;0.1011;-0.1157;
598232645887479;0.2589;0.1565;-0.1104;
598232655992688;0.2482;0.1256;-0.1178;
598232666097844;0.2471;0.0020;-0.0912;
598232676183365;0.1790;-0.0406;-0.0614;
598232686288521;0.1289;-0.0534;-0.0092;
598232696393729;0.1161;-0.0395;-0.0326;
598232706494615;0.2067;-0.0395;0.0302;
598232716599771;0.1545;-0.2441;0.0324;
598232726704927;0.0948;-0.4719;0.0100;
598232736823208;0.0213;-0.3591;-0.0198;
598232746928417;-0.1597;0.0648;-0.0284;
598232757033573;-0.4387;0.1991;-0.1104;
598232767135083;-0.1021;-0.0076;-0.1360;
598232777240292;0.2876;-0.1855;-0.0955;
598232787345500;0.4048;-0.2867;-0.0912;
598232797460813;0.0980;0.1149;-0.0177;
598232807566021;-0.0650;0.3779;-0.0156;
598232817671177;0.1896;0.3001;-0.0603;
598232827772583;0.4016;0.4109;-0.0561;
598232837877792;0.3132;0.2980;-0.0539;
598232847982948;0.1417;-0.3718;0.0089;
598232858089563;0.0543;-0.7180;-0.0145;
598232868194771;-0.0192;-0.2494;-0.1264;
598232878299979;-0.3120;0.2937;-0.1636;
598232888395813;-0.5112;0.3118;-0.0475;
598232898501021;-0.0128;0.0222;-0.0433;
598232908606229;0.2354;-0.0758;-0.1562;
598232918733000;0.3483;0.2767;-0.1594;
598232928838208;0.3249;0.2991;-0.1093;
598232938943365;0.2972;0.0947;-0.0550;
598232949056021;0.2865;0.2714;-0.0337;
598232959161229;0.2088;0.3960;-0.0028;
598232969266386;0.1470;0.0372;0.0505;
598232979351333;0.1917;-0.2782;0.0686;
598232989456542;0.2546;-0.3378;0.0483;
598232999561750;0.1140;-0.2771;-0.0071;
598233009642583;0.0234;-0.2451;0.0238;
598233019747740;-0.1021;-0.3197;0.0196;
598233029852948;-0.0756;-0.1631;-0.0411;
598233039994354;-0.0128;0.1405;-0.0603;
598233050099563;-0.0149;0.2076;-0.0348;
598233060204771;0.1300;0.2447;-0.0209;
598233070285708;0.2471;0.3001;0.0324;
598233080390917;0.2919;0.2884;0.0611;
598233090496073;0.2802;0.2937;0.0324;
598233100601958;0.1971;0.3300;0.0515;
598233110707167;0.1118;0.1810;0.0409;
598233120812323;0.0980;0.0893;0.0185;
598233130932792;0.0511;0.0638;0.0217;
598233141038000;-0.0373;-0.0768;0.0377;
598233151143156;-0.0618;-0.1620;0.0047;
598233161239563;-0.0618;-0.1738;0.0015;
598233171344771;-0.1149;-0.1642;0.0409;
598233181449927;-0.1181;-0.0790;-0.0454;
598233191554198;0.0383;0.0361;-0.0848;
598233201659406;0.1268;0.0414;-0.0539;
598233211764563;0.1768;0.0073;-0.0688;
598233221864042;0.3047;0.0712;-0.0667;
598233231969250;0.3292;0.0254;-0.0156;
598233242074406;0.3632;-0.0332;0.0292;
598233252192375;0.3686;-0.1152;0.0771;
598233262297583;0.3057;-0.0566;0.0952;
598233272402740;0.2344;-0.1546;0.0909;
598233282498208;0.1257;-0.2515;0.0856;
598233292603417;0.0746;-0.0885;0.0782;
598233302708625;0.0192;-0.0012;0.0696;
598233312829563;-0.0639;-0.0268;0.0632;
598233322934719;0.0330;-0.0715;0.0377;
598233333039927;0.0959;0.0084;0.0441;
598233343118417;0.0575;0.2150;0.0888;
598233353223573;0.1363;0.2842;0.1144;
598233363328729;0.2407;0.2353;0.1069;
598233373451125;0.3036;0.2692;0.0707;
598233383556333;0.3750;0.3630;0.1016;
598233393661490;0.2045;0.0702;0.1399;
598233403757896;0.1182;-0.1652;0.1687;
598233413863104;0.1172;-0.1024;0.1623;
598233423968261;0.0383;-0.0960;0.1410;
598233434084354;-0.0554;-0.1120;0.1783;
598233444189563;-0.1298;-0.2505;0.2145;
598233454294719;-0.0628;-0.2824;0.1858;
598233464398625;0.0043;-0.0928;0.1112;
598233474503833;-0.0554;-0.0598;0.1069;
598233484608990;-0.0170;-0.0758;0.1144;
598233494705708;0.0383;0.0617;0.1165;
598233504810917;0.0266;0.0862;0.0814;
598233514916073;0.0703;0.0393;0.1325;
598233525018938;0.0501;0.0276;0.1517;
598233535124146;0.0479;-0.0055;0.1708;
598233545229302;0.0043;-0.0364;0.1591;
598233555339875;-0.0170;0.0212;0.1080;
598233565445083;-0.1064;-0.0140;0.1091;
598233575550240;-0.1703;-0.0534;0.0739;
598233585658729;-0.2023;0.0031;0.0142;
598233595763938;-0.2353;0.0297;-0.0007;
598233605869094;-0.2779;-0.0097;0.0015;
598233615968208;-0.1884;0.0329;-0.0518;
598233626073417;-0.1352;0.0862;-0.0188;
598233636178573;-0.1160;0.0286;-0.0220;
598233646259354;-0.0884;-0.1109;-0.0933;
598233656364511;-0.0660;-0.0502;-0.1178;
598233666469667;-0.1192;0.0915;-0.1285;
598233676593521;-0.0895;0.0489;-0.1573;
598233686698677;-0.0628;-0.0204;-0.1605;
598233696803833;0.0064;0.0457;-0.1722;
598233706969563;0.0533;0.0798;-0.1338;
598233717074719;0.0330;0.0158;-0.0827;
598233727179927;0.0746;-0.0268;-0.0635;
598233737221698;0.1268;0.0041;-0.0593;
598233747326854;0.0948;0.0478;-0.0667;
598233757432011;0.1363;0.0872;-0.0529;
598233767539146;0.1885;0.0702;-0.0475;
598233777644354;0.1577;0.0233;-0.0443;
598233787749511;0.1555;-0.0065;-0.0369;
598233797854146;0.1917;-0.0406;0.0100;
598233807959354;0.1832;-0.0609;0.0686;
598233818064511;0.1683;-0.0491;0.1005;
598233828263104;0.1662;-0.0864;0.0877;
598233838368313;0.1470;-0.0875;0.1272;
598233848473469;0.0884;-0.0800;0.1485;
598233858488938;0.0895;-0.1045;0.1314;
598233868594146;0.0884;-0.1173;0.1740;
598233878699302;0.0479;-0.3634;0.1740;
598233888811281;0.1087;-0.4112;0.1943;
598233898916490;0.0873;-0.0119;0.1794;
598233909021646;-0.3397;0.2118;0.2028;
598233919139667;-0.3216;0.0925;0.2337;
598233929244823;0.0746;0.0648;0.1687;
598233939350031;0.0447;0.2799;0.1559;
598233949434615;0.0128;0.3470;0.1740;
598233959539823;-0.0383;0.1330;0.1037;
598233969644979;-0.0096;0.0361;0.1346;
598233979757115;-0.0660;0.1202;0.1240;
598233989862323;-0.0873;0.4823;0.1122;
598233999967479;-0.1383;0.2724;0.1687;
598234010068938;-0.1149;-0.2430;0.1847;
598234020174146;-0.0703;-0.2174;0.1112;
598234030279302;-0.0925;-0.0055;0.0611;
598234040397583;-0.2225;-0.0981;0.0728;
598234050502740;-0.3216;-0.2995;0.0164;
598234060607948;-0.1341;-0.3133;-0.0305;
598234070689563;-0.0905;-0.0161;-0.0145;
598234080794771;-0.1373;0.2458;0.0111;
598234090899927;-0.0565;0.0382;0.0206;
598234101035917;-0.0202;-0.2398;-0.0028;
598234111141073;-0.1415;-0.0896;-0.1157;
598234121246281;-0.0767;0.3385;-0.1200;
598234131343521;0.0213;0.3768;-0.0869;
598234141448729;0.1246;0.0680;-0.1051;
598234151553886;0.1790;-0.1354;-0.1125;
598234161621021;0.2067;0.0776;-0.0891;
598234171726229;0.0714;0.2820;-0.0582;
598234181831386;0.0096;-0.0609;-0.0166;
598234191954458;0.0628;-0.1024;-0.0241;
598234202059667;0.1747;0.1980;-0.0827;
598234212164823;0.1161;0.2406;-0.1221;
598234222270083;0.0692;-0.1439;-0.0060;
598234232375292;-0.0820;-0.7307;-0.0731;
598234242480448;0.0501;-0.2675;-0.1690;
598234252598521;0.0980;0.3108;-0.1700;
598234262703729;0.0107;-0.0182;-0.1455;
598234272808886;0.0671;-0.2228;-0.0774;
598234282912271;0.1939;0.0638;-0.0465;
598234293017479;0.2642;0.1202;-0.0433;
598234303122636;0.2365;-0.0161;-0.0848;
598234313240917;0.2567;0.0531;-0.0710;
598234323346073;0.3430;0.1650;-0.0454;
598234333451281;0.2940;0.0840;-0.0188;
598234343540708;0.1534;-0.0704;-0.0273;
598234353645917;0.2109;0.0297;0.0047;
598234363751073;0.1917;0.0574;0.0089;
598234373852271;0.2120;0.0137;0.0547;
598234383957479;0.2301;0.0989;0.1133;
598234394062636;0.1896;0.1043;0.0931;
598234404170813;0.1566;-0.0055;0.0888;
598234414276021;0.1545;-0.0928;0.0782;
598234424381177;0.1726;-0.0577;0.0537;
598234434492948;0.1459;-0.0875;0.0654;
598234444598156;0.1268;-0.1226;0.0846;
598234454703313;0.1289;-0.1290;0.1261;
598234464806229;0.1427;-0.1429;0.1527;
598234474911438;0.1747;-0.0555;0.1612;
598234485016594;0.1832;0.0212;0.1591;
598234495113781;0.1108;0.0233;0.1655;
598234505218938;0.0714;-0.0523;0.2017;
598234515324094;0.0437;-0.0779;0.1655;
598234525411177;0.0202;0.0446;0.1634;
598234535516333;-0.0160;0.1170;0.1826;
598234545621490;-0.1213;0.1117;0.1431;
598234555740396;-0.1437;-0.0609;0.1879;
598234565845604;-0.1948;-0.0609;0.2294;
598234575950761;-0.2321;0.0329;0.2230;
598234586056646;-0.2800;-0.0534;0.1304;
598234596161854;-0.2694;-0.0907;0.1357;
598234606267011;-0.2587;-0.0491;0.1410;
598234616370292;-0.2907;0.0372;0.0846;
598234626475500;-0.2811;0.0872;0.0483;
598234636580656;-0.2055;0.1011;0.0324;
598234646690761;-0.2012;0.0915;0.0047;
598234656795917;-0.1405;0.1064;0.0111;
598234666901073;-0.0352;0.2788;0.0654;
598234677002636;-0.1224;0.0425;0.0345;
598234687107844;-0.1415;-0.0843;-0.0198;
598234697213000;-0.0181;0.1021;-0.0252;
598234707342479;-0.0405;0.0286;-0.0241;
598234717447688;-0.1096;-0.1642;0.0111;
598234727552844;-0.0852;-0.1514;-0.0252;
598234737618000;0.0330;0.0095;-0.0348;
598234747723208;-0.0149;0.0372;-0.0028;
598234757828365;-0.0522;-0.0683;-0.0081;
598234767968625;-0.0117;-0.0779;-0.0401;
598234778073833;0.0405;0.1138;-0.0369;
598234788178990;0.0107;0.1096;-0.0134;
598234798246594;-0.0618;-0.1258;-0.0188;
598234808351750;-0.0724;-0.1077;-0.0241;
598234818456906;0.0096;0.1202;-0.0497;
598234828576750;-0.0170;0.1426;-0.0422;
598234838681958;-0.0266;0.0137;-0.0103;
598234848787115;-0.0181;-0.1205;0.0260;
598234858894979;0.0107;-0.0694;0.0217;
598234869000188;0.0128;0.0595;-0.0465;
598234879105344;-0.0288;-0.0055;-0.0145;
598234889225083;-0.0533;-0.1269;0.0100;
598234899330292;0.0117;0.0872;-0.0220;
598234909435448;0.0138;-0.0055;-0.0656;
598234919527375;-0.0799;-0.4154;-0.0188;
598234929632583;-0.0181;-0.2718;0.0132;
598234939737740;0.1023;0.2001;-0.0166;
598234949830031;0.0394;0.1969;-0.0145;
598234959935188;0.0107;0.0137;-0.0624;
598234970040344;0.0767;-0.0097;-0.0454;
598234980162896;0.1342;0.0638;0.0079;
598234990268052;0.2056;0.1703;0.0377;
598235000373261;0.1193;0.0904;0.0302;
598235010474146;-0.0352;-0.1642;-0.0060;
598235020579354;0.2035;0.2767;0.0217;
598235030684511;0.4250;0.6687;0.1154;
598235040809771;0.1545;-0.0385;0.1996;
598235050914927;-0.0692;-0.4889;0.2060;
598235061020136;-0.0053;-0.1514;0.1240;
598235071108365;0.1204;0.1352;0.1154;
598235081213573;-0.0043;-0.0427;0.0984;
598235091318729;-0.1107;-0.2707;0.0909;
598235101421646;-0.1554;-0.0875;0.0931;
598235111526854;-0.1660;0.0968;0.0728;
598235121632011;-0.1075;-0.0459;0.0867;
598235131734458;-0.0799;-0.0268;0.1005;
598235141839667;-0.0925;0.0989;0.0760;
598235151944823;-0.0554;0.0872;0.0356;
598235162038000;-0.0479;0.0819;0.0356;
598235172143156;-0.0618;0.1213;0.0707;
598235182248365;-0.0915;0.0510;0.0441;
598235192360500;-0.0884;-0.0438;0.0718;
598235202465708;-0.1447;-0.0513;0.0483;
598235212570865;-0.1703;-0.0587;0.0196;
598235222673000;-0.1234;-0.0268;0.0047;
598235232778208;-0.0565;0.0190;0.0132;
598235242883365;-0.0968;-0.0566;-0.0198;
598235252995917;-0.0511;0.0041;-0.0561;
598235263101125;-0.0234;0.0904;-0.0433;
598235273206281;-0.0852;-0.0161;-0.0518;
598235283310396;-0.0437;-0.0395;-0.0688;
598235293415604;0.0383;0.0893;-0.0593;
598235303520761;0.0490;0.0957;-0.0092;
598235313640292;0.0224;0.0563;0.0004;
598235323745448;0.1395;0.1341;0.0356;
598235333850604;0.0021;-0.0896;0.0483;
598235343933833;-0.0511;-0.3165;0.0142;
598235354038990;0.0032;-0.1344;-0.0092;
598235364144146;0.0138;0.0041;-0.0028;
598235374266229;-0.0597;0.0063;-0.0252;
598235384371386;-0.0554;0.0553;-0.0348;
598235394476542;-0.0458;0.0222;0.0068;
598235404568313;-0.0628;0.0073;0.0185;
598235414673469;0.0000;0.1160;0.0228;
598235424778625;-0.0298;0.0787;0.0430;
598235434897479;-0.0597;-0.0768;0.0345;
598235445002636;-0.0043;0.1320;0.0121;
598235455107792;0.0767;0.2916;0.0462;
598235465206542;-0.0543;0.0116;0.0473;
598235475311698;-0.1373;-0.1929;0.0547;
598235485416854;-0.1011;-0.1162;0.0505;
598235495523886;-0.0873;-0.0193;0.0313;
598235505628990;-0.0565;-0.0129;0.0356;
598235515734146;-0.1107;-0.0758;0.0579;
598235525887531;-0.0362;-0.0076;0.0643;
598235535992636;-0.0234;0.0744;0.0153;
598235546097792;-0.0085;0.0776;0.0057;
598235556146646;-0.0575;0.0819;0.0164;
598235566251802;-0.0735;0.0531;0.0185;
598235576356958;-0.0820;0.0084;0.0387;
598235586454823;-0.0703;0.0137;0.0345;
598235596559927;-0.0437;-0.0012;0.0622;
598235606665083;-0.0692;-0.0268;0.0707;
598235616780292;-0.0394;0.0105;0.0771;
598235626885448;-0.0554;0.0244;0.0217;
598235636990604;-0.0756;-0.0310;0.0430;
598235647084354;-0.1096;-0.0044;0.0302;
598235657189511;-0.0852;-0.0044;-0.0071;
598235667294667;-0.1181;-0.0587;-0.0039;
598235677401073;-0.0714;0.0116;0.0260;
598235687506229;-0.0511;0.1000;0.0515;
598235697611386;-0.0522;0.0617;0.0622;
598235707732479;-0.0746;0.0063;0.0611;
598235717837636;-0.0586;0.0499;0.0473;
598235727942792;-0.0565;0.0041;0.0324;
598235738029927;-0.0799;0.0095;0.0441;
598235748135031;-0.0660;0.0340;0.0356;
598235758240188;-0.1234;-0.0182;0.0206;
598235768341750;-0.0947;-0.0182;0.0334;
598235778446854;-0.0852;-0.0055;0.0451;
598235788552011;-0.1064;-0.0214;0.0409;
598235798660240;-0.1075;-0.0204;0.0419;
598235808765344;-0.0671;-0.0087;0.0814;
598235818870500;-0.0915;0.0020;0.0206;
598235828967115;-0.0895;-0.0502;0.0142;
598235839072219;-0.0799;-0.0481;0.0260;
598235849177375;-0.0925;-0.0268;-0.0220;
598235859285344;-0.1138;0.0020;-0.0475;
598235869390448;-0.1309;-0.1130;0.0036;
598235879495604;-0.1671;-0.2696;0.0515;
598235889626021;-0.1160;-0.1162;0.0185;
598235899731177;0.0075;0.1458;-0.0284;
598235909836333;-0.0714;0.0617;-0.0699;
598235919915552;-0.1426;-0.0044;-0.0603;
598235930020656;-0.0820;0.0617;-0.0486;
598235940125813;-0.0607;0.0947;-0.0603;
598235950244979;-0.0863;0.0489;-0.0720;
598235960350136;-0.0884;0.0340;-0.0624;
598235970455292;-0.1021;-0.0204;-0.0710;
598235980562688;-0.0043;0.1788;-0.0475;
598235990667844;0.0831;0.2916;-0.0049;
598236000773000;-0.0756;-0.0481;0.0196;
598236010877115;-0.1117;-0.2110;-0.0411;
598236020982271;-0.0565;-0.0566;-0.0571;
598236031087427;-0.0671;-0.0236;-0.0806;
598236041185500;-0.0895;-0.1269;-0.1072;
598236051290604;-0.0575;-0.1067;-0.1168;
598236061395761;-0.0575;0.0712;-0.1296;
598236071516333;-0.0256;0.3161;-0.0923;
598236081621490;0.0650;0.4098;-0.1061;
598236091726646;0.0383;0.2586;-0.0955;
598236101824458;-0.0522;0.1320;-0.0784;
598236111929615;0.0213;0.2479;-0.0997;
598236122034771;-0.0756;0.0574;-0.1466;
598236132154563;-0.1820;-0.3314;-0.0933;
598236142259719;-0.0915;-0.2537;-0.1477;
598236152364875;-0.0671;0.0201;-0.1987;
598236162469979;-0.1479;-0.0854;-0.1189;
598236172575136;-0.2118;-0.1961;-0.1562;
598236182680292;-0.1746;-0.3634;-0.1955;
598236192768208;-0.1107;-0.3739;-0.2359;
598236202873365;0.0160;-0.1067;-0.2306;
598236212978521;-0.0234;0.1181;-0.3340;
598236223079979;-0.0586;0.0670;-0.3531;
598236233185136;0.0288;0.1309;-0.3723;
598236243290292;0.2652;0.4471;-0.2828;
598236253396750;0.1822;0.3161;-0.1901;
598236263501906;-0.0117;-0.0481;-0.1880;
598236273607063;0.0437;-0.0012;-0.1509;
598236283712271;0.1427;0.0840;-0.1445;
598236293817427;0.1076;-0.2355;-0.1253;
598236303922583;0.1619;-0.3495;-0.1093;
598236314020031;0.3153;-0.0875;-0.0816;
598236324125083;0.4762;-0.0108;-0.1051;
598236334230136;0.2919;-0.3101;-0.1072;
598236344335240;0.1076;-0.2281;-0.0784;
598236354454354;0.1491;-0.0225;-0.0262;
598236364559458;0.1491;-0.0225;0.0238;
598236374664511;0.1182;0.0425;0.0611;
598236384768625;0.1779;0.1202;0.0867;
598236394873729;0.2375;0.2310;0.0601;
598236404978781;0.2855;0.3545;0.1059;
598236415095708;0.1885;0.3076;0.1623;
598236425200813;0.0724;0.1021;0.1964;
598236435305865;0.0756;0.0148;0.2284;
598236445395031;0.0490;-0.0790;0.2529;
598236455500136;-0.0128;-0.1482;0.2710;
598236465605188;-0.0884;-0.1226;0.2742;
598236475707063;-0.1288;-0.0854;0.3061;
598236485812219;-0.2065;-0.1120;0.3189;
598236495917271;-0.2662;-0.0981;0.2220;
598236506030083;-0.2044;0.0340;0.1804;
598236516135188;-0.2182;0.0457;0.1911;
598236526240240;-0.2811;0.0201;0.1570;
598236536327531;-0.2811;0.0755;0.1197;
598236546432583;-0.2981;0.0467;0.1186;
598236556537636;-0.3386;0.1192;0.1027;
598236566646958;-0.3461;0.1735;0.0909;
598236576752115;-0.3631;-0.0129;0.0686;
598236586857115;-0.3557;-0.0268;0.0100;
598236596963625;-0.3706;0.0691;-0.0582;
598236607068729;-0.3791;-0.0012;-0.0603;
598236617173781;-0.4249;-0.1525;-0.1008;
598236627287636;-0.3546;-0.1407;-0.1901;
598236637392688;-0.2118;0.0254;-0.2040;
598236647497740;-0.1607;0.1096;-0.2104;
598236657594250;-0.0479;0.1501;-0.2200;
598236667699354;0.0352;0.1820;-0.1880;
598236677804458;0.0522;0.1149;-0.2136;
598236687924771;0.1033;0.0254;-0.2604;
598236698029875;0.2141;0.0361;-0.2530;
598236708134927;0.3782;0.1096;-0.2136;
598236718218990;0.4570;0.1085;-0.2189;
598236728324042;0.4634;0.0201;-0.1679;
598236738429146;0.5017;0.0020;-0.0976;
598236748539927;0.5007;-0.0875;-0.0497;
598236758644979;0.4527;-0.2079;0.0334;
598236768750031;0.4367;-0.1972;0.0558;
598236778866333;0.3260;-0.1834;0.0984;
598236788971438;0.2535;-0.0715;0.0760;
598236799076542;0.3590;0.0830;0.1474;
598236809193833;0.2684;0.1075;0.1772;
598236819298938;0.1843;0.0020;0.1804;
598236829403990;0.1417;-0.0747;0.1889;
598236839487011;0.1001;-0.0044;0.2145;
598236849592063;-0.0490;0.0393;0.2188;
598236859697115;-0.1405;0.1000;0.2422;
598236869811438;-0.1277;0.1266;0.2454;
598236879916542;-0.2087;0.0574;0.1591;
598236890021594;-0.2438;0.0680;0.1453;
598236900127896;-0.3610;0.0659;0.1378;
598236910233000;-0.4537;-0.0001;0.0877;
598236920338052;-0.4238;-0.0811;0.0451;
598236930444875;-0.4611;-0.1887;-0.0518;
598236940549979;-0.4888;-0.0971;-0.1072;
598236950655031;-0.5218;-0.0044;-0.1136;
598236960761958;-0.4121;-0.0129;-0.1072;
598236970867063;-0.1458;-0.0640;-0.1551;
598236980972115;-0.0362;-0.0395;-0.2136;
598236991076958;0.0256;0.0446;-0.2232;
598237001182063;0.1097;0.1021;-0.2509;
598237011287115;0.1736;0.0510;-0.2349;
598237021377167;0.1822;-0.0406;-0.1807;
598237031482219;0.2919;0.0286;-0.1711;
598237041587271;0.4783;0.2193;-0.1157;
598237051718208;0.4272;0.1352;-0.0774;
598237061823313;0.4101;0.0041;0.0015;
598237071928365;0.4037;0.0169;0.0515;
598237082023625;0.3430;-0.0172;0.0462;
598237092128729;0.2258;-0.0555;0.0366;
598237102233781;0.1459;-0.0609;0.0547;
598237112332688;0.0703;0.0052;0.0174;
598237122437792;0.0628;0.0851;0.0387;
598237132542844;-0.1011;0.1032;0.0313;
598237142646438;-0.1714;0.0425;0.0728;
598237152751542;-0.1479;-0.0726;0.0622;
598237162856594;-0.1000;-0.1077;0.0537;
598237172974771;-0.1426;-0.0928;0.0270;
598237183079875;-0.2587;-0.0896;0.0089;
598237193184927;-0.2917;-0.0854;-0.0529;
598237203280813;-0.2758;-0.0406;-0.1264;
598237213385917;-0.2598;0.0467;-0.1402;
598237223491021;-0.2992;0.0148;-0.1764;
598237233601229;-0.2055;-0.0055;-0.2274;
598237243706333;-0.1053;0.0393;-0.2359;
598237253811386;-0.0352;0.0968;-0.2040;
598237263906229;-0.0437;0.1149;-0.2285;
598237274011333;0.0224;0.1341;-0.2391;
598237284116386;0.1779;0.1980;-0.2157;
598237294207948;0.2695;0.1490;-0.2328;
598237304313000;0.2631;0.0095;-0.2019;
598237314418104;0.2674;-0.1184;-0.1647;
598237324539458;0.2205;-0.2228;-0.1509;
598237334644615;0.2290;-0.1333;-0.1306;
598237344749719;0.2205;-0.0587;-0.0997;
598237354859979;0.2301;-0.0917;-0.0774;
598237364965083;0.2865;-0.0598;-0.1146;
598237375070188;0.3696;0.0531;-0.0752;
598237385170448;0.3398;0.0798;-0.0166;
598237395275604;0.2589;0.0403;0.0036;
598237405380656;0.2226;0.0222;0.0313;
598237415491125;0.2067;0.0862;0.0569;
598237425596281;0.1800;0.1373;0.0526;
598237435701386;0.1694;0.1170;0.0973;
598237445787792;0.1523;0.0009;0.1399;
598237455892948;0.1172;-0.1077;0.1687;
598237465998000;0.0575;-0.1152;0.1282;
598237476102219;-0.0352;-0.1375;0.1367;
598237486207271;-0.1767;-0.1344;0.1272;
598237496312427;-0.2076;-0.0630;0.0846;
598237506418938;-0.2470;-0.2473;0.0483;
598237516524042;-0.3258;-0.1631;0.0047;
598237526629094;-0.1671;0.2565;-0.0039;
598237536731646;0.1065;0.3555;-0.0390;
598237546836750;0.0266;0.0648;-0.0593;
598237556941854;0.0032;-0.0310;-0.0273;
598237567049979;0.0170;0.1522;-0.0081;
598237577155083;0.0213;0.1181;0.0302;
598237587260240;0.0277;-0.1003;0.0068;
598237597387011;0.0895;-0.0481;-0.0411;
598237607492115;0.0703;0.0265;-0.0103;
598237617597219;0.0181;0.0734;0.0100;
598237627680604;0.1001;0.1192;0.0132;
598237637785761;0.0298;-0.2537;0.0292;
598237647890813;0.0043;-0.5007;0.0228;
598237658013938;0.0107;-0.1780;-0.0411;
598237668119042;0.0234;0.1788;-0.0443;
598237678224146;-0.0692;0.0329;-0.0145;
598237688314719;-0.0469;-0.0726;-0.0646;
598237698419823;0.0586;0.1991;-0.0699;
598237708524927;0.0373;0.2628;-0.0603;
598237718643208;0.0107;0.0190;-0.0262;
598237728748313;0.0490;-0.0310;0.0185;
598237738853417;0.0650;0.0755;0.0249;
598237748942531;0.0639;-0.0395;0.0462;
598237759047636;0.0224;-0.1067;-0.0007;
598237769152688;0.0320;0.0510;0.0036;
598237779257740;-0.0117;0.0137;0.0100;
598237789362844;-0.0170;-0.1141;-0.0188;
598237799467948;-0.0085;0.0148;-0.0145;
598237809577011;0.0032;0.1256;-0.0241;
598237819682063;0.0245;0.1043;-0.0443;
598237829787219;0.0320;0.0585;-0.0188;
598237839891438;0.0639;0.0553;0.0196;
598237849996542;0.0916;0.0766;0.0228;
598237860101646;0.1001;0.0968;0.0036;
598237870209667;0.0937;0.0435;0.0111;
598237880314771;0.0245;-0.0704;0.0121;
598237890419875;0.0043;-0.1035;-0.0103;
598237900525396;0.0501;-0.0236;-0.0220;
598237910630500;0.0490;-0.0182;-0.0188;
598237920735604;0.0373;-0.0587;-0.0103;
598237930862063;0.0522;-0.0875;0.0142;
598237940967167;0.0778;-0.0736;0.0206;
598237951072271;0.0767;-0.1897;0.0238;
598237961171854;0.1300;-0.1802;0.0185;
598237971276958;0.1321;0.1533;0.0142;
598237981382063;0.0501;0.2353;-0.0433;
598237991478625;0.0948;0.0425;-0.0795;
598238001583729;0.0415;-0.0395;-0.0433;
598238011688833;0.0543;0.0457;0.0036;
598238021789250;0.0948;0.0776;0.0206;
598238031894354;0.0927;0.0382;0.0462;
598238041999458;0.1087;0.0084;0.0590;
598238052117479;0.1342;0.0446;0.0579;
598238062222636;0.1246;0.1107;0.0345;
598238072327688;0.1523;0.2193;0.0611;
598238082434198;0.0128;-0.1354;0.0750;
598238092539302;-0.0586;-0.5230;0.0451;
598238102644406;-0.0075;-0.1865;0.0015;
598238112746958;-0.0936;0.1660;0.0015;
598238122852063;-0.1373;0.0851;-0.0188;
598238132957167;0.0618;0.0020;-0.0294;
598238143050448;0.0458;0.0553;0.0302;
598238153155552;0.0043;0.1543;0.0356;
598238163260708;0.0746;0.1181;-0.0028;
598238173374563;0.1012;0.0372;-0.0081;
598238183479667;0.1012;0.0851;0.0398;
598238193584771;0.0149;-0.0023;0.0611;
598238203679458;0.0170;-0.1162;0.0260;
598238213784563;0.0202;-0.0268;0.0153;
598238223889667;0.0330;-0.0651;0.0334;
598238234014458;0.0160;-0.1887;0.0547;
598238244119563;0.0213;-0.1407;0.0611;
598238254224667;0.0192;-0.0449;0.0260;
598238264324667;0.0192;-0.0012;-0.0230;
598238274429771;0.0309;-0.0321;-0.0007;
598238284534875;0.0373;-0.0534;0.0196;
598238294628938;0.0288;-0.0150;0.0015;
598238304734042;0.0149;0.0297;-0.0209;
598238314839146;0.0426;0.0137;-0.0241;
598238324956125;0.0778;0.0489;-0.0060;
598238335061281;0.0778;0.1138;0.0345;
598238345166386;0.0916;0.0936;0.0601;
598238355256698;0.1065;0.0968;0.0611;
598238365361854;0.1012;0.1671;0.0451;
598238375466958;0.0937;0.1053;0.0547;
598238385567636;0.0820;0.0254;0.0686;
598238395672740;0.0458;0.0286;0.0771;
598238405777844;-0.0096;-0.0459;0.0792;
598238415897063;-0.0021;-0.1194;0.0814;
598238426002219;0.0245;-0.0182;0.0750;
598238436107323;0.0597;0.0680;0.0995;
598238446164615;0.0437;0.0041;0.1091;
598238456269719;0.0138;-0.0577;0.0824;
598238466374875;0.0224;0.0318;0.0590;
598238476515292;0.0437;0.0798;0.1005;
598238486620448;0.0138;-0.0353;0.0984;
598238496725552;-0.0309;-0.1013;0.0792;
598238506867688;-0.0298;-0.0246;0.0888;
598238516972844;-0.0501;-0.0044;0.0877;
598238527077948;-0.0660;-0.0278;0.0877;
598238537127948;-0.0799;-0.0289;0.0803;
598238547233052;-0.0799;-0.0214;0.0771;
598238557338208;-0.1107;-0.0214;0.0664;
598238567459511;-0.1224;0.0169;-0.0049;
598238577564667;-0.0799;0.0659;-0.0145;
598238587669771;-0.0671;0.0254;-0.0198;
598238597790813;-0.0842;0.0041;-0.0252;
598238607895969;-0.0628;0.0989;-0.0230;
598238618001073;-0.0437;0.0766;-0.0177;
598238628113313;-0.0469;-0.0044;-0.0294;
598238638218469;-0.0245;0.0563;-0.0188;
598238648323573;0.0149;0.1021;0.0132;
598238658404198;-0.0160;-0.0310;-0.0039;
598238668509302;-0.0383;-0.1578;-0.0529;
598238678614406;-0.0394;-0.1045;-0.0593;
598238688717948;0.0011;-0.0332;-0.0582;
598238698823052;0.0032;-0.0555;-0.0688;
598238708928156;-0.0224;-0.0044;-0.0848;
598238719053469;0.0320;0.1756;-0.0912;
598238729158625;0.0458;0.2097;-0.0987;
598238739263729;-0.0085;0.0776;-0.0678;
598238749349927;-0.0138;-0.0726;-0.0071;
598238759455031;0.0213;-0.1482;0.0238;
598238769560136;0.0064;-0.1258;-0.0614;
598238779665604;0.0288;-0.0502;-0.1008;
598238789770761;-0.0053;-0.1802;-0.0188;
598238799875865;0.0032;-0.2600;-0.0252;
598238809986229;0.0746;0.0073;-0.0656;
598238820091386;-0.0277;0.1021;-0.0806;
598238830196490;-0.0533;-0.1269;-0.0923;
598238840307375;-0.0533;-0.1940;-0.0880;
598238850412531;0.0224;-0.0001;-0.0806;
598238860517636;0.0863;0.1330;-0.0614;
598238870622583;0.1214;0.2012;-0.0720;
598238880727740;0.2162;0.2980;-0.0614;
598238890832844;0.2535;0.2863;-0.0294;
598238900926958;0.2354;0.1724;-0.0241;
598238911032115;0.2834;0.2959;0.0185;
598238921137219;0.2322;0.2479;0.0537;
598238931257167;0.0245;-0.3005;0.1133;
598238941362323;-0.0671;-0.4090;0.0973;
598238951467427;0.0575;-0.0672;0.0547;
598238961563729;0.1268;-0.0150;0.0483;
598238971668886;0.0682;-0.1876;0.0537;
598238981773990;0.0064;-0.1003;0.0292;
598238991883104;0.0266;0.0670;0.0270;
598239001988261;0.0234;-0.0246;0.0121;
598239012093365;0.0288;-0.0758;-0.0113;
598239022191333;0.0469;0.0702;-0.0049;
598239032296490;0.0767;0.1660;0.0206;
598239042401594;0.0948;0.0947;0.0345;
598239052509198;0.0820;0.0670;0.0686;
598239062614354;0.0927;0.1490;0.0814;
598239072719458;0.1225;0.1330;0.0750;
598239082832375;0.1108;0.1149;0.0451;
598239092937531;0.0905;0.1383;0.0696;
598239103042636;0.0554;0.0947;0.0664;
598239113159667;0.0671;0.0670;0.0569;
598239123264823;0.0522;0.0936;0.0579;
598239133369927;0.0607;0.0787;0.0792;
598239143455292;0.0362;0.0595;0.0867;
598239153560448;0.0447;-0.0044;0.0995;
598239163665552;0.0149;-0.1109;0.1080;
598239173775917;0.0352;-0.0609;0.0995;
598239183881073;0.0533;0.0222;0.0728;
598239193986177;0.0373;-0.0108;0.0547;
598239204087583;0.0320;-0.0481;0.0696;
598239214192740;0.0256;-0.0353;0.0398;
598239224297844;0.0138;-0.0225;0.0302;
598239234402167;-0.0011;-0.0310;0.0537;
598239244507323;-0.0224;-0.0342;0.0760;
598239254612427;-0.0064;-0.0140;0.0696;
598239264723781;-0.0181;-0.0374;0.1091;
598239274828938;-0.0415;-0.0406;0.1197;
598239284934042;-0.0149;0.0180;0.1059;
598239295043886;-0.0117;0.0947;0.0622;
598239305149042;-0.0117;0.0670;0.0846;
598239315254198;-0.0597;-0.0555;0.0984;
598239325346750;-0.0650;-0.0076;0.0899;
598239335451854;-0.0692;0.0862;0.0782;
598239345556958;-0.0628;0.0766;0.0963;
598239355661646;-0.0362;0.1107;0.0867;
598239365766802;-0.0639;0.0808;0.1218;
598239375871854;-0.1522;-0.0342;0.1336;
598239385971438;-0.1767;-0.0619;0.1378;
598239396076542;-0.1405;0.0222;0.1037;
