Sensor: bmi160 Accelerometer Non-wakeup
Vendor: BOSCH
TimestampAcc [ns]; AccX [m/s^2]; AccY [m/s^2]; AccZ [m/s^2]
392206397908859;-9.4908;0.3488;-2.1003;
392206408068859;-9.4884;0.3320;-2.2080;
392206418178651;-9.5076;0.2937;-2.1888;
392206428303182;-9.5315;0.2722;-2.1051;
392206438423443;-9.5581;0.2770;-2.0907;
392206448532714;-9.5438;0.2626;-2.0354;
392206458630161;-9.5486;0.2291;-1.9875;
392206468734589;-9.5725;0.2001;-2.0091;
392206478788911;-9.5821;0.2001;-1.9899;
392206488927193;-9.5940;0.1881;-1.9804;
392206499037609;-9.5677;0.1714;-2.0115;
392206509134745;-9.5701;0.1738;-2.0474;
392206519199797;-9.5725;0.1594;-2.0139;
392206529351047;-9.5557;0.1451;-2.0019;
392206539481047;-9.5414;0.1522;-1.9875;
392206549532401;-9.5390;0.1714;-1.9732;
392206559651672;-9.5557;0.1881;-1.9804;
392206569755578;-9.5797;0.2001;-1.9636;
392206579834641;-9.5868;0.1929;-1.9684;
392206589977974;-9.5797;0.1857;-1.9636;
392206600051932;-9.5749;0.2001;-1.9493;
392206610148130;-9.5557;0.2052;-2.0091;
392206620280266;-9.5486;0.2459;-1.9804;
392206630367193;-9.5581;0.3057;-1.9828;
392206640479120;-9.5533;0.3248;-2.0186;
392206650569380;-9.5725;0.3129;-2.0521;
392206660681984;-9.5725;0.3703;-2.0474;
392206670801099;-9.5342;0.3344;-2.0402;
392206680883130;-9.5414;0.3990;-2.0545;
392206690988130;-9.5315;0.3966;-2.0258;
392206701089693;-9.5366;0.4301;-2.0692;
392206711193443;-9.5291;0.4759;-2.0931;
392206721298859;-9.5124;0.4759;-2.0788;
392206731397297;-9.5291;0.4902;-2.0644;
392206741504797;-9.5510;0.5309;-2.0931;
392206751604901;-9.5414;0.5668;-2.0836;
392206761715109;-9.5438;0.5381;-2.0593;
392206771834797;-9.5414;0.5309;-2.0306;
392206781924380;-9.5219;0.5596;-2.0186;
392206792033547;-9.5366;0.5955;-2.0692;
392206802136880;-9.5677;0.5979;-2.0812;
392206812234068;-9.5557;0.5835;-2.0330;
392206822342714;-9.5629;0.5835;-2.0019;
392206832438339;-9.5797;0.5907;-1.9804;
392206842546464;-9.5749;0.5812;-1.9373;
392206852648547;-9.5773;0.5333;-1.9516;
392206862754693;-9.5797;0.4926;-1.9899;
392206872865109;-9.5581;0.4493;-1.9851;
392206882967193;-9.5510;0.3990;-1.9756;
392206893060370;-9.5462;0.3320;-1.9756;
392206903164484;-9.5629;0.2578;-1.9995;
392206913265109;-9.5916;0.2985;-2.0306;
392206923376880;-9.5533;0.2913;-2.0091;
392206933491984;-9.5510;0.1451;-1.9301;
392206943584797;-9.5916;0.1259;-1.9780;
392206953681776;-9.5581;0.0374;-1.9421;
392206963799693;-9.5892;0.0254;-1.9014;
392206973889693;-9.6682;-0.0200;-1.9134;
392206983996151;-9.6156;-0.1424;-1.9516;
392206994124953;-9.5267;-0.1974;-2.0644;
392207004203859;-9.5195;-0.1854;-2.1458;
392207014306359;-9.5172;-0.1663;-2.1434;
392207024423651;-9.5267;-0.1926;-2.0979;
392207034512505;-9.5749;-0.1663;-1.9780;
392207044620214;-9.6275;-0.0488;-1.9445;
392207054721620;-9.6227;-0.0416;-1.9301;
392207064827714;-9.5940;-0.1256;-1.9469;
392207074918130;-9.5605;-0.1950;-2.0883;
392207085036047;-9.5438;-0.2596;-2.1649;
392207095133026;-9.5725;-0.3314;-2.1434;
392207105241984;-9.6132;-0.4346;-2.0740;
392207115340422;-9.6036;-0.5614;-1.9828;
392207125446359;-9.5845;-0.8297;-2.0067;
392207135551984;-9.5868;-0.9281;-2.0306;
392207145643859;-9.6060;-1.0573;-2.0115;
392207155757505;-9.6347;-1.1844;-1.9636;
392207165866464;-9.6108;-1.0908;-1.8105;
392207175959693;-9.5510;-0.6263;-1.9516;
392207186074380;-9.4884;-0.4418;-2.0545;
392207196167609;-9.5076;-0.3170;-2.0716;
392207206273651;-9.5557;-0.2453;-2.0668;
392207216379068;-9.5243;-0.2261;-2.0354;
392207226477193;-9.4932;-0.1472;-1.9947;
392207236584797;-9.5172;0.0302;-2.1434;
392207246696568;-9.4334;-0.1352;-2.0931;
392207256788651;-9.4669;-0.0033;-1.8320;
392207266894589;-9.5940;0.6194;-2.0521;
392207276987453;-9.4430;0.6912;-2.1147;
392207287116776;-9.3233;0.7319;-2.1051;
392207297215109;-9.4358;1.1465;-2.2510;
392207307317401;-9.3999;1.5849;-2.1864;
392207317417193;-9.3520;2.0351;-2.0282;
392207327529953;-9.3425;2.4808;-2.1721;
392207337623443;-9.3042;2.8065;-2.2080;
392207347726672;-9.2898;3.0006;-2.2319;
392207357832609;-9.4190;2.8017;-2.0139;
392207367939172;-9.6778;2.6151;-1.8679;
392207378029380;-9.6778;2.3850;-1.6427;
392207388133703;-9.4908;2.2842;-1.5948;
392207398215786;-9.4119;2.2819;-1.8607;
392207408334797;-9.3688;2.4162;-2.2128;
392207418442818;-9.2970;2.4473;-2.3037;
392207428545005;-9.4406;2.3106;-2.2152;
392207438658443;-9.5773;2.2412;-2.0498;
392207448757089;-9.4956;2.1885;-1.7551;
392207458886568;-9.4525;2.1766;-1.6451;
392207468961516;-9.5124;2.0856;-1.8081;
392207479070422;-9.4502;1.9681;-2.0740;
392207489176411;-9.3712;1.7859;-2.2845;
392207499332714;-9.4430;1.6615;-2.4117;
392207509383078;-9.4884;1.3645;-2.0740;
392207519504276;-9.5366;1.2159;-1.8057;
392207529575839;-9.5773;1.0866;-1.8105;
392207539682609;-9.5172;0.9739;-2.0210;
392207549789328;-9.4621;0.8423;-2.2774;
392207559943234;-9.4406;0.7152;-2.4308;
392207570050005;-9.5028;0.5788;-2.2104;
392207580156724;-9.5605;0.4205;-1.9421;
392207590199797;-9.6036;0.2865;-1.8320;
392207600306568;-9.5701;0.1953;-1.9971;
392207610413286;-9.5390;0.1881;-2.2152;
392207620541984;-9.5148;0.2387;-2.1745;
392207630648755;-9.5243;0.3033;-2.0955;
392207640755474;-9.5438;0.4134;-1.9995;
392207650834901;-9.5100;0.6386;-1.7695;
392207660941672;-9.5773;0.8973;-1.7240;
392207671048391;-9.5845;1.1273;-1.8727;
392207681143443;-9.4645;1.3167;-1.9636;
392207691250214;-9.4071;1.5200;-2.0979;
392207701356932;-9.4645;1.6352;-2.1027;
392207711459432;-9.4884;1.6161;-1.8846;
392207721566203;-9.5414;1.6591;-1.7886;
392207731672922;-9.5677;1.7237;-1.8559;
392207741759797;-9.5028;1.7524;-1.9828;
392207751866568;-9.4167;1.7596;-2.0402;
392207761973286;-9.4573;1.8772;-1.9038;
392207772068234;-9.5342;1.9896;-1.7719;
392207782175005;-9.4956;2.1168;-1.7886;
392207792281724;-9.4597;2.2723;-1.9325;
392207802387401;-9.4382;2.4808;-2.0668;
392207812494172;-9.4023;2.6749;-2.1936;
392207822600891;-9.3736;2.7897;-2.1769;
392207832694797;-9.3784;2.8280;-2.0354;
392207842801568;-9.4382;2.8113;-1.8990;
392207852908286;-9.4741;2.7323;-1.8344;
392207863012297;-9.4645;2.6629;-1.8655;
392207873119068;-9.4454;2.5741;-1.9947;
392207883225786;-9.4071;2.4568;-2.2128;
392207893321359;-9.3664;2.2842;-2.3276;
392207903428130;-9.3832;2.1431;-2.2128;
392207913534849;-9.4358;1.9729;-2.0668;
392207923645266;-9.4669;1.8003;-2.0234;
392207933752036;-9.4382;1.6352;-2.0836;
392207943858755;-9.4717;1.6831;-2.1888;
392207953952714;-9.3855;1.4171;-2.1625;
392207964059484;-9.4238;1.1824;-2.3133;
392207974166203;-9.4143;0.9763;-2.5026;
392207984260630;-9.4167;0.8853;-2.1984;
392207994367401;-9.5366;0.7848;-2.0330;
392208004474120;-9.5725;0.6864;-2.0330;
392208014588443;-9.4669;0.6769;-1.9445;
392208024695214;-9.4837;0.6601;-2.1721;
392208034801932;-9.5219;0.6529;-2.4811;
392208044889380;-9.4310;0.5453;-2.3758;
392208054996151;-9.4214;0.4373;-2.2199;
392208065102870;-9.4789;0.4493;-2.1673;
392208075206359;-9.5100;0.4493;-1.9899;
392208085313130;-9.5629;0.4493;-1.9086;
392208095419849;-9.5916;0.4253;-2.0474;
392208105513026;-9.5533;0.4349;-2.1529;
392208115619797;-9.4382;0.4373;-2.0955;
392208125726516;-9.4741;0.4229;-2.0402;
392208135812401;-9.5725;0.4062;-1.9804;
392208145919172;-9.5773;0.4181;-1.8344;
392208156025891;-9.5773;0.5309;-1.8081;
392208166124589;-9.5892;0.6505;-1.9804;
392208176231359;-9.5291;0.7848;-1.9804;
392208186338078;-9.4382;0.9380;-1.8775;
392208196440005;-9.5148;1.1225;-1.8655;
392208206546776;-9.5605;1.4028;-1.7599;
392208216653495;-9.5605;1.7668;-1.5132;
392208226748026;-9.6538;2.0207;-1.4127;
392208236854797;-9.6156;2.4784;-1.5972;
392208246961516;-9.4549;3.2043;-1.8488;
392208257074172;-9.3712;4.0283;-2.3710;
392208267180943;-9.0287;4.7734;-4.1195;
392208277287661;-8.9542;4.8212;-3.0918;
392208287372922;-9.2393;3.4989;-0.6389;
392208297479693;-9.9676;3.3168;-1.2858;
392208307586411;-9.5653;3.8438;-1.8559;
392208317674589;-8.8585;4.1169;-2.5504;
392208327781359;-9.2010;4.0618;-3.2836;
392208337888078;-9.0646;3.6042;-3.3649;
392208347987505;-8.9806;2.5645;-2.7159;
392208358094276;-9.8264;1.3836;-2.6201;
392208368200995;-10.2766;1.4626;-2.5002;
392208378290005;-9.5414;2.5860;-2.0644;
392208388396776;-8.7987;2.6701;-1.8320;
392208398503495;-8.8801;1.1919;-1.8105;
392208408596255;-9.3473;-0.1352;-1.6905;
392208418703026;-9.7113;-0.8898;-1.5661;
392208428809745;-10.0561;-0.9449;-1.8057;
392208438913286;-9.8767;-0.3987;-1.8511;
392208449020057;-9.2970;0.4540;-1.5972;
392208459126776;-9.1244;1.3813;-1.9205;
392208469209484;-9.3377;0.6960;-1.7862;
392208479316255;-9.6610;0.6051;-1.7671;
392208489422974;-9.9221;0.8160;-1.7719;
392208499524745;-9.7591;1.0555;-1.9086;
392208509631516;-9.3640;0.7223;-2.1505;
392208519738234;-9.1220;-0.0129;-2.0692;
392208529826724;-9.2632;-0.0368;-1.7001;
392208539930891;-9.6969;0.5166;-1.5156;
392208550035109;-9.9174;0.9643;-1.6116;
392208560180891;-9.6108;1.1728;-1.8775;
392208570285057;-9.3066;1.3645;-2.3686;
392208580389276;-9.3520;1.6902;-2.8140;
392208590485786;-9.3353;1.8772;-2.6201;
392208600589953;-9.3688;1.7046;-2.2223;
392208610694172;-9.6036;1.2999;-2.1003;
392208620788339;-9.6538;1.0125;-2.0668;
392208630892505;-9.5243;0.9691;-1.9923;
392208640996724;-9.5243;1.1393;-2.1242;
392208651086932;-9.5219;1.3860;-2.0836;
392208661191099;-9.5677;0.8542;-1.8727;
392208671295318;-9.5291;0.5548;-2.3853;
392208681404849;-9.3329;0.4807;-2.5337;
392208691509016;-9.4047;0.6386;-2.4882;
392208701613234;-9.5892;0.6362;-2.0979;
392208711709849;-9.5845;0.5381;-1.5805;
392208721814016;-9.6491;0.2315;-1.4677;
392208731918234;-9.7376;0.2076;-1.5398;
392208742022245;-9.6156;0.3033;-2.0378;
392208752126411;-9.4406;0.5357;-2.3542;
392208762230630;-9.3975;0.7466;-2.3949;
392208772346984;-9.5243;0.6625;-2.0859;
392208782451151;-9.6012;0.6458;-1.7623;
392208792528859;-9.6395;0.5548;-1.4916;
392208802633078;-9.6921;0.6027;-1.5709;
392208812737245;-9.6754;0.6529;-1.8200;
392208822847974;-9.5725;0.6123;-1.9493;
392208832952141;-9.5486;0.4783;-2.0330;
392208843056359;-9.6012;0.3703;-1.9373;
392208853163182;-9.6156;0.4205;-1.8105;
392208863267349;-9.5940;0.5381;-1.6570;
392208873371568;-9.6347;0.6099;-1.7145;
392208883478182;-9.6036;0.6529;-1.8559;
392208893582349;-9.5148;0.7442;-1.9469;
392208903686568;-9.4813;0.9667;-2.0210;
392208913779641;-9.5100;1.2350;-1.9851;
392208923883807;-9.5291;1.4435;-1.8368;
392208933988026;-9.5773;1.5368;-1.7695;
392208944110370;-9.6108;1.5897;-1.7408;
392208954214536;-9.5773;1.6448;-1.7838;
392208964318755;-9.5148;1.7405;-1.8464;
392208974418703;-9.4669;1.8173;-1.9277;
392208984522870;-9.4238;1.9226;-1.9732;
392208994627089;-9.3688;2.1670;-2.0139;
392209004722245;-9.3784;2.4257;-2.0163;
392209014826411;-9.4573;2.6366;-2.0091;
392209024930630;-9.5749;2.7060;-1.8990;
392209035034328;-9.6467;2.5047;-1.8464;
392209045138495;-9.6897;2.0904;-1.8081;
392209055242714;-9.5797;1.6854;-1.8344;
392209065407036;-9.4095;1.4339;-1.9540;
392209075511203;-9.3377;1.2661;-2.1577;
392209085615422;-9.3808;1.1824;-2.1888;
392209095657141;-9.4478;1.1441;-2.0545;
392209105761307;-9.5868;1.1824;-1.8846;
392209115865526;-9.6203;1.2517;-1.7838;
392209125974953;-9.5749;1.3167;-1.7743;
392209136079120;-9.5028;1.3238;-1.8799;
392209146183339;-9.4837;1.2879;-2.0617;
392209156282141;-9.4860;1.1704;-2.1123;
392209166386307;-9.5366;1.0125;-2.0378;
392209176490526;-9.5677;0.8734;-1.9134;
392209186593807;-9.5821;0.7848;-1.8296;
392209196697974;-9.5557;0.6984;-1.8248;
392209206802193;-9.5124;0.7032;-1.9373;
392209216907661;-9.5219;0.6123;-2.1003;
392209227011828;-9.5510;0.5596;-2.2008;
392209237116047;-9.5701;0.5572;-2.1577;
392209247210318;-9.5701;0.6075;-2.0692;
392209257314484;-9.5486;0.5548;-1.9851;
392209267418703;-9.5462;0.4854;-1.9588;
392209277517661;-9.5438;0.4636;-2.0210;
392209287621828;-9.5291;0.4998;-2.1170;
392209297726047;-9.5342;0.5429;-2.1984;
392209307832974;-9.5390;0.5309;-2.1721;
392209317937141;-9.5414;0.5118;-2.1075;
392209328041359;-9.5533;0.5477;-2.0716;
392209338146099;-9.5414;0.6290;-2.0836;
392209348250266;-9.5124;0.6577;-2.0764;
392209358354484;-9.5004;0.6649;-2.1338;
392209368443391;-9.4765;0.7537;-2.1625;
392209378547557;-9.4406;0.8997;-2.1649;
392209388651776;-9.4478;1.0268;-2.1362;
392209398788182;-9.5148;1.1130;-2.0402;
392209408892349;-9.5821;1.1106;-1.9014;
392209418996568;-9.5725;1.1225;-1.8440;
392209429083495;-9.5653;1.0819;-1.8464;
392209439187661;-9.5533;0.9787;-1.8464;
392209449291880;-9.5510;0.8614;-1.8416;
392209459389641;-9.5581;0.7513;-1.9062;
392209469493807;-9.6132;0.6194;-1.9277;
392209479598026;-9.6251;0.4759;-1.8751;
392209489704432;-9.6443;0.4540;-1.8607;
392209499808599;-9.6012;0.4950;-1.8488;
392209509912818;-9.5581;0.5524;-1.8344;
392209520015786;-9.5076;0.6410;-1.8870;
392209530119953;-9.5052;0.7968;-1.9828;
392209540224172;-9.5243;0.9141;-2.0091;
392209550323807;-9.5267;0.9739;-2.0569;
392209560427974;-9.5172;0.9547;-2.0764;
392209570532193;-9.4980;0.9260;-2.0234;
392209580646828;-9.4908;0.8710;-1.9947;
392209590750995;-9.5100;0.8183;-2.0569;
392209600855214;-9.5243;0.8303;-2.0955;
392209610942141;-9.4789;0.9284;-2.1529;
392209621046307;-9.4645;1.0507;-2.2343;
392209631150526;-9.4884;1.1560;-2.1912;
392209641256568;-9.5172;1.1489;-2.1170;
392209651360734;-9.5581;1.0986;-1.9780;
392209661464953;-9.5510;1.0675;-1.8990;
392209671574432;-9.5267;1.0484;-1.9181;
392209681678599;-9.4813;1.0125;-2.0330;
392209691782818;-9.4765;0.9643;-2.1099;
392209701867245;-9.4980;0.9667;-2.1266;
392209711971411;-9.5267;1.0026;-2.1147;
392209722075630;-9.5462;1.0747;-2.0210;
392209732181932;-9.4789;1.2422;-1.9684;
392209742286099;-9.4406;1.3645;-1.9828;
392209752390318;-9.4741;1.4841;-2.0019;
392209762489849;-9.4884;1.6400;-2.0402;
392209772594016;-9.4932;1.6519;-2.1194;
392209782698234;-9.5243;1.6807;-2.1529;
392209792807505;-9.4813;1.7166;-2.0907;
392209802911672;-9.4549;1.7381;-1.9636;
392209813015891;-9.4454;1.7548;-1.9038;
392209823119641;-9.4047;1.8173;-1.9038;
392209833223807;-9.3449;2.0351;-1.9038;
392209843328026;-9.2946;2.4975;-1.8870;
392209853425161;-9.4071;2.9121;-1.9397;
392209863529328;-9.6323;2.6605;-2.0668;
392209873633547;-9.7065;2.1000;-1.9947;
392209883735995;-9.5988;1.8485;-1.8942;
392209893840161;-9.5243;1.6759;-1.8966;
392209903944380;-9.3879;1.3478;-1.8224;
392209914042974;-9.3449;1.0986;-1.7360;
392209924147141;-9.5004;1.0340;-1.8990;
392209934251359;-9.6538;0.8614;-2.0716;
392209944364432;-9.6156;0.6936;-2.0644;
392209954468599;-9.5315;0.7104;-2.0115;
392209964572818;-9.4837;0.8925;-2.0139;
392209974671203;-9.5148;1.0412;-2.0210;
392209984775422;-9.4884;1.1441;-2.0378;
392209994879589;-9.5510;1.2206;-2.0569;
392210004979849;-9.5988;1.1656;-2.0716;
392210015084016;-9.4837;1.1752;-2.0163;
392210025188234;-9.4502;1.1800;-1.9588;
392210035291516;-9.5028;1.1465;-2.0019;
392210045395682;-9.5243;1.1584;-1.9086;
392210055499901;-9.5653;1.3765;-1.8894;
392210065600526;-9.5557;1.3932;-2.0521;
392210075704693;-9.4813;1.6759;-1.8057;
392210085808859;-9.5438;1.8724;-1.3241;
392210095917818;-9.5462;2.2962;-2.0883;
392210106021984;-9.3903;2.1239;-1.8751;
392210116126203;-9.4143;2.3946;-1.6857;
392210126229901;-9.5028;3.1899;-2.1482;
392210136334068;-9.5195;2.2244;-2.5385;
392210146438286;-9.3114;1.4841;-2.1553;
392210156530682;-9.3544;1.2063;-1.8033;
392210166634849;-9.6419;0.8375;-2.1769;
392210176739068;-9.5148;0.5285;-1.5494;
392210186840995;-9.5988;0.3990;-1.4988;
392210196945161;-9.7831;0.4038;-2.0788;
392210207049380;-9.5916;0.8758;-2.1458;
392210217151151;-9.4549;0.8279;-2.0306;
392210227255318;-9.4645;0.9260;-2.1242;
392210237359536;-9.4573;1.3190;-2.1553;
392210247466932;-9.3832;1.3549;-1.8966;
392210257571099;-9.5195;1.3741;-1.8009;
392210267675318;-9.6778;1.6400;-1.9804;
392210277802661;-9.5653;1.1489;-2.0258;
392210287906828;-9.4334;1.0316;-2.1864;
392210298011047;-9.4238;0.9523;-2.2534;
392210308084641;-9.5390;0.7992;-2.0258;
392210318188807;-9.5557;0.7681;-1.8488;
392210328293026;-9.5557;0.8160;-1.9493;
392210338398286;-9.5797;0.9404;-2.0426;
392210348502453;-9.4813;0.9858;-2.0163;
392210358606672;-9.4741;1.0220;-2.1123;
392210368715578;-9.4908;1.0890;-1.9828;
392210378819745;-9.5076;1.2326;-1.7695;
392210388923964;-9.5892;1.3573;-1.8416;
392210399024068;-9.5964;1.3741;-1.9995;
392210409128234;-9.5076;1.3836;-2.0617;
392210419232453;-9.4549;1.5248;-2.1290;
392210429348078;-9.4645;1.5802;-1.9804;
392210439452245;-9.4741;1.5969;-1.8081;
392210449556464;-9.5462;1.7022;-1.7961;
392210459622297;-9.5414;1.7668;-1.8416;
392210469726464;-9.5052;1.7429;-1.9875;
392210479830682;-9.5124;1.6256;-2.1123;
392210489974432;-9.4884;1.4650;-2.0258;
392210500078599;-9.4741;1.4530;-1.9540;
392210510182818;-9.5076;1.3932;-1.8751;
392210520226255;-9.5195;1.3836;-1.8033;
392210530330474;-9.5510;1.4219;-1.8799;
392210540434693;-9.5291;1.4578;-1.9947;
392210550591411;-9.4908;1.2784;-2.0931;
392210560695578;-9.5195;1.3095;-2.1936;
392210570799797;-9.4837;1.1847;-2.1051;
392210580898807;-9.4860;1.1512;-2.0019;
392210591002974;-9.5100;1.1201;-1.9684;
392210601107193;-9.5124;1.2039;-2.0091;
392210611214120;-9.5219;0.9595;-2.1912;
392210621318286;-9.4597;0.6434;-2.2534;
392210631422505;-9.4884;0.6458;-2.1601;
392210641511203;-9.5342;0.7056;-2.1505;
392210651615370;-9.5243;0.5835;-2.0210;
392210661719589;-9.5100;0.6386;-2.0907;
392210671815995;-9.4382;0.7370;-2.2080;
392210681920161;-9.5100;0.9236;-2.2008;
392210692024380;-9.5653;0.9882;-2.1075;
392210702134953;-9.5148;0.9260;-2.0474;
392210712239120;-9.5315;0.8399;-1.8272;
392210722343339;-9.5315;0.7992;-1.8224;
392210732467870;-9.4932;0.7561;-2.0617;
392210742572036;-9.5438;0.5477;-2.2032;
392210752676203;-9.5701;0.4134;-2.3276;
392210762772661;-9.5315;0.5907;-2.3013;
392210772876828;-9.5148;0.7681;-2.0234;
392210782981047;-9.4837;0.9691;-1.8990;
392210793066151;-9.4502;1.2879;-1.9158;
392210803169849;-9.5100;1.4530;-1.9181;
392210813273599;-9.5486;1.6807;-2.0402;
392210823373026;-9.5749;1.8126;-2.1099;
392210833476724;-9.6227;1.7883;-1.9516;
392210843580474;-9.5916;1.7836;-1.8823;
392210853682401;-9.5701;1.7979;-1.8703;
392210863786099;-9.5414;1.6687;-1.8751;
392210873889849;-9.4813;1.4148;-1.9397;
392210883990109;-9.4908;1.2446;-1.9804;
392210894093807;-9.5052;1.1800;-1.9828;
392210904197557;-9.4980;1.1417;-2.0234;
392210914307401;-9.4789;1.0101;-1.9421;
392210924411099;-9.5414;0.9093;-1.9062;
392210934514849;-9.5414;0.9021;-1.9158;
392210944607401;-9.5342;1.4100;-1.6929;
392210954711099;-9.4167;1.5248;-1.8679;
392210964814849;-9.6180;1.5873;-1.5876;
392210974926984;-9.5390;1.6304;-1.4007;
392210985030682;-9.5868;2.1814;-1.6929;
392210995134432;-9.5462;2.0856;-1.7934;
392211005241568;-9.4549;1.8796;-1.6977;
392211015345266;-9.5916;1.6902;-1.6953;
392211025449016;-9.5821;1.6472;-1.6164;
392211035547505;-9.4956;1.6759;-1.2353;
392211045651203;-9.5581;1.7118;-1.2209;
392211055754953;-9.5868;1.7094;-1.8607;
392211065881203;-9.6060;2.0638;-3.2524;
392211075984953;-9.4406;2.6438;-4.2802;
392211086088703;-9.3233;0.9500;-3.1424;
392211096170943;-9.3999;-1.3232;-0.9909;
392211106274641;-9.5148;-1.2491;-1.4007;
392211116378391;-9.5557;-1.3591;-1.9684;
392211126491880;-9.4406;-1.0430;-2.5600;
392211136595578;-9.5821;-0.7292;-3.1448;
392211146699328;-9.7017;-1.1195;-2.9794;
392211156786880;-9.5172;-1.2227;-2.2654;
392211166890578;-9.3951;-0.7436;-1.8081;
392211176994328;-9.4813;-0.3580;-1.8799;
392211187103026;-9.5821;-0.3123;-2.1769;
392211197206724;-9.6012;-0.4609;-2.3423;
392211207310474;-9.6132;-0.3170;-2.5002;
392211217411151;-9.5219;0.1187;-2.4858;
392211227514849;-9.3855;0.2506;-2.0234;
392211237618599;-9.4860;0.1570;-1.8200;
392211247724693;-9.6251;0.2961;-1.9899;
392211257828391;-9.5797;0.5716;-2.0306;
392211267932141;-9.5219;0.8136;-2.1147;
392211278026359;-9.5845;0.9356;-2.2606;
392211288130109;-9.5291;0.9643;-2.1194;
392211298233859;-9.4597;1.1943;-1.8703;
392211308340630;-9.4980;1.3765;-1.9301;
392211318444328;-9.5629;1.3836;-1.9923;
392211328548078;-9.5438;1.2422;-1.9971;
392211338656307;-9.5533;1.2087;-2.0907;
392211348760057;-9.4525;1.2709;-2.0668;
392211358863807;-9.1555;1.6735;-2.0378;
392211368962818;-9.3114;1.7477;-2.4069;
392211379066516;-9.6467;0.5405;-2.0402;
392211389170266;-9.8982;-0.0464;-1.8966;
392211399241255;-9.8767;-0.2046;-2.0043;
392211409344953;-9.3233;0.2841;-2.2798;
392211419448703;-9.2946;0.4038;-2.6393;
392211429575578;-9.3592;0.8351;-2.7230;
392211439679276;-9.2755;1.3717;-2.5792;
392211449783078;-9.4980;1.6496;-2.6417;
392211459915630;-9.7280;1.3430;-2.3518;
392211470019328;-9.7926;0.9691;-1.8081;
392211480123078;-9.7376;0.9188;-1.8248;
392211490220734;-9.5438;0.7825;-2.2295;
392211500324432;-9.3449;0.4229;-2.6369;
392211510428130;-9.2994;0.1068;-2.9148;
392211520540786;-9.3497;-0.0176;-2.7900;
392211530644536;-9.4884;0.0829;-2.3758;
392211540748286;-9.6012;0.2770;-1.8775;
392211550846672;-9.6586;0.4325;-1.7503;
392211560950370;-9.6969;0.5189;-1.9971;
392211571054068;-9.6084;0.5094;-2.2534;
392211581130943;-9.4932;0.4660;-2.3252;
392211591234641;-9.5004;0.4998;-2.4212;
392211601338391;-9.4837;0.5094;-2.3109;
392211611449693;-9.3832;0.6888;-2.0836;
392211621553391;-9.4454;0.9093;-2.0019;
392211631657141;-9.5581;0.8710;-1.9828;
392211641772401;-9.5653;0.7104;-1.9995;
392211651876099;-9.6060;0.5812;-1.9947;
392211661979849;-9.5486;0.4684;-2.0043;
392211672081880;-9.4789;0.4684;-1.9493;
392211682185578;-9.4669;0.5548;-1.8966;
392211692289328;-9.5100;0.6290;-1.8966;
392211702398286;-9.5557;0.7199;-1.8870;
392211712501984;-9.6060;0.8088;-1.9181;
392211722605734;-9.5821;0.9547;-1.9397;
392211732715266;-9.5510;1.0747;-1.9612;
392211742819016;-9.5076;1.1441;-1.9588;
392211752922766;-9.4525;1.1608;-1.9325;
392211763018964;-9.4310;1.2111;-1.8703;
392211773122661;-9.4884;1.2951;-1.8655;
392211783226411;-9.4884;1.4387;-1.8870;
392211793326932;-9.5195;1.5467;-1.9349;
392211803430630;-9.5486;1.5945;-1.9421;
392211813534276;-9.5004;1.5682;-1.9732;
392211823628859;-9.4645;1.5993;-2.0210;
392211833732505;-9.4645;1.5802;-2.0450;
392211843836151;-9.4765;1.5467;-2.0644;
392211853945682;-9.5100;1.5443;-2.0186;
392211864049380;-9.5052;1.5344;-1.9325;
392211874153026;-9.4860;1.5176;-1.8440;
392211884255057;-9.4908;1.4818;-1.8488;
392211894358755;-9.5148;1.4411;-1.8799;
392211904462401;-9.5267;1.4100;-1.9253;
392211914555214;-9.6132;1.3789;-2.0234;
392211924658859;-9.5749;1.4004;-2.0450;
392211934762505;-9.5390;1.4100;-2.0306;
392211944875057;-9.5510;1.4411;-1.9947;
392211954978755;-9.5195;1.4937;-1.9756;
392211965082401;-9.4956;1.5272;-2.0234;
392211975196724;-9.4860;1.4889;-2.0907;
392211985300422;-9.4502;1.4243;-2.1075;
392211995404068;-9.4047;1.3980;-2.0569;
392212005501516;-9.4238;1.3860;-2.0593;
392212015605214;-9.4454;1.4076;-2.0593;
392212025708859;-9.4334;1.4411;-2.0354;
392212035813182;-9.4143;1.5248;-1.9995;
392212045916880;-9.5195;1.6017;-1.9732;
392212056020526;-9.5653;1.6663;-1.9373;
392212066121776;-9.5629;1.7357;-1.9301;
392212076225474;-9.5291;1.7261;-1.8966;
392212086329120;-9.5195;1.6663;-1.9086;
392212096432766;-9.4837;1.6280;-1.9062;
392212106536464;-9.4669;1.6232;-1.9062;
392212116640109;-9.4310;1.5754;-1.9301;
392212126749328;-9.4621;1.4913;-1.9636;
392212136853026;-9.4765;1.4100;-1.9636;
392212146956672;-9.4932;1.4052;-1.9612;
392212157054224;-9.5342;1.3693;-2.0067;
392212167157922;-9.5557;1.3478;-2.0067;
392212177261568;-9.5267;1.2760;-1.9301;
392212187371411;-9.4980;1.1943;-1.9229;
392212197475109;-9.5653;1.1297;-1.9349;
392212207578807;-9.5988;1.0962;-1.8751;
392212217669901;-9.5366;1.1177;-1.9014;
392212227773547;-9.5486;1.1177;-1.9660;
392212237877193;-9.5964;1.0914;-1.9780;
392212247985682;-9.5868;1.0962;-2.0306;
392212258089380;-9.5701;1.1177;-2.1505;
392212268193026;-9.5414;1.0747;-2.1577;
392212278270005;-9.4573;1.0555;-2.0617;
392212288373651;-9.4262;1.0890;-1.9899;
392212298477349;-9.4837;1.0627;-1.9804;
392212308600474;-9.5172;1.0484;-1.9277;
392212318704120;-9.5462;0.9978;-1.9325;
392212328807818;-9.6395;0.9141;-2.0163;
392212338908286;-9.6036;0.8495;-1.9947;
392212349011984;-9.4813;0.8758;-1.9780;
392212359115630;-9.3832;0.9045;-2.0210;
392212369254172;-9.3736;0.9428;-2.0234;
392212379357870;-9.3784;0.9691;-1.9397;
392212389461568;-9.4167;0.9787;-1.9708;
392212399543547;-9.6036;1.0002;-2.0330;
392212409647245;-9.7352;0.9858;-2.0545;
392212419750891;-9.6802;1.0172;-1.9828;
392212429863911;-9.6132;0.9619;-2.0019;
392212439967609;-9.5629;0.9332;-2.0692;
392212450071255;-9.4549;0.8495;-2.0163;
392212460149328;-9.3784;0.7968;-1.9708;
392212470253026;-9.4190;0.7513;-2.0091;
392212480356672;-9.5390;0.7223;-2.0186;
392212490469224;-9.7256;0.7056;-1.9947;
392212500572922;-9.8719;0.7418;-1.9660;
392212510676568;-9.8456;0.7896;-1.9205;
392212520797766;-9.7496;0.8016;-1.8870;
392212530901464;-9.5797;0.7848;-1.8894;
392212541005109;-9.4095;0.7944;-1.9516;
392212551099745;-9.3760;0.8136;-2.0883;
392212561203443;-9.4071;0.8255;-2.1649;
392212571307089;-9.4597;0.8423;-2.2152;
392212581407661;-9.4669;0.8518;-2.1936;
392212591511359;-9.4765;0.8207;-2.1553;
392212601615005;-9.5172;0.7561;-2.1051;
392212611714745;-9.5414;0.7152;-2.0258;
392212621818443;-9.5124;0.7152;-1.9445;
392212631922089;-9.5028;0.6625;-1.8775;
392212642036307;-9.4908;0.6170;-1.8392;
392212652140005;-9.4717;0.6099;-1.9086;
392212662243651;-9.5052;0.6147;-2.0883;
392212672330474;-9.6873;0.6505;-2.2175;
392212682434172;-9.8264;0.7319;-2.0163;
392212692537818;-9.6371;0.8590;-1.7360;
392212702648495;-9.4980;0.9500;-1.5948;
392212712752193;-9.5219;0.9308;-1.5924;
392212722855839;-9.5148;0.8877;-1.6259;
392212732977349;-9.5510;0.8877;-1.7791;
392212743081047;-9.6730;0.9165;-1.9756;
392212753184693;-9.7017;0.9308;-2.0764;
392212763279901;-9.5028;0.9882;-1.9612;
392212773383599;-9.2632;1.1058;-1.8607;
392212783487245;-9.2922;1.2206;-1.9564;
392212793565943;-9.3736;1.2613;-2.0330;
392212803669589;-9.3879;1.4219;-2.0692;
392212813773286;-9.5315;1.5682;-2.2104;
392212823896203;-9.7902;1.5921;-2.2391;
392212833999901;-9.8432;1.6615;-2.0644;
392212844103547;-9.6395;1.6926;-1.9899;
392212854202557;-9.5195;1.5993;-2.0521;
392212864306255;-9.3568;1.4794;-2.0282;
392212874409901;-9.2249;1.4100;-2.0043;
392212884521203;-9.2683;1.3549;-2.0115;
392212894624901;-9.4238;1.2999;-2.1027;
392212904728547;-9.5219;1.3143;-2.0955;
392212914829224;-9.6108;1.3430;-2.0258;
392212924932922;-9.7137;1.3765;-1.9660;
392212935036568;-9.7472;1.3765;-1.8440;
392212945144016;-9.6826;1.2015;-1.7671;
392212955247714;-9.4214;1.0986;-1.9756;
392212965351359;-9.4262;1.0914;-2.5050;
392212975449328;-9.8073;0.9260;-2.7135;
392212985553026;-9.7089;0.7657;-2.2128;
392212995656672;-9.2393;0.7872;-1.7743;
392213005755943;-9.2273;0.7920;-2.0186;
392213015859589;-9.4502;0.5716;-2.1553;
392213025963234;-9.3592;0.4660;-1.9301;
392213036075266;-9.3162;0.7175;-1.8703;
392213046178964;-9.6921;0.8375;-2.0091;
392213056282609;-9.8982;0.8399;-1.8990;
392213066402661;-9.6562;0.9691;-1.7647;
392213076506307;-9.4693;1.0292;-1.8440;
392213086610005;-9.5219;0.9906;-2.1027;
392213096697557;-9.4310;1.0412;-2.1242;
392213106801255;-9.3712;1.2832;-2.0716;
392213116904901;-9.7567;1.3454;-2.1936;
392213127017349;-10.0995;1.1752;-2.1123;
392213137121047;-9.8767;1.1345;-1.8248;
392213147224693;-9.5916;1.1297;-1.8894;
392213157309328;-9.4454;0.9954;-2.0234;
392213167413026;-9.1843;0.7992;-1.9612;
392213177516672;-8.9830;0.7801;-2.0402;
392213187625734;-9.1053;0.8949;-2.3877;
392213197729432;-9.5100;0.8471;-2.6321;
392213207833078;-9.9006;0.6051;-2.4356;
392213217940682;-9.7878;0.5979;-2.0186;
392213228044380;-9.6036;0.7992;-1.9516;
392213238148026;-9.5004;0.9141;-2.0764;
392213248241672;-9.2731;0.7705;-1.8416;
392213258345318;-9.3688;0.6697;-1.8703;
392213268448964;-9.7878;0.7394;-2.2774;
392213278568286;-9.9580;0.9045;-2.8427;
392213288671932;-9.8815;0.8040;-3.0033;
392213298775578;-9.3832;0.5620;-2.3351;
392213308860839;-8.9830;0.6194;-1.5781;
392213318964536;-9.0933;0.9380;-1.4055;
392213329068182;-9.3616;1.1919;-1.6020;
392213339169745;-9.7472;1.2278;-1.8488;
392213349273443;-10.0370;1.1249;-1.8823;
392213359377089;-10.0732;1.0436;-1.8823;
392213369487036;-9.9150;1.1154;-1.9636;
392213379590734;-9.6036;1.2589;-2.0402;
392213389694380;-9.2297;1.1776;-1.8846;
392213399801516;-8.9399;1.1393;-1.6211;
392213409905266;-8.9351;1.1919;-1.6546;
392213420008911;-9.1531;1.2903;-1.9086;
392213430098234;-9.5749;1.2879;-2.0354;
392213440201880;-9.7591;1.3190;-2.0258;
392213450305526;-9.9030;1.4267;-2.0498;
392213460435370;-9.5940;1.6376;-2.1123;
392213470539068;-9.2536;1.8748;-2.3276;
392213480642714;-9.2970;1.9442;-2.7350;
392213490748599;-9.3832;1.6998;-2.6345;
392213500852297;-9.1364;1.3789;-2.1936;
392213510955943;-9.4932;1.1895;-2.1242;
392213521055578;-9.7376;0.6936;-1.9732;
392213531159276;-8.9710;-0.0224;-1.8033;
392213541262922;-9.9580;1.9298;-2.2487;
392213551358599;-10.4420;0.9571;-1.3552;
392213561462297;-10.3750;1.1201;-1.3098;
392213571565943;-9.9317;0.7343;-1.0941;
392213581666047;-9.3927;0.8734;-1.3720;
392213591769693;-9.2178;1.1441;-1.8248;
392213601873339;-8.9375;1.2685;-1.8846;
392213611977349;-8.8537;1.3645;-1.9995;
392213622081047;-9.2584;1.2736;-2.6536;
392213632184693;-9.8121;0.8925;-3.5518;
392213642290995;-9.9652;0.8231;-3.7795;
392213652394693;-9.4956;0.5477;-2.4093;
392213662498339;-8.8657;0.5237;-0.7947;
392213672589953;-9.2632;0.5644;-0.7301;
392213682693651;-10.2550;1.1297;-2.3542;
392213692797297;-10.3292;1.9274;-3.5734;
392213702911516;-9.3042;1.9585;-3.1591;
392213713015214;-8.8968;2.0351;-3.4753;
392213723118859;-8.7389;1.5153;-2.9554;
392213733225474;-8.3100;0.1235;-1.1611;
392213743329172;-8.8633;0.7801;-0.7756;
392213753432818;-9.8384;1.9896;-1.4653;
392213763533599;-10.4539;2.0856;-1.4103;
392213773637297;-10.8060;1.8221;-1.1204;
392213783740943;-10.2239;1.3813;-1.1827;
392213793860318;-9.8575;0.9787;-1.6451;
392213803964224;-9.5964;1.1154;-2.4308;
392213814068130;-8.6333;1.1201;-2.7805;
392213824157818;-8.3770;1.4746;-3.6838;
392213834261724;-9.8264;1.9609;-5.1473;
392213844365630;-10.6768;1.5730;-4.4572;
392213854466464;-9.0885;1.0340;-2.5672;
392213864570370;-7.9771;1.4746;-3.0200;
392213874674276;-8.3961;1.6663;-3.2883;
392213884783547;-8.2143;1.5153;-1.9588;
392213894887453;-7.7495;1.6065;-1.4797;
392213904991359;-8.8394;1.9346;-2.5720;
392213915092089;-11.1535;1.9872;-3.1014;
392213925195995;-11.3354;1.8820;-2.3542;
392213935299901;-10.0490;1.9322;-2.0955;
392213945398651;-9.4956;2.2436;-2.3204;
392213955502505;-9.3784;2.3010;-1.7671;
392213965606464;-9.0072;1.9872;-0.6054;
392213975713703;-8.4897;1.8939;-0.3706;
392213985817609;-9.2106;2.1646;-1.1850;
392213995921516;-9.4167;2.7993;-2.1673;
392214006012401;-8.9279;3.6882;-3.8991;
392214016116359;-8.1757;4.3875;-4.3687;
392214026220266;-8.5496;4.5482;-3.9473;
392214036333286;-10.8395;5.1876;-4.7545;
392214046437193;-11.1942;4.6175;-5.0922;
392214056541099;-10.5185;3.1780;-4.2467;
392214066624953;-9.1675;2.6004;-3.5662;
392214076728911;-7.5841;2.0952;-2.2845;
392214086832818;-6.9278;1.4865;0.1229;
392214096959589;-8.2621;1.5176;1.4477;
392214107063495;-9.0263;2.4879;0.2976;
392214117167401;-8.5543;3.7050;-2.6345;
392214127270005;-9.3066;4.0570;-4.9292;
392214137373911;-11.2708;2.9025;-3.2931;
392214147477818;-10.7988;1.2589;0.0150;
392214157571464;-8.5304;2.1431;-1.3122;
392214167675318;-6.7840;3.5994;-4.7450;
392214177779276;-8.0632;3.6066;-6.0912;
392214187884901;-10.6744;2.5406;-3.3242;
392214197988755;-11.1365;1.3119;0.4080;
392214208092661;-10.7318;2.1718;-2.6369;
392214218217661;-10.5185;2.5789;-5.9210;
392214228321568;-8.6859;0.7609;-2.0139;
392214238425474;-7.3325;0.4636;0.7528;
392214248493911;-8.0728;1.6807;-2.6321;
392214258597870;-8.5137;0.9643;-5.1114;
392214268701776;-8.2645;0.0637;-4.7928;
392214278846776;-9.6299;0.3272;-4.0167;
392214288950682;-8.4129;0.2124;-4.2610;
392214299054589;-8.8370;-0.5303;-6.7355;
392214309123495;-11.6348;-1.4623;-5.1425;
392214319227401;-9.9724;-1.9702;1.2703;
392214329331359;-7.8715;-2.0252;1.0403;
392214339483026;-8.8226;-2.3988;-4.7761;
392214349586984;-8.9686;-1.1219;-5.1712;
392214359690891;-8.0560;0.1020;-0.5958;
392214369759224;-6.9446;-0.3003;1.2942;
392214379863130;-8.8466;-0.3843;-2.5986;
392214389967036;-11.2923;1.1824;-6.9894;
392214400039172;-9.4238;2.9910;-8.1296;
392214410143078;-10.3053;3.1612;-9.4878;
392214420246984;-11.2493;2.0423;-7.0516;
392214430369328;-7.1626;2.1526;-0.2821;
392214440473234;-6.8728;1.2999;0.8270;
392214450577141;-9.1029;0.1211;-3.9111;
392214460698911;-10.6193;1.4267;-5.4802;
392214470802818;-9.8121;2.1215;-3.0105;
392214480906724;-9.8695;1.1345;-0.8569;
392214490991984;-8.7461;0.6099;-0.4519;
392214501095839;-8.9471;0.4564;-2.7781;
392214511199745;-8.6381;0.8542;-4.8479;
392214521300734;-7.0905;0.2171;-5.0010;
392214531404589;-8.2693;-0.3604;-6.2109;
392214541508547;-11.1245;-0.7053;-4.6801;
392214551623964;-9.3042;-1.5245;0.6811;
392214561727870;-7.2272;-0.8680;1.0068;
392214571831724;-10.3340;-0.0921;-3.5566;
392214581924224;-12.0589;-0.7507;-3.8393;
392214592028130;-11.3354;-1.5532;0.2880;
392214602132089;-8.9160;0.0350;1.3564;
392214612233182;-7.4022;0.3081;-1.9804;
392214622337141;-10.7438;0.4493;-4.5341;
392214632440995;-10.2861;0.1331;-1.4390;
392214642550630;-8.0178;-0.4370;0.3239;
392214652654536;-9.5195;-0.0945;-3.3721;
392214662758443;-11.0551;-0.4609;-4.1530;
392214672858859;-10.5257;-0.8345;-1.4390;
392214682962766;-9.3401;-0.5782;-2.3758;
392214693066672;-10.2072;-0.4418;-3.8871;
392214703169484;-8.8920;-0.6359;-2.3710;
392214713273391;-8.1135;-0.3003;-2.1194;
392214723377297;-10.9834;-0.4178;-2.2510;
392214733501932;-7.0570;-1.0525;-0.7035;
392214743605839;-6.8533;-1.2897;-1.7886;
392214753709745;-15.2617;-1.3065;-4.3687;
392214763794276;-13.0484;-1.1339;-2.7805;
392214773898182;-7.0331;-0.2955;-1.2401;
392214784002089;-8.5902;-0.1304;-3.3242;
392214794114745;-9.2010;-1.4719;-2.7685;
392214804218443;-6.4582;-2.0109;-1.4533;
392214814322089;-7.2009;-1.3878;-4.6729;
392214824420474;-11.6204;-1.3208;-6.2755;
392214834524172;-9.7496;-2.5331;-2.6847;
392214844627818;-8.0656;-2.2911;-1.6259;
392214854727766;-9.3544;-1.6346;-3.3194;
392214864831464;-9.8432;-1.7091;-1.7384;
392214874935057;-7.3181;-1.9101;-0.3012;
392214885039849;-9.7926;-1.2849;-3.5973;
392214895143547;-12.0948;-1.2682;-5.3653;
392214905247193;-10.4324;-1.3328;-4.0813;
392214915341620;-11.3210;-0.0440;-3.1831;
392214925445266;-10.4946;0.5788;-1.6666;
392214935548911;-6.3769;-0.0730;-1.0032;
392214945653130;-6.2163;-1.0693;-2.9578;
392214955756776;-9.3401;-1.3328;-4.7928;
392214965860422;-7.7782;-0.5088;-3.0392;
392214975966880;-6.9230;-0.6622;-3.2405;
392214986070526;-9.4358;-0.9209;-5.8636;
392214996174172;-11.5702;-1.0382;-5.0034;
392215006284536;-11.9752;-0.8560;-2.6345;
392215016388234;-10.0107;0.0589;-1.8607;
392215026491880;-8.5161;-0.0511;-1.4007;
392215036594016;-7.5075;-0.2118;-1.4438;
392215046697714;-8.6548;-0.1759;-1.8248;
392215056801359;-9.6467;0.0494;-2.4835;
392215066925786;-7.8643;-0.1352;-3.3697;
392215077029432;-9.8695;-0.2548;-5.6384;
392215087133078;-8.2741;0.3607;-5.4538;
392215097214120;-9.2513;0.3966;-4.7375;
392215107317818;-11.0192;-0.4992;-5.7748;
392215117421464;-9.8504;-1.2084;-4.1363;
392215127524953;-9.6969;-0.3365;-1.7264;
392215137628651;-9.7161;-0.2500;-0.0449;
392215147732297;-7.7734;-0.7675;-2.1625;
392215157832974;-8.7724;-0.7675;-4.5676;
392215167936672;-8.9375;-0.8225;-3.8608;
392215178040318;-9.8839;-0.1519;-4.0214;
392215188149849;-8.8274;0.3392;-3.5112;
392215198253495;-8.5065;0.1307;-4.2826;
392215208357193;-10.1019;0.7223;-4.1291;
392215218458078;-10.0828;1.3956;-4.6968;
392215228561724;-8.2167;1.4076;-4.8885;
392215238665370;-8.6213;0.3942;-3.5758;
392215248787557;-10.6193;0.9021;-3.3649;
392215258891203;-8.6022;1.4530;-3.3075;
392215268994901;-7.0451;0.5333;-2.4308;
392215279093599;-7.5314;0.5620;-4.5365;
392215289197245;-11.8361;1.0699;-6.3281;
392215299300891;-11.3569;1.8724;-4.1411;
392215309382974;-6.5228;1.2879;-3.1229;
392215319486672;-8.8657;0.7418;-4.8000;
392215329590318;-10.2718;0.2794;-3.8345;
392215339707922;-9.3760;0.5859;-2.9698;
392215349811620;-11.1703;-0.3365;-4.9507;
392215359915266;-9.7974;-1.0932;-2.0668;
392215370032557;-7.3493;-1.0095;-1.2425;
392215380136255;-5.0569;-1.2706;-4.8838;
392215390239901;-9.4597;-2.0515;-4.6825;
392215400301255;-10.7151;-1.4049;-5.3438;
392215410404901;-10.6074;-1.0406;-4.7474;
392215420508547;-8.7266;-1.8598;-1.5565;
392215430623651;-10.0681;-2.4924;-2.1817;
392215440727297;-8.7796;-3.4409;-1.5733;
392215450830943;-9.0335;-3.4265;-2.3180;
392215460942557;-11.2732;-2.9904;-3.3075;
392215471046255;-7.5218;-2.0850;-3.1086;
392215481149901;-8.3746;-2.3797;-5.3414;
392215491252609;-8.5041;-0.3843;-6.4696;
392215501356255;-10.8467;0.6051;-3.4035;
392215511459901;-8.9590;0.8327;-2.4882;
392215521592245;-7.9436;0.6434;-2.6393;
392215531695943;-11.4960;0.5405;-2.1984;
392215541799589;-8.8442;1.4698;-2.7494;
392215551881984;-9.2249;1.4650;-3.0727;
392215561985682;-10.3534;2.1718;-3.3027;
392215572089328;-8.8729;2.5095;-2.3518;
392215582192870;-8.3650;2.1359;-3.0870;
392215592296568;-9.8767;2.4712;-4.6394;
392215602400161;-9.4454;1.9561;-4.7976;
392215612500161;-8.5950;2.1598;-3.3553;
392215622603859;-6.1349;0.9906;-4.9388;
392215632707505;-10.7438;1.0196;-4.8861;
392215642817349;-11.4769;1.8508;-3.7842;
392215652921047;-9.3042;1.0196;-2.1793;
392215663024693;-9.4095;0.6314;-2.1362;
392215673135057;-9.4717;1.2637;-4.1100;
392215683238755;-10.9164;1.0436;-2.2798;
392215693342401;-7.6657;0.5094;-2.4404;
392215703426464;-7.6032;-0.5112;-4.8694;
392215713530109;-9.6156;0.5118;-4.1913;
392215723633755;-7.4883;0.7056;-4.5485;
392215733764224;-9.3281;-0.5925;-5.0874;
392215743867870;-10.2933;-0.3075;-5.6121;
392215753971516;-8.2549;-0.9401;-1.8703;
392215764058703;-6.5061;-1.3017;-3.5160;
392215774162401;-10.7462;-2.0635;-3.2285;
392215784266047;-10.7103;-1.5604;-2.2487;
392215794380682;-11.1607;-1.0454;-3.4035;
392215804484380;-10.4874;-1.7737;-1.0534;
392215814588078;-6.3458;-0.9688;-3.3482;
392215824681307;-9.7735;-1.4097;-4.5293;
392215834785005;-11.1245;-0.6550;-4.2778;
392215844888703;-7.5338;-0.9999;-4.5796;
392215854992141;-8.7290;-0.9736;-5.0922;
392215865095839;-9.2273;0.2195;-2.7613;
392215875199536;-9.4837;-0.7196;-3.7125;
392215885296776;-8.4607;-0.2142;-1.5494;
392215895400474;-7.8284;-0.3027;-2.8618;
392215905504120;-11.6635;0.2483;-4.3639;
392215915608651;-10.3391;1.2999;-1.9421;
392215925712297;-7.8691;0.8518;-2.7541;
392215935815995;-8.3554;0.6984;-4.1076;
392215945915214;-9.8288;1.8221;-4.2275;
392215956018911;-9.4860;1.9155;-3.3553;
392215966122557;-11.1317;2.3297;-4.3424;
392215976226359;-9.6562;1.6902;-1.9540;
392215986330057;-8.5926;1.7883;-2.3566;
392215996433703;-8.4897;1.2398;-2.6177;
392216006533130;-7.1339;1.7357;-3.1325;
392216016636828;-8.1709;1.8700;-5.7150;
392216026740474;-13.0627;2.4951;-5.8493;
392216036844172;-11.3521;2.4114;-3.0990;
392216046947818;-6.4534;0.8566;-2.0979;
392216057051516;-3.8638;-0.4083;-1.9588;
392216067182245;-7.9002;1.3382;-4.3519;
392216077285943;-11.5822;1.6496;-6.6374;
392216087389641;-11.0551;0.6170;-5.5400;
392216097477141;-6.7959;-0.0921;-2.4380;
392216107580839;-8.4535;-1.0669;-4.3735;
392216117684536;-8.2143;-1.1892;-3.7340;
392216127792453;-9.6395;-2.3653;-4.7498;
392216137896151;-9.8839;-3.1654;-3.9903;
392216147999849;-12.4756;-2.5379;-2.2678;
392216158097453;-8.2980;-1.9606;-2.6800;
392216168201203;-6.8680;-3.0529;-2.9076;
392216178304849;-10.1354;-2.9210;-3.6571;
392216188406047;-10.5760;-2.0228;-5.1855;
392216198509693;-9.2273;-1.0071;-1.8296;
392216208613391;-7.2918;0.0446;-2.3327;
392216218724068;-8.8107;-1.0908;-5.0707;
392216228827766;-11.0695;0.2674;-3.3266;
392216238931464;-11.0504;1.1943;-2.8546;
392216249010422;-9.0335;1.2951;-3.2859;
392216259114120;-7.3875;0.7247;-1.5613;
392216269217766;-5.4616;0.4998;-4.6513;
392216279346099;-10.3750;1.5658;-6.3114;
392216289449849;-11.9560;2.7754;-7.2625;
392216299553495;-11.0695;3.6185;-3.6021;
392216309647141;-7.4477;3.6616;0.4678;
392216319750839;-7.2488;2.0856;0.2282;
392216329854536;-10.8491;1.2326;-2.2487;
392216339983495;-12.2172;2.0279;-4.0143;
392216350087193;-12.4469;1.1465;-3.6838;
392216360190891;-8.4105;1.4100;-0.7708;
392216370268339;-5.7900;2.2101;-1.7169;
392216380372036;-6.0197;1.2015;-4.1363;
392216390475682;-9.4741;1.0627;-5.6216;
392216400593547;-8.9638;1.1776;-3.6933;
392216410697297;-6.7361;0.3607;-6.6709;
392216420800995;-9.4908;-1.8335;-5.5113;
392216430891047;-8.3052;0.3296;-2.7565;
392216440994745;-9.3688;0.3153;-2.7087;
392216451098391;-11.4314;-1.2419;-3.3362;
392216461230214;-10.1354;-0.7579;-1.1037;
392216471333911;-4.9059;-1.6633;-0.9455;
392216481437609;-10.4276;-1.3831;-4.4022;
392216491511464;-14.5262;-0.5614;-6.2874;
392216501615161;-9.4023;1.1417;-2.5313;
392216511718807;-6.6069;0.9763;-1.7886;
392216521849536;-8.2813;-1.4432;-7.0445;
392216531953234;-11.9414;0.5309;-7.0229;
392216542056932;-10.7175;2.9838;-3.0057;
392216552138911;-8.6429;2.0904;-0.9960;
392216562242609;-7.3875;1.8389;-1.0487;
392216572346307;-5.9719;0.1403;-3.5662;
392216582453911;-6.6715;-0.0392;-5.7269;
392216592557609;-12.1522;1.4674;-5.5857;
392216602661307;-13.5344;3.1202;-2.9028;
392216612763078;-7.9074;2.3707;-0.7756;
392216622866776;-5.7323;0.2626;-2.0426;
392216632970474;-8.6094;-1.5867;-3.4107;
392216643077974;-14.5238;0.0852;-5.2863;
392216653181672;-13.7405;0.8518;-0.9407;
392216663285370;-3.9861;-0.1591;1.5529;
392216673392141;-4.7647;-2.0970;-1.5685;
392216683495891;-11.7715;-0.1304;-5.3486;
392216693599589;-12.2674;-1.0860;-4.4668;
392216703693703;-9.6802;1.2736;-4.0214;
392216713797401;-6.3120;-1.1940;-1.7288;
392216723901099;-8.8633;-2.3916;-3.9808;
392216734009536;-10.8347;-1.3089;-3.1448;
392216744113234;-7.1411;-0.0129;-1.9253;
392216754216932;-6.4367;-1.8574;-4.5245;
392216764306203;-10.9714;-2.2648;-7.2625;
392216774409849;-10.0202;-1.0932;-3.8393;
392216784513547;-11.2062;-0.4011;-1.2497;
392216794632974;-16.0475;-1.9196;-0.8115;
392216804736568;-2.3261;-1.3280;-1.6690;
392216814840161;-1.2553;-3.6565;-5.0731;
392216824948495;-14.5143;-2.0731;-7.2003;
392216835052089;-11.7930;3.3431;-3.0392;
392216845155682;-6.9230;3.6233;-0.1430;
392216855251516;-8.7724;2.6749;-4.7856;
392216865355109;-11.1583;2.3034;-4.9005;
392216875458703;-7.4022;4.5171;-1.6499;
392216885566724;-5.5071;4.1982;-4.5054;
392216895670318;-12.6721;1.9753;-7.6050;
392216905773911;-16.6678;4.3493;-3.0966;
392216915874328;-4.6926;4.0810;3.2058;
392216925977922;-6.3338;0.9906;0.8007;
392216936081516;-6.9900;0.6601;-4.0956;
392216946186203;-9.5438;1.1967;-8.2711;
392216956289797;-13.7213;0.9021;-4.9436;
392216966393391;-9.9174;1.4985;-2.9650;
392216976500786;-11.9632;0.3703;-2.4188;
392216986604380;-10.7725;-1.3687;1.8212;
392216996707974;-4.1321;-2.9833;3.0885;
392217006792453;-4.1369;-3.8097;-3.1301;
392217016895995;-13.5344;-4.3247;-4.7665;
392217026999589;-10.4779;-3.0434;-4.1483;
392217037115474;-5.9097;-1.9798;-7.0923;
392217047219068;-11.0791;-2.6767;-6.6541;
392217057322661;-12.1690;-3.2061;4.4444;
392217067428495;-2.0913;-1.1749;4.3436;
392217077532089;-9.3257;-0.3820;-7.1067;
392217087635682;-16.4593;0.4588;-6.8695;
392217097736047;-14.4329;1.6400;-1.2930;
392217107839589;-5.2750;0.4588;0.9661;
392217117943182;-6.1134;-0.4657;-2.2869;
392217128046203;-11.9824;-1.1557;-3.1902;
392217138149797;-10.4850;-0.4705;-3.4394;
392217148253391;-7.2153;0.3416;-5.7604;
392217158343234;-8.5400;-0.4226;-4.0908;
392217168446776;-9.2584;1.2015;-1.6092;
392217178550370;-8.9016;1.6065;-3.4131;
392217188669953;-10.1617;0.2626;-1.8224;
392217198773495;-9.3832;0.2506;-2.7350;
392217208877089;-8.1733;-0.5279;-4.0525;
392217218984172;-8.5519;-0.7436;-4.6609;
392217229087714;-12.4807;-0.8441;-3.0440;
392217239191307;-9.1555;0.1522;-0.4304;
392217249300891;-8.5831;0.4086;1.9169;
392217259404484;-9.4143;-0.5255;1.2033;
392217269508026;-11.9919;-0.1807;-2.7733;
392217279616880;-7.8882;1.3860;-1.5446;
392217289720474;-7.3636;-0.2189;-2.2582;
392217299824068;-14.2412;-1.1701;-8.3716;
392217309931203;-10.8852;-0.3242;-4.4477;
392217320034797;-2.9800;-0.7029;0.1732;
392217330138391;-5.2534;-1.0836;-4.4357;
392217340225995;-13.5200;-0.2931;-6.3305;
392217350329589;-8.9925;-0.6622;-2.1027;
392217360433182;-6.5420;-1.9125;-2.2965;
392217370544224;-14.3731;-1.4934;-4.7327;
392217380647818;-12.4158;-1.7928;0.3769;
392217390751411;-6.5157;-1.6804;3.9317;
392217400850891;-8.0417;-2.4757;0.3072;
392217410954484;-12.5213;-1.5891;-2.5433;
392217421058078;-11.3234;-1.3998;-1.6259;
392217431145943;-8.7075;-0.9497;-1.9564;
392217441249484;-7.7830;-1.5508;-1.9516;
392217451353078;-8.7509;-0.4825;-2.2774;
392217461476307;-8.8083;-0.2955;-1.7169;
392217471579901;-10.5736;-0.6933;-3.2644;
392217481683495;-12.2626;0.3392;-5.6695;
392217491777818;-10.9259;0.2100;-3.4322;
392217501881359;-4.9923;0.4134;-0.9383;
392217511984953;-8.2741;0.7920;-2.7637;
392217522095891;-12.6793;0.9571;-4.0095;
392217532199484;-9.7711;2.5095;-3.1926;
392217542303078;-6.1732;1.7764;1.0857;
392217552404432;-8.1278;0.7343;-0.4137;
392217562508026;-14.4233;1.4865;-2.3949;
392217572611620;-11.4048;0.3009;-2.2247;
392217582717557;-3.5357;-0.4466;-0.7684;
392217592821151;-8.8226;1.4148;-4.2562;
392217602924745;-11.7643;0.9308;-5.1688;
392217613030057;-10.1689;0.8136;-4.3519;
392217623133651;-10.8395;0.8207;-3.4490;
392217633237245;-7.6681;0.3153;-2.2056;
392217643356620;-7.8308;0.9500;-2.3061;
392217653460214;-8.7099;0.0087;-1.3744;
392217663563807;-9.5892;1.1010;-2.5911;
392217673670474;-9.9867;0.5955;-2.9626;
392217683774068;-10.4204;0.9667;-3.5614;
392217693877661;-8.2860;1.3406;-2.8693;
392217703963703;-12.1546;0.8399;-3.2405;
392217714067297;-12.7223;0.8279;-1.7862;
392217724170891;-4.4916;1.4459;0.0054;
392217734264901;-6.0727;0.2554;-0.8282;
392217744368443;-11.2469;0.2602;-2.6393;
392217754472036;-10.9546;0.3200;-3.4729;
392217764598703;-6.8752;0.0374;-3.4059;
392217774702297;-9.2608;-0.7986;-4.0334;
392217784805891;-13.5778;0.4349;-4.7016;
392217794899849;-9.1196;-0.3700;-1.6834;
392217805003547;-6.1229;-0.6670;0.7744;
392217815107245;-10.0585;-0.1304;-0.9694;
392217825201203;-10.1210;-1.0621;-2.0306;
392217835304901;-7.8811;0.1379;-2.5576;
392217845408599;-10.2694;0.1475;-3.1062;
392217855519432;-10.5999;0.9882;-2.1984;
392217865623130;-9.4382;1.4004;-1.0606;
392217875726776;-9.8791;0.5907;-1.8990;
392217885830995;-7.8787;0.1594;-1.6857;
392217895934693;-9.3233;-0.1615;-2.8669;
392217906038391;-9.8934;0.2578;-3.6861;
392217916131880;-11.5343;0.9356;-0.8737;
392217926235526;-8.3387;1.6519;-0.6891;
392217936339224;-11.5008;0.3535;-3.3027;
392217946450786;-11.7069;0.1283;-2.0474;
392217956554484;-5.8451;0.0972;1.2320;
392217966658182;-6.3314;-0.9808;-2.9339;
392217976767349;-14.2149;-0.8010;-5.0659;
392217986871047;-13.0484;0.3942;0.3984;
392217996974745;-2.3979;0.0326;0.6042;
392218007079953;-7.6968;-0.9927;-6.6398;
392218017183651;-15.6305;0.0470;-6.1152;
392218027287349;-5.3707;-0.7268;1.4213;
392218037384224;-7.3612;-0.4490;-0.4881;
392218047487922;-13.5153;0.0446;-4.6992;
392218057591620;-11.6061;-0.1591;-0.1597;
392218067694641;-6.2378;-0.5997;0.6930;
392218077798339;-12.9835;-0.9425;-1.3935;
392218087902036;-12.3751;0.3823;-1.6475;
392218097994276;-7.8547;-0.0631;-0.7804;
392218108097922;-9.7902;-0.9090;0.0054;
392218118201620;-7.0283;-0.0873;-0.5743;
392218128304693;-8.0273;-0.8177;-1.9205;
392218138408339;-10.5377;-1.0478;-5.0204;
392218148512036;-10.4707;-0.4107;-4.4046;
392218158617036;-10.3101;-0.9209;-2.9028;
392218168720734;-9.7496;-0.5877;-2.7948;
392218178824380;-8.4682;-0.1352;-0.2557;
392218188933339;-9.3568;0.8231;0.6858;
392218199037036;-9.6515;0.7609;-1.4079;
392218209140734;-10.9403;-0.0392;-1.3481;
392218219250057;-9.3162;0.6745;-1.8559;
392218229353755;-10.0274;0.8901;-0.7804;
392218239457453;-9.5342;1.4985;-0.7899;
392218249547661;-5.9312;0.3200;-3.0224;
392218259651359;-7.1001;0.3607;-3.7555;
392218269755057;-10.9451;2.0303;-7.3295;
392218279903547;-13.7261;1.7596;-7.1450;
392218290007245;-8.7051;1.7668;-2.4308;
392218300110943;-5.2534;0.8495;-1.1252;
392218310156776;-11.6782;0.9739;-3.3553;
392218320260422;-12.0565;1.1058;-2.5026;
392218330364120;-7.3397;1.2494;-0.7516;
392218340485318;-6.0775;0.5429;-2.7111;
392218350588964;-12.0996;-0.1831;-2.7924;
392218360692661;-11.5582;1.4004;-2.1912;
392218370800734;-5.8235;0.7992;-1.7384;
392218380904432;-9.1316;-0.0607;-3.0392;
392218391008130;-12.7128;0.2339;-5.7054;
392218401148911;-7.7758;0.0541;-3.8536;
392218411252609;-7.1145;-0.3365;-2.6441;
392218421356307;-10.8900;-0.8249;-3.0511;
392218431420995;-10.0561;0.1187;-3.1878;
392218441524693;-8.7820;0.0111;-1.9181;
392218451628391;-9.0263;-0.6622;-1.6690;
392218461727714;-8.8107;-0.1280;-3.7412;
392218471831359;-11.5128;-0.0272;-2.5648;
392218481935057;-10.2263;0.1810;-0.9048;
392218492045734;-7.0427;-0.3532;-0.7684;
392218502149432;-10.2359;-0.9473;-2.9291;
392218512253130;-9.4932;-0.3365;-3.6332;
392218522374641;-7.2129;-0.2285;-4.1698;
392218532478339;-9.9628;0.0709;-4.9627;
392218542582036;-9.8480;1.0771;-3.7340;
392218552668651;-10.5449;1.1297;-1.9110;
392218562772349;-7.6223;0.3416;-3.1400;
392218572876047;-7.8547;0.5046;-3.3362;
392218582979328;-11.0169;0.6434;-2.5289;
392218593083026;-12.8662;0.7008;-1.6953;
392218603186724;-10.2670;0.5764;0.9254;
392218613285995;-5.6151;-0.0344;-0.6461;
392218623389693;-6.5683;-0.2285;-4.4548;
392218633493391;-10.1067;-0.1567;-4.6537;
392218643599068;-12.9619;1.4961;-3.7268;
392218653702766;-10.2000;2.3444;-3.7914;
392218663806464;-6.5803;1.1106;-2.9435;
392218673935474;-7.3134;0.8758;-1.9636;
392218684039172;-12.2554;0.5189;-0.6317;
392218694142870;-11.0504;1.4794;-0.8330;
392218704234536;-8.6022;0.5548;-2.0521;
392218714338234;-10.0995;0.2148;-2.9052;
392218724441932;-11.7093;0.2554;-1.1204;
392218734540891;-6.5949;0.3559;0.2809;
392218744644589;-6.2330;-0.0802;-3.2142;
392218754748286;-13.7453;0.5740;-5.2959;
392218764867141;-15.2306;0.4636;0.2498;
392218774970839;-6.3745;-0.0224;1.7590;
392218785074536;-7.2559;-0.8584;-3.9688;
392218795164901;-13.0890;-1.1557;-3.3482;
392218805268599;-7.9890;-0.7675;0.2139;
392218815372297;-5.5696;-1.3878;-2.8522;
392218825490474;-10.2742;-1.3232;-5.0946;
392218835594172;-13.9035;-0.1998;-1.5613;
392218845697870;-9.5653;-2.0180;2.6166;
392218855784328;-4.1946;-1.4910;-1.0080;
392218865888026;-10.5832;-2.0085;-5.6839;
392218875991724;-12.4708;-1.8622;-3.1038;
392218886081776;-11.2469;-1.1148;1.3301;
392218896185422;-9.2154;-1.3663;0.5133;
392218906289120;-8.1302;-1.1581;-3.0105;
392218916406411;-12.4182;-0.8441;-4.9938;
392218926510109;-10.0585;-0.4131;-1.7985;
392218936613807;-6.5300;-0.2453;-1.3169;
392218946711828;-11.3833;0.2243;-3.4274;
392218956815526;-8.1661;1.5200;-0.0879;
392218966919224;-4.8891;0.3918;-1.9205;
392218977025057;-13.7812;1.0172;-7.5141;
392218987128755;-13.5873;1.3262;-4.5413;
392218997232453;-6.9302;1.8508;-0.6772;
392219007349901;-6.3697;-0.7340;-0.9861;
392219017453599;-13.0986;1.9394;-2.6154;
392219027557297;-9.7783;0.9619;-1.0295;
392219037642141;-2.4434;-1.0669;-0.2486;
392219047745839;-10.4468;1.4219;-4.6729;
392219057849536;-16.4785;2.5693;-4.0358;
392219067967661;-7.9795;0.9739;-0.3467;
392219078071411;-6.7122;-0.6694;-3.3266;
392219088175057;-9.5533;0.2722;-4.8909;
392219098266099;-8.7915;-0.0440;-3.3505;
392219108369797;-12.1594;1.1608;-3.8106;
392219118473495;-7.6511;0.1475;-2.4332;
392219128578651;-5.0282;-0.0320;-3.3817;
392219138682349;-14.2723;0.2387;-3.7077;
392219148786047;-9.0790;0.4612;-2.2869;
392219158893703;-8.4057;0.1929;-0.5815;
392219168997401;-9.3497;-1.1486;0.3000;
392219179101099;-6.9398;-1.6298;-1.7025;
392219189197766;-10.5473;-0.2931;-4.3687;
392219199301411;-12.5453;0.0111;-3.3721;
392219209405161;-11.4362;-1.2179;-2.9124;
392219219500370;-5.7443;-0.4490;-2.9219;
392219229604068;-10.6648;1.0507;-2.6895;
392219239707766;-11.1365;1.2302;-2.3471;
392219249798495;-4.4052;0.0422;-0.4496;
392219259902193;-5.2340;0.4181;-3.4561;
392219270005891;-15.1107;1.4937;-7.5906;
392219280155891;-11.5223;1.9777;-3.6165;
392219290259589;-6.4199;1.9083;-1.5613;
392219300363286;-9.5462;0.2076;-2.9674;
392219310435005;-8.7123;0.8973;-2.5744;
392219320538651;-10.2646;0.5333;-1.7503;
392219330642349;-8.8944;0.4926;-1.7145;
392219340752349;-7.8811;0.6960;-1.0702;
392219350856047;-12.6888;0.0039;-1.9971;
392219360959745;-13.7524;-0.2094;-1.9325;
392219371081828;-6.3769;-0.0873;-0.0401;
392219381185526;-9.9102;-1.1339;-2.3447;
392219391289224;-10.3846;-0.3027;-2.2223;
392219401373078;-11.5822;0.6793;-1.8105;
392219411476776;-8.0871;0.3224;-2.9841;
392219421580474;-8.1565;0.0206;-4.3208;
392219431684380;-8.7027;0.3511;-3.3601;
392219441788026;-5.7514;0.3655;-3.3840;
392219451891724;-5.5505;-0.2979;-3.8225;
392219462004641;-7.0929;-0.4490;-4.1124;
392219472108339;-17.9590;-0.1113;-2.1027;
392219482212036;-28.0011;0.2195;2.3148;
392219492330891;-7.8356;-1.4073;7.6926;
392219502434589;1.8494;-5.7287;2.9327;
392219512538286;-7.5338;-4.2960;-7.0325;
392219522622453;-15.5420;0.1068;-3.6260;
392219532726151;-9.4956;0.5477;1.0140;
392219542829849;-5.7012;-0.7053;-2.0378;
392219552928234;-7.2177;-0.2620;-8.2567;
392219563031880;-7.7327;-0.1519;-8.3333;
392219573135578;-10.9451;0.6649;-6.1415;
392219583247766;-11.5989;1.4722;-3.3697;
392219593351464;-6.7792;1.4626;-1.9421;
392219603455161;-10.3029;-0.2500;-2.0979;
392219613560474;-11.7787;0.7920;-0.8713;
392219623664172;-5.6151;-0.5399;0.5922;
392219633767870;-9.1843;-0.4370;-1.5108;
392219643868807;-12.7247;0.2578;-0.1836;
392219653972505;-8.5807;0.5477;1.3445;
392219664076203;-9.8264;-0.4107;0.5180;
392219674183391;-5.2534;-1.1653;-1.4868;
392219684287141;-7.1315;-1.6250;-14.1233;
392219694390786;-18.8022;0.9811;-16.6863;
392219704490266;-12.6769;1.4698;-0.1717;
392219714593964;-5.7443;1.2685;5.8217;
392219724697661;-7.8930;1.6376;0.1995;
392219734799536;-10.4276;1.0220;1.1578;
392219744903234;-9.2082;0.1666;2.0201;
392219755006932;-10.4324;-0.6718;-1.7695;
392219765124120;-11.3210;-0.3123;-1.3241;
392219775227818;-7.4668;-0.9473;0.5300;
392219785331516;-10.1593;-0.6933;-2.4117;
392219795417974;-12.4660;-0.4035;-4.5006;
392219805521568;-6.7265;-1.3543;-1.2377;
392219815625161;-6.9805;-2.2911;-2.3061;
392219825718651;-11.7093;-1.4480;-5.2573;
392219835822245;-11.0192;-0.2070;-1.5251;
392219845925839;-6.4343;-1.9005;-0.5838;
392219856037870;-3.7801;-2.5020;-4.0717;
392219866141464;-12.6362;-0.6933;-5.1760;
392219876245005;-9.8360;-1.2873;-0.5336;
392219886348026;-10.7486;-1.0884;-0.2318;
392219896451568;-14.6821;0.7370;-0.9000;
392219906555161;-9.1747;-0.5877;0.9374;
392219916660995;-5.9121;-2.6288;-0.4594;
392219926764589;-7.5171;-0.1711;-4.5437;
392219936868182;-13.4746;0.6912;-3.2692;
392219946975161;-10.7653;0.9452;-1.0845;
392219957078755;-7.1961;0.7944;-1.5517;
392219967182349;-7.8021;0.9715;-4.3184;
392219977289536;-11.2373;1.5754;-2.9554;
392219987393130;-10.1641;1.8051;-1.7360;
392219997496724;-9.8504;1.6400;-2.5744;
392220007600578;-9.7161;0.4134;-3.1902;
392220017704172;-7.2870;1.1177;-2.5696;
392220027807766;-7.8117;1.6304;-2.5409;
392220037918911;-12.0589;1.2832;-3.8010;
392220048022505;-11.6925;1.3334;-1.1204;
392220058126151;-7.1097;0.5501;-0.9502;
392220068212766;-7.9819;-0.9544;-1.0965;
392220078316359;-7.7183;0.8040;-2.4332;
392220088419953;-10.9187;-0.1567;-2.1745;
392220098527349;-9.9197;1.2736;-1.8033;
392220108630943;-8.2645;0.9332;-5.5857;
392220118734589;-12.8447;0.3655;-5.8205;
392220128860682;-9.6060;1.1225;0.0150;
392220138964328;-4.7982;-0.0081;0.1564;
392220149067922;-7.9651;0.5477;-4.5030;
392220159212870;-13.9537;0.3870;-2.8570;
392220169316411;-15.6568;0.7896;1.0116;
392220179420005;-4.9899;-0.3700;1.4477;
392220189498599;-2.7165;-1.4121;-2.7015;
392220199602193;-11.4864;0.3200;-6.6948;
392220209705786;-15.1131;-0.3051;-3.6212;
392220219778078;-8.9614;-0.7029;0.0918;
392220229881672;-7.3612;0.6003;-1.1396;
392220239985266;-8.4392;-1.0813;-2.5696;
392220250103807;-7.6657;-0.8082;-3.0870;
392220260207401;-12.9236;-0.1735;-4.2467;
392220270310995;-14.1550;-0.9257;-0.9598;
392220280394953;-6.9111;-1.2395;2.1805;
392220290498547;-7.3851;-0.8536;-0.3754;
392220300602193;-8.7604;-0.4801;-3.5566;
392220310715057;-11.7643;0.1834;-4.0525;
392220320818651;-8.1398;0.4205;-2.7541;
392220330922245;-9.8934;0.4636;-4.8598;
392220341033078;-11.3521;1.0651;-3.5518;
392220351136672;-7.6199;0.4014;0.8246;
392220361240266;-7.7806;-1.2514;-1.9660;
392220371347453;-11.1799;-0.3485;-4.0597;
392220381451047;-13.1034;0.4134;-2.4332;
392220391554641;-9.5195;-0.1519;-1.2425;
392220401637036;-6.5925;-2.2720;1.2535;
392220411740630;-8.5519;-0.7340;-0.3108;
392220421844224;-12.0709;-0.4202;-3.1615;
392220431952661;-9.5892;-0.1448;-2.8932;
392220442056255;-9.4334;0.6075;-2.7948;
392220452159901;-8.5065;-0.7053;-2.0450;
392220462254120;-6.5827;0.3009;-2.5433;
392220472357661;-9.2632;0.6170;-3.9616;
392220482461255;-10.7246;0.8471;-4.7450;
392220492576984;-11.6204;1.7548;-4.7402;
392220502680578;-8.3411;1.2015;-1.6666;
392220512784224;-6.6547;0.8136;-0.8521;
392220522874745;-10.2048;1.5395;-2.8044;
392220532978391;-12.9523;1.8126;-1.3385;
392220543081984;-10.8419;0.8949;1.1746;
392220553186776;-6.8967;0.7944;-0.4065;
392220563290318;-5.6342;0.4564;-4.3998;
392220573393911;-9.4190;1.2685;-5.0515;
392220583508078;-11.7954;1.9585;-3.6308;
392220593611672;-11.3282;1.3693;-2.8813;
392220603715266;-12.6194;1.7429;-2.8307;
392220613820370;-9.9724;0.9356;0.1516;
392220623923964;-7.0929;-0.5686;-0.7540;
392220634027557;-9.2417;-0.2477;-2.7948;
392220644122505;-9.5291;0.8303;0.1277;
392220654226099;-7.7423;0.7729;-0.8450;
392220664329693;-10.1115;0.9380;-5.9904;
392220674454224;-10.0851;0.8112;-4.2921;
392220684557818;-6.4247;0.5859;-2.4332;
392220694661411;-10.8562;0.2506;-4.5939;
392220704762661;-12.7247;-0.3170;-1.6164;
392220714866255;-3.1765;-0.5423;0.6715;
392220724969849;-7.4261;-0.6742;-3.9951;
392220735069068;-13.2159;0.1810;-5.5427;
392220745172661;-8.7939;-0.4418;-1.9971;
392220755276255;-8.6405;-0.6598;-2.8451;
392220765353964;-11.4000;0.4660;-3.2118;
392220775457505;-8.6046;-0.9305;0.8967;
392220785561099;-8.2765;-1.4910;-0.4738;
392220795694380;-9.5510;-1.1797;-3.0631;
392220805798130;-10.6505;-0.8922;-3.5518;
392220815901880;-12.0039;-0.2070;-3.8656;
392220826000734;-7.8858;-0.5925;-1.6738;
392220836104484;-9.3305;-0.4848;-2.9315;
392220846208234;-11.5152;0.1331;-2.6106;
392220856308651;-9.6873;-0.3075;0.3673;
392220866412401;-11.9800;-0.2572;-0.3778;
392220876516151;-8.0010;-0.8465;0.2809;
392220886612193;-5.6079;-1.3232;-1.0080;
392220896715943;-9.4884;0.2985;-4.0382;
392220906819693;-9.7998;-0.6335;-7.3558;
392220916921880;-15.4343;-0.7747;-1.0534;
392220927025630;-2.1775;-1.3424;6.8662;
392220937129380;-6.3168;-0.5351;-5.3079;
392220947242870;-18.3712;1.1704;-9.3395;
392220957346620;-11.8026;-0.0559;3.4789;
392220967450370;-0.2515;-2.2217;1.4139;
392220977548286;-10.8371;-0.6215;-8.3166;
392220987652036;-12.1834;1.0675;-3.7292;
392220997755786;-9.7328;-0.6909;3.3592;
392221007877818;-8.3602;-0.4513;-0.6173;
392221017981568;-10.2455;0.6051;-4.6418;
392221028085318;-11.3330;0.4349;-2.3180;
392221038144901;-9.9269;0.1642;-0.0497;
392221048248651;-11.9366;0.1307;-1.0104;
392221058352453;-11.3641;-0.9066;0.2378;
392221068470943;-7.1459;-0.8201;-0.5647;
392221078574693;-7.7734;0.4660;-5.3940;
392221088678391;-9.2803;-0.0802;-3.9063;
392221098807453;-1.9020;0.2698;0.3482;
392221108911255;-6.0509;0.5883;-5.6527;
392221119014953;-13.4985;2.0495;-7.2553;
392221129102818;-10.2957;0.8518;-1.3002;
392221139206516;-6.6284;1.2661;-1.9277;
392221149310318;-11.0862;0.7561;-5.0803;
392221159485266;-12.4134;-0.3796;-1.9445;
392221169589068;-18.4191;-0.1831;2.1398;
392221179692818;-15.5348;0.9571;6.6482;
392221189703130;-6.6739;-1.1725;4.5114;
392221199806880;-5.8307;-1.9172;-1.1372;
392221209910630;-7.4118;0.6338;-4.1291;
392221220050839;-12.7080;1.9681;-6.0263;
392221230154536;-9.9365;1.1154;-4.0406;
392221240258339;-5.1742;1.7046;-3.5207;
392221250357089;-7.7590;1.3836;-7.3989;
392221260460839;-8.2119;0.8710;-7.7417;
392221270564589;-12.0661;1.7189;-5.1712;
392221280662818;-10.2622;-0.0057;-1.0247;
392221290766568;-5.2340;-0.1926;0.3649;
392221300870318;-6.3458;-0.0224;0.3577;
392221310982505;-13.2541;0.0159;2.0177;
392221321086255;-12.9571;0.1475;3.7950;
392221331190005;-5.7634;-0.3796;-1.1420;
392221341266620;-5.1503;-1.9989;-4.1124;
392221351370370;-11.3043;-0.3796;-5.7293;
392221361474068;-10.2814;0.7175;-3.9520;
392221371589797;-7.9193;0.8806;-5.7628;
392221381693547;-12.3272;1.0938;-11.8140;
392221391797297;-10.5616;0.5644;-10.4557;
392221401907193;-8.0656;1.0412;-2.0115;
392221412010943;-10.4539;2.5932;3.9389;
392221422114693;-8.6333;1.6400;5.6372;
392221432206203;-11.9151;0.3942;2.0321;
392221442309953;-11.4864;0.4421;-0.1836;
392221452413703;-6.5348;0.0182;0.6739;
392221462517609;-10.8948;-0.5327;-0.2797;
392221472621307;-10.3463;0.6099;-2.7876;
392221482725109;-7.8643;-0.3772;-5.6599;
392221492831047;-11.2708;0.1666;-5.3773;
392221502934797;-12.9739;0.1834;0.0269;
392221513038547;-5.3492;-0.5806;-0.0090;
392221523150526;-3.9981;-1.1940;-6.9416;
392221533254276;-11.8720;0.3631;-7.1812;
392221543358026;-11.6782;0.8279;-0.0353;
392221553466568;-9.9150;-0.4250;2.0728;
392221563570318;-7.3612;0.1235;-1.8176;
392221573674068;-7.9675;0.4397;-4.7521;
392221583773026;-11.3474;0.4086;-2.8235;
392221593876776;-11.8959;0.5979;-1.7480;
392221603980526;-10.2407;-0.0200;0.7002;
392221614081568;-8.3913;-0.2740;1.2440;
392221624185318;-7.4261;-0.4968;-2.9650;
392221634289068;-10.9164;-0.2812;-3.5638;
392221644400526;-12.6266;-0.2548;-1.8033;
392221654504276;-8.7509;-0.3891;-1.5156;
392221664608026;-7.3253;-0.3820;-2.8355;
392221674719589;-9.5533;-0.1017;-3.1301;
392221684823339;-10.4109;-0.7077;-2.5528;
392221694927089;-7.6104;-0.7460;-2.9411;
392221705022609;-8.9710;-0.0631;-4.4046;
392221715126359;-13.1154;-0.1902;-2.7517;
392221725230109;-9.8097;-0.4753;0.9565;
392221735331568;-6.3191;-0.1543;0.2306;
392221745435318;-8.7437;0.1116;-3.8177;
392221755539068;-10.1737;0.3655;-4.4815;
392221765621880;-11.5774;0.2913;-2.2534;
392221775725630;-11.2182;0.5309;-0.3203;
392221785829380;-8.0560;0.2411;-0.6843;
392221795943078;-10.2120;0.3990;-3.1376;
392221806046672;-8.2310;-0.2620;-2.8642;
392221816150266;-6.7002;-0.6120;-2.3686;
392221826277766;-10.4372;0.5548;-3.8800;
392221836381359;-9.0359;0.9476;-2.9794;
392221846484953;-8.7939;0.0709;-2.0426;
392221856565266;-14.9121;0.0637;-2.2869;
392221866668859;-8.9088;-0.4490;-0.3634;
392221876772453;-4.1417;-1.2467;-0.5384;
392221886880161;-9.9221;-0.0344;-2.7159;
392221896983755;-12.0111;-0.0993;-0.9885;
392221907087349;-11.5941;-0.3843;-0.0497;
392221917188651;-7.3253;-0.6933;-1.2978;
392221927292245;-8.9136;-0.4418;-4.1459;
392221937395786;-9.9532;0.6314;-4.8287;
392221947498234;-9.6706;-0.4250;-1.3863;
392221957601828;-9.7184;-0.4250;-0.8976;
392221967705422;-8.7341;-0.0248;-2.6752;
392221977821516;-9.7591;0.5333;-2.4141;
392221987925109;-9.1579;-0.8273;-2.4021;
392221998028651;-7.0905;-0.1807;-2.9315;
392222008112401;-11.0049;-0.2716;-3.3888;
392222018215995;-16.3110;0.2626;-1.1228;
392222028319589;-8.1063;0.2076;2.2238;
392222038445891;-4.3478;-0.3867;-0.0425;
392222048549432;-6.7624;-0.9760;-3.8608;
392222058653026;-11.8792;0.4493;-3.6260;
392222068783391;-12.9045;0.0517;-3.3888;
392222078886984;-10.4181;-0.0535;-2.3877;
392222088990526;-6.9900;-0.5423;-0.3371;
392222099047089;-6.0607;-0.6455;-1.5996;
392222109150682;-9.5845;-0.4513;-5.3988;
392222119254224;-13.4483;1.4076;-4.4237;
392222129375474;-12.2746;-0.1137;-0.3706;
392222139479068;-10.3558;-1.2299;1.3612;
392222149582609;-5.7996;-0.5566;0.4726;
392222159651047;-0.4576;-0.6957;-3.0870;
392222169754589;-8.5424;1.3406;-7.2673;
392222179858182;-12.7849;1.9011;-5.1520;
392222189968443;-6.0559;0.5835;-1.7671;
392222200071984;-8.8561;-0.2620;-4.6920;
392222210175578;-12.6912;1.3765;-3.9879;
392222220293078;-7.9986;0.8901;-0.2222;
392222230396672;-3.6915;0.8518;-1.8464;
392222240500266;-11.7356;0.5859;-4.6059;
392222250599901;-17.1996;-0.1113;0.7385;
392222260703443;-15.0197;-1.0813;6.2073;
392222270807036;-9.2632;-1.0741;4.2694;
392222280922349;-8.0871;-1.4934;-2.3518;
392222291025943;-13.3717;-0.9449;-3.7412;
392222301129536;-14.9073;-0.9353;0.0197;
392222311263807;-6.9350;-0.7890;1.2272;
392222321367401;-4.1776;-0.8321;-2.4452;
392222331470995;-14.2220;0.7968;-5.5953;
392222341525318;-13.6496;0.2243;-3.2883;
392222351628859;-6.9063;-0.8922;-1.8296;
392222361732453;-11.6013;-0.5160;-2.4691;
392222371855734;-10.9283;-1.1868;2.8920;
392222381959328;-6.6858;-0.9975;4.3654;
392222392062922;-10.5162;-0.8779;-2.2774;
392222402164484;-10.9259;-0.8898;-2.7039;
392222412268078;-6.6691;-0.2213;0.2354;
392222422371672;-8.0560;0.5142;-3.6571;
392222432466255;-9.5172;0.6410;-5.2597;
392222442569797;-5.5768;-0.1950;-3.7364;
392222452673391;-6.8680;-0.1089;-6.3571;
392222462775630;-10.4276;0.8136;-10.6161;
392222472879172;-9.2178;1.3478;-8.9800;
392222482982766;-7.5218;1.2927;-6.4217;
392222493102974;-9.7448;1.6496;-3.4777;
392222503206568;-10.2742;1.9202;-2.2175;
392222513310161;-10.2598;1.0125;-0.9168;
392222523402870;-8.3363;1.8580;1.3875;
392222533506464;-5.9456;0.6745;2.4129;
392222543610057;-11.4960;0.4950;-2.2056;
392222553704484;-16.8117;1.1201;-3.5830;
392222563808026;-11.8696;-0.3820;-0.0185;
392222573911620;-8.8250;-1.0860;-1.9636;
392222584032818;-7.0307;-1.0765;-2.6752;
392222594136411;-7.6439;-0.1089;-3.0057;
392222604240005;-10.8562;0.5453;-4.1650;
392222614339016;-11.2373;0.5835;-2.1434;
392222624442609;-10.0274;2.0207;-1.8248;
392222634546203;-7.1435;1.2206;-1.5227;
392222644644797;-5.8666;0.6410;-0.7349;
392222654748339;-10.1402;1.4937;-1.9612;
392222664851932;-10.0322;1.2087;-1.9636;
392222674966620;-8.5902;1.2709;-3.0344;
392222685070214;-7.3828;0.5596;-1.7599;
392222695173807;-6.4558;-0.0248;-0.4690;
392222705265109;-11.7954;0.0781;-2.2606;
392222715368651;-14.6605;-0.0921;-1.2377;
392222725472245;-7.6633;-1.1243;0.7481;
392222735582245;-12.5716;-2.6097;0.6188;
392222745685839;-12.7992;-2.1784;1.2631;
392222755789432;-7.6609;-1.2778;-0.0138;
392222765914849;-12.3990;-2.1473;-2.2199;
392222776018443;-9.0861;-0.9879;-2.4380;
392222786121984;-5.2774;-0.8058;-3.8393;
392222796211099;-12.5142;-0.4035;-4.3687;
392222806314797;-16.7587;-0.1519;-0.9096;
392222816418495;-5.9001;0.8877;0.3697;
392222826525682;-4.2736;0.5979;-3.0703;
392222836629380;-9.6323;-0.0153;-4.6370;
392222846733078;-13.5562;1.2063;-2.8187;
392222856824224;-7.9146;0.9308;-0.5743;
392222866927922;-9.9389;1.3956;-3.3458;
392222877031620;-6.7074;0.8447;-2.8669;
392222887133807;-5.7826;0.1044;-0.8306;
392222897237505;-7.8715;0.1379;-3.0535;
392222907341203;-7.2799;0.9404;-4.4405;
392222917445891;-9.8695;0.4564;-6.0048;
392222927549589;-13.0220;1.0077;-6.4935;
392222937653286;-8.3219;0.9906;-1.8607;
392222947754484;-6.3410;1.9777;-4.0358;
392222957858130;-13.4172;1.7501;-4.4213;
392222967961828;-13.8485;2.0423;0.0078;
392222978062193;-9.8647;0.3440;0.1181;
392222988165891;-9.1890;-0.5207;-0.9407;
392222998269536;-11.7858;0.2148;3.8312;
392223008368234;-10.9834;-1.2156;4.1976;
392223018471880;-9.8192;-1.1988;-6.0359;
392223028575578;-15.1155;-0.4537;-5.8612;
392223038706411;-2.7619;-0.8946;2.4511;
392223048810109;4.7886;-1.6226;-2.8860;
392223058913807;-10.5233;0.1259;-12.7938;
392223069003911;-17.6596;1.3190;-6.5486;
392223079107661;-14.2149;-1.2802;4.1498;
392223089211307;-10.3220;-3.9870;3.9700;
392223099306568;-12.5142;-3.3476;1.4501;
392223109410318;-6.4152;-3.0410;3.3520;
392223119514016;-5.0904;-3.1439;1.2535;
392223129612974;-10.4994;-0.3724;-5.0874;
392223139716672;-12.0326;0.7247;-3.2022;
392223149820370;-8.8896;-0.5255;-2.1721;
392223159923495;-12.3679;-1.6442;-1.9301;
392223170027193;-10.5616;-1.2012;-3.6117;
392223180130891;-10.5377;-0.9879;-5.6551;
392223190259328;-7.2488;0.0613;-2.0282;
392223200363026;-6.4343;-0.8755;-1.0678;
392223210466724;-9.9030;-0.1232;-4.5030;
392223220571307;-10.8900;0.9595;-5.2382;
392223230675005;-9.8192;1.4913;-1.5517;
392223240778703;-6.7744;1.0531;0.1158;
392223250862818;-11.6758;0.8207;0.1899;
392223260966516;-9.1173;0.9954;4.1186;
392223271070161;-10.7007;-1.4527;4.1282;
392223281176724;-14.5884;-0.4537;-2.4954;
392223291280422;-3.0206;-0.2046;-5.9809;
392223301384120;-3.0350;-1.3113;-8.6207;
392223311488703;-15.3550;0.9165;-11.1697;
392223321592401;-15.9491;3.2043;-2.6297;
392223331696099;-10.3989;2.6653;4.4563;
392223341808234;-5.5023;1.0507;1.1985;
392223351911932;-6.8127;0.5572;-3.3003;
392223362015630;-9.2707;1.3047;-1.8799;
392223372124328;-11.6901;1.8413;-1.7456;
392223382228078;-10.7031;1.4698;-2.3806;
392223392331724;-13.0771;0.9165;-1.3935;
392223402421724;-12.1355;0.3057;0.0197;
392223412525422;-5.3611;-0.3051;1.1770;
392223422629120;-7.2296;-0.6048;-1.1372;
392223432726255;-9.1196;-1.8263;-2.0282;
392223442829901;-11.0169;-1.1390;-1.1252;
392223452933599;-9.3855;-0.4992;-0.8043;
392223463036776;-10.6672;-0.6742;-1.1539;
392223473140422;-11.0958;-0.3314;-0.6006;
392223483244120;-4.8556;-1.9798;-2.9076;
392223493350526;-8.6022;-0.7220;-8.4867;
392223503454172;-12.7705;0.8088;-6.1726;
392223513557870;-10.1928;0.6840;4.2215;
392223523662661;-4.7360;-0.6239;4.3340;
392223533766411;-13.6017;0.4038;-5.9521;
392223543870057;-15.5587;1.3382;-4.8550;
392223553971359;-3.5596;-0.2620;2.3148;
392223564075005;-4.3334;-0.4394;-2.1266;
392223574178703;-15.4869;-0.4801;-5.7269;
392223584290734;-12.8590;1.3310;0.0966;
392223594394432;-5.4855;-0.1831;1.4115;
392223604498130;-9.6108;0.4807;-4.3639;
392223614608651;-11.2851;0.4253;-3.9664;
392223624712349;-6.7170;-0.0176;-2.0764;
392223634816047;-8.5089;-0.0248;-2.0788;
392223644898234;-13.5778;0.5668;-1.7121;
392223655001932;-11.8457;0.6912;0.4128;
392223665105578;-4.4195;-0.5758;1.0953;
392223675243599;-7.6968;0.4540;-3.5877;
392223685347297;-13.2709;0.4902;-4.9723;
392223695450995;-12.0230;-0.2740;-2.0115;
392223705533391;-7.3756;0.4421;-0.5025;
392223715637089;-5.6007;0.9954;-1.9612;
392223725740786;-6.6165;0.3081;-5.2454;
392223735841932;-11.3402;1.6663;-4.7112;
392223745945630;-13.3190;2.7060;-1.6403;
392223756049328;-13.9083;-0.2046;-0.8402;
392223766166203;-10.6098;-1.5796;-2.0330;
392223776269901;-10.5975;-0.7795;0.1349;
392223786373599;-6.9541;-0.7675;1.7901;
392223796461984;-3.4352;-1.3065;-2.4691;
392223806565578;-7.1770;-0.0033;-6.5462;
392223816669172;-10.8012;1.9609;-5.8636;
392223826780318;-9.4095;2.7730;-3.3147;
392223836883911;-12.7657;0.5883;-1.7480;
392223846987453;-11.1847;0.9739;-1.3696;
392223857083547;-8.3554;-1.0669;1.5936;
392223867187089;-7.2033;-2.0539;1.4596;
392223877290630;-9.6395;-1.1486;-2.6991;
392223887394484;-12.4517;-0.0200;-4.3161;
392223897498026;-10.4922;0.1499;-1.1587;
392223907601620;-6.5949;0.7585;-0.7756;
392223917698495;-11.8840;-0.1783;-2.4667;
392223927802089;-13.7357;1.0675;-2.5481;
392223937905682;-7.3998;-0.1615;1.0499;
392223948008130;-7.4596;-0.9688;2.9997;
392223958111672;-11.1751;0.5596;0.4558;
392223968215266;-11.1966;1.4171;-3.8728;
392223978319901;-9.2803;-0.6335;-7.7417;
392223988423443;-11.0025;0.3559;-6.4361;
392223998526984;-12.8973;0.9500;-0.8641;
392224008628391;-6.0655;0.9332;0.8943;
392224018731984;5.1072;-0.0200;-2.6273;
392224028835526;-7.4022;0.7080;-6.3691;
392224038930266;-33.9850;2.5956;1.4381;
392224049033859;-20.5005;4.3181;15.3607;
392224059137453;4.4605;-2.9809;9.7047;
392224069315474;-2.4338;-7.8990;-10.9875;
392224079419016;-7.8787;2.1957;-13.4381;
392224089522609;-4.0914;3.7313;-6.5175;
392224099564536;-10.3487;1.9011;-4.8120;
392224109668130;-15.8940;3.7289;-4.0382;
392224119771724;-10.5616;4.3732;0.4008;
392224129904328;-3.8375;2.4233;0.2976;
392224140007922;-7.7686;0.8088;-2.9770;
392224150111464;-12.3200;1.5057;-3.4059;
392224160184068;-15.6832;2.4066;-0.8569;
392224170287609;-10.3367;1.8867;2.2717;
392224180391203;-3.5764;0.4831;1.3229;
392224190515214;-12.2985;-0.1831;-3.8752;
392224200618807;-13.4698;1.1656;-4.0502;
392224210722401;-5.3492;1.6711;0.3745;
392224220827661;-7.8882;0.3751;-1.9253;
392224230931255;-15.1899;0.7271;-5.5017;
392224241034849;-11.9198;1.1201;0.7457;
392224251119589;-5.6988;0.5022;7.2182;
392224261223130;-3.5883;-0.5471;5.3210;
392224271326724;-8.3411;-2.9856;-8.8723;
392224281438495;-16.0858;-2.3342;-18.7992;
392224291542089;-12.3512;-0.5973;-8.7526;
392224301645682;-8.7290;0.7199;5.6180;
392224311750682;-6.8270;-0.7388;6.0637;
392224321854276;-8.0154;-2.4948;1.9265;
392224331957818;-6.9015;-1.7115;2.4846;
392224342057401;-8.7509;-2.9593;0.2306;
392224352160943;-17.4392;-1.5580;-6.8937;
392224362264536;-12.7176;0.0302;-2.6656;
392224372365422;-3.7035;-1.7976;2.3818;
392224382468964;-5.2316;-1.7761;-2.4547;
392224392572557;-13.0340;-1.2251;-7.0875;
392224402684328;-12.0996;-2.2047;-4.6418;
392224412787922;-8.5472;-0.1615;-1.2162;
392224422891516;-9.0263;-0.5423;-2.0330;
392224432986151;-13.0890;-0.2453;-1.9253;
392224443089693;-10.6576;0.9380;1.9627;
392224453193286;-4.3334;-0.4729;1.3134;
392224463308911;-7.1818;-0.6885;-3.8919;
392224473412505;-12.2650;0.4660;-3.2524;
392224483516099;-13.3597;0.6529;-1.5350;
392224493609276;-8.3411;1.0268;-3.0894;
392224503712818;-8.0273;0.0278;-4.9962;
392224513816411;-12.8351;0.2459;-1.8440;
392224523926411;-10.6361;1.0172;2.5448;
392224534030005;-5.5911;0.9141;0.4199;
392224544133599;-9.6730;-0.1663;-4.6035;
392224554231984;-11.9943;0.4684;-4.2323;
392224564335526;-7.6681;1.9322;-0.7059;
392224574439120;-8.9686;1.3286;0.5659;
392224584545474;-7.0307;0.0039;-0.5073;
392224594649068;-8.3985;0.0470;-4.0980;
392224604752661;-12.3631;-0.2548;-5.6480;
392224614869745;-13.2254;-1.4815;-4.5269;
392224624973339;-6.8557;-0.4705;-0.7708;
392224635076932;-6.5037;-0.7125;0.1397;
392224645166307;-14.2555;-2.1233;-1.0965;
392224655269901;-11.7117;-1.2036;0.4487;
392224665373443;-2.8842;-1.3208;2.1948;
392224675488807;-6.2282;-2.1353;-1.4151;
392224685592401;-15.1660;0.2961;-4.3639;
392224695695995;-14.2316;-0.2166;-2.3228;
392224705791568;-8.0106;-1.4527;-0.0855;
392224715895161;-6.7744;-0.7316;-0.6987;
392224725998755;-10.2263;-0.4561;-2.5026;
392224736108078;-12.6529;-0.3338;-2.0569;
392224746211672;-9.6849;-0.2835;-1.2643;
392224756315266;-8.5328;-1.6035;-1.1300;
392224766424120;-8.0584;-0.8273;-2.4428;
392224776527714;-10.0442;0.6984;-2.8837;
392224786631307;-10.8658;0.7418;-2.5361;
392224796731984;-7.8452;1.2903;-2.0378;
392224806835682;-8.0680;-0.0272;-1.4916;
392224816939380;-7.7877;0.7490;-2.7111;
392224827039068;-10.0561;0.9858;-5.2310;
392224837142766;-14.1239;2.1742;-5.6886;
392224847246464;-7.1073;-1.1749;0.2952;
392224857341255;-9.5557;-1.2036;2.1398;
392224867444953;-9.9389;-0.6574;-1.8033;
392224877548651;-9.8527;-1.2491;-0.2892;
392224887657401;-9.6180;-0.7316;1.6199;
392224897761099;-8.9518;-1.7617;-3.1448;
392224907864797;-8.5519;-0.4777;-5.5834;
392224918004849;-11.9390;-0.0272;-1.0463;
392224928108599;-10.0179;-0.6263;0.6042;
392224938212297;-4.4148;-1.1749;-3.8082;
392224948270109;-10.2407;-0.1663;-5.7867;
392224958373755;-14.5884;0.0900;-3.4585;
392224968477505;-7.9026;-1.1438;-0.5073;
392224978589484;-7.8954;-1.0502;-2.3830;
392224988693182;-14.0662;-0.2261;-3.9015;
392224998796880;-11.3785;-0.1496;-1.0702;
392225008904693;-2.2588;-0.9162;1.2320;
392225019008391;-7.0690;-0.2955;-0.7851;
392225029112089;-14.3345;1.4961;-3.2979;
392225039251359;-13.1895;1.3023;-2.4906;
392225049355057;-8.3411;0.3775;-2.0740;
392225059458807;-9.8886;0.4926;-1.7097;
392225069514589;-9.8121;0.9476;-0.0975;
392225079618286;-7.6223;0.5118;-0.4256;
392225089721984;-11.7547;-0.0440;-1.0295;
392225099823651;-7.8787;0.0470;-0.7804;
392225109927349;-11.1221;0.5835;-2.6393;
392225120031047;-10.9307;1.5153;-2.4619;
392225130137401;-7.7327;-0.3413;-1.8535;
392225140241099;-10.4803;0.3679;-3.8800;
392225150344797;-10.3125;1.4004;-3.7484;
392225160447818;-7.3926;0.0661;-0.7035;
392225170551516;-7.7734;-0.1137;-1.4653;
392225180655214;-12.6051;0.1977;-4.2993;
392225190782089;-12.5237;-0.0511;-2.0907;
392225200885734;-5.6270;-1.6681;1.4859;
392225210989484;-7.1770;-1.3280;-1.7527;
392225221088026;-14.2220;-0.2596;-4.5604;
392225231191724;-10.8371;-1.0238;-1.6211;
392225241295422;-5.5792;-1.0597;-2.2032;
392225251383755;-10.0633;-0.4442;-4.4862;
392225261487453;-13.8147;0.0924;-2.3228;
392225271591151;-8.5902;-0.7675;0.0676;
392225281706620;-7.6176;-0.4561;-2.0067;
392225291810318;-10.1019;-0.2237;-3.1472;
392225301914016;-10.1474;0.4397;-3.0272;
392225312012089;-9.2536;0.3942;-2.7398;
392225322115786;-6.1086;-0.2261;-3.0942;
392225332219484;-9.0120;1.0172;-4.9125;
392225342317922;-14.0734;0.6386;-4.5676;
392225352421568;-10.5760;-0.7053;-1.9086;
392225362525318;-5.4879;-0.2477;-2.0668;
392225372632609;-9.1843;0.3846;-3.0846;
392225382736307;-13.4650;0.3990;-2.6847;
392225392840005;-10.8515;0.6553;-0.6604;
392225402944693;-6.9063;0.1451;-0.6724;
392225413048391;-7.7495;0.2459;-1.4988;
392225423152089;-9.1986;1.2039;-1.7815;
392225433248339;-11.0671;1.3286;-3.2022;
392225443352036;-10.0274;1.0627;-4.1913;
392225453455734;-5.6079;1.0699;-2.8044;
392225463561464;-4.8293;0.6577;-4.4333;
392225473665161;-10.0346;0.7490;-7.7776;
392225483768859;-13.7524;0.7370;-4.7327;
392225493872297;-10.1091;0.9476;-0.4041;
392225503975995;-5.8044;0.3655;-1.4342;
392225514079693;-9.8097;0.2243;-2.6369;
392225524210943;-9.7639;0.3153;-0.7756;
392225534314641;-10.0322;0.3607;-0.5838;
392225544418339;-11.4506;0.3440;-1.8799;
392225554487609;-9.4813;0.0757;-1.2497;
392225564591307;-8.5017;-0.5925;-0.9670;
392225574695005;-8.8322;-0.0730;-1.8823;
392225584806568;-8.2693;-0.5638;-4.3639;
392225594910266;-11.9919;-1.3950;-4.6322;
392225605013964;-9.8288;-1.3974;-1.5805;
392225615119693;-6.1014;-1.5102;-1.5924;
392225625223391;-7.1865;-2.3749;-3.7125;
392225635327089;-11.6420;-2.1808;-4.2060;
392225645424901;-13.4698;-2.1879;-1.1204;
392225655528599;-8.4488;-1.7426;0.7504;
392225665632297;-5.6270;-1.6947;-1.0606;
392225675752609;-11.7571;-2.1640;-2.2343;
392225685856307;-13.0412;-1.1148;-2.2391;
392225695960005;-9.8695;-0.1974;-1.2930;
392225706046255;-8.5974;-0.4944;-0.4834;
392225716149953;-8.1685;-0.7675;-0.5240;
392225726253651;-9.1603;-0.3604;-2.1051;
392225736359172;-10.4348;-0.3075;-4.1841;
392225746462870;-9.4286;0.3583;-3.8536;
392225756566568;-8.9231;0.2554;-4.0669;
392225766676672;-9.8910;-0.4107;-3.0009;
392225776780318;-9.0838;0.0709;-2.1434;
392225786884068;-10.8515;0.8877;-3.1352;
392225796986984;-9.9102;0.6888;-3.5614;
392225807090682;-5.7395;0.7128;-2.7685;
392225817194380;-9.3329;1.5778;-2.4595;
392225827300995;-12.3488;1.8963;-2.7900;
392225837404693;-9.3760;1.0412;-2.1410;
392225847508391;-8.5759;0.6864;-3.7651;
392225857598443;-11.6683;0.6529;-3.1086;
392225867702141;-9.4573;1.2855;-1.2763;
392225877805786;-5.6749;1.4267;-1.1300;
392225887911776;-7.5290;2.0040;-5.9856;
392225898015422;-11.4817;1.4961;-7.4758;
392225908119120;-12.8279;1.8221;-4.4094;
392225918221464;-5.9623;1.8437;-2.8932;
392225928325161;-5.4233;1.2808;-3.7005;
392225938428807;-11.1918;1.1776;-3.8154;
392225948532870;-9.9365;0.7128;-1.4127;
392225958636568;-10.1210;-0.1831;-2.9172;
392225968740266;-7.1049;-0.8755;-3.5806;
392225978871516;-9.7639;-0.9162;-2.9411;
392225988975214;-11.7045;-1.5820;-1.2449;
392225999078911;-9.7304;-0.8082;-2.1673;
392226009167141;-6.7505;-0.8779;-3.5662;
392226019270839;-10.7605;-0.9209;-2.4141;
392226029374536;-11.1150;-1.2491;-0.5791;
392226039487818;-7.9026;-0.9832;-1.4174;
392226049591568;-7.9986;-1.5078;-2.7470;
392226059695214;-12.5907;-1.2443;-3.9473;
392226069771880;-11.3952;-1.3304;-2.5624;
392226079875578;-7.7806;-1.1677;-1.8679;
392226089979276;-6.7552;-1.7330;-2.8932;
392226100099484;-11.5223;-0.4107;-4.8742;
392226110203182;-14.5238;0.8566;-2.6321;
392226120306880;-6.8462;0.1738;1.1240;
392226130422766;-3.9526;-0.1113;-1.8727;
392226140526464;-11.8744;0.2387;-4.4261;
392226150630161;-13.2661;0.3488;-1.1922;
392226160716828;-6.3386;-0.0535;-0.0927;
392226170820526;-8.7389;-0.0153;-3.7531;
392226180924224;-9.5773;0.7199;-4.4596;
392226191013234;-8.2860;-0.3508;-3.5399;
392226201116880;-8.8537;0.4612;-3.9159;
392226211220578;-6.1899;0.3009;-3.2477;
392226221339745;-11.2947;1.4339;-4.0382;
392226231443443;-12.9476;1.1847;-2.8331;
392226241547141;-10.2574;-0.1280;0.2976;
392226251648495;-8.0991;-0.6670;0.3311;
392226261752193;-6.7887;-0.7603;-1.3935;
392226271855891;-9.5629;0.2602;-3.4705;
392226281963703;-13.2183;0.1187;-2.6584;
392226292067401;-10.7749;0.7753;-2.9483;
392226302171099;-6.5204;-0.0368;-5.0085;
392226312279016;-8.6907;-0.7914;-3.4848;
392226322382714;-9.5677;0.3966;-1.6140;
392226332486359;-9.2779;0.7681;-2.4739;
392226342576880;-7.5888;-0.9712;-4.0406;
392226352680526;-11.4123;0.5955;-2.4571;
392226362784224;-15.4582;0.1881;0.6787;
392226372898182;-6.3266;-1.6971;1.7518;
392226383001880;-7.7447;-2.3605;-2.8813;
392226393105578;-12.3679;0.3464;-3.8465;
392226403211099;-10.2957;0.2411;-1.7288;
392226413314797;-8.3794;0.4998;-2.0859;
392226423418495;-6.4941;0.5022;-3.8154;
392226433515266;-7.9555;1.1441;-3.8082;
392226443618964;-7.8500;0.8255;-2.1864;
392226453722661;-10.3220;1.0316;-4.7160;
392226463821776;-11.2038;0.3727;-5.3533;
392226473925422;-10.1067;0.1570;-3.6957;
392226484029120;-9.0263;-0.6646;-1.5398;
392226494132818;-8.4802;0.7223;-1.0774;
392226504236464;-10.5879;0.3559;-1.4222;
392226514340161;-8.9351;-0.5590;-2.0282;
392226524469328;-8.9136;-0.4250;-1.9110;
392226534573026;-13.6041;1.2470;-0.6126;
392226544676724;-6.4989;0.0278;0.3048;
392226554760057;-4.1441;-1.7306;-2.9937;
392226564863755;-16.9768;0.7370;-6.7331;
392226574967453;-10.1785;0.1666;-0.6820;
392226585069328;-1.9044;-1.3113;-1.7312;
392226595173026;-10.9786;0.3272;-8.1631;
392226605276724;-13.2111;0.8303;-6.4935;
392226615385161;-9.4358;-0.9425;-0.4594;
392226625488859;-8.4464;-1.4815;1.5697;
392226635592557;-8.8992;-1.9941;0.3697;
392226645691307;-12.1762;-1.5508;-0.0520;
392226655795005;-9.9269;-0.9329;1.8858;
392226665898703;-5.9432;-1.8383;0.8653;
392226676010370;-9.0598;-0.3676;-5.5161;
392226686114068;-11.9390;0.3153;-6.1965;
392226696217766;-9.6395;-0.2046;-4.7641;
392226706318599;-8.7194;-0.2764;-3.5183;
392226716422297;-7.7423;0.8399;-3.1205;
392226726525995;-8.4607;0.2818;-2.2893;
392226736622974;-11.8409;0.7609;-2.1410;
392226746726672;-9.5916;0.1905;-0.7202;
392226756830370;-8.6955;0.5477;-2.9267;
392226766948182;-7.0594;0.2291;-3.5375;
392226777051880;-9.2994;0.8973;-2.7111;
392226787155578;-14.5980;1.2182;-3.0942;
392226797257661;-10.1426;0.5333;-1.4151;
392226807361359;-4.6974;-0.5686;-1.8081;
392226817465057;-7.0570;0.4229;-5.9976;
392226827566828;-10.8586;0.9284;-5.3079;
392226837670526;-7.7973;0.6888;-3.6356;
392226847774224;-10.9427;2.3010;-4.3496;
392226857866203;-8.8394;0.4902;-4.4719;
392226867969901;-11.6973;1.2589;-2.1338;
392226878073547;-11.1703;0.2052;0.9254;
392226888175422;-9.8527;-0.0248;0.1301;
392226898279120;-6.1660;0.4134;-2.0498;
392226908382818;-7.4309;1.4363;-6.0287;
392226918501099;-11.9342;1.7788;-5.2502;
392226928604797;-9.9915;2.0112;-1.7719;
392226938708443;-10.8972;0.5835;-0.5384;
392226948828391;-9.2513;-1.0238;-1.1444;
392226958932141;-6.7265;-1.1988;-2.2606;
392226969035786;-7.4548;-0.2764;-3.4705;
392226979091568;-10.5281;-0.0706;-4.1100;
392226989195214;-11.8361;-0.4011;-1.6068;
392226999298964;-9.3449;-0.7866;0.8151;
392227009475891;-7.0355;-1.2778;-1.5565;
392227019579536;-11.2947;-1.2897;-3.2931;
392227029683286;-11.2277;-1.2658;-0.4017;
392227039741307;-9.1866;-1.7234;-0.1765;
392227049845005;-10.7653;-0.7388;-0.5719;
392227059948703;-6.4295;-1.2251;-0.4065;
392227070089536;-10.3846;-1.2132;-5.4347;
392227080193286;-8.3028;0.5189;-5.3605;
392227090296984;-8.8274;-0.8441;-3.1400;
392227100352609;-12.8064;0.4038;-2.8020;
392227110456307;-12.7466;-0.2142;1.0331;
392227120560005;-6.5949;-1.0262;3.3425;
392227130665370;-6.4750;-1.6851;-0.3514;
392227140769068;-9.8169;-0.4968;-4.2514;
392227150872766;-10.2503;-0.0200;-2.1529;
392227160976516;-9.4214;-0.6287;-1.4653;
392227171080266;-12.0685;-0.1998;-2.8331;
392227181183964;-11.7978;-0.6024;0.6930;
392227191302349;-8.1999;-0.8608;3.0694;
392227201406047;-8.3865;-0.9975;0.9087;
392227211509745;-12.2049;-1.0956;-2.6752;
392227221603807;-11.5606;-0.5016;-1.7695;
392227231707557;-7.0786;-0.9018;-1.3074;
392227241811203;-2.4625;-2.3581;-3.0703;
392227251914016;-12.5022;-0.1759;-5.2983;
392227262017714;-19.7605;0.7199;-1.4581;
392227272121411;-8.8179;-0.5830;1.6223;
392227282225682;-1.7079;-1.7521;-0.3562;
392227292329380;-15.0221;0.7992;-3.7842;
392227302433078;-10.3292;0.9906;-0.2007;
392227312544224;-3.9359;-0.8874;0.3745;
392227322647922;-8.8753;0.2387;-5.0563;
392227332751672;-16.3158;2.5789;-5.6839;
392227342841151;-8.3291;2.0327;-1.6020;
392227352944849;-4.8221;-0.4131;0.1493;
392227363048547;-12.1786;0.4325;-2.2032;
392227373162766;-12.9763;0.7872;-1.8488;
392227383266464;-8.3387;-0.3437;1.0044;
392227393370161;-5.8905;-1.3543;-0.9502;
392227403474693;-8.9495;0.3296;-3.6957;
392227413578443;-11.0647;0.4950;-4.2084;
392227423682141;-8.4224;0.7152;-3.9951;
392227433768859;-8.4416;0.2243;-3.6165;
392227443872505;-10.1354;0.6625;-3.5064;
392227453976255;-9.8288;0.3033;-3.6021;
392227464087766;-11.4888;-0.0200;-1.4821;
392227474191464;-7.5434;0.4612;1.4907;
392227484295214;-5.4544;0.1546;1.2033;
392227494391880;-12.2001;1.5873;-4.2275;
392227504495578;-13.0074;0.5883;-4.9651;
392227514599276;-10.7486;-0.0802;-1.6211;
392227524731932;-6.8318;0.6170;-1.7910;
392227534835630;-8.6477;0.0302;-1.4725;
392227544939328;-9.9676;0.7080;-0.8761;
392227555022245;-8.5950;0.2291;-2.1793;
392227565125943;-11.3306;0.9547;-3.4920;
392227575229641;-14.4975;0.7295;-1.1204;
392227585329016;-5.3683;-0.0607;0.9111;
392227595432714;-6.2426;-0.0655;-2.4858;
392227605536411;-9.7065;0.7418;-4.4429;
392227615648391;-10.2814;0.9595;-3.9544;
392227625752089;-11.3713;0.8566;-1.4127;
392227635855786;-8.2669;1.0938;-0.3706;
392227645949068;-11.7547;0.4636;0.1301;
392227656052714;-11.4075;-0.6502;0.7265;
392227666156411;-6.2689;-1.1028;0.1516;
392227676272245;-10.1952;-0.6574;-2.2104;
392227686375943;-12.9691;-0.0655;-2.0426;
392227696479641;-6.2545;0.3655;-1.7169;
392227706574901;-7.4692;-0.7220;-2.7709;
392227716678599;-13.2999;0.6410;-2.8499;
392227726782297;-9.4454;-0.1352;-0.1478;
392227736884224;-6.9972;-0.3987;-0.6820;
392227746987922;-9.9963;-1.0071;-3.8201;
392227757091620;-13.7644;-0.9305;-2.6824;
392227767194068;-8.6285;-0.4657;0.6715;
392227777297714;-4.7647;0.1044;-0.7011;
392227787401464;-9.8192;-0.2931;-3.2429;
392227797510786;-10.8562;0.4253;-2.2702;
392227807614484;-10.7533;0.3990;-2.5504;
392227817718130;-9.6634;0.4229;-3.4322;
392227827817141;-11.7811;0.7777;-0.7899;
392227837920839;-12.4636;-0.9616;0.8294;
392227848024484;-6.7098;0.2435;1.8619;
392227858119172;-6.0894;-0.2189;-0.5575;
392227868222818;-10.4874;-0.1854;-4.0717;
392227878326516;-9.9150;1.1393;-3.6766;
392227888432036;-7.7734;1.0819;-4.3543;
392227898535682;-9.2731;1.4291;-6.7187;
392227908639328;-11.2875;1.0340;-3.5088;
392227918768078;-10.9762;0.5979;-0.5216;
392227928871776;-9.4980;-0.0754;-0.4496;
392227938975422;-11.5367;-1.1148;1.6606;
392227949050839;-10.5138;-1.8957;3.1316;
392227959154484;-10.5879;-2.0635;-0.2342;
392227969258130;-8.3937;-0.7220;-1.8153;
392227979374328;-9.9150;-0.1926;-0.0664;
392227989478026;-13.2733;-0.0464;-2.1003;
392227999581672;-8.1230;-0.1400;-4.0669;
392228009687714;-8.7218;-0.4346;-2.2654;
392228019791464;-9.5797;0.8518;-1.1180;
392228029895109;-7.0403;0.2291;-2.3710;
392228039999328;-4.6184;-0.1926;-3.9473;
392228050103026;-11.9560;0.4205;-4.7351;
392228060206724;-13.3382;1.4171;-3.4657;
392228070302661;-6.3482;1.0412;-1.2138;
392228080406359;-8.5256;0.6434;-2.1984;
392228090510005;-12.9643;1.3023;-1.7312;
392228100635682;-7.3158;0.3081;0.4056;
392228110739380;-7.5697;0.1738;-0.2701;
392228120843026;-14.1694;1.2951;-1.8392;
392228130924797;-9.1723;0.9643;-0.0353;
392228141028443;-8.1111;0.1762;0.5850;
392228151132141;-13.7046;0.9404;-1.9110;
392228161247141;-11.0480;0.2865;-1.5924;
392228171350839;-3.6218;-1.2060;-1.5996;
392228181454536;-10.5855;0.8495;-4.5867;
392228191553391;-13.1776;1.4961;-5.4897;
392228201657089;-5.2965;0.1786;-2.9363;
392228211760734;-7.1459;0.9021;-3.0368;
392228221865891;-12.0781;1.6184;-3.0224;
392228231969589;-10.5736;1.4435;-1.2906;
392228242073234;-9.3425;0.2937;-1.0822;
392228252173911;-11.7715;0.2913;-0.0185;
392228262277609;-10.4181;0.6386;0.4822;
392228272381255;-9.6012;0.0637;1.7758;
392228282486932;-10.0250;-0.2453;1.0164;
392228292590630;-7.9675;0.8279;1.0666;
392228302694276;-7.3373;-0.3003;0.5300;
392228312800786;-10.9690;0.5668;-5.1377;
392228322904484;-13.9226;1.0795;-5.9330;
392228333008182;-7.7303;0.0637;-2.9195;
392228343097714;-4.8126;-0.4513;-3.5255;
392228353201359;-10.3654;-0.3170;-3.6141;
392228363305057;-12.3727;0.3392;-0.8186;
392228373422557;-8.2741;-0.1519;-0.2055;
392228383526255;-8.4658;-1.3208;-1.4318;
392228393629901;-10.4994;-1.0884;-0.9790;
392228403726359;-13.3837;0.1116;-1.5900;
392228413830005;-11.8122;-0.7651;-1.8846;
392228423933651;-5.9743;-0.2142;0.1421;
392228434033651;-5.5313;0.7418;-0.6628;
392228444137297;-10.1641;0.6410;-4.3448;
392228454240943;-13.2159;1.6878;-4.0765;
392228464343547;-9.0215;0.9356;-0.5599;
392228474447193;-6.0823;-0.3389;-1.1563;
392228484550891;-10.9379;0.6577;-3.5136;
392228494657818;-10.0059;1.0292;-2.4739;
392228504761516;-6.7409;1.1656;-2.3638;
392228514865161;-11.2134;0.8590;-3.1376;
392228524993807;-12.1092;1.2039;-2.3327;
392228535097505;-9.9485;0.9811;-0.8426;
392228545201151;-8.9973;0.2052;-0.9287;
392228555290786;-8.7003;0.1307;-1.1946;
392228565394484;-8.5280;0.7128;-0.5527;
392228575498130;-9.0335;2.2244;-2.8980;
392228585596203;-8.8633;1.5344;-3.4059;
392228595699901;-10.0947;1.5344;-1.8583;
392228605803547;-10.1186;1.8628;-2.1170;
392228615911099;-7.0546;0.5022;-2.4500;
392228626014797;-11.9728;0.3320;-2.2917;
392228636118443;-9.1627;1.0412;-2.2965;
392228646213078;-7.2488;0.2363;-1.1252;
392228656316776;-13.4291;-0.5542;-1.0128;
392228666420474;-11.2828;0.5094;-1.9995;
392228676549536;-6.5683;0.1618;-1.4103;
392228686653234;-8.2837;-0.9592;-0.4977;
392228696756932;-9.7184;0.3823;-1.3911;
392228706835057;-9.6371;0.7370;-2.9363;
392228716938755;-12.6506;-0.2285;-2.5481;
392228727042401;-8.3219;-0.2285;-2.2702;
392228737144068;-6.1923;-0.6048;-3.1519;
392228747247714;-10.8586;-0.5495;-3.0129;
392228757351359;-11.8433;0.0206;-0.9215;
392228767475161;-8.5161;0.2961;0.0772;
392228777578859;-10.1282;-1.2849;-4.1937;
392228787682505;-9.2489;-1.6274;-6.4696;
392228797769641;-3.8686;0.7825;-3.9879;
392228807873339;-1.7246;-0.0583;-4.2251;
392228817976984;-12.1451;1.6735;-6.4385;
392228828081099;-21.7032;1.8269;0.1493;
392228838184797;-14.4090;0.2267;8.2460;
392228848288443;-6.7170;-0.4226;4.4013;
392228858395891;-10.3220;-2.8828;-0.9000;
392228868499589;-9.8049;-3.8698;1.1770;
392228878603234;-5.8738;-0.9568;1.8595;
392228888710578;-11.4123;-0.5830;-4.0167;
392228898814276;-11.0910;0.1475;-6.8145;
392228908917922;-5.2702;0.3511;-3.2405;
392228919032974;-6.1947;1.0771;-5.0252;
392228929136672;-14.6124;1.8652;-8.1177;
392228939240266;-14.3874;0.2578;-1.7886;
392228949337297;-7.1025;-2.3557;5.3928;
392228959441047;-7.1121;-4.0158;2.2932;
392228969544693;-8.1876;-2.3270;-1.6953;
392228979617245;-10.4420;-0.6431;-0.4184;
392228989720943;-11.9079;-1.2443;-0.6748;
392228999824589;-11.5080;-0.7986;-1.9253;
392229009940578;-9.3784;-0.8058;-1.1874;
392229020044276;-6.2067;-0.8393;-2.6106;
392229030147922;-9.4167;1.1417;-3.7412;
392229040256984;-10.1402;0.9117;-3.4609;
392229050360682;-12.4660;0.7801;-2.3566;
392229060464328;-10.9211;0.2937;0.7648;
392229070572245;-7.6223;-0.8898;3.5004;
392229080675943;-8.4993;-1.0884;4.5688;
392229090779589;-7.6944;-0.9233;1.5099;
392229100907714;-8.2334;0.1594;-8.6830;
392229111011411;-11.4242;0.6840;-13.1195;
392229121115057;-11.6563;2.0351;-7.7656;
392229131183443;-9.0335;1.4267;-3.4178;
392229141287089;-8.7676;0.1786;-4.2634;
392229151390734;-12.4158;-0.3508;-0.9287;
392229161507557;-10.4324;-1.4073;5.3904;
392229171611255;-6.9230;-2.3414;4.1186;
392229181714901;-6.3793;-2.2863;-0.0090;
392229191817557;-11.4242;-0.5853;-0.4184;
392229201921255;-10.3917;1.5176;-1.9062;
392229212024901;-9.4454;1.9107;-5.5017;
392229222120318;-11.9079;1.1680;-6.3691;
392229232223964;-9.9317;-0.1280;-4.0430;
392229242327609;-6.3506;-0.0344;-2.9483;
392229252441828;-4.9971;0.3272;-3.1424;
392229262545526;-8.5256;0.7128;-3.7125;
392229272649172;-11.0767;1.5368;-5.1784;
392229282742141;-10.3630;1.1321;-4.6274;
392229292845839;-10.1067;0.6649;-1.7121;
392229302949484;-9.1890;0.0015;-0.1765;
392229313076307;-10.7079;-0.1496;0.0772;
392229323180005;-7.1913;-0.3314;-0.3993;
392229333283651;-7.2272;-0.1926;-2.7182;
392229343366932;-14.7945;0.6051;-4.6250;
392229353470630;-10.6696;0.8399;-3.3864;
392229363574276;-5.8929;0.7920;-2.8789;
392229373685995;-10.7868;0.9356;-3.3458;
392229383789693;-11.0575;1.5033;-2.2726;
392229393893339;-6.0245;1.3382;-1.1444;
392229403996099;-7.1961;0.6793;-4.2323;
392229414099797;-11.4048;0.8375;-6.6613;
392229424203443;-12.0589;1.6759;-2.8546;
392229434299536;-6.5587;0.3224;-1.3744;
392229444403234;-9.2201;1.0364;-4.0932;
392229454506880;-12.8040;0.4014;-1.1850;
392229464616932;-7.7806;-0.2142;0.9805;
392229474720630;-5.4808;0.0972;-2.9100;
392229484824276;-10.3750;0.5955;-7.2266;
392229494916984;-13.1154;1.4411;-6.2611;
392229505020630;-8.7556;1.7788;-1.9540;
392229515124276;-6.6069;0.5189;-1.0415;
392229525257349;-13.0460;1.0149;-1.9875;
392229535361047;-11.4793;-0.0607;-0.1789;
392229545464693;-2.7595;-1.4145;-1.4629;
392229555549068;-8.0776;-0.0897;-6.9248;
392229565652766;-15.7816;0.8471;-4.4719;
392229575756411;-9.2010;-0.6550;0.3864;
392229585863599;-5.9336;-0.8393;-2.1027;
392229595967297;-7.8763;-0.2500;-3.6667;
392229606070943;-10.1761;0.1977;-4.2826;
392229616183495;-11.0743;-0.5782;-2.4332;
392229626287193;-8.7987;-1.2491;-0.8186;
392229636390839;-9.9532;-0.0945;-2.9961;
392229646481828;-9.0622;-0.9855;-1.2643;
392229656585526;-9.8815;-1.4958;0.0102;
392229666689172;-10.9977;-0.6287;-0.8593;
392229676790057;-8.8825;-0.8321;-0.5815;
392229686893755;-8.3554;-0.4178;-2.6895;
392229696997401;-10.2933;0.6075;-2.9722;
392229707108495;-7.5242;0.8901;-4.5269;
392229717212193;-9.7807;0.7801;-5.6408;
392229727315839;-11.0264;1.3956;-2.7087;
392229737407714;-10.6552;1.4435;-0.1119;
392229747511359;-7.8356;0.4397;-1.1970;
392229757615005;-8.2478;-0.1304;-2.0716;
392229767706203;-11.3091;0.2100;-1.8105;
392229777809797;-8.8298;0.3129;-2.2104;
392229787913443;-8.5448;-0.1807;-3.9135;
392229798046932;-10.6983;0.4086;-3.1496;
392229808150682;-9.2898;0.1379;-0.6963;
392229818254328;-7.9074;-0.1878;-2.1362;
392229828347557;-14.3441;0.2746;-3.5255;
392229838451255;-11.5008;-0.4178;0.1636;
392229848554953;-4.2090;-1.0119;1.6774;
392229858650161;-4.8724;-0.2118;-3.4131;
392229868753859;-11.9031;-0.2548;-5.2959;
392229878857557;-14.3034;-1.2849;-1.3863;
392229888958234;-6.9326;-1.9606;-1.5709;
392229899061880;-8.4224;-0.3724;-4.0549;
392229909165578;-11.3139;-1.4216;-1.9612;
392229919265161;-9.7304;-1.9558;-1.7480;
392229929368911;-11.7595;-0.7172;-3.3840;
392229939472609;-12.8184;-0.1137;-0.7708;
392229949576828;-7.3421;-0.2381;1.4115;
392229959680526;-5.8810;-0.2572;-1.6068;
392229969784224;-8.3674;0.3679;-3.4442;
392229979919797;-10.3077;0.4205;-3.5207;
392229990023495;-10.0875;0.3081;-3.9544;
392230000127193;-9.3712;0.0446;-5.3414;
392230010195630;-10.0804;-0.3266;-2.7924;
392230020299276;-5.6222;0.4711;-2.3252;
392230030402974;-9.4430;1.0244;-5.0994;
392230040524641;-15.6066;0.5548;-1.7145;
392230050628391;-8.9614;0.6075;1.4139;
392230060732036;-4.5491;-0.4274;-2.6489;
392230070857661;-5.1503;0.0422;-6.3930;
392230080961359;-6.7624;0.9428;-5.5594;
392230091065057;-11.3785;-0.3003;-5.6767;
392230101132609;-14.3922;0.9882;-2.7111;
392230111236307;-12.1355;2.3850;1.3158;
392230121339953;-10.5114;0.4229;1.9433;
392230131451828;-10.4922;-1.5724;-1.6594;
392230141555526;-7.8571;-2.1425;-3.7603;
392230151659224;-5.3133;-1.2179;-4.9819;
392230161764068;-8.7290;0.2674;-6.7499;
392230171867818;-15.6425;1.7788;-4.1722;
392230181971464;-13.7596;0.9643;2.3100;
392230192075682;-4.1874;-1.8239;1.1937;
392230202179380;-7.1578;-0.5949;-5.1473;
392230212283078;-11.4171;0.5812;-4.3831;
392230222384484;-11.1054;-1.1363;1.2775;
392230232488182;-6.6428;-1.8861;1.6247;
392230242591880;-7.4261;-0.1687;-5.7891;
392230252703495;-10.9211;0.0326;-6.6852;
392230262807245;-9.6491;0.3081;-1.8320;
392230272910891;-6.9541;-0.6766;-1.7001;
392230283010057;-3.3993;-0.2166;-2.6130;
392230293113755;-9.2803;0.7032;-6.5246;
392230303217453;-16.8476;0.9930;-5.2238;
392230313329432;-15.1490;0.1020;2.7123;
392230323433130;-9.9915;-0.8803;6.9212;
392230333536828;-8.6764;-2.2648;3.4860;
392230343632245;-5.4736;-1.6370;-2.6489;
392230353735943;-4.8054;0.4110;-8.5920;
392230363839641;-7.1097;1.3525;-12.9230;
392230373952141;-12.6673;1.3334;-9.3275;
392230384055839;-14.2220;1.6089;-1.7815;
392230394159536;-11.4048;1.1082;1.3732;
392230404256411;-5.7849;0.4588;1.8404;
392230414360109;-5.4066;-0.2596;-0.4690;
392230424463807;-9.8671;-0.9951;-4.2395;
392230434563599;-12.5955;-0.3820;-3.4322;
392230444667297;-8.7556;-0.4968;-0.5336;
392230454770995;-7.2320;-1.0478;-1.1300;
392230464873651;-8.3411;0.1905;-4.1961;
392230474977349;-12.6553;0.7394;-4.0525;
392230485081047;-12.6841;-0.3652;0.1660;
392230495183286;-6.0461;-0.3987;0.8533;
392230505286984;-7.9217;-0.4992;-1.5805;
392230515390682;-9.6491;-0.2070;-1.7791;
392230525493495;-4.6161;0.1427;-0.4519;
392230535597245;-5.6246;0.2818;-4.9675;
392230545700891;-18.5483;0.2076;-7.1979;
392230555808599;-14.5478;0.7896;-2.1936;
392230565912349;-8.3363;-0.6168;-1.5422;
392230576015995;-13.3143;-0.6191;-6.3114;
392230586122349;-11.4864;-0.4681;0.6236;
392230596226047;-6.9637;-0.0464;6.2049;
392230606329745;-5.9097;-0.5782;2.3794;
392230616428911;-10.5257;0.5094;-1.0798;
392230626532609;-11.6013;0.0230;-1.5781;
392230636636307;-7.6056;-0.8731;-3.1158;
392230646743911;-7.7638;0.0637;-7.2745;
392230656847609;-10.4037;0.1307;-6.5079;
392230666951307;-8.2621;-0.4131;-1.7551;
392230677058182;-8.1541;-0.5901;-2.2295;
392230687161880;-9.2273;-0.1759;-4.3448;
392230697265578;-9.5315;-0.7340;-2.3710;
392230707361411;-8.7242;-1.3854;-0.7349;
392230717465161;-8.1852;-0.3027;-2.0139;
392230727568807;-8.8777;-0.2620;-2.6943;
392230737677974;-13.6472;-0.0921;-1.4868;
392230747781724;-10.0923;-0.2046;-0.7540;
392230757885370;-4.5802;-0.4298;-1.2209;
392230767954380;-10.3391;0.2291;-1.2811;
392230778058026;-13.6783;1.4794;0.2091;
392230788161672;-8.8155;0.2770;-3.2644;
392230798302922;-8.7963;0.1881;-8.1488;
392230808406568;-10.5090;1.3430;-5.5881;
392230818510266;-8.9806;0.2001;-1.4198;
392230828600891;-7.8452;1.5057;-3.4872;
392230838704589;-9.0598;2.3827;-3.9278;
392230848808234;-10.4492;1.2685;0.1732;
392230858909484;-9.2683;-0.0320;1.1865;
392230869013130;-13.7477;0.5046;-2.7398;
392230879116828;-8.5041;-1.0741;-1.9445;
392230889242818;-4.4028;-1.1438;0.8222;
392230899346516;-9.8288;-0.1807;-2.2463;
392230909450214;-10.8132;0.0876;-3.7029;
392230919532974;-8.1733;0.0350;-3.4178;
392230929636672;-9.6395;0.1953;-4.1794;
392230939740318;-10.7438;-0.3147;-4.0645;
392230949873078;-10.3053;-1.0119;-1.7815;
392230959976776;-9.3544;-0.8680;-0.4065;
392230970080422;-8.3698;-1.2658;-1.8727;
392230980154328;-8.7796;-0.4705;-1.6905;
392230990258026;-9.1244;-0.1280;-2.1242;
392231000361672;-9.5653;0.6170;-3.7292;
392231010470214;-10.5616;0.9141;-3.2859;
392231020573859;-9.3497;0.3200;-3.5064;
392231030677557;-9.0718;-0.1424;-5.1736;
392231040783703;-9.8575;0.0565;-2.7661;
392231050887401;-9.0718;0.2578;-0.8617;
392231060991099;-8.5711;-0.5662;-1.8009;
392231071088130;-7.5697;-0.9138;-2.3013;
392231081191776;-6.3048;-1.0454;-3.0990;
392231091295422;-10.7701;0.5692;-4.4453;
392231101406984;-15.4101;0.2339;-4.7255;
392231111510682;-12.1690;-0.5183;-0.8067;
392231121614328;-6.5085;-1.4097;1.4477;
392231131733391;-7.3014;-1.2897;0.0652;
392231141837089;-13.2709;-0.2620;-1.8631;
392231151940786;-11.3186;-0.4537;-0.7493;
392231162027557;-3.2148;-1.0430;-2.3085;
392231172131255;-7.6558;0.3057;-7.6122;
392231182234901;-11.8193;1.1991;-6.7020;
392231192335318;-9.7208;0.5213;-2.7637;
392231202438964;-11.6997;1.0890;-4.0717;
392231212542661;-9.0287;1.6496;-3.5255;
392231222652349;-6.1708;0.0517;-0.6437;
392231232756047;-7.4477;-0.7220;-0.2940;
392231242859693;-12.1475;0.8734;-2.3204;
392231252956880;-12.3966;0.1116;-1.4749;
392231263060526;-7.2512;-1.0167;0.5013;
392231273164172;-6.1995;-1.3807;-2.1434;
392231283279432;-11.0097;0.1283;-4.6418;
392231293383130;-12.9763;-0.0033;-1.8559;
392231303486828;-12.1618;-1.3304;0.1277;
392231313584536;-6.8079;-0.3099;1.1770;
392231323688234;-7.3277;-0.2859;-0.4232;
392231333791932;-9.1316;-0.3843;-4.5437;
392231343890266;-16.6726;0.5692;-6.1056;
392231353993964;-10.4037;-0.1711;-1.3433;
392231364097609;0.9129;-0.4155;-2.8068;
392231374212141;-4.4076;0.6745;-7.3199;
392231384315839;-15.3790;1.3454;-5.2959;
392231394419484;-14.5190;1.0053;1.8715;
392231404523078;-8.4607;0.7466;3.3808;
392231414626776;-7.9651;-0.3796;-0.7612;
392231424730474;-10.7988;-0.4035;-1.9612;
392231434823859;-8.1254;-3.0024;-1.2595;
392231444927505;-9.5677;-2.2217;-2.4978;
392231455031203;-12.6697;-0.2070;-1.2930;
392231465196411;-8.3028;0.0015;0.4774;
392231475300109;-6.3144;-0.6335;-1.7551;
392231485403755;-11.5678;-0.5207;-3.0990;
392231495445370;-10.7079;-1.2514;-3.4777;
392231505549016;-11.1966;-1.0765;-4.0023;
392231515652661;-8.8848;0.1738;-2.2989;
392231525778078;-6.6021;1.0651;-1.4749;
392231535881776;-12.3966;-0.2859;-1.5996;
392231545985422;-11.9270;-0.5255;-1.7623;
392231556078234;-6.8752;-0.4872;-1.8751;
392231566181932;-5.5505;-0.2572;-2.9937;
392231576285578;-9.3233;0.3990;-5.2190;
392231586369484;-14.0856;1.7716;-5.8612;
392231596473130;-11.1823;1.1154;-0.1190;
392231606576828;-6.4487;-0.0248;3.4908;
392231616689745;-6.6500;-1.2610;-0.7277;
392231626793443;-10.6481;-0.9449;-5.3246;
392231636897089;-10.6122;-0.8225;-5.1042;
392231647004641;-10.0059;-0.1878;-3.6766;
392231657108339;-10.9881;0.9045;-3.1472;
392231667212036;-7.8882;-1.0860;-1.9277;
392231677299068;-7.2248;-1.6370;-1.7551;
392231687402714;-11.2421;-1.2682;-2.7135;
392231697506411;-11.7117;-0.5064;-1.4605;
392231707623547;-5.5071;-0.2094;-0.7083;
392231717727193;-7.0953;0.8686;-3.6571;
392231727830839;-11.5080;0.2001;-4.1794;
392231737943078;-11.7547;0.3559;-2.8451;
392231748046776;-11.0360;-0.0706;-2.8307;
392231758150422;-10.7318;-0.5997;-1.4821;
392231768239797;-5.6964;-1.7952;0.1899;
392231778343443;-10.2263;-0.4777;-1.9971;
392231788447089;-9.0861;-1.4384;-2.7278;
392231798581880;-10.3774;-0.6263;-0.8641;
392231808685526;-13.2159;1.0460;-1.8966;
392231818789276;-6.4845;0.2483;-2.1410;
392231828866672;-1.5811;-0.6957;-3.8728;
392231838970318;-11.7045;0.3296;-5.9019;
392231849074068;-17.8008;2.2986;-4.2993;
392231859167141;-2.9225;0.5596;0.6571;
392231869270839;-5.0210;0.0063;-2.8307;
392231879374589;-21.3799;0.0087;-3.7819;
392231889528182;-20.0982;-0.9377;4.4013;
392231899631880;2.7957;-2.5929;6.8279;
392231909735578;-1.0110;-1.3998;-6.3185;
392231919825786;-18.6706;1.4961;-10.8966;
392231929929536;-12.2267;1.3645;2.0177;
392231940033234;-1.8541;-0.7986;2.0297;
392231950116932;-7.0546;0.0446;-7.6576;
392231960220630;-10.4779;0.8351;-5.3342;
392231970324328;-11.6181;-0.6502;-1.5036;
392231980432349;-12.6075;0.4711;-4.6298;
392231990536047;-11.4314;-0.4274;-1.8870;
392232000639745;-9.7208;-0.8417;2.9279;
392232010734797;-5.6581;-0.4848;0.0508;
392232020838495;-7.4740;0.7032;-4.3567;
392232030942193;-10.1402;1.7118;-2.7781;
392232041040734;-11.4171;1.0603;-1.7312;
392232051144432;-11.5798;1.8461;-1.1420;
392232061248130;-7.5817;0.3511;2.4823;
392232071347922;-4.4315;-0.0416;-3.7172;
392232081451620;-15.5324;0.0206;-9.7035;
392232091555318;-12.4636;-0.2572;1.0044;
392232101662297;-0.3162;-1.7139;3.1388;
392232111765995;-7.4955;-0.3147;-12.0081;
392232121869693;-16.3517;0.3200;-10.6834;
392232131988286;-16.2102;1.0819;4.6887;
392232142092036;-4.8867;-2.3844;6.4349;
392232152195734;-6.0559;-0.9951;-2.1051;
392232162299589;-9.7400;0.3823;-2.6847;
392232172403286;-8.5352;-0.4346;1.2631;
392232182506984;-11.2277;-0.0945;-1.1013;
392232192601151;-13.2039;-0.2788;-2.5481;
392232202704849;-9.1675;0.7537;-1.8105;
392232212808547;-5.5095;0.5189;-5.3964;
392232222909693;-7.1698;-0.2118;-7.6265;
392232233013391;-10.1043;1.1345;-4.9603;
392232243117089;-11.7547;3.4391;-1.2473;
392232253229068;-9.8623;1.5873;0.9374;
392232263332766;-9.1962;1.5009;0.2904;
392232273436411;-11.4386;0.2171;-1.2763;
392232283544068;-9.6467;-0.0488;-2.5265;
392232293647766;-7.1842;-0.5614;-2.2080;
392232303751464;-10.7055;0.5692;-1.9684;
392232313846203;-18.0835;1.2541;-1.9014;
392232323949901;-14.9743;-0.1735;0.7839;
392232334053599;-7.9938;-1.4288;2.7458;
392232344152609;-0.0287;-1.3376;0.0652;
392232354256307;5.9360;-0.8994;-8.2567;
392232364360005;-3.9814;1.8027;-17.0240;
392232374474536;-18.0452;2.7706;-10.4557;
392232384578234;-12.9476;0.2961;-0.2127;
392232394681932;-9.4190;-0.5112;-2.5433;
392232404781464;-17.8442;-1.4815;-1.2787;
392232414885161;-13.5969;-4.2362;4.8323;
392232424988859;-4.0555;-6.2677;4.8491;
392232435090630;-5.5792;-3.0410;-2.1434;
392232445194328;-11.9007;-0.9712;-2.5935;
392232455298026;-12.2291;-0.6215;1.6032;
392232465403755;-5.3252;0.9619;-1.1635;
392232475507453;-9.4693;2.8089;-7.8852;
392232485611151;-12.8471;1.0196;-8.8364;
392232495709380;-8.8179;-0.5447;-3.8058;
392232505813078;-9.0096;2.0952;-5.4658;
392232515916776;-9.5629;2.2268;-3.4657;
392232526038026;-5.5361;0.3200;-0.2390;
392232536141724;-11.1990;-0.2644;-4.2897;
392232546245422;-11.9366;0.6458;-7.1764;
392232556339068;-10.7725;0.6793;-5.4897;
392232566442766;-13.2206;1.0460;-0.9048;
392232576546464;-8.7700;0.0135;9.2809;
392232586648286;-1.8182;-0.5040;14.1676;
392232596751984;-6.4917;-0.7771;2.8466;
392232606855682;-14.8905;-0.8779;-14.3459;
392232616962505;-10.2311;1.5538;-16.8565;
392232627066203;-2.4793;0.9260;-10.5299;
392232637169901;-7.5410;0.7633;-10.4845;
392232647273859;-13.6615;1.9609;-7.1548;
392232657377557;-10.5257;1.5538;3.8958;
392232667481255;-5.4832;0.3559;6.5501;
392232677582609;-10.0681;-0.0583;0.3407;
392232687686307;-14.2819;-0.4418;-0.1983;
392232697790005;-9.1603;-1.2395;1.6247;
392232707887036;-12.7729;-1.7450;-2.8980;
392232717990682;-8.0919;-1.2347;-3.4848;
392232728094432;-4.6567;-0.0320;-2.6465;
392232738194068;-13.7907;-0.2764;-4.5221;
392232748297766;-11.6348;-1.2275;0.0990;
392232758401411;-7.3445;-1.0071;0.2617;
392232768524745;-7.0283;-0.3389;-2.6847;
392232778628339;-9.4334;-0.9329;-1.4127;
392232788732089;-12.9117;-1.0454;-2.5217;
392232798822141;-10.2168;-0.8970;-2.2271;
392232808925839;-4.0986;-1.1916;-1.1874;
392232819029484;-8.3865;0.0422;-2.6201;
392232829133182;-13.4100;2.0856;-3.8345;
392232839245318;-15.9685;0.3846;1.7590;
392232849348911;-8.0728;-0.6168;4.6672;
392232859452609;-3.9215;-0.3099;1.6750;
392232869544745;-12.0996;-0.4753;-4.5556;
392232879648391;-12.2363;0.2985;-3.0990;
392232889752036;-8.0058;-0.5160;-0.2892;
392232899883599;-9.3377;-0.1041;-2.9052;
392232909987297;-11.3378;-0.1831;-2.8908;
392232920090891;-9.0096;-1.3496;-1.0128;
392232930161464;-9.1149;-0.3915;-4.1770;
392232940265109;-11.7452;-0.0583;-3.0057;
392232950368755;-7.7040;-1.3735;2.6357;
392232960480995;-7.4716;-1.7067;-0.5097;
392232970584693;-12.6769;-0.5782;-5.8445;
392232980688339;-9.4454;0.1068;-1.6331;
392232990804953;-7.7806;-0.0849;-0.4424;
392233000908599;-9.1244;-0.8297;-2.0306;
392233011012297;-10.2574;0.5835;-2.7470;
392233021089016;-9.2707;0.2722;-4.2275;
392233031192714;-10.6505;0.2865;-3.1472;
392233041296359;-10.4516;0.9954;-0.6580;
392233051414276;-7.7542;1.0986;-1.2643;
392233061517922;-7.0857;-0.6957;-4.6705;
392233071621568;-10.1139;0.4325;-7.9116;
392233081728651;-11.7452;1.3430;-4.3232;
392233091832349;-7.8835;1.8891;-1.4557;
392233101935995;-8.7652;0.2722;-3.2572;
392233112033443;-12.6506;0.5740;-2.0907;
392233122137089;-5.9073;0.7753;-0.7636;
392233132240682;-9.8767;-0.2022;-1.7169;
392233142340109;-13.5491;0.7801;-3.3577;
392233152443755;-7.9866;0.2148;-1.0534;
392233162547401;-6.9350;0.3057;-2.6584;
392233172662141;-6.9446;-0.1854;-4.7064;
392233182765839;-10.8275;0.4759;-2.8546;
392233192869484;-12.1307;1.0962;-3.4202;
392233202964901;-8.2980;0.3224;-4.7498;
392233213068547;-7.0905;-0.0969;-2.9243;
392233223172193;-11.4697;0.4902;-1.8846;
392233233278964;-9.4956;1.3789;-1.8607;
392233243382609;-5.0043;0.7152;-2.3013;
392233253486255;-12.3057;0.5118;-2.4069;
392233263586776;-14.2819;1.1034;-2.5863;
392233273690370;-6.4391;0.0302;-0.5671;
392233283794068;-6.9805;-0.1998;-1.6786;
392233293899016;-12.7872;1.8126;-3.4155;
392233304002714;-11.9967;0.1499;-0.0784;
392233314106359;-6.1110;-0.3652;0.2713;
392233324215057;-5.8786;0.4158;-4.0262;
392233334318755;-14.5765;0.2339;-5.1616;
392233344422401;-13.2709;-0.1687;-0.1286;
392233354531724;-5.6533;-0.6263;1.4764;
392233364635422;-10.4300;-0.5471;-2.9818;
392233374739068;-11.6037;-0.0945;-0.3754;
392233384846828;-9.7256;-1.4240;1.2440;
392233394950474;-4.6639;-2.0850;-1.3959;
392233405054172;-8.9423;0.4349;-5.5352;
392233415150318;-15.8701;-0.2716;-4.4524;
392233425254016;-8.4535;-1.0980;0.1995;
392233435357661;-3.0900;-1.1339;-0.5168;
392233445454484;-8.8202;-0.0105;-4.9196;
392233455558130;-13.9633;0.1020;-3.5518;
392233465661724;-10.3220;-1.5963;2.3554;
392233475775682;-8.3363;-0.4992;-0.7971;
392233485879380;-10.0179;-0.1256;-6.6852;
392233495983026;-11.5343;0.0254;-2.7446;
392233506078234;-6.3864;-0.4035;1.2870;
392233516181932;-8.1517;-0.0583;-2.3276;
392233526285578;-10.1785;-0.2931;-4.1841;
392233536391724;-12.8423;0.1283;-2.4356;
392233546495422;-10.4827;-0.0176;-0.3251;
392233556599068;-5.4473;0.4397;-1.2787;
392233566693339;-11.1221;-0.2309;-3.8393;
392233576796984;-12.9643;0.3823;-1.2858;
392233586900630;-6.7792;0.1068;-0.7035;
392233597017453;-9.6395;-0.2788;-4.4189;
392233607121151;-10.8491;-0.1831;-3.2955;
392233617224797;-13.5464;1.3286;0.0437;
392233627328807;-5.0354;0.5381;0.7002;
392233637432505;-5.0737;-0.3147;-2.3061;
392233647536151;-12.4540;1.0484;-5.5400;
392233657628651;-12.4349;0.9069;-1.6642;
392233667732297;-8.5424;1.7931;0.3745;
392233677835943;-5.6270;0.7080;-4.4142;
392233687943286;-11.0575;-1.2036;-6.8842;
392233698046984;-12.0422;0.8160;-4.0190;
392233708150630;-7.2416;1.4913;-0.4089;
392233718248651;-3.6580;1.3262;-2.8932;
392233728352297;-14.2364;-0.7316;-3.3458;
392233738455943;-15.5731;1.3693;-0.3538;
392233748559068;-6.4463;0.4759;1.0762;
392233758662714;-3.4232;-1.5197;-1.1611;
392233768766411;-8.4105;-0.4992;-5.1903;
392233778884953;-15.7863;1.1177;-5.8851;
392233788988651;-9.5557;0.5835;-0.5168;
392233799092297;-3.1597;0.4636;-4.0478;
392233809167141;-15.3287;0.2770;-6.5222;
392233819270786;-19.8227;0.1259;0.4008;
392233829374380;6.0033;-0.5112;3.2994;
392233839499536;-3.5309;-0.1711;-5.9067;
392233849603182;-20.6659;0.5835;-5.3821;
392233859706724;-11.7882;0.7513;5.5534;
392233869802036;-4.0484;2.1096;-0.8043;
392233879905630;-8.8825;0.5620;-9.7681;
392233890009276;-13.8123;-0.8297;-3.8536;
392233900116620;-9.2755;0.6817;3.0909;
392233910220214;-8.1326;0.6099;-0.3682;
392233920323807;-10.2646;-0.4226;-3.6356;
392233930430318;-9.6395;-0.6981;-0.6580;
392233940533911;-7.8811;0.2052;-0.4642;
392233950637505;-4.7360;-0.2835;-2.4093;
392233960740734;-2.3261;-0.3867;-7.9044;
392233970844328;-19.6214;-1.0119;-8.2687;
392233980947922;-31.7211;1.6807;4.4755;
392233991052557;-0.8982;3.8031;13.0226;
392234001156203;5.5385;-0.9329;-1.0487;
392234011259797;-13.4387;-3.6494;-13.8670;
392234021357870;-14.2531;0.7247;-2.3973;
392234031461516;-8.7820;1.2374;6.5883;
392234041565109;-7.6056;-0.1232;-5.7939;
392234051684745;-16.5242;-0.7196;-10.7504;
392234061788391;-9.4741;-0.2453;7.5730;
392234071891984;0.7786;-0.7125;3.9006;
392234081998078;-11.4529;-1.9606;-13.1698;
392234092101724;-11.9536;-1.1773;-6.3523;
392234102205318;-6.1158;-1.2203;2.5735;
392234112304432;-11.0599;-1.6537;-4.0980;
392234122408078;-12.2698;-0.6646;-6.3978;
392234132511672;-7.1698;-1.4097;-1.5251;
392234142609536;-5.9719;-2.1592;-1.6642;
392234152713182;-7.6705;-0.7747;-3.5566;
392234162816776;-7.8141;-0.4609;-3.8824;
392234172929068;-12.9811;-0.0200;-3.1014;
392234183032714;-14.1191;0.6314;0.3482;
392234193136307;-5.8953;0.1857;3.5988;
392234203244849;-2.0770;-1.6804;-9.0712;
392234213348495;-16.9002;-1.3663;-17.3285;
392234223452089;-11.4984;-0.0754;1.3995;
392234233540318;-4.4291;1.1800;7.0723;
392234243643964;-12.6506;0.6936;-3.4298;
392234253747557;-12.0159;0.2076;-2.5768;
392234263870786;-3.9646;0.8399;-0.3658;
392234273974432;-7.4237;0.5405;-5.4945;
392234284078026;-14.5645;-0.6957;-6.0817;
392234294166203;-15.3335;0.5118;-0.4472;
392234304269849;-10.7797;1.6735;2.7458;
392234314373443;-1.2000;0.0685;0.9422;
392234324486724;-6.6093;-2.0898;-4.2347;
392234334590370;-14.9384;-0.7507;-3.2237;
392234344693964;-11.1703;0.7247;-2.7230;
392234354783391;-8.2143;0.8447;-1.2715;
392234364887036;-8.4392;1.0531;-1.1420;
392234374990630;-10.2359;0.5166;-2.8211;
392234385097818;-12.8590;0.1690;-0.7540;
392234395201464;-6.7840;0.7705;1.5027;
392234405305057;-5.5385;-0.6407;-4.4524;
392234415409849;-13.2183;-0.8946;-5.8011;
392234425513495;-8.9040;0.2770;-1.3959;
392234435617089;-7.3756;-0.6598;-0.8809;
392234445725474;-6.2019;-0.6263;-3.0033;
392234455829120;-9.6897;-1.4216;-5.7867;
392234465932714;-13.6902;-0.4059;-5.5881;
392234476040057;-10.7821;-0.0272;-1.4438;
392234486143703;-7.9938;-0.2189;1.1216;
392234496247297;-6.8318;-1.4551;1.5194;
392234506345057;-8.5735;-1.6394;-3.5327;
392234516448703;-11.9198;-1.8287;-6.0912;
392234526552297;-11.1440;-1.1557;-4.5102;
392234536660057;-10.6122;-0.2931;-0.3251;
392234546763703;-6.5587;0.0685;0.9613;
392234556867297;-11.1679;-1.1773;-2.5792;
392234566985370;-12.3488;-0.6120;-3.5160;
392234577089016;-8.7939;0.0900;-1.4629;
392234587192609;-7.1363;0.5859;-1.4246;
392234597274849;-7.9364;-0.5303;-4.1961;
392234607378495;-10.2742;-0.4155;-4.4692;
392234617482089;-12.1810;1.1752;-2.4978;
392234627592141;-9.8862;1.1728;-0.2079;
392234637695786;-6.8031;0.2506;-1.4079;
392234647799380;-10.0107;-0.3628;-1.9253;
392234657890214;-9.0574;0.7705;-1.4270;
392234667993807;-7.9914;0.8231;-1.5948;
392234678097401;-8.8681;0.3966;-1.8296;
392234688196151;-10.8706;0.5022;-3.7005;
392234698299745;-14.3082;0.5189;-2.8693;
392234708403339;-6.3553;0.1666;-1.1109;
392234718521932;-5.3061;-0.7579;-1.8823;
392234728625526;-11.3952;-0.1950;-3.1301;
392234738729120;-11.2014;0.6482;-1.5781;
392234748887557;-4.0436;0.4711;-2.4045;
392234758991151;-11.2971;-0.1208;-5.0539;
392234769094797;-15.2091;0.1307;-2.8355;
392234779149901;-7.9819;1.0436;-1.0845;
392234789253443;-5.7682;-0.2094;-1.3313;
392234799357089;-9.9269;-1.4815;-2.2989;
392234809487557;-11.9294;-0.1256;-3.1687;
392234819591307;-10.6648;-0.2237;-1.4007;
392234829695057;-8.1613;-0.1854;-0.9550;
392234839777922;-9.9317;-0.4992;-2.5528;
392234849881620;-12.8447;-0.8393;-3.7101;
392234859985370;-8.7147;-0.6933;-1.6140;
392234870082922;-7.7949;-0.1615;-0.7516;
392234880186620;-9.0455;-1.0358;-2.7852;
392234890290370;-2.1320;-1.3567;-3.7747;
392234900382714;-5.2558;-0.8441;-6.8961;
392234910486464;-16.9385;0.4325;-6.5438;
392234920590161;-17.9590;1.1369;-1.2425;
392234930696620;-5.1550;-0.3820;1.3851;
392234940800370;-3.0206;-1.7833;-1.2162;
392234950904068;-11.2397;-1.3567;-4.7617;
392234961001880;-17.6190;0.7657;-0.8426;
392234971105630;-6.1301;0.1451;5.6037;
392234981209328;-3.4280;-1.8048;-1.6810;
392234991322401;-16.2894;-0.0296;-9.7370;
392235001426151;-11.4410;1.0316;-1.1396;
392235011529849;-6.7409;-0.3389;1.1554;
392235021623703;-7.1025;-0.7914;-3.3912;
392235031727401;-9.2779;0.0948;-4.1435;
392235041831151;-12.3368;0.0326;-2.3109;
392235051933703;-9.3855;0.0422;-3.0799;
392235062037401;-6.8151;0.1786;-5.2887;
392235072141151;-11.5989;-0.0392;-2.7805;
392235082257609;-14.0856;-0.6048;1.4668;
392235092361307;-11.0360;-0.5136;1.9241;
392235102465057;-8.8179;-1.4623;2.0871;
392235112555943;-13.5033;-1.3496;5.1799;
392235122659641;-8.3674;-2.2768;4.0561;
392235132763391;-8.5687;-2.1209;-6.7187;
392235142869068;-13.1106;1.0842;-10.5658;
392235152972818;-4.2832;0.2483;-2.5816;
392235163076516;0.9535;-0.5734;-3.1472;
392235173185630;-6.4726;1.2374;-8.2998;
392235183289328;-10.0756;1.9657;-7.5787;
392235193393078;-11.0216;1.2326;-3.2692;
392235203499693;-14.2579;0.5405;-1.5948;
392235213603443;-10.4181;0.7080;-2.0234;
392235223706962;-5.6725;-0.7795;0.5300;
392235233804097;-11.8409;-1.3735;0.5157;
392235243907795;-16.4641;-0.4825;1.6920;
392235254011545;-6.1971;1.2135;3.2010;
392235264113107;-6.6260;-1.2802;-1.4270;
392235274216805;-13.6017;1.0507;-5.6025;
392235284320555;-9.3592;-0.4609;-1.2066;
392235294428680;-7.0834;0.3703;-3.4250;
392235304532378;-9.3544;0.9260;-7.4255;
392235314636128;-12.0661;0.7633;-7.4853;
392235324745139;-14.3058;1.0244;-4.3854;
392235334848837;0.0479;-0.2285;-4.1770;
392235344952587;-11.3354;0.3224;-5.5280;
392235355050451;-17.0560;1.1536;-0.6437;
392235365154149;-5.1694;0.4469;3.2895;
392235375257899;-5.5911;-0.5758;2.3746;
392235385363524;-13.2183;0.0972;1.9361;
392235395467274;-5.5337;0.3057;0.9374;
392235405570972;-6.7648;-0.7675;-2.1362;
392235415677222;-7.3205;-0.2381;-6.3643;
392235425780920;-6.5420;0.5046;-12.8178;
392235435884670;-17.7793;0.4253;-10.4462;
392235445981597;-14.2843;0.7537;-1.0750;
392235456085347;-0.7355;-0.8827;-1.1109;
392235466189045;-4.7312;-1.8120;-5.1544;
392235476300764;-10.3582;-0.3461;-2.7302;
392235486404462;-16.2727;1.0795;-0.6461;
392235496508212;-8.8131;-0.2046;1.5577;
392235506611076;-8.0752;-0.2524;-0.0449;
392235516714826;-16.7614;1.6400;-3.9999;
392235526818524;-6.5133;-0.1735;-0.7349;
392235536925972;-3.1860;-0.4202;-2.6034;
392235547029670;-11.3091;-0.9066;-6.7020;
392235557133420;-12.9547;1.9418;-5.5953;
392235567228368;-8.0847;-0.0559;-5.1449;
392235577332066;-10.3917;-0.4513;-3.3984;
392235587435816;-5.9767;0.1762;-1.0319;
392235597533941;-6.2186;-0.4394;-3.4011;
392235607637639;-15.3790;-0.2166;-2.7350;
392235617741389;-9.8049;-0.3532;1.6534;
392235627857014;-6.5252;-0.7053;0.2043;
392235637960712;-7.3899;-1.1988;-1.8464;
392235648064462;-7.6944;-0.7029;-6.7570;
392235658155139;-12.0374;0.0398;-9.6054;
392235668258837;-10.9810;0.5859;-3.4131;
392235678362587;-10.0875;0.9787;1.4620;
392235688459357;-8.2262;-0.2548;1.5434;
392235698563055;-5.7108;-0.3194;-3.1687;
392235708666753;-11.2756;0.3105;-6.8121;
392235718819357;-15.4149;1.7692;-1.7862;
392235728923107;-9.0861;1.0026;0.4869;
392235739026857;-1.5858;-2.1162;-0.4376;
392235749090139;-8.1254;-0.3338;-5.2693;
392235759193837;-15.3814;1.3645;-4.5245;
392235769297587;-11.9943;-0.6287;0.0054;
392235779469618;-6.4247;-0.4394;-0.6173;
392235789573368;-12.8830;-0.0105;-4.1291;
392235799677066;-13.3382;-0.8779;1.0786;
392235809728837;-2.9991;-2.6862;1.2176;
392235819832535;-8.1063;-1.5006;-6.1487;
392235829936232;-13.6687;-0.2309;-4.0430;
392235840030712;-11.3067;-0.1089;-0.4232;
392235850134410;-9.1795;0.1834;-1.1276;
392235860238107;-7.6801;0.1786;-2.1362;
392235870329618;-8.6453;-1.6011;-2.3109;
392235880433316;-8.9255;-0.7436;-2.7230;
392235890537014;-7.6609;0.3344;-4.2009;
392235900642847;-9.4956;0.0589;-4.0669;
392235910746493;-12.6864;0.0685;-1.5132;
392235920850191;-7.9747;0.1953;-0.8856;
392235930945972;-7.0810;0.1283;-5.2502;
392235941049618;-14.8328;-0.3051;-3.6814;
392235951153316;-11.5558;-0.9664;5.6492;
392235961274149;-3.3057;-1.1291;3.5940;
392235971377847;-5.3970;-0.9688;-7.8494;
392235981481545;-13.6854;1.0026;-9.8016;
392235991581753;-7.1097;0.9882;-2.2415;
392236001685451;-10.5640;0.1738;-4.5150;
392236011789149;-12.8207;0.6984;-5.0372;
392236021915399;-11.9175;1.1441;1.2535;
392236032019097;-7.2631;-0.0583;2.4296;
392236042122795;-6.8557;0.2530;-3.9182;
392236052203732;-11.7571;0.2530;-5.8828;
392236062307430;-8.7266;0.2530;-0.6413;
392236072411128;-8.1781;1.4291;-2.2032;
392236082520555;-11.4218;0.9428;-4.3519;
392236092624253;-12.5022;0.5812;-1.3696;
392236102727951;-8.0584;0.2028;0.3984;
392236112829774;-3.0111;-0.4274;-2.3782;
392236122933472;-8.6309;-1.5293;-5.9785;
392236133037170;-13.6854;0.1451;-4.7327;
392236143134722;-12.0374;1.5754;-1.9277;
392236153238368;-4.3932;-0.1567;-2.1721;
392236163342066;-8.4849;-0.5327;-6.2492;
392236173464149;-13.9609;-0.9138;-1.8200;
392236183567847;-9.6730;-0.2333;3.3879;
392236193671545;-5.7586;-0.4561;0.4223;
392236203766024;-7.7806;-0.5351;-3.9879;
392236213869722;-14.0566;-0.2070;-5.1162;
392236223973420;-9.5124;-0.5279;-3.0033;
392236234068628;-7.6777;-0.9209;-5.4467;
