Sensor: bmi160 Gyroscope Non-wakeup
Vendor: BOSCH
TimestampGyro [ns]; GyroX [rad/s]; GyroY [rad/s]; GyroZ [rad/s]
392206458630161;-0.0027;-0.0059;0.0182;
392206468734589;-0.0037;0.0005;0.0119;
392206478788911;-0.0048;0.0005;0.0214;
392206488927193;-0.0037;0.0005;0.0214;
392206499037609;-0.0059;0.0005;0.0214;
392206509134745;-0.0048;0.0016;0.0236;
392206519199797;-0.0037;0.0005;0.0246;
392206529351047;-0.0059;-0.0005;0.0257;
392206539481047;-0.0069;0.0005;0.0278;
392206549532401;-0.0048;0.0016;0.0278;
392206559651672;-0.0048;0.0005;0.0289;
392206569755578;-0.0080;0.0005;0.0289;
392206579834641;-0.0069;0.0005;0.0310;
392206589977974;-0.0059;-0.0005;0.0332;
392206600051932;-0.0069;0.0027;0.0310;
392206610148130;-0.0080;0.0016;0.0342;
392206620280266;-0.0091;0.0027;0.0353;
392206630367193;-0.0091;0.0037;0.0342;
392206640479120;-0.0091;0.0037;0.0364;
392206650569380;-0.0080;0.0027;0.0364;
392206660681984;-0.0091;0.0027;0.0364;
392206670801099;-0.0091;-0.0005;0.0353;
392206680883130;-0.0080;0.0005;0.0353;
392206690988130;-0.0091;0.0005;0.0342;
392206701089693;-0.0091;0.0005;0.0342;
392206711193443;-0.0069;-0.0005;0.0321;
392206721298859;-0.0069;-0.0016;0.0321;
392206731397297;-0.0069;-0.0005;0.0321;
392206741504797;-0.0059;-0.0016;0.0300;
392206751604901;-0.0069;-0.0027;0.0278;
392206761715109;-0.0048;-0.0016;0.0268;
392206771834797;-0.0048;0.0005;0.0246;
392206781924380;-0.0048;0.0016;0.0225;
392206792033547;-0.0037;0.0016;0.0204;
392206802136880;-0.0048;0.0005;0.0182;
392206812234068;-0.0037;0.0016;0.0150;
392206822342714;-0.0027;0.0005;0.0129;
392206832438339;-0.0016;0.0005;0.0119;
392206842546464;-0.0016;0.0027;0.0076;
392206852648547;-0.0037;0.0027;0.0055;
392206862754693;-0.0016;0.0016;0.0044;
392206872865109;-0.0005;0.0016;0.0033;
392206882967193;-0.0016;0.0016;0.0033;
392206893060370;-0.0005;0.0016;0.0033;
392206903164484;-0.0016;0.0016;0.0044;
392206913265109;-0.0005;0.0005;0.0044;
392206923376880;-0.0016;-0.0005;0.0055;
392206933491984;-0.0016;-0.0005;0.0065;
392206943584797;-0.0037;-0.0005;0.0097;
392206953681776;-0.0037;0.0005;0.0129;
392206963799693;-0.0048;0.0016;0.0150;
392206973889693;-0.0069;0.0037;0.0193;
392206983996151;-0.0091;0.0059;0.0225;
392206994124953;-0.0080;0.0059;0.0300;
392207004203859;-0.0091;0.0027;0.0364;
392207014306359;-0.0123;-0.0005;0.0395;
392207024423651;-0.0133;-0.0037;0.0459;
392207034512505;-0.0144;-0.0037;0.0523;
392207044620214;-0.0133;-0.0027;0.0587;
392207054721620;-0.0154;-0.0005;0.0630;
392207064827714;-0.0176;0.0027;0.0672;
392207074918130;-0.0197;0.0048;0.0736;
392207085036047;-0.0261;0.0048;0.0811;
392207095133026;-0.0368;0.0016;0.0875;
392207105241984;-0.0453;0.0016;0.0949;
392207115340422;-0.0485;0.0048;0.1035;
392207125446359;-0.0634;0.0048;0.1182;
392207135551984;-0.0783;0.0048;0.1332;
392207145643859;-0.0847;0.0048;0.1459;
392207155757505;-0.0815;0.0059;0.1577;
392207165866464;-0.0613;0.0048;0.1758;
392207175959693;-0.0389;0.0069;0.1928;
392207186074380;-0.0442;0.0069;0.2045;
392207196167609;-0.0495;0.0048;0.2162;
392207206273651;-0.0549;0.0027;0.2269;
392207216379068;-0.0591;0.0027;0.2333;
392207226477193;-0.0559;0.0016;0.2450;
392207236584797;-0.0549;0.0005;0.2525;
392207246696568;-0.0591;-0.0005;0.2599;
392207256788651;-0.0634;0.0016;0.2695;
392207266894589;-0.0623;0.0048;0.2748;
392207276987453;-0.0634;0.0048;0.2748;
392207287116776;-0.0644;0.0037;0.2780;
392207297215109;-0.0613;0.0037;0.2791;
392207307317401;-0.0613;0.0016;0.2748;
392207317417193;-0.0591;0.0005;0.2652;
392207327529953;-0.0549;0.0016;0.2546;
392207337623443;-0.0506;0.0005;0.2407;
392207347726672;-0.0485;-0.0016;0.2237;
392207357832609;-0.0506;-0.0027;0.2035;
392207367939172;-0.0485;0.0027;0.1832;
392207378029380;-0.0485;0.0080;0.1662;
392207388133703;-0.0442;0.0144;0.1523;
392207398215786;-0.0389;0.0240;0.1385;
392207408334797;-0.0346;0.0208;0.1278;
392207418442818;-0.0314;0.0123;0.1129;
392207428545005;-0.0293;0.0048;0.1003;
392207438658443;-0.0240;-0.0016;0.0885;
392207448757089;-0.0208;-0.0069;0.0790;
392207458886568;-0.0165;-0.0048;0.0683;
392207468961516;-0.0112;-0.0005;0.0566;
392207479070422;-0.0069;0.0005;0.0481;
392207489176411;-0.0059;-0.0037;0.0406;
392207499332714;-0.0059;-0.0080;0.0364;
392207509383078;-0.0101;-0.0144;0.0342;
392207519504276;-0.0069;-0.0123;0.0300;
392207529575839;-0.0037;-0.0037;0.0278;
392207539682609;-0.0016;-0.0005;0.0289;
392207549789328;-0.0027;0.0037;0.0310;
392207559943234;-0.0069;0.0027;0.0353;
392207570050005;-0.0144;-0.0016;0.0395;
392207580156724;-0.0165;-0.0005;0.0470;
392207590199797;-0.0154;0.0027;0.0555;
392207600306568;-0.0154;0.0069;0.0640;
392207610413286;-0.0176;0.0080;0.0736;
392207620541984;-0.0229;0.0037;0.0843;
392207630648755;-0.0240;0.0027;0.0928;
392207640755474;-0.0261;0.0005;0.1024;
392207650834901;-0.0282;-0.0005;0.1108;
392207660941672;-0.0282;0.0069;0.1150;
392207671048391;-0.0304;0.0101;0.1182;
392207681143443;-0.0304;0.0091;0.1225;
392207691250214;-0.0293;0.0080;0.1225;
392207701356932;-0.0304;0.0059;0.1204;
392207711459432;-0.0325;-0.0005;0.1182;
392207721566203;-0.0282;0.0005;0.1150;
392207731672922;-0.0250;0.0016;0.1108;
392207741759797;-0.0240;0.0027;0.1076;
392207751866568;-0.0240;0.0016;0.1035;
392207761973286;-0.0240;0.0027;0.0981;
392207772068234;-0.0261;0.0037;0.0928;
392207782175005;-0.0240;0.0080;0.0875;
392207792281724;-0.0218;0.0091;0.0811;
392207802387401;-0.0154;0.0101;0.0694;
392207812494172;-0.0133;0.0069;0.0577;
392207822600891;-0.0112;0.0016;0.0427;
392207832694797;-0.0080;-0.0016;0.0321;
392207842801568;-0.0048;-0.0016;0.0193;
392207852908286;-0.0016;-0.0005;0.0055;
392207863012297;0.0005;0.0027;-0.0084;
392207873119068;0.0048;0.0059;-0.0212;
392207883225786;0.0091;0.0059;-0.0329;
392207893321359;0.0101;-0.0005;-0.0425;
392207903428130;0.0101;-0.0048;-0.0499;
392207913534849;0.0133;-0.0059;-0.0574;
392207923645266;0.0165;-0.0069;-0.0638;
392207933752036;0.0186;-0.0069;-0.0680;
392207943858755;0.0218;-0.0048;-0.0712;
392207953952714;0.0176;-0.0048;-0.0712;
392207964059484;0.0208;-0.0059;-0.0723;
392207974166203;0.0208;-0.0091;-0.0680;
392207984260630;0.0154;-0.0123;-0.0638;
392207994367401;0.0154;-0.0091;-0.0617;
392208004474120;0.0133;-0.0048;-0.0563;
392208014588443;0.0123;-0.0005;-0.0489;
392208024695214;0.0101;0.0059;-0.0414;
392208034801932;0.0091;0.0059;-0.0350;
392208044889380;0.0059;0.0005;-0.0286;
392208054996151;0.0048;-0.0037;-0.0190;
392208065102870;0.0027;-0.0069;-0.0084;
392208075206359;-0.0005;-0.0069;-0.0020;
392208085313130;-0.0016;-0.0005;0.0055;
392208095419849;-0.0037;0.0027;0.0172;
392208105513026;-0.0069;0.0005;0.0268;
392208115619797;-0.0080;-0.0005;0.0374;
392208125726516;-0.0133;0.0005;0.0449;
392208135812401;-0.0144;0.0005;0.0534;
392208145919172;-0.0165;0.0016;0.0640;
392208156025891;-0.0186;0.0048;0.0715;
392208166124589;-0.0197;0.0080;0.0811;
392208176231359;-0.0229;0.0059;0.0875;
392208186338078;-0.0250;0.0059;0.0949;
392208196440005;-0.0250;0.0069;0.0981;
392208206546776;-0.0282;0.0080;0.1003;
392208216653495;-0.0314;0.0101;0.0992;
392208226748026;-0.0378;0.0165;0.0939;
392208236854797;-0.0336;0.0229;0.0875;
392208246961516;-0.0282;0.0218;0.0758;
392208257074172;-0.0389;0.0165;0.0545;
392208267180943;-0.0570;0.0005;0.0310;
392208277287661;-0.1646;-0.0368;-0.0052;
392208287372922;-0.1891;-0.0410;-0.0329;
392208297479693;-0.0964;-0.0218;-0.0542;
392208307586411;-0.0570;-0.0186;-0.0734;
392208317674589;-0.0889;-0.0101;-0.0936;
392208327781359;-0.1518;-0.0048;-0.1288;
392208337888078;-0.2445;-0.0208;-0.1618;
392208347987505;-0.3796;-0.0261;-0.1937;
392208358094276;-0.5117;-0.0154;-0.1927;
392208368200995;-0.5692;-0.0101;-0.1554;
392208378290005;-0.5714;-0.0091;-0.1511;
392208388396776;-0.6065;0.0016;-0.1905;
392208398503495;-0.6481;0.0154;-0.2182;
392208408596255;-0.6140;0.0186;-0.2108;
392208418703026;-0.5181;0.0218;-0.1820;
392208428809745;-0.3583;0.0229;-0.1554;
392208438913286;-0.1678;0.0133;-0.1352;
392208449020057;0.0048;0.0016;-0.1202;
392208459126776;0.0708;0.0005;-0.1170;
392208469209484;0.0431;0.0027;-0.1192;
392208479316255;0.0410;0.0027;-0.1149;
392208489422974;0.0272;0.0080;-0.1043;
392208499524745;0.0218;0.0101;-0.0936;
392208509631516;0.0389;0.0091;-0.0904;
392208519738234;0.1028;-0.0037;-0.0872;
392208529826724;0.2061;-0.0101;-0.0787;
392208539930891;0.2786;-0.0048;-0.0702;
392208550035109;0.2924;0.0027;-0.0680;
392208560180891;0.2775;0.0080;-0.0680;
392208570285057;0.2498;0.0112;-0.0638;
392208580389276;0.2146;0.0080;-0.0595;
392208590485786;0.1688;-0.0027;-0.0627;
392208600589953;0.1188;-0.0080;-0.0723;
392208610694172;0.0794;-0.0059;-0.0808;
392208620788339;0.0581;-0.0037;-0.0808;
392208630892505;0.0527;-0.0005;-0.0755;
392208640996724;0.0591;0.0048;-0.0712;
392208651086932;0.0506;0.0069;-0.0723;
392208661191099;0.0123;0.0133;-0.0766;
392208671295318;0.0165;0.0144;-0.0766;
392208681404849;0.0144;0.0069;-0.0670;
392208691509016;0.0123;-0.0005;-0.0563;
392208701613234;0.0069;-0.0059;-0.0478;
392208711709849;0.0069;-0.0080;-0.0467;
392208721814016;0.0048;0.0027;-0.0457;
392208731918234;0.0037;0.0165;-0.0350;
392208742022245;0.0027;0.0186;-0.0254;
392208752126411;-0.0005;0.0123;-0.0180;
392208762230630;0.0048;0.0048;-0.0095;
392208772346984;0.0037;-0.0037;-0.0073;
392208782451151;0.0048;-0.0101;-0.0063;
392208792528859;-0.0037;-0.0069;-0.0009;
392208802633078;-0.0069;-0.0005;0.0055;
392208812737245;-0.0069;0.0027;0.0140;
392208822847974;-0.0059;0.0027;0.0182;
392208832952141;-0.0027;-0.0005;0.0204;
392208843056359;-0.0069;-0.0027;0.0268;
392208853163182;-0.0123;-0.0037;0.0374;
392208863267349;-0.0133;-0.0027;0.0459;
392208873371568;-0.0112;0.0016;0.0513;
392208883478182;-0.0112;0.0048;0.0545;
392208893582349;-0.0123;0.0027;0.0566;
392208903686568;-0.0144;0.0016;0.0598;
392208913779641;-0.0165;-0.0016;0.0630;
392208923883807;-0.0154;-0.0027;0.0630;
392208933988026;-0.0133;-0.0027;0.0587;
392208944110370;-0.0144;-0.0027;0.0545;
392208954214536;-0.0123;0.0005;0.0523;
392208964318755;-0.0133;0.0037;0.0470;
392208974418703;-0.0091;0.0027;0.0406;
392208984522870;-0.0059;-0.0005;0.0321;
392208994627089;-0.0037;-0.0016;0.0204;
392209004722245;-0.0027;-0.0037;0.0065;
392209014826411;-0.0005;-0.0059;-0.0063;
392209024930630;-0.0005;-0.0080;-0.0180;
392209035034328;0.0059;-0.0069;-0.0286;
392209045138495;0.0091;-0.0005;-0.0393;
392209055242714;0.0112;0.0027;-0.0478;
392209065407036;0.0112;0.0069;-0.0531;
392209075511203;0.0123;0.0080;-0.0585;
392209085615422;0.0165;0.0069;-0.0617;
392209095657141;0.0197;0.0037;-0.0638;
392209105761307;0.0208;0.0016;-0.0648;
392209115865526;0.0197;0.0048;-0.0648;
392209125974953;0.0176;0.0080;-0.0648;
392209136079120;0.0176;0.0101;-0.0648;
392209146183339;0.0197;0.0080;-0.0691;
392209156282141;0.0197;0.0048;-0.0712;
392209166386307;0.0186;0.0016;-0.0723;
392209176490526;0.0197;0.0005;-0.0691;
392209186593807;0.0165;0.0005;-0.0659;
392209196697974;0.0176;0.0027;-0.0627;
392209206802193;0.0176;0.0069;-0.0606;
392209216907661;0.0154;0.0069;-0.0574;
392209227011828;0.0144;0.0037;-0.0510;
392209237116047;0.0123;0.0016;-0.0446;
392209247210318;0.0112;-0.0005;-0.0414;
392209257314484;0.0080;0.0005;-0.0382;
392209267418703;0.0091;0.0016;-0.0329;
392209277517661;0.0091;0.0027;-0.0265;
392209287621828;0.0048;0.0016;-0.0212;
392209297726047;0.0027;0.0005;-0.0158;
392209307832974;0.0027;-0.0005;-0.0105;
392209317937141;0.0016;-0.0005;-0.0063;
392209328041359;-0.0016;-0.0016;-0.0020;
392209338146099;-0.0016;0.0005;0.0033;
392209348250266;-0.0027;0.0005;0.0076;
392209358354484;-0.0059;0.0005;0.0119;
392209368443391;-0.0048;-0.0005;0.0161;
392209378547557;-0.0048;-0.0016;0.0161;
392209388651776;-0.0048;-0.0027;0.0161;
392209398788182;-0.0059;-0.0048;0.0172;
392209408892349;-0.0059;-0.0037;0.0182;
392209418996568;-0.0037;-0.0016;0.0182;
392209429083495;-0.0048;0.0027;0.0161;
392209439187661;-0.0037;0.0048;0.0161;
392209449291880;-0.0048;0.0048;0.0193;
392209459389641;-0.0048;0.0048;0.0225;
392209469493807;-0.0059;0.0037;0.0246;
392209479598026;-0.0080;0.0016;0.0278;
392209489704432;-0.0080;0.0016;0.0332;
392209499808599;-0.0080;0.0016;0.0395;
392209509912818;-0.0091;0.0005;0.0449;
392209520015786;-0.0123;0.0005;0.0502;
392209530119953;-0.0123;-0.0005;0.0534;
392209540224172;-0.0112;-0.0016;0.0555;
392209550323807;-0.0133;-0.0016;0.0566;
392209560427974;-0.0154;-0.0027;0.0587;
392209570532193;-0.0144;-0.0037;0.0598;
392209580646828;-0.0154;-0.0027;0.0619;
392209590750995;-0.0154;-0.0016;0.0640;
392209600855214;-0.0144;0.0005;0.0651;
392209610942141;-0.0144;0.0005;0.0694;
392209621046307;-0.0154;0.0005;0.0715;
392209631150526;-0.0176;-0.0027;0.0715;
392209641256568;-0.0176;-0.0037;0.0704;
392209651360734;-0.0176;-0.0037;0.0726;
392209661464953;-0.0176;-0.0016;0.0747;
392209671574432;-0.0176;0.0005;0.0747;
392209681678599;-0.0186;0.0016;0.0758;
392209691782818;-0.0176;0.0016;0.0779;
392209701867245;-0.0165;0.0005;0.0800;
392209711971411;-0.0186;-0.0005;0.0832;
392209722075630;-0.0229;-0.0027;0.0843;
392209732181932;-0.0240;-0.0016;0.0854;
392209742286099;-0.0218;-0.0037;0.0832;
392209752390318;-0.0197;-0.0037;0.0811;
392209762489849;-0.0186;-0.0027;0.0779;
392209772594016;-0.0208;-0.0027;0.0747;
392209782698234;-0.0218;-0.0048;0.0726;
392209792807505;-0.0197;-0.0069;0.0683;
392209802911672;-0.0176;-0.0069;0.0619;
392209813015891;-0.0165;-0.0059;0.0577;
392209823119641;-0.0144;-0.0027;0.0513;
392209833223807;-0.0133;0.0005;0.0449;
392209843328026;-0.0080;0.0016;0.0342;
392209853425161;-0.0037;0.0027;0.0204;
392209863529328;-0.0048;0.0016;0.0065;
392209873633547;-0.0016;-0.0016;-0.0031;
392209883735995;0.0016;-0.0027;-0.0095;
392209893840161;0.0016;-0.0016;-0.0169;
392209903944380;-0.0016;0.0005;-0.0233;
392209914042974;0.0027;0.0016;-0.0222;
392209924147141;0.0048;0.0037;-0.0190;
392209934251359;0.0027;0.0048;-0.0158;
392209944364432;-0.0037;0.0027;-0.0137;
392209954468599;-0.0016;-0.0005;-0.0063;
392209964572818;0.0016;-0.0016;-0.0009;
392209974671203;0.0005;-0.0037;0.0012;
392209984775422;0.0016;-0.0069;0.0023;
392209994879589;0.0016;-0.0037;0.0044;
392210004979849;-0.0016;-0.0048;0.0076;
392210015084016;-0.0016;-0.0048;0.0087;
392210025188234;-0.0037;-0.0027;0.0087;
392210035291516;-0.0037;-0.0037;0.0087;
392210045395682;-0.0016;-0.0027;0.0108;
392210055499901;-0.0016;0.0016;0.0108;
392210065600526;-0.0037;0.0048;0.0087;
392210075704693;0.0005;0.0059;0.0076;
392210085808859;-0.0005;0.0123;0.0044;
392210095917818;0.0059;0.0197;-0.0041;
392210106021984;0.0048;0.0176;-0.0116;
392210116126203;0.0037;0.0176;-0.0222;
392210126229901;0.0261;0.0165;-0.0318;
392210136334068;-0.0005;0.0059;-0.0521;
392210146438286;0.0133;-0.0112;-0.0563;
392210156530682;0.0112;-0.0144;-0.0521;
392210166634849;0.0101;-0.0112;-0.0563;
392210176739068;0.0091;-0.0144;-0.0553;
392210186840995;0.0112;-0.0048;-0.0499;
392210196945161;0.0112;0.0037;-0.0414;
392210207049380;0.0165;0.0016;-0.0318;
392210217151151;0.0080;0.0027;-0.0265;
392210227255318;0.0027;0.0016;-0.0265;
392210237359536;0.0080;0.0016;-0.0222;
392210247466932;0.0059;0.0016;-0.0222;
392210257571099;0.0037;0.0027;-0.0265;
392210267675318;0.0154;0.0059;-0.0254;
392210277802661;0.0037;0.0069;-0.0254;
392210287906828;0.0037;0.0037;-0.0254;
392210298011047;0.0059;0.0016;-0.0233;
392210308084641;0.0037;-0.0037;-0.0244;
392210318188807;0.0048;-0.0059;-0.0201;
392210328293026;0.0059;-0.0016;-0.0126;
392210338398286;0.0048;-0.0016;-0.0105;
392210348502453;0.0016;-0.0037;-0.0095;
392210358606672;0.0005;-0.0027;-0.0052;
392210368715578;0.0016;-0.0016;-0.0031;
392210378819745;0.0016;-0.0005;-0.0009;
392210388923964;0.0016;0.0048;-0.0041;
392210399024068;0.0027;0.0069;-0.0063;
392210409128234;0.0016;0.0069;-0.0063;
392210419232453;0.0037;0.0059;-0.0063;
392210429348078;0.0027;0.0027;-0.0116;
392210439452245;0.0037;0.0027;-0.0169;
392210449556464;0.0069;0.0059;-0.0201;
392210459622297;0.0069;0.0080;-0.0254;
392210469726464;0.0080;0.0069;-0.0318;
392210479830682;0.0080;0.0048;-0.0350;
392210489974432;0.0080;0.0016;-0.0372;
392210500078599;0.0112;-0.0005;-0.0414;
392210510182818;0.0112;-0.0016;-0.0457;
392210520226255;0.0123;0.0005;-0.0489;
392210530330474;0.0123;0.0048;-0.0499;
392210540434693;0.0144;0.0059;-0.0531;
392210550591411;0.0133;0.0059;-0.0563;
392210560695578;0.0154;0.0037;-0.0553;
392210570799797;0.0144;0.0005;-0.0563;
392210580898807;0.0154;-0.0005;-0.0595;
392210591002974;0.0144;0.0016;-0.0585;
392210601107193;0.0154;0.0027;-0.0585;
392210611214120;0.0123;0.0027;-0.0585;
392210621318286;0.0133;0.0016;-0.0542;
392210631422505;0.0101;-0.0016;-0.0489;
392210641511203;0.0112;-0.0016;-0.0467;
392210651615370;0.0091;-0.0016;-0.0435;
392210661719589;0.0101;-0.0005;-0.0403;
392210671815995;0.0123;-0.0027;-0.0318;
392210681920161;0.0080;-0.0027;-0.0286;
392210692024380;0.0069;-0.0037;-0.0308;
392210702134953;0.0059;-0.0037;-0.0276;
392210712239120;0.0048;-0.0016;-0.0233;
392210722343339;0.0027;0.0037;-0.0212;
392210732467870;0.0048;0.0048;-0.0180;
392210742572036;0.0016;0.0027;-0.0137;
392210752676203;0.0005;0.0005;-0.0084;
392210762772661;0.0027;-0.0037;-0.0031;
392210772876828;0.0005;-0.0069;-0.0009;
392210782981047;-0.0016;-0.0069;0.0012;
392210793066151;0.0027;-0.0027;0.0023;
392210803169849;0.0016;0.0005;0.0001;
392210813273599;0.0005;0.0027;-0.0041;
392210823373026;0.0027;0.0027;-0.0116;
392210833476724;0.0027;0.0027;-0.0180;
392210843580474;0.0048;0.0037;-0.0222;
392210853682401;0.0123;0.0048;-0.0308;
392210863786099;0.0091;0.0069;-0.0403;
392210873889849;0.0080;0.0069;-0.0446;
392210883990109;0.0101;0.0080;-0.0467;
392210894093807;0.0091;0.0101;-0.0499;
392210904197557;0.0112;0.0069;-0.0510;
392210914307401;0.0123;0.0037;-0.0521;
392210924411099;0.0123;0.0059;-0.0521;
392210934514849;0.0112;0.0048;-0.0510;
392210944607401;0.0144;0.0048;-0.0510;
392210954711099;0.0154;0.0048;-0.0585;
392210964814849;0.0208;0.0080;-0.0648;
392210974926984;0.0240;0.0123;-0.0638;
392210985030682;0.0357;0.0208;-0.0755;
392210995134432;0.0240;0.0208;-0.0883;
392211005241568;0.0431;0.0165;-0.1000;
392211015345266;0.1017;0.0123;-0.1096;
392211025449016;0.1987;0.0037;-0.1149;
392211035547505;0.3221;0.0005;-0.1256;
392211045651203;0.4553;0.0027;-0.1341;
392211055754953;0.5607;0.0027;-0.1394;
392211065881203;0.5778;-0.0059;-0.1405;
392211075984953;0.3935;-0.0218;-0.1426;
392211086088703;0.0378;-0.0325;-0.1565;
392211096170943;-0.0985;-0.0272;-0.1767;
392211106274641;-0.0037;-0.0091;-0.1682;
392211116378391;0.0314;0.0037;-0.1320;
392211126491880;0.0421;0.0069;-0.0957;
392211136595578;0.0325;0.0059;-0.0883;
392211146699328;0.0069;-0.0048;-0.0872;
392211156786880;0.0037;-0.0133;-0.0617;
392211166890578;0.0154;-0.0101;-0.0286;
392211176994328;0.0112;-0.0005;-0.0169;
392211187103026;0.0016;0.0048;-0.0180;
392211197206724;-0.0037;0.0069;-0.0084;
392211207310474;-0.0037;0.0059;0.0129;
392211217411151;-0.0016;-0.0005;0.0278;
392211227514849;-0.0080;-0.0059;0.0289;
392211237618599;-0.0154;-0.0027;0.0289;
392211247724693;-0.0091;0.0005;0.0374;
392211257828391;-0.0059;-0.0016;0.0470;
392211267932141;-0.0069;-0.0016;0.0449;
392211278026359;-0.0101;0.0005;0.0385;
392211288130109;-0.0133;-0.0059;0.0385;
392211298233859;-0.0091;-0.0069;0.0417;
392211308340630;-0.0027;-0.0016;0.0364;
392211318444328;-0.0048;0.0005;0.0268;
392211328548078;-0.0037;0.0016;0.0182;
392211338656307;-0.0048;0.0016;0.0172;
392211348760057;-0.0048;0.0027;0.0161;
392211358863807;-0.0005;0.0027;0.0012;
392211368962818;0.0005;0.0037;-0.0137;
392211379066516;-0.0059;-0.0037;-0.0180;
392211389170266;-0.0016;-0.0016;-0.0041;
392211399241255;-0.0091;0.0048;0.0076;
392211409344953;-0.0133;0.0059;0.0023;
392211419448703;-0.0186;0.0016;-0.0009;
392211429575578;-0.0314;-0.0091;0.0055;
392211439679276;-0.0623;-0.0176;0.0108;
392211449783078;-0.1017;-0.0197;0.0076;
392211459915630;-0.1656;-0.0197;0.0001;
392211470019328;-0.2423;-0.0112;0.0012;
392211480123078;-0.3093;0.0037;0.0023;
392211490220734;-0.3573;0.0133;-0.0052;
392211500324432;-0.3796;0.0144;-0.0116;
392211510428130;-0.3732;0.0069;-0.0063;
392211520540786;-0.3413;-0.0069;0.0065;
392211530644536;-0.3020;-0.0186;0.0172;
392211540748286;-0.2807;-0.0208;0.0214;
392211550846672;-0.2860;-0.0133;0.0246;
392211560950370;-0.3168;-0.0016;0.0289;
392211571054068;-0.3519;0.0027;0.0332;
392211581130943;-0.3700;0.0027;0.0374;
392211591234641;-0.3658;0.0005;0.0406;
392211601338391;-0.3423;-0.0069;0.0449;
392211611449693;-0.3189;-0.0101;0.0502;
392211621553391;-0.3189;-0.0069;0.0523;
392211631657141;-0.3328;-0.0027;0.0523;
392211641772401;-0.3402;-0.0005;0.0513;
392211651876099;-0.3338;0.0005;0.0534;
392211661979849;-0.3093;0.0005;0.0587;
392211672081880;-0.2679;-0.0005;0.0672;
392211682185578;-0.2253;-0.0016;0.0704;
392211692289328;-0.1923;-0.0016;0.0715;
392211702398286;-0.1667;-0.0016;0.0736;
392211712501984;-0.1454;-0.0005;0.0768;
392211722605734;-0.1294;-0.0005;0.0790;
392211732715266;-0.1166;-0.0016;0.0811;
392211742819016;-0.1028;-0.0037;0.0811;
392211752922766;-0.0889;-0.0069;0.0758;
392211763018964;-0.0762;-0.0059;0.0747;
392211773122661;-0.0687;-0.0059;0.0747;
392211783226411;-0.0655;-0.0037;0.0726;
392211793326932;-0.0655;-0.0037;0.0683;
392211803430630;-0.0708;-0.0027;0.0640;
392211813534276;-0.0740;-0.0037;0.0598;
392211823628859;-0.0772;-0.0037;0.0566;
392211833732505;-0.0836;-0.0037;0.0513;
392211843836151;-0.0847;-0.0037;0.0470;
392211853945682;-0.0836;-0.0069;0.0417;
392211864049380;-0.0772;-0.0069;0.0364;
392211874153026;-0.0698;-0.0069;0.0321;
392211884255057;-0.0666;-0.0059;0.0289;
392211894358755;-0.0623;-0.0037;0.0268;
392211904462401;-0.0570;-0.0016;0.0236;
392211914555214;-0.0506;-0.0005;0.0204;
392211924658859;-0.0442;0.0005;0.0161;
392211934762505;-0.0399;-0.0027;0.0140;
392211944875057;-0.0368;-0.0005;0.0108;
392211954978755;-0.0399;-0.0005;0.0087;
392211965082401;-0.0474;0.0016;0.0055;
392211975196724;-0.0549;0.0027;0.0023;
392211985300422;-0.0602;0.0016;-0.0020;
392211995404068;-0.0623;0.0016;-0.0041;
392212005501516;-0.0581;0.0016;-0.0063;
392212015605214;-0.0538;0.0016;-0.0084;
392212025708859;-0.0453;-0.0005;-0.0105;
392212035813182;-0.0378;-0.0027;-0.0158;
392212045916880;-0.0378;-0.0027;-0.0180;
392212056020526;-0.0431;-0.0016;-0.0222;
392212066121776;-0.0506;0.0016;-0.0276;
392212076225474;-0.0591;0.0027;-0.0350;
392212086329120;-0.0602;0.0037;-0.0403;
392212096432766;-0.0549;0.0048;-0.0435;
392212106536464;-0.0506;0.0059;-0.0478;
392212116640109;-0.0442;0.0059;-0.0510;
392212126749328;-0.0304;0.0059;-0.0585;
392212136853026;-0.0208;0.0048;-0.0606;
392212146956672;-0.0186;0.0059;-0.0617;
392212157054224;-0.0250;0.0059;-0.0638;
392212167157922;-0.0357;0.0069;-0.0680;
392212177261568;-0.0517;0.0080;-0.0702;
392212187371411;-0.0644;0.0101;-0.0723;
392212197475109;-0.0740;0.0101;-0.0734;
392212207578807;-0.0815;0.0112;-0.0712;
392212217669901;-0.0889;0.0144;-0.0712;
392212227773547;-0.0996;0.0176;-0.0712;
392212237877193;-0.1092;0.0176;-0.0712;
392212247985682;-0.1145;0.0186;-0.0734;
392212258089380;-0.1198;0.0165;-0.0723;
392212268193026;-0.1273;0.0133;-0.0734;
392212278270005;-0.1273;0.0091;-0.0734;
392212288373651;-0.1284;0.0091;-0.0723;
392212298477349;-0.1358;0.0112;-0.0734;
392212308600474;-0.1475;0.0133;-0.0755;
392212318704120;-0.1603;0.0144;-0.0744;
392212328807818;-0.1667;0.0165;-0.0734;
392212338908286;-0.1678;0.0165;-0.0702;
392212349011984;-0.1614;0.0144;-0.0680;
392212359115630;-0.1561;0.0165;-0.0659;
392212369254172;-0.1550;0.0165;-0.0670;
392212379357870;-0.1529;0.0154;-0.0638;
392212389461568;-0.1507;0.0154;-0.0648;
392212399543547;-0.1529;0.0154;-0.0638;
392212409647245;-0.1550;0.0133;-0.0638;
392212419750891;-0.1571;0.0112;-0.0638;
392212429863911;-0.1635;0.0123;-0.0638;
392212439967609;-0.1688;0.0123;-0.0627;
392212450071255;-0.1678;0.0101;-0.0627;
392212460149328;-0.1646;0.0080;-0.0617;
392212470253026;-0.1614;0.0069;-0.0595;
392212480356672;-0.1582;0.0080;-0.0553;
392212490469224;-0.1550;0.0069;-0.0531;
392212500572922;-0.1518;0.0080;-0.0510;
392212510676568;-0.1529;0.0123;-0.0489;
392212520797766;-0.1582;0.0154;-0.0446;
392212530901464;-0.1656;0.0186;-0.0425;
392212541005109;-0.1720;0.0229;-0.0403;
392212551099745;-0.1752;0.0240;-0.0372;
392212561203443;-0.1752;0.0218;-0.0350;
392212571307089;-0.1710;0.0186;-0.0340;
392212581407661;-0.1603;0.0133;-0.0329;
392212591511359;-0.1507;0.0080;-0.0318;
392212601615005;-0.1443;0.0059;-0.0308;
392212611714745;-0.1379;0.0027;-0.0265;
392212621818443;-0.1273;0.0005;-0.0254;
392212631922089;-0.1209;-0.0005;-0.0222;
392212642036307;-0.1166;0.0005;-0.0201;
392212652140005;-0.1103;0.0027;-0.0148;
392212662243651;-0.1060;0.0027;-0.0116;
392212672330474;-0.0964;0.0005;-0.0084;
392212682434172;-0.0794;-0.0080;-0.0052;
392212692537818;-0.0698;-0.0112;-0.0009;
392212702648495;-0.0783;-0.0069;0.0023;
392212712752193;-0.0985;-0.0005;0.0033;
392212722855839;-0.1113;0.0037;0.0023;
392212732977349;-0.1177;0.0080;0.0033;
392212743081047;-0.1220;0.0101;0.0044;
392212753184693;-0.1230;0.0069;0.0076;
392212763279901;-0.1177;0.0005;0.0065;
392212773383599;-0.1166;-0.0016;0.0044;
392212783487245;-0.1241;0.0016;0.0044;
392212793565943;-0.1358;0.0027;0.0023;
392212803669589;-0.1465;0.0016;0.0012;
392212813773286;-0.1593;-0.0005;-0.0052;
392212823896203;-0.1763;-0.0027;-0.0095;
392212833999901;-0.1965;-0.0027;-0.0137;
392212844103547;-0.2200;-0.0005;-0.0212;
392212854202557;-0.2509;0.0059;-0.0265;
392212864306255;-0.2754;0.0080;-0.0329;
392212874409901;-0.2839;0.0080;-0.0361;
392212884521203;-0.2935;0.0112;-0.0361;
392212894624901;-0.2967;0.0123;-0.0414;
392212904728547;-0.2988;0.0112;-0.0467;
392212914829224;-0.3083;0.0112;-0.0489;
392212924932922;-0.3189;0.0133;-0.0521;
392212935036568;-0.3381;0.0165;-0.0542;
392212945144016;-0.3583;0.0229;-0.0563;
392212955247714;-0.3668;0.0314;-0.0606;
392212965351359;-0.3839;0.0410;-0.0627;
392212975449328;-0.3967;0.0357;-0.0617;
392212985553026;-0.3732;0.0186;-0.0606;
392212995656672;-0.3306;0.0133;-0.0574;
392213005755943;-0.3072;0.0208;-0.0553;
392213015859589;-0.2945;0.0176;-0.0521;
392213025963234;-0.2722;0.0101;-0.0499;
392213036075266;-0.2583;0.0101;-0.0425;
392213046178964;-0.2668;0.0133;-0.0382;
392213056282609;-0.2711;0.0123;-0.0382;
392213066402661;-0.2690;0.0091;-0.0414;
392213076506307;-0.2849;0.0154;-0.0372;
392213086610005;-0.3051;0.0186;-0.0340;
392213096697557;-0.3168;0.0123;-0.0361;
392213106801255;-0.3306;0.0080;-0.0361;
392213116904901;-0.3583;0.0080;-0.0350;
392213127017349;-0.3807;0.0037;-0.0393;
392213137121047;-0.4020;0.0016;-0.0446;
392213147224693;-0.4425;0.0080;-0.0414;
392213157309328;-0.4872;0.0144;-0.0361;
392213167413026;-0.5170;0.0133;-0.0372;
392213177516672;-0.5266;0.0123;-0.0382;
392213187625734;-0.5309;0.0123;-0.0372;
392213197729432;-0.5426;0.0091;-0.0361;
392213207833078;-0.5447;-0.0016;-0.0361;
392213217940682;-0.5298;-0.0069;-0.0297;
392213228044380;-0.5245;-0.0016;-0.0190;
392213238148026;-0.5437;0.0059;-0.0116;
392213248241672;-0.5660;0.0091;-0.0105;
392213258345318;-0.5628;0.0144;-0.0116;
392213268448964;-0.5351;0.0186;-0.0137;
392213278568286;-0.5064;0.0165;-0.0105;
392213288671932;-0.4893;0.0069;-0.0052;
392213298775578;-0.4595;-0.0101;0.0001;
392213308860839;-0.4084;-0.0197;0.0055;
392213318964536;-0.3722;-0.0165;0.0087;
392213329068182;-0.3668;-0.0059;0.0087;
392213339169745;-0.3828;0.0037;0.0076;
392213349273443;-0.3977;0.0059;0.0076;
392213359377089;-0.3999;0.0048;0.0076;
392213369487036;-0.3903;0.0080;0.0129;
392213379590734;-0.3818;0.0091;0.0182;
392213389694380;-0.3658;0.0069;0.0172;
392213399801516;-0.3381;0.0037;0.0119;
392213409905266;-0.3083;0.0091;0.0097;
392213420008911;-0.2871;0.0165;0.0087;
392213430098234;-0.2722;0.0197;0.0065;
392213440201880;-0.2573;0.0197;0.0087;
392213450305526;-0.2455;0.0250;0.0108;
392213460435370;-0.2466;0.0293;0.0076;
392213470539068;-0.2615;0.0346;0.0065;
392213480642714;-0.2807;0.0368;0.0012;
392213490748599;-0.2764;0.0250;-0.0105;
392213500852297;-0.2349;0.0101;-0.0190;
392213510955943;-0.1806;0.0059;-0.0180;
392213521055578;-0.1348;-0.0059;-0.0095;
392213531159276;-0.1145;-0.0154;0.0268;
392213541262922;-0.1060;-0.0091;0.0150;
392213551358599;-0.1443;-0.0123;0.0001;
392213561462297;-0.1401;-0.0016;-0.0137;
392213571565943;-0.1443;0.0165;-0.0095;
392213581666047;-0.1443;0.0325;0.0097;
392213591769693;-0.1422;0.0421;0.0246;
392213601873339;-0.1465;0.0453;0.0289;
392213611977349;-0.1561;0.0506;0.0268;
392213622081047;-0.1624;0.0570;0.0257;
392213632184693;-0.1561;0.0463;0.0225;
392213642290995;-0.1369;0.0154;0.0278;
392213652394693;-0.1337;-0.0186;0.0310;
392213662498339;-0.1507;-0.0261;0.0364;
392213672589953;-0.1827;0.0037;0.0491;
392213682693651;-0.1901;0.0293;0.0651;
392213692797297;-0.1720;0.0144;0.0640;
392213702911516;-0.1624;-0.0133;0.0534;
392213713015214;-0.1369;-0.0282;0.0438;
392213723118859;-0.1188;-0.0549;0.0310;
392213733225474;-0.0197;-0.0740;0.0332;
392213743329172;0.1742;-0.0559;0.0502;
392213753432818;0.2679;-0.0293;0.0598;
392213763533599;0.2381;-0.0069;0.0566;
392213773637297;0.1646;0.0186;0.0481;
392213783740943;0.0964;0.0527;0.0406;
392213793860318;0.0879;0.0879;0.0449;
392213803964224;0.0815;0.1049;0.0502;
392213814068130;0.0453;0.1071;0.0672;
392213824157818;0.0463;0.1092;0.0800;
392213834261724;0.0708;0.0996;0.0790;
392213844365630;0.0921;0.0421;0.0534;
392213854466464;0.1411;-0.0091;0.0406;
392213864570370;0.1901;-0.0101;0.0577;
392213874674276;0.1784;-0.0165;0.0736;
392213884783547;0.1656;-0.0421;0.0704;
392213894887453;0.1774;-0.0421;0.0619;
392213904991359;0.1752;-0.0229;0.0609;
392213915092089;0.1486;-0.0261;0.0555;
392213925195995;0.1379;-0.0421;0.0491;
392213935299901;0.1497;-0.0346;0.0502;
392213945398651;0.1177;-0.0133;0.0502;
392213955502505;0.0463;-0.0037;0.0427;
392213965606464;0.0112;0.0059;0.0278;
392213975713703;0.0048;0.0378;0.0204;
392213985817609;-0.0091;0.0826;0.0150;
392213995921516;-0.0389;0.1134;0.0087;
392214006012401;-0.0655;0.1454;0.0129;
392214016116359;-0.0953;0.1465;0.0012;
392214026220266;-0.1017;0.1379;-0.0350;
392214036333286;-0.0794;0.1401;-0.0840;
392214046437193;-0.1241;0.1294;-0.1266;
392214056541099;-0.1539;0.0943;-0.1554;
392214066624953;-0.1092;0.0591;-0.1703;
392214076728911;-0.0495;0.0282;-0.1831;
392214086832818;0.0165;0.0101;-0.1905;
392214096959589;0.0751;0.0421;-0.1905;
392214107063495;0.1188;0.1017;-0.1799;
392214117167401;0.1465;0.1571;-0.1884;
392214127270005;0.1379;0.1720;-0.2225;
392214137373911;0.0985;0.1390;-0.2577;
392214147477818;0.1294;0.1326;-0.2651;
392214157571464;0.2796;0.1869;-0.2470;
392214167675318;0.3221;0.2242;-0.2587;
392214177779276;0.2892;0.1923;-0.2875;
392214187884901;0.3178;0.1134;-0.3269;
392214197988755;0.4414;0.0815;-0.3407;
392214208092661;0.5394;0.1539;-0.3344;
392214218217661;0.4872;0.1731;-0.3269;
392214228321568;0.4872;0.1028;-0.3503;
392214238425474;0.6076;0.1177;-0.3642;
392214248493911;0.6651;0.2029;-0.3471;
392214258597870;0.6832;0.2093;-0.3418;
392214268701776;0.8249;0.1646;-0.3365;
392214278846776;0.9782;0.1220;-0.3301;
392214288950682;1.0399;0.0985;-0.3130;
392214299054589;1.0719;0.0975;-0.2811;
392214309123495;1.1933;0.0101;-0.2587;
392214319227401;1.3126;-0.0836;-0.2640;
392214329331359;1.3797;-0.0112;-0.2332;
392214339483026;1.5054;0.0740;-0.1895;
392214349586984;1.6576;0.0101;-0.1511;
392214359690891;1.6694;-0.0570;-0.1096;
392214369759224;1.6299;0.0016;-0.0883;
392214379863130;1.6779;0.1092;-0.0830;
392214389967036;1.7343;0.1390;-0.0712;
392214400039172;1.5990;0.0985;-0.0606;
392214410143078;1.3563;0.0783;-0.0585;
392214420246984;1.1987;-0.0240;-0.0680;
392214430369328;1.0847;-0.1252;-0.1000;
392214440473234;0.9419;-0.0623;-0.1224;
392214450577141;0.8771;0.0123;-0.1096;
392214460698911;0.8047;-0.0218;-0.0819;
392214470802818;0.6523;-0.0591;-0.0659;
392214480906724;0.5362;-0.0410;-0.1064;
392214490991984;0.4435;0.0091;-0.1447;
392214501095839;0.3530;0.0836;-0.1511;
392214511199745;0.2359;0.1081;-0.1266;
392214521300734;0.1220;0.0996;-0.0968;
392214531404589;0.1177;0.0858;-0.1107;
392214541508547;0.0826;-0.0027;-0.1352;
392214551623964;0.0346;-0.0815;-0.1245;
392214561727870;0.0538;-0.0197;-0.0957;
392214571831724;0.0389;0.0591;-0.0830;
392214581924224;-0.0048;0.0165;-0.0872;
392214592028130;0.0431;-0.0431;-0.0904;
392214602132089;0.1177;-0.0197;-0.0776;
392214612233182;0.1049;0.0676;-0.0680;
392214622337141;0.1198;0.0751;-0.0702;
392214632440995;0.1273;-0.0144;-0.0787;
392214642550630;0.1774;-0.0101;-0.1085;
392214652654536;0.2253;0.0527;-0.1288;
392214662758443;0.1933;0.0282;-0.1021;
392214672858859;0.2029;-0.0357;-0.0723;
392214682962766;0.2615;-0.0197;-0.0819;
392214693066672;0.2647;-0.0123;-0.0936;
392214703169484;0.2509;-0.0559;-0.0915;
392214713273391;0.2391;-0.0485;-0.0808;
392214723377297;0.2040;-0.0410;-0.0617;
392214733501932;0.1933;-0.0527;-0.0563;
392214743605839;0.2487;0.0123;-0.0744;
392214753709745;0.2754;0.0314;-0.0659;
392214763794276;0.2349;-0.0261;-0.0297;
392214773898182;0.2487;-0.0154;-0.0126;
392214784002089;0.2455;0.0421;-0.0180;
392214794114745;0.1752;0.0080;-0.0297;
392214804218443;0.1678;-0.0069;-0.0297;
392214814322089;0.1955;0.0442;-0.0073;
392214824420474;0.1720;0.0069;0.0236;
392214834524172;0.1710;-0.0943;0.0395;
392214844627818;0.2636;-0.0836;0.0406;
392214854727766;0.3041;-0.0474;0.0534;
392214864831464;0.2796;-0.0559;0.0854;
392214874935057;0.3200;-0.0357;0.1108;
392214885039849;0.3935;0.0506;0.1150;
392214895143547;0.3594;0.0410;0.1076;
392214905247193;0.2967;0.0080;0.1097;
392214915341620;0.2700;0.0016;0.1449;
392214925445266;0.2157;-0.0197;0.1715;
392214935548911;0.1539;0.0165;0.1417;
392214945653130;0.1337;0.0783;0.1150;
392214955756776;0.1230;0.0932;0.1353;
392214965860422;0.1145;0.0410;0.1790;
392214975966880;0.1241;0.0517;0.1811;
392214986070526;0.1273;0.0655;0.1555;
392214996174172;0.1017;-0.0069;0.1598;
392215006284536;0.1134;-0.0676;0.1715;
392215016388234;0.1348;-0.0815;0.1864;
392215026491880;0.1156;-0.0517;0.1917;
392215036594016;0.1262;-0.0229;0.1981;
392215046697714;0.1497;0.0069;0.1875;
392215056801359;0.1539;0.0240;0.1747;
392215066925786;0.1220;0.0495;0.1587;
392215077029432;0.1028;0.0783;0.1715;
392215087133078;0.0868;0.0314;0.2013;
392215097214120;0.0921;-0.0059;0.1971;
392215107317818;0.1113;-0.0453;0.1630;
392215117421464;0.1166;-0.1007;0.1598;
392215127524953;0.1273;-0.1198;0.1928;
392215137628651;0.1007;-0.0964;0.2109;
392215147732297;0.0794;-0.0059;0.2099;
392215157832974;0.0794;0.0442;0.2099;
392215167936672;0.0698;0.0176;0.2024;
392215178040318;0.0921;0.0208;0.2194;
392215188149849;0.0463;0.0069;0.2226;
392215198253495;-0.0144;0.0346;0.2269;
392215208357193;-0.0325;0.0186;0.2099;
392215218458078;-0.1017;0.0101;0.1907;
392215228561724;-0.2168;0.0048;0.1928;
392215238665370;-0.2945;-0.0165;0.1747;
392215248787557;-0.3125;-0.0410;0.1619;
392215258891203;-0.4276;-0.0336;0.1619;
392215268994901;-0.5138;-0.0112;0.1459;
392215279093599;-0.5330;0.0293;0.1289;
392215289197245;-0.5820;0.0304;0.0992;
392215299300891;-0.7024;-0.0378;0.1003;
392215309382974;-0.7983;-0.0389;0.0736;
392215319486672;-0.8728;0.0059;0.0374;
392215329590318;-0.9558;-0.0091;0.0172;
392215339707922;-1.0090;-0.0080;0.0055;
392215349811620;-1.0314;0.0250;-0.0041;
392215359915266;-1.0485;-0.0069;-0.0137;
392215370032557;-1.0133;0.0304;-0.0084;
392215380136255;-0.9654;0.1156;-0.0180;
392215390239901;-0.9238;0.1166;-0.0340;
392215400301255;-0.8260;0.0687;-0.0446;
392215410404901;-0.8387;0.0293;-0.0361;
392215420508547;-0.8707;-0.0165;-0.0031;
392215430623651;-0.8121;0.0165;0.0140;
392215440727297;-0.7354;0.0442;0.0172;
392215450830943;-0.5916;0.0932;0.0193;
392215460942557;-0.4691;0.1039;0.0076;
392215471046255;-0.3935;0.0794;0.0459;
392215481149901;-0.2988;0.0953;0.0790;
392215491252609;-0.1987;0.0485;0.1268;
392215501356255;-0.1859;-0.0336;0.1321;
392215511459901;-0.1699;-0.0602;0.0960;
392215521592245;-0.2232;0.0091;0.1193;
392215531695943;-0.1965;0.0282;0.1003;
392215541799589;-0.1667;0.0442;0.0790;
392215551881984;-0.1784;0.0815;0.0747;
392215561985682;-0.1731;0.0804;0.0491;
392215572089328;-0.2061;0.0794;0.0364;
392215582192870;-0.2381;0.0932;0.0214;
392215592296568;-0.2487;0.1145;-0.0180;
392215602400161;-0.2274;0.0783;-0.0403;
392215612500161;-0.1763;0.0218;-0.0606;
392215622603859;-0.1752;0.0399;-0.0638;
392215632707505;-0.1710;0.0410;-0.0680;
392215642817349;-0.1667;-0.0421;-0.0979;
392215652921047;-0.2370;-0.0474;-0.0883;
392215663024693;-0.2285;-0.0186;-0.0904;
392215673135057;-0.2391;0.0399;-0.1096;
392215683238755;-0.2189;0.0101;-0.1266;
392215693342401;-0.2093;0.0154;-0.1692;
392215703426464;-0.2008;0.0900;-0.1256;
392215713530109;-0.1678;0.0740;-0.1138;
392215723633755;-0.1869;0.0666;-0.1256;
392215733764224;-0.1838;0.0527;-0.1298;
392215743867870;-0.1710;0.0336;-0.1479;
392215753971516;-0.1848;-0.0176;-0.1234;
392215764058703;-0.1582;0.0208;-0.1128;
392215774162401;-0.1348;0.0399;-0.0776;
392215784266047;-0.0559;0.0069;-0.0830;
392215794380682;-0.0826;0.0517;-0.0563;
392215804484380;-0.1198;0.0442;-0.0372;
392215814588078;-0.1230;0.1103;-0.0190;
392215824681307;-0.1305;0.1411;0.0055;
392215834785005;-0.1134;0.0804;-0.0063;
392215844888703;-0.1454;0.0549;0.0161;
392215854992141;-0.1827;0.0602;0.0438;
392215865095839;-0.1976;-0.0133;0.0758;
392215875199536;-0.2200;-0.0250;0.0587;
392215885296776;-0.2093;-0.0453;0.0566;
392215895400474;-0.2136;-0.0027;0.0459;
392215905504120;-0.2093;0.0282;0.0502;
392215915608651;-0.2136;-0.0282;0.0577;
392215925712297;-0.2615;0.0112;0.0385;
392215935815995;-0.2551;0.0368;0.0342;
392215945915214;-0.2445;0.0218;0.0097;
392215956018911;-0.2636;-0.0176;-0.0031;
392215966122557;-0.3296;-0.0218;-0.0222;
392215976226359;-0.3903;-0.0613;-0.0244;
392215986330057;-0.4020;-0.0218;-0.0617;
392215996433703;-0.4063;0.0186;-0.0808;
392216006533130;-0.3498;0.0325;-0.1181;
392216016636828;-0.3391;0.0655;-0.1170;
392216026740474;-0.3253;0.0091;-0.1383;
392216036844172;-0.3264;-0.0953;-0.1565;
392216046947818;-0.3466;-0.0879;-0.2108;
392216057051516;-0.2945;-0.0101;-0.2065;
392216067182245;-0.1763;0.0389;-0.2012;
392216077285943;-0.1710;0.0272;-0.1969;
392216087389641;-0.1688;-0.0410;-0.2332;
392216097477141;-0.1230;-0.0879;-0.2395;
392216107580839;-0.0879;-0.0186;-0.2651;
392216117684536;-0.0059;-0.0208;-0.2118;
392216127792453;0.1273;-0.0261;-0.2182;
392216137896151;0.2647;-0.0666;-0.1842;
392216147999849;0.4308;-0.0932;-0.1415;
392216158097453;0.4435;-0.0506;-0.1011;
392216168201203;0.4787;-0.0048;-0.0478;
392216178304849;0.5905;0.0091;-0.0169;
392216188406047;0.7098;-0.0304;0.0012;
392216198509693;0.7311;-0.0698;0.0672;
392216208613391;0.6885;-0.0357;0.0896;
392216218724068;0.5820;0.0293;0.1289;
392216228827766;0.5756;-0.0346;0.1417;
392216238931464;0.4776;-0.0495;0.1342;
392216249010422;0.2093;0.0037;0.1502;
392216259114120;-0.0069;0.0218;0.2035;
392216269217766;-0.0964;0.0730;0.1981;
392216279346099;-0.1017;0.0762;0.1715;
392216289449849;-0.0719;-0.0261;0.1193;
392216299553495;-0.1198;-0.1241;0.0949;
392216309647141;-0.2338;-0.1550;0.1459;
392216319750839;-0.4222;-0.0389;0.1097;
392216329854536;-0.4840;0.0634;0.0651;
392216339983495;-0.4542;0.0581;-0.0126;
392216350087193;-0.5075;0.0346;-0.0286;
392216360190891;-0.5213;-0.0091;0.0087;
392216370268339;-0.5565;0.0442;-0.0041;
392216380372036;-0.5810;0.1103;-0.0489;
392216390475682;-0.4989;0.1039;-0.1075;
392216400593547;-0.4094;0.0016;-0.1213;
392216410697297;-0.4318;0.0186;-0.1362;
392216420800995;-0.3349;-0.0037;-0.1245;
392216430891047;-0.1539;-0.1081;-0.1053;
392216440994745;-0.1475;-0.1028;-0.1160;
392216451098391;-0.1241;-0.0687;-0.1320;
392216461230214;-0.0676;-0.0644;-0.1533;
392216471333911;-0.0698;0.0144;-0.1032;
392216481437609;-0.0016;0.1156;-0.0766;
392216491511464;0.1358;0.0719;-0.0798;
392216501615161;0.1188;0.0059;-0.0776;
392216511718807;-0.0644;0.0730;-0.0883;
392216521849536;-0.1401;0.1390;-0.0840;
392216531953234;-0.0261;0.0389;-0.0744;
392216542056932;-0.0474;-0.0900;-0.0947;
392216552138911;-0.2722;-0.0602;-0.1224;
392216562242609;-0.4510;0.0037;-0.1330;
392216572346307;-0.5138;0.0708;-0.1437;
392216582453911;-0.3818;0.0815;-0.1597;
392216592557609;-0.2008;0.0091;-0.1799;
392216602661307;-0.2413;-0.0676;-0.2118;
392216612763078;-0.4158;-0.0772;-0.2449;
392216622866776;-0.5021;0.0144;-0.2630;
392216632970474;-0.3828;0.0378;-0.2545;
392216643077974;-0.1710;-0.0272;-0.2704;
392216653181672;-0.1656;-0.1241;-0.2768;
392216663285370;-0.2338;-0.0858;-0.2640;
392216673392141;-0.1806;0.0687;-0.2619;
392216683495891;-0.0399;0.0985;-0.2747;
392216693599589;0.0154;0.0112;-0.2885;
392216703693703;0.0133;-0.0272;-0.2896;
392216713797401;-0.1103;-0.0059;-0.2481;
392216723901099;-0.0442;0.0399;-0.2523;
392216734009536;0.0975;-0.0069;-0.2395;
392216744113234;0.0868;0.0112;-0.2332;
392216754216932;0.0527;0.0740;-0.2246;
392216764306203;0.1880;0.0453;-0.2012;
392216774409849;0.2796;-0.0698;-0.1916;
392216784513547;0.1965;-0.0932;-0.1703;
392216794632974;0.0272;-0.0453;-0.1671;
392216804736568;-0.0357;-0.0059;-0.0968;
392216814840161;0.1134;0.1284;-0.0425;
392216824948495;0.4840;0.0389;-0.0851;
392216835052089;0.6481;-0.1593;-0.0947;
392216845155682;0.3849;-0.0889;-0.0648;
392216855251516;0.1305;0.0602;-0.0499;
392216865355109;0.1017;0.0549;-0.1149;
392216875458703;0.1742;-0.0453;-0.1671;
392216885566724;0.0250;0.0581;-0.1863;
392216895670318;-0.0059;0.0921;-0.2044;
392216905773911;0.1348;-0.1017;-0.2587;
392216915874328;0.0293;-0.1326;-0.3120;
392216925977922;-0.0133;0.0879;-0.3461;
392216936081516;0.1550;0.1784;-0.3525;
392216946186203;0.3221;0.1965;-0.3684;
392216956289797;0.4467;0.0282;-0.3652;
392216966393391;0.5256;-0.0836;-0.3620;
392216976500786;0.5447;-0.0794;-0.3439;
392216986604380;0.6353;-0.1337;-0.3482;
392216996707974;0.8142;-0.0570;-0.3333;
392217006792453;1.0144;0.1028;-0.2928;
392217016895995;1.2029;0.0932;-0.2289;
392217026999589;1.3286;-0.0293;-0.1447;
392217037115474;1.3180;-0.0250;-0.0553;
392217047219068;1.2711;-0.0687;0.0342;
392217057322661;1.2540;-0.2603;0.0715;
392217067428495;1.2018;-0.1273;0.1214;
392217077532089;1.0698;0.1550;0.2067;
392217087635682;0.9142;0.0836;0.2610;
392217097736047;0.7844;-0.0495;0.3025;
392217107839589;0.5895;-0.0410;0.2333;
392217117943182;0.4638;0.1241;0.2099;
392217128046203;0.3924;0.1539;0.2844;
392217138149797;0.3881;0.1060;0.3036;
392217148253391;0.3306;0.1049;0.3100;
392217158343234;0.2114;0.0421;0.3036;
392217168446776;0.1912;-0.0495;0.3313;
392217178550370;0.0921;-0.0240;0.3185;
392217188669953;-0.0197;-0.0240;0.3238;
392217198773495;-0.0218;-0.0336;0.3121;
392217208877089;-0.0154;-0.0154;0.2897;
392217218984172;0.0016;-0.0314;0.2844;
392217229087714;-0.0016;-0.1071;0.3036;
392217239191307;-0.0261;-0.1710;0.3025;
392217249300891;-0.1092;-0.1252;0.3068;
392217259404484;-0.1678;-0.0559;0.3047;
392217269508026;-0.1859;0.0442;0.3079;
392217279616880;-0.2498;0.0272;0.3068;
392217289720474;-0.3434;0.0911;0.2770;
392217299824068;-0.4180;0.1337;0.2365;
392217309931203;-0.4787;-0.0091;0.2301;
392217320034797;-0.5565;-0.0506;0.2301;
392217330138391;-0.6023;0.0613;0.2237;
392217340225995;-0.6832;0.0304;0.2130;
392217350329589;-0.7333;-0.1092;0.2099;
392217360433182;-0.6928;-0.0953;0.1736;
392217370544224;-0.6715;-0.0666;0.1619;
392217380647818;-0.6172;-0.1763;0.1736;
392217390751411;-0.5096;-0.1443;0.1747;
392217400850891;-0.4308;0.0027;0.1427;
392217410954484;-0.3743;0.0730;0.1300;
392217421058078;-0.3413;0.0506;0.1363;
392217431145943;-0.3232;0.0485;0.1566;
392217441249484;-0.3200;0.0474;0.1459;
392217451353078;-0.2594;0.0453;0.1427;
392217461476307;-0.2700;0.0229;0.1438;
392217471579901;-0.2903;0.0368;0.1587;
392217481683495;-0.2551;0.0346;0.1832;
392217491777818;-0.2551;-0.0293;0.1587;
392217501881359;-0.2264;-0.0538;0.1363;
392217511984953;-0.2083;0.0101;0.0960;
392217522095891;-0.2370;0.0005;0.0736;
392217532199484;-0.2711;-0.0559;0.0864;
392217542303078;-0.3583;-0.0591;0.0843;
392217552404432;-0.3754;0.0250;0.0044;
392217562508026;-0.3668;0.0698;-0.0137;
392217572611620;-0.3945;0.0613;0.0001;
392217582717557;-0.3061;0.0953;-0.0095;
392217592821151;-0.2072;0.1742;-0.0510;
392217602924745;-0.2200;0.1017;-0.0755;
392217613030057;-0.2178;0.0282;-0.0968;
392217623133651;-0.1933;-0.0101;-0.0840;
392217633237245;-0.1965;-0.0282;-0.1021;
392217643356620;-0.1656;0.0080;-0.0979;
392217653460214;-0.1571;-0.0059;-0.1224;
392217663563807;-0.1539;0.0069;-0.1320;
392217673670474;-0.1891;0.0240;-0.1224;
392217683774068;-0.1571;0.0229;-0.1266;
392217693877661;-0.1422;0.0005;-0.1469;
392217703963703;-0.1379;0.0123;-0.1948;
392217714067297;-0.1529;-0.0506;-0.2353;
392217724170891;-0.1433;-0.0314;-0.1905;
392217734264901;-0.1177;0.0836;-0.1991;
392217744368443;-0.0474;0.0932;-0.2395;
392217754472036;-0.0091;0.0570;-0.2502;
392217764598703;0.0250;0.0527;-0.2257;
392217774702297;0.1198;0.0719;-0.2310;
392217784805891;0.2232;-0.0005;-0.2289;
392217794899849;0.2498;-0.0804;-0.2225;
392217805003547;0.3445;-0.0549;-0.2161;
392217815107245;0.4286;0.0133;-0.1905;
392217825201203;0.4893;0.0218;-0.1820;
392217835304901;0.5724;0.0250;-0.1490;
392217845408599;0.5948;0.0261;-0.1138;
392217855519432;0.5937;-0.0208;-0.0776;
392217865623130;0.5820;-0.0410;-0.0830;
392217875726776;0.5245;-0.0069;-0.1085;
392217885830995;0.5064;0.0144;-0.0723;
392217895934693;0.5309;0.0208;-0.0553;
392217906038391;0.5234;-0.0059;-0.0563;
392217916131880;0.4584;-0.0506;-0.0222;
392217926235526;0.3860;-0.0474;0.0246;
392217936339224;0.2871;0.0165;0.0055;
392217946450786;0.2423;-0.0399;-0.0244;
392217956554484;0.1848;-0.0570;-0.0201;
392217966658182;0.1582;0.0431;0.0033;
392217976767349;0.1465;0.0282;0.0342;
392217986871047;0.1081;-0.1060;0.0459;
392217996974745;0.0453;-0.0442;0.0449;
392218007079953;0.0368;0.0975;0.0406;
392218017183651;-0.0133;-0.0368;0.0353;
392218027287349;-0.1188;-0.1752;0.0172;
392218037384224;-0.1039;-0.0527;0.0491;
392218047487922;-0.1582;-0.0336;0.0832;
392218057591620;-0.2754;-0.1124;0.0875;
392218067694641;-0.2221;-0.0581;0.0577;
392218077798339;-0.2029;0.0197;0.0044;
392218087902036;-0.2178;-0.0123;0.0225;
392218097994276;-0.2636;0.0197;0.0268;
392218108097922;-0.2402;0.0559;0.0065;
392218118201620;-0.1827;0.0527;-0.0009;
392218128304693;-0.1550;0.0985;-0.0318;
392218138408339;-0.0495;0.0953;-0.0020;
392218148512036;0.0208;0.0048;0.0140;
392218158617036;0.0953;-0.0602;0.0150;
392218168720734;0.2210;-0.1049;0.0055;
392218178824380;0.3020;-0.1262;0.0108;
392218188933339;0.3604;-0.1081;0.0236;
392218199037036;0.3445;-0.0389;0.0236;
392218209140734;0.3519;-0.0165;0.0140;
392218219250057;0.3903;0.0037;0.0353;
392218229353755;0.3796;0.0240;0.0587;
392218239457453;0.3839;0.0304;0.0790;
392218249547661;0.3615;0.0911;0.0587;
392218259651359;0.3786;0.1124;0.0502;
392218269755057;0.3849;0.0953;0.0683;
392218279903547;0.3041;-0.0229;0.0790;
392218290007245;0.2445;-0.1326;0.0545;
392218300110943;0.1838;-0.1017;0.0321;
392218310156776;0.1550;-0.0218;0.0534;
392218320260422;0.1028;-0.0559;0.0640;
392218330364120;0.0804;-0.0623;0.0427;
392218340485318;0.0304;0.0208;0.0129;
392218350588964;0.0005;0.0304;-0.0095;
392218360692661;-0.0112;-0.0261;-0.0073;
392218370800734;-0.1177;0.0059;0.0172;
392218380904432;-0.1348;0.0826;0.0129;
392218391008130;-0.1209;0.0613;-0.0126;
392218401148911;-0.1433;-0.0037;-0.0350;
392218411252609;-0.1252;-0.0080;-0.0403;
392218421356307;-0.1358;-0.0016;-0.0435;
392218431420995;-0.1092;-0.0282;0.0065;
392218441524693;-0.1145;-0.0293;0.0044;
392218451628391;-0.0826;0.0005;-0.0403;
392218461727714;-0.0218;0.0272;-0.0606;
392218471831359;-0.0005;0.0165;-0.0627;
392218481935057;0.0389;-0.0186;-0.0510;
392218492045734;0.0815;0.0314;-0.0425;
392218502149432;0.1348;0.0985;-0.0478;
392218512253130;0.2072;0.0826;-0.0382;
392218522374641;0.2764;0.0836;-0.0372;
392218532478339;0.3328;0.0559;-0.0340;
392218542582036;0.3370;-0.0005;-0.0105;
392218552668651;0.2903;-0.0368;-0.0350;
392218562772349;0.3093;-0.0069;-0.0340;
392218572876047;0.3253;0.0186;-0.0190;
392218582979328;0.3317;-0.0016;0.0076;
392218593083026;0.3157;-0.0197;0.0097;
392218603186724;0.3274;-0.0229;0.0150;
392218613285995;0.3381;0.0687;0.0225;
392218623389693;0.3690;0.1507;0.0449;
392218633493391;0.3786;0.1007;0.0481;
392218643599068;0.3860;0.0325;0.0481;
392218653702766;0.3498;-0.0005;0.0438;
392218663806464;0.2530;-0.0048;0.0204;
392218673935474;0.2242;-0.0218;0.0310;
392218684039172;0.2157;-0.0389;0.0427;
392218694142870;0.2242;-0.0314;0.0459;
392218704234536;0.1731;0.0133;0.0321;
392218714338234;0.1433;0.0368;0.0161;
392218724441932;0.1262;-0.0048;0.0161;
392218734540891;0.1401;-0.0144;0.0246;
392218744644589;0.1358;0.0708;0.0033;
392218754748286;0.0953;0.0581;0.0406;
392218764867141;0.0123;-0.0815;0.0353;
392218774970839;0.0037;-0.0538;0.0268;
392218785074536;0.0314;0.0868;0.0374;
392218795164901;0.0133;0.0272;0.0342;
392218805268599;-0.0059;-0.0410;0.0566;
392218815372297;0.0123;0.0389;0.0790;
392218825490474;0.0368;0.0176;0.0832;
392218835594172;0.0325;-0.0932;0.1024;
392218845697870;-0.0037;-0.1156;0.0672;
392218855784328;0.0826;0.0059;0.0971;
392218865888026;0.0985;0.0698;0.1172;
392218875991724;0.0847;-0.0229;0.1523;
392218886081776;0.1177;-0.0570;0.1822;
392218896185422;0.1539;-0.0016;0.1683;
392218906289120;0.1784;0.0826;0.1704;
392218916406411;0.1188;0.0836;0.1822;
392218926510109;0.0389;0.0048;0.2141;
392218936613807;0.0027;0.0325;0.2258;
392218946711828;-0.0282;0.0474;0.1907;
392218956815526;-0.1316;-0.0197;0.2141;
392218966919224;-0.2136;0.0559;0.2322;
392218977025057;-0.2509;0.1103;0.2024;
392218987128755;-0.3679;-0.0495;0.1672;
392218997232453;-0.4478;-0.1081;0.1672;
392219007349901;-0.4883;-0.0399;0.1129;
392219017453599;-0.4574;-0.0144;0.0907;
392219027557297;-0.5586;-0.0442;0.0683;
392219037642141;-0.5543;0.0091;0.0182;
392219047745839;-0.4712;0.1060;0.0182;
392219057849536;-0.5628;0.0272;0.0087;
392219067967661;-0.6225;-0.0399;-0.0254;
392219078071411;-0.5596;0.0698;-0.1021;
392219088175057;-0.4947;0.0868;-0.1415;
392219098266099;-0.4638;0.0346;-0.1597;
392219108369797;-0.4126;0.0069;-0.1639;
392219118473495;-0.4531;-0.0389;-0.1597;
392219128578651;-0.3924;0.0059;-0.1714;
392219138682349;-0.3136;-0.0005;-0.2300;
392219148786047;-0.2402;-0.0921;-0.2513;
392219158893703;-0.1603;-0.0463;-0.2342;
392219168997401;-0.0879;-0.0293;-0.2470;
392219179101099;0.0431;0.0421;-0.2566;
392219189197766;0.2029;0.0921;-0.2310;
392219199301411;0.2615;0.0399;-0.2129;
392219209405161;0.3370;-0.0037;-0.2545;
392219219500370;0.4553;0.0016;-0.2395;
392219229604068;0.5149;0.0314;-0.1852;
392219239707766;0.5106;-0.0048;-0.1682;
392219249798495;0.5256;-0.0101;-0.1863;
392219259902193;0.5650;0.0953;-0.1863;
392219270005891;0.5639;0.0900;-0.1618;
392219280155891;0.4787;-0.0538;-0.1394;
392219290259589;0.4457;-0.0527;-0.1234;
392219300363286;0.3881;-0.0037;-0.1490;
392219310435005;0.3615;-0.0261;-0.1394;
392219320538651;0.3306;-0.0218;-0.1341;
392219330642349;0.3274;-0.0229;-0.1341;
392219340752349;0.2945;0.0005;-0.1021;
392219350856047;0.2786;0.0410;-0.0851;
392219360959745;0.2818;0.0112;-0.0968;
392219371081828;0.2871;0.0112;-0.0893;
392219381185526;0.3370;0.1039;-0.0862;
392219391289224;0.3626;0.0836;-0.0893;
392219401373078;0.3359;0.0794;-0.0606;
392219411476776;0.2754;0.0740;-0.0233;
392219421580474;0.2498;0.1049;-0.0446;
392219431684380;0.2498;0.0346;-0.0638;
392219441788026;0.2296;0.0186;-0.0531;
392219451891724;0.1869;0.0101;-0.0585;
392219462004641;0.1752;-0.0314;-0.0329;
392219472108339;0.1731;-0.0762;-0.0180;
392219482212036;0.1699;-0.1688;0.0033;
392219492330891;0.1923;-0.1316;-0.0031;
392219502434589;0.3818;0.1806;-0.0009;
392219512538286;0.7152;0.3265;0.0449;
392219522622453;0.7503;0.1997;0.0917;
392219532726151;0.6353;0.1230;0.1385;
392219542829849;0.6289;0.2210;0.1694;
392219552928234;0.6704;0.2498;0.2045;
392219563031880;0.5778;0.1379;0.2024;
392219573135578;0.5085;0.0325;0.2184;
392219583247766;0.4318;-0.0900;0.2567;
392219593351464;0.3189;-0.1071;0.2620;
392219603455161;0.2509;-0.0740;0.2407;
392219613560474;0.2328;-0.0911;0.2439;
392219623664172;0.1816;-0.0527;0.2471;
392219633767870;0.2317;0.0378;0.2748;
392219643868807;0.2114;0.0261;0.2620;
392219653972505;0.1667;0.0602;0.2844;
392219664076203;0.1294;0.1593;0.2770;
392219674183391;0.1454;0.2189;0.2908;
392219684287141;0.1976;0.3276;0.3153;
392219694390786;0.0964;0.1348;0.3334;
392219704490266;-0.0985;-0.3168;0.3462;
392219714593964;-0.1561;-0.3083;0.2897;
392219724697661;-0.2711;-0.1571;0.3132;
392219734799536;-0.4627;-0.1561;0.2972;
392219744903234;-0.5618;-0.0975;0.2514;
392219755006932;-0.5628;0.0080;0.2354;
392219765124120;-0.5415;-0.0037;0.2290;
392219775227818;-0.5224;0.0091;0.2056;
392219785331516;-0.4670;0.0975;0.1502;
392219795417974;-0.4936;0.0836;0.1182;
392219805521568;-0.5703;0.0357;0.1385;
392219815625161;-0.5117;0.0943;0.1406;
392219825718651;-0.4233;0.0772;0.1406;
392219835822245;-0.4403;-0.0272;0.1545;
392219845925839;-0.4158;-0.0410;0.1417;
392219856037870;-0.2828;0.0410;0.1129;
392219866141464;-0.2008;-0.0080;0.1534;
392219876245005;-0.2221;-0.1220;0.1683;
392219886348026;-0.1156;-0.0932;0.2024;
392219896451568;-0.0581;-0.0751;0.2130;
392219906555161;-0.0900;-0.0719;0.1651;
392219916660995;-0.0676;0.0357;0.1013;
392219926764589;0.0059;0.0975;0.1459;
392219936868182;-0.1017;0.0527;0.1939;
392219946975161;-0.1294;0.0005;0.2088;
392219957078755;-0.1134;0.0186;0.1790;
392219967182349;-0.1177;0.0602;0.1470;
392219977289536;-0.1539;0.0101;0.1236;
392219987393130;-0.1774;-0.0186;0.1097;
392219997496724;-0.1848;0.0080;0.1065;
392220007600578;-0.2285;0.0133;0.0800;
392220017704172;-0.2019;0.0144;0.0694;
392220027807766;-0.2061;0.0048;0.0342;
392220037918911;-0.2040;0.0037;0.0225;
392220048022505;-0.2051;-0.0602;0.0364;
392220058126151;-0.2051;-0.0293;0.0545;
392220068212766;-0.1454;0.0154;0.0172;
392220078316359;-0.0506;0.0389;-0.0009;
392220088419953;-0.0357;0.0527;-0.0105;
392220098527349;0.0005;0.0240;0.0119;
392220108630943;-0.0378;0.0730;0.0214;
392220118734589;-0.0613;0.0346;-0.0105;
392220128860682;-0.0453;-0.1049;-0.0084;
392220138964328;-0.0186;-0.0527;-0.0222;
392220149067922;0.0016;0.0240;-0.0446;
392220159212870;-0.1017;-0.0336;-0.0382;
392220169316411;-0.1326;-0.1145;0.0065;
392220179420005;-0.1039;-0.0644;0.0225;
392220189498599;-0.0644;0.0858;-0.0286;
392220199602193;-0.0868;0.1113;-0.0233;
392220209705786;-0.2061;-0.0378;-0.0222;
392220219778078;-0.1880;-0.0943;0.0097;
392220229881672;-0.1145;-0.0485;0.0481;
392220239985266;-0.1731;-0.0016;0.0055;
392220250103807;-0.1582;0.0016;-0.0063;
392220260207401;-0.1699;-0.0080;0.0023;
392220270310995;-0.1901;-0.0975;0.0236;
392220280394953;-0.1443;-0.0921;0.0332;
392220290498547;-0.1060;0.0346;0.0598;
392220300602193;-0.1624;0.1039;0.0598;
392220310715057;-0.2221;0.0911;0.0555;
392220320818651;-0.2636;0.0261;0.0417;
392220330922245;-0.2700;0.0495;0.0150;
392220341033078;-0.3210;-0.0123;0.0097;
392220351136672;-0.3913;-0.0751;0.0129;
392220361240266;-0.3636;0.0208;-0.0073;
392220371347453;-0.3061;0.0282;-0.0009;
392220381451047;-0.3338;-0.0325;0.0097;
392220391554641;-0.3647;-0.0453;0.0182;
392220401637036;-0.3189;-0.0218;-0.0063;
392220411740630;-0.1976;0.0389;-0.0212;
392220421844224;-0.2125;0.0794;0.0108;
392220431952661;-0.2146;0.0740;0.0459;
392220442056255;-0.1763;0.0602;0.0310;
392220452159901;-0.1891;0.0399;-0.0435;
392220462254120;-0.1422;0.0517;-0.0318;
392220472357661;-0.1561;0.0623;-0.0020;
392220482461255;-0.1806;0.0325;0.0129;
392220492576984;-0.1891;-0.0186;0.0076;
392220502680578;-0.2232;-0.0921;-0.0393;
392220512784224;-0.2040;-0.0751;-0.0957;
392220522874745;-0.1838;-0.0272;-0.0723;
392220532978391;-0.2051;-0.0570;-0.0744;
392220543081984;-0.2114;-0.0644;-0.0979;
392220553186776;-0.1614;0.0229;-0.1160;
392220563290318;-0.1561;0.1092;-0.1426;
392220573393911;-0.1411;0.1017;-0.1458;
392220583508078;-0.1326;0.0016;-0.1394;
392220593611672;-0.1316;-0.0399;-0.1660;
392220603715266;-0.1145;-0.0453;-0.1586;
392220613820370;-0.1230;-0.0794;-0.1714;
392220623923964;-0.0644;-0.0080;-0.2268;
392220634027557;0.0176;0.0485;-0.2513;
392220644122505;0.0272;0.0165;-0.2001;
392220654226099;0.0325;0.0527;-0.1799;
392220664329693;0.0346;0.1252;-0.2012;
392220674454224;0.0229;0.0506;-0.2182;
392220684557818;0.0250;0.0197;-0.2225;
392220694661411;0.0538;0.0421;-0.2204;
392220704762661;0.0304;-0.0378;-0.2065;
392220714866255;0.0900;-0.0378;-0.1714;
392220724969849;0.1795;0.0996;-0.1969;
392220735069068;0.1869;0.0453;-0.1927;
392220745172661;0.1177;-0.0357;-0.1565;
392220755276255;0.1358;-0.0037;-0.1447;
392220765353964;0.1667;-0.0293;-0.1085;
392220775457505;0.1081;-0.0634;-0.1202;
392220785561099;0.1731;0.0069;-0.1107;
392220795694380;0.2232;0.0613;-0.0734;
392220805798130;0.2083;0.0410;-0.0691;
392220815901880;0.1678;0.0133;-0.0372;
392220826000734;0.1252;-0.0336;-0.0254;
392220836104484;0.1411;-0.0218;-0.0286;
392220846208234;0.0602;-0.0517;-0.0286;
392220856308651;0.0005;-0.0858;0.0001;
392220866412401;0.0080;-0.0549;0.0023;
392220876516151;-0.0133;-0.0325;0.0119;
392220886612193;-0.0133;0.0389;0.0001;
392220896715943;-0.0101;0.0794;0.0513;
392220906819693;-0.0719;0.0644;0.0342;
392220916921880;-0.1049;-0.0676;0.0310;
392220927025630;-0.1198;-0.1614;0.0406;
392220937129380;-0.0378;0.1475;0.0555;
392220947242870;-0.1379;0.0708;0.0971;
392220957346620;-0.2881;-0.1571;0.0960;
392220967450370;-0.1624;-0.0144;0.0768;
392220977548286;-0.0378;0.1113;0.0332;
392220987652036;-0.1848;-0.0666;0.0268;
392220997755786;-0.3061;-0.1241;0.0715;
392221007877818;-0.2136;-0.0154;0.0949;
392221017981568;-0.1933;0.0197;0.0758;
392221028085318;-0.2892;-0.0474;0.0289;
392221038144901;-0.2775;-0.0517;0.0108;
392221048248651;-0.2594;-0.0101;-0.0148;
392221058352453;-0.2359;-0.0240;-0.0031;
392221068470943;-0.1614;0.0250;0.0044;
392221078574693;-0.1103;0.1039;0.0214;
392221088678391;-0.1539;0.0346;0.0033;
392221098807453;-0.1475;-0.0378;0.0012;
392221108911255;-0.0900;0.0591;-0.0052;
392221119014953;-0.1081;-0.0325;-0.0052;
392221129102818;-0.1688;-0.1944;-0.0340;
392221139206516;-0.0879;-0.1411;-0.0254;
392221149310318;-0.0858;-0.1028;-0.0340;
392221159485266;-0.0975;-0.1742;-0.0712;
392221169589068;-0.0282;-0.1944;-0.0766;
392221179692818;-0.0144;-0.1838;-0.0617;
392221189703130;0.0133;0.0197;-0.0286;
392221199806880;0.0911;0.2210;-0.0233;
392221209910630;0.1092;0.2839;-0.0574;
392221220050839;-0.0101;0.2509;-0.0904;
392221230154536;-0.1113;0.1401;-0.0915;
392221240258339;-0.0495;0.1145;-0.0393;
392221250357089;-0.0591;0.1028;-0.0734;
392221260460839;-0.0975;0.0048;-0.1085;
392221270564589;-0.1156;-0.1113;-0.1213;
392221280662818;-0.1465;-0.2051;-0.1234;
392221290766568;-0.0762;-0.1795;-0.0947;
392221300870318;-0.0549;-0.0879;-0.0947;
392221310982505;-0.0346;-0.0602;-0.1053;
392221321086255;0.0016;-0.0154;-0.1181;
392221331190005;0.0868;0.1539;-0.0872;
392221341266620;0.1475;0.2711;-0.1085;
392221351370370;0.2114;0.2658;-0.1320;
392221361474068;0.2136;0.1635;-0.0979;
392221371589797;0.2328;0.1422;-0.0787;
392221381693547;0.2338;0.1145;-0.0638;
392221391797297;0.1486;-0.0953;-0.0851;
392221401907193;0.1316;-0.2976;-0.1032;
392221412010943;0.1166;-0.3786;-0.0862;
392221422114693;0.0325;-0.3114;-0.0840;
392221432206203;0.0197;-0.1369;-0.0936;
392221442309953;0.0644;-0.0687;-0.0893;
392221452413703;0.0644;0.0016;-0.0968;
392221462517609;0.0911;0.0804;-0.1149;
392221472621307;0.1443;0.1103;-0.1032;
392221482725109;0.1401;0.1326;-0.0872;
392221492831047;0.1358;0.0964;-0.0830;
392221502934797;0.1241;-0.0197;-0.0798;
392221513038547;0.1742;0.0133;-0.0830;
392221523150526;0.2423;0.1337;-0.0862;
392221533254276;0.2434;0.0485;-0.0467;
392221543358026;0.1806;-0.1252;-0.0190;
392221553466568;0.1742;-0.0996;-0.0254;
392221563570318;0.2317;-0.0091;-0.0180;
392221573674068;0.2125;0.0176;-0.0265;
392221583773026;0.1305;-0.0112;-0.0297;
392221593876776;0.0900;-0.0410;-0.0126;
392221603980526;0.0740;-0.0559;-0.0233;
392221614081568;0.0964;-0.0048;-0.0073;
392221624185318;0.1198;0.1017;-0.0105;
392221634289068;0.0953;0.1060;-0.0084;
392221644400526;0.0730;0.0399;0.0012;
392221654504276;0.0666;0.0304;0.0182;
392221664608026;0.0858;0.0506;0.0374;
392221674719589;0.0751;0.0474;0.0438;
392221684823339;0.0666;0.0037;0.0332;
392221694927089;0.0676;-0.0069;0.0076;
392221705022609;0.0538;-0.0027;0.0577;
392221715126359;-0.0154;-0.0623;0.0768;
392221725230109;-0.0208;-0.1113;0.0609;
392221735331568;0.0240;-0.0399;0.0566;
392221745435318;0.0154;0.0559;0.0438;
392221755539068;-0.0581;0.0336;0.0555;
392221765621880;-0.1465;-0.0133;0.0513;
392221775725630;-0.1667;-0.0389;0.0491;
392221785829380;-0.1699;-0.0048;0.0395;
392221795943078;-0.1603;0.0591;0.0278;
392221806046672;-0.2168;0.0293;0.0193;
392221816150266;-0.2104;0.0304;0.0001;
392221826277766;-0.1624;0.0218;0.0076;
392221836381359;-0.2083;-0.0453;0.0108;
392221846484953;-0.2125;-0.0506;0.0076;
392221856565266;-0.1561;-0.0591;-0.0084;
392221866668859;-0.1113;-0.1103;-0.0414;
392221876772453;-0.0229;-0.0325;-0.0659;
392221886880161;0.0506;0.0144;-0.0361;
392221896983755;0.0368;-0.0240;0.0044;
392221907087349;0.0634;-0.0197;-0.0148;
392221917188651;0.1028;0.0112;-0.0403;
392221927292245;0.1326;0.0730;-0.0457;
392221937395786;0.1049;0.0389;-0.0105;
392221947498234;0.0442;-0.0336;0.0119;
392221957601828;0.0794;-0.0389;-0.0009;
392221967705422;0.1113;-0.0144;0.0076;
392221977821516;0.0751;-0.0176;0.0087;
392221987925109;0.0368;-0.0176;0.0204;
392221998028651;0.0581;-0.0069;0.0332;
392222008112401;0.0495;-0.0240;0.0481;
392222018215995;0.0368;-0.0783;0.0587;
392222028319589;0.0474;-0.1134;0.0800;
392222038445891;0.0900;0.0197;0.0555;
392222048549432;0.0964;0.1039;0.0172;
392222058653026;0.0431;0.0644;0.0257;
392222068783391;-0.0240;0.0186;0.0758;
392222078886984;-0.0272;-0.0282;0.0885;
392222088990526;-0.0154;-0.0421;0.0598;
392222099047089;-0.0112;0.0069;0.0364;
392222109150682;-0.0261;0.0421;0.0417;
392222119254224;-0.0900;-0.0378;0.0790;
392222129375474;-0.1784;-0.1220;0.0715;
392222139479068;-0.1273;-0.0964;0.0566;
392222149582609;-0.0463;-0.0314;0.0736;
392222159651047;-0.0644;0.0634;0.0566;
392222169754589;-0.1071;0.0985;0.0598;
392222179858182;-0.2594;-0.0613;0.0502;
392222189968443;-0.3349;-0.1252;0.0353;
392222200071984;-0.2711;-0.0932;0.0342;
392222210175578;-0.2445;-0.1838;0.0566;
392222220293078;-0.2786;-0.2518;-0.0105;
392222230396672;-0.2818;-0.1752;-0.0776;
392222240500266;-0.2999;-0.1379;-0.0691;
392222250599901;-0.3381;-0.2454;-0.0638;
392222260703443;-0.2732;-0.2454;-0.0648;
392222270807036;-0.0698;-0.0762;-0.0435;
392222280922349;0.0282;0.0836;-0.0819;
392222291025943;0.0314;0.1124;-0.0883;
392222301129536;-0.0208;0.0517;-0.0638;
392222311263807;0.0261;0.0751;-0.0372;
392222321367401;0.1358;0.1710;-0.0425;
392222331470995;0.1518;0.1720;-0.0435;
392222341525318;0.0538;0.0357;-0.0073;
392222351628859;0.1103;0.0112;0.0023;
392222361732453;0.2168;0.0197;-0.0180;
392222371855734;0.2200;-0.0463;-0.0009;
392222381959328;0.3031;0.0474;0.0630;
392222392062922;0.3498;0.2413;0.0811;
392222402164484;0.2871;0.2434;0.0619;
392222412268078;0.2242;0.2583;0.0672;
392222422371672;0.1848;0.3659;0.0981;
392222432466255;0.0751;0.3638;0.1140;
392222442569797;-0.0208;0.3063;0.1140;
392222452673391;-0.0687;0.3180;0.1056;
392222462775630;-0.1241;0.2626;0.1214;
392222472879172;-0.2423;0.1060;0.1161;
392222482982766;-0.3285;-0.0250;0.0949;
392222493102974;-0.3551;-0.1230;0.0726;
392222503206568;-0.3913;-0.1827;0.0268;
392222513310161;-0.4616;-0.1891;-0.0105;
392222523402870;-0.4830;-0.1752;-0.0031;
392222533506464;-0.5202;-0.0975;-0.0382;
392222543610057;-0.4798;0.0229;-0.0830;
392222553704484;-0.4734;0.0101;-0.1011;
392222563808026;-0.4510;-0.0591;-0.1107;
392222573911620;-0.2999;0.0101;-0.1288;
392222584032818;-0.1859;0.0218;-0.1618;
392222594136411;-0.1209;0.0059;-0.1810;
392222604240005;-0.1060;-0.0293;-0.1458;
392222614339016;-0.0826;-0.1113;-0.1426;
392222624442609;-0.0453;-0.1284;-0.1415;
392222634546203;-0.0953;-0.1262;-0.1799;
392222644644797;-0.0964;-0.1007;-0.2363;
392222654748339;-0.1017;-0.0772;-0.2332;
392222664851932;-0.1465;-0.0858;-0.2129;
392222674966620;-0.1316;-0.0602;-0.2395;
392222685070214;-0.1241;-0.0687;-0.2672;
392222695173807;-0.0815;-0.0623;-0.3035;
392222705265109;-0.0176;-0.0304;-0.2864;
392222715368651;0.0186;-0.0581;-0.2736;
392222725472245;0.1081;-0.0655;-0.2619;
392222735582245;0.2647;0.0186;-0.2747;
392222745685839;0.4627;0.0208;-0.2438;
392222755789432;0.6129;0.0943;-0.2108;
392222765914849;0.6949;0.1593;-0.2129;
392222776018443;0.7727;0.1348;-0.1628;
392222786121984;0.7961;0.1624;-0.1000;
392222796211099;0.8089;0.1273;-0.0712;
392222806314797;0.8100;0.0016;-0.0563;
392222816418495;0.8260;-0.0144;-0.0148;
392222826525682;0.8004;0.1092;0.0385;
392222836629380;0.7631;0.1411;0.0332;
392222846733078;0.7269;0.0538;0.0438;
392222856824224;0.6427;0.0059;0.0683;
392222866927922;0.5948;0.0794;0.0960;
392222877031620;0.4638;0.0676;0.1076;
392222887133807;0.3903;0.0847;0.1321;
392222897237505;0.3935;0.1198;0.1385;
392222907341203;0.3349;0.1028;0.1406;
392222917445891;0.2700;0.0921;0.1566;
392222927549589;0.2040;0.0080;0.1566;
392222937653286;0.1103;-0.1007;0.1406;
392222947754484;0.0282;-0.0730;0.1321;
392222957858130;-0.1241;-0.1081;0.1087;
392222967961828;-0.2903;-0.2178;0.0896;
392222978062193;-0.3754;-0.1784;0.0960;
392222988165891;-0.3935;-0.1316;0.0630;
392222998269536;-0.4180;-0.1529;0.0545;
392223008368234;-0.4371;-0.0644;0.0246;
392223018471880;-0.3668;0.1113;0.0182;
392223028575578;-0.4094;0.0389;0.0129;
392223038706411;-0.4979;-0.0953;-0.0095;
392223048810109;-0.4190;0.0889;-0.0435;
392223058913807;-0.4233;0.1188;-0.0606;
392223069003911;-0.6268;-0.1742;-0.0190;
392223079107661;-0.7056;-0.3146;-0.0414;
392223089211307;-0.4489;-0.1891;-0.0361;
392223099306568;-0.1049;-0.0847;-0.0446;
392223109410318;0.0943;-0.0506;-0.0702;
392223119514016;0.2583;0.1188;-0.0648;
392223129612974;0.2818;0.2083;-0.0126;
392223139716672;0.0996;0.1411;0.0257;
392223149820370;-0.0165;0.1507;0.0417;
392223159923495;0.0133;0.1582;-0.0031;
392223170027193;0.1134;0.1454;0.0140;
392223180130891;0.1710;0.1369;0.0417;
392223190259328;0.1593;0.0421;0.0790;
392223200363026;0.1497;0.0346;0.0566;
392223210466724;0.1912;0.0495;0.0395;
392223220571307;0.1475;-0.0101;0.0672;
392223230675005;0.0921;-0.0985;0.0981;
392223240778703;0.0847;-0.1028;0.1065;
392223250862818;0.0921;-0.0591;0.0640;
392223260966516;0.0666;-0.0613;0.0651;
392223271070161;0.0826;0.0708;0.0364;
392223281176724;0.1933;0.2083;0.0619;
392223291280422;0.1955;0.2477;0.0822;
392223301384120;0.1933;0.2871;0.0417;
392223311488703;0.1795;0.1561;0.0459;
392223321592401;0.0474;-0.1486;0.0854;
392223331696099;-0.0879;-0.2136;0.0758;
392223341808234;-0.0921;-0.0581;0.0598;
392223351911932;-0.0538;0.0080;0.0214;
392223362015630;-0.1007;-0.0421;-0.0084;
392223372124328;-0.1561;-0.0453;-0.0393;
392223382228078;-0.2381;-0.0559;-0.0382;
392223392331724;-0.2754;-0.0794;-0.0521;
392223402421724;-0.2807;-0.1092;-0.0936;
392223412525422;-0.2359;-0.0687;-0.0979;
392223422629120;-0.1497;0.0261;-0.0872;
392223432726255;-0.1166;0.0304;-0.1021;
392223442829901;-0.0144;-0.0037;-0.0979;
392223452933599;0.0847;0.0027;-0.0510;
392223463036776;0.2232;0.0144;-0.0393;
392223473140422;0.3221;0.0144;-0.0499;
392223483244120;0.4020;0.0687;-0.0787;
392223493350526;0.5181;0.1220;-0.0670;
392223503454172;0.4627;-0.0282;-0.0084;
392223513557870;0.3839;-0.1976;0.0268;
392223523662661;0.4595;-0.0719;0.0289;
392223533766411;0.5937;0.1103;0.0300;
392223543870057;0.5149;0.0048;0.0587;
392223553971359;0.4393;-0.0602;0.0577;
392223564075005;0.4872;0.1028;0.0470;
392223574178703;0.4936;0.0943;0.0364;
392223584290734;0.4371;-0.0879;0.1056;
392223594394432;0.4169;-0.0293;0.1459;
392223604498130;0.4798;0.0964;0.1683;
392223614608651;0.4169;0.0293;0.1470;
392223624712349;0.3839;-0.0314;0.1353;
392223634816047;0.3967;-0.0123;0.1609;
392223644898234;0.3839;-0.0463;0.2013;
392223655001932;0.3232;-0.0900;0.2226;
392223665105578;0.2977;-0.0282;0.2226;
392223675243599;0.3104;0.0932;0.2077;
392223685347297;0.1742;0.0783;0.2099;
392223695450995;0.0772;-0.0154;0.2365;
392223705533391;0.0772;-0.0240;0.2546;
392223715637089;0.0495;0.0421;0.2652;
392223725740786;-0.0506;0.0772;0.2173;
392223735841932;-0.1156;0.0005;0.1822;
392223745945630;-0.2690;-0.0921;0.1683;
392223756049328;-0.3722;-0.0655;0.1747;
392223766166203;-0.3615;-0.0293;0.1630;
392223776269901;-0.3125;-0.0293;0.1875;
392223786373599;-0.3157;-0.0027;0.1630;
392223796461984;-0.3061;0.1209;0.1310;
392223806565578;-0.3604;0.1305;0.1246;
392223816669172;-0.4808;0.0080;0.1406;
392223826780318;-0.5980;-0.0815;0.1395;
392223836883911;-0.6406;-0.1103;0.0800;
392223846987453;-0.5948;-0.1294;0.0395;
392223857083547;-0.5543;-0.0975;0.0246;
392223867187089;-0.4489;-0.0165;-0.0169;
392223877290630;-0.3338;0.0783;-0.0126;
392223887394484;-0.3136;0.0655;0.0012;
392223897498026;-0.3136;-0.0059;-0.0116;
392223907601620;-0.2594;0.0091;-0.0212;
392223917698495;-0.2573;0.0549;-0.0872;
392223927802089;-0.2349;0.0080;-0.0819;
392223937905682;-0.2796;-0.0282;-0.0648;
392223948008130;-0.2072;0.0559;-0.0553;
392223958111672;-0.0815;0.1209;-0.0755;
392223968215266;-0.0826;0.1507;-0.0904;
392223978319901;-0.1433;0.1518;-0.1298;
392223988423443;-0.1475;0.0570;-0.1277;
392223998526984;-0.1614;-0.0826;-0.1032;
392224008628391;-0.1465;-0.0932;-0.0979;
392224018731984;-0.0964;-0.0048;-0.1288;
392224028835526;-0.0250;0.0261;-0.1479;
392224038930266;-0.0250;-0.2029;-0.1224;
392224049033859;-0.0985;-0.2827;-0.1352;
392224059137453;-0.0474;0.1774;-0.1778;
392224069315474;0.3881;0.5596;-0.1863;
392224079419016;0.6342;0.2860;-0.1714;
392224089522609;0.3818;0.0336;-0.1362;
392224099564536;0.2359;0.0336;-0.1256;
392224109668130;0.2178;-0.0730;-0.1479;
392224119771724;0.1007;-0.1678;-0.1607;
392224129904328;-0.0314;-0.0698;-0.1980;
392224140007922;-0.0282;0.0016;-0.2225;
392224150111464;0.0431;-0.0527;-0.2608;
392224160184068;0.0410;-0.1124;-0.2779;
392224170287609;-0.0506;-0.1177;-0.3077;
392224180391203;-0.1081;0.0037;-0.2811;
392224190515214;0.0240;0.0911;-0.2779;
392224200618807;0.1646;-0.0069;-0.3098;
392224210722401;0.1667;-0.0623;-0.3088;
392224220827661;0.2296;0.0176;-0.3088;
392224230931255;0.3242;-0.0037;-0.3375;
392224241034849;0.2903;-0.1454;-0.3386;
392224251119589;0.2658;-0.1262;-0.3471;
392224261223130;0.2764;0.0687;-0.3514;
392224271326724;0.3828;0.2956;-0.3120;
392224281438495;0.6012;0.2253;-0.2704;
392224291542089;0.6832;-0.1699;-0.2545;
392224301645682;0.6651;-0.3764;-0.2555;
392224311750682;0.5032;-0.2284;-0.2438;
392224321854276;0.4041;-0.0687;-0.1831;
392224331957818;0.4979;-0.0240;-0.1075;
392224342057401;0.6715;0.0900;-0.1107;
392224352160943;0.8824;0.1667;-0.1277;
392224362264536;0.7833;0.0272;-0.1032;
392224372365422;0.7056;0.0293;-0.0308;
392224382468964;0.8100;0.1859;0.0310;
392224392572557;0.8302;0.1838;0.0353;
392224402684328;0.7578;0.0442;0.0406;
392224412787922;0.7738;-0.0250;0.1097;
392224422891516;0.7226;-0.0037;0.1768;
392224432986151;0.6939;-0.0123;0.2013;
392224443089693;0.6640;-0.0868;0.1960;
392224453193286;0.6385;0.0123;0.1577;
392224463308911;0.6747;0.1486;0.1790;
392224473412505;0.6545;0.0943;0.2429;
392224483516099;0.5927;0.0250;0.2525;
392224493609276;0.5032;0.0293;0.2493;
392224503712818;0.4286;0.0676;0.2525;
392224513816411;0.3881;-0.0037;0.2386;
392224523926411;0.3541;-0.0804;0.2418;
392224534030005;0.3114;0.0304;0.2589;
392224544133599;0.2562;0.1443;0.2620;
392224554231984;0.1987;0.0687;0.2791;
392224564335526;0.1166;-0.0080;0.2802;
392224574439120;0.0027;0.0005;0.2333;
392224584545474;-0.0985;0.0517;0.2130;
392224594649068;-0.1156;0.1156;0.2418;
392224604752661;-0.1614;0.0815;0.2599;
392224614869745;-0.1923;-0.0282;0.2322;
392224624973339;-0.1710;-0.1198;0.2344;
392224635076932;-0.1497;-0.0847;0.2237;
392224645166307;-0.1507;-0.0495;0.2035;
392224655269901;-0.0836;-0.0975;0.2439;
392224665373443;-0.0442;-0.0549;0.2450;
392224675488807;0.0304;0.0815;0.2290;
392224685592401;0.0783;0.0676;0.2439;
392224695695995;-0.0208;-0.0485;0.2429;
392224705791568;-0.0080;-0.0559;0.2535;
392224715895161;0.0517;0.0144;0.2418;
392224725998755;0.0506;0.0570;0.2610;
392224736108078;0.0133;0.0154;0.2652;
392224746211672;-0.0282;-0.0154;0.2684;
392224756315266;-0.0613;0.0229;0.2716;
392224766424120;-0.0708;0.0602;0.2897;
392224776527714;-0.1209;0.0613;0.3185;
392224786631307;-0.2168;0.0112;0.3313;
392224796731984;-0.3051;-0.0016;0.2983;
392224806835682;-0.3967;0.0144;0.2567;
392224816939380;-0.4212;0.0197;0.2386;
392224827039068;-0.5085;0.0453;0.2322;
392224837142766;-0.6055;-0.0272;0.2109;
392224847246464;-0.7588;-0.1443;0.1545;
392224857341255;-0.6278;-0.0804;0.1513;
392224867444953;-0.5426;0.0101;0.1481;
392224877548651;-0.5256;0.0005;0.1502;
392224887657401;-0.4787;0.0240;0.1321;
392224897761099;-0.4020;0.1039;0.1118;
392224907864797;-0.3455;0.1134;0.1172;
392224918004849;-0.3722;0.0304;0.1013;
392224928108599;-0.3700;-0.0186;0.1013;
392224938212297;-0.2828;0.0794;0.1161;
392224948270109;-0.2594;0.1241;0.1013;
392224958373755;-0.2818;-0.0112;0.0875;
392224968477505;-0.2796;-0.0900;0.0800;
392224978589484;-0.1891;0.0016;0.1076;
392224988693182;-0.1752;0.0123;0.1278;
392224998796880;-0.1955;-0.0794;0.1045;
392225008904693;-0.1880;-0.0495;0.0907;
392225019008391;-0.1774;0.0708;0.0992;
392225029112089;-0.2008;0.0559;0.1225;
392225039251359;-0.2849;-0.0133;0.1150;
392225049355057;-0.3189;0.0016;0.1035;
392225059458807;-0.2839;0.0357;0.0779;
392225069514589;-0.2807;0.0165;0.0502;
392225079618286;-0.3093;0.0336;0.0257;
392225089721984;-0.3242;0.0644;0.0065;
392225099823651;-0.3296;0.0602;0.0374;
392225109927349;-0.3328;0.1294;0.0449;
392225120031047;-0.3626;0.0847;0.0374;
392225130137401;-0.4031;0.0698;-0.0084;
392225140241099;-0.3711;0.0911;-0.0659;
392225150344797;-0.4094;0.0336;-0.0627;
392225160447818;-0.5181;-0.0154;-0.0680;
392225170551516;-0.5149;0.0218;-0.0819;
392225180655214;-0.5234;0.0453;-0.0819;
392225190782089;-0.5692;-0.0272;-0.0712;
392225200885734;-0.5511;-0.0368;-0.0979;
392225210989484;-0.4329;0.0932;-0.1170;
392225221088026;-0.4276;0.1124;-0.1085;
392225231191724;-0.4510;0.0144;-0.1011;
392225241295422;-0.3573;0.0474;-0.0808;
392225251383755;-0.3178;0.0985;-0.0862;
392225261487453;-0.3221;0.0123;-0.1043;
392225271591151;-0.2988;-0.0346;-0.0893;
392225281706620;-0.2349;0.0762;-0.0915;
392225291810318;-0.2285;0.1113;-0.1043;
392225301914016;-0.2146;0.0815;-0.1245;
392225312012089;-0.2242;0.0719;-0.1266;
392225322115786;-0.2349;0.0868;-0.1170;
392225332219484;-0.1912;0.1134;-0.1064;
392225342317922;-0.2136;0.0570;-0.1383;
392225352421568;-0.2008;-0.0261;-0.1650;
392225362525318;-0.0921;0.0197;-0.1437;
392225372632609;-0.0495;0.0730;-0.1607;
392225382736307;-0.0655;0.0336;-0.1639;
392225392840005;-0.0442;-0.0229;-0.1309;
392225402944693;-0.0176;0.0421;-0.1298;
392225413048391;0.0080;0.1103;-0.1618;
392225423152089;0.0144;0.1166;-0.1682;
392225433248339;-0.0112;0.1337;-0.1522;
392225443352036;-0.0794;0.1230;-0.1501;
392225453455734;-0.1113;0.0900;-0.1490;
392225463561464;-0.1145;0.1273;-0.1735;
392225473665161;-0.1401;0.1209;-0.1852;
392225483768859;-0.1688;-0.0229;-0.1810;
392225493872297;-0.1763;-0.1166;-0.1873;
392225503975995;-0.1710;-0.0538;-0.2193;
392225514079693;-0.1614;-0.0080;-0.2374;
392225524210943;-0.1422;-0.0389;-0.2268;
392225534314641;-0.1230;-0.0176;-0.2289;
392225544418339;-0.1316;0.0069;-0.2374;
392225554487609;-0.1326;0.0112;-0.2502;
392225564591307;-0.1007;0.0325;-0.2662;
392225574695005;-0.0549;0.0570;-0.2651;
392225584806568;-0.0623;0.0868;-0.2566;
392225594910266;-0.0485;0.0485;-0.2481;
392225605013964;-0.0080;-0.0463;-0.2257;
392225615119693;0.0485;-0.0431;-0.2076;
392225625223391;0.1113;-0.0005;-0.2001;
392225635327089;0.1688;-0.0378;-0.1863;
392225645424901;0.2296;-0.1326;-0.1458;
392225655528599;0.2732;-0.1497;-0.1053;
392225665632297;0.2999;-0.0602;-0.0947;
392225675752609;0.3647;-0.0101;-0.0648;
392225685856307;0.3924;-0.0527;-0.0350;
392225695960005;0.3700;-0.0708;-0.0009;
392225706046255;0.3754;-0.0399;0.0140;
392225716149953;0.3849;0.0037;0.0033;
392225726253651;0.3871;0.0549;0.0225;
392225736359172;0.3828;0.0740;0.0694;
392225746462870;0.3658;0.0442;0.0907;
392225756566568;0.3328;0.0282;0.0715;
392225766676672;0.3434;-0.0048;0.0662;
392225776780318;0.3732;-0.0197;0.1003;
392225786884068;0.3594;0.0069;0.1172;
392225796986984;0.3487;0.0005;0.1278;
392225807090682;0.3125;-0.0059;0.1024;
392225817194380;0.3009;0.0176;0.1182;
392225827300995;0.2434;-0.0027;0.1342;
392225837404693;0.1646;0.0005;0.1118;
392225847508391;0.1316;0.0517;0.1024;
392225857598443;0.0911;0.0485;0.1140;
392225867702141;0.0506;0.0186;0.1182;
392225877805786;-0.0218;0.0730;0.1172;
392225887911776;-0.0943;0.1561;0.1076;
392225898015422;-0.2232;0.1241;0.0864;
392225908119120;-0.2935;0.0091;0.0577;
392225918221464;-0.3636;-0.0399;0.0055;
392225928325161;-0.4158;0.0229;-0.0244;
392225938428807;-0.4851;0.0186;-0.0265;
392225948532870;-0.5202;-0.0272;-0.0425;
392225958636568;-0.4798;0.0005;-0.0830;
392225968740266;-0.4233;0.0176;-0.1149;
392225978871516;-0.3658;0.0165;-0.1202;
392225988975214;-0.2988;-0.0240;-0.1266;
392225999078911;-0.1838;-0.0218;-0.0957;
392226009167141;-0.1358;0.0123;-0.1085;
392226019270839;-0.0911;0.0037;-0.1202;
392226029374536;-0.0250;-0.0410;-0.1224;
392226039487818;0.0229;-0.0165;-0.1011;
392226049591568;0.0463;0.0506;-0.0744;
392226059695214;0.0932;0.0453;-0.0617;
392226069771880;0.1401;-0.0059;-0.0595;
392226079875578;0.1678;-0.0154;-0.0340;
392226089979276;0.1859;0.0304;-0.0201;
392226100099484;0.2285;0.0410;0.0236;
392226110203182;0.1997;-0.0666;0.0470;
392226120306880;0.1390;-0.1039;-0.0169;
392226130422766;0.1358;0.0133;-0.0137;
392226140526464;0.0847;0.0676;0.0150;
392226150630161;0.0069;-0.0208;0.0161;
392226160716828;0.0016;-0.0186;0.0150;
392226170820526;0.0144;0.0879;0.0044;
392226180924224;-0.0336;0.0804;0.0108;
392226191013234;-0.0538;0.0389;-0.0329;
392226201116880;-0.0389;0.0176;-0.0244;
392226211220578;-0.0666;-0.0176;-0.0020;
392226221339745;-0.0794;-0.0080;0.0108;
392226231443443;-0.1348;-0.0762;-0.0201;
392226241547141;-0.1710;-0.1049;-0.0670;
392226251648495;-0.1124;-0.0399;-0.0435;
392226261752193;-0.0581;0.0495;-0.0446;
392226271855891;-0.0027;0.0751;-0.0180;
392226281963703;-0.0208;0.0250;-0.0542;
392226292067401;0.0112;0.0005;-0.0531;
392226302171099;0.0080;0.0272;-0.0585;
392226312279016;0.0368;-0.0101;-0.0755;
392226322382714;0.0836;-0.0655;-0.0680;
392226332486359;0.0964;-0.0570;-0.0361;
392226342576880;0.1060;-0.0378;-0.0435;
392226352680526;0.1795;-0.0655;-0.0158;
392226362784224;0.1891;-0.1284;-0.0457;
392226372898182;0.2306;-0.0687;-0.0915;
392226383001880;0.3615;0.0794;-0.0403;
392226393105578;0.3775;0.0644;0.0065;
392226403211099;0.3189;0.0240;0.0310;
392226413314797;0.3391;0.0453;0.0214;
392226423418495;0.3264;0.0655;0.0321;
392226433515266;0.2594;0.0485;0.0289;
392226443618964;0.1614;0.0133;0.0119;
392226453722661;0.1049;0.0314;0.0459;
392226463821776;0.0538;-0.0069;0.0534;
392226473925422;0.0272;-0.0783;0.0459;
392226484029120;-0.0016;-0.0996;0.0214;
392226494132818;0.0123;-0.0868;0.0406;
392226504236464;-0.0357;-0.0591;0.0353;
392226514340161;-0.0687;-0.0399;0.0023;
392226524469328;-0.0644;-0.0123;0.0342;
392226534573026;-0.0943;-0.0314;0.0491;
392226544676724;-0.1656;-0.0112;0.0065;
392226554760057;-0.1156;0.1124;-0.0212;
392226564863755;-0.1113;0.1166;0.0076;
392226574967453;-0.2509;-0.0421;-0.0009;
392226585069328;-0.2019;0.0357;-0.0137;
392226595173026;-0.1273;0.1230;-0.0212;
392226605276724;-0.2434;-0.0666;-0.0425;
392226615385161;-0.3317;-0.1731;-0.0393;
392226625488859;-0.2210;-0.1379;-0.0265;
392226635592557;-0.0602;-0.0740;-0.0116;
392226645691307;0.0368;-0.0410;-0.0222;
392226655795005;0.1071;-0.0495;0.0033;
392226665898703;0.1838;0.0602;0.0065;
392226676010370;0.2807;0.1752;0.0353;
392226686114068;0.2285;0.1049;0.0395;
392226696217766;0.1720;0.0101;0.0214;
392226706318599;0.1806;-0.0240;0.0225;
392226716422297;0.1571;-0.0485;0.0651;
392226726525995;0.0943;-0.0549;0.0779;
392226736622974;0.1017;-0.0527;0.0832;
392226746726672;0.1060;-0.0570;0.0555;
392226756830370;0.1326;0.0059;0.0438;
392226766948182;0.1049;0.0218;0.0310;
392226777051880;0.0836;0.0101;0.0374;
392226787155578;0.0229;0.0069;0.0374;
392226797257661;-0.0368;-0.0176;0.0353;
392226807361359;-0.0165;0.0314;0.0278;
392226817465057;0.0314;0.1060;0.0342;
392226827566828;-0.0250;0.0357;0.0278;
392226837670526;-0.1039;-0.0389;-0.0063;
392226847774224;-0.1571;-0.0282;0.0182;
392226857866203;-0.2551;-0.0314;-0.0169;
392226867969901;-0.2061;-0.0719;-0.0158;
392226878073547;-0.2072;-0.0815;-0.0563;
392226888175422;-0.0687;-0.0144;-0.0712;
392226898279120;-0.0005;0.0591;-0.0872;
392226908382818;-0.0261;0.1124;-0.0819;
392226918501099;-0.1454;0.0368;-0.0883;
392226928604797;-0.2530;-0.0474;-0.1405;
392226938708443;-0.2807;-0.0144;-0.1778;
392226948828391;-0.2072;0.0293;-0.1799;
392226958932141;-0.0847;0.0602;-0.1692;
392226969035786;0.0027;0.0517;-0.1778;
392226979091568;0.0101;0.0293;-0.1842;
392226989195214;0.0080;-0.0410;-0.1810;
392226999298964;0.0378;-0.0613;-0.1746;
392227009475891;0.1060;0.0197;-0.1650;
392227019579536;0.1656;0.0272;-0.1565;
392227029683286;0.1838;-0.0389;-0.1288;
392227039741307;0.2466;0.0016;-0.1075;
392227049845005;0.3328;0.0250;-0.0819;
392227059948703;0.3477;0.0325;-0.0680;
392227070089536;0.3988;0.1166;-0.0670;
392227080193286;0.3359;0.0229;-0.0340;
392227090296984;0.2029;-0.0325;-0.0403;
392227100352609;0.1965;-0.0751;-0.0041;
392227110456307;0.1550;-0.1507;0.0055;
392227120560005;0.2178;-0.1348;0.0097;
392227130665370;0.3168;-0.0197;-0.0095;
392227140769068;0.3434;0.0027;0.0129;
392227150872766;0.2157;-0.0815;0.0438;
392227160976516;0.1848;-0.0815;0.0672;
392227171080266;0.1795;-0.0772;0.0672;
392227181183964;0.1497;-0.1561;0.0811;
392227191302349;0.1848;-0.1305;0.1076;
392227201406047;0.2924;-0.0208;0.1087;
392227211509745;0.3189;0.0240;0.0843;
392227221603807;0.2636;-0.0091;0.1342;
392227231707557;0.2093;-0.0016;0.1694;
392227241811203;0.1965;0.0602;0.1587;
392227251914016;0.2040;0.0549;0.2162;
392227262017714;0.0868;-0.1092;0.2162;
392227272121411;0.0975;-0.1678;0.1854;
392227282225682;0.2125;-0.0421;0.1949;
392227292329380;0.2455;0.0399;0.2269;
392227302433078;0.1017;-0.0740;0.2280;
392227312544224;0.0996;-0.0048;0.1960;
392227322647922;0.1273;0.1007;0.1875;
392227332751672;0.0463;0.0399;0.2237;
392227342841151;-0.0826;-0.0921;0.2003;
392227352944849;-0.1177;-0.0378;0.1662;
392227363048547;-0.0708;0.0399;0.1587;
392227373162766;-0.0804;0.0091;0.1800;
392227383266464;-0.0687;-0.0005;0.1917;
392227393370161;0.0133;0.1017;0.1758;
392227403474693;0.0794;0.1571;0.1672;
392227413578443;0.0485;0.1071;0.1704;
392227423682141;0.0197;0.0495;0.1651;
392227433768859;-0.0133;0.0218;0.1758;
392227443872505;-0.0197;-0.0037;0.1704;
392227453976255;-0.0389;-0.0272;0.1822;
392227464087766;-0.0346;-0.0708;0.1523;
392227474191464;-0.0421;-0.0943;0.1289;
392227484295214;-0.0346;0.0112;0.1438;
392227494391880;-0.0527;0.1209;0.1587;
392227504495578;-0.1667;0.0708;0.1427;
392227514599276;-0.1667;-0.0154;0.1003;
392227524731932;-0.1209;-0.0048;0.0960;
392227534835630;-0.1688;0.0314;0.0949;
392227544939328;-0.1816;0.0144;0.1087;
392227555022245;-0.1880;0.0218;0.1065;
392227565125943;-0.1710;0.0346;0.1003;
392227575229641;-0.2114;-0.0272;0.0704;
392227585329016;-0.2093;-0.0485;0.0609;
392227595432714;-0.1539;0.0730;0.0662;
392227605536411;-0.1827;0.0623;0.0491;
392227615648391;-0.2285;-0.0240;0.0406;
392227625752089;-0.2700;-0.0996;0.0310;
392227635855786;-0.2455;-0.1060;0.0374;
392227645949068;-0.2487;-0.0762;0.0385;
392227656052714;-0.2019;-0.0751;-0.0063;
392227666156411;-0.1230;-0.0144;-0.0265;
392227676272245;-0.0772;0.0676;0.0012;
392227686375943;-0.0794;0.0282;0.0225;
392227696479641;-0.0644;0.0069;0.0236;
392227706574901;-0.0463;0.0517;-0.0201;
392227716678599;-0.0485;0.0069;-0.0222;
392227726782297;-0.0708;-0.0655;0.0065;
392227736884224;-0.0091;-0.0037;0.0257;
392227746987922;-0.0016;0.0527;0.0225;
392227757091620;-0.0069;-0.0027;0.0140;
392227767194068;0.0314;-0.0751;0.0268;
392227777297714;0.0485;0.0112;0.0587;
392227787401464;-0.0314;0.0634;0.0640;
392227797510786;-0.0730;-0.0005;0.0491;
392227807614484;-0.0921;-0.0197;0.0502;
392227817718130;-0.1284;-0.0176;0.0672;
392227827817141;-0.1933;-0.0538;0.0800;
392227837920839;-0.2274;-0.0634;0.0374;
392227848024484;-0.1763;-0.0218;0.0758;
392227858119172;-0.2093;0.0889;0.0779;
392227868222818;-0.2509;0.1348;0.0097;
392227878326516;-0.3455;0.0698;0.0023;
392227888432036;-0.4318;0.0410;0.0449;
392227898535682;-0.4670;0.0186;0.0289;
392227908639328;-0.5458;-0.0889;-0.0084;
392227918768078;-0.5351;-0.1699;-0.0638;
392227928871776;-0.4787;-0.1422;-0.0862;
392227938975422;-0.4691;-0.1071;-0.0744;
392227949050839;-0.4041;-0.0559;-0.0702;
392227959154484;-0.2860;0.0644;-0.0744;
392227969258130;-0.2221;0.1177;-0.0553;
392227979374328;-0.2306;0.1252;-0.0766;
392227989478026;-0.1997;0.1198;-0.1149;
392227999581672;-0.1880;0.1081;-0.0734;
392228009687714;-0.1603;0.1081;-0.0467;
392228019791464;-0.0985;0.0538;-0.0574;
392228029895109;-0.0453;0.0495;-0.0723;
392228039999328;0.0176;0.0826;-0.0734;
392228050103026;0.0581;0.0549;-0.0776;
392228060206724;0.0826;-0.0570;-0.0755;
392228070302661;0.1092;-0.0953;-0.0659;
392228080406359;0.1028;-0.0314;-0.0979;
392228090510005;0.0687;-0.0485;-0.0968;
392228100635682;0.0581;-0.0687;-0.0957;
392228110739380;0.0858;0.0080;-0.0904;
392228120843026;0.1188;0.0229;-0.0989;
392228130924797;0.0740;-0.0123;-0.1202;
392228141028443;0.0687;0.0442;-0.1043;
392228151132141;0.1028;0.1028;-0.0712;
392228161247141;0.0943;0.0698;-0.0872;
392228171350839;0.1081;0.1007;-0.1117;
392228181454536;0.1656;0.1465;-0.0968;
392228191553391;0.1145;0.0463;-0.0840;
392228201657089;0.0474;-0.0591;-0.0819;
392228211760734;0.0538;-0.0527;-0.0851;
392228221865891;0.0399;-0.0975;-0.0766;
392228231969589;-0.0186;-0.1635;-0.0872;
392228242073234;-0.0144;-0.1390;-0.0798;
392228252173911;0.0272;-0.1198;-0.0947;
392228262277609;0.0474;-0.1060;-0.0862;
392228272381255;0.0666;-0.0666;-0.1224;
392228282486932;0.0889;-0.0091;-0.1511;
392228292590630;0.0485;0.0208;-0.1160;
392228302694276;-0.0080;0.0826;-0.0947;
392228312800786;0.0975;0.1806;-0.0947;
392228322904484;0.0644;0.1124;-0.1085;
392228333008182;0.0506;-0.0027;-0.1245;
392228343097714;0.0900;0.0016;-0.1149;
392228353201359;0.1007;-0.0186;-0.1117;
392228363305057;0.0900;-0.1134;-0.1000;
392228373422557;0.0623;-0.1081;-0.0712;
392228383526255;0.0964;-0.0261;-0.0734;
392228393629901;0.1411;-0.0048;-0.0702;
392228403726359;0.1912;-0.0005;-0.0712;
392228413830005;0.1806;-0.0165;-0.0670;
392228423933651;0.1454;-0.0314;-0.0361;
392228434033651;0.0794;0.0091;-0.0009;
392228444137297;0.0836;0.0719;-0.0020;
392228454240943;0.0900;0.0218;-0.0254;
392228464343547;0.0463;-0.0655;-0.0286;
392228474447193;0.0495;-0.0112;-0.0041;
392228484550891;0.1017;0.0900;-0.0553;
392228494657818;0.1326;0.0399;-0.0361;
392228504761516;0.1422;-0.0005;-0.0340;
392228514865161;0.1284;0.0463;-0.1426;
392228524993807;0.1401;0.0186;-0.1064;
392228535097505;0.1134;-0.0080;-0.0350;
392228545201151;0.1688;0.0229;-0.0670;
392228555290786;0.2317;0.0293;-0.1149;
392228565394484;0.2818;0.0218;-0.1138;
392228575498130;0.3445;0.0570;-0.1053;
392228585596203;0.3328;0.0634;-0.0872;
392228595699901;0.3221;-0.0016;-0.1181;
392228605803547;0.3583;-0.0059;-0.1266;
392228615911099;0.3541;0.0091;-0.1138;
392228626014797;0.4382;0.0123;-0.1362;
392228636118443;0.4936;-0.0495;-0.1341;
392228646213078;0.5245;-0.0304;-0.1298;
392228656316776;0.5756;-0.0101;-0.1362;
392228666420474;0.6523;-0.0336;-0.0712;
392228676549536;0.6630;0.0027;0.0055;
392228686653234;0.7205;0.0229;-0.0201;
392228696756932;0.8249;0.0133;-0.0563;
392228706835057;0.8228;0.0240;-0.0308;
392228716938755;0.7397;0.0218;0.0076;
392228727042401;0.7365;-0.0048;0.0438;
392228737144068;0.7152;0.0453;0.0683;
392228747247714;0.6726;0.0346;0.0864;
392228757351359;0.6214;-0.0240;0.1172;
392228767475161;0.5373;-0.0154;0.1491;
392228777578859;0.4606;0.0868;0.1395;
392228787682505;0.4297;0.0666;0.1470;
392228797769641;0.3551;-0.0123;0.1885;
392228807873339;0.2562;-0.0453;0.2003;
392228817976984;0.1816;-0.0847;0.1992;
392228828081099;-0.0591;-0.2678;0.1662;
392228838184797;-0.1784;-0.2912;0.2120;
392228848288443;-0.0495;-0.0442;0.2312;
392228858395891;0.0527;0.1316;0.2056;
392228868499589;0.1443;0.1134;0.1683;
392228878603234;0.1955;0.1593;0.1854;
392228888710578;0.1241;0.2764;0.2375;
392228898814276;0.0005;0.2040;0.2972;
392228908917922;-0.1379;0.0847;0.2812;
392228919032974;-0.1848;0.0623;0.2535;
392228929136672;-0.3253;0.0154;0.2248;
392228939240266;-0.5277;-0.1827;0.2099;
392228949337297;-0.5234;-0.2221;0.2141;
392228959441047;-0.3562;-0.0378;0.1981;
392228969544693;-0.1965;0.0442;0.2386;
392228979617245;-0.2285;0.0314;0.2620;
392228989720943;-0.2935;0.0474;0.2578;
392228999824589;-0.2647;0.0431;0.2599;
392229009940578;-0.3051;0.0314;0.2471;
392229020044276;-0.3391;0.0613;0.2535;
392229030147922;-0.3871;0.0591;0.2631;
392229040256984;-0.5671;-0.0123;0.2280;
392229050360682;-0.6587;-0.0591;0.2120;
392229060464328;-0.7461;-0.0985;0.1981;
392229070572245;-0.7727;-0.0517;0.1949;
392229080675943;-0.7418;0.0559;0.1640;
392229090779589;-0.7429;0.1933;0.1491;
392229100907714;-0.7620;0.3457;0.1502;
392229111011411;-0.9058;0.2881;0.1225;
392229121115057;-1.0474;0.0218;0.0758;
392229131183443;-1.0676;-0.1486;0.0204;
392229141287089;-1.0314;-0.1720;-0.0148;
392229151390734;-0.9995;-0.2274;-0.0233;
392229161507557;-0.8995;-0.2593;-0.0254;
392229171611255;-0.6981;-0.1209;-0.0606;
392229181714901;-0.5202;0.0687;-0.0702;
392229191817557;-0.4031;0.1422;-0.0702;
392229201921255;-0.2828;0.1305;-0.0680;
392229212024901;-0.2636;0.1710;-0.0830;
392229222120318;-0.2626;0.1550;-0.1043;
392229232223964;-0.1710;0.0517;-0.1458;
392229242327609;-0.0517;0.0186;-0.1682;
392229252441828;0.0091;0.0346;-0.1565;
392229262545526;0.0485;0.0357;-0.1415;
392229272649172;0.0676;-0.0069;-0.1522;
392229282742141;0.0740;-0.0666;-0.1352;
392229292845839;0.0975;-0.0953;-0.1352;
392229302949484;0.1550;-0.0794;-0.1586;
392229313076307;0.2391;-0.0133;-0.1447;
392229323180005;0.2913;0.0517;-0.1309;
392229333283651;0.3764;0.1411;-0.0968;
392229343366932;0.4425;0.1369;-0.0925;
392229353470630;0.4574;0.0240;-0.0893;
392229363574276;0.4755;0.0272;-0.0425;
392229373685995;0.4744;0.0570;-0.0425;
392229383789693;0.4904;-0.0048;-0.0393;
392229393893339;0.4702;-0.0091;-0.0435;
392229403996099;0.4254;0.0740;-0.0670;
392229414099797;0.4020;0.0634;-0.0457;
392229424203443;0.3061;-0.0549;-0.0063;
392229434299536;0.1965;-0.0666;-0.0073;
392229444403234;0.1411;0.0048;0.0044;
392229454506880;-0.0101;-0.0218;-0.0148;
392229464616932;-0.0538;-0.0272;-0.0148;
392229474720630;-0.0666;0.1028;-0.0116;
392229484824276;-0.1582;0.1635;-0.0148;
392229494916984;-0.2700;0.0538;-0.0063;
392229505020630;-0.3615;-0.0538;-0.0340;
392229515124276;-0.4446;-0.0208;-0.0830;
392229525257349;-0.4776;0.0091;-0.0766;
392229535361047;-0.5351;-0.0080;-0.0893;
392229545464693;-0.5170;0.0719;-0.1011;
392229555549068;-0.4318;0.1582;-0.1011;
392229565652766;-0.4627;0.0474;-0.1266;
392229575756411;-0.4627;-0.0517;-0.1362;
392229585863599;-0.3402;0.0368;-0.1479;
392229595967297;-0.2775;0.0613;-0.1533;
392229606070943;-0.2615;0.0357;-0.1650;
392229616183495;-0.2168;-0.0197;-0.1714;
392229626287193;-0.1369;-0.0463;-0.1948;
392229636390839;-0.0389;-0.0154;-0.1682;
392229646481828;-0.0091;-0.0304;-0.1511;
392229656585526;0.0698;-0.0240;-0.1639;
392229666689172;0.1593;0.0080;-0.1298;
392229676790057;0.1891;0.0325;-0.1213;
392229686893755;0.2402;0.0889;-0.1277;
392229696997401;0.2551;0.0804;-0.1213;
392229707108495;0.2274;0.0762;-0.1192;
392229717212193;0.1827;0.0506;-0.1213;
392229727315839;0.1379;-0.0549;-0.1298;
392229737407714;0.1060;-0.0921;-0.1107;
392229747511359;0.0602;-0.0527;-0.1362;
392229757615005;0.0517;-0.0027;-0.1426;
392229767706203;0.0666;-0.0037;-0.1128;
392229777809797;0.0655;-0.0165;-0.1277;
392229787913443;0.0708;0.0101;-0.1330;
392229798046932;0.0634;-0.0325;-0.1192;
392229808150682;0.0304;-0.0815;-0.1330;
392229818254328;0.0378;-0.0357;-0.1383;
392229828347557;0.0336;-0.0197;-0.1021;
392229838451255;0.0282;-0.0953;-0.1138;
392229848554953;0.0698;-0.0506;-0.1405;
392229858650161;0.1369;0.0879;-0.1277;
392229868753859;0.1188;0.0783;-0.1192;
392229878857557;0.0879;-0.0357;-0.1224;
392229888958234;0.1561;-0.0336;-0.1032;
392229899061880;0.2796;0.0250;-0.0467;
392229909165578;0.2871;-0.0250;-0.0563;
392229919265161;0.3604;-0.0368;-0.1138;
392229929368911;0.4361;-0.0176;-0.0467;
392229939472609;0.4116;-0.0559;0.0076;
392229949576828;0.4212;-0.0474;0.0182;
392229959680526;0.4616;0.0687;0.0033;
392229969784224;0.4744;0.0953;0.0150;
392229979919797;0.4286;0.0836;0.0364;
392229990023495;0.3945;0.0538;0.0694;
392230000127193;0.3583;0.0378;0.0651;
392230010195630;0.3370;-0.0293;0.0822;
392230020299276;0.3359;-0.0368;0.1035;
392230030402974;0.2700;0.0133;0.0981;
392230040524641;0.1742;-0.0740;0.0971;
392230050628391;0.1337;-0.0964;0.0928;
392230060732036;0.1316;0.0495;0.0555;
392230070857661;0.1252;0.0889;0.0790;
392230080961359;0.0421;0.0261;0.1045;
392230091065057;-0.0431;-0.0154;0.0704;
392230101132609;-0.0730;-0.1262;0.0811;
392230111236307;-0.1774;-0.1593;0.0907;
392230121339953;-0.3157;-0.0644;0.0449;
392230131451828;-0.2796;0.0666;0.0353;
392230141555526;-0.2232;0.0911;0.0140;
392230151659224;-0.2019;0.0900;0.0193;
392230161764068;-0.2509;0.0911;0.0406;
392230171867818;-0.3690;-0.0091;0.0246;
392230181971464;-0.4542;-0.1209;0.0108;
392230192075682;-0.3818;-0.0293;-0.0350;
392230202179380;-0.2668;0.0943;-0.0457;
392230212283078;-0.3093;0.0336;-0.0403;
392230222384484;-0.3200;-0.0389;-0.0201;
392230232488182;-0.1539;0.0016;-0.0244;
392230242591880;0.0059;0.1124;-0.0425;
392230252703495;-0.0293;0.0655;-0.0361;
392230262807245;-0.0037;-0.0442;-0.0340;
392230272910891;0.0676;-0.0304;-0.0648;
392230283010057;0.1465;-0.0123;-0.0627;
392230293113755;0.1326;0.0368;-0.0446;
392230303217453;0.0581;-0.0644;-0.0414;
392230313329432;0.0314;-0.1987;-0.0276;
392230323433130;0.0953;-0.1166;-0.0542;
392230333536828;0.2232;0.1049;-0.0606;
392230343632245;0.3583;0.2573;-0.0382;
392230353735943;0.3722;0.2977;-0.0180;
392230363839641;0.1816;0.2466;-0.0137;
392230373952141;0.0144;0.0655;-0.0041;
392230384055839;0.0123;-0.1507;-0.0126;
392230394159536;0.0144;-0.2358;-0.0403;
392230404256411;0.0005;-0.1752;-0.0457;
392230414360109;-0.0059;-0.0368;-0.0435;
392230424463807;0.0346;0.0346;-0.0340;
392230434563599;0.0964;-0.0240;-0.0297;
392230444667297;0.1635;-0.0900;-0.0446;
392230454770995;0.2487;-0.0581;-0.0553;
392230464873651;0.2849;-0.0208;-0.0222;
392230474977349;0.2104;-0.0421;0.0087;
392230485081047;0.1710;-0.1209;-0.0137;
392230495183286;0.2434;-0.1017;-0.0190;
392230505286984;0.2796;0.0112;-0.0126;
392230515390682;0.2924;0.0208;0.0161;
392230525493495;0.3146;0.0133;0.0364;
392230535597245;0.3583;0.0964;0.0150;
392230545700891;0.3031;0.0506;-0.0126;
392230555808599;0.2093;-0.1220;0.0491;
392230565912349;0.1848;-0.1039;0.0630;
392230576015995;0.2114;-0.0538;0.0342;
392230586122349;0.1390;-0.1848;0.0395;
392230596226047;0.1486;-0.1784;0.0736;
392230606329745;0.1859;-0.0027;0.0832;
392230616428911;0.1678;0.0985;0.1013;
392230626532609;0.0740;0.1124;0.1056;
392230636636307;0.0687;0.1465;0.1076;
392230646743911;0.1156;0.1774;0.1182;
392230656847609;0.0687;0.0772;0.1035;
392230666951307;0.0133;-0.0410;0.1065;
392230677058182;0.0474;-0.0399;0.1193;
392230687161880;0.0591;-0.0410;0.1129;
392230697265578;0.0272;-0.0751;0.1087;
392230707361411;0.0623;-0.0858;0.1129;
392230717465161;0.1316;-0.0399;0.1374;
392230727568807;0.1145;-0.0165;0.1470;
392230737677974;0.0772;-0.0304;0.1587;
392230747781724;0.0762;-0.0389;0.1417;
392230757885370;0.0644;0.0144;0.1172;
392230767954380;0.0240;0.0591;0.1268;
392230778058026;-0.0410;0.0325;0.1566;
392230788161672;-0.0964;0.1028;0.1481;
392230798302922;-0.1156;0.1433;0.1172;
392230808406568;-0.1880;0.0229;0.1108;
392230818510266;-0.2498;-0.0858;0.0683;
392230828600891;-0.2413;-0.0794;0.0587;
392230838704589;-0.3466;-0.0921;0.0864;
392230848808234;-0.4766;-0.1539;0.0715;
392230858909484;-0.4286;-0.1273;0.0300;
392230869013130;-0.3232;-0.0431;-0.0148;
392230879116828;-0.3200;-0.0549;-0.0297;
392230889242818;-0.2093;-0.0069;-0.0276;
392230899346516;-0.1071;0.0581;-0.0638;
392230909450214;-0.0740;0.0346;-0.0659;
392230919532974;-0.0751;0.0154;-0.0286;
392230929636672;-0.0442;0.0144;-0.0244;
392230939740318;-0.0069;-0.0261;-0.0403;
392230949873078;0.0581;-0.0602;-0.0595;
392230959976776;0.1390;-0.0559;-0.0606;
392230970080422;0.2285;0.0037;-0.0329;
392230980154328;0.2668;0.0314;-0.0148;
392230990258026;0.2455;0.0495;-0.0084;
392231000361672;0.2189;0.0751;0.0087;
392231010470214;0.1603;0.0442;0.0321;
392231020573859;0.0996;0.0336;0.0097;
392231030677557;0.0804;0.0346;-0.0095;
392231040783703;0.0740;-0.0272;0.0140;
392231050887401;0.0623;-0.0442;0.0236;
392231060991099;0.0613;-0.0080;0.0353;
392231071088130;0.0762;0.0016;0.0246;
392231081191776;0.1220;0.0346;0.0300;
392231091295422;0.1497;0.0368;0.0417;
392231101406984;0.0943;-0.0240;0.0470;
392231111510682;0.0783;-0.0921;0.0491;
392231121614328;0.1294;-0.0485;0.0640;
392231131733391;0.2072;0.0517;0.0790;
392231141837089;0.2029;0.0953;0.0822;
392231151940786;0.1188;0.0889;0.0949;
392231162027557;0.0847;0.1550;0.1108;
392231172131255;0.0676;0.2072;0.1076;
392231182234901;-0.0751;0.0889;0.0896;
392231192335318;-0.2413;-0.0314;0.0917;
392231202438964;-0.2913;-0.0517;0.1056;
392231212542661;-0.4350;-0.0879;0.0939;
392231222652349;-0.5628;-0.0985;0.0566;
392231232756047;-0.5671;-0.0634;0.0161;
392231242859693;-0.5682;-0.0378;0.0044;
392231252956880;-0.6545;-0.0463;0.0044;
392231263060526;-0.6694;-0.0336;-0.0350;
392231273164172;-0.5735;0.0485;-0.0446;
392231283279432;-0.5320;0.0602;-0.0595;
392231293383130;-0.5607;-0.0133;-0.0510;
392231303486828;-0.4904;-0.0431;-0.0947;
392231313584536;-0.3913;-0.0133;-0.1075;
392231323688234;-0.3296;0.0815;-0.1053;
392231333791932;-0.2807;0.1582;-0.1202;
392231343890266;-0.2487;0.1071;-0.1330;
392231353993964;-0.2487;-0.0389;-0.1575;
392231364097609;-0.1667;0.0154;-0.1927;
392231374212141;-0.1624;0.0740;-0.1937;
392231384315839;-0.2370;-0.0698;-0.1980;
392231394419484;-0.2636;-0.2443;-0.1937;
392231404523078;-0.2604;-0.1955;-0.1948;
392231414626776;-0.2061;-0.0368;-0.1937;
392231424730474;-0.1443;0.0037;-0.2225;
392231434823859;-0.0378;-0.0027;-0.2598;
392231444927505;0.1901;0.0272;-0.2491;
392231455031203;0.3285;-0.0176;-0.1852;
392231465196411;0.3604;-0.0304;-0.1543;
392231475300109;0.4169;0.0506;-0.1628;
392231485403755;0.4776;0.0687;-0.1554;
392231495445370;0.5586;0.0218;-0.1309;
392231505549016;0.6150;0.0059;-0.1298;
392231515652661;0.6331;-0.0527;-0.0766;
392231525778078;0.6289;-0.0421;-0.0329;
392231535881776;0.5596;-0.0059;-0.0531;
392231545985422;0.5362;-0.0229;-0.0180;
392231556078234;0.5586;0.0069;0.0161;
392231566181932;0.5469;0.0463;0.0087;
392231576285578;0.4702;0.0634;0.0023;
392231586369484;0.3232;-0.0091;0.0342;
392231596473130;0.1433;-0.1305;0.0694;
392231606576828;0.0655;-0.0900;0.0662;
392231616689745;0.0740;0.0836;0.0449;
392231626793443;0.0868;0.1571;0.0417;
392231636897089;0.0559;0.1039;0.0672;
392231647004641;0.0378;0.0495;0.0726;
392231657108339;-0.0112;0.0112;0.0779;
392231667212036;-0.0932;-0.0091;0.0640;
392231677299068;-0.0666;0.0293;0.0609;
392231687402714;-0.0123;0.0474;0.0811;
392231697506411;0.0229;0.0112;0.1056;
392231707623547;0.0463;0.0037;0.1087;
392231717727193;0.0495;0.0847;0.0896;
392231727830839;-0.0208;0.0570;0.0747;
392231737943078;-0.0389;-0.0165;0.0790;
392231748046776;-0.0314;-0.0389;0.0832;
392231758150422;-0.0293;-0.0495;0.0513;
392231768239797;0.0069;-0.0378;0.0577;
392231778343443;0.0666;0.0336;0.0726;
392231788447089;0.0378;0.0208;0.0896;
392231798581880;0.0389;0.0069;0.1214;
392231808685526;0.0506;-0.0048;0.1726;
392231818789276;-0.0368;0.0101;0.1225;
392231828866672;-0.0336;0.0676;0.0971;
392231838970318;-0.0495;0.0836;0.0917;
392231849074068;-0.1230;-0.0772;0.1449;
392231859167141;-0.2413;-0.1401;0.1161;
392231869270839;-0.2264;-0.0208;0.0758;
392231879374589;-0.2338;-0.0282;0.0832;
392231889528182;-0.2285;-0.1752;0.0768;
392231899631880;-0.0453;-0.0666;0.0981;
392231909735578;0.1720;0.2690;0.0630;
392231919825786;0.0378;0.1901;0.0491;
392231929929536;-0.2040;-0.0815;0.0726;
392231940033234;-0.1230;0.0069;0.0811;
392231950116932;-0.0133;0.1358;0.0459;
392231960220630;-0.1060;0.0101;0.0619;
392231970324328;-0.1582;-0.0613;0.0545;
392231980432349;-0.0762;-0.0666;0.0800;
392231990536047;-0.1113;-0.1230;0.0726;
392232000639745;-0.0826;-0.1252;0.0491;
392232010734797;-0.0123;-0.0144;0.0321;
392232020838495;-0.0272;0.0826;0.0321;
392232030942193;-0.1401;0.0368;0.0417;
392232041040734;-0.2541;0.0101;0.0310;
392232051144432;-0.2924;-0.0005;0.0449;
392232061248130;-0.3434;-0.0229;0.0161;
392232071347922;-0.2775;0.1443;-0.0031;
392232081451620;-0.2562;0.1731;-0.0340;
392232091555318;-0.2764;-0.0762;-0.0531;
392232101662297;-0.1475;-0.0208;-0.0702;
392232111765995;0.0186;0.2008;-0.0425;
392232121869693;-0.0815;-0.0186;-0.0361;
392232131988286;-0.0932;-0.3125;-0.0169;
392232142092036;0.0783;-0.2379;-0.0627;
392232152195734;0.3359;0.0059;-0.0734;
392232162299589;0.3562;-0.0005;-0.0382;
392232172403286;0.3317;-0.0123;-0.0041;
392232182506984;0.4446;0.0506;-0.0052;
392232192601151;0.4840;0.0570;-0.0041;
392232202704849;0.5011;0.0442;0.0502;
392232212808547;0.5096;0.1220;0.0609;
392232222909693;0.4798;0.1092;0.0481;
392232233013391;0.4830;-0.0250;0.0875;
392232243117089;0.4254;-0.1465;0.1289;
392232253229068;0.2509;-0.1624;0.0907;
392232263332766;0.1827;-0.0911;0.1035;
392232273436411;0.1273;-0.0154;0.1013;
392232283544068;0.1305;0.0101;0.1065;
392232293647766;0.1060;0.0282;0.0609;
392232303751464;0.0410;0.0314;0.0513;
392232313846203;-0.0921;0.0144;0.0875;
392232323949901;-0.2445;-0.0197;0.1204;
392232334053599;-0.2434;0.0549;0.1332;
392232344152609;-0.1869;0.1955;0.0907;
392232354256307;-0.2157;0.3435;0.0395;
392232364360005;-0.4254;0.3169;0.0161;
392232374474536;-0.7759;-0.0538;0.0459;
392232384578234;-0.9090;-0.3338;0.0683;
392232394681932;-0.8025;-0.2656;0.0385;
392232404781464;-0.7588;-0.2326;0.0119;
392232414885161;-0.5991;-0.2507;-0.0063;
392232424988859;-0.2828;-0.0666;-0.0617;
392232435090630;-0.0570;0.1401;-0.0276;
392232445194328;-0.1220;0.1688;0.0427;
392232455298026;-0.1443;0.1071;0.0513;
392232465403755;-0.0250;0.1795;0.0417;
392232475507453;-0.0016;0.2881;0.0502;
392232485611151;-0.0975;0.1763;0.0044;
392232495709380;-0.0804;0.0421;-0.0638;
392232505813078;0.1081;0.0368;-0.0052;
392232515916776;0.0740;-0.0314;-0.0201;
392232526038026;0.0623;-0.0527;-0.0403;
392232536141724;0.1071;0.0197;-0.0766;
392232546245422;0.1124;-0.0016;-0.0169;
392232556339068;0.0474;-0.0921;-0.0073;
392232566442766;0.0186;-0.1869;-0.0222;
392232576546464;-0.0186;-0.2475;-0.0627;
392232586648286;0.0304;-0.0176;-0.0340;
392232596751984;0.1859;0.3860;0.0108;
392232606855682;0.2114;0.5586;-0.0233;
392232616962505;0.0474;0.3254;-0.0020;
392232627066203;-0.1933;0.1486;0.0023;
392232637169901;-0.1646;0.1049;-0.0041;
392232647273859;-0.1912;-0.1518;-0.0265;
392232657377557;-0.3615;-0.3423;-0.0521;
392232667481255;-0.4553;-0.2264;-0.0798;
392232677582609;-0.5053;-0.0027;-0.1032;
392232687686307;-0.5788;0.0154;-0.0883;
392232697790005;-0.5533;0.0261;-0.0893;
392232707887036;-0.3988;0.1156;-0.1266;
392232717990682;-0.2285;0.0676;-0.1213;
392232728094432;-0.1326;0.0485;-0.1682;
392232738194068;-0.1113;0.0474;-0.1820;
392232748297766;-0.1092;-0.0719;-0.1522;
392232758401411;0.0186;-0.0346;-0.1085;
392232768524745;0.0879;0.0272;-0.0989;
392232778628339;0.0889;-0.0048;-0.1266;
392232788732089;0.1411;-0.0208;-0.1213;
392232798822141;0.1667;-0.0644;-0.0830;
392232808925839;0.1593;-0.0730;-0.0574;
392232819029484;0.1987;-0.0474;-0.0297;
392232829133182;0.1869;-0.1007;0.0012;
392232839245318;0.0591;-0.1869;-0.0425;
392232849348911;0.1060;-0.1635;-0.0233;
392232859452609;0.1987;0.0069;-0.0489;
392232869544745;0.2434;0.1007;-0.0617;
392232879648391;0.1614;0.0080;-0.0457;
392232889752036;0.1316;-0.0123;0.0044;
392232899883599;0.2146;0.0293;0.0193;
392232909987297;0.1965;-0.0197;0.0097;
392232920090891;0.1337;-0.0591;-0.0158;
392232930161464;0.1667;-0.0218;0.0310;
392232940265109;0.0932;-0.0730;0.0502;
392232950368755;0.0421;-0.1465;0.0545;
392232960480995;0.1113;-0.0304;0.0630;
392232970584693;0.1326;0.0261;0.0768;
392232980688339;0.0357;-0.0740;0.1003;
392232990804953;-0.0101;-0.0336;0.1013;
392233000908599;0.0101;0.0176;0.1076;
392233011012297;0.0368;0.0240;0.1278;
392233021089016;-0.0165;0.0325;0.1225;
392233031192714;-0.0570;0.0229;0.1035;
392233041296359;-0.0602;-0.0240;0.1035;
392233051414276;-0.0794;0.0304;0.1003;
392233061517922;-0.1145;0.1156;0.0587;
392233071621568;-0.1017;0.1326;0.0683;
392233081728651;-0.1486;-0.0101;0.0885;
392233091832349;-0.1731;-0.0900;0.0811;
392233101935995;-0.2125;-0.0240;0.0395;
392233112033443;-0.1912;-0.0293;0.0236;
392233122137089;-0.1539;-0.0549;0.0172;
392233132240682;-0.1262;0.0431;-0.0158;
392233142340109;-0.0889;0.0368;-0.0244;
392233152443755;-0.1166;0.0112;-0.0041;
392233162547401;-0.0719;0.0772;-0.0158;
392233172662141;-0.0772;0.1166;-0.0542;
392233182765839;-0.0708;0.0559;-0.0435;
392233192869484;-0.0879;0.0112;-0.0254;
392233202964901;-0.1103;0.0080;-0.0073;
392233213068547;-0.0868;0.0123;-0.0052;
392233223172193;-0.0389;-0.0186;-0.0521;
392233233278964;-0.0399;-0.0453;-0.0595;
392233243382609;-0.0613;-0.0037;-0.0744;
392233253486255;-0.0655;0.0272;-0.1320;
392233263586776;-0.0911;-0.0154;-0.1107;
392233273690370;-0.1230;-0.0229;-0.0574;
392233283794068;-0.0559;0.0517;-0.0766;
392233293899016;-0.0357;0.0538;-0.1234;
392233304002714;-0.1113;-0.0304;-0.1383;
392233314106359;-0.0602;0.0005;-0.1394;
392233324215057;0.0037;0.0953;-0.1021;
392233334318755;-0.0218;0.0591;-0.1213;
392233344422401;-0.0421;-0.0847;-0.1522;
392233354531724;-0.0123;-0.0740;-0.1330;
392233364635422;0.0538;0.0474;-0.1075;
392233374739068;0.0368;-0.0176;-0.0776;
392233384846828;0.0368;-0.0080;-0.0968;
392233394950474;0.1241;0.0623;-0.1043;
392233405054172;0.1795;0.1166;-0.0574;
392233415150318;0.0740;0.0325;-0.0403;
392233425254016;0.0676;-0.0783;-0.0318;
392233435357661;0.1731;-0.0144;-0.0276;
392233445454484;0.2189;0.0613;-0.0489;
392233455558130;0.1294;-0.0293;-0.0329;
392233465661724;0.0708;-0.1060;-0.0020;
392233475775682;0.2125;-0.0080;0.0342;
392233485879380;0.2008;0.0836;0.0236;
392233495983026;0.1071;-0.0186;-0.0084;
392233506078234;0.0570;-0.0602;-0.0169;
392233516181932;0.0921;0.0229;0.0001;
392233526285578;0.0346;0.0250;0.0300;
392233536391724;0.0027;-0.0368;0.0470;
392233546495422;-0.0208;-0.0772;0.0406;
392233556599068;-0.0005;-0.0304;0.0321;
392233566693339;-0.0123;0.0325;0.0087;
392233576796984;-0.0602;-0.0378;0.0097;
392233586900630;-0.0762;-0.0378;0.0406;
392233597017453;-0.0421;0.0495;0.0481;
392233607121151;-0.0368;-0.0027;0.0321;
392233617224797;-0.0005;-0.0708;0.0321;
392233627328807;-0.0389;-0.0474;0.0236;
392233637432505;-0.0368;0.0858;-0.0009;
392233647536151;0.0165;0.1017;0.0193;
392233657628651;-0.0144;-0.0165;0.0076;
392233667732297;-0.0282;-0.0154;-0.0148;
392233677835943;-0.0953;0.0943;-0.0276;
392233687943286;-0.1081;0.1209;-0.0531;
392233698046984;-0.0218;-0.0250;-0.0499;
392233708150630;-0.0378;-0.0858;-0.0382;
392233718248651;-0.0900;-0.0133;-0.0648;
392233728352297;-0.1113;0.0123;-0.1043;
392233738455943;-0.0794;-0.0847;-0.1011;
392233748559068;-0.1443;-0.0346;-0.0936;
392233758662714;-0.1017;0.1071;-0.0787;
392233768766411;0.0730;0.1582;-0.0755;
392233778884953;0.1209;0.0762;-0.0872;
392233788988651;0.0485;-0.0506;-0.0936;
392233799092297;0.0879;0.0463;-0.0819;
392233809167141;0.0943;0.0581;-0.0883;
392233819270786;0.0591;-0.1422;-0.1234;
392233829374380;0.0644;-0.1134;-0.1746;
392233839499536;0.1273;0.1582;-0.0947;
392233849603182;0.1593;0.0027;-0.0137;
392233859706724;0.0996;-0.1710;-0.0648;
392233869802036;0.1901;0.0389;-0.1266;
392233879905630;0.0687;0.1603;-0.1469;
392233890009276;0.0218;-0.0293;-0.1224;
392233900116620;0.1252;-0.1241;-0.1149;
392233910220214;0.1827;-0.0080;-0.1490;
392233920323807;0.1411;0.0474;-0.1309;
392233930430318;0.1369;-0.0005;-0.1096;
392233940533911;0.1912;0.0154;-0.0893;
392233950637505;0.2157;0.0485;-0.1075;
392233960740734;0.2658;0.0879;-0.0872;
392233970844328;0.2711;-0.0059;-0.0798;
392233980947922;0.2818;-0.3125;-0.0499;
392233991052557;0.2051;-0.2614;-0.0521;
392234001156203;0.0527;0.2551;-0.1192;
392234011259797;0.1348;0.2956;-0.1138;
392234021357870;0.2754;-0.0783;-0.0680;
392234031461516;0.2349;-0.0730;-0.0617;
392234041565109;0.3020;0.1635;-0.0595;
392234051684745;0.2498;0.1156;-0.0595;
392234061788391;0.1443;-0.1838;-0.0819;
392234071891984;0.1774;0.0826;-0.0702;
392234081998078;0.2200;0.3180;-0.0286;
392234092101724;0.2583;0.0165;0.0193;
392234102205318;0.3104;-0.0549;0.0012;
392234112304432;0.3871;0.0730;-0.0052;
392234122408078;0.3370;0.0293;0.0662;
392234132511672;0.2466;-0.0325;0.0875;
392234142609536;0.3391;0.0016;0.0747;
392234152713182;0.3828;0.0261;0.1108;
392234162816776;0.3274;0.0091;0.1353;
392234172929068;0.2892;-0.0197;0.1619;
392234183032714;0.2391;-0.0666;0.1960;
392234193136307;0.1688;-0.0176;0.1758;
392234203244849;0.1763;0.2349;0.1417;
392234213348495;0.1869;0.1763;0.1534;
392234223452089;0.0953;-0.2710;0.1779;
392234233540318;0.1497;-0.2040;0.1800;
392234243643964;0.1124;0.0357;0.1864;
392234253747557;-0.0591;-0.0336;0.1907;
392234263870786;-0.1007;-0.0101;0.1939;
392234273974432;-0.1092;0.0900;0.1651;
392234284078026;-0.1486;0.0027;0.1395;
392234294166203;-0.0868;-0.1539;0.1395;
392234304269849;-0.1209;-0.1529;0.1321;
392234314373443;-0.2583;-0.0069;0.1129;
392234324486724;-0.2935;0.1305;0.1353;
392234334590370;-0.1582;0.0346;0.1587;
392234344693964;-0.0836;-0.0453;0.1310;
392234354783391;-0.1220;-0.0346;0.0832;
392234364887036;-0.2114;-0.0112;0.1172;
392234374990630;-0.2764;0.0229;0.1065;
392234385097818;-0.2849;0.0027;0.0672;
392234395201464;-0.3009;-0.0144;0.0204;
392234405305057;-0.3562;0.1401;0.0097;
392234415409849;-0.3285;0.1049;0.0310;
392234425513495;-0.2754;-0.0293;0.0449;
392234435617089;-0.2690;0.0144;-0.0116;
392234445725474;-0.2935;0.0591;-0.0265;
392234455829120;-0.3020;0.0836;-0.0084;
392234465932714;-0.2541;-0.0059;0.0236;
392234476040057;-0.2253;-0.1188;0.0044;
392234486143703;-0.2562;-0.1071;-0.0627;
392234496247297;-0.2967;-0.0240;-0.0776;
392234506345057;-0.2594;0.0975;-0.0222;
392234516448703;-0.1880;0.0900;0.0119;
392234526552297;-0.0751;-0.0133;-0.0041;
392234536660057;-0.0410;-0.0804;-0.0190;
392234546763703;-0.0527;-0.0559;0.0065;
392234556867297;-0.0964;0.0613;0.0129;
392234566985370;-0.0591;0.0463;0.0342;
392234577089016;-0.0154;0.0048;0.0044;
392234587192609;-0.0123;0.0314;-0.0190;
392234597274849;-0.0314;0.0740;0.0001;
392234607378495;0.0218;0.0325;0.0268;
392234617482089;0.0698;-0.0474;0.0076;
392234627592141;0.0250;-0.0772;-0.0329;
392234637695786;-0.0080;-0.0272;-0.0446;
392234647799380;0.0069;0.0069;-0.0329;
392234657890214;0.0772;-0.0154;-0.0116;
392234667993807;0.0826;0.0101;-0.0372;
392234678097401;0.0687;0.0176;-0.0457;
392234688196151;0.0815;0.0304;-0.0265;
392234698299745;0.1124;-0.0101;-0.0372;
392234708403339;0.1145;-0.0506;-0.0574;
392234718521932;0.1188;0.0229;-0.0553;
392234728625526;0.1614;0.0272;-0.0137;
392234738729120;0.1976;-0.0378;-0.0031;
392234748887557;0.1763;-0.0133;-0.0244;
392234758991151;0.1379;0.0410;-0.0276;
392234769094797;0.1177;-0.0644;-0.0169;
392234779149901;0.0975;-0.1017;-0.0137;
392234789253443;0.0186;-0.0261;0.0161;
392234799357089;0.0399;-0.0016;0.0044;
392234809487557;0.0762;-0.0186;0.0044;
392234819591307;0.0293;-0.0517;-0.0009;
392234829695057;0.0101;-0.0261;0.0065;
392234839777922;-0.0123;0.0325;-0.0020;
392234849881620;-0.0368;0.0378;-0.0031;
392234859985370;-0.0165;-0.0112;0.0001;
392234870082922;-0.0069;0.0240;0.0150;
392234880186620;-0.0314;0.0719;0.0236;
392234890290370;-0.0336;0.0772;0.0044;
392234900382714;-0.0176;0.1060;0.0395;
392234910486464;-0.0623;-0.0080;0.0683;
392234920590161;-0.1422;-0.1624;0.0928;
392234930696620;-0.2072;-0.1614;0.0374;
392234940800370;-0.1933;-0.0197;0.0225;
392234950904068;-0.1326;0.0218;0.0459;
392234961001880;-0.1273;-0.0708;0.0417;
392234971105630;-0.1316;-0.1198;0.0406;
392234981209328;-0.0208;0.1188;0.0055;
392234991322401;0.0293;0.1784;0.0182;
392235001426151;-0.0762;-0.0399;0.0502;
392235011529849;-0.0676;0.0101;-0.0105;
392235021623703;-0.0218;0.0879;-0.0137;
392235031727401;-0.0399;0.0698;0.0406;
392235041831151;-0.0911;0.0218;0.0246;
392235051933703;-0.1113;-0.0027;0.0076;
392235062037401;-0.1220;-0.0123;0.0353;
392235072141151;-0.1252;-0.0676;0.0268;
392235082257609;-0.1241;-0.1539;-0.0340;
392235092361307;-0.0932;-0.1220;0.0150;
392235102465057;-0.0655;-0.0261;0.0364;
392235112555943;-0.0154;0.0261;0.0481;
392235122659641;0.0559;0.1465;0.0598;
392235132763391;0.1784;0.3446;0.0598;
392235142869068;0.1582;0.2754;0.0917;
392235152972818;-0.0495;0.0687;0.0885;
392235163076516;-0.0517;0.1081;0.0800;
392235173185630;-0.0378;0.1060;0.1076;
392235183289328;-0.1518;-0.0549;0.0875;
392235193393078;-0.2253;-0.1944;0.0395;
392235203499693;-0.1539;-0.2443;0.0438;
392235213603443;-0.1049;-0.2411;0.0374;
392235223706962;-0.0740;-0.2210;0.0236;
392235233804097;-0.0304;-0.1369;-0.0126;
392235243907795;-0.0069;-0.1060;-0.0041;
392235254011545;-0.0027;-0.0581;0.0523;
392235264113107;-0.0165;0.1561;0.0225;
392235274216805;-0.0144;0.1976;0.0012;
392235284320555;-0.0932;0.0804;0.0055;
392235294428680;-0.0037;0.1230;0.0587;
392235304532378;-0.0250;0.1358;0.0768;
392235314636128;-0.0655;0.0421;0.0033;
392235324745139;-0.0666;-0.0943;-0.0148;
392235334848837;-0.0250;-0.1188;0.0193;
392235344952587;-0.0112;-0.0826;-0.0137;
392235355050451;-0.0602;-0.2369;-0.0585;
392235365154149;-0.0676;-0.2593;-0.0137;
392235375257899;-0.0389;-0.0698;0.0087;
392235385363524;-0.0229;0.0346;-0.0372;
392235395467274;-0.0336;0.1007;-0.0499;
392235405570972;-0.0165;0.2445;-0.0361;
392235415677222;-0.0027;0.2913;-0.0340;
392235425780920;0.0080;0.2711;-0.0073;
392235435884670;-0.0336;0.0836;-0.0446;
392235445981597;-0.0293;-0.1795;-0.0403;
392235456085347;0.0293;-0.1028;-0.0084;
392235466189045;0.0698;0.0261;-0.0180;
392235476300764;0.0889;-0.0474;-0.0148;
392235486404462;0.1145;-0.1241;0.0087;
392235496508212;0.1166;-0.1358;0.0427;
392235506611076;0.1507;0.0059;0.0193;
392235516714826;0.1241;0.0921;-0.0137;
392235526818524;-0.0186;0.0368;-0.0201;
392235536925972;0.0154;0.1593;0.0214;
392235547029670;0.0037;0.1827;0.0001;
392235557133420;-0.0165;0.0527;0.0214;
392235567228368;-0.1071;-0.0048;-0.0265;
392235577332066;-0.0836;-0.0357;-0.0201;
392235587435816;-0.0687;-0.0772;0.0172;
392235597533941;-0.0623;0.0080;-0.0063;
392235607637639;-0.0399;-0.0272;-0.0201;
392235617741389;-0.0431;-0.0815;-0.0116;
392235627857014;0.0016;0.0325;0.0278;
392235637960712;0.0144;0.1252;0.0193;
392235648064462;0.0463;0.1635;0.0129;
392235658155139;0.0048;0.1337;0.0182;
392235668258837;-0.0357;-0.0655;0.0374;
392235678362587;-0.0069;-0.1241;0.0534;
392235688459357;0.0037;-0.0644;0.0395;
392235698563055;-0.0250;0.0698;0.0065;
392235708666753;-0.0847;0.0975;0.0246;
392235718819357;-0.1348;-0.0549;0.0832;
392235728923107;-0.1838;-0.0943;0.0055;
392235739026857;-0.1838;0.0005;-0.0478;
392235749090139;-0.1326;0.0804;-0.0478;
392235759193837;-0.2381;0.0091;0.0214;
392235769297587;-0.3051;-0.0879;0.0076;
392235779469618;-0.2146;-0.0549;-0.0190;
392235789573368;-0.2306;0.0282;-0.0297;
392235799677066;-0.3157;-0.0399;-0.0329;
392235809728837;-0.2562;0.0048;-0.0340;
392235819832535;-0.1230;0.1561;-0.0041;
392235829936232;-0.1667;0.0421;0.0033;
392235840030712;-0.1699;-0.0442;-0.0063;
392235850134410;-0.1784;-0.0112;0.0161;
392235860238107;-0.2210;0.0293;0.0129;
392235870329618;-0.2349;0.0389;-0.0553;
392235880433316;-0.2008;0.0282;-0.0723;
392235890537014;-0.2114;0.0229;0.0044;
392235900642847;-0.2519;0.0059;0.0001;
392235910746493;-0.2040;-0.0783;-0.0169;
392235920850191;-0.1635;-0.0858;-0.0542;
392235930945972;-0.1593;0.0154;-0.0691;
392235941049618;-0.1667;-0.0304;-0.0734;
392235951153316;-0.1188;-0.1624;-0.0734;
392235961274149;-0.0133;0.0112;-0.0787;
392235971377847;0.0719;0.2413;-0.0712;
392235981481545;0.0144;0.1443;-0.0542;
392235991581753;-0.0751;-0.0346;-0.0233;
392236001685451;0.0186;0.0229;-0.0648;
392236011789149;0.0602;-0.0730;-0.0617;
392236021915399;-0.0112;-0.1624;-0.0808;
392236032019097;-0.0474;-0.0804;-0.0776;
392236042122795;-0.0005;0.0783;-0.0510;
392236052203732;-0.0208;0.0655;-0.0808;
392236062307430;-0.0176;-0.0368;-0.0798;
392236072411128;0.0336;-0.0027;-0.0989;
392236082520555;-0.0368;0.0240;-0.1138;
392236092624253;-0.0485;-0.0378;-0.0968;
392236102727951;-0.0431;-0.0240;-0.1149;
392236112829774;-0.0325;0.0804;-0.1309;
392236122933472;0.0069;0.1188;-0.1490;
392236133037170;0.0943;0.0314;-0.0808;
392236143134722;0.1071;-0.0708;-0.0744;
392236153238368;-0.0037;-0.0229;-0.1511;
392236163342066;0.0261;0.0357;-0.1352;
392236173464149;0.0495;-0.0762;-0.1021;
392236183567847;0.1081;-0.1220;-0.0670;
392236193671545;0.1092;0.0123;-0.0798;
392236203766024;0.1369;0.1060;-0.0830;
392236213869722;0.1561;0.0911;-0.0830;
392236223973420;0.1838;0.0112;-0.0947;
392236234068628;0.2264;0.0442;-0.1085;
392236244172326;0.2285;-0.0197;-0.0350;
392236254276024;0.1656;-0.0932;-0.0116;
392236264384878;0.1241;-0.0176;-0.0180;
392236274488576;0.1081;0.0474;-0.0542;
392236284592274;0.1081;0.0538;-0.0425;
392236294691857;0.1763;0.0176;-0.0212;
392236304795555;0.1379;-0.0165;-0.0318;
392236314899253;0.0751;-0.1017;0.0055;
392236325010295;0.1220;-0.0549;0.0598;
392236335113993;0.1486;0.0964;0.0459;
392236345217691;0.2029;0.1379;0.0353;
392236355320295;0.1529;-0.0772;0.0353;
392236365423993;0.0804;-0.1369;0.1161;
392236375527691;0.1443;0.0879;0.1310;
392236385629566;0.2029;0.1571;0.1268;
392236395733264;0.1007;-0.0676;0.0960;
392236405836910;0.0527;-0.1049;0.0939;
392236415941649;0.0826;0.0314;0.1214;
392236426045347;0.0144;0.0048;0.1427;
392236436149045;-0.0421;-0.1369;0.1257;
392236446252274;-0.0410;-0.0868;0.0928;
392236456355972;-0.0506;0.0048;0.0885;
392236466459618;-0.1273;-0.0133;0.0949;
392236476570191;-0.1390;-0.0016;0.0747;
392236486673889;-0.1358;0.0655;0.0566;
392236496777587;-0.1944;0.0431;0.0310;
392236506868003;-0.1784;-0.0229;0.0704;
392236516971701;-0.1688;-0.0208;0.0726;
392236527075399;-0.2274;-0.0112;0.0129;
392236537187639;-0.2700;-0.0730;0.0012;
392236547291337;-0.2839;-0.0421;0.0364;
392236557395035;-0.2178;0.0602;0.0289;
392236567487118;-0.2232;-0.0346;-0.0020;
392236577590764;-0.2551;-0.1869;-0.0393;
392236587694462;-0.1838;-0.1220;-0.0329;
392236597797378;-0.1081;0.0549;0.0012;
392236607901076;-0.1901;0.0112;-0.0318;
392236618004774;-0.2210;-0.0698;-0.0957;
392236628107951;-0.0868;0.0591;-0.0606;
392236638211597;-0.0591;0.1081;-0.0595;
392236648315295;-0.0506;0.0272;-0.0521;
392236658416389;0.0069;0.0336;-0.0531;
392236668520035;0.0186;0.0708;-0.0627;
392236678623732;-0.0357;-0.0240;-0.0499;
392236688743107;-0.0133;-0.0836;-0.0180;
392236698846805;0.0570;-0.0186;-0.0201;
392236708950503;0.0836;0.0282;-0.0073;
392236719065191;0.0229;-0.0506;-0.0020;
392236729168889;0.0176;-0.1379;0.0076;
392236739272535;0.1039;-0.0623;-0.0190;
392236749366024;0.2253;0.0794;-0.0286;
392236759469722;0.1379;-0.0059;0.0257;
392236769573368;0.0346;-0.0357;0.0577;
392236779678420;0.0240;0.0059;0.0150;
392236789782118;0.0549;-0.0538;0.0491;
392236799885764;0.1433;0.0218;0.0619;
392236809980295;0.1742;0.1742;0.0278;
392236820083993;0.0932;0.1518;0.0108;
392236830187639;-0.1220;-0.0037;-0.0308;
392236840284201;-0.1156;-0.0666;0.0097;
392236850387847;-0.0730;-0.1230;0.0640;
392236860491493;-0.0634;-0.1220;-0.0116;
392236870619566;0.1273;0.0762;0.0513;
392236880723264;0.1007;0.1209;0.0662;
392236890826910;-0.0591;0.0133;0.0374;
392236900913368;-0.0282;-0.1060;0.0747;
392236911016962;0.0708;0.1166;0.0513;
392236921120660;0.1220;0.3478;0.0257;
392236931220555;-0.1806;0.1262;0.0225;
392236941324201;-0.4616;-0.1976;0.0342;
392236951427847;-0.4212;-0.1965;0.0278;
392236961532639;-0.2146;-0.0218;0.0108;
392236971636285;-0.0591;0.1529;-0.0712;
392236981739930;-0.1774;0.1305;-0.0648;
392236991839722;-0.4094;-0.0453;-0.0382;
392237001943368;-0.4329;-0.0005;-0.0265;
392237012047014;-0.4329;0.0346;-0.0862;
392237022176024;-0.4670;-0.0506;-0.1234;
392237032279722;-0.3477;-0.0485;-0.0574;
392237042383368;-0.2093;0.0655;-0.0318;
392237052475816;-0.2604;-0.0250;-0.1096;
392237062579514;-0.1518;-0.0889;-0.1128;
392237072683160;0.0176;0.0133;-0.1043;
392237082786857;0.0602;0.1017;-0.0862;
392237092890555;-0.0048;0.0751;-0.0105;
392237102994201;-0.0762;-0.0336;-0.0680;
