Sensor: bmi160 Accelerometer Non-wakeup
Vendor: BOSCH
TimestampAcc [ns]; AccX [m/s^2]; AccY [m/s^2]; AccZ [m/s^2]
3100549047841403;-9.4908;-0.9832;-2.1673;
3100549057939268;-9.5052;-0.9616;-2.1649;
3100549067979111;-9.4860;-0.9209;-2.0812;
3100549078135309;-9.4956;-0.8946;-2.0692;
3100549088175153;-9.5004;-0.8946;-2.0474;
3100549098358591;-9.5100;-0.9305;-2.0330;
3100549108398434;-9.5291;-0.9688;-2.0569;
3100549118564632;-9.5243;-1.0406;-2.0883;
3100549128683799;-9.5342;-1.0836;-2.0764;
3100549138784216;-9.5267;-1.1052;-2.0450;
3100549148877549;-9.5124;-1.1509;-2.0378;
3100549159003539;-9.5414;-1.1701;-1.9564;
3100549169119789;-9.5653;-1.1892;-1.9325;
3100549179197289;-9.5438;-1.2514;-1.9828;
3100549189325726;-9.5605;-1.2802;-2.0091;
3100549199433122;-9.5557;-1.3065;-2.0186;
3100549209535726;-9.5510;-1.3519;-2.0234;
3100549219652080;-9.5557;-1.3017;-1.9851;
3100549229760153;-9.5892;-1.2562;-1.9349;
3100549239869372;-9.5773;-1.2179;-1.9588;
3100549249978226;-9.5677;-1.1701;-1.9995;
3100549260087080;-9.5390;-1.1605;-2.0306;
3100549270200309;-9.5124;-1.1605;-2.0258;
3100549280298851;-9.5148;-1.1291;-2.0569;
3100549290404684;-9.5172;-1.1100;-2.0644;
3100549300513018;-9.5219;-1.1052;-2.0644;
3100549310615622;-9.5148;-1.0789;-2.1218;
3100549320720726;-9.5100;-1.1004;-2.0883;
3100549330824476;-9.5291;-1.1486;-2.0883;
3100549340926611;-9.5414;-1.2108;-2.1290;
3100549351047184;-9.5243;-1.2730;-2.1553;
3100549361152289;-9.5366;-1.3472;-2.1338;
3100549371260518;-9.5148;-1.3663;-2.1840;
3100549381367028;-9.5028;-1.3543;-2.1434;
3100549391478486;-9.5124;-1.3567;-2.1003;
3100549401588070;-9.5172;-1.3328;-2.0955;
3100549411697497;-9.5243;-1.3304;-2.0955;
3100549421789632;-9.5510;-1.3998;-2.1003;
3100549431916403;-9.5653;-1.5413;-2.1338;
3100549442021976;-9.5557;-1.7210;-2.1386;
3100549452137080;-9.5557;-1.9316;-2.0883;
3100549462237809;-9.6084;-2.1066;-2.0306;
3100549472359216;-9.6012;-2.2911;-1.9995;
3100549482448903;-9.6323;-2.4948;-1.9947;
3100549492559580;-9.6299;-2.6504;-2.0740;
3100549502673851;-9.5868;-2.7607;-2.1266;
3100549512775986;-9.5940;-2.8325;-2.0859;
3100549522872393;-9.5940;-2.9282;-2.0450;
3100549532986976;-9.5892;-2.9641;-2.0788;
3100549543094893;-9.5315;-2.9163;-2.1601;
3100549553194997;-9.5342;-2.8636;-2.1769;
3100549563301820;-9.5557;-2.8014;-2.1769;
3100549573408643;-9.5052;-2.6838;-2.1960;
3100549583537861;-9.4143;-2.5570;-2.2750;
3100549593648226;-9.3568;-2.4347;-2.4117;
3100549603731924;-9.3425;-2.3246;-2.3542;
3100549613833747;-9.3090;-2.2217;-2.2463;
3100549623946403;-9.2755;-1.9415;-2.2104;
3100549634119164;-9.1819;-1.3735;-2.3423;
3100549644167549;-9.1196;-0.8106;-2.6177;
3100549654318643;-9.1603;-0.5853;-2.6895;
3100549664381091;-9.2803;-0.8560;-2.0617;
3100549674506403;-9.4310;-0.6096;-1.9875;
3100549684608903;-9.2946;-0.4298;-2.1840;
3100549694720518;-9.0861;0.2865;-2.7326;
3100549704827236;-9.0072;0.9835;-3.3769;
3100549714917914;-9.0359;1.2879;-3.3410;
3100549725027080;-9.1484;1.5200;-2.8908;
3100549735159684;-9.1938;1.8317;-2.3901;
3100549745261039;-9.1579;2.1909;-2.1027;
3100549755358070;-9.1460;2.5071;-2.1458;
3100549765466247;-9.1173;2.6294;-2.3327;
3100549775576195;-9.1771;2.6821;-2.5887;
3100549785718486;-9.1986;2.9192;-2.9602;
3100549795813955;-9.0670;3.1851;-3.0799;
3100549805897914;-9.0574;3.1083;-2.5193;
3100549815999372;-9.2441;3.0245;-2.0330;
3100549826134632;-9.3185;2.8472;-1.7097;
3100549836223747;-9.2922;2.3707;-1.3265;
3100549846334997;-9.3808;2.4162;-1.5685;
3100549856444164;-9.3353;2.6438;-2.1003;
3100549866554059;-9.1364;2.5621;-2.1194;
3100549876651143;-9.2010;2.4688;-1.7815;
3100549886759893;-9.3760;2.5573;-1.6355;
3100549896873747;-9.3664;2.7491;-1.5613;
3100549906980101;-9.3090;2.7921;-1.3337;
3100549917089476;-9.4238;2.9791;-1.5374;
3100549927211820;-9.3688;3.8151;-2.6010;
3100549937315830;-9.0000;3.5803;-2.3686;
3100549947424268;-9.0670;3.4989;-2.2678;
3100549957520309;-9.2827;3.1780;-2.1721;
3100549967631768;-9.2874;3.0173;-2.0788;
3100549977743070;-9.2827;2.9049;-1.8679;
3100549987846559;-9.4095;2.9384;-1.9828;
3100549997951768;-9.4262;2.8352;-2.0812;
3100550008053799;-9.2465;2.6773;-2.1003;
3100550018170153;-9.0909;2.4832;-2.5481;
3100550028274893;-8.1924;3.0437;-6.0335;
3100550038379736;-8.5304;4.4115;-4.8359;
3100550048486976;-9.9485;1.0675;-0.4472;
3100550058606976;-11.1823;-1.4384;0.9182;
3100550068723799;-10.2191;0.8375;-0.6126;
3100550078810309;-8.1015;2.5645;-2.6297;
3100550088920830;-8.1685;1.7429;-3.7292;
3100550099024476;-9.6060;1.3310;-4.3902;
3100550109132184;-9.6443;0.8734;-3.3601;
3100550119239684;-9.1795;1.3860;-2.9195;
3100550129351976;-9.2034;1.5897;-2.9291;
3100550139461559;-9.3090;1.3956;-2.4356;
3100550149559997;-9.0503;1.0388;-1.8823;
3100550159673851;-9.2707;1.3860;-2.2941;
3100550169782809;-9.6754;1.5754;-2.5217;
3100550179901195;-9.6227;1.8915;-2.4380;
3100550189995726;-9.2779;2.1168;-2.3853;
3100550200090205;-9.2513;2.2340;-2.7302;
3100550210219945;-9.1531;2.0904;-2.8837;
3100550220314476;-8.9973;1.7788;-2.8307;
3100550230408955;-9.2632;1.4411;-3.0200;
3100550240545361;-9.4741;1.4506;-3.0224;
3100550250639893;-9.3497;1.5272;-2.7254;
3100550260734372;-9.3233;1.5993;-2.5959;
3100550270873486;-9.3879;1.8078;-2.4787;
3100550280968018;-9.0574;1.9035;-2.4141;
3100550291062497;-8.8729;2.1072;-2.5816;
3100550301189320;-9.2707;2.2268;-3.0942;
3100550311283851;-9.8934;1.8197;-3.1496;
3100550321378330;-9.7208;1.0842;-2.8044;
3100550331511403;-9.1340;1.1345;-2.5457;
3100550341605934;-8.6381;1.2613;-2.6991;
3100550351700414;-8.7341;1.3406;-2.9387;
3100550361833799;-8.5352;1.1512;-2.6154;
3100550371928330;-8.3148;1.1154;-2.4787;
3100550382022809;-9.0191;1.3908;-3.8728;
3100550392167341;-9.8073;1.7189;-5.1879;
3100550402261872;-10.3726;1.5586;-6.3042;
3100550412356351;-9.9126;0.8614;-6.2946;
3100550422478591;-9.0048;-0.0464;-4.4743;
3100550432573122;-8.1757;-0.7531;-2.4691;
3100550442667601;-7.3828;-0.7675;-1.0750;
3100550452800361;-7.4405;-0.0849;-0.3921;
3100550462894893;-8.3076;0.8303;-1.1611;
3100550472989372;-10.8251;0.5094;-2.6584;
3100550483123486;-12.2746;-0.6431;-3.4035;
3100550493218018;-10.2742;-1.1868;-2.4236;
3100550503312497;-8.4153;-1.5389;-1.0175;
3100550513448174;-8.7317;-1.8383;-0.8402;
3100550523542705;-9.7376;-1.4719;-1.6929;
3100550533672966;-11.2708;-1.2419;-3.0440;
3100550543767497;-11.8122;-1.0741;-2.9913;
3100550553861976;-10.7222;-0.1137;-1.5084;
3100550564002445;-8.8825;0.8686;-0.6126;
3100550574096976;-8.0178;1.4841;-1.0917;
3100550584191455;-8.8777;2.4114;-2.5986;
3100550594306768;-9.8432;3.2019;-3.5853;
3100550604401299;-9.3066;3.2330;-3.1376;
3100550614495778;-8.5950;3.0508;-3.0583;
3100550624643226;-8.9231;3.3096;-3.2596;
3100550634737757;-9.5366;3.5874;-2.5911;
3100550644832236;-10.3511;3.6329;-2.0067;
3100550654964789;-10.2431;3.7552;-2.3973;
3100550665059320;-9.0550;3.4582;-2.2104;
3100550675153799;-8.3722;3.4750;-1.6068;
3100550685301143;-8.3387;3.9996;-2.2152;
3100550695395622;-8.8944;3.9805;-3.0248;
3100550705490153;-9.2465;4.1480;-2.8020;
3100550715600882;-9.1962;3.8055;-2.1936;
3100550725695414;-8.8968;2.9791;-1.9804;
3100550735789893;-9.3688;3.3766;-2.3204;
3100550745933070;-9.6706;3.4152;-2.4045;
3100550756027601;-8.7509;3.1636;-2.0378;
3100550766122080;-8.4129;3.1636;-2.3495;
3100550776273747;-8.8609;3.2402;-2.4069;
3100550786368278;-8.9614;3.4223;-2.3327;
3100550796462757;-9.8910;4.2488;-3.2668;
3100550806569424;-9.1436;4.3588;-2.6106;
3100550816663955;-7.4572;4.1886;-1.2185;
3100550826758434;-8.0513;4.5553;-1.7623;
3100550836911039;-9.5004;4.5793;-2.8187;
3100550847005570;-9.7041;4.4883;-2.8235;
3100550857100049;-9.1627;4.2176;-2.6369;
3100550867244059;-9.0144;4.0546;-4.0095;
3100550877338591;-9.7759;3.6066;-4.4213;
3100550887433070;-9.5100;3.0269;-2.2798;
3100550897550674;-8.0273;2.8161;-0.5432;
3100550907645205;-8.3004;3.1899;-2.0692;
3100550917739684;-10.9929;3.4175;-4.5748;
3100550927859059;-11.0886;3.1732;-3.4394;
3100550937953591;-8.4248;3.0078;-0.9861;
3100550948048070;-7.4812;3.3168;-1.3720;
3100550958203591;-8.3674;3.0963;-1.8368;
3100550968298122;-7.9627;2.7610;-0.7226;
3100550978392601;-8.1326;2.7538;-1.5494;
3100550988516559;-10.4635;2.8519;-3.4561;
3100550998611091;-11.3498;2.8543;-2.7230;
3100551008705570;-9.5052;3.1083;-1.3839;
3100551018843382;-9.2560;2.9599;-2.0788;
3100551028937914;-9.4190;2.3249;-2.3830;
3100551039032393;-7.6463;1.8532;-1.3528;
3100551049170882;-7.4501;2.0761;-2.0498;
3100551059265414;-9.2201;2.8376;-4.3663;
3100551069359893;-9.9652;2.8857;-4.4839;
3100551079485882;-8.9231;2.7179;-3.2022;
3100551089580414;-8.5807;2.6004;-2.8860;
3100551099674893;-7.7040;2.7634;-3.4848;
3100551109814007;-8.1063;2.8929;-4.7880;
3100551119908539;-8.9518;2.4927;-6.3739;
3100551130003018;-10.0875;1.9753;-6.7857;
3100551140162184;-8.7461;1.3167;-4.3208;
3100551150256664;-7.4907;1.6137;-3.1253;
3100551160351143;-8.8250;2.5190;-6.0191;
3100551170458278;-8.2525;2.0518;-6.7499;
3100551180552809;-8.0082;1.6519;-5.4347;
3100551190647289;-9.1125;1.8485;-5.6743;
3100551200784007;-8.1135;2.4999;-5.7820;
3100551210878539;-9.6634;3.7217;-7.4085;
3100551220973018;-9.5510;3.9084;-7.6816;
3100551231113591;-7.9986;4.0283;-6.1510;
3100551241208122;-8.8801;3.8701;-5.2525;
3100551251302601;-8.9518;3.2856;-4.2467;
3100551261442445;-7.3158;3.4415;-3.0224;
3100551271536976;-6.6356;3.7959;-2.2750;
3100551281631455;-8.1039;3.7935;-3.1759;
3100551291777966;-9.4478;3.7457;-5.3725;
3100551301872497;-11.0575;3.9972;-6.1128;
3100551311966976;-8.3818;3.8270;-4.5676;
3100551322077132;-5.3898;2.9862;-3.6452;
3100551332171664;-7.5817;3.2330;-5.5376;
3100551342266143;-10.0202;3.1828;-5.5352;
3100551352398278;-8.9734;2.2866;-2.3638;
3100551362492809;-5.8857;2.1646;-2.3204;
3100551372587289;-8.7194;2.8400;-4.8215;
3100551382727757;-8.5424;1.1800;-2.8546;
3100551392822289;-6.2976;1.6208;-2.1625;
3100551402916768;-10.6337;2.9934;-6.1439;
3100551413049424;-10.7390;1.9394;-2.6536;
3100551423143955;-6.2521;2.1814;0.4893;
3100551433238434;-8.5424;3.3263;-5.1449;
3100551443372549;-11.4817;1.6735;-3.6380;
3100551453467080;-9.6084;2.0856;-2.2271;
3100551463561559;-7.2296;3.1516;-3.5231;
3100551473705778;-9.5557;2.1670;-4.7641;
3100551483800257;-13.9896;2.0734;-3.6694;
3100551493894736;-8.9423;2.0638;0.1181;
3100551504027236;-7.9217;-0.0368;-1.5948;
3100551514121768;-10.9642;-1.9606;-4.3854;
3100551524216247;-8.3818;-1.3902;-2.2247;
3100551534324320;-10.2191;-1.6995;-3.2788;
3100551544429268;-12.2411;-2.6910;-2.3710;
3100551554534216;-9.9676;-1.6971;-0.3921;
3100551564686559;-9.7065;-2.3079;-3.2836;
3100551574791507;-12.2148;-2.2816;-3.0200;
3100551584896455;-6.7002;-1.6561;0.7504;
3100551595015414;-6.8175;-1.4022;-3.6885;
3100551605120361;-9.3233;-1.6226;-4.9795;
3100551615225309;-8.5041;-1.8646;-1.6379;
3100551625323851;-11.4649;-1.9439;-2.9100;
3100551635428851;-11.6468;-2.0420;-2.5887;
3100551645533747;-10.9331;-2.0635;-1.1970;
3100551655665518;-10.9546;-1.1964;-1.5565;
3100551665770466;-4.9875;-1.2203;-1.3050;
3100551675875414;-8.3865;-0.9401;-2.8693;
3100551685966924;-10.4683;-1.5915;-3.3194;
3100551696071924;-8.9160;-1.5485;-1.5278;
3100551706176820;-12.7681;-1.2108;-1.4246;
3100551716283955;-11.8217;-0.9808;-1.4055;
3100551726388955;-9.5653;-1.2323;-1.4174;
3100551736493851;-9.2513;-0.0559;-2.1505;
3100551746613747;-8.5902;0.7008;-2.1242;
3100551756718695;-9.4956;0.8566;-2.1147;
3100551766823643;-9.4167;0.1762;-0.5934;
3100551776939893;-7.9436;0.1427;-1.1994;
3100551787044841;-9.0263;1.1704;-3.4059;
3100551797149789;-8.8896;1.0579;-2.5481;
3100551807235101;-9.3927;0.3368;-2.5528;
3100551817340049;-10.2503;0.6290;-3.4394;
3100551827444997;-10.6624;0.5189;-2.3566;
3100551837580414;-8.0010;-0.6191;-2.0740;
3100551847685361;-8.0345;-0.1496;-3.6212;
3100551857790309;-10.6744;0.7394;-5.1162;
3100551867889268;-5.6581;-1.3065;-4.4261;
3100551877994216;-5.7972;-1.6466;-4.8694;
3100551888099164;-9.3042;-0.9855;-6.9296;
3100551898237705;-12.1307;-0.7292;-6.9583;
3100551908342653;-9.6826;-1.3352;-5.5328;
3100551918447601;-7.7231;-1.0765;-7.0684;
3100551928576716;-7.8643;-1.0190;-8.8005;
3100551938681611;-8.2406;-0.7938;-6.2587;
3100551948786559;-7.1267;-0.9185;-6.6446;
3100551958882341;-11.2493;-0.1902;-7.8015;
3100551968987289;-7.4094;0.9882;-6.3667;
3100551979092236;-7.2512;0.8423;-7.9669;
3100551989201976;-12.2961;1.3119;-9.9048;
3100551999306924;-10.6337;2.2077;-5.5499;
3100552009411872;-7.7853;0.9308;-4.3256;
3100552019529268;-8.1230;2.8041;-6.9081;
3100552029634216;-8.8825;2.2125;-6.3305;
3100552039739164;-5.9575;1.7907;-3.1711;
3100552049862914;-9.3353;1.9202;-6.7187;
3100552059967861;-13.8748;2.0423;-3.3362;
3100552070072809;-8.3076;1.6854;3.4669;
3100552080171768;-5.4879;0.5022;0.1588;
3100552090276716;-9.0885;0.5477;-6.2539;
3100552100381664;-10.6098;-1.3687;-3.8800;
3100552110491559;-9.3664;0.3057;0.8509;
3100552120596507;-8.0584;-1.0406;2.1398;
3100552130701455;-8.1350;-0.2668;-2.5170;
3100552140819997;-10.5138;-1.1462;-6.3018;
3100552150924945;-11.3952;-1.2203;-3.9449;
3100552161029893;-10.0514;-1.3543;-0.9837;
3100552171129372;-9.7065;-2.1018;1.9531;
3100552181234320;-4.6974;0.1283;4.6167;
3100552191339268;-2.6351;0.3129;1.5194;
3100552201461039;-11.0623;2.0423;-6.6757;
3100552211565986;-18.6515;0.3966;-7.7800;
3100552221670934;-14.9791;-2.2122;-0.0832;
3100552231796091;-7.2942;-3.0314;1.9555;
3100552241901039;-5.1550;-1.7617;-2.1769;
3100552252005986;-9.3090;0.2937;-4.0119;
3100552262123539;-11.2445;1.5873;-4.3663;
3100552272228486;-11.8720;1.9729;-3.0870;
3100552282333434;-8.3698;0.2530;-2.4882;
3100552292432289;-7.2799;-0.0655;-1.2138;
3100552302537236;-7.4405;-1.6585;-2.0258;
3100552312642184;-12.5907;-1.5054;-4.6848;
3100552322758851;-13.6400;-1.0573;-2.5696;
3100552332863799;-8.7748;-1.8120;0.2163;
3100552342968747;-7.2512;-1.0143;-1.6283;
3100552353075257;-8.9351;-0.8898;-1.7575;
3100552363180257;-9.0048;-0.4178;-3.4035;
3100552373285153;-12.1642;-0.2189;-2.9195;
3100552383405986;-9.9748;-0.4418;-1.3265;
3100552393510934;-8.6812;-1.0334;-2.0091;
3100552403615882;-9.7902;-0.2740;-2.1075;
3100552413719945;-10.1904;-0.4944;-0.7971;
3100552423824893;-9.9437;-1.8503;-0.9694;
3100552433929841;-10.5903;-1.5987;-2.1075;
3100552444098747;-8.2382;-2.2816;-1.1276;
3100552454203747;-8.0417;-2.3366;-1.3528;
3100552464308643;-9.5291;-1.7210;-1.7985;
3100552474357236;-11.0480;-1.9439;-3.2213;
3100552484462184;-10.9020;-2.1090;-2.2415;
3100552494567132;-7.4572;-2.7655;-0.6197;
3100552504710153;-9.6682;-2.1975;-2.2630;
3100552514815101;-11.1102;-1.5628;-1.4821;
3100552524920049;-9.1747;-1.4336;-0.9598;
3100552535031664;-10.4252;-0.6215;-1.9899;
3100552545139164;-9.2898;-0.0607;-0.8809;
3100552555246716;-8.2789;-1.1581;-1.2449;
3100552565358434;-9.9556;-0.0200;-2.0617;
3100552575465934;-10.3893;0.1929;-2.8499;
3100552585573486;-9.2106;-0.0778;-2.1936;
3100552595694789;-8.4559;0.0422;-1.8440;
3100552605802289;-10.1856;0.2937;-3.0966;
3100552615909841;-8.9853;0.9404;-3.1831;
3100552626009059;-8.6118;0.6458;-3.7579;
3100552636116559;-9.1388;0.5022;-3.9063;
3100552646224111;-10.6146;0.2100;-3.4035;
3100552656315518;-9.0718;0.4588;-2.0091;
3100552666423018;-8.4392;0.3918;-1.2185;
3100552676530570;-10.1617;1.9657;-3.2931;
3100552686647184;-10.4468;2.9169;-4.0430;
3100552696754684;-8.1685;3.5372;-3.4322;
3100552706862236;-8.3842;2.8113;-5.5137;
3100552716976559;-9.7711;2.5980;-5.0898;
3100552727084059;-7.6609;1.1489;-3.1783;
3100552737191611;-8.7075;1.3980;-4.0478;
3100552747308434;-10.6935;2.5980;-4.6418;
3100552757415934;-7.7782;1.8676;-2.4523;
3100552767523486;-8.0847;1.2760;-3.0870;
3100552777617393;-9.4119;1.1752;-4.3831;
3100552787724893;-9.6299;-0.0897;-2.6919;
3100552797832393;-9.7591;-0.8898;-2.5648;
3100552807957184;-10.0923;-1.1988;-2.6560;
3100552818064684;-9.0574;-1.7163;-0.8091;
3100552828172236;-10.1689;-1.7474;-1.2281;
3100552838259789;-8.7051;-1.9196;-1.2643;
3100552848367289;-9.1244;-1.4169;-1.0534;
3100552858474841;-6.8895;-1.3567;-1.5852;
3100552868590830;-9.3329;-0.6455;-3.9087;
3100552878698330;-13.5200;-1.2227;-5.2887;
3100552888805882;-11.6420;0.2171;-3.4322;
3100552898911403;-6.2569;0.2219;-0.7226;
3100552909018955;-6.7050;-0.2453;-2.1721;
3100552919126507;-11.9752;1.1728;-4.8120;
3100552929239268;-11.4577;1.4004;-2.9387;
3100552939346768;-9.4525;0.7633;-3.5542;
3100552949454320;-9.3329;0.6912;-3.9182;
3100552959546872;-8.9518;1.8915;-3.1086;
3100552969654372;-7.8284;1.4889;-3.3410;
3100552979761924;-9.4860;1.4626;-5.2382;
3100552989878434;-10.0490;1.2326;-5.1114;
3100552999985882;-8.3483;0.6673;-5.3366;
3100553010093486;-8.9638;1.2661;-4.3376;
3100553020212289;-6.6835;1.6137;-4.0023;
3100553030319789;-8.3865;-0.3485;-6.3452;
3100553040427341;-11.1655;0.5022;-6.9057;
3100553050532080;-9.5605;1.3214;-2.3686;
3100553060639580;-9.0646;0.3272;-1.5996;
3100553070747080;-8.8490;-0.7364;-2.2750;
3100553080853747;-9.2584;-0.2835;-2.5911;
3100553090961247;-10.4563;-0.1926;-1.8057;
3100553101068747;-8.3076;-0.6622;-0.7202;
3100553111183122;-9.2803;-1.3759;-1.4677;
3100553121290622;-11.2899;-0.8898;-2.3327;
3100553131398174;-9.1579;-1.3735;-2.4069;
3100553141469789;-9.7926;-2.2935;-4.2730;
3100553151577289;-9.9820;-1.0047;-2.5026;
3100553161684841;-9.0215;-1.5843;0.0293;
3100553171817757;-8.4634;-3.2180;-2.3877;
3100553181925205;-10.3173;-3.2061;-4.5796;
3100553192032757;-10.2670;-1.9989;-1.4940;
3100553202140205;-9.3616;-2.8540;-0.9287;
3100553212266976;-10.1617;-2.0803;-2.7757;
3100553222374476;-9.5100;-1.6561;-2.5959;
3100553232482028;-9.4023;-1.0334;-2.5720;
3100553242574372;-9.6634;-1.6418;-1.7838;
3100553252681872;-7.2942;0.2913;-2.5122;
3100553262789424;-10.9427;0.5166;-3.1567;
3100553272905726;-11.3091;1.5682;-3.0224;
3100553283013226;-10.2263;0.6147;-1.9516;
3100553293120778;-6.3096;1.1345;-1.5060;
3100553303215726;-7.8117;1.4937;-3.3194;
3100553313323226;-8.4344;2.3635;-4.1459;
3100553323430778;-10.7175;2.1096;-4.2993;
3100553333573382;-9.1364;1.8317;-4.7207;
3100553343680882;-7.5601;1.7070;-3.1950;
3100553353788486;-9.8121;0.8901;-1.8344;
3100553363879111;-10.2861;0.7968;-2.1529;
3100553373986664;-9.1101;0.8471;-3.4825;
3100553384094164;-9.4119;0.6170;-2.8522;
3100553394229789;-7.9412;0.6864;-1.3002;
3100553404337289;-11.2588;0.9500;-2.6752;
3100553414444789;-8.9925;0.2459;-3.6404;
3100553424531768;-11.1894;0.1690;-2.4691;
3100553434639268;-9.8719;0.1738;-2.2415;
3100553444746820;-8.5424;-0.5590;-3.0846;
3100553454841247;-9.8192;-0.2955;-3.7914;
3100553464948747;-11.0073;0.0900;-2.3495;
3100553475056299;-8.3578;-0.3413;-2.2343;
3100553485161872;-8.0584;-0.7723;-3.0392;
3100553495269372;-8.5448;0.0637;-3.0153;
3100553505376924;-10.3846;1.0364;-3.0870;
3100553515480674;-9.3257;0.0206;-4.2084;
3100553525588174;-9.0431;0.4660;-3.7412;
3100553535695726;-8.8059;0.3535;-2.9530;
3100553545810361;-9.7041;0.3176;-3.6909;
3100553555918122;-9.1723;0.5596;-2.1673;
3100553566025830;-7.2655;0.6362;-3.2788;
3100553576149424;-10.3415;0.4038;-5.2887;
3100553586257184;-11.2636;0.4902;-3.5207;
3100553596364893;-8.9566;0.2554;-4.7737;
3100553606454424;-7.0499;0.0876;-3.5064;
3100553616562184;-9.7543;0.2865;-3.0129;
3100553626669893;-10.4635;-0.6502;-4.2467;
3100553636777757;-7.2081;-0.9401;-4.7976;
3100553646885518;-6.8175;-0.8731;-4.1028;
3100553656993226;-12.5572;0.2650;-4.7665;
3100553667095153;-12.1140;-0.9712;-4.0549;
3100553677202914;-5.4592;0.1164;-4.6202;
3100553687310622;-8.1470;-0.4657;-3.6933;
3100553697423799;-10.4133;-0.4346;-2.9650;
3100553707531559;-9.1986;-0.0583;-4.4333;
3100553717639268;-9.7041;-0.3891;-5.6312;
3100553727762289;-8.0513;0.2001;-3.2524;
3100553737870049;-8.9471;-0.6646;-4.2275;
3100553747977757;-9.0335;0.1690;-4.5939;
3100553758080361;-9.4669;-0.4035;-3.5806;
3100553768188122;-11.8840;0.4325;-4.1746;
3100553778295830;-7.4716;-0.2572;-2.4069;
3100553788402028;-6.8318;-0.0368;-2.9841;
3100553798509789;-11.3641;0.6984;-2.8789;
3100553808617497;-11.2182;-0.3604;-1.9780;
3100553818716455;-8.4559;0.5835;-2.7182;
3100553828824216;-10.5712;0.7657;-3.8154;
3100553838931924;-9.3736;-0.0631;-3.3434;
3100553849051403;-4.0005;0.4397;-3.2836;
3100553859159164;-11.7930;0.9332;-4.6370;
3100553869266872;-12.6888;0.3631;-3.6814;
3100553879373486;-8.6716;0.2530;-2.3109;
3100553889481247;-7.1169;1.2589;-2.2367;
3100553899588955;-7.9555;0.9141;-3.0583;
3100553909699320;-10.6696;0.8399;-3.0511;
3100553919807080;-10.7868;0.8447;-1.3481;
3100553929914789;-7.9771;0.7872;-2.8956;
3100553940019736;-7.3301;0.9141;-4.5485;
3100553950127497;-10.4635;0.6362;-3.4466;
3100553960235205;-10.5209;0.3176;-1.8631;
3100553970346924;-10.0083;0.2530;-4.6490;
3100553980454684;-7.7997;-0.8465;-3.1038;
3100553990562393;-7.7231;0.0063;-1.3457;
3100554000676820;-11.1679;-0.2357;-5.4538;
3100554010784580;-8.9614;-0.3532;-4.3448;
3100554020892289;-10.0609;0.0565;-2.1075;
3100554030997809;-9.8910;-0.0057;-3.7603;
3100554041105570;-6.5420;-0.1567;-2.5313;
3100554051213278;-7.0857;0.5572;-3.5447;
3100554061318903;-10.9092;0.0637;-6.0526;
3100554071426664;-9.2608;0.6147;-4.4189;
3100554081534372;-7.4453;0.3511;-5.3509;
3100554091629632;-9.2827;0.6123;-5.4706;
3100554101737393;-11.1583;0.6529;-1.1755;
3100554111845101;-6.0102;-0.5160;-2.7206;
3100554121956872;-11.8528;0.2770;-5.4658;
3100554132064632;-11.9222;0.7561;-3.5088;
3100554142172341;-6.4080;0.0613;-2.0907;
3100554152296455;-6.6667;0.8901;-2.6465;
3100554162404216;-8.3124;-0.0897;-4.3663;
3100554172511924;-14.2843;-0.2548;-4.8000;
3100554182630674;-8.2884;-0.0464;-1.9516;
3100554192738434;-6.4798;0.2435;-4.1961;
3100554202846143;-11.5247;0.2148;-3.8297;
3100554212922341;-7.1145;-1.0430;-2.5361;
3100554223030101;-4.7886;-0.5901;-6.0912;
3100554233137809;-11.3354;-1.0023;-5.2430;
3100554243252966;-13.7596;-0.8850;0.3721;
3100554253360726;-6.6476;-1.0214;-3.2859;
3100554263468434;-2.5032;-1.3639;-5.6934;
3100554273585570;-6.0631;-1.6035;-3.5088;
3100554283693330;-0.7235;-2.0492;-5.2238;
3100554293801039;-32.2026;-0.6622;-3.8106;
3100554303881976;-40.0672;0.3655;6.0230;
3100554313989684;2.2086;0.1546;11.0342;
3100554324097445;21.0135;-2.6384;-1.0032;
3100554334258695;-10.6624;-0.4083;-14.3339;
3100554344366455;-25.2365;0.8949;-9.5357;
3100554354474164;-14.6366;0.9069;2.0608;
3100554364564007;1.2099;0.1427;-1.3050;
3100554374671768;-3.3176;0.8207;-7.7417;
3100554384779476;-11.1583;1.2278;-6.5821;
3100554394862757;-12.6601;-0.5183;-4.2969;
3100554404970518;-10.5497;-0.2213;-6.7307;
3100554415078226;-5.2774;1.5491;-3.0559;
3100554425245153;-6.4439;-0.0320;-3.8847;
3100554435352914;-13.4770;-0.9592;-6.6661;
3100554445460622;-13.2685;-0.3194;-3.3912;
3100554455540674;-6.8127;1.3932;2.0824;
3100554465648434;-3.9933;0.9715;-2.4691;
3100554475756143;-9.2034;-0.2189;-6.3858;
3100554485864841;-16.3995;-0.1137;-4.6011;
3100554495972601;-12.6841;1.2613;0.5803;
3100554506080309;-1.6959;2.3563;7.9490;
3100554516158278;-3.0517;-0.4801;-7.0301;
3100554526266039;-24.1370;-4.2194;-33.4023;
3100554536373747;-15.0532;-3.2396;-8.1870;
3100554546497236;7.8428;-0.4753;22.7626;
3100554556605153;-8.1613;-1.6322;-2.6130;
3100554566713070;-17.9519;-3.4409;-16.9140;
3100554576808695;-9.4908;-1.5245;-0.7756;
3100554586916611;-7.6391;0.1570;5.1437;
3100554597024528;-6.9350;0.2698;-2.8741;
3100554607132966;-9.4884;-0.5088;-5.7843;
3100554617240882;-11.3139;0.4086;-2.4308;
3100554627348799;-5.4975;0.9165;-3.0727;
3100554637463799;-10.3582;-0.2596;-6.4098;
3100554647571716;-12.0876;-0.7579;-1.5302;
3100554657679632;-4.0268;-0.2907;-1.9469;
3100554667789945;-9.0048;-1.7115;-10.0125;
3100554677897861;-11.3737;-0.3580;-2.5839;
3100554688005778;-5.3133;0.6482;2.3483;
3100554698110778;-12.5213;-1.1486;-8.5107;
3100554708218695;-14.8881;-0.9616;-4.0956;
3100554718326611;-0.8001;0.3248;2.2669;
3100554728440570;-8.8777;-1.5963;-8.9728;
3100554738548486;-17.4918;-0.3508;-5.5857;
3100554748656403;-7.2200;1.3095;4.2885;
3100554758757861;-7.0140;0.2100;-1.9421;
3100554768865778;-9.9963;0.8112;-3.9039;
3100554778973695;-9.4597;2.2101;0.2139;
3100554789076039;-8.1326;1.5658;-4.0238;
3100554799183955;-9.2321;1.0938;-5.9450;
3100554809291872;-10.8682;1.9872;-3.0870;
3100554819405570;-6.5420;2.0566;-2.8187;
3100554829513486;-9.6849;1.6878;-3.5566;
3100554839621403;-13.7285;1.3190;-3.2740;
3100554849725153;-10.2263;1.1249;-3.8895;
3100554859833070;-6.9805;0.1355;-4.1602;
3100554869940986;-8.4009;1.4698;-2.1003;
3100554880056611;-8.4296;0.6386;0.0197;
3100554890164528;-4.7862;-0.0320;-3.6045;
3100554900272445;-5.5552;0.5453;-9.0664;
3100554910377445;-12.5429;1.2446;-8.1416;
3100554920485361;-14.5765;0.1427;-0.4376;
3100554930593278;-7.1865;-1.7474;-0.2916;
3100554940697028;-6.9206;-0.8707;-6.0215;
3100554950804945;-11.9536;-0.2931;-2.7613;
3100554960912861;-10.8586;-1.6780;-1.8655;
3100554971019424;-9.4406;-1.3137;-0.4137;
3100554981127341;-4.5897;-1.1701;-2.9076;
3100554991235257;-10.9546;-0.8273;-7.7345;
3100555001351924;-13.1489;-1.4408;-5.0300;
3100555011459841;-9.0191;-2.2481;-0.0425;
3100555021567757;-9.3425;-2.3318;-2.5696;
3100555031666299;-7.0499;-0.9449;-5.2959;
3100555041774216;-12.4684;-1.3400;-6.5270;
3100555051882132;-11.3952;-1.8215;-2.8116;
3100555062006039;-6.1421;-2.4227;-1.7743;
3100555072113955;-3.1310;-1.9965;-4.8742;
3100555082221872;-4.8269;-0.8058;-6.5390;
3100555092315778;-15.6784;-0.5016;-3.5016;
3100555102423695;-11.4841;-1.6083;0.2139;
3100555112531611;-5.7996;-1.0310;-4.5102;
3100555122638903;-9.9604;0.0470;-7.8517;
3100555132746820;-9.2946;-1.2299;-1.6259;
3100555142854736;-7.8571;-1.8311;-1.2233;
3100555152954632;-12.1666;-1.7521;-7.1548;
3100555163062549;-9.8527;-1.3041;-4.3472;
3100555173170466;-8.1206;-1.4097;-0.1621;
3100555183276820;-9.3879;-1.6346;-2.3997;
3100555193384736;-10.5903;-0.9185;-5.2911;
3100555203492653;-10.7868;0.2818;-5.3581;
3100555213622236;-10.8084;0.0613;-2.5816;
3100555223730153;-6.6117;-0.5207;-0.9960;
3100555233838070;-10.6170;-0.0272;-3.5016;
3100555243915570;-10.1952;-0.4298;-4.1076;
3100555254023486;-9.3018;-0.3123;-2.3375;
3100555264131403;-9.0622;0.5309;1.1216;
3100555274255466;-4.7384;1.4506;-1.7336;
3100555284363382;-9.9078;1.6567;-9.2842;
3100555294471299;-9.4190;0.9739;-6.1295;
3100555304564736;-3.7155;0.1116;-1.5924;
3100555314672653;-11.1150;-0.4968;-4.6394;
3100555324780570;-16.0714;-0.5375;-2.3758;
3100555334890466;-7.4118;-2.2313;-0.2725;
3100555344998382;-6.2904;-1.1486;-4.8072;
3100555355106299;-11.3282;-0.0826;-5.3366;
3100555365219789;-10.9259;-1.0597;-2.0569;
3100555375327705;-11.2995;-1.1749;-1.9564;
3100555385435622;-9.8025;-0.3676;-1.7862;
3100555395545361;-2.9058;-0.0535;-2.7302;
3100555405653278;-11.2349;1.1417;-6.4265;
3100555415761195;-16.7492;-0.3676;-3.4059;
3100555425904111;-10.6792;-0.9209;-0.6437;
3100555436012028;-5.1814;-0.0272;-1.8464;
3100555446119945;-4.8939;0.4445;-3.3458;
3100555456202549;-9.4502;0.2770;-4.8311;
3100555466310466;-11.4123;-0.4585;-4.9364;
3100555476418382;-9.4932;-0.2094;-1.7169;
3100555486533278;-9.1388;-0.1089;0.0102;
3100555496641195;-10.0250;0.0661;-0.7828;
3100555506749111;-11.9198;0.1499;-6.5605;
3100555516835153;-10.8443;-0.7986;-5.5690;
3100555526943070;-4.4509;-0.3099;-0.3299;
3100555537050986;-7.5960;0.4038;-2.1386;
3100555547181195;-12.4636;0.0852;-6.2109;
3100555557289111;-9.4358;-0.7771;-4.1124;
3100555567397028;-4.6878;-0.5973;-1.1683;
3100555577505986;-5.8355;-0.0583;-3.7531;
3100555587613903;-10.7845;0.4783;-8.0004;
3100555597721820;-12.7128;-0.3820;-8.2854;
3100555607814528;-11.7571;-1.5556;-1.1946;
3100555617922445;-8.6309;-1.7498;3.5892;
3100555628030361;-10.8658;-0.9257;-0.0305;
3100555638147132;-8.8322;-0.3485;-2.8307;
3100555648255049;-5.3228;-0.1376;-4.3400;
3100555658362966;-7.7016;1.0747;-5.8445;
3100555668453070;-9.5605;0.6936;-5.5256;
3100555678560986;-10.0179;-1.1749;-5.2382;
3100555688668903;-7.5625;-1.7019;-3.3242;
3100555698787705;-5.0593;-1.1462;-2.0282;
3100555708895622;-12.6434;-0.7244;-2.9746;
3100555719003539;-15.5013;-0.6383;-3.1134;
3100555729124216;-11.7667;-2.0707;0.2282;
3100555739232132;-10.9905;-1.3376;1.8141;
3100555749340049;-8.2573;-0.1711;0.7720;
3100555759441507;-5.8953;0.0924;-4.1865;
3100555769549424;-12.1451;1.5754;-7.4037;
3100555779657341;-10.0851;0.8351;-3.7555;
3100555789756403;-6.1732;-0.7795;-2.4523;
3100555799864320;-8.8083;-1.2108;-6.2970;
3100555809972236;-9.5964;-0.3099;-3.9135;
3100555820093486;-8.2478;-0.6359;-1.4438;
3100555830201403;-9.4525;-0.5279;-4.1698;
3100555840309320;-7.2153;0.2626;-4.5963;
3100555850417445;-9.0024;1.0388;-2.0788;
3100555860525361;-7.8332;-0.0009;-2.1482;
3100555870633278;-8.8274;0.7175;-2.8187;
3100555880737028;-6.4367;0.6075;-4.7593;
3100555890844945;-9.1627;0.6960;-8.4745;
3100555900952861;-14.2029;-0.1017;-7.9475;
3100555911068070;-9.6227;-1.7450;-2.7326;
3100555921175986;-7.3612;-2.0994;-1.3911;
3100555931283903;-11.1847;-2.0827;-2.4188;
3100555941383486;-12.6769;-1.1868;-2.0186;
3100555951491403;-9.6323;-0.6718;-0.8761;
3100555961599320;-6.0174;0.3129;-1.0487;
3100555971697549;-8.5280;0.9069;-3.8847;
3100555981805466;-11.7715;1.5514;-3.5638;
3100555991913382;-9.9102;1.7429;-1.0678;
3100556002026820;-9.5219;1.5009;-1.4773;
3100556012134736;-8.0584;1.8102;-2.8642;
3100556022242653;-6.8486;1.8915;-4.2203;
3100556032350153;-8.6716;1.7620;-4.0860;
3100556042458070;-9.7496;0.7920;-5.8301;
3100556052565986;-8.6142;0.3105;-5.0707;
3100556062667966;-8.2837;0.2387;-3.8034;
3100556072775882;-11.4386;-0.2883;-2.6273;
3100556082883799;-9.8073;-0.9377;-1.4533;
3100556092990882;-8.5424;-0.7388;-2.6154;
3100556103098799;-7.9170;-0.1854;-4.3998;
3100556113206716;-11.2397;-0.4418;-3.3290;
3100556123316299;-9.7184;0.0541;-1.9780;
3100556133424268;-9.7400;0.0589;-1.8775;
3100556143532132;-10.9283;0.5501;-1.2954;
3100556153625570;-7.4166;0.5788;-2.8427;
3100556163733486;-8.6477;-0.3987;-5.9617;
3100556173841403;-8.4009;-0.2644;-5.6312;
3100556183942445;-9.4765;1.1082;-0.8856;
3100556194050361;-10.7079;1.3071;-1.8440;
3100556204158278;-11.1631;0.1451;-4.0669;
3100556214317549;-10.0202;-0.2524;-2.5839;
3100556224425414;-7.6729;-0.0802;-0.6532;
3100556234533330;-5.8977;-0.3461;-3.5782;
3100556244607445;-11.9318;-0.5734;-7.0301;
3100556254715361;-13.6017;-0.4107;-2.7254;
3100556264823278;-9.5797;0.0159;1.2703;
3100556274988434;-5.5385;-0.0993;-3.0918;
3100556285096351;-9.5988;-0.3867;-4.3926;
3100556295204268;-11.1317;0.0876;-2.2152;
3100556305254007;-10.7725;0.6147;-3.3697;
3100556315361924;-7.2488;0.4277;-3.5255;
3100556325469841;-4.4172;0.8614;-3.3362;
3100556335588591;-9.9269;0.5022;-3.7149;
3100556345696507;-13.4746;0.0326;-4.8550;
3100556355804424;-12.1331;0.9547;-4.3041;
3100556365902549;-7.8547;0.2985;-1.0343;
3100556376010466;-6.9206;-0.8225;-1.6953;
3100556386118382;-8.8513;-0.3556;-3.9182;
3100556396234372;-10.2383;-0.2500;-3.9520;
3100556406342289;-10.2550;1.6567;-3.6188;
3100556416450205;-7.5673;0.2387;-3.7890;
3100556426603591;-8.3172;-0.4322;-3.0200;
3100556436711507;-10.7127;0.6697;-2.7829;
3100556446819424;-13.2398;0.9188;-2.0716;
3100556456875882;-10.0633;0.7343;-2.1864;
3100556466983799;-3.1741;-0.2405;-3.2142;
3100556477091716;-6.9757;1.1943;-4.3831;
3100556487206820;-11.8720;0.9763;-4.5772;
3100556497314736;-11.3952;0.5094;-3.7412;
3100556507422653;-9.0933;0.6912;-2.4141;
3100556517531403;-7.8404;-0.1472;-2.1984;
3100556527639320;-9.7831;-0.1280;-6.1941;
3100556537747236;-12.1187;0.4759;-2.6369;
3100556547865986;-8.6022;0.5740;0.1205;
3100556557973955;-5.2678;0.0996;-2.2367;
3100556568081872;-5.2845;0.8495;-4.7351;
3100556578184424;-9.6778;1.4650;-5.3988;
3100556588292393;-11.1197;2.0542;-3.1448;
3100556598400309;-5.2005;0.1116;-4.8694;
3100556608517966;-8.3842;-0.1113;-8.3501;
3100556618625934;-10.3173;0.8973;-1.4557;
3100556628733851;-5.5143;-0.6909;0.3482;
3100556638816820;-9.2827;-0.8803;-7.1572;
3100556648924789;-12.4636;0.2722;-3.6045;
3100556659032705;-7.7255;-0.4274;1.0857;
3100556669143799;-10.8132;-1.1988;-3.6308;
3100556679251716;-12.4612;-0.7699;-3.4848;
3100556689359684;-10.3582;-0.9736;0.3864;
3100556699466820;-12.0900;-1.0334;1.0834;
3100556709574789;-17.4655;-0.8417;-0.0185;
3100556719682705;-11.0910;-0.1352;3.4621;
3100556729802549;-4.1321;0.2698;1.5051;
3100556739910518;-9.0646;0.0206;-7.9259;
3100556750018434;-8.4706;1.2135;-6.2492;
3100556760128903;-5.1191;1.4698;-4.5365;
3100556770236872;-9.5845;1.9561;-5.5618;
3100556780344789;-11.6659;0.2243;-2.8717;
3100556790442966;-9.4406;-1.0167;3.3712;
3100556800550934;-11.5152;-1.5269;-2.8451;
3100556810658851;-14.8855;0.3296;-8.3836;
3100556820769216;-4.6113;-0.4777;-2.7805;
3100556830877132;-3.3655;-0.5088;-1.4988;
3100556840985101;-8.1900;-0.9736;-9.4017;
3100556851087341;-12.5596;-0.4657;-9.8064;
3100556861195309;-10.2215;-2.3151;-6.7451;
3100556871303226;-7.7495;-2.4371;-3.6694;
3100556881412132;-9.7735;-2.1568;-3.2405;
3100556891520101;-12.3224;-1.3472;-1.8870;
3100556901628018;-9.7687;-1.3256;-1.5709;
3100556911731872;-7.9146;-0.3365;-0.9622;
3100556921839841;-6.4439;1.1584;-2.1505;
3100556931947757;-9.2225;2.2531;-6.4409;
3100556942031455;-10.9666;2.3225;-7.1668;
3100556952139424;-10.3511;0.8136;-3.5231;
3100556962247341;-10.3367;-0.4394;-1.2930;
3100556972381195;-10.2885;-2.1377;-1.3050;
3100556982489164;-7.9292;-0.4753;-0.1214;
3100556992597080;-8.6788;-0.1304;-3.3745;
3100557002705257;-9.6299;0.4540;-4.1243;
3100557012813226;-7.1363;0.3248;-2.5528;
3100557022921143;-8.6166;-0.4490;-2.4117;
3100557033026820;-10.7246;-1.4360;-3.5423;
3100557043134789;-10.2168;-1.4838;-2.9698;
3100557053242705;-7.6681;-1.1533;-1.1803;
3100557063352914;-9.9652;0.0446;-4.9053;
3100557073460778;-9.9509;-0.1089;-2.3997;
3100557083568747;-9.7472;0.1259;-0.0951;
3100557093679893;-7.2846;-0.3676;-3.2668;
3100557103787861;-6.1277;0.3775;-5.4610;
3100557113895778;-10.3893;0.3009;-5.2744;
3100557124000518;-12.7920;-0.8058;-2.4811;
3100557134108486;-7.7088;-1.4432;-0.3610;
3100557144216403;-7.2488;-1.3376;-3.6981;
3100557154325674;-10.3989;-0.9616;-4.8479;
3100557164433643;-14.5669;-0.9353;-1.7503;
3100557174541559;-10.1569;-2.6599;0.8222;
3100557184675674;-7.8404;-1.6107;-2.1840;
3100557194783643;-10.4946;0.4469;-4.7545;
3100557204891559;-11.1365;0.3081;-1.4509;
3100557214963695;-6.5396;-0.8058;-1.0845;
3100557225071664;-7.6848;-0.7029;-5.8059;
3100557235179580;-12.7872;0.6482;-5.3462;
3100557245305778;-10.2191;-0.6766;0.4798;
3100557255413695;-4.4148;-1.3783;-1.1492;
3100557265521664;-4.6041;-0.0344;-8.8914;
3100557275615153;-14.7323;0.9571;-8.2110;
3100557285723122;-11.9151;-2.5881;-0.9670;
3100557295831039;-3.9455;-2.7221;0.8797;
3100557305936299;-9.1843;-1.3448;-5.8875;
3100557316044216;-14.6366;-0.3218;-7.7058;
3100557326152184;-10.5975;-1.6083;-0.4857;
3100557336276039;-8.0991;-2.0515;0.5300;
3100557346384007;-8.9040;-1.7354;-3.7436;
3100557356491924;-5.5935;0.6793;-3.9975;
3100557366587028;-7.2631;1.4506;-5.0204;
3100557376694945;-9.7615;-0.2979;-5.1999;
3100557386802914;-9.6395;-1.1964;-3.1325;
3100557396912028;-11.6925;-1.5891;-2.5289;
3100557407019997;-10.6720;-1.0789;-0.9550;
3100557417127914;-4.7169;-0.7436;-1.6570;
3100557427263122;-8.4272;0.2001;-7.8350;
3100557437371039;-13.7501;0.4684;-4.2682;
3100557447479007;-7.3926;-0.9975;0.3529;
3100557457576924;-8.0058;-1.0884;-3.4202;
3100557467684893;-9.1938;-0.1807;-4.2921;
3100557477792809;-9.5243;-0.5877;-4.2514;
3100557487885153;-12.2411;-0.8874;-2.6177;
3100557497993122;-9.3592;-0.9090;1.3708;
3100557508101039;-7.7997;-0.1184;0.1804;
3100557518202861;-9.0072;1.2063;-4.7880;
3100557528310830;-9.0526;0.3440;-5.4275;
3100557538418747;-5.6007;0.0135;-6.0120;
3100557548538695;-7.1339;0.1522;-5.8421;
3100557558646559;-14.9767;-0.6718;-2.2391;
3100557568754372;-10.9427;-1.0741;0.9374;
3100557578862653;-4.7288;-0.9879;-2.5744;
3100557588970518;-8.1111;0.1786;-6.2013;
3100557599078330;-12.8136;0.2363;-2.5696;
3100557609177132;-11.5080;-0.3939;0.8103;
3100557619284997;-8.9351;-0.7029;-0.7301;
3100557629392809;-7.5864;-0.0682;-4.7713;
3100557639502236;-9.6921;0.9547;-4.6920;
3100557649610101;-8.8011;-0.8034;-4.0741;
3100557659717914;-13.0122;-0.7579;-3.0105;
3100557669826403;-9.5677;-0.3485;0.2761;
3100557679934268;-7.5529;0.5261;-0.3706;
3100557690042080;-10.7246;1.0316;-2.7709;
3100557700154372;-9.7256;0.1307;-4.9220;
3100557710262236;-11.5104;0.6673;-2.7757;
3100557720370049;-7.4453;0.6123;-0.6413;
3100557730487028;-7.3612;0.4950;-2.7015;
3100557740594841;-9.2513;0.4038;-5.7293;
3100557750702705;-6.4750;-0.6455;-7.3176;
3100557760789736;-6.9494;-1.3519;-6.1750;
3100557770897601;-11.8481;-0.9760;-1.9062;
3100557781005414;-21.7846;-0.0464;0.2498;
3100557791130570;-7.9938;-0.3796;-0.0329;
3100557801238434;-2.3740;-0.7053;-2.8355;
3100557811346247;-11.8863;0.1690;-3.4155;
3100557821451611;-12.6769;0.7223;-0.5336;
3100557831559476;-6.8847;0.0924;-4.4743;
3100557841667289;-9.9556;1.2182;-6.1893;
3100557851763799;-9.4525;0.2001;-0.7923;
3100557861871664;-7.3950;1.2230;-0.9718;
3100557871979476;-6.7863;-0.3628;-6.2515;
3100557882112445;-10.8805;0.0589;-5.7030;
3100557892220309;-8.9231;0.3248;0.6547;
3100557902328122;-7.6609;1.2517;-1.9014;
3100557912418382;-13.4195;0.4205;-11.7111;
3100557922526247;-12.1618;-0.2189;-1.9540;
3100557932634059;1.0181;0.1164;3.6778;
3100557942754632;-12.1020;-1.0262;-8.1272;
3100557952862497;-15.6305;0.4301;-5.0635;
3100557962970309;-4.3597;0.3248;2.2837;
3100557973052757;-8.0991;0.5022;-2.9698;
3100557983160622;-13.7501;0.2363;-5.0539;
3100557993268434;-10.6337;-0.2812;-1.8894;
3100558003379320;-9.5004;0.2291;0.1828;
3100558013487184;-7.9508;1.1154;-0.6150;
3100558023594997;-9.1699;0.7080;-4.5652;
3100558033702653;-12.0470;0.5644;-5.8588;
3100558043810518;-7.4261;1.6926;-1.8296;
3100558053918330;-5.1335;0.6793;-1.9516;
3100558064029841;-12.5907;0.5620;-5.0010;
3100558074137705;-9.2273;1.6472;-1.8224;
3100558084245518;-7.5171;0.6769;-3.2261;
3100558094366195;-8.7867;1.1656;-2.8475;
3100558104474007;-7.6825;1.0579;-2.1721;
3100558114581872;-13.5081;0.5213;-6.6589;
3100558124675361;-8.1541;-0.8608;-3.9832;
3100558134783226;-5.5265;-0.1089;-2.0859;
3100558144891039;-13.2278;0.5070;-4.9675;
3100558154991195;-11.1030;-0.1591;-1.7551;
3100558165099059;-5.3444;-0.0583;-0.8186;
3100558175206872;-6.7433;0.0470;-5.5618;
3100558185323278;-12.6147;2.2842;-2.2893;
3100558195431143;-12.6099;1.4171;-1.3576;
3100558205538955;-10.5401;0.8399;-1.4964;
3100558215670882;-5.6462;0.3200;-1.5900;
3100558225778747;-7.3277;0.2722;-3.3386;
3100558235886559;-8.6716;1.2589;-3.6571;
3100558245965778;-7.6367;0.6553;-7.8470;
3100558256073643;-13.0699;0.4807;-6.6709;
3100558266181455;-7.7686;0.6960;2.1733;
3100558276293591;-7.9723;-0.0511;-0.1334;
3100558286401455;-9.9700;-0.4394;-6.3452;
3100558296509268;-10.6023;0.5692;-3.0440;
3100558306606611;-8.7604;0.7633;0.8222;
3100558316714476;-6.7672;-0.3051;-2.4930;
3100558326822289;-11.6635;-0.4059;-6.6972;
3100558336943695;-8.2502;0.1379;-4.2203;
3100558347051559;-5.5768;-0.1113;-2.1194;
3100558357159372;-11.3833;-0.7914;-3.8680;
3100558367267861;-14.3273;-0.0897;-3.4442;
3100558377375726;-8.5783;0.0637;1.0044;
3100558387483539;-6.9087;-0.4848;-0.3060;
3100558397587445;-9.3090;-0.0248;-3.8441;
3100558407695309;-8.4730;0.6840;-4.6920;
3100558417803122;-13.6567;0.3464;-3.9927;
3100558427933486;-12.1929;-0.1639;-0.6269;
3100558438041351;-5.6079;-1.2227;0.1325;
3100558448149164;-7.0738;-0.9329;-4.9531;
3100558458246507;-11.3402;0.4421;-5.3414;
3100558468354372;-11.1559;0.2028;-2.1386;
3100558478462184;-9.8073;-0.7986;-1.8057;
3100558488560361;-7.7758;-0.8584;-4.4910;
3100558498668226;-10.1450;-0.1831;-2.1386;
3100558508776039;-13.1345;-0.1496;-1.5972;
3100558518889216;-11.6085;0.1762;-4.9101;
3100558528997080;-11.1679;-0.4466;-1.4127;
3100558539102809;-4.3286;-0.6766;-0.2390;
3100558549210622;-12.3153;0.7199;-6.3233;
3100558559318434;-12.6984;-0.6861;-4.7231;
3100558569438122;-5.2173;-1.0238;-0.1478;
3100558579545986;-2.7691;0.6936;-5.3462;
3100558589653799;-15.4534;1.6137;-10.0053;
3100558599755361;-18.9844;-0.0440;-1.0917;
3100558609863226;-9.2946;-1.8120;6.5309;
3100558619971039;-1.6361;-0.6502;0.0437;
3100558630083799;-7.5266;1.3047;-12.0009;
3100558640191664;-20.2660;2.0375;-9.7801;
3100558650299476;-9.7017;-0.5758;3.4717;
3100558660393070;-5.9504;-3.1080;1.5577;
3100558670500934;-11.1392;-0.4059;-5.7748;
3100558680608747;-7.1025;0.4349;-3.1950;
3100558690720361;-10.5377;-0.1687;-5.4156;
3100558700828226;-12.1977;0.4062;-3.1950;
3100558710936039;-6.5563;0.3703;1.6774;
3100558721044111;-6.4199;0.7319;-5.7867;
3100558731151976;-12.5501;1.2015;-9.1119;
3100558741259789;-9.0144;-0.1304;-3.4729;
3100558751365257;-13.0843;-1.3998;-0.0736;
3100558761473122;-6.9470;-0.9568;1.3493;
3100558771580934;-10.2526;0.9667;-6.8216;
3100558781685570;-14.4353;-0.4944;-6.4505;
3100558791793434;-2.9297;-1.3807;3.5004;
3100558801901247;-7.7327;0.9667;-5.4754;
3100558812023799;-17.7841;-0.1615;-7.4662;
3100558822131664;-14.2675;-1.3735;5.4168;
3100558832239476;-5.3061;-1.7976;2.9518;
3100558842336716;-9.7137;1.4219;-5.7413;
3100558852444580;-13.4770;2.1742;-4.2227;
3100558862552393;-14.0710;-0.1663;-0.1382;
3100558872671195;-6.3410;-1.2562;-0.1741;
3100558882779059;-1.6193;-0.2237;-5.6647;
3100558892886872;-8.0536;1.3214;-8.6518;
3100558902972705;-8.0273;-1.0813;-6.9631;
3100558913080570;-10.5090;-1.7976;-5.5499;
3100558923188382;-12.5046;-3.7690;-2.1817;
3100558933328070;-10.7390;-3.9751;2.8753;
3100558943435934;-4.6113;-2.0037;-3.7531;
3100558953543747;-9.3616;-0.3338;-12.2357;
3100558963649111;-11.0839;0.3846;-4.3735;
3100558973756976;-7.4333;-3.0386;2.0608;
3100558983864789;-9.3233;-3.6661;-6.2587;
3100558993940674;-13.8365;-2.0755;-6.9057;
3100559004048539;-5.8594;-1.7330;3.2536;
3100559014156351;-3.8542;0.0350;0.9757;
3100559024305153;-11.4024;0.2171;-8.7356;
3100559034413018;-14.4497;1.1225;-4.2156;
3100559044520830;-5.8211;0.4038;2.0393;
3100559054607966;-2.9201;-1.1821;-4.0669;
3100559064715830;-9.0694;-0.6814;-11.6342;
3100559074823643;-13.4937;-1.0525;-2.1362;
3100559084909789;-11.1535;-2.5546;3.7615;
3100559095017653;-14.4760;-2.6145;-2.6656;
3100559105125466;-9.9269;-1.6035;-0.5121;
3100559115245361;0.8480;0.4325;0.7672;
3100559125353226;-7.5721;1.5778;-8.7476;
3100559135461039;-15.2210;0.2435;-7.2051;
3100559145576091;-13.8532;-0.8779;3.1077;
3100559155683955;-7.1049;-1.1243;0.8773;
3100559165791768;-9.3233;0.2770;-4.7136;
3100559175943955;-9.0622;0.9595;-2.1290;
3100559186051820;-8.7437;1.6519;1.1794;
3100559196159632;-8.9566;0.3105;-2.9076;
3100559206221039;-12.0948;0.1307;-7.6744;
3100559216328903;-10.4874;0.0589;-4.7327;
3100559226436716;-5.2965;-0.8608;-2.2223;
3100559236550361;-10.3340;-0.1663;-2.7661;
3100559246658226;-11.5869;0.1403;-1.6953;
3100559256766039;-6.0006;1.3190;-1.5852;
3100559266880466;-6.3984;0.5716;-4.9842;
3100559276988330;-10.1186;0.4277;-5.2573;
3100559287096143;-10.8948;0.5740;-2.4117;
3100559297193799;-11.8433;0.6840;-2.1745;
3100559307301664;-7.2990;0.4397;-2.3662;
3100559317409476;-6.6356;-0.3242;-2.4308;
3100559327517549;-11.5271;0.4134;-3.4753;
3100559337625414;-11.9342;0.3200;-3.7172;
3100559347733226;-9.0670;0.4516;-1.1683;
3100559357837705;-9.2536;1.4411;0.3120;
3100559367945570;-13.2326;0.5118;-1.3528;
3100559378053382;-9.8073;1.3167;-2.4882;
3100559388165257;-4.1225;0.5907;-0.4472;
3100559398273122;-4.8820;0.7466;-2.6154;
3100559408380934;-2.6112;0.6338;-6.9607;
3100559418484320;-7.4261;-0.7364;-10.6379;
3100559428592184;-12.6984;-0.9999;-5.4730;
3100559438699997;-5.3970;-1.4838;-1.9445;
3100559448812861;-4.9442;-1.6995;-4.4839;
3100559458920726;-8.6764;-1.6633;-4.2634;
3100559469028539;-14.1144;-0.5136;-1.5900;
3100559479139111;-12.4926;-0.4801;-1.1850;
3100559489246976;-2.3429;-1.3519;-3.5614;
3100559499354789;-7.3828;-1.3400;-5.5857;
3100559509460205;-21.6553;-1.2156;2.0321;
3100559519568070;-16.4067;-1.4599;8.0136;
3100559529675882;-12.0326;-0.3051;7.4459;
3100559539786039;-8.3291;3.4965;3.6084;
3100559549893955;-6.2665;2.9240;-4.3280;
3100559560001872;-10.9259;0.7992;-7.5188;
3100559570107028;-9.0814;0.6505;-2.4595;
3100559580214945;-3.5453;1.1465;-2.8427;
3100559590322809;-7.7925;0.0446;-9.0377;
3100559600432445;-10.9570;-0.9281;-10.7934;
3100559610540361;-11.2947;-1.3137;-0.2055;
3100559620648226;-7.5984;-1.0310;4.8562;
3100559630763278;-15.8055;-2.0779;-8.9106;
3100559640871195;-15.2833;-2.8947;-8.6734;
3100559650979111;-4.1608;-2.4012;-1.2811;
3100559661088955;-9.2249;-2.1185;-6.6060;
3100559671196872;-13.6352;-2.0731;-3.3984;
3100559681304789;-7.4357;0.0374;0.6428;
3100559691409528;-7.1240;0.4301;-2.6919;
3100559701517445;-9.2489;1.3071;-2.7326;
3100559711625361;-8.4177;3.0245;-2.7709;
3100559721723278;-10.1067;2.9192;-3.5949;
3100559731831195;-8.8226;1.9131;-6.1822;
3100559741939059;-12.9428;1.1154;-6.4911;
3100559752057289;-12.0924;0.5381;-4.3591;
3100559762165205;-6.0942;0.5668;-3.0799;
3100559772273122;-8.3411;-0.5686;-4.5269;
3100559782371195;-9.7328;0.8423;-2.5648;
3100559792479111;-9.4334;0.5022;-2.2510;
3100559802587028;-10.3316;0.3846;-3.3147;
3100559812686611;-8.7939;1.5491;0.6452;
3100559822794528;-7.8021;1.3262;0.2282;
3100559832902445;-8.9088;1.0555;-4.0190;
3100559843017966;-10.1785;0.4974;-3.5375;
3100559853125882;-6.4056;0.9763;-2.9267;
3100559863233799;-6.9613;0.4735;-6.3523;
3100559873354580;-10.2622;-0.4155;-5.6097;
3100559883462445;-8.8322;0.0685;-2.4571;
3100559893570361;-12.7247;-0.2118;-3.6380;
3100559903654684;-11.7906;-0.1352;-1.7121;
3100559913762601;-8.8155;-0.3290;1.7016;
3100559923870466;-9.5148;-0.1759;-1.2138;
3100559933974528;-11.5271;0.0876;-4.3232;
3100559944082445;-9.2058;-0.9138;-2.2822;
3100559954190361;-4.1297;-0.5806;-0.9120;
3100559964304841;-7.1073;0.0996;-5.2597;
3100559974412757;-7.6753;0.2052;-5.2768;
3100559984520674;-11.0001;0.7466;-2.9004;
3100559994632549;-12.2698;0.3823;-1.0175;
3100560004740466;-9.9150;-0.4920;-3.0153;
3100560014848382;-9.1244;0.0159;-3.2213;
3100560024951403;-5.5433;-1.4838;-3.3577;
3100560035059320;-9.2632;-1.5197;-5.2190;
3100560045167184;-13.1776;-1.4312;-4.0980;
3100560055300361;-8.9782;-1.1315;-0.7684;
3100560065408278;-7.9388;-0.5351;-1.9660;
3100560075516195;-11.7595;-0.4585;-1.0487;
3100560085601507;-10.0346;0.3894;2.0895;
3100560095709424;-11.1559;0.7394;-0.4472;
3100560105817289;-13.1201;0.6912;-4.7088;
3100560115931195;-8.6046;-0.1472;-1.9086;
3100560126039111;-1.2168;0.0565;-1.8751;
3100560136146976;-8.3124;-0.9353;-7.9355;
3100560146267132;-12.5309;0.7920;-5.3198;
3100560156375049;-9.9437;0.9906;-0.5503;
3100560166482966;-14.1479;-0.1854;-3.1783;
3100560176573278;-0.9775;0.1857;-2.8813;
3100560186681195;-3.9021;0.4205;-2.9698;
3100560196789111;-16.9122;0.3320;-6.6541;
3100560206909059;-12.2315;0.5620;-5.5977;
3100560217016976;-7.2248;-0.4848;-3.6356;
3100560227124841;-7.9412;-1.4169;-1.6546;
3100560237237549;-12.8854;-1.0813;-1.0845;
3100560247345466;-14.1933;-0.5782;0.6380;
3100560257453330;-4.6232;-0.2237;1.8835;
3100560267539164;-5.7538;1.6400;-4.0765;
3100560277647080;-9.2536;0.6266;-8.0865;
3100560287754945;-11.0958;0.8806;-3.6718;
3100560297879372;-5.7036;1.7142;1.8523;
3100560307987289;-11.0910;1.2398;-4.6944;
3100560318095205;-15.7840;0.5261;-7.4160;
3100560328201716;-8.0800;0.5261;1.0092;
3100560338309632;-8.9806;-0.4633;0.5922;
3100560348417549;-8.3028;-0.2883;-6.4337;
3100560358532132;-6.3601;-0.2381;-5.5161;
3100560368640049;-11.1006;-0.0153;-4.1100;
3100560378747966;-6.8557;0.3057;-0.7516;
3100560388842705;-7.7351;0.6912;-1.1827;
3100560398950622;-13.6328;0.2794;-4.7928;
3100560409058486;-5.7443;1.2709;-1.6905;
3100560419172341;-4.1393;0.5524;-3.5806;
3100560429280257;-14.4209;-0.0730;-6.9918;
3100560439388174;-17.2283;0.5166;-1.2425;
3100560449503278;-12.1546;-0.1854;0.3144;
3100560459611195;-7.2559;-1.7976;-1.3887;
3100560469719111;-9.2417;-0.4872;-0.5049;
3100560479816299;-9.3927;0.5189;1.2200;
3100560489924216;-8.2167;0.9715;-2.3614;
3100560500032132;-5.1048;1.2637;-5.6695;
3100560510148382;-8.7652;1.3860;-7.4566;
3100560520256299;-10.7079;1.3478;-3.1854;
3100560530364216;-5.3587;1.2470;0.6834;
3100560540442549;-7.6705;0.0757;-4.0047;
3100560550550257;-18.2345;0.7777;-8.5298;
3100560560657914;-15.4534;-0.4801;-4.4692;
3100560570781611;-9.4502;-1.5317;0.0150;
3100560580889320;-7.3612;-1.1462;3.0212;
3100560590996976;-6.5635;-1.0071;-1.5685;
3100560601108070;-5.1718;0.2530;-7.3941;
3100560611215778;-6.7170;0.4229;-5.1808;
3100560621323434;-17.9495;0.5094;-0.4376;
3100560631425257;-16.3110;0.9404;1.6391;
3100560641532966;-7.3540;0.6123;1.5984;
3100560651640622;-4.5060;0.8997;-1.2568;
3100560661762653;-8.5424;0.0182;-7.4949;
3100560671870361;-15.4077;0.9691;-9.5453;
3100560681978070;-7.7327;-0.0057;-4.5126;
3100560692075205;-3.0757;-0.5495;-1.7456;
3100560702182914;-10.2024;-0.6024;-6.3523;
3100560712290622;-14.8663;-0.0248;-0.8928;
3100560722399632;-4.5921;0.8806;3.8408;
3100560732507341;-0.7786;-0.2285;-7.1620;
3100560742615049;-11.4960;-0.0488;-12.7098;
3100560752721611;-10.3053;0.0709;-2.3614;
3100560762829320;-8.2741;-0.3532;-0.8569;
3100560772937028;-6.4510;0.0446;-5.0300;
3100560783045049;-5.1957;-0.3700;-3.1950;
3100560793152757;-13.4865;0.0063;-1.8559;
3100560803260466;-16.3134;-0.0392;-0.7397;
3100560813369528;-10.8203;0.6673;1.6415;
3100560823477236;-11.9489;0.0541;2.9207;
3100560833584945;-9.7807;-0.5447;1.1264;
3100560843680934;-5.3133;-0.2883;-1.7288;
3100560853788643;-11.1870;1.1082;-2.0859;
3100560863896299;-9.5124;1.1919;-1.7216;
3100560874047861;-7.8547;0.8183;-3.8680;
3100560884155518;-5.2268;1.7070;-1.6738;
3100560894263226;-2.3740;1.0172;-2.4093;
3100560904327757;-11.2756;2.2053;-8.7574;
3100560914435466;-14.0112;0.8662;-10.6208;
3100560924543174;-9.0407;-0.8922;-3.4513;
3100560934693382;-4.4315;-2.1257;-2.8693;
3100560944801091;-11.7643;-2.8277;-6.6012;
3100560954908799;-13.5272;-2.0372;-0.7011;
3100560964980205;-8.8681;-2.3462;1.5673;
3100560975087914;-14.0614;-0.8369;-1.1372;
3100560985195570;-9.2922;-0.5040;1.6175;
3100560995301403;-6.6763;0.1403;1.3899;
3100561005409111;-2.3067;0.6218;-3.0535;
3100561015516820;-8.7772;2.0785;-6.8623;
3100561025642236;-24.0772;1.9418;-5.2768;
3100561035749945;-5.7227;-0.0488;2.1326;
3100561045857653;1.5452;-1.4527;-2.3061;
3100561055948070;-11.1197;0.5142;-8.4290;
3100561066055778;-14.5047;1.0077;-5.0731;
3100561076163434;-12.7514;-1.7306;-0.4424;
3100561086280049;-6.7648;-3.0553;-2.0426;
3100561096387757;-4.1034;-2.3366;-4.3926;
3100561106495414;-8.4296;-0.0873;-6.1893;
3100561116606820;-14.2316;-0.5782;-1.6810;
3100561126714528;-6.9230;-1.6178;6.2530;
3100561136822236;-10.8924;-2.6169;-7.4351;
3100561146930882;-15.3981;0.6410;-8.2158;
3100561157038591;-4.4028;0.8782;3.3425;
3100561167146299;-5.6270;0.2554;0.6739;
3100561177247132;-9.1388;2.3444;-7.5452;
3100561187354841;-8.8274;0.9356;-7.9860;
3100561197462497;-12.5883;0.1786;-4.1459;
3100561207564789;-9.4119;-1.3998;-0.4642;
3100561217672445;-5.9001;-0.8994;-1.7695;
3100561227780153;-8.0010;-0.2261;-4.8311;
3100561237908382;-11.5774;-0.3700;-3.3577;
3100561248016091;-11.5822;-1.0214;-4.7351;
3100561258123799;-12.9739;-1.2443;-3.2429;
3100561268233382;-7.6753;-0.6144;3.2393;
3100561278341091;-7.2368;-0.0440;-2.2295;
3100561288448747;-7.0905;-0.6694;-4.9986;
3100561298546611;-8.4344;0.0709;-3.6165;
3100561308654320;-11.3761;0.3440;-4.4862;
3100561318762028;-11.2397;-1.1797;-3.2429;
3100561328878486;-9.1603;0.0470;0.6643;
3100561338986195;-8.6333;-0.3628;-2.2032;
3100561349093903;-13.8147;0.2674;-4.8407;
3100561359198486;-10.2670;-0.5088;0.0700;
3100561369306195;-6.2402;0.3679;-2.1625;
3100561379413903;-6.4582;-0.6694;-6.0191;
3100561389531039;-7.4907;-0.3027;-5.3366;
3100561399638747;-9.0598;-0.2357;-3.9616;
3100561409745598;-11.1799;0.6242;-1.8057;
3100561419853932;-10.8562;-0.6742;-0.9168;
3100561429961640;-8.3219;0.3775;-1.1276;
3100561440069348;-9.3114;0.1379;-3.3888;
3100561450177213;-11.1823;0.0494;-4.8718;
3100561460284921;-9.5124;-0.6885;-2.6967;
3100561470392629;-7.5888;-0.6263;-0.8856;
3100561480495963;-6.3434;-0.8970;-3.2285;
3100561490603671;-8.1852;-1.0286;-4.0358;
3100561500711327;-12.4253;-0.3987;-1.9373;
3100561510815442;-12.7944;-0.3365;1.4139;
3100561520923150;-10.1378;-1.1725;0.1660;
3100561531030859;-8.0393;-0.5136;-1.9469;
3100561541140650;-8.5017;0.2841;-3.3721;
3100561551248671;-7.9747;-0.5064;-4.8933;
3100561561356692;-10.0059;-1.5006;-4.1291;
3100561571457109;-12.3847;-1.2706;-2.3542;
3100561581565129;-9.1627;-1.4838;-1.5278;
3100561591673098;-10.5808;-0.5088;-0.8091;
3100561601776900;-9.5438;0.3607;-0.2892;
3100561611884921;-9.7998;-0.1424;-2.9578;
3100561621992890;-10.5616;-0.3365;-5.1209;
3100561632104400;-13.7788;-0.2668;-3.1950;
3100561642212421;-6.6021;-0.7412;-1.4007;
3100561652320390;-5.1287;-0.2931;-0.4041;
3100561662430025;-8.8250;-0.6335;-2.8813;
3100561672538046;-18.3664;0.1475;-5.2023;
3100561682646015;-15.1564;0.9141;-3.6500;
3100561692747213;-0.7642;-1.1749;-0.0066;
3100561702855234;-6.0461;-1.3687;-1.5852;
3100561712963202;-8.5543;-0.7077;-6.0864;
3100561723071067;-10.3101;0.0135;-7.7345;
3100561733179088;-13.3406;-0.1113;-4.4118;
3100561743287109;-8.1206;-0.4274;-2.4212;
3100561753401848;-8.3291;-0.7244;-0.5240;
3100561763509869;-5.2484;0.5166;-1.5637;
3100561773617890;-5.0809;0.3559;-3.8177;
3100561783723984;-11.9728;-0.2070;-8.0865;
3100561793832004;-16.5817;-0.8755;-6.1032;
3100561803939973;-8.9495;-0.6981;2.2837;
3100561814111327;-2.6303;-1.0454;0.3000;
3100561824219296;-10.1737;0.5453;-3.5255;
3100561834327317;-12.3655;0.5285;1.1169;
3100561844362942;-10.4970;0.8901;-0.1478;
3100561854470963;-11.9513;0.8710;-3.6452;
3100561864578932;-6.6643;0.0661;-1.7985;
3100561874684609;-5.4401;0.0948;-0.6485;
3100561884792629;-10.6265;0.6099;-1.6594;
3100561894900598;-12.1211;0.3464;-5.6839;
3100561905039192;-10.2479;-0.3820;-2.9363;
3100561915147213;-7.8571;0.3224;-3.2453;
3100561925255234;-8.7027;0.4421;-2.6847;
3100561935325859;-9.0239;0.2267;-0.4810;
3100561945433879;-8.9495;1.2808;-2.6106;
3100561955541848;-10.1234;-0.2381;-5.8588;
3100561965669713;-10.9211;0.0159;-3.9425;
3100561975777734;-10.7845;0.2578;-0.9837;
3100561985885702;-6.5444;-0.1256;-1.4151;
3100561995992004;-7.3253;-0.7651;-3.9927;
3100562006100025;-10.5616;0.0350;-2.0258;
3100562016207994;-13.5562;0.5357;-5.1449;
3100562026339817;-10.4635;0.4277;-2.8860;
3100562036447838;-3.9093;-0.7819;0.9637;
3100562046555859;-9.2465;0.7992;-4.0358;
3100562056635598;-14.6124;0.1331;-4.9101;
3100562066743619;-4.4052;-0.2644;-2.8789;
3100562076851588;-5.7754;0.0876;-4.2945;
3100562086955859;-10.9403;-0.1783;-5.1497;
3100562097063879;-9.5533;-0.4968;-3.1472;
3100562107171848;-7.1483;0.5644;-4.1243;
3100562117277421;-2.7930;0.3870;-2.3276;
3100562127385442;-9.4741;0.1666;-4.2849;
3100562137493411;0.9535;0.3200;-5.0970;
3100562147617525;18.1914;0.2267;-5.1544;
3100562157725546;-30.5043;1.7668;-6.5055;
3100562167833515;-62.7886;3.3694;-6.5342;
3100562177955129;-8.7171;-0.8249;1.5147;
3100562188063150;18.9939;-4.1524;20.7936;
3100562198171119;3.8498;-0.0754;11.6883;
3100562208246067;-15.3335;3.0628;-7.4853;
3100562218354088;-5.0234;0.9858;-7.9187;
3100562228462057;-1.8494;0.5524;-2.4356;
3100562238587265;-49.6947;3.4582;-5.9952;
3100562248695286;-62.8508;4.3181;6.0063;
3100562258803254;62.3596;-2.3390;30.7828;
3100562268920025;43.8951;-7.8751;3.2824;
3100562279028046;-66.3817;2.4449;-59.2113;
3100562289136015;-24.1849;12.6784;-10.4294;
3100562299234609;14.2220;-10.1363;9.4750;
3100562309342629;-7.7901;-7.7504;-26.1847;
3100562319450598;-14.2220;6.2800;2.5950;
3100562329552213;4.2975;-0.1735;17.8352;
3100562339660234;8.7915;1.6424;-1.6475;
3100562349768254;-19.5090;3.0173;-55.3906;
3100562359883567;-67.4381;-4.6146;-23.2406;
3100562369991588;19.2766;-5.6904;55.3870;
3100562380099557;37.8467;-7.4366;2.0656;
3100562390200025;-35.0486;3.7050;-23.8011;
3100562400308046;-26.7458;9.9787;16.3594;
3100562410416015;-8.9853;-3.5967;12.6320;
3100562420527213;-5.8427;-1.5030;-4.2634;
3100562430635234;3.0087;3.6497;0.6595;
3100562440743202;-11.7643;0.6840;-5.9474;
3100562450860025;-11.9991;-1.0813;-2.6082;
3100562460968046;-4.6663;-0.2477;-5.6743;
3100562471076015;-13.3573;-0.9233;-16.0540;
3100562481170442;-4.8796;-1.0262;0.2641;
3100562491278463;-12.9811;-1.4312;2.1326;
3100562501386432;-12.6864;-1.7785;-7.6576;
3100562511492265;-1.1737;1.3430;3.8695;
3100562521600286;-6.0126;0.8614;-0.7899;
3100562531708254;-19.9687;-0.2955;-7.0588;
3100562541835077;-7.3421;2.0952;4.3053;
3100562551943150;-1.3917;-0.9425;-0.8761;
3100562562051119;-13.6639;0.4759;-8.8819;
3100562572142213;-11.1607;0.6075;0.1732;
3100562582250234;-7.7255;-0.3266;2.5352;
3100562592358254;-27.5411;0.0829;-3.8656;
3100562602467525;-12.9093;-0.7340;-9.3538;
3100562612575546;1.0971;-1.9244;7.8362;
3100562622683567;2.0459;-0.6263;4.7103;
3100562632783775;-6.8656;0.5429;-11.5887;
3100562642891796;-15.5252;1.9609;-9.8474;
3100562652999817;-13.0268;0.1355;-4.3831;
3100562663107629;-8.9758;0.1116;-2.4380;
3100562673215702;0.8001;1.4626;-0.6796;
3100562683323671;-7.4477;1.9992;-2.0569;
3100562693431223;-14.5310;1.7429;-6.6206;
3100562703539192;-23.3776;-0.7866;-12.6165;
3100562713647213;-16.1001;-0.8489;1.3301;
3100562723756900;10.3941;-1.7856;12.4310;
3100562733864973;-2.8146;-0.0153;-3.2357;
3100562743972942;-18.3832;2.2029;-7.9980;
3100562754134036;-9.8862;2.0734;-2.0740;
3100562764242057;0.8432;0.0805;-2.7254;
3100562774350077;-34.2892;2.1287;-2.8044;
3100562784397109;-34.6675;1.1177;2.9973;
3100562794505129;10.7198;-3.3906;9.2737;
3100562804613150;13.7551;-1.1486;-0.4113;
3100562814728984;-17.4535;3.5420;-18.1286;
3100562824837004;-18.9198;2.8786;-8.1368;
3100562834945025;-3.0948;-2.8014;4.8972;
3100562845046275;-3.0206;-1.4264;-8.7332;
3100562855154296;-10.5138;3.1418;-5.3366;
3100562865262317;-7.2775;0.4759;4.2909;
3100562875394244;-3.4113;1.1704;-6.2539;
3100562885502265;-13.7142;0.5524;-25.4611;
3100562895610286;-21.4636;-1.4360;-10.8604;
3100562905693932;-2.1583;-3.3595;16.3259;
3100562915801952;-3.7298;-1.4384;2.7939;
3100562925909973;-16.4330;-1.5915;-6.5079;
3100562936019296;-11.6013;2.2627;1.3062;
3100562946127317;-8.5926;-0.3194;4.6911;
3100562956235338;-5.4114;0.6984;3.8118;
3100562966346171;-7.2081;1.1752;-3.0559;
3100562976454192;-15.0030;1.8700;-7.4061;
3100562986562213;-7.3277;0.8471;-1.8416;
3100562996678046;-5.3444;-0.9449;-3.7149;
3100563006786067;-8.8131;0.0422;-4.6585;
3100563016894088;-7.4788;0.2530;-2.2223;
3100563026994296;-13.2470;-1.5293;-10.6475;
3100563037102317;-15.1708;-1.2993;-5.1018;
3100563047210338;-9.5076;-1.3639;7.9992;
3100563057317838;-1.7462;-1.2036;1.9385;
3100563067425859;-5.6246;-1.3089;-7.9597;
3100563077533879;-21.3153;1.1177;-1.3648;
3100563087636900;-12.9308;-0.3051;2.8083;
3100563097744921;-6.6739;-0.0754;0.8557;
3100563107852942;-3.0661;0.5668;-0.4834;
3100563117965129;-13.3119;0.3942;-5.6408;
3100563128073150;-13.8891;0.3870;-5.6312;
3100563138181171;-9.1579;-0.1854;-1.7216;
3100563148292004;-10.2742;-0.8898;-3.2883;
3100563158400025;-8.0991;-0.8512;-3.7579;
3100563168508046;-9.6706;0.1499;-1.4677;
3100563178641848;-4.7551;0.4469;-2.7948;
3100563188749817;-11.0695;-0.7388;-9.5695;
3100563198857838;-12.0829;0.4735;-4.5054;
3100563208923046;-8.0824;0.0206;0.8438;
3100563219031067;-9.6706;-0.8034;-4.1578;
3100563229139088;-9.7711;0.0565;-3.2477;
3100563239262734;-12.7439;0.2818;-1.4988;
3100563249370754;-9.3018;0.5955;0.2234;
3100563259478775;-6.5611;0.2841;-1.8727;
3100563269608254;-9.6060;-0.0464;-2.2822;
3100563279716275;-12.6099;1.9178;-3.0368;
3100563289824296;-6.9924;0.5548;-0.5216;
3100563299916432;-4.9609;-0.2883;-1.9134;
3100563310024452;-1.3128;1.4722;-7.5739;
3100563320132473;-28.3699;1.8293;-5.2286;
3100563330246067;-14.3994;-0.0153;1.8093;
3100563340354140;5.5098;-0.8417;0.4080;
3100563350462109;-7.8284;0.2506;-4.7402;
3100563360561015;-14.3225;0.3368;-3.9808;
3100563370669036;-8.1517;0.8542;-0.9526;
3100563380777057;-5.3946;0.2770;-2.9339;
3100563390878671;-11.8289;0.4469;-5.6312;
3100563400986692;-10.1713;-1.0071;-1.5494;
3100563411094713;-7.9986;0.3200;-0.4810;
3100563421191067;-3.9718;0.7561;-1.5350;
3100563431299088;-10.3463;0.3631;-11.3348;
3100563441407109;-16.1216;-1.4336;-5.9163;
3100563451520754;-2.1176;0.6601;6.0900;
3100563461628775;-9.4908;-1.4982;-4.3687;
3100563471736796;-15.8533;-0.8465;-3.9855;
3100563481860859;-6.1086;0.1834;3.3233;
3100563491968879;-5.4544;-0.0129;-2.3734;
3100563502076900;-12.2243;-0.3437;-6.5414;
3100563512180963;-11.6659;0.1020;-2.3686;
3100563522288984;-9.1196;-0.9951;0.2952;
3100563532397004;-6.5372;-0.9233;0.5396;
3100563542502109;-11.7428;0.4445;-3.2070;
3100563552609921;-12.7271;-0.3843;-2.5170;
3100563562717734;-6.5180;0.3751;1.6944;
3100563572812421;-4.7022;-0.7412;-6.4170;
3100563582920234;-11.6276;-0.2142;-5.8875;
3100563593028046;-12.7657;-0.5973;0.2474;
3100563603140598;-8.0345;-1.0836;-4.2873;
3100563613248411;-11.0216;-1.3304;-4.6825;
3100563623356223;-6.9829;0.9858;2.6955;
3100563633477682;-7.4142;-0.1113;-3.3147;
3100563643585494;-13.6878;0.3464;-6.6781;
3100563653693307;-6.1732;0.5979;-0.2581;
3100563663775963;-10.5497;0.0685;-2.6369;
3100563673883775;-14.7180;-0.0320;-3.3936;
3100563683991588;-5.8283;0.4134;0.7696;
3100563694209765;-3.5309;0.0470;-4.7641;
3100563704317525;-13.4124;0.2626;-6.2779;
3100563714425338;-12.4684;0.9595;1.5553;
3100563724453150;-6.7098;-0.1065;-1.5036;
3100563734560963;-13.2111;-0.6981;-6.7690;
3100563744668775;-7.6463;0.5883;-0.3993;
3100563754745963;-10.2072;0.6338;0.1947;
3100563764853775;-15.5204;0.1977;-0.2055;
3100563774961588;-4.6041;0.2483;-4.6657;
3100563785071379;-13.0050;-0.2644;-5.3127;
3100563795179192;-11.3569;-0.1256;2.6836;
3100563805287004;-1.5571;0.2243;-0.4328;
3100563815400859;-9.2994;0.6817;-6.5390;
3100563825508671;-14.0710;0.2626;-2.6441;
3100563835616484;-8.2765;0.9356;-4.0837;
3100563845726275;-6.4104;-0.5064;-6.5270;
3100563855834088;-8.8274;-0.3843;-0.6197;
3100563865941900;-7.5673;-0.4083;-5.3270;
3100563876055442;-15.4223;-1.0980;-9.2554;
3100563886163254;-9.4334;-1.1414;0.6018;
3100563896271067;-2.2325;-0.8177;-0.9311;
3100563906372421;-9.2201;-1.4360;-2.6584;
3100563916480234;-11.4841;0.7585;-0.7131;
3100563926588046;-8.8944;0.2100;-4.5915;
3100563936707629;-2.8193;0.4516;-2.1649;
3100563946815442;-4.0651;0.4564;-1.6020;
3100563956923254;-10.7605;0.2363;-6.0168;
3100563967031171;6.8991;-0.1759;-7.8063;
3100563977138984;-13.1848;2.7682;-9.2794;
3100563987246796;-55.5228;-1.0334;4.4779;
3100563997358150;-15.8605;-6.7418;12.1890;
3100564007465963;17.1876;-4.1309;9.3048;
3100564017573775;-5.7491;3.2545;-0.5480;
3100564027682004;-14.4927;0.8088;-5.0611;
3100564037789817;-2.1368;0.8471;-5.8588;
3100564047897629;1.1282;0.9930;-3.4657;
3100564057993775;-17.3028;4.4258;-4.7498;
3100564068101588;-64.0364;1.3095;4.4468;
3100564078209400;-2.7260;-4.7297;21.1289;
3100564088322004;30.8181;0.7152;-6.5605;
3100564098429817;-24.8007;-1.8526;-35.1604;
3100564108537629;-22.8123;-2.4012;-6.2946;
3100564118640546;9.2635;-1.6035;16.9944;
3100564128748359;-10.6863;-2.9019;-14.9498;
3100564138856171;-13.6974;1.5562;-6.6060;
3100564148980129;0.0072;3.4367;9.4630;
3100564159087942;-5.9815;1.4195;-3.4537;
3100564169195754;-3.2722;2.9025;-25.4157;
3100564179311171;-28.3890;-1.8933;-27.2961;
3100564189418984;-10.3582;-1.3831;17.5262;
3100564199526796;13.1154;-0.6933;3.3209;
3100564209600286;-16.0834;-3.8148;-18.5692;
3100564219708098;-24.1131;0.2818;11.1852;
3100564229815911;-6.1325;2.6701;14.6563;
3100564239939921;-7.2631;-0.0464;-3.7340;
3100564250047734;-5.5167;1.8628;-0.5073;
3100564260155546;-7.7160;3.2785;1.0355;
3100564270276171;-18.9796;0.9619;-5.1616;
3100564280383984;-8.4512;1.7405;1.3780;
3100564290491796;-3.0637;1.2613;1.5218;
3100564300589504;-15.1588;1.5610;-4.3759;
3100564310697317;-14.1048;1.4148;0.1373;
3100564320805129;-4.8724;0.7223;0.1373;
3100564330924296;-4.7623;0.6864;-6.6012;
3100564341032109;-7.5458;-0.0897;-8.6806;
3100564351139921;-12.1475;-0.4346;-6.8961;
3100564361251796;-10.3340;-0.4083;1.6534;
3100564371359609;-0.0742;-0.3266;-1.4701;
3100564381467421;-14.7251;-0.8393;-13.7255;
3100564391567265;-17.8920;0.1475;-0.9120;
3100564401675077;-4.1106;-1.7713;7.0938;
3100564411782890;-4.3119;-1.8335;-8.6351;
3100564421848098;-13.1010;0.4854;-9.2387;
3100564431955859;-9.1675;1.1106;3.3425;
3100564442063619;-13.0723;-1.3017;-1.0702;
3100564452171432;-12.4158;0.5501;-2.8522;
3100564462319817;-1.5858;0.3081;3.6610;
3100564472427629;-10.3292;1.4267;-4.2873;
3100564482535442;-12.4660;1.5993;-5.4562;
3100564492641379;-7.1073;0.2076;-0.9407;
3100564502749192;-8.1326;0.0613;-4.2251;
3100564512857004;-6.0607;1.2374;-3.2142;
3100564522956275;-7.2607;0.5381;-1.8081;
3100564533064088;-16.6654;0.2770;-3.8943;
3100564543171900;-11.3952;-1.0573;-2.1888;
3100564553278567;-9.2178;-0.4011;0.9446;
3100564563386379;-6.3601;-0.4513;1.4836;
3100564573494140;-5.6725;-0.0607;-2.4308;
3100564583661588;-13.9944;-0.3724;-7.1883;
3100564593769400;-14.8376;0.4831;-0.0281;
3100564603877161;-4.5084;-0.7507;2.4511;
3100564613944192;-5.4209;-0.4801;-4.3519;
3100564624052004;-8.4440;0.9811;-4.8120;
3100564634159765;-7.3804;1.5586;-4.0167;
3100564644284400;-16.5051;0.2506;-6.6661;
3100564654392213;-14.7945;-0.4466;-0.0927;
3100564664499973;-3.0470;-1.2538;0.5468;
3100564674574921;-8.1446;0.2937;-5.0970;
3100564684682682;-10.1258;0.5405;-0.9718;
3100564694790494;-12.9452;-0.7795;-2.0692;
3100564704904400;-10.6863;-1.0023;-4.3113;
3100564715012213;-0.9341;0.7394;-1.0582;
3100564725119973;-11.3713;1.4746;-2.5122;
3100564735225546;-16.0188;-0.0849;-2.0282;
3100564745333359;-6.5420;0.6529;0.3817;
3100564755441119;-6.1780;0.5907;-6.4289;
3100564765557838;-15.1660;0.3081;-6.4528;
3100564775665598;-7.1435;0.1140;1.6415;
3100564785773411;-7.9193;0.0637;-0.9287;
3100564795888984;-10.6720;0.1331;-5.2286;
3100564805996744;-10.0250;1.1871;-3.4585;
3100564816104557;-11.0719;-0.4107;-2.0450;
3100564826213150;-5.1359;1.0579;0.5683;
3100564836320911;-8.5376;0.5835;-2.8092;
3100564846428723;-13.6185;1.6448;-5.8708;
3100564856519504;-8.0441;0.5907;-1.6451;
3100564866627265;-11.4171;0.7104;-0.3993;
3100564876735077;-13.3980;-0.3413;-2.0474;
3100564886841379;-7.3469;1.3813;0.2713;
3100564896949140;-2.2229;-0.4777;-3.3984;
3100564907056952;-12.6841;1.0340;-6.5031;
3100564917169400;-13.7668;0.9954;-2.9124;
3100564927277213;-10.6146;0.5429;0.6906;
3100564937384973;-5.9264;-0.7460;-0.3060;
3100564947506692;-6.0703;0.8207;-4.6178;
3100564957614452;-11.0384;1.2927;-6.1750;
3100564967722265;-1.0875;0.1810;-1.6403;
3100564977824296;-18.2632;0.6912;-5.2621;
3100564987932057;-25.7228;-0.4896;-3.3553;
3100564998039869;2.4529;-1.9941;3.5339;
3100565008135859;-3.6748;-0.0033;0.3936;
3100565018243671;-13.0026;0.8997;-5.9378;
3100565028351432;-10.3678;-0.3700;-3.7460;
3100565038464088;-6.2043;0.3200;-2.4260;
3100565048571848;-10.2622;0.4493;-4.4381;
3100565058679661;-15.0820;-0.3604;0.0078;
3100565068805286;-6.9733;0.6840;1.0403;
3100565078913046;-1.9044;-0.0826;0.6882;
3100565089020859;-6.0509;1.6591;-13.3376;
3100565099111275;-23.0399;-0.2213;-13.8431;
3100565109219036;-2.6518;-0.6431;8.8424;
3100565119326848;-7.9675;-0.5040;1.1530;
3100565129445025;-15.9084;-1.4767;-8.7838;
3100565139552786;-10.7892;0.2028;3.2871;
3100565149660598;-7.1267;-0.3314;4.1043;
3100565159775650;-4.0555;-1.5508;-5.0635;
3100565169883411;-14.4521;0.8710;-8.1583;
3100565179991223;-9.4430;0.8949;0.2354;
3100565190088515;-4.1441;-0.6622;1.0810;
3100565200196275;-12.9284;0.5094;-7.7871;
3100565210304088;-12.3177;0.9547;-2.7948;
3100565220413254;1.5332;0.3727;2.4057;
3100565230521015;-9.6251;-0.0009;-11.2128;
3100565240628827;-23.1524;-0.1735;-7.8757;
3100565250746275;-10.6457;-0.7555;6.0182;
3100565260854036;-0.9942;-3.3188;-0.4496;
3100565270961848;-7.1698;-0.6814;-5.2167;
3100565281067682;-19.4154;1.4339;-0.8593;
3100565291175442;-6.6212;-1.2586;-0.5145;
3100565301283254;-4.3980;-0.5351;-3.5782;
3100565311384088;-10.4276;1.2278;-2.4165;
3100565321491848;-8.1254;1.9442;-1.0319;
3100565331599661;-9.3999;-1.0454;-5.5137;
3100565341661848;-14.3369;-0.0296;-5.9833;
3100565351769609;4.0196;0.2554;-3.6981;
3100565361877421;1.8015;1.2637;-7.9044;
3100565372031171;-22.4339;1.9202;-7.4734;
3100565382138932;-17.7386;0.6290;0.8581;
3100565392246744;-10.2335;-3.1534;-0.4570;
3100565402347525;-8.9136;-1.6250;4.8996;
3100565412455286;-7.6896;-0.8656;7.1369;
3100565422563098;-16.3780;-0.4418;-3.4274;
3100565432678932;-10.1330;0.9643;-2.9722;
3100565442786692;1.0756;1.3334;-3.9640;
3100565452894504;-9.3927;0.3200;-7.7010;
3100565462995754;-16.4067;3.1202;1.2703;
3100565473103515;-7.5338;1.5419;7.5200;
3100565483211327;-11.0408;-0.4011;-7.0373;
3100565493310963;-10.8757;2.2747;-8.9704;
3100565503418775;-7.3851;2.6821;-1.8105;
3100565513526536;-8.1852;-0.8273;-3.5949;
3100565523647421;-8.2837;-1.1219;-7.1306;
3100565533755234;-11.4314;-0.2500;-6.9153;
3100565543862994;-13.9202;0.0565;2.6668;
3100565553946067;-5.8092;-0.7436;7.4028;
3100565564053827;-2.9704;-1.6370;-4.0693;
3100565574161588;-10.3439;3.2139;-8.6614;
3100565584281744;-5.6103;3.7122;-3.5088;
3100565594389504;-9.4071;0.0159;-4.8503;
3100565604497265;-9.5749;0.4878;-1.1683;
3100565614584088;-9.0000;1.1177;0.9302;
3100565624691848;-7.3974;0.5046;-3.7484;
3100565634799609;4.3095;0.4926;-1.3504;
3100565644923463;6.5327;2.0207;-2.9219;
3100565655031223;-49.5413;4.4931;-5.2119;
3100565665138984;-75.2641;2.5741;16.8195;
3100565675274296;11.8170;-15.2291;26.3178;
3100565685382057;40.5871;-15.6652;20.1275;
3100565695489817;-11.1703;-0.2213;5.6515;
3100565705579192;-35.2929;9.1977;-24.0479;
3100565715686952;-3.7753;7.3316;-18.4950;
3100565725794713;16.4907;4.6487;-12.1158;
3100565735894504;-26.9471;8.0647;-6.8794;
3100565746002265;-13.6543;6.3063;18.4914;
3100565756110025;15.3601;-6.7035;19.6822;
3100565766220650;2.1248;-6.8498;-27.9906;
3100565776328411;-34.0017;11.8591;-69.9144;
3100565786436171;-28.9448;10.9155;-18.3751;
3100565796543359;23.3393;-7.1707;44.0109;
3100565806651119;6.7457;-9.1038;5.5845;
3100565816758879;-43.4112;4.0618;-27.6147;
3100565826876379;-24.3909;4.4378;4.2933;
3100565836984140;12.5070;-5.5633;29.1802;
3100565847091900;7.3687;-5.6614;2.8178;
3100565857199921;-35.9587;3.6688;-31.4163;
3100565867307682;-21.9571;9.5859;3.7950;
3100565877415442;12.9165;-1.4934;26.9333;
3100565887517838;-7.3277;-6.2797;-2.3085;
3100565897625598;-25.0137;6.7161;-11.8786;
3100565907733359;-1.6887;8.1915;6.9212;
3100565917845859;6.3362;-3.3571;-4.3065;
3100565927953619;-19.3866;-0.9808;-23.4969;
3100565938061379;-21.2934;5.6548;-3.4777;
3100565948176796;5.1048;-4.0373;7.6783;
3100565958284557;-0.0742;-4.0926;-13.5772;
3100565968392317;-8.6979;1.8843;-14.7628;
3100565978501171;-8.8729;-0.6431;-0.2844;
3100565988608932;-0.7017;-5.1730;-4.1530;
3100565998716692;-1.8781;-1.4408;-7.9403;
3100566008827004;-47.2630;0.9188;2.5376;
3100566018934765;-34.2652;-7.3863;15.2504;
3100566029042525;12.4448;-10.9699;17.7826;
3100566039158775;1.1521;-4.1548;4.2574;
3100566049266536;-21.4062;3.4989;-6.9799;
3100566059374296;-12.1642;2.9527;-6.2180;
3100566069470442;-3.4591;0.6960;-0.3251;
3100566079578202;-8.8155;-0.2261;0.8605;
3100566089685963;-4.8676;1.0771;-0.9526;
3100566099789817;-11.4912;1.5754;-0.4400;
3100566109897577;-4.3645;0.6218;0.7504;
3100566120005338;5.8307;0.2363;-17.4625;
3100566130123879;-25.5550;-0.2596;-38.1835;
3100566140231640;-21.5665;1.5129;-7.7082;
3100566150339400;5.4209;-0.6072;17.2050;
3100566160435234;1.1498;-4.3753;-2.6297;
3100566170542994;-17.3530;-1.6609;-8.4697;
3100566180650754;-17.4727;0.2506;4.4013;
3100566190759192;-15.4630;0.4926;13.6334;
3100566200866952;-6.0894;-2.1090;6.1738;
3100566210974713;-9.9509;-0.1711;-6.0550;
3100566221095129;-14.3731;1.9801;-0.8282;
3100566231202890;-8.1159;5.6261;5.6803;
3100566241310650;-0.2611;1.9681;-4.5676;
3100566251412629;-7.6152;1.6328;-11.7900;
3100566261520390;-6.0341;6.8596;-6.8169;
3100566271628150;-21.1714;5.8199;-2.0907;
3100566281738359;-18.6897;-0.1113;2.0489;
3100566291846119;4.1922;-2.4108;6.4397;
3100566301953879;-6.3215;0.4684;-8.2352;
3100566312057942;-21.8396;3.1588;-9.7011;
3100566322165702;-6.8486;0.7705;3.2608;
3100566332273463;-3.3559;-2.9043;-0.7325;
3100566342365859;-10.1498;-0.5782;-7.8015;
3100566352473619;-11.6420;0.9547;-1.0965;
3100566362581379;-9.7161;-0.2189;5.7260;
3100566372713150;-7.2535;-1.0095;4.3412;
3100566382820911;-5.9240;1.2784;-5.9641;
3100566392928671;-15.0461;2.9192;-11.3133;
3100566403031379;-9.9006;2.0040;0.1708;
3100566413139140;-5.8881;0.4038;4.0202;
3100566423246900;-10.4563;-0.1328;-7.2888;
3100566433368463;-12.3799;1.7357;-3.8776;
3100566443476223;-8.3865;0.9260;1.9241;
3100566453583984;-9.3664;-1.8000;-2.1864;
3100566463676484;-11.3713;-0.9257;0.5133;
3100566473784296;-7.7064;0.8327;2.8322;
3100566483892004;-8.1948;-1.1773;-3.3147;
3100566493994713;-12.2650;0.1451;-2.7422;
3100566504102473;-8.9399;-0.0730;-0.0473;
3100566514210234;-7.2607;-0.5231;-1.2042;
3100566524305442;-7.6992;0.1355;-2.2271;
3100566534413202;-11.3569;0.4564;-4.7183;
3100566544520963;-14.3441;-1.0190;-3.3745;
3100566554637317;-5.7491;-1.2849;-0.9574;
3100566564745286;-6.0918;-0.5949;-3.3171;
3100566574853254;-16.7782;-0.9760;-3.6957;
3100566584976744;-3.9287;-0.8827;0.1325;
3100566595084713;-7.2464;-0.1208;-3.6909;
3100566605192629;-14.7251;-0.3242;-3.3673;
3100566615264817;-7.9962;-0.4083;-1.3959;
3100566625372786;-8.7242;-1.6107;-2.6895;
3100566635480702;-12.6338;-0.1639;0.7146;
3100566645618879;-6.9637;-0.3123;0.7169;
3100566655726848;-8.6189;-0.3218;-6.0503;
3100566665834817;-9.9245;-0.1735;-5.3486;
3100566675950338;-12.8231;0.1092;2.0154;
3100566686058307;-13.8051;-1.1509;0.1469;
3100566696166223;-11.7954;-1.7976;-2.2439;
3100566706272525;-3.6867;-1.3232;1.2535;
3100566716380494;-7.3014;0.1044;-0.9144;
3100566726488463;-12.4110;0.2291;-7.2147;
3100566736576171;-11.8863;0.3727;-1.4366;
3100566746684140;-6.1229;0.1068;1.1408;
3100566756792057;-7.8547;-0.6837;-5.5065;
3100566766906379;-9.9317;1.0986;-4.6825;
3100566777014348;-9.8312;1.0819;0.2952;
3100566787122265;-10.6457;-0.7699;1.2464;
3100566797227525;-5.0210;-0.7842;-5.3103;
3100566807335494;-12.2195;0.5620;-9.5599;
3100566817443411;-18.8548;1.3549;2.9279;
3100566827544088;-6.3168;-3.8554;7.3621;
3100566837652057;-5.0713;-3.0505;-4.2371;
3100566847759973;-11.4553;2.8929;-2.0474;
3100566857880963;-8.0776;0.0685;-0.7226;
3100566867988932;-11.2540;-0.1998;-5.6886;
3100566878096848;-9.2922;1.5682;-0.4857;
3100566888207109;-8.8705;0.1499;2.1206;
3100566898315077;-11.2684;0.3296;-2.6465;
3100566908422994;-8.9231;2.1957;-4.8096;
3100566918535859;-8.1876;1.1943;-1.3768;
3100566928643827;-5.7924;1.1632;-0.7828;
3100566938751796;-11.2995;-0.3314;-7.9932;
3100566948863463;-13.0316;1.0316;-4.7207;
3100566958971432;-9.2345;0.0661;3.9676;
3100566969079348;-5.7347;-0.9209;-1.4198;
3100566979187109;-13.3406;0.6123;-6.2994;
3100566989295077;-8.9136;0.4564;1.1192;
3100566999402994;-6.9924;-0.1400;1.0834;
3100567009506588;-9.0718;-0.0440;-4.7183;
3100567019614557;-10.6672;1.1465;-5.5499;
3100567029722473;-11.6877;-0.0754;0.8581;
3100567039815963;-11.4960;-0.0176;1.7542;
3100567049923932;-10.3846;0.3607;-3.4944;
3100567060031848;-6.4558;0.3727;-1.1204;
3100567070141796;0.6227;0.4421;-2.6752;
3100567080249765;-16.8452;0.4684;-8.5513;
3100567090357682;-19.3771;2.1957;0.5396;
3100567100463359;-2.3213;-0.9281;1.3804;
3100567110571327;-7.1722;-1.2299;-5.7652;
3100567120679244;-11.0815;0.9260;1.4043;
3100567130791432;-11.7858;-0.7292;-0.4256;
3100567140899400;-9.8575;-0.4896;-4.0143;
3100567151007317;-5.2316;-0.4968;0.1516;
3100567161119192;-7.6896;-1.1773;-3.8034;
3100567171227161;-16.0140;0.6673;-5.0515;
3100567181335129;-12.9212;-1.2562;1.2248;
3100567191431171;-3.4831;-1.2347;1.7136;
3100567201539140;-7.5003;-0.5590;-2.9315;
3100567211647057;-9.9628;1.0412;-7.5021;
3100567221763567;-10.2048;-0.0176;-1.2114;
3100567231871536;-12.4807;-0.8584;1.9579;
3100567241979452;-13.5440;-0.0392;-2.6082;
3100567252089088;-6.5925;-0.7723;-4.0860;
3100567262197057;-6.2641;-0.9209;-0.4881;
3100567272304973;-10.6552;-0.3580;1.4163;
3100567282408984;-7.2823;-0.5471;-3.4107;
3100567292516952;-8.3483;-0.0009;-5.6121;
3100567302624869;-12.1187;0.6912;-4.5102;
3100567312730859;-10.9929;-0.0176;1.7255;
3100567322838827;-6.5348;-1.0884;-1.1300;
3100567332946744;-13.9944;-0.2357;-4.9292;
3100567343054765;-7.9002;1.6854;2.9662;
3100567353162734;-3.4113;-0.1328;-1.2882;
3100567363270650;-10.9331;-0.8970;-9.7968;
3100567373369921;-12.2985;0.3105;-3.0057;
3100567383477890;-6.6571;0.5357;4.1952;
3100567393585859;-8.1254;-2.1401;-2.8693;
3100567403694817;-12.7466;0.4974;-7.1115;
3100567413802786;-9.3903;1.3789;1.9169;
3100567423910702;-7.0738;-0.4226;1.2392;
3100567434045390;-12.7609;-0.1208;-5.0707;
3100567444153359;-12.3799;1.0819;-1.5326;
3100567454261327;-5.0545;-0.0511;0.2880;
3100567464338984;-7.2942;-0.0200;-2.9195;
3100567474446952;-8.7218;-0.0873;-4.3519;
3100567484554869;-10.7246;-0.0416;-0.8593;
3100567494697734;-9.1292;0.4612;0.5252;
3100567504805702;-13.7429;-0.1472;-2.7972;
3100567514913671;-4.0962;0.0589;-4.5054;
3100567525013984;-21.2216;0.1235;0.9494;
3100567535121952;-13.6472;-0.1998;3.0526;
3100567545229921;-0.2779;-0.2692;-0.8593;
3100567555333046;-2.5582;-0.4274;-5.4443;
3100567565441015;-14.6629;0.6529;-7.1306;
3100567575548984;-15.0461;1.5320;-0.1047;
3100567585654504;-11.5965;-2.4108;1.2081;
3100567595762473;-13.2398;0.3224;-1.8057;
3100567605870442;-2.8241;2.3273;-0.3108;
3100567615961796;0.5557;-0.1854;-1.5805;
3100567626069765;-10.3292;1.1273;-8.0985;
3100567636177734;-13.9514;0.8997;-6.8384;
3100567646288671;13.1895;-0.8177;-4.1722;
3100567656396640;-53.0698;-2.6504;-9.5886;
3100567666504609;-53.3166;-3.4528;10.8763;
3100567676613515;22.1082;-4.1907;11.8849;
3100567686721484;19.5616;-0.2835;3.9987;
3100567696829452;-8.8179;0.2028;0.8103;
3100567706935859;-18.6682;5.1446;-3.0535;
3100567717043827;-8.7939;0.9188;-8.0052;
3100567727151796;-4.4028;-0.6646;-9.8545;
3100567737265859;-9.3975;2.9838;-3.8225;
3100567747373827;-8.0489;2.0976;1.6128;
3100567757481796;0.6470;1.5562;-7.8829;
3100567767581588;-17.9519;2.3492;-1.6666;
3100567777689557;4.5945;2.2531;7.8532;
3100567787797525;1.5476;-2.1138;-28.1417;
3100567797895650;-34.7803;-2.9163;-22.0642;
3100567808003619;-8.4706;-2.8086;22.5927;
3100567818111588;6.5303;-4.8829;10.6582;
3100567828241900;-15.6425;-1.6394;-4.4022;
3100567838349869;-29.6181;5.2956;9.1971;
3100567848457838;-38.5053;6.5124;16.4842;
3100567858552838;-9.5605;0.8710;8.3850;
3100567868660807;5.6821;-2.1951;13.0370;
3100567878768775;-2.2995;2.2196;14.1437;
3100567888883254;-19.3771;5.6453;7.8099;
3100567898991223;-10.0466;4.5673;-9.2387;
3100567909099192;-11.5846;0.0996;-11.6940;
3100567919214192;-2.0459;0.9452;-3.3314;
3100567929322161;36.6033;-1.2371;-8.4027;
3100567939430129;11.0264;0.6769;-19.1369;
3100567949521379;-56.4308;4.5673;-6.7977;
3100567959629348;-49.2706;-2.9617;1.3421;
3100567969737317;9.5246;-3.8578;-21.1923;
3100567979871379;16.6893;-0.5255;-12.4654;
3100567989979348;0.3185;-3.0194;3.4693;
3100568000087317;-15.0796;-0.7771;6.8399;
3100568010173254;-21.5187;0.2698;1.5362;
3100568020281223;-43.3227;-0.9879;-2.1147;
3100568030389192;-2.3668;-2.7102;0.6066;
3100568040492421;23.9166;-4.8685;19.1193;
3100568050600390;-5.8235;-2.4395;6.8279;
3100568060708359;-34.4976;8.8098;3.5387;
3100568070841119;6.9039;6.3206;21.0117;
3100568080949088;22.1632;-5.7838;-18.2267;
3100568091057057;-37.0415;4.0929;-45.9739;
3100568101137682;-28.8371;7.0944;-4.6155;
3100568111245650;-24.7549;-5.6590;24.9521;
3100568121353619;-30.1570;-10.6155;-1.6164;
3100568131481900;1.6193;-1.0358;-11.9865;
3100568141589869;5.6964;-4.3223;22.6765;
3100568151697838;1.9187;-2.3151;15.2551;
3100568161803515;-19.3962;1.4124;-24.3688;
3100568171911484;-20.0743;-0.4322;-10.3358;
3100568182019452;10.2912;0.5740;15.2934;
3100568192120754;7.9005;0.6410;-1.6786;
3100568202228723;-23.5262;5.7362;-19.5778;
3100568212336692;-45.5384;7.5736;-5.7652;
3100568222439817;-10.0370;-0.2094;10.9122;
3100568232547786;21.4804;-3.9009;6.2288;
3100568242655754;4.9253;0.5213;-0.7971;
3100568252760129;-22.6974;2.6462;-26.3785;
3100568262868098;-35.5182;0.5883;-27.9906;
3100568272976067;-5.4425;-5.4820;10.9098;
3100568283088984;17.0154;-8.2893;11.2881;
3100568293196952;-7.9914;-2.6862;-12.1421;
3100568303304921;-29.3112;1.6232;-3.2788;
3100568313412577;-16.3182;0.4038;18.1825;
3100568323520494;6.0966;-1.0789;13.0992;
3100568333628463;-1.9068;0.5118;-4.7402;
3100568343722004;-21.0565;4.3636;-6.8025;
3100568353829973;-13.7046;3.1612;-5.8325;
3100568363937942;-9.8264;-1.4480;-7.7704;
3100568374120442;-7.0618;-1.9053;0.6476;
3100568384228359;0.5127;-0.1089;5.9486;
3100568394336327;-11.5822;0.0230;-9.5647;
3100568404372109;-21.6051;-0.1759;-5.7580;
3100568414480129;-9.2803;0.4998;9.3383;
3100568424588046;-0.0885;-0.7196;4.5162;
3100568434716692;-12.2049;-0.3843;-5.4108;
3100568444824661;-14.5932;1.7261;3.9389;
3100568454932629;-6.1134;0.5740;6.7295;
3100568465021796;-8.6285;0.6218;-7.5858;
3100568475129765;-13.4100;1.5033;-3.9159;
3100568485237734;-6.5372;0.4759;4.7821;
3100568495331744;-6.2976;0.9356;-3.2070;
3100568505439713;-8.9040;0.5812;-7.3678;
3100568515547682;-15.2522;1.0077;0.4008;
3100568525701275;-11.7739;1.6328;2.5807;
3100568535809244;-7.4429;-0.0778;-1.5805;
3100568545917213;-9.7711;0.0230;-2.7494;
3100568555991900;-7.5434;0.7394;1.4931;
3100568566099817;-9.1484;0.7370;-1.1683;
3100568576207734;-13.9274;0.3440;-4.0502;
3100568586315859;-8.7218;0.1810;0.4558;
3100568596423775;-3.6410;0.0111;-0.2964;
3100568606531692;-10.6289;0.8710;-6.3425;
3100568616641692;-9.6634;0.5620;-3.9111;
3100568626749609;-1.2529;0.2506;0.3191;
3100568636857525;-23.0016;1.1560;-2.3806;
3100568646964296;-21.9165;0.3511;1.0092;
3100568657072213;1.6983;-1.4049;4.9355;
3100568667180129;2.9871;-1.7234;-0.9936;
3100568677306275;-11.6587;1.9657;-6.9033;
3100568687414192;-17.2762;2.5549;-3.6814;
3100568697522109;-14.5884;-0.1998;-0.5049;
3100568707613254;-7.3253;-2.5116;-2.2845;
3100568717721171;-4.2520;-1.1219;-0.8928;
3100568727829088;-6.5973;-0.7890;-0.3682;
3100568737943359;-12.5046;0.2339;-4.2251;
3100568748051275;-14.6653;0.3129;-3.6981;
3100568758159192;-8.0800;0.2459;0.3840;
3100568768270442;-6.9374;-0.7364;0.9685;
3100568778378359;-7.5242;0.5859;2.8035;
3100568788486275;-4.9202;0.8088;-1.5132;
3100568798590129;-17.2211;0.6266;-14.9282;
3100568808698046;-18.7520;0.8758;-3.5064;
3100568818805963;-3.4902;-1.8024;11.6333;
3100568828930338;-4.3047;-3.8025;0.9972;
3100568839038254;-13.0122;1.0651;-6.5844;
3100568849146171;-12.1427;2.2603;-3.0751;
3100568859236171;-10.3893;-1.5628;0.9087;
3100568869344088;-4.8604;-0.3051;0.0604;
3100568879452004;-8.8753;0.1187;-4.2921;
3100568889561692;-13.4507;1.7213;-3.4131;
3100568899669609;-8.6812;0.9500;-0.4714;
3100568909777525;-9.2874;-0.3700;-3.2740;
3100568919894504;-10.2814;1.3884;-1.7216;
3100568930002421;-6.5276;0.7032;0.8462;
3100568940110338;-8.9973;0.2530;-1.8990;
3100568950202629;-13.0002;1.7859;-2.7805;
3100568960310546;-12.0924;1.6017;0.0126;
3100568970418463;-10.8972;-0.6024;-0.6006;
3100568980525650;-8.3554;-0.0921;-1.8105;
3100568990633567;-7.5984;-0.2189;-1.0941;
3100569000741484;-10.5903;0.5381;-0.2916;
3100569010852317;-9.8169;0.8495;-0.1358;
3100569020960234;-6.9948;0.5979;-3.3147;
3100569031068150;-10.4181;1.0866;-5.1927;
3100569041178359;-10.3558;2.2101;0.2737;
3100569051286275;-7.2775;1.2206;1.1480;
3100569061394192;-10.3678;1.5057;-4.3232;
3100569071495546;-10.7629;1.6065;-1.0726;
3100569081603463;-12.0398;1.4722;2.0512;
3100569091711379;6.1158;0.7657;-3.0392;
3100569101820129;-4.3884;1.1201;-5.3749;
3100569111928046;-29.1700;3.4101;-0.3562;
3100569122035963;-19.8227;2.3970;4.3388;
3100569132142109;-1.7007;-2.3533;-2.3686;
3100569142250025;-0.0550;-2.5786;-2.1625;
3100569152357942;-9.3090;0.0709;5.0288;
3100569162467525;-11.7930;1.0699;1.0977;
3100569172575442;-7.0546;-0.2477;-6.7164;
3100569182683359;-7.8045;0.8423;-4.9364;
3100569192801588;-9.3473;1.9059;1.3062;
3100569202909504;-8.8848;1.2422;1.4955;
3100569213017421;-12.3009;0.9380;-3.8369;
3100569223108046;-14.5119;1.8150;-0.9215;
3100569233215963;-7.1435;-0.1639;2.5711;
3100569243323879;-9.6299;-1.0884;-0.5791;
3100569253440598;-17.3315;1.0292;1.8595;
3100569263548463;-10.0609;2.1670;14.0121;
3100569273656379;1.2577;-1.5532;3.5677;
3100569283756900;-21.8901;-0.4633;-13.6920;
3100569293864817;-23.3058;3.8844;-3.4513;
3100569303972682;-1.6816;-3.0769;9.6281;
3100569314088359;-2.7715;-4.1309;1.9313;
3100569324196275;-14.4903;2.0952;-6.2085;
3100569334304192;-18.0260;1.0866;-4.1219;
3100569344389713;-9.1866;2.6940;1.8500;
3100569354497629;-1.8278;0.5189;2.8920;
3100569364605546;-10.0298;1.1656;-2.5146;
3100569374770963;-12.3966;3.6162;-1.3816;
3100569384878879;-5.7924;1.5129;-2.1027;
3100569394986796;-9.9652;0.3033;-4.8598;
3100569405058463;-11.6516;2.1215;-2.8546;
3100569415166379;-4.1680;0.4831;-1.1539;
3100569425274296;-10.0202;-0.0631;-5.1329;
3100569435386067;-13.9920;0.8495;-3.7890;
3100569445493984;-11.3402;-1.7833;-2.7757;
3100569455601900;-10.7246;-1.7139;-2.2941;
3100569465724088;-10.3244;-2.5068;0.6500;
3100569475832004;-9.4214;-3.3117;2.0536;
3100569485939921;-10.2024;-1.9029;-0.3754;
3100569496023879;-11.5606;-1.7234;-1.4366;
3100569506131796;-9.8934;-1.8000;-1.0558;
3100569516239713;-12.6266;-1.7234;-1.3169;
3100569526347421;-9.2321;-0.0826;0.9709;
3100569536443515;-8.7147;-1.2203;-0.9072;
3100569546551379;-14.2196;0.7008;-2.6465;
3100569556659296;-9.0885;0.8351;1.2607;
3100569566767213;-5.7730;-0.8010;1.1192;
3100569576891796;-10.3149;0.3176;-2.7470;
3100569586999713;-11.9151;0.9284;-2.0883;
3100569597107629;-9.6849;0.2889;0.6811;
3100569607207004;-7.9986;0.3129;-0.3945;
3100569617314921;-10.0828;-0.1783;-2.9985;
3100569627422838;-10.9307;0.0685;-1.2619;
3100569637536275;-8.6381;-0.9616;0.8079;
3100569647644192;-8.9231;-0.7603;-1.5494;
3100569657752109;-10.7940;-0.1711;-3.5375;
3100569667859921;-11.8600;0.4783;-1.0774;
3100569677967838;-9.0311;0.4038;0.5563;
3100569688075754;-9.6060;0.5429;-1.0869;
3100569698193463;-11.9222;1.4387;-1.4605;
3100569708301379;-8.9542;0.2243;2.0201;
3100569718409296;-9.2608;0.6697;-0.2462;
3100569728506796;-11.5750;2.4568;-2.7374;
3100569738614713;-11.9031;1.4841;-1.1563;
3100569748722629;-7.5697;0.9117;-0.9407;
3100569758835963;-7.3684;1.4195;-1.9636;
3100569768943879;-11.1488;1.3478;-1.5661;
3100569779051796;-10.0681;1.8628;-2.0139;
3100569789157213;-8.2167;-0.4490;-3.4753;
3100569799265129;-10.7222;0.6218;-2.0258;
3100569809373046;-11.1512;1.5296;-0.1454;
3100569819481067;-7.9843;-0.9018;-0.6413;
3100569829588984;-7.6176;-1.1219;-1.3528;
3100569839696900;-12.5548;0.3272;-1.7025;
3100569849807109;-12.5333;-0.2070;-0.0568;
3100569859915025;-7.0953;-0.9257;1.0379;
3100569870022942;-9.2321;-0.7077;-0.8426;
3100569880147942;-12.6458;0.1355;-0.3084;
3100569890255859;-9.1627;-1.1557;1.1865;
3100569900363775;-6.4726;-0.8297;-1.0104;
3100569910463775;-10.3005;-0.4848;-2.9530;
3100569920571692;-8.9518;-0.0248;-2.4858;
3100569930679609;-9.6443;-0.6861;-2.3133;
3100569940748150;-13.6376;0.1427;-1.8703;
3100569950856067;-12.2148;0.6410;-0.3132;
3100569960963984;-8.3339;-1.3567;-0.0377;
3100569971107942;-7.9388;-1.7474;0.6619;
3100569981215859;-8.4416;-0.2644;1.0116;
3100569991323775;-10.6098;0.3129;-1.1755;
3100570001427317;-10.4252;0.3488;-1.2763;
3100570011535234;-11.9991;-0.0826;-2.2152;
3100570021643150;-10.5329;-0.9616;-2.1984;
3100570031756067;-7.7495;-0.2572;-0.1717;
3100570041863984;-7.4213;0.3081;-1.2544;
3100570051971900;-11.4362;0.7753;-2.7302;
3100570062089609;-10.6744;-0.0129;-0.4810;
3100570072197525;-8.5615;-0.0176;-1.7838;
3100570082305442;-10.1593;0.7490;-2.6728;
3100570092395598;-10.4850;0.2626;0.0942;
3100570102503515;-7.9531;-0.7460;-0.0401;
3100570112611432;-10.1833;1.1082;-1.1587;
3100570122715754;-12.0541;1.7022;-0.5503;
3100570132823671;-9.5510;0.5213;1.7734;
3100570142931588;-6.8510;0.5189;-0.2605;
3100570153040338;-7.7231;0.9117;-3.2166;
3100570163148254;-13.8891;1.9370;-4.6872;
3100570173256171;-12.0015;0.9595;-1.2257;
3100570183356536;-6.2904;0.2363;0.5228;
3100570193464452;-10.5377;0.1618;-2.8068;
3100570203572369;-10.6337;0.6218;-1.7169;
3100570213685859;-7.2607;0.4783;-1.8272;
3100570223793775;-10.3654;1.1154;-2.9698;
3100570233901692;-10.1354;1.0149;-1.5350;
3100570244024296;-8.0871;-0.4561;0.7504;
3100570254132265;-9.1795;1.3765;-1.2739;
3100570264240129;-8.0943;1.3334;-2.1721;
3100570274353984;-10.7677;1.1010;-3.0176;
3100570284461900;-11.9342;1.6615;-1.8679;
3100570294569817;-8.5950;2.1120;-0.5097;
3100570304685025;-7.6872;-1.2610;-0.9598;
3100570314792942;-11.5032;0.4783;-1.7862;
3100570324900859;-10.9810;0.7418;-1.4390;
3100570334996171;-10.6265;-1.0908;-0.7684;
3100570345104088;-10.9211;-0.8850;-0.9000;
3100570355212004;-8.5280;-1.3304;-1.1707;
3100570365321484;-11.6806;-0.9138;-3.7842;
3100570375429400;-11.4673;-0.9951;1.3493;
3100570385537317;-5.5337;-1.8455;1.5075;
3100570395647213;-11.6324;-1.5293;-6.9416;
3100570405755129;-12.7896;1.4076;-3.0942;
3100570415863046;-6.6428;-0.2883;0.3505;
3100570425971379;-8.1637;-1.6851;-3.2955;
3100570436079296;-10.1210;1.3286;-5.1018;
3100570446187213;-8.4129;0.1092;-2.0644;
3100570456276588;-7.8978;0.4516;-0.1358;
3100570466384504;-8.8107;0.3248;-2.7470;
3100570476492421;-11.8816;0.1905;-4.1554;
3100570486615546;-9.5629;1.2903;-0.8330;
3100570496723463;-7.2177;-0.1376;-0.0233;
3100570506831379;-12.0589;-0.9616;-3.7101;
3100570516923515;-8.3195;0.0374;-2.9004;
3100570527031432;-8.9064;-0.1352;-0.8737;
3100570537139348;-12.8973;-0.7101;-1.6499;
3100570547242004;-10.7868;-0.6574;-2.5193;
3100570557349921;-6.4750;-1.1004;-1.2715;
3100570567457890;-9.4956;-1.3567;-3.9616;
3100570577578671;-15.8486;-0.5136;-3.6165;
3100570587686640;-12.1690;-0.6311;1.1841;
3100570597794557;-9.2369;-1.1052;-0.7035;
3100570607878098;-7.4070;-0.8369;-2.4212;
3100570617986015;-7.5386;-0.3796;-2.4763;
3100570628093984;-12.2243;-0.2548;-4.0765;
3100570638219296;-14.9432;1.8628;-0.7947;
3100570648327213;-10.5832;1.1943;2.9542;
3100570658435182;-10.3846;0.5381;1.2751;
3100570668532109;-9.6275;1.4459;-0.4738;
3100570678640025;-8.4320;1.4004;-0.4738;
3100570688747994;-9.6299;1.5562;-1.5227;
3100570698867004;-16.2942;3.8366;-1.6331;
3100570708974921;-8.6477;2.5238;0.0197;
3100570719082890;-1.0301;0.6936;-1.5685;
3100570729192525;-7.2129;2.1933;-7.1883;
3100570739300442;-16.8284;4.8858;-4.1985;
3100570749408411;-7.5003;2.8905;0.1277;
3100570759524192;-4.0220;0.6912;-4.1411;
3100570769632109;-7.7806;2.0734;-6.4337;
3100570779740077;-11.4960;3.4005;-2.5768;
3100570789842525;-10.6959;2.4760;-1.8727;
3100570799950442;-9.1149;1.6065;-2.4667;
3100570810058359;-7.8882;0.8183;-2.7254;
3100570820161588;-10.1952;0.4660;-3.7053;
3100570830269504;-11.6683;1.0675;-2.3734;
3100570840377473;-11.8409;0.5309;0.7504;
3100570850474713;-8.3387;0.1020;1.6343;
3100570860582629;-5.5337;0.6673;-1.9038;
3100570870690598;-11.6420;1.4435;-5.4419;
3100570880803567;-10.3893;2.0590;-1.0343;
3100570890911536;-4.4773;0.5285;-2.2798;
3100570901019452;-11.1341;2.4018;-6.4098;
3100570911125442;-9.1962;2.4712;-2.1553;
3100570921233359;-10.5185;0.7152;-3.8608;
3100570931341327;-9.0191;1.0914;-2.9291;
3100570941452734;-8.6094;0.1475;0.9613;
3100570951560702;-13.9920;1.2111;0.2761;
3100570961668619;-10.5736;0.5381;0.6138;
3100570971779296;-9.4549;-2.1018;0.2809;
3100570981887213;-8.2765;-0.7699;0.8847;
3100570991995182;-9.1412;-0.7053;0.7672;
3100571002107004;-9.1675;-0.2118;-0.6676;
3100571012214973;-9.1101;0.7247;-1.3744;
3100571022322890;-10.0466;1.1010;-2.2032;
3100571032432265;-12.3033;1.6950;-2.3997;
3100571042540182;-10.6840;1.7644;-1.8224;
3100571052648150;-6.6069;0.0876;-2.5911;
3100571062732421;-10.9427;1.5081;-2.8044;
3100571072840390;-12.6553;0.3583;-1.9014;
3100571082948307;-7.9938;-0.3413;-0.4905;
3100571093061171;-3.1932;-1.0214;-2.5122;
3100571103169088;-3.2004;-0.0105;-4.9149;
3100571113277004;-8.2837;1.3813;-3.3960;
3100571123391275;-19.1495;1.0819;-2.1290;
3100571133499244;-20.6204;1.2517;-1.3863;
3100571143607161;-9.8480;-0.7675;0.7385;
3100571153718775;-1.6816;-2.1640;2.4368;
3100571163826692;-2.9489;-0.6526;0.2689;
3100571173934609;-6.8175;1.2087;-3.1854;
3100571184009817;-7.2488;1.6998;-3.5112;
3100571194117734;-13.7620;1.7261;-5.1162;
3100571204225702;-20.9964;1.9705;-6.6206;
3100571214380442;-14.9097;1.4818;-3.6547;
3100571224488359;-1.1856;-1.0908;-0.1693;
3100571234596275;-0.2731;-0.4872;-0.9239;
3100571244709609;-3.9957;0.9165;-3.8871;
3100571254817525;-13.3837;1.7166;-5.8181;
3100571264925494;-14.9910;1.6639;-3.8824;
3100571275026275;-10.7653;1.1465;-5.2358;
3100571285134244;-3.1932;1.0316;-3.0655;
3100571295242161;-6.6691;0.6769;-2.3518;
3100571305328150;-16.9863;2.1191;-1.8057;
3100571315436067;-17.9423;1.5897;-2.7422;
3100571325543984;-12.4277;-0.1041;0.7624;
3100571335688359;-6.2043;-0.7842;2.6070;
3100571345796275;-11.8935;1.6591;3.0359;
3100571355904244;-15.8749;2.9384;4.5449;
3100571366014088;-12.9284;0.8973;4.3603;
3100571376122004;-6.4726;1.2541;0.1014;
3100571386229973;-5.8020;1.7788;-4.6250;
3100571396311171;-16.9313;1.9657;-3.5040;
3100571406419088;-14.7802;2.6052;-0.3084;
3100571416527057;-3.2578;-0.4561;-1.8846;
3100571426636848;-2.8409;1.1584;-1.4198;
3100571436744765;-11.9967;4.4737;1.6223;
3100571446852682;-11.6037;4.1719;0.9063;
3100571456969713;-7.1961;3.3431;-3.5303;
3100571467077629;-12.2674;2.2340;-4.9053;
3100571477185598;-12.7872;2.9623;0.3431;
3100571487280650;-4.8820;1.8269;0.8031;
3100571497388567;-8.0824;1.5443;-0.7995;
3100571507496536;-10.7653;1.2927;3.3497;
3100571517604817;-9.1962;2.1957;3.0526;
3100571527712734;-7.4453;0.6051;-1.1970;
3100571537820702;-13.4961;0.8638;-1.6953;
3100571547930859;-12.0063;0.1044;0.3697;
3100571558038827;-7.4812;-1.2802;0.0990;
3100571568146744;-10.3005;-1.4121;-1.1898;
3100571578252838;-8.3172;-1.6585;-1.3481;
3100571588360807;-12.0159;-2.5953;-0.7373;
3100571598468723;-10.7270;-2.9737;-2.1194;
3100571608558359;-14.4592;-4.4112;-1.3576;
3100571618666327;-10.4827;-3.9727;2.5089;
3100571628774244;-6.2976;-4.9023;3.2177;
3100571638905650;-8.8083;-2.5881;-0.6532;
3100571649013619;-16.7037;-1.0693;-1.6092;
3100571659121536;-19.9304;-0.9855;3.0885;
3100571669225234;-9.3760;-0.0440;5.7260;
3100571679333202;-4.8269;2.6052;4.3220;
3100571689441119;-6.3386;5.1254;1.4812;
3100571699545182;-6.4558;5.5110;1.6654;
3100571709653150;-9.9413;3.8892;0.2474;
3100571719761067;-11.7476;3.9012;-1.9134;
3100571729883254;-11.2660;5.0728;-2.3590;
3100571739991223;-8.9686;4.1049;-2.0859;
3100571750099140;-9.0933;4.9289;-2.3949;
3100571760205546;-9.1364;4.9600;-2.3518;
3100571770313515;-12.5118;4.4907;-1.8727;
3100571780421432;-9.5773;5.3148;0.7002;
3100571790523463;-7.8141;3.8916;0.8055;
3100571800631432;-11.2014;3.8509;0.8824;
3100571810739348;-10.7821;3.7648;2.3578;
3100571820849296;-8.9614;2.6486;1.9555;
3100571830957265;-10.3869;2.3444;2.3698;
3100571841065182;-6.8462;0.6936;4.4827;
3100571851171692;-7.7423;-1.8359;3.7519;
3100571861279661;-15.0891;-2.5379;1.7734;
3100571871387577;-15.4869;-3.1702;2.4897;
3100571881492004;-13.1489;-3.7140;2.9518;
3100571891599973;-11.6420;-2.7846;4.2287;
3100571901707890;-9.2249;-1.6394;5.1727;
3100571911808463;-7.4812;-1.0502;3.4525;
3100571921916432;-11.9198;-0.0200;2.9112;
3100571932024348;-15.3550;1.3406;5.5439;
3100571942153932;-10.2957;2.2484;6.0876;
3100571952261900;-7.7758;0.8901;2.8274;
3100571962369817;-11.0886;0.0517;1.8667;
3100571972455129;-11.6420;0.2889;3.9197;
3100571982563098;-9.2584;-0.3338;2.6477;
3100571992671015;-9.8408;-0.7962;-0.5647;
3100572002783359;-12.1259;-2.3103;-1.0199;
3100572012891327;-12.3392;-3.8073;2.1517;
3100572022999244;-9.7854;-3.6135;2.6453;
3100572033102213;-9.2683;-3.6398;-0.1525;
3100572043210182;-11.1751;-3.2300;-1.3935;
3100572053318098;-10.4085;-2.1808;-0.6365;
3100572063442421;-8.3100;-2.0563;-1.4174;
3100572073550338;-7.8547;-0.9449;-2.3686;
3100572083658254;-8.8370;0.1355;-3.0320;
3100572093750650;-9.4645;0.5405;-4.0071;
3100572103858619;-8.8418;0.3775;-3.7747;
3100572113966536;-7.6558;-0.8273;-2.4835;
3100572124076640;-9.6562;-1.2179;-3.5973;
3100572134184609;-11.5678;-0.1926;-5.3988;
3100572144292525;-8.6692;0.9212;-4.4767;
3100572154393984;-6.9613;0.2746;-4.0071;
3100572164501952;-9.6012;0.0350;-4.0813;
3100572174609869;-9.7424;0.2841;-2.9339;
3100572184737629;-8.7341;0.1786;-3.0033;
3100572194845598;-9.1173;1.0627;-4.1865;
3100572204953515;-9.3808;1.7788;-4.5963;
3100572215038775;-8.2334;1.5634;-4.0741;
3100572225146744;-8.9016;1.1847;-3.7507;
3100572235254661;-9.4908;1.3956;-3.7436;
3100572245382994;-9.7017;1.5009;-4.5030;
3100572255490963;-9.8408;1.4746;-4.2634;
3100572265598879;-7.7925;0.9619;-2.6249;
3100572275680859;-7.8571;0.9332;-2.9004;
3100572285788827;-10.3196;1.8197;-3.8656;
3100572295896744;-11.2995;1.9992;-2.8837;
3100572306031484;-11.3378;2.0809;-3.0823;
3100572316139452;-10.0370;2.1024;-3.1229;
3100572326247369;-7.6920;1.7094;-2.4188;
3100572336338098;-7.5649;0.6458;-1.9899;
3100572346446067;-8.4009;0.1044;-1.4725;
3100572356553984;-9.2106;0.1499;-2.2056;
3100572366659296;-10.3534;0.4807;-3.7819;
3100572376767265;-11.1942;0.6194;-3.2572;
3100572386875182;-10.8180;0.3009;-1.9158;
3100572396992265;-8.6357;0.2913;-1.9564;
3100572407100234;-8.7915;0.3775;-2.7159;
3100572417208150;-10.6528;0.8112;-2.5026;
3100572427358463;-9.8886;0.6218;-1.6044;
3100572437466432;-9.2201;1.0866;-1.6235;
3100572447574348;-8.4730;1.1608;-0.6126;
3100572457666067;-8.6501;1.0268;0.1158;
3100572467774036;-9.1436;0.7561;-0.5408;
3100572477881952;-9.3305;0.6601;-1.7360;
3100572487961379;-11.0934;0.7343;-2.5600;
3100572498069348;-11.8935;0.4950;-1.6187;
3100572508177265;-9.7161;0.7920;-1.0510;
3100572518271588;-9.0096;0.6242;-0.9359;
3100572528379557;-9.1675;-0.0296;-0.6293;
3100572538487473;-8.5878;0.0039;-0.3538;
3100572548606900;-9.2010;0.3918;-1.6187;
3100572558714817;-10.8538;0.3846;-1.9564;
3100572568822734;-11.1126;0.2913;-0.5958;
3100572578927838;-10.6146;0.9236;-1.0965;
3100572589035754;-9.8456;1.4219;-1.1468;
3100572599143671;-8.4945;1.7548;-0.6987;
3100572609243671;-8.1517;1.6448;-0.3610;
3100572619351588;-9.7543;2.8352;-2.9459;
3100572629459504;-9.9150;3.4367;-3.5806;
3100572639571692;-9.3353;2.2149;-1.0463;
3100572649679609;-10.0322;1.3573;-0.5623;
3100572659787525;-9.9509;0.1905;0.9733;
3100572669895025;-9.6395;-0.2070;1.7351;
3100572680002942;-8.9949;0.9643;-0.7325;
3100572690110859;-8.9925;1.2736;-0.9814;
3100572700219192;-10.5473;2.7467;-4.1387;
3100572710327109;-11.3402;2.5932;-3.3745;
3100572720435025;-9.5486;0.6386;1.2559;
3100572730553463;-8.3698;0.9906;1.2751;
3100572740661379;-8.9614;2.9575;-2.3566;
3100572750769296;-8.7652;2.3779;-1.4366;
3100572760876900;-9.5462;2.2819;-1.1994;
3100572770984817;-10.8443;2.2842;-1.9875;
3100572781092734;-10.6241;1.7118;-1.0367;
3100572791195234;-9.1173;1.7142;-0.2725;
3100572801303150;-8.7242;2.3154;-1.3026;
3100572811411067;-9.1268;2.3563;-2.0115;
3100572821517942;-9.5148;1.7046;-1.3409;
3100572831625859;-9.7424;1.5969;-1.2185;
3100572841733775;-9.7711;1.8341;-2.0210;
3100572851845963;-9.7854;2.0423;-2.2056;
3100572861953879;-9.4741;1.9681;-1.0989;
3100572872061796;-9.2249;1.8556;-0.4424;
3100572882167682;-9.7304;2.1670;-1.4725;
3100572892275598;-9.8647;2.2723;-1.6977;
3100572902383515;-9.1220;2.3707;-1.1109;
3100572912490442;-9.1555;2.3297;-1.3337;
3100572922598359;-9.6227;2.4425;-1.8727;
3100572932706275;-9.1890;2.3058;-1.3935;
3100572942824296;-9.3473;2.3249;-1.2811;
3100572952932213;-9.9915;2.7347;-1.9756;
3100572963040129;-9.6036;2.8041;-2.1505;
3100572973131379;-9.0215;2.5190;-2.1051;
3100572983239296;-9.0072;2.2890;-1.9301;
3100572993347213;-9.3018;2.0761;-1.2305;
3100573003462577;-9.7424;1.8221;-0.8928;
3100573013570442;-9.9796;1.7261;-0.9909;
3100573023678359;-9.6993;2.3201;-1.4749;
3100573033760129;-9.3042;2.7873;-2.4260;
3100573043868046;-8.8657;2.5047;-1.6307;
3100573053975963;-8.7844;1.0795;-0.9694;
3100573064138619;-9.9652;1.8676;-2.1960;
3100573074246484;-9.8121;2.2388;-1.8176;
3100573084354400;-9.4525;1.8341;-1.7575;
3100573094412004;-10.0179;1.8604;-2.8140;
3100573104519921;-9.4454;1.2494;-1.6475;
3100573114627838;-8.7700;1.1560;-0.8378;
3100573124740963;-9.2827;1.8150;-2.1697;
3100573134848879;-9.5677;1.6567;-2.3997;
3100573144956796;-9.6299;1.5419;-1.9158;
3100573155069817;-9.7902;1.7788;-2.2247;
3100573165177734;-9.5076;1.7213;-2.1888;
3100573175285702;-9.0646;1.3143;-1.9086;
3100573185402004;-9.1651;1.2422;-2.2152;
3100573195509921;-9.4669;1.1130;-2.3303;
3100573205617838;-9.7472;0.9236;-2.2295;
3100573215747942;-9.8743;0.8040;-2.1434;
3100573225855859;-9.6108;0.6027;-2.0330;
3100573235963775;-9.3114;0.9021;-2.5265;
3100573246030546;-9.0479;0.7152;-2.2128;
3100573256138463;-9.2130;0.2937;-2.0450;
3100573266246379;-9.7137;0.6482;-2.5170;
3100573276383567;-9.9796;1.9442;-2.7422;
3100573286491484;-9.4214;2.6797;-2.4739;
3100573296599400;-9.0311;1.8580;-2.2941;
3100573306689609;-9.3185;1.3382;-2.2654;
3100573316797525;-9.2731;1.3190;-1.5541;
3100573326905442;-9.3808;1.5467;-1.5203;
3100573337027004;-9.7017;1.6759;-2.3252;
3100573347134921;-9.7591;1.7381;-2.6800;
3100573357242838;-9.2946;1.7213;-2.1482;
3100573367339713;-9.0311;1.7477;-2.1051;
3100573377447629;-9.1292;1.5897;-2.4117;
3100573387555546;-9.5773;1.4937;-2.0306;
3100573397648463;-9.6395;1.5033;-1.8105;
3100573407756379;-9.5172;1.6017;-2.2463;
3100573417864296;-9.4932;1.4722;-2.2295;
3100573427984921;-9.3090;1.0675;-1.9325;
3100573438092838;-9.5219;0.6721;-1.9445;
3100573448200754;-9.8073;0.3057;-2.1410;
3100573458310963;-9.8097;0.2387;-2.1147;
3100573468418879;-9.5148;0.2052;-2.1745;
3100573478526796;-9.5414;0.0900;-2.5098;
3100573488644504;-9.5892;-0.1496;-2.6704;
3100573498752421;-9.4789;-0.1878;-2.8116;
3100573508860338;-9.4621;-0.1496;-2.9195;
3100573518968671;-9.3162;0.2578;-2.8908;
3100573529076588;-9.2584;1.2374;-2.5337;
3100573539171536;-9.3927;1.8556;-1.7743;
3100573549279452;-9.6562;2.1048;-1.4605;
3100573559387369;-9.5749;1.9848;-1.6690;
3100573569506379;-9.1771;1.9298;-2.1840;
3100573579614296;-9.0263;2.2484;-2.6967;
3100573589722213;-9.2225;2.4784;-2.8331;
3100573599823879;-9.3832;2.4185;-2.5241;
3100573609931796;-9.3712;2.0423;-2.0474;
3100573620039713;-9.3832;1.5849;-1.8799;
3100573630144609;-9.3520;1.7907;-2.4188;
3100573640252525;-9.2034;1.8939;-2.4260;
3100573650360442;-9.2827;1.9681;-2.5624;
3100573660470442;-9.4884;1.9274;-2.5409;
3100573670578359;-9.3760;1.7788;-2.2750;
3100573680686275;-9.2536;1.7405;-2.2367;
3100573690791015;-9.3760;1.6232;-2.2463;
3100573700898932;-9.3927;1.5296;-2.3830;
3100573711006848;-9.3736;1.4483;-2.3180;
3100573721123359;-9.4406;1.3143;-2.4141;
3100573731231275;-9.4478;1.2398;-2.4930;
3100573741339192;-9.3712;1.2326;-2.3949;
3100573751440025;-9.3808;1.2808;-2.3228;
3100573761547942;-9.4262;1.4148;-2.3662;
3100573771655859;-9.3712;1.5921;-2.4356;
3100573781765442;-9.3497;1.6208;-2.3925;
3100573791873359;-9.3784;1.5730;-2.3399;
3100573801981275;-9.3640;1.5538;-2.2582;
3100573812097838;-9.3712;1.5873;-2.2678;
3100573822205754;-9.3497;1.6448;-2.3303;
3100573832313671;-9.3497;1.7094;-2.4404;
3100573842422109;-9.3497;1.7429;-2.4835;
3100573852530025;-9.3114;1.7764;-2.3351;
3100573862637942;-9.3377;1.8293;-2.2941;
3100573872738879;-9.3879;1.8748;-2.2606;
3100573882846796;-9.3138;1.9083;-2.2271;
3100573892954713;-9.2779;1.9777;-2.2989;
3100573903051171;-9.3138;2.0614;-2.3495;
3100573913159088;-9.3018;2.0833;-2.2726;
3100573923267057;-9.3162;2.1383;-2.2510;
3100573933415390;-9.3497;2.1191;-2.2295;
3100573943523307;-9.3018;2.0183;-2.2391;
3100573953631171;-9.2874;1.9657;-2.2941;
3100573963711067;-9.3473;1.9418;-2.3806;
3100573973819036;-9.3329;1.9466;-2.4069;
3100573983926900;-9.3305;1.9944;-2.4069;
3100573994035546;-9.3114;2.0207;-2.3638;
3100574004143463;-9.2827;2.0183;-2.3157;
3100574014251379;-9.2946;1.9777;-2.2822;
3100574024346796;-9.3114;1.9801;-2.3423;
3100574034454713;-9.3042;1.9992;-2.3901;
3100574044562629;-9.3257;2.0112;-2.3949;
3100574054701900;-9.3233;2.0231;-2.3447;
3100574064809817;-9.2850;1.9609;-2.2487;
3100574074917734;-9.2632;2.0566;-2.5600;
3100574084983046;-9.3114;2.1191;-2.4954;
3100574095090963;-9.3185;2.1072;-2.3925;
3100574105198879;-9.3042;2.0638;-2.2199;
3100574115313150;-9.2731;2.0231;-2.1577;
3100574125421067;-9.2513;2.0856;-2.2558;
3100574135528984;-9.2994;2.1287;-2.4476;
3100574145635546;-9.3520;2.1598;-2.5146;
3100574155743463;-9.2731;2.1909;-2.4476;
3100574165851379;-9.2560;2.1598;-2.3495;
3100574175982734;-9.2779;2.1072;-2.2869;
3100574186090650;-9.3090;2.0447;-2.2439;
3100574196198567;-9.3114;2.0207;-2.2702;
3100574206281692;-9.3329;2.0638;-2.2989;
3100574216389609;-9.2922;2.1191;-2.3228;
3100574226497525;-9.2707;2.1670;-2.3180;
3100574236606432;-9.3090;2.2172;-2.2726;
