Sensor: bmi160 Gyroscope Non-wakeup
Vendor: BOSCH
TimestampGyro [ns]; GyroX [rad/s]; GyroY [rad/s]; GyroZ [rad/s]
5252498111172586;-0.0266;-0.0003;0.0089;
5252498121272638;-0.0298;0.0040;0.0111;
5252498131385503;-0.0245;0.0008;0.0100;
5252498141497795;-0.0245;-0.0003;0.0089;
5252498151599201;-0.0266;-0.0067;0.0100;
5252498161687430;-0.0277;-0.0120;0.0079;
5252498171805555;-0.0256;-0.0130;0.0089;
5252498181872170;-0.0213;-0.0130;0.0100;
5252498192000451;-0.0085;-0.0130;0.0111;
5252498202102638;0.0011;-0.0067;0.0132;
5252498212204201;-0.0032;-0.0056;0.0164;
5252498222309201;-0.0128;-0.0077;0.0153;
5252498232411493;-0.0277;-0.0088;0.0142;
5252498242502534;-0.0362;-0.0120;0.0142;
5252498252615868;-0.0277;-0.0162;0.0164;
5252498262714722;-0.0128;-0.0162;0.0206;
5252498272818368;0.0075;-0.0162;0.0260;
5252498282920451;0.0383;-0.0152;0.0324;
5252498293026701;0.0671;-0.0141;0.0387;
5252498303145816;0.0820;-0.0184;0.0462;
5252498313235972;0.0842;-0.0237;0.0515;
5252498323331961;0.0735;-0.0280;0.0558;
5252498333455763;0.0618;-0.0269;0.0601;
5252498343538263;0.0426;-0.0226;0.0675;
5252498353632795;0.0234;-0.0194;0.0739;
5252498363749618;0.0011;-0.0194;0.0782;
5252498373841076;-0.0362;-0.0258;0.0835;
5252498383935243;-0.0767;-0.0354;0.0877;
5252498394074826;-0.0959;-0.0429;0.0931;
5252498404152743;-0.0831;-0.0450;0.1016;
5252498414248836;-0.0628;-0.0471;0.1144;
5252498424373420;-0.0320;-0.0503;0.1261;
5252498434470347;0.0075;-0.0503;0.1367;
5252498444566493;0.0352;-0.0439;0.1463;
5252498454677951;0.0245;-0.0514;0.1527;
5252498464777118;-0.0053;-0.0631;0.1538;
5252498474878368;-0.0181;-0.0610;0.1581;
5252498484976441;-0.0234;-0.0535;0.1602;
5252498495121441;-0.0565;-0.0578;0.1570;
5252498505167951;-0.0831;-0.0620;0.1517;
5252498515289461;-0.0597;-0.0493;0.1517;
5252498525371284;0.0011;-0.0439;0.1559;
5252498535475086;0.0905;-0.0407;0.1655;
5252498545608888;0.2012;-0.0354;0.1804;
5252498555703263;0.2608;-0.0461;0.1900;
5252498565787118;0.2491;-0.0631;0.1868;
5252498575894461;0.2012;-0.0727;0.1794;
5252498586000034;0.1310;-0.0791;0.1698;
5252498596110034;0.0788;-0.0748;0.1623;
5252498606209826;0.0788;-0.0535;0.1612;
5252498616323055;0.1353;-0.0205;0.1634;
5252498626411388;0.1767;0.0115;0.1666;
5252498636510868;0.0788;-0.0056;0.1549;
5252498646615972;-0.1172;-0.0525;0.1272;
5252498656720972;-0.2120;-0.0695;0.1080;
5252498666824826;-0.1651;-0.0610;0.1091;
5252498676915451;-0.1214;-0.0439;0.1133;
5252498687016805;-0.0170;-0.0056;0.1229;
5252498697142743;0.0554;0.0189;0.1378;
5252498707249878;0.0224;0.0072;0.1399;
5252498717331805;-0.0522;-0.0056;0.1325;
5252498727455243;-0.1150;-0.0184;0.1240;
5252498737558784;-0.1822;-0.0471;0.1176;
5252498747654409;-0.1822;-0.0589;0.1176;
5252498757766909;-0.0980;-0.0418;0.1197;
5252498767862534;-0.0373;-0.0344;0.1314;
5252498777963576;0.0746;-0.0269;0.1346;
5252498788057638;0.1820;-0.0269;0.1463;
5252498798175868;0.2736;-0.0237;0.1634;
5252498808271284;0.2768;-0.0269;0.1612;
5252498818381284;0.1937;-0.0439;0.1602;
5252498828476388;0.1746;-0.0482;0.1549;
5252498838573472;0.2257;-0.0407;0.1538;
5252498848683211;0.2566;-0.0375;0.1453;
5252498858783628;0.2662;-0.0354;0.1367;
5252498868883888;0.3024;-0.0226;0.1208;
5252498878990347;0.3599;0.0008;0.1144;
5252498889096493;0.3897;0.0115;0.1154;
5252498899195347;0.3525;-0.0184;0.1165;
5252498909294201;0.2385;-0.0610;0.1165;
5252498919396284;0.2321;-0.0439;0.1154;
5252498929449409;0.2779;-0.0077;0.1101;
5252498939605295;0.2385;-0.0301;0.0888;
5252498949707118;0.1662;-0.0514;0.0696;
5252498959800711;0.1746;0.0115;0.0718;
5252498969913368;0.1831;0.0647;0.0782;
5252498980021284;0.0714;0.0189;0.0664;
5252498990115555;-0.0767;-0.0322;0.0430;
5252499000226336;-0.1481;-0.0141;0.0324;
5252499010316597;-0.1917;0.0019;0.0196;
5252499020422638;-0.1864;-0.0258;0.0036;
5252499030528055;-0.1502;-0.0013;0.0057;
5252499040625920;-0.1513;0.0498;0.0185;
5252499050728993;-0.1694;0.0306;0.0121;
5252499060835763;-0.1790;-0.0099;0.0004;
5252499070932326;-0.1747;0.0136;-0.0028;
5252499081051232;-0.1939;0.0168;-0.0198;
5252499091143159;-0.1864;-0.0099;-0.0316;
5252499101235243;-0.1513;-0.0013;-0.0166;
5252499111343211;-0.1108;0.0264;-0.0060;
5252499121439826;-0.0575;0.0221;-0.0071;
5252499131550972;-0.0096;-0.0067;-0.0145;
5252499141655972;0.0341;-0.0130;-0.0071;
5252499151751805;0.1044;0.0040;0.0185;
5252499161868732;0.1842;0.0093;0.0377;
5252499171959045;0.2545;-0.0099;0.0419;
5252499182084826;0.3610;0.0072;0.0526;
5252499192166232;0.4845;0.0487;0.0973;
5252499202268628;0.4941;0.1201;0.1644;
5252499212370555;0.3972;0.1744;0.1229;
5252499222484513;0.2023;0.1489;0.0174;
5252499232588472;0.1545;0.0008;-0.0710;
5252499242680868;0.3067;-0.0823;-0.0688;
5252499252786284;0.4622;-0.1025;0.0569;
5252499262891597;0.4015;-0.1025;0.1474;
5252499272998368;0.1342;-0.0663;0.1570;
5252499283089305;-0.1129;-0.0258;0.1240;
5252499293195763;-0.2375;-0.0035;0.0675;
5252499303292378;-0.2706;0.0136;0.0292;
5252499313396753;-0.3377;0.0551;0.0345;
5252499323494670;-0.3856;0.0722;0.0632;
5252499333592638;-0.3366;0.0850;0.0451;
5252499343702274;-0.2951;0.1116;-0.0017;
5252499353800243;-0.3270;0.0871;-0.0262;
5252499363898159;-0.3015;-0.0141;-0.0475;
5252499374012795;-0.2099;-0.0248;-0.0880;
5252499384110763;-0.2301;0.0477;-0.0965;
5252499394208680;-0.2503;0.0083;-0.1178;
5252499404362691;-0.2461;0.0189;-0.1519;
5252499414460659;-0.2876;0.0935;-0.1679;
5252499424558576;-0.3600;0.0541;-0.2276;
5252499434608732;-0.3963;0.0136;-0.2925;
5252499444706701;-0.3952;0.0391;-0.3574;
5252499454804618;-0.4005;0.0828;-0.4309;
5252499464944409;-0.4611;0.1585;-0.5044;
5252499475042378;-0.4643;0.1744;-0.5875;
5252499485140295;-0.4590;0.2000;-0.6567;
5252499495233888;-0.4261;0.2244;-0.6791;
5252499505331857;-0.4367;0.1659;-0.6684;
5252499515429826;-0.3973;0.2021;-0.6482;
5252499525557066;-0.3739;0.2222;-0.6557;
5252499535655034;-0.4122;0.1744;-0.6461;
5252499545752951;-0.2961;0.1467;-0.5949;
5252499555854670;-0.2184;0.1169;-0.5044;
5252499565952638;-0.1481;0.1020;-0.4181;
5252499576050555;-0.1214;0.0679;-0.3425;
5252499586164357;-0.1662;0.0381;-0.2574;
5252499596262326;-0.2003;0.0658;-0.1775;
5252499606360243;-0.3196;0.0711;-0.1189;
5252499616470920;-0.3036;0.0455;-0.0997;
5252499626568888;-0.3366;0.0381;-0.0635;
5252499636666805;-0.3963;0.0498;0.0036;
5252499646769670;-0.4229;0.0264;0.0473;
5252499656867638;-0.3888;0.0253;0.0696;
5252499666965555;-0.3164;0.0487;0.0718;
5252499677073107;-0.3419;0.0232;0.0728;
5252499687170972;-0.3185;-0.0099;0.0963;
5252499697268941;-0.3324;-0.0610;0.0664;
5252499707366857;-0.3430;-0.0919;0.0302;
5252499717502274;-0.3537;-0.0652;0.0079;
5252499727600191;-0.4643;-0.0599;-0.0316;
5252499737698159;-0.5463;-0.0088;-0.0635;
5252499747815920;-0.6156;0.0264;-0.1093;
5252499757913836;-0.7445;0.0210;-0.1573;
5252499768011805;-0.7796;0.0615;-0.1956;
5252499778115711;-0.7967;0.0242;-0.2403;
5252499788213628;-0.7860;-0.0099;-0.2478;
5252499798311597;-0.7519;0.0221;-0.2616;
5252499808440920;-0.7327;0.0019;-0.2883;
5252499818538836;-0.6656;0.0083;-0.2648;
5252499828636805;-0.5666;0.0210;-0.2403;
5252499838741961;-0.4441;0.0093;-0.2276;
5252499848839878;-0.3153;0.0338;-0.1871;
5252499858937847;-0.2503;0.0061;-0.1850;
5252499869068420;-0.1140;-0.0237;-0.1850;
5252499879166336;-0.0075;0.0242;-0.1455;
5252499889264305;0.0128;0.0423;-0.1306;
5252499899368576;-0.0053;0.0306;-0.1360;
5252499909466493;0.0309;0.0317;-0.1487;
5252499919564409;0.0799;0.0349;-0.1839;
5252499929678472;0.0320;0.0700;-0.1977;
5252499939776388;-0.0000;0.0594;-0.2233;
5252499949874357;0.0320;-0.0067;-0.2510;
5252499959973732;0.1300;0.0509;-0.1903;
5252499970071701;0.1703;0.1553;-0.1232;
5252499980169618;0.2001;0.1659;-0.1658;
5252499990275607;0.3940;0.1382;-0.2499;
5252500000373524;0.4398;0.0072;-0.3393;
5252500010471493;0.4260;-0.0823;-0.2446;
5252500020581232;0.3642;-0.0535;-0.1253;
5252500030679149;0.2182;-0.0642;-0.0795;
5252500040777118;0.1842;-0.0205;-0.1786;
5252500050883420;0.1246;-0.0056;-0.2766;
5252500060981388;0.0266;-0.0354;-0.2712;
5252500071079305;0.0213;0.0019;-0.2233;
5252500081231180;-0.0639;0.0200;-0.1796;
5252500091329149;-0.0927;0.0168;-0.1977;
5252500101427066;-0.0788;0.0210;-0.2254;
5252500111511961;-0.0490;0.0040;-0.2350;
5252500121609930;-0.0202;-0.0109;-0.2233;
5252500131707847;0.0362;-0.0269;-0.1956;
5252500141817482;0.1065;-0.0652;-0.2126;
5252500151915451;0.2033;-0.0887;-0.1775;
5252500162013368;0.3130;-0.0770;-0.1711;
5252500172127170;0.3333;-0.0866;-0.1519;
5252500182225086;0.4110;-0.0674;-0.1360;
5252500192323055;0.4377;-0.0514;-0.1157;
5252500202448472;0.4281;-0.0642;-0.0848;
5252500212546388;0.4505;-0.0344;-0.1029;
5252500222644305;0.3972;0.0221;-0.0944;
5252500232753524;0.3493;0.0360;-0.1125;
5252500242851441;0.2779;0.0232;-0.1029;
5252500252949409;0.2449;0.0264;-0.0891;
5252500263049149;0.2257;0.0381;-0.1040;
5252500273147066;0.1873;0.0285;-0.0912;
5252500283245034;0.2108;-0.0482;-0.0955;
5252500293357691;0.2161;-0.0652;-0.0838;
5252500303455607;0.2182;-0.0493;-0.0784;
5252500313553576;0.2193;-0.0546;-0.0763;
5252500323668316;0.2310;-0.0375;-0.0561;
5252500333770086;0.2768;0.0115;-0.0816;
5252500343871857;0.2438;0.0093;-0.0603;
5252500353963368;0.2342;-0.0216;-0.0624;
5252500364065086;0.2012;0.0104;-0.0475;
5252500374166857;0.1108;-0.0045;-0.0475;
5252500384292638;0.0586;-0.0493;-0.0752;
5252500394394409;0.0831;-0.0567;-0.0529;
5252500404496180;0.0799;-0.0418;-0.0624;
5252500414572222;0.0778;-0.0354;-0.0273;
5252500424673993;0.0863;-0.0312;-0.0475;
5252500434775711;0.1087;-0.0099;-0.0369;
5252500444920034;0.1033;0.0200;-0.0443;
5252500455021805;0.0884;0.0157;-0.0188;
5252500465123576;0.0873;-0.0056;-0.0081;
5252500475190034;0.0863;0.0285;-0.0337;
5252500485291805;0.0863;0.0434;-0.0092;
5252500495393576;0.0554;0.0434;-0.0198;
5252500505537951;0.0298;0.0636;0.0206;
5252500515639722;0.0043;0.0391;0.0100;
5252500525741493;0.0170;0.0253;0.0494;
5252500535840451;0.0075;0.0445;0.0558;
5252500545942222;-0.0117;0.0381;0.0643;
5252500556043993;0.0064;0.0253;0.0963;
5252500566149149;0.0021;0.0381;0.0686;
5252500576250920;-0.0341;0.0296;0.0824;
5252500586352691;-0.0692;-0.0141;0.0643;
5252500596436076;-0.0543;-0.0088;0.0643;
5252500606537795;-0.0383;0.0360;0.0164;
5252500616639566;-0.1129;0.0040;-0.0230;
5252500626744097;-0.1118;-0.0269;-0.0305;
5252500636845816;-0.1012;-0.0088;-0.0593;
5252500646947586;-0.0948;0.0189;-0.0763;
5252500657052222;-0.1481;-0.0173;-0.1157;
5252500667153941;-0.0660;-0.0173;-0.0774;
5252500677255711;0.0767;0.0360;-0.0582;
5252500687355191;0.1150;0.0477;-0.0348;
5252500697456961;0.1662;0.0274;-0.0401;
5252500707558732;0.2694;0.0605;-0.0348;
5252500717686388;0.3631;0.1105;-0.0081;
5252500727788159;0.3855;0.0903;0.0153;
5252500737889930;0.4782;0.0828;0.0462;
5252500747984982;0.5037;0.0423;0.0387;
5252500758086753;0.5431;-0.0003;0.0686;
5252500768188524;0.4760;-0.0045;0.0547;
5252500778300503;0.4366;-0.0418;0.0856;
5252500788402274;0.3471;-0.0855;0.0941;
5252500798504045;0.2992;-0.0652;0.1112;
5252500808607274;0.2459;-0.0152;0.0846;
5252500818709045;0.1545;-0.0237;0.0920;
5252500828810816;0.1577;-0.0226;0.0984;
5252500838911336;0.1481;0.0157;0.0739;
5252500849013107;0.1724;0.0455;0.1016;
5252500859114878;0.1502;0.0285;0.0920;
5252500869212118;0.1916;0.0125;0.0931;
5252500879313836;0.1916;0.0072;0.0611;
5252500889415607;0.1948;-0.0130;0.0686;
5252500899523211;0.2321;-0.0237;0.0824;
5252500909624982;0.1927;-0.0280;0.0877;
5252500919726753;0.2427;-0.0216;0.0739;
5252500929828472;0.2406;-0.0194;0.0398;
5252500939930243;0.2534;-0.0386;0.0419;
5252500950032013;0.2470;0.0029;0.0206;
5252500960145295;0.2257;0.0061;0.0047;
5252500970247066;0.2555;0.0232;-0.0305;
5252500980348836;0.2257;0.0157;-0.0401;
5252500990455816;0.2726;-0.0003;-0.0305;
5252501000557586;0.2694;0.0328;-0.0465;
5252501010659357;0.3067;0.0040;-0.0465;
5252501020760816;0.3759;-0.0194;-0.0582;
5252501030862586;0.4270;-0.0248;-0.0497;
5252501040964357;0.5133;-0.0365;-0.0369;
5252501051057430;0.5559;-0.0450;-0.0284;
5252501061159149;0.6656;-0.0471;-0.0060;
5252501071260920;0.7008;-0.0439;-0.0049;
5252501081389201;0.7784;-0.0557;0.0153;
5252501091490972;0.8370;-0.0471;0.0441;
5252501101592743;0.8338;-0.0674;0.0803;
5252501111681961;0.9105;-0.0365;0.1027;
5252501121783732;0.8988;-0.0226;0.1463;
5252501131885503;0.8988;-0.0088;0.1858;
5252501141984774;0.8498;0.0178;0.1985;
5252501152086545;0.8136;0.0328;0.2348;
5252501162188316;0.6944;0.0509;0.2539;
5252501172313524;0.5889;0.0668;0.2804;
5252501182415295;0.4398;0.0839;0.2762;
5252501192517066;0.3067;0.0988;0.2879;
5252501202606336;0.2449;0.0935;0.2614;
5252501212708107;0.1714;0.0839;0.2794;
5252501222809878;0.0511;0.0754;0.2836;
5252501232917222;0.0149;0.0647;0.3166;
5252501243018993;-0.0320;0.0892;0.3113;
5252501253120763;-0.1023;0.1063;0.3177;
5252501263228003;-0.1630;0.0786;0.3241;
5252501273329774;-0.2290;0.0541;0.3347;
5252501283431545;-0.2557;0.0796;0.3230;
5252501293525972;-0.3068;0.1009;0.3230;
5252501303627743;-0.3260;0.0977;0.3369;
5252501313729513;-0.3057;0.0935;0.3316;
5252501323831232;-0.2535;0.0871;0.3252;
5252501333933732;-0.2514;0.0700;0.3209;
5252501344036180;-0.2482;0.0519;0.3209;
5252501354133836;-0.2152;0.0509;0.3092;
5252501364236336;-0.1832;0.0541;0.3134;
5252501374338784;-0.2003;0.0296;0.3092;
5252501384443888;-0.2130;0.0115;0.2921;
5252501394546336;-0.3153;0.0093;0.2582;
5252501404648836;-0.4325;0.0008;0.2145;
5252501414742170;-0.5495;0.0040;0.1655;
5252501424844618;-0.6188;0.0210;0.1293;
5252501434947118;-0.7146;0.0168;0.0846;
5252501445072951;-0.7807;0.0306;0.0153;
5252501455175399;-0.8808;0.0221;-0.0401;
5252501465277899;-0.9085;0.0423;-0.1146;
5252501475375399;-0.9703;0.0913;-0.1615;
5252501485477847;-0.9756;0.0850;-0.2212;
5252501495580295;-0.9799;0.0498;-0.2712;
5252501505683836;-0.9074;0.0168;-0.2979;
5252501515786336;-0.8244;-0.0056;-0.2957;
5252501525888784;-0.7189;-0.0013;-0.3234;
5252501536006024;-0.6561;-0.0013;-0.3266;
5252501546108472;-0.5825;-0.0088;-0.3117;
5252501556210972;-0.3845;0.0083;-0.2425;
5252501566316753;-0.1822;0.0477;-0.1924;
5252501576419201;-0.1300;0.0551;-0.1221;
5252501586521701;-0.1300;0.0594;-0.0891;
5252501596602066;-0.1278;0.0551;-0.0624;
5252501606704513;-0.1992;0.0349;-0.0252;
5252501616807013;-0.2120;0.0466;-0.0124;
5252501626915138;-0.2237;0.0391;0.0025;
5252501637017638;-0.2418;0.0402;0.0015;
5252501647120086;-0.2674;0.0349;0.0238;
5252501657217899;-0.3643;0.0104;0.0302;
5252501667320399;-0.3941;-0.0333;0.0196;
5252501677422847;-0.4622;-0.0652;0.0249;
5252501687551336;-0.4430;-0.0642;0.0185;
5252501697653784;-0.4718;-0.0493;0.0142;
5252501707756284;-0.4229;-0.0173;-0.0049;
5252501717843888;-0.4122;0.0093;0.0057;
5252501727946336;-0.3707;0.0338;0.0036;
5252501738048836;-0.3430;0.0647;0.0132;
5252501748156857;-0.3100;0.0626;-0.0124;
5252501758259305;-0.2834;0.0498;-0.0252;
5252501768361805;-0.2375;0.0083;-0.0262;
5252501778468003;-0.1683;-0.0120;-0.0049;
5252501788570451;-0.0991;-0.0067;-0.0092;
5252501798672951;-0.0863;-0.0162;-0.0060;
5252501808775295;-0.0607;-0.0439;-0.0316;
5252501818877743;-0.0266;-0.0120;-0.0273;
5252501828980191;-0.0341;0.0136;-0.0507;
5252501839082586;-0.0511;0.0221;-0.0401;
5252501849185034;-0.0415;0.0349;-0.0390;
5252501859287534;-0.0650;0.0434;-0.0241;
5252501869390399;-0.0756;0.0317;-0.0305;
5252501879492847;-0.0788;0.0061;-0.0273;
5252501889595347;-0.0724;0.0072;-0.0358;
5252501899694253;-0.1193;-0.0003;-0.0369;
5252501909796753;-0.1577;-0.0386;-0.0518;
5252501919899201;-0.1939;-0.0546;-0.0518;
5252501930018836;-0.1864;-0.0610;-0.0624;
5252501940121284;-0.1896;-0.0780;-0.0529;
5252501950223732;-0.1960;-0.0748;-0.0582;
5252501960294982;-0.1928;-0.0599;-0.0561;
5252501970397430;-0.1811;-0.0599;-0.0720;
5252501980499930;-0.1672;-0.0130;-0.0720;
5252501990613524;-0.1832;0.0178;-0.0774;
5252502000715972;-0.2045;0.0083;-0.0795;
5252502010818472;-0.1683;0.0093;-0.0806;
5252502020921336;-0.1726;0.0115;-0.0816;
5252502031023784;-0.1470;0.0189;-0.0774;
5252502041126284;-0.1310;0.0338;-0.0699;
5252502051220191;-0.0852;0.0168;-0.0529;
5252502061322691;-0.0916;0.0274;-0.0305;
5252502071425138;-0.0032;0.0242;-0.0166;
5252502081525086;0.0298;0.0125;-0.0348;
5252502091627534;0.1672;0.0200;-0.0379;
5252502101729982;0.2055;0.0093;-0.0348;
5252502111842586;0.2683;0.0083;-0.0348;
5252502121945086;0.2651;0.0178;-0.0433;
5252502132047534;0.2108;-0.0759;-0.0262;
5252502142147378;0.1842;-0.1217;-0.0209;
5252502152249878;0.2534;-0.0940;0.0132;
5252502162352326;0.1438;-0.1068;0.0313;
5252502172463107;0.0490;-0.1089;-0.0028;
5252502182565555;0.0458;-0.0375;-0.0550;
5252502192668055;-0.0202;-0.0205;-0.0518;
5252502202781336;-0.1204;-0.0077;-0.0497;
5252502212883836;-0.1715;0.0168;-0.0571;
5252502222986284;-0.2045;0.0157;-0.0710;
5252502233078420;-0.1449;0.0221;-0.0731;
5252502243180868;-0.0330;0.0360;-0.0411;
5252502253283368;0.0032;0.0530;-0.0518;
5252502263388316;0.1406;0.0562;-0.0230;
5252502273490763;0.2076;0.0562;-0.0262;
5252502283593263;0.3695;0.0562;-0.0134;
5252502293695086;0.4654;0.0700;0.0196;
5252502303797586;0.5719;0.0349;0.0281;
5252502313900034;0.6561;0.0104;0.0696;
5252502324010086;0.7093;0.0210;0.0888;
5252502334112847;0.7594;0.0285;0.1325;
5252502344215555;0.7082;0.0093;0.1559;
5252502354325972;0.7423;-0.0109;0.1602;
5252502364428732;0.7285;-0.0045;0.1751;
5252502374531493;0.6901;0.0210;0.1804;
5252502384595920;0.6241;0.0157;0.2209;
5252502394698732;0.5272;0.0019;0.2305;
5252502404801441;0.5048;0.0019;0.2369;
5252502414923576;0.4100;-0.0067;0.2539;
5252502425026336;0.3280;-0.0301;0.2710;
5252502435129097;0.2917;-0.0109;0.2710;
5252502445228732;0.2513;0.0200;0.2678;
5252502455331493;0.1969;0.0360;0.2847;
5252502465434201;0.1513;0.0413;0.3017;
5252502475530086;0.1395;0.0285;0.3443;
5252502485632795;0.1619;0.0317;0.3806;
5252502495735607;0.1598;0.0349;0.4253;
5252502505868211;0.1172;0.0040;0.4455;
5252502515970972;0.1129;-0.0290;0.4913;
5252502526073680;0.0948;-0.0450;0.5169;
5252502536171336;0.1065;-0.0226;0.5329;
5252502546274097;0.0788;-0.0216;0.5446;
5252502556376857;-0.0138;-0.0130;0.5318;
5252502566474774;-0.0991;0.0157;0.5339;
5252502576577534;-0.1917;0.0349;0.5158;
5252502586680295;-0.3100;0.0381;0.4679;
5252502596797899;-0.3845;0.0807;0.4338;
5252502606900607;-0.4378;0.1212;0.3838;
5252502617003368;-0.5783;0.0796;0.3326;
5252502627089670;-0.7178;0.0530;0.2985;
5252502637192430;-0.7221;0.0381;0.2326;
5252502647295138;-0.6614;0.0360;0.1698;
5252502657400191;-0.5879;0.0807;0.1304;
5252502667502951;-0.5825;0.0956;0.0728;
5252502677605659;-0.6880;0.0573;0.0217;
5252502687724305;-0.7615;0.0264;-0.0145;
5252502697827066;-0.6401;0.0573;-0.0529;
5252502707929774;-0.5687;0.0626;-0.0965;
5252502718012899;-0.5549;0.1212;-0.0976;
5252502728115659;-0.5186;0.2180;-0.1232;
5252502738218368;-0.5112;0.2467;-0.1370;
5252502748330972;-0.4728;0.2222;-0.1242;
5252502758433732;-0.3888;0.2180;-0.1115;
5252502768536441;-0.3419;0.2403;-0.0688;
5252502778640711;-0.3569;0.1435;-0.0348;
5252502788743472;-0.3973;0.0242;-0.0358;
5252502798846180;-0.4739;-0.0109;-0.0614;
5252502808944982;-0.5921;-0.0407;-0.0838;
5252502819047743;-0.7423;-0.0652;-0.1285;
5252502829150451;-0.8702;-0.0961;-0.1700;
5252502839243055;-0.9724;-0.0631;-0.2073;
5252502849345816;-1.1268;-0.0077;-0.2510;
5252502859448524;-1.2706;0.0690;-0.2851;
5252502869556857;-1.3664;0.1414;-0.3361;
5252502879659618;-1.4634;0.1638;-0.3744;
5252502889762326;-1.4847;0.1968;-0.4106;
5252502899862899;-1.4634;0.2096;-0.4458;
5252502909965659;-1.4314;0.1925;-0.4831;
5252502920068368;-1.3228;0.1787;-0.5321;
5252502930157586;-1.1683;0.1606;-0.5268;
5252502940260347;-1.0129;0.1712;-0.5310;
5252502950363055;-0.8137;0.2011;-0.5417;
5252502960472899;-0.6603;0.1691;-0.5140;
5252502970575607;-0.4984;0.1968;-0.5193;
5252502980678368;-0.3888;0.1883;-0.5118;
5252502990783732;-0.2450;0.2064;-0.4991;
5252503000886441;-0.1289;0.2222;-0.4714;
5252503010989201;-0.0607;0.1702;-0.4394;
5252503021085191;0.0447;0.1276;-0.4075;
5252503031187951;0.1470;0.1031;-0.4096;
5252503041290659;0.2449;0.0658;-0.3883;
5252503051397170;0.3716;0.0423;-0.3288;
5252503061499930;0.4973;0.0498;-0.2670;
5252503071602691;0.5815;0.0061;-0.2169;
5252503081722795;0.6646;-0.0727;-0.1754;
5252503091825503;0.7763;-0.0407;-0.1296;
5252503101928263;0.7338;-0.0152;-0.0944;
5252503112016441;0.6390;0.0019;-0.0411;
5252503122119201;0.5037;0.0168;-0.0007;
5252503132221909;0.3663;0.0402;0.0089;
5252503142330555;0.2236;0.1020;0.0356;
5252503152433316;0.0415;0.0807;0.0483;
5252503162536076;-0.1012;0.0892;0.0398;
5252503172635086;-0.2429;0.0839;0.0494;
5252503182737847;-0.3228;0.0157;0.0441;
5252503192840555;-0.3856;-0.0088;0.0228;
5252503202950711;-0.4080;-0.0067;0.0121;
5252503213053472;-0.4250;-0.0141;0.0025;
5252503223156180;-0.4282;0.0051;-0.0166;
5252503233252899;-0.4122;0.0445;-0.0411;
5252503243355659;-0.3920;0.0818;-0.0848;
5252503253458368;-0.3643;0.0700;-0.1146;
5252503263551961;-0.3334;0.0573;-0.1210;
5252503273654722;-0.3260;0.0487;-0.1381;
5252503283757430;-0.2993;0.0328;-0.1679;
5252503293864253;-0.2429;0.0328;-0.1487;
5252503303967013;-0.2290;-0.0003;-0.1317;
5252503314069722;-0.2013;-0.0205;-0.1498;
5252503324165972;-0.1917;-0.0557;-0.2425;
5252503334268680;-0.1502;-0.0514;-0.3043;
5252503344371441;-0.1342;-0.0344;-0.2755;
5252503354488316;-0.1459;-0.0375;-0.2489;
5252503364591076;-0.1182;-0.0141;-0.2659;
5252503374693836;-0.1001;0.0125;-0.2638;
5252503384795451;-0.0969;0.0349;-0.2531;
5252503394898211;-0.0788;0.0168;-0.2830;
5252503405000972;-0.0426;-0.0141;-0.2883;
5252503415126961;-0.0181;0.0051;-0.2723;
5252503425229670;-0.0266;-0.0130;-0.2691;
5252503435332430;0.0149;-0.0471;-0.2702;
5252503445397118;0.0607;-0.0727;-0.2744;
5252503455499878;0.0863;-0.0791;-0.2489;
5252503465602586;0.0501;-0.0109;-0.2457;
5252503475704201;0.0085;-0.0099;-0.2478;
5252503485807013;0.0543;-0.0631;-0.2457;
5252503495909722;0.1651;-0.0557;-0.2425;
5252503506017482;0.1662;-0.0322;-0.2414;
5252503516120243;0.1108;-0.0375;-0.2190;
5252503526223003;0.1310;-0.0280;-0.2095;
5252503536323628;0.1534;-0.0099;-0.1945;
5252503546426180;0.1204;0.0040;-0.1913;
5252503556528784;0.1193;0.0115;-0.2105;
5252503566627482;0.1799;-0.0152;-0.1935;
5252503576730086;0.2598;-0.0418;-0.1871;
5252503586832691;0.2939;-0.0471;-0.2031;
5252503596937066;0.2811;-0.0194;-0.1892;
5252503607039670;0.2715;0.0168;-0.1892;
5252503617142222;0.3354;-0.0429;-0.1754;
5252503627276649;0.3919;-0.0951;-0.1892;
5252503637379201;0.3482;-0.0322;-0.2158;
5252503647481805;0.2694;-0.0013;-0.2137;
5252503657560503;0.2843;-0.0226;-0.2052;
5252503667663107;0.3397;-0.0525;-0.1860;
5252503677765711;0.3684;-0.0695;-0.1828;
5252503687877066;0.3674;-0.0503;-0.1956;
5252503697979618;0.3258;-0.0216;-0.1743;
5252503708082222;0.2822;-0.0056;-0.1615;
5252503718166753;0.2896;0.0274;-0.1562;
5252503728269357;0.2779;0.0306;-0.1466;
5252503738371961;0.2704;0.0136;-0.1455;
5252503748489566;0.2928;0.0136;-0.1296;
5252503758592118;0.3003;0.0157;-0.1391;
5252503768694722;0.2939;0.0189;-0.1551;
5252503778798732;0.2811;0.0008;-0.1391;
5252503788901284;0.2971;-0.0418;-0.1274;
5252503799003888;0.3205;-0.0439;-0.1200;
5252503809115816;0.3152;-0.0365;-0.1178;
5252503819218368;0.3162;-0.0322;-0.1051;
5252503829320972;0.3173;-0.0322;-0.0997;
5252503839413732;0.3013;-0.0205;-0.0955;
5252503849516284;0.2779;0.0029;-0.0624;
5252503859618888;0.2491;0.0296;-0.0614;
5252503869722795;0.2523;0.0328;-0.0646;
5252503879825347;0.2619;0.0051;-0.0529;
5252503889927951;0.2427;0.0200;-0.0209;
5252503900028055;0.2033;0.0083;-0.0124;
5252503910130607;0.1895;-0.0322;-0.0081;
5252503920233263;0.1630;-0.0301;0.0100;
5252503930326232;0.1246;0.0029;-0.0103;
5252503940428784;0.1246;0.0242;-0.0230;
5252503950531388;0.1491;0.0541;-0.0156;
5252503960638316;0.1799;0.0338;-0.0060;
5252503970740868;0.1959;0.0349;-0.0113;
5252503980843472;0.1842;0.0573;-0.0209;
5252503990966649;0.1767;0.0818;-0.0230;
5252504001069253;0.1895;0.1073;-0.0177;
5252504011171805;0.2044;0.0083;-0.0177;
5252504021261545;0.2236;-0.0354;-0.0028;
5252504031364149;0.2182;-0.0386;0.0174;
5252504041466701;0.2268;-0.0908;0.0409;
5252504051571024;0.2129;-0.0919;0.0558;
5252504061673576;0.1842;-0.0503;0.0718;
5252504071776180;0.1714;-0.0663;0.0771;
5252504081893784;0.1619;-0.0439;0.0696;
5252504091996336;0.1566;0.0210;0.0750;
5252504102098941;0.1587;0.0391;0.0696;
5252504112182170;0.1863;0.0178;0.0739;
5252504122284774;0.2332;-0.0301;0.1059;
5252504132387326;0.2278;-0.0322;0.1154;
5252504142493888;0.1905;-0.0088;0.1154;
5252504152596441;0.1714;0.0061;0.1165;
5252504162699045;0.1662;0.0274;0.1293;
5252504172803055;0.1662;-0.0035;0.1410;
5252504182905607;0.1756;-0.0525;0.1506;
5252504193008211;0.1534;-0.0109;0.1399;
5252504203111388;0.1278;0.0178;0.1346;
5252504213213941;0.1342;-0.0194;0.1442;
5252504223316545;0.1257;-0.0024;0.1549;
5252504233415555;0.1065;0.0583;0.1527;
5252504243518107;0.1033;0.0754;0.1453;
5252504253620711;0.1246;0.0530;0.1559;
5252504263719774;0.1417;0.0338;0.1293;
5252504273822378;0.1385;0.0519;0.1442;
5252504283924930;0.1236;0.0583;0.1612;
5252504294028211;0.1225;0.0647;0.1655;
5252504304130763;0.1023;0.0541;0.1591;
5252504314233420;0.0842;0.0807;0.1474;
5252504324365243;0.0756;0.0743;0.1549;
5252504334467847;0.0820;-0.0237;0.1623;
5252504344570451;0.0863;-0.0471;0.1549;
5252504354639566;0.0288;-0.0130;0.1399;
5252504364742170;-0.0543;-0.0056;0.1367;
5252504374844774;-0.0820;0.0019;0.1304;
5252504384964201;-0.0831;0.0242;0.1325;
5252504395066805;-0.1129;0.0274;0.1314;
5252504405169409;-0.1055;0.0253;0.1059;
5252504415272795;-0.0501;0.0104;0.0973;
5252504425375399;-0.0405;0.0115;0.0771;
5252504435478003;-0.0288;0.0061;0.0941;
5252504445563211;-0.0128;-0.0322;0.1112;
5252504455665816;-0.0149;-0.0557;0.1069;
5252504465768368;-0.0533;-0.0152;0.0867;
5252504475923368;-0.1118;0.0636;0.0707;
5252504486025972;-0.1193;0.0668;0.0760;
5252504496128576;-0.0639;0.0700;0.0718;
5252504506195086;-0.0575;0.0999;0.0611;
5252504516297638;-0.0639;0.0839;0.0387;
5252504526400295;-0.0352;0.0754;0.0249;
5252504536498836;-0.0224;0.0626;0.0387;
5252504546601545;-0.0213;0.0423;0.0430;
5252504556704305;-0.0202;0.0083;0.0313;
5252504566825711;-0.0117;-0.0237;0.0260;
5252504576928420;-0.0032;-0.0035;0.0185;
5252504587031180;-0.0160;0.0317;0.0281;
5252504597116961;-0.0447;-0.1473;0.0846;
5252504607219670;-0.0288;-0.5296;0.1293;
5252504617322430;0.0533;-0.8214;0.1453;
5252504627430138;0.1246;-0.8268;0.0654;
5252504637532847;0.0724;-0.4188;0.0047;
5252504647635607;-0.1268;-0.0226;0.0302;
5252504657743107;-0.4378;0.1510;0.0228;
5252504667845816;-0.6102;0.2128;0.0505;
5252504677948628;-0.3867;0.2457;0.0909;
5252504688051545;0.0138;0.2489;0.0941;
5252504698154253;0.1140;0.1904;0.0856;
5252504708257013;0.0724;0.1084;0.0803;
5252504718358524;-0.0256;0.1158;0.0558;
5252504728461232;-0.2226;0.1531;0.0004;
5252504738563993;-0.3718;0.1137;-0.0401;
5252504748667378;-0.3771;-0.0056;-0.0571;
5252504758770086;-0.3217;0.0285;-0.1146;
5252504768872847;-0.3792;0.4172;-0.1903;
5252504778980191;-0.7455;0.7804;-0.2638;
5252504789082899;-0.8574;0.8177;-0.3106;
5252504799185659;-0.2205;0.4555;-0.3893;
5252504809287170;0.4569;0.3746;-0.4096;
5252504819389878;0.2939;0.5780;-0.3403;
5252504829492638;-0.0181;0.0818;-0.1711;
5252504839599566;0.3865;-0.4113;-0.0529;
5252504849702274;0.6720;-0.3731;-0.0039;
5252504859805034;0.3865;-0.2304;0.0047;
5252504869899461;0.2683;-0.1664;-0.0241;
5252504880002170;0.3269;-0.1750;-0.0465;
5252504890104930;0.2832;-0.0951;-0.0550;
5252504900197378;0.1033;0.0168;-0.0582;
5252504910300086;0.0096;0.0253;-0.0699;
5252504920402847;0.0224;0.0786;-0.1040;
5252504930505191;-0.0075;0.1116;-0.1306;
5252504940607899;0.0341;-0.0876;-0.1391;
5252504950710659;0.1012;-0.4592;-0.0848;
5252504960828993;0.1406;-0.5658;-0.0166;
5252504970931753;0.1257;-0.4646;0.0025;
5252504981034513;0.0916;-0.2304;0.0153;
5252504991124357;0.0043;-0.0333;0.0345;
5252505001227066;0.0128;-0.0024;0.0068;
5252505011329826;0.0607;0.1340;-0.0635;
5252505021428420;0.0117;0.1904;-0.1306;
5252505031531128;0.0107;-0.0514;-0.1519;
5252505041633888;0.0341;-0.0450;-0.1477;
5252505051741388;-0.0352;0.1201;-0.1668;
5252505061844097;-0.0181;0.1041;-0.1786;
5252505071946857;0.0873;0.0700;-0.1690;
5252505082063107;0.1852;0.0509;-0.1360;
5252505092165816;0.2790;0.0146;-0.1178;
5252505102268576;0.3418;-0.0077;-0.0965;
5252505112355399;0.3642;-0.0557;-0.0561;
5252505122458159;0.3855;-0.0748;-0.0369;
5252505132560868;0.3823;-0.0599;-0.0071;
5252505142661545;0.3461;-0.1057;0.0281;
5252505152764305;0.3035;-0.0599;0.0302;
5252505162867013;0.2268;0.0370;0.0164;
5252505172967795;0.2076;0.0168;-0.0092;
5252505183070503;0.2012;0.1936;-0.0305;
5252505193173263;0.1714;0.2744;-0.0411;
5252505203278628;0.3173;-0.0152;-0.0348;
5252505213381336;0.3652;-0.0983;-0.0262;
5252505223484097;0.1417;-0.0067;-0.0166;
5252505233580711;0.1150;-0.0663;-0.0124;
5252505243683420;0.1300;-0.1750;-0.0124;
5252505253786180;0.0980;-0.2016;-0.0028;
5252505263883003;0.0586;-0.1345;-0.0220;
5252505273985763;0.0245;-0.1121;-0.0284;
5252505284088472;0.0415;-0.0951;-0.0390;
5252505294191024;0.0660;0.0125;-0.0720;
5252505304293784;0.1033;0.0072;-0.0827;
5252505314396545;0.1566;-0.0226;-0.1051;
5252505324508420;0.1820;0.0338;-0.1083;
5252505334611128;0.1969;0.0455;-0.0965;
5252505344713941;0.2246;-0.0003;-0.0848;
5252505354835555;0.2353;-0.0280;-0.0901;
5252505364938263;0.2438;-0.0205;-0.0848;
5252505375041076;0.2587;-0.0333;-0.0688;
5252505385124253;0.2736;-0.0088;-0.0742;
5252505395226961;0.2896;0.0157;-0.0561;
5252505405329722;0.2928;0.0093;-0.0497;
5252505415462066;0.3280;0.0008;-0.0305;
5252505425564774;0.3535;0.0264;-0.0007;
5252505435667534;0.3674;0.0221;0.0142;
5252505445744982;0.4004;0.0019;0.0622;
5252505455847743;0.4228;-0.0237;0.0846;
5252505465950503;0.4515;0.0051;0.1176;
5252505476052795;0.4228;0.0615;0.1517;
5252505486155503;0.4047;0.0700;0.1858;
5252505496258263;0.3919;0.0775;0.2017;
5252505506362482;0.3461;0.1201;0.2049;
5252505516465191;0.2896;0.0956;0.2252;
5252505526567951;0.2566;0.0232;0.2603;
5252505536668316;0.2129;-0.0045;0.2710;
5252505546771024;0.1937;-0.0333;0.2804;
5252505556873784;0.1587;-0.0407;0.3134;
5252505566990399;0.1129;0.0104;0.3124;
5252505577093107;0.1204;0.0040;0.3497;
5252505587195868;0.1097;0.0093;0.3763;
5252505597292222;0.0756;0.0594;0.3710;
5252505607394930;0.0362;0.0743;0.3955;
5252505617497691;-0.0043;0.0498;0.4093;
5252505627592378;-0.0490;0.0200;0.4051;
5252505637695086;-0.1150;0.0115;0.4168;
5252505647797847;-0.1992;0.0434;0.4029;
5252505657902586;-0.2652;0.0594;0.3869;
5252505668005295;-0.3004;0.0658;0.3827;
5252505678108003;-0.3547;0.1233;0.3592;
5252505688212638;-0.3995;0.1712;0.3273;
5252505698315347;-0.3867;0.1883;0.3028;
5252505708418107;-0.3558;0.1712;0.2794;
5252505718523628;-0.3313;0.1308;0.2794;
5252505728626336;-0.3430;0.1041;0.2582;
5252505738729097;-0.3366;0.0892;0.2656;
5252505748837899;-0.3419;0.0178;0.2667;
5252505758940607;-0.3281;-0.0365;0.2177;
5252505769043368;-0.2951;-0.0418;0.2028;
5252505779143524;-0.2812;-0.0439;0.1847;
5252505789246232;-0.2365;-0.0770;0.1762;
5252505799348941;-0.1917;-0.0993;0.1644;
5252505809438420;-0.1566;-0.0546;0.1367;
5252505819541128;-0.1193;-0.0280;0.1421;
5252505829643888;-0.0852;-0.0365;0.1559;
5252505839749774;-0.0352;-0.0876;0.1730;
5252505849852482;-0.0373;-0.1100;0.1826;
5252505859955243;-0.0597;-0.0897;0.1570;
5252505870055138;-0.0820;-0.0482;0.1676;
5252505880157847;-0.0959;-0.0258;0.1719;
5252505890260607;-0.0980;-0.0109;0.1442;
5252505900360711;-0.1055;0.0253;0.1101;
5252505910463420;-0.1225;0.0605;0.1016;
5252505920566128;-0.1225;0.0573;0.0963;
5252505930679670;-0.1204;0.0146;0.0792;
5252505940782378;-0.1385;0.0136;0.0643;
5252505950885138;-0.1417;-0.0312;0.0526;
5252505960960711;-0.1097;-0.0557;0.0494;
5252505971063420;-0.1012;-0.0269;0.0601;
5252505981166128;-0.1214;-0.0184;0.0675;
5252505991284982;-0.1214;-0.0130;0.0569;
5252506001387691;-0.1310;0.0210;0.0494;
5252506011490451;-0.1321;0.0200;0.0505;
5252506021591336;-0.1246;-0.0109;0.0345;
5252506031694045;-0.1289;0.0136;0.0281;
5252506041796805;-0.1481;0.0615;0.0004;
5252506051900711;-0.1449;0.0764;0.0142;
5252506062003420;-0.1385;0.0722;0.0206;
5252506072106180;-0.1491;0.0999;0.0015;
5252506082201232;-0.1534;0.0924;-0.0103;
5252506092303941;-0.1374;0.0349;-0.0166;
5252506102406701;-0.1150;-0.0386;-0.0326;
5252506112517274;-0.1150;-0.0866;-0.0220;
5252506122619982;-0.1406;-0.0695;-0.0422;
5252506132722743;-0.1406;-0.0876;-0.0454;
5252506142829722;-0.1161;-0.0557;-0.0454;
5252506152932430;-0.1161;0.0807;-0.0667;
5252506163035191;-0.1204;0.1627;-0.0678;
5252506173139305;-0.0618;0.1393;-0.0678;
5252506183242013;-0.0107;0.0615;-0.0582;
5252506193344774;0.0096;-0.0375;-0.0582;
5252506203455138;-0.0192;-0.0365;-0.0742;
5252506213557847;-0.0618;0.0317;-0.0667;
5252506223660607;-0.0415;0.0956;-0.0742;
5252506233752691;-0.0149;0.1361;-0.0656;
5252506243855399;-0.0138;0.1638;-0.0742;
5252506253958159;0.0021;0.1989;-0.0838;
5252506264055972;0.0021;0.1606;-0.0869;
5252506274158680;0.0234;0.0605;-0.1051;
5252506284261441;0.0330;-0.0375;-0.1210;
5252506294402066;0.0064;-0.1164;-0.1157;
5252506304504774;0.0075;-0.1771;-0.0891;
5252506314607482;0.0160;-0.1611;-0.0763;
5252506324666336;-0.0107;-0.0642;-0.0859;
5252506334769045;-0.0202;-0.0077;-0.0827;
5252506344871753;0.0288;0.0008;-0.0731;
5252506354981649;0.1087;-0.0067;-0.0667;
5252506365084357;0.1609;-0.0290;-0.0262;
5252506375187118;0.1214;-0.0312;-0.0401;
5252506385308159;0.0842;-0.0610;-0.0081;
5252506395410920;0.0565;-0.0759;-0.0071;
5252506405513628;0.0245;-0.0354;-0.0486;
5252506415599149;-0.0085;-0.0077;-0.0646;
5252506425701857;-0.0032;0.0221;-0.0688;
5252506435804618;0.0032;0.0573;-0.0742;
5252506445915191;0.0117;0.0413;-0.0816;
5252506456017899;0.0277;0.0104;-0.0901;
5252506466120607;0.0352;0.0189;-0.0742;
5252506476233420;0.0309;-0.0120;-0.0475;
5252506486336128;0.0522;-0.0897;-0.0156;
5252506496438888;0.0373;-0.1068;-0.0177;
5252506506527586;-0.0096;-0.0770;-0.0262;
5252506516630295;-0.0160;-0.0610;-0.0241;
5252506526733055;0.0011;-0.0312;-0.0358;
5252506536843003;-0.0032;0.0242;-0.0550;
5252506546945763;-0.0053;0.0530;-0.0507;
5252506557048524;0.0117;-0.0109;-0.0443;
5252506567156545;0.0202;-0.0940;-0.0369;
5252506577259305;0.0107;-0.0642;-0.0475;
5252506587362066;-0.0000;-0.0258;-0.0465;
5252506597455607;0.0298;-0.0386;-0.0028;
5252506607558368;0.0415;-0.0109;0.0142;
5252506617661128;0.0256;0.0413;0.0174;
5252506627766128;-0.0043;0.0466;0.0036;
5252506637868888;-0.0011;0.0178;-0.0039;
5252506647971649;-0.0064;0.0115;-0.0262;
5252506658069253;-0.0224;0.0061;-0.0507;
5252506668172013;-0.0085;-0.0344;-0.0433;
5252506678274722;-0.0128;-0.0780;-0.0518;
5252506688384253;-0.0117;-0.0684;-0.0411;
5252506698487013;-0.0000;-0.0099;-0.0443;
5252506708589774;0.0288;0.0104;-0.0411;
5252506718688003;0.0703;-0.0024;-0.0103;
5252506728790763;0.0873;-0.0141;0.0228;
5252506738893524;0.0884;-0.0248;0.0430;
5252506748999878;0.0543;-0.0237;0.0238;
5252506759102638;0.0330;0.0306;0.0324;
5252506769205399;0.0181;0.1510;0.0345;
5252506779303420;0.0128;0.1979;0.0025;
5252506789406180;0.0458;0.1787;-0.0198;
5252506799508888;0.0394;0.1489;-0.0273;
5252506809614722;0.0298;0.1233;-0.0316;
5252506819717482;0.0245;0.0562;-0.0443;
5252506829820243;0.0373;-0.0333;-0.0422;
5252506839942326;0.0426;-0.0631;-0.0049;
5252506850045138;0.0266;-0.0226;0.0068;
5252506860147899;0.0149;0.0104;0.0281;
5252506870227378;0.0085;-0.0035;0.0356;
5252506880330138;0.0330;0.0221;0.0430;
5252506890432899;0.0181;0.0636;0.0206;
5252506900531232;0.0383;0.0189;-0.0007;
5252506910633993;0.0330;0.0232;0.0111;
5252506920736753;0.0138;0.0381;0.0015;
5252506930857638;0.0096;-0.0077;0.0164;
5252506940960399;0.0064;0.0221;-0.0103;
5252506951063159;0.0138;0.0573;-0.0134;
5252506961178211;0.0383;0.0498;-0.0017;
5252506971280972;0.0405;0.0296;-0.0017;
5252506981383732;0.0458;-0.0120;0.0153;
5252506991463941;0.0064;-0.0099;0.0111;
5252507001566701;-0.0021;-0.0077;0.0121;
5252507011669461;0.0011;-0.0450;0.0079;
5252507021770399;-0.0043;-0.0077;-0.0124;
5252507031873159;-0.0234;0.0285;-0.0252;
5252507041975920;0.0011;0.0168;-0.0188;
5252507052073472;-0.0032;0.0178;-0.0241;
5252507062176232;-0.0043;-0.0035;-0.0422;
5252507072278993;0.0160;-0.0237;-0.0273;
5252507082374149;0.0202;0.0136;-0.0103;
5252507092476909;0.0181;0.0178;0.0079;
5252507102579670;0.0341;-0.0322;0.0281;
5252507112694357;0.0075;-0.0141;0.0111;
5252507122797118;-0.0138;0.0040;0.0153;
5252507132899826;-0.0107;0.0093;0.0036;
5252507143002170;-0.0107;0.0509;-0.0028;
5252507153104930;-0.0128;0.0370;-0.0081;
5252507163207691;0.0128;0.0285;-0.0028;
5252507173305607;-0.0149;0.0349;-0.0071;
5252507183408368;-0.0043;0.0221;-0.0305;
5252507193511128;0.0181;0.0168;0.0121;
5252507203629461;0.0043;0.0157;0.0196;
5252507213732222;0.0320;-0.0045;0.0356;
5252507223834982;0.0043;-0.0418;0.0228;
5252507233926649;0.0117;-0.0493;0.0387;
5252507244029409;-0.0043;-0.0045;0.0387;
5252507254132170;-0.0107;-0.0194;0.0260;
5252507264225034;-0.0032;-0.0578;0.0047;
5252507274327795;-0.0128;-0.1036;0.0025;
5252507284430555;-0.0213;-0.2367;0.0185;
5252507294536649;-0.0117;-0.1814;0.0153;
5252507304639409;-0.0565;-0.0109;0.0142;
5252507314742170;-0.0586;0.0498;0.0324;
5252507324900711;0.0138;0.0285;0.0611;
5252507335003420;0.0437;-0.0375;0.0867;
5252507345106232;0.0341;0.0306;0.0611;
5252507355147586;-0.0298;0.1340;0.0632;
5252507365250347;-0.0224;0.1063;0.0409;
5252507375353107;0.0107;0.1297;0.0345;
5252507385492951;-0.0149;0.2085;0.0111;
5252507395595711;-0.0341;0.0647;-0.0007;
5252507405698472;-0.0149;0.1393;-0.0348;
5252507415763055;-0.0959;0.1627;-0.0379;
5252507425865816;-0.0618;-0.2719;-0.0113;
5252507435968576;0.0394;-0.2889;-0.0060;
5252507446080711;-0.0309;-0.1718;0.0132;
5252507456183472;-0.0607;-0.2325;0.0260;
5252507466286180;-0.0213;-0.1931;0.0356;
5252507476408420;-0.0277;-0.1409;0.0537;
5252507486511180;-0.0522;-0.0322;0.0398;
5252507496613941;-0.0586;0.0051;0.0377;
5252507506707691;-0.0181;-0.0897;0.0313;
5252507516810451;0.0256;-0.0216;0.0036;
5252507526913211;-0.0192;0.0391;0.0100;
5252507537019253;-0.0160;0.0178;0.0121;
5252507547122013;-0.0213;0.1340;-0.0081;
5252507557224774;-0.0224;0.1414;-0.0039;
5252507567325399;0.0085;0.0051;-0.0028;
5252507577428159;0.0032;0.0541;-0.0475;
5252507587530920;-0.0362;0.0487;-0.0465;
5252507597632222;-0.0277;-0.0525;-0.0284;
5252507607734982;-0.0192;-0.0237;-0.0507;
5252507617837743;-0.0447;-0.0514;-0.0390;
5252507627941753;-0.0181;-0.0802;-0.0326;
5252507638044513;-0.0266;-0.0120;-0.0188;
5252507648147274;-0.0213;-0.0141;-0.0209;
5252507658245920;0.0043;-0.0226;0.0025;
5252507668348680;-0.0053;-0.0216;0.0217;
5252507678451441;0.0128;-0.0748;0.0142;
5252507688551857;0.0043;-0.0269;0.0015;
5252507698654618;-0.0256;0.0391;-0.0113;
5252507708757378;0.0064;0.0466;-0.0156;
5252507718867378;-0.0000;0.0850;-0.0220;
5252507728970138;-0.0000;0.0807;-0.0390;
5252507739072899;0.0053;0.0668;-0.0433;
5252507749163732;-0.0000;0.0381;-0.0316;
5252507759266493;-0.0107;-0.0162;-0.0284;
5252507769369253;-0.0128;0.0083;-0.0145;
5252507779479878;-0.0181;0.0402;0.0015;
5252507789582638;0.0053;-0.0099;0.0047;
5252507799685399;-0.0032;0.0210;-0.0198;
5252507809789774;-0.0064;0.0381;-0.0220;
5252507819892534;0.0053;0.0029;-0.0209;
5252507829995295;0.0128;0.0168;-0.0390;
5252507840102899;0.0075;-0.0237;-0.0401;
5252507850205711;0.0288;-0.0407;-0.0348;
5252507860308472;0.0352;-0.0535;-0.0103;
5252507870397482;0.0352;-0.0812;-0.0145;
5252507880500243;0.0543;-0.0407;-0.0039;
5252507890603003;0.0533;-0.0439;0.0409;
5252507900702222;0.0820;-0.0546;0.0526;
5252507910804982;0.0565;0.0040;0.0313;
5252507920907743;0.0160;-0.0077;0.0281;
5252507931029878;0.0554;0.0402;0.0313;
5252507941132638;0.0085;0.1318;0.0238;
5252507951235399;0.0170;0.1499;0.0121;
5252507961331284;0.0394;0.1393;-0.0049;
5252507971434045;0.0426;0.1158;0.0100;
5252507981536805;0.0330;0.0487;0.0217;
5252507991634045;-0.0032;0.0551;0.0079;
5252508001736805;-0.0138;0.0626;0.0377;
5252508011839566;0.0149;-0.0365;0.0622;
5252508021949722;0.0075;-0.0450;0.0547;
5252508032052482;-0.0096;0.0317;0.0430;
5252508042155243;-0.0011;0.0988;0.0494;
5252508052240711;0.0181;0.0019;0.0515;
5252508062343472;0.0234;-0.0716;0.0462;
5252508072446232;-0.0181;0.0157;0.0260;
5252508082539149;-0.0149;0.0008;0.0377;
5252508092641909;-0.0128;-0.0866;0.0611;
5252508102744670;-0.0256;-0.0525;0.0632;
5252508112867795;-0.0458;-0.0077;0.0601;
5252508122970555;-0.0288;-0.1142;0.0622;
5252508133073316;-0.0373;-0.2527;0.0505;
5252508143164357;-0.0447;-0.3124;0.0419;
5252508153267170;-0.0863;-0.1047;0.0473;
5252508163369930;-0.1822;0.1137;0.0302;
5252508173478316;-0.0991;0.0743;0.0270;
5252508183581076;0.0511;-0.0418;0.0068;
5252508193683836;0.0192;-0.0780;0.0206;
5252508203786857;-0.0628;-0.0386;0.0174;
5252508213889618;-0.1097;-0.0173;0.0057;
5252508223992378;-0.1236;-0.0738;0.0164;
5252508234088472;-0.1065;-0.1057;0.0111;
5252508244191232;-0.1417;-0.0354;-0.0060;
5252508254293941;-0.2354;0.2043;-0.0422;
5252508264461232;-0.2375;0.3767;-0.0603;
5252508274564513;-0.0170;-0.0706;-0.0529;
5252508284667743;0.1502;-0.0887;-0.0859;
5252508294715138;-0.1044;0.2446;-0.0539;
5252508304818420;-0.1736;0.1063;-0.0081;
5252508314921701;0.0011;0.0115;-0.0305;
5252508325060711;-0.0522;0.0977;-0.0486;
5252508335163993;-0.0905;0.0967;-0.0529;
5252508345267222;-0.0405;-0.0024;-0.0667;
5252508355336493;-0.0224;-0.0940;-0.0763;
5252508365439774;-0.0053;-0.0322;-0.0880;
5252508375543055;-0.0053;0.0072;-0.0816;
5252508385627013;0.0426;-0.0365;-0.0752;
5252508395730295;0.0756;0.0253;-0.0710;
5252508405833576;0.0692;-0.0248;-0.0454;
5252508415942430;0.1055;-0.1036;-0.0177;
5252508426045711;0.0330;0.0178;-0.0284;
5252508436148993;-0.0032;0.0200;-0.0092;
5252508446253159;0.0511;-0.0525;-0.0081;
5252508456356441;0.0138;0.0647;-0.0188;
5252508466459722;-0.0117;0.1787;-0.0646;
5252508476585138;0.0181;0.1979;-0.0593;
5252508486688420;0.0405;0.1276;-0.0571;
5252508496791649;0.0660;0.0072;-0.0720;
5252508506872847;0.0256;-0.0386;-0.0550;
5252508516976128;0.0011;-0.1281;-0.0241;
5252508527079409;-0.0032;-0.2357;0.0068;
5252508537173993;-0.0202;-0.2367;0.0004;
5252508547277274;-0.0192;-0.1792;-0.0134;
5252508557380555;-0.0128;-0.1132;0.0057;
5252508567484826;0.0096;-0.0514;0.0121;
5252508577588107;0.0128;-0.0045;0.0004;
5252508587691388;0.0117;-0.0109;0.0100;
5252508597790868;0.0117;-0.0429;0.0079;
5252508607894149;-0.0202;0.0115;-0.0134;
5252508617997430;-0.0373;0.0658;-0.0198;
5252508628103576;-0.0330;0.0328;0.0036;
5252508638206857;-0.0458;0.0839;0.0185;
5252508648310138;-0.0458;0.0860;0.0068;
5252508658423368;-0.0117;-0.0269;0.0079;
5252508668526649;-0.0149;-0.0237;0.0185;
5252508678629930;-0.0256;-0.0290;0.0238;
5252508688728003;-0.0117;-0.0386;0.0100;
5252508698831284;-0.0266;0.0317;0.0302;
5252508708934566;-0.0085;0.0764;0.0153;
5252508719027534;-0.0011;0.0786;0.0025;
5252508729130816;-0.0170;0.0594;0.0089;
5252508739234097;-0.0256;0.0434;0.0206;
5252508749336076;-0.0447;0.0551;0.0142;
5252508759439357;-0.0266;0.0072;0.0238;
5252508769542638;-0.0181;-0.0035;0.0398;
5252508779655243;-0.0160;0.0647;0.0377;
5252508789758524;-0.0149;0.0850;0.0164;
5252508799861805;-0.0053;0.0828;0.0164;
5252508809952170;-0.0170;0.0935;0.0206;
5252508820055451;0.0075;0.1308;0.0004;
5252508830158732;-0.0117;0.1638;0.0079;
5252508840259513;-0.0096;0.1510;0.0185;
5252508850362743;-0.0383;0.1350;0.0217;
5252508860466024;-0.0437;0.1063;0.0100;
5252508870574097;-0.0394;0.0551;0.0153;
5252508880677378;-0.0373;0.0264;0.0228;
5252508890780659;-0.0511;-0.0237;0.0004;
5252508900869670;-0.0373;-0.0567;-0.0039;
5252508910972951;-0.0288;-0.0258;-0.0103;
5252508921076232;-0.0160;-0.0205;-0.0220;
5252508931207534;-0.0053;-0.0354;-0.0166;
5252508941310816;-0.0032;-0.0908;0.0142;
5252508951414097;-0.0288;-0.1004;0.0164;
5252508961502951;-0.0394;-0.0897;0.0111;
5252508971606232;-0.0490;-0.1377;0.0302;
5252508981709461;-0.0458;-0.1270;0.0238;
5252508991817118;-0.0586;-0.1015;0.0047;
5252509001920399;-0.0778;-0.1377;-0.0177;
5252509012023680;-0.0895;-0.2016;-0.0166;
5252509022118680;-0.0778;-0.3667;0.0121;
5252509032221961;-0.0213;-0.1973;-0.0379;
5252509042325243;-0.0533;0.1190;-0.0912;
5252509052416076;-0.0778;0.1308;-0.0273;
5252509062519357;-0.0085;0.0360;0.0249;
5252509072622638;0.0831;0.0573;0.0249;
5252509082731284;0.0383;0.1585;0.0249;
5252509092834566;-0.0490;0.2233;0.0111;
5252509102937847;-0.0426;0.1936;-0.0134;
5252509113035034;-0.0426;0.1830;-0.0262;
5252509123138316;-0.0650;0.1819;-0.0294;
5252509133241597;-0.0671;0.2137;-0.0667;
5252509143342430;-0.0660;0.0232;-0.0710;
5252509153445711;-0.0554;-0.4326;-0.0220;
5252509163548993;0.0341;-0.3241;-0.0028;
5252509173647951;0.0447;-0.2005;0.0100;
5252509183751232;-0.0234;-0.2985;0.0537;
5252509193854513;-0.0224;-0.2389;0.0686;
5252509203968368;-0.0288;-0.0983;0.0537;
5252509214071649;-0.0586;0.0296;0.0153;
5252509224174930;-0.0234;0.0626;0.0185;
5252509234280347;-0.0234;0.1276;-0.0081;
5252509244383680;-0.0352;0.2574;-0.0539;
5252509254486909;-0.0298;0.2222;-0.0518;
5252509264561232;-0.0298;0.1936;-0.0326;
5252509274663472;-0.0383;0.1776;-0.0326;
5252509284765816;-0.0202;0.0445;-0.0220;
5252509294886597;-0.0202;-0.0099;-0.0262;
5252509304988784;-0.0011;-0.0599;-0.0007;
5252509315091076;-0.0149;-0.1462;0.0004;
5252509325183732;-0.0149;-0.1696;-0.0017;
5252509335285972;-0.0298;-0.1356;-0.0028;
5252509345388263;-0.0181;-0.0802;-0.0177;
5252509355505607;-0.0373;-0.0184;-0.0241;
5252509365607847;-0.0266;0.0157;-0.0028;
5252509375710138;-0.0128;0.0221;0.0089;
5252509385794045;0.0011;0.0146;0.0015;
5252509395896284;-0.0107;0.0445;0.0132;
5252509405998576;-0.0320;0.0860;0.0132;
5252509416111128;-0.0490;0.1361;0.0025;
5252509426213368;-0.0192;0.1510;-0.0252;
5252509436315659;-0.0170;0.0679;-0.0113;
5252509446409305;-0.0170;0.0200;-0.0294;
5252509456511545;-0.0362;-0.0258;-0.0284;
5252509466613836;-0.0724;-0.1260;-0.0103;
5252509476758732;-0.0660;-0.1686;0.0079;
5252509486860972;-0.0682;-0.1739;0.0142;
5252509496963211;-0.0650;-0.1430;0.0057;
5252509507045399;-0.0820;-0.0397;-0.0134;
5252509517147638;-0.0682;-0.0035;-0.0071;
5252509527249930;-0.0245;-0.0035;-0.0241;
5252509537358472;-0.0383;0.0455;-0.0241;
5252509547460763;-0.0447;0.1095;-0.0443;
5252509557563003;-0.0373;0.1201;-0.0518;
5252509567666441;-0.0565;0.0860;-0.0497;
5252509577768680;-0.0650;0.0935;-0.0486;
5252509587870972;-0.0533;0.0434;-0.0369;
5252509597984774;-0.0192;-0.0216;-0.0252;
5252509608087013;-0.0298;-0.0120;-0.0379;
5252509618189305;-0.0192;-0.0674;-0.0316;
5252509628303472;-0.0096;-0.1047;-0.0337;
5252509638405711;-0.0128;-0.0802;-0.0241;
5252509648508003;-0.0149;-0.0354;-0.0433;
5252509658578524;-0.0341;0.0168;-0.0529;
5252509668680763;-0.0533;0.0690;-0.0411;
5252509678783055;-0.0224;0.0945;-0.0326;
5252509688904982;-0.0309;0.0722;-0.0262;
5252509699007222;-0.0202;0.0551;-0.0294;
5252509709109513;-0.0256;0.0881;-0.0390;
5252509719203316;-0.0362;0.0668;-0.0369;
5252509729305555;-0.0256;0.0658;-0.0582;
5252509739407847;-0.0128;0.0764;-0.0550;
5252509749513159;-0.0021;0.0519;-0.0465;
5252509759615347;-0.0075;0.0466;-0.0688;
5252509769717638;-0.0085;0.0157;-0.0614;
5252509779814774;-0.0266;0.0072;-0.0337;
5252509789917013;-0.0352;-0.0503;-0.0486;
5252509800019305;-0.0128;-0.0695;-0.0614;
5252509810125711;-0.0277;0.0040;-0.0529;
5252509820227951;-0.0032;0.0349;-0.0614;
5252509830330243;-0.0021;0.0189;-0.0784;
5252509840421649;0.0117;0.0008;-0.0806;
5252509850523888;0.0202;0.0040;-0.0891;
5252509860626128;0.0309;-0.0088;-0.0976;
5252509870744305;0.0213;-0.0099;-0.0997;
5252509880846545;0.0224;-0.0461;-0.0827;
5252509890948836;0.0330;-0.1217;-0.0646;
5252509901045920;0.0309;-0.1132;-0.0561;
5252509911148159;0.0170;-0.0631;-0.0518;
5252509921250451;0.0234;-0.0386;-0.0539;
5252509931384253;0.0224;-0.0620;-0.0688;
5252509941486493;0.0373;-0.0280;-0.0720;
5252509951588784;0.0224;0.0402;-0.0859;
5252509961672118;0.0149;0.0391;-0.0987;
5252509971774357;0.0138;0.0391;-0.1051;
5252509981876597;0.0202;0.0264;-0.0869;
5252509991973107;0.0138;-0.0514;-0.0646;
5252510002075347;0.0288;-0.0439;-0.0656;
5252510012177638;0.0170;-0.0248;-0.0624;
5252510022292378;0.0405;-0.0503;-0.0561;
5252510032394618;0.0341;-0.0493;-0.0699;
5252510042496909;0.0533;-0.0045;-0.0710;
5252510052590451;0.0415;0.0093;-0.0667;
5252510062692691;0.0639;0.0189;-0.0688;
5252510072794930;0.0469;0.0988;-0.0699;
5252510082899045;0.0383;0.0871;-0.0433;
5252510093001284;0.0511;0.0242;-0.0348;
5252510103103576;0.0522;0.0583;-0.0316;
5252510113208732;0.0394;0.0871;-0.0348;
5252510123310972;0.0490;0.0881;-0.0220;
5252510133413263;0.0383;0.0370;-0.0241;
5252510143510555;0.0543;-0.0013;-0.0326;
5252510153612795;0.0437;0.0029;-0.0348;
5252510163715086;0.0415;-0.0333;-0.0348;
5252510173805503;0.0501;-0.0301;-0.0188;
5252510183907743;0.0469;-0.0727;0.0249;
5252510194010034;0.0415;-0.1185;0.0100;
5252510204120920;0.0298;-0.0482;-0.0081;
5252510214223159;0.0394;-0.0450;0.0089;
5252510224325451;0.0383;-0.0631;0.0334;
5252510234453420;0.0160;-0.0375;0.0057;
5252510244555711;0.0405;0.0104;-0.0092;
5252510254657951;0.0383;0.0381;0.0004;
5252510264753316;0.0330;0.0466;-0.0092;
5252510274856128;0.0181;0.0786;-0.0060;
5252510284958993;0.0117;0.0264;-0.0092;
5252510295088107;0.0117;-0.0280;-0.0220;
5252510305190920;0.0234;-0.0130;-0.0124;
5252510315293732;0.0256;-0.0567;0.0068;
5252510325358316;0.0352;-0.1132;0.0047;
5252510335461128;0.0224;-0.2229;-0.0039;
5252510345563941;0.0320;-0.3039;0.0036;
5252510355677899;0.0064;-0.2186;-0.0166;
5252510365780711;-0.0011;-0.0120;-0.0348;
5252510375883524;0.0128;0.1382;-0.0198;
5252510385979774;0.0703;0.0072;0.0153;
5252510396082586;0.1799;-0.0759;0.0398;
5252510406185399;0.1523;0.0477;0.0068;
5252510416285816;0.0107;0.1180;0.0153;
5252510426388628;0.0469;0.0892;0.0036;
5252510436491441;0.0405;0.1031;-0.0124;
5252510446583107;0.0330;0.2798;-0.0486;
5252510456685920;0.0330;0.3852;-0.0571;
5252510466788732;0.1236;0.0573;-0.0465;
5252510476895607;0.1692;-0.0780;-0.0390;
5252510486998420;0.0394;-0.0216;-0.0049;
5252510497101232;0.0309;-0.1324;0.0185;
5252510507221857;0.0597;-0.1771;0.0228;
5252510517324670;0.0309;-0.1217;0.0302;
5252510527427482;0.0458;-0.1025;0.0260;
5252510537530295;0.0511;-0.0866;-0.0007;
5252510547633107;0.0842;-0.0972;-0.0113;
5252510557735920;0.0767;-0.0961;0.0025;
5252510567840920;0.0490;-0.0088;-0.0071;
5252510577943732;0.0490;0.0509;0.0047;
5252510588046545;0.0714;0.0722;0.0164;
5252510598152795;0.0692;0.1446;0.0015;
5252510608255607;0.0660;0.1979;0.0036;
5252510618358420;0.0692;0.2169;-0.0081;
5252510628430086;0.0767;0.1670;-0.0252;
5252510638532899;0.0671;0.1116;-0.0358;
5252510648635711;0.0330;0.0924;-0.0465;
5252510658763836;0.0213;-0.0226;-0.0465;
5252510668866649;0.0437;-0.1036;-0.0433;
5252510678969461;0.0234;-0.1803;-0.0433;
5252510689065816;0.0554;-0.3252;-0.0209;
5252510699168628;0.0522;-0.3337;-0.0113;
5252510709271441;0.0373;-0.2176;-0.0017;
5252510719376128;0.0362;-0.0663;0.0302;
5252510729478941;0.0703;0.0360;0.0441;
5252510739581753;0.1321;0.1734;0.0089;
5252510749689878;0.1545;0.2403;0.0111;
5252510759792691;0.2182;0.2117;-0.0113;
5252510769895503;0.1852;0.2585;-0.0241;
5252510779983420;0.0618;0.2021;-0.0124;
5252510790086232;0.0575;0.0573;-0.0060;
5252510800189045;0.0522;0.0626;-0.0230;
5252510810294878;0.0309;0.0061;0.0025;
5252510820397691;0.0895;-0.1483;0.0398;
5252510830500503;0.0863;-0.2826;0.0664;
5252510840603263;0.0863;-0.2985;0.0814;
5252510850706128;0.0405;-0.2037;0.0952;
5252510860808888;0.0096;-0.0855;0.1016;
5252510870906545;0.0117;0.0253;0.1005;
5252510881009357;0.0277;0.0232;0.0952;
5252510891112170;-0.0053;0.0754;0.0707;
5252510901210295;-0.0277;0.2064;0.0494;
5252510911313107;-0.0511;0.1925;0.0462;
5252510921415920;-0.0234;0.1105;0.0462;
5252510931521441;-0.0522;0.0850;0.0345;
5252510941624253;-0.1065;0.0466;0.0217;
5252510951727066;-0.0650;-0.0589;0.0462;
5252510961856701;-0.0330;-0.0642;0.0483;
5252510971959513;-0.0533;-0.1419;0.0590;
5252510982062326;-0.0373;-0.2282;0.0579;
5252510992152795;-0.0362;-0.1377;0.0537;
5252511002255607;-0.0639;-0.1079;0.0302;
5252511012358420;-0.0117;-0.1132;0.0121;
5252511022461805;0.0117;-0.0503;0.0228;
5252511032564618;0.0011;0.0296;-0.0028;
5252511042667430;0.0511;0.1329;0.0036;
5252511052769566;0.0277;-0.0706;0.0057;
5252511062872378;0.0597;-0.2122;0.0004;
5252511072975191;0.0138;-0.0887;-0.0134;
5252511083066441;0.0266;0.0487;-0.0220;
5252511093169253;0.0501;0.0328;-0.0007;
5252511103272066;0.0810;-0.1345;0.0228;
5252511113374566;0.1161;-0.2549;0.0590;
5252511123477378;0.0682;-0.0024;0.0462;
5252511133580191;0.0256;0.3863;-0.0422;
5252511143685920;0.0927;0.3991;-0.0060;
5252511153788732;0.1703;0.3490;0.0292;
5252511163891545;0.1545;0.6164;-0.0103;
5252511173980920;0.0991;0.2382;-0.0071;
5252511184083732;0.1385;-0.0908;-0.0103;
5252511194186545;0.0320;0.0210;-0.0241;
5252511204308420;0.0117;-0.0439;-0.0039;
5252511214411232;0.0884;-0.0216;-0.0049;
5252511224514097;0.1118;-0.1739;0.0324;
5252511234597691;0.1831;-0.5754;0.0846;
5252511244700555;0.1714;-0.4497;0.0909;
5252511254803316;0.0160;-0.3294;0.1272;
5252511264935711;-0.0458;-0.5391;0.1389;
5252511275038576;0.0107;-1.0503;0.2007;
5252511285141441;-0.0735;-0.3720;0.1218;
5252511295212691;-0.2791;0.9315;-0.0838;
5252511305315555;-0.5772;1.0839;-0.0688;
5252511315418368;-0.3185;0.1968;0.0419;
5252511325539201;0.4100;0.2106;-0.0092;
5252511335642066;0.2023;0.5162;-0.0752;
5252511345744878;-0.4165;0.1819;-0.0454;
5252511355876961;-0.2141;0.0306;-0.0497;
5252511365979826;-0.0320;0.1169;-0.0795;
5252511376082638;-0.0565;0.5258;-0.1168;
5252511386146805;-0.1694;0.3852;-0.1328;
5252511396249670;0.1182;-1.3827;0.0515;
5252511406352482;0.5762;-0.8257;0.0728;
5252511416453888;0.1662;0.1286;0.0164;
5252511426556753;-0.1001;-0.3475;0.1069;
5252511436659566;0.1289;-0.3964;0.1304;
5252511446767066;-0.0341;0.0498;0.0451;
5252511456869878;-0.3110;0.4001;-0.0742;
5252511466972743;-0.2386;0.3021;-0.0742;
5252511477070503;-0.1065;0.1276;-0.0550;
5252511487173368;-0.1619;0.4598;-0.0816;
5252511497276180;-0.2290;0.2467;-0.0443;
5252511507392066;-0.0714;-0.1750;-0.0039;
5252511517494930;0.0224;0.1297;-0.0369;
5252511527597743;-0.0213;0.0136;-0.0071;
5252511537709045;0.0650;-0.2879;0.0132;
5252511547811909;0.1470;0.0253;-0.0081;
5252511557914722;0.0692;-0.0024;0.0079;
5252511568002586;0.1566;-0.1366;0.0409;
5252511578105451;0.1566;0.1190;0.0441;
5252511588208263;0.0735;0.1137;0.0782;
5252511598326649;0.1566;-0.0184;0.0984;
5252511608429461;0.1118;0.0754;0.1016;
5252511618532326;0.0469;0.0487;0.0846;
5252511628607638;0.0788;0.0306;0.0984;
5252511638710503;0.0107;0.1073;0.0877;
5252511648813316;0.0234;0.0093;0.0877;
5252511658933316;0.0458;-0.0450;0.1229;
5252511669036180;0.0085;0.0509;0.1229;
5252511679138993;0.0192;0.0668;0.1346;
5252511689231388;0.0224;0.0679;0.1623;
5252511699334253;0.0043;0.1297;0.1591;
5252511709437066;-0.0202;0.1446;0.1240;
5252511719547899;-0.0213;0.0967;0.1112;
5252511729650763;-0.0682;0.1148;0.0814;
5252511739753576;-0.0831;0.0722;0.0664;
5252511749850399;-0.0756;0.0743;0.0515;
5252511759953211;-0.0969;0.1020;0.0483;
5252511770056076;-0.0639;-0.0280;0.0601;
5252511780154045;-0.0234;-0.1505;0.0750;
5252511790256909;-0.0799;-0.1601;0.0888;
5252511800359722;-0.1161;-0.1803;0.0696;
5252511810460399;-0.1129;-0.1398;0.0324;
5252511820563263;-0.1427;-0.0013;0.0398;
5252511830666076;-0.1981;0.0690;0.0111;
5252511840782378;-0.1097;0.0136;-0.0198;
5252511850885243;-0.0660;-0.0035;-0.0497;
5252511860988055;-0.1150;0.0040;-0.0497;
5252511871077222;-0.1363;-0.0099;-0.0624;
5252511881180086;-0.1076;-0.0354;-0.0550;
5252511891282899;-0.0905;-0.0088;-0.0710;
5252511901385295;-0.0842;0.0477;-0.1008;
5252511911488159;-0.0703;0.0594;-0.1093;
5252511921590972;-0.0969;-0.2325;-0.0944;
5252511931688107;-0.0554;-0.5136;-0.0965;
5252511941790972;-0.0128;-0.2346;-0.1498;
5252511951893784;-0.1065;0.0317;-0.1477;
5252511961989566;-0.0991;-0.0248;-0.1455;
5252511972092430;0.0181;-0.0450;-0.1157;
5252511982195243;0.0735;0.0881;-0.0838;
5252511992316753;0.0724;0.1744;-0.1115;
5252512002419618;0.1278;0.1297;-0.1328;
5252512012522430;0.1545;0.1308;-0.0987;
5252512022619670;0.0533;0.1915;-0.1253;
5252512032722534;0.0170;0.5695;-0.1636;
5252512042825347;0.0043;0.0945;-0.1519;
5252512052928316;0.1268;-0.3539;-0.1285;
5252512063031180;0.1300;0.0615;-0.1466;
5252512073133993;0.0458;0.0445;-0.1040;
5252512083237638;0.1204;-0.1739;-0.0678;
5252512093340503;0.1566;-0.1654;-0.0326;
5252512103443316;0.1023;-0.1260;-0.0028;
5252512113546545;0.0469;-0.0461;-0.0124;
5252512123649409;0.0107;-0.0493;-0.0316;
5252512133752222;0.0341;0.0636;-0.0667;
5252512143844982;0.0352;0.3032;-0.0774;
5252512153947847;0.0437;0.2329;-0.0710;
5252512164050659;0.1427;0.2148;-0.0582;
5252512174145086;0.1438;0.3075;-0.0624;
5252512184247899;0.1108;0.1563;-0.0486;
5252512194350763;0.0767;0.1041;-0.0465;
5252512204466024;0.0149;0.2021;-0.0475;
5252512214568888;0.0096;0.0573;-0.0603;
5252512224671701;0.0320;-0.0620;-0.0497;
5252512234775972;0.0234;-0.0834;-0.0571;
5252512244878836;0.0320;-0.2133;-0.0624;
5252512254981701;0.0426;-0.3134;-0.0379;
5252512265079045;0.0639;-0.3039;-0.0134;
5252512275181545;0.0639;-0.3060;-0.0124;
5252512285284097;0.0501;-0.3102;-0.0134;
5252512295380816;0.0362;-0.1601;-0.0156;
5252512305483316;0.0192;-0.1366;-0.0316;
5252512315585868;0.0447;-0.1302;-0.0603;
5252512325759513;0.0320;0.0423;-0.0816;
5252512335862066;0.0479;0.0242;-0.0923;
5252512345964618;0.0437;-0.0088;-0.0997;
5252512356003107;0.0490;0.0850;-0.0891;
5252512366105659;0.0565;0.1031;-0.0752;
5252512376208159;0.0628;0.0828;-0.0763;
5252512386310086;0.0639;0.0796;-0.0912;
5252512396412638;0.0330;0.0455;-0.0720;
5252512406515138;0.0405;0.0317;-0.0901;
5252512416624253;0.0437;0.0498;-0.0976;
5252512426726805;0.0671;0.0690;-0.0944;
5252512436829305;0.0895;0.0690;-0.0859;
5252512446953316;0.1278;-0.0482;-0.0635;
5252512457055816;0.1873;-0.0961;-0.0348;
5252512467158368;0.2076;-0.0109;-0.0273;
5252512477227170;0.2001;0.0413;-0.0273;
5252512487329670;0.2225;0.1691;0.0025;
5252512497432222;0.2321;0.2276;0.0356;
5252512507548732;0.2736;0.2212;0.0515;
5252512517651232;0.2470;0.2137;0.0547;
5252512527753784;0.1651;0.1403;0.0675;
5252512537855503;0.1172;0.0626;0.0505;
5252512547958055;0.1204;0.0679;0.0590;
5252512558060555;0.1076;-0.0120;0.0696;
5252512568163211;0.1225;-0.3017;0.1059;
5252512578265763;0.1863;-0.2463;0.1218;
5252512588368263;0.1438;-0.0322;0.1197;
5252512598476649;0.0916;-0.0471;0.1410;
5252512608579149;0.1129;-0.1377;0.1762;
5252512618681701;0.0884;-0.1174;0.2007;
5252512628779461;0.0437;-0.0067;0.1687;
5252512638881961;0.0192;0.0136;0.1474;
5252512648984513;0.0490;0.0168;0.1314;
5252512659086805;0.0650;0.0924;0.1037;
5252512669189305;0.0298;0.3447;0.0632;
5252512679291857;0.0309;0.1254;0.0952;
5252512689399253;0.0937;-0.3731;0.1272;
5252512699501805;0.0778;-0.1015;0.1059;
5252512709604305;-0.0298;0.0711;0.0771;
5252512719707638;-0.0756;-0.1015;0.0984;
5252512729810191;0.0224;-0.1270;0.1059;
5252512739912691;0.0085;-0.0280;0.0963;
5252512750013472;-0.0522;0.0093;0.0846;
5252512760115972;-0.0096;-0.0908;0.0696;
5252512770218524;0.0256;-0.0940;0.0750;
5252512780316961;0.0096;0.0104;0.0771;
5252512790419461;0.0309;0.0168;0.0579;
5252512800522013;0.0543;0.0700;0.0441;
5252512810625086;0.0597;0.1574;0.0526;
5252512820727638;0.0543;0.0391;0.0558;
5252512830830138;0.0660;-0.0248;0.0558;
5252512840970138;0.0501;0.0370;0.0569;
5252512851072691;0.0511;-0.0056;0.0643;
5252512861175243;0.0394;-0.0099;0.0601;
5252512871242482;0.0277;0.0317;0.0686;
5252512881345034;0.0394;-0.0024;0.0515;
5252512891447534;0.0437;0.0370;0.0547;
5252512901552170;0.0565;0.1009;0.0569;
5252512911654722;0.0650;0.0466;0.0814;
5252512921757222;0.0746;0.0509;0.0696;
5252512931871128;0.0703;0.1020;0.0941;
5252512941973628;0.0671;0.0594;0.1122;
5252512952076180;0.0490;0.0466;0.0814;
5252512962196024;0.0383;0.0509;0.0824;
5252512972298524;0.0405;0.0146;0.0760;
5252512982401076;0.0501;0.0562;0.0526;
5252512992480711;0.0533;0.0306;0.0739;
5252513002583211;0.0469;-0.0397;0.0963;
5252513012685763;0.0437;-0.0482;0.1154;
5252513022786336;0.0639;-0.0610;0.1293;
5252513032888888;0.0458;-0.0471;0.1346;
5252513042991388;0.0341;0.0264;0.1293;
5252513053087899;0.0330;0.0360;0.1272;
5252513063190451;0.0362;0.0008;0.1367;
5252513073292951;0.0202;0.0274;0.0995;
5252513083403420;0.0181;0.0317;0.0920;
5252513093505972;0.0043;-0.0035;0.0973;
5252513103608472;0.0075;-0.0663;0.1208;
5252513113699982;0.0107;-0.0759;0.1176;
5252513123802534;0.0021;-0.0503;0.1282;
5252513133905034;0.0085;-0.0652;0.1549;
5252513144008003;0.0011;-0.0461;0.1517;
5252513154110503;0.0064;-0.0365;0.1527;
5252513164213055;-0.0064;-0.0301;0.1485;
5252513174361493;-0.0085;-0.0205;0.1261;
5252513184464045;-0.0192;-0.0205;0.1325;
5252513194566597;-0.0213;-0.0823;0.1527;
5252513204621961;-0.0234;-0.0993;0.1304;
5252513214724513;-0.0000;-0.0567;0.1506;
5252513224827066;-0.0011;-0.0035;0.1666;
5252513234951076;-0.0277;0.0530;0.1602;
5252513245053628;-0.0117;0.0530;0.1794;
5252513255156180;-0.0085;0.0796;0.1900;
5252513265281076;-0.0277;0.1393;0.1644;
5252513275383993;-0.0511;0.1595;0.1676;
5252513285486961;-0.0724;0.1403;0.1655;
5252513295557691;-0.0959;0.0594;0.1495;
5252513305660659;-0.0863;0.0296;0.1453;
5252513315763576;-0.0937;-0.0280;0.1602;
5252513325898628;-0.0735;-0.0695;0.1708;
5252513336001545;-0.0767;-0.1153;0.1708;
5252513346104461;-0.0756;-0.1728;0.2060;
5252513356170243;-0.1033;-0.1483;0.1975;
5252513366273211;-0.1438;-0.0897;0.1804;
5252513376376128;-0.1800;-0.0248;0.1772;
5252513386482847;-0.1875;-0.0056;0.1708;
5252513396585816;-0.1779;0.0754;0.1293;
5252513406688732;-0.1577;0.1329;0.1272;
5252513416787430;-0.1385;0.1244;0.1336;
5252513426890399;-0.1438;0.0477;0.1144;
5252513436993368;-0.1417;-0.0003;0.0963;
5252513447102899;-0.1523;0.0487;0.0835;
5252513457205816;-0.1630;0.0423;0.0824;
5252513467308732;-0.1459;-0.0258;0.0696;
5252513477405503;-0.1268;-0.1121;0.0739;
5252513487508524;-0.1214;-0.1313;0.0547;
5252513497611441;-0.1023;-0.1015;0.0547;
5252513507721232;-0.1097;-0.1398;0.0888;
5252513517824201;-0.1300;-0.1015;0.0824;
5252513527927118;-0.1268;-0.0344;0.0771;
5252513538036961;-0.1321;0.0178;0.0707;
5252513548139930;-0.1097;0.0360;0.0270;
5252513558242795;-0.1118;0.1052;0.0228;
5252513568336545;-0.1140;0.1425;0.0260;
5252513578439513;-0.0937;0.0647;0.0334;
5252513588542430;-0.0842;-0.0003;0.0196;
5252513598649357;-0.1023;0.0477;0.0345;
5252513608752274;-0.1129;0.0636;0.0494;
5252513618855191;-0.1097;0.0370;0.0430;
5252513628951128;-0.1012;0.0466;0.0473;
5252513639054097;-0.1118;0.1116;0.0356;
5252513649156961;-0.1118;0.1382;0.0153;
5252513659257430;-0.1087;0.1063;0.0366;
5252513669360451;-0.1065;0.1052;0.0537;
5252513679463316;-0.1108;0.0743;0.0430;
5252513689560555;-0.1150;0.0423;0.0569;
5252513699663576;-0.1268;0.0274;0.0601;
5252513709766441;-0.1449;-0.0834;0.0590;
5252513719874618;-0.1257;-0.1068;0.0632;
5252513729977638;-0.1502;-0.0525;0.0473;
5252513740080555;-0.1715;-0.0727;0.0483;
5252513750181076;-0.1928;-0.0365;0.0537;
5252513760284045;-0.2162;0.0178;0.0494;
5252513770387013;-0.2322;-0.0077;0.0569;
5252513780491701;-0.2514;0.0072;0.0590;
5252513790594722;-0.2844;0.0541;0.0473;
5252513800697586;-0.3025;0.0636;0.0302;
5252513810793888;-0.2727;0.1180;-0.0060;
5252513820896857;-0.2727;0.1957;-0.0166;
5252513830999774;-0.2716;0.1915;-0.0518;
5252513841103472;-0.2248;0.1585;-0.0742;
5252513851206441;-0.2109;0.0615;-0.0486;
5252513861309357;-0.1992;-0.0589;-0.0561;
5252513871408420;-0.1715;-0.0397;-0.0593;
5252513881511336;-0.1832;0.0008;-0.0539;
5252513891614305;-0.1949;0.0477;-0.0539;
5252513901724826;-0.1917;-0.0013;-0.0731;
5252513911827795;-0.1704;-0.0397;-0.0774;
5252513921930711;-0.1747;0.0402;-0.1051;
5252513932036336;-0.1800;0.0487;-0.1232;
5252513942139305;-0.1896;0.0210;-0.1391;
5252513952242170;-0.1683;0.0477;-0.1328;
5252513962335243;-0.1662;0.0274;-0.1285;
5252513972438263;-0.1651;0.0189;-0.1210;
5252513982541180;-0.1662;-0.0461;-0.1274;
5252513992645555;-0.1577;-0.0887;-0.1434;
5252514002748524;-0.1342;-0.0897;-0.1423;
5252514012851493;-0.1470;-0.1718;-0.1551;
5252514022956701;-0.1321;-0.2069;-0.1679;
5252514033059670;-0.1172;-0.0642;-0.1967;
5252514043162586;-0.1406;0.0360;-0.1935;
5252514053254774;-0.1300;0.0967;-0.1743;
5252514063357691;-0.1236;0.0594;-0.1594;
5252514073460659;-0.1140;0.0807;-0.1573;
5252514083572586;-0.1332;0.0977;-0.1828;
5252514093675555;-0.1278;0.0551;-0.2031;
5252514103778472;-0.1246;0.1403;-0.2095;
5252514113875034;-0.1087;0.2021;-0.2350;
5252514123978003;-0.1129;0.2308;-0.2435;
5252514134080920;-0.0980;-0.1025;-0.2222;
5252514144177691;0.0021;-0.2751;-0.2009;
5252514154280607;0.0873;-0.1909;-0.1839;
5252514164383576;0.0543;-0.1728;-0.1509;
5252514174484357;-0.0277;-0.1867;-0.1115;
5252514184587326;-0.0714;-0.1792;-0.1338;
5252514194690295;-0.0724;-0.0312;-0.1626;
5252514204833472;-0.0948;0.0668;-0.2020;
5252514214936441;-0.1023;0.0189;-0.2063;
5252514225039357;-0.0799;0.0115;-0.1881;
5252514235105138;-0.0842;0.0168;-0.1903;
5252514245208107;-0.0650;0.0754;-0.2052;
5252514255311024;-0.0724;0.1680;-0.1903;
5252514265441545;-0.0597;0.1403;-0.1807;
5252514275544253;-0.0128;0.0445;-0.1913;
5252514285646961;0.0692;0.0860;-0.1764;
5252514295754149;0.0565;0.0860;-0.1796;
5252514305856857;0.0671;0.0061;-0.1743;
5252514315959513;0.1097;-0.0141;-0.1700;
5252514326055816;0.0991;-0.0226;-0.1530;
5252514336158524;0.0927;0.0104;-0.1562;
5252514346261180;0.0948;-0.0429;-0.1285;
5252514356340295;0.1257;-0.1313;-0.0795;
5252514366443003;0.0905;-0.0557;-0.0869;
5252514376545711;0.0330;-0.0674;-0.0923;
5252514386657274;0.0352;-0.0578;-0.1051;
5252514396759982;0.0032;0.0381;-0.1285;
5252514406862691;-0.0000;0.0583;-0.1381;
5252514416960503;0.0437;0.0402;-0.1253;
5252514427063159;0.0298;0.0434;-0.1157;
5252514437165868;0.0341;0.0232;-0.1051;
5252514447272482;0.0224;0.0402;-0.1019;
5252514457375191;0.0224;0.0200;-0.0923;
5252514467477847;0.0298;-0.0184;-0.1008;
5252514477573472;0.0192;0.0040;-0.1221;
5252514487676180;0.0117;-0.0109;-0.1296;
5252514497778888;-0.0011;-0.0290;-0.1466;
5252514507887691;0.0330;-0.0226;-0.1402;
5252514517990399;0.0245;-0.0493;-0.1328;
5252514528093055;0.0373;-0.0162;-0.1328;
5252514538203836;0.0170;0.0700;-0.1157;
5252514548306545;0.0373;0.0019;-0.1061;
5252514558409201;0.0554;-0.0290;-0.1349;
5252514568509566;0.0437;0.0839;-0.1445;
5252514578612274;0.0373;0.0828;-0.1562;
5252514588714930;0.0501;0.0636;-0.1722;
5252514598811232;0.0639;0.0743;-0.1775;
5252514608913941;0.0863;-0.0152;-0.1626;
5252514619016649;0.1150;-0.0557;-0.1605;
5252514629125399;0.1097;-0.0407;-0.1221;
5252514639228107;0.0948;-0.0695;-0.0976;
5252514649330816;0.1204;-0.0706;-0.1072;
5252514659429566;0.0991;-0.0493;-0.1104;
5252514669532274;0.0682;0.0019;-0.1274;
5252514679634982;0.0607;-0.0716;-0.1477;
5252514689738836;0.0778;-0.1909;-0.1221;
5252514699841545;0.0831;-0.0205;-0.1242;
5252514709944201;0.0575;0.0913;-0.1360;
5252514720110295;0.0756;0.0168;-0.1189;
5252514730213003;0.1023;0.0083;-0.0656;
5252514740315659;0.1289;-0.0152;-0.0379;
5252514750353055;0.1225;0.0221;-0.0667;
5252514760455711;0.0788;0.0828;-0.0731;
5252514770558420;0.0778;0.0828;-0.0859;
5252514780668420;0.0991;0.1063;-0.0795;
5252514790771128;0.0927;0.1915;-0.0912;
5252514800873836;0.1150;-0.1217;-0.0816;
5252514810971232;0.1884;-0.2304;-0.0305;
5252514821073941;0.1513;-0.0514;-0.0092;
5252514831176649;0.0991;-0.1324;0.0387;
5252514841262534;0.1278;-0.1931;0.0334;
5252514851365243;0.1342;-0.1441;0.0451;
5252514861467951;0.0703;-0.0695;0.0366;
5252514871579253;0.0533;0.0104;0.0174;
5252514881681961;0.0671;-0.0439;0.0185;
5252514891784670;0.0842;-0.0024;0.0185;
5252514901901128;0.0756;0.0466;0.0217;
5252514912003836;0.0746;-0.0216;0.0579;
5252514922106545;0.0692;-0.0567;0.0611;
5252514932210138;0.0660;0.0253;0.0473;
5252514942312847;0.0778;0.0668;0.0398;
5252514952415555;0.0756;0.1126;0.0387;
5252514962505920;0.0810;0.1201;0.0494;
5252514972608628;0.0884;0.1031;0.0601;
5252514982711284;0.0671;0.1648;0.0515;
5252514992822899;0.0724;0.1340;0.0664;
5252515002925607;0.0714;0.0818;0.0867;
5252515013028316;0.0671;0.1148;0.0877;
5252515023129045;0.0628;0.0892;0.0707;
5252515033231753;0.0767;-0.0663;0.0750;
5252515043334409;0.0767;-0.0344;0.0718;
5252515053446961;0.0575;0.0445;0.0590;
5252515063549670;0.0628;-0.0439;0.0782;
5252515073652378;0.0799;-0.1132;0.1069;
5252515083744982;0.0373;-0.0716;0.1069;
5252515093847691;0.0309;-0.1025;0.1091;
5252515103950399;0.0053;-0.0727;0.1208;
5252515114043472;-0.0266;-0.0471;0.1112;
5252515124146128;-0.0320;0.0541;0.0526;
5252515134248888;-0.0426;0.2128;0.0387;
5252515144373420;-0.0160;0.1787;0.0260;
5252515154476076;0.0873;0.1212;0.0164;
5252515164578784;0.0383;0.1414;-0.0028;
5252515174663524;-0.0575;-0.3039;0.0238;
5252515184766180;0.0309;-0.5924;0.0249;
5252515194868888;0.0565;0.0029;0.0313;
5252515204975920;-0.1332;0.3053;0.0196;
5252515215078628;-0.0852;0.0423;-0.0092;
5252515225181284;0.1076;-0.1025;0.0036;
5252515235294930;0.1651;-0.0940;0.0292;
5252515245397586;0.1140;-0.0194;0.0238;
5252515255500243;0.0224;-0.0365;0.0111;
5252515265591753;0.0043;-0.0908;0.0004;
5252515275694357;-0.0043;0.2734;-0.0422;
5252515285796857;-0.0650;0.6984;-0.0486;
5252515295921024;0.0021;-0.3379;0.0004;
5252515306023576;0.5229;-0.6318;0.0015;
5252515316126128;0.3919;0.2542;-0.0273;
5252515326223628;-0.2056;0.1840;0.0824;
5252515336326180;-0.0927;-0.1803;0.0888;
5252515346428732;0.2704;-0.1622;0.0505;
5252515356521388;0.0916;0.0466;0.0505;
5252515366623941;-0.1012;0.0903;0.0590;
5252515376726493;-0.0011;-0.1643;0.0707;
5252515386827795;0.0522;-0.0706;0.0675;
5252515396930347;-0.0043;0.0935;0.0782;
5252515407032899;0.0277;-0.0759;0.0686;
5252515417145503;0.0479;0.0413;0.0739;
5252515427248055;-0.0085;0.1808;0.0632;
5252515437350607;0.0511;-0.0237;0.0814;
5252515447449045;0.0533;0.1116;0.0877;
5252515457551597;-0.0053;0.2233;0.0899;
5252515467654149;0.0096;0.0200;0.1112;
5252515477767066;0.0085;0.0839;0.1229;
5252515487869618;-0.0277;0.1265;0.1154;
5252515497972170;-0.0053;-0.0471;0.1027;
5252515508085399;0.0117;0.0381;0.1027;
5252515518187951;-0.0362;0.2075;0.0995;
5252515528290503;0.0138;0.1425;0.1176;
5252515538391232;0.0490;0.1063;0.1240;
5252515548493784;0.0075;0.0477;0.1442;
5252515558596336;-0.0138;-0.0674;0.1485;
5252515568700399;-0.0437;-0.0024;0.1453;
5252515578802951;-0.0916;0.0104;0.1293;
5252515588905503;-0.0714;-0.0866;0.1218;
5252515598989930;-0.0373;-0.0993;0.1037;
5252515609092534;-0.0415;-0.0908;0.1016;
5252515619195086;-0.0181;-0.1632;0.0963;
5252515629302586;-0.0075;-0.2293;0.1080;
5252515639405138;-0.0320;-0.1696;0.1027;
5252515649507691;-0.0628;-0.0876;0.1389;
5252515659605086;-0.1236;0.0072;0.1176;
5252515669707638;-0.0884;0.0083;0.1112;
5252515679810191;-0.0277;0.0253;0.0973;
5252515689928316;-0.0511;0.1542;0.0494;
5252515700030868;-0.0628;0.1766;0.0441;
5252515710133420;-0.0245;0.0764;0.0142;
5252515720229149;-0.0224;0.0551;0.0047;
5252515730331701;-0.0352;0.1233;0.0036;
5252515740434253;-0.0298;0.1084;0.0292;
5252515750537899;-0.0266;0.1414;0.0537;
5252515760640451;-0.0181;0.2128;0.0728;
5252515770743003;-0.0000;0.1776;0.0856;
5252515780847482;-0.0192;0.1510;0.0569;
5252515790950034;-0.0298;0.1190;0.0430;
5252515801052586;-0.0405;0.0551;0.0324;
5252515811147482;-0.0373;-0.0535;0.0142;
5252515821250034;-0.0245;-0.1260;-0.0060;
5252515831352586;-0.0266;-0.2122;0.0068;
5252515841451545;-0.0309;-0.2453;0.0281;
5252515851554097;-0.0309;-0.2751;0.0728;
5252515861656649;-0.0330;-0.2879;0.1027;
5252515871773003;-0.0501;-0.1281;0.0888;
5252515881875555;-0.1204;-0.0493;0.0696;
5252515891978107;-0.1342;-0.0194;0.0760;
5252515902059774;-0.1044;0.0881;0.0206;
5252515912162326;-0.0788;0.1329;-0.0337;
5252515922264878;-0.0671;0.1755;-0.0678;
5252515932367482;-0.0405;0.1787;-0.0539;
5252515942469803;-0.0352;0.1393;-0.0550;
5252515952572355;-0.0224;0.0562;-0.0518;
5252515962692251;-0.0011;-0.0333;-0.0252;
5252515972794803;0.0011;-0.0695;-0.0284;
5252515982897355;-0.0245;-0.0876;-0.0241;
5252515993014439;-0.0320;-0.1089;-0.0156;
5252516003116991;-0.0277;-0.1036;-0.0284;
5252516013219543;-0.0202;-0.1100;-0.0220;
5252516023314022;-0.0405;-0.1238;-0.0177;
5252516033416574;-0.0181;-0.1302;-0.0177;
5252516043519126;-0.0096;-0.1217;0.0111;
5252516053579282;0.0075;-0.0812;0.0270;
5252516063681887;-0.0170;0.0061;0.0100;
5252516073784439;-0.0341;0.0487;-0.0049;
5252516083916105;-0.0330;0.0626;-0.0017;
5252516094018657;-0.0415;0.1009;-0.0220;
5252516104121210;-0.0373;0.0903;-0.0443;
5252516114219491;-0.0533;0.0306;-0.0379;
5252516124322043;-0.0586;-0.0077;-0.0198;
5252516134424595;-0.0458;-0.0397;-0.0220;
5252516144528345;-0.0405;-0.0844;0.0068;
5252516154630897;-0.0352;-0.1057;0.0036;
5252516164733501;-0.0266;-0.0418;-0.0124;
5252516174843137;-0.0458;-0.0035;0.0111;
5252516184945741;-0.0330;0.0391;0.0132;
5252516195048293;-0.0224;0.0796;-0.0017;
5252516205155585;-0.0383;0.0615;0.0100;
5252516215258137;-0.0565;0.0754;0.0132;
5252516225360689;-0.0522;0.0690;0.0025;
5252516235493397;-0.0373;0.0136;0.0153;
5252516245595949;-0.0160;0.0445;0.0111;
5252516255698501;-0.0192;0.0945;-0.0156;
5252516265757668;-0.0298;0.0402;0.0015;
5252516275860272;-0.0213;-0.0525;0.0238;
5252516285962876;-0.0085;-0.0525;0.0249;
5252516296079491;-0.0426;-0.0152;0.0164;
5252516306182095;-0.0735;-0.0450;0.0451;
5252516316284647;-0.0820;-0.0652;0.0451;
5252516326401730;-0.0724;-0.0109;0.0387;
5252516336504282;-0.0767;0.0466;0.0228;
5252516346606887;-0.0682;0.0402;0.0142;
5252516356694907;-0.0479;0.0242;0.0047;
5252516366797460;-0.0458;0.0626;0.0015;
5252516376900064;-0.0383;0.0977;-0.0081;
5252516387012876;-0.0383;0.0381;-0.0103;
5252516397115480;-0.0522;0.0221;0.0079;
5252516407218032;-0.0671;0.1254;-0.0017;
5252516417325480;-0.0458;0.1233;0.0057;
5252516427428085;-0.0405;0.0413;0.0036;
5252516437530637;-0.0277;0.0509;0.0089;
5252516447624022;-0.0341;0.0498;-0.0049;
5252516457726574;-0.0362;-0.0354;-0.0007;
5252516467829178;-0.0245;-0.0716;-0.0156;
5252516477932772;-0.0373;-0.0493;-0.0326;
5252516488035324;-0.0575;-0.0610;-0.0252;
5252516498137928;-0.0511;-0.0834;-0.0007;
5252516508241574;-0.0650;-0.0951;-0.0007;
5252516518344126;-0.0479;-0.0312;0.0153;
5252516528446730;-0.0437;0.0700;0.0174;
5252516538558241;-0.0671;0.0871;-0.0049;
5252516548660793;-0.0660;0.0700;-0.0209;
5252516558763397;-0.0543;0.0732;-0.0411;
5252516568862564;-0.0458;0.0807;-0.0720;
5252516578965116;-0.0575;0.0317;-0.0827;
5252516589067720;-0.0501;0.0083;-0.0720;
5252516599178814;-0.0469;-0.0248;-0.0497;
5252516609281366;-0.0394;-0.0812;-0.0284;
5252516619383970;-0.0181;-0.1356;-0.0252;
5252516629475689;-0.0245;-0.1984;-0.0294;
5252516639578241;-0.0383;-0.1760;-0.0337;
5252516649680845;-0.0330;-0.0802;-0.0411;
5252516659793710;-0.0298;-0.0120;-0.0688;
5252516669896262;-0.0394;0.0210;-0.0795;
5252516679998866;-0.0405;0.0402;-0.0688;
5252516690090480;-0.0245;0.1009;-0.0656;
5252516700193032;-0.0032;0.0871;-0.0465;
5252516710295637;0.0224;0.1212;-0.0379;
5252516720372824;0.0085;0.2318;-0.0486;
5252516730475376;-0.0256;0.2744;-0.0848;
5252516740577980;-0.0032;0.2043;-0.0731;
5252516750704491;-0.0256;0.1318;-0.1072;
5252516760807043;-0.0202;0.1041;-0.1242;
5252516770909647;-0.0277;-0.0333;-0.1040;
5252516781013501;-0.0107;-0.1324;-0.0891;
5252516791116053;0.0170;-0.1153;-0.0859;
5252516801218657;0.0490;-0.1377;-0.0571;
5252516811324126;0.0501;-0.1324;-0.0433;
5252516821426678;0.0266;-0.1025;-0.0475;
5252516831529282;-0.0064;-0.1164;-0.0635;
5252516841611001;-0.0170;-0.1334;-0.0656;
5252516851713553;-0.0138;-0.0897;-0.0848;
5252516861816157;-0.0831;-0.2325;-0.1093;
5252516871942564;-0.0884;-0.4997;-0.0965;
5252516882045168;0.2395;-0.0130;-0.1072;
5252516892147720;0.4899;0.5876;-0.1210;
5252516902245897;0.2811;0.3778;-0.0816;
5252516912348449;-0.0000;-0.1760;0.0238;
5252516922451053;-0.0873;-0.3720;0.0281;
5252516932577095;-0.0522;-0.0897;-0.0060;
5252516942679699;0.0128;0.1883;-0.0710;
5252516952782251;0.0320;0.1531;-0.1136;
5252516962867564;0.0107;0.0775;-0.1306;
5252516972970116;0.0671;0.5098;-0.1732;
5252516983072720;-0.2248;-0.1387;-0.1764;
5252516993178657;-0.4590;-1.1153;-0.0912;
5252517003281262;0.1055;-0.3028;-0.1125;
5252517013383814;0.6752;0.3735;-0.1189;
5252517023477147;0.5985;0.0977;-0.0433;
5252517033579699;0.2332;-0.1547;0.0089;
5252517043682303;0.0202;-0.0248;-0.0262;
5252517053787980;0.0309;0.1883;-0.0816;
5252517063890585;-0.0224;0.0072;-0.0955;
5252517073993189;-0.0810;-0.0940;-0.0997;
5252517084091105;0.0756;0.2574;-0.1200;
5252517094193657;0.1204;0.2265;-0.1210;
5252517104296262;-0.0032;-0.0130;-0.1061;
5252517114469439;-0.0852;0.0935;-0.1146;
5252517124571991;-0.0628;0.0210;-0.1019;
5252517134674595;0.0277;-0.0365;-0.1253;
5252517144701157;0.0746;0.1542;-0.1466;
5252517154803710;0.0288;0.1169;-0.1221;
5252517164906314;0.0021;0.0125;-0.1115;
5252517175069803;0.0522;0.0999;-0.1317;
5252517185172407;0.0714;-0.0024;-0.1296;
5252517195275012;0.0501;-0.1707;-0.1317;
5252517205325376;0.0682;-0.1356;-0.1551;
5252517215427928;0.0692;-0.1515;-0.1573;
5252517225530532;0.0820;-0.1601;-0.1605;
5252517235618918;0.1225;-0.1132;-0.1668;
5252517245721522;0.1172;-0.1611;-0.1668;
5252517255824074;0.0991;-0.1196;-0.1423;
5252517266002199;0.1182;-0.1025;-0.1349;
5252517276105012;0.1332;-0.1366;-0.1189;
5252517286207772;0.1353;-0.0088;-0.1029;
5252517296247876;0.1470;0.1318;-0.1157;
5252517306350637;0.0852;0.1414;-0.1455;
5252517316453397;0.0948;0.1435;-0.1647;
5252517326581001;0.1193;0.1265;-0.1764;
5252517336683762;0.1076;0.0466;-0.2116;
5252517346786522;0.1278;0.0093;-0.2031;
5252517356859439;0.1905;-0.0045;-0.1668;
5252517366962199;0.1895;-0.1377;-0.1626;
5252517377064960;0.1895;-0.1707;-0.1019;
5252517387167564;0.2555;-0.0716;-0.0731;
5252517397270376;0.2534;-0.0908;-0.0518;
5252517407373085;0.1640;-0.0791;-0.0475;
5252517417481626;0.1820;0.0178;-0.0443;
5252517427584387;0.2182;0.0786;-0.0497;
5252517437687147;0.1619;0.1553;-0.0529;
5252517447804230;0.1640;0.1947;-0.0337;
5252517457906991;0.1555;0.1659;-0.0134;
5252517468009751;0.1417;0.0988;-0.0007;
5252517478098085;0.1640;0.0615;0.0228;
5252517488200845;0.1692;0.0722;0.0249;
5252517498303605;0.1756;0.0509;0.0270;
5252517508410480;0.1523;0.0178;0.0547;
5252517518513241;0.1449;0.0360;0.0483;
5252517528616001;0.1406;0.0402;0.0324;
5252517538720480;0.1214;-0.0173;0.0313;
5252517548823241;0.0980;-0.0418;0.0419;
5252517558926001;0.0969;-0.0120;0.0302;
5252517569033918;0.1055;-0.0344;0.0345;
5252517579136678;0.1353;-0.0056;0.0366;
5252517589239439;0.1449;0.0051;0.0228;
5252517599323605;0.1300;-0.0386;0.0079;
5252517609426366;0.1481;-0.0684;0.0111;
5252517619529126;0.1427;-0.0738;0.0313;
5252517629655324;0.1523;-0.0514;-0.0103;
5252517639758085;0.1427;-0.0844;-0.0103;
5252517649860845;0.1236;-0.0770;-0.0039;
5252517659952251;0.0873;-0.0802;-0.0209;
5252517670055012;0.0778;-0.0993;-0.0326;
5252517680157772;0.0916;-0.0205;-0.0443;
5252517690262460;0.1545;0.0743;-0.0113;
5252517700365272;0.1778;0.1340;-0.0369;
5252517710467980;0.1937;0.1126;-0.0582;
5252517720573553;0.1630;0.0487;-0.0614;
5252517730676314;0.1714;0.0615;-0.0742;
5252517740779074;0.2150;0.0306;-0.0763;
5252517750880376;0.3312;-0.1856;-0.1083;
5252517760983137;0.1873;-0.2367;-0.1115;
5252517771085897;-0.1353;0.0381;-0.0443;
5252517781184960;-0.0224;0.1414;-0.0028;
5252517791287720;0.3439;0.0615;-0.0433;
5252517801390480;0.3695;-0.0077;-0.0688;
5252517811492355;0.1852;-0.0013;0.0015;
5252517821595116;0.1417;0.0349;0.0153;
5252517831697876;0.2108;0.0807;-0.0273;
5252517841791157;0.1980;0.0658;-0.0198;
5252517851893970;0.1651;0.0850;-0.0252;
5252517861996730;0.1332;0.2531;-0.0827;
5252517872114751;0.2236;0.2968;-0.0859;
5252517882217512;0.2992;-0.0919;0.0047;
5252517892320272;0.3493;-0.1249;0.0377;
5252517902417980;0.2363;-0.0152;0.0409;
5252517912520741;0.1831;-0.0759;0.0931;
5252517922623501;0.2129;-0.0940;0.0995;
5252517932730064;0.1948;-0.0482;0.0739;
5252517942832824;0.1788;-0.0077;0.0537;
5252517952935585;0.1630;-0.0269;0.0739;
5252517963042980;0.1406;-0.0322;0.0824;
5252517973145741;0.1831;0.0072;0.0728;
5252517983248501;0.2129;0.0445;0.1229;
5252517993346626;0.2214;0.0264;0.1591;
5252518003449387;0.2033;0.0349;0.1485;
5252518013552199;0.2012;0.0072;0.1730;
5252518023653918;0.1630;-0.0056;0.1794;
5252518033756678;0.1598;0.0455;0.1431;
5252518043859439;0.1587;0.0455;0.1399;
5252518053939751;0.1449;0.0487;0.1644;
5252518064042512;0.1417;0.0743;0.1644;
5252518074145220;0.1534;0.0083;0.1495;
5252518084280116;0.1470;0.0051;0.1549;
5252518094382928;0.1374;0.0157;0.1708;
5252518104485689;0.1481;-0.0844;0.1740;
5252518114564335;0.1150;-0.0695;0.1602;
5252518124667095;0.0969;0.0189;0.1538;
5252518134769855;0.1033;0.0008;0.1250;
5252518144886053;0.1395;-0.0248;0.1154;
5252518154988866;0.1001;0.0413;0.1336;
5252518165091626;0.1161;0.0818;0.1336;
5252518175176887;0.1236;0.0221;0.1367;
5252518185279595;0.1289;-0.0056;0.1346;
5252518195382407;0.1225;0.0189;0.1325;
5252518205509751;0.1225;0.0764;0.1378;
5252518215612512;0.1161;0.1297;0.0941;
5252518225715272;0.1193;0.1137;0.0782;
5252518235792355;0.1044;0.0892;0.0707;
5252518245895116;0.1097;0.0945;0.0377;
5252518255997876;0.1193;0.0210;0.0324;
5252518266095272;0.1055;-0.0578;0.0366;
5252518276197876;0.1055;-0.1345;0.0494;
5252518286300480;0.1289;-0.2005;0.0515;
5252518296423710;0.1385;-0.1814;0.0696;
5252518306526314;0.1502;-0.1483;0.0846;
5252518316628918;0.1374;-0.1537;0.0888;
5252518326720793;0.1640;-0.1324;0.0558;
5252518336823397;0.1682;-0.1238;0.0728;
5252518346926001;0.1852;-0.1387;0.0707;
5252518357040272;0.2129;-0.1015;0.0579;
5252518367142876;0.2055;-0.0514;0.0601;
5252518377245480;0.1724;-0.0173;0.0718;
5252518387346626;0.1459;-0.0152;0.0728;
5252518397449230;0.1459;-0.0727;0.0760;
5252518407551835;0.1427;-0.1047;0.0995;
5252518417656730;0.1502;-0.0599;0.0984;
5252518427759335;0.1438;-0.0834;0.1069;
5252518437861939;0.1502;-0.0951;0.0877;
5252518447974543;0.1672;-0.0599;0.1027;
5252518458077147;0.1545;-0.0706;0.1176;
5252518468179751;0.1756;-0.0759;0.0973;
5252518478273605;0.1692;-0.0557;0.1027;
5252518488376210;0.1651;-0.0514;0.1208;
5252518498478814;0.1491;-0.0482;0.1389;
5252518508581574;0.1438;-0.0812;0.1431;
5252518518684178;0.1385;-0.1057;0.1847;
5252518528786782;0.1342;-0.0589;0.2007;
5252518538890689;0.1577;-0.0706;0.2326;
5252518548993293;0.1236;-0.0919;0.2337;
5252518559095897;0.1417;0.0413;0.2209;
5252518569200897;0.1236;0.1169;0.2465;
5252518579303501;0.0682;0.0881;0.2443;
5252518589406105;0.0565;0.1190;0.2294;
5252518599504855;-0.0011;0.1446;0.2390;
5252518609607460;-0.0330;0.1137;0.2337;
5252518619710064;-0.0586;0.0977;0.1996;
5252518629826730;-0.0671;0.0679;0.2028;
5252518639929335;-0.0969;0.0391;0.2049;
5252518650031939;-0.0991;0.0445;0.1932;
5252518660119126;-0.0948;0.0360;0.1698;
5252518670221730;-0.0969;0.1180;0.1208;
5252518680324282;-0.0192;0.0945;0.1133;
5252518690426522;-0.0032;-0.0429;0.1186;
5252518700529126;0.0011;0.0210;0.0909;
5252518710631730;0.0405;0.1041;0.0814;
5252518720741835;0.0522;0.0647;0.0963;
5252518730844439;0.0469;0.0477;0.1091;
5252518740947043;0.0490;0.0786;0.0867;
5252518751043241;0.0618;0.0956;0.0814;
5252518761145793;0.0682;0.0370;0.0792;
5252518771248449;0.0724;0.0200;0.0718;
5252518781350480;0.0788;0.0253;0.0505;
5252518791453085;0.0692;0.0509;0.0537;
5252518801555689;0.0810;0.0083;0.0558;
5252518811666626;0.0905;-0.0237;0.0419;
5252518821769230;0.0927;0.0423;0.0292;
5252518831871835;0.1182;0.0573;0.0494;
5252518841990741;0.1161;0.0189;0.0771;
5252518852093397;0.1278;0.0093;0.0973;
5252518862196001;0.1118;-0.0003;0.0931;
5252518872273657;0.1395;0.0083;0.1122;
5252518882376262;0.1087;0.0072;0.1453;
5252518892478866;0.0980;-0.0035;0.1538;
5252518902583241;0.0863;0.0487;0.1218;
5252518912685845;0.0778;0.0913;0.1367;
5252518922788449;0.0671;0.0541;0.1687;
5252518932899543;0.0767;0.0274;0.1740;
5252518943002147;0.0586;0.0232;0.1495;
5252518953104751;0.0447;-0.0248;0.1570;
5252518963208397;0.0458;-0.0301;0.1772;
5252518973311001;0.0352;-0.0503;0.1985;
5252518983413605;0.0085;-0.0290;0.2071;
5252518993506835;-0.0032;-0.0194;0.2252;
5252519003609439;-0.0213;-0.0610;0.2454;
5252519013712043;-0.0234;-0.0067;0.2507;
5252519023822564;-0.0501;0.0360;0.2358;
5252519033925168;-0.0437;0.0626;0.2337;
5252519044027772;-0.0266;0.0903;0.2582;
5252519054103918;-0.0607;0.0999;0.2710;
5252519064206522;-0.0788;0.1244;0.2337;
5252519074309126;-0.0628;0.1606;0.2134;
5252519084453710;-0.0820;0.1680;0.2571;
5252519094556314;-0.0969;0.0775;0.2433;
5252519104658866;-0.1065;-0.0077;0.1932;
5252519114718397;-0.1385;-0.0205;0.1975;
5252519124821001;-0.2045;-0.0738;0.2007;
5252519134923605;-0.2077;-0.0887;0.1975;
5252519145084699;-0.2141;-0.0439;0.1783;
5252519155187303;-0.2365;-0.0514;0.1463;
5252519165289907;-0.1981;-0.0503;0.1421;
5252519175333605;-0.1896;-0.0354;0.1378;
5252519185436210;-0.1694;-0.0077;0.1229;
5252519195538814;-0.1385;-0.0088;0.1218;
5252519205673085;-0.1236;-0.0024;0.1027;
5252519215775689;-0.1076;-0.0056;0.1016;
5252519225878293;-0.1427;-0.0141;0.1165;
5252519235993189;-0.1800;0.0178;0.0909;
5252519246095741;-0.1907;0.0786;0.0739;
5252519256198345;-0.1683;0.0594;0.0739;
5252519266275897;-0.1385;0.0455;0.0494;
5252519276378553;-0.1140;0.0370;0.0473;
5252519286481157;-0.1353;0.0146;0.0324;
5252519296617668;-0.1172;0.0019;0.0228;
5252519306720272;-0.1087;-0.0312;0.0483;
5252519316822928;-0.1108;-0.0397;0.0345;
5252519326886730;-0.1033;-0.0610;0.0238;
5252519336989387;-0.1065;-0.0493;0.0164;
5252519347092043;-0.0873;-0.0344;0.0185;
5252519357210585;-0.0927;-0.0631;0.0515;
5252519367313241;-0.0991;-0.0610;0.0675;
5252519377415897;-0.1044;-0.0184;0.0569;
5252519387520480;-0.1065;-0.0354;0.0611;
5252519397623085;-0.1076;-0.0844;0.0792;
5252519407725793;-0.1118;-0.0940;0.0920;
5252519417827355;-0.1150;-0.0663;0.0782;
5252519427930012;-0.1470;-0.0418;0.0611;
5252519438032668;-0.1555;-0.0375;0.0664;
5252519448143710;-0.1832;-0.0397;0.0760;
5252519458246366;-0.1885;-0.0546;0.0728;
5252519468349022;-0.1832;-0.0748;0.0590;
5252519478448397;-0.1864;-0.0503;0.0483;
5252519488551053;-0.1992;-0.0450;0.0398;
5252519498653657;-0.1917;-0.0706;0.0356;
5252519508760689;-0.2024;-0.0642;0.0515;
5252519518863345;-0.2152;-0.0205;0.0526;
5252519528966001;-0.2194;-0.0077;0.0664;
5252519539070689;-0.2407;0.0019;0.0579;
5252519549173345;-0.2226;0.0349;0.0313;
5252519559276001;-0.2397;0.0786;0.0345;
5252519569372407;-0.2759;0.0924;0.0313;
5252519579475064;-0.2887;0.0892;0.0185;
5252519589577720;-0.3025;0.0498;0.0047;
5252519599663710;-0.2919;0.0402;-0.0262;
5252519609766314;-0.2876;0.0551;-0.0475;
5252519619869022;-0.2823;0.0381;-0.0475;
5252519629982668;-0.2780;0.0178;-0.0443;
5252519640085272;-0.2674;0.0296;-0.0475;
5252519650187980;-0.2652;0.0242;-0.0603;
5252519660286105;-0.2290;-0.0056;-0.0774;
5252519670388762;-0.1971;-0.0067;-0.0699;
5252519680491366;-0.2184;0.0019;-0.0475;
5252519690600741;-0.2035;-0.0344;-0.0507;
5252519700703397;-0.1736;-0.0269;-0.0571;
5252519710806053;-0.1704;0.0381;-0.0646;
5252519720915897;-0.1545;0.0839;-0.0752;
5252519731018553;-0.1640;0.0455;-0.0422;
5252519741121210;-0.1790;0.0328;-0.0379;
5252519751213189;-0.1747;0.0605;-0.0742;
5252519761315845;-0.1704;0.0626;-0.0965;
5252519771418501;-0.1683;0.0360;-0.0976;
5252519781519439;-0.1683;0.0146;-0.0752;
5252519791622095;-0.1651;0.0125;-0.0731;
5252519801724751;-0.1577;-0.0013;-0.0699;
5252519811835897;-0.1417;-0.0439;-0.0720;
5252519821938553;-0.1278;-0.0439;-0.0614;
5252519832041210;-0.1300;-0.0194;-0.0550;
5252519842170272;-0.1129;-0.0013;-0.0550;
5252519852272876;-0.1321;-0.0386;-0.0284;
5252519862375532;-0.1353;-0.0397;-0.0497;
5252519872450689;-0.1236;-0.0088;-0.0742;
5252519882553345;-0.1332;0.0051;-0.0603;
5252519892656001;-0.1683;-0.0727;-0.0252;
5252519902780064;-0.1960;-0.1366;-0.0379;
5252519912882720;-0.1491;-0.0684;-0.0454;
5252519922985376;-0.1704;0.0551;-0.0539;
5252519933041314;-0.1917;0.0892;-0.0507;
5252519943143970;-0.2226;0.0924;-0.0262;
5252519953246626;-0.2748;0.0977;-0.0156;
5252519963375324;-0.2738;0.1063;-0.0220;
5252519973477980;-0.2716;0.0999;-0.0262;
5252519983580637;-0.2908;0.0583;-0.0113;
5252519993672980;-0.3004;0.0136;-0.0156;
5252520003775585;-0.2972;-0.0237;-0.0188;
5252520013878293;-0.3100;-0.0716;-0.0305;
5252520023979751;-0.2919;-0.0887;-0.0443;
5252520034082407;-0.2748;-0.0301;-0.0603;
5252520044185012;-0.2823;0.0157;-0.0582;
5252520054293085;-0.2855;0.0349;-0.0475;
5252520064395741;-0.2876;0.0658;-0.0603;
5252520074498397;-0.2599;0.1244;-0.0752;
5252520084597980;-0.2812;0.2254;-0.0987;
5252520094700637;-0.2791;0.1936;-0.1008;
5252520104803293;-0.2461;0.0913;-0.0923;
5252520114924803;-0.2162;0.0455;-0.0987;
5252520125027460;-0.2162;-0.0099;-0.0816;
5252520135130116;-0.1939;-0.0290;-0.0710;
5252520145216730;-0.2258;-0.0344;-0.0742;
5252520155319387;-0.1800;-0.0258;-0.0710;
5252520165422043;-0.2099;-0.1611;-0.0550;
5252520175592407;-0.2333;-0.1547;-0.0795;
5252520185695064;-0.2120;0.0828;-0.1072;
5252520195797772;-0.2077;0.2286;-0.1093;
5252520205833397;-0.2493;0.1840;-0.0976;
5252520215936053;-0.2631;0.1702;-0.1391;
5252520226038710;-0.2280;0.2085;-0.1551;
5252520236146574;-0.2301;0.1755;-0.1306;
5252520246249230;-0.2258;0.1105;-0.1306;
5252520256331366;-0.2013;0.0732;-0.1551;
5252520266433918;-0.2045;0.0232;-0.1636;
5252520276536626;-0.2120;-0.0237;-0.1668;
5252520286639282;-0.2003;-0.0056;-0.1700;
5252520296764022;-0.1896;-0.0152;-0.1690;
5252520306866678;-0.1832;-0.0429;-0.1615;
5252520316969335;-0.1790;-0.0035;-0.1594;
5252520327078605;-0.1875;0.0455;-0.1754;
5252520337181262;-0.1800;0.0360;-0.1967;
5252520347283918;-0.1854;0.0391;-0.1871;
5252520357394439;-0.1949;0.0647;-0.1732;
5252520367497095;-0.1854;0.0519;-0.1562;
5252520377599751;-0.2067;0.2435;-0.1796;
5252520387688657;-0.2312;0.1872;-0.1881;
5252520397791314;-0.2162;-0.1206;-0.1722;
5252520407893970;-0.1236;-0.0684;-0.2212;
5252520418002564;-0.1140;0.0200;-0.2041;
5252520428105220;-0.1566;-0.0695;-0.1381;
5252520438207876;-0.1342;-0.1601;-0.1402;
5252520448318501;-0.1374;-0.1664;-0.1722;
5252520458421157;-0.0969;-0.1068;-0.2180;
5252520468523814;-0.0628;-0.1036;-0.2190;
5252520478624022;-0.0778;-0.1164;-0.1764;
5252520488726678;-0.0362;-0.0120;-0.1967;
5252520498829335;-0.0075;-0.0056;-0.2073;
5252520508933397;0.0522;-0.0482;-0.1754;
5252520519036053;0.0927;-0.0067;-0.1700;
5252520529138710;0.1214;0.0221;-0.1573;
5252520539238814;0.1703;-0.0067;-0.1274;
5252520549341470;0.2065;-0.0130;-0.1285;
5252520559444126;0.2278;-0.0695;-0.1072;
5252520569545689;0.2747;-0.1228;-0.0827;
5252520579648345;0.2640;-0.0738;-0.1019;
5252520589751001;0.2619;-0.0620;-0.0912;
5252520599855585;0.2566;-0.0791;-0.0561;
5252520609958241;0.2055;-0.0567;-0.0752;
5252520620060897;0.2587;-0.0429;-0.0742;
5252520630161157;0.2108;-0.0599;-0.0603;
5252520640263762;0.2023;-0.0248;-0.0582;
5252520650366470;0.2023;-0.0226;-0.0220;
5252520660461001;0.1268;-0.0631;-0.0262;
5252520670563657;0.1714;-0.0567;-0.0443;
5252520680666314;0.1310;-0.0290;-0.0422;
5252520690770168;0.1438;0.0136;-0.0593;
5252520700872824;0.1321;0.0764;-0.0411;
5252520710975480;0.0756;0.0945;-0.0145;
5252520721060116;0.0863;0.1297;-0.0103;
5252520731162824;0.0799;0.1734;-0.0230;
5252520741265428;0.1097;0.0615;-0.0188;
5252520751384022;0.1246;-0.1270;0.0153;
5252520761486678;0.1374;-0.2016;0.0324;
5252520771589335;0.1724;-0.1260;0.0185;
5252520781697772;0.1449;-0.0024;-0.0060;
5252520791800428;0.1257;0.0573;0.0100;
5252520801903085;0.0522;0.0977;0.0419;
5252520812004335;0.0405;0.1712;0.0686;
5252520822106991;0.0426;0.2382;0.0750;
5252520832209647;0.0170;0.2446;0.0526;
5252520842307668;0.0383;0.2489;0.0547;
5252520852410324;0.0373;0.2201;0.0366;
5252520862512980;0.0362;0.1531;0.0526;
5252520872621418;0.0533;0.0860;0.0419;
5252520882724074;0.0820;0.0551;0.0473;
5252520892826730;0.0554;0.0391;0.0547;
5252520902929751;0.0224;0.0104;0.0718;
5252520913032407;0.0298;-0.0067;0.0441;
5252520923135064;0.0043;0.0168;0.0601;
5252520933217303;-0.0298;0.0807;0.0409;
5252520943319960;-0.0405;0.1148;0.0483;
5252520953422616;-0.0895;0.1148;0.0249;
5252520963546939;-0.0703;0.0839;0.0398;
5252520973649595;-0.0714;0.0338;0.0345;
5252520983752251;-0.0479;0.0008;0.0505;
5252520993851314;-0.0660;-0.0280;0.0696;
5252521003953970;-0.0671;-0.0312;0.0473;
5252521014056626;-0.0373;-0.0503;0.0547;
5252521024148762;-0.0415;-0.0620;0.0430;
5252521034251470;-0.0298;-0.0823;0.0387;
5252521044354074;-0.0107;-0.0482;0.0292;
5252521054471418;-0.0043;0.0381;-0.0060;
5252521064574074;-0.0192;0.0967;-0.0071;
5252521074676730;-0.0149;0.1297;0.0111;
5252521084752407;0.0554;0.0903;-0.0017;
5252521094855064;0.2118;-0.0759;-0.0145;
5252521104957720;0.4079;-0.1366;-0.0316;
5252521115079960;0.5442;-0.1537;0.0047;
5252521125182616;0.6518;-0.1920;0.0718;
5252521135285220;0.7242;-0.1846;0.1101;
5252521145374960;0.7615;-0.1047;0.1101;
5252521155477616;0.8210;-0.0194;0.1272;
5252521165580220;0.8434;0.0285;0.1527;
5252521175691574;0.8509;0.0828;0.1602;
5252521185794230;0.8711;0.1744;0.1570;
5252521195896887;0.8668;0.1893;0.1730;
5252521205996157;0.8114;0.0796;0.2134;
5252521216098814;0.8072;0.0040;0.2262;
5252521226201470;0.8114;0.0317;0.2475;
5252521236333397;0.7359;0.0700;0.2294;
5252521246436001;0.7541;0.0381;0.2220;
5252521256538657;0.7455;0.0434;0.2614;
5252521266623970;0.7477;0.1265;0.2720;
5252521276726678;0.6965;0.1574;0.2964;
5252521286829335;0.6347;0.1276;0.3433;
5252521296931730;0.6475;0.1233;0.3561;
5252521307034387;0.6230;0.1350;0.3326;
5252521317137147;0.5698;0.1158;0.3422;
5252521327244751;0.5080;0.1318;0.3731;
5252521337347460;0.4260;0.1595;0.3624;
5252521347450168;0.3162;0.1393;0.3454;
5252521357554074;0.2150;0.1318;0.3241;
5252521367656782;0.1756;0.1542;0.2624;
5252521377759491;0.1406;0.1553;0.2134;
5252521387857564;0.0032;0.1020;0.2145;
5252521397960272;-0.0362;0.0764;0.1836;
5252521408062928;-0.0458;0.1095;0.1197;
5252521418173814;-0.1033;0.0945;0.1005;
5252521428276522;-0.1406;0.0477;0.0952;
5252521438379230;-0.1438;0.0445;0.0632;
5252521448481939;-0.1268;0.0328;0.0419;
5252521458584647;-0.1214;-0.0109;0.0569;
5252521468687355;-0.0245;-0.0642;0.0515;
5252521478788657;0.0778;-0.0620;0.0292;
5252521488891366;0.1342;-0.0322;0.0398;
5252521498994074;0.2353;-0.0780;0.0569;
5252521509091314;0.2513;-0.0876;0.0409;
5252521519194022;0.3184;-0.0237;0.0132;
5252521529296730;0.4174;0.0210;0.0441;
5252521539414855;0.5421;0.0242;0.0995;
5252521549517564;0.6901;0.0157;0.1186;
5252521559620272;0.7816;0.0104;0.1282;
5252521569713710;0.8402;0.0115;0.1858;
5252521579816418;0.9286;-0.0056;0.2740;
5252521589919126;1.0011;-0.0525;0.3379;
5252521600054387;0.9158;-0.0589;0.3656;
5252521610157095;0.7349;-0.0205;0.3987;
5252521620259803;0.6614;-0.0450;0.4402;
5252521630328189;0.7232;-0.1079;0.4828;
5252521640430845;0.8050;-0.1515;0.4945;
5252521650533605;0.5144;-0.1025;0.4594;
5252521660635168;-0.1044;0.0253;0.3838;
5252521670737876;-0.2610;0.0487;0.3113;
5252521680840585;-0.2855;0.0562;0.2740;
5252521690944126;-0.3057;0.0743;0.2103;
5252521701046835;-0.2908;0.0104;0.1666;
5252521711149491;-0.3856;-0.0237;0.1314;
5252521721276053;-0.5272;0.0051;0.0877;
5252521731378762;-0.5634;-0.0130;0.0547;
5252521741481470;-0.5069;-0.0887;0.0366;
5252521751553710;-0.5389;-0.0993;0.0174;
5252521761656418;-0.6305;-0.0695;-0.0060;
5252521771759126;-0.6454;-0.0727;-0.0209;
5252521781868814;-0.6198;-0.0684;-0.0497;
5252521791971522;-0.6070;-0.0578;-0.0795;
5252521802074230;-0.5623;-0.0684;-0.0965;
5252521812173710;-0.4952;-0.0631;-0.1040;
5252521822276418;-0.4622;-0.0418;-0.1104;
5252521832379126;-0.3941;-0.0375;-0.1317;
5252521842472824;-0.2631;-0.0354;-0.1541;
5252521852575532;-0.1342;-0.0322;-0.1658;
5252521862678241;-0.0128;-0.0290;-0.1594;
5252521872802564;0.0873;-0.0216;-0.1509;
5252521882905272;0.1076;-0.0205;-0.1509;
5252521893007980;0.1065;-0.0344;-0.1615;
5252521903098501;0.1374;-0.0290;-0.1711;
5252521913201210;0.1651;-0.0301;-0.1647;
5252521923303918;0.1406;-0.0471;-0.1519;
5252521933409126;0.0714;-0.0482;-0.1541;
5252521943511782;0.0383;-0.0471;-0.1668;
5252521953614543;0.0511;-0.0503;-0.1796;
5252521963727147;0.0522;-0.0418;-0.1796;
5252521973829855;0.0501;-0.0344;-0.1732;
5252521983932564;0.0767;-0.0205;-0.1700;
5252521994020585;0.0916;-0.0141;-0.1818;
5252522004123241;0.0746;-0.0333;-0.1913;
5252522014226001;0.0554;-0.0429;-0.1999;
5252522024320064;0.0128;-0.0322;-0.2052;
5252522034422720;-0.0352;-0.0344;-0.2126;
5252522044525428;-0.0671;-0.0365;-0.2233;
5252522054625116;-0.0756;-0.0269;-0.2393;
5252522064727876;-0.0916;-0.0344;-0.2499;
5252522074830532;-0.1310;-0.0461;-0.2595;
5252522084957980;-0.1811;-0.0386;-0.2712;
5252522095060637;-0.2322;-0.0333;-0.2861;
5252522105163345;-0.2802;-0.0354;-0.3053;
5252522115237668;-0.2983;-0.0354;-0.3170;
5252522125340376;-0.2897;-0.0333;-0.3234;
5252522135443085;-0.2770;-0.0322;-0.3234;
5252522145561210;-0.2738;-0.0375;-0.3234;
5252522155663866;-0.2802;-0.0407;-0.3288;
5252522165766626;-0.2738;-0.0301;-0.3341;
5252522175878918;-0.2620;-0.0226;-0.3382;
5252522185981626;-0.2407;-0.0216;-0.3330;
5252522196084335;-0.2045;-0.0130;-0.3256;
5252522206188085;-0.1704;-0.0109;-0.3213;
5252522216290793;-0.1577;-0.0216;-0.3181;
5252522226393501;-0.1587;-0.0258;-0.3181;
5252522236490168;-0.1630;-0.0301;-0.3138;
5252522246592876;-0.1715;-0.0344;-0.3043;
5252522256695585;-0.1577;-0.0280;-0.2947;
5252522266799126;-0.1150;-0.0173;-0.2861;
5252522276901835;-0.0586;-0.0162;-0.2744;
5252522287004543;0.0053;-0.0162;-0.2627;
5252522297108501;0.0692;-0.0226;-0.2499;
5252522307211210;0.0852;-0.0333;-0.2425;
5252522317313918;0.0724;-0.0375;-0.2425;
5252522327413657;0.0831;-0.0354;-0.2467;
5252522337516366;0.0873;-0.0248;-0.2467;
5252522347619126;0.0639;-0.0077;-0.2478;
5252522357726418;0.0565;0.0029;-0.2489;
5252522367829126;0.0671;0.0008;-0.2510;
5252522377931887;0.0703;-0.0120;-0.2521;
5252522388026835;0.0714;-0.0269;-0.2510;
5252522398129543;0.0703;-0.0375;-0.2499;
5252522408232303;0.0703;-0.0375;-0.2457;
5252522418335116;0.0660;-0.0290;-0.2393;
5252522428437824;0.0650;-0.0152;-0.2435;
5252522438540585;0.0628;-0.0024;-0.2478;
5252522448651418;0.0618;-0.0067;-0.2489;
5252522458754126;0.0650;-0.0099;-0.2457;
5252522468856887;0.0618;-0.0173;-0.2403;
5252522478953397;0.0628;-0.0280;-0.2350;
5252522489056105;0.0660;-0.0301;-0.2350;
5252522499158866;0.0714;-0.0216;-0.2340;
5252522509260376;0.0756;-0.0141;-0.2308;
5252522519363085;0.0660;-0.0077;-0.2297;
5252522529465845;0.0490;-0.0013;-0.2308;
5252522539570741;0.0522;-0.0013;-0.2265;
5252522549673449;0.0533;-0.0067;-0.2201;
5252522559776157;0.0533;-0.0152;-0.2126;
5252522569875272;0.0522;-0.0216;-0.2063;
5252522579977980;0.0501;-0.0237;-0.1999;
5252522590080741;0.0490;-0.0226;-0.1945;
5252522600195793;0.0490;-0.0152;-0.1903;
5252522610298553;0.0447;-0.0056;-0.1839;
5252522620401262;0.0362;-0.0024;-0.1775;
5252522630493918;0.0160;-0.0035;-0.1711;
5252522640596626;-0.0107;-0.0067;-0.1647;
5252522650699335;-0.0288;-0.0120;-0.1605;
5252522660803085;-0.0320;-0.0173;-0.1509;
5252522670905793;-0.0181;-0.0173;-0.1391;
5252522681008553;0.0128;-0.0152;-0.1264;
5252522691116991;0.0309;-0.0130;-0.1178;
5252522701219699;0.0213;-0.0120;-0.1115;
5252522711322460;0.0224;-0.0109;-0.1061;
5252522721429126;0.0202;-0.0109;-0.0987;
5252522731531835;0.0202;-0.0099;-0.0901;
5252522741634543;0.0202;-0.0099;-0.0838;
5252522751724855;0.0170;-0.0099;-0.0784;
5252522761827564;0.0181;-0.0088;-0.0710;
5252522771930324;0.0181;-0.0088;-0.0646;
5252522782041730;0.0170;-0.0088;-0.0603;
5252522792144439;0.0128;-0.0077;-0.0550;
5252522802247147;0.0128;-0.0077;-0.0475;
5252522812345897;0.0160;-0.0067;-0.0443;
5252522822448605;0.0277;-0.0056;-0.0379;
5252522832551314;0.0437;-0.0056;-0.0294;
5252522842657147;0.0565;-0.0067;-0.0220;
5252522852759855;0.0692;-0.0067;-0.0156;
5252522862862564;0.0778;-0.0077;-0.0092;
5252522872964960;0.0767;-0.0088;-0.0039;
5252522883067668;0.0724;-0.0067;-0.0007;
5252522893170428;0.0618;-0.0035;0.0047;
5252522903278605;0.0469;-0.0024;0.0100;
5252522913381314;0.0309;-0.0024;0.0132;
5252522923484022;0.0170;-0.0024;0.0142;
5252522933581939;0.0170;-0.0024;0.0142;
5252522943684647;0.0234;-0.0024;0.0132;
5252522953787355;0.0330;-0.0045;0.0132;
5252522963895324;0.0511;-0.0035;0.0111;
5252522973998032;0.0682;-0.0024;0.0121;
5252522984100741;0.0767;-0.0013;0.0100;
5252522994204647;0.0799;-0.0024;0.0057;
5252523004307355;0.0778;-0.0045;0.0004;
5252523014410116;0.0703;-0.0045;-0.0039;
5252523024498918;0.0586;-0.0035;-0.0092;
5252523034601626;0.0394;-0.0035;-0.0156;
5252523044704387;0.0224;-0.0013;-0.0241;
5252523054806470;0.0107;-0.0024;-0.0326;
5252523064909178;0.0107;-0.0056;-0.0411;
5252523075011939;0.0138;-0.0056;-0.0443;
5252523085124022;0.0128;-0.0045;-0.0454;
5252523095226730;0.0128;-0.0045;-0.0443;
5252523105329439;0.0107;-0.0035;-0.0433;
5252523115421314;0.0096;-0.0024;-0.0390;
5252523125524022;0.0075;-0.0013;-0.0337;
5252523135626730;0.0096;-0.0013;-0.0337;
5252523145733553;0.0096;-0.0045;-0.0326;
5252523155836314;0.0075;-0.0045;-0.0284;
5252523165939022;0.0107;-0.0045;-0.0209;
5252523176056835;0.0085;-0.0045;-0.0145;
5252523186159543;0.0064;-0.0056;-0.0103;
5252523196262251;0.0075;-0.0035;-0.0039;
5252523206353605;0.0053;-0.0035;-0.0017;
5252523216456314;0.0053;-0.0024;-0.0007;
5252523226559074;0.0064;-0.0024;0.0004;
5252523236651105;0.0043;-0.0013;0.0015;
5252523246753814;0.0032;0.0008;0.0015;
5252523256856522;0.0032;-0.0003;0.0025;
5252523266971314;0.0021;-0.0013;0.0025;
5252523277074022;0.0011;-0.0013;0.0025;
5252523287176730;0.0043;-0.0035;0.0025;
5252523297283918;0.0064;-0.0045;0.0015;
5252523307386626;0.0064;-0.0056;0.0004;
5252523317489387;0.0064;-0.0045;-0.0007;
5252523327584335;0.0043;-0.0035;-0.0039;
5252523337687043;0.0064;-0.0013;-0.0081;
5252523347789803;0.0064;-0.0003;-0.0103;
5252523357893918;0.0064;-0.0003;-0.0124;
5252523367996626;0.0085;-0.0013;-0.0145;
5252523378099387;0.0085;-0.0045;-0.0156;
5252523388211105;0.0138;-0.0067;-0.0156;
5252523398313814;0.0309;-0.0045;-0.0145;
5252523408416574;0.0352;-0.0035;-0.0166;
5252523418500897;0.0426;-0.0035;-0.0156;
5252523428603605;0.0437;-0.0024;-0.0156;
5252523438706366;0.0426;-0.0067;-0.0156;
5252523448819907;0.0373;-0.0067;-0.0145;
5252523458922616;0.0362;-0.0056;-0.0134;
5252523469025376;0.0373;-0.0035;-0.0145;
5252523479132355;0.0373;0.0008;-0.0166;
5252523489235064;0.0383;0.0008;-0.0156;
5252523499337824;0.0362;-0.0024;-0.0166;
5252523509438918;0.0394;-0.0056;-0.0156;
5252523519541626;0.0469;-0.0067;-0.0145;
5252523529644387;0.0607;-0.0045;-0.0145;
5252523539738814;0.0671;-0.0045;-0.0113;
5252523549841522;0.0682;-0.0013;-0.0113;
5252523559944282;0.0671;0.0008;-0.0124;
5252523570052564;0.0522;0.0008;-0.0134;
5252523580155272;0.0320;-0.0003;-0.0166;
