Sensor: bmi160 Accelerometer Non-wakeup
Vendor: BOSCH
TimestampAcc [ns]; AccX [m/s^2]; AccY [m/s^2]; AccZ [m/s^2]
909290178469689;-9.4621;2.3297;-2.8187;
909290188590835;-10.4372;1.3669;-2.6106;
909290198738231;-9.5267;0.4588;-0.5862;
909290208813231;-9.2273;1.7237;-1.8344;
909290218907397;-10.3774;1.9896;-3.4968;
909290228982397;-8.7242;0.5237;-1.1827;
909290239147918;-7.3780;1.2832;-0.2821;
909290249246043;-8.8107;1.8963;-0.9168;
909290259368283;-10.9977;1.2927;-0.8115;
909290269486356;-11.3593;0.7585;-0.8163;
909290279569481;-10.8491;1.4243;-2.0091;
909290289695522;-10.4085;2.5047;-3.8154;
909290299799481;-7.9699;2.4353;-3.0129;
909290309895418;-6.4008;1.8891;-2.3901;
909290320009585;-8.0656;1.7046;-4.0071;
909290330117397;-10.5281;0.8877;-3.7460;
909290340223543;-11.2851;1.0002;-2.1123;
909290350314741;-10.0708;0.5907;0.2402;
909290360416043;-10.0804;0.7319;0.2928;
909290370520002;-10.2670;1.3956;-1.2329;
909290380630939;-8.5472;1.3023;-1.0917;
909290390733335;-8.6429;1.5897;-2.3925;
909290400835314;-9.6347;2.2555;-4.5604;
909290410940939;-8.8418;1.9394;-3.7316;
909290421045575;-8.2549;1.3549;-2.5816;
909290431148387;-9.2560;1.9131;-3.7866;
909290441250366;-10.1952;1.2855;-3.2716;
909290451364741;-10.2838;0.4711;-0.5647;
909290461471825;-9.7591;0.6218;0.2426;
909290471569637;-9.9054;1.0101;-0.3921;
909290481678908;-9.2321;1.5272;-1.0630;
909290491783335;-8.1613;1.2613;-0.1143;
909290501888700;-8.9207;1.3789;-0.8330;
909290512024689;-10.2048;2.5454;-4.1507;
909290522098387;-10.2550;2.7156;-5.6216;
909290532195783;-9.3185;1.0866;-4.0430;
909290542304429;-10.1330;1.6496;-4.6178;
909290552414429;-9.2465;0.8303;-2.0330;
909290562523491;-7.8284;1.2855;0.3601;
909290572626668;-9.3712;2.2842;-0.3826;
909290582723908;-9.8288;1.6113;1.0092;
909290592850939;-8.9662;1.7261;1.3421;
909290602942918;-10.2287;2.6414;-1.3696;
909290613050158;-10.5975;3.4415;-4.8407;
909290623156147;-9.0503;2.2029;-5.1879;
909290633260002;-8.1517;2.0710;-5.4395;
909290643363283;-7.5625;2.7060;-5.4227;
909290653473856;-8.2047;1.8724;-2.9674;
909290663571304;-9.9485;0.5309;0.1684;
909290673687814;-10.4707;0.9619;1.3205;
909290683774064;-11.3450;2.5119;0.2737;
909290693888387;-10.5473;1.7596;2.0273;
909290703992345;-9.7902;2.5813;0.4463;
909290714125314;-9.3903;2.8905;-2.4117;
909290724206252;-9.9867;3.2521;-4.0478;
909290734313804;-8.3052;2.6052;-3.1400;
909290744411408;-8.3507;1.7692;-2.2439;
909290754516929;-9.5581;1.4171;-2.3901;
909290764650418;-9.3138;0.9930;-1.3074;
909290774729325;-8.9327;1.6663;-0.9526;
909290784837658;-9.4525;3.0652;-2.2845;
909290794941616;-8.7266;2.4927;-1.1827;
909290805067345;-8.9040;3.1298;-1.5156;
909290815151512;-8.9686;3.0963;-1.4749;
909290825255158;-9.1866;3.4941;-1.9588;
909290835357710;-11.6973;3.6329;-2.3133;
909290845467450;-10.6313;2.4377;0.0126;
909290855584585;-9.1220;2.4712;0.2330;
909290865684793;-9.4095;3.7983;-2.5576;
909290875788595;-8.7266;3.2067;-1.3217;
909290885915731;-7.8045;2.0518;1.6798;
909290895997970;-8.4535;3.5492;0.2737;
909290906098022;-9.6897;3.9637;-2.8331;
909290916210939;-10.6170;3.8509;-5.6073;
909290926315939;-11.6806;4.6463;-7.7991;
909290936438908;-8.6477;2.7203;-2.5146;
909290946532866;-5.6486;1.0026;2.5998;
909290956637293;-7.6295;3.6568;-1.7145;
909290966730262;-10.1067;4.3899;-4.6609;
909290976853283;-10.0657;1.6926;0.1445;
909290986967606;-9.9676;1.4171;3.1484;
909290997124533;-12.1594;4.1073;-1.9181;
909291007152606;-12.3607;2.6892;-2.1721;
909291017248231;-8.8083;2.0160;0.4367;
909291027376564;-6.6332;2.1957;0.7792;
909291037483543;-8.5639;3.2115;-2.2343;
909291047600939;-9.9724;2.0518;-3.2907;
909291057697866;-8.8825;1.5272;-1.7288;
909291067779793;-9.4693;3.3239;-3.7723;
909291077885575;-11.0169;2.1263;-2.6441;
909291088007814;-9.3544;1.8485;-0.6269;
909291098128283;-7.0929;2.2771;-0.3275;
909291108213700;-8.3961;3.1442;-2.4308;
909291118336564;-9.4286;2.5023;-3.3099;
909291128428335;-9.2731;2.0952;-2.3180;
909291138572606;-9.8216;2.6701;-2.3204;
909291148636720;-10.8491;2.0495;-0.6317;
909291158737658;-9.7161;1.6519;0.8007;
909291168840054;-8.5472;1.9250;0.4463;
909291178938804;-8.9782;3.2330;-2.0354;
909291189058700;-9.0120;3.9179;-3.5112;
909291199148231;-8.5328;2.8232;-2.0740;
909291209264950;-9.9700;2.7227;-1.6810;
909291219370210;-10.7462;3.4152;-2.6608;
909291229476200;-9.2178;3.1540;-1.3050;
909291239580054;-8.7147;3.4295;-1.2449;
909291249694272;-9.7974;3.2976;-1.5637;
909291259795470;-10.1402;2.8905;-0.2103;
909291269900366;-8.6931;3.4630;0.8653;
909291280004637;-7.1578;4.4809;-0.5336;
909291290115210;-8.8609;4.1288;-3.3194;
909291300219741;-10.0537;3.0054;-3.0583;
909291310317450;-10.5879;2.8304;-1.9899;
909291320424429;-10.3173;3.6882;-2.3710;
909291330534220;-10.0851;3.3646;-2.4117;
909291340655054;-9.5892;3.1442;-1.2858;
909291350754481;-9.1436;3.4989;-0.6963;
909291360853960;-9.0287;3.2498;-0.1501;
909291370962554;-9.6467;2.9599;-0.4570;
909291381061981;-9.0072;2.8810;-1.3457;
909291391161460;-8.3267;3.1995;-2.8522;
909291401270679;-9.7831;3.0700;-4.3783;
909291411370158;-10.4133;2.8953;-3.9254;
909291421469637;-8.9327;1.9920;-1.2643;
909291431590210;-8.5543;2.6462;-0.3802;
909291441689637;-7.8117;2.1287;0.5252;
909291451789116;-7.6705;2.1550;0.1325;
909291461904429;-8.7266;2.6533;-2.9674;
909291472003908;-11.5534;1.8939;-4.5197;
909291482103387;-11.4171;1.7692;-4.4839;
909291492225835;-8.4993;1.7333;-3.0320;
909291502325262;-8.9447;1.7836;-2.6010;
909291512424741;-8.6955;0.8925;-0.5312;
909291522540002;-8.3746;0.8327;0.0870;
909291532639429;-10.0804;1.2159;-1.0223;
909291542738908;-10.4587;1.6352;-2.7398;
909291552858960;-10.0899;1.4578;-3.6188;
909291562958387;-9.8886;1.3190;-4.0310;
909291573057866;-9.0742;1.8437;-4.8479;
909291583173647;-8.5591;1.3597;-3.8680;
909291593273075;-8.0201;0.1762;-1.2787;
909291603372554;-8.0178;1.1273;-1.8655;
909291613483491;-9.3209;0.6817;-1.6953;
909291623582970;-10.8996;0.2506;-0.4642;
909291633682450;-8.6764;0.5788;0.0030;
909291643820679;-7.3899;1.4483;-2.1075;
909291653920158;-11.3976;2.3563;-5.9569;
909291664019637;-11.4769;0.4445;-2.9100;
909291674127814;-8.5448;2.0303;-2.7326;
909291684227241;-8.4969;2.5860;-4.2179;
909291694326720;-9.7328;1.5849;-2.4428;
909291704445418;-8.9303;1.0819;-0.3323;
909291714544845;-8.4033;1.3430;-0.3562;
909291724644325;-10.6193;2.9767;-3.5160;
909291734754585;-12.6051;2.6414;-4.1985;
909291744854012;-9.1843;0.0111;0.0870;
909291754953491;-7.4931;-0.5136;0.2976;
909291765049116;-10.0657;1.4315;-3.3123;
909291775148543;-9.2010;1.2685;-2.3228;
909291785248022;-7.5410;0.5668;-1.0128;
909291795381200;-8.3602;2.7036;-4.8239;
909291805480679;-8.7485;3.1202;-5.7772;
909291815580158;-9.3497;1.3573;-2.7302;
909291825698908;-10.3463;0.9069;-1.3839;
909291835798387;-10.0732;1.5562;-1.9564;
909291845897866;-10.1306;2.4879;-3.6500;
909291856017918;-9.9030;2.4520;-4.0932;
909291866117345;-7.4644;2.0566;-3.2740;
909291876216772;-8.0010;2.7802;-5.0850;
909291886343647;-9.1651;3.2186;-5.1664;
909291896443075;-9.0239;1.5586;0.0990;
909291906542502;-9.7639;1.1871;2.8370;
909291916643231;-8.3339;2.4544;1.0092;
909291926742710;-8.5783;3.6114;-4.0932;
909291936842189;-11.8528;3.9829;-8.4482;
909291946984429;-11.7547;2.6390;-6.4792;
909291957083856;-10.1186;0.6912;-2.0258;
909291967183283;-8.2502;0.0111;0.8943;
909291977277450;-5.9192;0.6051;1.0762;
909291987376929;-7.7303;1.5634;-1.6092;
909291997476356;-10.9044;2.0423;-3.9760;
909292007597241;-12.1953;1.5682;-4.3974;
909292017696720;-11.5678;1.6256;-3.9039;
909292027796200;-9.9245;1.9992;-2.6584;
909292037940054;-7.3038;1.3860;-0.2390;
909292048039481;-7.3732;1.4291;-1.1157;
909292058138960;-9.0646;1.7477;-3.1591;
909292068255054;-9.5148;1.3645;-2.9530;
909292078354481;-8.8490;0.5907;-1.1444;
909292088453960;-8.7628;0.4373;-1.9134;
909292098553543;-10.0995;1.0412;-4.4743;
909292108652970;-10.4444;1.2254;-3.5853;
909292118752450;-7.7471;1.1106;-1.2715;
909292128868387;-8.1781;1.5658;-3.2261;
909292138967814;-10.9594;1.9155;-4.8646;
909292149067293;-10.9834;1.3525;-2.1003;
909292159178283;-9.9365;1.2589;-0.6413;
909292169277762;-9.8719;2.1503;-3.1854;
909292179377241;-9.9485;1.7572;-3.3840;
909292189489845;-10.2191;0.4564;0.1397;
909292199589325;-8.3387;0.3153;1.8093;
909292209688804;-6.8414;1.1273;-1.6164;
909292219813075;-8.4129;1.5849;-6.8456;
909292229912554;-12.6817;0.7537;-7.7441;
909292240012033;-11.6372;-0.8898;-2.0617;
909292250122397;-7.5123;0.1235;-0.1573;
909292260221825;-6.7600;1.6184;-4.0119;
909292270321356;-9.0622;1.2111;-4.6585;
909292280447033;-9.6371;0.3607;-1.8727;
909292290546512;-9.2584;1.2637;-1.5757;
909292300645991;-10.2718;1.4124;-2.9315;
909292310761095;-10.4874;1.8003;-3.3003;
909292320860575;-9.1244;1.8389;-1.4581;
909292330960054;-7.8308;1.1584;0.7744;
909292341096720;-7.6777;1.6137;-0.2174;
909292351200991;-9.7017;2.2436;-4.1291;
909292361305262;-11.1703;2.1024;-6.0574;
909292371402814;-11.5271;1.6711;-5.3366;
909292381507085;-11.0551;0.9308;-1.6546;
909292391611356;-8.0776;1.1489;-0.4232;
909292401717554;-7.9074;2.2364;-4.0119;
909292411821825;-9.7400;1.9777;-5.6145;
909292421926095;-7.9747;0.2506;-1.7767;
909292432030262;-4.6759;0.3248;1.2703;
909292442134533;-6.0631;2.2196;-2.3157;
909292452238804;-9.3592;3.0197;-6.6517;
909292462352137;-9.9724;2.2579;-6.3835;
909292472456408;-13.1967;1.7094;-7.1979;
909292482560679;-16.8547;0.9691;-5.5161;
909292492664325;-11.5247;0.0063;0.1181;
909292502768595;-7.3469;0.1738;-0.2916;
909292512872866;-9.4430;-0.4944;-0.9574;
909292522977762;-6.5901;-1.0262;2.1230;
909292533082033;-4.5586;0.1427;-0.0401;
909292543186304;-7.8739;0.9093;-5.1879;
909292553292554;-11.1365;-0.6455;-4.8814;
909292563396825;-10.6983;-0.4107;-1.1515;
909292573501095;-7.5123;1.6663;0.3984;
909292583612241;-5.4257;2.1120;-4.5532;
909292593716512;-11.1317;1.0555;-10.2879;
909292603820783;-10.5855;2.2603;-3.8800;
909292613926825;-6.4199;4.2559;1.7590;
909292624031095;-10.6433;2.7658;-2.4954;
909292634135366;-15.8605;0.5740;-4.2802;
909292644254533;-13.2422;0.1092;-2.0067;
909292654358804;-5.8475;0.6649;1.2511;
909292664463075;-4.9370;0.9835;0.9039;
909292674567762;-8.3865;1.4602;-3.8871;
909292684672033;-10.2287;1.3190;-3.9951;
909292694776304;-8.3507;1.6519;-2.4858;
909292704875991;-9.7424;0.8375;-5.6791;
909292714980262;-13.9035;0.9021;-6.9224;
909292725084533;-12.2267;1.3789;-3.8704;
909292735191929;-7.9364;1.3597;-1.5446;
909292745296200;-6.7170;0.4998;-0.4376;
909292755400470;-8.5137;0.1977;-1.9804;
909292765526720;-10.6313;-0.0897;-2.5792;
909292775630991;-9.8886;-0.1472;-1.5589;
909292785735262;-9.6203;0.6984;-2.4882;
909292795821408;-11.5391;1.0866;-3.8106;
909292805925679;-10.9092;0.4038;-2.9602;
909292816029950;-9.1651;0.6027;-2.2989;
909292826134897;-9.9532;0.4516;-2.5911;
909292836239168;-8.2573;0.0589;-2.7422;
909292846343439;-7.2177;0.3655;-2.1003;
909292856457085;-9.5438;0.5046;-2.6824;
909292866561304;-9.0191;-0.4609;-3.2285;
909292876665575;-9.1866;-1.1940;-3.5399;
909292886768075;-8.4945;-1.0023;-2.6584;
909292896872345;-8.9518;-0.5351;-3.0559;
909292906976616;-7.2894;-1.3256;-4.3735;
909292917129012;-9.5629;-2.2385;-6.1582;
909292927233283;-13.6280;-2.9258;-4.5413;
909292937337554;-9.8288;-3.0912;0.0580;
909292947413700;-7.6825;-2.5211;0.2976;
909292957517970;-8.3004;-3.0673;-2.7230;
909292967622241;-8.2956;-2.8516;-3.9206;
909292977750158;-9.3209;-2.4996;-3.6021;
909292987854429;-7.3062;-2.4227;-4.0956;
909292997958700;-9.2201;-2.2504;-6.4026;
909293008046408;-12.1164;-2.9306;-6.8551;
909293018150679;-9.6610;-2.7102;-2.9195;
909293028254950;-5.2364;-1.7474;-1.1731;
909293038357554;-6.7840;-1.4336;-4.4982;
909293048461825;-11.4386;-1.7234;-5.4826;
909293058566095;-9.6682;-1.5269;-4.0143;
909293068698543;-9.8097;-1.3089;-6.9846;
909293078802814;-12.2459;-2.2122;-6.1534;
909293088907085;-6.0341;-0.7460;-3.2907;
909293098995158;-7.3756;-0.6598;-4.1770;
909293109099429;-13.8317;-0.6742;-4.0023;
909293119203700;-8.7266;-0.1926;1.3110;
909293129317658;-5.6366;0.3081;0.1636;
909293139421929;-10.7510;0.2076;-6.1965;
909293149526200;-9.4190;0.6577;-5.8780;
909293159624220;-9.0431;1.0819;-4.9627;
909293169728491;-8.8992;1.3813;-6.5079;
909293179832762;-6.3553;1.5129;-5.4730;
909293189940991;-8.2167;1.3143;-4.7809;
909293200045262;-11.3928;1.3071;-4.0358;
909293210149533;-10.2814;2.1837;-2.6991;
909293220257554;-11.2875;1.1321;-0.4519;
909293230361825;-8.7242;1.2661;1.1408;
909293240466095;-8.6429;1.9992;-3.7340;
909293250576720;-10.0322;1.4052;-7.3008;
909293260680991;-7.7590;2.2819;-4.8981;
909293270785262;-5.4090;2.0327;-4.8431;
909293280897866;-9.1866;2.5860;-8.4577;
909293291002137;-12.6529;3.3359;-6.8169;
909293301106408;-9.7472;2.4760;-2.4667;
909293311207970;-7.5242;0.6458;-2.4380;
909293321312293;-8.2717;1.4841;-4.7160;
909293331413127;-10.1545;1.4506;-4.3376;
909293341517397;-8.1254;0.4831;-0.6245;
909293351621668;-9.2225;-0.2046;-1.8320;
909293361734325;-9.6682;0.5955;-4.4142;
909293371838595;-8.8705;-0.1161;-1.8440;
909293381942866;-9.3473;-1.1773;-1.8894;
909293392049325;-9.1938;-1.5532;-5.4538;
909293402153595;-9.2034;-1.7258;-6.6709;
909293412257866;-9.1555;-1.5580;-3.6141;
909293422370887;-9.0287;-3.9176;-1.6379;
909293432475158;-10.2431;-4.3729;-1.1946;
909293442579429;-9.9676;-4.1142;-2.1888;
909293452691512;-10.1306;-3.3212;-3.8225;
909293462795783;-6.4582;-3.0840;-2.3351;
909293472900054;-7.7279;-2.7030;-3.5447;
909293483004012;-9.7017;-1.4360;-8.2974;
909293493108283;-11.3689;-2.1832;-5.4371;
909293503212554;-7.2966;-2.6958;-0.7035;
909293513309950;-7.0522;-2.4156;-3.7125;
909293523414220;-12.5261;-0.7005;-6.8743;
909293533518491;-10.0131;-0.9736;-1.0582;
909293543636408;-7.3998;-1.1557;0.8318;
909293553740679;-10.0346;0.0613;-4.5245;
909293563845002;-11.2828;-0.6072;-2.7470;
909293573951147;-7.2153;-0.1496;-1.7719;
909293584055418;-7.3950;0.8901;-6.5749;
909293594159689;-11.9871;1.8843;-8.5681;
909293604273700;-9.3353;1.2855;-4.5843;
909293614377970;-6.5683;1.4100;-3.3673;
909293624482241;-9.9867;2.2651;-5.7221;
909293634581095;-10.7031;2.4473;-4.4862;
909293644685366;-5.1191;2.1168;-1.1133;
909293654789637;-7.1578;2.5478;-3.9760;
909293664896720;-11.9704;0.6051;-3.8919;
909293675000991;-12.1762;0.8925;-2.2845;
909293685105262;-6.9805;0.2865;-4.6920;
909293695216616;-9.5243;2.0231;-6.1965;
909293705320887;-10.8299;0.7609;-3.5614;
909293715425158;-9.1508;-0.1232;-1.6068;
909293725563804;-9.3066;-0.8106;-0.9718;
909293735668075;-8.8729;-0.6191;-0.5432;
909293745772345;-5.7802;0.1068;-3.9520;
909293755843595;-9.3233;1.1632;-6.6084;
909293765947866;-10.8108;1.1776;-4.3807;
909293776052137;-11.7906;-0.4633;-2.4332;
909293786167866;-9.6275;-1.2969;-2.1960;
909293796272137;-8.9207;-1.2658;-2.6201;
909293806376408;-10.8036;-1.2156;-2.2128;
909293816498179;-11.7763;-1.1339;0.8871;
909293826602450;-7.2870;-2.6216;2.0895;
909293836706772;-6.9829;-1.0741;-2.4332;
909293846789325;-8.6213;-0.2477;-5.8923;
909293856893595;-7.3950;-0.3843;-5.2454;
909293866997866;-9.7137;-0.0464;-8.0219;
909293877150783;-13.4339;-0.4418;-7.6938;
909293887255054;-11.6853;-1.0214;0.2569;
909293897359325;-6.9805;-1.3639;3.5964;
909293907427866;-6.0317;-1.2778;-2.3204;
909293917532137;-9.9269;-0.8803;-10.1874;
909293927636408;-9.0981;1.3836;-6.5916;
909293937742658;-6.4774;1.4530;-1.4844;
909293947846929;-11.7930;0.8351;-5.2238;
909293957951200;-11.8265;-0.0706;-1.7910;
909293968060731;-4.5060;-0.2500;1.2416;
909293978165002;-6.9637;1.5224;-7.1186;
909293988269272;-12.2650;0.5357;-11.2511;
909293998375783;-9.5148;0.9308;-7.2027;
909294008480054;-9.4502;1.5009;-2.1482;
909294018584325;-8.4730;0.9428;-0.3778;
909294028703387;-7.1889;-0.2213;-3.5590;
909294038807658;-10.8323;0.7896;-6.1678;
909294048911929;-9.5342;0.9882;-4.0454;
909294059017762;-11.2995;0.3846;-3.5758;
909294069122033;-9.0981;-0.2500;-1.8248;
909294079226304;-4.3860;-1.2323;-3.3410;
909294089325783;-10.1856;-0.4657;-8.9297;
909294099430054;-11.9632;-0.0224;-6.1199;
909294109534325;-7.2272;-1.1940;-1.2233;
909294119652866;-7.7638;-1.1892;-2.2487;
909294129757137;-12.5501;0.2195;-3.6571;
909294139861408;-14.5262;-1.1219;-0.0592;
909294149967554;-6.4606;-0.8656;1.7853;
909294160071825;-4.7551;-0.4131;-3.0392;
909294170176095;-10.9762;0.5285;-7.9669;
909294180297450;-11.8744;0.4325;-4.8670;
909294190401720;-7.5553;0.1666;-3.2477;
909294200505991;-8.6213;0.2937;-3.5160;
909294210599220;-9.7759;0.9595;-1.4653;
909294220703491;-9.4334;0.6147;-1.9373;
909294230807762;-7.4453;0.6410;-3.5925;
909294240916512;-7.5434;1.6807;-4.1794;
909294251020783;-9.4980;2.0710;-6.1104;
909294261125054;-13.1489;1.6950;-1.8200;
909294271233491;-6.0894;0.0230;0.8079;
909294281337762;-8.5711;1.5873;-6.9607;
909294291442033;-13.9370;2.1957;-4.4189;
909294301546616;-7.3564;1.5514;-0.9766;
909294311650887;-8.0225;1.5153;-2.7302;
909294321755158;-9.0000;0.4253;-3.8919;
909294331882450;-10.5520;-0.5638;-3.7795;
909294341987866;-9.1651;-0.2429;-2.8741;
909294352093335;-10.3798;-0.5997;-5.3438;
909294362177762;-14.8687;0.5094;-4.1602;
909294372283179;-9.2850;-0.8130;3.0909;
909294382388647;-5.2750;-3.1463;1.7136;
909294392500575;-7.1650;-2.4395;-4.7904;
909294402605991;-11.4000;-2.5379;-7.3750;
909294412711460;-12.6841;-1.4695;-7.8350;
909294422814012;-7.9026;-1.5150;-5.2597;
909294432919429;-6.3936;-2.7607;-1.9110;
909294443024897;-7.0570;-2.6384;-2.2439;
909294453135158;-11.8576;-1.9630;-4.6681;
909294463240575;-10.8515;-0.7842;-2.9506;
909294473346043;-4.9298;-1.2371;-1.9851;
909294483445783;-9.5291;-1.6875;-7.6217;
909294493551200;-13.8245;-1.7115;-7.2577;
909294503656668;-9.2010;-0.8608;-1.8033;
909294513759845;-2.0097;-1.6346;0.0413;
909294523865262;-5.6103;-1.9463;-5.9809;
909294533970731;-11.3569;-1.1462;-7.8470;
909294544081512;-10.9546;-0.5136;-5.6719;
909294554186929;-10.2838;-0.6814;-4.9268;
909294564292397;-8.2837;-1.1339;-4.3208;
909294574399897;-6.7959;0.3488;-4.1865;
909294584505314;-6.4463;1.4195;0.0365;
909294594610783;-6.4080;1.1393;-0.6437;
909294604699533;-10.3149;1.8628;-4.1052;
909294614804950;-13.0914;2.1215;-8.4697;
909294624910418;-16.0738;2.4879;-6.3114;
909294635042033;-9.5510;1.0771;-1.1515;
909294645147450;-6.5659;0.2865;2.1685;
909294655252918;-8.6955;0.8112;-0.5336;
909294665356095;-16.0570;0.7944;-1.3648;
909294675461512;-6.6380;1.9155;-0.1789;
909294685566981;-4.0005;0.7729;-4.8598;
909294695673231;-12.4373;1.5658;-8.6399;
909294705778647;-11.1607;1.7309;-4.6513;
909294715884116;-6.7959;0.5285;-2.9004;
909294725990210;-7.1722;0.5285;-5.9306;
909294736095627;-10.2359;0.8782;-3.8465;
909294746201095;-10.6074;0.7609;-1.4031;
909294756287918;-7.0211;0.2913;-0.2294;
909294766393387;-6.9948;-0.2333;-1.7934;
909294776498856;-10.4635;0.2483;-1.7145;
909294786623335;-11.1440;1.8051;-2.6465;
909294796728752;-8.5950;0.7370;-4.0406;
909294806834220;-9.3712;0.1187;-4.1578;
909294816980054;-8.8298;1.6902;-3.5064;
909294827085470;-10.8084;1.2230;-3.7747;
909294837190939;-8.9901;-0.1615;-1.7719;
909294847258179;-8.3722;0.3248;-1.6953;
909294857363595;-7.4429;-0.0849;-4.9053;
909294867469064;-10.7868;-0.4418;-3.4848;
909294877608700;-9.2922;-1.2060;-3.8441;
909294887714116;-9.3808;-0.5375;-4.1961;
909294897819585;-9.6012;-0.6670;-4.3543;
909294907869429;-11.1054;-0.0296;-1.9301;
909294917974845;-9.7161;0.1977;0.4295;
909294928080314;-5.0785;-0.1639;-1.5829;
909294938217554;-6.8007;0.2171;-6.4552;
909294948322970;-12.7777;0.4349;-5.4084;
909294958428439;-11.9103;0.6529;-1.4701;
909294968522970;-7.3899;-0.4250;-2.2295;
909294978628387;-11.3258;-0.5662;-4.4862;
909294988733856;-11.6492;-0.9855;-2.0163;
909294998831981;-7.1626;-0.7292;1.7255;
909295008937397;-5.7467;-0.4992;-2.4619;
909295019042866;-14.7993;-0.4394;-6.5605;
909295029148491;-11.3115;-0.1783;0.0461;
909295039253908;-4.1656;0.3368;-0.2653;
909295049359377;-9.6251;-0.4968;-6.5581;
909295059468075;-8.9064;-1.3352;-5.0085;
909295069573491;-9.9844;-0.6574;-3.1205;
909295079678960;-10.0418;0.0733;-3.8991;
909295089783908;-8.7509;-0.1472;-2.9411;
909295099889325;-9.2273;-0.7938;-2.9841;
909295109994793;-7.3564;-0.3123;-1.8559;
909295120111095;-9.6347;-0.6837;-3.7507;
909295130216512;-12.7152;-0.9042;-3.6476;
909295140321981;-8.6620;-0.2812;-1.0989;
909295150422658;-9.2656;-0.3915;-2.0354;
909295160528075;-11.4123;-0.4178;-0.5815;
909295170633543;-7.9627;1.0002;0.7816;
909295180755991;-8.9686;0.0398;-4.5150;
909295190861408;-11.9991;-1.6202;-6.6108;
909295200966877;-6.7600;-0.5997;-5.3438;
909295211052137;-8.4033;-0.8755;-5.7532;
909295221157554;-12.9571;0.2722;-3.9230;
909295231263022;-7.3349;0.4974;0.4510;
909295241368804;-8.0608;0.6170;-4.0837;
909295251474220;-10.5832;-0.0682;-6.0024;
909295261579689;-6.0655;0.1259;-1.2906;
909295271681929;-9.1196;0.0039;-1.4629;
909295281787345;-9.8599;0.0996;-3.1567;
909295291892814;-8.3602;0.5955;-2.5361;
909295302003908;-8.2956;0.2554;-4.1770;
909295312109325;-10.1115;-0.8874;-4.2730;
909295322214793;-10.9068;-0.5016;-2.6082;
909295332330054;-8.3530;0.6242;-0.2007;
909295342435575;-9.9245;0.8566;-0.3993;
909295352541043;-11.7308;-0.2405;-3.8130;
909295362639741;-11.4434;-0.5279;-2.5337;
909295372745262;-8.0297;0.4493;0.3335;
909295382850731;-6.2139;0.5429;-2.9363;
909295392952658;-9.7878;-0.7316;-5.7676;
909295403058179;-11.6877;0.9141;-3.8512;
909295413163647;-8.9949;1.7022;-0.0425;
909295423272137;-7.9531;1.0723;-0.5767;
909295433377658;-10.5209;0.2001;-3.4896;
909295443483127;-12.3009;-0.7555;-3.0631;
909295453583387;-6.6021;-1.4432;-1.3816;
909295463688908;-5.1814;-2.0611;-4.4839;
909295473794377;-9.5533;-1.3926;-5.9737;
909295483891668;-13.4124;-0.5518;-0.5025;
909295493997189;-7.3612;-0.2979;1.1121;
909295504102710;-8.9255;-1.5054;-5.8636;
909295514237970;-12.6314;-1.1677;-4.1507;
909295524343491;-8.0130;-0.2500;1.9361;
909295534448960;-7.3086;-0.8441;-3.2166;
909295544524950;-12.4831;-0.3843;-7.3367;
909295554630470;-9.8073;-0.0081;-1.5589;
909295564735991;-1.0756;-0.3413;-4.5150;
909295574844012;-9.0694;-2.6240;-11.7733;
909295584949533;-18.2704;-0.4370;-6.5725;
909295595055002;-6.3362;1.9322;3.1005;
909295605152762;-5.2005;0.5883;-1.4988;
909295615258283;-10.5473;-2.4156;-6.0742;
909295625363752;-9.2010;-1.7856;-5.0587;
909295635482345;-8.3267;1.6376;-0.3299;
909295645587814;-7.2751;-0.5806;-4.6848;
909295655693387;-7.9914;-1.1964;-8.9560;
909295665797814;-15.8366;0.3775;-2.8140;
909295675903335;-6.1588;1.7692;3.5653;
909295686008856;-3.5381;-1.4240;-1.7145;
909295696111825;-14.9815;-1.5221;-8.2062;
909295706217345;-11.4601;2.2316;-2.1099;
909295716322814;-12.3200;3.4726;0.3529;
909295726469845;-15.5013;2.9623;-1.2353;
909295736575366;-9.8551;0.6960;1.7231;
909295746680835;-4.0053;0.5357;-0.6078;
909295756754950;-7.7231;0.3416;-5.6839;
909295766860470;-12.2961;0.5859;-6.1606;
909295776965991;-13.4530;2.7467;1.9504;
909295787132606;-5.1981;2.0785;2.5759;
909295797238127;-3.3703;0.6218;-7.1210;
909295807343595;-9.7735;-0.6909;-8.3788;
909295817387241;-10.9116;0.6338;-2.6871;
909295827492762;-11.7643;0.8734;1.4572;
909295837598231;-11.5295;0.4540;2.2932;
909295847685991;-9.2106;-0.0344;2.1661;
909295857791512;-9.4789;-1.7617;0.1277;
909295867897033;-7.3493;-1.0789;-1.9588;
909295878023179;-8.9447;0.1881;-4.2610;
909295888128700;-10.2790;0.2339;-3.3051;
909295898234220;-9.9389;0.7370;-0.9263;
909295908350991;-8.1999;-0.2070;-3.4370;
909295918456512;-7.2200;0.0182;-4.8838;
909295928561981;-7.0953;-0.2405;-6.4959;
909295938667450;-15.2306;-0.1543;-7.6146;
909295948772970;-13.3238;0.1618;0.3649;
909295958878439;-9.0239;0.5668;6.8877;
909295968938179;-10.4109;-0.5112;4.2670;
909295979043700;-6.0918;0.1044;-1.5494;
909295989149220;-6.1660;-1.1844;-7.3439;
909295999282762;-14.7012;-2.0492;-7.7895;
909296009388283;-9.5892;0.8925;4.9403;
909296019493752;-8.9686;2.9767;8.3058;
909296029593595;-11.8935;2.2005;-2.0644;
909296039699116;-7.6992;-1.7282;-8.6327;
909296049804585;-12.4636;-4.0181;-6.3523;
909296059913700;-4.8772;-0.4561;-1.4701;
909296070019220;-6.0006;-0.2979;-4.8909;
909296080124689;-15.5396;-0.5447;-5.5113;
909296090234325;-10.7366;1.4052;2.5304;
909296100339845;-3.7825;1.5081;0.3840;
909296110445314;-8.1900;0.0565;-6.4146;
909296120558491;-9.1651;-1.6298;-4.0741;
909296130664012;-16.7348;1.2637;0.1086;
909296140769481;-10.0107;3.6568;-1.3169;
909296150870783;0.8049;-1.9798;-2.5337;
909296160976304;-12.4493;-1.3137;-8.7574;
909296171081772;-14.2579;-0.2548;-5.8947;
909296181182345;-4.6902;-0.3915;-1.2138;
909296191287866;-8.9471;-0.9664;-5.1185;
909296201393387;-10.2120;0.3703;-4.6513;
909296211500158;-8.3100;-0.9568;-0.0736;
909296221605679;-5.5983;-0.4729;-4.0406;
909296231711147;-8.6405;-0.4633;-9.1621;
909296241827658;-15.8151;-0.3628;-8.2232;
909296251933179;-9.2417;0.8877;-0.7131;
909296262038647;-5.3803;0.1690;2.0919;
909296272138804;-6.3314;-0.6191;-5.4299;
909296282244325;-17.4200;-0.2644;-3.2285;
909296292349845;-7.0475;0.5453;1.9938;
909296302454481;-3.0900;0.5070;-3.0176;
909296312560002;-12.4540;-0.4394;-10.4007;
909296322665522;-11.2875;0.4325;-3.5997;
909296332786304;-5.0450;0.8064;2.4057;
909296342891877;-7.8141;-0.0559;-6.9775;
909296352997502;-11.9079;-1.2060;-9.3778;
909296363085054;-11.1751;-0.5471;-3.1639;
909296373190627;-6.1181;0.1164;-0.0903;
909296383296252;-5.6318;-0.5901;-3.3745;
909296393400054;-12.2818;-0.7914;-4.7207;
909296403505627;-11.2493;0.1857;0.3191;
909296413611252;-9.5581;-0.2118;-0.1645;
909296423699220;-12.1690;0.1618;-3.2644;
909296433804793;-8.2430;0.0470;0.7457;
909296443910418;-5.5696;-0.2835;-0.2055;
909296454031408;-11.2756;-0.9305;-10.8796;
909296464136981;-13.7907;-0.1854;-3.9206;
909296474242606;-5.2750;0.8279;2.1063;
909296484357345;-8.2095;-0.0296;-3.3888;
909296494462918;-8.5232;-0.0081;-5.5208;
909296504568543;-9.2779;0.4229;-3.8752;
909296514671408;-8.9088;0.0565;-1.3911;
909296524776981;-4.3430;-0.1065;-3.4513;
909296534882606;-11.7476;-0.0344;-7.7536;
909296544988700;-14.6533;-0.7914;-2.0450;
909296555094272;-7.4022;-0.7842;2.4320;
909296565199897;-9.3712;-1.5532;-3.1496;
909296575299585;-13.3502;-1.4022;-1.1420;
909296585405158;-9.6275;-0.6766;4.4563;
909296595510783;-12.1546;-0.8970;-0.8809;
909296605630627;-11.4099;-1.3161;-4.8072;
909296615736200;-2.5271;-0.8177;-4.4548;
909296625841825;-5.0689;0.3655;-6.5701;
909296635924481;-12.7992;-0.0224;-5.0970;
909296646030054;-11.2445;0.2195;-3.7579;
909296656135679;-8.9686;0.0302;-3.2405;
909296666246200;-8.0297;-0.4920;-1.2233;
909296676351772;-9.2345;-1.9101;-1.0343;
909296686457397;-10.8781;-1.8455;-0.5982;
909296696567762;-8.8226;-2.0157;-0.2294;
909296706673335;-8.1589;-1.4312;-4.1195;
909296716778960;-10.3726;-1.6490;-1.5227;
909296726894950;-7.4261;-1.4623;-0.5886;
909296737000522;-7.9890;-0.3963;-7.1740;
909296747106147;-9.8360;-0.5399;-8.4123;
909296757193491;-13.1082;-0.0655;-2.5457;
909296767299064;-8.4224;0.5524;-1.1683;
909296777404689;-6.8462;-0.0706;-3.4848;
909296787544325;-10.4157;0.1020;-5.1401;
909296797649897;-10.9331;-0.6191;-3.2453;
909296807755522;-12.8495;0.1953;1.1145;
909296817830054;-9.7950;0.9260;3.5483;
909296827935627;-5.6940;0.0398;0.6691;
909296838041200;-9.0718;-0.6837;-6.1917;
909296848160887;-11.2804;-0.5375;-5.1353;
909296858266460;-9.9485;-0.4322;-1.7456;
909296868372085;-8.3291;-0.4537;-4.3974;
909296878490210;-8.5280;0.0900;-6.6012;
909296888595783;-11.3856;0.2483;-4.2251;
909296898701408;-10.7581;0.3129;-0.8091;
909296908800262;-2.2469;0.3966;-1.6259;
909296918905835;-8.4009;0.3703;-4.7761;
909296929011460;-17.3219;0.4564;-1.8823;
909296939100262;-6.7624;0.6649;3.1914;
909296949205835;-2.7691;-0.7531;-2.5026;
909296959311460;-15.0221;0.0541;-8.0363;
909296969439741;-13.0795;1.2494;-2.3877;
909296979545314;-8.7796;-0.1065;0.4104;
909296989650939;-8.7891;-0.2070;-1.4964;
909296999741564;-6.4176;0.3488;-3.7675;
909297009847137;-12.6099;-0.0081;-5.3127;
909297019952762;-11.3210;0.1235;-2.5696;
909297030054220;-5.6390;0.3894;-1.5733;
909297040159793;-7.1097;-0.2142;-2.6177;
909297050265418;-10.7342;0.6338;-3.7603;
909297060370991;-11.4553;1.0053;-3.5949;
909297070476564;-9.5486;-0.3939;-2.6297;
909297080582189;-7.3325;0.8160;-3.5207;
909297090707345;-10.4492;0.2267;-3.9784;
909297100812918;-9.5868;0.0948;2.3722;
909297110918543;-6.2952;-0.7507;1.3493;
909297121008387;-11.0504;-0.2979;-7.9765;
909297131113960;-12.6266;0.3966;-4.9651;
909297141219585;-6.6619;0.6314;0.7385;
909297151323179;-8.7844;0.2578;-5.3462;
909297161428752;-12.6601;0.6625;-4.8526;
909297171534377;-7.3014;-0.4705;-1.4940;
909297181635887;-10.4324;0.0637;-3.9473;
909297191741460;-8.5328;0.0254;-2.8932;
909297201847085;-11.1030;0.4325;-1.8631;
909297211954845;-8.7194;0.6577;-1.7049;
909297222060418;-5.9408;-0.4346;-1.0606;
909297232166043;-10.6217;0.2506;-3.4848;
909297242272970;-13.3167;1.5945;-4.3352;
909297252378543;-6.2785;-0.6622;-2.0043;
909297262484168;-4.9753;0.1044;-5.7461;
909297272655887;-10.5497;0.3727;-3.9688;
909297282761460;-7.7303;0.6338;-2.3901;
909297292867085;-7.9412;0.4540;-5.7796;
909297302895158;-10.0131;0.2052;-5.8397;
909297313000731;-9.0191;0.4325;-2.2223;
909297323106356;-10.9905;0.5764;0.0894;
909297333222970;-6.6595;-0.0655;-1.0008;
909297343328387;-9.4621;-1.0430;-6.5462;
909297353433856;-22.3188;-0.0392;-2.0569;
909297363537970;-11.9608;0.8566;7.8461;
909297373643387;-2.3189;-0.5088;1.9337;
909297383748856;-8.1565;-1.6899;-10.4246;
909297393851720;-14.7826;-0.8130;-7.6744;
909297403957137;-11.2469;0.9667;6.3799;
909297414062606;-1.8972;2.8113;0.4104;
909297424169429;-8.7963;0.0517;-11.6940;
909297434274845;-10.1880;-0.0873;-5.8181;
909297444380314;-5.6725;1.2999;-0.5025;
909297454481564;-9.6060;0.8686;-6.0048;
909297464586981;-7.7495;0.1307;-4.8072;
909297474692450;-10.2479;0.0159;-1.6618;
909297484807866;-11.5582;-0.5375;-0.0162;
909297494913283;-9.9509;-0.5040;0.0652;
909297505018752;-12.3751;-0.6407;-3.2740;
909297515111720;-12.5907;-0.9760;0.0030;
909297525217189;-1.9618;-0.3580;1.1097;
909297535322606;-6.9948;-1.1964;-13.0980;
909297545436147;-15.0485;-0.1232;-15.1101;
909297555541564;-12.3488;1.5706;2.4200;
909297565647033;-7.3540;3.4199;4.9642;
909297575758595;-5.9408;0.9547;-1.2138;
909297585864064;-9.6203;-1.1076;-6.3619;
909297595969481;-13.3454;0.6458;-3.3529;
909297606087554;-9.5701;1.5658;1.3445;
909297616192970;-6.0054;-0.1161;-0.1143;
909297626298439;-9.7376;-0.8874;-4.2251;
909297636423804;-12.2339;-1.0071;-6.3691;
909297646529220;-8.9088;-1.0502;-2.0617;
909297656634689;-1.0875;-0.5183;-1.2209;
909297666686304;-8.6955;-1.3113;-8.7188;
909297676791772;-16.4713;0.4038;-9.2124;
909297686897189;-9.9844;1.1201;-2.4260;
909297697015054;-8.0513;1.5993;-0.4786;
909297707120470;-6.0509;0.0230;-0.4304;
909297717225939;-8.4248;-0.2620;-1.4390;
909297727353022;-10.7916;-0.0272;1.9938;
909297737458439;-8.8250;-0.1615;-0.4594;
909297747563908;-13.7572;0.1546;-7.1668;
909297757669429;-10.8108;0.0111;-1.9636;
909297767774897;-4.9346;-0.3820;2.1781;
909297777880314;-6.0727;-0.7819;-4.7976;
909297787986877;-13.7548;-1.0382;-5.7126;
909297798092293;-12.6123;0.3057;-1.4797;
909297808197762;-5.5696;0.5548;-2.7111;
909297818300210;-9.6515;-0.3700;-3.6093;
909297828405627;-10.4874;0.2985;0.3793;
909297838511095;-6.8967;0.7633;2.2478;
909297848621408;-9.7639;0.9691;-3.6404;
909297858726825;-12.8542;0.3033;-6.1510;
909297868832293;-9.5964;0.9978;-0.3730;
909297878921825;-9.5916;0.4397;2.0154;
909297889027241;-15.3503;0.4373;-0.7780;
909297899132710;-6.0269;0.7920;1.8835;
909297909237970;0.3449;-0.6144;-4.2634;
909297919343387;-17.6883;-1.0047;-11.4595;
909297929448856;-17.9949;1.3884;-0.1765;
909297939553179;-1.4683;2.0375;7.5272;
909297949658595;-5.2845;0.0254;-5.5546;
909297959764064;-14.9456;-0.2596;-9.5767;
909297969866929;-7.6848;-0.2955;1.4309;
909297979972397;-7.5697;1.2494;-1.5156;
909297990077814;-16.5864;1.7094;-6.3691;
909298000192554;-12.3727;1.8317;1.0475;
909298010298022;1.8972;0.5118;2.7314;
909298020403439;-4.3262;-1.6394;-8.3237;
909298030501564;-20.4311;-0.7747;-11.9937;
909298040606981;-9.1029;-0.4896;2.3267;
909298050712450;-2.9704;1.2517;0.5109;
909298060820054;-7.8069;-0.0559;-12.8991;
909298070925522;-12.4229;-2.3342;-10.8054;
909298081030939;-14.2795;-0.4466;4.0466;
909298091164429;-2.9297;0.9571;7.2159;
909298101269845;-5.7996;-0.7029;-11.0067;
909298111375314;-17.8490;-3.3500;-12.5973;
909298121462137;-9.8767;-1.2634;4.2431;
909298131567554;0.3592;-0.0272;3.7735;
909298141673022;-12.7872;-0.4872;-11.0880;
909298151779429;-15.3455;-1.1964;-6.6565;
909298161884845;-3.0159;-1.6756;1.8188;
909298171990314;-8.8872;-1.1701;-5.7580;
909298182085158;-14.1909;-1.4647;-6.0311;
909298192190627;-8.1900;-0.1854;2.9136;
909298202296043;-5.2364;0.7944;-1.4151;
909298212407970;-6.2856;-0.7244;-12.2501;
909298222513387;-13.4626;-2.0324;-7.5045;
909298232618856;-12.1187;0.8758;3.6323;
909298242728179;-5.6605;1.8963;3.5339;
909298252833595;-11.6611;-0.1017;-6.6254;
909298262939064;-13.9155;-0.9760;-5.4443;
909298273044429;-2.5678;0.2770;-0.4977;
909298283149845;-6.9111;-0.2764;-5.8804;
909298293255314;-16.1169;1.2855;-5.5522;
909298303352762;-8.2765;1.8221;2.7218;
909298313458179;-3.0613;0.6410;-0.3419;
909298323563647;-9.1627;0.5381;-6.4576;
909298333670783;-8.3267;0.1738;-5.1066;
909298343776304;-9.1149;0.7490;-3.9473;
909298353881825;-14.5262;1.8413;-0.4929;
909298363990366;-8.1805;0.7418;0.4774;
909298374095887;-15.3646;0.6912;-2.1194;
909298384201408;-14.8256;-0.6120;7.9585;
909298394306408;-4.2879;0.3368;3.8504;
909298404411929;-12.0087;-0.1950;-7.6624;
909298414517450;-10.4252;-0.9951;-5.9689;
909298424618804;-7.5649;-0.1926;-3.9664;
909298434724325;-10.7462;2.9025;-2.1793;
909298444829845;-4.5730;3.0006;3.2994;
909298454932241;-6.4917;2.0399;-1.6044;
909298465037762;-16.5410;0.7152;-6.3138;
909298475143283;-13.3525;0.6601;-0.0114;
909298485272658;-6.6356;0.2387;2.6142;
909298495378179;-9.8886;0.1905;-0.3108;
909298505483700;-5.4042;-0.9185;-0.3012;
909298515575262;-4.5323;-2.0180;-3.0200;
909298525680783;-14.4186;-1.2897;-8.3764;
909298535786304;-13.2757;-0.3700;-4.1363;
909298545882658;-6.0006;-0.0849;-1.3983;
909298555988179;-9.9365;-0.2620;-5.9139;
909298566093700;-12.0781;-1.4815;-3.9736;
909298576199481;-9.9556;0.6793;-0.6293;
909298586304950;-10.3220;1.5272;2.6237;
909298596410470;-6.5997;0.5357;2.6357;
909298606514533;-13.8987;-0.2764;-2.1482;
909298616620054;-11.0791;0.3942;1.9361;
909298626725575;-0.3257;0.2267;0.5827;
909298636846304;-8.9207;-1.6971;-12.4008;
909298646951772;-15.3790;-2.4275;-11.4858;
909298657057293;-7.5864;-0.7699;0.2186;
909298667150054;-5.2077;0.1929;-4.1818;
909298677255575;-14.4090;0.4062;-3.8824;
909298687361095;-8.2190;0.9260;4.6624;
909298697506408;-7.4094;1.4818;-0.7202;
909298707611929;-10.6983;-0.8632;-8.1033;
909298717717450;-10.7007;-0.6526;-6.1774;
909298727779741;-12.7609;2.3922;-2.4739;
909298737885262;-2.2014;1.8389;0.5755;
909298747990783;-2.1200;-0.6861;-4.6896;
909298758119741;-16.3301;-1.1243;-8.1535;
909298768225262;-13.2781;1.3836;-1.2882;
909298778330783;-2.4434;1.3454;-1.5227;
909298788438283;-13.2206;0.0374;-6.0769;
909298798543804;-15.0844;0.8255;0.7600;
909298808649325;-5.0354;1.4985;2.4559;
909298818733595;-4.2760;-0.3987;-3.5207;
909298828839116;-9.3185;-2.6384;-6.0407;
909298838944637;-10.1856;-0.9975;-5.8011;
909298849065783;-12.2842;1.6304;-3.4753;
909298859171304;-8.3195;1.5993;-1.4653;
909298869276825;-8.3219;0.9188;-4.8479;
909298879373804;-14.6462;0.3296;-0.7373;
909298889479325;-9.0431;1.8891;5.1580;
909298899584845;-6.5300;1.1321;-0.2844;
909298909693595;-14.2268;-1.3448;-5.8134;
909298919799116;-9.8097;-0.3963;-1.0774;
909298929904637;-4.3095;-0.2453;-3.1735;
909298940016095;-9.9413;-0.9305;-4.8168;
909298950121616;-8.0919;-0.3290;-0.8378;
909298960227137;-9.8934;0.0063;-5.3222;
909298970324845;-11.9103;-0.4777;-5.2143;
909298980430366;-8.8035;-1.6995;-0.0377;
909298990535887;-7.9412;-0.2620;0.8103;
909299000636929;-12.4783;2.0614;0.3840;
909299010742450;-7.8500;0.3129;-0.4352;
909299020847970;-9.3449;-1.4527;-4.6705;
909299030954220;-9.9365;-1.0430;-3.6694;
909299041059741;-7.1049;0.7370;-3.3936;
909299051165262;-11.3354;-0.9401;-6.3329;
909299061273179;-10.1641;0.4158;-2.3351;
909299071378700;-6.7696;1.5033;-2.1386;
909299081484220;-14.5573;-0.3290;-3.6069;
909299091589741;-6.3864;1.9131;1.2679;
909299101695262;-4.9226;-0.6431;-0.0568;
909299111800731;-15.1971;-1.2060;-2.4715;
909299121911408;-11.7045;-0.2955;0.1110;
909299132016929;-10.9929;1.2784;-1.0606;
909299142122450;-9.5342;0.8782;-2.4188;
909299152229845;-8.1829;-1.0717;-1.8631;
909299162335366;-7.3205;-0.1376;-3.8991;
909299172440887;-7.0187;0.6769;-4.1674;
909299182549741;-9.5267;1.1106;-3.6428;
909299192655262;-15.1636;1.3836;-1.9971;
909299202760783;-9.7902;3.9156;2.1374;
909299212854429;-2.1416;2.5334;1.2751;
909299222959950;-12.2507;-1.8909;-7.2458;
909299233065470;-15.2306;-1.6322;-5.8780;
909299243177970;-1.3654;0.7513;1.4979;
909299253283491;-10.4827;-0.3796;-3.2261;
909299263389012;-13.3932;-1.3113;-2.3686;
909299273496616;-4.1225;0.2148;3.1005;
909299283602137;-10.0947;-0.0272;-3.1253;
909299293707658;-9.8815;-1.4743;-8.2711;
909299303816095;-9.8695;-2.0850;-5.3127;
909299313921616;-9.4238;0.6027;-0.7588;
909299324027137;-7.3014;1.1465;0.4295;
909299334118804;-16.1647;-0.9473;-0.3108;
909299344224325;-11.1607;1.3765;4.5138;
909299354329845;-0.3975;2.1790;1.9842;
909299364469325;-14.2795;-3.1080;-10.8365;
909299374574845;-17.6955;-3.4265;-8.2472;
909299384680366;1.5260;0.5883;3.3281;
909299394755054;-6.3458;-0.8584;-1.1994;
909299404860575;-18.6033;-3.2659;-8.8795;
909299414966095;-9.4525;-1.8311;0.0532;
909299425075158;-5.4640;2.5908;2.1685;
909299435180679;-9.0431;0.3918;-4.1650;
909299445286200;-13.7213;-1.4360;-3.9278;
909299455392970;-16.7806;0.8590;-0.5384;
909299465498491;-1.2888;4.5673;2.9973;
909299475604012;-0.2827;-0.1519;-5.8134;
909299485720991;-17.9279;-4.6122;-12.4271;
909299495826512;-11.7691;0.5309;-3.0511;
909299505932033;-3.8542;4.3373;-1.0678;
909299516020470;-14.6701;0.2363;-4.9866;
909299526125991;-10.0633;0.6147;0.7074;
909299536231512;-1.7462;0.3846;-0.1911;
909299546350262;-8.5113;-2.5211;-8.8436;
909299556455783;-12.5142;-2.3486;-6.9751;
909299566561304;-13.6232;0.5692;-2.3901;
909299576646929;-6.5731;1.8604;-0.3514;
909299586752450;-4.5945;-0.6120;-1.0822;
909299596858022;-15.5874;0.6099;-4.0860;
909299606987345;-9.7591;0.5189;1.0570;
909299617092866;-4.8437;0.1068;-6.2109;
909299627198387;-16.4713;-2.6264;-10.2090;
909299637299689;-10.8299;0.8183;4.2287;
909299647405210;-1.3845;3.8844;6.1977;
909299657510731;-9.9078;-1.3926;-8.0459;
909299667631408;-15.1418;-4.1477;-8.9584;
909299677736929;-5.0234;0.2459;-0.5025;
909299687842450;-6.3936;1.2879;-1.2544;
909299697920887;-14.1909;-0.3939;-4.5461;
909299708026408;-14.1622;1.0890;0.3505;
909299718131929;-2.6973;0.9021;3.7448;
909299728237658;-7.7542;-2.3940;-4.7545;
909299738343179;-17.4990;-1.7521;-7.6938;
909299748448700;-13.3741;1.3621;2.9351;
909299758556825;-2.6686;3.5803;3.1388;
909299768662345;-9.7304;-2.9186;-7.3678;
909299778767866;-13.8796;-2.4586;-5.2549;
909299788872137;-7.1411;3.2210;-0.2270;
909299798977658;-9.2273;1.5368;-1.9899;
909299809083179;-9.1890;-0.5590;-3.9832;
909299819188491;-4.9585;-0.1328;-2.2606;
909299829294012;-8.4488;-0.9592;-4.5389;
909299839399533;-12.3583;1.2736;-5.6288;
909299849508075;-6.0269;2.1957;0.3000;
909299859613595;-5.9575;0.3248;-4.5221;
909299869719116;-15.0150;-1.0836;-7.0756;
909299879823179;-12.0589;1.2661;0.7217;
909299889928700;-7.6056;2.6629;3.3138;
909299900034220;-8.2358;-0.1328;-1.3911;
909299910140887;-7.8667;-2.2146;-6.6302;
909299920246408;-10.1330;-2.9450;-7.3534;
909299930351929;-13.4243;1.7572;-2.5026;
909299940457658;-7.0259;3.1178;4.0274;
909299950563179;-9.3185;2.1598;0.2785;
909299960668700;-9.0838;-1.1725;-2.6249;
909299970781825;-8.3195;-1.4671;-3.9544;
909299980887345;-11.8863;0.2506;-2.2774;
909299990992866;-12.7104;2.2914;3.0861;
909300001086616;-10.2191;2.0183;0.7122;
909300011192137;-9.0718;0.6745;-2.2175;
909300021297658;-3.0781;-1.8598;-0.6102;
909300031407033;-7.9122;-1.7593;-7.0469;
909300041512554;-16.2918;0.6386;-6.3377;
909300051618075;-7.4501;2.4832;1.0403;
909300061725470;-5.2965;1.1130;-2.9650;
909300071830991;-12.2025;-0.9808;-5.5570;
909300081936512;-12.4014;0.7825;2.0943;
909300092055418;-4.8724;2.9336;3.7472;
909300102160939;-8.4392;0.1618;-4.8838;
909300112266460;-16.3660;-2.3174;-6.4146;
909300122362814;-4.6998;-1.0597;-1.6140;
909300132468335;-8.5472;0.5189;0.7720;
909300142573856;-12.9212;1.1704;-0.8833;
909300152676200;-10.4204;0.2794;-3.5997;
909300162781720;-8.5831;-0.2644;-4.5508;
909300172887241;-9.1962;-1.1940;-5.1473;
909300182991929;-12.3918;0.4110;-2.7206;
909300193097450;-5.0617;1.3597;4.9786;
909300203202970;-6.2258;0.9308;-2.5768;
909300213307137;-10.5736;0.1187;-11.5887;
909300223412658;-6.7241;-1.5724;-5.8612;
909300233518179;-10.4181;-0.2764;0.4630;
909300243630679;-19.0298;0.9643;1.1506;
909300253736200;-16.8189;1.3836;2.0465;
909300263841720;-7.4501;1.2182;-0.5384;
909300273952033;-9.1508;-1.2132;-0.9191;
909300284057554;-4.0866;-3.1008;-1.0630;
909300294163075;0.6012;-3.3093;-7.2314;
909300304265575;-11.1631;-1.6732;-13.9436;
909300314371095;-17.3674;0.2387;-5.1664;
909300324476616;-8.0704;1.5610;4.7270;
909300334577554;-7.0666;1.6041;0.3000;
909300344683179;-14.8567;-0.3748;-4.9244;
909300354788804;-6.7600;-2.4658;-1.8129;
909300364896408;-3.7155;-2.1616;-1.3552;
909300375002033;-14.2077;-2.2047;-4.6537;
909300385107658;-16.1216;-0.5327;0.5587;
909300395208908;-0.3090;-0.9401;4.7557;
909300405314533;-5.9934;-2.5068;-12.3194;
909300415420158;-17.5855;-2.8756;-20.4616;
909300425526408;-14.4855;-0.5830;-2.8116;
909300435632033;-3.8495;2.8184;7.2685;
909300445737658;-7.5984;1.8027;-3.3673;
909300455846929;-14.0856;-0.6191;-1.7743;
909300465952554;-3.7609;0.7343;8.8950;
909300476058179;-8.3219;2.2460;-1.5012;
909300486152137;-12.2794;-0.0682;-12.7771;
909300496257762;-7.6753;-1.0119;-6.6422;
909300506363387;-3.2506;-0.2548;-3.9206;
909300516527450;-8.0273;-0.8850;-8.0770;
909300526633075;-12.9763;-0.2094;-0.4232;
909300536738700;-10.1186;-0.4513;3.4262;
909300546805991;-8.8131;-0.0583;-6.4911;
909300556911616;-12.4469;-0.4298;-5.1401;
909300567017241;-11.9560;-0.1089;4.9714;
909300577144116;-10.0490;2.2484;2.5854;
909300587249741;-11.9198;-0.3891;-3.5303;
909300597355366;-17.6046;1.4052;-2.0836;
909300607425783;-4.5275;1.8939;5.5558;
909300617531408;-0.0981;-0.4944;-1.3313;
909300627637033;-16.2751;-0.7747;-8.9895;
909300637772137;-9.6849;1.1321;-2.4858;
909300647877762;-6.6595;1.2760;-0.1406;
909300657983387;-11.6782;0.4902;-2.9172;
909300668076200;-9.4478;-0.3628;0.4152;
909300678181825;-4.5873;-0.8297;0.3697;
909300688287450;-8.3554;-1.2443;-5.3844;
909300698381720;-10.8682;-1.8072;-7.7297;
909300708487345;-9.2779;-0.8922;-3.4466;
909300718592970;-8.3889;-0.4202;-1.0056;
909300728701095;-6.2737;-0.3266;-5.7174;
909300738806720;-12.0661;-1.1052;-6.8695;
909300748912345;-6.7720;-0.7819;-1.7647;
909300759015679;-6.0679;-1.2658;-4.3902;
909300769121304;-14.3130;-1.1749;-7.2745;
909300779226929;-13.0555;1.3860;5.2014;
909300789326981;-2.4170;-0.8345;6.3894;
909300799432606;-15.5372;-2.1162;-6.5438;
909300809538231;-18.2417;-0.4059;-2.8044;
909300819644845;-10.5808;-0.6694;6.0517;
909300829750470;-4.2401;-1.0262;-1.3433;
909300839856095;-12.1451;-0.6120;-6.9703;
909300849958700;-10.8538;-0.6574;-1.0893;
909300860064325;-8.4826;0.3344;-0.8426;
909300870169950;-5.3539;-0.2453;-4.7474;
909300880288231;-9.0287;-0.3242;-7.4806;
909300890393856;-16.5434;0.5429;-2.2295;
909300900499481;-7.9316;1.4459;3.5315;
909300910598595;-4.5299;-0.5662;-3.3840;
909300920704220;-8.8011;-1.8503;-6.4313;
909300930809845;-8.3291;-1.2586;-2.2941;
909300940922814;-9.6538;-0.4992;-4.0860;
909300951028439;-8.5496;-0.4298;-4.1219;
909300961134064;-6.5539;-0.0655;-3.8800;
909300971236095;-7.2464;-0.3242;-9.0616;
909300981341720;-13.5320;-2.1377;-8.8890;
909300991447345;-16.7133;0.4205;-0.0544;
909301001549429;-5.9791;2.7371;6.4181;
909301011655054;-5.9910;0.7271;0.6547;
909301021760679;-11.7739;-0.0778;-7.5093;
909301031868647;-13.3071;-0.0129;-0.6197;
909301041974272;-4.1393;0.4134;6.1522;
909301052079897;-9.9365;0.6290;-7.1979;
909301062184012;-18.7496;-0.2429;-12.1038;
909301072289637;-11.9007;0.8758;8.5454;
909301082395262;-1.4109;1.4985;8.2962;
909301092515470;-7.8715;-1.7498;-12.3793;
909301102621095;-13.2685;-2.1066;-9.2028;
909301112726720;-6.2067;0.4158;4.9834;
909301122820887;-5.6533;1.5248;1.3851;
909301132926512;-11.4601;1.1297;-6.0096;
909301143032137;-5.4329;-0.2931;-4.8144;
909301153131512;-12.2746;0.0326;-5.9641;
909301163237137;-10.6433;1.3454;-2.8211;
909301173342762;-5.7514;0.6242;0.8773;
909301183451825;-11.7906;0.1068;-1.1515;
909301193557450;-10.2694;-0.0392;-0.5527;
909301203663075;-9.1555;0.0541;-0.4041;
909301213762658;-6.7959;0.3823;-2.1003;
909301223868283;-6.2258;-0.5566;-5.6599;
909301233973908;-17.3291;0.0996;-8.7574;
909301244085522;-15.1636;0.4229;2.4969;
909301254191147;-1.6959;0.0852;9.4846;
909301264296772;-11.2301;1.8939;-1.4964;
909301274407137;-10.1761;-0.3242;-6.7690;
909301284512762;-8.6859;-0.7651;-3.5375;
909301294618387;-12.3392;1.4148;-0.2007;
909301304723908;-4.5826;1.3645;2.1015;
909301314829533;-7.7160;-0.1735;-4.7928;
909301324935158;-15.2761;-1.2562;-9.4184;
909301335037241;-12.2291;-0.6957;1.2942;
909301345142866;-5.3539;-0.0730;3.1914;
909301355248543;-3.3849;-1.3017;-7.7297;
909301365369012;-14.0782;-0.3820;-9.0784;
909301375474637;-11.4817;-0.9951;0.5946;
909301385580314;-5.8307;-1.3400;4.0753;
909301395668491;-10.1210;0.0278;-4.3184;
909301405774116;-16.4785;-0.6215;-7.3941;
909301415879793;-10.6217;-1.0262;0.0126;
909301425979637;-1.5452;-0.6526;1.7830;
909301436085262;-5.1215;0.2626;-6.7187;
909301446190939;-15.6042;-0.5734;-4.9986;
909301456308908;-14.2579;0.2698;0.4319;
909301466414533;-4.5562;-1.0741;-1.2162;
909301476520210;-5.2822;-0.2500;-5.0515;
909301486617658;-10.2790;0.2746;-7.8829;
909301496723283;-11.9127;-1.0908;-4.3783;
909301506828908;-9.1843;-1.6780;-2.6847;
909301516932397;-8.4368;-0.6096;-2.0234;
909301527038075;-7.8284;-0.1735;0.0508;
909301537143752;-9.8839;-1.0238;-2.9722;
909301547241668;-12.3727;0.1522;-4.8479;
909301557347345;-13.1632;-0.5351;-3.1998;
909301567453022;-4.0173;-2.2863;0.8270;
909301577576095;-9.2273;2.3106;-7.7178;
909301587681720;-5.4640;-0.6120;-4.0167;
909301597787397;-10.7988;0.2291;0.8653;
909301607887397;-11.9824;0.9165;0.9972;
909301617993022;-5.2822;-0.6814;-6.7451;
909301628098700;-8.3794;0.2076;-10.3334;
909301638206095;-11.3641;0.4469;-1.1157;
909301648311720;-8.4320;0.1068;3.7041;
909301658417397;-12.0015;-1.1653;-2.5887;
909301668554429;-12.5405;-0.1998;-3.6619;
909301678660054;-6.8438;-0.0033;1.5793;
909301688765731;-7.3134;0.0517;-1.7480;
909301698837970;-13.7836;-0.0631;-5.7724;
909301708943595;-12.2578;0.5237;-2.3997;
909301719049272;-8.3028;0.6864;-0.7971;
909301729156304;-7.5482;0.1259;-2.3830;
909301739261929;-12.1187;-0.5806;2.0632;
909301749367606;-5.5457;0.3511;5.4960;
909301759475470;-6.2545;-0.0730;-5.9043;
909301769581095;-15.9733;0.3200;-14.4730;
909301779686772;-13.8317;0.4902;0.3817;
909301789787970;-0.5414;0.2770;8.8831;
909301799893595;-5.3109;-1.2132;-7.5332;
909301809999272;-18.4980;-1.4288;-12.1780;
909301820111720;-12.5979;0.6099;2.0943;
909301830217345;-4.1249;0.6793;2.4945;
909301840323022;-10.6217;-0.0081;-7.7082;
909301850420054;-13.5057;-0.7196;-1.4868;
909301860525679;-5.6988;1.2927;2.9447;
909301870631356;-8.7939;0.1570;-4.7713;
909301880742762;-12.8710;-0.4561;-4.9053;
909301890848387;-5.2678;0.4684;1.6247;
909301900954064;-9.4645;0.0111;-3.5375;
909301911062033;-16.6247;0.0302;-4.1483;
909301921167658;-5.2558;0.3559;2.1015;
909301931273335;-3.0278;-0.8225;-2.6776;
909301941378179;-12.7152;-0.9568;-9.2291;
909301951483804;-12.5955;0.3392;-1.8511;
909301961589481;-7.0235;0.1546;2.9997;
909301971716720;-6.2186;-0.2883;-5.9617;
909301981822345;-14.5334;-0.8970;-9.2195;
909301991928022;-13.5993;0.1403;2.5591;
909302002004585;-3.2961;-0.1496;4.9235;
909302012110210;-6.3168;-1.6059;-7.7010;
909302022215887;-13.8987;-1.4312;-7.9235;
909302032323075;-7.1722;0.0805;2.0608;
909302042428700;-8.1254;-0.2142;-0.3203;
909302052534377;-13.3454;-0.1687;-5.6671;
909302062641408;-8.3339;-0.2166;-0.1047;
909302072747033;-9.4884;-0.6383;-2.2798;
909302082852710;-11.8744;-0.0873;-4.8263;
909302092973179;-6.5803;-1.1749;0.0508;
909302103078804;-6.8055;-0.3314;-2.1386;
909302113184481;-9.8121;-0.0488;-6.0000;
909302123286512;-11.2516;0.4110;-2.9554;
909302133392137;-12.4469;1.2422;0.1804;
909302143497814;-4.9609;-0.5614;-1.1228;
909302153594220;-7.2966;-1.2993;-7.3152;
909302163699845;-16.8236;-0.0224;-5.7126;
909302173805522;-11.5989;-0.1496;4.9977;
909302183911147;-7.8332;-0.0969;4.2168;
909302194016772;-10.0466;0.0182;-3.5447;
909302204122450;-5.5457;-0.5877;-4.4767;
909302214227658;-6.3506;0.0685;-5.8181;
909302224333283;-11.8361;0.1116;-5.4802;
909302234438960;-10.6313;1.2879;-3.4777;
909302244549637;-8.6859;1.2182;-2.4523;
909302254655262;-10.5209;0.0374;-1.6810;
909302264760939;-10.0202;0.3535;0.0413;
909302274871512;-9.1244;-0.7220;1.2942;
909302284977137;-6.9230;-0.8034;-2.0617;
909302295082814;-9.9078;0.3559;-7.6433;
909302305174429;-10.3316;-0.2142;-3.9736;
909302315280054;-5.9671;-0.0897;0.3287;
909302325385731;-10.0394;0.4588;-4.2658;
909302335492658;-11.3402;-0.7795;-6.0215;
909302345598283;-14.0040;-0.5327;-0.8521;
909302355703908;-11.3641;0.4301;1.2272;
909302365829793;-6.7576;0.0446;0.7552;
909302375935418;-5.4592;-0.7747;-1.3433;
909302386041043;-13.3813;0.5237;-3.5112;
909302396122814;-11.6853;0.6793;-0.3395;
909302406228439;-5.6079;0.3272;0.1205;
909302416334012;-6.9637;-0.0176;-6.9081;
909302426508387;-8.8968;-0.7077;-7.8278;
909302436614012;-12.4301;0.2291;-3.4442;
909302446719637;-12.1714;0.3176;1.3062;
909302456759741;-7.0355;0.3296;-0.0329;
909302466865366;-9.1579;-1.1438;-1.8535;
909302476970991;-9.5342;-1.0765;0.1732;
909302487124116;-5.8905;0.1068;-3.6957;
909302497229741;-9.5052;0.0446;-7.6986;
909302507335314;-11.5415;-0.4753;-5.7963;
909302517402033;-11.1197;1.3382;-2.7637;
909302527507658;-10.4109;0.5692;-0.5791;
909302537613283;-8.0800;-1.1725;2.7266;
909302547741408;-7.8021;-0.2500;-1.7886;
909302557847033;-12.5333;0.2937;-5.7078;
909302567952606;-8.2884;0.1714;-0.6030;
909302578043908;-9.2970;-0.0081;0.4295;
909302588149533;-11.5343;0.5979;-2.1577;
909302598255158;-10.6409;-0.2931;-2.7517;
909302608369064;-9.4286;-0.1567;-2.6776;
909302618474689;-7.3301;0.0230;-3.0440;
909302628580314;-8.2334;-1.1892;-4.3591;
909302638676720;-6.5949;-1.1653;-4.3615;
909302648782345;-9.3951;1.0579;-2.7326;
909302658887970;-11.6782;0.0924;-1.0128;
909302668994116;-11.3474;0.4950;-2.3949;
909302679099741;-6.9206;-0.2357;-1.8416;
909302689205366;-4.8293;-1.0023;-3.3242;
909302699305679;-12.8088;-1.4767;-4.0358;
909302709411304;-10.2550;-0.7364;-1.5996;
909302719516929;-20.2011;-0.2764;-0.9287;
909302729624220;-12.3464;-0.2572;5.8122;
909302739729845;6.7576;-1.7689;0.9781;
909302749835470;-5.7323;-0.4848;-13.3089;
909302759938387;-21.5498;1.7333;-12.9518;
909302770044012;-15.8916;-0.6526;6.4277;
909302780149637;0.0359;-0.3963;7.9059;
909302790254481;-8.6189;-0.9138;-8.8268;
909302800360106;-14.0160;-0.1089;-6.6517;
909302810465731;-4.3597;0.2148;5.4625;
909302820597970;-5.3396;-0.0682;-3.4418;
909302830703595;-14.3516;-0.9999;-12.4056;
909302840809168;-15.6018;-1.1291;-1.4701;
909302850897137;-6.0583;-0.4825;5.8002;
909302861002762;-10.0083;-0.0993;-2.2199;
909302871108387;-3.0135;-0.2500;-7.1788;
909302881210314;-6.2713;-1.1605;-11.7685;
909302891315939;-18.7974;0.6123;-5.6192;
909302901421564;-11.1464;0.1618;9.8151;
909302911528491;-1.4372;-0.0248;7.7285;
909302921634116;-5.9432;-0.5279;-11.6318;
909302931739741;-19.3364;0.5022;-17.5176;
909302941843804;-12.8758;-0.0897;7.0361;
909302951949429;-3.6867;1.1201;13.4560;
909302962055054;-10.1234;-0.7340;-6.6637;
909302972173283;-11.6300;-1.9606;-10.3816;
909302982278908;-6.8557;0.7056;1.8811;
909302992384533;-4.2951;0.8734;-1.5012;
909303002477397;-11.7165;-0.5231;-10.6283;
909303012583022;-15.6954;0.3727;-4.3065;
909303022688647;-11.3426;1.0026;3.8767;
909303032798387;-7.9050;-0.0033;3.4525;
909303042904012;-6.9015;-1.3448;-1.0534;
909303053009637;-7.2344;0.1810;-7.2506;
909303063113179;-11.7715;-0.2261;-7.7154;
909303073218804;-13.9514;0.4564;0.1205;
909303083324429;-5.2678;0.2291;5.7045;
909303093418387;-5.7108;-0.2453;-2.6800;
909303103524012;-12.3512;-0.6814;-10.7001;
909303113629637;-12.4158;-0.2644;-4.8024;
909303123766512;-10.0274;0.4229;2.3841;
909303133872137;-10.0780;-0.3724;1.7662;
909303143977762;-4.6400;-0.6550;0.1851;
909303154065991;-4.5634;-0.1089;-2.9100;
909303164171616;-12.8542;-0.4226;-6.1487;
909303174277241;-15.8629;-0.0320;-3.9182;
909303184381304;-5.8810;-0.9353;0.1875;
909303194486929;-8.7700;-0.5901;-3.7412;
909303204592554;-12.6888;-0.1472;-4.6848;
909303214691981;-7.4907;-0.7220;3.4980;
909303224797606;-7.6753;0.0733;1.2990;
909303234903231;-14.3946;0.0350;-4.7593;
909303244999950;-11.9175;-0.4250;-0.8402;
909303255105575;-0.4720;-0.3556;2.3722;
909303265211200;-8.8633;0.2052;-6.1128;
909303275341668;-14.9504;0.1355;-6.3643;
909303285447293;-10.9235;0.0135;2.0728;
909303295552918;-9.9987;-0.3556;2.6405;
909303305644637;-7.2392;-0.3389;-3.7962;
909303315750262;-12.0781;-0.2094;0.1995;
909303325855887;-8.9614;-0.4801;2.0895;
909303335960054;-9.9915;-0.8082;-5.8158;
909303346065731;-17.8418;-0.7172;-5.5666;
909303356171460;-11.0815;0.7104;6.0565;
909303366274533;2.9752;-1.5604;4.1521;
909303376380210;-7.2631;-1.7641;-7.3678;
909303386485939;-17.0967;0.2483;-9.1789;
909303396586512;-12.2865;2.1909;-1.8440;
909303406692189;-8.5783;-0.5566;-1.2473;
909303416797866;-6.9709;0.2363;-3.1062;
909303426961200;-2.0602;0.8925;0.0799;
909303437066877;-12.1403;-0.8994;-3.6069;
909303447172606;-22.6325;-0.0607;-6.2109;
909303457215991;-6.6428;1.3478;-0.3203;
909303467321668;0.8791;-0.8994;1.1456;
909303477427397;-4.6232;-0.3123;-6.1678;
909303487568387;-16.2344;-0.3170;-10.1276;
909303497674064;-11.8481;1.8915;-2.5074;
909303507779793;-1.3056;0.7223;1.8835;
909303517849845;-7.7207;-0.5471;-8.1081;
909303527955575;-21.6171;1.5706;-6.5318;
909303538061252;-13.6926;1.9322;7.0361;
909303548192345;8.9521;-1.8526;4.6505;
909303558298022;-1.9211;-1.9340;-7.4566;
909303568403752;-24.3239;1.5033;-11.6581;
909303578502762;-16.6822;0.8207;1.3684;
909303588608491;-7.5386;0.2770;10.1934;
909303598714168;-2.2947;-0.6837;-0.9694;
909303608818908;-4.8891;-1.4216;-13.9914;
909303618924637;-15.3814;0.1546;-11.0115;
909303629030314;-14.0976;1.9633;4.1737;
909303639141200;-8.1805;0.7128;13.3220;
909303649246877;-4.7022;-0.0607;0.4989;
909303659352606;-7.8835;-0.4753;-13.1554;
909303669456616;-19.7175;0.5357;-4.4070;
909303679562293;-14.2340;1.5129;9.5492;
909303689668022;0.7977;-0.9449;2.3841;
909303699769064;-6.5707;-1.1028;-15.0814;
909303709874741;-15.4439;-1.1797;-7.0947;
909303719980470;-0.0335;0.2243;10.9241;
909303730090366;-4.5945;-0.2118;-1.9397;
909303740196043;-25.1695;0.5668;-17.8531;
909303750301772;-16.6678;0.9260;-2.9578;
909303760403283;-5.0809;-0.1161;5.9728;
909303770508960;-2.9177;-2.3509;0.8438;
909303780614689;-4.2042;-0.5806;-3.1902;
909303790730679;-10.6074;-0.0993;-2.4165;
909303800836356;-16.0068;0.1403;-2.8932;
909303810942085;-9.7208;2.0351;-3.3601;
909303821055575;-18.6562;0.9763;1.1336;
909303831161252;-6.8270;-0.7531;3.7304;
909303841266981;4.5323;-0.5112;-10.7001;
909303851362033;-17.9303;-1.1267;-16.3846;
909303861467710;-21.0299;1.7764;6.5046;
909303871573439;-2.8337;1.4674;17.0231;
909303881679741;-1.1330;-0.4394;-2.9650;
909303891785418;-9.5653;-1.6274;-12.1301;
909303901891147;-15.4271;1.7453;-7.7608;
909303912004533;-11.4697;0.8997;-1.9301;
909303922110262;-7.1192;-1.3831;-1.8296;
909303932215939;-6.0006;-0.5423;-6.5701;
909303942307970;-10.2000;1.6041;-1.3648;
909303952413647;-12.5237;0.3631;7.9059;
909303962519377;-8.4634;0.4684;0.9326;
909303972636720;-9.8504;1.1895;-7.4806;
909303982742397;-2.9201;-0.2285;-8.1512;
909303992848127;-10.0875;-0.2118;-13.9125;
909304002928595;-19.8491;1.2808;-1.4246;
909304013034272;-4.6208;2.4927;17.2795;
909304023140002;6.9494;-2.0611;-0.1095;
909304033256304;-10.6289;-1.1243;-28.2207;
909304043361981;-22.4531;0.5166;-10.5084;
909304053467710;-10.4157;2.2244;20.1036;
909304063569116;-6.7193;1.4913;6.9595;
909304073674793;-11.2469;-1.4288;-13.9723;
909304083780522;-13.5634;-1.2921;-7.7034;
909304093912658;-6.3314;0.9906;11.5469;
909304104018335;0.2180;1.9466;6.9069;
909304114124064;-6.8991;-1.0190;-14.6094;
909304124220783;-16.5027;0.9332;-17.7547;
909304134326460;-10.4109;0.5237;1.6992;
909304144432189;-10.5090;1.9107;5.4817;
909304154525470;-10.9857;0.2506;1.7853;
909304164631147;-5.9958;-0.2859;-0.6269;
909304174736877;-11.1799;-1.5054;-8.8771;
909304184845158;-18.4502;0.4902;-0.5599;
909304194950835;-0.0335;1.0244;12.6826;
909304205056512;-5.7658;-1.6657;-1.2329;
909304215147450;-15.5396;0.0613;-16.0397;
909304225253179;-8.6285;-0.3796;-7.0588;
909304235358856;1.5212;-0.3532;-3.1711;
909304245478179;-8.7194;-1.3663;-6.3882;
909304255583908;-23.3680;0.4325;-3.0823;
909304265689585;-11.1655;-0.3843;5.7906;
909304275791981;-1.1378;-0.4992;4.9522;
909304285897710;-12.8734;-0.6431;-4.7136;
909304296003387;-17.5062;-1.4958;-6.1869;
909304306097450;-4.5658;-1.2108;1.0522;
909304316203127;-6.5324;-2.3749;-2.3949;
909304326329689;-15.2952;-0.5423;-9.9215;
909304336435418;-4.2473;-1.3615;-2.4308;
909304346541147;-17.3722;-1.3902;-1.5613;
909304356644012;-14.2436;-0.3796;0.2186;
909304366749741;8.3435;-1.0525;3.0766;
909304376855366;-3.2818;-1.0406;-10.6137;
909304386945418;-21.7176;-1.4527;-15.2252;
909304397051147;-16.5960;-0.7029;7.7764;
909304407156877;1.2769;0.0565;12.7280;
909304417257658;-4.4028;-2.1640;-11.7302;
909304427363335;-16.9361;-3.4289;-20.2053;
909304437469064;-9.9293;-2.3916;-0.6700;
909304447582554;-7.4357;-1.1148;5.5319;
909304457688283;-15.3191;-1.3711;-5.9809;
909304467793908;-13.0220;-1.2538;-5.9498;
909304477899429;-8.1565;-0.3676;3.5124;
909304488005106;-6.5925;0.6147;4.7079;
909304498110835;-11.0958;-0.1113;-4.5413;
909304508221825;-10.4970;-0.4011;-6.6613;
909304518327554;-12.4086;1.7046;0.3096;
909304528433231;-13.2661;1.5945;5.2469;
909304538573387;-6.3697;0.6458;3.6012;
909304548679064;-4.5156;-0.1352;-2.9435;
909304558784793;-9.8312;-0.6646;-11.6151;
909304568881095;-12.7056;-0.2812;-8.3477;
909304578986772;-5.8522;-0.1113;4.1545;
909304589092502;-5.1814;0.1594;-1.0941;
909304599175679;-11.9246;0.3081;-10.8532;
909304609281356;-10.8180;0.5524;-2.5409;
909304619387085;-8.4464;0.3559;0.0846;
909304629490366;-14.2436;1.7477;-2.9339;
909304639596043;-9.7065;1.6017;1.8619;
909304649701772;-5.4616;-0.1041;1.1384;
909304659817970;-12.1929;0.1690;-3.1687;
909304669923700;-10.1785;1.7142;0.3577;
909304680029377;-7.1025;1.2182;-0.1935;
909304690128908;-10.1067;0.8901;-6.2994;
909304700234637;-12.0661;0.5189;-4.3615;
909304710340314;-8.4706;0.1642;1.2057;
909304720443700;-8.5017;-0.2213;0.5276;
909304730549377;-6.6763;0.8566;-3.0559;
909304740655106;-8.4105;0.4397;-3.3218;
909304750762866;-13.9083;0.2578;-0.0090;
909304760868543;-10.2646;0.6864;2.6142;
909304770974272;-9.1340;0.5189;-1.5757;
909304781073231;-11.9342;-0.6215;-1.2233;
909304791178908;-5.9671;-0.4968;0.2450;
909304801284637;-8.7242;-0.0320;-6.3811;
909304811399220;-16.0762;-0.3891;-5.3725;
909304821504950;-7.3974;-0.3389;5.8576;
909304831610627;-3.6290;-0.0706;3.5387;
909304841741408;-12.7008;-0.2189;-6.9248;
909304851847085;-14.4257;-0.6861;-3.5758;
909304861952814;-9.3903;-1.0167;3.3903;
909304872038231;-7.6872;-1.9534;0.3431;
909304882143908;-6.6476;-2.1233;-4.2156;
909304892249637;-12.5166;0.9523;-4.6777;
909304902357345;-10.3846;-0.6287;2.5448;
909304912463022;-2.6399;-1.0358;2.5687;
909304922568752;-12.1211;-0.3437;-7.2314;
909304932672658;-16.8380;0.1786;-5.1090;
909304942778335;-8.0800;-0.7077;2.0704;
909304952884064;-8.4440;0.2243;-3.6045;
909304962983075;-9.9102;0.3727;-5.1257;
909304973088752;-5.2149;-0.0200;0.3407;
909304983194481;-12.3512;0.7466;-1.3361;
909304993294533;-14.1239;0.6170;-1.7432;
909305003400210;-5.4329;0.5835;-0.1478;
909305013505939;-10.2335;0.2171;-2.7446;
909305023619845;-9.6634;2.1311;-3.9879;
909305033725522;-4.8939;0.8327;-5.0348;
909305043831252;-11.5606;0.2818;-6.6805;
909305053938700;-15.3550;2.1287;-1.8009;
909305064044377;-9.1555;1.9298;4.6696;
909305074150106;-6.2258;0.1307;1.1674;
909305084221772;-8.8322;-1.1390;-2.0115;
909305094327502;-6.5133;-0.1831;-2.6536;
909305104433231;-12.3775;0.1211;-6.3547;
909305114561095;-13.6783;0.7585;-5.9258;
909305124666772;-10.1282;0.1187;-0.8210;
909305134772502;-9.6969;-1.1964;3.5076;
909305144885262;-5.5696;-0.9760;0.8246;
909305154990939;-4.7934;-1.4838;-6.1965;
909305165096668;-14.2292;0.3799;-6.4983;
909305175198804;-11.2277;0.4878;-0.0042;
909305185304481;-5.7849;-0.8970;-2.7111;
909305195410210;-13.4842;0.1834;-8.8627;
909305205529116;-7.3325;-0.2142;0.8605;
909305215634793;-4.1970;-0.8827;3.7089;
909305225740522;-10.1450;-0.2118;-5.7245;
909305235831512;-11.0192;-0.9520;-7.4949;
909305245937189;-13.9155;0.3870;-4.4357;
909305256042918;-8.7867;2.1814;-0.1573;
909305266137970;-1.1043;-2.9067;1.0140;
909305276243647;-9.7496;0.8495;-5.1784;
909305286349377;-16.2942;1.5610;-5.1520;
909305296520991;-5.0474;-1.1629;-0.4472;
909305306626668;-6.7170;0.0900;-5.7891;
909305316732397;-14.9647;1.6615;-6.2803;
909305326768179;-12.0518;-0.1376;4.3460;
909305336873960;-4.0962;0.3129;3.9102;
909305346979637;-8.2358;0.0757;-5.9330;
909305357148387;-13.0699;0.6075;-5.6671;
909305367254064;-6.7576;1.6878;0.7816;
909305377359793;-8.1326;0.7056;1.5314;
909305387414950;-12.9093;0.2100;-2.7637;
909305397520627;-9.0263;-0.0921;-2.5600;
909305407626356;-10.3678;0.5333;-0.3921;
909305417747033;-7.7590;-0.5399;-1.4868;
909305427852710;-14.9216;-0.5495;-7.2458;
909305437958439;-12.5477;0.8542;3.8504;
909305448076408;2.4218;-1.1964;11.6859;
909305458182085;-8.8896;-2.3725;-9.4878;
909305468287814;-15.8629;0.3153;-12.9518;
909305478370262;-10.9355;0.6242;3.3305;
909305488475939;-8.5639;-0.5423;4.8467;
909305498581668;-7.1435;-2.1329;-6.4337;
909305508679741;-10.3463;0.0446;-7.0756;
909305518785470;-11.0767;0.5189;3.7831;
909305528891147;-10.4516;-1.0190;4.2981;
909305538998335;-11.7858;-1.4982;-3.8752;
909305549104064;-7.7877;0.6099;-3.6165;
909305559209741;-4.9947;0.2794;-1.2520;
909305569315262;-12.4564;-0.2189;-4.8191;
909305579420991;-14.3010;0.2746;-2.4356;
909305589526668;-5.4712;-1.6828;1.8691;
909305599633387;-8.4296;-1.1148;-3.9688;
909305609739116;-11.9055;0.4878;-7.6289;
909305619844793;-8.5352;0.2674;-0.2964;
909305629951981;-9.3377;-0.3700;1.2870;
909305640057658;-9.3138;0.4134;-2.6895;
909305650163387;-8.7485;0.1475;-2.6919;
909305660271408;-12.6242;0.2100;-2.7589;
909305670377085;-9.7831;0.3799;-2.2271;
909305680482814;-3.8327;-0.8707;-0.6293;
909305690598908;-8.9064;0.2626;-4.7474;
909305700704585;-16.5625;0.8973;-6.8695;
909305710810314;-13.6256;-0.0129;-0.7301;
909305720921720;-2.2086;-0.9568;0.3625;
909305731027397;-11.0360;0.5501;-4.1913;
909305741133127;-8.6166;0.0302;-1.3122;
909305751222554;-1.0756;-1.3519;-3.4226;
909305761328231;-8.4392;0.3153;-10.0627;
909305771433960;-14.8208;-0.0559;-7.1524;
909305781541825;-15.9805;1.8796;1.1626;
909305791647502;-6.5228;-0.7914;5.0767;
909305801753231;-2.2181;-0.3867;-2.9004;
909305811851929;-12.6338;-0.2859;-9.0353;
909305821957606;-13.8987;-0.4250;-0.3060;
909305832063335;-8.6931;-0.5495;3.7926;
909305842203179;-8.9255;-1.3974;-5.1377;
909305852308856;-11.1488;-0.1902;-6.5079;
909305862414585;-10.0609;0.6888;2.3315;
909305872507241;-6.1708;0.1092;0.8533;
909305882612918;-8.2190;-0.9544;-9.6197;
909305892718647;-11.9632;-0.3772;-10.0723;
909305902819950;-5.6270;-0.1352;0.3577;
909305912925679;-8.4945;0.1331;-2.0692;
909305923031356;-20.6659;-0.1017;-1.0534;
909305933141095;-7.2009;0.4445;7.7788;
909305943246772;7.4381;-1.3041;0.8246;
909305953352502;-8.2717;-1.2060;-23.6525;
909305963448908;-22.6397;-0.8369;-13.1243;
909305973554585;-7.0642;0.4902;16.0648;
909305983660314;-0.6323;0.2530;2.9303;
909305993768804;-10.7151;-2.1736;-15.7810;
909306003874481;-24.9730;-1.0765;-5.6575;
909306013980210;-10.9355;1.2230;11.4870;
909306024080835;-5.6964;1.7261;3.6179;
909306034186564;-10.6863;-2.0085;-6.2396;
909306044292189;-6.2163;-1.4336;-4.5652;
909306054391408;-5.1909;-0.4346;-1.3720;
909306064497137;-11.5606;0.9619;-2.5911;
909306074602814;-15.9900;1.8437;0.0150;
909306084728804;-6.0221;1.5658;0.4678;
909306094834481;-8.2549;-0.4801;-8.8029;
909306104940210;-17.1350;0.1044;-5.8083;
909306115038804;-7.5529;0.4397;7.8003;
909306125144533;-0.5198;-0.7292;3.2417;
909306135250210;-15.2928;-1.1171;-9.1597;
909306145350366;-15.6879;-0.4777;-3.9688;
909306155456095;-4.5610;-0.4825;6.4971;
909306165561772;1.7776;0.4062;-1.9875;
909306175667554;-12.3177;-1.0836;-20.2822;
909306185773283;-19.2790;-0.9999;-8.9871;
909306195878960;-6.6763;0.8255;7.6472;
909306205973335;-6.8656;0.4062;-2.5313;
909306216079064;-16.8069;0.2722;-0.9718;
909306226184793;-10.2766;0.5883;10.0020;
909306236292241;-6.7648;1.4339;4.5927;
909306246397918;-11.3234;0.8686;-6.8480;
909306256503647;-13.7764;1.1225;-9.4280;
909306266608179;-2.2493;-1.3902;-1.5251;
909306276713856;-11.6444;-0.2692;-2.7446;
909306286819533;-18.1843;1.4506;-2.7182;
909306296981616;-4.0938;-0.8106;2.7556;
909306307087293;-5.6198;-0.7244;-5.2863;
909306317193022;-17.4799;-0.5255;-8.1751;
909306327237189;-6.4750;-1.4958;3.5701;
909306337342970;1.3702;-1.3137;1.0714;
909306347448647;-12.2195;-1.4312;-10.4677;
909306357573335;-20.4885;-0.7579;-3.6790;
909306367679064;-5.1526;-1.4384;5.5487;
909306377784793;-4.5538;-0.2405;-3.4035;
909306387873647;-8.2765;-0.7125;-12.1182;
909306397979377;-13.7381;-1.3232;-6.1750;
909306408085106;-12.9141;-0.8321;2.3770;
909306418208856;-5.5457;0.4349;-2.2917;
909306428314585;-10.2168;-1.0286;-8.0004;
909306438420314;-11.3186;-1.1243;2.3052;
909306448526564;-7.4309;0.6697;0.4415;
909306458632293;-9.8169;0.3918;-7.7034;
909306468737970;-7.0164;-1.4647;-3.5016;
909306478834897;-5.4281;0.0829;-2.8187;
909306488940627;-15.2617;0.3966;-8.8029;
909306499046356;-17.4535;0.2626;-0.5073;
909306509148022;-0.8240;0.6984;6.5907;
909306519253752;-0.0407;-0.0993;-5.2406;
909306529359533;-15.0365;-0.5686;-12.8297;
909306539470887;-16.2942;0.7008;-1.8823;
909306549576564;-9.5773;3.1178;3.5387;
909306559682293;-5.6079;0.7681;-1.3481;
909306569794429;-11.1679;-0.0511;-6.4002;
909306579900106;-13.5491;-0.0176;-2.0378;
909306590005835;-6.6930;0.9930;2.4727;
909306600110991;-5.9767;0.8064;-3.4155;
909306610216720;-7.4931;-0.7699;-5.8732;
909306620322450;-8.7003;0.0852;-4.1554;
909306630426200;-18.6921;1.4124;-2.1529;
909306640531929;-7.3397;-0.8922;3.2970;
909306650637658;-1.1163;-0.1831;-1.6187;
909306660739741;-8.8131;-0.7292;-9.6580;
909306670845470;-17.7242;0.6051;-2.1817;
909306680951200;-9.3353;0.0494;5.6468;
909306691064220;-6.5779;-0.0754;0.1971;
909306701169950;-10.3220;-0.1663;-5.2262;
909306711275679;-10.8467;-1.6681;-3.1831;
909306721378179;-17.1206;0.3224;-1.5203;
909306731483908;-9.8408;1.0220;-0.2342;
909306741589637;0.2348;-0.6024;-2.3782;
909306751687345;-7.9675;-1.0884;-6.0263;
909306761793075;-16.8380;-0.6383;-0.5049;
909306771898804;-10.3534;-0.6742;2.9925;
909306782005679;-6.8462;-1.5963;0.4750;
909306792111408;-9.3018;0.2171;-3.1519;
909306802217137;-7.4022;-0.4490;-4.9747;
909306812325783;-13.8221;-0.5901;-4.3208;
909306822431512;-16.2102;-0.4609;2.7338;
909306832537189;-7.7399;-0.4825;4.8682;
909306842659429;-6.5779;0.4516;-1.3289;
909306852765158;-11.1535;-0.3123;-5.2095;
909306862870887;-8.4993;-0.4872;-3.1400;
909306872967866;-5.0115;-0.5447;-4.3472;
909306883073595;-8.8107;0.7848;-7.4949;
909306893179325;-13.9801;0.5070;-4.4213;
909306903277970;-12.6075;-0.0081;1.0738;
909306913383700;-6.7193;-1.1291;3.6754;
909306923489429;-7.0092;-1.5269;0.2330;
909306933602814;-7.3828;-0.8680;-4.4022;
909306943708543;-7.0857;-1.0071;-5.8253;
909306953814272;-14.9527;-0.8393;-4.1913;
909306963907137;-13.5491;0.4014;0.5061;
909306974012866;-1.5811;-0.0416;2.2116;
909306984118543;-6.0918;-1.3807;-4.9005;
909306994220002;-12.8830;-0.4801;-9.5548;
909307004325731;-15.2928;0.9236;-2.4404;
909307014431460;-8.2430;0.0350;4.0202;
909307024536043;-5.9575;-0.0778;-0.2294;
909307034641772;-15.8462;-0.4633;-4.9173;
909307044747502;-12.6817;0.3153;3.1101;
909307054854689;-4.3693;0.2411;8.5765;
909307064960418;-5.6725;-1.1339;-2.1505;
909307075066200;-9.6419;-1.1844;-12.3075;
909307085190002;-16.6247;1.0172;-6.0984;
909307095295783;-7.7255;1.0149;6.3559;
909307105401512;-6.8584;-1.2993;0.1995;
909307115498179;-7.0211;-1.8526;-7.4997;
909307125603856;-8.9758;-1.2538;-2.3925;
909307135709637;-16.4282;0.8710;-0.8976;
909307145808335;-9.3592;-1.5245;-0.2605;
909307155914064;-5.3276;-1.1339;-0.7397;
909307166019793;-10.5497;-0.6861;-2.0186;
909307176127814;-10.6552;-0.1591;-1.1348;
909307186233543;-8.8537;-0.2118;-3.0775;
909307196339272;-10.8227;-1.1892;-2.4858;
909307206495575;-3.8255;-0.2620;-0.6748;
909307216601304;-4.3478;-1.1195;-7.0756;
909307226707033;-19.6143;-0.2237;-9.8474;
909307236770679;-12.1714;2.1359;-0.7971;
909307246876408;-3.2219;-1.8287;2.5065;
909307256982085;-5.6246;-0.6646;-3.3482;
909307267125731;-10.4420;0.4325;-4.5939;
909307277231460;-13.8891;0.8901;-2.7470;
909307287337189;-7.4405;0.9021;-0.2797;
909307297396981;-10.0804;-0.3556;0.7241;
909307307502710;-9.0263;0.8136;0.3936;
909307317608491;-7.1097;-0.7029;-4.0669;
909307327705002;-17.7218;-0.0802;-5.7054;
909307337810731;-15.5228;1.6472;1.5003;
909307347916408;-1.2936;-0.4322;2.5591;
909307358049064;-4.2353;-1.1509;-4.2706;
909307368154793;-15.6688;0.9212;-5.2406;
909307378260575;-14.1933;1.9633;2.5950;
909307388361147;-7.0810;-0.1950;3.1771;
909307398466929;-5.1790;-1.4145;-1.3146;
909307408572658;-7.2296;0.9835;-4.6968;
909307418688856;-14.4855;0.8447;-4.9196;
909307428794637;-12.9571;0.4588;-1.0439;
909307438900314;-4.4243;-0.2740;0.5922;
909307448983491;-8.0369;-0.8512;-2.1745;
909307459089168;-13.4554;0.9069;-1.3433;
909307469194897;-8.7963;0.5477;1.4261;
909307479305783;-3.7992;-1.0573;-2.2223;
909307489411512;-16.3493;-0.9616;-5.3677;
909307499517241;-11.9414;0.6769;0.3072;
909307509618231;-5.3276;-0.6407;1.3325;
909307519723960;-8.3267;-0.8707;-7.2051;
909307529829689;-16.4402;-0.9568;-5.7197;
909307539935679;-7.6944;0.8088;2.9925;
909307550041408;-4.9561;-1.6131;1.7327;
909307560147085;-14.8855;-0.6550;-6.2324;
909307570261147;-10.7533;0.9643;-0.9574;
909307580366825;-6.4845;0.1977;2.2789;
909307590472606;-12.9715;-0.4825;-1.1180;
909307600578700;-8.8131;-0.1137;-0.8713;
909307610684429;-4.6639;-0.3700;-2.6728;
909307620790158;-7.5075;0.8710;-4.6585;
909307630887345;-13.5200;-0.8465;-1.9804;
909307640993075;-14.0928;0.7561;-2.0859;
909307651098804;-8.9016;-0.3676;-1.9684;
909307661211720;-5.2029;-0.8393;-0.6532;
909307671317450;-8.6501;-0.4131;-0.4232;
909307681423179;-10.2646;-1.2084;-3.3434;
909307691529741;-7.7231;0.0135;-3.9736;
909307701635470;-12.2961;0.3942;-1.9253;
909307711741200;-12.0589;-0.2118;0.0894;
909307721849325;-7.2344;-0.5877;-2.0450;
909307731955054;-9.7926;0.4564;-1.8344;
909307742060783;-9.8145;0.1642;0.4678;
909307752155470;-7.2918;-0.6359;-3.7507;
909307762261200;-10.0732;-0.0368;-4.4261;
909307772366929;-5.2005;0.5166;-1.4821;
909307782472137;-9.5486;-0.4059;-4.1459;
909307792577866;-16.9840;0.6147;-4.7351;
909307802683543;-5.6868;1.2159;2.5543;
909307812789116;-7.8141;-1.0908;2.6907;
909307822894793;-16.0738;-1.3256;-0.1573;
909307833000575;-8.5974;-0.3939;0.1540;
909307843130158;-7.0116;-1.1100;-2.7517;
909307853235887;-13.6926;0.3200;-3.8943;
909307863341616;-12.8758;1.1058;-1.0941;
909307873434429;-7.5912;0.3583;1.1889;
909307883540158;-2.1966;-0.9544;0.4845;
909307893645887;-11.3091;0.7944;-4.1770;
909307903747137;-14.5597;0.8710;-4.5006;
909307913852814;-10.3822;0.3966;-2.9315;
909307923958595;-9.7041;0.2459;-3.2237;
909307934064845;-7.0092;-0.0200;-2.2702;
909307944170522;-9.0024;1.4578;-1.3576;
909307954276252;-13.6520;0.1044;-0.1430;
909307964372814;-6.9398;-0.0368;2.6453;
909307974478595;-3.9311;0.1187;1.2966;
909307984584272;-8.9136;-0.9712;-5.7245;
909307994685627;-17.2738;0.4493;-6.5964;
909308004791408;-7.9292;1.1010;-0.6054;
909308014897085;-4.0866;-1.2108;-5.6982;
909308025006408;-12.4517;-1.1243;-11.0498;
909308035112137;-13.2494;1.4985;-1.5829;
909308045217866;-3.8064;-0.7795;3.8862;
909308055329429;-5.7395;-0.5614;-5.4443;
909308065435106;-16.2150;-0.2333;-7.8613;
909308075540887;-13.8075;1.9681;0.1445;
909308085660314;-3.6796;1.0484;5.5008;
909308095766095;-5.6868;-1.2108;-2.3901;
909308105871825;-13.4459;0.1522;-6.9344;
909308115963595;-16.6439;1.3645;-2.4547;
909308126069272;-6.0293;0.4998;1.2129;
909308136175054;-6.2617;-0.6766;-1.6403;
909308146279325;-11.6468;0.1475;-5.0348;
909308156385054;-10.7940;0.6721;-1.8129;
909308166490783;-5.4760;-0.3628;0.2665;
909308176590054;-7.6008;0.2794;-2.3013;
909308186695783;-14.1359;0.0135;-3.6117;
909308196801460;-10.2790;0.7199;-3.0105;
909308206933075;-10.9403;0.2889;-1.3481;
909308217038856;-10.8586;0.8351;0.2593;
909308227144533;-5.1574;-0.8779;-1.0917;
909308237216564;-5.8092;-0.6215;-5.6551;
909308247322293;-9.9389;0.5118;-4.4237;
909308257428022;-10.7725;0.8207;-0.0401;
909308267553127;-9.0814;1.1752;-1.3433;
909308277658908;-12.4325;0.1020;-6.8264;
909308287764585;-13.2183;0.0733;-2.8499;
909308297850418;-8.2143;-0.3963;5.1269;
909308307956147;-6.4487;-1.0908;0.4080;
909308318061877;-9.1962;-0.7125;-6.3906;
909308328175262;-11.7643;0.7777;-1.5900;
909308338281043;-9.4908;-0.6574;1.6128;
909308348386825;-10.0828;-0.7149;-3.6909;
909308358526460;-11.8792;-0.7268;-3.8895;
909308368632189;-8.3195;0.8255;1.5266;
909308378738022;-2.4147;-0.2931;-1.0510;
909308388812918;-8.9016;-1.1462;-8.7284;
909308398918647;-12.1570;0.7992;-6.6757;
909308409024481;-6.2761;-0.0009;-2.7039;
909308419124012;-9.2632;-0.7962;-6.3595;
909308429229741;-15.7744;-0.3170;-2.0043;
909308439335522;-9.6180;0.2506;8.5717;
909308449449950;-1.7294;-0.4537;4.0298;
909308459555679;-10.8610;-0.5160;-10.0484;
909308469661460;-17.3148;-0.0033;-5.7341;
909308479766825;-6.8462;0.6290;2.8561;
909308489872554;-5.2436;-0.5901;-1.5251;
909308499978335;-14.5358;-1.1363;-7.4542;
909308510083179;-12.5405;0.7466;-2.0282;
909308520188856;-7.2105;0.7370;4.0418;
909308530294689;-11.6516;-0.3772;-3.8345;
909308540405054;-16.0953;0.1594;-4.6226;
909308550510731;-2.0435;0.9165;2.4488;
909308560616564;1.4734;-0.7268;-3.3171;
909308570732814;-15.1564;-0.4944;-11.6868;
909308580838543;-16.0929;1.7309;-1.9014;
909308590944377;-4.3956;1.1728;7.4052;
909308601039950;-4.9971;-0.2166;-3.5016;
909308611145679;-12.5716;-0.7795;-11.9794;
909308621251460;-12.6769;0.4134;-2.9100;
909308631361408;-5.5167;0.2722;1.6415;
909308641467137;-11.1775;-1.3017;-4.8766;
909308651572918;-12.6745;0.3655;-2.9028;
909308661675575;-0.7786;-0.7172;0.8390;
909308671781304;-7.5817;-0.3915;-7.0971;
909308681887085;-18.1173;0.1092;-7.6696;
909308692001408;-13.1082;-0.3242;3.5653;
909308702107137;-7.1001;0.3176;0.8824;
909308712212918;-6.2163;0.4588;-8.4434;
909308722304741;-11.4553;-0.7723;-6.8527;
909308732410470;-12.0733;-0.7795;-0.5456;
909308742516252;-8.4682;0.2148;-0.4881;
909308752635679;-9.4980;-0.4274;-1.2425;
909308762741408;-11.2588;-0.3867;2.0130;
909308772847189;-6.0751;-0.3867;1.1602;
909308782945783;-6.7170;-0.3051;-8.1129;
909308793051512;-12.9835;-0.0392;-9.3156;
909308803157293;-10.6528;-0.3508;-2.1936;
909308813254845;-8.8394;-1.5102;-0.9622;
909308823360575;-9.0838;-1.1438;-2.4404;
909308833466304;-8.8561;-1.0956;-2.9937;
909308843562762;-11.0934;-1.5150;-5.4538;
909308853668491;-13.2278;-0.6933;-0.3347;
909308863774220;-4.1154;-0.0105;4.1354;
909308873895887;-3.6963;-0.2572;-4.8526;
909308884001616;-6.9972;-0.7699;-13.1674;
909308894107345;-12.7032;-0.9401;-8.1751;
909308904209220;-13.6878;0.1666;3.1747;
909308914314897;-4.8006;-0.2979;1.3540;
909308924420679;-9.6826;-0.9353;-6.9440;
909308934522762;-12.2507;-1.5030;-1.5876;
909308944628491;-12.5237;0.0709;2.9830;
909308954734272;-6.6954;-0.9664;-1.3289;
909308964865783;-6.9541;0.1259;-6.0048;
909308974971460;-14.4209;0.7247;-0.9646;
909308985077241;-9.2297;-0.7388;3.7950;
909308995155054;-2.7763;-0.1376;-2.9339;
909309005260731;-10.6863;0.7128;-9.1262;
909309015366564;-14.3946;0.0302;-2.4404;
909309025471252;-7.1483;0.4373;-0.5049;
909309035576981;-11.8146;0.3846;-4.2299;
909309045682762;-12.4373;-0.0631;-1.3074;
909309055786043;-7.4716;-0.2835;3.0479;
909309065891772;-7.2272;0.6673;2.2092;
909309075997606;-11.9294;-0.0778;0.7146;
909309086130731;-9.6897;0.3751;0.7935;
909309096236512;-9.7208;1.1967;-1.5948;
909309106342293;-9.8575;0.1116;-4.7665;
909309116450054;-10.2622;0.2841;-4.0573;
909309126555783;-9.3185;-0.3532;-2.0043;
909309136661564;-10.3558;-0.2859;-1.9421;
909309146734845;-12.1881;0.4421;-2.4571;
909309156840575;-9.6323;-0.1184;2.3602;
909309166946304;-4.9947;-0.7819;2.0249;
909309177078335;-7.3205;-0.1759;-6.2970;
909309187184064;-12.8040;0.2961;-6.6852;
909309197289845;-11.7835;-0.3123;2.7580;
909309207382137;-4.6735;-0.1759;0.9948;
909309217487866;-5.7826;-0.5542;-7.1692;
909309227593595;-6.7146;-0.1424;-9.3945;
909309237696720;-5.6581;-0.4848;-6.4241;
909309247802397;-8.3100;-1.0669;-5.8277;
909309257908179;-20.6994;0.5979;-1.9062;
909309268009064;-15.0676;0.6290;6.6793;
909309278114793;-3.4400;-0.6981;6.1235;
909309288220627;-9.2683;0.1427;-4.9938;
909309298323022;-11.2421;0.4636;-9.4831;
909309308428804;-11.0504;0.6147;-2.7398;
909309318534533;-11.8217;0.5501;2.6261;
909309328644272;-7.5003;0.0924;0.3936;
909309338750002;-10.3750;0.1451;-3.2142;
909309348855835;-7.0977;0.4684;-4.7040;
909309358955835;-12.0159;0.1929;-5.5834;
909309369061616;-15.8629;1.6807;-0.0616;
909309379167345;-6.9733;0.5142;5.0671;
909309389281981;-3.6410;-0.2070;-1.4007;
909309399387710;-10.1785;-0.4442;-9.0640;
909309409493439;-10.0732;-0.9951;-3.1205;
909309419595835;-9.2201;0.7319;3.2895;
909309429701616;-5.4544;0.4926;-0.2366;
909309439807397;-9.0718;-0.9999;-3.9401;
909309449920991;-7.6008;-0.1735;-0.0209;
909309460026720;-6.9015;0.3511;-4.9699;
909309470132502;-13.9490;-1.0717;-14.2502;
909309480235158;-15.3718;-0.7507;-7.9621;
909309490340887;-5.0976;0.1092;5.0456;
909309500446668;-0.9942;-0.8130;2.7843;
909309510555575;-10.2287;-1.2658;-7.4207;
909309520661304;-18.6897;0.7370;-5.3701;
909309530767085;-10.4874;0.6458;6.4540;
909309540875470;-4.9537;1.1177;1.9938;
909309550981147;-11.7404;0.3894;-7.6457;
909309561086981;-10.6074;-0.6359;-3.8704;
909309571180627;-9.4382;-0.8106;-1.1252;
909309581286356;-14.2460;-0.7196;-1.5900;
909309591392189;-12.5644;0.2028;1.8284;
909309601515783;-7.9316;-1.0310;2.4703;
909309611621512;-5.1742;-1.0071;-3.2070;
909309621727293;-10.2526;-0.4083;-8.1081;
909309631830575;-12.5764;-0.4394;-1.9421;
909309641936304;-8.2956;-0.6909;5.1293;
909309652042085;-8.0536;-0.7603;-1.9636;
909309662143908;-7.5410;-2.1042;-8.6207;
909309672249637;-7.3205;-1.2873;-5.8708;
909309682355418;-10.5903;-0.6933;-3.2142;
909309692469012;-11.2756;-0.5088;-1.2619;
909309702574741;-9.2154;-1.0167;2.1182;
909309712680470;-9.5390;-1.2299;2.5639;
909309722778804;-5.0210;-1.0573;-2.8618;
909309732884533;-9.5845;0.9284;-11.1479;
909309742990314;-16.8978;0.4612;-3.5925;
909309753086095;-8.4200;-0.8201;8.2460;
909309763191825;-5.2196;-1.0956;1.1169;
909309773297606;-15.0389;-0.3891;-11.3635;
909309783411408;-10.4922;0.5548;-4.3735;
909309793517137;-6.3024;-0.0607;1.2775;
909309803622918;-13.8317;0.0111;-1.6570;
909309813727866;-14.4975;0.3416;0.3817;
909309823833595;-4.5610;0.1738;3.2417;
909309833939377;-4.5945;1.2446;-4.5174;
909309844039116;-11.1775;0.7418;-10.0989;
909309854144845;-9.5243;0.4421;-2.9291;
909309864250627;-7.8380;-0.2931;3.7472;
909309874346095;-10.1426;-0.0921;-0.1669;
909309884451772;-12.7391;1.0747;-3.9903;
909309894557554;-8.6788;-0.0248;0.1756;
909309904673908;0.1152;-0.3027;-2.0258;
909309914779637;-8.0178;-0.4107;-9.5575;
909309924885418;-17.0848;0.0446;-4.0262;
909309934990314;-10.5568;0.9954;8.0255;
909309945096043;-8.2167;0.6793;1.9627;
909309955201825;-13.6065;-0.6622;-7.4327;
909309965304585;-7.8404;-0.8130;-4.8455;
909309975410314;-7.7136;-1.3089;0.9278;
909309985516147;-12.6936;0.1379;1.4907;
909309995629429;-11.1535;0.6601;-0.7373;
909310005735106;-4.7886;-0.6383;-1.9134;
909310015840939;-11.6300;-0.1831;-5.5376;
909310025938960;-14.8711;-0.6742;-5.4132;
909310036044689;-8.6883;0.8949;2.4631;
909310046150470;-4.9394;-0.7077;3.8910;
909310056247970;-15.2210;-0.8632;-4.8431;
909310066353700;-12.7729;0.2578;-1.0080;
909310076459481;-4.7551;-0.3123;3.5195;
909310086572970;-6.3144;-0.9784;-5.1185;
909310096678700;-13.1369;-0.5997;-8.5681;
909310106784429;-15.1179;1.0172;-0.6245;
909310116860627;-5.2484;-0.3437;5.4338;
909310126966408;-5.0091;-1.3496;-1.8057;
909310137072137;-9.3233;-0.7842;-8.2448;
909310147208127;-8.1517;-0.2213;-6.8842;
909310157313856;-8.5543;-0.9401;-5.7820;
909310167419637;-7.6753;-0.4346;-6.2731;
909310177564272;-8.4849;-0.6622;-5.0803;
909310187670002;-4.5754;-0.4681;-2.9339;
909310197775783;-5.1550;0.3751;-4.8383;
909310207841043;-16.3158;0.1068;-4.7327;
909310217946825;-17.1350;0.8399;4.0537;
909310228052606;-4.6184;1.0579;6.7176;
909310238175158;-10.4468;-0.5207;-5.7843;
909310248280887;-12.9236;-0.0033;-4.3687;
909310258386668;-7.2177;-0.0921;4.3678;
909310268471147;-7.4907;-0.0607;-1.6068;
909310278576929;-12.1355;-0.1280;-8.7742;
909310288682710;-10.1928;1.0938;-4.4982;
909310298785835;-9.0048;1.2302;2.0656;
909310308891564;-13.3956;0.5070;0.7504;
909310318997345;-12.1953;0.3368;-3.0224;
909310329115158;-4.2353;0.1379;-2.6345;
909310339220835;-8.8609;-0.9712;-2.2343;
909310349326668;-13.4483;0.1451;-1.3385;
909310359432970;-10.1498;0.4158;4.2790;
909310369538700;-4.0531;-0.3724;2.7242;
909310379644429;-10.3316;-0.2596;-4.4862;
909310389747189;-12.7415;0.3751;-2.2726;
909310399852970;-8.5424;1.4818;3.0311;
909310409958700;-7.7016;-0.1089;2.3148;
909310420064012;-7.8763;-1.7139;-3.0105;
909310430169741;-13.0436;0.6123;-7.5404;
909310440275522;-10.0394;1.1249;-5.5953;
909310450391095;-5.3755;-0.5925;-1.2568;
909310460496825;-10.4635;-0.4920;-2.8451;
909310470602606;-16.3397;-0.2572;-2.3228;
909310480706981;-11.4601;0.3296;2.9303;
909310490812710;-3.3200;-0.0440;2.3913;
909310500918491;-9.4837;0.8542;-4.3352;
909310511016095;-14.7778;0.0039;-1.3409;
909310521121877;-7.0355;-0.0344;-0.6604;
909310531227658;-7.8236;-0.3700;-5.7341;
909310541337241;-12.1499;-0.9162;-6.7738;
909310551442970;-10.0681;-0.2979;-0.1382;
909310561548752;-4.4988;-0.9042;-0.3778;
909310571658179;-7.6896;-1.4503;-6.3571;
909310581763856;-9.4549;0.0829;-6.2252;
909310591869689;-14.6605;-1.1100;1.1025;
909310601971564;-8.5998;-0.9257;0.8749;
909310612077293;-8.5926;-0.9784;-3.9784;
909310622183075;-10.8781;0.0781;-3.9736;
909310632301720;-7.7662;-0.6885;1.7758;
909310642407450;-8.4368;-1.7378;0.0365;
909310652513231;-9.3975;-0.2716;-3.5016;
909310662607762;-9.6754;0.3918;-3.1400;
909310672713491;-11.7715;-0.0511;-2.7900;
909310682819272;-7.1435;-0.1567;-2.7422;
909310692919533;-8.9662;-0.1304;-4.4477;
909310703025262;-12.0183;-0.1519;-4.9531;
909310713130991;-9.7113;0.4134;-1.4318;
909310723239429;-7.6176;-0.2405;-0.5503;
909310733345158;-11.3306;0.2530;-1.6499;
909310743450939;-12.0661;0.4516;0.2234;
909310753558491;-10.3316;0.8399;1.1650;
909310763664220;-7.8165;-0.8946;0.7409;
909310773770002;-9.3808;0.2602;-1.1922;
909310783876147;-9.3138;1.3980;-2.7015;
909310793981825;-10.7653;-0.7675;0.1660;
909310804087658;-8.3411;-0.1496;-0.7995;
909310814185002;-9.2731;0.6649;-4.8861;
909310824290783;-8.7194;-0.6263;-3.6021;
909310834396512;-10.1163;-0.9808;-2.7805;
909310844503491;-8.4296;0.1690;-3.1902;
909310854609272;-8.3818;-0.0682;-1.7360;
909310864715054;-9.9532;-0.7507;-1.5876;
909310874830783;-13.2063;1.2446;-1.8033;
909310884936460;-9.7783;1.1106;0.6114;
909310895042293;-9.2441;-0.7819;1.2727;
909310905138908;-9.3520;0.3368;-0.4065;
909310915244637;-7.2583;0.2530;-1.6307;
909310925350366;-11.0408;-0.4513;-4.4767;
909310935459481;-12.8279;0.6769;-2.4954;
909310945565210;-7.5841;1.1441;0.7887;
909310955670991;-4.5538;-0.4992;-2.9841;
909310965785991;-10.6624;0.5261;-8.3261;
909310975891772;-13.9107;1.1895;-5.2406;
909310985997502;-9.7232;-0.1184;1.0044;
909310996079064;-7.5553;0.3368;0.4223;
909311006184845;-9.4837;-0.0778;-1.7599;
909311016290627;-10.1402;0.5309;-0.5862;
909311026438491;-7.7806;0.6745;0.0966;
909311036544220;-9.8958;-0.2429;-1.2667;
909311046650002;-8.6333;0.3703;-2.8813;
909311056731200;-16.2320;0.9643;-1.7838;
909311066836929;-9.8527;2.6028;-0.7995;
909311076942658;-1.4252;-0.6191;-1.0463;
909311087043543;-6.6452;-1.6537;-5.0300;
909311097149220;-14.4066;-0.3389;-5.4514;
909311107255002;-7.9723;0.1211;-0.5025;
909311117360783;-2.6423;-1.5389;-3.5399;
909311127463439;-12.6171;-1.2538;-8.8508;
909311137569168;-18.2608;-0.6120;-0.3084;
909311147675002;-7.7088;0.1953;10.2078;
909311157776356;-2.8026;-0.1854;0.5850;
909311167882085;-8.9590;-1.1438;-11.0761;
909311177987866;-13.1010;-1.7330;-4.0023;
909311188115939;-10.9283;0.1164;4.0083;
909311198221720;-9.1484;0.3703;1.9217;
909311208327450;-8.1733;-0.8755;-3.3242;
909311218433439;-9.7113;-0.9975;-5.6312;
909311228539220;-13.5464;-0.3290;-1.5517;
909311238645002;-11.4362;-0.3891;3.0814;
909311248731825;-7.4285;-0.2740;-0.5168;
909311258837554;-10.5185;-0.4992;-4.3400;
909311268943283;-13.3190;-0.1711;-0.0568;
909311279042710;-8.3148;-0.8441;1.8428;
909311289148491;-7.0570;-0.1759;-1.8894;
909311299254272;-10.2646;0.5596;-6.0769;
909311309367762;-13.9585;-0.3027;-2.7446;
909311319473491;-9.5195;-0.0344;4.7007;
909311329579325;-5.0737;-0.0057;1.3732;
909311339700054;-10.2479;-0.4848;-7.9475;
909311349805835;-13.6663;-0.0607;-2.1553;
909311359911616;-5.4712;-0.1184;5.5247;
909311370009012;-4.6926;-0.3963;-3.4585;
909311380114741;-12.9858;-0.6215;-9.8737;
909311390220522;-12.3751;-0.2931;-3.5255;
909311400314168;-11.0934;0.1905;2.1302;
909311410419950;-5.2388;-0.2668;0.7911;
909311420525731;-7.0020;-0.4585;-4.0525;
909311430635418;-14.2795;0.8614;-2.6106;
909311440741200;-12.1522;0.5979;1.8835;
909311450846981;-5.5265;1.2326;0.0580;
909311460952762;-6.3314;-0.5997;-4.9053;
909311471058543;-14.1909;0.3176;-6.2587;
909311481164325;-16.5218;1.2736;-3.0703;
909311491272970;-7.6582;0.6218;0.7074;
909311501378752;-4.8341;-0.1113;-1.9469;
909311511484481;-8.6883;-0.7555;-5.2406;
909311521590731;-9.6084;0.4181;-3.4657;
909311531696512;-11.2014;0.4158;-0.5121;
909311541802293;-11.1918;0.6434;-0.9790;
909311551904845;-4.8724;0.6553;-2.5146;
909311562010575;-5.6246;-0.8850;-4.3615;
909311572116408;-11.8983;-0.8922;-4.9364;
909311582238127;-11.7978;0.0015;-0.6580;
909311592343960;-8.6859;-0.9975;1.2440;
909311602449689;-10.3487;1.4650;-3.2022;
909311612549012;-10.5592;0.3248;-1.0056;
909311622654793;-8.0369;-0.7962;2.7338;
909311632760575;-10.4181;0.0900;0.0102;
909311642859325;-8.9423;-0.4729;-1.5179;
909311652965106;-11.1341;-0.8803;-2.4069;
909311663070887;-10.4300;-0.2500;-1.9397;
909311673197554;-9.0861;-0.6407;-1.7503;
909311683303335;-7.9843;0.3894;-4.1746;
909311693409116;-10.4803;-0.7172;-4.5676;
909311703496147;-16.8476;-0.9066;0.5013;
909311713601929;-8.1589;0.1116;5.7787;
909311723707658;-5.2508;-0.2812;-0.2414;
909311733821564;-10.6074;0.4878;-8.3859;
909311743927345;-10.5377;-0.7723;-4.5293;
909311754033075;-6.0317;-0.2381;0.9278;
909311764134845;-12.5381;-0.6215;-0.9287;
909311774240627;-12.6171;-0.4346;1.0259;
909311784346408;-6.7528;0.0589;1.3014;
909311794442085;-9.0383;0.0781;-4.2467;
909311804547918;-11.0288;0.1259;-5.2621;
909311814653647;-11.6276;-0.8249;1.8643;
909311824760627;-8.5998;0.0852;3.0212;
909311834866408;-6.5901;-1.2586;-3.1687;
909311844972189;-10.9810;0.4926;-5.8923;
909311855087762;-9.3999;0.1379;-0.8498;
909311865193491;-7.2177;-0.9042;-0.2677;
909311875299325;-10.9594;1.1704;-5.0539;
909311885415106;-10.4635;0.1881;-3.4561;
909311895520939;-9.0263;-0.0272;-2.8669;
909311905626668;-11.0192;-0.3242;-2.4069;
909311915715679;-8.7290;0.3655;-0.4642;
909311925821408;-7.6896;0.5501;-2.3614;
909311935927189;-16.0810;-0.0754;-2.1577;
909311946030835;-10.1234;0.4469;3.0407;
909311956136668;-2.5801;-0.0873;1.9361;
909311966242397;-12.1116;0.3990;-7.0445;
909311976369325;-15.4463;1.0938;-6.1654;
909311986475106;-7.1578;-0.7603;1.3014;
909311996580835;-6.7361;-0.5207;0.4869;
909312006651095;-11.4888;1.0842;-2.6632;
909312016756825;-11.8002;-0.1639;0.1277;
909312026862606;-8.4296;-0.1232;-0.5743;
909312036994637;-10.0083;-0.1113;-5.4347;
909312047100418;-12.7295;0.1140;-3.9473;
909312057206147;-8.4296;-1.0478;1.4644;
909312067316252;-5.0593;0.2937;-0.2821;
909312077422085;-6.2713;0.7705;-5.3868;
909312087527762;-13.5009;0.1522;-3.6117;
909312097631356;-11.8911;0.0733;0.7863;
909312107737189;-4.3071;0.3224;-0.2797;
909312117842918;-6.4463;0.0230;-4.9173;
909312127942814;-15.2880;0.3009;-2.5433;
909312138048543;-12.0948;0.4253;2.6764;
909312148154377;-5.3204;-0.2189;1.7327;
909312158266772;-9.4908;-0.4609;-3.4513;
909312168372554;-16.0331;-0.2261;-2.5265;
909312178478335;-9.1005;0.4711;2.8777;
909312188597606;-6.1205;-0.9568;2.0489;
909312198703387;-9.0718;-0.5327;-3.0607;
909312208809168;-13.4937;-0.0176;-4.1148;
909312218875522;-10.9499;0.5094;0.1947;
909312228981304;-8.6644;0.1690;0.0990;
909312239087137;-11.2277;-0.2405;-3.9855;
909312249203908;-10.0250;0.5213;-2.4595;
909312259309637;-8.4969;-0.8489;0.1110;
909312269415418;-10.4109;0.2506;-1.3385;
909312279514377;-8.9853;1.1943;-3.0344;
909312289620210;-7.2751;-0.5471;-4.2873;
909312299725991;-11.2038;-0.7531;-3.6838;
909312309832918;-10.8852;0.3105;-1.7456;
909312319938752;-6.8776;0.8638;-1.9397;
909312330044533;-11.7739;-1.0071;-1.5203;
909312340148022;-9.2827;0.8231;-0.8761;
909312350253804;-8.3794;0.1355;0.2234;
909312360359533;-7.7447;-0.3338;-1.3648;
909312370485262;-9.9078;-1.5556;-2.5600;
909312380590939;-18.0715;0.2841;-1.7408;
909312390696720;-10.2311;1.2808;3.0550;
909312400790366;-0.9918;-0.1400;1.7112;
909312410896095;-7.4213;-2.1066;-7.0229;
909312421001772;-16.8308;-1.0478;-5.7604;
909312431107137;-11.1894;1.8772;2.3722;
909312441212814;-6.1875;0.4735;-0.3203;
909312451318595;-6.9733;-0.6670;-7.0158;
909312461426512;-10.7725;-0.6096;-5.9785;
909312471532241;-12.3440;0.5309;0.3096;
909312481637970;-8.1637;0.2602;2.5113;
909312491742345;-9.2417;-0.9832;-3.1639;
909312501848075;-11.0049;0.2913;-4.2251;
909312511953804;-11.5702;-0.1711;0.2689;
909312522056981;-8.7341;0.8614;-0.4618;
909312532162710;-7.7112;-0.6885;-4.5245;
909312542268387;-9.1627;-1.1462;-3.3290;
909312552375314;-8.8729;0.0900;-0.2127;
909312562481043;-12.1020;0.0685;-0.3275;
909312572586825;-13.6687;0.3464;1.3875;
909312582712085;-6.0727;-0.3987;1.0594;
909312592817866;-7.3158;-0.2381;-4.6178;
909312602923595;-11.3139;-0.7579;-4.1124;
909312613018387;-10.8060;-0.5566;0.7528;
909312623124116;-7.9579;-1.0693;0.9781;
909312633229793;-10.3268;-2.0755;-4.0956;
909312643330575;-13.7381;-1.4408;-3.9230;
909312653436304;-7.1626;-0.2764;2.0704;
909312663542033;-8.9662;-1.9125;-0.3658;
909312673655887;-9.6802;-2.1425;-3.5590;
909312683761616;-8.0441;-1.3854;-5.3486;
909312693867345;-10.9044;-1.5413;-4.2754;
909312703961512;-12.3368;-0.4083;-0.3754;
909312714067189;-5.5648;-0.6861;2.2549;
909312724172918;-8.0943;-1.6995;-2.0426;
909312734271043;-13.9777;0.4493;-5.9426;
909312744376772;-11.6037;-0.1496;-3.7053;
909312754482554;-6.1708;-0.6837;0.6619;
909312764604220;-6.8680;-1.9196;-1.5637;
909312774709897;-12.9380;-0.3218;-4.6681;
909312784815679;-11.7787;0.1044;-1.2209;
909312794910106;-7.8117;0.2124;-2.3877;
909312805015835;-7.4142;-0.6335;-4.8503;
909312815121564;-10.3893;0.0254;-4.1483;
909312825231252;-11.3809;-0.1759;-0.3012;
909312835336981;-8.7317;0.0039;-0.1911;
909312845442762;-7.4309;0.1020;-2.5576;
909312855553908;-10.6792;-0.3338;-3.2453;
909312865659585;-10.1904;0.1690;-2.4332;
909312875765366;-8.1876;0.3535;-3.6909;
909312885888543;-7.9962;0.3224;-6.8842;
909312895994325;-10.8805;1.2206;-4.3519;
909312906100054;-12.5716;1.3382;1.5577;
909312916174481;-7.2990;1.6759;0.7026;
909312926280210;-6.3048;2.4233;-5.2573;
909312936385939;-9.6012;1.3071;-7.5165;
909312946509429;-12.8375;2.5143;-4.4309;
909312956615158;-11.4314;2.3946;-0.1983;
909312966720887;-7.1913;1.1417;0.3072;
909312976817658;-9.6419;-0.4226;-4.8239;
909312986923387;-8.6644;-0.4513;-2.0163;
909312997029168;-7.2344;-0.2118;0.4104;
909313007126564;-10.9140;-1.0597;-3.5327;
909313017232293;-13.5730;-1.3663;-3.9879;
909313027338075;-7.3828;-1.3567;0.4271;
909313037433439;-8.9686;-1.7713;-2.0668;
909313047539168;-12.3679;-1.6804;-4.9747;
909313057644950;-8.9806;-1.0741;-1.3313;
909313067753908;-7.8452;-1.7713;-0.6389;
909313077859585;-9.0766;-1.5269;-2.3614;
909313087965314;-8.0513;-1.6537;-4.5269;
909313098088231;-10.2311;-0.5112;-5.9426;
909313108193908;-12.5907;-0.6670;-2.6010;
909313118299637;-9.7161;-1.4838;-0.2486;
909313128420627;-6.7241;-1.0645;-1.7910;
909313138526408;-11.5846;-1.3041;-3.6141;
909313148632085;-12.1044;-0.2046;-1.6857;
909313158738231;-7.6439;-0.3314;-1.4198;
909313168843960;-7.9555;-0.3628;-4.2586;
909313178949689;-11.1488;-0.4537;-4.3256;
909313189034168;-11.1174;0.3488;-1.2691;
909313199139897;-9.7041;0.1331;-1.7025;
909313209245679;-9.4334;0.2818;-5.1233;
909313219351512;-8.9710;-0.3485;-5.1329;
909313229457241;-7.6582;0.1618;-1.4366;
909313239563022;-7.9217;0.3200;-1.5084;
909313249672554;-7.4189;-0.0730;-4.9579;
909313259778283;-14.2723;-0.1352;-7.4471;
909313269884012;-23.4712;1.4291;-2.7422;
909313279986460;-10.4874;3.7959;6.9667;
909313290092241;5.5672;-0.2907;2.0058;
909313300197918;-8.1999;-1.4336;-10.1420;
909313310304897;-10.3029;-0.2094;-7.5141;
909313320410679;-7.1818;2.1550;-5.1664;
909313330516356;-5.4879;2.7586;-8.7526;
909313340637554;-7.5506;0.5237;-8.8962;
909313350743335;-10.5425;0.5883;-5.9067;
909313360849064;-10.3893;1.5224;-4.2562;
909313370950887;-8.1757;0.6362;-2.8837;
909313381056668;-4.1297;-0.9712;-1.8033;
909313391162397;-3.3392;-1.1581;-1.8751;
909313401257345;-8.9662;-0.8130;-6.3425;
909313411363127;-15.9395;0.4229;-7.2793;
909313421468856;-13.0173;1.8652;-2.3806;
909313431571147;-6.1301;-0.0200;-2.1529;
909313441676981;-6.2617;-1.5054;-3.4848;
909313451782710;-15.6018;-0.1448;-2.9602;
909313461894116;-15.1274;0.2001;-0.2964;
909313471999897;-6.0221;-0.1950;0.9302;
909313482105627;-2.8747;-0.3099;-5.0444;
909313492211825;-13.4985;-0.3820;-7.4710;
909313502317606;-15.4606;0.8949;-3.0464;
909313512423335;-5.5095;0.7175;-1.5852;
909313522523543;-5.3228;-1.1605;-4.3400;
909313532629377;-12.0278;-0.5303;-4.1794;
909313542735106;-10.4468;1.3549;-4.7183;
909313552843543;-7.8547;0.4277;-8.1607;
909313562949377;-13.5344;1.2446;-6.7857;
909313573055106;-9.8456;-0.4155;1.5003;
909313583161512;-5.8570;-0.0682;2.9830;
909313593267293;-6.3841;0.3607;3.7783;
909313603373022;-11.2397;1.4195;-1.0391;
909313613482241;-11.6997;0.7633;-0.7995;
909313623588022;-5.8714;0.6314;-2.1721;
909313633693752;-5.2244;-0.7388;-9.5647;
909313643816929;-10.5497;-0.8297;-10.5036;
909313653922710;-10.9594;0.0613;-2.5481;
909313664028439;-6.1875;0.1307;1.6630;
909313674126720;-3.8351;-0.5136;1.4091;
909313684232450;-6.2426;0.2818;-6.1391;
909313694338231;-13.6567;0.3129;-11.3874;
909313704433387;-16.6295;0.5022;-6.0718;
909313714539168;-6.0030;0.4277;-0.9048;
909313724644897;-0.3879;-0.6383;-3.7866;
909313734748908;-13.4626;-0.4274;-7.7967;
909313744854689;-18.8166;1.1249;-1.5374;
909313754960418;-8.7437;1.6424;2.3865;
909313765049012;-1.0947;-0.5566;-1.5852;
909313775154845;-16.3564;-0.5518;-5.3055;
909313785260575;-16.9217;0.2506;-0.6126;
909313795379845;-3.0230;0.5501;0.1971;
909313805485575;-2.1272;-0.9879;-6.1271;
909313815591356;-13.5778;-0.9784;-10.3214;
909313825689585;-13.0484;0.3392;-4.3663;
909313835795418;-6.7361;0.8638;-3.5566;
909313845901147;-6.0703;-0.0535;-4.0430;
909313856015470;-9.5605;0.0565;-1.8775;
909313866121252;-8.2621;0.2100;-2.0234;
909313876226981;-7.6681;-0.9544;-5.2621;
909313886342137;-10.4635;0.2219;-3.9520;
909313896447918;-8.8035;0.8710;-2.3471;
909313906553647;-8.6859;-0.4633;-2.1242;
909313916639429;-7.5314;0.2076;-1.5302;
909313926745210;-7.5506;-0.1089;-5.3079;
909313936850939;-11.5223;-0.8922;-6.7546;
909313946983543;-11.8552;-0.0849;-3.3577;
909313957089325;-5.1646;-0.3194;-2.8884;
909313967195054;-6.9829;-0.6909;-3.7795;
909313977275106;-11.0264;-1.1749;-4.8550;
909313987380887;-11.8552;-0.2596;-3.2142;
909313997486616;-9.4190;0.1810;-1.5422;
909314007611720;-9.2369;-0.1950;-2.5624;
909314017717450;-9.4190;-0.7364;-4.2347;
909314027823231;-11.8576;0.1881;-4.7231;
909314037909793;-14.3441;-0.4083;-0.8952;
909314048015575;-11.7667;-0.1998;-0.2940;
909314058121356;-6.9182;-0.0416;1.2846;
909314068249585;-8.7003;-0.3461;-2.7517;
909314078355418;-10.7677;-0.3963;-4.4429;
909314088461147;-8.6716;0.1379;-2.3157;
909314098558179;-7.3732;0.6194;-5.4299;
909314108663908;-8.6668;0.0350;-8.1272;
909314118769689;-10.3798;-0.2046;-5.3198;
909314128875262;-6.6141;1.2760;-2.5816;
909314138980991;-4.3860;0.7152;-4.9149;
909314149086772;-8.4658;-0.3147;-5.3127;
909314159188335;-12.2674;0.2530;-4.0813;
909314169294116;-9.1436;0.9452;-1.5589;
909314179399897;-6.8776;0.3870;-3.5973;
909314189505627;-9.5052;-0.4442;-3.6885;
909314199611408;-11.3378;-0.0368;-3.1663;
909314209717189;-6.2833;0.5094;-1.1635;
909314219818439;-7.0690;0.0302;-3.0559;
909314229924272;-11.7691;-0.0368;-5.9378;
909314240030002;-10.2263;1.1345;-5.7293;
909314250148075;-5.9360;1.1369;-6.1917;
909314260253856;-7.5912;0.5166;-6.2946;
909314270359585;-9.7496;-0.0272;-5.7628;
909314280455835;-10.3869;0.8255;-5.8397;
909314290561668;-8.5567;0.2578;-5.4251;
909314300667397;-10.3077;0.5189;-3.3745;
909314310775575;-7.7997;1.3358;-2.2247;
909314320881304;-7.0857;1.3119;-2.5986;
909314330987085;-10.4683;0.8447;-3.5207;
909314341108908;-8.6046;0.5309;-2.2510;
909314351214689;-7.9484;0.5477;-1.3816;
909314361320418;-8.2214;-0.3075;-3.6476;
909314371415991;-7.4764;-0.4131;-4.0860;
909314381521772;-11.0240;-0.8731;-6.1510;
909314391627502;-12.4998;-0.0682;-3.2237;
909314401730054;-12.3177;0.4229;-1.0487;
909314411835835;-9.4047;-0.4872;-0.4424;
909314421941564;-9.8958;-0.9903;0.1325;
909314432048179;-16.3756;0.0661;1.1578;
909314442153960;-5.5433;0.5166;1.1961;
909314452259689;-8.6764;-0.0969;-4.7255;
909314462360470;-15.0269;-0.9688;-5.1090;
909314472466252;-6.5204;1.2039;-1.2281;
909314482571981;-6.3793;0.5548;-2.7852;
909314492676929;-15.2904;-1.1243;-4.4934;
909314502782710;-14.1981;0.4807;-3.4705;
909314512888439;-7.4716;-1.0190;-1.6642;
909314522995106;-5.3013;-1.2108;-3.1519;
909314533100939;-9.4717;-1.5317;-2.0019;
909314543206668;-10.0708;-0.4801;-3.2142;
909314553318231;-4.9777;-0.0200;-5.5208;
909314563424012;-4.1584;-1.5461;-5.6336;
909314573529741;-5.4377;-0.1807;-8.7380;
909314583630366;-4.5012;0.3105;-6.9105;
909314593736147;-2.2851;-0.9257;-8.5346;
909314603841877;-4.2568;-0.2261;-13.0956;
909314613955366;-8.0584;0.8566;-11.8499;
909314624061147;-10.5999;0.1618;-10.3238;
909314634166877;-9.5845;0.6410;-3.0344;
909314644259272;-5.4497;-1.0932;-1.0702;
909314654365106;-7.3181;-0.5710;-1.7480;
909314664470835;-8.4440;0.3033;2.7075;
909314674570991;-12.2483;0.4277;-2.1314;
909314684676720;-23.3130;0.6314;0.5204;
909314694782554;-14.7586;-0.0248;1.8739;
909314704896147;-4.4797;-0.3170;-2.4811;
909314715001929;-12.1857;-2.8277;-4.1052;
909314725107658;-15.0700;-0.2548;1.0522;
909314735221929;-8.6548;2.8352;2.0010;
909314745327710;-3.4041;0.9021;-5.0061;
909314755433439;-7.5266;2.7586;-6.3162;
909314765548022;-16.1312;3.5850;-0.7035;
909314775653856;-5.6533;2.3010;0.7122;
909314785759585;0.8910;1.3693;-0.0018;
909314795840679;-5.9791;0.2818;-1.4198;
909314805946460;-7.5721;1.5200;-1.9851;
909314816052241;-6.4343;1.3789;-3.9350;
909314826157554;-5.5047;0.1331;-7.4901;
909314836263335;-7.2631;0.0182;-7.2458;
909314846369064;-7.2846;-0.0778;-5.1257;
909314856509637;-8.2358;-0.2477;-3.6260;
909314866615418;-3.4161;0.4301;0.9733;
909314876721147;-3.6604;-0.0682;-1.0774;
909314886803075;-7.9914;-0.5064;-6.0144;
909314896908856;-13.7716;-2.9091;-10.8676;
909314907014637;-17.4344;-2.1640;-9.7226;
909314917120522;-32.9237;-2.4876;3.0861;
909314927226304;-62.6064;-6.8665;27.7238;
909314937332033;-13.1680;2.3492;28.2796;
909314947434585;21.5019;2.5908;2.1254;
909314957540366;-2.9130;-14.0387;3.9293;
909314967646095;-17.5926;1.0986;-1.2568;
909314977763231;-7.4189;8.0767;-7.1692;
909314987869012;-1.9403;2.0518;-11.9408;
909314997974741;-6.3290;1.2063;-19.2090;
909315008064793;-5.7371;2.0785;-15.3114;
909315018170627;-4.2162;0.4062;-11.3659;
909315028276356;-6.0197;-2.1066;-12.1445;
909315038406408;-8.2693;-1.9582;-7.7345;
909315048512241;-7.7112;-1.5843;-1.4844;
909315058617970;-11.9441;-2.1736;-1.1970;
909315068727502;-12.7295;-0.0826;3.0335;
909315078833283;-4.2640;0.9476;5.2708;
909315088939012;-6.7361;0.1092;-2.9219;
909315099044116;-13.5081;1.8413;-5.7150;
909315109149897;0.4241;1.3717;-10.3648;
909315119255627;3.4041;-4.1716;-44.3952;
909315129350470;-36.9817;-5.9369;-40.6367;
909315139456252;-34.5383;4.9983;1.7016;
909315149561981;17.4320;1.7189;18.5516;
909315159665470;11.6279;-0.5351;18.1920;
909315169771252;-28.9591;2.5669;6.1211;
909315179876981;-29.3351;3.3168;9.5300;
909315189974897;4.1994;1.0675;8.3249;
909315200080627;0.4863;-1.9750;-13.1267;
909315210186408;-22.3283;-2.6838;-14.0704;
909315220299012;-13.9418;0.9380;2.9662;
909315230404793;0.5892;0.3272;-7.2147;
909315240510522;-5.1670;-3.5366;-13.2105;
909315250615575;-11.3617;-0.4250;-6.5079;
909315260721356;-7.9316;2.2627;-4.5341;
909315270827085;-5.7514;0.5859;-2.2199;
909315280934637;-8.1948;2.5789;0.6452;
909315291040418;-4.2233;1.8221;-0.5121;
909315301146147;-12.3823;2.0160;-2.4643;
909315311240106;-14.6845;2.7562;1.8906;
909315321345939;-6.2234;1.7357;-0.3634;
909315331451668;-9.9461;0.2602;-5.3581;
909315341579429;-12.8471;0.0182;-1.5251;
909315351685210;-8.3483;0.0948;-1.0128;
909315361790939;-9.1890;-1.1390;-3.4442;
909315371897658;-9.0407;-1.2108;-1.0223;
909315382003439;-8.9495;-1.5915;-2.7278;
909315392109168;-11.3115;-1.5508;-2.9985;
909315402204481;-10.3220;-1.0621;-0.3634;
909315412310262;-9.2608;-1.0190;-2.2917;
909315422415991;-12.0829;-0.8731;-2.2104;
909315432516825;-8.2119;-0.1854;0.2186;
909315442622606;-6.1804;-0.9353;-3.2859;
909315452728335;-12.5548;-0.4777;-4.6011;
909315462837554;-11.0360;-0.2022;-1.3313;
909315472943335;-7.3612;-0.3580;-2.4691;
909315483049064;-8.6501;-1.0406;-3.1735;
909315493150679;-8.5400;-0.2596;-2.5959;
909315503256460;-8.2525;-0.2381;-4.5628;
909315513362189;-10.1402;0.3679;-5.0010;
909315523467970;-9.3712;0.6266;-3.5566;
909315533573700;-7.3301;1.0795;-3.4322;
909315543679481;-8.2717;0.4469;-4.1315;
909315553790991;-9.0861;0.2459;-2.7541;
909315563896772;-8.6429;0.2267;-3.0966;
909315574002502;-10.6720;-0.5518;-3.7675;
909315584111304;-9.7376;0.1355;-1.9277;
909315594217085;-6.7768;0.3272;-3.1639;
909315604322762;-9.2249;-0.5614;-5.0300;
909315614414793;-11.7715;0.0685;-3.4370;
909315624520627;-8.6668;0.4110;-3.0224;
909315634626356;-8.3483;-0.2883;-3.6814;
909315644715210;-8.3028;-0.5447;-3.8010;
909315654821043;-9.3736;-0.5255;-3.8895;
909315664926772;-10.0131;-0.4753;-3.6909;
909315675057450;-6.4845;0.3440;-3.8082;
909315685163179;-4.6065;0.0182;-5.8035;
909315695268960;-5.9839;0.1164;-5.4586;
909315705371408;-12.1068;0.6434;-2.9483;
909315715477137;-21.4804;0.3009;-2.6608;
909315725582918;-16.0858;-0.1113;0.4678;
909315735688595;-1.9953;0.4878;2.2068;
909315745794325;-0.4720;-0.8465;-2.7278;
909315755900054;-5.6749;-0.0153;-7.0134;
909315765997189;-10.9331;1.0771;-5.3127;
909315776103022;-14.1550;2.1215;-5.8708;
909315786208752;-14.4616;1.0196;-4.9842;
909315796320575;-7.0786;0.0350;-1.8320;
909315806426356;-4.8197;-0.2692;-2.1075;
909315816532085;-9.0048;-0.6550;-2.4930;
909315826642085;-10.2742;-0.3604;-2.3013;
909315836747866;-10.2742;-0.2692;-4.0238;
909315846853595;-8.7194;0.0063;-3.1110;
909315856976304;-7.9340;-0.2524;-1.5829;
909315867082137;-9.4454;-0.3290;0.1540;
909315877187866;-6.8510;-0.1519;1.2870;
909315887264897;-6.0942;-0.6191;-7.2625;
909315897370731;-14.3058;-1.7067;-17.1535;
909315907476408;-16.5075;-0.7866;-8.5968;
909315917575627;-9.2489;0.6817;3.9365;
909315927681460;-4.3382;-0.4226;6.0494;
909315937787189;-5.7802;-0.9209;4.7605;
909315947921877;-10.1904;-0.1137;-1.0223;
909315958027658;-11.9151;-0.0511;-5.7676;
909315968133387;-11.6133;-0.8297;-8.6925;
909315978217658;-10.4444;-0.3820;-8.1153;
909315988323387;-9.0503;-0.6814;-3.1519;
909315998429116;-6.9398;-0.4107;-0.6365;
909316008575210;-8.0178;-1.1148;-2.0282;
909316018680991;-11.3258;-1.0214;-2.4715;
909316028786720;-10.4587;-0.3051;-1.8655;
909316038847189;-9.1077;0.0996;-2.3204;
909316048953022;-7.2846;-0.3963;-2.8980;
909316059058700;-7.3421;-0.0802;-5.4179;
909316069174012;-11.9680;-0.1567;-5.5786;
909316079279845;-10.4731;0.3799;-2.5744;
909316089385575;-6.4367;0.3918;-2.9315;
909316099496564;-8.2167;-0.2142;-4.7976;
909316109602293;-11.4577;0.4277;-3.0009;
909316119708075;-9.1914;0.6482;-0.9814;
909316129816147;-7.9962;0.6147;-2.9913;
909316139921929;-10.1761;0.0470;-3.3099;
909316150027606;-10.7677;0.0422;-1.1755;
909316160127345;-8.7915;0.2961;-1.6499;
909316170233127;-9.1723;-0.7172;-4.0119;
909316180338804;-12.5644;-0.2285;-4.3759;
909316190451200;-11.2684;0.7343;-2.0788;
909316200556929;-5.7371;0.5381;-1.3600;
909316210662710;-8.8777;0.1235;-3.1110;
909316220760314;-11.9175;0.8112;-2.7900;
909316230866147;-9.8958;0.7104;-1.4509;
909316240971825;-8.0225;0.5883;-2.1147;
909316251081929;-8.1063;-0.1017;-3.6814;
909316261187710;-10.7581;0.1235;-3.6500;
909316271293439;-10.7031;0.1068;-3.1038;
909316281398179;-9.3138;-0.0583;-3.0583;
909316291503960;-9.1005;-0.4131;-2.0788;
909316301609689;-8.6333;-0.5255;-1.9158;
909316311725679;-8.6596;-0.6335;-3.7244;
909316321831408;-10.4300;-0.6407;-4.6777;
909316331937137;-10.8658;-0.1184;-3.3194;
909316342060054;-6.2139;-0.2740;-2.4380;
909316352165783;-7.4189;-0.2309;-5.6432;
909316362271564;-12.1211;0.2411;-5.5184;
909316372360835;-9.6538;0.3583;-1.8464;
909316382466616;-6.7816;0.0829;-1.7049;
909316392572397;-7.0929;-0.3772;-4.6681;
909316402670835;-10.0804;-0.6215;-5.0898;
909316412776616;-10.7868;0.2315;-2.5887;
909316422882397;-8.8490;0.0254;-2.6871;
909316432988439;-5.6821;-0.3508;-4.0765;
909316443094220;-7.8978;-0.9257;-4.8215;
909316453200002;-8.1087;-0.8827;-4.7545;
909316463303335;-6.6117;-0.1926;-5.6025;
909316473409168;-7.5841;0.0852;-5.4921;
909316483514897;-6.7576;-0.0009;-3.7005;
909316493623439;-6.6523;0.5620;-3.8512;
909316503729220;-11.1269;0.5931;-4.1674;
909316513835002;-10.7198;1.2302;-1.0271;
909316523941200;-6.7050;0.2602;0.2713;
909316534046929;-7.1650;-0.0153;-2.4069;
909316544152710;-9.6802;-0.1328;-2.6225;
909316554261252;-11.0504;0.3751;-1.6786;
909316564367033;-10.4372;0.9045;-0.9861;
909316574472814;-9.7998;-0.1567;-0.7035;
909316584588908;-8.9758;-0.2740;-1.4390;
909316594694689;-9.1627;-0.3266;-2.1960;
909316604800470;-10.3558;-0.4777;-1.1731;
909316614887189;-12.7896;0.4950;-0.4953;
909316624992970;-9.7974;0.6482;1.9627;
909316635098752;-6.3984;1.4554;1.8787;
909316645229741;-10.1976;0.1786;-1.4318;
909316655335470;-12.2985;0.7343;-1.9804;
909316665441252;-9.2154;1.0026;0.1253;
909316675525627;-7.6176;0.5764;-2.8884;
909316685631408;-9.5988;-0.1232;-5.6145;
909316695737189;-9.0383;-0.0921;-2.7087;
909316705833752;-8.9901;0.6912;-1.7456;
909316715939533;-8.5017;0.0589;-3.1448;
909316726045314;-8.7147;-0.2405;-3.9449;
909316736151877;-9.9772;-0.7316;-3.6838;
909316746257710;-9.9437;-0.3939;-3.2692;
909316756363491;-11.0647;0.1379;-3.0799;
909316766527241;-7.3540;-0.5016;-1.0654;
909316776633022;-6.0030;-0.4155;-2.7254;
909316786738804;-12.1187;-0.6287;-6.3835;
909316796774585;-12.9428;-0.2477;-3.7196;
909316806880366;-7.9819;0.2985;0.4175;
909316816986147;-7.0044;-0.1376;-2.6225;
909316827143647;-11.6973;-1.2491;-6.0144;
909316837249481;-10.1306;-0.5495;-2.6154;
909316847355210;-7.1746;0.1044;-1.9277;
909316857416147;-8.8202;-0.8874;-4.3424;
909316867521929;-9.4789;-0.1448;-2.9626;
909316877627710;-7.7710;-0.4250;-2.4835;
909316887765627;-10.3439;-0.6909;-4.9531;
909316897871408;-10.6887;-0.5518;-4.0358;
909316907977189;-7.2009;-0.4298;-1.5613;
909316918074481;-7.7088;-0.3290;-3.0129;
909316928180262;-12.6338;-0.3652;-4.5365;
909316938286043;-11.6635;-0.0320;-0.6317;
909316948392502;-7.6152;0.2602;1.3899;
909316958498283;-8.5807;-0.3290;-3.3482;
909316968604064;-11.8050;-0.7938;-4.8191;
909316978677450;-9.6658;0.4062;-2.0426;
909316988783179;-7.0522;-0.0778;-2.7589;
909316998888960;-10.7557;-0.6120;-4.7064;
909317009034012;-9.7998;0.4759;-1.5565;
909317019139793;-8.6381;-0.1352;-1.4174;
909317029245575;-10.4850;-0.2381;-5.0348;
909317039322502;-8.5304;0.2674;-3.1158;
909317049428283;-2.3788;0.2435;-2.8642;
909317059534064;-4.2018;-0.1232;-8.0459;
909317069642918;-11.3713;0.2435;-8.0052;
909317079748752;-11.0982;0.8351;-2.0569;
909317089854481;-7.3181;0.8255;-0.6939;
909317099967814;-9.0598;0.1977;-5.0492;
909317110073595;-9.8408;-1.1653;-4.5269;
909317120179377;-8.7628;-0.2764;-1.3169;
909317130276668;-8.3411;0.1786;-2.0258;
909317140382450;-8.9925;-0.3437;-2.6632;
909317150488231;-9.3832;-0.4729;-0.7131;
909317160594793;-10.2838;0.2076;-2.2750;
909317170700575;-11.5247;-0.0105;-3.2788;
909317180806356;-8.5113;0.4854;-0.3802;
909317190911460;-8.3746;0.3009;-1.8559;
909317201017241;-12.2387;-0.0440;-3.2381;
909317211123022;-11.6037;0.8016;3.7208;
909317221225731;-5.0833;0.5357;5.9462;
909317231331512;-6.1636;0.0924;-3.7819;
909317241437293;-11.3163;-0.5710;-9.1645;
909317251550314;-9.8456;-0.4466;-4.9531;
909317261656095;-8.0465;0.5835;-1.2329;
909317271761877;-10.4755;-0.5447;-2.0019;
909317281862814;-11.4410;-0.7220;-2.4619;
909317291968595;-8.2214;0.0781;1.0810;
909317302074377;-7.1192;-0.1759;-1.3026;
909317312190314;-8.8107;-0.4825;-4.9890;
909317322296095;-9.7639;-0.0559;-2.4236;
909317332368804;-11.0791;-0.0153;-2.9913;
909317342474585;-10.3149;0.2171;-2.6417;
909317352580366;-8.2334;-0.0033;-0.4424;
909317362723752;-9.0215;-0.4561;-3.6619;
909317372829533;-10.8132;-0.6239;-3.3745;
909317382935366;-9.9030;-0.3796;-2.1410;
909317393036512;-7.8835;-0.0081;-1.5302;
909317403142293;-9.5629;-0.8656;-2.1888;
909317413248075;-11.1269;-0.3891;-2.7015;
909317423350679;-9.8312;-0.3604;-0.8282;
909317433456460;-8.2190;-0.3556;-5.4251;
909317443562293;-10.2000;-0.9712;-4.9101;
909317453666460;-10.1043;-0.3963;-0.8163;
909317463772241;-8.1326;0.2076;-0.5432;
909317473878022;-9.4741;0.1977;-3.5207;
909317483965887;-10.2191;0.2100;-2.7422;
909317494071616;-7.3612;0.3033;-0.2629;
909317504177397;-9.4717;-0.5495;-3.5447;
909317514299272;-12.4014;-0.4107;-3.1807;
909317524405054;-8.3483;-0.1448;-1.6379;
909317534510835;-9.0526;-0.2022;-1.4390;
909317544621877;-11.3067;-0.8560;-1.7551;
909317554727658;-11.0743;0.1044;-0.6006;
909317564833439;-7.4094;-0.6909;-3.1615;
909317574931356;-8.1709;-1.4623;-5.1162;
909317585037137;-9.5267;0.4950;-2.6608;
909317595142918;-9.5390;-0.2572;-1.6116;
909317605270106;-11.1847;0.4759;-3.5710;
909317615375887;-11.8481;0.6793;-1.3648;
909317625481668;-7.2799;0.7825;1.5218;
909317635568543;-7.3926;0.0709;-2.5528;
909317645674325;-11.4075;-0.3772;-3.7460;
909317655780106;-5.8881;0.0278;-0.7899;
909317665890262;-1.5811;-0.2381;-4.2754;
909317675996095;-6.9781;-1.0525;-8.6399;
909317686101825;-41.3055;-0.9760;2.2765;
909317696199897;-38.9650;2.5884;14.7808;
909317706305679;4.3911;2.5406;5.8768;
909317716411460;3.2267;-5.9946;-0.6963;
909317726507762;-35.2570;-4.7106;8.3369;
909317736613491;-14.4664;1.6591;9.7217;
909317746719272;16.6343;-1.7139;6.6027;
909317756846720;-14.8977;-3.2731;-9.6676;
909317766952502;-23.7850;2.6557;-14.0776;
909317777058283;0.6685;1.8126;-1.7384;
909317787193752;4.9469;0.3344;-11.0904;
909317797299533;-4.3789;0.1020;-17.0650;
909317807405314;-14.6076;0.9787;-5.9593;
909317817455939;-11.2564;0.1929;6.1570;
909317827561720;1.1740;-1.0573;6.7968;
909317837667502;-3.9359;-1.4456;-10.4892;
909317847795002;-21.2886;-2.2792;-31.0188;
909317857900783;-32.9931;-0.1137;-12.1732;
909317868006564;-4.3549;-0.4944;16.6469;
909317878106460;12.2937;-2.5044;4.4707;
909317888212241;-21.8806;-0.5877;-14.5807;
909317898318022;-32.3417;3.7648;7.5296;
909317908442814;0.3138;2.7897;27.2830;
909317918548595;-1.5165;0.9476;-1.2595;
909317928654377;-23.6339;-0.1759;-18.1191;
909317938736043;-11.1823;1.1895;5.6444;
909317948841825;2.4338;3.1394;13.8658;
909317958947606;0.1343;-1.1390;-8.4939;
909317969065679;-10.1043;-2.1592;-20.3611;
909317979171460;-10.8227;-0.5877;-6.0793;
909317989277241;-5.4832;0.9476;0.4343;
909317999370939;-9.1436;1.4052;-11.1024;
909318009476720;-6.4295;-0.2477;-7.8852;
909318019582502;-8.3530;0.2435;-5.7078;
909318029688335;-16.0570;0.7681;-3.5112;
909318039794116;-7.6511;0.9500;7.5511;
909318049899897;-4.2329;-0.5303;4.8371;
909318060007189;-13.4459;0.6027;-10.2808;
909318070112970;-13.4842;1.4841;-3.9015;
909318080218752;-12.5644;0.5477;4.9116;
909318090341043;-11.0001;0.3009;0.5133;
909318100446825;-6.0703;0.2291;-1.4390;
909318110552606;-5.6533;-0.0320;-1.6666;
909318120654689;-10.0490;-0.3413;0.3144;
909318130760470;-8.3578;0.5381;2.1494;
909318140866252;-8.6716;1.4483;-2.5816;
909318150968856;-10.3774;0.9595;-6.0263;
909318161074637;-10.0756;-0.3314;-3.5303;
909318171180418;-6.7863;-0.1232;-3.3864;
909318181285627;-8.3865;-0.6502;-5.3868;
909318191391408;-8.9782;-1.2036;-5.5977;
909318201497189;-14.6246;-0.2835;-2.2534;
909318211599793;-19.9881;-0.7531;3.7328;
909318221705575;-7.4357;-0.4442;4.7629;
909318231811356;-3.9263;-0.6479;-1.8631;
909318241920418;-7.3660;-0.7651;-5.4849;
909318252026200;-9.3066;0.4158;-5.2190;
909318262131981;-7.7399;0.4759;-2.9578;
909318272236252;-10.3726;0.8231;-1.8894;
909318282342033;-9.2249;0.1403;-0.9168;
909318292447814;-1.5404;0.4062;-5.0731;
909318302553647;-15.0197;-0.3147;-6.6781;
909318312659429;-15.8581;-0.2716;1.2320;
909318322765210;-0.0311;0.0876;2.3578;
909318332882710;-0.7116;-1.5820;-7.2003;
909318342988595;-12.4349;-1.4695;-9.2674;
909318353094429;-15.7433;-0.8297;-1.8272;
909318363190002;-7.3588;0.2937;0.7433;
909318373295887;-7.3014;-0.8201;-9.2818;
909318383401720;-15.7552;-1.1844;-11.1359;
909318393506095;-14.6028;-0.0802;3.7974;
909318403611981;-6.9757;-0.6646;9.9203;
909318413717814;-9.3975;-0.5279;1.9122;
909318423815210;-10.7414;-0.0802;-0.1119;
909318433921095;-13.6208;0.2148;2.4846;
909318444026929;-12.6984;0.0470;-0.9431;
909318454128022;-1.0229;-0.4178;0.7481;
909318464233908;0.0167;-1.2586;-6.0769;
909318474339741;-12.4926;-0.8465;-19.4243;
909318484470470;-17.3267;0.5022;-7.3750;
909318494576356;-8.4634;1.2613;11.6764;
909318504682189;0.2420;-2.4203;3.9102;
909318514768595;-5.0737;-2.6934;-14.4538;
909318524874481;-13.3645;1.7931;-12.0990;
909318534980314;-6.3721;0.4854;1.3732;
909318545080314;-2.8098;-1.1243;-1.0750;
909318555186200;-16.3421;-1.0143;-10.9397;
909318565292085;-17.5253;1.9442;-3.2548;
909318575400210;-1.7991;1.2661;6.5405;
909318585506095;0.6227;-0.4466;-3.6742;
909318595611929;-13.1584;-0.4872;-12.4702;
909318605741981;-21.7176;-0.4011;-1.2185;
909318615847866;-17.3722;1.1130;15.5761;
909318625953700;-5.8379;-0.4178;12.0308;
909318636034793;-4.1417;-0.7819;-5.9163;
909318646140679;-9.3162;0.0159;-6.6900;
909318656246512;-10.3941;-0.0945;-3.4609;
909318666362866;-14.4401;-0.6766;-4.6872;
909318676468752;-11.4841;-0.0416;0.4965;
909318686574533;-4.3669;0.6218;3.8480;
909318696656252;-5.7036;-0.9114;-4.6513;
909318706762137;-14.6773;-1.1028;-5.4156;
909318716868022;-6.9422;0.9858;0.9613;
909318726997970;-5.6892;0.7199;-4.2108;
909318737103856;-16.2464;-1.1988;-5.5881;
909318747209689;-9.3903;-1.6705;5.5917;
909318757293752;-3.7633;-0.5806;2.7338;
909318767399637;-11.6348;-0.6431;-14.4562;
909318777505470;-11.9536;-0.7125;-12.7289;
909318787646460;-11.4123;0.4783;0.4080;
909318797752345;-5.8905;-0.0009;7.2541;
909318807858179;-5.0593;0.4636;-0.6102;
909318817933752;-11.4577;1.1895;-5.3533;
909318828039637;-9.3401;0.5835;-2.1242;
909318838145470;-12.6936;0.7490;-2.9219;
909318848257710;-13.4363;1.1465;-1.9971;
909318858363595;-8.0106;0.1451;3.1747;
909318868469429;-7.3974;-1.5820;0.1540;
909318878573231;-14.4497;-1.8455;-4.3735;
909318888679116;-13.8099;-0.4394;2.3315;
909318898784950;-8.0776;-0.8321;1.8763;
909318908879377;-12.4684;0.3583;-2.6225;
909318918985262;-5.5768;-1.3137;-0.9837;
909318929091095;-6.6978;0.2001;-3.5351;
909318939210835;-10.1545;0.6027;-3.9544;
909318949316720;-6.0918;-0.2524;-3.1472;
909318959422554;-13.1249;-0.1639;-7.0947;
909318969535679;-11.9198;0.8160;-1.5876;
909318979641564;-6.2689;-1.1916;3.8094;
909318989747397;-11.8481;-0.6957;-3.4801;
909318999849012;-8.1182;-1.4022;-1.4414;
909319009954897;-3.7178;-0.5638;-0.3156;
909319020060731;-9.7783;-0.0176;-5.0252;
909319030163022;-10.3005;-0.9903;-5.7389;
909319040268908;-18.1795;-0.2213;-4.4046;
909319050374741;-8.0536;0.1451;-3.7603;
909319060483439;0.1343;-1.5772;-3.3697;
909319070589325;-12.4277;-1.0358;-7.4542;
909319080695158;-15.7265;0.5740;-4.0454;
909319090819897;-8.7485;0.9045;4.6457;
909319100925783;-7.6415;-0.3027;1.9098;
909319111031616;-12.5548;0.2387;-2.5839;
909319121127814;-5.3563;1.2398;-1.2544;
909319131233700;-6.4845;0.9356;-5.2792;
909319141339533;-16.5242;0.6410;-7.9116;
909319151439064;-10.1139;1.2517;-3.8321;
909319161544950;-0.4119;0.5309;-2.7661;
909319171650783;-10.2024;-0.9497;-4.2826;
909319181758543;-14.3273;1.2951;-2.5528;
909319191864429;-6.8584;1.0890;-1.6307;
909319201970262;-7.2464;-0.1591;-5.7939;
909319212068127;-12.7295;-0.8369;-4.9196;
909319222174012;-9.2755;0.7319;0.6547;
909319232279845;-7.1913;0.1187;-1.7025;
909319242379064;-12.4086;-1.0525;-3.6718;
909319252484950;-8.3243;-0.9520;-0.1597;
909319262590783;-4.1608;-0.4322;-3.5566;
909319272710939;-12.3918;-0.2859;-9.1837;
909319282816825;-13.8820;-1.4599;-1.3433;
909319292922658;-7.8141;-0.0849;6.9643;
909319303018960;-7.2488;0.6793;-1.6834;
909319313124845;-17.2834;-1.2203;-7.6986;
909319323230679;-8.7317;-1.2395;1.0187;
909319333323387;1.4399;-1.0693;1.5505;
909319343429220;-11.7380;-1.5580;-8.0363;
909319353535106;-18.7567;-0.7555;-4.3113;
909319363653231;-6.6643;-0.0392;4.7749;
909319373759116;-1.8996;0.1499;-2.6010;
909319383864950;-12.7008;-2.4299;-9.1238;
909319393969168;-18.2967;-0.2094;0.2163;
909319404075054;-8.7867;1.8867;3.7519;
909319414180939;-3.4567;-0.3772;-3.1902;
909319424286772;-10.2814;-1.8455;-2.9554;
909319434392658;-14.4066;-0.3724;2.1087;
909319444498491;-12.0876;1.2589;1.1650;
909319454600835;-6.2258;0.7848;-2.5863;
909319464706720;-5.3755;-1.2873;-8.3357;
909319474812554;-9.0311;-0.8249;-8.4194;
909319484918752;-12.7032;1.0723;0.4080;
909319495024637;-5.3085;0.8375;4.4874;
909319505130470;-6.6093;0.4902;-4.5245;
909319515233960;-10.7653;-1.1557;-7.2984;
909319525339845;-10.6768;-0.8058;-1.1707;
909319535445679;-9.7113;0.3176;2.0465;
909319545556668;-9.9126;0.8160;-1.8511;
909319555662554;-8.3913;0.4540;-6.7690;
909319565768387;-14.5310;-0.5806;-4.4644;
909319575874481;-13.3789;0.5094;4.0633;
909319585980366;-8.0584;0.8566;5.5056;
909319596086252;-7.7279;1.1776;-4.1818;
909319606189064;-15.0245;-0.1591;-8.1846;
909319616295002;-9.8121;0.2602;-0.7277;
909319626400783;-3.4591;0.3942;3.6921;
909319636508231;-5.2989;0.2459;-1.0989;
909319646614116;-10.3029;0.1738;-6.0793;
909319656719950;-14.0351;-0.1615;-4.0717;
909319666830627;-9.1962;0.7370;-0.7780;
909319676936512;-3.1789;-1.0214;-3.8752;
909319687042345;-11.8265;-2.1401;-5.1353;
909319697184481;-10.7557;-1.1100;-1.5326;
909319707290366;-8.9638;0.0924;-1.9756;
909319717396200;-11.1870;0.1259;-3.6667;
909319727500939;-7.8858;-0.7675;-2.3566;
909319737606825;-9.4956;-0.3772;-3.0511;
909319747712658;-8.2502;1.0172;-4.9149;
909319757767606;-11.3378;1.4937;-5.1401;
909319767873491;-12.0470;1.5057;-1.4127;
909319777979325;-2.7428;0.8207;-1.1827;
909319788113856;-13.2230;-0.7842;-4.2610;
909319798219741;-12.2507;-0.2357;1.8188;
909319808325575;-4.1010;0.4711;3.2584;
909319818412866;-9.8886;-0.0176;-6.0912;
909319828518752;-15.0820;-1.3448;-9.2124;
909319838624637;-7.3804;-1.5461;-0.4690;
909319848733335;-2.2588;-0.5590;1.7518;
909319858839220;-11.7045;0.2818;-7.0995;
909319868945054;-20.2684;-0.1424;-5.9713;
909319879056043;-4.7480;0.1929;1.3134;
909319889161929;0.4146;0.7490;-3.1038;
909319899267762;-12.4445;-0.7436;-5.4227;
909319909367189;-16.7396;1.2832;-0.0377;
909319919473075;-10.0059;2.2531;3.0239;
909319929578908;-6.5874;0.6864;-3.1950;
