Sensor: bmi160 Accelerometer Non-wakeup
Vendor: BOSCH
TimestampAcc [ns]; AccX [m/s^2]; AccY [m/s^2]; AccZ [m/s^2]
2502729515608118;-9.2154;2.9049;-2.1793;
2502729525716503;-9.2178;2.7299;-2.1984;
2502729535809055;-9.2249;2.5549;-2.2199;
2502729545886555;-9.2970;2.3874;-2.1673;
2502729555998847;-9.3042;2.3321;-2.2750;
2502729566076347;-9.2632;2.2412;-2.2989;
2502729576218482;-9.2779;2.1646;-2.2582;
2502729586358587;-9.2922;2.1455;-2.2582;
2502729596444889;-9.2465;1.9657;-2.0812;
2502729606560462;-9.3042;1.7692;-2.0569;
2502729616658482;-9.3401;1.6496;-2.1266;
2502729626773482;-9.3090;1.6376;-2.2199;
2502729636880722;-9.3162;1.6280;-2.2726;
2502729646983899;-9.3329;1.6041;-2.3013;
2502729657097389;-9.3138;1.5514;-2.1984;
2502729667204107;-9.3401;1.5802;-2.1505;
2502729677294003;-9.3449;1.6137;-2.2032;
2502729687402753;-9.3209;1.6567;-2.2152;
2502729697508482;-9.3090;1.7357;-2.2774;
2502729707621816;-9.3377;1.7548;-2.2726;
2502729717727545;-9.3042;1.7788;-2.2415;
2502729727832962;-9.3162;1.9274;-2.1673;
2502729737930149;-9.3138;2.1263;-2.1410;
2502729748048482;-9.2755;2.2555;-2.1697;
2502729758147753;-9.2731;2.2340;-2.1170;
2502729768269316;-9.3018;2.2412;-2.0836;
2502729778366712;-9.2922;2.4520;-2.2056;
2502729788472962;-9.2465;2.6414;-2.2008;
2502729798568222;-9.2106;2.7849;-2.0740;
2502729808683170;-9.2465;2.9599;-2.0019;
2502729818780462;-9.2489;3.2043;-1.8966;
2502729828884420;-9.1723;3.4439;-1.8751;
2502729838988691;-9.1795;3.7361;-1.9875;
2502729849118118;-9.1579;3.9347;-2.0644;
2502729859206712;-9.0909;4.0977;-2.0521;
2502729869394003;-9.1364;4.2176;-1.9828;
2502729879418378;-9.1699;4.3277;-1.8990;
2502729889534055;-9.1029;4.4426;-1.9086;
2502729899631920;-9.1029;4.4737;-1.9086;
2502729909758378;-9.0861;4.4569;-2.0668;
2502729919851399;-9.0885;4.4378;-2.0716;
2502729930027076;-9.1029;4.4282;-1.9636;
2502729940106295;-9.1053;4.3636;-1.9516;
2502729950166295;-9.1196;4.2416;-1.9421;
2502729960275670;-9.1149;4.0786;-2.0043;
2502729970396191;-9.1077;3.9876;-2.1482;
2502729980489420;-9.1005;3.8964;-2.2606;
2502729990606607;-9.0790;3.7887;-2.2367;
2502730000699212;-9.1173;3.6544;-2.1840;
2502730010813170;-9.1436;3.4391;-2.0644;
2502730020923899;-9.1747;3.2115;-1.9828;
2502730031031295;-9.1603;3.0317;-2.0931;
2502730041152857;-9.1340;2.8208;-2.2534;
2502730051236503;-9.0957;2.6151;-2.3228;
2502730061347389;-9.1388;2.4162;-2.3327;
2502730071462649;-9.2106;2.1742;-2.2582;
2502730081570149;-9.3568;2.1670;-1.9780;
2502730091677337;-9.3353;2.1622;-1.8727;
2502730101796191;-9.2946;2.1096;-2.0883;
2502730111886972;-9.1460;2.0351;-2.3853;
2502730121996399;-9.1460;2.0207;-2.5265;
2502730132100722;-9.2560;2.0207;-2.5576;
2502730142225930;-9.3042;1.9825;-2.4476;
2502730152321607;-9.2683;1.8867;-2.2463;
2502730162422962;-9.2731;1.7118;-2.1960;
2502730172535253;-9.2632;1.4985;-2.3133;
2502730182682128;-9.2321;1.2975;-2.4284;
2502730192747649;-9.3042;1.1465;-2.4835;
2502730202846920;-9.3879;0.9643;-2.4571;
2502730212963587;-9.4334;0.7968;-2.3013;
2502730223069316;-9.3879;0.5620;-2.2917;
2502730233161399;-9.3616;0.3488;-2.4547;
2502730243279316;-9.3688;0.1714;-2.5696;
2502730253389003;-9.4406;-0.0583;-2.5481;
2502730263489212;-9.5366;-0.4226;-2.2845;
2502730273602649;-9.6299;-0.7531;-2.0019;
2502730283717857;-9.6084;-0.8130;-2.0282;
2502730293817805;-9.4669;-0.7029;-2.4882;
2502730303919316;-9.4167;-0.6072;-2.6967;
2502730314021503;-9.4310;-0.3843;-2.4404;
2502730324133066;-9.4813;0.0637;-2.7565;
2502730334239316;-9.4980;0.4493;-3.2357;
2502730344337337;-9.3712;0.3727;-2.8164;
2502730354449055;-9.3903;0.1451;-2.3758;
2502730364563222;-9.5868;0.2770;-2.5624;
2502730374674420;-9.5100;0.5477;-2.6824;
2502730384771920;-9.2803;0.6769;-2.5433;
2502730394893482;-9.4047;0.6027;-2.7374;
2502730404993587;-9.4789;0.5740;-2.8403;
2502730415105982;-9.3520;0.6553;-2.6536;
2502730425209837;-9.3162;0.8423;-2.7111;
2502730435303899;-9.3568;1.0196;-2.9602;
2502730445420878;-9.3497;1.1584;-2.8956;
2502730455525670;-9.3281;1.1417;-2.6919;
2502730465632128;-9.3975;1.0723;-2.7111;
2502730475731816;-9.4071;1.0196;-2.7733;
2502730485853378;-9.2755;0.7128;-2.6154;
2502730495949212;-9.3042;0.2865;-2.3973;
2502730506052232;-9.5124;0.4014;-2.7159;
2502730516144628;-9.4860;0.4493;-2.6321;
2502730526272232;-9.3951;0.4878;-2.4428;
2502730536372962;-9.4406;0.4516;-2.4476;
2502730546483066;-9.3808;0.3894;-2.3013;
2502730556586399;-9.3520;0.2698;-2.1362;
2502730566695045;-9.4573;0.1068;-2.2247;
2502730576804889;-9.5267;0.1068;-2.3638;
2502730586905670;-9.4717;0.2387;-2.4117;
2502730597016503;-9.3712;0.2770;-2.4093;
2502730607123795;-9.3640;0.1762;-2.4212;
2502730617227962;-9.3927;0.0278;-2.2510;
2502730627341816;-9.4573;-0.0873;-2.0907;
2502730637442649;-9.4789;-0.1878;-2.0716;
2502730647563743;-9.3544;-0.1424;-2.0450;
2502730657665045;-9.2584;0.0924;-1.9134;
2502730667766243;-9.3233;0.3033;-1.9708;
2502730677873587;-9.3592;0.4660;-2.0234;
2502730687974837;-9.2608;0.6649;-1.8990;
2502730698076035;-9.1914;0.9930;-1.8176;
2502730708192753;-9.2656;1.5610;-2.1673;
2502730718294003;-9.1675;1.8963;-2.2487;
2502730728395201;-8.9471;2.3563;-2.1673;
2502730738498743;-8.9806;2.9432;-2.1434;
2502730748600045;-9.0766;3.6401;-2.0764;
2502730758701243;-9.0670;4.3588;-2.0139;
2502730768808378;-9.0503;5.1326;-2.4260;
2502730778909628;-9.0024;5.6118;-2.9267;
2502730789010878;-8.8537;5.8346;-2.9961;
2502730799137910;-8.7748;5.8657;-2.9076;
2502730809239160;-8.7963;5.7817;-2.7374;
2502730819340410;-8.8609;5.5445;-2.3447;
2502730829468170;-8.9566;5.1206;-1.9851;
2502730839569420;-9.0383;4.7710;-1.9684;
2502730849670618;-9.0168;4.5529;-2.2008;
2502730859805201;-8.8968;4.3780;-2.3399;
2502730869906451;-8.8466;4.8858;-2.8187;
2502730880007649;-8.7772;5.5134;-3.4131;
2502730890081764;-8.7413;4.8404;-2.4739;
2502730900182962;-8.9853;4.3564;-1.9493;
2502730910284212;-9.1149;3.9829;-2.0764;
2502730920385410;-9.0239;3.8151;-2.4212;
2502730930521399;-8.9016;3.6930;-2.8765;
2502730940622649;-8.8825;3.5683;-3.3194;
2502730950723899;-8.9423;3.4654;-3.3410;
2502730960866035;-8.9925;3.2450;-2.9267;
2502730970967285;-9.0168;3.0078;-2.4787;
2502730981068482;-9.0574;2.7826;-2.2630;
2502730991173691;-9.0718;2.5454;-2.3109;
2502731001274889;-9.0168;2.4808;-2.5648;
2502731011376139;-9.0239;2.6916;-3.1086;
2502731021500149;-8.9853;3.0030;-3.5279;
2502731031601399;-8.8753;3.1226;-3.3338;
2502731041702597;-9.0120;2.9504;-2.8837;
2502731051835097;-9.2034;2.7419;-2.5457;
2502731061936347;-9.2082;2.7969;-2.5385;
2502731072037597;-9.0431;2.9719;-2.9291;
2502731082142805;-8.8322;2.8639;-3.2213;
2502731092244055;-8.7987;2.4449;-3.1543;
2502731102345305;-8.9686;2.3321;-3.1229;
2502731112476295;-8.9901;2.7036;-3.3673;
2502731122577545;-8.8585;2.8472;-3.3099;
2502731132678795;-8.9207;2.4664;-2.9483;
2502731142805149;-8.9973;2.3563;-2.9746;
2502731152906399;-8.8250;2.5143;-3.2931;
2502731163007649;-8.7437;2.0566;-3.0870;
2502731173104003;-9.0742;1.7501;-3.0344;
2502731183205253;-9.2178;2.1191;-3.5734;
2502731193306451;-8.8729;1.8724;-3.3362;
2502731203427962;-8.8107;1.3789;-2.9818;
2502731213529212;-9.0574;1.5945;-3.5638;
2502731223630410;-8.6572;2.1622;-4.2227;
2502731233748951;-7.9819;4.8165;-6.0024;
2502731243850149;-7.4166;9.5330;-10.2257;
2502731253951399;-8.8896;8.9127;-7.9451;
2502731264063535;-9.7687;3.1564;-0.4810;
2502731274164785;-9.5821;2.5358;-1.0128;
2502731284265982;-8.9423;2.4281;-3.0703;
2502731294385878;-8.0082;0.7080;-1.9708;
2502731304487128;-8.1517;0.5907;-2.8164;
2502731314588326;-9.1843;1.5730;-5.1329;
2502731324700201;-9.4813;0.8949;-4.9914;
2502731334801451;-9.1101;0.0948;-4.5772;
2502731344902649;-8.7915;-0.4035;-3.7244;
2502731355020982;-8.7194;-0.6479;-1.6905;
2502731365122232;-8.6094;-0.4777;-0.5910;
2502731375223430;-9.3568;0.0517;-1.7791;
2502731385361451;-10.1234;0.9093;-3.7484;
2502731395462701;-9.3497;1.4554;-4.2036;
2502731405563951;-8.6716;1.0531;-3.7460;
2502731415679107;-9.0622;0.9236;-3.7627;
2502731425780357;-8.9016;1.4411;-3.7627;
2502731435881555;-8.6812;1.4243;-2.7996;
2502731445986295;-8.9518;1.6184;-2.4404;
2502731456087545;-8.6285;2.0518;-3.4155;
2502731466188795;-8.9207;1.7213;-4.9962;
2502731476297441;-9.3209;1.8580;-5.7820;
2502731486398691;-9.1149;2.6318;-4.8550;
2502731496499889;-8.6237;2.6318;-3.3553;
2502731506616035;-8.8920;2.1431;-3.3864;
2502731516717285;-9.3185;2.1957;-3.5375;
2502731526818535;-8.5878;2.7682;-2.5887;
2502731536936347;-8.3698;2.5143;-2.7254;
2502731547037649;-8.8801;2.0279;-4.6633;
2502731557138847;-9.3592;1.1489;-5.2935;
2502731567259732;-9.2058;0.7056;-4.1794;
2502731577360982;-8.4945;0.7872;-3.2285;
2502731587462180;-8.5472;0.9236;-3.1687;
2502731597576972;-9.2755;1.0842;-3.0416;
2502731607678222;-9.8504;1.3884;-3.0870;
2502731617779472;-10.0346;1.6831;-3.1301;
2502731627895722;-8.9399;1.8150;-3.2189;
2502731637997024;-8.3698;1.2470;-3.5423;
2502731648098222;-8.9088;0.8016;-4.2009;
2502731658222857;-8.7628;1.2736;-3.8225;
2502731668328378;-8.4559;1.5057;-2.7135;
2502731678433899;-9.0215;1.5467;-2.5986;
2502731688548482;-9.2731;1.5057;-2.8475;
2502731698654003;-9.5219;1.0771;-3.4681;
2502731708759524;-9.8384;0.5764;-4.3161;
2502731718852649;-8.8274;0.9619;-4.5580;
2502731728958170;-8.5280;1.9131;-4.3807;
2502731739063691;-8.2741;2.8113;-3.9425;
2502731749205149;-8.5878;2.6004;-3.3817;
2502731759310670;-9.8336;2.0375;-2.7948;
2502731769416191;-9.9820;1.9968;-2.4954;
2502731779503170;-8.8083;2.0761;-3.1352;
2502731789608691;-9.2201;2.1814;-4.9173;
2502731799678743;-8.5041;3.0987;-5.1473;
2502731809784316;-7.6247;3.3239;-4.6274;
2502731819889837;-8.8848;3.1178;-4.6298;
2502731830070253;-8.7891;3.3215;-3.2070;
2502731840175774;-8.8825;3.3311;-2.5002;
2502731850281295;-2.4888;2.6940;-3.9688;
2502731860344107;-5.1431;-0.0009;-10.5227;
2502731870449628;-19.8467;-0.7125;-12.8106;
2502731880555149;-10.7916;1.9226;-5.0276;
2502731890687128;-5.7467;1.5706;-5.8134;
2502731900792597;-7.3445;0.5740;-6.0479;
2502731910898118;-4.0531;2.8113;3.4717;
2502731921003639;-5.4616;4.0522;4.1474;
2502731931108378;-12.9452;2.9288;-5.4682;
2502731941213899;-14.6124;2.8448;-10.2281;
2502731951319420;-9.1101;3.4005;-8.4410;
2502731961430670;-5.6366;2.4951;-5.8373;
2502731971536191;-6.6476;2.3827;-3.8177;
2502731981641712;-7.0666;3.1083;-1.8655;
2502731991743170;-8.9662;3.0891;-3.1711;
2502732001848691;-12.4807;2.5741;-7.2314;
2502732011954212;-10.9499;2.5980;-6.5725;
2502732022073066;-6.4008;2.8786;-3.1325;
2502732032178587;-6.6691;2.2962;-4.1602;
2502732042284107;-8.3794;1.9801;-5.7341;
2502732052404107;-9.2154;2.2340;-5.6934;
2502732062509628;-9.3473;2.4616;-4.8718;
2502732072615149;-9.2898;2.1909;-4.2610;
2502732082719264;-8.1470;2.5884;-4.6896;
2502732092824785;-7.4429;2.5956;-5.7628;
2502732102930305;-8.4634;2.3492;-5.9378;
2502732113035045;-7.6848;3.0293;-4.1219;
2502732123140566;-7.7925;2.3946;-3.3697;
2502732133246087;-10.0828;3.0269;-5.5546;
2502732143368274;-10.6098;3.0341;-6.7834;
2502732153473795;-9.4645;2.5167;-6.4720;
2502732163579316;-6.7744;2.1790;-5.4108;
2502732173683691;-6.2641;2.6509;-5.0946;
2502732183789212;-8.7628;2.5669;-3.0368;
2502732193894732;-8.9231;2.4257;0.5372;
2502732203997857;-9.5315;1.5658;-0.7947;
2502732214103378;-11.4410;1.4459;-5.2143;
2502732224208899;-10.0059;-0.0200;-3.6523;
2502732234317753;-7.4405;-1.0382;-1.2449;
2502732244423274;-8.0201;-1.0047;-2.1625;
2502732254528795;-9.3784;-1.4719;-1.3983;
2502732264639316;-8.5472;-1.2802;1.7734;
2502732274744837;-7.2823;0.5309;0.7146;
2502732284850357;-11.3665;1.7142;-3.7507;
2502732294967962;-12.6051;2.6892;-2.1960;
2502732305073482;-7.7997;3.1442;2.2238;
2502732315179003;-8.0273;3.4534;-2.2104;
2502732325279837;-12.9930;1.8891;-5.5400;
2502732335385357;-11.1799;0.4974;0.0126;
2502732345490878;-7.2392;-0.5925;1.4596;
2502732355601816;-8.8466;-1.1291;-4.4501;
2502732365707337;-13.1345;-2.0803;-5.5762;
2502732375812857;-12.3942;-3.0625;0.6834;
2502732385930982;-6.8198;-2.4467;1.6104;
2502732396036503;-8.2884;-2.5881;-4.9555;
2502732406142024;-13.9849;-2.1066;-5.0276;
2502732416250045;-8.9686;-1.2658;1.2823;
2502732426355566;-7.0738;-0.6383;-0.0664;
2502732436461087;-14.1359;-0.4083;-4.1148;
2502732446563066;-11.6252;-0.2309;1.2559;
2502732456668587;-5.0282;0.3081;1.9555;
2502732466774107;-8.8872;0.5955;-5.1832;
2502732476882857;-11.4912;0.4854;-5.0755;
2502732486988378;-10.7916;1.1919;0.6667;
2502732497093899;-7.9986;2.5023;0.3625;
2502732507194316;-9.9820;2.7778;-4.2227;
2502732517299837;-12.2267;2.5406;-4.4719;
2502732527405357;-8.5663;1.8580;0.9517;
2502732537520566;-5.5071;2.2699;-0.5121;
2502732547626087;-10.2622;2.8184;-6.8049;
2502732557731607;-13.2470;1.9394;-4.0884;
2502732567830097;-8.1063;0.7128;2.4153;
2502732577935618;-5.9169;1.7213;-1.4844;
2502732588041139;-12.1546;1.6376;-6.9631;
2502732598158274;-12.3727;-0.2309;-2.5002;
2502732608263795;-6.6500;-1.3926;2.2741;
2502732618369316;-5.5071;-0.3485;-2.0593;
2502732628473170;-11.4601;0.4110;-8.6997;
2502732638578691;-14.5286;-0.6144;-3.7890;
2502732648684160;-4.0412;-1.3137;3.7783;
2502732658795253;-7.0499;0.1092;-4.1530;
2502732668900774;-17.3100;0.1881;-8.7981;
2502732679006295;-8.3865;-1.3543;2.3028;
2502732689124420;-1.6146;-0.1663;1.2703;
2502732699229889;-12.3200;1.2302;-10.8891;
2502732709335462;-13.5515;-0.4657;-6.0793;
2502732719434941;-5.5959;-0.2668;2.6812;
2502732729540462;-7.1650;1.6184;-3.9206;
2502732739645982;-13.3023;1.2302;-8.7694;
2502732749772805;-8.1446;0.1642;-1.4653;
2502732759878326;-5.4855;0.8614;0.1253;
2502732769983847;-11.8768;1.8102;-7.8087;
2502732780075149;-12.7920;0.9906;-5.9234;
2502732790180670;-6.2139;0.7681;0.9087;
2502732800286191;-7.4955;1.6591;-3.3051;
2502732810435305;-13.5272;1.0914;-6.6517;
2502732820542441;-8.3291;0.2483;-0.0066;
2502732830649628;-5.8857;1.2661;-0.7445;
2502732840706868;-14.0136;0.7128;-7.0995;
2502732850814003;-11.4553;0.3846;-2.7996;
2502732860921191;-4.0627;0.6314;0.4056;
2502732871052180;-9.7759;0.2626;-6.3377;
2502732881159316;-12.9715;0.8064;-6.0646;
2502732891266503;-5.8762;1.2565;-0.0855;
2502732901385201;-8.3650;0.0924;-4.4333;
2502732911492337;-11.6492;-0.3532;-7.0588;
2502732921599524;-5.1000;-0.0682;-1.9158;
2502732931684055;-8.1541;-0.6263;-2.7111;
2502732941791191;-12.3392;-1.0478;-3.7149;
2502732951898378;-8.3219;-0.9544;0.0413;
2502732962007701;-7.9819;-1.4623;-2.4332;
2502732972114837;-11.0743;-1.1821;-7.3917;
2502732982222024;-9.9772;-0.7986;-4.3902;
2502732992319576;-8.5424;-1.1028;0.3482;
2502733002426712;-9.1627;-0.3027;-0.9646;
2502733012533899;-10.4396;0.0805;-4.0262;
2502733022655930;-8.5496;-1.6609;-2.7206;
2502733032763066;-8.8513;0.8614;-3.0607;
2502733042870253;-10.5138;2.7658;-3.8297;
2502733052971868;-10.0585;1.9322;-4.0765;
2502733063079003;-8.6955;2.7108;-2.8837;
2502733073186191;-8.5639;2.6198;-2.7709;
2502733083288014;-9.8862;2.6103;-5.0539;
2502733093395149;-9.6467;3.9060;-2.3327;
2502733103502337;-9.9030;4.1551;-0.8617;
2502733113612285;-11.0169;4.5194;-1.8464;
2502733123719420;-8.8083;6.3015;0.5420;
2502733133826607;-7.0881;6.1723;-2.1362;
2502733143921243;-10.9499;4.6654;-5.4203;
2502733154028378;-9.7424;5.9853;-4.1985;
2502733164135566;-10.3292;5.7051;-1.3816;
2502733174266764;-9.1603;3.4582;0.3024;
2502733184373899;-9.9628;3.0269;-1.3839;
2502733194481087;-10.0851;1.6256;-1.0702;
2502733204581139;-7.5625;-0.2764;1.2153;
2502733214688274;-9.3114;-0.5566;-0.8282;
2502733224795462;-10.1330;-1.5843;-2.9076;
2502733234893430;-9.7567;-2.9952;-1.3552;
2502733245000566;-10.4037;-2.4514;-1.1755;
2502733255107753;-8.0632;-2.2265;-2.4165;
2502733265211243;-7.4381;-3.0864;-2.8140;
2502733275318378;-11.5319;-1.8383;-4.0143;
2502733285425566;-10.3173;-1.7234;-2.8813;
2502733295538743;-7.9675;-1.9750;-1.5227;
2502733305645878;-10.7294;-1.0884;-2.1027;
2502733315753066;-9.6730;-1.0621;-2.2750;
2502733325860410;-7.6367;-1.0190;-2.6297;
2502733335967545;-9.0263;-0.1184;-3.3362;
2502733346074732;-11.2014;0.1786;-4.1195;
2502733356184993;-8.6189;-0.3485;-3.0703;
2502733366292128;-7.9819;0.1642;-3.5638;
2502733376399316;-11.3904;-0.1615;-4.0669;
2502733386513274;-8.5041;-0.8225;-1.8368;
2502733396620410;-8.8657;0.0541;-4.0837;
2502733406727597;-9.8336;-0.2429;-4.9962;
2502733416824993;-7.2009;-0.9138;-3.5183;
2502733426932128;-11.5056;0.2506;-5.5570;
2502733437039316;-9.1723;0.0781;-4.3998;
2502733447137701;-6.2785;0.0805;-4.3639;
2502733457244837;-10.5090;0.8614;-5.6743;
2502733467352024;-7.2799;0.0996;-3.6523;
2502733477469785;-11.5463;0.2865;-4.2706;
2502733487576920;-12.8877;1.0026;-2.4236;
2502733497684107;-6.1947;0.6386;-0.3730;
2502733507788951;-10.8515;0.4612;-2.8908;
2502733517896087;-11.6228;0.5524;-1.1611;
2502733528003274;-6.1564;0.9165;-1.1324;
2502733538094889;-10.5999;-0.2285;-4.3854;
2502733548202024;-12.7391;-0.3003;-1.1563;
2502733558309212;-9.9796;-0.1065;-0.2270;
2502733568411347;-9.1627;-0.9592;-4.3615;
2502733578518482;-10.8132;-0.6383;-2.4763;
2502733588625670;-10.7845;0.3344;-2.4045;
2502733598726555;-8.6501;-0.1663;-1.5613;
2502733608833691;-9.7950;-0.7603;-2.4667;
2502733618940878;-9.2779;-0.9592;-3.2501;
2502733629048014;-6.8895;-0.7460;-2.9841;
2502733639155149;-7.7638;-0.8177;-4.8885;
2502733649262337;-9.7256;-1.7737;-4.6178;
2502733659434628;-9.2441;-1.3352;-2.3518;
2502733669541764;-5.1287;-0.9616;-3.8393;
2502733679648951;-4.4459;-2.7966;-4.4142;
2502733689658743;-6.2282;-2.9785;-5.4371;
2502733699765878;-8.7580;-2.4036;-5.5546;
2502733709873066;-9.8551;-2.6767;-4.1865;
2502733720054264;-9.3281;-1.4408;-3.9278;
2502733730161399;-7.9579;-1.0549;-1.9205;
2502733740268587;-13.7381;-0.8441;-1.5422;
2502733750338014;-10.4850;-0.0176;2.0895;
2502733760445149;-9.7687;-0.1567;0.9517;
2502733770552337;-18.2106;-0.6287;-2.6321;
2502733780652441;-6.6284;-0.2740;-0.1358;
2502733790759576;-2.9680;0.0087;-5.8445;
2502733800866764;-10.0250;-1.5724;-7.5356;
2502733810974472;-8.8753;-0.4609;-4.5580;
2502733821081087;-10.7892;0.2171;-6.0120;
2502733831187701;-14.3106;-0.8249;-4.7809;
2502733841309055;-7.5984;0.8997;-0.7947;
2502733851415670;-6.9111;0.1881;-0.7155;
2502733861522285;-12.2001;-1.0406;-2.5986;
2502733871635201;-12.9787;0.2698;-3.6045;
2502733881741816;-6.4199;0.2339;-2.5289;
2502733891848430;-4.9107;-0.5662;-4.3615;
2502733901930045;-10.7486;-2.3079;-6.6996;
2502733912036660;-11.6037;0.8183;-4.0597;
2502733922143274;-7.2368;0.0661;-3.8656;
2502733932264160;-8.6644;-0.5255;-5.7461;
2502733942370774;-9.9293;0.3823;-5.7006;
2502733952477389;-8.9758;0.9045;-4.3735;
2502733962579576;-8.3985;0.4998;-4.5891;
2502733972686191;-10.5879;-0.1663;-2.5050;
2502733982792805;-9.1077;0.7681;-0.4137;
2502733992904576;-8.5448;-1.6828;-1.0008;
2502734003011191;-10.9211;-0.0224;-1.1180;
2502734013117805;-8.0225;-1.6059;-0.3849;
2502734023231035;-9.7950;-1.6609;-3.4681;
2502734033337649;-10.6600;-0.7890;-1.9588;
2502734043444264;-6.4893;-1.3615;-0.7277;
2502734053542805;-7.1459;-0.4801;-2.0163;
2502734063649420;-9.2345;-0.0009;-1.3098;
2502734073756035;-6.8007;1.1680;-1.2568;
2502734083869472;-7.0905;-0.5782;-3.1472;
2502734093976087;-6.0631;0.4493;-7.9427;
2502734104082701;-9.6706;-2.5618;-18.3248;
2502734114187701;-15.9180;-1.7569;-18.1526;
2502734124294316;-10.0131;0.9428;-6.0120;
2502734134400930;-3.4783;0.0757;0.0006;
2502734144510826;-7.9938;-0.2118;3.4645;
2502734154617441;-11.1535;3.9275;3.7519;
2502734164724055;-7.5912;3.2904;3.2010;
2502734174839785;-5.5792;2.3946;-3.9206;
2502734184946399;-11.8744;0.0637;-14.7796;
2502734195053014;-12.5453;0.8088;-16.1809;
2502734205147910;-7.2751;3.0126;-9.4591;
2502734215254524;-5.7924;1.5395;-7.1524;
2502734225361139;-10.3463;0.1546;-4.9412;
2502734235466243;-10.0732;1.5754;-2.5744;
2502734245572857;-10.7533;2.1742;-1.9181;
2502734255679472;-10.4013;2.0952;0.5898;
2502734265792389;-8.3004;2.7419;0.0772;
2502734275899003;-12.1522;1.4004;-1.7049;
2502734286005618;-11.1966;-0.4872;-0.6269;
2502734296109993;-8.7820;-1.9893;-0.5121;
2502734306216607;-9.3377;-1.1171;-1.3887;
2502734316323222;-10.3149;-0.1687;-2.1505;
2502734326429628;-6.0078;0.6649;-5.6073;
2502734336536243;-7.6152;1.1321;-6.1606;
2502734346642857;-10.2263;1.4387;-4.5054;
2502734356748222;-6.2306;0.2698;-4.1530;
2502734366854837;-7.8787;-0.0849;-4.1195;
2502734376961451;-10.8203;-0.3170;-3.6332;
2502734387083430;-9.9150;0.1977;-1.7384;
2502734397190045;-6.6284;-0.5758;-0.4953;
2502734407296660;-8.0201;0.7418;-2.4930;
2502734417392128;-15.8294;0.3320;-4.5461;
2502734427498743;-10.8132;0.6242;-0.2438;
2502734437605357;-7.9002;-0.3266;0.6114;
2502734447718743;-6.6308;-0.7627;-2.1123;
2502734457825357;-11.3306;0.9787;-4.0406;
2502734467931972;-8.0895;-0.0033;-5.7963;
2502734478026451;-9.0239;0.1881;-7.2434;
2502734488133066;-10.8156;-0.7436;-5.1640;
2502734498239680;-10.4611;-1.6875;-4.2371;
2502734508342180;-8.2597;-1.8790;-5.1592;
2502734518448795;-10.4707;-1.7880;-4.0908;
2502734528555410;-9.6730;-1.0190;-4.2036;
2502734538666451;-7.0355;-2.0037;-3.8393;
2502734548773066;-7.8882;-0.9042;-4.7785;
2502734558879680;-10.0179;-0.1137;-5.9928;
2502734568983014;-11.2540;-0.5830;-4.3854;
2502734579089628;-7.2488;0.9643;-2.0091;
2502734589196243;-7.6176;0.3535;-2.7206;
2502734599296243;-13.3956;1.9825;-3.1181;
2502734609402857;-10.4779;2.3707;-1.0080;
2502734619509472;-5.9360;0.7920;-1.3552;
2502734629649368;-7.2440;0.8279;-2.8187;
2502734639755982;-9.3449;2.2340;-3.9688;
2502734649862597;-9.3185;1.6280;-4.3543;
2502734659960514;-8.8418;1.2637;-3.8871;
2502734670067128;-9.6012;1.4004;-4.1674;
2502734680173743;-7.6825;0.3799;-3.9449;
2502734690265618;-10.8443;0.3488;-5.1808;
2502734700372232;-11.9151;0.6769;-2.3782;
2502734710478847;-6.0269;-0.0535;-1.4557;
2502734720583326;-9.7735;-0.7771;-5.3701;
2502734730689941;-14.2005;0.6051;-3.4729;
2502734740796555;-6.8462;0.6864;-1.5757;
2502734750927285;-5.4712;-0.4657;-3.4059;
2502734761033899;-14.1335;1.5248;-5.5762;
2502734771140514;-9.0072;1.4267;-5.2095;
2502734781237180;-7.2512;0.8710;-3.7029;
2502734791343795;-14.5717;1.4004;-3.7866;
2502734801450410;-9.1531;0.6482;-1.6164;
2502734811564785;-6.3506;0.8758;-0.4642;
2502734821671660;-9.4525;0.8447;-4.4910;
2502734831778587;-9.1029;2.1431;-6.6589;
2502734841906868;-7.8978;2.2914;-5.4682;
2502734852013743;-6.9613;1.3119;-3.3482;
2502734862120670;-7.6944;1.6137;-7.0134;
2502734872191451;-11.6782;1.5320;-4.3424;
2502734882298326;-6.5683;1.1417;-2.9243;
2502734892405253;-4.1680;-0.1041;-4.7040;
2502734902514368;-12.8255;-0.0200;-7.3152;
2502734912621243;-12.2363;-1.5173;-2.8837;
2502734922728170;-4.2114;-2.6743;-1.6379;
2502734932834628;-7.7160;-3.9081;-2.1649;
2502734942941503;-9.7280;-2.5211;-4.6968;
2502734953048430;-6.9135;-0.8584;-4.7665;
2502734963156243;-5.2460;-0.9903;-6.1941;
2502734973263118;0.7857;0.3559;-9.1190;
2502734983370045;-21.1140;2.5262;-8.0650;
2502734993477493;-40.8216;2.8615;2.4751;
2502735003584368;-5.7538;-1.0143;13.9328;
2502735013691295;7.6825;-2.8373;13.1279;
2502735023798014;-15.8390;-1.6131;-4.6178;
2502735033904889;-21.5617;2.0207;-8.9584;
2502735044011816;-6.5803;3.5803;-1.7001;
2502735054118118;1.2673;1.9035;-3.1062;
2502735064224993;-6.0078;1.6280;-9.2554;
2502735074331920;-13.6687;3.8581;-9.1549;
2502735084440878;-6.4989;3.3359;-6.5079;
2502735094547753;-2.9919;1.1369;-3.8632;
2502735104654680;-12.8877;2.0136;-3.4298;
2502735114769785;-11.2828;2.3010;0.3793;
2502735124876660;-4.8891;0.3727;-0.0473;
2502735134983587;-10.0250;-0.4059;-1.8846;
2502735145093118;-11.7523;0.5812;-1.8942;
2502735155199993;-5.9551;0.4181;-2.3495;
2502735165306920;-10.9140;0.1259;-1.7121;
2502735175422805;-10.8395;1.2903;-1.4031;
2502735185529680;-9.4167;1.1919;-0.3993;
2502735195636607;-5.6175;0.4878;1.0738;
2502735205729368;0.4265;0.6817;-11.8475;
2502735215836243;-19.2431;0.7271;-26.4434;
2502735225943170;-20.3234;4.1982;-12.8967;
2502735236049264;3.4208;1.7931;0.0485;
2502735246156139;-4.4028;-2.3127;-0.7083;
2502735256263066;-18.2943;-0.2740;-2.1170;
2502735266373014;-12.0254;1.3190;0.9805;
2502735276479889;-2.8579;-0.9592;4.3798;
2502735286586816;-4.7910;-2.7389;-4.3184;
2502735296690618;-14.0471;-1.4216;-6.6350;
2502735306797493;-9.4884;2.0112;-2.2510;
2502735316904420;-3.6266;0.5668;-4.0310;
2502735327011972;-11.5989;0.8686;-11.2582;
2502735337118847;-12.2483;2.9312;-6.6470;
2502735347225774;-4.9274;1.3310;-4.0071;
2502735357322910;-9.9772;0.3392;-4.5413;
2502735367429785;-12.9332;1.6950;-2.0692;
2502735377536712;-10.0131;0.7080;-0.5599;
2502735387669889;-5.2606;-0.6120;-0.4256;
2502735397776764;-10.9522;0.0254;-4.0286;
2502735407883691;-12.0087;1.4889;-2.8379;
2502735417965410;-6.5635;-0.0105;-1.7815;
2502735428072285;-8.5065;-0.0344;-1.0247;
2502735438179212;-8.9327;-0.1280;-2.7039;
2502735448315930;-6.3000;0.8279;-4.4791;
2502735458422805;-9.1603;0.8399;-6.4074;
2502735468529732;-12.8638;0.7848;-5.6240;
2502735478601139;-11.3019;0.5189;-4.5413;
2502735488708014;-4.5060;-0.1639;-2.3157;
2502735498814941;-9.3999;0.3272;-4.2514;
2502735508922128;-12.5716;0.3320;-4.2108;
2502735519029003;-6.9924;0.8853;-1.8942;
2502735529135930;-7.0546;-0.8755;-2.5768;
2502735539248795;-9.1173;0.3129;-3.6308;
2502735549355670;-13.0986;0.3655;-5.0898;
2502735559462597;-9.7567;0.0039;-3.6500;
2502735569565305;-5.0856;-0.8321;-2.2104;
2502735579672180;-10.7964;-1.1653;-4.3472;
2502735589779055;-12.7681;-0.4298;-1.2544;
2502735599907597;-8.4849;-0.1041;-0.5958;
2502735610014472;-5.1981;-0.9544;-0.2533;
2502735620121399;-8.2047;-0.5016;-2.8499;
2502735630189785;-13.4961;1.0220;-4.6561;
2502735640296660;-8.9423;0.7537;-1.3217;
2502735650403587;-4.6472;0.0685;-2.0091;
2502735660517597;-12.4684;-0.0802;-5.8445;
2502735670624472;-13.6017;2.0183;-3.9350;
2502735680731399;-5.8953;2.4951;-1.0869;
2502735690854368;-2.0411;-0.4513;-4.7665;
2502735700961243;-6.2809;0.7896;-7.7895;
2502735711068170;-18.8142;4.3756;-4.8646;
2502735721171295;-16.1192;2.6964;-0.4594;
2502735731278170;-2.9297;0.2076;4.5592;
2502735741385097;-4.6496;-0.9832;-0.6580;
2502735751510618;-14.8256;0.6314;-6.0864;
2502735761617493;-10.9857;3.3646;-1.5685;
2502735771724420;-3.5285;0.4974;-1.9158;
2502735781816868;-8.7867;-0.6574;-5.4108;
2502735791923743;-12.9428;2.1933;-4.2084;
2502735802030670;-8.5496;1.4506;-3.9230;
2502735812130305;-5.1574;0.3751;-3.1831;
2502735822237024;-11.0240;0.0015;-3.7172;
2502735832343795;-14.3465;0.7848;-2.6058;
2502735842458743;-6.0389;-0.0511;-0.1047;
2502735852565462;-10.7055;-0.8946;-3.2644;
2502735862672232;-11.9895;-0.0200;-2.4452;
2502735872775097;-6.8294;-0.3099;-1.1515;
2502735882881816;-8.8131;-1.5341;-2.7757;
2502735892988587;-11.4434;-0.7244;-0.5910;
2502735903093795;-6.8127;0.6984;-4.3256;
2502735913200514;-9.2369;-2.0827;-7.3965;
2502735923307285;-10.6074;0.0278;-9.2916;
2502735933411451;-9.3114;0.6793;-2.8475;
2502735943518170;-2.4577;-0.1591;-1.9923;
2502735953624941;-7.9217;-1.7282;-5.8612;
2502735963738743;-16.7133;0.5046;-5.4562;
2502735973845462;-8.4607;0.1714;-0.6891;
2502735983952232;-3.3368;-1.4097;-2.1338;
2502735994056868;-13.0675;-0.6814;-5.2621;
2502736004163587;-12.0972;2.0495;-2.2104;
2502736014270357;-7.5266;1.3765;-3.4011;
2502736024382128;-6.6787;-0.1950;-4.5461;
2502736034488847;-8.3363;0.4062;-6.7786;
2502736044595618;-12.4854;1.8652;-6.9105;
2502736054697910;-7.9890;3.3048;-1.5900;
2502736064804628;-8.5496;1.7142;-2.5409;
2502736074911399;-11.5965;1.9825;-3.3003;
2502736085016764;-8.3004;2.1072;-1.5494;
2502736095123482;-6.1828;1.4578;-3.2189;
2502736105230253;-8.5448;1.4171;-5.5953;
2502736115360722;-13.2903;3.4869;-3.9063;
2502736125467441;-10.6816;3.9467;0.3120;
2502736135574212;-5.7730;2.0447;-2.3157;
2502736145682389;-6.7313;0.6482;-4.1841;
2502736155789107;-5.5648;1.6328;-5.5232;
2502736165895878;-14.3393;3.4487;-6.2348;
2502736175994576;-15.5635;3.1298;-3.1663;
2502736186101295;-6.1158;1.2736;0.2689;
2502736196208066;-6.0607;0.5524;-0.6820;
2502736206310722;-10.4587;0.3033;-3.3505;
2502736216417441;-10.6122;0.8064;-4.2395;
2502736226524212;-8.9040;-0.0224;-3.4920;
2502736236631660;-6.3266;-0.0464;-5.0994;
2502736246738378;-11.6468;0.1762;-5.1425;
2502736256845149;-12.8973;1.5730;0.0078;
2502736266952805;-4.1898;-0.1089;0.7528;
2502736277059524;-6.1923;-1.8574;-4.9196;
2502736287166295;-14.1479;-0.5566;-7.1644;
2502736297271243;-12.3320;0.1499;-3.5303;
2502736307377962;-4.3765;-0.7531;-2.1888;
2502736317484732;-10.0633;-2.3222;-1.2305;
2502736327578326;-6.9685;-1.4288;-1.9158;
2502736337685045;-8.1135;-2.0970;-6.6733;
2502736347791816;-16.1528;-0.6694;-8.0004;
2502736357909680;-10.9044;0.6194;-0.6700;
2502736368016399;-4.3717;-0.5518;-1.2353;
2502736378123170;-11.7308;-0.7890;-2.0569;
2502736388231035;-9.5653;0.1499;1.1097;
2502736398337753;-7.6415;1.2565;-3.1229;
2502736408444524;-8.3100;1.0986;-3.5614;
2502736418545514;-9.2632;1.3645;-6.0359;
2502736428652232;-10.2622;1.5730;-5.5184;
2502736438759003;-8.4033;1.2422;-1.3552;
2502736448846972;-9.2249;0.7633;-2.6895;
2502736458953691;-8.4009;0.5501;-5.1090;
2502736469060462;-7.7686;1.1847;-3.8201;
2502736479176660;-9.8192;1.3143;-2.7757;
2502736489283378;-13.5562;0.9523;-1.9995;
2502736499390149;-9.2106;1.3430;-0.7253;
2502736509506243;-2.7069;1.3238;-3.4753;
2502736519612962;-8.8035;1.1465;-6.8480;
2502736529719732;-15.2115;1.9920;-3.8130;
2502736539874003;-10.5640;0.2171;-1.1898;
2502736549980722;-6.6835;0.8925;-1.0965;
2502736560087493;-7.1240;0.5213;-1.8344;
2502736570158951;-8.4945;0.3942;-6.2515;
2502736580265670;-11.4458;0.0781;-5.7126;
2502736590372441;-4.5395;-0.4968;-3.8512;
2502736600501764;-11.3713;0.3655;-5.0348;
2502736610608482;-20.5056;-0.9975;-1.3839;
2502736620715253;-8.5328;-0.6598;4.5281;
2502736630777076;-3.0661;-1.7139;1.9579;
2502736640883795;-14.8567;-1.0167;-5.7485;
2502736650990566;-11.1727;-1.0478;-4.6226;
2502736661110305;-6.3745;-0.9473;-2.6632;
2502736671217024;-6.7648;-0.3796;-2.9770;
2502736681323795;-9.5172;-0.0730;-5.2621;
2502736691436764;-8.1470;0.4950;-6.5438;
2502736701543482;-6.4917;0.6242;-6.1845;
2502736711650253;-9.5219;1.7261;-8.3524;
2502736721749055;-12.5907;2.3369;-4.5293;
2502736731855774;-6.8246;1.4578;-0.5240;
2502736741962545;-6.0703;0.3727;-1.6690;
2502736752074785;-9.1962;0.6362;-1.3648;
2502736762181503;-8.5496;-0.5853;-6.5031;
2502736772288274;-15.4989;0.2052;-9.5166;
2502736782432597;-12.4229;2.0518;-4.8455;
2502736792539316;-2.8747;1.2182;-1.5900;
2502736802646087;-6.9302;1.4267;-2.2965;
2502736812721139;-17.7290;0.5907;-3.8656;
2502736822828066;-7.2512;-0.3099;0.4032;
2502736832934993;-1.4324;-1.1243;-2.2941;
2502736843033743;-9.0024;-1.2132;-6.1678;
2502736853140670;-16.1886;0.1810;-4.9962;
2502736863247597;-9.0407;-0.2620;-3.1277;
2502736873354264;-5.5528;-0.6168;-2.2989;
2502736883461191;-8.2980;0.7848;-2.9578;
2502736893568118;-8.4583;1.7501;-3.5231;
2502736903683795;-12.6673;1.7524;-5.6575;
2502736913790722;-9.1340;2.3369;-1.9062;
2502736923897649;-6.7983;2.7275;-2.1099;
2502736934006660;-8.0728;1.3980;-2.2128;
2502736944113587;-11.3809;2.9240;-2.2582;
2502736954220514;-8.1350;1.1824;-2.0043;
2502736964323743;-6.2474;2.2340;-2.2128;
2502736974430670;-13.7955;1.5344;-3.5638;
2502736984537597;-10.2479;2.6844;-0.1573;
2502736994646764;-4.4076;-0.1256;-0.1214;
2502737004753691;-10.5736;0.2363;-1.5398;
2502737014860618;-8.9207;-0.6742;-3.5183;
2502737024962597;-12.5213;-0.4466;-1.3600;
2502737035069524;-9.4645;-2.1616;-3.5040;
2502737045176451;-6.2306;-0.1878;-1.9277;
2502737055289889;-8.9136;-0.3242;-1.4916;
2502737065396816;-12.8925;-1.3902;0.1540;
2502737075503743;-26.4655;-1.3687;-1.8033;
2502737085605201;-10.3798;-0.1256;5.7356;
2502737095712128;4.7336;-0.6191;2.8944;
2502737105819055;-9.5797;-0.8608;-5.7461;
2502737115927076;-13.5153;1.2135;-8.7622;
2502737126034003;-10.3367;0.7370;-8.4075;
2502737136140930;-8.4897;0.3392;-5.1401;
2502737146262128;-5.0809;0.5405;-2.8187;
2502737156369055;-7.7495;1.0507;-2.2750;
2502737166475982;-9.2106;0.7872;-3.5423;
2502737176577076;-15.1322;1.3071;-4.1674;
2502737186684003;-9.5438;0.9858;-0.8856;
2502737196790930;0.0048;1.2637;2.8681;
2502737206895826;-8.3339;-0.9568;-4.9555;
2502737217002753;-17.8223;1.3310;-10.5203;
2502737227109680;-8.0154;1.8102;-9.7992;
2502737237214055;-6.0461;1.3454;-5.2744;
2502737247320982;-9.9628;0.7199;-3.9903;
2502737257427910;-14.5406;0.4421;-2.1123;
2502737267546764;-6.9494;-0.5016;2.0943;
2502737277653691;-4.8078;-1.0884;-1.4988;
2502737287760618;-11.4793;-0.9185;-4.9938;
2502737297843222;-11.6181;0.9356;-5.2382;
2502737307950149;-8.9016;0.5548;-2.9028;
2502737318057076;-3.6218;-0.3147;-3.4226;
2502737328162701;-11.0623;0.5357;-4.8957;
2502737338269628;-17.7817;0.8255;-1.8583;
2502737348376555;2.7500;1.6017;-2.2869;
2502737358481972;-5.2268;0.1020;-7.4495;
2502737368588899;-15.5109;0.7777;-9.4998;
2502737378695826;-11.6013;1.2374;-5.2430;
2502737388801243;-7.7112;1.1225;-2.7517;
2502737398908170;-11.6683;0.3727;0.2904;
2502737409015097;-8.1087;1.0962;-0.2821;
2502737419123535;-7.1913;0.2483;-1.8081;
2502737429230462;-14.6294;1.1608;-3.5638;
2502737439337389;-11.3809;0.4684;-2.2774;
2502737449470201;-3.0948;0.3081;-1.2930;
2502737459577128;-6.3960;-0.6215;-3.8728;
2502737469684055;-12.9117;-0.5542;-6.9272;
2502737479780201;-11.7858;1.2494;-5.8253;
2502737489887128;-6.3984;0.3583;-0.0544;
2502737499994055;-4.4387;-1.1677;-0.9837;
2502737510084264;-10.5329;-1.3065;-3.6236;
2502737520191191;-9.9724;-0.9927;-4.8933;
2502737530298118;-8.9662;-0.2835;-5.1090;
2502737540436555;-10.7055;-0.2955;-4.1746;
2502737550543482;-11.3569;-0.5064;-0.7875;
2502737560650410;-8.3219;-0.1376;-0.5312;
2502737570721555;-10.5185;-1.1004;-0.2103;
2502737580828482;-10.5903;-0.4418;-1.8823;
2502737590935410;-8.7915;0.1522;-2.5986;
2502737601034889;-6.7816;0.1259;-2.6967;
2502737611141816;-11.2182;-0.7962;-4.5628;
2502737621248743;-14.4544;0.1044;-4.2251;
2502737631389368;-5.1550;0.4086;-0.0999;
2502737641496295;-6.2689;-0.7077;-0.8617;
2502737651603222;-3.7777;-0.7292;-6.0431;
2502737661697545;-10.9570;0.1786;-5.4060;
2502737671804472;-13.1465;0.2578;-4.6944;
2502737681911399;-0.8336;0.4038;-3.4226;
2502737692016295;-26.9399;0.0446;-0.9287;
2502737702123222;-24.1849;3.1107;4.5353;
2502737712230149;3.0135;1.4363;7.9633;
2502737722337493;-1.2144;-0.1496;0.9087;
2502737732444420;-14.0303;-0.5830;-10.5802;
2502737742551347;-17.4847;0.3799;-9.7514;
2502737752667128;-5.2508;1.6759;-4.6513;
2502737762774055;-5.3180;0.0398;-2.7996;
2502737772880982;-7.9986;0.4086;-3.8273;
2502737783003222;-12.9404;1.0196;-2.3423;
2502737793110149;-4.4868;0.5309;3.3449;
2502737803170618;-5.4162;-0.2524;-4.9699;
2502737813277545;-12.3799;-0.5399;-1.4629;
2502737823384472;-3.4783;0.0326;-6.9177;
2502737833520618;-12.8519;-0.4681;-18.9646;
2502737843627545;-13.5033;2.0471;-5.1544;
2502737853734472;-4.0603;0.8447;0.5300;
2502737863842701;-8.7915;-0.9042;-1.5661;
2502737873949628;-13.6591;-0.3218;0.0389;
2502737884056555;-14.7419;-0.2477;-0.1382;
2502737894168326;-6.7552;0.4421;0.9182;
2502737904275253;-2.0650;-0.9353;-1.7169;
2502737914382180;-15.9709;0.0781;-7.5476;
2502737924476295;-13.4770;-0.3075;-1.0654;
2502737934583222;-3.3176;0.6410;2.2406;
2502737944690149;-7.3397;-1.0047;-2.6297;
2502737954799785;-12.0446;0.4564;-3.9616;
2502737964906712;-7.4907;0.7609;-3.1253;
2502737975013639;-8.3865;-0.2620;-5.8325;
2502737985125826;-9.5195;0.0781;-4.7545;
2502737995232753;-9.4382;1.0699;-2.2654;
2502738005339680;-8.5687;-0.1639;-4.7064;
2502738015442597;-11.6085;0.7104;-3.0057;
2502738025549524;-7.9484;0.0517;-1.0463;
2502738035656451;-6.6595;1.3789;-1.9612;
2502738045754785;-10.1426;-0.1735;-4.1172;
2502738055861712;-11.4123;0.9643;-4.4453;
2502738065968639;-9.7161;0.2001;-3.4585;
2502738076086347;-7.9962;0.5812;-2.5313;
2502738086193274;-5.8546;1.1345;-2.8932;
2502738096300201;-11.1054;-0.6718;-4.5461;
2502738106403639;-13.5224;0.9141;-3.9377;
2502738116510566;-7.8619;0.1235;-0.7469;
2502738126617493;-5.0641;0.1905;-3.4944;
2502738136728743;-9.9461;0.3823;-4.4477;
2502738146835670;-14.4257;1.6974;-3.3123;
2502738156942597;-9.3975;0.7537;-0.7756;
2502738167046868;-7.5936;-0.1807;-0.0042;
2502738177153795;-9.4908;0.4493;-3.0679;
2502738187260722;-9.9987;0.8183;-2.4715;
2502738197369368;-2.8217;0.1857;-4.1387;
2502738207476295;-11.0025;-0.3580;-7.8374;
2502738217583222;-14.2005;0.4158;-4.1172;
2502738227688535;-7.0427;1.2159;-1.5757;
2502738237795462;-8.7099;-0.1017;-3.6404;
2502738247902389;-12.0876;0.4854;-1.4390;
2502738258003639;-8.5615;0.4783;0.2210;
2502738268110566;-5.2750;-0.1831;-2.5074;
2502738278217493;-11.1126;-0.1926;-6.4098;
2502738288351972;-10.0250;0.4181;-4.6801;
2502738298458899;-6.2713;0.4469;-3.9473;
2502738308565826;-5.7514;-0.1735;-5.5017;
2502738318642076;-12.1259;-0.0296;-5.7987;
2502738328749003;-12.6577;1.2182;-1.0845;
2502738338855930;-6.9805;0.7175;-2.1649;
2502738348953847;-8.6644;-0.1496;-2.9961;
2502738359060774;-10.9618;0.0206;-0.9191;
2502738369167701;-11.1341;0.4759;-2.3423;
2502738379289160;-11.3498;-0.0706;-1.7719;
2502738389396087;-8.5137;-0.1496;-0.1813;
2502738399503014;-9.2803;0.2435;-2.1625;
2502738409627701;-10.4085;-0.1089;-2.8140;
2502738419734628;-5.1263;-0.1496;-2.0931;
2502738429841555;-9.8527;-0.4226;-5.5857;
2502738439943014;-10.0346;-0.1807;-3.9760;
2502738450049941;-4.4076;0.4373;-5.1855;
2502738460156868;-12.4660;-0.4298;-6.2037;
2502738470254993;-10.1928;0.7080;-1.3146;
2502738480361920;-7.7782;0.3703;-0.3562;
2502738490468847;-12.5477;-0.1950;-2.5959;
2502738500554785;-7.6705;0.6075;-1.8631;
2502738510661712;-7.0594;0.1570;-4.0621;
2502738520768639;-6.5204;-0.0057;-5.4323;
2502738530890514;-0.8647;-0.0392;-7.3893;
2502738540997441;-13.2709;0.2746;-7.8948;
2502738551104368;-38.9964;2.7730;1.4955;
2502738561202076;-10.0466;3.2856;10.1958;
2502738571309003;6.5734;-0.0176;8.0279;
2502738581415930;-7.1865;-2.7389;-1.9373;
2502738591526451;-17.1948;0.1211;-11.1864;
2502738601633378;-7.4907;1.9322;-6.5892;
2502738611740305;-2.6566;1.4124;-7.0516;
2502738621846555;-10.3149;-0.5136;-7.9717;
2502738631953482;-9.3138;0.7801;-1.5613;
2502738642060410;-5.2558;0.2818;-1.3122;
2502738652170410;-9.4382;0.0924;-0.3586;
2502738662277337;-3.4807;-0.9640;1.0522;
2502738672384264;-10.8347;-0.9855;-19.1034;
2502738682483951;-19.2503;0.4134;-14.0656;
2502738692590878;-10.6720;2.4664;4.3220;
2502738702697805;-5.5505;0.9954;1.6678;
2502738712805930;-4.5514;-1.0286;0.1588;
2502738722912857;-14.6629;0.2387;-0.4089;
2502738733019785;-14.3034;0.5668;1.3947;
2502738743123847;-1.7967;-0.1687;-1.5012;
2502738753230774;-10.0011;-1.7282;-6.3547;
2502738763337701;-15.1322;0.4445;-2.2032;
2502738773452910;-4.9442;0.8566;-0.6676;
2502738783559837;-6.9852;-0.4777;-4.2802;
2502738793666764;-11.0839;-0.1208;-2.6034;
2502738803774576;-8.5017;0.2243;-1.0391;
2502738813881660;-9.5605;0.5740;-7.5188;
2502738823988691;-13.0603;0.3057;-4.8838;
2502738834090618;-9.0574;0.8542;2.5137;
2502738844197701;-5.0139;0.2841;-1.8320;
2502738854304732;-7.6032;-1.3065;-4.5389;
2502738864414576;-9.1890;0.2459;-3.5399;
2502738874521660;-16.8189;0.4277;-5.8083;
2502738884628743;-9.8480;1.6328;-2.0163;
2502738894749785;-2.6064;0.5405;0.8318;
2502738904856868;-9.3257;-0.3266;-3.4466;
2502738914963899;-13.4028;0.4253;-3.3075;
2502738925052180;-10.0657;1.6041;-1.9134;
2502738935159264;-8.7796;0.5189;-3.5518;
2502738945266295;-5.0234;-0.0969;-1.6522;
2502738955373587;-6.9254;0.3942;-5.6169;
2502738965480670;-15.4295;-0.0009;-4.5843;
2502738975587701;-11.6300;1.3214;0.4367;
2502738985686399;-4.8724;1.7883;-1.3265;
2502738995793482;-13.5778;0.3894;-5.0659;
2502739005900514;-10.5449;1.9513;-0.7875;
2502739016016087;-2.0698;0.9188;-0.0018;
2502739026123170;-7.0211;-0.0344;-7.8948;
2502739036230201;-13.5392;-0.3123;-5.6862;
2502739046338118;-15.0389;1.9250;-1.7073;
2502739056445201;-6.7170;1.4937;0.4080;
2502739066552232;-3.6338;-0.7938;-0.4786;
2502739076659003;-11.6444;0.2794;-5.2935;
2502739086766087;-13.0651;0.7175;-5.6073;
2502739096873118;-5.8618;1.2422;-2.3758;
2502739106977910;-3.3826;0.8758;-4.4839;
2502739117084993;-4.8604;0.0135;-7.8924;
2502739127192024;-28.4608;1.6902;-2.8570;
2502739137300462;-24.8222;4.4426;9.1947;
2502739147407545;4.3935;1.1680;12.0811;
2502739157514576;1.4853;-1.6923;-1.8583;
2502739167616868;-16.2488;-2.9713;-13.6155;
2502739177723951;-10.7749;-0.6574;-6.5797;
2502739187831035;-6.2737;1.8867;-2.7948;
2502739197944628;-12.9165;-0.6383;-1.8535;
2502739208051712;-10.1091;-0.0033;2.2956;
2502739218158743;-9.5076;0.7825;3.3951;
2502739228263639;-10.8852;-0.5830;1.1264;
2502739238370722;-5.2340;-1.8048;2.1182;
2502739248477805;-8.4559;-0.1735;-11.3970;
2502739258585045;-18.4430;-0.7675;-13.7495;
2502739268692128;-8.8466;-0.0129;1.8571;
2502739278799160;-2.3812;-0.5495;2.5711;
2502739288918430;-9.1029;-0.4920;-2.2654;
2502739299025514;-16.7324;-0.0129;0.2593;
2502739309132597;-8.9853;-0.1543;3.6658;
2502739319226868;-4.9298;-0.7340;-0.2629;
2502739329333951;-8.7194;-0.8898;-5.1209;
2502739339441035;-17.3172;-0.2166;-3.8058;
2502739349545930;-7.8787;0.8566;0.4702;
2502739359653014;-4.5945;0.2076;-1.6259;
2502739369760045;-9.1412;-0.6287;-4.8957;
2502739379861555;-12.0661;0.7896;-1.9469;
2502739389968639;-9.5749;1.3310;-4.6609;
2502739400075722;-10.9403;1.2015;-3.7388;
2502739410204160;-7.4572;0.6410;1.6558;
2502739420311243;-6.6332;1.5538;-1.3217;
2502739430418326;-8.2190;0.3966;-3.7795;
2502739440532597;-12.3942;0.6482;-3.6380;
2502739450639680;-7.6582;1.6926;-3.1400;
2502739460746712;-9.3903;-0.1065;-3.2381;
2502739470845930;-12.1164;1.0244;-3.7268;
2502739480953014;-8.1135;1.1321;-0.1478;
2502739491060045;-7.6032;1.0747;-0.5527;
2502739501166347;-13.3406;0.9284;-4.7952;
2502739511273430;-14.3874;1.1536;-3.3960;
2502739521380462;-4.0196;0.6123;1.9481;
2502739531472493;-1.8182;0.6721;-2.0812;
2502739541579576;-13.6735;-0.0392;-6.5677;
2502739551686607;-13.1824;-0.2907;-0.5216;
2502739561787493;-9.5653;0.7199;0.3625;
2502739571894576;-11.0456;0.5070;-0.9455;
2502739582001607;-7.2751;-1.5365;-0.6293;
2502739592116035;-11.6707;-0.7125;-1.6499;
2502739602223118;-9.6969;-0.8707;-3.5949;
2502739612330149;-10.0179;-0.5471;-4.4189;
2502739622431712;-9.2225;-1.1076;-2.9267;
2502739632538795;-11.3545;1.4722;-1.9421;
2502739642645826;-8.2262;-0.3700;-0.7107;
2502739652756035;-10.7222;0.3583;0.0341;
2502739662863118;-9.5124;0.3344;-0.6508;
2502739672970149;-8.0632;-0.3915;-1.6259;
2502739683078743;-4.5778;-0.3051;-5.6862;
2502739693185826;-11.0384;-1.0645;-7.1692;
2502739703292857;-12.6769;-0.0802;-4.8526;
2502739713391035;-12.4062;0.9763;-3.0033;
2502739723498118;-9.9317;-0.1735;1.3660;
2502739733605149;-6.1516;0.3751;2.0058;
2502739743717597;-8.5113;-0.4298;-0.1836;
2502739753824680;-11.6731;0.4373;-3.0655;
2502739763931712;-10.1186;-0.5040;-3.2668;
2502739774041868;-10.3534;0.3799;-2.3157;
2502739784148951;-7.5864;-0.7149;-1.2114;
2502739794255982;-10.6050;-0.0897;-1.1731;
2502739804360878;-10.7940;0.0757;1.4333;
2502739814467805;-4.7288;-0.3532;-3.3888;
2502739824574785;-13.7166;-0.0296;-7.0373;
2502739834682545;-11.7739;0.3320;-2.2822;
2502739844789472;-4.8604;1.7118;-2.3471;
2502739854896451;-10.0011;-0.6359;-2.6680;
2502739864997128;-11.9055;1.0125;-1.0199;
2502739875104055;-10.2215;0.8231;0.8055;
2502739885211035;-9.0479;0.9308;-1.3911;
2502739895333118;-9.9078;-0.1161;-1.6403;
2502739905440045;-5.6222;0.6625;-2.2582;
2502739915547024;-6.8847;-0.0511;-4.5772;
2502739925648378;-16.0738;0.7705;-6.6159;
2502739935755305;-10.3893;1.1273;0.1947;
2502739945862285;6.8847;0.2865;-0.3323;
2502739955958951;-20.9916;-0.2764;-6.2779;
2502739966065878;-33.2925;2.4018;1.8380;
2502739976172857;-1.9451;1.9968;9.4220;
2502739986285410;7.1842;-1.5796;3.3018;
2502739996392337;-8.6764;-1.6394;-8.8412;
2502740006499316;-16.1815;-0.0730;-9.1167;
2502740016608430;-8.8322;0.8734;-2.1338;
2502740026715357;-4.6352;1.3525;-3.8345;
2502740036822337;-11.7954;0.2865;-3.6619;
2502740046924993;-11.6276;0.4783;0.6428;
2502740057031920;-10.3244;1.1895;1.2942;
2502740067138899;-10.8180;-0.3027;5.5319;
2502740077245826;0.5198;0.0948;-1.7240;
2502740087352753;-14.9695;-0.1735;-17.7212;
2502740097459732;-19.3244;-0.0993;-6.3138;
2502740107570305;-0.3808;1.6759;7.4602;
2502740117677232;-1.9714;0.2602;-0.1430;
2502740127784212;-20.7906;-0.2237;-1.6594;
2502740137885826;-14.2843;0.8160;2.0847;
2502740147992753;-5.1359;0.4735;3.1340;
2502740158099732;-4.7336;-0.5710;-2.4021;
2502740168217493;-13.4435;-0.5901;-4.8096;
2502740178324420;-10.0059;0.5812;-2.4739;
2502740188431399;-5.0593;-0.1256;-3.6165;
2502740198528378;-14.8232;0.7825;-3.5112;
2502740208635305;-11.3809;0.8447;1.2703;
2502740218742285;-5.4353;0.4373;-0.4762;
2502740228842128;-10.5832;0.1546;-2.0139;
2502740238949055;-8.3698;0.5764;-0.4041;
2502740249056035;-6.1325;1.2832;-6.9057;
2502740259165930;-11.5463;-0.1519;-6.4457;
2502740269272857;-10.0708;0.6458;-0.7684;
2502740279379837;-5.5143;0.4373;-1.7001;
2502740289479993;-13.5682;0.3559;-3.1807;
2502740299586920;-12.9571;-0.1280;0.5085;
2502740309693899;-6.0751;1.5105;1.1746;
2502740319863847;-7.6729;-0.1400;-2.0836;
2502740329970774;-9.2755;0.1618;-6.6613;
2502740340077753;-10.5353;-0.3987;-3.7484;
2502740350123118;-11.0647;1.2879;-3.7053;
2502740360230045;-7.8093;0.3775;-2.2415;
2502740370337024;-11.0743;0.6577;0.5420;
2502740380444368;-12.7561;1.0579;2.2020;
2502740390551295;-9.2106;0.6697;0.6018;
2502740400658274;-7.7806;-0.0511;-1.6762;
2502740410767180;-4.7264;0.0805;-3.7196;
2502740420874107;-14.0710;0.0852;-7.1115;
2502740430981087;-11.9366;0.4325;-1.7985;
2502740441113639;-6.6380;0.1929;-0.2055;
2502740451220566;-7.7279;0.4253;-3.1735;
2502740461327545;-13.6161;0.4038;-1.8057;
2502740471419368;-11.7547;1.3502;-1.7815;
2502740481526295;-6.1205;-0.1591;0.0604;
2502740491633274;-8.8872;0.2171;-1.7192;
2502740501727076;-14.5454;1.1393;-4.2419;
2502740511834003;-8.9231;0.3057;-2.4045;
2502740521940982;-9.3138;0.7442;-1.2018;
2502740532061035;-12.9619;0.7032;1.1722;
2502740542167962;-3.9742;0.4421;0.6114;
2502740552274941;-6.3601;-1.1533;-5.8325;
2502740562382389;-12.3535;0.3870;-7.2577;
2502740572489316;-9.9102;0.4660;-3.0081;
2502740582596295;-6.8776;1.0675;-2.0234;
2502740592699889;-11.8911;-0.0511;-2.2271;
2502740602806816;-13.2039;0.3894;0.3817;
2502740612913795;-5.6844;0.8040;0.4295;
2502740623021868;-7.9217;-0.3700;-4.6848;
2502740633128795;-13.3717;-0.3580;-2.1793;
2502740643235774;-9.5195;0.4540;-1.0893;
2502740653347128;-7.7495;-0.2070;-3.2477;
2502740663454055;-11.9414;-0.4274;-2.4715;
2502740673561035;-11.2804;0.2889;-0.2677;
2502740683664785;-6.5683;0.4062;-0.3371;
2502740693771712;-5.2244;-1.3400;-1.4557;
2502740703878691;-9.6180;-0.5447;-4.0813;
2502740714012701;-10.0851;-0.6455;-2.9937;
2502740724119628;-11.9318;0.5668;-4.5269;
2502740734226607;-12.6482;-0.1663;-1.4174;
2502740744307076;-8.3459;0.9954;2.2187;
2502740754414003;-4.6878;-0.3242;-0.0138;
2502740764520982;-10.6528;-0.8827;-4.5843;
2502740774636764;-16.0762;0.5931;-3.2070;
2502740784743691;-8.8633;0.6314;-0.6485;
2502740794850670;-7.9866;0.5094;-3.1831;
2502740804945097;-8.8729;0.4684;-0.6676;
2502740815052024;-6.6739;1.5344;-0.2725;
2502740825158899;-12.2674;0.5022;-1.6379;
2502740835265514;-8.3554;0.0637;-1.8942;
2502740845372441;-7.1722;1.1512;-3.0129;
2502740855479316;-13.2637;0.2698;-4.2897;
2502740865587180;-9.3138;1.6304;-3.3075;
2502740875694107;-6.2904;0.7466;-1.8799;
2502740885800982;-7.0403;0.2698;-1.8607;
2502740895910410;-11.2493;1.1369;-6.2803;
2502740906017337;-13.6065;1.3765;-4.4596;
2502740916124212;-2.6016;1.2230;-0.1023;
2502740926232649;-4.7360;0.9787;-2.7302;
2502740936339576;-32.4087;1.5802;0.3529;
2502740946446451;-15.5922;2.7873;7.2517;
2502740956558222;2.7981;-0.5566;6.3224;
2502740966665149;-0.1053;-1.6442;-2.2104;
2502740976772024;-11.5750;-0.8345;-10.5371;
2502740986873951;-11.9632;0.3799;-9.2195;
2502740996980878;-6.6811;1.1895;-4.7183;
2502741007087753;-9.0814;0.3799;-5.5881;
2502741017195097;-10.5018;0.6410;-1.3839;
2502741027302024;-8.2813;0.9332;0.8919;
2502741037408899;-13.5610;-0.5518;1.0642;
2502741047509055;-10.6409;0.1187;5.4649;
2502741057615982;-9.2608;0.8279;-5.7437;
2502741067722857;-16.0929;-0.6885;-11.5481;
2502741077832493;-4.7336;1.1058;-1.1922;
2502741087939420;-1.1210;0.0589;-0.8306;
2502741098046295;-13.0579;-0.4848;-4.0837;
2502741108165201;-14.9145;0.6051;0.0461;
2502741118272128;-7.0953;0.3966;1.1001;
2502741128379055;-6.2641;-0.8465;-0.5671;
2502741138476868;-9.4860;-0.0607;-2.8044;
2502741148583795;-12.2746;-0.0224;-3.0033;
2502741158690670;-8.6979;0.6170;-3.4490;
2502741168826868;-5.9623;-0.7460;-4.6442;
2502741178933795;-12.3033;0.7295;-6.3595;
2502741189040722;-14.7180;0.7394;-2.2415;
2502741199141972;-7.3469;1.0579;1.5338;
2502741209248899;-6.3096;0.0709;2.1015;
2502741219355774;-7.9026;-0.4250;-1.4103;
2502741229474160;-11.2373;-0.0320;-4.8239;
2502741239581087;-15.7624;0.7729;-1.8655;
2502741249687962;-4.5706;0.1331;1.4357;
2502741259765514;-6.1612;-0.2572;-1.8511;
2502741269872441;-14.4114;-0.6191;-3.9688;
2502741279979316;-10.5879;0.6123;-1.2329;
2502741290071868;-7.0020;0.8997;-1.3768;
2502741300178795;-8.5998;0.1857;-2.6225;
2502741310285670;-13.0938;1.1082;-3.9497;
2502741320420826;-8.7003;0.8279;-2.0498;
2502741330527753;-6.7241;0.9571;-2.8259;
2502741340634628;-12.4301;0.7032;-2.9841;
2502741350724107;-9.0503;1.4076;0.1995;
2502741360831035;-6.1253;-0.3724;-1.3744;
2502741370937910;-11.8313;0.4158;-3.5949;
2502741381095201;-13.6280;1.0101;-0.9000;
2502741391202128;-10.1713;0.2387;0.6834;
2502741401309003;-4.9971;0.8973;-1.5805;
2502741411368326;-8.4440;-1.2778;-2.0019;
2502741421475253;-11.9127;1.0675;-5.2214;
2502741431582128;-8.6883;0.0470;-2.8980;
2502741441688118;-8.9088;0.3511;-4.6681;
2502741451795045;-0.6682;0.1594;-4.2108;
2502741461901920;-22.1249;0.0350;-3.8034;
2502741472003118;-25.4522;2.3249;3.7902;
2502741482110045;-0.1101;1.5873;8.7179;
2502741492216920;-0.8121;-1.0262;-0.2581;
2502741502322389;-11.6252;-1.4121;-7.1907;
2502741512429316;-10.8156;0.5213;-6.4289;
2502741522536191;-4.8269;-0.1998;-5.4419;
2502741532650410;-7.8093;-0.2309;-5.3773;
2502741542757337;-10.8156;0.3200;-4.8670;
2502741552864212;-11.2493;0.5524;-1.3504;
2502741562961868;-6.8462;0.6147;-2.1123;
2502741573068795;-11.4123;-0.3099;0.8486;
2502741583175670;-4.5275;-0.5734;3.7184;
2502741593286555;-11.5343;0.6960;-13.3950;
2502741603393482;-21.5043;-0.4633;-6.8288;
2502741613500357;-5.0569;1.7716;6.7630;
2502741623612493;-3.9909;1.7812;-2.3109;
2502741633719420;-13.2422;-1.2036;-0.6628;
2502741643826295;-8.7147;0.5955;3.1292;
2502741653934055;-6.9685;-0.0682;-1.5781;
2502741664040982;-10.9307;-0.5160;-4.2036;
2502741674147857;-15.2378;0.9763;-3.6141;
2502741684253795;-3.9168;0.7633;1.9627;
2502741694360722;-5.5217;0.1379;-1.6690;
2502741704467597;-15.4439;0.5309;-7.2601;
2502741714556555;-5.4520;0.3368;-0.4424;
2502741724663482;-3.5501;1.0555;-4.7040;
2502741734770357;-21.3464;0.5142;-7.6433;
2502741744896555;-10.7701;1.0507;4.1809;
2502741755003482;0.5151;1.1967;2.4416;
2502741765110357;-12.3440;-1.3472;-5.6408;
2502741775219993;-14.0207;0.4301;-1.0606;
2502741785326920;-7.1145;1.1321;0.1062;
2502741795433795;-9.0766;-0.1017;-4.2754;
2502741805539785;-12.3368;0.2363;-2.2774;
2502741815646764;-8.2262;0.7920;2.9806;
2502741825753743;-8.7700;0.7490;-3.7938;
2502741835859055;-14.1239;0.1881;-2.7565;
2502741845966035;-7.3804;0.8638;3.2824;
2502741856073014;-3.2483;0.4373;-3.8465;
2502741866176035;-11.9390;-1.3926;-10.5419;
2502741876283014;-11.4242;0.1714;-2.4571;
2502741886389993;-7.2296;1.7094;-1.1180;
2502741896509212;-9.7496;-0.0730;-4.7375;
2502741906616191;-12.7223;-0.6814;-0.2222;
2502741916723170;-10.4970;0.6529;1.2583;
2502741926823951;-5.7924;0.8686;-0.5982;
2502741936930930;-7.6176;-0.9114;-4.0358;
2502741947037910;-19.7725;0.7825;-3.5806;
2502741957144160;-10.7725;1.1512;1.5697;
2502741967251139;-4.3286;0.3200;0.3769;
2502741977358118;-10.6696;-1.0406;-2.4188;
2502741987464212;-5.3539;-0.6335;-2.8813;
2502741997571191;-6.7170;0.3583;-5.2792;
2502742007678170;-14.2723;-0.1519;-7.8398;
2502742017781139;-11.1464;0.1570;1.2272;
2502742027888118;-2.9082;1.2661;0.0030;
2502742037995097;-11.6973;-0.5088;-6.1510;
2502742048116868;-14.3731;-0.1256;-0.5599;
2502742058223847;-9.4023;0.5859;3.2584;
2502742068330878;-10.5664;0.3559;-1.3337;
2502742078423847;-9.6921;-0.1615;-5.2549;
2502742088530826;-5.3994;-0.1783;-3.4872;
2502742098637805;-9.0694;-0.1137;-4.1219;
2502742108746347;-16.4761;1.7213;-3.4537;
2502742118853326;-10.6481;1.3358;4.2431;
2502742128960305;-4.3071;1.3214;1.6848;
2502742139091555;-9.3233;-0.4011;-2.7565;
2502742149198535;-13.9657;-0.0344;-3.6766;
2502742159305566;-7.4812;1.3908;-0.2653;
2502742169504160;-4.3837;0.1690;-3.4513;
2502742179611139;-10.6935;-0.2859;-7.0038;
2502742189718170;-7.9675;0.2985;-4.4958;
2502742199690930;-7.5841;0.5788;-4.6370;
2502742209797910;-11.9895;0.9165;-3.3529;
2502742219904889;-13.1106;0.2650;1.4812;
2502742230062076;-8.4512;1.6232;0.5539;
2502742240169055;-10.3125;0.1116;-2.5002;
2502742250276035;-10.6720;0.2243;-0.8426;
2502742260341555;-4.9609;1.0627;0.0772;
2502742270448535;11.1177;0.0733;-8.0770;
2502742280555514;-31.2805;-1.4192;-13.2272;
2502742290669576;-33.8291;2.7275;8.9719;
2502742300776555;5.0091;4.4641;15.5450;
2502742310883535;2.7790;-1.4862;-3.9230;
2502742320989576;-17.8537;-2.9856;-6.2276;
2502742331096555;-10.7127;-0.1161;-2.8092;
2502742341203535;-2.9465;0.4349;-6.3090;
2502742351327910;-11.3976;-0.3628;-9.3945;
2502742361434889;-12.4998;-0.2692;-1.2425;
2502742371541868;-5.9767;2.7993;0.7696;
2502742381644576;-9.5725;1.2254;-4.1841;
2502742391751555;-17.1302;0.1164;2.1541;
2502742401858535;0.5844;0.1403;12.3422;
2502742411957701;-3.0637;-0.2572;-14.7963;
2502742422064680;-23.4063;-2.6838;-23.6668;
2502742432171660;-9.9365;0.2052;4.9044;
2502742442278743;0.4481;3.8007;6.3870;
2502742452385722;-13.6496;-0.0200;-10.9229;
2502742462492701;-14.2053;-0.9281;0.8967;
2502742472600305;-4.3669;1.3047;8.0447;
2502742482707285;-7.1698;0.6147;-3.5040;
2502742492814264;-15.1564;-1.0765;-7.1234;
2502742502919993;-11.3474;0.9428;1.2153;
2502742513026972;-3.1044;1.2159;0.4965;
2502742523133951;-9.8025;-0.7268;-6.4122;
2502742533239628;-11.8217;-0.2094;-2.5170;
2502742543346607;-7.1818;1.3932;-0.3682;
2502742553453587;-11.4793;0.3488;-3.8847;
2502742563559264;-9.3616;0.3775;-3.2524;
2502742573666243;-5.9623;1.0579;-1.2497;
2502742583773222;-11.1942;0.6505;-2.3423;
2502742593881451;-12.3679;0.9643;0.3072;
2502742603988430;-9.8575;1.1321;1.9962;
2502742614095410;-7.2488;0.0470;-1.4581;
2502742624209889;-11.4434;0.0996;-3.6909;
2502742634316868;-11.3330;0.7199;-1.6857;
2502742644423847;-6.4032;0.8734;-0.8354;
2502742654524785;-8.2023;-0.2166;-4.5963;
2502742664631764;-11.1078;0.2650;-3.0296;
2502742674738743;-6.2809;1.3597;-3.1950;
2502742684845722;-12.7466;0.8614;-5.7676;
2502742694952701;-15.3670;0.6003;2.7027;
2502742705059732;-5.9049;1.7764;5.0169;
2502742715161868;-8.6381;-0.2285;-3.3625;
2502742725268847;-11.1942;-0.6072;-3.9182;
2502742735375878;-7.0690;1.0340;-2.8140;
2502742745481972;-10.4276;0.5644;-3.8369;
2502742755588951;-7.4836;0.6864;-3.3003;
2502742765695930;-8.4105;0.3775;-3.9688;
2502742775814160;-13.6376;0.9188;-2.1314;
2502742785921139;-10.4300;0.9715;0.0894;
2502742796028118;-7.6609;0.3057;-1.6929;
2502742806123222;-8.9231;-0.2405;-1.4892;
2502742816230149;-6.7744;0.3559;-1.7791;
2502742826337076;-11.7380;0.1810;-7.1043;
2502742836451451;-14.0566;0.7729;-2.6656;
2502742846558378;-7.7877;1.2903;0.7265;
2502742856665305;-13.2757;-0.1184;-0.6485;
2502742866774055;-9.3520;0.1451;1.3923;
2502742876880982;-2.2445;-0.0416;-1.5350;
2502742886987910;-9.1843;-0.9927;-5.6432;
2502742897103430;-7.7327;-0.5375;-5.3462;
2502742907210357;0.6470;0.1857;-8.8627;
2502742917317285;-21.7295;-0.5327;-8.8340;
2502742927416555;-24.0174;1.9825;8.1766;
2502742937523482;-4.1970;2.7826;10.9217;
2502742947630410;-4.5179;-0.8225;-0.5695;
2502742957734368;-8.2478;-2.3342;-5.2840;
2502742967841295;-13.0460;-0.1448;-6.4648;
2502742977948222;-8.8466;0.7247;-3.8010;
2502742988056035;-5.2316;1.0053;-5.1353;
2502742998162962;-12.9284;0.2363;-5.8301;
2502743008269889;-11.9441;1.0555;3.7161;
2502743018374160;-6.4654;1.5802;0.5683;
2502743028481087;-11.4048;-1.0095;-2.1601;
2502743038588014;-6.2330;-0.7747;6.3727;
2502743048707910;-5.3420;-0.2166;-7.7106;
2502743058814837;-17.7051;-0.7627;-17.1488;
2502743068921764;-10.7079;0.3583;-1.1300;
2502743079008326;-7.6777;2.9145;3.1938;
2502743089115253;-7.9938;0.2530;-0.7995;
2502743099222180;-6.6523;0.4759;-2.2152;
2502743109387180;-15.0915;-0.3915;-2.7350;
2502743119494107;-12.0829;1.3573;2.2502;
2502743129601035;-2.7667;0.3368;-1.0869;
2502743139650722;-11.1942;-0.3820;-7.7536;
2502743149757649;-13.5562;0.5261;-0.4113;
2502743159864524;-4.7982;1.4578;2.5184;
2502743170023430;-9.3640;0.3105;-5.5834;
2502743180130357;-11.7117;-0.7196;-3.2979;
2502743190237285;-10.5855;1.2350;-0.6413;
2502743200311451;-10.7366;1.3884;-0.6532;
2502743210418378;-7.7303;0.4854;-2.5193;
2502743220525305;-11.2397;0.3823;-3.3984;
2502743230636035;-9.2201;0.0015;1.7231;
2502743240742962;-6.9446;0.2674;-2.7709;
2502743250849889;-12.8327;0.6553;-7.0780;
2502743260940930;-9.4597;-0.0368;-0.1334;
2502743271047857;-4.9490;0.5237;0.3482;
2502743281154785;-10.1809;0.0685;-5.6264;
2502743291263430;-13.2063;0.4902;-1.7985;
2502743301370357;-5.8905;0.5668;0.3673;
2502743311477285;-9.9485;-0.0778;-3.6667;
2502743321599368;-10.3268;-0.1783;-2.9602;
2502743331706295;-6.8919;0.4014;-1.9229;
2502743341813222;-10.8924;-0.3389;-3.8704;
2502743351932441;-9.9748;0.4158;-2.7302;
2502743362039368;-11.0886;0.2028;-3.4394;
2502743372146295;-4.3717;0.0541;-0.7684;
2502743382252180;-19.2096;0.3248;-0.4905;
2502743392359107;-14.4305;1.0890;4.1210;
2502743402466035;-2.7069;0.5740;2.9806;
2502743412555618;-8.2717;-1.4791;-3.9425;
2502743422662545;-14.0758;-0.0849;-3.0129;
2502743432769472;-8.1781;0.9835;-0.3802;
2502743442870462;-3.7920;-0.4155;-4.6155;
2502743452977389;-8.7796;-0.8201;-6.9248;
2502743463084316;-8.5017;0.6075;-3.2118;
2502743473190305;-14.0856;1.6232;-1.7025;
2502743483297232;-8.9016;2.1981;-2.8594;
2502743493404160;-6.4678;-0.6287;-0.7421;
2502743503513326;-10.5999;0.3224;1.8595;
2502743513620253;-10.4228;1.4506;-4.2156;
2502743523727180;-12.3655;-0.1783;-6.3209;
2502743533823743;-8.1111;1.2254;0.7552;
2502743543930670;-10.4946;1.8102;-1.5446;
2502743554037545;-8.5735;-0.3676;-1.1707;
2502743564151243;-6.7983;0.1786;-2.0617;
2502743574258170;-12.6290;0.4110;-2.3327;
2502743584365097;-11.3521;-0.2644;0.4917;
2502743594472910;-7.1698;1.1010;-0.2964;
2502743604579837;-8.9806;-0.6790;-4.3496;
2502743614686764;-14.1383;0.6625;-1.8105;
2502743624794993;-6.3120;0.5788;1.3325;
2502743634901920;-5.4209;-0.6191;-5.7341;
2502743645008847;-13.7524;-0.8731;-4.8718;
2502743655121243;-9.5892;1.1680;-1.1803;
2502743665228170;-9.0598;1.2613;-1.8320;
2502743675335097;-8.3554;-0.9449;-2.7398;
2502743685439889;-11.0575;0.2076;-2.4739;
2502743695546816;-13.4554;-0.1041;0.6066;
2502743705653743;-7.3445;0.4759;0.3407;
2502743715779107;-9.7376;-0.7771;-4.9340;
2502743725886035;-14.9551;-0.2668;-1.8272;
2502743735992962;-4.7958;0.4301;2.1230;
2502743746079055;-3.7585;-0.6407;-6.0168;
2502743756185982;-16.6941;0.5118;-6.5510;
2502743766292910;-10.0011;1.7524;0.6236;
2502743776403587;-4.0244;-0.1998;-3.3242;
2502743786510514;-11.3043;-0.4370;-3.6500;
2502743796617441;-8.6692;0.8399;-1.6690;
2502743806725514;-6.9781;-0.2644;-4.3137;
2502743816832545;-9.1723;-0.1137;-3.6957;
2502743826939628;-10.6720;1.0101;-5.9115;
2502743837041660;-11.1559;0.4110;-2.9387;
2502743847148691;-4.7288;1.1967;1.2033;
2502743857255774;-7.7255;0.2818;-5.0252;
2502743867368951;-15.6042;0.3703;-3.0751;
2502743877475982;-10.5808;1.4004;4.2861;
2502743887583066;-4.3143;0.5835;0.0724;
2502743897700722;-14.2651;-0.0296;-3.6790;
2502743907807753;-10.5951;1.4148;1.3708;
2502743917914837;-2.7643;-0.4561;-2.1936;
2502743928032024;-12.0374;-0.5542;-5.7365;
2502743938139055;-18.9700;0.9906;-0.1789;
2502743948246139;-8.1206;1.8676;1.1746;
2502743958333014;-6.5468;-0.7627;0.1325;
2502743968440045;-15.9972;-0.5351;0.1804;
2502743978547128;-6.0461;1.2470;0.6834;
2502743988650201;-1.1856;-1.0382;-2.8932;
2502743998757232;-12.3320;0.2435;-6.6159;
2502744008864316;-14.1598;0.9284;-5.2669;
2502744018964055;-4.1034;0.5453;-1.0510;
2502744029071087;-4.0890;-0.3772;-5.9545;
2502744039178170;-16.1192;0.1331;-5.7652;
2502744049306035;-11.5008;1.4315;2.8107;
2502744059413066;-5.2484;-0.0559;-1.5227;
2502744069520149;-14.6366;-0.0945;-5.1401;
2502744079589368;-10.7605;1.2302;1.2009;
2502744089696399;-6.6212;0.9428;-0.2294;
2502744099803482;-8.8944;0.6003;-4.7450;
2502744110012597;-14.4353;0.0541;-2.0617;
2502744120119628;-11.8624;2.2196;0.5683;
2502744130226712;-5.7395;0.3823;0.4391;
2502744140268743;-6.1995;-0.3580;-2.0330;
2502744150375774;-9.4717;0.2411;-3.7484;
2502744160482857;-12.0230;-0.0129;-3.6595;
2502744170569212;-8.8131;-0.1663;-4.1172;
2502744180676243;-10.4133;0.3583;-3.9039;
2502744190783326;-8.0704;-0.1639;-1.8009;
2502744200879993;-8.9112;0.5142;-2.4978;
2502744210987024;-14.7610;-0.1256;-2.9674;
2502744221094107;-8.5089;0.7729;0.6476;
2502744231216451;-5.8427;0.2650;-1.1037;
2502744241323482;-12.2746;0.5931;-3.7771;
2502744251430566;-11.0216;0.3296;-3.9712;
2502744261562805;-6.5324;0.7152;-2.8693;
2502744271669837;-11.0264;0.0398;-3.2788;
2502744281776920;-9.8815;0.0517;-2.3518;
2502744291868951;-9.1053;0.8375;-3.5207;
2502744301975982;-10.6409;0.4660;-3.9111;
2502744312083066;-3.3368;0.5524;-2.7565;
2502744322179212;-5.1335;-0.4801;-5.1114;
2502744332286243;-10.6217;0.6721;-7.1019;
2502744342393326;-10.7103;0.2865;-6.3425;
2502744352500722;-21.2815;1.2565;-0.9359;
2502744362607753;-9.8025;0.8327;6.1403;
2502744372714837;0.3329;-0.3123;0.3553;
2502744382820201;-7.9771;-1.3208;-5.1281;
2502744392927232;-15.0006;-0.8489;-3.9520;
2502744403034316;-7.6968;1.3789;-5.2744;
2502744413146451;-7.3974;1.0914;-6.0718;
2502744423253482;-9.1460;-0.0392;-2.5193;
2502744433360566;-10.1474;1.1130;-1.9995;
2502744443463326;-10.7318;0.5285;1.9122;
2502744453570357;-6.1349;-0.1208;1.1626;
2502744463677441;-10.9762;-0.5136;-2.5361;
2502744473787076;-12.2100;-0.5231;-0.5097;
2502744483894107;-5.8068;0.0182;-7.2841;
2502744494001191;-4.9035;-0.3604;-10.0941;
2502744504109212;-13.4076;0.1522;-2.5026;
2502744514216243;-12.9069;1.5538;1.8212;
2502744524323326;-10.5808;1.1512;-0.4738;
2502744534413951;-11.2110;0.0278;2.9064;
2502744544520982;-9.1986;0.1475;3.7304;
2502744554628066;-8.2502;0.1283;-1.6140;
2502744564751347;-9.2803;0.0972;-3.5471;
2502744574858378;-9.9844;0.9643;-3.4705;
2502744584965462;-10.8924;0.9835;-2.5098;
2502744595071295;-10.0059;0.8566;-1.4605;
2502744605178326;-6.0607;0.8566;-3.6766;
2502744615285410;-12.0230;0.7777;-1.8416;
2502744625394055;-9.1388;1.0723;2.8896;
2502744635501087;-6.5755;0.8830;-3.7603;
2502744645608170;-13.3167;-1.1124;-4.7689;
2502744655721555;-9.7400;0.5405;0.7433;
2502744665828587;-6.5492;1.1417;-2.0907;
2502744675935670;-10.1545;0.0350;-2.7733;
2502744686035618;-9.9724;0.4950;-2.3638;
2502744696142649;-7.4764;0.4181;-1.1228;
2502744706249732;-16.2197;0.0374;-0.3586;
2502744716376555;-12.2411;1.6280;-0.0999;
2502744726483587;-6.3191;-0.0945;-0.2390;
2502744736590670;-9.9317;-0.9473;-0.4041;
2502744746678118;-10.1402;0.0613;-2.0907;
2502744756785149;-9.4813;0.0230;-4.4743;
2502744766892232;-9.0431;-0.5925;-1.6714;
2502744776996660;-7.3851;-0.1831;-2.5986;
2502744787103691;-10.9116;-0.0153;-3.8130;
2502744797210774;-10.6935;0.2722;-1.4964;
2502744807323639;-8.1015;-0.1783;-1.7384;
2502744817430670;-11.1775;-0.2333;-1.9397;
2502744827537753;-7.7255;0.1403;0.2378;
2502744837637910;-5.9264;-0.0873;-5.8588;
2502744847744941;-11.6830;-0.4274;-8.6112;
2502744857852024;-6.8079;0.5859;-3.8536;
2502744867958951;-10.4324;1.1608;-6.2037;
2502744878065982;-16.0762;0.7872;-3.4848;
2502744888173066;-6.4080;1.3358;3.0550;
2502744898295826;-4.2544;0.7920;0.1995;
2502744908402857;-10.3196;-0.4920;-3.1205;
2502744918509941;-11.7978;0.8088;-4.5724;
2502744928611451;-8.2669;-0.0296;-3.3266;
2502744938718482;-7.7518;0.4134;-2.9363;
2502744948825566;-7.8380;0.0111;-3.9159;
2502744958923847;-10.4300;0.8088;-4.5030;
2502744969030878;-13.1273;0.5477;-0.9766;
2502744979137962;-9.0861;0.9380;-1.6187;
2502744989250410;-10.4611;0.0135;-0.9072;
2502744999357441;-6.2833;1.0986;-0.6054;
2502745009464524;-5.0139;0.3440;-5.2214;
2502745019551139;-15.1588;0.6314;-5.5232;
2502745029658170;-13.0196;1.8843;-0.2198;
2502745039765201;-6.3793;1.0627;0.4606;
2502745049896972;-8.8394;-0.0464;-0.9455;
2502745060004003;-11.1607;0.8638;-1.0487;
2502745070111087;-7.2631;0.6864;-2.8068;
2502745080227389;-9.5797;-0.1208;-3.5710;
2502745090334420;-8.5831;0.6458;-3.6667;
2502745100441503;-8.0345;0.2698;-6.5605;
2502745110553118;-11.5869;0.4469;-4.7833;
2502745120660149;-11.0743;0.7872;0.1397;
2502745130767232;-5.2558;0.4301;0.0580;
2502745140851295;-20.7066;0.3775;0.9709;
2502745150958274;-14.4855;0.9595;3.7759;
2502745161065357;-2.7260;0.1235;1.2392;
2502745171172389;-5.2149;-0.9090;-2.3566;
2502745181292910;-9.2297;-0.2835;-7.1091;
2502745191399941;-9.9891;-0.1089;-6.2061;
2502745201507024;-8.3626;0.0565;-3.2572;
2502745211599160;-9.6203;-0.2572;-5.4562;
2502745221706191;-13.7668;0.3176;-1.7886;
2502745231813274;-9.7615;0.1522;3.1819;
2502745241920305;-6.2737;-0.4872;0.8366;
2502745252027337;-12.3870;-0.8321;-2.4452;
2502745262134420;-10.4348;-0.1089;0.1229;
2502745272240410;-3.8638;0.0852;-7.2434;
2502745282347441;-14.9025;-0.0296;-9.4041;
2502745292454524;-11.3976;1.4100;0.3359;
2502745302567910;-5.2436;1.1130;0.5587;
2502745312674941;-8.0967;-1.0741;-0.8976;
2502745322782024;-9.7113;-0.0033;-0.3993;
2502745332884368;-11.8696;0.5381;-3.1902;
2502745342991399;-8.4921;-0.0033;-1.5350;
2502745353098482;-6.5827;-0.1376;-2.5217;
2502745363204576;-10.8275;-0.3218;-4.1889;
2502745373311607;-9.6826;0.7490;-2.4500;
2502745383418691;-10.2646;0.5501;-2.7805;
2502745393537962;-13.4148;0.4711;-1.9349;
2502745403644993;-11.4553;0.7199;3.0503;
2502745413752076;-3.2650;0.1140;0.1947;
2502745423856555;-9.3233;-0.4394;-4.5772;
2502745433963587;-12.6171;1.1154;-3.3242;
2502745444070670;-10.8132;1.5176;-1.8416;
2502745454178951;-10.4946;0.3129;-2.1147;
2502745464285982;-5.4162;0.1714;1.4067;
2502745474393066;-6.8103;0.3200;-2.4739;
2502745484493743;-11.5199;0.2387;-4.7255;
2502745494600774;-13.3669;1.1584;-2.2128;
2502745504707857;-7.4070;0.8447;-1.6594;
2502745514845305;-8.1159;0.5477;-2.3252;
2502745524952337;-12.4182;0.8973;-2.6201;
2502745535059420;-6.7624;0.7705;-3.0344;
2502745545134576;-10.0083;0.0757;-2.7565;
2502745555241607;-9.4286;0.6314;-1.7647;
2502745565348691;-10.7222;0.7152;-3.3673;
2502745575460462;-10.5425;0.6027;-1.6618;
2502745585567493;-9.5749;0.7585;-0.5743;
2502745595674576;-10.8084;0.1570;-1.0798;
2502745605773743;-5.7084;0.6434;0.3529;
2502745615880774;-9.9174;0.0135;-2.4500;
2502745625987857;-14.9001;0.5524;-4.5796;
2502745636097128;-10.8419;1.0651;0.0221;
2502745646204160;-3.4113;-0.3628;-0.4376;
2502745656311243;-6.9278;-0.7101;-6.3835;
2502745666423743;-15.9227;0.1522;-6.4816;
2502745676530774;-2.5534;0.9284;2.4945;
2502745686637857;-6.9589;0.5524;-5.9880;
2502745696744785;-16.7854;-0.8154;-5.8445;
2502745706851816;-10.4635;1.3956;3.7400;
2502745716958899;-7.7853;0.7008;0.8366;
2502745727062962;-7.3062;-0.5758;-2.7374;
2502745737169993;-8.6501;-0.2955;-3.2118;
2502745747277076;-13.8293;0.5979;-2.7757;
2502745757383743;-11.5056;0.6290;-2.9028;
2502745767490774;-5.4760;0.3799;-2.4165;
2502745777597857;-6.2115;-0.4155;-2.4715;
2502745787702389;-10.2718;0.1307;-3.0320;
2502745797809420;-12.4588;0.6458;-5.3605;
2502745807916503;-13.0723;1.2135;0.9398;
2502745818024055;-5.0330;0.5333;4.9690;
2502745828131035;-8.8848;0.0111;-3.7627;
2502745838238066;-13.4100;-0.6455;-4.6394;
2502745848449889;-6.4032;1.2135;-2.6776;
2502745858556868;-7.5099;0.5333;-3.9230;
2502745868663899;-12.7705;0.7152;-2.2726;
2502745878657910;-7.7518;1.0460;-0.2749;
2502745888764889;-8.4802;0.3870;-4.5293;
2502745898871920;-13.2326;0.3009;-2.8044;
2502745908991295;-9.5100;1.2709;1.4812;
2502745919098274;-7.1145;0.1738;-2.0788;
2502745929205305;-7.4740;-0.5447;-3.1639;
2502745939302232;-8.9016;0.7633;-2.5481;
2502745949409212;-13.5296;0.7872;-3.8776;
2502745959516243;-10.0155;0.5309;-2.2463;
2502745969657701;-5.2726;0.6984;-1.4222;
2502745979764680;-4.9274;-0.1352;-1.9277;
2502745989871712;-19.7797;0.2554;-2.4260;
2502745999977910;-18.6347;0.9978;0.5444;
2502746010084889;-2.1272;0.0589;3.4549;
2502746020191920;-4.8102;0.1116;-1.2691;
2502746030258743;-16.1504;0.2913;-5.8158;
2502746040365722;-8.6764;0.9380;-4.1961;
2502746050472753;-5.9312;0.2052;-1.7169;
2502746060608118;-9.9604;-0.3987;-3.1301;
2502746070715097;-12.4756;0.4926;-1.0367;
2502746080822128;-9.6969;0.5261;-0.8617;
2502746090909628;-8.6620;-0.3508;-2.9794;
2502746101016607;-10.3917;0.1834;-0.9455;
2502746111123639;-5.3994;-0.3290;1.0953;
2502746121253014;-0.8408;-0.7268;-6.8169;
2502746131359993;-17.2307;-0.8489;-16.0469;
2502746141467024;-15.6592;0.2961;-2.1960;
2502746151577441;-4.9609;2.1263;4.2144;
2502746161684420;-11.0910;0.5955;-1.9756;
2502746171791451;-9.3425;-0.6072;1.7901;
2502746181904003;-8.0082;0.9930;-0.7612;
2502746192010982;-10.9164;-0.0320;-2.9483;
2502746202118014;-9.1771;0.4588;-3.4537;
2502746212196035;-12.3464;0.7801;-3.8441;
2502746222303014;-8.7437;0.1522;0.4439;
2502746232410045;-5.5863;0.2483;-1.5589;
2502746242523014;-12.0015;-0.7316;-2.8908;
2502746252629993;-9.1914;0.3033;0.9063;
2502746262737024;-8.7266;0.9380;-3.9135;
2502746272840722;-13.1417;0.0494;-5.0539;
2502746282947701;-4.8269;0.3416;0.5850;
2502746293054732;-5.7299;0.7223;-5.0539;
2502746303162910;-13.0074;-0.0081;-5.6504;
2502746313269889;-11.7236;1.3980;1.4333;
2502746323376920;-9.1053;1.2927;-0.0736;
2502746333487180;-11.0336;0.2171;-2.0163;
2502746343594160;-8.8490;0.2865;-0.8713;
2502746353701191;-8.1494;0.6745;-2.6154;
2502746363803743;-10.6959;-0.3051;-3.0272;
2502746373910722;-9.8360;0.9811;-2.6201;
2502746384017753;-11.3928;0.7080;-3.1591;
2502746394137285;-8.2334;0.6458;-1.2377;
2502746404244264;-6.9900;0.9978;-2.1888;
2502746414351295;-11.4386;-0.0607;-2.1482;
2502746424457597;-9.7639;0.8375;-0.9120;
2502746434564576;-7.1507;-0.1496;-2.0812;
2502746444671607;-10.0155;0.0876;-3.1663;
2502746454775201;-11.8768;0.5524;-2.7948;
2502746464882180;-7.1794;0.0876;-3.5447;
2502746474989212;-8.8466;-0.2261;-4.1387;
2502746485090305;-9.4884;-0.3652;-2.7757;
2502746495197285;-8.9614;0.4325;-3.6284;
2502746505304316;-10.4516;0.2937;-3.9087;
2502746515416451;-10.2144;0.2889;-1.0678;
2502746525523430;-9.7496;0.3440;-0.4208;
2502746535630462;-9.4741;0.1451;-0.0664;
2502746545723535;-8.4583;-0.2429;-1.0128;
2502746555830514;-11.3258;-0.0320;-2.9626;
2502746565937545;-11.2229;0.0015;-1.0774;
2502746576055826;-4.5323;0.1235;-2.1218;
2502746586162805;-6.7840;-0.2859;-6.4481;
2502746596269837;-11.4434;-0.5997;-5.2310;
2502746606370305;-9.6132;0.4205;-2.1840;
2502746616477285;-9.2656;0.7271;-2.9889;
2502746626584316;-14.8304;-0.0296;-0.7851;
2502746636696972;-10.4276;0.8064;3.4262;
2502746646803951;-8.1613;0.1355;1.7830;
2502746656910982;-10.3244;0.3272;-2.6393;
2502746667018899;-9.9532;-0.4250;-2.9124;
2502746677125878;-9.5414;0.6817;-1.8775;
2502746687232910;-7.8045;0.2602;-2.8235;
2502746697335826;-6.8632;-0.0511;-4.7713;
2502746707442805;-10.8156;0.2530;-3.1181;
2502746717549837;-8.6548;0.2243;0.0437;
2502746727650514;-7.6008;0.2339;-2.0788;
2502746737757493;-9.7591;-0.7747;-4.0621;
2502746747864524;-9.6443;0.1379;-0.9263;
2502746757981764;-8.7317;0.3488;-2.5576;
2502746768088743;-12.0206;0.1738;-3.8656;
2502746778195774;-10.5305;0.8734;-0.8521;
2502746788306347;-9.6993;1.0026;-1.0893;
2502746798413326;-11.3833;-0.0511;-0.5910;
2502746808508222;-7.7782;0.5979;0.1851;
2502746818615201;-9.4573;0.0541;-2.6943;
2502746828722232;-8.3459;0.3224;-0.5719;
2502746838835462;-8.4440;0.4540;-2.1936;
2502746848942441;-13.1130;0.4588;-4.1124;
2502746859049472;-7.4237;0.8782;-0.8904;
2502746869163847;-10.6672;0.1953;-0.8258;
2502746879270826;-10.6935;-0.1543;-0.6676;
2502746889377857;-8.8753;0.5166;-0.3921;
2502746899502597;-8.3554;0.4086;-4.0549;
2502746909609576;-8.6453;0.3200;-3.6981;
2502746919716607;-7.1746;0.8136;-3.9230;
2502746929851555;-10.9140;0.6888;-5.6719;
2502746939958535;-9.4549;0.3392;-2.3252;
2502746950065566;-7.3062;0.6003;-2.0378;
2502746960116972;-12.6147;0.5309;-2.3638;
2502746970223951;-10.0298;0.1929;0.1086;
2502746980330982;-11.4075;1.0220;-2.8618;
2502746990465201;-13.7381;0.7729;1.0881;
2502747000572180;-5.6653;0.4612;0.8871;
2502747010679212;-10.5066;0.5812;-4.6466;
2502747020776972;-9.9174;0.1140;-2.8259;
2502747030883951;-6.8680;1.0627;-2.3590;
2502747040990982;-6.8294;0.2291;-4.0334;
2502747051095826;-5.9527;0.4902;-4.3496;
2502747061202805;-4.7504;0.0470;-6.1343;
2502747071309837;-17.3243;0.6505;-4.9077;
2502747081410305;-19.8275;0.5859;3.3305;
2502747091517285;-5.6797;1.1919;2.7748;
2502747101624316;-1.6361;0.6984;-3.4059;
2502747111729368;-7.3540;-0.4274;-4.8263;
2502747121836347;-15.9757;0.7777;-6.7810;
2502747131943378;-13.1991;1.4483;-2.6967;
2502747142073430;-6.2474;1.1082;-0.0664;
2502747152180410;-11.9414;1.4770;-1.6379;
2502747162287441;-10.8852;0.8830;1.8954;
2502747172379472;-4.1994;0.1307;1.2631;
2502747182486451;-8.9279;0.1499;-4.5963;
2502747192593482;-13.2757;-0.0706;-1.0271;
2502747202722493;-5.6222;0.2171;-2.9219;
2502747212829472;-8.2741;0.8566;-14.9187;
2502747222936503;-9.4621;0.4807;-8.4529;
2502747233019472;-5.9360;-0.5734;4.1019;
2502747243126451;-9.9652;0.8447;-0.6461;
2502747253233482;-10.8972;0.0326;-4.7785;
2502747263341868;-9.9532;-0.0320;-2.8044;
2502747273448847;-11.5822;0.5309;-0.0185;
2502747283555878;-7.0211;-0.5614;-1.3959;
2502747293668639;-1.6552;0.2770;-7.4686;
2502747303775618;-15.0724;-0.0607;-6.2396;
2502747313882649;-29.3785;-0.5375;5.5534;
2502747323989785;-8.1326;1.3573;7.8772;
2502747334096764;3.2267;0.9811;-1.9708;
2502747344203795;-8.7171;-1.1581;-3.1974;
2502747354300826;-14.8017;-0.1328;-2.6225;
2502747364407805;-6.6500;-0.0897;-1.0558;
2502747374514837;-2.8313;-0.9879;-4.5461;
2502747384618430;-11.3091;-0.9162;-6.6637;
2502747394725410;-12.5931;-0.2572;-1.0510;
2502747404832441;-16.3469;0.3488;0.8294;
2502747414962597;-14.8711;-0.8201;0.6500;
2502747425069576;-3.4519;-0.9855;6.5572;
2502747435176607;0.9990;-0.2931;-2.6058;
2502747445273014;-14.7323;-0.5423;-20.3898;
2502747455379993;-18.2536;1.0914;-9.2626;
2502747465487024;-3.2889;0.2124;11.6716;
2502747475595462;-6.4845;-0.4346;1.8404;
2502747485702441;-15.8079;0.5716;-6.8121;
2502747495809472;-13.0795;-0.0682;3.7902;
2502747505905462;-8.2645;-0.3867;7.4961;
2502747516012441;-6.5085;-0.4442;-1.9828;
2502747526119472;-7.3660;0.6075;-9.0832;
2502747536232389;-6.9230;-0.9784;-8.7476;
2502747546339368;-11.9441;1.0795;-11.3444;
2502747556446399;-14.9671;2.4497;-3.2907;
2502747566547128;-10.9690;0.5596;8.4664;
2502747576654107;-6.0485;0.4229;4.3412;
2502747586761139;-8.3267;1.9968;-4.4596;
2502747596867701;-6.6811;0.1594;-2.1194;
2502747606974680;-2.7093;0.0470;-3.5207;
2502747617081712;-8.9399;0.9547;-11.3468;
2502747627189264;-12.1810;1.6615;-6.9009;
2502747637296243;-10.3316;-0.1926;1.2176;
2502747647403274;-9.1244;-0.0320;-1.0774;
2502747657519055;-7.8906;0.5477;-1.8057;
2502747667626035;-8.5567;0.3751;-1.5924;
2502747677733066;-19.0968;1.2637;-2.3375;
2502747687833535;-17.3243;-0.3915;5.1221;
2502747697940514;-3.0398;0.2794;4.3268;
2502747708047545;-5.6629;0.6721;-7.2984;
2502747718158326;-12.1834;-0.0344;-8.4673;
2502747728265305;-11.0097;-0.5279;0.3817;
2502747738372337;-3.4902;-0.1280;3.7687;
2502747748486139;-6.8824;0.6099;-5.9833;
2502747758593118;-11.2134;-0.4035;-7.0349;
2502747768700149;-7.8404;-1.5891;-3.2836;
2502747778790305;-5.9671;-0.4107;-6.1798;
2502747788897285;-11.4147;-0.1472;-8.0937;
2502747799004316;-10.3989;-0.2477;0.1445;
2502747809126243;-9.0479;-0.5327;-1.6211;
2502747819233430;-12.7968;1.3406;-9.7370;
2502747829340670;-9.8432;0.5692;-2.8331;
2502747839431555;-9.6682;0.2674;2.4153;
2502747849538743;-12.8925;0.8686;-1.2882;
2502747859645930;-12.5692;0.7175;1.3158;
2502747869750045;-7.4692;0.7681;1.1336;
2502747879857232;-5.4688;-0.1041;-4.0884;
2502747889964420;-6.5061;-0.4729;-7.5715;
2502747900087701;-9.5243;-0.3939;-5.7461;
2502747910194889;-12.7176;-0.4155;-3.0176;
2502747920302128;-9.9126;-0.6598;2.2092;
2502747930417701;-8.1039;-0.9640;1.8021;
2502747940524889;-9.9915;0.0948;-4.3902;
2502747950632128;-9.9867;0.2100;-7.1282;
2502747960716868;-7.3540;-0.4705;-2.7900;
2502747970824055;-9.6132;-0.8297;0.0221;
2502747980931295;-7.9986;0.9404;-3.6452;
2502747991060201;-11.6204;0.1618;-4.5437;
2502748001167389;-10.1904;0.0996;1.3205;
2502748011274628;-6.9805;0.1929;1.9555;
2502748021365305;-11.7021;0.7247;-3.6452;
2502748031472493;-12.7514;0.0685;-0.1573;
2502748041579680;-7.3062;0.0398;2.8059;
2502748051695305;-5.8857;-0.2692;-3.0081;
2502748061802493;-15.1418;-0.6670;-4.7474;
2502748071909732;-14.4138;0.5692;0.3984;
2502748082017285;-6.7265;0.8590;2.8178;
2502748092124472;-7.1674;-0.0535;-0.2892;
2502748102231660;-7.9292;-0.6861;-3.9497;
2502748112331555;-7.6367;0.3296;-3.6909;
2502748122438743;-8.3913;0.3583;-3.7579;
2502748132545982;-12.2650;0.4854;-4.6131;
2502748142652285;-11.2301;1.2422;-2.1936;
2502748152759472;-7.1961;1.1656;1.2559;
2502748162866712;-7.8978;0.6649;-1.6905;
2502748172978639;-14.5478;-0.1113;-1.6786;
2502748183085826;-12.4277;1.9178;0.6739;
2502748193193066;-3.5740;1.2565;-0.7660;
2502748203305618;-9.2584;0.0565;-5.1616;
2502748213412805;-9.1627;1.5033;-5.0707;
2502748223520045;-8.2190;1.1560;-3.6790;
2502748233632805;-9.9867;1.4411;-1.8559;
2502748243739993;2.8388;0.4588;-1.8200;
2502748253847180;-29.5867;1.1369;-5.2573;
2502748263950305;-31.3810;2.6892;5.9967;
2502748274057493;12.4038;2.0809;10.0068;
2502748284164732;3.1167;-3.7211;-4.2730;
2502748294268795;-21.7319;-1.5126;-9.1430;
2502748304375982;-15.1131;1.8078;-5.6623;
2502748314483222;-4.6567;1.0026;-2.9794;
2502748324587910;-6.4965;0.2530;-2.2415;
2502748334695097;-8.8825;0.5213;-3.3123;
2502748344802285;-8.9686;1.0101;-2.0812;
2502748354903326;-7.3732;0.2865;-1.6714;
2502748365010514;-9.8719;-0.6742;-4.8191;
2502748375117753;-14.8831;0.2937;0.9302;
2502748385228378;0.4863;-0.0682;-2.3037;
2502748395335566;-16.3134;-0.3437;-19.7504;
2502748405442805;-18.9317;-0.2070;0.1516;
2502748415550462;0.1678;4.0307;10.5482;
2502748425657649;-9.5172;-1.1414;-5.8397;
2502748435764889;-17.5277;-1.1267;-2.5289;
2502748445865722;-9.0670;2.4784;2.8011;
2502748455972910;-3.1932;-0.2405;-0.9168;
2502748466080149;-8.3028;-0.6861;-5.2334;
2502748476200410;-11.9007;0.2674;-3.6957;
2502748486307597;-8.4200;1.2039;-2.6800;
2502748496414837;-4.7647;-0.4298;-4.2060;
2502748506513951;-9.4382;-0.2812;-6.0455;
2502748516621139;-12.8519;0.9571;-2.7781;
2502748526728378;-7.9292;1.2111;-0.6508;
2502748536827493;-7.6920;0.2195;-3.4370;
2502748546934680;-10.6576;-0.1089;-2.3662;
2502748557041868;-10.6528;1.1608;-0.8856;
2502748567159993;-11.9752;0.5381;-2.8669;
2502748577267180;-13.4507;0.7561;0.0293;
2502748587374420;-4.0699;0.2148;2.9207;
2502748597476972;-8.1302;-0.7890;-3.8201;
2502748607584160;-14.1503;1.1273;-4.9866;
2502748617691399;-6.1804;1.8389;-0.4041;
2502748627795045;-5.7754;0.3918;-2.4619;
2502748637902232;-12.8040;-0.4848;-2.9818;
2502748648009472;-10.0083;0.9021;-1.6140;
2502748658114264;-8.9088;0.2195;-2.2032;
2502748668221451;-8.7290;0.0374;-1.4844;
2502748678328691;-7.9579;-0.1304;-1.1946;
2502748688420410;-8.8705;-0.2644;-4.3304;
2502748698527597;-7.1411;0.1235;-4.6992;
2502748708634785;-7.9675;0.2076;-5.8923;
2502748718757910;-13.5634;0.9428;-4.6801;
2502748728865097;-13.5754;1.0125;0.2976;
2502748738972337;-9.1220;1.4291;4.0801;
2502748749072701;-8.5472;1.2832;2.7147;
2502748759179889;-12.7152;-0.0057;0.9230;
2502748769287128;-10.3173;0.6984;-2.0115;
2502748779412910;-4.3334;0.1690;-3.8512;
2502748789519709;-7.6944;0.5142;-4.0023;
2502748799626949;-12.1355;-0.0033;-3.9999;
2502748809706792;-10.3558;1.0026;-2.0545;
2502748819813980;-8.8059;-0.1184;0.1995;
2502748829921219;-9.8049;0.3511;-0.5982;
2502748840101688;-10.0633;-0.5375;-2.1194;
2502748850208876;-10.7390;0.4205;-2.3758;
2502748860316115;-10.2144;0.1116;-1.8176;
2502748870356167;-8.6548;-0.1184;-2.8451;
2502748880463355;-7.3875;-0.0129;-3.3529;
2502748890570594;-10.1330;-0.1256;-4.0358;
2502748900693563;-10.9905;0.5237;-3.3458;
2502748910800751;-10.9475;0.1211;0.0966;
2502748920907990;-11.6372;0.5931;1.7590;
2502748931013147;-6.8728;-0.6120;0.4463;
2502748941120334;-9.4525;-0.9305;-1.8727;
2502748951227522;-10.9546;-0.6718;-4.2251;
2502748961328980;-8.8107;0.8447;-5.5714;
2502748971436167;-10.3149;-0.3290;-2.3085;
2502748981543355;-8.9327;0.3631;-2.2319;
2502748991635230;-6.0365;0.3224;-3.0200;
2502749001742417;-11.0575;-0.1232;-4.0908;
2502749011849657;-8.2765;0.1379;-1.6140;
2502749021965751;-11.5750;0.2001;-1.2691;
2502749032072938;-14.5932;0.6505;0.0870;
2502749042180126;-5.1000;-0.1496;0.7265;
2502749052290855;-3.7801;-0.5590;-4.1148;
2502749062398042;-13.3430;-0.4418;-6.1965;
2502749072505282;-10.9044;1.9011;-4.4644;
2502749082606480;-9.0311;0.3320;-3.3051;
2502749092713667;-9.2393;0.4735;0.7816;
2502749102820855;-7.5266;0.6840;0.1995;
2502749112931063;-11.1317;0.2554;-2.2319;
2502749123038251;-11.2349;1.0723;-1.0295;
2502749133145490;-11.4482;0.8734;-0.7011;
2502749143302417;-8.9040;-0.2285;1.3564;
2502749153409605;-2.7954;0.2243;-2.0091;
2502749163516844;-10.9834;-0.7866;-9.1430;
2502749173580230;-17.7362;0.7223;-3.2788;
2502749183687417;-7.2464;1.7118;1.4883;
2502749193794657;-7.4764;-0.2716;-2.7206;
2502749203900022;-13.1871;0.2626;-0.3682;
2502749214007209;-8.3818;1.5802;0.7839;
2502749224114449;-4.3119;-0.1687;-3.6718;
2502749234230542;-8.7820;0.6218;-3.8656;
2502749244337730;-5.8499;0.8662;-5.1042;
2502749254444969;-10.8323;0.7777;-5.7580;
2502749264542001;-12.1594;1.2661;-3.3577;
2502749274649188;-8.8753;0.9045;-1.8990;
2502749284756428;-8.7724;0.3081;-0.1741;
2502749294862522;-8.0034;0.3990;0.5803;
2502749304969709;-10.0202;-0.3652;-5.1592;
2502749315076897;-14.7826;1.4865;-4.5150;
2502749325190855;-14.7395;1.4889;0.0413;
2502749335298042;-4.1249;0.1738;1.4740;
2502749345405282;-0.3353;-0.0730;-2.3973;
2502749355509188;-14.3489;0.1499;-4.5604;
2502749365616376;-13.2159;1.0962;-0.7493;
2502749375723615;-4.8700;0.6984;-0.3347;
2502749385830230;-5.6533;-1.3161;-1.1396;
2502749395937417;-7.3038;-0.3485;-6.1798;
2502749406044657;-9.7280;0.0470;-4.0669;
2502749416159813;-11.1341;0.5333;-1.7360;
2502749426267001;-13.3286;0.3057;-4.3878;
2502749436374240;-11.1535;0.1810;0.2761;
2502749446472001;-7.2990;0.6936;2.0273;
2502749456579188;-0.6610;1.0149;-3.1325;
2502749466686428;-21.5163;-0.4466;-6.8408;
2502749476793876;-21.1164;2.8352;6.0446;
2502749486901063;5.1646;3.1059;6.5596;
2502749497008303;-9.7352;-2.3270;-3.9760;
2502749507109397;-14.4879;-0.6191;-2.9913;
2502749517216584;0.1223;1.8027;-2.8259;
2502749527323824;-13.8221;-0.6933;-4.9555;
2502749537428876;-24.8031;0.6601;-0.0209;
2502749547536063;-8.4344;3.3622;2.6405;
2502749557643303;-2.6518;-0.7244;-0.5025;
2502749567745230;-6.8031;-2.0683;-4.0286;
2502749577852417;-9.7854;0.6912;-6.1869;
2502749587959657;-9.3377;0.2602;-2.6943;
2502749598077938;-2.5032;0.2315;-4.6226;
2502749608185126;-13.4411;0.5572;-11.3420;
2502749618292313;-19.9977;-0.2955;0.8991;
2502749628394240;-3.1645;1.4148;4.6672;
2502749638501428;-6.9876;-1.0813;-4.6346;
2502749648608667;-13.1513;-2.8277;4.2646;
2502749658717105;-4.3549;-0.2668;-0.7588;
2502749668824292;-11.6806;0.4181;-16.0660;
2502749678931480;-15.4391;-1.0549;-5.0324;
2502749689042730;-6.6236;2.5190;1.6582;
2502749699149917;-9.9174;-0.2070;-1.1348;
2502749709257157;-8.4634;-0.4777;1.6558;
2502749719419605;-8.1398;-0.3099;0.5683;
2502749729526792;-14.2675;-0.6814;-0.9263;
2502749739634032;-6.6404;-0.1041;1.3110;
2502749749696272;-4.6184;-0.8177;-8.3070;
2502749759803459;-13.5754;-0.2572;-7.7776;
2502749769910647;-6.4869;0.0326;0.2498;
2502749780040855;-9.7639;0.4397;-6.6661;
2502749790148042;-13.9179;-0.8656;-3.0799;
2502749800255282;-7.4118;1.2254;4.1330;
2502749810324553;-7.9866;-0.2453;-2.4739;
2502749820431740;-16.4043;0.0398;-2.3518;
2502749830538980;-9.0574;0.9858;1.3971;
2502749840643042;-9.8073;0.3272;-2.0139;
2502749850750230;-9.5004;-0.1974;-0.5647;
2502749860857469;-6.4487;1.0866;-2.8837;
2502749870960751;-7.9890;0.2100;-6.0024;
2502749881067938;-11.1440;0.4325;-3.3075;
2502749891175178;-10.2479;0.7271;-1.9014;
2502749901259813;-8.8872;0.5883;-4.5078;
2502749911367001;-11.2540;0.1738;-1.3839;
2502749921474240;-9.6491;0.9619;-0.3897;
2502749931606063;-8.2549;0.0685;-1.8511;
2502749941713251;-11.0025;0.8662;-1.6738;
2502749951820490;-9.5916;0.5644;-3.5782;
2502749961927990;-10.7749;0.8088;-2.9961;
2502749972035178;-8.8274;0.9978;-2.2056;
2502749982142417;-8.5448;0.6553;-2.8765;
2502749992247001;-10.8634;0.3296;-1.8846;
2502750002354188;-10.3463;0.3033;0.3383;
2502750012461428;-7.7590;0.5477;-2.6728;
2502750022580022;-9.3162;0.0135;-3.5231;
2502750032687209;-8.8513;0.3870;-0.8067;
2502750042794449;-5.0809;0.3727;-3.2166;
2502750052903824;-12.7319;-0.4777;-5.4897;
2502750063011011;-8.1302;0.2985;-0.9287;
2502750073118251;-8.5902;0.2698;-2.3806;
2502750083222834;-13.1871;-0.4561;-2.5935;
2502750093330022;-11.3019;0.3751;1.2248;
2502750103437261;-5.8331;-0.2070;-0.3491;
2502750113534813;-6.6141;-1.0310;-2.9554;
2502750123642001;-12.7920;-0.1854;-4.7928;
2502750133749240;-10.6337;0.5094;-3.7723;
2502750143857001;-9.9006;0.6170;-0.3849;
2502750153964188;-9.2393;-0.2213;0.4869;
2502750164071428;-9.9580;-0.0945;0.3960;
2502750174184397;-10.3917;-0.2524;0.2163;
2502750184291584;-9.1244;-0.4609;-0.6389;
2502750194398824;-7.4931;0.0685;-2.9698;
2502750204505438;-8.1805;-0.2644;-3.0176;
2502750214612626;-10.5090;0.1522;-4.5987;
2502750224719865;-11.0599;0.2339;-3.9182;
2502750234824084;-8.3554;0.8207;-1.0702;
2502750244931272;-11.7739;0.1953;-2.9937;
2502750255038511;-12.7223;1.2087;-1.0223;
2502750265139397;-6.6284;0.5022;1.6152;
2502750275246584;-6.3168;0.2985;-1.4055;
2502750285353824;-10.4611;0.4014;-5.0946;
2502750295473980;-12.1475;1.8173;-3.4968;
2502750305581167;-7.8691;1.1919;-2.5170;
2502750315688407;-9.6873;0.7394;-1.6666;
2502750325790855;-12.8088;1.0220;-0.9144;
2502750335898042;-6.2043;1.0938;0.3096;
2502750346005282;-7.2655;-0.1831;-2.5337;
2502750356100074;-11.8122;0.0996;-6.0263;
2502750366207261;-11.8840;1.6591;-4.3926;
2502750376314501;-7.2966;1.1871;-1.5302;
2502750386446063;-8.4105;0.3057;-2.9889;
2502750396553251;-10.6744;0.3918;-1.9947;
2502750406660490;-14.4090;1.7309;0.1493;
2502750416755126;-8.4993;0.4516;0.9876;
2502750426862313;-8.3961;0.5429;-0.9984;
2502750436969553;-10.1689;0.1451;-2.4284;
2502750447073147;-5.5672;0.0757;-3.7986;
2502750457180334;-7.2368;0.3799;-6.5533;
2502750467287574;-11.1293;0.0230;-5.0779;
2502750477385334;-11.4601;0.7968;-3.4322;
2502750487492522;-11.1365;0.5907;-3.3984;
2502750497599761;-9.7807;-0.1304;0.7313;
2502750507716688;-7.0881;0.3942;0.4223;
2502750517823876;-10.9451;-0.7220;-3.0535;
2502750527931115;-11.8935;0.5142;-2.2702;
2502750538031167;-6.1301;0.1475;-3.6404;
2502750548138355;-12.9715;0.5883;-4.4381;
2502750558245594;-10.9714;0.7657;-2.5170;
2502750568407834;-6.0245;0.3751;-2.0426;
2502750578515022;-7.4261;-0.6837;-1.5060;
2502750588622261;-8.8585;-0.3820;-2.8642;
2502750598663980;-10.3367;0.6864;-5.0372;
2502750608771167;-9.9341;0.3296;-2.1194;
2502750618878407;-6.9900;0.3224;-1.7432;
2502750628987938;-10.6816;0.0733;-3.3482;
2502750639095126;-10.5832;0.6242;-1.0487;
2502750649202365;-7.1530;0.5620;-2.2463;
2502750659335907;-11.8600;0.3775;-3.4322;
2502750669443094;-11.3785;0.5501;0.1636;
2502750679550334;-6.9039;1.1608;-1.5876;
2502750689653876;-8.3124;-0.5207;-4.0310;
2502750699761063;-11.7332;0.4062;-1.3409;
2502750709868303;-11.6013;0.9308;-0.7828;
2502750719956167;-13.1513;0.5094;0.8919;
2502750730063355;-6.9924;0.0302;2.4775;
2502750740170594;-7.6176;-0.7531;-0.7131;
2502750750287730;-11.9656;-0.0033;-2.7398;
2502750760394917;-9.8551;0.4759;-2.4739;
2502750770502157;-6.8656;0.0063;-3.3984;
2502750780596376;-8.8801;0.1570;-2.0163;
2502750790703563;-8.9901;-0.1950;-3.2501;
2502750800810803;-9.6491;0.2841;-3.7986;
2502750810915334;-8.1924;-0.7220;-2.1721;
2502750821022469;-10.2670;-0.0464;-2.3423;
2502750831129657;-14.4497;0.2985;-2.5552;
2502750841257001;-7.7112;0.5524;1.1384;
2502750851364136;-4.5993;-0.0153;-2.6656;
2502750861471324;-15.5922;-0.5614;-4.3543;
2502750871549657;-13.3358;1.3023;1.0044;
2502750881656792;-5.2582;0.8136;0.2593;
2502750891763980;-9.8456;-0.5136;-3.3171;
2502750901898251;-13.4339;0.5405;-0.4496;
2502750912005386;-6.4104;0.7848;-0.4065;
2502750922112574;-6.7002;-1.0071;-3.5207;
2502750932213980;-9.1220;-0.2835;-3.3553;
2502750942321115;-12.2315;0.0182;-4.2009;
2502750952428303;-7.0594;0.6769;-4.0238;
2502750962522105;-7.8500;-0.0200;-4.3543;
2502750972629240;-13.6161;0.1929;-2.7470;
2502750982736428;-7.8165;0.3775;2.1087;
2502750992851272;-7.8571;0.6386;-2.9698;
2502751002958407;-11.9991;-0.2931;-4.5508;
2502751013065594;-9.8647;0.9619;-0.4184;
2502751023170855;-7.7710;0.6721;-1.8368;
2502751033277990;-7.9460;-0.3338;-4.2514;
2502751043385178;-10.3391;0.7633;-2.7350;
2502751053498772;-10.6146;0.7585;-2.2630;
2502751063605907;-9.7208;0.3416;-2.9172;
2502751073713094;-8.2980;0.3846;-2.2893;
2502751083811272;-11.9465;0.2243;0.2665;
2502751093918407;-10.3822;0.8614;0.3287;
2502751104025594;-8.0632;-0.4896;-1.4342;
2502751114134605;-10.6959;0.3823;-3.2118;
2502751124241740;-10.4133;0.1020;-1.7910;
2502751134348928;-9.0526;1.2736;-1.7384;
2502751144468459;-6.9972;-0.6574;-3.0894;
2502751154575594;-10.0059;0.5046;-3.8680;
2502751164682782;-9.6969;0.0709;-1.8057;
2502751174779813;-8.7051;0.3344;-3.0488;
2502751184886949;-9.5052;0.5357;-3.5997;
2502751194994136;-11.0240;0.2148;-2.2606;
2502751205101167;-9.1579;0.6099;0.3793;
2502751215208303;-5.6438;-0.7196;-1.4868;
2502751225315490;-13.0122;0.3607;-4.6274;
2502751235425022;-12.0876;0.3416;-1.7743;
2502751245532157;-8.7147;1.1704;-0.6197;
2502751255639344;-7.7064;-0.1902;-2.0979;
2502751265741063;-10.4396;0.5453;-3.0894;
2502751275848199;-10.5855;0.4878;-1.2882;
2502751285955386;-7.0810;0.4253;-1.8535;
2502751296070022;-11.6157;-0.5423;-4.2873;
2502751306177157;-7.7997;1.0220;-3.2548;
2502751316284344;-3.8710;0.1810;-0.4352;
2502751326380334;-24.7167;0.5309;-3.9832;
2502751336487469;-14.6821;1.1130;4.5377;
2502751346594657;7.7375;0.2554;2.2358;
2502751356712938;-7.8476;-2.6264;-6.9320;
2502751366820074;-16.0331;0.9165;-7.3080;
2502751376927261;-16.7061;2.5238;-2.0740;
2502751387024397;-5.5119;0.8064;0.3120;
2502751397131532;-2.4218;-0.3963;-2.3830;
2502751407238719;-10.9762;0.1379;-5.3509;
2502751417355647;-11.1727;0.9930;-3.4729;
2502751427462782;-9.5243;1.1919;-4.4405;
2502751437569969;-12.7032;-0.0993;-0.2007;
2502751447662938;-7.2488;0.7394;5.5056;
2502751457770074;-9.4334;1.0747;-7.3367;
2502751467877261;-19.2694;-0.3820;-4.9340;
2502751477991897;-31.4121;2.4185;9.3335;
2502751488099032;-2.2469;2.1957;6.8710;
2502751498206219;43.6795;-3.8722;-0.0305;
2502751508311272;1.5643;-3.3356;-29.4712;
2502751518418407;-59.7916;-1.3496;-23.4416;
2502751528525594;-21.3344;6.3230;18.5369;
2502751538625022;15.0437;5.5998;10.3277;
2502751548732157;-3.6434;-2.9282;-5.8253;
2502751558839344;-16.6678;-4.5691;-0.2868;
2502751568949553;-12.7777;1.2685;0.9661;
2502751579056688;-6.5874;1.3717;-6.6060;
2502751589163876;-7.7303;-0.7340;-8.9489;
2502751599280490;-10.0947;-0.5351;-2.0788;
2502751609387678;-10.6840;1.1752;-8.7790;
2502751619494813;-20.8170;0.2841;-9.8354;
2502751629580334;-9.6849;3.4510;13.8826;
2502751639687469;-5.6964;-1.7163;20.4727;
2502751649794657;-0.2515;2.2507;9.9251;
2502751659924917;-7.5793;-2.3844;-11.9889;
2502751670032053;-24.8773;-0.0057;-18.3081;
2502751680139240;-4.7862;1.0890;-1.4533;
2502751690239813;3.3395;2.1550;-2.4021;
2502751700346949;-14.7873;0.1738;-9.3371;
2502751710454136;-14.1933;1.1752;-1.1779;
2502751720557417;-7.1097;3.3766;1.6415;
2502751730664553;-4.9561;0.1259;-3.1496;
2502751740771740;-9.9030;-0.1831;-6.9799;
2502751750863355;-15.8055;0.3966;-2.3061;
2502751760970490;-10.7653;2.4855;2.4200;
2502751771077678;-3.0111;0.4349;-2.1075;
2502751781184449;-13.2446;-0.0682;-4.0358;
2502751791291584;-11.9871;1.5368;0.0894;
2502751801398772;-8.8155;1.4578;-0.3467;
2502751811520907;-11.0671;0.1475;-1.9277;
2502751821628042;-7.9579;-0.1400;1.2105;
2502751831735230;-5.9456;1.0890;-2.7996;
2502751841870022;-13.7501;-0.2477;-5.0109;
2502751851977157;-7.3540;0.3679;-2.0139;
2502751862084344;-4.9059;0.7370;-3.7244;
2502751872161272;-10.3702;-0.4753;-4.9627;
2502751882268407;-9.9174;-0.5901;-2.4930;
2502751892375542;-11.0695;1.1512;-4.0908;
2502751902491688;-12.1786;-0.0392;0.7696;
2502751912598824;-7.3804;0.9619;2.2765;
2502751922706011;-8.5974;-0.3676;-2.4021;
2502751932809605;-12.6745;0.0446;-3.6380;
2502751942916740;-10.4827;0.7825;-1.8799;
2502751953023928;-7.6056;0.5429;-1.5278;
2502751963124813;-7.7662;-0.0511;-2.0593;
2502751973231949;-10.7246;0.2291;-3.5088;
2502751983339136;-11.2875;-0.3266;-0.2438;
2502751993450490;-7.6729;0.5501;-1.9397;
2502752003557626;-11.2780;-0.6431;-3.4585;
2502752013664813;-8.9160;0.0087;-0.3012;
2502752023778824;-6.9541;-0.3939;-2.1864;
2502752033885959;-8.3578;-0.0631;-4.3519;
2502752043993147;-9.6921;-0.2859;-4.0047;
2502752054103147;-10.1474;1.1465;-2.9387;
2502752064210282;-12.0494;-0.3123;-1.6786;
2502752074317469;-10.6337;0.5189;-1.2090;
2502752084416792;-9.0790;0.2028;-0.4905;
2502752094523928;-9.7831;0.1810;-0.8258;
2502752104631115;-5.7730;-0.6670;-0.7226;
2502752114746272;-12.8542;-0.1615;-6.3739;
2502752124853407;-6.0341;0.1522;-3.3290;
2502752134960594;-13.3621;0.6840;-2.6106;
2502752145042522;-20.7449;2.1048;0.5420;
2502752155149657;-6.3314;0.9500;6.4469;
2502752165256844;1.5093;-0.0009;-0.6532;
2502752175380022;-8.8179;-1.6394;-6.3209;
2502752185487157;-12.6027;-0.1328;-6.5533;
2502752195594344;-7.4213;1.0627;-5.2382;
2502752205712157;-9.9509;0.2913;-4.4405;
2502752215819292;-7.2846;-0.1831;-1.6522;
2502752225926480;-9.2707;0.2698;-4.0023;
2502752236023459;-11.8217;0.6673;-2.6058;
2502752246130594;-11.3091;0.7609;-0.2366;
2502752256237782;-9.4334;0.8040;2.7434;
2502752266342522;3.5910;-0.5734;0.0870;
2502752276449657;-19.1471;-0.8707;-14.8872;
2502752286556844;-29.0381;0.9547;-2.4667;
2502752296672417;-0.5653;3.9012;13.7414;
2502752306779553;0.1104;0.4086;0.4750;
2502752316886740;-12.7968;-2.7173;-4.4309;
2502752326989397;-18.0981;0.1714;-1.5852;
2502752337096532;-9.1173;0.3727;2.2597;
2502752347203719;2.1966;-1.2658;-3.9616;
2502752357295282;-11.9079;-1.4264;-10.0603;
2502752367402417;-14.1718;0.0230;-1.1994;
2502752377509605;-5.3946;1.9394;1.5266;
2502752387626063;-8.0393;-0.3772;-5.6360;
2502752397733199;-14.8831;-0.7795;-1.1515;
2502752407840386;-5.6988;1.1536;2.4033;
2502752417952834;-7.9193;-0.3075;-7.7991;
2502752428059969;-15.6401;-0.3915;-5.2669;
2502752438167157;-7.8236;1.7261;1.1408;
2502752448262834;-6.0751;0.4110;-0.0353;
2502752458369969;-7.7901;-1.0765;-4.4046;
2502752468477157;-15.2545;0.1690;-6.3667;
2502752478578147;-12.8925;1.5081;1.8619;
2502752488685282;-4.4387;0.7032;4.1833;
2502752498792469;-9.6036;-0.8058;-2.9219;
2502752508904397;-11.4960;-0.5088;-1.6068;
2502752519011532;-10.8299;1.1345;-0.6748;
2502752529118719;-8.2837;0.2124;-1.8607;
2502752539226480;-9.9413;-0.1424;-4.1004;
2502752549333615;-9.5342;0.7920;-1.9851;
2502752559440803;-7.3014;0.4735;-2.2104;
2502752569575751;-10.4635;-0.4753;-3.2620;
2502752579682886;-8.5926;0.3081;-2.3758;
2502752589790074;-11.2445;1.0364;-3.0057;
2502752599890438;-7.6463;0.5524;-1.9588;
2502752609997574;-7.0355;1.0747;-2.0258;
2502752620104761;-12.2459;0.5716;-2.3157;
2502752630178876;-11.4362;0.7681;-1.0223;
2502752640286011;-8.3722;1.0484;-0.2653;
2502752650393199;-10.6696;0.6410;-1.3983;
2502752660527626;-11.1799;1.7668;-1.5302;
2502752670634761;-9.0503;1.2111;-1.4868;
2502752680741949;-7.9316;0.6769;-3.0200;
2502752690829084;-7.1770;0.0206;-2.2582;
2502752700936219;-13.1369;1.3525;-4.2754;
2502752711043407;-11.2373;1.0292;-2.1553;
2502752721169188;-7.8906;0.8734;-0.5599;
2502752731276324;-9.7615;-0.2046;-1.4797;
2502752741383511;-8.4969;0.3631;0.2306;
2502752751510751;-7.8835;0.0230;-2.2989;
2502752761617886;-9.5749;-0.2668;-5.0946;
2502752771725074;-10.6935;0.9069;-1.8894;
2502752781817001;-10.2526;1.0603;-1.7985;
2502752791924136;-10.1785;0.2483;-3.9760;
2502752802031324;-5.3994;-0.0464;-1.4318;
2502752812120907;-7.0618;-0.7579;-2.7470;
2502752822228042;-16.5099;0.6601;-4.0382;
2502752832335178;-11.7930;1.3741;-0.5288;
2502752842435438;-6.3649;-0.2812;0.0030;
2502752852542574;-8.9447;0.2722;-0.9479;
2502752862649709;-9.4789;-0.2309;-2.2032;
2502752872757834;-13.3358;0.6170;-2.6512;
2502752882864969;-8.3722;0.5405;-0.1717;
2502752892972105;-8.8729;-0.3796;-1.5132;
2502752903081740;-13.9322;0.4588;-1.2595;
2502752913188876;-10.8634;0.6553;-1.0845;
2502752923296011;-5.2149;-1.8646;-2.1218;
2502752933402105;-15.7696;1.0149;-2.5146;
2502752943509240;-7.2440;0.7199;1.6822;
2502752953616376;-4.4267;-1.0190;-6.3906;
2502752963721063;-8.6189;-0.6311;-5.8804;
2502752973828199;-3.4041;1.1943;-3.2381;
2502752983935334;6.0942;-1.1988;-10.2473;
2502752994041167;-33.1298;0.7657;-9.9670;
2502753004148303;-21.7606;4.7782;13.3699;
2502753014255438;1.8015;0.5764;5.0886;
2502753024362417;-3.3775;-5.9297;-4.5580;
2502753034469553;-11.4024;0.6505;-2.3204;
2502753044576688;-12.4205;2.2699;-3.7412;
2502753054693355;-7.6271;-1.1677;-5.5738;
2502753064800490;-9.7472;0.4660;-9.5671;
2502753074907626;-12.2937;2.4879;-1.7360;
2502753085008563;-8.4320;1.9466;6.0924;
2502753095115699;-10.9738;0.0135;-0.2198;
2502753105222834;-12.9188;-0.8441;2.3794;
2502753115355022;-8.5854;0.3392;9.7071;
2502753125462157;0.3018;-1.1004;-0.1860;
2502753135569292;-18.2895;-2.2289;-17.0264;
2502753145667417;-13.8532;1.4961;-3.8895;
2502753155774553;0.7810;3.7098;1.4859;
2502753165881688;-7.9699;-1.4623;-6.2420;
2502753175978042;-13.0651;-0.2166;-4.0047;
2502753186085178;-12.4660;2.0662;-1.4103;
2502753196192313;-12.1092;0.6793;0.1564;
2502753206304084;-6.8510;1.2422;3.1053;
2502753216411219;-8.9925;-0.4274;-2.1649;
2502753226518355;-12.8949;0.5357;-1.7862;
2502753236616063;-8.3937;1.5945;-2.1553;
2502753246723199;-10.0995;0.5477;-4.3113;
2502753256830334;-11.4936;1.3023;-0.5456;
2502753266940022;-8.1924;1.1465;-1.6929;
2502753277047157;-6.1588;-0.2907;-4.2275;
2502753287154292;-7.9340;0.8686;-1.6116;
2502753297260334;-9.1771;0.0924;-3.1424;
2502753307367469;-11.6635;0.1427;-5.4849;
2502753317474605;-8.8537;0.2722;0.0485;
2502753327572938;-6.5180;0.4564;-1.7838;
2502753337680074;-11.8433;0.3799;-3.9302;
2502753347787209;-13.9561;0.6793;-0.2964;
2502753357893094;-10.2526;1.4698;0.4893;
2502753368000230;-8.5639;-0.0631;-1.7192;
2502753378107365;-10.0394;0.2554;-0.3849;
2502753388220230;-9.7137;1.5969;-2.4739;
2502753398327365;-8.3937;-0.5088;-3.7460;
2502753408434501;-8.0847;0.2985;-2.2606;
2502753418541584;-8.7509;0.9476;-1.8775;
2502753428648719;-10.6337;0.0039;-3.6571;
2502753438755855;-9.7783;-0.0535;-0.3060;
2502753448863980;-8.6931;0.0494;-0.0664;
2502753458971115;-11.2349;-0.0754;-1.3720;
2502753469078251;-10.5090;-0.7077;-0.4041;
2502753479178407;-6.8055;-0.2309;-2.5839;
2502753489285542;-7.8380;-0.6766;-5.2840;
2502753499392678;-12.7705;0.3775;-4.4070;
2502753509504292;-11.2923;0.5309;-1.6499;
2502753519611428;-9.0598;0.1570;-1.6427;
2502753529718563;-10.4922;-0.4609;-0.5312;
2502753539876792;-11.8026;0.4660;-0.0425;
2502753549983928;-10.3101;1.1656;-0.2438;
2502753560091063;-6.7696;-0.4872;-1.5805;
2502753570133251;-8.6166;-0.4466;-2.7015;
2502753580240386;-9.3808;-0.5614;-2.9722;
2502753590347522;-8.2167;-0.3891;-3.6595;
2502753600473980;-9.6323;-0.3963;-6.7235;
2502753610581115;-11.0432;-0.4370;-3.0559;
2502753620688251;-10.9857;0.1499;1.0594;
2502753630806376;-5.4736;-1.0573;-0.9120;
2502753640913511;-7.9651;-1.5748;-3.9784;
2502753651020647;-13.3406;-0.4226;-3.1301;
2502753661133251;-12.2267;-0.2309;-2.5528;
2502753671240386;-4.4988;-0.6933;-4.1507;
2502753681347522;-9.6203;-0.0153;-3.0416;
2502753691448407;-11.1221;0.0517;-0.6245;
2502753701555542;-10.7462;-0.1783;0.0150;
2502753711662678;-9.8719;0.2770;-0.8521;
2502753721749188;-9.0383;-0.3170;-0.6724;
2502753731856324;-10.4803;0.0709;-0.5743;
2502753741963459;-10.9283;0.1570;-1.0487;
2502753752068772;-9.9939;-0.1041;-2.6680;
2502753762175907;-6.9924;-0.6550;-3.1014;
2502753772283042;-8.8226;-0.4872;-1.8823;
2502753782395647;-9.3138;-0.1567;-4.8407;
2502753792502782;-13.1345;0.0278;-5.5400;
2502753802609917;-11.2971;1.2589;1.2296;
2502753812721167;-5.9025;0.6745;1.8452;
2502753822828303;-10.4037;-0.2189;-2.8789;
2502753832935386;-9.9891;0.6266;-1.0415;
2502753843038459;-10.1737;1.1010;-2.8403;
2502753853145594;-9.2922;0.5022;-2.0306;
2502753863252678;-8.4177;1.1943;-1.5781;
2502753873360647;-8.6955;1.0125;-3.8058;
2502753883467782;-9.2178;0.6362;-3.3673;
2502753893574865;-11.3474;0.8303;-2.7517;
2502753903688876;-9.4047;0.3775;-0.3873;
2502753913796011;-10.4563;0.6003;-1.4174;
2502753923903094;-11.9824;0.2387;-1.3169;
2502753934004084;-9.3425;0.3176;0.3072;
2502753944111219;-6.7959;-0.0057;-1.3313;
2502753954218303;-6.7792;0.8231;-4.7207;
2502753964329709;-7.8452;-0.3556;-4.8239;
2502753974436844;-21.3416;1.2374;-0.6293;
2502753984543928;-15.8797;1.3741;5.6468;
2502753994642730;-0.8288;-0.2883;0.3745;
2502754004749865;-0.5342;-1.2538;-4.5413;
2502754014856949;-11.1293;0.3344;-5.7150;
2502754024966063;-15.5683;0.9428;-5.4491;
2502754035073199;-14.4568;0.5716;-1.9971;
2502754045180282;-6.5707;0.4086;1.7112;
2502754055298980;-6.0559;0.7585;-0.8665;
2502754065406115;-11.6563;0.2506;-2.9076;
2502754075513199;-13.0436;0.1714;-1.7192;
2502754085617105;-8.0393;0.0206;-1.7312;
2502754095724240;-8.4320;-0.3628;1.0044;
2502754105831324;-4.5802;-0.2931;-1.5302;
2502754115939501;-9.6371;0.0374;-12.0129;
2502754126046636;-12.5429;0.8997;-7.7201;
2502754136153719;-12.3344;0.4253;1.7447;
2502754146270022;-6.7170;0.1451;2.3459;
2502754156377157;-6.5468;-0.1950;-3.0224;
2502754166484292;-12.6147;-0.0200;-1.8894;
2502754176577417;-13.8245;0.6123;0.0772;
2502754186684553;-7.8332;0.4588;-2.2822;
2502754196791636;-7.5027;-0.6431;-3.2453;
2502754206900855;-9.9652;0.1594;-2.3662;
2502754217007990;-11.4649;0.5046;-1.0367;
2502754227115074;-8.6357;-0.0153;-1.8631;
2502754237212522;-6.4726;-0.2907;-1.7671;
2502754247319657;-7.4309;-0.2429;-2.8499;
2502754257426740;-12.7992;-0.6215;-2.2941;
2502754267542105;-10.9211;-0.1831;-1.4270;
2502754277649240;-8.3076;-0.4250;-2.8956;
2502754287756324;-9.5916;-0.5590;-2.1099;
2502754297859605;-9.4717;0.2889;0.4367;
2502754307966740;-11.5271;0.7633;-1.8320;
2502754318073824;-10.2215;0.6434;-2.7398;
2502754328179813;-7.3899;0.2148;-1.9062;
2502754338286949;-8.1541;0.4301;-2.5074;
2502754348394032;-11.3952;1.0002;-2.4380;
2502754358500230;-10.0131;1.3334;-2.4188;
2502754368607365;-6.8127;0.9117;-0.9168;
2502754378714449;-7.1025;-0.3437;-1.9708;
2502754388822834;-15.4053;0.7295;-3.3601;
2502754398929969;-13.1369;1.5224;-0.3227;
2502754409037053;-9.8767;1.3095;0.3553;
2502754419134709;-5.7996;0.8040;0.7074;
2502754429241844;-6.7983;0.3057;-2.6536;
2502754439348980;-13.2975;0.9308;-4.4477;
2502754449460751;-10.7462;1.5368;-2.7422;
2502754459567886;-8.3650;0.8877;-1.6427;
2502754469675022;-11.1197;0.4759;-0.2868;
2502754479805438;-7.2129;0.7223;-0.0544;
2502754489912574;-8.9925;-0.2524;-3.8225;
2502754500019709;-9.9915;-0.5399;-2.3518;
2502754510097313;-11.2086;-0.1376;-2.0210;
2502754520204449;-9.3927;0.4229;-1.9445;
2502754530311532;-6.7959;-0.5734;-4.1267;
2502754540448251;-8.1135;-1.2491;-4.9436;
2502754550555386;-9.7950;-0.7268;-3.6643;
2502754560662469;-12.5836;-0.5016;-0.1238;
2502754570740855;-10.6265;0.5309;1.1626;
2502754580847990;-11.1440;1.1345;-1.0750;
2502754590955074;-11.5415;1.1919;-0.6245;
2502754601078980;-4.6854;0.7418;-1.9732;
2502754611186115;-11.0982;-0.5806;-4.6777;
2502754621293199;-8.9590;0.0374;-1.9158;
2502754631402522;-5.2917;0.2530;-3.0344;
2502754641509657;-11.1799;-0.3532;-6.7355;
2502754651616792;-11.2588;0.4926;-3.7244;
2502754661718042;-6.1516;1.0627;-0.8282;
2502754671825178;-9.3544;-0.2788;-0.0520;
2502754681932261;-9.5438;0.3344;0.1516;
2502754692036167;-9.3903;0.7370;-1.7216;
2502754702143303;-10.8876;-0.8731;-3.2931;
2502754712250386;-19.0561;1.6759;-2.0402;
2502754722371897;-8.0058;2.8953;2.3028;
2502754732479032;-0.5988;0.2770;-0.3491;
2502754742586115;-17.5014;-1.6322;-5.0157;
2502754752672001;-16.3038;0.9547;-0.3275;
2502754762779136;-0.1822;3.0652;2.1781;
2502754772886219;-7.8284;-0.5279;-5.5304;
2502754783032834;-16.9552;-0.2142;-4.6992;
2502754793139969;-6.1086;2.0183;2.7290;
2502754803247105;-10.2048;1.5419;0.0269;
2502754813325855;-12.5572;-0.1448;-1.8392;
2502754823432990;-2.4577;-0.1759;0.0772;
2502754833540074;-7.6896;-0.5351;-4.2251;
2502754843649917;-15.5085;0.4205;-8.1679;
2502754853757053;-9.3784;0.6314;-6.0287;
2502754863864136;-10.0756;-0.0706;-2.1793;
2502754873963147;-9.1101;-0.2859;1.3995;
2502754884070282;-7.2823;0.4205;-3.8297;
2502754894177365;-12.6458;-0.2668;-5.6719;
2502754904283980;-10.2718;1.1154;1.5649;
2502754914391115;-5.4712;0.3105;-0.0664;
2502754924498199;-11.1799;-0.4968;-4.5532;
2502754934607157;-10.4539;0.3248;-0.0975;
2502754944714292;-8.0776;0.6075;-4.3519;
2502754954821376;-10.5257;-0.0296;-4.6848;
2502754964922157;-11.6013;0.3823;1.9122;
2502754975029292;-6.5515;0.6434;-0.3993;
2502754985136376;-7.6152;-1.2754;-5.2190;
2502754995243147;-12.2865;-0.8465;-3.7244;
2502755005350282;-8.1302;-0.1926;-4.1219;
2502755015457365;-7.0259;-0.5088;-3.3984;
2502755025561272;-9.3760;-0.4968;-3.0751;
2502755035668407;-14.1503;-0.1161;0.1158;
2502755045775490;-6.2354;0.1522;2.9518;
2502755055893251;-8.4368;0.2001;-2.9291;
2502755066000386;-16.5721;-0.6479;-3.4513;
2502755076107469;-7.9651;0.5668;1.9819;
2502755086210751;-5.3468;0.3200;-1.1587;
2502755096317886;-9.6108;-0.6144;-5.3629;
2502755106424969;-11.2253;-0.3266;-3.7986;
2502755116537105;-8.2310;-0.2620;-2.9650;
2502755126644240;-11.1966;0.2818;-2.5887;
2502755136751324;-11.4577;0.8040;0.2880;
2502755146862522;-6.9422;1.0747;-0.3849;
2502755156969657;-9.1795;-1.0502;-1.4055;
2502755167076740;-10.6385;0.1355;-0.7540;
2502755177176063;-10.1498;-0.0778;-1.6211;
2502755187283199;-11.1751;-0.3532;-2.2917;
2502755197390282;-8.6524;0.2530;-0.7732;
2502755207506480;-8.2908;0.1762;-3.6045;
2502755217613615;-9.7161;-0.0129;-3.5997;
2502755227720699;-7.3325;-0.3532;-1.5948;
2502755237815438;-7.7351;0.2459;-2.8642;
2502755247922574;-15.2450;0.3846;-3.5710;
2502755258029657;-10.5425;1.4291;0.3817;
2502755268140490;-4.6041;1.1249;-0.3897;
2502755278247626;-10.3702;-0.2453;-4.9962;
2502755288354709;-13.8963;0.4205;-0.0616;
2502755298457522;-6.3191;1.5945;0.8198;
2502755308564657;-9.8384;-0.7053;-2.3614;
2502755318671740;-14.6916;0.1451;-2.2606;
2502755328783980;-9.9748;1.1776;-0.6245;
2502755338891115;-8.0871;0.0900;-0.8689;
2502755348998199;-7.1530;0.3033;-2.1625;
2502755359085751;-9.2465;0.1068;-3.4107;
2502755369192886;-12.2842;-0.3338;-2.7374;
2502755379299969;-8.3794;0.1642;-0.3156;
2502755389406792;-7.4022;0.3535;-4.8120;
2502755399513928;-10.9020;-0.0754;-4.2514;
2502755409621011;-9.0598;0.4158;-1.1109;
2502755419728251;-8.8107;0.1642;-1.0510;
2502755429835386;-9.3784;0.5596;-2.2415;
2502755439942469;-12.3847;0.1211;-1.7312;
2502755450072053;-9.0503;0.6099;-0.7732;
2502755460179188;-8.0728;0.5668;-3.6933;
2502755470286272;-12.0159;0.4711;-3.1519;
2502755480371584;-9.2082;0.8088;-1.6834;
2502755490478719;-8.6955;0.6147;-1.7169;
2502755500585803;-10.6505;-0.1950;-2.0019;
2502755510725022;-8.3818;0.6338;-2.4571;
2502755520832157;-7.6176;0.6697;-3.5255;
2502755530939240;-10.4324;0.4229;-3.3051;
2502755541020022;-13.0074;0.6840;-1.2329;
2502755551127157;-6.2641;0.7295;2.0680;
2502755561234240;-7.7830;0.0517;-2.3518;
2502755571340022;-12.6769;-0.1615;-3.1205;
2502755581447157;-12.6194;1.0651;-1.4581;
2502755591554240;-8.7796;1.2350;-1.5565;
2502755601657522;-6.5539;0.1331;-1.7049;
2502755611764657;-5.9408;-0.3123;-3.5997;
2502755621871740;-11.0767;-0.0559;-6.1654;
2502755631982730;-12.1499;1.0938;-3.3386;
2502755642089865;-9.1627;1.3406;-1.1635;
2502755652196949;-8.9542;0.8949;-1.0056;
2502755662306376;-10.5999;0.4421;0.3673;
2502755672413511;-9.5148;0.1522;1.3277;
2502755682520594;-9.1077;0.4373;-2.4093;
2502755692636897;-10.1091;-0.4370;-3.2046;
2502755702744032;-8.6166;0.6266;-0.6772;
2502755712851115;-9.6347;0.5740;-2.9459;
2502755722955334;-8.0608;-0.1950;-4.2610;
2502755733062469;-11.2205;-0.0392;-4.3902;
2502755743169553;-11.1631;0.4062;-1.1420;
2502755753270022;-8.6309;0.9236;0.5970;
2502755763377157;-8.7218;-0.1687;-1.3409;
2502755773484240;-11.5176;-0.6550;-2.6201;
2502755783589709;-9.8551;0.3153;-1.5108;
2502755793696844;-9.1125;-0.1089;-0.6365;
2502755803803928;-8.2406;0.3727;-1.2595;
2502755813917417;-9.2803;-0.0081;-3.9039;
2502755824024501;-9.8145;-0.2716;-2.5170;
2502755834131584;-11.4434;0.7920;-1.6977;
2502755844232834;-10.7581;1.1847;-0.6461;
2502755854339917;-8.8490;0.2100;-1.9181;
2502755864447001;-6.5061;-0.7316;-0.6652;
2502755874552938;-11.1341;0.2339;-4.3184;
2502755884660022;-12.3416;-0.2524;-2.8618;
2502755894767105;-6.2019;0.6003;-0.2581;
2502755904884657;-10.9929;-0.2094;-3.8297;
2502755914991740;-11.1341;0.1714;-1.4055;
2502755925098824;-8.9518;0.6984;-0.1669;
2502755935206167;-11.4745;0.1570;-1.2449;
2502755945313251;-8.5759;-0.0583;-1.8057;
2502755955420334;-10.3798;-0.2094;-0.8115;
2502755965521324;-7.5506;0.5931;-1.3504;
2502755975628407;-8.1757;-0.7125;-3.7172;
2502755985735490;-8.9160;0.3631;-5.0204;
2502755995837417;-10.0947;0.2626;-4.5174;
2502756005944501;-11.1655;0.2626;-1.5446;
2502756016051584;-7.3469;0.7152;-1.1731;
2502756026161167;-10.1952;0.4301;-4.0980;
2502756036268251;-12.3847;-0.5710;-1.6235;
2502756046375334;-6.9924;1.3071;0.9159;
2502756056491272;-8.8920;-0.1137;-2.5122;
2502756066598355;-8.9231;-0.1974;-2.3949;
2502756076705438;-7.1025;0.1379;-3.8871;
2502756086808251;-18.8477;0.8064;-2.8813;
2502756096915334;-13.1536;1.8102;3.6084;
2502756107022417;-4.4363;0.1929;0.3840;
2502756117128042;-5.3013;-0.7675;-0.9455;
2502756127235126;-11.0743;-0.4561;-5.6121;
2502756137342209;-12.5668;0.3392;-3.6957;
2502756147474709;-4.4605;0.9093;-1.7001;
2502756157581792;-8.9231;0.1786;-5.6121;
2502756167688876;-13.3525;0.3033;-3.3697;
2502756177769188;-10.6385;1.2613;1.9313;
2502756187876272;-9.5100;0.7175;0.4415;
2502756197983355;-10.0947;-0.4466;-1.8655;
2502756208087417;-10.4420;0.7442;-0.7708;
2502756218194501;-8.3650;0.4974;0.9852;
2502756228301584;-6.6835;0.9165;-4.3352;
2502756238406688;-12.1092;-0.0176;-8.4194;
2502756248513772;-7.9292;0.7896;-3.6643;
2502756258620855;-8.6644;0.9021;-1.3074;
2502756268731792;-11.7978;0.7561;-0.8689;
2502756278838876;-11.3952;0.7633;-1.0271;
2502756288945959;-11.7547;0.3583;-0.2198;
2502756299048667;-9.1603;0.3320;1.2966;
2502756309155751;-7.9938;0.4612;-0.6413;
2502756319262834;-9.0024;-0.3963;-3.7412;
2502756329422730;-7.7112;-0.0129;-4.2084;
2502756339529813;-7.4524;0.2243;-5.3414;
2502756349636897;-10.7773;0.7247;-4.7641;
2502756359691584;-8.8322;1.1512;-1.5757;
2502756369798667;-8.7218;0.4038;-1.7097;
2502756379905751;-12.0446;0.3272;-2.0764;
2502756390051897;-11.6468;-0.0248;0.5109;
2502756400158980;-6.8584;0.4181;0.8557;
2502756410266063;-7.8882;0.0709;-3.9760;
2502756420339292;-11.0145;0.0781;-4.8168;
2502756430446376;-9.4621;0.8782;-2.5863;
2502756440553459;-9.9604;1.1656;-1.9277;
2502756450660438;-10.4037;0.0326;-1.9373;
2502756460767522;-10.0971;0.6721;-1.2763;
2502756470874605;-10.0011;1.0842;-0.0640;
2502756480993147;-10.6840;0.4564;0.6858;
2502756491100230;-9.7854;0.3224;-0.1047;
2502756501207313;-7.7973;0.0805;-1.6475;
2502756511313147;-6.9278;-0.5973;-3.0535;
2502756521420230;-11.1488;-0.0778;-5.2071;
2502756531527313;-12.1331;0.6745;-2.9267;
2502756541637417;-8.2597;0.6242;-1.3696;
2502756551744501;-7.2200;0.0350;-2.9770;
2502756561851584;-9.7519;0.7753;-2.2223;
2502756571940230;-11.4769;1.1082;-1.1707;
2502756582047313;-11.3785;0.3057;-0.2055;
2502756592154397;-7.7806;0.2889;-1.2090;
2502756602261897;-8.5017;0.1475;-1.2835;
2502756612368980;-11.6492;0.4301;-2.3758;
2502756622476063;-9.5821;0.0470;-2.3925;
2502756632576167;-7.0427;0.7056;-2.5385;
2502756642683251;-6.2234;-0.4561;-4.9053;
2502756652790334;-17.5229;0.8327;-3.8297;
2502756662907157;-11.9632;1.4363;3.2345;
2502756673014240;-4.7264;0.1331;-0.1214;
2502756683121324;-11.3043;-0.2955;-6.0287;
2502756693240542;-12.1499;1.1225;0.4941;
2502756703347626;-9.5629;1.1919;0.4989;
2502756713454709;-8.1470;0.2794;-1.8224;
2502756723554605;-7.1267;-0.0057;-3.3864;
2502756733661688;-11.9246;0.4998;-3.4394;
2502756743768772;-10.2479;1.4004;-1.9684;
2502756753885699;-6.1445;-0.0826;-2.8307;
2502756763992782;-7.2033;-0.6694;-4.2586;
2502756774099865;-10.6887;0.6960;-5.0922;
2502756784192522;-11.2995;0.2985;-0.4496;
2502756794299605;-7.3038;1.2879;0.7217;
2502756804406688;-11.6085;-0.4825;-6.8145;
2502756814516272;-11.8648;0.4229;-2.4356;
2502756824623355;-8.0345;1.4291;1.2607;
2502756834730438;-8.6094;0.5022;-1.6020;
2502756844842417;-10.4850;-0.2333;-3.4466;
2502756854949501;-11.5558;0.4735;-1.7240;
2502756865056584;-9.4884;1.3836;0.3287;
2502756875162730;-8.2789;0.4229;-1.8823;
2502756885269813;-9.9317;-0.1184;-2.3806;
2502756895376897;-7.9843;0.5189;-2.2247;
2502756905480751;-8.3746;-0.0511;-2.4284;
2502756915587834;-11.5582;-0.1184;-3.4609;
2502756925694917;-8.6237;0.5309;0.5803;
2502756935798355;-7.5769;-0.0200;-2.9435;
2502756945905438;-10.6528;-0.3461;-5.4778;
2502756956012522;-10.7055;0.1594;-1.0199;
2502756966119917;-12.4950;0.9188;0.5396;
2502756976227001;-8.1494;0.0182;-1.0774;
2502756986334084;-6.7002;-0.9090;-1.9038;
2502756996440647;-9.3951;-0.1304;-2.5385;
2502757006547730;-12.1451;0.3799;-3.1253;
2502757016654813;-9.2874;0.6482;-1.2835;
2502757026756272;-6.6212;0.0446;-2.1194;
2502757036863355;-11.1990;-0.9233;-3.4585;
2502757046970438;-9.6156;0.1834;-1.4701;
2502757057083667;-6.5779;0.9260;-0.7155;
2502757067190751;-8.9566;-0.4944;-4.7255;
2502757077297834;-13.7812;0.2459;-3.3888;
2502757087408667;-12.3105;1.4722;2.4751;
2502757097515751;-8.8250;1.1991;1.0738;
2502757107622834;-7.8978;-0.4872;-2.2271;
2502757117726063;-9.9820;-1.6011;-3.5806;
2502757127833147;-13.2063;0.4158;-0.8139;
2502757137940230;-9.0239;1.7596;0.4152;
2502757148064397;-5.9599;-0.3147;-2.0764;
2502757158171480;-7.4261;-1.4408;-4.5078;
2502757168278563;-12.7849;-0.0200;-4.5915;
2502757178365438;-12.5429;0.9523;-0.8043;
2502757188472522;-9.6467;0.6745;0.2282;
2502757198579605;-6.9924;0.1929;-0.6580;
2502757208677730;-8.0178;-1.0023;-3.2764;
2502757218784813;-10.7845;0.2985;-1.5900;
2502757228891897;-8.4272;-0.3772;-2.2343;
2502757238994917;-12.5333;-0.0583;-5.7748;
2502757249102001;-8.3195;-0.0754;-0.2174;
2502757259209084;-7.4788;0.5572;-2.1314;
2502757269341584;-11.8193;-0.0607;-3.5423;
2502757279448667;-8.8035;-0.0440;-1.4462;
2502757289555751;-7.6391;0.5644;-2.3782;
2502757299644605;-9.5366;-1.0071;-2.8068;
2502757309751688;-10.5903;0.3894;-2.1697;
2502757319858772;-9.1843;0.1499;-0.5527;
2502757329976167;-9.2106;-0.4202;-3.7771;
2502757340083251;-10.9379;0.2100;-4.0502;
2502757350190334;-9.5605;0.5309;-0.0066;
2502757360296376;-9.4214;0.6242;0.9087;
2502757370403459;-8.9231;-0.2070;-2.0091;
2502757380510542;-10.7892;0.0398;-3.6284;
2502757390615542;-10.2479;1.1680;-0.9574;
2502757400722626;-7.7255;0.0996;-1.7192;
2502757410829709;-7.4357;0.0254;-3.9616;
2502757420937157;-8.0417;0.3033;-1.7910;
2502757431044240;-8.3818;0.4445;-3.9951;
2502757441151324;-10.6074;0.2889;-4.1650;
2502757451277886;-13.6974;0.7223;-0.3275;
2502757461384969;-7.9002;1.5105;0.9613;
2502757471492053;-6.1756;-0.7005;-2.9124;
2502757481575647;-11.8528;-0.3867;-3.6885;
2502757491682730;-12.2507;1.7142;0.5874;
2502757501789813;-10.4539;1.4387;-0.0138;
2502757511892574;-9.5342;0.2602;-1.4294;
2502757521999657;-9.4837;-0.1017;-0.4977;
2502757532106740;-8.8777;0.8207;-2.6297;
2502757542207522;-5.7060;0.0326;-3.3266;
2502757552314605;-0.4481;-0.4729;-6.2683;
2502757562421688;-16.9217;-0.0921;-7.3056;
2502757572544813;-25.8811;2.9001;3.7878;
2502757582651897;-5.6988;2.9671;9.2641;
2502757592758980;3.4926;-2.4371;-2.7948;
2502757602863563;-11.6635;-4.2673;-9.4065;
2502757612970647;-17.2283;1.2685;-4.6346;
2502757623077730;-7.5553;2.6605;3.4238;
2502757633180438;-3.1621;0.5022;-2.4308;
2502757643287522;-11.5247;-1.3926;-7.0828;
2502757653394605;-10.7510;0.4660;-1.3481;
2502757663502417;-11.2493;1.6065;-1.7551;
2502757673609501;-13.5392;0.4902;-2.1290;
2502757683716584;-9.5390;0.5046;1.0140;
2502757693822313;-8.4802;-0.0057;2.8801;
2502757703929397;-8.1398;-1.1605;2.3722;
2502757714036480;-9.6251;-1.0430;-5.1042;
2502757724140855;-13.1776;-0.0033;-8.8173;
2502757734247938;-10.4659;0.8064;-3.7340;
2502757744355022;-5.9958;1.1991;-0.0568;
2502757754467209;-9.8456;0.4660;-2.3327;
2502757764574292;-11.2588;-0.6550;-2.2223;
2502757774681376;-8.0201;0.0948;-1.6738;
2502757784784397;-7.8045;-0.3652;-0.0449;
2502757794891480;-12.4445;0.4229;-2.9052;
2502757804998563;-12.5716;0.1403;-1.2473;
2502757815087522;-3.2985;0.0230;-0.7155;
2502757825194605;-3.1190;-0.8201;-6.4265;
2502757835301688;-25.1910;0.2985;-8.6423;
2502757845436167;-25.7252;2.4305;7.4507;
2502757855543251;10.3582;1.5849;6.5764;
2502757865650334;-0.5031;-3.3835;-10.4079;
2502757875759397;-24.0509;-0.1328;-8.1033;
2502757885866480;-12.8734;3.4247;2.9853;
2502757895973563;-2.9034;1.9657;0.5611;
2502757906094084;-5.1144;-0.9784;-6.4122;
2502757916201167;-13.0723;-0.7364;-3.2046;
2502757926308251;-11.4553;1.7931;1.9723;
2502757936397730;-4.8078;0.6458;-0.6126;
2502757946504813;-7.5721;-1.1243;-9.0087;
2502757956611897;-9.6682;-0.0033;-4.3926;
2502757966718355;-8.2932;1.6902;-0.0066;
2502757976825438;-12.5142;0.4636;-1.5948;
2502757986932522;-7.9866;0.3320;-3.8369;
2502757997041740;-13.0699;0.2913;-10.8942;
2502758007148824;-14.4808;1.2302;1.9986;
2502758017255907;-1.2048;2.3393;10.4641;
2502758027360230;-6.2139;-0.2620;-8.0578;
2502758037467313;-17.3722;-1.0813;-6.0888;
2502758047574397;-12.7849;1.3478;4.6816;
2502758057680647;-7.7518;1.4746;3.0694;
2502758067787730;-4.7456;-0.7819;-2.6010;
2502758077894813;-11.6300;-1.5532;-4.8000;
2502758087992730;-13.9705;0.4253;0.0437;
2502758098099813;-5.9288;0.8375;1.0427;
2502758108206897;-6.4893;-0.9066;-5.4347;
2502758118317105;-10.4970;-1.7880;-3.4466;
2502758128424188;-9.6921;0.8207;-1.5084;
2502758138531272;-9.5366;0.6386;-5.4754;
2502758148669188;-8.5496;-0.3796;-2.8932;
2502758158776272;-7.9531;1.2422;-1.6618;
2502758168883355;-13.5873;0.4253;-1.3002;
2502758178960855;-10.5760;0.8112;3.1101;
2502758189067938;-7.2512;0.2148;-0.5073;
2502758199175022;-9.9532;-0.1831;-4.0741;
2502758209269397;-10.1545;0.3679;-2.0716;
2502758219376480;-9.8958;0.6697;-3.4226;
2502758229483563;-9.6754;0.2913;-0.0042;
2502758239587522;-6.3984;-0.0416;-2.5337;
2502758249694605;-9.6634;0.2052;-6.8049;
2502758259801688;-10.8227;0.1738;-0.6532;
2502758269933615;-4.7910;-0.1854;0.6212;
2502758280040699;-12.9571;-0.3147;-5.9785;
2502758290147782;-12.6171;0.3105;-1.1994;
2502758300252313;-9.6754;1.0292;3.6849;
2502758310359397;-10.2933;0.2243;0.8991;
2502758320466480;-8.8537;-0.3580;-2.5576;
2502758330578980;-8.6644;0.1666;-2.3133;
2502758340686063;-9.2201;1.1728;-3.4035;
2502758350793147;-5.2845;0.7585;-4.4886;
2502758360879397;-2.7332;-0.4274;-5.0946;
2502758370986480;-19.2957;1.1967;-6.2970;
2502758381093563;-19.5473;2.8161;2.3913;
2502758391224136;-5.3946;2.3587;4.2933;
2502758401331219;-16.3923;-0.4657;1.8165;
2502758411438303;-7.3780;0.1187;3.1914;
2502758421554084;0.3209;-0.5590;-1.9828;
2502758431661167;-7.8476;-0.3147;-8.4482;
2502758441768251;-12.0470;0.9739;-8.6279;
2502758451875647;-10.2383;1.3549;-2.9435;
2502758461982730;-7.4142;1.0675;-3.9760;
2502758472089813;-9.1196;0.0972;-4.4982;
2502758482175438;-11.8528;0.7681;-0.7516;
2502758492282522;-9.4621;1.3167;0.1899;
2502758502389605;-9.1651;-0.4896;-0.2892;
2502758512497834;-7.2057;-0.2548;2.1470;
2502758522604917;-7.0690;-0.3867;-1.8535;
2502758532712001;-16.3110;0.0972;-10.1037;
2502758542817626;-11.4171;1.3573;-2.4188;
2502758552924709;-0.4023;0.7175;-2.3518;
2502758563031792;-13.2951;0.4349;-11.5361;
2502758573139188;-19.3986;0.6505;1.5051;
2502758583246272;-8.1374;2.7921;11.1972;
2502758593353355;-4.4821;-0.3123;0.2282;
2502758603462938;-9.6634;-2.3581;-1.8990;
2502758613570022;-12.1451;0.5883;-1.4318;
2502758623677105;-9.8719;-0.0368;-2.6584;
2502758633782522;-3.6843;-0.0559;-3.7077;
2502758643889605;-8.2980;-0.5566;-6.1582;
2502758653996688;-11.8768;-0.6048;-3.9592;
2502758664104605;-7.4620;0.3033;-2.6177;
