Sensor: bmi160 Accelerometer Non-wakeup
Vendor: BOSCH
TimestampAcc [ns]; AccX [m/s^2]; AccY [m/s^2]; AccZ [m/s^2]
2496667343166593;-9.4956;0.5285;-2.4428;
2496667353268103;-9.5052;0.5142;-2.3518;
2496667363368780;-9.4693;0.4974;-2.2702;
2496667373437478;-9.4693;0.4540;-2.3228;
2496667383538155;-9.5076;0.4014;-2.4093;
2496667393746645;-9.4884;0.3918;-2.4811;
2496667403847322;-9.4860;0.3870;-2.4715;
2496667413891801;-9.5052;0.3727;-2.3806;
2496667423997791;-9.5124;0.3751;-2.3662;
2496667434106853;-9.5219;0.3583;-2.3853;
2496667444218676;-9.5243;0.3200;-2.4045;
2496667454322999;-9.4980;0.3176;-2.4260;
2496667464382009;-9.4980;0.2985;-2.4045;
2496667474541228;-9.4956;0.2746;-2.3447;
2496667484630447;-9.4837;0.2602;-2.3351;
2496667494736280;-9.5219;0.2770;-2.3471;
2496667504843988;-9.5267;0.2889;-2.4165;
2496667514963572;-9.5052;0.2674;-2.4428;
2496667525061957;-9.4932;0.2937;-2.4212;
2496667535167947;-9.5004;0.3105;-2.3853;
2496667545276541;-9.4956;0.3009;-2.3133;
2496667555383363;-9.5172;0.2818;-2.3180;
2496667565481905;-9.5342;0.2698;-2.3447;
2496667575601541;-9.5076;0.2411;-2.3614;
2496667585706124;-9.5148;0.2530;-2.3734;
2496667595801280;-9.5195;0.2722;-2.3853;
2496667605914561;-9.4837;0.2913;-2.3351;
2496667616018416;-9.5052;0.2698;-2.3638;
2496667626133051;-9.5291;0.2961;-2.3806;
2496667636278051;-9.4932;0.2937;-2.3638;
2496667646346176;-9.4884;0.2459;-2.3542;
2496667656439041;-9.5076;0.1881;-2.3614;
2496667666559197;-9.5195;0.1714;-2.3447;
2496667676669770;-9.5366;0.1355;-2.3252;
2496667686795134;-9.5510;0.1427;-2.3614;
2496667696918728;-9.5219;0.1786;-2.3590;
2496667706996593;-9.4741;0.2148;-2.3614;
2496667717085707;-9.4956;0.2865;-2.3303;
2496667727221228;-9.4980;0.3966;-2.3351;
2496667737304093;-9.4980;0.5070;-2.4093;
2496667747422166;-9.4860;0.6505;-2.4715;
2496667757558259;-9.4932;0.7561;-2.5504;
2496667767638259;-9.4908;0.7992;-2.5768;
2496667777746332;-9.4406;0.8279;-2.5170;
2496667787855551;-9.4095;0.8231;-2.4595;
2496667797962009;-9.4334;0.8160;-2.3973;
2496667808071072;-9.4358;0.7944;-2.3830;
2496667818193103;-9.4262;0.7848;-2.3997;
2496667828285082;-9.4119;0.8183;-2.4763;
2496667838396436;-9.4382;0.8279;-2.5337;
2496667848536488;-9.4669;0.8590;-2.5050;
2496667858606697;-9.4741;0.8949;-2.4739;
2496667868743207;-9.4717;0.8877;-2.4500;
2496667878825030;-9.4693;0.8662;-2.4332;
2496667888932738;-9.4693;0.8447;-2.3830;
2496667899040863;-9.4765;0.7872;-2.3566;
2496667909149145;-9.5148;0.7032;-2.3662;
2496667919254822;-9.4645;0.6194;-2.3423;
2496667929360655;-9.4645;0.5118;-2.3662;
2496667939470655;-9.5076;0.4134;-2.3734;
2496667949579405;-9.4860;0.4086;-2.3085;
2496667959655759;-9.5076;0.4421;-2.2845;
2496667969799197;-9.5533;0.4181;-2.3566;
2496667979902270;-9.5291;0.3799;-2.3590;
2496667990011020;-9.5028;0.3224;-2.4236;
2496668000119353;-9.5291;0.1929;-2.4811;
2496668010225186;-9.5267;0.1307;-2.4141;
2496668020330343;-9.5076;0.0087;-2.2941;
2496668030440603;-9.5243;-0.0754;-2.2534;
2496668040559041;-9.5219;-0.1663;-2.2678;
2496668050657686;-9.5243;-0.1615;-2.2199;
2496668060761853;-9.5581;-0.1591;-2.3204;
2496668070882061;-9.5533;-0.1280;-2.4954;
2496668080973572;-9.5462;-0.1615;-2.5457;
2496668091086541;-9.5172;-0.1496;-2.4428;
2496668101193416;-9.5414;-0.1113;-2.3949;
2496668111302374;-9.5438;-0.0993;-2.3638;
2496668121412061;-9.4956;-0.0706;-2.2989;
2496668131524041;-9.5100;-0.0655;-2.3614;
2496668141630551;-9.5486;-0.0535;-2.5026;
2496668151737061;-9.5510;-0.6263;-2.4476;
2496668161838520;-8.7194;-3.1941;-4.2203;
2496668171943780;-9.3951;-0.5375;-3.0679;
2496668182065395;-10.7988;1.7524;0.2139;
2496668192160238;-10.2742;0.1068;-1.7001;
2496668202273207;-8.4969;-0.6383;-2.9291;
2496668212393520;-8.3315;0.4612;-3.1352;
2496668222487166;-9.4789;1.7070;-3.3099;
2496668232596853;-10.1521;2.6605;-2.5217;
2496668242706645;-10.0418;2.3611;-2.1218;
2496668252804613;-9.5533;1.5296;-2.7470;
2496668262909093;-8.8801;1.4076;-2.8403;
2496668273032270;-8.8729;1.5658;-2.4547;
2496668283130916;-9.6586;1.5826;-2.2080;
2496668293238103;-10.2048;1.6424;-1.9205;
2496668303367791;-9.9532;1.4124;-1.7791;
2496668313452270;-9.3975;0.7681;-1.7216;
2496668323559093;-9.1914;1.0125;-2.1314;
2496668333666176;-9.3162;1.2760;-2.2439;
2496668343762218;-9.5916;0.9811;-1.9062;
2496668353885395;-9.8384;1.4243;-2.2893;
2496668363992270;-9.7041;1.3573;-2.0979;
2496668374101228;-9.3736;1.0268;-1.7360;
2496668384204301;-9.3138;1.3813;-2.1673;
2496668394309197;-9.4358;0.8686;-2.0139;
2496668404420707;-9.5172;0.8136;-2.0883;
2496668414531853;-9.6706;0.9739;-2.3518;
2496668424639613;-9.7065;0.8136;-2.2893;
2496668434749561;-9.4358;0.9260;-2.1793;
2496668444843832;-9.3185;0.5070;-1.9301;
2496668454959457;-9.4693;0.5237;-2.0859;
2496668465078936;-9.5342;0.8925;-2.0979;
2496668475185395;-9.5988;0.7490;-2.0740;
2496668485291801;-9.6132;0.7681;-2.2223;
2496668495406020;-9.3927;1.0723;-2.0330;
2496668505512478;-9.3401;1.1082;-1.9014;
2496668515618884;-9.4765;0.8207;-1.8727;
2496668525713520;-9.4621;0.7609;-1.8870;
2496668535819978;-9.5291;0.9667;-1.8511;
2496668545926384;-9.5581;1.3621;-2.1888;
2496668556033936;-9.3353;1.6878;-2.4547;
2496668566140395;-9.2297;1.3813;-2.0306;
2496668576246801;-9.5124;1.0002;-1.8033;
2496668586366645;-9.7280;0.8590;-1.7961;
2496668596473103;-9.5267;0.9619;-1.9301;
2496668606579509;-9.3736;1.4459;-2.2319;
2496668616648103;-9.4621;1.5368;-1.9828;
2496668626754561;-9.6754;1.3621;-1.8799;
2496668636860968;-9.5557;1.2398;-2.1577;
2496668647008416;-9.2393;1.3214;-2.5026;
2496668657114874;-9.2946;1.4148;-2.5122;
2496668667221280;-9.4741;1.2760;-2.4069;
2496668677333832;-9.4932;0.8710;-2.2678;
2496668687440291;-9.4238;0.3703;-2.3542;
2496668697546697;-9.3664;0.3703;-3.1014;
2496668707639041;-9.3808;0.3918;-3.2740;
2496668717745499;-9.6443;0.1977;-2.5457;
2496668727851905;-9.7065;-0.0033;-1.8440;
2496668737974093;-9.3784;0.2028;-2.3853;
2496668748080551;-8.8561;0.8447;-3.6093;
2496668758186957;-8.6022;1.7979;-4.4719;
2496668768289718;-8.9447;3.2234;-4.7375;
2496668778397947;-9.5892;3.3096;-2.8283;
2496668788504353;-9.8049;1.7764;-0.5025;
2496668798610759;-9.2393;1.6926;-1.8176;
2496668808722426;-8.6931;2.3755;-3.4633;
2496668818828884;-8.7820;2.3970;-3.1998;
2496668828935291;-9.5076;2.4808;-2.9650;
2496668839048103;-9.5868;2.6988;-2.8789;
2496668849154561;-8.9734;2.6605;-2.0521;
2496668859260968;-8.7939;3.1274;-1.7312;
2496668869376749;-9.1244;3.3885;-1.7934;
2496668879483207;-9.3425;3.2521;-2.2917;
2496668889589613;-9.2584;3.0197;-3.2548;
2496668899695186;-9.2369;2.4401;-2.8546;
2496668909801645;-9.3281;2.0542;-2.0668;
2496668919908051;-9.2369;1.6711;-2.1027;
2496668930016332;-9.1125;1.3478;-2.2343;
2496668940122791;-9.2707;1.5057;-2.5361;
2496668950229197;-9.4645;1.7740;-2.5816;
2496668960387895;-9.4908;1.8508;-2.1505;
2496668970494249;-9.3616;2.0136;-1.8918;
2496668980600707;-9.1843;2.2675;-1.9134;
2496668990707113;-9.1795;2.1215;-2.1482;
2496669000765863;-9.2898;1.9226;-2.2032;
2496669010872322;-9.3401;1.8772;-2.2630;
2496669020978728;-9.4143;1.8126;-2.2965;
2496669031097999;-9.3640;1.6974;-1.9421;
2496669041204457;-9.2201;1.6113;-1.6116;
2496669051310863;-9.3305;1.9920;-1.6738;
2496669061439249;-9.3879;2.4688;-1.8081;
2496669071545707;-9.3305;2.5741;-1.8272;
2496669081652113;-9.2970;2.6844;-2.0617;
2496669091738832;-9.3090;2.6438;-2.0163;
2496669101845291;-9.1579;2.7634;-1.7432;
2496669111951697;-8.9830;3.0269;-1.6331;
2496669122061228;-9.1244;3.0365;-1.6810;
2496669132167686;-9.4095;2.9886;-1.8320;
2496669142274093;-9.4262;3.1442;-2.0282;
2496669152378520;-9.1843;3.2115;-1.8799;
2496669162484978;-9.1364;3.2545;-1.5781;
2496669172591384;-9.2010;3.1875;-1.2763;
2496669182682791;-9.2731;3.2450;-1.2811;
2496669192789249;-9.2513;3.4534;-1.5374;
2496669202895655;-9.2441;3.4726;-1.7336;
2496669213050291;-9.3138;3.5180;-1.7695;
2496669223156749;-9.2273;3.5731;-1.6810;
2496669233263155;-9.1173;3.5515;-1.6666;
2496669243358311;-9.2707;3.5803;-1.6834;
2496669253464770;-9.2369;3.5133;-1.4414;
2496669263571176;-9.1364;3.5061;-1.3337;
2496669273691020;-9.2656;3.3885;-1.3911;
2496669283797478;-9.3329;3.2713;-1.4557;
2496669293903884;-9.2560;3.2713;-1.5924;
2496669303987791;-9.1579;3.0748;-1.5661;
2496669314094249;-9.2058;3.0317;-1.6522;
2496669324200655;-9.2922;3.1011;-1.6570;
2496669334318259;-9.3784;3.0796;-1.6259;
2496669344424718;-9.4884;2.9432;-1.7025;
2496669354531124;-9.4621;2.7179;-1.7216;
2496669364641176;-9.2632;2.5382;-1.7336;
2496669374747634;-7.9265;3.0341;-1.3816;
2496669384854041;-8.1039;3.4077;-1.5494;
2496669394963520;-10.1976;3.7313;-2.5146;
2496669405069978;-10.4707;3.6954;-3.0559;
2496669415176384;-9.8480;2.8113;-2.3566;
2496669425289093;-8.9495;2.0686;-1.3385;
2496669435395551;-7.8595;1.8461;0.2139;
2496669445501957;-7.9412;2.4185;0.3840;
2496669455605082;-9.9748;2.6821;-1.0822;
2496669465711541;-11.7691;2.5430;-2.9578;
2496669475817947;-11.2445;2.2747;-3.6021;
2496669485927009;-8.9710;1.9777;-2.3423;
2496669496033468;-7.7064;2.0231;-0.9885;
2496669506139874;-8.1999;2.2268;-0.7660;
2496669516295603;-9.1244;2.3755;-1.0845;
2496669526402061;-9.5486;2.6004;-1.6786;
2496669536508468;-9.6802;2.9240;-2.5481;
2496669546597426;-9.6108;3.0580;-2.8331;
2496669556703884;-8.9686;2.9216;-2.2534;
2496669566810291;-8.3770;2.8810;-1.6642;
2496669576947582;-8.7772;3.0724;-1.7719;
2496669587054041;-9.7065;3.1346;-2.0354;
2496669597160447;-9.9293;3.1107;-2.0788;
2496669607239249;-9.4573;3.2043;-2.2750;
2496669617345707;-9.0646;2.8448;-2.1458;
2496669627452113;-8.8131;2.1311;-1.7934;
2496669637546853;-8.9160;1.9274;-2.0163;
2496669647653311;-9.2130;2.0904;-2.3901;
2496669657759718;-9.2417;2.1861;-2.4404;
2496669667886020;-9.2994;2.3034;-2.6058;
2496669677992478;-9.4549;2.2125;-2.7230;
2496669688098884;-9.1268;2.0183;-2.5863;
2496669698194770;-9.0144;2.2507;-2.7805;
2496669708301228;-9.1053;2.5023;-2.9865;
2496669718407634;-8.9542;2.6318;-2.8546;
2496669728530811;-9.1053;2.7251;-2.8717;
2496669738637270;-9.5797;2.6940;-2.8307;
2496669748743676;-9.4334;2.6629;-2.6010;
2496669758837426;-9.3688;2.5549;-2.5433;
2496669768943884;-9.0550;2.3827;-2.2439;
2496669779040759;-8.6644;2.6557;-2.0593;
2496669789147166;-8.9207;3.0269;-2.1386;
2496669799253624;-9.1890;3.0628;-1.9181;
2496669809379041;-9.0191;3.1107;-1.8751;
2496669819485499;-9.2513;3.4965;-2.2941;
2496669829591905;-9.6802;3.5563;-2.0716;
2496669839698884;-9.1747;3.5180;-1.7145;
2496669849805343;-9.0838;3.7600;-2.2391;
2496669859911749;-9.5892;3.5515;-2.3399;
2496669870027791;-9.3090;3.1202;-1.7910;
2496669880134249;-8.6046;3.0891;-1.5900;
2496669890240655;-8.6644;3.1660;-1.6929;
2496669900345499;-8.8753;3.3287;-1.6810;
2496669910451957;-9.2393;3.4199;-1.5996;
2496669920558363;-10.0274;3.2617;-1.5470;
2496669930672895;-9.6084;3.0485;-1.3624;
2496669940779353;-9.1484;2.9384;-1.3265;
2496669950885759;-9.0072;2.7371;-1.3887;
2496669960998936;-9.0790;2.5621;-1.6666;
2496669971105395;-9.6299;2.4185;-2.0617;
2496669981211801;-9.3736;1.8197;-1.6379;
2496669991320603;-8.8848;1.4913;-1.1324;
2496670001427061;-9.0383;1.0842;-1.2787;
2496670011533468;-9.9820;0.5548;-1.5422;
2496670021647791;-10.1833;-0.1974;-1.5733;
2496670031754249;-10.2048;-0.5207;-2.0019;
2496670041860655;-9.7496;-0.4561;-2.7159;
2496670051965707;-8.9566;-0.3580;-2.9148;
2496670062072166;-9.3544;-0.6048;-2.9339;
2496670072178572;-9.5291;-1.1605;-2.7852;
2496670082292686;-9.9245;-1.1701;-3.2429;
2496670092399145;-9.9054;-1.3017;-3.4466;
2496670102505551;-9.4406;-1.7210;-2.7278;
2496670112611332;-9.9030;-1.7258;-2.4667;
2496670122717791;-10.0681;-1.9149;-2.4500;
2496670132824197;-9.8647;-1.7115;-2.7254;
2496670142942374;-10.1402;-1.4360;-3.1639;
2496670153048832;-10.0418;-1.4121;-2.6058;
2496670163155238;-9.4837;-0.9401;-2.4236;
2496670173256020;-9.4837;-0.3051;-2.7374;
2496670183362478;-9.5486;-0.1089;-2.1194;
2496670193468884;-9.5076;0.1714;-1.8894;
2496670203578520;-9.7854;0.5213;-1.8751;
2496670213684978;-9.3257;0.7681;-1.4916;
2496670223791384;-8.6166;1.0292;-1.5203;
2496670233906176;-9.1579;1.2589;-1.7575;
2496670244012634;-9.5749;1.3190;-1.4844;
2496670254119041;-9.7089;1.5993;-1.4892;
2496670264230395;-9.1651;2.0112;-1.4701;
2496670274336853;-8.3818;2.6701;-1.4940;
2496670284443259;-8.3219;3.6257;-1.9373;
2496670294546957;-8.7389;4.3158;-1.9851;
2496670304653416;-9.0718;4.7180;-1.5517;
2496670314759822;-9.1771;5.0847;-0.9984;
2496670324870603;-9.3999;5.7266;-0.8306;
2496670334977061;-9.0766;6.1508;-0.7756;
2496670345083468;-8.8298;6.2154;-0.7277;
2496670355190082;-8.7123;6.1914;-0.5336;
2496670365296541;-8.3124;6.6153;-0.4977;
2496670375402947;-8.0943;7.0944;-0.9144;
2496670385516541;-8.6142;7.3149;-1.3720;
2496670395622999;-9.7352;7.1952;-1.4270;
2496670405729405;-9.3855;5.8274;-0.6556;
2496670415829041;-7.7183;4.9241;-0.7131;
2496670425935499;-9.1914;4.5506;-1.5565;
2496670436041905;-11.0408;4.2631;-1.3816;
2496670446169041;-9.3162;3.3263;-0.4714;
2496670456275499;-7.7183;3.1202;-0.7947;
2496670466381905;-9.0718;3.0939;-1.4414;
2496670476469353;-10.0971;3.2737;-1.4629;
2496670486575811;-9.2369;2.7419;-0.8569;
2496670496682218;-9.5291;2.7538;-1.3265;
2496670506816332;-9.3209;3.0915;-1.6857;
2496670516922791;-8.7891;3.6233;-1.6594;
2496670527029197;-9.6371;4.0546;-1.4677;
2496670537114770;-10.1019;3.7170;-0.6580;
2496670547221228;-9.8456;3.5515;-0.3993;
2496670557327634;-9.5486;4.0810;-1.0128;
2496670567451593;-8.8657;4.7228;-0.9718;
2496670577558051;-8.7171;5.7314;-0.9598;
2496670587664457;-7.8045;5.7386;-0.6700;
2496670597776124;-8.6381;5.5134;-0.2964;
2496670607882582;-8.9471;4.8523;-0.3849;
2496670617988988;-9.0431;5.1422;-0.6748;
2496670628097791;-9.4238;5.4440;-1.4414;
2496670638204249;-10.5473;4.5529;-1.0343;
2496670648310655;-8.5472;2.9001;0.5659;
2496670658421124;-8.2238;3.4463;-0.5145;
2496670668527582;-8.6740;3.7505;-1.6690;
2496670678633988;-7.9914;4.3301;-2.1314;
2496670688745603;-9.0550;4.2799;-2.6225;
2496670698852061;-9.7854;3.0245;-2.7398;
2496670708958468;-9.0168;2.2268;-1.8416;
2496670719073676;-9.9030;2.6653;-1.6642;
2496670729180134;-9.9030;1.8485;-1.7001;
2496670739286541;-8.2597;0.9739;-2.1505;
2496670749384249;-7.2894;0.9380;-2.3252;
2496670759490707;-8.4706;1.6184;-2.3853;
2496670769597113;-11.2014;1.9107;-2.0740;
2496670779725447;-11.8768;1.5129;-1.9134;
2496670789831905;-9.5629;0.9811;-1.7456;
2496670799938311;-9.4645;1.1776;-1.6905;
2496670810037270;-8.9088;0.4325;-1.2811;
2496670820143728;-8.9303;0.9835;-1.7192;
2496670830250134;-9.5916;2.5214;-3.0129;
2496670840365343;-9.3808;2.2101;-2.2869;
2496670850471801;-8.2789;1.3454;-1.1396;
2496670860578207;-8.5472;2.8663;-2.9674;
2496670870682270;-10.3149;3.9637;-3.8943;
2496670880788728;-10.7964;3.0508;-1.6905;
2496670890895134;-8.9710;1.7716;-0.5216;
2496670901000916;-7.5841;2.5549;-2.1003;
2496670911107374;-8.2813;3.0843;-2.6536;
2496670921213780;-10.2455;2.6076;-1.3098;
2496670931334926;-10.5808;1.8508;-0.7325;
2496670941441384;-9.3640;2.1359;-1.2377;
2496670951547791;-8.6572;3.2761;-2.1194;
2496670961655186;-9.1771;3.6066;-1.8464;
2496670971761645;-8.3100;2.9456;-1.1850;
2496670981868051;-8.7003;3.6736;-1.6499;
2496670991976020;-9.8264;4.1647;-1.6499;
2496671002082478;-9.5653;3.9084;-0.9909;
2496671012188884;-8.7437;4.7590;-2.4045;
2496671022301957;-9.8623;4.8571;-2.7948;
2496671032408416;-9.7783;3.6377;-0.4881;
2496671042514822;-8.2095;3.6954;-0.9215;
2496671052619666;-7.9265;4.5841;-3.0296;
2496671062726124;-9.1125;3.9467;-2.2893;
2496671072832530;-9.3401;2.4616;0.1971;
2496671082947478;-8.1709;2.1742;-0.2103;
2496671093053936;-8.2549;3.0796;-2.1745;
2496671103160343;-10.7749;3.5803;-2.9961;
2496671113272895;-10.1067;1.9561;-0.8139;
2496671123379353;-8.2310;1.8365;-0.2629;
2496671133485759;-9.1149;3.5970;-3.0990;
2496671143620499;-11.4218;2.2316;-2.5050;
2496671153726957;-9.9915;0.1714;-0.5958;
2496671163833363;-9.0024;0.0781;-1.0080;
2496671173917009;-10.1402;-0.3556;-2.8570;
2496671184023468;-10.6265;-1.1605;-3.9544;
2496671194129874;-9.8839;-2.6432;-2.2534;
2496671204244926;-8.5041;-2.9904;-1.9277;
2496671214351384;-9.3377;-2.5283;-4.5389;
2496671224457791;-9.9532;-1.5748;-5.7054;
2496671234571541;-9.3855;-1.4791;-2.8427;
2496671244677999;-8.7796;-1.0717;-1.6164;
2496671254784405;-9.1436;0.7418;-5.1425;
2496671264890343;-11.7117;1.2975;-5.7485;
2496671274996801;-8.6692;0.2841;-1.0391;
2496671285103207;-7.5649;2.0785;-2.1673;
2496671295224561;-8.0919;3.9517;-5.7006;
2496671305331020;-10.2933;4.5242;-4.6226;
2496671315437426;-10.0633;3.4558;-1.0199;
2496671325522270;-7.3062;4.0618;-2.3252;
2496671335628728;-8.1015;5.1781;-5.3366;
2496671345735134;-10.5616;3.5300;-2.9794;
2496671355842478;-9.3808;2.2723;-0.2366;
2496671365948936;-7.8452;3.4869;-3.6021;
2496671376055343;-9.8288;3.8964;-5.3055;
2496671386193936;-10.1737;2.1191;-1.7623;
2496671396300395;-7.9265;1.4961;-1.7599;
2496671406406801;-8.7147;2.7945;-5.3175;
2496671416478936;-11.2947;1.8437;-3.2668;
2496671426585395;-10.0708;-0.2453;0.4487;
2496671436691801;-8.9423;1.1536;-2.5337;
2496671446829874;-10.4228;1.5514;-3.2764;
2496671456936332;-8.2430;-0.1687;0.0918;
2496671467042738;-8.3124;1.5419;-2.3037;
2496671477155916;-11.0360;1.7548;-3.8489;
2496671487262374;-10.6935;-0.6479;0.6114;
2496671497368780;-8.6836;-0.3365;-0.2127;
2496671507459041;-11.3306;0.9882;-3.2764;
2496671517565499;-11.1054;-1.1004;0.0772;
2496671527671905;-8.0800;-1.5963;1.0092;
2496671537802686;-10.0131;0.9428;-2.9913;
2496671547909145;-12.6769;0.0326;-2.0091;
2496671558015551;-9.5988;-1.6298;1.8045;
2496671568133520;-8.5424;0.9332;-1.3528;
2496671578239978;-11.6877;1.9992;-4.2132;
2496671588346384;-10.0708;0.0541;-0.5982;
2496671598429926;-6.3506;0.6817;-1.0391;
2496671608536384;-10.3340;2.6988;-4.8407;
2496671618642791;-12.0015;0.9380;-1.6187;
2496671628759353;-7.7016;0.0852;0.2330;
2496671638865811;-8.8179;2.2125;-3.3458;
2496671648972218;-13.4650;1.3573;-2.3399;
2496671659081749;-8.5328;-0.0488;0.6667;
2496671669188207;-7.8284;2.1814;-2.5481;
2496671679294613;-11.1894;2.6581;-3.5351;
2496671689408416;-9.9461;2.0183;-1.3074;
2496671699514874;-6.3120;2.5334;-1.2185;
2496671709621280;-9.8145;4.1599;-3.5327;
2496671719716853;-11.2086;4.1575;-2.8331;
2496671729823311;-8.0130;3.1995;-1.0271;
2496671739929718;-9.8240;3.5970;-2.6608;
2496671750059926;-11.2660;3.0867;-2.8765;
2496671760166384;-8.1975;2.1120;-0.6413;
2496671770272791;-10.3029;2.6605;-2.1434;
2496671780368832;-10.4970;2.3779;-2.8499;
2496671790476124;-8.0943;1.9442;-1.2497;
2496671800583416;-9.2345;3.1516;-2.6776;
2496671810711749;-10.2694;3.1346;-3.2381;
2496671820819041;-10.1330;2.8089;-1.3959;
2496671830926332;-8.5113;3.2258;-1.6881;
2496671841017478;-9.7926;3.2186;-2.9865;
2496671851124770;-11.4553;2.2579;-1.2138;
2496671861232061;-9.0957;1.7477;-0.9191;
2496671871347374;-9.8599;2.6605;-2.5839;
2496671881454666;-9.4190;2.0303;-2.7613;
2496671891561957;-8.4778;2.8567;-3.3936;
2496671901660707;-9.5315;2.3130;-2.6752;
2496671911767999;-8.7844;1.3693;-1.1228;
2496671921875291;-10.7486;2.7586;-3.1134;
2496671931990186;-10.5305;0.9045;-2.1673;
2496671942097478;-6.4989;0.5644;-1.4270;
2496671952204770;-8.9040;2.2436;-4.1554;
2496671962301541;-8.8274;0.1379;-1.9684;
2496671972408832;-7.7877;1.6352;-1.9804;
2496671982516124;-10.5114;2.6701;-5.4395;
2496671992632270;-9.5677;1.5921;-3.6141;
2496672002739561;-9.0072;2.7993;-3.3745;
2496672012846853;-9.8312;2.2053;-4.1650;
2496672022962999;-8.2669;1.2951;-0.6293;
2496672033070291;-8.2406;1.3119;-1.2066;
2496672043177582;-10.4898;2.0662;-3.4155;
2496672053279353;-9.8575;2.1574;-1.5589;
2496672063386645;-8.8179;1.7046;-1.7456;
2496672073493936;-8.5615;1.9442;-0.9622;
2496672083600186;-8.0393;2.1526;-0.9215;
2496672093707478;-10.8948;3.6520;-4.1195;
2496672103814770;-11.0504;1.9968;-0.6126;
2496672113925343;-7.9193;0.7609;1.0499;
2496672124032634;-10.3077;3.4822;-3.1496;
2496672134139926;-10.5281;1.6089;-0.8809;
2496672144250499;-7.3540;1.5778;1.0451;
2496672154357791;-10.0756;1.7357;-1.0487;
2496672164465082;-8.1565;0.4636;-0.3323;
2496672174569874;-10.9642;2.7323;-2.7326;
2496672184677166;-12.2315;0.8734;-1.1874;
2496672194784457;-8.4033;1.7668;-0.2797;
2496672204892270;-9.8623;2.0255;-2.1314;
2496672214999561;-8.3411;0.1762;-0.4113;
2496672225106853;-8.4993;1.0938;-1.8703;
2496672235212686;-11.2014;0.9452;-3.0176;
2496672245319978;-7.7088;0.1953;-1.3002;
2496672255427270;-10.6863;2.1861;-5.0755;
2496672265542061;-11.4888;0.3727;-3.1014;
2496672275649353;-6.9398;0.7513;-1.8655;
2496672285756645;-10.7246;1.4028;-4.5078;
2496672295857686;-8.7461;-0.3843;-1.5565;
2496672305964978;-7.9436;1.1321;-3.0846;
2496672316072270;-12.7753;1.2589;-4.1530;
2496672326197999;-7.6367;0.7681;-1.4174;
2496672336305291;-8.2980;2.6366;-4.6202;
2496672346412582;-10.7797;1.0651;-3.1807;
2496672356495603;-6.1828;0.3392;-1.3409;
2496672366602895;-10.5951;1.3262;-4.9101;
2496672376710186;-11.6109;0.1235;-2.8307;
2496672386837270;-8.1589;0.0805;-2.2582;
2496672396944561;-10.9307;0.6051;-4.1841;
2496672407051853;-8.6907;-0.8560;-2.1673;
2496672417172478;-9.1268;-0.5423;-2.7254;
2496672427279770;-11.3330;-0.7579;-3.1086;
2496672437387061;-8.4607;-1.0310;-1.2595;
2496672447535916;-11.5008;0.4660;-3.6284;
2496672457643207;-10.3220;-1.0095;-2.0740;
2496672467750499;-5.9288;-0.4131;-1.2473;
2496672477803936;-10.2311;0.9571;-4.9436;
2496672487911228;-10.4587;-0.3437;-1.9540;
2496672498018520;-9.3401;-0.0682;-1.1874;
2496672508145291;-10.4396;1.0388;-3.4083;
2496672518252582;-8.8035;1.3262;-3.0775;
2496672528359874;-10.9475;1.6735;-3.6643;
2496672538449093;-9.1125;1.2015;-3.0488;
2496672548556384;-8.7509;2.3946;-4.0645;
2496672558663676;-9.7328;2.6127;-4.8048;
2496672568764457;-8.8107;1.8532;-2.2367;
2496672578871749;-10.4492;1.7118;-2.4715;
2496672588979041;-9.4214;1.3382;-2.8379;
2496672599098416;-8.6644;1.7907;-3.1519;
2496672609205707;-8.5807;1.5897;-4.0789;
2496672619312999;-9.8073;2.4712;-4.5556;
2496672629422582;-11.5152;1.9585;-4.6011;
2496672639529874;-9.4047;1.6567;-3.2524;
2496672649637166;-8.6022;1.1130;-3.3601;
2496672659743311;-8.9638;1.1608;-3.5949;
2496672669850603;-9.2608;0.7175;-2.6991;
2496672679957895;-8.1350;0.7128;-3.0727;
2496672690061957;-9.3162;1.7429;-3.5614;
2496672700169249;-10.8251;0.7633;-3.2596;
2496672710276541;-9.6610;1.8891;-2.5217;
2496672720391853;-7.9986;1.8221;-4.1507;
2496672730499145;-7.5458;2.7227;-3.7484;
2496672740606436;-10.6744;2.3563;-3.9592;
2496672750708520;-11.6925;1.1441;-2.2726;
2496672760815811;-7.1937;1.4459;-3.6547;
2496672770923103;-9.3616;3.1564;-5.5113;
2496672781023363;-9.3568;0.3464;-3.0655;
2496672791130968;-7.1722;-0.1328;-1.4749;
2496672801238468;-7.7255;-0.2213;-4.5556;
2496672811364197;-12.3559;-0.9162;-2.8164;
2496672821471749;-10.5449;-2.4924;-2.1147;
2496672831579353;-8.4153;-0.1926;-4.0789;
2496672841676749;-10.1354;0.7394;-6.3643;
2496672851784301;-11.1030;-1.1243;-2.6201;
2496672861891853;-7.7351;-1.1653;-2.9554;
2496672872000186;-9.3353;0.1857;-5.1329;
2496672882107738;-9.8145;-1.4719;-3.7172;
2496672892215238;-9.4382;-0.7029;-2.8765;
2496672902339874;-7.7853;-0.9042;-3.2979;
2496672912447426;-8.0034;0.3846;-4.1483;
2496672922554926;-10.9187;0.8638;-6.4050;
2496672932641853;-11.9151;0.7753;-3.9712;
2496672942749405;-7.2894;0.4926;-3.4585;
2496672952856957;-7.5793;0.9141;-4.0789;
2496672962997843;-9.9389;0.7992;-3.7890;
2496672973105395;-9.5243;0.2626;-2.5026;
2496672983212999;-8.3626;1.0747;-2.2893;
2496672993298155;-8.3100;1.3669;-0.8833;
2496673003405707;-9.3640;2.3106;-3.5710;
2496673013513259;-12.3847;3.0365;-4.4719;
2496673023648311;-13.1584;2.4377;-4.1315;
2496673033755863;-8.5663;1.3980;-2.9554;
2496673043863363;-6.2689;1.3549;-3.8919;
2496673053938207;-9.3329;-0.2118;-3.5997;
2496673064045759;-9.9317;0.2483;-3.5183;
2496673074153259;-8.0201;-0.3772;-3.3721;
2496673084263624;-7.9193;0.6769;-3.8465;
2496673094371176;-10.0490;-0.6239;-3.6428;
2496673104478676;-11.7188;0.1116;-3.0200;
2496673114596749;-8.0608;-0.8779;-2.5552;
2496673124704249;-8.5328;-0.4968;-3.4633;
2496673134811801;-9.8192;-1.1749;-4.6155;
2496673144914405;-9.3473;-1.1076;-5.0204;
2496673155021957;-10.5832;-0.4920;-5.7700;
2496673165129561;-10.5353;-0.7101;-4.4548;
2496673175232686;-6.8557;-0.8225;-3.3410;
2496673185340186;-8.5735;0.1810;-5.1616;
2496673195447738;-10.9714;-0.2955;-4.0645;
2496673205552895;-9.8432;-1.1243;-2.7565;
2496673215660395;-9.4765;-0.5518;-2.4978;
2496673225767947;-8.0034;-0.4729;-3.7819;
2496673235877582;-9.0263;0.6505;-3.9879;
2496673245985082;-8.2573;0.6266;-4.7761;
2496673256092634;-9.5004;0.3990;-5.1497;
2496673266248468;-9.8073;0.5716;-6.2755;
2496673276356020;-10.3340;0.7128;-5.9521;
2496673286463572;-9.7232;0.3057;-3.9760;
2496673296505655;-7.4405;0.4684;-4.1483;
2496673306613259;-9.0742;0.7370;-3.8584;
2496673316720811;-9.8671;0.7032;-3.1376;
2496673326858207;-8.8920;1.1560;-3.3147;
2496673336965759;-10.1115;2.0255;-3.3697;
2496673347073311;-9.8432;1.7788;-3.6547;
2496673357189770;-7.9316;0.7968;-3.4107;
2496673367297270;-9.4214;0.7657;-4.7255;
2496673377404874;-10.4276;0.1977;-4.8431;
2496673387494718;-9.9054;0.1475;-3.4872;
2496673397602270;-8.8298;-0.0993;-2.5074;
2496673407709822;-6.5276;0.2148;-3.7699;
2496673417821020;-7.8404;1.1536;-5.8995;
2496673427928572;-12.2049;0.1499;-4.7641;
2496673438036124;-10.7127;-0.1184;-3.2405;
2496673448165603;-7.5147;-0.1232;-2.6225;
2496673458273155;-7.9843;-0.9975;-3.8704;
2496673468380655;-10.1378;-0.6814;-4.5939;
2496673478463676;-9.8743;-1.6995;-3.4250;
2496673488571228;-9.9939;-1.3950;-5.1090;
2496673498678780;-11.0647;-1.3663;-3.7460;
2496673508793363;-8.5184;-1.9172;-3.7005;
2496673518900968;-10.0442;-1.4551;-4.0932;
2496673529008468;-11.2947;-1.5389;-2.9913;
2496673539111280;-10.4013;-1.6418;-3.4585;
2496673549218884;-8.8657;-1.5413;-1.3624;
2496673559326436;-9.5076;-0.6718;-3.8417;
2496673569435082;-11.1583;-0.5064;-3.5040;
2496673579542582;-9.6873;-0.2692;-3.7244;
2496673589650186;-10.0250;1.0101;-3.8297;
2496673599756957;-8.5496;0.5740;-4.4839;
2496673609864457;-10.1139;0.5333;-3.6814;
2496673619972009;-9.0670;-0.4274;-3.6500;
2496673630087426;-7.6247;-0.5207;-4.7809;
2496673640194978;-10.0732;0.0111;-5.5089;
2496673650302582;-11.4194;-0.1161;-2.2391;
2496673660403624;-7.6896;-0.9760;-2.2702;
2496673670511124;-6.9733;-0.7077;-2.5146;
2496673680618728;-9.6251;-0.6215;-3.9688;
2496673690728259;-12.1164;-0.5614;-3.7651;
2496673700835811;-9.9867;-0.4657;-3.4705;
2496673710943311;-9.9867;0.8471;-2.6154;
2496673721054197;-9.1244;0.9021;-3.0894;
2496673731161801;-9.0311;1.4554;-3.1974;
2496673741269301;-10.5377;1.6902;-3.3123;
2496673751374145;-9.2731;1.7213;-3.1639;
2496673761481645;-10.2933;1.6496;-2.7015;
2496673771589249;-9.5342;1.2613;-3.3817;
2496673781683468;-8.8179;1.9226;-3.4346;
2496673791791124;-10.0466;1.4028;-3.8058;
2496673801898780;-12.2025;0.8614;-1.7910;
2496673812023624;-11.4147;-0.1400;-1.3744;
2496673822131280;-8.8155;0.0517;-2.4404;
2496673832238936;-8.8609;-0.2835;-2.7924;
2496673842339613;-10.5927;-0.8946;-2.2558;
2496673852447270;-10.1186;-1.5580;-1.5251;
2496673862554926;-8.1900;-2.0922;-3.2189;
2496673872658988;-9.4741;-1.5628;-4.5221;
2496673882766645;-9.5052;-1.6780;-5.1401;
2496673892874301;-9.4789;-2.0276;-5.1233;
2496673902977999;-10.6935;-1.8694;-4.5054;
2496673913085603;-10.1785;-1.7713;-4.3615;
2496673923193259;-9.4238;-1.6923;-3.7747;
2496673933311072;-10.1713;-1.9917;-4.6226;
2496673943418728;-9.8121;-3.2830;-4.5532;
2496673953526384;-9.3401;-2.1305;-2.6752;
2496673963640655;-10.4372;-1.6947;-3.7819;
2496673973748311;-9.9389;-1.9774;-3.8776;
2496673983855968;-10.0298;-1.5915;-4.7402;
2496673993964197;-10.1354;-0.8608;-3.6404;
2496674004071853;-7.7231;-0.6550;-3.4633;
2496674014179509;-10.3965;0.0302;-5.4873;
2496674024286801;-10.1402;0.6936;-4.6825;
2496674034394457;-11.0456;1.3262;-1.3098;
2496674044502113;-10.0155;1.3908;-2.2989;
2496674054604509;-10.1282;1.5443;-1.0845;
2496674064712166;-8.2143;1.7333;-0.9670;
2496674074819822;-8.5735;2.6581;-2.8092;
2496674084923988;-10.0370;4.0905;-3.4801;
2496674095031645;-13.5562;4.2607;-4.9675;
2496674105139301;-14.2771;5.1326;-3.3697;
2496674115248676;-6.8103;4.1145;-0.5671;
2496674125356332;-4.8174;3.9637;-1.4940;
2496674135463988;-10.9403;4.6869;-1.5278;
2496674145570134;-11.1799;4.6439;-2.2774;
2496674155677791;-9.0574;3.9419;-3.5399;
2496674165785447;-10.1115;3.4391;-4.5963;
2496674175898155;-9.1268;3.9443;-1.1204;
2496674186005811;-8.0919;3.3287;-3.3075;
2496674196113468;-9.7950;3.3431;-4.4815;
2496674206235759;-9.0526;3.4077;-3.1110;
2496674216343416;-9.8767;3.1899;-2.5648;
2496674226451072;-7.9986;1.3573;-1.5470;
2496674236545134;-7.7830;0.5046;-4.1172;
2496674246652843;-9.3520;0.8255;-4.7665;
2496674256760499;-9.1603;0.3799;-4.1985;
2496674266902582;-9.0263;0.2339;-4.5174;
2496674277010238;-10.6481;-0.6191;-5.0827;
2496674287117895;-9.6227;-1.8790;-2.6704;
2496674297193051;-8.7123;-1.8550;-2.9148;
2496674307300707;-8.8490;-1.5915;-2.9794;
2496674317408363;-10.5497;-2.4706;-3.7149;
2496674327507843;-9.2417;-1.8670;-2.9818;
2496674337615499;-7.7901;-2.3198;-3.5782;
2496674347723155;-8.4658;-1.2969;-3.1158;
2496674357834822;-9.1555;-0.1639;-6.0311;
2496674367942530;-11.0527;0.8351;-5.8277;
2496674378050134;-9.0359;2.1526;-4.4094;
2496674388174197;-7.8332;2.8400;-1.8942;
2496674398281853;-9.7424;2.6605;-2.4500;
2496674408389509;-8.5950;2.0590;-0.7564;
2496674418494718;-8.8107;1.2182;-2.2678;
2496674428602374;-7.8356;1.0986;-2.4332;
2496674438710030;-6.5276;1.7405;-3.9182;
2496674448830186;-11.6372;2.6052;-5.4849;
2496674458937843;-14.4521;2.7275;-5.8564;
2496674469045499;-8.6548;2.5837;-2.0593;
2496674479131488;-4.1946;1.8437;-2.8020;
2496674489239145;-7.8500;2.8256;-2.7182;
2496674499346801;-11.7069;3.3550;-4.1602;
2496674509457634;-9.5148;2.8472;-2.6536;
2496674519565291;-7.5601;1.7883;-3.0320;
2496674529672947;-10.7294;2.5286;-3.1974;
2496674539779874;-10.3798;2.9551;-3.5088;
2496674549887530;-9.4502;2.9623;-2.4930;
2496674559995186;-7.5864;2.5741;-3.2692;
2496674570102738;-8.8753;2.3803;-2.9387;
2496674580210395;-10.0756;2.6677;-3.6332;
2496674590318051;-8.7748;2.3563;-4.1363;
2496674600424093;-8.2119;2.4162;-5.5666;
2496674610531749;-5.7948;2.3393;-5.3246;
2496674620639405;-7.9122;2.6151;-6.5318;
2496674630746072;-14.2890;2.6127;-5.7509;
2496674640853728;-10.4396;1.9920;-1.2906;
2496674650961384;-6.1516;0.9404;-1.9516;
2496674661067426;-7.4788;0.4807;-2.5768;
2496674671175082;-10.0155;1.2784;-3.8034;
2496674681282738;-8.5161;1.2470;-4.5604;
2496674691389926;-8.6285;1.8126;-4.7160;
2496674701497582;-8.9160;1.5153;-5.9282;
2496674711605238;-9.2922;1.5993;-6.0622;
2496674721730968;-8.1350;1.2326;-4.4596;
2496674731838624;-6.6093;0.8255;-4.1172;
2496674741946332;-10.5664;0.2243;-3.9664;
2496674752033676;-11.1535;-0.5542;-2.4236;
2496674762141332;-8.8418;-0.9592;-2.2391;
2496674772248988;-6.5396;-1.1243;-2.5433;
2496674782372843;-7.1097;-0.6981;-4.6896;
2496674792480759;-10.6935;-0.0057;-6.4050;
2496674802588676;-10.9522;-0.7172;-4.2945;
2496674812690968;-6.4343;-1.1844;-3.4513;
2496674822798884;-7.0953;-0.6215;-4.7976;
2496674832906801;-11.2397;-0.4657;-3.7747;
2496674843009718;-11.0791;-1.0765;-2.7852;
2496674853117634;-8.8394;-0.7077;-1.7097;
2496674863225551;-7.7016;-0.7220;-1.9158;
2496674873331176;-8.0273;-0.4322;-4.3089;
2496674883439093;-11.0121;-0.1161;-5.5256;
2496674893547009;-8.5065;-1.3519;-3.4920;
2496674903679301;-7.2057;-1.7928;-3.1615;
2496674913787218;-10.9762;-1.6681;-3.6667;
2496674923895134;-11.7212;-1.8239;-3.0631;
2496674933975343;-8.9830;-1.3974;-2.6393;
2496674944083259;-5.9264;-0.7795;-3.4466;
2496674954191176;-10.3822;-0.0607;-4.2419;
2496674964309301;-12.7872;-0.1759;-2.8020;
2496674974417218;-7.9747;0.0350;-1.4749;
2496674984525134;-6.8776;0.9763;-3.2070;
2496674994629301;-10.0514;1.2254;-3.9616;
2496675004737218;-9.8791;0.8064;-2.8187;
2496675014845134;-7.3325;1.2398;-3.0344;
2496675024956957;-8.6142;1.5320;-4.8814;
2496675035064874;-12.0733;2.2627;-4.6394;
2496675045172791;-11.7236;1.3980;-1.9253;
2496675055270655;-8.4129;1.1393;-0.4089;
2496675065378572;-7.3875;1.4076;-0.3491;
2496675075486488;-7.8428;1.1249;-2.0426;
2496675085585030;-10.4850;1.8003;-4.3998;
2496675095692947;-9.5004;1.3454;-4.7207;
2496675105800863;-5.6151;0.9595;-5.3725;
2496675115930030;-8.8298;1.5610;-6.8169;
2496675126037947;-12.2961;0.6075;-4.5030;
2496675136145863;-8.0489;-0.1735;-2.8211;
2496675146283259;-7.2894;0.4325;-3.3769;
2496675156391176;-10.1258;0.0302;-2.8908;
2496675166499093;-10.7773;-0.8874;-1.9636;
2496675176552999;-7.1961;-0.9592;-1.8224;
2496675186660916;-8.6213;-0.2453;-4.3137;
2496675196768832;-12.3153;-0.1854;-4.1243;
2496675206956384;-8.3148;-1.0645;-3.0081;
2496675217064249;-5.9958;-0.9832;-4.5174;
2496675227172166;-10.1617;-0.7866;-6.1104;
2496675237224509;-13.4411;-1.6705;-4.7016;
2496675247332478;-8.8226;-1.9678;-2.2941;
2496675257440343;-4.9633;-1.4647;-2.1601;
2496675267531176;-8.9064;-1.2826;-4.4477;
2496675277639093;-14.2460;-1.7761;-3.5495;
2496675287747009;-9.6610;-2.5355;-1.5876;
2496675297863572;-4.7480;-1.8287;-3.1110;
2496675307971488;-9.4238;-0.5853;-5.3175;
2496675318079405;-11.9489;-2.0683;-3.4729;
2496675328205238;-12.7271;-2.3773;-2.1410;
2496675338313155;-7.4142;-1.7856;-2.1482;
2496675348421072;-5.1048;-0.6359;-3.2213;
2496675358503988;-8.9949;-0.3003;-4.5700;
2496675368611905;-12.2698;-0.9233;-5.4993;
2496675378719822;-9.7448;-0.4609;-4.0478;
2496675388829718;-8.9949;-0.7244;-2.2391;
2496675398937634;-8.5807;0.0757;-1.8846;
2496675409045551;-8.4993;0.7295;-3.7005;
2496675419142947;-8.4945;1.0603;-4.0047;
2496675429250863;-6.6835;0.5501;-4.4719;
2496675439358780;-8.1589;0.7104;-6.2157;
2496675449464405;-11.3186;1.0412;-6.3281;
2496675459572322;-11.4506;1.2015;-2.6010;
2496675469680238;-7.4931;0.9523;0.0126;
2496675479823468;-8.1589;1.7836;-2.1984;
2496675489931384;-11.5439;2.7084;-4.3854;
2496675500039301;-11.4338;2.6246;-3.4872;
2496675510130030;-8.1637;2.6414;-1.7288;
2496675520237947;-8.0345;1.3430;-1.5613;
2496675530345863;-10.0514;1.4435;-2.9602;
2496675540462791;-10.7246;1.2999;-3.3745;
2496675550570707;-7.9890;1.4243;-3.8130;
2496675560678624;-7.5194;1.4219;-4.7809;
2496675570773884;-8.3602;1.5033;-4.9771;
2496675580881801;-9.3855;0.3775;-4.8598;
2496675590989718;-10.9068;0.1905;-3.3314;
2496675601098884;-8.0536;-0.1208;-1.0822;
2496675611206801;-7.1073;-0.4920;-1.1037;
2496675621314718;-9.0742;-0.4609;-3.4896;
2496675631421905;-12.0063;0.3464;-5.5618;
2496675641529822;-9.5964;0.2001;-4.2778;
2496675651637738;-8.2669;-0.4131;-3.1205;
2496675661738572;-11.5750;-0.8970;-2.6034;
2496675671846488;-9.4884;-0.9712;-1.0032;
2496675681954405;-5.5959;-1.1605;-2.5792;
2496675692072009;-10.3220;-0.6790;-5.4084;
2496675702179926;-11.5176;-1.0310;-5.2597;
2496675712287843;-9.1029;-1.3902;-2.9219;
2496675722404457;-7.9675;-1.7785;-2.3973;
2496675732512374;-8.6524;-1.9893;-3.5518;
2496675742620291;-11.8122;-2.0204;-2.8116;
2496675752716801;-11.1317;-2.2241;-0.8761;
2496675762824718;-8.7003;-1.9101;-0.3347;
2496675772932634;-6.8510;-1.5437;-3.1974;
2496675783052738;-4.0173;-0.5088;-5.6743;
2496675793160655;-7.3564;-0.9664;-7.7967;
2496675803268520;-17.9375;-1.3519;-6.4433;
2496675813372113;-14.3369;-1.6370;-0.4977;
2496675823480030;-5.2388;-1.5461;1.8595;
2496675833587895;-12.0039;-0.2668;-0.1693;
2496675843684874;-11.0934;1.0244;-0.1334;
2496675853792791;-5.5193;1.2494;-1.8559;
2496675863900655;-5.5911;0.8112;-6.8312;
2496675874012738;-10.5736;-0.4705;-8.7981;
2496675884120655;-12.4110;-1.3400;-5.4323;
2496675894228520;-6.9374;-1.4982;-2.9004;
2496675904332530;-6.1181;-0.6574;-4.8694;
2496675914440447;-11.4745;0.4086;-5.4227;
2496675924548311;-12.5859;0.2578;-2.3710;
2496675934648363;-10.0899;-0.4633;1.1841;
2496675944756280;-7.4213;0.2124;1.7758;
2496675954864145;-6.5348;-0.1831;-1.0080;
2496675964990551;-8.9231;0.7319;-7.1788;
2496675975098468;-12.3272;0.4684;-7.7082;
2496675985206332;-7.3851;0.1762;-5.9115;
2496675995306801;-5.0785;-0.1352;-8.1942;
2496676005414718;-8.6022;-0.0200;-7.6122;
2496676015522582;-11.7332;-0.3652;-3.6547;
2496676025623780;-10.5329;-1.1195;-0.2557;
2496676035731697;-6.9278;-1.5772;0.1373;
2496676045839561;-9.3951;-0.2764;-1.6834;
2496676055936176;-11.1607;0.1307;-2.9243;
2496676066044093;-7.2105;0.2411;-3.1205;
2496676076151957;-8.3148;0.4397;-4.5461;
2496676086329926;-9.5964;0.0446;-6.2563;
2496676096437791;-8.6213;0.2578;-5.3797;
2496676106545655;-8.8513;0.2602;-4.6250;
2496676116589301;-9.3449;0.1451;-4.3256;
2496676126697218;-6.9350;0.0613;-2.5265;
2496676136805082;-7.8500;-0.0416;-3.7029;
2496676146950863;-9.5653;0.2100;-3.0990;
2496676157058780;-10.5879;0.0135;-2.4476;
2496676167166645;-8.7652;-0.2955;-2.3853;
2496676177235759;-6.1636;0.0829;-2.4476;
2496676187343676;-9.5916;0.6290;-6.4816;
2496676197451541;-11.6635;1.3573;-3.8536;
2496676207571072;-9.3832;0.1570;-2.5098;
2496676217678988;-8.7796;0.0685;-2.0354;
2496676227786853;-9.1603;-0.8034;-0.9936;
2496676237870030;-10.1569;-0.3413;-2.6249;
2496676247977947;-11.7571;0.2148;-1.8488;
2496676258085811;-9.3090;-0.1304;-2.1290;
2496676268226280;-6.1158;-0.3485;-1.7312;
2496676278334197;-8.2669;-0.4657;-4.7569;
2496676288442061;-13.0771;0.1977;-4.4767;
2496676298535030;-12.1164;-0.3075;-3.2524;
2496676308642947;-7.5075;-0.4107;-2.0186;
2496676318750811;-8.4440;-0.2764;-3.4848;
2496676328842947;-9.6132;0.2985;-1.7767;
2496676338950863;-9.2297;-0.1807;-2.3276;
2496676349058728;-9.7352;0.2770;-2.4811;
2496676359174405;-10.9307;0.1857;-4.1195;
2496676369282322;-8.8442;0.4974;-2.4188;
2496676379390186;-8.9542;0.7152;-3.9640;
2496676389496905;-10.0466;1.0460;-3.6452;
2496676399604822;-9.2827;1.1058;-3.9855;
2496676409712686;-7.7853;1.0053;-3.7842;
2496676419821697;-9.6802;0.8399;-4.3854;
2496676429929613;-9.1843;0.5524;-3.7555;
2496676440037478;-9.6849;0.9260;-4.6490;
2496676450159509;-10.4611;0.7801;-4.7402;
2496676460267426;-9.8264;0.7705;-1.7336;
2496676470375291;-9.4789;-1.1773;-1.1396;
2496676480472634;-10.9690;-1.2443;-0.8474;
2496676490580551;-10.0370;-1.6178;-2.8116;
2496676500688416;-9.3760;-0.3652;-3.5160;
2496676510797947;-12.2387;0.0039;-4.4405;
2496676520905863;-10.3917;-0.3748;-3.1134;
2496676531013728;-4.9801;-0.8106;-3.8273;
2496676541129822;-8.4344;0.0829;-6.4720;
2496676551237738;-13.0244;-0.4896;-4.4934;
2496676561345603;-10.3606;-1.2203;-3.4920;
2496676571451801;-10.0609;-0.8393;-4.2586;
2496676581559718;-8.7341;-0.4394;-1.6259;
2496676591667582;-7.6511;-0.5040;0.3817;
2496676601768363;-8.8681;-0.5949;-2.9794;
2496676611876280;-11.1870;0.0661;-6.0072;
2496676621984145;-11.0719;1.1704;-5.7293;
2496676632085968;-7.5936;1.2661;-4.6513;
2496676642193884;-10.3654;1.4913;-3.5231;
2496676652301749;-10.2072;0.6051;-3.0153;
2496676662407218;-7.4453;1.4985;-4.7327;
2496676672515134;-9.3879;1.1225;-3.6141;
2496676682622999;-9.8767;1.3023;-1.9158;
2496676692738988;-11.0910;1.3597;-3.8728;
2496676702846905;-10.3606;1.5969;-3.4705;
2496676712954770;-8.0513;1.2326;-0.5503;
2496676723066384;-8.8394;1.4818;-3.8201;
2496676733174301;-11.6516;1.8748;-3.7101;
2496676743282166;-9.7376;1.7189;-2.9865;
2496676753396072;-7.8284;2.1814;-2.1960;
2496676763503988;-9.3544;2.2484;-2.7398;
2496676773611853;-8.5567;1.9585;-3.0727;
2496676783715499;-7.5075;2.1263;-5.4467;
2496676793823259;-9.6251;2.4281;-5.2693;
2496676803930968;-9.1029;1.4363;-3.6212;
2496676814033363;-9.3975;1.4746;-4.1267;
2496676824141124;-10.0346;0.9739;-1.6905;
2496676834248832;-9.1508;0.0111;-0.5838;
2496676844352843;-8.1852;-0.7388;-0.5551;
2496676854460603;-8.8059;-0.6670;-2.2008;
2496676864568311;-10.9594;0.2219;-4.5867;
2496676874676801;-10.9618;0.2985;-3.4418;
2496676884784561;-7.6367;-0.3532;-2.4404;
2496676894892270;-9.1340;-0.7699;-4.5437;
2496676904998259;-9.0287;-1.0549;-3.6404;
2496676915106020;-6.1445;-1.2179;-3.5088;
2496676925213728;-8.9734;-1.3424;-4.6609;
2496676935316072;-12.8160;-1.2538;-5.2478;
2496676945423832;-11.2421;-1.1267;-2.2582;
2496676955531541;-6.8175;-1.5245;-0.6221;
2496676965652218;-5.7156;-1.0382;-2.2941;
2496676975759978;-8.2621;-0.4059;-5.1185;
2496676985867686;-12.4636;-0.4848;-5.1568;
2496676995966541;-12.0254;-1.5604;-2.9172;
2496677006074301;-8.9160;-0.8707;-1.7695;
2496677016182061;-9.3616;-1.0980;-2.6465;
2496677026351280;-8.9877;-0.4681;-3.0799;
2496677036459041;-7.6848;-0.4418;-3.7244;
2496677046566801;-8.4607;-0.3485;-3.8824;
2496677056585447;-11.0982;-0.4202;-4.6418;
2496677066693207;-9.3497;0.0613;-3.5806;
2496677076800916;-6.6117;-0.0730;-3.5614;
2496677086969301;-9.1005;-0.0921;-3.4155;
2496677097077061;-10.4731;-0.0682;-2.8932;
2496677107184770;-10.5257;0.3607;-2.0644;
2496677117247270;-10.4779;0.4229;-1.6618;
2496677127355030;-7.7734;0.4181;-1.1420;
2496677137462738;-8.3530;0.6194;-4.9029;
2496677147586436;-10.4803;0.7681;-5.3773;
2496677157694197;-8.4392;1.5153;-4.5054;
2496677167801957;-8.6237;1.7548;-3.9425;
2496677177918988;-12.7514;1.8269;-4.1363;
2496677188026749;-11.4817;1.9083;-1.4414;
2496677198134457;-5.6892;1.5224;-0.8330;
2496677208224093;-6.3960;1.1106;-1.9756;
2496677218331853;-8.4344;0.8806;-2.9889;
2496677228439561;-10.9211;1.8197;-4.6107;
2496677238564613;-10.6217;1.8772;-4.3639;
2496677248672374;-7.5888;1.6807;-3.7005;
2496677258780082;-8.1829;1.5153;-4.3902;
2496677268877113;-11.1006;1.1393;-3.9640;
2496677278984874;-7.9193;1.4818;-1.5589;
2496677289092634;-5.0856;1.2111;-4.0597;
2496677299200343;-10.6911;1.2808;-6.1726;
2496677309308103;-13.8003;1.9131;-3.9688;
2496677319415811;-11.2564;1.8987;-0.7899;
2496677329528780;-8.9949;1.0172;0.0485;
2496677339636541;-7.8380;0.2171;-0.4280;
2496677349744249;-9.6036;0.3368;-2.9219;
2496677359844353;-10.2981;0.5524;-3.3673;
2496677369952061;-7.2200;0.1857;-2.2893;
2496677380059770;-7.9555;-0.3314;-5.5089;
2496677390171176;-12.6218;0.0302;-4.8526;
2496677400278936;-7.6176;-0.2979;-2.1410;
2496677410386645;-5.2220;-0.3556;-4.9842;
2496677420487218;-11.9318;-0.0511;-5.4275;
2496677430594978;-14.3779;-0.2477;-0.7469;
2496677440702686;-7.6343;-0.3051;0.6954;
2496677450831853;-5.3468;-0.7795;-3.9592;
2496677460939613;-9.0383;-0.4011;-6.0742;
2496677471047374;-11.9151;0.0613;-5.1951;
2496677481140238;-11.3426;0.1929;-3.1663;
2496677491247999;-6.1516;-0.3266;-1.8272;
2496677501355759;-7.0235;-1.1749;-3.9951;
2496677511464613;-11.1416;-0.9257;-3.5901;
2496677521572374;-9.0766;-0.6048;-2.3853;
2496677531680082;-7.4261;-0.8249;-5.1951;
2496677541756384;-10.6361;-0.4920;-4.8096;
2496677551864145;-11.6830;-0.7196;-1.8607;
2496677561971853;-10.6576;-0.7149;-1.5374;
2496677572112374;-10.2144;-0.6957;-1.5924;
2496677582220134;-7.5697;-0.9449;-2.3614;
2496677592327843;-8.0369;-0.2931;-4.2562;
2496677602429041;-8.2190;-0.2166;-4.2227;
2496677612536801;-7.9914;0.0805;-4.4524;
2496677622644509;-10.2718;0.2171;-5.4945;
2496677632751280;-9.6467;-0.2285;-2.2128;
2496677642859041;-6.1205;-0.6215;-2.3782;
2496677652966749;-10.0899;0.0254;-6.0841;
2496677663049718;-15.3933;1.0771;-2.3061;
2496677673157478;-10.1689;0.2100;1.6367;
2496677683265186;-4.9923;-0.0655;-1.8296;
2496677693403572;-6.8414;0.3511;-5.1353;
2496677703511332;-9.8910;1.5778;-6.9511;
2496677713619093;-13.2927;2.6940;-5.8205;
2496677723738988;-9.2130;2.1263;-0.6173;
2496677733846749;-5.6533;0.0805;-1.6570;
2496677743954457;-11.2612;0.1953;-2.3085;
2496677754060759;-11.4290;-0.3123;1.1001;
2496677764168520;-6.0894;-0.1017;-3.2955;
2496677774276228;-9.9676;1.5514;-6.8937;
2496677784364718;-12.9906;1.3717;-2.4380;
2496677794472270;-11.6806;1.1393;-1.7001;
2496677804579874;-8.3842;0.7394;-3.3864;
2496677814702218;-6.7409;1.2541;-2.8379;
2496677824809822;-9.2393;0.9476;-4.4839;
2496677834917426;-10.7892;1.2808;-1.5852;
2496677845018676;-7.8858;0.5668;-1.8440;
2496677855126280;-7.0953;1.1130;-6.0359;
2496677865233884;-8.4153;0.0637;-3.2022;
2496677875347947;-7.4548;0.8949;-4.4453;
2496677885455551;-11.6949;1.9585;-7.8757;
2496677895563155;-13.2087;0.8877;-0.8354;
2496677905668155;-6.5133;0.7032;0.4702;
2496677915775811;-7.2272;0.4540;-5.0085;
2496677925883363;-9.9006;1.2135;-4.7904;
2496677935978051;-11.2038;1.2999;-2.9339;
2496677946085655;-10.4348;0.5118;-1.1563;
2496677956193259;-9.0790;0.3918;-0.8880;
2496677966328363;-9.7376;0.0948;-2.3973;
2496677976435968;-14.0952;0.3416;-1.3098;
2496677986543572;-9.4789;-0.8130;1.2009;
2496677996630395;-2.8986;-0.0631;-3.0153;
2496678006737999;-5.2965;1.6854;-7.6648;
2496678016845551;-9.0957;0.8997;-6.9966;
2496678026954145;-9.2369;0.3248;-7.1306;
2496678037061749;-9.2106;-0.3194;-5.0587;
2496678047169301;-6.1995;-1.0286;-3.1735;
2496678057283520;-7.8476;-0.7651;-3.7172;
2496678067391124;-11.2373;-1.0549;-1.3026;
2496678077498728;-12.0876;-0.8946;-0.8545;
2496678087598416;-12.8351;0.0063;-1.6475;
2496678097706020;-10.2503;-0.3532;-0.0281;
2496678107813572;-4.8197;1.0220;-5.0515;
2496678117928884;-8.4368;2.5502;-8.1081;
2496678128036488;-12.8255;0.8782;-2.8307;
2496678138144093;-8.6070;-1.3113;-0.3658;
2496678148233363;-6.0269;-1.3998;-2.1553;
2496678158340968;-9.8264;-2.3031;-0.9215;
2496678168448624;-12.3942;-2.7464;-1.4198;
2496678178565186;-11.3689;-1.7043;-1.3576;
2496678188672791;-8.8490;-1.2754;-1.7551;
2496678198780395;-8.2310;-0.9975;-4.3256;
2496678208898155;-8.2573;-0.0368;-5.0157;
2496678219005759;-9.9078;0.3679;-8.0195;
2496678229113363;-9.9915;0.8949;-7.2912;
2496678239235291;-7.8308;-0.6526;-1.9205;
2496678249342895;-8.6501;-0.6957;-1.3792;
2496678259450499;-10.8036;-0.2357;-1.7503;
2496678269563988;-11.1440;-0.6335;-0.4834;
2496678279671645;-8.8633;0.0087;-1.1324;
2496678289779197;-10.1378;-0.5231;-3.9473;
2496678299882322;-6.7337;0.0972;-4.0238;
2496678309989926;-4.6065;-1.0047;-6.5701;
2496678320097530;-11.9198;-0.1376;-7.7417;
2496678330200655;-14.3010;-0.7149;-4.3591;
2496678340308259;-5.9025;-0.9281;-1.4342;
2496678350415863;-3.1044;-0.8106;-2.9243;
2496678360515134;-9.1101;-0.3099;-3.3577;
2496678370622738;-11.7906;-0.7125;-3.2524;
2496678380730343;-11.5295;-0.1711;-1.9995;
2496678390839197;-10.2263;-0.6550;-1.6403;
2496678400946853;-10.1330;0.0087;-1.3552;
2496678411054405;-12.1451;0.5237;-2.5744;
2496678421162791;-11.6853;0.6697;-1.9828;
2496678431270395;-7.4812;1.0436;1.2679;
2496678441378051;-8.4634;0.0709;-2.8669;
2496678451500238;-8.8298;0.4014;-6.2252;
2496678461607843;-6.6117;1.0460;-5.1903;
2496678471715447;-6.6500;1.5467;-3.2189;
2496678481808780;-6.7457;0.3942;-4.3089;
2496678491916436;-9.7352;0.4134;-4.4429;
2496678502024041;-7.8069;0.1283;-2.1099;
2496678512132218;-7.3974;-0.0296;-5.4012;
2496678522239822;-13.3789;0.9356;-5.1568;
2496678532347426;-14.3369;1.2230;-2.0091;
2496678542438103;-6.9589;1.0603;-0.3347;
2496678552545655;-9.6203;1.3023;-4.2275;
2496678562653259;-12.0685;1.5969;-3.0105;
2496678572792791;-7.9675;1.8508;-0.2533;
2496678582900447;-7.9316;1.2087;-2.0788;
2496678593008051;-9.5557;0.0326;-2.3399;
2496678603100134;-12.2626;0.2124;-1.5108;
2496678613207738;-11.6109;-0.2644;-0.3945;
2496678623315395;-7.7662;-0.2524;-1.4294;
2496678633421697;-6.5109;-0.0511;-4.1363;
2496678643529301;-8.6118;-0.0511;-6.1199;
2496678653636905;-5.9575;0.0398;-6.5629;
2496678663769561;-7.9675;0.8375;-9.3778;
2496678673877113;-8.0513;1.3549;-6.0048;
2496678683984770;-6.1851;0.8495;-4.7665;
2496678694066176;-11.9704;0.2052;-3.4825;
2496678704173780;-14.8905;0.0924;0.6356;
2496678714281384;-9.3664;-0.2405;2.7676;
2496678724409405;-8.4344;-0.6742;-0.7899;
2496678734517009;-8.6094;-0.3676;-6.3425;
2496678744624613;-10.6840;0.8518;-6.6829;
2496678754721801;-11.9800;1.7046;-2.9028;
2496678764829405;-8.9016;0.9715;-1.8416;
2496678774937009;-10.7749;0.1929;-2.7541;
2496678785024197;-6.8031;-1.1486;1.1650;
2496678795131749;-5.4138;-1.7737;-0.4280;
2496678805239353;-8.6596;-1.4432;-5.4251;
2496678815367322;-9.1723;-0.5949;-5.9737;
2496678825474926;-8.8537;-0.2237;-7.4061;
2496678835582530;-8.8753;0.2961;-6.1391;
2496678845677686;-7.7327;0.0039;-4.4405;
2496678855785238;-13.2206;0.2028;-4.3280;
2496678865892843;-12.8519;0.2267;1.9627;
2496678876015968;-7.4716;0.8710;-0.1167;
2496678886123572;-11.7571;1.0507;-4.6920;
2496678896231176;-7.0164;0.6721;-0.5097;
2496678906335343;-4.1177;0.6793;-4.0837;
2496678916442947;-11.6539;0.3296;-7.0253;
2496678926550551;-12.0757;0.8351;-2.9889;
2496678936659457;-8.1446;1.1201;-1.4797;
2496678946767061;-6.3697;-0.6287;-2.1362;
2496678956874666;-7.7016;-0.4801;-4.1507;
2496678966980082;-13.0244;0.7104;-4.1794;
2496678977087686;-9.9365;-0.2500;-0.8091;
2496678987195238;-8.3770;0.7561;-5.0587;
2496678997292166;-11.0288;0.9835;-3.2572;
2496679007399770;-8.0249;0.6170;-0.3012;
2496679017507322;-8.0776;0.6960;-2.4284;
2496679027618207;-9.5916;0.4134;-2.4643;
2496679037725863;-10.4755;0.2124;-2.0836;
2496679047833416;-10.8491;0.2315;-1.0391;
2496679057962999;-8.2884;-0.2309;0.0365;
2496679068070551;-8.5591;-0.8512;-2.8211;
2496679078178207;-9.0718;-0.6933;-1.8416;
2496679088274613;-8.0225;0.2889;-3.8154;
2496679098382218;-11.5941;1.0101;-5.5594;
2496679108489770;-11.6806;0.4277;-0.0688;
2496679118589353;-8.0800;-0.1041;-0.1119;
2496679128696905;-7.5027;-0.5303;-2.8570;
2496679138804509;-10.4731;-0.2668;-3.0703;
2496679148924197;-11.8026;0.5429;-1.4773;
2496679159031801;-6.5037;-0.1878;0.3455;
2496679169139457;-6.9757;-0.6287;-4.4620;
2496679179242791;-15.2115;0.3344;-5.0803;
2496679189350395;-13.5129;0.0135;2.1470;
2496679199457999;-8.2478;-0.5423;1.0953;
2496679209558624;-8.3913;0.4205;-2.9363;
2496679219666176;-7.6128;0.5237;-1.4055;
2496679229773780;-4.8365;0.4397;-3.6667;
2496679239905134;-7.8523;0.1259;-7.7441;
2496679250012738;-14.4114;0.5213;-5.3629;
2496679260120343;-12.2195;0.6721;0.0030;
2496679270221280;-7.0834;0.6529;-0.0353;
2496679280328884;-7.9364;-0.0105;-3.4107;
2496679290436488;-11.1006;0.1857;-1.1707;
2496679300528468;-10.3077;0.4660;-1.6427;
2496679310636072;-9.9891;1.2398;-6.2635;
2496679320743676;-10.7653;1.1680;-3.3314;
2496679330856072;-7.5338;0.7657;-1.6259;
2496679340963676;-4.6926;0.6601;-3.9999;
2496679351071280;-8.9518;0.7343;-4.9651;
2496679361171332;-12.2001;0.8375;-2.8427;
2496679371278884;-10.0083;0.9045;-1.7767;
2496679381386488;-6.4893;0.1427;-3.6523;
2496679391511072;-8.5878;0.4588;-5.5594;
2496679401618676;-11.2588;0.8112;-3.2501;
2496679411726280;-9.9102;1.0507;-3.4442;
2496679421838468;-9.5773;1.2855;-5.5594;
2496679431946072;-10.7533;1.5802;-2.3228;
2496679442053676;-8.0082;0.6458;-0.9479;
2496679452168155;-8.1374;0.7394;-3.0775;
2496679462275707;-8.9638;1.0675;-2.1673;
2496679472383311;-8.6166;0.7394;-2.4882;
2496679482468207;-9.1675;1.1010;-4.0310;
2496679492575759;-8.1398;0.6027;-3.9927;
2496679502683416;-10.0059;0.2100;-5.0635;
2496679512799874;-10.8829;0.6888;-2.2391;
2496679522907478;-10.1019;0.3296;-2.3375;
2496679533015082;-10.4755;0.3535;-3.8058;
2496679543102374;-8.6477;0.4926;-0.6796;
2496679553209926;-6.5635;-0.1065;-2.4117;
2496679563317530;-6.8462;0.6505;-5.8035;
2496679573444613;-12.1211;0.4759;-5.0133;
2496679583552218;-14.4903;0.6601;-2.3710;
2496679593659822;-9.9700;-0.5925;1.6104;
2496679603771697;-5.1742;-0.8922;-1.1946;
2496679613879301;-7.4644;-0.9449;-4.4934;
2496679623986957;-8.2837;-0.5925;-3.0464;
2496679634087634;-10.9451;-0.3724;-5.9928;
2496679644195238;-12.2961;-0.5399;-4.2826;
2496679654302843;-10.9762;-0.8779;-0.3658;
2496679664425030;-9.2321;-1.0956;-1.5132;
2496679674532634;-7.4788;-1.5245;-1.4701;
2496679684640238;-7.9193;-0.9257;-2.8908;
2496679694741488;-8.5496;-0.2548;-3.6284;
2496679704849145;-10.6361;-0.9209;-4.9412;
2496679714956697;-13.8075;-0.6598;-4.6729;
2496679725068155;-11.4673;-0.7101;0.9422;
2496679735175759;-6.6141;-0.1065;0.0918;
2496679745283363;-6.7552;-0.4585;-4.3208;
2496679755396541;-8.4559;-0.3532;-1.9205;
2496679765504145;-8.4607;-0.8393;-3.2118;
2496679775611749;-9.1412;-0.5782;-6.7570;
2496679785703468;-11.4048;0.4110;-6.4193;
2496679795811280;-12.0613;0.1092;-2.7135;
2496679805919093;-7.9938;-0.4131;0.0604;
2496679816018884;-7.3756;-0.3003;-1.2568;
2496679826126749;-9.5195;-0.4753;-4.1578;
2496679836234561;-11.2421;0.3320;-4.5389;
2496679846350968;-11.0384;1.3119;-4.8550;
2496679856458780;-9.7974;0.9117;-1.9851;
2496679866566593;-9.1340;1.0555;-0.3873;
2496679876673780;-5.8905;0.6218;-2.3351;
2496679886781593;-5.3850;0.2219;-5.8325;
2496679896889457;-12.6434;1.2808;-6.6084;
2496679906986801;-13.5754;1.8604;-3.0081;
2496679917094613;-6.0317;1.0651;-1.7934;
2496679927202426;-6.4391;0.5644;-5.6216;
2496679937346697;-8.2860;0.4110;-3.8560;
2496679947454509;-10.9283;1.4243;-4.9986;
2496679957562374;-12.3727;2.2292;-3.6500;
2496679967640134;-9.6443;1.3119;0.5492;
2496679977747947;-8.5280;0.8136;-1.6546;
2496679987855811;-7.4740;0.7223;-3.9182;
2496679997986280;-7.3732;0.4493;-4.2156;
2496680008094093;-9.9987;1.3358;-3.7890;
2496680018201905;-8.0369;1.0771;-4.2371;
2496680028318572;-8.7867;0.6290;-6.1463;
2496680038426384;-8.7532;0.1810;-2.4188;
2496680048534197;-12.4564;-0.2764;-1.3863;
2496680058604405;-14.9982;-0.2764;0.1229;
2496680068712218;-7.6511;-1.2993;2.8274;
2496680078820030;-6.8390;-0.6981;-2.5481;
2496680088946488;-7.7231;-0.5542;-6.8073;
2496680099054301;-9.5414;-0.1998;-6.1415;
2496680109162113;-13.4650;-0.0607;-3.0631;
2496680119267738;-7.6128;-0.9257;-0.0520;
2496680129375551;-6.5683;-1.9941;-2.8522;
2496680139483363;-9.8097;-2.2361;-1.8248;
2496680149588780;-10.2646;-1.3184;-1.7599;
2496680159696593;-11.0815;-0.9473;-3.8417;
2496680169804405;-10.2168;-1.3113;-2.6656;
2496680179908884;-9.5219;-0.9233;-3.4825;
2496680190016697;-9.6658;-1.0143;-2.8403;
2496680200124509;-8.8202;-0.7316;-2.3180;
2496680210220603;-9.4621;-0.4490;-4.3041;
2496680220328363;-9.2321;-0.6933;-2.6082;
2496680230436176;-7.1411;-0.6502;-3.7101;
2496680240543988;-7.6633;-0.6383;-2.5528;
2496680250668884;-8.7772;-0.4872;-3.2859;
2496680260776697;-12.3775;0.5979;-4.9675;
2496680270884509;-12.6936;0.7609;-0.8785;
2496680280986541;-7.4501;-0.1615;1.1961;
2496680291094353;-7.4285;0.0446;-4.6059;
2496680301202166;-8.3530;0.7585;-5.1425;
2496680311312218;-9.3640;1.8508;-4.2060;
2496680321420030;-11.9991;2.4305;-3.4777;
2496680331527843;-9.8599;1.9202;-2.4428;
2496680341644978;-9.6371;1.0507;-0.4642;
2496680351752791;-8.2190;0.4516;0.0365;
2496680361860603;-10.2814;1.5081;-3.3864;
2496680371949405;-13.3693;1.7094;-1.4127;
2496680382057218;-6.7792;1.0484;0.1301;
2496680392165030;-6.2713;1.4985;-6.6470;
2496680402276697;-8.7796;1.9107;-6.6108;
2496680412384509;-7.1267;2.7491;-4.9268;
2496680422492322;-12.0398;2.9097;-4.5413;
2496680432595759;-13.4626;1.8652;-1.4055;
2496680442703572;-8.8537;0.5142;-0.3251;
2496680452811384;-4.3382;0.0900;-1.6929;
2496680462947947;-8.9877;1.5634;-7.5380;
2496680473055759;-12.7801;1.5897;-3.6523;
2496680483163624;-8.5783;1.4148;-0.3754;
2496680493241697;-11.2158;1.2975;-4.2969;
2496680503349509;-10.7701;0.6362;-1.5422;
2496680513457322;-7.2368;0.6338;-0.2773;
2496680523571905;-8.8753;0.2124;-3.1902;
2496680533679718;-10.9403;-0.3242;-3.4968;
2496680543787530;-10.2072;0.2626;-4.7713;
2496680553900238;-6.7744;-0.1639;-4.1124;
2496680564008051;-7.3014;0.6290;-5.9737;
2496680574115863;-11.8241;0.0039;-3.5423;
2496680584215030;-8.9925;-0.3218;0.6018;
2496680594322843;-8.4344;-0.6215;-2.6991;
2496680604430655;-10.9164;-1.1940;-4.0956;
2496680614543155;-9.3664;-0.4490;-3.5973;
2496680624650968;-6.6141;-0.0559;-4.5652;
2496680634758780;-9.0550;-0.1663;-5.4562;
2496680644865238;-10.2670;-0.2142;-4.9938;
2496680654973051;-9.5629;-0.9927;-2.8235;
2496680665080916;-9.2273;-0.7890;-3.6790;
2496680675198155;-10.5138;-0.8680;-0.8210;
2496680685305968;-9.4860;-1.9678;0.8725;
2496680695413780;-9.4382;-1.7402;-1.5541;
2496680705522009;-9.9269;-1.2945;-3.0081;
2496680715629822;-7.5075;-0.8321;-4.5461;
2496680725737634;-8.4634;-0.1543;-6.4289;
2496680735826488;-12.0589;-0.3123;-5.4586;
2496680745934301;-10.7270;-0.4370;-2.0258;
2496680756042166;-8.5974;-1.3807;-0.0114;
2496680766197009;-7.6415;-0.9975;-3.8177;
2496680776304822;-10.3869;-0.8441;-2.9746;
2496680786412634;-10.3750;-0.1878;-0.7732;
2496680796475499;-7.3469;0.0924;-3.2261;
2496680806583259;-9.1101;0.3488;-5.9856;
2496680816690968;-8.4512;1.0316;-5.2744;
2496680826812322;-5.6773;0.1283;-3.8154;
2496680836920082;-9.7017;0.6505;-6.1798;
2496680847027843;-13.5057;0.3105;-4.0789;
2496680857142166;-10.0537;0.8949;0.8895;
2496680867249926;-8.6812;1.5754;-3.3888;
2496680877357686;-10.5209;0.8279;-2.3375;
2496680887451384;-7.3780;2.0064;0.2785;
2496680897559145;-5.9360;1.0340;-4.1578;
2496680907666853;-10.0131;1.8724;-5.9234;
2496680917783676;-11.9007;1.5467;-2.8211;
2496680927891436;-8.4392;1.3454;-0.7107;
2496680937999145;-10.6481;0.8830;-2.9674;
2496680948098155;-10.5855;0.8183;-1.0558;
2496680958205916;-4.8820;1.0986;-2.2798;
2496680968313624;-7.3038;1.0316;-7.4207;
2496680978405968;-10.0971;1.4100;-4.8479;
2496680988513728;-11.5726;1.8102;-2.1051;
2496680998621436;-11.1317;1.2613;0.1660;
2496681008733884;-9.7472;1.0436;-0.2653;
2496681018841645;-8.1422;0.5309;-0.0616;
2496681028949353;-4.5658;0.3105;-3.8991;
2496681039064613;-9.5845;0.3631;-8.1583;
2496681049172374;-12.4732;0.9595;-4.6657;
2496681059280082;-9.4478;1.0914;-3.0488;
2496681069394041;-10.0466;0.8710;-2.2989;
2496681079501801;-8.0871;0.0900;0.9278;
2496681089609509;-8.6501;0.1522;-0.5121;
2496681099708780;-10.1258;-0.3170;-2.3471;
2496681109816541;-9.9221;-0.2668;-4.0932;
2496681119924249;-9.1053;0.9212;-3.6141;
2496681130039041;-5.6414;0.1570;-4.6777;
2496681140146801;-10.0828;-0.3748;-5.9306;
2496681150254509;-10.3726;-0.2979;-2.1817;
2496681160360238;-9.1460;-0.7842;-2.5193;
2496681170467999;-12.1092;-0.0464;-2.3997;
2496681180575759;-10.8491;-0.7842;0.6308;
2496681190674093;-9.1173;-0.2979;-0.4352;
2496681200781853;-5.5792;-0.8321;-3.5112;
2496681210889613;-6.2426;-0.1400;-6.8842;
2496681221008676;-7.7231;0.2602;-6.5079;
2496681231116436;-8.5065;-0.4609;-5.1114;
2496681241224145;-13.0412;0.0589;-4.3328;
2496681251340655;-13.0149;-0.2979;-0.1047;
2496681261448416;-8.9255;-0.1017;0.6667;
2496681271556124;-6.1612;-0.0754;-1.9469;
2496681281655343;-6.9805;-0.5088;-4.0884;
2496681291763103;-10.3869;0.8160;-6.4672;
2496681301870811;-12.7849;1.2422;-3.9254;
2496681311977322;-11.5271;0.9978;-0.3371;
2496681322085082;-7.3708;0.1810;0.1636;
2496681332192791;-4.5227;-0.0826;-1.2739;
2496681342319249;-9.7687;-0.4992;-6.2109;
2496681352427009;-11.8983;0.5381;-3.8871;
2496681362534770;-9.9078;0.5955;-5.1425;
2496681372612634;-9.2898;0.8088;-3.9688;
2496681382720395;-8.4009;0.5907;-1.1563;
2496681392828103;-11.2828;0.5524;-1.6451;
2496681402942113;-10.3511;0.3942;-0.4929;
2496681413049874;-8.4778;0.8686;-2.2774;
2496681423157582;-4.8652;-0.0176;-4.4094;
2496681433261176;-5.9456;0.0637;-7.8565;
2496681443368936;-14.4473;0.3344;-5.4132;
2496681453476645;-13.8485;0.9308;-0.8617;
2496681463577530;-10.5784;0.3033;-0.2174;
2496681473685291;-5.5720;-0.5518;0.0102;
2496681483792999;-5.5720;-0.3891;-3.7077;
2496681493913468;-9.4119;0.2913;-5.8445;
2496681504021228;-12.1451;0.0733;-4.4767;
2496681514128988;-11.8217;0.5309;-2.5911;
2496681524236384;-8.2645;0.0972;-1.2185;
2496681534344145;-6.8390;-0.3266;-2.5959;
2496681544451853;-8.8490;-0.3314;-2.5816;
2496681554565863;-9.4430;0.5859;-4.9340;
2496681564673624;-9.5988;0.2291;-4.2802;
2496681574781332;-9.4190;0.0733;-2.5361;
2496681584884197;-12.0183;0.6840;-2.5385;
2496681594991957;-10.6744;0.3057;-0.0520;
2496681605099666;-6.7911;0.5142;-0.3538;
2496681615208572;-7.3875;-0.0873;-3.4825;
2496681625316332;-7.5649;0.4110;-6.5677;
2496681635424041;-12.6242;0.4588;-5.0755;
2496681645523572;-13.1441;0.5668;-1.6953;
2496681655631332;-7.3086;0.5955;-1.9947;
2496681665739041;-6.0413;-0.1807;-1.9875;
2496681675848676;-7.8260;-0.1974;-2.5887;
2496681685956436;-13.3980;0.8614;-3.7149;
2496681696064197;-14.0952;0.3655;-2.4380;
2496681706194509;-9.4837;1.3478;0.5707;
2496681716302270;-4.4124;-0.6120;-2.2965;
2496681726410030;-4.8341;0.0494;-5.8995;
2496681736482530;-8.3722;-0.3700;-6.5198;
2496681746590291;-13.5706;0.3081;-6.5533;
2496681756697999;-15.4630;1.3669;-2.7254;
2496681766832999;-8.0991;-0.3027;3.5797;
2496681776940759;-3.9215;-0.7196;1.0786;
2496681787048520;-9.2106;-0.1663;-6.2109;
2496681797151697;-12.7777;0.3583;-4.4094;
2496681807259561;-8.9686;0.6003;-3.6957;
2496681817367374;-7.1554;0.5381;-4.9795;
2496681827466801;-6.5659;-0.5925;-4.5867;
2496681837574613;-13.1776;0.4926;-2.0139;
2496681847682478;-13.8174;0.0565;0.3191;
2496681857780655;-7.1267;-0.0511;0.5492;
2496681867888468;-4.6687;-0.3532;-4.1650;
2496681877996332;-9.2130;0.0589;-7.3104;
2496681888136072;-11.6300;0.8088;-4.1195;
2496681898243884;-11.6037;0.6745;-0.3179;
2496681908351749;-10.5760;0.4926;-1.4246;
2496681918423572;-6.2617;-0.1017;-2.3901;
2496681928531384;-5.7443;-0.2668;-4.4743;
2496681938639249;-9.8934;0.1451;-5.5570;
2496681948756384;-12.8064;0.6984;-4.9890;
2496681958864197;-11.0886;1.1249;-0.7636;
2496681968972061;-7.0355;0.2028;-0.4738;
2496681979084613;-8.3387;-0.1256;-3.1807;
2496681989192426;-12.7801;0.5883;-2.9889;
2496681999300291;-11.4242;0.5357;0.6090;
2496682009397634;-6.6882;0.5740;-2.8475;
2496682019505447;-4.9657;-0.0849;-6.4193;
2496682029613311;-7.6944;0.4373;-6.3523;
2496682039737322;-16.3134;0.9452;-5.2095;
2496682049845134;-15.7265;1.0460;2.8585;
2496682059952999;-6.8895;-0.4059;3.7137;
2496682070066280;-4.0651;-0.3915;-3.5471;
2496682080174093;-5.7730;-0.0129;-8.3046;
2496682090281957;-10.5520;0.4926;-4.6633;
2496682100377738;-15.2545;0.5261;-3.7531;
2496682110485551;-11.6806;1.0866;-1.4462;
2496682120593416;-1.0181;-0.3604;-2.0883;
2496682130700655;-6.0078;0.0494;-6.0769;
2496682140808468;-12.0757;-0.2046;-3.4968;
2496682150916332;-11.7787;0.4325;-1.9445;
2496682161022009;-10.8467;-0.0993;-5.1784;
2496682171129822;-9.9891;0.8375;-2.8765;
2496682181237634;-9.8288;0.6864;0.2713;
2496682191345447;-8.9207;-0.1783;2.2286;
2496682201453259;-9.7735;-0.0706;-1.8464;
2496682211561124;-7.6657;-0.2692;-7.3463;
2496682221672426;-8.3722;0.6984;-6.0550;
2496682231780238;-12.4301;0.2171;-1.7791;
2496682241888051;-9.8025;0.2339;1.4692;
2496682251996280;-5.9169;-0.4490;-0.6700;
2496682262104093;-8.3937;-0.4394;-6.0574;
2496682272211957;-14.3321;0.8303;-5.6623;
2496682282311957;-11.8193;0.7729;0.2139;
2496682292419770;-6.3215;0.4660;-1.0175;
2496682302527634;-6.0799;-0.3843;-6.8671;
2496682312639822;-7.8021;0.3464;-6.0670;
2496682322747634;-12.5859;1.2278;-3.9784;
2496682332855499;-12.9739;1.0699;0.4104;
2496682342952322;-6.6308;-0.0826;-0.1478;
2496682353060134;-6.5324;-0.1280;-2.6919;
2496682363167999;-11.7691;-0.0754;-5.4514;
2496682373278259;-15.1852;1.3454;-0.4690;
2496682383386072;-7.1889;0.4397;-0.4208;
2496682393493884;-8.0513;-0.2429;-5.5546;
2496682403609197;-7.2224;0.1475;-4.4477;
2496682413717009;-8.4535;0.5764;-4.2945;
2496682423824874;-12.0805;1.0002;-3.4131;
2496682433934718;-9.5462;0.8136;0.3529;
2496682444042530;-6.4223;-0.3700;-2.9937;
2496682454150395;-7.6609;-0.3556;-4.6322;
2496682464286072;-10.9810;0.5261;-4.0502;
2496682474393936;-10.7581;0.5740;-2.4260;
2496682484501749;-10.0394;0.5644;-3.8058;
2496682494584041;-10.0899;0.0972;-2.6895;
2496682504691853;-8.0776;0.7681;-2.2917;
2496682514799666;-13.0098;0.5046;-3.1639;
2496682524903468;-11.1078;1.0675;1.7471;
2496682535011280;-4.2879;-0.4155;-0.5838;
2496682545119145;-5.3085;-0.1376;-6.4816;
2496682555228780;-10.5449;0.1594;-6.5677;
2496682565336593;-14.6004;1.2903;-1.4988;
2496682575444457;-12.0900;0.2435;0.5228;
2496682585555655;-11.3115;-0.0730;-1.5156;
2496682595663468;-5.2196;-0.1472;-2.3877;
2496682605771332;-3.9574;0.3368;-7.2218;
2496682615872530;-9.4932;0.6721;-7.0445;
2496682625980395;-11.4048;1.1991;-4.3448;
2496682636088207;-9.4167;1.4818;-2.2654;
2496682646208363;-7.8188;0.3846;-1.9014;
2496682656316228;-10.2885;-0.2692;1.0068;
2496682666424041;-9.4765;-0.5566;0.2665;
2496682676507009;-11.8122;0.2267;-3.6165;
2496682686614822;-12.7896;0.3727;-5.5714;
2496682696722634;-9.9293;1.0579;-3.1014;
2496682706837947;-8.5424;1.0149;-2.3830;
2496682716945759;-9.9509;0.7370;1.5218;
2496682727053624;-6.8510;-0.7053;-0.4208;
2496682737147947;-6.6691;-0.3652;-2.8259;
2496682747255759;-9.5100;0.2530;-5.0372;
2496682757363624;-11.2062;0.5716;-1.6307;
2496682767490238;-9.7615;-0.2213;-4.5508;
2496682777598051;-8.6812;-0.1376;-4.6155;
2496682787705916;-4.7312;0.4612;-6.5270;
2496682797809613;-10.5114;1.0268;-7.5069;
2496682807917322;-14.0734;1.4985;-2.3758;
2496682818024978;-10.5712;0.6697;1.6944;
2496682828151072;-7.7638;-0.2046;0.2833;
2496682838258780;-10.0780;0.1427;-1.1372;
2496682848366436;-11.0934;0.2363;0.6811;
2496682858455134;-6.9733;0.1714;-2.1147;
2496682868562843;-8.2047;0.1427;-5.9354;
2496682878670499;-11.7954;0.6027;-5.7700;
2496682888785759;-9.8408;0.7370;-2.7972;
2496682898893468;-8.2119;0.3607;-1.0726;
2496682909001124;-10.6457;-0.1161;-2.6130;
2496682919101905;-8.6548;-0.0057;-2.3734;
2496682929209613;-7.2631;0.4854;-3.1181;
2496682939317270;-10.8180;0.5142;-4.5532;
2496682949430655;-13.4842;0.5453;-2.8427;
2496682959538363;-10.8948;0.2052;-1.2520;
2496682969646020;-6.2641;0.2243;-0.6508;
2496682979749926;-2.0192;0.3823;-3.9473;
2496682989857634;-7.8858;0.3942;-9.0784;
2496682999965291;-16.2440;0.5883;-3.4298;
2496683010076801;-13.9107;0.1594;0.1564;
2496683020184509;-7.7231;0.0613;0.2713;
2496683030292166;-4.0316;-0.0296;-1.9588;
2496683040401697;-4.8437;-0.2309;-5.0085;
2496683050509405;-8.7652;0.1259;-7.0516;
2496683060617061;-13.5272;0.8949;-5.2143;
2496683070728363;-14.5382;0.5668;-2.8427;
2496683080836072;-9.7543;0.4181;1.9938;
2496683090943728;-9.4190;-0.9975;2.4823;
2496683101040759;-9.9844;-1.6322;1.7375;
2496683111148468;-7.5218;-1.3472;-3.6428;
2496683121256124;-9.3760;1.3262;-6.8336;
2496683131367113;-9.2632;1.1991;-5.5546;
2496683141474822;-9.6706;0.4086;-2.6154;
2496683151582478;-6.3000;-0.6694;-0.3012;
2496683161692009;-6.0655;-0.3820;-2.2271;
2496683171799718;-9.3616;-0.3556;-7.3319;
2496683181907426;-12.4831;0.4397;-5.2525;
2496683192007374;-12.7367;0.6817;-3.1687;
2496683202115082;-10.4946;1.0460;-1.6044;
2496683212222791;-6.3984;0.0159;-1.7838;
2496683222347582;-8.4706;0.6362;-3.0990;
2496683232455291;-10.7222;0.4325;-1.5757;
2496683242562999;-11.9342;0.6697;-0.6173;
2496683252662113;-10.8251;0.0565;0.4008;
2496683262769822;-8.0369;-0.1926;-0.8282;
2496683272877478;-4.0603;-0.4418;-2.9937;
2496683282982738;-7.7949;0.9906;-5.7030;
2496683293090447;-11.8074;1.0771;-6.6972;
2496683303198103;-9.7496;0.8255;-5.2911;
2496683313306541;-8.8513;0.5189;-4.3663;
2496683323414249;-9.0263;0.7801;-0.6820;
2496683333521905;-11.3641;0.5692;-0.8569;
2496683343658155;-10.9259;0.4134;0.2354;
2496683353765863;-8.9495;-0.3532;-2.6895;
2496683363873520;-8.1852;1.4530;-4.4070;
2496683373952113;-8.2167;2.1526;-3.0799;
2496683384059822;-10.7845;1.4291;-2.2463;
2496683394167478;-9.2584;0.4205;-2.3877;
2496683404270863;-11.0815;0.5477;-3.2022;
2496683414378572;-8.6620;0.2148;0.1349;
2496683424486228;-6.5085;-0.2046;-2.5193;
2496683434596957;-10.0490;0.1570;-5.2525;
2496683444704666;-11.1966;0.8518;-4.5604;
2496683454812322;-10.2838;1.2182;-4.4886;
2496683464931697;-6.5157;0.7295;-1.5398;
2496683475039405;-6.8462;0.4086;-3.6380;
2496683485147061;-9.0359;0.0517;-5.3677;
2496683495246072;-11.1341;0.5764;-2.6225;
2496683505353780;-10.6552;-0.1328;-0.8545;
2496683515461436;-8.7676;0.2746;-2.7182;
2496683525568155;-7.2081;-0.4896;-2.9650;
2496683535675863;-8.2478;-0.3508;-2.6201;
2496683545783520;-10.1833;0.2435;-3.4107;
2496683555883207;-8.2621;0.5644;-3.7962;
2496683565990916;-9.2536;-0.6359;-3.3505;
2496683576098624;-11.9895;-0.3508;-1.8153;
2496683586237218;-8.8083;-0.9329;-0.3658;
2496683596344926;-7.0929;-0.5471;-0.0162;
2496683606452582;-8.2167;-1.4384;-3.7699;
2496683616550863;-14.8615;-0.1113;-4.3878;
2496683626658624;-11.7428;-1.0549;-0.2438;
2496683636766280;-7.0355;-0.4226;0.4869;
2496683646855343;-5.0426;-0.5160;-3.8130;
2496683656963051;-10.8036;0.0494;-4.3017;
2496683667070707;-13.8221;-0.8297;-1.8176;
2496683677183051;-9.0790;-0.6766;-1.2257;
2496683687290759;-5.1120;-0.3437;-4.4572;
2496683697398416;-7.1554;-0.3915;-4.0406;
2496683707524613;-9.7974;-0.6837;-4.0023;
2496683717632374;-8.1254;-0.2572;-3.7627;
2496683727739978;-5.0354;-0.2166;-7.3798;
2496683737856280;-13.6926;0.2243;-6.2204;
2496683747963988;-17.3219;0.2124;2.6237;
2496683758071645;-16.3684;-0.9114;7.0026;
2496683768174718;-11.0456;-3.5342;3.8094;
2496683778282426;-11.7763;-1.2179;0.4654;
2496683788390134;-6.8967;1.7716;-0.4328;
2496683798479301;-3.3368;1.7309;-3.8824;
2496683808587061;-7.0068;1.7859;-11.1311;
2496683818694822;-11.6300;-0.4202;-7.4160;
2496683828810551;-12.6864;0.2148;-1.3504;
2496683838918311;-4.1827;-1.4432;4.2742;
2496683849026072;-2.2349;-1.6131;-7.2314;
2496683859128207;-11.7906;-0.5279;-14.4921;
2496683869235968;-14.2986;0.5309;-7.5356;
2496683879343728;-11.2301;1.9226;-0.7923;
2496683889446280;-8.4081;2.1383;-2.8618;
2496683899554041;-12.1211;1.9035;0.2904;
2496683909661801;-12.6697;2.3803;5.0551;
2496683919767530;-8.9351;1.4411;1.6391;
2496683929875291;-6.9565;-0.2357;-2.9626;
2496683939983051;-4.3382;-0.3556;-3.3218;
2496683950094613;-10.0899;1.3478;-4.7617;
2496683960202374;-13.8003;1.7764;-3.3505;
2496683970310134;-11.4506;1.5897;-1.6762;
2496683980422061;-3.3969;-0.2668;-4.0190;
2496683990529822;-4.4195;0.4301;-8.3931;
2496684000637582;-9.5533;0.9428;-6.0622;
2496684010739405;-12.6625;2.1263;-4.1172;
2496684020847166;-14.6510;1.9753;-3.3290;
2496684030954926;-5.7203;2.1287;0.9446;
2496684041074197;-4.1369;0.7008;-2.5576;
2496684051181957;-9.7256;1.2927;-4.5078;
2496684061289718;-11.7141;0.7896;-2.1386;
2496684071382530;-10.7988;1.0484;-2.3061;
2496684081490291;-9.7424;0.0565;-1.7264;
2496684091598051;-10.6265;0.0350;0.5850;
2496684101708259;-8.8848;-0.3963;-0.6078;
2496684111816020;-8.5711;0.9045;-3.0129;
2496684121923780;-6.3912;0.7032;-4.0047;
2496684132041072;-8.6142;0.9356;-7.2817;
2496684142148832;-11.5582;0.2674;-4.7375;
2496684152256593;-13.7022;0.8542;-1.5227;
2496684162372843;-10.6744;-0.0009;3.8504;
2496684172480603;-3.9215;-1.1004;-0.5073;
2496684182588363;-6.5850;-0.2094;-7.7082;
2496684192685551;-10.1833;0.1379;-6.3619;
2496684202793311;-10.5760;0.0063;-3.8321;
2496684212901072;-10.5855;-0.3338;-3.0368;
2496684223003468;-6.9829;-0.7507;-0.3610;
2496684233111228;-7.2751;-0.2477;-1.5132;
2496684243218988;-15.0485;-0.1232;-2.1075;
2496684253330238;-13.1225;-0.7507;0.1851;
2496684263437999;-5.6270;-0.2907;-2.1386;
2496684273545759;-6.9948;-0.0272;-6.5390;
2496684283659093;-10.6552;-0.0754;-2.8741;
2496684293766853;-10.9475;-0.4633;-1.4294;
2496684303874613;-11.7428;-0.5734;0.2569;
2496684313996697;-6.4056;-0.6335;0.6595;
2496684324104457;-7.6657;-0.6191;-3.9206;
2496684334212218;-11.6444;-1.0214;-5.8373;
2496684344307426;-10.6935;-0.4825;-2.6225;
2496684354415186;-8.8944;-0.7077;-3.1567;
2496684364522947;-8.3172;-0.7268;-5.3342;
2496684374618468;-9.1436;-0.5088;-3.2955;
2496684384726228;-10.0708;-0.3700;-1.2162;
2496684394833988;-10.2766;0.2171;0.1947;
2496684404943988;-6.8270;-0.6239;-1.6427;
2496684415051749;-8.3530;-0.0320;-6.0694;
2496684425159509;-11.6061;0.0278;-4.6753;
2496684435264822;-11.3426;0.5237;-1.5541;
2496684445372582;-7.0738;-0.4561;-1.6187;
2496684455480343;-6.4391;-0.2572;-4.4501;
2496684465593988;-12.6099;0.5644;-4.7569;
2496684475701749;-14.6797;0.9523;0.4702;
2496684485809509;-10.0179;0.3823;2.8944;
2496684495903572;-5.1718;0.4974;-1.4007;
2496684506011332;-3.4878;0.3846;-5.7748;
2496684516119093;-9.0550;1.0723;-8.0459;
2496684526263363;-14.2699;0.7681;-6.1104;
2496684536371124;-12.6099;1.5514;0.1445;
2496684546478884;-8.5543;0.8566;2.3195;
2496684556555343;-7.5673;0.5740;-1.7527;
2496684566663103;-10.1402;1.1177;-4.5461;
2496684576770916;-10.2287;1.6950;-3.6165;
2496684586876280;-7.3612;1.5224;-2.8570;
2496684596984041;-7.4836;1.3430;-6.0287;
2496684607091801;-10.6983;0.9236;-3.4274;
2496684617212738;-12.1857;1.0795;0.0676;
2496684627320499;-8.0489;0.2841;1.5745;
2496684637428259;-4.4219;0.0206;-4.3400;
2496684647524145;-8.4081;0.6936;-7.9573;
2496684657631905;-12.4854;0.9260;-5.6575;
2496684667739666;-13.7907;0.5429;-0.5503;
2496684677868780;-10.2981;0.2602;0.8824;
2496684687976541;-7.2942;-0.0224;1.1480;
2496684698084301;-5.1766;-0.3532;-2.3447;
2496684708188051;-9.9724;-0.0826;-6.9081;
2496684718295811;-11.0934;0.3655;-4.6848;
2496684728403572;-10.7151;-0.2261;-1.1731;
2496684738519770;-11.8337;-0.6574;-0.1430;
2496684748627530;-9.3855;-0.9162;-0.1119;
2496684758735291;-8.7485;-0.4920;-1.4749;
2496684768829822;-7.6848;-0.9066;-1.6187;
2496684778937582;-9.3114;-0.2620;-4.9866;
2496684789045343;-6.8414;-0.2261;-6.2444;
2496684799151697;-11.1488;-0.0392;-5.2286;
2496684809259509;-14.2268;-0.7627;-0.3610;
2496684819367322;-9.4956;-0.9975;2.7123;
2496684829468363;-4.6065;-1.6705;-1.7985;
2496684839576176;-7.9675;-0.5016;-7.6768;
2496684849683936;-12.6386;-0.2620;-7.3104;
2496684859788780;-12.2243;-0.0730;0.2617;
2496684869896593;-9.2106;-0.4609;0.7552;
2496684880004405;-5.9288;-0.2644;-1.2858;
2496684890118155;-7.4381;-1.2467;-5.4634;
2496684900225968;-11.3665;-0.5160;-4.6442;
2496684910333780;-9.2393;-1.1100;-1.2930;
2496684920442374;-10.9475;-0.1448;-3.3577;
2496684930550186;-10.7055;-0.9209;-1.9229;
2496684940657999;-11.8074;0.5189;-1.5709;
2496684950767113;-9.6084;-0.3147;1.1169;
2496684960874926;-8.5950;0.1140;-0.5073;
2496684970982738;-6.7002;-0.3508;-4.8694;
2496684981093363;-7.4596;0.4397;-6.9200;
2496684991201176;-12.1307;0.2650;-4.0525;
2496685001308988;-11.3258;0.6386;0.2665;
2496685011411957;-7.8404;-0.2907;-0.8737;
2496685021519770;-7.1145;0.3392;-4.1794;
2496685031627530;-10.7629;0.9021;-5.3079;
2496685041733363;-12.5596;0.7008;-2.6010;
2496685051841176;-9.4932;1.1512;-0.4881;
2496685061948936;-7.5242;1.1393;-2.3853;
2496685072057738;-5.3922;1.2063;-4.6131;
2496685082165551;-10.4181;0.7271;-5.8780;
2496685092273363;-12.3248;1.0244;-1.9588;
2496685102392166;-9.9221;0.9523;0.5659;
2496685112499978;-8.9231;0.5213;-1.3600;
2496685122607791;-12.9380;1.2326;-3.2405;
2496685132695134;-11.7595;1.1106;-0.3491;
2496685142802947;-7.4955;1.2951;0.6428;
2496685152910759;-4.8891;0.4110;-4.8742;
2496685163016905;-4.5945;1.0651;-8.1703;
2496685173124718;-10.1043;1.1417;-7.6696;
2496685183232478;-14.9336;1.4124;0.1253;
2496685193350447;-9.4238;0.8351;1.8236;
2496685203458259;-7.3588;0.9308;-1.3313;
2496685213566072;-7.5338;0.0924;-4.8574;
2496685223657322;-11.2780;1.4171;-5.0563;
2496685233765134;-9.7328;0.5405;-3.8393;
2496685243872947;-10.1426;1.6376;-1.8942;
2496685253994405;-8.3124;0.5668;-1.7408;
2496685264102218;-8.9686;0.6242;-0.6485;
2496685274210030;-9.7304;-0.6885;-0.5551;
2496685284317113;-10.3846;0.3129;-1.5972;
2496685294424926;-9.1412;-0.8082;-3.0464;
2496685304532738;-9.6108;0.1570;-3.5782;
2496685314637530;-12.2961;-0.0176;-3.8321;
2496685324745343;-11.4000;0.4950;0.3577;
2496685334853155;-9.1077;-0.0296;0.9254;
2496685344970447;-8.1999;-0.1017;-2.5504;
2496685355078259;-4.9899;-0.3266;-5.3916;
2496685365186020;-11.4147;0.3966;-5.7796;
2496685375285655;-12.1786;-0.2740;-1.6068;
2496685385393468;-9.4119;0.1044;-1.2619;
2496685395501228;-7.7447;-0.3867;-3.4896;
2496685405605291;-9.8145;0.4062;-3.9975;
2496685415713103;-10.1498;0.3033;-1.9086;
2496685425820863;-9.7567;0.1116;-2.3973;
2496685435932530;-8.8059;0.2746;-3.5327;
2496685446040343;-6.3215;0.4493;-4.2562;
2496685456148155;-8.6788;0.2339;-4.1746;
2496685466390916;-9.7496;-0.1376;-3.1591;
2496685476498676;-10.6576;0.1857;-2.2678;
2496685486606488;-10.9355;0.1762;-0.6987;
2496685496591384;-11.8098;0.3918;-1.8823;
2496685506699197;-13.0436;0.6027;-1.0558;
2496685516806957;-6.7576;0.0709;2.0919;
2496685526945655;-4.7504;0.1834;-3.5734;
2496685537053468;-3.7226;0.4759;-8.9752;
2496685547161280;-8.4248;0.4950;-8.4027;
2496685557234301;-12.5022;0.7777;-2.5911;
2496685567342113;-10.5592;1.4004;1.2320;
2496685577449926;-7.6439;0.1403;-0.1860;
2496685587568988;-9.3760;0.4902;-4.0789;
2496685597676801;-12.4732;0.9930;-4.9220;
2496685607784613;-10.4659;1.6711;-0.1573;
2496685617888051;-11.5199;1.5176;-1.6164;
2496685627995863;-12.2530;1.0244;-1.2042;
2496685638103676;-6.8318;1.1680;1.2679;
2496685648212999;-6.0942;0.4349;-0.2916;
2496685658320811;-10.0011;-0.2405;-5.0252;
2496685668428624;-12.1905;0.6912;-2.4811;
2496685678533884;-9.2297;0.0494;-1.1204;
2496685688641697;-10.7629;0.9404;-3.4035;
2496685698749509;-8.4153;-0.3027;-3.7986;
2496685708846280;-9.3784;0.9428;-3.4155;
2496685718954093;-7.3229;0.3823;-3.9473;
2496685729061905;-7.3277;0.9380;-7.0588;
2496685739169613;-10.7438;0.1977;-7.1859;
2496685749277426;-11.4099;0.8830;-0.2438;
2496685759385238;-8.3459;0.0613;0.5085;
2496685769490134;-8.6907;0.0900;-2.2822;
2496685779597947;-9.1962;-0.5375;-4.1530;
2496685789705759;-11.1679;1.0053;-2.9124;
2496685799814718;-8.5041;-0.2812;-0.8186;
2496685809922478;-9.3114;0.1427;-2.0569;
2496685820030186;-7.9747;-0.3314;-4.0167;
2496685830142634;-8.4778;0.2001;-2.6249;
2496685840250395;-10.6983;-0.3242;-1.7551;
2496685850358103;-11.9536;-0.2118;-1.8224;
2496685860463988;-9.0526;-0.3437;-0.2605;
2496685870571749;-8.2023;0.0350;-3.1854;
2496685880679457;-11.1512;0.0685;-2.2343;
2496685890809822;-8.3961;-0.1735;-0.6317;
2496685900917582;-8.1111;0.3464;-3.1567;
2496685911025291;-9.1196;0.5285;-4.4309;
2496685921113884;-7.7758;0.4636;-3.3051;
2496685931221645;-8.0752;-0.5375;-3.9087;
2496685941329353;-10.6935;-0.1256;-3.9808;
2496685951430551;-10.7438;-0.1567;-2.1673;
2496685961538259;-9.0431;0.2674;-2.1410;
2496685971646020;-9.1292;0.0685;-2.8044;
2496685981770707;-11.0791;0.1570;-1.6690;
2496685991878468;-11.9489;0.3105;-0.3227;
2496686001986176;-8.9136;-0.2500;0.0846;
2496686012079301;-4.3813;0.0326;-3.5925;
2496686022187009;-8.4583;-0.0129;-6.6350;
2496686032294770;-12.2578;-0.1424;-3.5638;
2496686042396905;-11.3234;-0.2237;0.5348;
2496686052504613;-7.9193;-0.1591;-1.9899;
2496686062612374;-9.8360;-0.4394;-3.8417;
2496686072723884;-11.3665;0.6769;-0.3562;
2496686082831593;-9.4932;-0.1472;0.3239;
2496686092939353;-6.5133;0.3033;-3.8728;
2496686103061801;-8.3243;0.8614;-8.1368;
2496686113169561;-8.7341;0.7175;-2.9770;
2496686123277270;-10.5975;0.3942;-1.7192;
2496686133371072;-11.6877;0.3153;-1.8009;
2496686143478780;-7.3301;0.2291;-1.8033;
2496686153586541;-7.5721;0.8901;-4.1578;
2496686163695030;-9.2584;0.7848;-2.9674;
2496686173802791;-11.4123;0.6769;-2.7015;
2496686183910499;-10.8924;0.8327;-2.3157;
2496686194013311;-9.6227;1.2975;-1.4605;
2496686204121020;-6.6978;0.4373;-1.4318;
2496686214228780;-10.6193;-0.1735;-2.2582;
2496686224341488;-11.5534;-0.1974;-2.6441;
2496686234449249;-9.2970;0.6194;-1.6044;
2496686244556957;-6.1564;0.4086;-4.1602;
2496686254667530;-7.9555;1.0819;-4.5197;
2496686264775291;-11.1174;0.3751;-2.1912;
2496686274882999;-12.5118;0.0565;0.3649;
2496686284979822;-8.1709;-0.6766;-1.4701;
2496686295087582;-6.7385;-0.0655;-4.0143;
2496686305195291;-7.4572;-0.1232;-4.3472;
2496686315303207;-12.9763;0.5309;-4.2227;
2496686325410968;-11.5176;0.3153;-2.8522;
2496686335518676;-8.7556;0.7247;-2.0931;
2496686345633572;-8.0704;-0.0754;-2.3085;
2496686355741280;-11.3450;-0.0921;1.3397;
2496686365849041;-8.8872;-1.2084;-0.0855;
2496686375953676;-9.5342;-0.1137;-3.2285;
2496686386061436;-7.9675;0.4014;-5.7006;
2496686396169145;-5.9958;0.6170;-3.6957;
2496686406332947;-9.7161;-0.8130;-6.3835;
2496686416440707;-12.1786;-0.5877;-2.8211;
2496686426548416;-11.8840;-0.6957;-1.5251;
2496686436597113;-9.6706;-0.2955;0.7528;
2496686446704822;-7.5553;-0.5112;-0.5312;
2496686456812582;-10.0442;-0.4825;-2.9411;
2496686466978363;-11.0671;0.0996;-2.5600;
2496686477086124;-9.4430;0.2602;-1.7121;
2496686487193832;-6.3625;-0.2764;-2.9889;
2496686497263259;-9.8958;-0.7005;-4.0454;
2496686507371020;-11.9800;-0.4872;-1.9540;
2496686517478728;-10.3511;-0.9281;-0.2964;
2496686527590551;-9.2632;-0.6790;-2.7637;
2496686537698311;-10.9403;-0.3700;-2.9818;
2496686547806020;-12.6099;-0.1567;-1.1994;
2496686557912426;-7.0187;-0.4035;-0.0568;
2496686568020186;-7.0810;-0.2118;-5.2792;
2496686578127895;-7.3181;-0.3003;-5.5089;
2496686588218780;-9.0622;0.0039;-4.4022;
2496686598326488;-13.2087;0.0087;-3.2189;
2496686608434249;-11.4194;-0.0730;-1.2667;
2496686618531905;-9.3138;-0.0631;-1.6235;
2496686628639613;-6.3769;-0.5949;-1.8966;
2496686638747374;-10.1904;-0.3218;-3.3817;
2496686648886280;-11.6133;0.4831;-3.8393;
2496686658994041;-10.8876;1.5395;-2.9985;
2496686669101749;-5.6246;0.6840;-1.7001;
2496686679193572;-6.0559;0.4854;-3.6165;
2496686689301332;-10.9475;0.1451;-4.6011;
2496686699409041;-11.0240;1.1895;-2.1242;
2496686709513884;-9.6036;0.8710;-3.4848;
2496686719621645;-9.9054;1.1800;-3.3697;
2496686729729353;-10.1545;0.9141;-1.5972;
2496686739842113;-9.6610;1.1656;-0.0425;
2496686749949874;-8.1637;0.5812;-2.4835;
2496686760057582;-10.3630;1.1273;-4.4982;
2496686770175343;-7.5147;1.0986;-2.7087;
2496686780283051;-10.1402;1.4315;-1.8464;
2496686790390811;-10.7510;0.3942;-2.6154;
2496686800490551;-9.7017;1.1752;-2.8570;
2496686810598363;-5.2798;0.6434;-2.2295;
2496686820706176;-8.0847;1.3430;-4.4022;
2496686830822218;-11.7141;0.8590;-4.8335;
2496686840930030;-12.2073;1.2784;-2.3782;
2496686851037843;-10.6552;1.0627;-0.5599;
2496686861127009;-6.3096;0.5501;-0.8617;
2496686871234822;-8.9662;0.1283;-4.3735;
2496686881342634;-9.5868;0.9643;-4.2706;
2496686891448155;-10.6313;0.8327;-3.5495;
2496686901555968;-12.8040;0.5931;-0.7253;
2496686911663780;-8.6716;0.1187;1.6343;
2496686921768572;-8.3100;0.3751;-0.3730;
2496686931876384;-10.8515;0.4253;-1.5302;
2496686941984197;-9.5219;0.1834;-2.6536;
2496686952096384;-5.3587;0.2578;-4.9507;
2496686962204197;-8.6740;0.4110;-7.1548;
2496686972312009;-12.4831;0.3775;-4.3232;
2496686982448155;-9.5868;0.7585;-2.0617;
2496686992555968;-7.8811;-0.3724;-0.9598;
2496687002663780;-10.7390;-0.2955;-0.7875;
2496687012740447;-14.1550;-0.0559;-0.9455;
2496687022848259;-7.5242;-0.4537;0.0942;
2496687032956072;-6.2952;-0.2596;-4.0765;
2496687043067113;-11.8098;0.4110;-6.0598;
2496687053174926;-8.6716;-0.1184;-1.5565;
2496687063282738;-8.3435;-0.9879;-2.5313;
2496687073389613;-9.3329;-0.3891;-4.1195;
2496687083497426;-11.4434;-0.0993;-2.4380;
2496687093605238;-10.0035;-1.0813;1.2703;
2496687103741384;-7.7064;-0.3508;-1.1827;
2496687113849249;-6.8943;-0.4250;-6.9272;
2496687123957009;-11.8911;0.7633;-5.9856;
2496687134034613;-11.6731;-0.6263;0.1756;
2496687144142426;-7.4572;0.0470;-1.0869;
2496687154250238;-10.1952;-0.6191;-4.4644;
2496687164360030;-13.1776;0.6505;-1.4677;
2496687174467843;-9.8169;-0.6215;-0.0903;
2496687184575655;-6.2258;0.1834;-1.3385;
2496687194691697;-6.7983;-0.3266;-4.2514;
2496687204799509;-11.6037;1.1824;-4.6848;
2496687214907322;-10.0780;-0.4226;-2.4930;
2496687225010863;-8.9231;0.7442;-1.4246;
2496687235118676;-4.9777;-0.2548;-2.9865;
2496687245226488;-9.3305;0.5572;-6.7738;
2496687255329457;-14.8161;0.0948;-4.3711;
2496687265437270;-10.6505;1.1632;-1.2018;
2496687275545082;-7.2057;0.5931;-1.5876;
2496687285656384;-8.1589;0.7777;-1.4629;
2496687295764197;-10.1019;0.6817;-2.0692;
2496687305872009;-9.8025;0.6769;-1.5084;
2496687315989770;-10.1091;1.0002;-1.5541;
2496687326097582;-8.6477;0.4783;-1.5227;
2496687336205447;-6.1995;-0.0296;-3.4825;
2496687346329301;-9.9963;0.2818;-4.6202;
2496687356437113;-12.5668;0.7418;-4.4333;
2496687366544926;-12.7992;1.0125;-1.6594;
2496687376627218;-7.8236;0.0972;0.7265;
2496687386735030;-8.3842;1.0077;-1.9277;
2496687396842843;-8.1302;0.4998;-2.3157;
2496687406940603;-9.6467;1.1034;-3.6356;
2496687417048416;-10.7414;0.4831;-2.6680;
2496687427156228;-4.6041;0.7633;-3.5112;
2496687437257738;-6.7050;0.2985;-5.9785;
2496687447365551;-14.8639;0.4612;-4.8263;
2496687457473363;-15.0078;0.2171;0.2809;
2496687467604353;-6.0532;0.6434;2.0871;
2496687477712166;-4.6424;-0.2477;-3.6619;
2496687487819978;-10.4252;0.8327;-6.5342;
2496687497935238;-13.4650;0.6793;-2.6034;
2496687508043051;-9.5195;0.5907;1.2105;
2496687518150863;-4.0268;-0.1113;-1.7623;
2496687528259301;-8.3195;0.2602;-6.5151;
2496687538367113;-13.1297;-0.4729;-2.7015;
2496687548474926;-11.1293;0.3799;-0.4570;
2496687558560863;-6.4917;-0.1783;-1.9588;
2496687568668676;-7.5697;0.1475;-5.2071;
2496687578776488;-12.3679;0.2722;-3.2692;
2496687588889613;-11.0719;0.3894;0.4798;
2496687598997426;-7.9217;0.1044;-0.4810;
2496687609105238;-6.6811;0.0852;-3.8345;
2496687619217947;-6.4822;-0.3820;-4.4934;
2496687629325759;-11.2804;0.4878;-4.3400;
2496687639433572;-13.4913;0.2195;-2.0139;
2496687649537947;-9.9915;-0.0655;0.0197;
2496687659645759;-8.3865;-0.3389;-1.3098;
2496687669753572;-12.1570;-0.1376;-0.6413;
2496687679861957;-7.9193;-0.9257;-0.0855;
2496687689969770;-8.2813;0.6314;-4.2323;
2496687700077582;-10.4707;0.1834;-5.1066;
2496687710162270;-7.8715;0.6721;-2.9722;
2496687720269978;-7.4477;-0.4896;-3.0775;
2496687730377843;-13.2470;-0.2477;-3.4226;
2496687740485655;-11.2205;-0.6191;-1.2305;
2496687750617374;-6.9589;0.3129;-0.0449;
2496687760725186;-8.2980;-0.5782;-3.0057;
2496687770832999;-11.3282;0.6793;-5.3246;
2496687780921697;-11.1799;0.3416;-4.1794;
2496687791029509;-9.0981;0.6769;0.2641;
2496687801137322;-5.3707;-0.4418;-1.9828;
2496687811258780;-6.9805;0.3607;-5.8205;
2496687821366593;-12.1618;-0.0009;-5.5546;
2496687831474353;-15.3000;0.1762;-0.4280;
2496687841587218;-12.4277;-0.1328;2.1948;
2496687851695030;-5.2630;-0.7005;1.3756;
2496687861802791;-3.3703;-0.8273;-5.3055;
2496687871907791;-7.9484;1.7357;-9.0544;
2496687882015603;-11.2971;1.2278;-4.3328;
2496687892123363;-10.4252;0.1140;-1.4581;
2496687902218988;-7.7518;-0.0081;-2.6201;
2496687912326801;-13.2159;0.1068;-1.7456;
2496687922434561;-12.5333;-0.4418;1.5194;
2496687932558155;-4.7527;-1.5963;0.8270;
2496687942665968;-6.6141;-0.5853;-7.0445;
2496687952773728;-12.0876;1.6735;-7.7704;
2496687962885238;-11.6707;1.6615;-1.4605;
2496687972993051;-10.0609;0.6793;2.2980;
2496687983100811;-9.1196;-0.1807;-0.1741;
2496687993205447;-5.0856;-0.9473;-1.5517;
2496688003313259;-6.9326;-0.6096;-5.3151;
2496688013421020;-13.1800;0.5859;-7.0971;
2496688023538780;-13.2855;0.8997;-3.6814;
2496688033646593;-12.2913;0.3344;1.1818;
2496688043754353;-8.8968;0.2339;1.7758;
2496688053846384;-7.1507;0.4926;-2.5600;
2496688063954197;-9.0909;0.0852;-2.9243;
2496688074061957;-9.8097;0.4564;-1.8846;
2496688084174301;-8.4754;0.4878;-3.8967;
2496688094282113;-7.6271;0.2674;-6.0120;
2496688104389874;-11.6157;0.1092;-4.8383;
2496688114514301;-12.8614;0.0087;0.1373;
2496688124622113;-8.6189;-0.4968;1.3062;
2496688134729874;-7.7614;0.4445;-3.2477;
2496688144815291;-9.4837;0.8686;-5.8059;
2496688154923103;-9.0072;0.8423;-4.0071;
2496688165030863;-9.4047;0.7104;-1.2858;
2496688175137947;-10.9355;0.0733;-2.2917;
2496688185245759;-7.6415;0.2001;-2.0234;
2496688195353520;-9.6778;0.1427;-3.5183;
2496688205487738;-12.4612;0.3440;-1.8990;
2496688215595551;-10.9594;-0.7149;0.8677;
2496688225703311;-7.2559;0.0709;-2.2032;
2496688235780030;-10.1354;0.7825;-3.9350;
2496688245887843;-13.7477;0.5381;-2.8211;
2496688255995603;-11.1751;0.2650;1.4548;
2496688266111124;-4.7216;-0.1519;-0.9239;
2496688276218884;-6.1588;0.2148;-5.7030;
2496688286326645;-9.0981;0.2674;-7.1043;
2496688296441176;-10.0226;-0.3075;-4.1722;
2496688306548988;-8.4969;-0.3556;-3.0344;
2496688316656749;-9.5510;0.2722;-3.2429;
2496688326759197;-9.0048;-0.3099;-2.7637;
2496688336867009;-11.3234;0.3488;-1.3409;
2496688346974770;-9.7041;-0.5016;-2.4069;
2496688357067009;-12.1929;0.8877;-2.6824;
2496688367174822;-10.4085;0.1187;-0.3921;
2496688377282582;-6.3721;0.3009;-0.0305;
2496688387392218;-10.2598;-0.1424;-5.4562;
2496688397500030;-11.7763;0.4783;-0.3227;
2496688407607791;-7.3612;-0.2429;1.9457;
2496688417747634;-8.7700;-0.3389;-1.9158;
2496688427855447;-10.9929;-0.0057;-5.0180;
2496688437963207;-10.6768;0.3655;-1.8057;
2496688448062166;-7.2512;0.1570;-2.5792;
2496688458169978;-10.2263;0.5835;-5.0898;
2496688468277738;-8.9303;0.8590;-5.0635;
2496688478403259;-10.7462;1.1034;-4.9795;
2496688488511072;-8.2334;1.1632;-2.9985;
2496688498618832;-7.3158;0.4086;-1.3313;
2496688508692113;-8.6812;0.6123;-2.9243;
2496688518799926;-10.0250;0.5237;-3.0870;
2496688528907686;-12.2554;1.0986;-3.7555;
2496688539028155;-9.4478;0.7729;-0.3108;
2496688549135968;-10.2694;0.5213;-2.5122;
2496688559243728;-7.7758;0.6003;-2.9052;
2496688569349405;-6.3215;1.3502;-5.3127;
2496688579457218;-11.3833;2.1670;-6.0742;
2496688589564978;-12.7825;1.8413;-1.4031;
2496688599659405;-8.8035;-0.3772;1.4524;
2496688609767218;-6.4367;-0.1472;-0.4161;
2496688619874978;-10.1043;-0.0392;-3.1687;
2496688629987530;-9.8360;0.0924;-1.6116;
2496688640095343;-7.5625;-0.4226;-3.5925;
2496688650203103;-8.9279;0.7872;-5.7126;
2496688660311697;-8.1805;0.2578;-5.7700;
2496688670419509;-12.7490;0.0278;-3.2237;
2496688680527270;-12.7944;-2.0994;1.8045;
2496688690629926;-7.3684;-1.0884;2.6237;
2496688700737738;-4.0747;-0.6311;-2.6393;
2496688710845551;-10.4109;0.8806;-5.6504;
2496688720973780;-11.9991;-1.1195;-2.8068;
2496688731081593;-10.1833;-0.4848;-1.2544;
2496688741189353;-9.0861;-1.0095;-2.7446;
2496688751288155;-6.6452;-0.9018;-1.9516;
2496688761395968;-10.8900;-1.0310;-3.7890;
2496688771503728;-14.4233;-1.2467;-1.7384;
2496688781590655;-9.9413;-1.9845;-0.0855;
2496688791698468;-7.7518;-0.6957;-1.8751;
2496688801806228;-6.5276;-0.7196;-3.1038;
2496688811938884;-7.5793;-0.7723;-4.3615;
2496688822046697;-7.4907;-2.5834;-3.8967;
2496688832154509;-11.4673;-1.2227;-4.6155;
2496688842251384;-9.6849;-2.0587;-2.7757;
2496688852359197;-10.0657;-1.0190;-3.4896;
2496688862467009;-13.0866;-1.6513;-1.5805;
2496688872574613;-10.4827;-0.5686;0.0389;
2496688882682426;-6.2952;-0.5542;-1.9062;
2496688892790238;-7.0905;0.2387;-4.8550;
2496688902923832;-13.7166;0.2124;-5.2935;
2496688913031645;-10.7031;-1.0502;0.8919;
2496688923139457;-5.6103;-1.8383;1.9241;
2496688933217530;-8.7242;0.0470;-3.1831;
2496688943325343;-9.4095;-0.1711;-4.5054;
2496688953433155;-10.5305;-0.0873;-4.6370;
2496688963559874;-9.4406;0.0398;-4.0214;
2496688973667686;-9.1077;0.3775;-5.7006;
2496688983775499;-9.5291;-0.0105;-3.9182;
2496688993867374;-9.8408;-0.1998;-2.2439;
2496689003975186;-9.7496;-0.6072;0.7385;
2496689014082999;-7.8643;0.1570;-2.1003;
2496689024191801;-10.1450;0.6960;-2.6991;
2496689034299613;-7.3469;0.8207;-3.7651;
2496689044407426;-9.7783;1.1058;-4.5604;
2496689054516905;-12.4062;0.5213;-3.6667;
2496689064624718;-9.4430;-0.4274;-0.9000;
2496689074732530;-7.2344;0.2171;-2.0716;
2496689084834197;-9.4095;0.4660;-2.8932;
2496689094942009;-9.5629;0.3488;-2.7135;
2496689105049822;-8.0034;-0.3003;-2.5002;
2496689115144197;-10.9403;0.2506;-3.8201;
2496689125252009;-9.8192;-0.4083;-2.0716;
2496689135359822;-8.2860;-0.0344;-3.2572;
2496689145487947;-11.2205;-0.4896;-2.6249;
2496689155595759;-9.5581;-0.4848;-0.8450;
2496689165703572;-7.2775;-0.5925;-1.6475;
2496689175797530;-9.7376;-0.3700;-4.1195;
2496689185905343;-12.5118;-0.3314;-3.2070;
2496689196013155;-9.2803;-0.6766;0.1397;
2496689206127791;-6.6595;-0.5734;-1.1635;
2496689216235603;-7.4812;-0.5183;-3.7316;
2496689226343416;-8.4392;-0.2070;-6.5653;
2496689236445551;-14.0928;-0.2812;-3.0464;
2496689246553363;-12.9308;-0.9233;0.3144;
2496689256661176;-8.8370;-0.6407;0.3697;
2496689266771697;-6.4008;-0.2094;-1.6546;
2496689276879509;-10.2215;0.5907;-2.6465;
2496689286987322;-11.4458;-0.5231;-2.1266;
2496689297117113;-13.0484;0.4038;-1.7025;
2496689307224926;-9.1699;-0.6718;-0.6508;
2496689317332738;-4.7671;0.6697;-2.6034;
2496689327450030;-9.3138;0.2363;-4.2754;
2496689337557843;-11.3880;-0.1591;-2.7039;
2496689347665655;-7.6968;-0.0706;-3.6694;
2496689357747738;-8.3339;0.9332;-5.3175;
2496689367855551;-12.3512;0.5166;-3.9111;
2496689377963363;-12.6888;0.8566;0.3144;
2496689388073884;-8.0034;0.0206;0.6523;
2496689398181697;-9.4143;0.8136;-2.5959;
2496689408289509;-8.2956;0.6864;-4.5748;
2496689418411697;-6.8342;1.8532;-5.0444;
2496689428519509;-7.4285;1.0914;-3.6165;
2496689438627322;-16.3325;0.5692;-2.4476;
2496689448708155;-13.4794;-0.1280;2.6548;
2496689458815968;-5.2534;0.3679;1.0331;
2496689468923780;-6.3936;0.5022;-3.7412;
2496689479042947;-10.3846;0.8279;-5.6025;
2496689489150759;-12.8184;0.9428;-4.0813;
2496689499258572;-10.0875;0.5620;-3.3553;
2496689509374301;-8.1685;0.8183;-3.9544;
2496689519482113;-9.3209;0.2578;-1.3696;
2496689529589926;-9.3449;-0.7172;1.1312;
2496689539685863;-6.4487;-0.5830;-1.3146;
2496689549793676;-8.5376;0.8806;-8.6160;
2496689559901488;-13.6615;1.4148;-6.0311;
2496689570016801;-8.7317;-0.3485;0.6114;
2496689580124613;-8.6333;0.1905;-2.1123;
2496689590232426;-10.1234;-0.1089;-2.6752;
2496689600338572;-9.1938;0.2602;-2.9626;
2496689610446384;-9.9509;0.5429;-2.7494;
2496689620554197;-11.1703;0.1307;-2.8789;
2496689630661176;-8.0991;-0.0969;-0.5192;
2496689640768988;-6.8608;-0.1376;-2.6776;
2496689650876801;-9.2898;-0.2572;-2.9865;
2496689660992322;-10.7510;-0.1543;-2.8355;
2496689671100134;-10.7222;-0.6215;-2.6943;
2496689681207947;-9.3736;-0.3075;-1.8129;
2496689691310447;-8.1541;-0.3891;-4.2009;
2496689701418259;-8.5424;0.1666;-4.2945;
2496689711526124;-9.6802;-0.0176;-2.4523;
2496689721637634;-9.9174;-0.2620;-3.0033;
2496689731745447;-9.0718;-0.3963;-2.3252;
2496689741853259;-9.4789;-0.4178;-2.1697;
2496689751960759;-11.2469;-0.5782;-0.8306;
2496689762068572;-9.9748;-0.8850;-0.5527;
2496689772176384;-8.1975;-0.5662;-2.3252;
2496689782282218;-9.8408;0.3200;-5.3438;
2496689792390030;-7.7638;1.0531;-5.0731;
2496689802497843;-9.8049;0.6697;-3.3242;
2496689812605030;-9.7615;-0.2070;-2.3758;
2496689822712843;-9.0790;-0.2166;-2.2295;
2496689832820603;-8.6189;0.1331;-2.6656;
2496689842922791;-12.0039;0.5931;-1.0463;
2496689853030603;-11.1488;-0.0682;-2.0330;
2496689863138363;-9.7065;0.2865;-2.6991;
2496689873243259;-5.9288;0.3129;-4.3113;
2496689883351072;-6.3482;1.4195;-5.5546;
2496689893458884;-11.1990;0.3488;-4.6466;
2496689903603363;-13.9322;0.1403;-0.7445;
2496689913711176;-9.3544;-0.2405;0.8677;
2496689923818988;-7.5123;0.7175;0.0652;
2496689933891124;-7.0929;-0.3123;-3.2046;
2496689943998936;-10.6744;0.7609;-4.8598;
2496689954106697;-10.7749;0.1953;-4.6059;
2496689964222738;-11.2899;1.3502;-3.1376;
2496689974330551;-8.5543;0.3081;-2.1840;
2496689984438363;-6.2856;0.5046;-0.1382;
2496689994543468;-8.8609;-0.1807;-1.7623;
2496690004651280;-12.4831;0.6003;-2.5887;
2496690014759093;-9.9174;-0.2716;-2.6369;
2496690024862322;-10.1354;0.5692;-2.2869;
2496690034970134;-9.8384;0.0015;-1.0582;
2496690045077895;-10.3292;0.0972;-0.3754;
2496690055188363;-9.1819;-0.1831;-1.8009;
2496690065296176;-9.9939;0.5931;-3.7077;
2496690075403936;-7.3062;0.5357;-2.8044;
2496690085502322;-7.8523;0.2841;-2.6369;
2496690095610134;-8.4873;-0.0849;-3.2189;
2496690105717947;-10.1163;0.1762;-3.3817;
2496690115829405;-10.7821;0.1786;-1.7169;
2496690125937218;-11.0360;0.3751;-1.1779;
2496690136045030;-10.0202;-0.0464;-2.2319;
2496690146163884;-9.2201;0.4564;-2.7924;
2496690156271697;-10.1067;0.6960;-3.3194;
2496690166379509;-7.5123;0.6601;-2.0764;
2496690176472374;-8.8801;0.2841;-1.9181;
2496690186580186;-12.1187;-0.0129;-2.5217;
2496690196687947;-8.6979;0.2530;0.6284;
2496690206808988;-6.5252;0.1762;-1.0606;
2496690216916801;-8.8322;0.1977;-2.5911;
2496690227024613;-13.9825;0.3799;-5.0587;
2496690237135499;-11.4506;0.2076;-2.4858;
2496690247243311;-7.1985;1.0002;-3.4801;
2496690257351124;-5.7778;0.7319;-3.3888;
2496690267425759;-6.9565;1.4698;-4.0932;
2496690277533572;-12.8830;0.6194;-2.7565;
2496690287641332;-11.8935;1.1417;-1.8392;
2496690297761697;-8.7796;1.2015;0.0293;
2496690307869509;-7.5864;0.5716;-1.2906;
2496690317977270;-10.0490;0.7848;-2.2199;
2496690328108259;-10.7868;0.7585;-3.5423;
2496690338216072;-10.6720;1.5296;-3.9760;
2496690348323884;-9.1747;1.8221;-4.2132;
2496690358413259;-6.5563;1.5802;-0.8306;
2496690368521072;-7.6391;0.6769;-2.6752;
2496690378628832;-12.2794;1.5778;-2.9004;
2496690388737947;-8.6907;1.2302;-2.1745;
2496690398845759;-10.4683;1.6759;-1.9110;
2496690408953572;-9.3808;0.5285;-2.3252;
2496690419068988;-11.6683;1.3908;-2.5170;
2496690429176801;-7.7327;0.8758;-2.3901;
2496690439284561;-9.8456;1.5562;-3.3242;
2496690449422530;-9.1866;0.9069;-3.2309;
2496690459530343;-6.6093;0.9069;-1.7360;
2496690469638155;-10.2383;0.2626;-2.5385;
2496690479714874;-12.1499;0.4301;-2.3901;
2496690489822686;-8.7724;-0.2333;-1.0152;
2496690499930499;-6.5539;-0.0535;-2.0402;
2496690510051541;-9.8336;-0.7603;-5.5546;
2496690520159353;-13.9418;0.0087;-3.8728;
2496690530267166;-12.2650;-0.2381;-1.2595;
2496690540360759;-9.3401;-0.0081;-0.7708;
2496690550468572;-4.9561;-0.6072;-1.0917;
2496690560576384;-8.0919;-0.8249;-4.1124;
2496690570686905;-11.6468;-0.9449;-3.0464;
2496690580794718;-10.2550;-0.9138;-2.8765;
2496690590902530;-5.5887;-1.5389;-2.9387;
2496690601010343;-7.6487;-1.2443;-4.5365;
2496690611118155;-13.2757;-1.5987;-3.7268;
2496690621225968;-11.8600;-0.8154;-1.2473;
2496690631335759;-11.7356;-1.0095;-2.1290;
2496690641443572;-7.9316;-0.4274;-2.5528;
2496690651551332;-4.9466;-0.6072;-2.0186;
2496690661652322;-10.7701;-0.5853;-4.8287;
2496690671760134;-13.6735;-0.1687;-2.5863;
2496690681867895;-10.2598;0.2841;-0.0162;
2496690691976072;-7.7949;-0.1448;0.1181;
2496690702083884;-7.2751;-1.3041;-1.4677;
2496690712191697;-6.9182;-0.5734;-3.4681;
2496690722305551;-10.2311;0.5357;-6.5510;
2496690732413363;-11.8289;1.0627;-5.1975;
2496690742521176;-7.2248;2.0952;-2.9243;
2496690752629613;-9.5124;1.9777;-2.9746;
2496690762737426;-11.2469;1.8245;-2.2223;
2496690772845238;-9.5916;2.2723;-1.5156;
2496690782934822;-6.2641;2.2268;-1.1420;
2496690793042634;-10.2072;1.8796;-4.4118;
2496690803150447;-12.7466;1.7237;-2.7733;
2496690813274509;-8.9231;2.9216;-0.1813;
2496690823382322;-9.0933;2.0809;-0.5743;
2496690833490082;-7.6128;2.3827;-1.7862;
2496690843591072;-9.4884;2.2077;-3.2740;
2496690853698884;-12.4086;2.0040;-4.9340;
2496690863806645;-10.0995;2.4209;-2.5409;
2496690873914405;-5.9240;2.1144;-1.5876;
2496690884022218;-8.2430;1.3143;-3.4585;
2496690894129978;-13.4483;1.1441;-2.9865;
2496690904241697;-10.2311;1.3789;-1.4533;
2496690914349509;-8.7171;1.9107;-2.1960;
2496690924457270;-6.1038;0.8399;-1.4366;
2496690934561176;-5.1503;0.3966;-4.1889;
2496690944668988;-14.6964;1.0292;-5.0468;
2496690954776749;-14.9001;0.7848;-2.1482;
2496690964896697;-7.5123;1.1800;0.4726;
2496690975004509;-3.9431;-0.2931;-2.1314;
2496690985112270;-11.0192;-0.2716;-4.4596;
2496690995202009;-10.2646;-0.8970;-3.1205;
2496691005309822;-12.0541;0.3559;-2.9243;
2496691015417582;-12.4588;-0.8393;-1.1683;
2496691025536697;-6.4463;-0.6957;0.5348;
2496691035644509;-6.4271;-1.3878;-2.0836;
2496691045752270;-11.1559;-1.2969;-4.9340;
2496691055849405;-12.4134;-1.4910;-3.7651;
2496691065957218;-8.2286;-1.5173;-2.0210;
2496691076064978;-6.9350;-2.3653;-3.1376;
2496691086187322;-10.1450;-1.2610;-3.8871;
2496691096295134;-10.8757;-1.6851;-2.5265;
2496691106402895;-11.1583;-0.8584;-1.2930;
2496691116490447;-8.0106;-1.5341;-0.7684;
2496691126598259;-6.8608;-1.3519;-4.2179;
2496691136706020;-10.5233;-1.0932;-4.5317;
2496691146838363;-11.4458;-0.6239;-3.7292;
2496691156946176;-9.6586;-0.4059;-0.0257;
2496691167053936;-8.8657;-1.0621;-1.6235;
2496691177148884;-11.1488;-1.3567;-1.1803;
2496691187256697;-8.6357;-0.5997;-2.1362;
2496691197364457;-9.0191;0.2267;-3.2166;
2496691207479874;-9.9700;0.0087;-2.2439;
2496691217587686;-9.3975;-0.2070;-1.4222;
2496691227695447;-11.5487;0.4445;-3.4585;
2496691237797322;-13.5392;0.9428;-2.9028;
2496691247905134;-4.0268;1.4291;-0.6652;
2496691258012895;-2.9082;1.0053;-3.7460;
2496691268123155;-12.0135;0.2889;-6.7905;
2496691278230968;-15.9156;1.9992;-3.7005;
2496691288338728;-12.3870;2.9408;-0.5121;
2496691298463676;-6.5228;2.9623;0.2952;
2496691308571488;-2.8938;1.2541;-1.0941;
2496691318679249;-7.8356;0.2076;-6.0841;
2496691328765030;-15.0006;1.9418;-6.9081;
2496691338872843;-13.5368;2.6028;-3.1472;
2496691348980603;-6.6547;2.3297;0.6787;
2496691359080551;-4.6304;0.5285;-1.1133;
2496691369188363;-11.3450;1.3454;-2.4260;
2496691379296124;-14.4090;1.8317;-3.6523;
2496691389412947;-12.6769;1.8820;-2.3399;
2496691399520759;-5.8546;1.3908;-1.5060;
2496691409628520;-2.1033;1.0077;-3.6356;
2496691419736280;-6.0679;1.3908;-6.9942;
2496691429844093;-14.1000;1.5562;-7.1330;
2496691439951853;-12.9260;1.6113;-1.2162;
2496691450060238;-9.4262;0.8447;-0.3395;
2496691460168051;-7.2177;0.0206;-1.4294;
2496691470275811;-8.4296;1.1177;-2.9315;
2496691480391124;-12.1259;0.3535;-4.5150;
2496691490498936;-10.5114;1.1034;-2.4571;
2496691500606697;-6.7792;0.5429;-2.0617;
2496691510717738;-6.8438;0.4735;-3.2692;
2496691520825551;-11.2349;0.3248;-2.8475;
2496691530933311;-9.5052;0.4086;-0.4137;
2496691541041124;-6.6595;-0.2883;-0.9837;
2496691551148936;-9.6945;-1.0741;-5.6839;
2496691561256697;-12.9571;-0.7364;-4.1507;
2496691571355655;-11.7858;0.4469;-2.1864;
2496691581463468;-8.1900;0.5118;0.1851;
2496691591571228;-5.8403;-0.1687;-2.3351;
2496691601678988;-6.5157;0.0422;-3.9784;
2496691611786801;-12.3344;0.6075;-4.8215;
2496691621894561;-15.9805;0.6410;-1.3457;
2496691631996697;-9.3855;-0.1759;2.8920;
2496691642104509;-7.3062;-0.5830;-0.0281;
2496691652212270;-5.2678;-1.3974;-3.0655;
2496691662311593;-9.8958;0.5166;-6.7403;
2496691672419405;-12.9667;0.9811;-5.1688;
2496691682527166;-12.4038;0.9715;-0.9120;
2496691692649874;-7.0762;-0.2309;0.0150;
2496691702757686;-4.7094;0.2530;-3.1759;
2496691712865447;-10.1545;0.3894;-5.2959;
2496691722971905;-12.8614;0.3320;-2.9578;
2496691733079718;-12.6601;-0.2189;-1.6594;
2496691743187478;-10.4563;0.0374;-1.2715;
2496691753297738;-7.0331;0.7104;-2.7278;
2496691763405551;-8.1757;0.7343;-3.6547;
2496691773513311;-8.5352;1.0026;-0.8163;
2496691783623155;-8.9207;-0.2907;-2.7278;
2496691793730968;-7.8069;0.4062;-5.3844;
2496691803838728;-10.6792;0.1116;-5.6791;
2496691813945863;-11.4673;0.4711;-1.1372;
2496691824053676;-7.3349;-0.1639;-0.2940;
2496691834161436;-7.7710;0.4854;-4.1937;
2496691844271124;-9.6275;0.3272;-6.3715;
2496691854378936;-13.6280;1.7477;-5.6384;
2496691864486697;-10.7222;0.8638;1.5577;
2496691874589197;-7.9890;0.9763;2.5304;
2496691884697009;-6.4463;0.4181;-1.7791;
2496691894804770;-6.7983;0.7295;-5.3055;
2496691904915707;-11.5893;0.6505;-5.6647;
2496691915023520;-10.5353;0.2674;-1.1539;
2496691925131280;-9.9867;-0.3218;-1.9349;
2496691935235238;-10.7486;0.0446;-1.5733;
2496691945343051;-9.8097;0.1738;-2.1529;
2496691955450811;-9.2731;0.5883;-2.9602;
2496691965569457;-6.6906;0.1092;-1.8559;
2496691975677270;-7.1794;0.2124;-4.1052;
2496691985785030;-8.5161;-0.2046;-5.6647;
2496691995869874;-12.8638;-0.6239;-3.9350;
2496692005977686;-12.2985;-0.6694;1.4716;
2496692016085499;-6.5396;-0.9616;0.7457;
2496692026215863;-7.1842;-0.6670;-4.3950;
2496692036323676;-8.7820;-0.9832;-5.2549;
2496692046431436;-13.6615;-0.2812;-5.6647;
2496692056513468;-13.7883;-0.4944;0.6212;
2496692066621280;-9.1436;-0.2907;3.0045;
2496692076729041;-7.1650;-0.6311;-0.2605;
2496692086858259;-5.3300;-0.8827;-5.0300;
2496692096966072;-7.4859;-0.5997;-6.9368;
2496692107073832;-9.6778;-1.4886;-5.5881;
2496692117162530;-11.4482;-1.1486;-3.8130;
2496692127270343;-10.6528;-1.0525;-0.0305;
2496692137378103;-11.3856;-0.6287;-0.5910;
2496692147496801;-10.5473;-0.6957;-0.9144;
2496692157604613;-8.3195;0.4110;-0.7828;
2496692167712374;-7.7471;-0.3290;-5.3103;
2496692177834093;-6.7433;0.5070;-6.6182;
2496692187941905;-8.4416;-0.3075;-6.3185;
2496692198049666;-12.8471;0.2435;-2.2487;
2496692208159301;-11.2564;-0.1807;2.5472;
2496692218267113;-8.2023;-0.7914;2.2406;
2496692228374874;-7.1363;-1.2610;-3.5016;
2496692238472322;-10.4850;0.6170;-7.4255;
2496692248580134;-9.7543;-0.3891;-3.8656;
2496692258687895;-11.0049;0.7920;-2.0545;
2496692268782947;-8.7628;0.4205;-2.2534;
2496692278890759;-7.5242;0.8614;-3.4250;
2496692288998520;-11.0958;0.2411;-2.8451;
2496692299117634;-10.3678;-0.0392;-0.2988;
2496692309225447;-10.6720;-0.0730;-1.2930;
2496692319333207;-8.1709;0.4038;-2.3638;
2496692329446072;-9.2034;0.6888;-5.3868;
2496692339553884;-9.1531;0.5548;-3.6838;
2496692349661645;-7.7590;0.6960;-1.7216;
2496692359767895;-8.1637;0.5118;-3.1759;
2496692369875707;-9.0814;0.8088;-5.5065;
2496692379983468;-12.6721;0.8375;-3.2213;
2496692390095134;-11.5271;0.0996;-0.4472;
2496692400202947;-8.3650;0.3416;-0.6556;
2496692410310707;-4.4291;0.5835;-3.7244;
2496692420413155;-6.9135;0.7175;-7.7034;
2496692430520968;-12.9691;1.4746;-5.9234;
2496692440628728;-12.1259;1.0555;1.7758;
2496692450748155;-11.1559;0.1499;1.7231;
2496692460855968;-7.7734;0.4711;1.1097;
2496692470963728;-6.5925;0.3918;-4.1459;
2496692481063988;-10.2838;0.1068;-5.3175;
2496692491171801;-11.4266;0.6482;-6.1822;
2496692501279561;-10.1234;1.2326;-2.1218;
2496692511387374;-7.7088;0.6482;-2.4212;
2496692521495186;-11.6061;1.2637;-1.5972;
2496692531602947;-8.6740;-0.5064;1.9481;
2496692541691384;-8.7676;-0.5016;0.4606;
2496692551799197;-10.5329;-0.2644;-4.6059;
2496692561906957;-8.8537;0.5524;-4.9388;
2496692572035968;-8.1206;-0.0583;-5.4467;
2496692582143780;-9.9437;0.1140;-4.2371;
2496692592251541;-9.3568;-0.4561;-3.2501;
2496692602352322;-8.2454;-0.1519;-1.4725;
2496692612460134;-9.4358;-0.5758;-2.7709;
2496692622567895;-12.4445;0.1403;-1.5852;
2496692632678468;-11.0982;-0.6814;0.8533;
2496692642786280;-9.9126;-0.5877;-0.6006;
2496692652894041;-10.5736;-0.3099;-3.1472;
2496692662991280;-8.4754;0.0852;-3.8321;
2496692673099093;-8.4778;-0.4681;-4.0167;
2496692683206853;-11.3569;-0.0969;-4.3376;
2496692693328780;-11.1583;-0.4418;-1.2066;
2496692703436593;-7.6367;-0.8417;-0.6341;
2496692713544353;-8.0178;-0.2740;-2.2845;
2496692723664613;-7.3684;-0.5303;-3.0655;
2496692733772426;-9.3401;0.1857;-4.6466;
2496692743880186;-10.8443;0.5213;-6.0888;
2496692753980707;-8.5711;1.0002;-4.9029;
2496692764088520;-8.2119;0.6123;-4.2586;
2496692774196280;-11.5367;0.2602;-4.7952;
2496692784301697;-10.9068;0.0709;0.5587;
2496692794409509;-6.4630;0.5979;-1.4629;
2496692804517270;-10.2503;1.1417;-3.0464;
2496692814611905;-11.8002;1.0172;-2.0354;
2496692824719718;-10.3798;0.6577;1.3612;
2496692834827478;-8.9064;0.7992;-1.5972;
2496692844940447;-10.0011;1.1943;-2.9291;
2496692855048259;-8.2693;1.0962;-3.8249;
2496692865156020;-9.7041;0.9930;-4.2323;
2496692875267218;-10.8251;1.3286;-4.6178;
2496692885375030;-8.0034;1.7692;-3.0942;
2496692895482791;-7.6128;1.8963;-3.3769;
2496692905583207;-7.6920;1.8628;-2.0115;
2496692915691020;-7.8404;1.4219;-3.2859;
2496692925798780;-10.7270;1.6926;-3.1496;
2496692935906801;-12.2219;1.5176;-2.9578;
2496692946014613;-11.4864;1.7836;-0.9694;
2496692956122374;-8.5280;0.7777;-0.9718;
2496692966235134;-11.2253;0.9308;-3.2716;
2496692976342947;-8.3698;0.3870;-1.5924;
2496692986450707;-6.5157;1.2302;-2.9674;
2496692996552426;-7.5147;0.6051;-3.5877;
2496693006660186;-10.1282;0.3823;-2.6489;
2496693016767999;-9.7400;-0.7555;-0.5216;
2496693026915343;-9.9269;-1.4599;-0.8450;
2496693037023155;-8.7915;-0.8874;-3.2955;
2496693047130916;-4.7094;-0.8584;-4.3902;
2496693057184926;-10.0971;-0.4394;-8.9393;
2496693067292686;-15.7552;-0.0440;-5.8421;
2496693077400499;-11.6587;0.3870;-0.3132;
2496693087545030;-8.3483;0.1403;0.7169;
2496693097652843;-6.9948;-0.8082;1.6944;
2496693107760603;-7.5003;-1.7234;-0.2294;
2496693117849301;-8.5496;-0.6239;-3.1687;
2496693127957113;-10.9834;-0.1352;-5.9545;
2496693138064874;-8.2765;-0.1328;-4.3735;
2496693148167634;-7.6944;-1.8335;-4.6226;
2496693158275447;-12.1331;-1.4527;-3.6885;
2496693168383207;-11.5104;-1.4743;-1.9086;
2496693178515759;-14.5262;-0.8827;-1.4844;
2496693188623572;-13.6543;-0.4226;0.5683;
2496693198731332;-10.4013;0.1140;2.4993;
2496693208815134;-5.6055;-0.0392;-1.3169;
2496693218922947;-7.2416;0.0398;-4.4094;
2496693229030707;-10.4133;0.4660;-4.7426;
2496693239161176;-6.8656;-0.0706;-2.9028;
2496693249268988;-7.5482;-0.5303;-6.7331;
2496693259376749;-7.3205;-0.8898;-5.9928;
2496693269477738;-6.9781;-0.4083;-5.5570;
2496693279585551;-8.9399;-0.3147;-5.7245;
2496693289693311;-12.1714;0.1594;-4.2491;
2496693299772218;-10.4228;0.7223;-3.7244;
2496693309880030;-7.2799;0.8303;-3.2548;
2496693319987791;-9.2273;1.6256;-2.2798;
2496693330124301;-8.5424;1.3262;0.4367;
2496693340232113;-10.6576;0.8614;-1.2281;
2496693350339874;-17.1350;0.6242;-0.3993;
2496693360408363;-12.9763;0.4759;3.9652;
2496693370516124;-6.6476;-0.3290;2.3387;
2496693380623936;-4.5802;-0.2812;-1.4127;
2496693390757843;-6.5276;-0.6909;-5.4132;
2496693400865655;-9.3520;0.6984;-6.9488;
2496693410973416;-11.7739;1.3813;-5.4012;
2496693421087634;-10.2646;1.4411;-1.3385;
2496693431195447;-4.8604;0.1307;-0.6700;
2496693441303207;-8.7075;0.7370;-4.3591;
2496693451419509;-12.5979;1.2517;-5.5929;
2496693461527322;-12.0398;2.3082;-5.9043;
2496693471635082;-8.0106;2.2747;-4.5748;
2496693481732738;-7.4213;2.7467;-1.8727;
2496693491840551;-9.5892;1.7740;-0.5168;
2496693501948311;-10.4204;1.0002;0.1708;
2496693512055968;-9.9652;0.2578;-0.5408;
2496693522163780;-6.0583;0.3966;-2.6465;
2496693532271541;-8.3507;1.1201;-6.7068;
2496693542392009;-12.8351;1.0101;-5.0396;
2496693552499822;-10.7916;0.6793;-2.4811;
2496693562607582;-5.6079;0.9165;-3.3817;
2496693572706072;-11.0025;1.2230;-3.5375;
2496693582813832;-13.1273;1.0268;0.3072;
2496693592921645;-6.1540;0.7032;0.3649;
2496693603019926;-7.1435;0.9930;-3.6404;
2496693613127738;-11.6444;0.8375;-3.8752;
2496693623235499;-9.2369;1.0795;-2.2582;
2496693633359926;-8.7317;0.8447;-2.7182;
2496693643467738;-7.8332;0.5357;-3.5566;
2496693653575499;-7.6271;0.7872;-5.9545;
2496693663655447;-9.7304;0.8877;-3.3290;
2496693673763259;-8.6764;-0.1256;-0.3969;
2496693683871020;-11.0815;0.2818;-2.8068;
2496693694014613;-12.0829;-0.2357;-2.0859;
2496693704122426;-9.1436;-0.7436;0.3359;
2496693714230186;-5.5457;-1.2682;-1.4844;
2496693724303884;-7.5721;-0.2548;-6.3691;
2496693734411697;-11.6973;-0.4729;-6.3547;
2496693744519457;-15.0102;0.1451;-2.3566;
2496693754651280;-13.6424;-1.2275;2.0656;
2496693764759093;-8.6261;-1.9510;4.5114;
2496693774866853;-3.1382;-2.9115;0.5970;
2496693784971801;-0.6945;-0.8130;-7.1620;
2496693795079613;-8.6261;-0.2453;-12.0751;
2496693805187374;-16.0642;-0.6646;-6.5246;
2496693815289822;-11.6901;-1.5580;-2.0210;
2496693825397634;-12.9404;-1.1844;0.6260;
2496693835505447;-13.9705;-1.5532;3.3808;
2496693845605863;-11.7069;-2.2361;3.9867;
2496693855713676;-3.0781;-2.2071;-1.2882;
2496693865821488;-2.6518;1.2903;-11.1936;
2496693875931384;-6.2378;3.2641;-14.1879;
2496693886039197;-11.6659;0.1857;-3.4394;
2496693896147009;-12.7391;-1.3998;4.0561;
2496693906315551;-8.4730;-3.2420;4.0537;
2496693916423363;-9.7831;-2.5211;-2.3303;
2496693926531176;-13.3478;-1.1243;-4.1267;
2496693936590447;-12.6960;-0.5901;-5.0515;
2496693946698259;-8.1422;1.1943;-6.1678;
2496693956806020;-8.4248;1.9561;-5.3653;
2496693966942634;-11.0408;0.9739;-1.6403;
2496693977050447;-10.0681;0.6625;3.2034;
2496693987158259;-7.2918;-1.0908;5.0527;
2496693997236801;-6.8031;-1.5963;-0.0497;
2496694007344613;-7.8141;-0.2835;-8.7021;
2496694017452426;-8.5256;-0.4585;-9.4472;
2496694027567322;-9.8886;0.4086;-7.8063;
2496694037675134;-11.1416;1.2063;-6.3667;
2496694047782895;-11.7547;1.8413;-1.9684;
2496694057876697;-10.1354;0.7199;0.7839;
2496694067984509;-11.8313;1.1704;0.7887;
2496694078092322;-10.2359;-0.0176;0.9972;
2496694088198572;-6.7409;0.2913;-0.6126;
2496694098306384;-3.7442;0.4902;-6.0841;
2496694108414197;-7.8332;1.2494;-8.4721;
2496694118537270;-12.6458;0.5237;-5.3749;
2496694128645082;-14.5789;1.7836;-0.1143;
2496694138752895;-6.5157;-0.1998;1.8188;
2496694148848988;-5.2220;-0.3604;-2.7685;
2496694158956801;-8.8609;-0.4011;-5.1425;
2496694169064613;-11.9513;0.7175;-4.3950;
2496694179165238;-10.6983;0.5931;-2.8789;
2496694189273051;-8.8370;0.4469;-3.1831;
2496694199380863;-7.5314;0.2770;-2.7589;
2496694209490863;-9.7687;0.2794;-1.5132;
2496694219598676;-11.0862;0.4636;-1.4533;
2496694229706488;-9.8456;-0.2477;-0.8067;
2496694239834926;-7.3014;0.1140;-2.9578;
2496694249942738;-9.7328;0.0829;-3.6742;
2496694260050551;-12.1259;0.6482;-2.2223;
2496694270151541;-10.7438;0.1187;0.0150;
2496694280259353;-7.4644;-0.2596;-1.7049;
2496694290367166;-7.4501;-0.2788;-4.9555;
2496694300471593;-7.6415;-0.1041;-5.1233;
2496694310579405;-11.1174;0.4831;-5.2262;
2496694320687218;-11.6444;0.7848;-2.9889;
2496694330794301;-9.6347;0.2913;-0.0473;
2496694340902113;-8.2071;-0.2381;-1.5685;
2496694351009926;-9.0191;0.2794;-2.2702;
2496694361137009;-9.9006;-0.0033;-3.1615;
2496694371244822;-9.7137;0.3655;-2.4428;
2496694381352634;-7.4166;-0.1089;-4.9627;
2496694391428363;-8.3602;0.5261;-4.2347;
2496694401536176;-9.3377;0.1259;-4.0214;
2496694411643988;-12.1857;0.7271;-2.8475;
2496694421752009;-8.2190;-0.6096;0.0652;
2496694431859822;-8.3794;-0.4131;-1.5446;
2496694441967582;-10.5377;-0.2883;-3.8728;
2496694452097270;-13.5416;0.5955;-2.4667;
2496694462205134;-8.7915;0.1714;0.2378;
2496694472312895;-6.8919;0.0876;-2.9243;
2496694482396176;-8.6070;-0.3891;-5.2911;
2496694492503988;-6.7122;0.1427;-3.5160;
2496694502611801;-10.8852;0.3200;-5.4802;
2496694512722009;-12.8351;0.2267;-1.9158;
2496694522829822;-7.8691;-0.1878;0.8031;
2496694532937634;-5.3133;-0.3963;-2.6656;
2496694543042218;-9.6849;-0.0897;-5.5113;
2496694553150030;-12.9547;0.8303;-3.4298;
2496694563257843;-10.6792;0.1355;-1.6977;
2496694573379301;-9.3736;0.2052;-2.6632;
2496694583487113;-7.4046;0.0446;-2.5624;
2496694593594926;-8.1278;0.4711;-3.5279;
2496694603696384;-10.3869;0.5166;-2.4332;
2496694613804197;-9.5414;0.1211;-1.1803;
2496694623912009;-10.0083;0.3966;-2.3566;
2496694634018884;-9.2683;-0.0921;-2.2008;
2496694644126697;-9.5916;0.5405;-2.2175;
2496694654234509;-7.8260;-0.1663;-1.7192;
2496694664346541;-8.7027;0.0709;-5.4467;
2496694674454353;-8.0584;0.3775;-5.3868;
2496694684562166;-7.7231;0.9858;-5.7221;
2496694694669613;-15.4917;1.8197;-3.8895;
2496694704777426;-12.7415;1.4889;2.8202;
2496694714885238;-6.4463;0.8566;3.7615;
2496694725009301;-4.7384;0.3368;-4.4261;
2496694735117113;-11.7021;1.2927;-6.4337;
2496694745224926;-11.0575;1.2063;-1.9636;
2496694755331488;-9.1029;1.5368;-1.0295;
2496694765439301;-7.9986;1.1656;-4.7904;
2496694775547113;-7.2583;1.0364;-2.4858;
2496694785642113;-9.3736;1.0890;-4.0741;
2496694795749926;-13.6591;1.1154;-1.8440;
2496694805857738;-9.1053;0.3464;-1.6116;
2496694815948572;-7.4907;0.9236;-3.2596;
2496694826056332;-10.2838;0.8351;-3.8249;
2496694836164145;-12.9858;1.7118;-0.7923;
2496694846340551;-8.8274;0.1092;-0.1959;
2496694856448311;-7.2631;-0.0320;-2.9052;
2496694866556124;-6.3649;-0.0464;-4.2610;
2496694876592738;-7.1985;0.6218;-5.3653;
2496694886700499;-12.7223;0.4854;-4.3567;
2496694896808311;-12.8758;0.1666;-1.5733;
2496694906966332;-7.8787;-0.2405;-0.7971;
2496694917074093;-7.1483;-0.5518;-2.5744;
2496694927181905;-10.8395;-0.6885;-2.4882;
2496694937266593;-10.2574;-0.7412;-2.1769;
2496694947374353;-8.5089;-0.3796;-4.4333;
2496694957482166;-7.5841;-0.3051;-4.3831;
2496694967584926;-5.5193;-0.0559;-4.0884;
2496694977692686;-9.1531;-0.0682;-4.9077;
2496694987800499;-11.5630;-0.6239;-2.6560;
2496694997906280;-7.8978;-0.9353;-1.5805;
2496695008014041;-5.5217;-0.6766;-3.7795;
2496695018121801;-10.6983;-0.4202;-4.0765;
2496695028230447;-14.6342;-0.3027;-1.7527;
2496695038338207;-12.2339;-0.1807;0.1397;
2496695048445968;-9.9628;-0.5423;-0.1741;
2496695058533676;-7.4333;-0.3700;-0.4642;
2496695068641436;-7.6992;0.1331;-2.7709;
2496695078749249;-10.2311;0.3368;-2.8020;
2496695088861072;-9.3640;-0.1711;-3.4729;
2496695098968832;-8.1135;0.0422;-2.9674;
2496695109076645;-6.3215;-1.1028;-3.5949;
2496695119200707;-10.2909;-0.1735;-2.8068;
2496695129308468;-11.9584;-1.3735;-2.3734;
2496695139416280;-12.4950;0.0541;-2.6991;
2496695149517322;-8.9734;0.0422;-2.9148;
2496695159625082;-6.1158;1.2326;-4.7569;
2496695169732895;-7.3828;0.5979;-5.1473;
2496695179842113;-11.8217;0.6170;-3.9159;
2496695189949874;-9.7232;-0.0535;-1.2643;
2496695200057634;-8.3052;0.7777;-0.5264;
2496695210123416;-13.2661;-0.5303;-1.1061;
2496695220231124;-14.8113;0.1834;2.1159;
2496695230338884;-7.1889;-0.9257;0.2019;
2496695240446697;-6.7600;0.2100;-5.0898;
2496695250593155;-5.8379;0.5333;-7.9813;
2496695260700916;-7.8452;0.9356;-8.5872;
2496695270808728;-10.2766;-0.0730;-4.3472;
2496695280917947;-11.2540;0.5668;0.3000;
2496695291025707;-10.1689;-1.2084;0.9781;
2496695301133520;-9.2369;-0.8393;0.6380;
2496695311245030;-7.4692;-0.3939;-2.6201;
2496695321352791;-7.1913;0.1451;-7.2218;
2496695331460603;-11.7236;0.9476;-8.1320;
2496695341546280;-13.1536;1.2517;-2.9195;
2496695351654041;-7.9002;1.0819;-1.0750;
2496695361761801;-5.6677;0.5859;-0.4714;
2496695371891488;-9.0550;-0.1687;-0.2055;
2496695381999249;-11.9390;-0.5447;-0.7564;
2496695392107009;-10.4228;0.0876;-2.0402;
2496695402206072;-9.2034;0.1642;-4.5867;
2496695412313832;-7.9122;0.2219;-4.7785;
2496695422421593;-6.8824;0.2459;-3.6165;
2496695432533155;-10.1019;0.2674;-3.0440;
2496695442640916;-11.8744;0.7418;-3.7172;
2496695452748676;-9.6706;0.9835;-3.2596;
2496695462853468;-8.7341;0.7343;-0.8545;
2496695472961228;-6.0341;0.3033;-0.8282;
2496695483069041;-7.8595;0.2124;-3.7890;
2496695493178676;-12.7152;0.4974;-4.8550;
2496695503286436;-12.7753;0.8016;-2.2941;
2496695513394197;-10.8515;0.7295;-0.9885;
2496695523500551;-8.6788;-0.1280;1.2894;
2496695533608311;-7.2727;-0.5566;-2.2750;
2496695543716072;-6.5085;0.1738;-5.1018;
2496695553822530;-10.6385;0.6577;-5.8110;
2496695563930291;-14.0542;1.1417;-2.3133;
2496695574038103;-10.0780;0.1283;-0.0616;
2496695584147009;-6.6763;-0.0511;-0.7540;
2496695594254770;-7.8212;-0.4968;-2.0498;
2496695604362582;-11.1799;0.0087;-3.9254;
2496695614476488;-8.8370;-0.0176;-4.5748;
2496695624584249;-8.6046;0.7537;-6.0168;
2496695634692061;-9.3018;0.6793;-5.4706;
2496695644796176;-9.3042;1.0842;-1.0510;
2496695654903936;-10.9403;0.0613;-0.0281;
2496695665011697;-9.5797;-0.0682;-1.6594;
2496695675132426;-7.3780;0.1427;-3.5351;
2496695685240186;-8.6836;0.4564;-3.7795;
2496695695347999;-10.1091;0.4854;-3.3410;
2496695705450447;-10.8084;0.3703;-3.2812;
2496695715558207;-11.3737;0.7872;-1.9277;
2496695725666020;-10.0298;0.8231;-1.9349;
2496695735763884;-6.0679;0.6434;0.0126;
2496695745871645;-7.9771;0.0087;-3.5303;
2496695755979457;-12.2698;0.5070;-4.2802;
2496695766084093;-9.8647;1.0388;-3.2979;
2496695776191853;-8.7051;1.1154;-1.7767;
2496695786299666;-7.9508;0.3535;-2.2032;
2496695796419145;-12.9500;0.4612;-2.1745;
2496695806526905;-12.1283;0.7223;-0.7995;
2496695816634666;-8.3650;1.1177;-1.2619;
2496695826720759;-4.8485;0.6769;-4.8431;
2496695836828520;-7.5960;0.9930;-5.5328;
2496695846936280;-13.1297;1.0053;-4.7928;
2496695857046384;-11.7691;1.7429;-0.3491;
2496695867154145;-7.1961;0.9906;-1.7169;
2496695877261905;-9.0096;0.2411;-2.0378;
2496695887421280;-11.7787;-0.0296;-2.4523;
2496695897529041;-10.9905;0.4854;-1.2138;
2496695907636801;-8.1805;1.2470;-4.6848;
2496695917725030;-8.9016;0.7561;-5.1185;
2496695927832791;-6.2569;0.7271;-3.6814;
2496695937940551;-11.9943;0.8518;-1.4868;
2496695948027322;-11.9895;0.2459;-1.0439;
2496695958135082;-10.2957;0.4540;-1.0175;
2496695968242843;-6.9182;-0.6263;-2.0402;
2496695978368051;-7.3684;0.1307;-3.6332;
2496695988475811;-11.2086;0.2459;-4.8550;
2496695998583572;-11.6396;0.7848;-3.4992;
2496696008673988;-10.2120;0.7152;-3.8776;
2496696018781749;-7.2703;0.3488;-1.1683;
2496696028889509;-7.8523;-0.2453;-1.0223;
2496696039016801;-12.2554;0.2124;-2.7517;
2496696049124561;-10.9810;-0.0706;-2.3590;
2496696059232322;-7.4381;0.1164;-3.2788;
2496696069334874;-7.1267;-0.3652;-3.2237;
2496696079442634;-11.4290;0.2674;-4.4261;
2496696089550395;-8.1999;-0.3580;-1.5876;
2496696099647791;-11.0527;0.7370;-5.0348;
2496696109755551;-11.0575;0.0326;-0.9936;
2496696119863311;-6.5874;-0.0607;-1.1396;
2496696129971072;-11.3258;-0.3290;-3.5782;
2496696140078832;-10.9738;-0.1711;-3.0440;
2496696150186593;-9.2393;0.1451;-2.3806;
2496696160300186;-8.9614;-0.0153;-2.1817;
2496696170407947;-11.3856;0.1499;-1.9828;
2496696180515707;-9.1077;-0.3843;-2.2630;
2496696190628468;-7.7351;0.4205;-2.5361;
2496696200736228;-7.6920;0.1164;-3.5279;
2496696210844041;-7.7016;0.5046;-3.2166;
2496696220952322;-10.2550;-0.2261;-5.5161;
2496696231060082;-13.1225;1.0723;-3.1014;
2496696241167843;-11.0623;0.8901;-2.0668;
2496696251262218;-7.4333;0.7199;0.9182;
2496696261369978;-6.8557;0.3775;-3.4777;
2496696271477738;-11.0623;0.7705;-4.9819;
2496696281584718;-9.5028;1.0842;-3.1615;
2496696291692478;-12.1164;1.9035;-2.0163;
2496696301800238;-7.1937;1.1895;0.4965;
2496696311907738;-5.1359;0.6218;-1.9851;
2496696322015499;-10.7581;0.4588;-5.7628;
2496696332123259;-14.3922;1.4243;-2.4236;
2496696342240863;-8.1398;1.2350;-1.3385;
2496696352348624;-5.3922;1.0002;-3.9473;
2496696362456384;-11.1174;0.5572;-4.8790;
2496696372560968;-10.9786;1.2398;-2.5576;
2496696382668728;-8.5783;1.5562;-1.4749;
2496696392776488;-7.9938;1.1369;-1.7695;
2496696402873051;-6.6739;0.2722;-2.9243;
2496696412980811;-11.6563;0.6242;-3.9520;
2496696423088572;-11.8481;0.7753;-2.4021;
2496696433201697;-8.7485;0.7585;-0.8809;
2496696443309457;-6.3215;0.2674;-3.4370;
2496696453417218;-8.4464;0.1068;-5.1640;
