Sensor: bmi160 Accelerometer Non-wakeup
Vendor: BOSCH
TimestampAcc [ns]; AccX [m/s^2]; AccY [m/s^2]; AccZ [m/s^2]
1628658365257877;-9.4693;-1.7856;-1.7025;
1628658375346002;-9.3903;-1.7904;-2.0234;
1628658385528762;-9.4095;-1.7354;-2.3157;
1628658395616887;-9.3544;-1.5987;-2.3758;
1628658405789804;-9.3425;-1.5269;-2.1793;
1628658415877929;-9.4262;-1.5126;-1.9493;
1628658425976783;-9.4693;-1.4695;-1.7934;
1628658436051627;-9.4549;-1.4240;-1.7599;
1628658446154960;-9.4525;-1.3615;-1.8655;
1628658456250689;-9.4214;-1.3065;-2.0716;
1628658466359492;-9.4095;-1.2227;-2.2247;
1628658476459648;-9.3855;-1.1533;-2.3180;
1628658486578971;-9.3712;-1.1052;-2.3375;
1628658496669908;-9.3688;-1.0573;-2.2989;
1628658506781575;-9.3760;-1.0406;-2.1505;
1628658516878762;-9.4190;-1.0789;-1.9804;
1628658526984856;-9.4549;-1.0765;-2.0450;
1628658537084231;-9.4549;-1.1414;-2.1553;
1628658547192617;-9.3903;-1.2179;-2.1984;
1628658557296314;-9.3664;-1.3113;-2.2487;
1628658567399387;-9.3903;-1.2826;-2.1697;
1628658577495377;-9.3927;-1.2227;-2.0258;
1628658587606471;-9.4406;-1.1797;-1.9493;
1628658597710012;-9.4741;-1.1844;-1.9540;
1628658607814075;-9.4406;-1.1868;-1.9469;
1628658617909908;-9.4286;-1.2802;-2.0883;
1628658628040064;-9.3832;-1.3663;-2.2319;
1628658638133554;-9.3640;-1.3902;-2.2702;
1628658648220117;-9.4119;-1.3807;-2.2175;
1628658658324179;-9.4286;-1.4551;-2.0210;
1628658668428242;-9.4525;-1.4695;-1.8799;
1628658678558346;-9.4406;-1.4049;-1.8775;
1628658688637825;-9.4190;-1.4408;-1.9708;
1628658698734908;-9.4406;-1.5963;-2.1051;
1628658708839387;-9.3975;-1.7952;-2.1099;
1628658718961835;-9.3688;-1.9077;-1.9660;
1628658729051471;-9.4190;-2.0252;-1.8894;
1628658739146367;-9.4167;-2.1760;-1.8176;
1628658749287356;-9.3568;-2.1640;-1.6953;
1628658759362564;-9.4167;-2.0180;-1.7384;
1628658769457981;-9.4765;-1.9941;-1.8679;
1628658779645794;-9.3712;-1.9196;-1.9995;
1628658789695585;-9.3305;-1.9029;-2.1864;
1628658799760169;-9.3688;-1.9292;-2.3423;
1628658809871523;-9.3473;-1.9292;-2.3925;
1628658819970637;-9.2970;-2.0133;-2.3327;
1628658830089908;-9.3233;-2.0563;-2.1721;
1628658840218033;-9.3927;-2.1927;-1.9923;
1628658850329075;-9.4047;-2.4132;-1.8057;
1628658860389648;-9.3927;-2.7245;-1.6618;
1628658870514283;-9.3832;-3.1630;-1.6331;
1628658880608085;-9.3640;-3.5151;-1.6594;
1628658890693398;-9.2249;-3.5512;-1.5852;
1628658900810221;-9.2154;-3.9272;-1.6140;
1628658910904596;-9.3975;-3.7857;-1.3720;
1628658921031523;-9.3975;-3.5366;-1.0774;
1628658931136314;-9.3568;-3.4122;-1.2281;
1628658941224804;-9.2779;-2.8660;-1.6762;
1628658951324908;-9.1723;-2.5810;-1.8942;
1628658961421158;-9.1723;-2.7918;-2.1194;
1628658971536158;-9.2154;-2.6910;-2.2989;
1628658981658242;-9.0885;-2.3438;-2.3614;
1628658991741783;-9.0646;-1.9845;-2.3853;
1628659001863971;-9.2584;-1.5102;-2.5481;
1628659011949387;-9.2034;-0.9736;-2.5074;
1628659022056887;-9.0263;-1.2706;-2.6201;
1628659032157512;-8.8825;-1.5628;-2.9770;
1628659042273398;-8.8155;-1.4743;-3.1376;
1628659052365325;-9.0909;-1.4049;-3.2094;
1628659062473346;-9.3832;-1.2275;-3.1158;
1628659072568658;-9.4214;-0.9425;-2.9578;
1628659082681314;-9.1938;-0.6144;-2.9267;
1628659092787408;-8.8059;-0.5136;-3.0990;
1628659102881054;-8.5472;-0.7029;-3.4346;
1628659112987617;-8.5735;-0.9736;-3.9039;
1628659123095742;-8.6812;-1.1486;-4.2371;
1628659133195898;-8.7939;-1.0765;-4.3017;
1628659143297096;-9.0455;-0.5901;-4.4142;
1628659153402825;-8.8083;2.5071;-8.4386;
1628659163509648;-7.5386;10.6014;-19.8796;
1628659173609492;-7.4142;17.8310;-27.2746;
1628659183722408;-6.7265;3.4678;-3.5375;
1628659193816887;-10.3340;-1.9101;3.1292;
1628659203921992;-12.7753;-2.7679;-1.9253;
1628659214025846;-9.0909;-1.6804;-2.4571;
1628659224135117;-5.7132;-0.7723;-2.8187;
1628659234234596;-6.3936;-1.3065;-4.6202;
1628659244329387;-8.6022;-3.4265;-4.5485;
1628659254456262;-9.8408;-5.1440;-5.0635;
1628659264552096;-10.9881;-4.7991;-6.1654;
1628659274651054;-10.7414;-3.0171;-5.0731;
1628659284760742;-8.8083;-2.0922;-3.0488;
1628659294842096;-7.4166;-1.6370;-1.8081;
1628659304957721;-7.9316;-2.0635;-1.6116;
1628659315062096;-9.1914;-2.4299;-2.2271;
1628659325169596;-9.3281;-2.8732;-3.2836;
1628659335270846;-9.9054;-2.3725;-5.7389;
1628659345367304;-9.0957;-1.8814;-4.9579;
1628659355471471;-8.7003;-2.2816;-3.0751;
1628659365582304;-9.1699;-1.9005;-3.8608;
1628659375683346;-8.3363;-0.9927;-3.8417;
1628659385788346;-7.7638;-0.8369;-3.4059;
1628659395897721;-8.0728;-0.5925;-2.8717;
1628659405994908;-9.6371;0.1881;-3.0966;
1628659416093814;-9.9820;1.3023;-3.5040;
1628659426187877;-9.1986;2.6028;-3.3817;
1628659436309700;-9.2154;3.2641;-4.2921;
1628659446405742;-8.7580;3.7959;-5.8181;
1628659456513762;-8.4921;3.3191;-6.7355;
1628659466613658;-9.5916;2.9599;-6.1367;
1628659476720429;-8.4873;3.8964;-3.8847;
1628659486829179;-7.3421;3.8892;-2.0498;
1628659496921939;-8.1709;3.0030;-1.5613;
1628659507028137;-9.1914;2.8687;-3.4585;
1628659517128606;-11.3282;3.1011;-6.0888;
1628659527229023;-11.1679;3.4247;-5.5953;
1628659537348710;-9.0024;3.2737;-2.7326;
1628659547449179;-7.4883;2.5860;-0.0401;
1628659557549596;-7.2177;1.6926;0.9709;
1628659567657356;-8.7051;1.0101;-0.4352;
1628659577757825;-9.8504;0.5620;-2.9124;
1628659587858242;-10.7175;0.9117;-5.2792;
1628659597982721;-10.8347;1.3358;-6.4624;
1628659608083137;-10.1833;1.0026;-4.8215;
1628659618183606;-8.4682;0.7418;-1.1085;
1628659628279648;-6.5731;0.1834;1.3397;
1628659638380064;-7.9364;0.3129;0.0748;
1628659648480533;-10.0514;2.3611;-2.5433;
1628659658578554;-10.1330;3.3933;-3.1496;
1628659668678971;-9.7926;3.3000;-3.1472;
1628659678779439;-9.6108;2.9862;-3.1352;
1628659688887252;-8.9279;2.4544;-1.6451;
1628659698987669;-8.0608;2.2723;-2.0931;
1628659709088137;-8.8513;2.3417;-5.8660;
1628659719199335;-10.2263;3.2617;-7.5404;
1628659729299752;-8.6836;3.7887;-4.2562;
1628659739400221;-7.4022;2.9527;-0.5671;
1628659749510742;-9.1508;1.5368;-0.6772;
1628659759611210;-10.6983;1.5706;-2.2415;
1628659769711679;-10.4946;2.2986;-4.1507;
1628659779820585;-9.7998;2.8184;-5.9737;
1628659789921054;-8.3626;2.9934;-5.0276;
1628659800021523;-7.1169;2.3994;-2.0330;
1628659810132877;-7.6705;1.3597;-0.0999;
1628659820233346;-8.6548;0.8351;0.7098;
1628659830333762;-9.9724;0.8399;0.4534;
1628659840423554;-10.5018;2.0662;-1.8631;
1628659850523971;-8.5161;2.3611;-3.3529;
1628659860624439;-5.9862;2.9623;-3.0416;
1628659870780846;-3.4783;1.8051;-0.3514;
1628659880881314;0.6203;-1.1509;2.3363;
1628659890981731;-11.2732;-0.7029;-23.6955;
1628659901056106;-29.9557;-2.6719;-43.0370;
1628659911156575;-17.5062;-2.6312;-17.4123;
1628659921256992;0.0718;-1.1629;2.5783;
1628659931390429;5.6797;2.0375;8.0231;
1628659941490898;-0.5701;3.5970;7.5730;
1628659951591314;-13.5586;1.1656;3.7065;
1628659961688919;-12.5046;2.6677;-0.1860;
1628659971789387;-10.7031;2.5286;-12.2692;
1628659981889804;-17.5998;3.1636;-18.4687;
1628659991994648;-10.8682;2.7371;-8.8890;
1628660002095117;-1.1904;3.1923;-1.5805;
1628660012195533;-2.1703;4.3325;-3.0846;
1628660022309439;-6.2474;6.4406;-6.6012;
1628660032409908;-9.4190;6.8788;-7.2864;
1628660042510325;-12.3105;5.7888;-7.6409;
1628660052634544;-11.0073;6.2106;-7.4614;
1628660062735012;-7.5553;7.1833;-6.3811;
1628660072835429;-6.5563;6.6562;-4.8239;
1628660082938710;-6.1325;6.3541;-2.9722;
1628660093039179;-6.5468;6.1484;-3.9111;
1628660103139648;-10.1617;5.8872;-6.6084;
1628660113241471;-10.8132;4.6008;-6.2731;
1628660123341939;-8.2286;3.8677;-4.9460;
1628660133442356;-5.8834;4.0475;-4.4791;
1628660143556210;-6.6547;3.2952;-4.5628;
1628660153656679;-7.4716;1.3310;-5.0396;
1628660163757096;-7.4812;1.3190;-3.4178;
1628660173866210;-7.9484;0.4421;-2.2487;
1628660183966679;-10.8515;-1.8191;-2.7805;
1628660194067096;-9.5124;-1.0884;-0.9766;
1628660204175377;-6.6188;-1.5796;-0.6317;
1628660214275846;-10.5903;-1.4791;-5.2669;
1628660224376262;-10.9810;-0.9616;-3.7771;
1628660234485794;-7.1073;-1.0908;1.0020;
1628660244586210;-10.3077;0.0494;-2.6130;
1628660254686679;-12.8854;1.9968;-3.9879;
1628660264803606;-7.9098;1.4746;0.8007;
1628660274904075;-8.9471;0.8231;-1.7336;
1628660285004492;-12.4373;0.9404;-4.4839;
1628660295124335;-9.0885;1.0196;-1.1946;
1628660305224804;-7.1459;1.0026;-2.0043;
1628660315325221;-8.6692;0.6218;-4.5724;
1628660325422773;-10.1354;0.3655;-2.6776;
1628660335523242;-9.9724;-0.2189;-1.3122;
1628660345623658;-9.3305;-1.0502;-2.4619;
1628660355723398;-8.8968;-1.5030;-2.5528;
1628660365823867;-9.7591;-2.0683;-2.4428;
1628660375924283;-9.5390;-2.9282;-2.1769;
1628660386028242;-8.5256;-3.3500;-2.3495;
1628660396128658;-9.2656;-3.9224;-2.7541;
1628660406229075;-11.1341;-4.2434;-3.3697;
1628660416344023;-10.7653;-2.8684;-3.6308;
1628660426444492;-9.8169;-2.8325;-3.0942;
1628660436544908;-9.7854;-2.3198;-2.8020;
1628660446661210;-10.5640;-1.5796;-3.2644;
1628660456761627;-10.4133;-0.6885;-3.5064;
1628660466862096;-9.0766;-0.2835;-1.9780;
1628660476965689;-9.1579;0.5931;-3.1759;
1628660487066158;-10.8829;1.6902;-4.1052;
1628660497166575;-9.0861;3.1875;-2.7087;
1628660507284492;-8.4559;3.6930;-3.2931;
1628660517387408;-10.0394;3.4199;-3.7675;
1628660527490429;-10.9642;3.9012;-2.3734;
1628660537591887;-8.5448;3.7792;-1.0917;
1628660547694856;-5.9982;2.4401;-1.0463;
1628660557797825;-7.6681;2.2938;-2.7852;
1628660567904908;-9.2441;1.8748;-2.3758;
1628660578007825;-7.9819;0.8901;-3.3601;
1628660588110846;-8.9590;1.2685;-4.9364;
1628660598211471;-9.2225;2.2699;-4.1865;
1628660608314439;-7.0475;1.7812;-2.9172;
1628660618417408;-4.6448;1.8197;-2.1888;
1628660628518710;-6.7313;1.2541;-2.2295;
1628660638621679;-11.1269;-0.8680;-2.2965;
1628660648724648;-11.7811;-1.6947;-2.2128;
1628660658828033;-11.6830;-0.0682;-1.9516;
1628660668931002;-9.6060;0.0087;-0.6221;
1628660679034023;-7.8835;1.2206;-0.0257;
1628660689137721;-8.0824;3.2880;-3.7053;
1628660699240689;-8.6764;4.0092;-4.9723;
1628660709343658;-9.7065;0.4516;-5.0300;
1628660719455846;-11.7930;-2.2170;-5.6647;
1628660729558762;-9.2489;-3.3404;-5.0659;
1628660739661731;-6.6595;-4.7919;-5.3366;
1628660749766471;-8.3339;-3.9846;-5.3701;
1628660759869439;-11.1847;-2.9330;-6.0239;
1628660769972408;-11.7858;-1.9415;-3.3482;
1628660780102669;-8.7796;-0.6215;-0.8617;
1628660790205637;-9.5195;-1.1195;-1.5060;
1628660800308606;-9.5821;-1.7521;-1.2667;
1628660810381627;-10.7438;-1.3256;-1.6403;
1628660820484596;-11.6806;-1.5508;-2.0955;
1628660830587564;-7.8978;-1.0454;-2.0163;
1628660840696262;-9.0503;-0.2118;-3.8656;
1628660850799231;-10.5162;-1.4623;-5.5065;
1628660860902200;-8.5065;-0.7699;-4.7207;
1628660871032721;-8.9566;-0.5853;-4.9914;
1628660881135689;-7.4859;-1.4958;-5.2454;
1628660891238658;-7.5577;-0.8970;-6.2803;
1628660901313658;-10.0179;-0.9808;-6.3811;
1628660911416627;-7.9412;-1.8957;-4.7498;
1628660921519596;-7.5266;-1.2897;-5.0204;
1628660931643919;-9.2393;-1.2682;-5.7389;
1628660941746887;-6.8342;-1.0884;-4.2873;
1628660951829283;-9.6634;0.0565;-5.2095;
1628660961932304;-8.5854;-0.5662;-5.6336;
1628660972035273;-8.0584;0.3344;-6.0335;
1628660982138242;-11.1775;-0.6502;-6.2611;
1628660992241262;-7.4859;-0.9664;-4.1148;
1628661002344231;-8.5137;-0.7890;-5.1138;
1628661012457460;-8.5974;-1.7402;-4.6801;
1628661022560481;-8.4897;-0.3867;-3.7005;
1628661032663398;-9.1651;-1.6490;-3.7196;
1628661042768867;-9.4860;-1.2897;-3.2429;
1628661052871835;-9.8408;-1.7115;-4.0765;
1628661062974804;-8.3913;-1.5173;-4.3615;
1628661073075742;-9.2178;-0.8369;-3.5423;
1628661083178710;-7.2990;-1.2634;-3.1567;
1628661093281731;-10.3173;-0.5255;-4.9244;
1628661103396262;-11.3785;-1.1964;-3.1950;
1628661113499231;-9.1244;0.5501;-2.4978;
1628661123602200;-7.4046;0.0948;-4.2514;
1628661133705221;-10.1067;0.6673;-3.6718;
1628661143808189;-9.6467;0.4854;-2.9698;
1628661153911158;-8.8083;1.0675;-3.1448;
1628661164027096;-9.0120;0.9284;-3.1926;
1628661174130064;-9.5028;1.4841;-2.6177;
1628661184233033;-9.2058;1.5491;-2.2774;
1628661194315533;-8.2693;1.4602;-2.5170;
1628661204418554;-9.8719;0.9691;-3.5877;
1628661214521523;-8.9590;0.6123;-2.4284;
1628661224640117;-9.8671;0.8088;-2.7230;
1628661234743085;-8.8346;0.1834;-2.7565;
1628661244846054;-10.0561;0.6218;-1.8033;
1628661254961575;-8.7317;0.2267;-1.7767;
1628661265064544;-10.4468;0.2001;-2.0569;
1628661275167512;-9.4908;0.2315;-1.9851;
1628661285264492;-9.2850;-0.1615;-2.1290;
1628661295367408;-9.2608;-0.4035;-2.3495;
1628661305470429;-8.5567;-0.8249;-3.5231;
1628661315562773;-11.5319;-1.3567;-2.7517;
1628661325665794;-9.1101;-1.3783;-2.7230;
1628661335768762;-9.5291;-1.1653;-3.4657;
1628661345876158;-7.7040;-1.6851;-3.4155;
1628661355979127;-10.5592;-1.6131;-2.9722;
1628661366082096;-9.6491;-1.6346;-3.4466;
1628661376184856;-7.9890;-1.3902;-3.3218;
1628661386287877;-7.6319;-1.2060;-3.2931;
1628661396390846;-9.8886;-1.3161;-3.7579;
1628661406497408;-10.6289;-1.1916;-3.0751;
1628661416600429;-8.8537;-1.2179;-3.6380;
1628661426703398;-8.7171;-0.6550;-3.5973;
1628661436811992;-7.9938;-0.8994;-3.9039;
1628661446914960;-10.6457;-0.7795;-4.4934;
1628661457017929;-9.6778;-0.5614;-4.0789;
1628661467111314;-8.7123;-0.3194;-3.7579;
1628661477214283;-6.8847;-0.3437;-4.5915;
1628661487317304;-8.2406;-0.4825;-4.4501;
1628661497424648;-8.2430;-0.9114;-5.0444;
1628661507527564;-10.1761;-0.6814;-4.9507;
1628661517630533;-9.2560;-1.1749;-3.5327;
1628661527746992;-9.4478;-0.3266;-3.5064;
1628661537849960;-7.8117;-0.1543;-3.5375;
1628661547952929;-8.3028;-0.0464;-3.0464;
1628661558050689;-9.5821;-0.6455;-4.4596;
1628661568153658;-10.8562;0.0541;-3.5016;
1628661578256627;-8.7194;-0.0897;-3.9015;
1628661588360481;-9.6467;0.3990;-3.9111;
1628661598463502;-10.2550;0.2674;-2.6082;
1628661608566419;-10.9786;0.3990;-2.3901;
1628661618672773;-9.0000;0.1690;-3.3266;
1628661628775742;-9.1866;1.0196;-2.0091;
1628661638878710;-7.5577;-0.5016;-3.1181;
1628661648981314;-9.3832;-0.3628;-3.9544;
1628661659084283;-9.2803;-1.0645;-3.8345;
1628661669187252;-9.9891;-0.3290;-4.2009;
1628661679294075;-9.8240;-0.6431;-2.4715;
1628661689397044;-9.5414;-0.6502;-2.8980;
1628661699499960;-8.4945;-0.4298;-2.6321;
1628661709618033;-9.4119;0.5572;-2.6752;
1628661719721002;-9.8815;-0.3532;-3.5088;
1628661729823971;-10.0899;0.3942;-2.3303;
1628661739924856;-8.8179;-0.3508;-3.1998;
1628661750027825;-9.0694;0.2961;-2.7015;
1628661760130794;-8.3746;-0.3075;-3.4418;
1628661770227929;-9.5148;-0.7220;-3.5806;
1628661780330846;-10.4803;-0.5542;-3.9278;
1628661790433814;-9.1531;-0.6455;-2.7111;
1628661800551314;-9.3736;-0.2500;-3.6718;
1628661810654283;-8.0082;0.0876;-2.5887;
1628661820757252;-8.2813;-0.2788;-3.4896;
1628661830867825;-8.8537;-0.5782;-3.6619;
1628661840970742;-9.1699;-0.3891;-4.2969;
1628661851073710;-7.5769;-0.6239;-5.3988;
1628661861168294;-9.6730;-0.5734;-4.9412;
1628661871271262;-10.0394;-0.3290;-3.9592;
1628661881374231;-8.7461;-0.9520;-4.4934;
1628661891483502;-8.8657;-0.1113;-4.7279;
1628661901586471;-9.0191;-0.5136;-4.3974;
1628661911689439;-10.6768;-0.6215;-3.7220;
1628661921780273;-9.8839;-0.8608;-2.6536;
1628661931883242;-8.1230;-0.5710;-2.1194;
1628661941986210;-9.3903;-0.1328;-3.0272;
1628661952117408;-8.9782;-0.3099;-2.7063;
1628661962221106;-9.5004;-0.2022;-4.1674;
1628661972324856;-9.3066;-0.8010;-4.4620;
1628661982403346;-9.3138;-0.5471;-3.6861;
1628661992507044;-8.3028;-0.5949;-4.4333;
1628662002610794;-8.4081;-0.0009;-4.8766;
1628662012713762;-9.5821;-0.2524;-4.9484;
1628662022817460;-8.2860;-0.1280;-3.6790;
1628662032921210;-8.7939;0.2148;-3.6165;
1628662043028762;-9.8910;-0.0583;-3.9808;
1628662053132460;-9.7065;0.1522;-2.6608;
1628662063236210;-8.5017;-0.0921;-2.8642;
1628662073336992;-8.5902;0.6793;-2.6177;
1628662083440689;-8.2382;0.2052;-3.6380;
1628662093544439;-10.0899;0.0876;-3.7220;
1628662103647200;-10.0131;0.2602;-2.6536;
1628662113750898;-8.3052;-0.1663;-2.6967;
1628662123854648;-9.0790;-0.0368;-2.3662;
1628662133958867;-8.5926;-0.6981;-3.0224;
1628662144062564;-10.0370;-0.4753;-3.2572;
1628662154166314;-10.1426;-1.4216;-3.1086;
1628662164275846;-8.6907;-1.6851;-2.7206;
1628662174379544;-8.7485;-0.4753;-2.9004;
1628662184483294;-7.9651;-1.0071;-3.1639;
1628662194572721;-9.6467;0.5620;-4.0884;
1628662204676419;-10.8852;-1.5843;-3.6547;
1628662214780169;-10.0851;-0.4992;-3.2261;
1628662224883867;-8.8848;-0.5949;-1.7767;
1628662234987564;-7.1387;-0.4561;-2.9626;
1628662245091314;-9.2417;0.3296;-4.2203;
1628662255206419;-10.5903;-1.1701;-3.2189;
1628662265310117;-9.3114;-0.6024;-3.0488;
1628662275413867;-9.0383;-0.2142;-2.6895;
1628662285519492;-7.9866;-0.5758;-3.3147;
1628662295623189;-10.0657;0.5740;-3.5183;
1628662305726939;-9.1795;-0.6311;-2.4045;
1628662315826262;-8.5783;0.1211;-4.2921;
1628662325929960;-10.9283;0.1570;-3.5901;
1628662336033710;-8.4873;-0.0129;-1.8344;
1628662346130325;-9.0694;1.3190;-2.9315;
1628662356234023;-9.1890;0.6649;-3.3266;
1628662366337773;-8.8920;0.6553;-2.8837;
1628662376446419;-9.1077;1.1967;-3.4011;
1628662386550117;-9.6084;0.5070;-3.4202;
1628662396653867;-9.8312;1.0125;-3.0559;
1628662406754596;-8.7939;0.6075;-3.5423;
1628662416858294;-8.7413;0.8160;-3.3769;
1628662426962044;-9.6873;1.4339;-3.7460;
1628662437061992;-9.8719;0.6410;-3.5830;
1628662447165689;-9.2683;0.6170;-2.4523;
1628662457269439;-8.2669;1.0507;-3.4490;
1628662467379387;-8.7461;0.7394;-3.6814;
1628662477483085;-9.4143;0.7753;-4.1722;
1628662487586835;-9.1579;0.3129;-4.4261;
1628662497714856;-9.7567;0.3272;-3.0918;
1628662507818502;-8.4802;0.5548;-3.2644;
1628662517922200;-8.4778;0.6218;-4.4333;
1628662527999387;-9.6012;0.9691;-3.0966;
1628662538103085;-7.9866;0.0996;-3.2405;
1628662548206835;-8.7963;0.4445;-5.2023;
1628662558298137;-10.3149;0.3153;-4.0382;
1628662568401835;-9.4143;0.0494;-2.9937;
1628662578505585;-8.9088;0.7466;-2.8092;
1628662588620742;-8.3339;0.1738;-3.4968;
1628662598724439;-8.8633;-0.0392;-4.3256;
1628662608828189;-10.1593;0.5835;-3.9377;
1628662618930117;-9.8336;-0.6120;-2.9387;
1628662629033814;-8.7485;-0.8803;-3.5686;
1628662639137564;-8.5950;-0.1807;-4.0095;
1628662649244908;-9.7783;-0.4131;-3.7220;
1628662659348606;-8.9710;-0.6814;-4.2251;
1628662669452304;-8.7580;-0.0802;-2.0019;
1628662679589335;-8.3722;-0.4992;-3.5853;
1628662689693085;-8.6931;-0.1711;-4.2060;
1628662699796783;-9.0024;0.0087;-3.8728;
1628662709846783;-11.1703;-0.3242;-3.3314;
1628662719950533;-9.2632;-0.7220;-3.0655;
1628662730054179;-9.9030;-0.5423;-2.7996;
1628662740189908;-9.2898;0.0685;-1.8751;
1628662750293658;-9.8815;0.0494;-3.1615;
1628662760397304;-9.3808;0.7271;-2.6345;
1628662770469231;-10.1880;0.4807;-2.8860;
1628662780572929;-10.5616;0.7537;-2.0668;
1628662790676679;-7.8452;0.1666;-2.7494;
1628662800788658;-7.7710;0.1355;-2.7063;
1628662810892304;-9.0191;-0.1591;-4.3113;
1628662820996106;-9.7184;-0.4944;-3.8536;
1628662831100585;-10.5903;-0.2859;-3.0870;
1628662841204335;-9.0885;-0.3867;-2.6895;
1628662851308085;-7.5817;0.1738;-3.8417;
1628662861432304;-10.0250;0.2506;-2.9172;
1628662871536002;-10.5520;-0.2213;-3.2381;
1628662881639752;-8.9734;-0.1735;-2.5552;
1628662891726783;-8.8657;-0.1328;-3.0894;
1628662901830481;-8.1829;-1.0310;-2.5720;
1628662911934231;-8.1230;-1.2299;-4.0358;
1628662922038971;-9.3712;-1.1844;-3.7842;
1628662932142669;-8.2860;-1.0549;-4.3208;
1628662942246419;-8.9495;-1.1797;-4.1507;
1628662952352096;-9.8958;-0.7268;-4.9101;
1628662962455533;-10.2503;-0.6814;-3.7125;
1628662972558971;-10.2359;-0.6168;-3.7196;
1628662982669023;-9.1101;0.4229;-2.2845;
1628662992772512;-9.3329;0.1905;-2.0883;
1628663002875950;-9.3209;0.3751;-1.8488;
1628663012967825;-11.1847;0.2387;-2.5074;
1628663023071262;-9.9628;0.6840;-1.5781;
1628663033174700;-7.9340;1.0675;-1.2667;
1628663043288919;-5.6127;1.3119;-1.9923;
1628663053392408;-8.3985;0.2171;-3.5614;
1628663063495846;-12.7080;0.3535;-4.8311;
1628663073594596;-11.7978;1.6687;-3.4442;
1628663083698033;-6.4774;1.3717;-2.4141;
1628663093801471;-6.3841;0.8566;-1.9851;
1628663103912773;-10.0250;1.9705;-3.1181;
1628663114016262;-10.4061;2.5956;-2.6154;
1628663124119700;-9.4525;3.1588;-2.8355;
1628663134219492;-8.6859;2.6701;-2.6776;
1628663144322929;-10.8586;4.0355;-3.0990;
1628663154426367;-10.8805;3.9972;-3.3745;
1628663164528033;-9.7448;5.2187;-3.6718;
1628663174631471;-7.8212;6.2847;-4.1243;
1628663184734908;-8.0393;7.0968;-3.1519;
1628663194837825;-8.3674;6.9532;-3.8489;
1628663204941262;-8.4033;6.6993;-3.4561;
1628663215044700;-8.9614;5.2908;-3.4777;
1628663225149700;-9.2946;3.1035;-3.4083;
1628663235253137;-9.9030;1.8150;-4.5915;
1628663245356575;-8.4296;0.6649;-3.7316;
1628663255475377;-7.9436;-0.6287;-3.8489;
1628663265578867;-8.0895;-1.2586;-3.0511;
1628663275682304;-7.7638;-0.8922;-2.5768;
1628663285781314;-8.0560;-2.2504;-4.2802;
1628663295884804;-10.7773;-1.9893;-5.4179;
1628663305988242;-9.7376;-1.8718;-5.0874;
1628663316085377;-7.5075;-1.8742;-3.2620;
1628663326188867;-6.7816;-2.8445;-2.9770;
1628663336292304;-7.9098;-3.7570;-3.9230;
1628663346400481;-10.2742;-3.5656;-5.1090;
1628663356503971;-10.5832;-3.6015;-5.2959;
1628663366607408;-9.7089;-3.4552;-4.6418;
1628663376709231;-9.8049;-2.9833;-3.9497;
1628663386812721;-8.6429;-2.9474;-3.3194;
1628663396916158;-7.7471;-2.9569;-3.2859;
1628663407018450;-9.6586;-3.4457;-3.6308;
1628663417121939;-11.4960;-3.0171;-2.7709;
1628663427225377;-10.0418;-2.9474;-3.2716;
1628663437329335;-7.8619;-3.0817;-4.1985;
1628663447432773;-9.0215;-2.8732;-3.0009;
1628663457536210;-11.3809;-2.4299;-3.0583;
1628663467641939;-9.3401;-1.0286;-3.6643;
1628663477745377;-9.0742;-0.5542;-3.9592;
1628663487848867;-9.6826;-0.9401;-3.7962;
1628663497942877;-9.1675;0.8877;-2.4858;
1628663508046262;-9.6682;0.6577;-4.2921;
1628663518149700;-9.9700;0.7295;-3.9401;
1628663528253189;-8.9279;0.7080;-3.0870;
1628663538361262;-8.4730;0.3033;-4.1913;
1628663548464700;-9.5100;1.6328;-2.5935;
1628663558568137;-8.5256;1.5802;-2.9889;
1628663568677617;-7.9938;2.0614;-2.5313;
1628663578781054;-8.0154;1.4124;-3.4370;
1628663588884492;-9.1866;1.1010;-4.1028;
1628663599016523;-10.1665;2.3010;-2.2822;
1628663609119960;-8.6285;2.3898;-4.9125;
1628663619223450;-8.9447;2.9767;-3.6909;
1628663629291939;-9.2898;1.9992;-3.3649;
1628663639395429;-10.1617;2.6605;-2.4476;
1628663649498867;-9.3879;1.8027;-3.5351;
1628663659620064;-8.7485;1.2613;-3.6523;
1628663669723502;-7.9508;1.1249;-2.5863;
1628663679826992;-7.9002;0.4854;-2.7063;
1628663689928762;-9.1771;-0.2046;-3.2118;
1628663700032200;-8.6668;-0.6790;-4.5724;
1628663710135689;-9.7902;-1.2754;-4.4862;
1628663720271419;-11.2014;-1.1243;-3.5351;
1628663730374908;-10.1785;-1.1749;-1.8248;
1628663740478346;-8.1637;-0.9473;-2.2391;
1628663750552773;-7.9819;-1.3831;-1.7767;
1628663760656210;-9.3497;-1.3783;-2.2487;
1628663770759700;-10.5951;-1.3017;-2.5457;
1628663780851835;-10.1019;-0.8441;-1.9947;
1628663790955273;-8.5376;-1.3256;-3.1567;
1628663801058710;-9.1340;-0.3628;-1.8344;
1628663811160846;-10.1689;-0.8632;-1.4749;
1628663821264283;-9.7256;-0.2142;-1.7192;
1628663831367721;-9.5315;-0.3338;-2.4476;
1628663841500794;-10.9092;-0.2620;-1.7647;
1628663851604283;-10.5401;0.0159;-2.8522;
1628663861707721;-9.7089;0.4229;-2.0091;
1628663871779700;-8.8298;0.2435;-3.3290;
1628663881883137;-10.1115;0.3703;-2.8765;
1628663891986575;-10.2838;0.9284;-2.6704;
1628663902086158;-9.3760;1.7501;-2.9530;
1628663912189596;-8.2047;1.1130;-2.5361;
1628663922293033;-8.3435;0.8112;-2.9148;
1628663932409804;-8.5998;1.3645;-2.6273;
1628663942513242;-8.6620;1.0627;-3.9278;
1628663952616679;-9.2874;1.0388;-2.9746;
1628663962716887;-8.8896;0.5357;-3.7986;
1628663972820481;-9.1914;0.5429;-2.3949;
1628663982924075;-8.7915;0.0709;-3.6093;
1628663993030637;-8.2430;0.6625;-2.7302;
1628664003134231;-9.6395;-0.1017;-4.2658;
1628664013237825;-11.5128;-0.5064;-3.1567;
1628664023336262;-9.4597;-0.3987;-2.9937;
1628664033439856;-6.8943;0.0087;-2.9794;
1628664043543450;-8.2406;-0.0682;-4.5006;
1628664053653346;-10.4659;-0.4753;-3.7747;
1628664063756939;-11.8648;-0.4753;-3.0583;
1628664073860533;-9.9867;-0.4513;-2.8860;
1628664083962200;-9.2513;0.1235;-1.8176;
1628664094065794;-8.0943;-0.5973;-3.4944;
1628664104169439;-9.3616;-0.5207;-3.4442;
1628664114268033;-10.2909;-0.9616;-3.5016;
1628664124371627;-9.6060;-0.9162;-3.4466;
1628664134475221;-8.3746;0.0135;-3.7579;
1628664144588346;-9.2827;-0.6670;-4.6346;
1628664154691939;-9.1723;-0.3939;-3.1878;
1628664164795533;-8.5926;-0.3963;-3.7651;
1628664174900846;-9.2321;-0.4490;-4.5006;
1628664185004439;-10.2287;0.1810;-2.9626;
1628664195108033;-9.2970;0.0039;-3.0751;
1628664205210273;-7.9292;0.2148;-3.6718;
1628664215313919;-8.3100;0.6242;-3.6236;
1628664225417512;-9.4430;0.2483;-4.0908;
1628664235517096;-9.9748;0.6769;-2.9267;
1628664245620689;-9.0550;1.0627;-2.2989;
1628664255724283;-8.7341;0.4205;-2.7829;
1628664265837252;-7.4764;0.5788;-2.8765;
1628664275940898;-9.1962;0.1618;-3.5231;
1628664286044492;-10.0466;0.0565;-3.6571;
1628664296140898;-10.2885;0.2315;-2.9363;
1628664306244544;-10.3292;0.5237;-2.5193;
1628664316348137;-9.6491;0.2794;-2.1338;
1628664326450950;-8.5878;0.5572;-1.8559;
1628664336554544;-8.4706;0.2459;-2.0883;
1628664346658137;-8.9231;-0.5279;-3.2381;
1628664356770950;-8.8394;-0.2764;-3.0918;
1628664366874596;-8.4945;0.0637;-2.7757;
1628664376978189;-7.7614;-0.2166;-4.1865;
1628664387081314;-9.7854;-0.1256;-4.2802;
1628664397184960;-11.3785;0.0852;-2.9315;
1628664407288554;-9.9054;0.0398;-2.5241;
1628664417387512;-7.7901;0.2602;-1.9612;
1628664427491106;-8.4634;0.2794;-1.9349;
1628664437594700;-9.8767;-0.3003;-2.6417;
1628664447712044;-9.9197;0.0302;-2.1793;
1628664457815689;-8.4945;0.4181;-1.9588;
1628664467919283;-8.8155;0.0661;-3.5758;
1628664478073085;-14.1574;-0.4346;-2.6273;
1628664488176731;-12.2411;-0.3724;-0.6437;
1628664498280325;0.7762;0.2124;-3.4753;
1628664508341471;-6.4702;-0.4322;-7.0995;
1628664518445064;-18.7232;-1.5963;-4.0502;
1628664528548710;-17.9686;-1.3017;1.1216;
1628664538638033;-6.1828;0.6769;0.6165;
1628664548741679;-1.7847;1.3549;-3.6909;
1628664558845273;-8.1709;-0.8177;-5.2167;
1628664568941262;-11.6420;-1.0741;-3.2405;
1628664579044856;-9.7137;-0.7555;-2.5792;
1628664589148450;-8.9949;0.0374;-4.1435;
1628664599245585;-8.9686;-0.5495;-3.9760;
1628664609349179;-8.7341;-0.7364;-3.1014;
1628664619452825;-8.3961;-0.5303;-3.8800;
1628664629612617;-9.4549;-0.4896;-4.2802;
1628664639716210;-10.2407;-0.0945;-2.9650;
1628664649819856;-9.4071;-0.0754;-2.2702;
1628664659858971;-6.7457;-0.3365;-3.9832;
1628664669962564;-9.2994;-0.2620;-6.1702;
1628664680066158;-14.8639;0.1570;-2.5600;
1628664690200898;-8.3770;0.8949;2.6907;
1628664700304492;-2.2110;0.2148;-3.8177;
1628664710408137;-8.2047;-0.6861;-9.2411;
1628664720512304;-15.7170;-0.7723;-5.1832;
1628664730615950;-13.1130;0.1379;-0.0473;
1628664740719596;-7.4453;1.0603;-1.6546;
1628664750816523;-7.4142;0.6051;-4.1818;
1628664760920117;-8.8274;-0.3413;-2.4811;
1628664771023762;-7.9050;-0.3461;-2.3877;
1628664781141106;-8.4272;0.0254;-4.1602;
1628664791244752;-9.4430;-0.3170;-4.0932;
1628664801348346;-9.0024;0.1499;-2.6991;
1628664811446210;-9.3664;-0.0583;-3.4944;
1628664821549804;-11.0073;-0.2189;-2.6656;
1628664831653450;-10.4516;0.0613;-2.5457;
1628664841751106;-11.1221;0.0709;-1.8320;
1628664851854752;-9.7161;0.7152;-1.7121;
1628664861958346;-8.3674;0.5692;-1.9301;
1628664872059856;-8.3195;0.3320;-4.2179;
1628664882163502;-9.9987;0.3535;-3.3218;
1628664892267096;-9.2874;0.3488;-2.4882;
1628664902366106;-9.2106;0.2243;-3.7555;
1628664912469752;-9.8288;-0.1280;-3.9425;
1628664922573346;-9.0550;-0.4011;-3.1158;
1628664932683189;-7.3636;-0.1687;-3.7986;
1628664942786835;-8.3746;-0.2692;-4.3591;
1628664952890429;-10.8658;-0.8130;-3.3099;
1628664962989492;-10.2263;-0.4513;-1.7623;
1628664973093189;-8.1975;-0.4992;-2.6369;
1628664983196939;-6.9254;-0.8034;-3.6452;
1628664993306575;-8.1685;-0.9066;-4.1722;
1628665003410273;-10.8538;-1.2012;-4.1387;
1628665013514023;-11.3306;-1.1486;-3.3601;
1628665023612929;-8.7509;-0.7364;-3.9832;
1628665033716627;-7.7064;-0.0583;-4.0167;
1628665043820377;-10.3340;-0.3266;-3.5782;
1628665053928346;-10.4324;-0.3290;-2.0812;
1628665064032044;-8.5280;-0.1663;-2.1458;
1628665074135794;-8.2765;0.1164;-2.9100;
1628665084248919;-8.9662;-0.4107;-2.9004;
1628665094352617;-9.1460;-0.3314;-3.2405;
1628665104456367;-9.2779;-0.2859;-2.9172;
1628665114553033;-9.1316;-0.1831;-2.4978;
1628665124656731;-8.8059;-0.0969;-3.1950;
1628665134760481;-9.5028;-0.5016;-3.3912;
1628665144861367;-8.8226;-0.3338;-3.1735;
1628665154965064;-9.8336;0.1044;-2.9124;
1628665165068814;-8.8298;0.2124;-3.1325;
1628665175177408;-8.3722;0.2148;-3.4418;
1628665185281106;-8.9303;0.8495;-3.6861;
1628665195384856;-9.6275;1.1847;-3.0703;
1628665205478762;-9.3808;1.1632;-2.5552;
1628665215582460;-8.5376;1.4506;-2.4021;
1628665225686210;-8.4993;1.2111;-3.1831;
1628665235791054;-9.0168;0.9978;-3.0464;
1628665245894752;-9.8839;1.4148;-3.0966;
1628665255998502;-8.1206;1.5368;-2.8837;
1628665266118085;-8.1685;1.3167;-3.5853;
1628665276221783;-9.3903;1.3956;-2.9435;
1628665286325533;-9.7137;0.8088;-2.9243;
1628665296429492;-9.3975;0.8710;-2.3830;
1628665306533189;-10.4635;1.0316;-2.6321;
1628665316636939;-9.8839;0.7801;-2.2247;
1628665326733867;-8.9638;0.8303;-2.9770;
1628665336837564;-9.5342;1.0436;-2.7063;
1628665346941314;-10.0732;0.7537;-2.1434;
1628665357040742;-12.9835;0.4301;-1.9516;
1628665367144439;-10.0059;0.3320;-0.8378;
1628665377248189;-4.0938;0.2602;-2.7135;
1628665387351835;-9.7974;0.0900;-4.7904;
1628665397455533;-14.9121;-1.1797;-2.7302;
1628665407559283;-10.9020;-1.0095;-0.6150;
1628665417661887;-6.2330;0.1331;-2.1529;
1628665427765585;-7.8260;-0.6215;-4.0286;
1628665437869283;-10.1904;-2.1209;-3.6981;
1628665447981783;-10.1785;-1.9989;-2.1458;
1628665458085481;-9.7711;-1.7067;-3.1229;
1628665468189231;-9.1771;-1.5413;-4.0789;
1628665478255846;-7.8547;-1.4312;-4.9125;
1628665488359596;-8.7724;-1.2347;-4.4815;
1628665498463346;-8.5089;-1.5389;-3.9135;
1628665508607304;-7.8356;-1.1821;-4.7450;
1628665518711002;-9.0957;-1.5245;-4.7545;
1628665528814752;-10.5975;-1.9415;-4.8239;
1628665538894908;-11.1197;-1.0143;-3.2883;
1628665548998606;-8.3028;-0.5279;-1.1970;
1628665559102304;-7.2703;-0.4705;-4.1698;
1628665569220429;-9.4741;-0.9784;-5.2840;
1628665579324127;-10.6887;-0.7866;-2.9267;
1628665589427877;-10.5832;-0.7675;-1.6451;
1628665599543606;-9.2441;-0.4585;-2.6776;
1628665609647356;-8.6189;-0.1591;-3.0176;
1628665619751054;-10.2574;-0.3027;-2.9985;
1628665629844075;-10.4563;0.1618;-2.8717;
1628665639947773;-8.7485;0.8830;-2.8235;
1628665650051523;-8.2310;0.8830;-2.6991;
1628665660141523;-8.7628;0.4469;-3.1854;
1628665670245273;-9.2010;0.3296;-3.0655;
1628665680348971;-8.6333;1.1154;-2.5122;
1628665690443762;-9.4382;1.0196;-3.5590;
1628665700547460;-10.0298;0.9452;-3.0799;
1628665710651210;-8.2669;0.9404;-2.5313;
1628665720760846;-7.7662;1.1824;-3.1711;
1628665730864596;-8.6022;0.8303;-3.9087;
1628665740968346;-9.3042;0.6458;-2.7733;
1628665751091575;-8.6094;1.2422;-2.4787;
1628665761195273;-8.2023;1.3597;-4.2754;
1628665771299023;-10.7510;1.1417;-4.2275;
1628665781410429;-10.1976;1.6687;-2.0354;
1628665791514127;-8.5328;1.4148;-3.0272;
1628665801617877;-9.3042;1.8867;-3.3888;
1628665811709492;-9.4621;0.7896;-2.4882;
1628665821813189;-9.7256;0.8925;-3.1086;
1628665831916939;-10.0274;0.8303;-2.9459;
1628665842013242;-10.5760;0.5381;-2.2152;
1628665852116939;-9.2850;0.7466;-1.7192;
1628665862220689;-11.7069;0.2602;-2.5887;
1628665872329908;-11.6806;0.0087;-1.9325;
1628665882433606;-9.2922;-0.1854;-1.8344;
1628665892537356;-6.9829;0.2770;-1.9540;
1628665902641887;-8.0201;-0.0440;-3.7938;
1628665912745585;-9.9580;-0.3027;-4.1602;
1628665922849335;-10.0514;-0.4083;-3.1229;
1628665932947721;-7.7351;-0.0081;-3.1974;
1628665943051419;-6.7911;-0.2166;-4.7040;
1628665953155169;-8.8250;-0.4083;-5.2310;
1628665963271054;-10.6528;-1.3232;-3.2596;
1628665973374804;-11.3593;-1.0741;-2.7541;
1628665983478710;-17.2786;-0.7005;-0.4762;
1628665993590064;0.4576;-0.6526;-1.0965;
1628666003693919;-5.8116;0.7513;-6.0120;
1628666013797721;-7.1216;-0.9497;-8.3333;
1628666023876627;-10.8996;-1.1844;-4.2754;
1628666033980429;-13.2999;-1.3352;-1.5613;
1628666044084283;-11.2014;-0.9616;-2.3303;
1628666054197617;-9.0072;-0.2070;-2.5624;
1628666064301367;-9.1484;-0.4944;-2.0764;
1628666074405221;-8.4177;-0.4896;-2.1362;
1628666084514283;-9.5653;-0.7651;-3.2572;
1628666094618085;-11.6683;-0.8130;-2.5002;
1628666104721887;-10.3196;-0.5327;-1.2281;
1628666114816575;-7.4692;-0.2692;-2.8164;
1628666124920377;-8.1422;-0.3003;-4.3639;
1628666135024231;-7.8858;-1.1219;-4.6633;
1628666145125585;-12.6314;-0.4226;-5.9258;
1628666155229387;-14.2627;-0.6311;0.6906;
1628666165333242;-7.1240;0.0422;0.9996;
1628666175440221;-10.2120;0.1905;-2.3566;
1628666185544023;-8.1111;0.2818;-1.0917;
1628666195647877;-9.5845;0.8518;-3.4872;
1628666205746679;-9.8480;0.9428;-3.8082;
1628666215850481;-5.9408;1.4746;-3.5375;
1628666225954283;-6.7193;1.2927;-4.7880;
1628666236064179;-8.0608;0.1140;-5.6934;
1628666246167929;-8.1589;0.4110;-5.1855;
1628666256271835;-9.2898;0.8590;-4.7327;
1628666266385950;-9.7208;0.5381;-4.0932;
1628666276489752;-7.7207;0.3583;-3.4681;
1628666286593606;-8.1254;0.1977;-2.5648;
1628666296686002;-10.3292;-0.0033;-2.9028;
1628666306789804;-12.0254;-0.1472;-2.4739;
1628666316893606;-8.3411;0.5524;-1.4868;
1628666327003242;-8.5878;1.0771;-3.1205;
1628666337107044;-12.3248;1.1728;-4.2156;
1628666347210898;-12.0374;0.5213;-1.4773;
1628666357306367;-9.3808;0.6482;-0.8713;
1628666367410117;-8.1900;0.4588;-2.3806;
1628666377513971;-9.9317;0.0829;-2.6512;
1628666387612669;-10.2263;-0.5399;-1.7169;
1628666397716523;-10.0561;-0.2620;-1.0343;
1628666407820377;-10.2933;-0.4011;-1.1420;
1628666417923346;-8.9183;-0.9425;-1.7743;
1628666428027148;-10.2814;-0.9066;-2.0907;
1628666438131002;-7.3158;-0.8441;-2.1266;
1628666448232669;-2.4434;-1.0119;-5.0420;
1628666458336471;-7.2488;-0.8058;-8.0148;
1628666468440325;-20.1413;-1.2921;-4.3878;
1628666478551939;-16.2078;-0.8082;3.2321;
1628666488655742;2.3429;-0.0559;0.7935;
1628666498759544;7.7662;1.7381;-12.1086;
1628666508877252;-7.9914;-0.5303;-17.8409;
1628666518981002;-23.1571;-2.1497;-2.5911;
1628666529084856;-19.6095;-1.6107;9.4487;
1628666539170533;-7.4644;0.0039;4.7916;
1628666549274283;-4.4100;0.7271;-4.3352;
1628666559378137;-9.1627;-0.1184;-8.6279;
1628666569512669;-10.0107;-0.9018;-7.0181;
1628666579616523;-10.5640;-0.8536;-1.6283;
1628666589720325;-12.0589;-0.7747;-0.2174;
1628666599779804;-11.2588;-0.8755;-2.7924;
1628666609883606;-7.6582;-0.2070;-1.7886;
1628666619987460;-6.5973;0.2363;-1.5661;
1628666630127669;-9.1914;-0.8584;-4.9962;
1628666640231523;-12.0637;-0.3820;-3.0105;
1628666650335325;-8.6381;-0.3461;4.6911;
1628666660408502;-2.8074;-1.0573;-0.0903;
1628666670512304;-6.9254;-1.0190;-12.2477;
1628666680616158;-11.9441;-0.1567;-8.9895;
1628666690754231;-9.8121;-0.9568;-1.0941;
1628666700858033;-9.3640;-0.1089;-1.0822;
1628666710961887;-10.4492;0.8662;-4.1267;
1628666721069856;-10.5975;0.6218;-5.2454;
1628666731173710;-10.8251;1.6591;-1.4462;
1628666741277512;-8.8179;2.0183;-0.9550;
1628666751369127;-8.2502;2.1000;-3.1301;
1628666761472929;-9.3520;2.2579;-1.4629;
1628666771576783;-9.2898;1.3597;-2.5528;
1628666781648085;-8.4583;0.9117;-3.3529;
1628666791751835;-8.5113;1.4076;-2.9530;
1628666801855742;-10.0155;0.6194;-5.4993;
1628666811969648;-10.8634;0.9165;-2.6369;
1628666822073450;-9.5749;0.3583;-1.9277;
1628666832177356;-7.9508;-0.1448;-3.8441;
1628666842288085;-7.8858;0.0446;-3.5925;
1628666852391887;-9.7807;-0.6933;-4.2179;
1628666862495742;-9.6610;0.1259;-2.6441;
1628666872595950;-8.2334;-0.0464;-3.5614;
1628666882699752;-7.0881;0.0278;-5.1592;
1628666892803554;-9.7424;0.5166;-2.4284;
1628666902912669;-10.8658;-0.5758;-2.6010;
1628666913016471;-7.7949;-0.0655;-1.7001;
1628666923120325;-6.5803;0.1834;-3.5207;
1628666933228762;-9.2560;-0.3843;-5.6815;
1628666943332564;-10.5353;0.0541;-1.6738;
1628666953432721;-9.8360;-0.5351;-2.6991;
1628666963536575;-10.2072;-0.3915;-3.3266;
1628666973640377;-8.1494;-0.0416;-2.6082;
1628666983743085;-8.7700;-0.7412;-3.5040;
1628666993846887;-11.2301;-0.2261;-1.3959;
1628667003950742;-10.8108;-0.5782;-3.1759;
1628667014048971;-8.5735;0.4735;-1.6259;
1628667024152773;-9.7328;0.1235;-1.9756;
1628667034256627;-10.4659;-0.3485;-2.1386;
1628667044352044;-7.7901;-0.3676;-0.8761;
1628667054455846;-7.5721;-0.9353;-5.1903;
1628667064559700;-9.4980;-0.1591;-3.9087;
1628667074671783;-10.0875;-0.9305;-3.4729;
1628667084775585;-10.8586;-0.0392;-1.8775;
1628667094879387;-9.4119;-0.7819;-2.5265;
1628667104980325;-7.2368;-0.5303;-3.5614;
1628667115084127;-8.4320;-0.2812;-3.9401;
1628667125187981;-9.7161;-0.4920;-3.1301;
1628667135294335;-9.5629;-0.0706;-3.0679;
1628667145398085;-8.9399;-0.1065;-3.6212;
1628667155501939;-7.6367;0.2076;-3.0631;
1628667165603242;-9.2034;0.2530;-4.3184;
1628667175706992;-10.6863;0.1499;-1.9588;
1628667185810898;-10.5066;-0.3963;-3.4083;
1628667195914283;-8.8705;0.6912;-1.9756;
1628667206018085;-8.7027;0.3009;-4.4791;
1628667216121939;-9.4143;0.9308;-2.2750;
1628667226211575;-8.6931;-0.5638;-3.4609;
1628667236315377;-8.1517;-0.0873;-3.2548;
1628667246419179;-9.9700;-0.0368;-4.2586;
1628667256554179;-10.0298;0.0350;-1.6810;
1628667266657981;-9.7615;-0.1543;-3.2118;
1628667276761835;-9.6443;0.8495;-2.3013;
1628667286853033;-7.7877;0.4612;-2.3495;
1628667296956835;-9.6682;0.6290;-2.1697;
1628667307060689;-10.5353;-0.1543;-1.9445;
1628667317164075;-8.6118;-0.1137;-2.1673;
1628667327267877;-6.6452;0.2937;-4.6274;
1628667337371731;-7.9026;0.8016;-5.6384;
1628667347486002;-9.7352;-0.0200;-4.6250;
1628667357589804;-11.8744;-0.6407;-1.6857;
1628667367693606;-10.9594;-0.8608;-1.9373;
1628667377781575;-10.1474;0.3918;-1.2066;
1628667387885377;-8.2047;-0.1591;-1.5084;
1628667397989179;-8.0680;0.6840;-2.8116;
1628667408093450;-9.3999;0.5046;-4.8814;
1628667418197200;-9.8073;0.7223;-1.7336;
1628667428301054;-9.5773;-0.4155;-2.8837;
1628667438374179;-8.8657;0.0422;-2.9315;
1628667448478033;-7.9843;-0.1807;-4.5748;
1628667458581835;-8.7652;0.3105;-4.2969;
1628667468711992;-11.9465;0.1355;-4.2754;
1628667478815794;-11.5343;-0.2285;-1.1228;
1628667488919596;-7.9986;-0.6191;-0.9837;
1628667498974856;-7.5147;-0.4992;-3.7005;
1628667509078710;-9.7113;-0.2309;-3.8010;
1628667519182512;-9.4119;-1.0310;-3.9111;
1628667529329075;-11.7260;0.3416;-2.5289;
1628667539432877;-10.1163;-0.2907;-2.7876;
1628667549536679;-7.9962;-0.6550;-1.4629;
1628667559704023;-9.4693;0.8303;-3.1253;
1628667569807877;-8.8442;-0.5734;-3.6523;
1628667579911679;-6.8776;-0.0873;-3.3194;
1628667589937096;-8.1494;-0.3939;-5.7317;
1628667600040898;-9.4334;0.1857;-3.6981;
1628667610144700;-9.0048;-0.5901;-4.0047;
1628667620332096;-9.8049;-0.4298;-3.5064;
1628667630435950;-9.3281;0.2578;-2.5217;
1628667640539752;-9.9509;0.0063;-2.3997;
1628667650580846;-7.2655;0.5405;-2.5026;
1628667660684648;-11.9967;1.1991;-4.5437;
1628667670788502;-14.8905;1.3095;-0.3203;
1628667680904960;-6.5444;1.2879;1.3062;
1628667691008762;-5.2316;0.4564;-4.5939;
1628667701112617;-7.9074;1.4459;-5.6719;
1628667711216262;-9.4860;1.9035;-6.3090;
1628667721320064;-12.7247;2.4999;-1.3839;
1628667731423919;-3.5907;1.0172;-0.0473;
1628667741535169;-3.7490;-0.2883;-6.8432;
1628667751639023;-16.6678;2.0952;-5.6025;
1628667761742825;-16.6367;0.9954;2.9183;
1628667771830533;-6.0607;-0.5279;4.6143;
1628667781934283;-5.7778;0.4493;-3.3171;
1628667792038137;-11.8816;1.8772;-8.2807;
1628667802138971;-10.6887;2.0183;-1.1372;
1628667812242773;-6.6188;0.5453;-1.7985;
1628667822346575;-10.9618;0.0206;-5.3366;
1628667832456992;-10.3077;0.3823;-0.8641;
1628667842560794;-7.8428;-0.7555;-0.4113;
1628667852664648;-8.2645;-0.7172;-1.3696;
1628667862759075;-7.3158;-0.8465;-3.7651;
1628667872862877;-12.3894;-1.8670;-2.1984;
1628667882966731;-9.6706;-1.5820;5.1604;
1628667893096731;-6.8680;-2.7751;-0.2940;
1628667903200585;-10.5257;-2.4275;-6.2850;
1628667913304387;-13.3358;-0.8779;-3.8536;
1628667923378554;-13.4842;-0.0631;2.7963;
1628667933482356;-7.9316;-1.1195;3.3018;
1628667943586210;-8.0273;-1.2538;-3.4920;
1628667953693033;-12.1834;-0.1926;-4.8742;
1628667963796731;-10.7462;1.5057;-0.2438;
1628667973900429;-9.4597;0.3703;0.8198;
1628667984013398;-10.8443;0.1187;-0.2103;
1628667994117096;-11.0982;0.0709;-0.6532;
1628668004220794;-9.3903;0.3727;-0.4208;
1628668014318710;-9.6467;0.8901;-0.6341;
1628668024422408;-8.8633;1.0675;-0.9215;
1628668034526106;-7.8500;0.2243;-2.7781;
1628668044624023;-10.4444;0.2363;-3.5542;
1628668054727721;-9.6395;1.8102;-2.1338;
1628668064831419;-8.7317;1.0292;-3.4513;
1628668074939127;-9.4549;0.2818;-3.8632;
1628668085042825;-10.1354;1.5153;-2.0115;
1628668095146523;-7.9436;1.5514;-2.6895;
1628668105244752;-7.9122;0.6697;-3.6595;
1628668115348398;-8.2693;1.5129;-2.5986;
1628668125452096;-9.0431;0.5166;-2.9770;
1628668135568450;-11.3498;0.5788;-3.1639;
1628668145672148;-10.5114;1.1082;-2.3204;
1628668155775846;-10.0681;0.6290;-2.4260;
1628668165872773;-9.0909;1.4243;-2.2869;
1628668175976471;-9.9126;1.3023;-2.3662;
1628668186080169;-12.2842;2.0303;-2.0883;
1628668196181731;-10.2981;1.4315;-0.8521;
1628668206285429;-6.3386;0.7848;-1.5876;
1628668216389127;-7.0762;1.3119;-2.9698;
1628668226488867;-11.1341;1.5993;-2.8717;
1628668236592512;-10.2072;1.5897;-3.9832;
1628668246696210;-10.0131;1.3310;-3.2931;
1628668256821835;-9.8456;1.4459;-2.2391;
1628668266925533;-7.9986;0.7801;-2.2080;
1628668277029231;-9.1101;0.2650;-1.7408;
1628668287121939;-9.3281;0.3033;-1.6642;
1628668297225637;-8.8394;-0.1567;-3.1831;
1628668307329335;-11.1990;-0.5447;-2.6728;
1628668317432460;-10.1450;0.7801;-2.4236;
1628668327536158;-8.8872;-0.4107;-1.7432;
1628668337639856;-7.5314;-0.6550;-2.6010;
1628668347742981;-9.2178;-0.3218;-2.6632;
1628668357846679;-11.4673;0.1211;-1.7312;
1628668367950377;-8.8011;-0.9784;-2.4117;
1628668378052981;-8.5113;-0.0105;-2.6058;
1628668388156679;-9.5100;0.3990;-1.9612;
1628668398260377;-10.0155;-0.3963;-2.1793;
1628668408359023;-11.4147;0.0063;-2.2008;
1628668418462721;-10.4444;-0.4155;-0.5575;
1628668428566419;-8.7485;-0.0583;-0.8282;
1628668438675012;-8.7437;0.0111;-0.6317;
1628668448778762;-10.8781;-0.0176;-0.6365;
1628668458882460;-10.8419;0.1977;-0.8067;
1628668468973450;-7.5864;-0.6670;0.1158;
1628668479077096;-9.0215;0.0350;0.0078;
1628668489180794;-11.4147;-0.5327;-0.0401;
1628668499283919;-10.5832;-0.2261;0.1325;
1628668509387617;-7.6056;-0.5662;-0.3108;
1628668519491314;-8.4682;0.1187;0.3191;
1628668529661627;-10.5616;0.2698;0.1373;
1628668539765325;-9.9413;-0.5112;-0.2797;
1628668549869023;-11.4769;0.5142;0.7481;
1628668559923294;-12.0518;0.2267;1.4907;
1628668570026992;-9.2345;0.7466;0.8318;
1628668580130689;-9.4813;-0.2835;2.3028;
1628668590221835;-10.8948;1.0507;1.1001;
1628668600325533;-11.8552;1.1871;1.3899;
1628668610429231;-8.8729;0.2746;0.9876;
1628668620552617;-8.7796;0.9835;0.7696;
1628668630656367;-10.9762;1.2855;0.7792;
1628668640760064;-10.8634;1.3143;-0.0951;
1628668650842200;-8.5065;0.5788;-0.5982;
1628668660945846;-7.2392;1.0531;-1.7551;
1628668671049544;-9.2178;1.4794;-2.8451;
1628668681174283;-12.5285;2.3563;-2.7374;
1628668691277981;-9.0215;1.7764;-2.1410;
1628668701381627;-7.5242;1.0412;-1.4079;
1628668711469908;-11.5463;1.5730;-0.5121;
1628668721573554;-9.8934;0.8662;-0.4376;
1628668731677252;-9.2034;0.3416;-0.6054;
1628668741785794;-11.4123;0.8973;-0.7612;
1628668751889492;-10.2024;1.0364;-0.6724;
1628668761993189;-6.1158;-0.0778;-0.0664;
1628668772102044;-8.1709;0.2459;-0.1717;
1628668782205742;-11.6061;0.0709;-2.0450;
1628668792309439;-11.5439;-0.1998;-2.8717;
1628668802403242;-7.9316;-0.1831;-1.7192;
1628668812506887;-6.8079;-0.3580;-1.8392;
1628668822610585;-9.9389;0.4301;-2.4547;
1628668832728814;-12.7247;-0.0416;-2.0139;
1628668842832512;-9.8432;-0.2907;-0.2988;
1628668852936210;-7.3325;-1.1725;0.9613;
1628668863028085;-9.9772;-1.1486;0.4032;
1628668873131783;-13.3525;-0.8225;0.5803;
1628668883235481;-10.4516;-1.5987;0.5827;
1628668893338137;-9.1029;-1.4049;1.2272;
1628668903441887;-8.7413;-0.2644;0.4487;
1628668913545585;-9.3233;-0.6598;-0.9024;
1628668923650533;-10.3654;0.5453;-1.1731;
1628668933754231;-10.9762;0.4253;-1.0726;
1628668943857929;-11.2899;0.8901;-0.3036;
1628668953958710;-9.3855;-0.0945;0.9446;
1628668964062408;-9.4525;0.7920;1.1865;
1628668974166106;-10.8538;0.5812;1.7351;
1628668984291419;-10.4587;1.1895;1.6032;
1628668994395117;-9.5148;0.9763;0.4439;
1628669004498814;-9.9556;1.1919;1.2009;
1628669014591367;-9.3185;0.6075;-0.2127;
1628669024695064;-10.2383;0.6314;0.5922;
1628669034798762;-11.2325;0.1044;-0.5551;
1628669044892929;-10.2550;0.2961;-0.7828;
1628669054996627;-10.2766;1.0053;-0.3802;
1628669065100273;-10.4970;1.0747;-0.3562;
1628669075210377;-11.0575;0.9332;0.0894;
1628669085314075;-10.0131;-0.1950;0.3144;
1628669095417773;-10.4037;0.9858;0.3721;
1628669105522877;-10.4946;1.7931;0.2163;
1628669115626575;-9.3760;0.9212;0.6476;
1628669125730273;-8.7242;0.6793;0.6547;
1628669135839648;-7.7518;0.7442;-0.3586;
1628669145943346;-9.6658;1.6783;-2.1936;
1628669156047044;-11.1535;1.8556;-2.9794;
1628669166147877;-10.0155;0.6266;-2.5863;
1628669176251575;-7.7734;-0.0129;-2.1314;
1628669186355273;-9.9604;0.5405;-1.6499;
1628669196455117;-11.0599;0.2746;-0.9694;
1628669206558814;-9.9676;-0.4920;-0.1334;
1628669216662512;-9.4549;-0.3194;1.2823;
1628669226784231;-9.1077;-0.9353;1.6247;
1628669236887929;-11.8816;-0.7436;0.9087;
1628669246991627;-11.5008;-0.6909;0.7241;
1628669257105117;-10.1163;-1.0836;0.9876;
1628669267208814;-9.8049;-1.5843;1.0355;
1628669277312512;-9.1890;-0.6096;-1.3146;
1628669287391783;-10.6361;0.8375;-1.4246;
1628669297495481;-10.3101;-0.1280;-1.4222;
1628669307599179;-10.4516;0.7056;-1.5422;
1628669317695064;-9.2249;0.8351;-1.2787;
1628669327798814;-8.9327;0.1714;0.3482;
1628669337902460;-9.7089;0.2961;0.3239;
1628669348008085;-11.5582;1.4626;0.0990;
1628669358111783;-12.2985;0.5429;1.6271;
1628669368215481;-9.4884;0.0613;1.7303;
1628669378318554;-8.6453;1.0196;1.5003;
1628669388422252;-10.9738;0.6505;1.5194;
1628669398525898;-10.7845;0.5046;0.7337;
1628669408622617;-10.0011;0.9165;-0.1669;
1628669418726262;-6.7481;0.3942;-0.0066;
1628669428829960;-9.7400;0.4807;-0.8737;
1628669438959127;-12.8710;1.4746;-2.9243;
1628669449062825;-9.2130;0.7561;-1.2667;
1628669459166523;-8.7437;1.3717;-0.7277;
1628669469241262;-10.0202;0.9619;-0.2222;
1628669479344908;-9.1173;0.5979;-0.0640;
1628669489448606;-9.6036;0.8495;-0.3060;
1628669499579231;-11.0527;0.9835;-0.3347;
1628669509682929;-11.3833;0.9404;0.2904;
1628669519786627;-10.8658;0.4636;0.5731;
1628669529865846;-8.7075;0.3727;1.1530;
1628669539969544;-9.0191;0.1905;0.9422;
1628669550073189;-10.3678;-0.3314;0.3817;
1628669560205012;-10.2000;0.9356;-0.5647;
1628669570308710;-8.6931;-0.4944;-0.9263;
1628669580412408;-9.7591;0.5788;-0.9407;
1628669590476939;-9.8480;-0.0897;-1.2018;
1628669600580637;-8.1757;0.7343;-2.7733;
1628669610684335;-10.0442;-0.4729;-0.9646;
1628669620832564;-10.6505;-0.0849;-2.0258;
1628669630936262;-12.0518;-0.0129;-0.9335;
1628669641039960;-10.7103;-0.4777;0.6763;
1628669651120273;-7.1889;0.4783;1.4764;
1628669661224023;-9.4167;-0.5877;1.6872;
1628669671327669;-13.3717;0.5859;0.8677;
1628669681449231;-8.6237;-0.3242;0.6114;
1628669691552929;-8.9638;1.4770;1.1865;
1628669701656627;-12.7056;0.6984;-0.2486;
1628669711746002;-8.5089;0.1834;-1.1420;
1628669721849700;-8.3267;0.5596;0.7241;
1628669731953398;-10.7725;1.2446;-1.5948;
1628669742049492;-10.4228;0.0589;-2.2893;
1628669752153137;-10.0466;0.7295;-0.3371;
1628669762256835;-11.3785;-0.0631;-0.6867;
1628669772371210;-8.5902;0.5501;0.4606;
1628669782474908;-7.4548;-0.7484;1.6080;
1628669792578606;-12.8710;0.6003;0.7648;
1628669802690689;-10.1904;-0.0897;0.7911;
1628669812794439;-9.9197;0.7992;1.5123;
1628669822898085;-9.4860;-0.2644;0.8151;
1628669832995481;-6.8871;0.9571;0.4582;
1628669843099179;-12.7391;0.0398;-0.3682;
1628669853202877;-14.2053;0.6170;-1.3265;
1628669863297617;-7.0499;-0.0081;-0.4161;
1628669873401262;-8.3339;0.6194;0.9709;
1628669883504960;-10.7892;0.1427;0.1445;
1628669893644023;-12.1594;0.1451;-0.1095;
1628669903747721;-8.8346;0.0661;0.8198;
1628669913851419;-7.9002;-0.3437;1.3181;
1628669923931835;-11.3976;0.3368;1.5434;
1628669934035533;-10.6337;-0.7268;0.4295;
1628669944139231;-11.0958;0.3153;0.5252;
1628669954207721;-9.4238;-0.2237;0.4654;
1628669964311419;-11.3091;0.1068;0.2761;
1628669974415117;-11.1341;0.8160;0.2450;
1628669984561939;-10.0947;0.5166;-0.1214;
1628669994665637;-10.6122;1.0436;0.6787;
1628670004769335;-8.0656;0.6099;0.4582;
1628670014857356;-8.8992;-0.2405;-0.1167;
1628670024961054;-9.5725;0.8040;-0.2940;
1628670035064752;-8.6070;0.4684;-0.8809;
1628670045169231;-8.8490;0.4588;-1.2018;
1628670055272929;-10.1521;0.5237;-1.1922;
1628670065376627;-10.0681;0.1187;-1.7456;
1628670075481835;-8.4634;0.0374;-0.1167;
1628670085585533;-9.1675;0.0063;-0.0473;
1628670095689231;-12.0230;0.0781;-0.7612;
1628670105787044;-10.9522;0.1355;0.3649;
1628670115890742;-8.2190;0.1977;1.9914;
1628670125994439;-9.6419;-1.0765;1.0379;
1628670136095117;-11.7332;0.0182;0.6138;
1628670146198814;-10.2335;-0.9473;0.1038;
1628670156302460;-10.7246;-0.3266;0.1732;
1628670166412981;-9.0526;-0.9568;0.5180;
1628670176516731;-10.5305;-0.4561;0.0293;
1628670186620377;-9.2608;-1.3902;-0.5599;
1628670196719492;-10.1976;-0.3652;-1.3839;
1628670206823137;-11.6731;-0.1543;-0.8737;
1628670216926835;-10.0899;0.5046;-0.7445;
1628670227022148;-8.3913;0.7008;-0.4017;
1628670237125846;-12.1164;0.7490;-0.0473;
1628670247229544;-9.7280;0.2770;0.2139;
1628670257342356;-8.7389;-0.6168;0.3096;
1628670267446106;-10.8610;-0.1831;0.6188;
1628670277549752;-11.0791;0.3392;-0.2414;
1628670287672460;-10.5114;0.2124;0.1038;
1628670297776158;-8.6261;-0.2477;0.1995;
1628670307879856;-11.6901;1.0364;0.1062;
1628670317982877;-10.5832;1.2517;-0.0879;
1628670328086575;-8.4272;1.9585;-0.3347;
1628670338190273;-8.6883;1.8269;0.5228;
1628670348274387;-11.3713;2.5047;-0.5049;
1628670358378033;-9.5629;3.1875;-0.1789;
1628670368481731;-8.7700;2.8448;0.4032;
1628670378587773;-10.8538;2.2484;0.3745;
1628670388691523;-11.1126;2.6076;0.9709;
1628670398795169;-8.1948;2.2149;1.4955;
1628670408904700;-8.8250;3.2880;1.1169;
1628670419008450;-10.7222;2.4473;1.4931;
1628670429112096;-10.7175;2.6318;0.5085;
1628670439217044;-9.9245;2.6076;1.0451;
1628670449320742;-8.7365;3.2426;0.9517;
1628670459424439;-9.2803;2.9408;0.7289;
1628670469528502;-12.2001;1.9513;0.5492;
1628670479632200;-10.9499;1.6376;0.4175;
1628670489735898;-9.0742;2.1120;0.9541;
1628670499795064;-9.5366;2.6127;0.7217;
1628670509898762;-10.4276;1.3071;1.5410;
1628670520002408;-11.3067;0.8830;1.2224;
1628670530165117;-9.0215;0.6649;1.0068;
1628670540268867;-7.8284;0.2411;1.5314;
1628670550372564;-11.5295;-0.2788;1.5027;
1628670560460585;-10.9331;-0.4825;1.0642;
1628670570564283;-8.6381;-1.4360;1.3780;
1628670580667981;-9.7376;-2.8516;2.0608;
1628670590780012;-11.1006;-2.5738;1.2727;
1628670600883710;-10.5927;-2.4514;0.7265;
1628670610987356;-10.1330;-2.4251;1.0977;
1628670621091627;-11.4434;-2.4706;1.4644;
1628670631195325;-10.7079;-2.2265;1.4859;
1628670641299023;-9.8145;-1.9917;1.5912;
1628670651410585;-10.5927;-1.5030;1.3899;
1628670661514283;-10.5736;-1.2012;1.3349;
1628670671617981;-10.2766;-0.8850;0.7696;
1628670681709648;-9.8504;-0.3604;0.1660;
1628670691813346;-10.0107;0.3224;-0.5456;
1628670701917044;-10.0514;-0.1113;-0.7202;
1628670712006887;-10.1856;-0.3772;-0.8426;
1628670722110533;-10.4970;-0.1041;-1.3122;
1628670732214231;-10.4444;0.4325;-1.1659;
1628670742325689;-9.6562;0.6434;-0.9335;
1628670752429387;-9.3257;0.9404;-0.6317;
1628670762533085;-10.2503;1.2832;-0.6317;
1628670772640898;-10.7007;1.5993;-0.4953;
1628670782744596;-10.1904;2.0614;-0.6078;
1628670792848294;-9.1412;2.4712;-0.6461;
1628670802945325;-8.5783;3.0150;-0.9215;
1628670813048971;-9.1579;3.1947;-1.2185;
1628670823152669;-9.8264;3.6736;-1.1300;
1628670833273450;-10.3726;3.7624;-2.3252;
1628670843377148;-10.0442;3.5228;-2.9554;
1628670853480846;-9.2994;2.7945;-2.8717;
1628670863575273;-9.6180;1.5153;-4.1172;
1628670873678971;-9.4908;2.2196;-3.9449;
1628670883782669;-8.9853;1.8317;-3.7220;
1628670893867929;-8.9614;0.9882;-2.4428;
1628670903971575;-9.5510;-0.2859;-1.1085;
1628670914075273;-10.3005;-2.0659;-0.0353;
1628670924192981;-10.4013;-3.8243;0.1229;
1628670934296679;-10.6409;-3.7140;-0.5025;
1628670944400377;-10.4444;-4.3920;-0.2653;
1628670954507825;-9.2827;-4.0564;-1.1157;
1628670964611783;-8.6501;-4.0493;-1.3193;
1628670974715742;-9.7280;-4.3920;-3.0105;
1628670984800377;-10.3268;-4.3681;-2.9841;
1628670994904335;-9.7950;-4.3128;-0.3323;
1628671005008346;-9.8886;-3.8937;0.8151;
1628671015126367;-9.5821;-2.6767;-0.3156;
1628671025230325;-8.8202;-1.5030;-0.6341;
1628671035334231;-8.8585;-0.9616;-1.4725;
1628671045434544;-8.8513;0.5716;-2.5098;
1628671055538502;-9.1388;2.0207;-1.0510;
1628671065642512;-9.6921;1.9322;-2.0617;
1628671075747669;-9.9867;0.4325;-4.4357;
1628671085851627;-9.6849;0.9117;-4.1937;
1628671095955585;-9.3999;-0.6502;-1.1372;
1628671106060950;-9.7232;-0.5016;-0.1717;
1628671116164908;-9.8551;-0.8898;-1.2882;
1628671126268867;-9.2755;-0.7579;-1.1898;
1628671136372512;-9.1699;-0.0153;-1.8583;
1628671146476419;-10.0250;-0.4418;-3.1472;
1628671156580429;-9.8432;-1.0478;-2.1625;
1628671166683762;-9.1603;-1.1964;-1.0175;
1628671176787721;-9.4884;-0.7220;-1.8751;
1628671186891679;-9.6562;-0.1854;-2.1553;
1628671196986731;-9.3209;0.0613;-1.2643;
1628671207090742;-9.7687;0.0852;-1.6690;
1628671217194700;-10.1139;0.1403;-2.0979;
1628671227304387;-9.3927;0.3224;-1.7049;
1628671237408346;-9.0909;0.4564;-2.1721;
1628671247512304;-9.3903;0.5333;-2.4380;
1628671257640533;-9.5438;-0.1352;-1.2185;
1628671267744492;-9.9915;-0.4992;-1.4677;
1628671277848450;-10.1091;-0.0873;-1.9612;
1628671287949335;-9.5414;-0.2237;-2.1601;
1628671298053294;-9.3616;-0.3051;-2.7781;
1628671308157252;-9.2297;-0.1759;-2.6943;
1628671318243554;-9.1244;-0.1687;-2.0354;
1628671328347512;-9.5701;-0.4322;-1.7961;
1628671338451523;-9.7328;-0.0009;-1.2643;
1628671348540950;-9.9150;0.0063;-1.4677;
1628671358644908;-9.6323;0.1977;-1.7456;
1628671368748919;-9.1795;1.5320;-2.5887;
1628671378847773;-9.2297;1.9466;-3.2668;
1628671388951731;-9.2106;1.7812;-3.0368;
1628671399055689;-9.0885;1.7501;-2.2654;
1628671409172929;-9.5172;1.6017;-1.6762;
1628671419276887;-10.0514;1.5634;-1.7695;
1628671429380846;-9.8910;1.4171;-1.9205;
1628671439473710;-9.5438;0.8638;-2.2965;
1628671449577721;-9.3497;0.3272;-2.8020;
1628671459681679;-9.0742;0.4253;-2.9291;
1628671469786575;-8.9806;0.5596;-2.5098;
1628671479890533;-9.4214;0.5931;-2.1625;
1628671489994492;-9.8862;0.5644;-1.9828;
1628671500132252;-9.8527;0.7152;-1.8368;
1628671510236210;-9.5124;1.2398;-2.1864;
1628671520340169;-9.2297;1.4052;-2.5385;
1628671530406939;-9.1412;1.3765;-2.7661;
1628671540510898;-9.2489;1.1010;-2.6632;
1628671550614856;-9.4478;0.7513;-2.6871;
1628671560716314;-9.5219;0.6027;-2.6369;
1628671570820273;-9.3855;0.5166;-2.3590;
1628671580924231;-9.3090;0.4564;-2.2941;
1628671591053502;-9.3090;0.2985;-2.0955;
1628671601157460;-9.3497;0.0924;-1.9038;
1628671611261419;-9.5438;-0.2094;-1.8990;
1628671621348867;-9.6802;-0.2835;-2.3830;
1628671631452773;-9.4645;-0.2548;-2.7565;
1628671641556783;-9.2898;-0.2716;-2.8908;
1628671651661314;-9.3066;-0.3051;-2.8044;
1628671661765273;-9.2683;-0.4370;-2.3590;
1628671671869283;-9.4119;-0.7819;-2.0163;
1628671681992044;-9.6419;-1.1195;-1.9325;
1628671692096002;-9.7017;-1.4384;-1.9134;
1628671702199960;-9.6610;-1.8215;-1.8894;
1628671712281523;-9.5581;-2.0922;-1.8894;
1628671722385533;-9.4621;-2.1808;-1.9516;
1628671732489492;-9.4406;-2.1305;-2.0282;
1628671742590117;-9.4908;-2.0133;-2.0498;
1628671752694075;-9.5988;-1.9774;-2.0593;
1628671762798033;-9.6323;-1.9845;-2.0521;
1628671772921835;-9.5533;-1.9869;-1.8416;
1628671783025794;-9.5219;-1.9487;-1.7192;
1628671793129752;-9.5052;-1.8837;-1.7288;
1628671803212877;-9.4789;-1.7019;-1.8248;
1628671813316887;-9.4837;-1.1892;-2.2271;
1628671823420846;-9.4549;-0.8082;-2.5986;
1628671833531367;-9.3832;-0.7603;-2.3303;
1628671843635325;-9.4884;-0.5638;-2.1170;
1628671853739231;-9.4860;-0.4825;-2.0115;
1628671863841992;-9.4454;-0.5303;-2.0716;
1628671873945950;-9.4884;-0.7077;-2.2080;
1628671884049908;-9.5267;-0.8393;-2.3901;
1628671894169127;-9.4956;-0.8922;-2.4069;
1628671904273085;-9.4406;-0.9520;-2.1673;
1628671914377096;-9.4645;-0.9784;-2.0091;
1628671924475169;-9.4813;-0.8201;-2.0354;
1628671934579127;-9.4956;-0.6407;-2.0474;
1628671944683085;-9.5148;-0.6766;-2.0668;
1628671954801158;-9.5267;-0.6909;-2.1434;
1628671964905117;-9.4717;-0.7029;-2.0955;
1628671975009075;-9.4358;-0.6885;-2.0450;
1628671985086835;-9.4525;-0.7340;-2.0163;
1628671995190794;-9.5390;-0.7819;-2.0716;
1628672005294752;-9.5219;-0.7484;-2.1027;
1628672015395117;-9.5052;-0.7292;-2.1123;
1628672025499075;-9.4980;-0.7938;-2.0859;
1628672035602981;-9.4717;-0.8225;-2.0091;
1628672045701262;-9.4813;-0.7842;-1.9588;
1628672055805169;-9.5390;-0.7531;-1.9995;
1628672065909179;-9.5701;-0.7723;-2.0402;
1628672076014960;-9.5486;-0.7771;-2.0378;
1628672086118971;-9.5052;-0.7795;-2.0474;
1628672096222929;-9.4645;-0.7579;-2.0521;
1628672106340117;-9.4669;-0.7292;-2.0115;
1628672116444075;-9.4765;-0.7436;-1.9851;
1628672126547981;-9.5267;-0.7172;-1.9947;
1628672136639231;-9.5267;-0.6622;-2.0258;
1628672146743242;-9.5028;-0.5853;-2.0644;
1628672156847200;-9.4454;-0.5853;-2.1051;
1628672166959596;-9.4430;-0.5710;-2.1553;
1628672177063554;-9.4645;-0.6144;-2.1338;
1628672187167512;-9.5390;-0.6431;-2.0716;
1628672197260898;-9.5342;-0.6742;-2.0498;
1628672207364856;-9.5291;-0.4011;-2.7278;
1628672217468867;-9.3927;-0.4178;-2.4547;
1628672227574804;-9.3377;-0.5662;-1.8990;
1628672237678762;-9.4262;-0.5351;-1.9828;
1628672247782721;-9.4119;-0.4585;-2.1553;
1628672257892512;-9.4310;-0.6574;-2.2152;
1628672267996471;-9.5892;-0.8779;-2.3061;
1628672278100429;-9.6227;-0.8560;-2.3109;
1628672288190481;-9.4502;-0.8827;-2.0019;
1628672298294439;-9.4430;-0.9281;-1.9516;
1628672308398398;-9.5124;-0.9879;-2.1242;
1628672318518398;-9.4717;-1.0071;-2.2199;
1628672328622356;-9.4502;-1.0406;-2.1362;
1628672338726314;-9.5486;-1.0765;-2.0498;
1628672348808762;-9.5868;-1.1028;-1.9158;
1628672358912721;-9.5028;-1.0286;-1.8105;
1628672369016679;-9.4884;-0.9736;-1.9038;
1628672379117148;-9.5533;-0.9784;-2.0186;
1628672389221106;-9.5004;-0.9832;-1.9828;
1628672399325064;-9.4813;-0.9808;-1.9660;
1628672409429752;-9.5462;-1.0143;-2.0067;
1628672419533710;-9.5124;-0.9760;-1.9756;
1628672429637669;-9.4669;-0.9257;-1.9301;
1628672439742721;-9.5243;-0.8874;-1.9349;
1628672449846679;-9.5462;-0.8369;-1.9277;
1628672459950637;-9.5243;-0.7842;-1.9493;
1628672470092252;-9.5195;-0.7101;-2.0019;
1628672480196262;-9.5342;-0.6742;-2.0163;
1628672490300169;-9.4932;-0.6407;-1.9851;
1628672500391523;-9.5052;-0.6622;-1.9995;
1628672510495481;-9.4908;-0.6742;-1.9971;
1628672520599439;-9.5076;-0.6550;-1.9660;
1628672530709856;-9.5390;-0.6191;-1.9421;
1628672540813814;-9.5438;-0.6215;-1.9493;
1628672550917773;-9.5195;-0.6191;-1.9540;
1628672561012512;-9.5315;-0.6383;-1.9780;
1628672571116471;-9.5100;-0.6646;-1.9564;
1628672581220429;-9.5028;-0.7316;-1.9612;
1628672591302044;-9.5414;-0.7962;-1.9516;
1628672601406002;-9.5267;-0.8201;-1.9253;
1628672611509960;-9.5195;-0.8249;-1.8918;
1628672621618033;-9.5100;-0.7364;-1.8966;
1628672631721992;-9.5243;-0.7412;-1.9301;
1628672641825950;-9.5533;-0.7699;-1.9923;
1628672651928189;-9.5390;-0.7795;-1.9851;
1628672662032148;-9.5243;-0.8082;-1.9732;
1628672672136106;-9.5195;-0.7651;-1.9804;
1628672682239439;-9.4956;-0.7364;-1.9971;
1628672692343450;-9.4789;-0.6718;-1.9971;
1628672702447356;-9.5195;-0.6742;-1.9636;
1628672712547564;-9.5243;-0.7077;-1.9445;
1628672722651523;-9.5315;-0.7005;-1.9660;
1628672732755481;-9.5028;-0.7268;-2.0210;
1628672742857460;-9.4741;-0.7819;-2.0644;
1628672752961419;-9.4980;-0.8010;-2.0955;
1628672763065377;-9.5148;-0.8106;-2.0692;
1628672773169023;-9.4860;-0.7675;-2.0569;
1628672783272981;-9.5052;-0.7460;-2.0450;
1628672793376939;-9.4932;-0.7077;-2.0115;
1628672803483814;-9.5100;-0.6646;-2.0402;
1628672813587825;-9.5028;-0.6550;-2.1051;
1628672823691731;-9.4717;-0.6742;-2.1123;
1628672833796367;-9.4597;-0.6622;-2.1266;
1628672843900377;-9.4980;-0.6861;-2.1314;
1628672854004283;-9.5004;-0.6407;-2.1458;
1628672864104856;-9.4932;-0.5471;-2.1266;
1628672874208814;-9.4693;-0.5638;-2.1362;
1628672884312773;-9.4502;-0.5279;-2.2104;
1628672894432148;-9.4334;-0.4561;-2.2056;
1628672904536106;-9.4669;-0.4490;-2.1697;
1628672914640064;-9.4765;-0.4633;-2.1123;
1628672924724648;-9.4932;-0.4585;-2.1434;
1628672934828658;-9.4621;-0.5112;-2.1577;
1628672944932564;-9.4525;-0.5973;-2.1649;
1628672955037825;-9.4813;-0.6383;-2.1362;
1628672965141314;-9.4908;-0.6646;-2.1218;
1628672975244856;-9.4717;-0.6526;-2.1458;
1628672985351992;-9.4621;-0.6790;-2.1123;
1628672995455481;-9.4813;-0.6933;-2.1099;
1628673005558971;-9.5124;-0.6670;-2.1362;
1628673015662304;-9.4908;-0.6909;-2.1170;
1628673025765794;-9.4860;-0.7244;-2.1194;
1628673035869335;-9.5004;-0.7436;-2.0883;
1628673045976158;-9.4932;-0.7866;-2.0474;
1628673056079648;-9.4980;-0.7914;-2.0402;
1628673066183189;-9.5195;-0.7914;-2.0764;
1628673076287408;-9.5195;-0.7986;-2.0521;
1628673086390898;-9.5148;-0.8177;-2.0644;
1628673096494387;-9.5291;-0.7795;-2.0450;
1628673106601627;-9.5076;-0.7651;-2.0378;
1628673116705169;-9.5124;-0.7316;-2.0354;
1628673126808658;-9.5100;-0.7029;-2.0692;
1628673136918294;-9.5052;-0.6885;-2.1075;
1628673147021835;-9.4908;-0.6694;-2.1194;
1628673157125325;-9.4837;-0.6598;-2.0788;
1628673167225377;-9.4980;-0.6598;-2.0836;
1628673177328919;-9.5315;-0.6670;-2.0644;
1628673187432408;-9.5291;-0.5949;-2.0859;
1628673197532877;-9.5267;-0.5495;-2.1027;
1628673207636419;-9.4956;-0.5303;-2.1027;
1628673217739960;-9.4549;-0.5088;-2.0764;
1628673227863606;-9.4837;-0.4848;-2.0426;
1628673237967096;-9.5076;-0.4801;-2.0593;
1628673248070637;-9.5219;-0.4633;-2.0859;
1628673258173294;-9.5124;-0.4681;-2.1194;
1628673268276835;-9.4717;-0.4250;-2.1840;
1628673278380377;-9.4430;-0.3987;-2.1793;
1628673288469335;-9.4573;-0.4107;-2.1242;
1628673298572877;-9.4693;-0.4107;-2.1099;
1628673308676419;-9.4932;-0.4131;-2.1266;
1628673318789544;-9.4908;-0.3891;-2.1003;
1628673328893085;-9.4956;-0.3987;-2.0836;
1628673338996575;-9.5052;-0.4155;-2.1194;
1628673349079075;-9.4908;-0.3963;-2.1362;
1628673359182564;-9.4549;-0.4035;-2.1769;
1628673369286106;-9.4693;-0.4059;-2.2032;
1628673379410273;-9.4908;-0.4490;-2.1793;
1628673389513814;-9.4765;-0.4992;-2.1362;
1628673399617304;-9.4884;-0.5734;-2.1099;
1628673409701054;-9.5004;-0.6239;-2.1075;
1628673419804596;-9.5028;-0.6311;-2.1123;
1628673429908085;-9.4980;-0.6359;-2.0859;
1628673439999492;-9.4980;-0.6024;-2.0716;
1628673450102981;-9.4956;-0.5925;-2.1123;
1628673460206471;-9.5100;-0.6096;-2.0907;
1628673470332981;-9.4932;-0.5830;-2.1170;
1628673480436523;-9.4693;-0.5830;-2.1482;
1628673490540064;-9.4597;-0.5758;-2.1793;
1628673500643502;-9.4717;-0.6120;-2.1721;
1628673510747044;-9.4549;-0.6431;-2.1434;
1628673520850533;-9.4884;-0.6861;-2.0979;
1628673530955585;-9.5342;-0.6861;-2.0644;
1628673541059127;-9.5124;-0.6837;-2.0593;
1628673551162617;-9.5100;-0.6766;-2.0521;
1628673561259908;-9.5124;-0.6861;-2.0812;
1628673571363398;-9.4860;-0.6646;-2.1314;
1628673581466939;-9.4741;-0.5806;-2.1697;
1628673591582356;-9.4860;-0.4992;-2.1769;
1628673601685898;-9.4980;-0.4992;-2.1601;
1628673611789387;-9.4932;-0.4920;-2.1410;
1628673621887096;-9.4884;-0.5399;-2.1386;
1628673631990585;-9.4717;-0.5471;-2.1386;
1628673642094075;-9.4717;-0.5686;-2.1386;
1628673652198085;-9.4956;-0.5806;-2.1529;
1628673662301575;-9.5076;-0.6168;-2.1386;
1628673672405064;-9.5267;-0.6455;-2.1099;
1628673682515273;-9.5172;-0.6670;-2.0836;
1628673692618814;-9.5076;-0.7005;-2.0402;
1628673702722356;-9.5148;-0.7412;-2.0139;
1628673712830064;-9.4789;-0.7890;-2.0593;
1628673722933606;-9.5028;-0.8465;-2.0907;
1628673733037096;-9.5100;-0.8922;-2.0306;
1628673743136731;-9.5291;-0.9162;-1.9923;
1628673753240273;-9.5581;-0.9114;-1.9421;
1628673763343762;-9.5315;-0.8850;-1.9134;
1628673773449700;-9.5076;-0.8034;-1.8894;
1628673783553242;-9.5291;-0.7029;-1.9588;
1628673793656731;-9.5462;-0.6407;-2.0402;
1628673803763867;-9.5291;-0.5830;-2.0617;
1628673813867408;-9.4980;-0.5423;-2.0788;
1628673823970898;-9.4813;-0.5112;-2.0593;
1628673834078294;-9.5219;-0.4394;-1.9947;
1628673844181835;-9.5510;-0.3867;-1.9229;
1628673854285325;-9.5390;-0.3290;-1.9421;
1628673864384544;-9.5243;-0.3027;-1.9971;
1628673874488085;-9.5267;-0.2788;-2.0378;
1628673884591575;-9.5195;-0.2716;-2.0498;
1628673894676783;-9.5100;-0.3027;-2.0330;
1628673904780273;-9.5219;-0.3365;-1.9971;
1628673914883762;-9.5172;-0.3604;-1.9301;
1628673925007148;-9.5315;-0.4274;-1.8870;
1628673935110689;-9.5486;-0.4490;-1.8607;
1628673945214179;-9.5486;-0.4442;-1.8368;
1628673955318346;-9.5315;-0.4705;-1.8846;
1628673965422096;-9.5291;-0.5327;-1.9062;
1628673975525898;-9.5725;-0.5638;-1.9086;
1628673985622617;-9.5486;-0.5877;-1.8942;
1628673995726367;-9.5581;-0.6359;-1.8535;
1628674005830169;-9.5510;-0.6215;-1.8296;
1628674015934492;-9.5438;-0.4872;-1.9301;
1628674026038242;-9.5462;-0.4418;-1.9349;
1628674036142044;-9.5438;-0.4657;-1.9516;
1628674046250117;-9.5462;-0.4585;-1.9875;
1628674056353867;-9.5100;-0.4513;-2.0378;
1628674066457669;-9.4837;-0.4561;-2.0716;
1628674076560950;-9.5195;-0.5160;-2.0859;
1628674086664700;-9.5390;-0.5207;-2.0692;
1628674096768502;-9.5414;-0.5112;-2.0836;
1628674106876783;-9.5172;-0.4825;-2.0955;
1628674116980533;-9.4860;-0.4753;-2.1410;
1628674127084335;-9.5052;-0.4848;-2.1577;
1628674137184596;-9.4645;-0.4777;-2.1338;
1628674147288346;-9.4717;-0.5016;-2.1434;
1628674157392148;-9.4908;-0.5255;-2.1625;
1628674167497096;-9.4573;-0.4968;-2.2080;
1628674177600846;-9.4478;-0.4681;-2.2080;
1628674187704648;-9.4765;-0.5088;-2.1864;
1628674197800898;-9.4860;-0.4920;-2.1577;
1628674207904700;-9.4884;-0.4896;-2.1625;
1628674218008502;-9.4765;-0.5064;-2.2152;
1628674228108033;-9.4573;-0.5447;-2.2319;
1628674238211783;-9.4837;-0.6072;-2.2008;
1628674248315533;-9.4765;-0.5710;-2.1936;
1628674258434492;-9.4765;-0.5710;-2.1577;
1628674268538242;-9.4837;-0.6622;-2.0907;
1628674278642044;-9.4932;-0.6646;-2.1458;
1628674288747512;-9.4813;-0.5638;-2.2175;
1628674298851262;-9.4765;-0.6120;-2.1721;
1628674308955064;-9.5052;-0.6694;-2.1123;
1628674319062460;-9.5172;-0.6861;-2.1362;
1628674329166262;-9.5076;-0.6909;-2.1170;
1628674339270012;-9.4908;-0.7244;-2.0907;
1628674349351262;-9.5291;-0.7196;-2.1601;
1628674359455012;-9.5414;-0.7436;-2.1410;
1628674369558814;-9.4932;-0.7819;-2.1027;
1628674379664179;-9.5148;-0.7962;-2.1673;
1628674389767981;-9.5291;-0.7699;-2.2439;
1628674399871731;-9.4884;-0.7651;-2.2223;
1628674409969804;-9.4908;-0.7938;-2.0617;
1628674420073554;-9.5291;-0.8106;-2.0644;
1628674430177356;-9.5004;-0.7077;-2.1649;
1628674440334127;-9.4597;-0.5806;-2.2080;
1628674450437929;-9.4717;-0.5734;-2.2869;
1628674460541679;-9.4765;-0.5231;-2.3180;
1628674470593450;-9.4956;-0.4872;-2.2391;
1628674480697200;-9.4693;-0.4394;-2.2510;
1628674490801002;-9.4454;-0.4346;-2.1458;
1628674500915742;-9.4884;-0.4537;-2.0907;
1628674511019492;-9.5243;-0.4155;-2.0907;
1628674521123294;-9.5028;-0.4107;-2.1123;
1628674531244439;-9.5243;-0.4035;-2.1769;
1628674541348189;-9.5267;-0.3748;-2.1840;
1628674551451992;-9.5267;-0.4537;-2.0330;
1628674561534387;-9.5510;-0.4394;-1.9373;
1628674571638137;-9.5749;-0.4250;-1.9134;
1628674581741939;-9.5892;-0.4705;-1.8679;
1628674591856887;-9.5581;-0.4729;-1.9086;
1628674601960637;-9.5557;-0.4609;-1.9564;
1628674612064439;-9.5267;-0.4561;-2.0354;
1628674622164179;-9.5195;-0.4657;-2.0091;
1628674632267929;-9.5291;-0.4681;-1.9253;
1628674642371731;-9.5797;-0.4466;-1.8535;
1628674652471992;-9.5653;-0.3772;-1.8679;
1628674662575742;-9.5267;-0.3724;-1.9229;
1628674672679544;-9.5243;-0.4011;-2.0402;
1628674682784752;-9.4932;-0.4059;-2.1362;
