Sensor: bmi160 Gyroscope Non-wakeup
Vendor: BOSCH
TimestampGyro [ns]; GyroX [rad/s]; GyroY [rad/s]; GyroZ [rad/s]
913879603608660;0.0027;-0.0004;0.0121;
913879613721316;-0.0016;-0.0079;0.0216;
913879623815170;-0.0059;-0.0004;0.0142;
913879633902305;-0.0027;0.0028;0.0111;
913879644008399;-0.0016;0.0017;0.0121;
913879654139024;-0.0069;0.0007;0.0132;
913879664230743;-0.0059;-0.0004;0.0132;
913879674351160;-0.0027;-0.0025;0.0132;
913879684437774;-0.0027;-0.0004;0.0121;
913879694544076;-0.0016;0.0017;0.0111;
913879704646003;-0.0016;0.0007;0.0111;
913879714756785;-0.0016;0.0007;0.0100;
913879724859180;-0.0027;0.0017;0.0111;
913879734964649;-0.0016;-0.0004;0.0111;
913879745095847;-0.0027;-0.0004;0.0111;
913879755209805;-0.0027;0.0007;0.0132;
913879765280274;-0.0027;0.0017;0.0121;
913879775391107;-0.0027;0.0017;0.0132;
913879785504128;-0.0048;0.0017;0.0132;
913879795664649;-0.0037;0.0007;0.0132;
913879805713712;-0.0027;0.0017;0.0142;
913879815856107;-0.0027;0.0007;0.0152;
913879825952982;-0.0027;0.0007;0.0152;
913879836048660;-0.0027;0.0007;0.0152;
913879846144962;-0.0037;-0.0004;0.0162;
913879856265066;-0.0048;-0.0004;0.0162;
913879866369649;-0.0048;0.0017;0.0184;
913879876474493;-0.0005;0.0028;0.0173;
913879886592982;-0.0005;0.0017;0.0205;
913879896670014;-0.0048;0.0007;0.0248;
913879906794389;-0.0059;-0.0004;0.0248;
913879916912357;-0.0080;-0.0015;0.0280;
913879926996889;-0.0080;-0.0004;0.0301;
913879937105639;-0.0091;0.0017;0.0333;
913879947207826;-0.0080;0.0017;0.0386;
913879957315014;-0.0123;0.0017;0.0418;
913879967411264;-0.0112;0.0017;0.0461;
913879977525535;-0.0123;0.0017;0.0503;
913879987625430;-0.0144;0.0028;0.0567;
913879997737618;-0.0186;0.0028;0.0631;
913880007905847;-0.0197;0.0039;0.0716;
913880017955222;-0.0218;0.0049;0.0791;
913880028056368;-0.0240;0.0060;0.0876;
913880038168035;-0.0282;0.0049;0.0972;
913880048271576;-0.0282;0.0049;0.1057;
913880058382722;-0.0293;0.0060;0.1142;
913880068490430;-0.0325;0.0060;0.1228;
913880078603868;-0.0336;0.0060;0.1313;
913880088697826;-0.0346;0.0081;0.1419;
913880098812826;-0.0378;0.0081;0.1494;
913880108916003;-0.0399;0.0081;0.1547;
913880119018868;-0.0431;0.0081;0.1622;
913880129125639;-0.0431;0.0081;0.1696;
913880139231576;-0.0442;0.0081;0.1760;
913880149338764;-0.0453;0.0071;0.1803;
913880159448868;-0.0463;0.0071;0.1835;
913880169554389;-0.0453;0.0071;0.1856;
913880179662201;-0.0442;0.0071;0.1867;
913880189768451;-0.0453;0.0049;0.1867;
913880199872670;-0.0431;0.0028;0.1856;
913880209973451;-0.0410;0.0017;0.1846;
913880220096680;-0.0431;0.0017;0.1814;
913880230201993;-0.0431;0.0017;0.1782;
913880240308660;-0.0431;0.0049;0.1760;
913880250422514;-0.0431;0.0081;0.1718;
913880260522722;-0.0431;0.0103;0.1707;
913880270625430;-0.0431;0.0124;0.1718;
913880280728139;-0.0453;0.0103;0.1696;
913880290835847;-0.0431;0.0071;0.1654;
913880300944285;-0.0431;0.0071;0.1654;
913880311050951;-0.0431;0.0081;0.1654;
913880321159180;-0.0410;0.0081;0.1643;
913880331259493;-0.0389;0.0060;0.1622;
913880341353920;-0.0410;0.0071;0.1622;
913880351467722;-0.0410;0.0081;0.1611;
913880361580535;-0.0399;0.0081;0.1579;
913880371692253;-0.0399;0.0092;0.1601;
913880381789597;-0.0399;0.0103;0.1611;
913880391896264;-0.0399;0.0081;0.1632;
913880402008972;-0.0431;0.0071;0.1654;
913880412126160;-0.0442;0.0060;0.1686;
913880422220743;-0.0453;0.0092;0.1728;
913880432333764;-0.0453;0.0103;0.1760;
913880442437826;-0.0474;0.0113;0.1824;
913880452545326;-0.0485;0.0124;0.1867;
913880462648764;-0.0485;0.0103;0.1888;
913880472748764;-0.0517;0.0092;0.1920;
913880482859180;-0.0506;0.0081;0.1931;
913880492970847;-0.0527;0.0081;0.1931;
913880503074493;-0.0549;0.0103;0.1941;
913880513175222;-0.0549;0.0113;0.1941;
913880523283660;-0.0549;0.0134;0.1931;
913880533387201;-0.0549;0.0124;0.1920;
913880543495118;-0.0602;0.0092;0.1888;
913880553600535;-0.0676;0.0092;0.1899;
913880563708660;-0.0719;0.0103;0.1877;
913880573818660;-0.0751;0.0092;0.1824;
913880583926993;-0.0783;0.0103;0.1792;
913880594032097;-0.0794;0.0113;0.1760;
913880604133868;-0.0804;0.0092;0.1739;
913880614243035;-0.0783;0.0071;0.1696;
913880624353555;-0.0730;0.0060;0.1664;
913880634454597;-0.0602;0.0060;0.1643;
913880644561055;-0.0431;0.0049;0.1601;
913880654663764;-0.0357;0.0049;0.1569;
913880664756368;-0.0389;0.0049;0.1558;
913880674854337;-0.0368;0.0049;0.1505;
913880684952357;-0.0389;0.0060;0.1473;
913880695084857;-0.0346;0.0049;0.1462;
913880705182826;-0.0368;0.0039;0.1430;
913880715280847;-0.0368;0.0028;0.1387;
913880725406264;-0.0346;0.0039;0.1387;
913880735504285;-0.0346;0.0028;0.1377;
913880745602253;-0.0314;0.0028;0.1377;
913880755730847;-0.0314;0.0017;0.1366;
913880765828868;-0.0336;-0.0015;0.1366;
913880775926837;-0.0325;-0.0015;0.1387;
913880786035170;-0.0261;-0.0015;0.1334;
913880796133139;-0.0538;-0.0111;0.1441;
913880806231107;-0.0442;-0.0292;0.1430;
913880816368920;-0.0410;-0.0217;0.1462;
913880826466889;-0.0378;-0.0132;0.1473;
913880836564910;-0.0368;-0.0111;0.1473;
913880846698451;-0.0325;0.0017;0.1377;
913880856796420;-0.0186;0.0177;0.1334;
913880866894389;-0.0197;0.0241;0.1324;
913880876990899;-0.0218;0.0209;0.1260;
913880887088920;-0.0304;0.0188;0.1174;
913880897186889;-0.0378;0.0113;0.1111;
913880907311628;-0.0357;-0.0004;0.1111;
913880917409493;-0.0293;-0.0047;0.1142;
913880927507514;-0.0261;-0.0004;0.1142;
913880937660378;-0.0282;0.0007;0.1142;
913880947758399;-0.0304;0.0007;0.1142;
913880957856316;-0.0304;0.0007;0.1185;
913880967961732;-0.0314;0.0039;0.1217;
913880978059701;-0.0336;0.0028;0.1249;
913880988157670;-0.0325;0.0039;0.1249;
913880998297149;-0.0346;0.0039;0.1238;
913881008395118;-0.0346;0.0028;0.1249;
913881018493087;-0.0336;0.0017;0.1249;
913881028605587;-0.0399;-0.0004;0.1260;
913881038703555;-0.0442;0.0007;0.1270;
913881048801524;-0.0559;0.0039;0.1270;
913881058926107;-0.0836;0.0103;0.1238;
913881069024076;-0.1220;0.0156;0.1196;
913881079122045;-0.1742;0.0156;0.1153;
913881089244545;-0.2328;0.0124;0.1100;
913881099342566;-0.2933;0.0049;0.1057;
913881109440482;-0.3487;-0.0036;0.1015;
913881119564649;-0.3956;-0.0089;0.0951;
913881129662618;-0.4499;-0.0111;0.0897;
913881139760587;-0.4883;-0.0089;0.0855;
913881149884128;-0.4989;-0.0079;0.0812;
913881159982097;-0.4861;-0.0068;0.0812;
913881170080066;-0.4787;-0.0036;0.0802;
913881180217149;-0.4915;-0.0025;0.0770;
913881190315118;-0.5000;-0.0025;0.0748;
913881200413087;-0.4968;-0.0025;0.0695;
913881210521732;-0.4915;-0.0036;0.0684;
913881220619701;-0.5064;-0.0025;0.0652;
913881230717670;-0.5405;-0.0025;0.0631;
913881240845378;-0.5543;-0.0047;0.0610;
913881250943347;-0.5351;-0.0047;0.0599;
913881261041316;-0.5149;-0.0036;0.0589;
913881271166212;-0.5213;-0.0079;0.0567;
913881281264180;-0.5330;-0.0089;0.0557;
913881291362149;-0.5245;-0.0036;0.0546;
913881301484128;-0.5117;-0.0004;0.0546;
913881311582097;-0.5309;-0.0025;0.0546;
913881321680066;-0.5607;-0.0015;0.0546;
913881331806003;-0.5682;0.0411;0.0610;
913881341903972;-0.5660;0.1445;0.0258;
913881352001993;-0.6150;-0.0270;0.0100;
913881362112462;-0.5980;-0.0739;-0.0017;
913881372210430;-0.4276;0.0379;0.0429;
913881382308399;-0.4798;-0.0505;0.0567;
913881392441003;-0.5959;-0.1272;0.0429;
913881402538972;-0.4840;0.0092;0.0578;
913881412636941;-0.3679;0.1232;0.0631;
913881422768087;-0.4638;0.0443;0.0535;
913881432866055;-0.5905;-0.0451;0.0525;
913881442964024;-0.4627;-0.0142;0.0706;
913881453081368;-0.3391;0.0028;0.0929;
913881463179337;-0.3711;-0.0345;0.0993;
913881473277305;-0.3786;0.0007;0.1015;
913881483405222;-0.3594;0.0603;0.1015;
913881493503191;-0.4084;0.0220;0.0855;
913881503601160;-0.4126;-0.0185;0.0823;
913881513725378;-0.3349;0.0060;0.0929;
913881523823347;-0.3242;0.0081;0.0897;
913881533921368;-0.3860;-0.0111;0.0674;
913881544036732;-0.4435;0.0017;0.0482;
913881554134701;-0.5000;0.0337;0.0354;
913881564232722;-0.5980;0.0252;0.0173;
913881574350899;-0.6992;-0.0249;-0.0113;
913881584448868;-0.7365;-0.0324;-0.0358;
913881594546837;-0.7354;0.0092;-0.0497;
913881604668087;-0.7461;0.0337;-0.0582;
913881614766055;-0.7514;0.0507;-0.0720;
913881624864076;-0.7503;0.0816;-0.0827;
913881634988295;-0.7823;0.0720;-0.1008;
913881645086264;-0.7876;0.0379;-0.1221;
913881655184285;-0.7493;0.0454;-0.1232;
913881665329024;-0.7546;0.0507;-0.1306;
913881675434076;-0.7620;0.0316;-0.1445;
913881685539128;-0.7013;0.0433;-0.1509;
913881695636524;-0.6523;0.0688;-0.1541;
913881705741576;-0.6491;0.0699;-0.1626;
913881715846628;-0.6257;0.0699;-0.1647;
913881725941160;-0.5810;0.0933;-0.1530;
913881736046212;-0.5660;0.1168;-0.1487;
913881746151264;-0.5735;0.1051;-0.1541;
913881756306316;-0.5469;0.0816;-0.1636;
913881766411368;-0.4584;0.0869;-0.1477;
913881776516420;-0.3594;0.1040;-0.1253;
913881786568503;-0.3008;0.0965;-0.1125;
913881796673555;-0.2306;0.0923;-0.0997;
913881806778607;-0.1656;0.1008;-0.0891;
913881816907045;-0.1742;0.0561;-0.0848;
913881827012097;-0.1763;0.0145;-0.0720;
913881837117149;-0.1784;0.0475;-0.0433;
913881847227722;-0.1965;0.0646;-0.0305;
913881857332722;-0.2093;0.0358;-0.0284;
913881867437774;-0.2061;0.0411;-0.0113;
913881877546264;-0.2125;0.0763;0.0162;
913881887651264;-0.2349;0.0624;0.0226;
913881897756316;-0.2413;0.0209;0.0226;
913881907859701;-0.2349;0.0134;0.0407;
913881917964701;-0.2370;0.0177;0.0610;
913881928069753;-0.2593;-0.0025;0.0674;
913881938194180;-0.2806;-0.0068;0.0706;
913881948299232;-0.2752;0.0134;0.0802;
913881958404285;-0.2955;0.0188;0.0855;
913881968506576;-0.3445;0.0124;0.0844;
913881978611576;-0.3818;0.0294;0.0897;
913881988716628;-0.4180;0.0507;0.0908;
913881998829180;-0.4766;0.0358;0.0727;
913882008934232;-0.4925;0.0220;0.0578;
913882019039285;-0.4467;0.0337;0.0631;
913882029150170;-0.3956;0.0571;0.0642;
913882039255222;-0.3498;0.0731;0.0620;
913882049360274;-0.3242;0.0742;0.0525;
913882059466941;-0.2976;0.0816;0.0589;
913882069571993;-0.2987;0.0891;0.0610;
913882079677045;-0.3040;0.0806;0.0418;
913882089793503;-0.3125;0.0699;0.0216;
913882099898555;-0.3146;0.0752;0.0057;
913882110003607;-0.3253;0.0688;-0.0039;
913882120106524;-0.3242;0.0784;-0.0049;
913882130211576;-0.3359;0.0955;-0.0017;
913882140316628;-0.3370;0.0635;-0.0177;
913882150429545;-0.3296;0.0635;-0.0241;
913882160534597;-0.3285;0.0880;-0.0273;
913882170639649;-0.3359;0.0635;-0.0379;
913882180755378;-0.3253;0.0678;-0.0422;
913882190860430;-0.3253;0.1178;-0.0241;
913882200965482;-0.3370;0.1253;-0.0348;
913882211074441;-0.3370;0.0987;-0.0433;
913882221179493;-0.2912;0.0997;-0.0369;
913882231284545;-0.2232;0.1168;-0.0443;
913882241385847;-0.1976;0.1093;-0.0422;
913882251490899;-0.2114;0.0944;-0.0401;
913882261595951;-0.1656;0.1040;-0.0316;
913882271713712;-0.0314;0.1381;-0.0134;
913882281818764;0.0932;0.1296;-0.0071;
913882291923816;0.1774;0.1125;-0.0060;
913882302021264;0.2892;0.1189;0.0111;
913882312126316;0.3903;0.0965;0.0142;
913882322231368;0.4808;0.0901;0.0290;
913882332345274;0.5149;0.1029;0.0482;
913882342468920;0.4531;0.0806;0.0375;
913882352573972;0.3881;0.0614;0.0237;
913882362678972;0.3690;0.0859;0.0248;
913882372781941;0.3945;0.1146;0.0322;
913882382886993;0.2924;0.1296;0.0365;
913882392992045;0.1017;0.1253;0.0194;
913882403088607;-0.0847;0.1040;-0.0113;
913882413193660;-0.2550;0.0955;-0.0411;
913882423298712;-0.4212;0.1125;-0.0550;
913882433417670;-0.4627;0.0997;-0.0827;
913882443522722;-0.5565;0.0838;-0.1104;
913882453627774;-0.6651;0.1381;-0.1232;
913882463740014;-0.7578;0.1818;-0.1360;
913882473845066;-0.8695;0.1839;-0.1615;
913882483950118;-0.9643;0.1988;-0.1839;
913882494045482;-0.9920;0.2361;-0.1988;
913882504150482;-0.9345;0.2297;-0.2052;
913882514255535;-0.8505;0.2009;-0.1999;
913882524359597;-0.7631;0.2041;-0.1945;
913882534464597;-0.6417;0.2190;-0.1967;
913882544569649;-0.5224;0.1977;-0.2105;
913882554685066;-0.4563;0.2265;-0.2137;
913882564790066;-0.4020;0.3181;-0.1967;
913882574895118;-0.2965;0.3585;-0.2052;
913882585008347;-0.3019;0.3277;-0.2414;
913882595113347;-0.2614;0.3648;-0.2861;
913882605218399;-0.2475;0.3798;-0.3192;
913882615327930;-0.3647;0.3053;-0.4065;
913882625432982;-0.4308;0.2659;-0.4885;
913882635537982;-0.4158;0.2382;-0.5120;
913882645638972;-0.4009;0.1967;-0.5365;
913882655743972;-0.3274;0.1786;-0.5525;
913882665849024;-0.3019;0.1647;-0.5546;
913882675974024;-0.2891;0.1732;-0.5482;
913882686079076;-0.2232;0.1668;-0.5557;
913882696184128;-0.1007;0.1605;-0.5620;
913882706299753;0.0101;0.1722;-0.5184;
913882716404805;0.1316;0.1956;-0.4768;
913882726509857;0.2679;0.1690;-0.4598;
913882736592305;0.3722;0.1423;-0.4491;
913882746697305;0.5149;0.1562;-0.4129;
913882756802357;0.6342;0.1423;-0.3916;
913882766941420;0.7951;0.0827;-0.3799;
913882777046472;0.8803;0.0614;-0.3405;
913882787151524;0.9272;0.0720;-0.3096;
913882797275378;1.0144;0.0752;-0.2947;
913882807380430;1.0367;0.0433;-0.2680;
913882817485482;1.0005;0.0571;-0.2276;
913882827554805;0.9771;0.0688;-0.2148;
913882837659805;1.0272;0.0465;-0.2276;
913882847764857;1.0506;0.0561;-0.2148;
913882857889232;1.0048;0.0742;-0.1636;
913882867994285;1.0261;0.0550;-0.1423;
913882878099337;1.0495;-0.0089;-0.1445;
913882888204441;1.0453;-0.0377;-0.1551;
913882898309493;1.0218;0.0028;-0.1264;
913882908414545;1.0932;-0.0047;-0.0720;
913882918537357;1.0889;-0.0121;-0.0507;
913882928642410;1.0357;0.0166;-0.0507;
913882938747462;1.0548;0.0124;-0.0390;
913882948859024;1.0825;0.0081;-0.0316;
913882958964076;0.9931;0.0443;0.0047;
913882969069128;0.9803;0.0635;0.0514;
913882979168607;0.9973;0.0294;0.0578;
913882989273660;0.8856;0.0166;0.0727;
913882999378712;0.7375;0.0241;0.0780;
913883009488503;0.6715;-0.0174;0.0567;
913883019593555;0.5788;-0.0622;0.0290;
913883029698607;0.4190;-0.0505;0.0205;
913883039805170;0.3606;-0.0089;0.0344;
913883049910222;0.2509;0.0081;0.0525;
913883060015274;0.0772;0.0156;0.0770;
913883070128399;0.0495;0.0230;0.0631;
913883080233451;0.0485;0.0134;0.0386;
913883090338503;-0.0485;0.0177;0.0354;
913883100446524;-0.1124;0.0103;0.0333;
913883110551576;-0.1742;-0.0153;0.0589;
913883120656628;-0.2806;-0.0174;0.0855;
913883130767566;-0.3775;-0.0185;0.0897;
913883140872618;-0.4861;-0.0483;0.0631;
913883150977670;-0.5810;-0.0515;0.0514;
913883161099545;-0.6534;-0.0622;0.0344;
913883171204597;-0.7013;-0.0803;0.0344;
913883181309649;-0.7897;-0.0515;0.0439;
913883191407878;-0.7940;-0.0015;0.0429;
913883201512930;-0.8334;-0.0217;0.0290;
913883211617982;-0.9260;-0.0515;0.0079;
913883221725378;-0.9600;-0.0238;-0.0241;
913883231830430;-1.0005;-0.0015;-0.0507;
913883241935482;-1.0027;0.0220;-0.0561;
913883252046212;-0.9771;0.0262;-0.0646;
913883262151264;-0.9899;0.0039;-0.0923;
913883272256316;-0.9877;0.0145;-0.1115;
913883282367670;-0.9387;-0.0015;-0.1370;
913883292472722;-0.9142;0.0134;-0.1573;
913883302577774;-0.8515;0.0603;-0.1764;
913883312689232;-0.8078;0.0241;-0.1860;
913883322794285;-0.7610;0.0188;-0.1860;
913883332899337;-0.6694;0.0443;-0.1913;
913883343019649;-0.6065;0.0401;-0.1977;
913883353125899;-0.5522;0.0774;-0.2233;
913883363232201;-0.4648;0.0838;-0.2446;
913883373325378;-0.4350;0.0838;-0.2542;
913883383431680;-0.3274;0.0901;-0.2595;
913883393537930;-0.2614;0.1040;-0.2446;
913883403636628;-0.1891;0.0806;-0.2329;
913883413742930;-0.1624;0.0177;-0.2233;
913883423849180;-0.1284;0.0071;-0.2222;
913883433966420;-0.0304;0.0358;-0.2009;
913883444072722;-0.0176;0.0582;-0.1850;
913883454178972;0.0069;0.0550;-0.1754;
913883464270795;-0.0154;0.0337;-0.1743;
913883474377045;-0.0431;0.0241;-0.1562;
913883484483347;-0.0442;0.0262;-0.1551;
913883494584024;-0.0719;0.0358;-0.1551;
913883504690326;-0.0421;0.0624;-0.1668;
913883514796576;-0.0623;0.0433;-0.1839;
913883524905170;-0.0453;0.0007;-0.1881;
913883535011420;-0.0293;-0.0079;-0.2073;
913883545117722;0.0346;0.0060;-0.2126;
913883555244649;0.1816;0.0103;-0.2126;
913883565350899;0.2434;0.0198;-0.2254;
913883575457201;0.3616;0.0113;-0.2382;
913883585560795;0.4435;-0.0494;-0.2308;
913883595667097;0.5064;-0.0164;-0.2073;
913883605773347;0.6225;0.0166;-0.2073;
913883615867670;0.7578;0.0166;-0.1935;
913883625973920;0.8845;0.0060;-0.1764;
913883636080222;0.9272;-0.0164;-0.1541;
913883646220482;0.9877;-0.0302;-0.1264;
913883656326785;0.9803;-0.0206;-0.1040;
913883666433035;0.9730;0.0103;-0.0912;
913883676539128;0.9867;0.0081;-0.0901;
913883686645430;0.9272;-0.0025;-0.0656;
913883696751680;0.8835;0.0060;-0.0539;
913883706818920;0.7716;0.0539;-0.0561;
913883716925222;0.7482;0.0518;-0.0337;
913883727031472;0.6545;0.0188;-0.0198;
913883737152566;0.5628;-0.0068;-0.0092;
913883747258868;0.3945;-0.0387;-0.0092;
913883757365118;0.2519;-0.0451;-0.0177;
913883767463503;0.1390;-0.0462;-0.0262;
913883777569805;0.1177;-0.0249;-0.0241;
913883787676055;0.0932;-0.0206;-0.0411;
913883797797253;0.0559;-0.0185;-0.0294;
913883807903503;0.0623;0.0198;-0.0134;
913883818009805;0.0559;0.0134;0.0068;
913883828117462;0.1443;-0.0025;0.0100;
913883838223764;0.1134;0.0017;0.0184;
913883848330014;0.1433;-0.0068;0.0312;
913883858428347;0.1177;0.0060;0.0280;
913883868534649;0.1454;0.0294;0.0344;
913883878640899;0.1433;-0.0164;0.0493;
913883888781993;0.1273;-0.0111;0.0482;
913883898888295;0.1497;0.0156;0.0301;
913883908994545;0.1827;-0.0217;0.0482;
913883919083607;0.1507;-0.0324;0.0429;
913883929189910;0.1550;-0.0462;0.0525;
913883939296160;0.1443;-0.0206;0.0344;
913883949402774;0.1656;0.0209;0.0482;
913883959509076;0.1465;0.0124;0.0365;
913883969615326;0.1475;0.0326;0.0365;
913883979715847;0.1401;0.0465;0.0375;
913883989822149;0.1571;0.0284;0.0386;
913883999928399;0.1518;0.0433;0.0184;
913884010021420;0.1465;0.0561;0.0194;
913884020127722;0.1539;0.0284;0.0312;
913884030233972;0.1497;-0.0249;0.0482;
913884040357982;0.1049;-0.0707;0.0173;
913884050464285;0.1060;-0.0739;0.0004;
913884060570535;0.0570;-0.0654;-0.0103;
913884070681837;0.0666;-0.0643;-0.0134;
913884080788139;0.0666;-0.0430;-0.0124;
913884090894389;0.1198;-0.0111;-0.0188;
913884100994024;0.1305;-0.0004;-0.0273;
913884111100326;0.1529;-0.0057;-0.0337;
913884121206576;0.1561;0.0103;-0.0326;
913884131317097;0.1401;0.0177;-0.0369;
913884141423347;0.1614;-0.0015;-0.0284;
913884151529649;0.1305;-0.0142;-0.0433;
913884161654753;0.1475;-0.0366;-0.0326;
913884171761055;0.1060;-0.0451;-0.0614;
913884181867305;0.1422;-0.0206;-0.0422;
913884191961680;0.1188;-0.0324;-0.0369;
913884202067982;0.1454;-0.0324;-0.0262;
913884212174232;0.1273;-0.0281;-0.0603;
913884222283503;0.1678;-0.0366;-0.0454;
913884232389805;0.1752;-0.0387;-0.0401;
913884242496055;0.1678;-0.0473;-0.0337;
913884252598399;0.1848;-0.0515;-0.0433;
913884262704701;0.1454;-0.0483;-0.0774;
913884272810951;0.1784;-0.0153;-0.0774;
913884282921420;0.1646;-0.0079;-0.0624;
913884293027722;0.1901;-0.0398;-0.0305;
913884303133972;0.1827;-0.0654;-0.0518;
913884313234597;0.1624;-0.0643;-0.0678;
913884323340899;0.1838;-0.0313;-0.0806;
913884333447149;0.1678;-0.0089;-0.0784;
913884343553764;0.2072;0.0113;-0.0582;
913884353660170;0.1667;-0.0025;-0.0710;
913884363766524;0.1923;-0.0025;-0.0624;
913884373881837;0.1646;0.0145;-0.0646;
913884383988243;0.1774;0.0539;-0.0539;
913884394094597;0.1976;0.0507;-0.0582;
913884404191264;0.1561;0.0273;-0.0688;
913884414297670;0.1646;0.0134;-0.0561;
913884424404024;0.1529;-0.0111;-0.0529;
913884434508920;0.1688;-0.0249;-0.0507;
913884444615326;0.1742;-0.0345;-0.0667;
913884454721680;0.1774;-0.0451;-0.0656;
913884464821732;0.2072;-0.0228;-0.0667;
913884474928139;0.1720;-0.0217;-0.0795;
913884485034493;0.2083;-0.0132;-0.0774;
913884495202462;0.2040;0.0049;-0.0901;
913884505308868;0.1965;0.0305;-0.1115;
913884515415222;0.2381;0.0529;-0.1285;
913884525467253;0.2189;0.0454;-0.1157;
913884535573660;0.2391;0.0188;-0.0838;
913884545680014;0.2104;0.0145;-0.1115;
913884555825482;0.2146;0.0465;-0.1434;
913884565931889;0.2530;0.0742;-0.1530;
913884576038243;0.2413;0.0667;-0.1562;
913884586110795;0.2903;0.0475;-0.1349;
913884596217201;0.2892;0.0230;-0.1232;
913884606323555;0.2402;-0.0047;-0.1466;
913884616427357;0.2786;-0.0217;-0.1562;
913884626533764;0.2626;-0.0228;-0.1562;
913884636640118;0.2871;-0.0079;-0.1381;
913884646739232;0.3499;-0.0228;-0.1306;
913884656845639;0.3988;-0.0601;-0.1285;
913884666951993;0.4403;-0.0505;-0.1157;
913884677074232;0.4883;-0.0132;-0.1008;
913884687180639;0.5170;0.0049;-0.1008;
913884697286993;0.6065;0.0124;-0.1019;
913884707380170;0.6491;0.0241;-0.0987;
913884717486576;0.6545;0.0550;-0.0763;
913884727592930;0.6566;0.0859;-0.0497;
913884737706680;0.6662;0.0933;-0.0656;
913884747813087;0.6875;0.0656;-0.0550;
913884757919441;0.6363;0.0220;-0.0337;
913884768023920;0.5703;-0.0281;-0.0326;
913884778130326;0.4840;-0.0100;-0.0348;
913884788236680;0.4339;0.0316;-0.0305;
913884798351107;0.4201;0.0134;-0.0379;
913884808457514;0.4084;-0.0238;-0.0433;
913884818563868;0.3668;-0.0196;-0.0294;
913884828677253;0.3764;-0.0217;-0.0348;
913884838783660;0.3722;-0.0238;-0.0305;
913884848890014;0.3818;-0.0004;-0.0124;
913884858995795;0.3690;-0.0228;-0.0081;
913884869102201;0.3638;-0.0100;-0.0166;
913884879208555;0.3754;0.0134;-0.0156;
913884889312045;0.3956;-0.0356;-0.0049;
913884899418451;0.4265;-0.0824;0.0216;
913884909524805;0.4254;-0.1005;0.0269;
913884919630274;0.4105;-0.1037;0.0333;
913884929736680;0.4084;-0.0643;0.0429;
913884939843035;0.4308;0.0081;0.0194;
913884949953191;0.4031;0.1104;-0.0124;
913884960059597;0.3892;0.1839;0.0015;
913884970165951;0.4755;0.1296;0.0344;
913884980282774;0.5469;0.0827;0.0418;
913884990389180;0.4957;0.1498;0.0407;
913885000495535;0.4371;0.1999;0.0184;
913885010597045;0.4925;0.1434;0.0237;
913885020703451;0.4872;0.0614;0.0610;
913885030809805;0.3860;0.0145;0.0780;
913885040908503;0.3722;-0.0100;0.0610;
913885051014910;0.3754;-0.0366;0.0812;
913885061121264;0.3839;-0.0260;0.1111;
913885071239962;0.3913;-0.0132;0.1079;
913885081346368;0.3924;-0.0249;0.1004;
913885091452722;0.3839;-0.0057;0.1079;
913885101548607;0.4052;0.0411;0.1292;
913885111655014;0.4393;0.0763;0.1334;
913885121761368;0.4744;0.0965;0.1409;
913885131865482;0.5479;0.1317;0.1451;
913885141971889;0.5959;0.1807;0.1579;
913885152078243;0.6193;0.1818;0.1632;
913885162203712;0.6491;0.1466;0.1899;
913885172310118;0.6342;0.0688;0.2229;
913885182416472;0.5852;0.0007;0.2485;
913885192505691;0.5383;-0.0377;0.2517;
913885202612097;0.4830;-0.0494;0.2421;
913885212718451;0.4766;-0.0899;0.2527;
913885222834441;0.4467;-0.0899;0.2676;
913885232940847;0.4041;-0.0632;0.2815;
913885243047201;0.4148;-0.0228;0.2826;
913885253141264;0.4339;0.0667;0.2964;
913885263247670;0.4542;0.1338;0.2943;
913885273354024;0.5106;0.1274;0.3007;
913885283466628;0.5202;0.1051;0.3166;
913885293573035;0.4574;0.0987;0.3305;
913885303679389;0.4105;0.1178;0.3358;
913885313778087;0.4403;0.1391;0.3305;
913885323884493;0.4339;0.1413;0.3486;
913885333990847;0.4318;0.1338;0.3518;
913885344111212;0.4137;0.1338;0.3422;
913885354217826;0.3818;0.1328;0.3539;
913885364324389;0.3585;0.0976;0.3603;
913885374423191;0.3499;0.0571;0.3848;
913885384529805;0.2796;0.0656;0.3838;
913885394636368;0.2317;0.0976;0.3635;
913885404731316;0.2381;0.0869;0.3624;
913885414837930;0.2466;0.0806;0.3816;
913885424944493;0.1891;0.0806;0.3976;
913885435075066;0.1742;0.0774;0.4210;
913885445181680;0.1795;0.0923;0.4274;
913885455288243;0.1901;0.0944;0.4200;
913885465359024;0.2274;0.0603;0.4296;
913885475465639;0.1816;0.0209;0.4658;
913885485572201;0.1049;0.0273;0.4754;
913885495704024;0.0772;0.0465;0.4679;
913885505810639;0.1028;0.0550;0.4615;
913885515917201;0.0698;0.0411;0.4477;
913885526030587;0.0389;0.0220;0.4264;
913885536137201;-0.0304;0.0326;0.4477;
913885546243764;-0.0858;0.0358;0.4509;
913885556335170;-0.1209;0.0358;0.4445;
913885566441785;-0.2051;0.0635;0.4114;
913885576548347;-0.2582;0.0539;0.3710;
913885586676212;-0.2720;0.0039;0.3624;
913885596782826;-0.3594;-0.0089;0.3603;
913885606889389;-0.4755;0.0007;0.3507;
913885617006003;-0.5202;0.0177;0.3316;
913885627112618;-0.5351;0.0124;0.2975;
913885637219180;-0.5660;0.0188;0.2549;
913885647295170;-0.6023;0.0326;0.2485;
913885657401785;-0.6161;0.0177;0.2485;
913885667508347;-0.6246;0.0007;0.2186;
913885677607045;-0.6236;0.0060;0.1782;
913885687713660;-0.5831;0.0220;0.1537;
913885697820222;-0.5341;0.0230;0.1153;
913885707954545;-0.4798;0.0411;0.0897;
913885718061160;-0.4606;0.0614;0.1100;
913885728167722;-0.4126;0.0262;0.1068;
913885738264962;-0.3264;-0.0228;0.0823;
913885748371576;-0.2869;-0.0377;0.0663;
913885758478139;-0.2891;-0.0228;0.0493;
913885768580430;-0.2529;-0.0015;0.0493;
913885778687045;-0.2338;0.0198;0.0748;
913885788793607;-0.2029;0.0465;0.0780;
913885798893816;-0.1678;0.0422;0.0791;
913885809000430;-0.1795;0.0241;0.0727;
913885819106993;-0.1987;0.0071;0.0738;
913885829222462;-0.2210;0.0017;0.0866;
913885839329076;-0.2486;-0.0270;0.0887;
913885849435639;-0.2328;-0.0441;0.0876;
913885859530899;-0.2561;-0.0164;0.0706;
913885869637514;-0.2859;0.0156;0.0546;
913885879744076;-0.2848;0.0550;0.0216;
913885889857670;-0.2848;0.0955;0.0258;
913885899964285;-0.2582;0.0710;0.0429;
913885910070847;-0.2232;-0.0164;0.0546;
913885920181212;-0.2104;-0.0387;0.0248;
913885930287826;-0.2391;0.0177;0.0089;
913885940394389;-0.2285;0.0539;-0.0028;
913885950505587;-0.1848;0.0252;0.0025;
913885960612201;-0.1838;-0.0387;0.0301;
913885970718764;-0.1880;-0.0718;0.0482;
913885980835691;-0.1880;-0.0643;0.0301;
913885990942305;-0.1507;-0.0419;0.0205;
913886001048868;-0.1465;-0.0441;0.0525;
913886011135587;-0.1742;-0.0345;0.0375;
913886021242201;-0.1624;0.0198;0.0269;
913886031348764;-0.1667;0.0497;0.0111;
913886041461941;-0.1593;0.0614;0.0036;
913886051568555;-0.1529;0.1210;-0.0017;
913886061675118;-0.1646;0.1072;-0.0092;
913886071789232;-0.1795;-0.0356;0.0025;
913886081895847;-0.2040;-0.0707;-0.0028;
913886092002410;-0.2423;0.0134;-0.0273;
913886102112982;-0.2475;0.0582;-0.0411;
913886112219597;-0.2029;0.0497;-0.0230;
913886122326160;-0.2200;0.0156;-0.0007;
913886132429857;-0.2189;0.0465;0.0025;
913886142536472;-0.2189;0.1061;-0.0049;
913886152643035;-0.1976;0.1466;-0.0166;
913886162728868;-0.1646;0.1328;-0.0124;
913886172835482;-0.1486;0.0923;0.0079;
913886182942045;-0.1688;0.0656;0.0194;
913886193070847;-0.2040;0.0955;0.0132;
913886203177462;-0.2338;0.0933;-0.0348;
913886213284024;-0.2370;0.0539;-0.0614;
913886223395847;-0.2656;-0.0174;-0.0316;
913886233502462;-0.3051;-0.1261;-0.0220;
913886243609024;-0.3104;-0.1346;-0.0603;
913886253703712;-0.3008;-0.0462;-0.1051;
913886263810326;-0.2838;-0.0174;-0.1168;
913886273916889;-0.2264;-0.0100;-0.1008;
913886284021107;-0.2061;-0.0025;-0.0806;
913886294127722;-0.1944;-0.0238;-0.0624;
913886304234285;-0.1859;-0.0121;-0.0816;
913886314334545;-0.1710;0.0113;-0.1040;
913886324441160;-0.1784;-0.0409;-0.0848;
913886334547722;-0.1901;-0.1016;-0.0806;
913886344647930;-0.1784;-0.1410;-0.0891;
913886354754389;-0.1912;-0.1154;-0.0774;
913886364860899;-0.1891;-0.0792;-0.1115;
913886374980378;-0.1976;-0.0366;-0.1221;
913886385086837;-0.2008;-0.0121;-0.1019;
913886395193347;-0.1774;-0.0025;-0.0933;
913886405283503;-0.1316;0.0518;-0.1072;
913886415389962;-0.1390;0.1210;-0.1296;
913886425496472;-0.1305;0.1509;-0.1455;
913886435659962;-0.1369;0.1434;-0.1253;
913886445766420;-0.1582;0.1125;-0.1040;
913886455872930;-0.1806;0.0763;-0.1104;
913886465916003;-0.2125;0.0550;-0.1200;
913886476022462;-0.2391;0.0177;-0.1157;
913886486128972;-0.2338;-0.0313;-0.1061;
913886496235743;-0.2178;-0.0505;-0.1093;
913886506342201;-0.1891;-0.0334;-0.1264;
913886516448712;-0.1710;0.0379;-0.1658;
913886526586003;-0.1582;0.1413;-0.1977;
913886536692462;-0.1475;0.1647;-0.1754;
913886546798972;-0.1337;0.0795;-0.1519;
913886556883295;-0.1060;0.0209;-0.1764;
913886566989753;-0.1145;0.0582;-0.2244;
913886577096264;-0.1305;0.0806;-0.2478;
913886587205587;-0.1582;0.0177;-0.2340;
913886597312045;-0.1731;-0.0739;-0.2265;
913886607418555;-0.1507;-0.0686;-0.2286;
913886617547878;-0.1316;-0.0036;-0.2457;
913886627654337;-0.1145;0.0017;-0.2478;
913886637760847;-0.0847;-0.0132;-0.2329;
913886647857045;-0.0154;0.0241;-0.2244;
913886657963503;0.0719;0.0497;-0.2222;
913886668070014;0.1390;0.0326;-0.2286;
913886678179441;0.1678;0.0390;-0.2478;
913886688285899;0.1806;0.0699;-0.2222;
913886698392410;0.1688;0.0230;-0.1945;
913886708510274;0.1976;-0.0505;-0.1956;
913886718616732;0.2264;-0.0409;-0.2095;
913886728723243;0.2381;-0.0249;-0.2254;
913886738815795;0.2551;-0.0601;-0.2009;
913886748922253;0.2541;-0.0611;-0.1636;
913886759028764;0.2786;0.0284;-0.1615;
913886769133295;0.2988;0.0806;-0.1700;
913886779239753;0.3009;0.0379;-0.1402;
913886789346264;0.2988;-0.0079;-0.0880;
913886799467045;0.2732;-0.0068;-0.0933;
913886809573503;0.2892;0.0081;-0.0933;
913886819680014;0.2573;0.0103;-0.1253;
913886829772357;0.2413;0.0529;-0.1051;
913886839878816;0.1869;0.0603;-0.0699;
913886849985326;0.1720;0.0071;-0.0593;
913886860088399;0.1816;0.0134;-0.0838;
913886870194857;0.1603;0.0784;-0.0965;
913886880301368;0.1646;0.0699;-0.0784;
913886890417566;0.1656;0.0049;-0.0614;
913886900524024;0.1390;-0.0324;-0.0401;
913886910630535;0.0900;-0.0185;-0.0305;
913886920745274;0.0900;-0.0217;-0.0390;
913886930851732;0.0964;-0.0782;-0.0220;
913886940958243;0.0964;-0.0899;-0.0134;
913886951066212;0.1177;-0.0558;-0.0113;
913886961172670;0.1390;-0.0004;-0.0369;
913886971279180;0.1646;0.0475;-0.0678;
913886981365899;0.1486;0.0550;-0.0411;
913886991472357;0.1454;-0.0121;-0.0103;
913887001578868;0.1369;-0.0387;-0.0241;
913887011690847;0.1273;0.0433;-0.0539;
913887021797305;0.1092;0.0561;-0.0550;
913887031903816;0.1081;0.0305;-0.0443;
913887042020430;0.0858;0.0103;-0.0145;
913887052126889;0.0687;0.0113;0.0025;
913887062233399;0.0623;0.0273;0.0036;
913887072338503;0.0783;-0.0057;0.0173;
913887082444962;0.0708;-0.0526;0.0429;
913887092551472;0.0676;-0.0547;0.0418;
913887102664753;0.0613;-0.0302;0.0450;
913887112771212;0.0453;-0.0164;0.0089;
913887122877722;0.0559;0.0401;0.0132;
913887132975899;0.0495;0.0454;0.0312;
913887143082357;0.0804;0.0081;0.0333;
913887153188868;0.0623;0.0273;0.0100;
913887163280378;0.0783;0.0507;0.0089;
913887173386837;0.0740;0.0220;0.0290;
913887183493347;0.0655;-0.0100;0.0301;
913887193616628;0.0495;-0.0494;0.0429;
913887203723087;0.0346;-0.0654;0.0407;
913887213829597;0.0421;-0.0984;0.0631;
913887223938191;0.0442;-0.1336;0.0727;
913887234044649;0.0879;-0.1005;0.0706;
913887244151160;0.0900;-0.0356;0.0770;
913887254248503;0.1103;0.0198;0.0365;
913887264354962;0.1518;0.0795;0.0248;
913887274461420;0.1699;0.0784;0.0546;
913887284569128;0.2104;-0.0089;0.0652;
913887294675587;0.2274;-0.0601;0.0397;
913887304782097;0.1369;-0.0185;0.0269;
913887314890587;0.1071;-0.0036;0.0248;
913887324997045;0.1124;-0.0356;0.0397;
913887335103555;0.0836;-0.0505;0.0610;
913887345197201;0.0634;-0.0409;0.0493;
913887355303764;0.0666;-0.0196;0.0599;
913887365410326;0.0730;-0.0068;0.0727;
913887375542774;0.0975;0.0337;0.0706;
913887385649337;0.0826;0.1136;0.0546;
913887395755899;0.0975;0.1636;0.0057;
913887405837670;0.0826;0.1477;0.0205;
913887415944232;0.0676;0.0912;0.0493;
913887426050743;0.0410;0.0220;0.0471;
913887436152670;-0.0133;0.0209;0.0025;
913887446259232;-0.0655;0.0465;-0.0124;
913887456365795;-0.0644;0.0156;-0.0028;
913887466471732;-0.0506;-0.0036;0.0132;
913887476578295;-0.0794;0.0166;0.0152;
913887486684857;-0.0719;0.0390;0.0237;
913887496799180;-0.0186;0.0305;0.0365;
913887506905743;0.0176;0.0188;0.0418;
913887517012305;0.0410;0.0060;0.0503;
913887527135691;0.0570;0.0092;0.0386;
913887537242253;0.0762;0.0252;0.0100;
913887547348816;0.0794;0.0252;0.0205;
913887557445378;0.0783;-0.0196;0.0429;
913887567551941;0.0889;-0.0526;0.0503;
913887577658503;0.1060;-0.0334;0.0354;
913887587763712;0.1188;-0.0132;0.0322;
913887597870274;0.1433;-0.0111;0.0493;
913887607976837;0.1731;-0.0079;0.0770;
913887618069441;0.1635;0.0039;0.0993;
913887628176003;0.1624;0.0071;0.1270;
913887638282566;0.1593;-0.0185;0.1430;
913887648415378;0.1603;-0.0398;0.1377;
913887658521941;0.1316;-0.0238;0.1451;
913887668628503;0.1103;-0.0111;0.1196;
913887678733399;0.0975;0.0017;0.1302;
913887688839962;0.0783;-0.0111;0.1505;
913887698946524;0.0666;-0.0718;0.1515;
913887709061837;0.0485;-0.0558;0.1260;
913887719168399;0.0186;-0.0132;0.1185;
913887729274962;0.0293;-0.0196;0.1206;
913887739370691;0.0282;-0.0313;0.1356;
913887749477253;-0.0282;-0.0206;0.1398;
913887759583816;-0.0389;-0.0057;0.1462;
913887769685899;-0.0474;-0.0196;0.1515;
913887779792462;-0.0666;-0.0462;0.1430;
913887789899024;-0.0889;-0.0430;0.1377;
913887800018087;-0.1273;-0.0089;0.1036;
913887810124649;-0.1433;0.0177;0.0791;
913887820231212;-0.1369;0.0337;0.0908;
913887830328191;-0.1390;0.0103;0.0897;
913887840434753;-0.1465;-0.0249;0.0716;
913887850541316;-0.1774;0.0198;0.0525;
913887860651316;-0.1646;0.0411;0.0578;
913887870757878;-0.1294;-0.0047;0.0695;
913887880864441;-0.1507;-0.0089;0.0748;
913887890968712;-0.1731;0.0081;0.0759;
913887901075274;-0.1443;-0.0004;0.0844;
913887911181837;-0.1443;-0.0228;0.0834;
913887921289753;-0.1422;-0.0111;0.0599;
913887931396316;-0.1230;0.0220;0.0386;
913887941502878;-0.1273;0.0667;0.0216;
913887951613712;-0.1156;0.0752;0.0354;
913887961720274;-0.0932;0.0475;0.0386;
913887971826837;-0.0932;0.0422;0.0226;
913887981920430;-0.0879;0.0656;0.0047;
913887992026993;-0.0655;0.0806;0.0057;
913888002133555;-0.0826;0.0443;0.0312;
913888012249441;-0.0804;0.0401;0.0407;
913888022356003;-0.0847;0.0763;0.0354;
913888032462566;-0.0740;0.0486;0.0471;
913888042565014;-0.0613;0.0166;0.0642;
913888052671576;-0.0453;-0.0047;0.0727;
913888062778139;-0.0517;-0.0377;0.0344;
913888072900899;-0.0623;-0.0057;0.0079;
913888083007462;-0.0591;0.0593;0.0194;
913888093114024;-0.0431;0.0443;0.0290;
913888103210378;-0.0186;-0.0260;0.0100;
913888113316941;-0.0495;-0.0632;-0.0039;
913888123423503;-0.0581;-0.0334;-0.0145;
913888133519753;-0.0538;0.0166;-0.0081;
913888143626316;-0.0389;0.0443;-0.0145;
913888153732878;-0.0293;0.0603;0.0079;
913888163835899;-0.0240;0.0166;0.0216;
913888173942462;-0.0186;-0.0292;0.0216;
913888184049024;-0.0208;-0.0324;0.0100;
913888194163295;-0.0250;-0.0142;-0.0411;
913888204269857;-0.0144;0.0337;-0.0358;
913888214376420;-0.0410;0.0443;0.0015;
913888224488712;-0.0325;-0.0281;-0.0092;
913888234595274;-0.0410;-0.0462;-0.0390;
913888244701837;-0.0495;0.0198;-0.0529;
913888254798607;-0.0282;0.0369;-0.0390;
913888264905170;-0.0144;0.0305;-0.0294;
913888275011732;-0.0304;0.0486;-0.0166;
913888285129857;-0.0357;0.0497;-0.0166;
913888295236420;-0.0304;-0.0100;-0.0124;
913888305342982;-0.0325;-0.0686;0.0025;
913888315432670;-0.0421;-0.0526;-0.0177;
913888325539232;-0.0474;-0.0185;-0.0497;
913888335645795;-0.0325;-0.0121;-0.0316;
913888345825274;-0.0410;-0.0132;-0.0145;
913888355932462;-0.0453;-0.0324;-0.0092;
913888366039649;-0.0623;-0.0111;-0.0262;
913888376084441;-0.0389;-0.0121;-0.0198;
913888386191628;-0.0559;-0.0356;-0.0230;
913888396298816;-0.0719;-0.0196;-0.0113;
913888406392670;-0.0804;0.0039;0.0132;
913888416499857;-0.0996;-0.0398;0.0429;
913888426607045;-0.1049;-0.1154;0.0429;
913888436730482;-0.1316;-0.1080;0.0237;
913888446837670;-0.1656;-0.0079;-0.0230;
913888456944857;-0.1294;0.0379;-0.0326;
913888467061837;-0.0911;-0.0015;0.0216;
913888477169024;-0.1390;-0.0696;0.0248;
913888487276212;-0.1816;-0.0696;0.0025;
913888497363191;-0.2178;0.0433;-0.0390;
913888507470378;-0.1987;0.0997;-0.0550;
913888517577566;-0.1422;0.0518;-0.0369;
913888527674857;-0.1603;0.0049;-0.0390;
913888537782045;-0.1987;-0.0089;-0.0305;
913888547889232;-0.2189;-0.0196;-0.0241;
913888557996107;-0.1816;-0.0228;-0.0294;
913888568103295;-0.1795;-0.0164;-0.0422;
913888578210482;-0.1688;0.0294;-0.1093;
913888588310170;-0.1252;0.0688;-0.1093;
913888598417357;-0.1134;0.0561;-0.0901;
913888608524545;-0.1177;0.0284;-0.1008;
913888618639753;-0.0996;0.0656;-0.1189;
913888628746941;-0.0889;0.0848;-0.1232;
913888638854128;-0.1156;-0.0047;-0.1210;
913888648956264;-0.1422;-0.0899;-0.1317;
913888659063451;-0.1433;-0.0270;-0.1402;
913888669170639;-0.1316;0.0284;-0.1253;
913888679274701;-0.0889;-0.0036;-0.1210;
913888689381889;-0.0826;-0.0015;-0.1519;
913888699489076;-0.1007;0.0688;-0.2137;
913888709601264;-0.0804;0.1189;-0.2222;
913888719708451;-0.0570;0.0635;-0.1860;
913888729815639;-0.0708;-0.0356;-0.1700;
913888739921420;-0.0900;-0.0505;-0.1945;
913888750028607;-0.0751;-0.0313;-0.2073;
913888760135795;-0.0634;-0.0590;-0.1924;
913888770236107;-0.0804;-0.0867;-0.1935;
913888780343295;-0.0815;-0.0174;-0.2052;
913888790450482;-0.0708;0.0401;-0.1871;
913888800554857;-0.0229;0.0124;-0.1668;
913888810662045;0.0229;-0.0100;-0.1807;
913888820769232;0.0304;0.0007;-0.2457;
913888830887878;0.0794;0.0273;-0.2478;
913888840995066;0.0900;0.0230;-0.2169;
913888851102253;0.0964;-0.0419;-0.2148;
913888861202045;0.1198;-0.0782;-0.2158;
913888871309232;0.0858;-0.0441;-0.2148;
913888881416420;0.1198;0.0071;-0.2063;
913888891520691;0.2019;0.0273;-0.1786;
913888901627878;0.2445;0.0007;-0.1306;
913888911735066;0.2264;-0.0196;-0.0997;
913888921845378;0.2466;-0.0281;-0.0965;
913888931952566;0.2754;-0.0409;-0.0838;
913888942059753;0.2583;-0.0387;-0.1083;
913888952180014;0.2562;0.0230;-0.1413;
913888962287201;0.2615;-0.0047;-0.1083;
913888972394389;0.2519;-0.0952;-0.0965;
913888982483607;0.1869;-0.1037;-0.1104;
913888992590795;0.1379;-0.0036;-0.1242;
913889002697982;0.1752;0.0433;-0.1168;
913889012800274;0.2381;0.0039;-0.1083;
913889022907462;0.2264;-0.0249;-0.0923;
913889033014649;0.1699;-0.0100;-0.0582;
913889043121524;0.1859;-0.0238;-0.0465;
913889053228712;0.2146;-0.0515;-0.0475;
913889063335899;0.1561;-0.0483;-0.0731;
913889073427462;0.1358;0.0039;-0.1029;
913889083534649;0.1518;0.0113;-0.0912;
913889093641837;0.1699;-0.0356;-0.0891;
913889103757462;0.1284;-0.0462;-0.0976;
913889113864649;0.1507;0.0177;-0.1285;
913889123971837;0.1784;0.0007;-0.1189;
913889134077149;0.1422;-0.0292;-0.0976;
913889144184337;0.1294;-0.0079;-0.0923;
913889154291524;0.1454;0.0156;-0.0795;
913889164413920;0.1667;-0.0068;-0.0486;
913889174521107;0.1614;-0.0537;-0.0614;
913889184628295;0.1529;-0.0462;-0.0965;
913889194713712;0.1688;0.0230;-0.1189;
913889204820899;0.1806;0.0379;-0.0976;
913889214928087;0.2019;-0.0100;-0.0848;
913889225054441;0.1923;0.0071;-0.0816;
913889235161628;0.1976;0.0624;-0.0880;
913889245268816;0.2604;0.0401;-0.0848;
913889255340639;0.2583;0.0039;-0.0656;
913889265447826;0.2274;-0.0004;-0.0550;
913889275555014;0.2349;-0.0281;-0.0262;
913889285681055;0.2285;-0.0824;-0.0081;
913889295788243;0.2029;-0.0973;-0.0039;
913889305895430;0.1923;-0.0451;-0.0465;
913889315979076;0.2466;0.0422;-0.0465;
913889326086264;0.2636;0.0529;-0.0284;
913889336193451;0.3276;0.0134;-0.0316;
913889346327410;0.2935;0.0049;-0.0326;
913889356434597;0.2786;0.0156;-0.0358;
913889366541785;0.3190;-0.0260;-0.0124;
913889376632670;0.3031;-0.0686;0.0057;
913889386739857;0.2562;-0.0569;0.0237;
913889396847045;0.2498;-0.0324;0.0599;
913889406958191;0.2594;-0.0387;0.0684;
913889417065378;0.2839;-0.0473;0.0610;
913889427172566;0.2477;-0.0185;0.0344;
913889437270691;0.2562;0.0252;0.0418;
913889447377878;0.2732;0.0071;0.0738;
913889457485066;0.2306;-0.0228;0.0652;
913889467579232;0.1955;0.0262;0.0578;
913889477686420;0.2285;0.0571;0.0674;
913889487793607;0.2189;0.0134;0.0802;
913889497905587;0.1667;-0.0015;0.0834;
913889508012774;0.1369;0.0134;0.1238;
913889518119962;0.1284;0.0049;0.1547;
913889528226055;0.1188;0.0007;0.1558;
913889538333243;0.0847;0.0294;0.1142;
913889548440430;0.0826;0.0880;0.0951;
913889558546420;0.0826;0.0891;0.1025;
913889568653607;0.0900;0.0358;0.1068;
913889578760795;0.0410;0.0273;0.1004;
913889588866628;-0.0197;0.0784;0.0919;
913889598973816;0.0229;0.0742;0.0759;
913889609081003;0.0527;0.0550;0.0620;
913889619181837;0.0463;0.1040;0.0844;
913889629289024;0.0889;0.1019;0.1217;
913889639396212;0.1284;0.0209;0.1302;
913889649505795;0.1049;-0.0387;0.0919;
913889659612982;0.0921;-0.0249;0.0631;
913889669720170;0.1326;0.0145;0.0791;
913889679848816;0.1411;0.0198;0.0940;
913889689956003;0.1433;0.0017;0.0844;
913889700063191;0.1401;0.0230;0.0727;
913889710173503;0.1742;0.0422;0.0812;
913889720280691;0.1848;0.0060;0.0791;
913889730387878;0.1901;-0.0292;0.0940;
913889740471316;0.1433;-0.0601;0.1238;
913889750578503;0.1422;-0.1005;0.1377;
913889760685691;0.1294;-0.1165;0.1334;
913889770790899;0.1252;-0.0334;0.0908;
913889780898087;0.1529;0.0795;0.0897;
913889791005274;0.1838;0.0806;0.0993;
913889801112045;0.1933;0.0262;0.1004;
913889811219232;0.1145;0.0017;0.1079;
913889821326420;0.1071;0.0188;0.1057;
913889831450482;0.1273;0.0049;0.1057;
913889841557670;0.1156;-0.0217;0.1100;
913889851664857;0.0698;0.0188;0.1398;
913889861754441;0.0826;0.0486;0.1601;
913889871861628;0.1166;0.0028;0.1771;
913889881968816;0.0964;0.0252;0.1419;
913889892074753;0.1241;0.1029;0.1387;
913889902181941;0.1593;0.0635;0.1707;
913889912289128;0.1081;-0.0515;0.1494;
913889922397930;0.0666;-0.0622;0.1206;
913889932505118;0.0272;0.0252;0.1324;
913889942612305;0.0698;0.0656;0.1334;
913889952723191;0.1262;0.0369;0.1281;
913889962830378;0.0943;0.0316;0.1462;
913889972937566;0.0964;0.0241;0.1792;
913889983036941;0.0921;-0.0398;0.1995;
913889993144128;0.0815;-0.0132;0.1750;
913890003251316;0.0826;0.0379;0.1313;
913890013363607;0.0794;0.0007;0.1409;
913890023470795;0.0506;-0.0132;0.1430;
913890033577982;0.0623;0.0166;0.1228;
913890043672149;0.0751;0.0486;0.1153;
913890053779337;0.0836;0.0028;0.0993;
913890063886524;0.0346;-0.0473;0.0791;
913890073996003;0.0240;-0.0111;0.0876;
913890084103191;0.0325;0.0369;0.1366;
913890094210378;0.0953;-0.0068;0.1526;
913890104313712;0.0506;-0.1027;0.1430;
913890114420899;0.0378;-0.0814;0.0993;
913890124528087;0.0250;-0.0292;0.1153;
913890134629337;0.0772;0.0443;0.1313;
913890144736524;0.0783;0.0081;0.1260;
913890154843712;0.0474;-0.0313;0.1185;
913890164945378;0.0208;0.0209;0.1238;
913890175052566;0.0293;0.0326;0.1569;
913890185159753;0.0634;0.0209;0.1601;
913890195270795;0.0208;0.0113;0.1835;
913890205377982;0.0059;0.0198;0.2144;
913890215485170;-0.0314;0.0646;0.2112;
913890225556420;-0.0453;0.0997;0.1654;
913890235663607;-0.0314;0.1093;0.1664;
913890245770795;-0.0463;0.0912;0.1856;
913890255904545;-0.0783;0.0443;0.1792;
913890266011732;-0.1177;0.0113;0.1899;
913890276118920;-0.2019;0.0103;0.1877;
913890286262774;-0.2434;-0.0079;0.1750;
913890296369962;-0.2434;0.0049;0.1622;
913890306477149;-0.2667;0.0518;0.1728;
913890316557462;-0.2200;0.0497;0.1792;
913890326664649;-0.1582;-0.0004;0.1409;
913890336771837;-0.1550;0.0252;0.0919;
913890346857566;-0.1454;0.0507;0.0940;
913890356964128;-0.1060;0.0103;0.1025;
913890367070639;-0.1220;-0.0164;0.0748;
913890377180430;-0.1422;0.0017;0.0525;
913890387286993;-0.1379;0.0241;0.0493;
913890397393503;-0.1017;0.0390;0.0557;
913890407556524;-0.0921;0.0507;0.0738;
913890417663087;-0.0943;0.0284;0.0961;
913890427769597;-0.0804;-0.0473;0.1142;
913890437825899;-0.1081;-0.1069;0.0866;
913890447932462;-0.1124;-0.0515;0.0397;
913890458038972;-0.1230;-0.0015;0.0397;
913890468153607;-0.1017;-0.0281;0.0578;
913890478260170;-0.1198;-0.0462;0.0599;
913890488366680;-0.1156;-0.0302;0.0535;
913890498472566;-0.1049;0.0284;0.0535;
913890508579128;-0.1081;0.0646;0.0567;
913890518685639;-0.0932;0.0273;0.0535;
913890528782253;-0.1156;-0.0377;0.0919;
913890538888816;-0.1475;-0.0632;0.1174;
913890548995326;-0.1571;-0.0313;0.0620;
913890559106732;-0.1379;0.0667;0.0333;
913890569213295;-0.1241;0.0667;0.0482;
913890579319805;-0.1294;-0.0164;0.0461;
913890589441003;-0.1369;0.0039;0.0162;
913890599547566;-0.1262;0.0656;-0.0028;
913890609654076;-0.0836;0.0507;0.0121;
913890619743503;-0.0794;-0.0260;0.0194;
913890629850066;-0.0889;-0.0132;0.0333;
913890639956576;-0.0953;0.0443;0.0439;
913890650069753;-0.0602;0.0017;0.0514;
913890660176316;-0.0687;-0.0377;0.0089;
913890670282826;-0.0826;-0.0100;0.0121;
913890680403712;-0.0826;0.0028;0.0079;
913890690510274;-0.0666;0.0134;-0.0103;
913890700616785;-0.0815;0.0166;-0.0103;
913890710717357;-0.0719;-0.0047;-0.0060;
913890720823920;-0.0708;-0.0430;0.0121;
913890730930430;-0.0804;0.0060;-0.0177;
913890741058503;-0.0740;0.0497;0.0004;
913890751165066;-0.0698;0.0092;0.0290;
913890761271576;-0.0815;-0.0707;0.0079;
913890771342462;-0.0858;-0.0132;-0.0390;
913890781449024;-0.0687;0.0635;-0.0326;
913890791555535;-0.0559;0.0241;-0.0241;
913890801668399;-0.0815;-0.0356;-0.0326;
913890811774962;-0.1049;-0.0622;-0.0220;
913890821881472;-0.0996;0.0166;-0.0326;
913890831987670;-0.0783;0.1349;-0.0582;
913890842094232;-0.0549;0.1722;-0.0475;
913890852200743;-0.0389;0.1061;-0.0156;
913890862312878;-0.0399;0.0081;0.0068;
913890872419441;-0.0932;-0.0419;-0.0369;
913890882525951;-0.1049;-0.0089;-0.0582;
913890892624857;-0.0975;0.0166;-0.0635;
913890902731420;-0.0783;0.0443;-0.0752;
913890912837930;-0.1007;0.1008;-0.0859;
913890922955847;-0.0666;0.0827;-0.0710;
913890933062410;-0.0591;0.0614;-0.0593;
913890943168920;-0.0570;-0.0079;-0.0678;
913890953269753;-0.0794;-0.0782;-0.0454;
913890963376316;-0.0911;-0.1197;-0.0230;
913890973482826;-0.0804;-0.1879;-0.0177;
913890983588920;-0.0719;-0.1719;-0.0529;
913890993695482;-0.0506;-0.0696;-0.0667;
913891003801993;-0.0357;-0.0430;-0.0710;
913891013909180;-0.0399;-0.0760;-0.0678;
913891024015743;-0.0751;-0.1176;-0.0816;
913891034122253;-0.0623;-0.1250;-0.0763;
913891044231628;-0.0453;-0.0334;-0.0731;
913891054338191;-0.0218;0.0518;-0.0859;
913891064444701;0.0005;0.0806;-0.0593;
913891074557462;0.0176;0.0241;-0.0273;
913891084664024;-0.0197;-0.0686;-0.0305;
913891094770535;-0.0719;-0.0047;-0.0486;
913891104863712;-0.0485;0.0891;-0.0571;
913891114970274;-0.0261;0.0614;-0.0699;
913891125076785;-0.0676;0.0571;-0.0614;
913891135200378;-0.0623;0.0784;-0.0667;
913891145306941;-0.0272;0.0656;-0.0593;
913891155413451;-0.0293;0.0028;-0.0433;
913891165504441;-0.0421;-0.0622;-0.0348;
913891175611003;-0.0623;-0.0324;-0.0337;
913891185717514;-0.0719;-0.0366;-0.0379;
913891195855899;-0.0591;-0.0025;-0.0955;
913891205962462;-0.0357;0.0699;-0.0859;
913891216068972;-0.0304;0.0390;-0.0848;
913891226132878;-0.0442;0.0017;-0.0976;
913891236239441;-0.0602;0.0177;-0.1061;
913891246345951;-0.0485;0.0230;-0.0987;
913891256466732;-0.0357;0.0422;-0.0944;
913891266573295;-0.0154;0.0944;-0.1008;
913891276679805;-0.0048;0.1349;-0.0667;
913891286769493;-0.0229;0.0262;-0.0422;
913891296876055;-0.0410;-0.1101;-0.0710;
913891306982566;-0.0378;-0.0739;-0.0699;
913891317160274;-0.0272;-0.0228;-0.0614;
913891327266837;-0.0059;-0.0281;-0.0710;
913891337373347;-0.0176;-0.0015;-0.0891;
913891347411628;-0.0314;0.0092;-0.0688;
913891357518243;-0.0165;0.0039;-0.0699;
913891367624857;0.0059;-0.0174;-0.0635;
913891377736003;-0.0069;-0.0451;-0.0401;
913891387842618;-0.0250;-0.0803;-0.0081;
913891397949232;-0.0368;-0.0622;-0.0379;
913891408064857;-0.0272;0.0593;-0.0667;
913891418171368;-0.0037;0.1178;-0.0603;
913891428277982;0.0027;0.0465;-0.0603;
913891438374962;-0.0357;0.0241;-0.0614;
913891448481576;-0.0581;0.0550;-0.0667;
913891458588191;-0.0186;0.0923;-0.0784;
913891468716680;0.0314;0.0891;-0.0603;
913891478823295;0.0250;-0.0068;-0.0273;
913891488929910;0.0240;-0.1346;0.0121;
913891499026680;-0.0208;-0.1868;0.0194;
913891509133295;-0.0538;-0.1527;-0.0156;
913891519239910;-0.0250;-0.0973;-0.0230;
913891529340587;-0.0123;-0.0547;-0.0433;
913891539447201;-0.0250;-0.0068;-0.0678;
913891549553816;-0.0261;0.0252;-0.0656;
913891559664597;-0.0048;-0.0057;-0.0518;
913891569771212;0.0176;-0.0302;-0.0678;
913891579877826;0.0133;-0.0249;-0.0603;
913891589989857;0.0272;0.0092;-0.0294;
913891600096472;0.0261;0.1040;-0.0262;
913891610203087;0.0442;0.1583;-0.0571;
913891620304857;0.0421;0.1530;-0.0390;
913891630411472;0.0218;0.1072;-0.0273;
913891640518087;0.0229;0.0624;-0.0294;
913891650630430;-0.0336;0.0262;-0.0337;
913891660737045;-0.0144;-0.0185;-0.0369;
913891670843660;-0.0037;-0.0047;-0.0379;
913891680949441;0.0261;0.0134;-0.0262;
913891691056055;0.0229;-0.0345;0.0079;
913891701162670;-0.0037;-0.0558;0.0269;
913891711277982;-0.0336;-0.0441;-0.0166;
913891721384597;-0.0101;0.0145;-0.0369;
913891731491212;0.0208;0.0454;-0.0401;
913891741607878;0.0463;0.0305;-0.0529;
913891751714493;0.0144;0.0124;-0.0486;
913891761821107;0.0250;0.0220;0.0068;
913891771899962;0.0197;0.0720;-0.0465;
913891782006576;0.0538;0.0443;-0.0209;
913891792113191;0.0272;-0.0356;0.0173;
913891802219545;0.0272;-0.0398;0.0301;
913891812326160;-0.0027;-0.0206;0.0100;
913891822432774;0.0229;-0.0462;0.0015;
913891832547462;0.0229;-0.0888;0.0258;
913891842654076;0.0123;-0.1016;0.0036;
913891852760691;0.0027;-0.0590;0.0025;
913891862862774;0.0080;0.0049;-0.0007;
913891872969389;0.0474;0.0390;0.0036;
913891883076003;0.0826;0.0784;0.0280;
913891893188607;0.0751;0.0039;0.0589;
913891903295222;0.0964;-0.0941;0.0940;
913891913401837;0.0123;-0.1080;0.0812;
913891923506212;-0.0176;-0.0771;0.0493;
913891933612826;0.0112;-0.0547;0.0706;
913891943719441;0.0218;-0.0707;0.0567;
913891953830430;-0.0005;-0.0505;0.0599;
913891963937045;-0.0154;0.0071;0.0663;
913891974043660;-0.0027;0.0028;0.0727;
913891984144337;0.0304;0.0284;0.0599;
913891994250951;0.0186;-0.0015;0.0876;
913892004357566;0.0069;0.0092;0.0919;
913892014459441;-0.0037;0.0656;0.0993;
913892024566055;-0.0112;0.0326;0.0940;
913892034672670;-0.0304;-0.0121;0.1121;
913892044773087;-0.1103;0.0092;0.0834;
913892054879701;-0.1092;0.1189;0.0503;
913892064986316;-0.0879;0.1296;0.0525;
913892075093920;-0.0613;-0.0036;0.0535;
913892085200535;-0.0900;0.0092;0.0557;
913892095307149;-0.1454;0.0561;0.0599;
913892105419441;-0.0549;-0.0419;0.0663;
913892115526055;-0.0868;-0.1293;0.0525;
913892125632670;-0.1614;-0.0888;0.0162;
913892135743191;-0.1933;-0.0057;0.0132;
913892145849805;-0.0975;0.0017;-0.0103;
913892155956420;-0.0538;-0.0356;-0.0316;
913892166062462;-0.0911;-0.0228;-0.0529;
913892176169076;-0.0687;-0.0217;-0.0497;
913892186275691;-0.0250;0.0220;-0.0539;
913892196384962;0.0091;0.0124;-0.0262;
913892206491576;-0.0027;-0.0920;-0.0071;
913892216598191;0.0005;-0.0547;-0.0252;
913892226723087;-0.0517;0.0049;-0.0411;
913892236829701;-0.0080;-0.0260;-0.0145;
913892246936316;-0.0197;-0.0675;-0.0230;
913892257022514;-0.0495;-0.0409;-0.0486;
913892267129128;-0.0495;0.0113;-0.0411;
913892277235743;-0.0293;0.0039;-0.0326;
913892287337982;-0.0154;0.0028;-0.0326;
913892297444597;0.0144;0.0454;-0.0273;
913892307551212;0.0069;0.0411;-0.0060;
913892317659597;-0.0005;-0.0025;-0.0134;
913892327766212;-0.0538;0.0092;-0.0379;
913892337872826;-0.0485;0.0561;-0.0305;
913892347976628;-0.0218;0.0742;-0.0326;
913892358083295;-0.0154;0.0752;-0.0497;
913892368189962;-0.0208;0.0923;-0.0401;
913892378295795;-0.0005;0.0965;0.0036;
913892388402462;0.0133;0.0656;-0.0454;
913892398509128;-0.0165;-0.0196;-0.0252;
913892408602253;-0.0176;-0.0739;-0.0049;
913892418708920;-0.0421;-0.0356;-0.0166;
913892428815587;-0.0378;0.0305;-0.0550;
913892438940587;-0.0261;0.0262;-0.0390;
913892449047253;-0.0186;-0.0121;-0.0411;
913892459153972;-0.0282;-0.0537;-0.0731;
913892469259753;-0.0442;-0.0515;-0.0678;
913892479366420;-0.0304;-0.0771;-0.0550;
913892489473139;-0.0101;-0.0228;-0.0646;
913892499577045;0.0229;0.0422;-0.0518;
913892509683712;0.0293;0.0081;-0.0401;
913892519790430;0.0304;-0.0132;-0.0411;
913892529897670;-0.0378;-0.0611;-0.0667;
913892540004337;-0.0389;-0.0909;-0.0497;
913892550111055;-0.0218;-0.0451;-0.0571;
913892560215430;0.0037;0.0049;-0.0987;
913892570322097;0.0016;0.0529;-0.0933;
913892580428816;0.0037;0.0582;-0.0710;
913892590549857;0.0282;0.0209;-0.0635;
913892600656524;0.0325;-0.0047;-0.0230;
913892610763243;0.0208;-0.0526;-0.0198;
913892620863764;0.0250;-0.0569;-0.0230;
913892630970430;-0.0101;0.0284;-0.0369;
913892641077149;-0.0037;0.0763;-0.0241;
913892651182930;0.0229;0.0529;-0.0497;
913892661289597;-0.0123;-0.0036;-0.0667;
913892671396316;-0.0378;-0.0238;-0.0550;
913892681505430;-0.0272;-0.0483;-0.0390;
913892691612097;0.0048;-0.0142;-0.0411;
913892701718816;0.0208;0.0028;-0.0156;
913892711836785;0.0368;-0.0004;-0.0081;
913892721943451;0.0027;0.0497;-0.0188;
913892732050118;0.0133;0.0699;-0.0273;
913892742180274;0.0059;-0.0334;0.0089;
913892752286941;0.0154;-0.0451;-0.0177;
913892762393660;0.0037;0.0124;-0.0454;
913892772460691;0.0250;0.0294;-0.0411;
913892782567357;0.0314;0.0284;-0.0156;
913892792674076;0.0410;0.0326;-0.0103;
913892802783087;0.0666;0.0220;0.0173;
913892812889753;0.0794;-0.0238;0.0461;
913892822996472;0.0794;-0.0111;0.0226;
913892833102774;0.0676;0.0561;0.0132;
913892843209441;0.0634;0.0358;0.0301;
913892853316160;0.0495;-0.0153;0.0173;
913892863430066;0.0069;-0.0206;0.0100;
913892873536732;0.0154;0.0060;0.0237;
913892883643451;0.0176;0.0103;0.0237;
913892893739857;0.0368;0.0007;0.0344;
913892903846524;0.0453;-0.0004;0.0684;
913892913953243;0.0240;-0.0324;0.0812;
913892924075014;-0.0144;-0.0025;0.0333;
913892934181680;-0.0474;0.0539;0.0450;
913892944288399;-0.0144;0.0337;0.0439;
913892954379545;-0.0123;0.0134;0.0290;
913892964486212;-0.0261;0.0369;-0.0007;
913892974592930;-0.0176;0.0507;0.0121;
913892984701524;-0.0293;0.0124;0.0269;
913892994808191;-0.0304;-0.0047;0.0429;
913893004914910;-0.0314;0.0198;0.0514;
913893015030899;0.0016;0.0103;0.0354;
913893025137566;-0.0080;0.0475;-0.0007;
913893035244285;-0.0208;0.0294;0.0365;
913893045326107;-0.0165;-0.1091;0.0375;
913893055432774;-0.0463;-0.1740;0.0015;
913893065539441;-0.0719;-0.1229;-0.0103;
913893075649232;-0.0868;-0.0558;-0.0060;
913893085755899;-0.0421;-0.0462;-0.0017;
913893095862618;0.0165;-0.0206;-0.0007;
913893105986837;0.0240;0.0166;0.0312;
913893116093503;0.0048;-0.0142;0.0205;
913893126200170;-0.0101;-0.0089;-0.0113;
913893136320378;-0.0485;-0.0196;0.0004;
913893146427045;-0.0399;-0.0441;-0.0028;
913893156533764;-0.0495;0.0177;-0.0230;
913893166638607;-0.0229;0.1104;-0.0273;
913893176745274;-0.0069;0.1349;-0.0220;
913893186851993;0.0059;0.0795;-0.0049;
913893196947982;0.0165;0.0252;0.0290;
913893207054649;0.0186;-0.0047;0.0322;
913893217161316;-0.0186;-0.0473;0.0152;
913893227288191;-0.0272;-0.0153;0.0036;
913893237394857;-0.0421;0.0028;0.0397;
913893247501576;-0.0282;-0.0036;0.0226;
913893257572878;-0.0304;0.0763;-0.0134;
913893267679545;-0.0165;0.1221;-0.0252;
913893277786212;-0.0037;0.0944;-0.0081;
913893287904962;0.0176;0.0401;0.0184;
913893298011628;0.0165;0.0379;0.0365;
913893308118347;0.0272;0.0731;0.0386;
913893318232774;0.0037;0.0763;0.0047;
913893328339441;-0.0112;0.0507;0.0322;
913893338446160;-0.0453;-0.0419;0.0663;
913893348547878;-0.0453;-0.0856;0.0397;
913893358654597;-0.0623;-0.0920;0.0121;
913893368761368;-0.0644;-0.1059;0.0226;
913893378861107;-0.0730;-0.0814;0.0100;
913893388967826;-0.0261;0.0678;0.0132;
913893399074597;0.0421;0.1519;0.0205;
913893409169024;0.0943;0.0507;0.0290;
913893419275743;0.1316;-0.0089;0.0079;
913893429382514;0.0378;-0.0068;0.0365;
913893439500170;-0.0442;-0.0409;0.0482;
913893449606889;-0.0176;-0.0941;0.0450;
913893459713660;-0.0559;-0.0483;0.0684;
913893469825430;-0.0740;0.0784;0.0439;
913893479932149;-0.0336;0.0614;0.0418;
913893490038920;0.0005;-0.0302;0.0716;
913893500146212;-0.0325;-0.0899;0.0929;
913893510252930;-0.0485;-0.0835;0.0429;
913893520359701;-0.0421;0.0220;0.0004;
913893530456941;-0.0399;0.0379;0.0248;
913893540563660;-0.0410;0.0007;0.0216;
913893550670430;-0.0527;0.0220;0.0194;
913893560780691;-0.0644;0.0795;0.0290;
913893570887410;-0.0581;0.0550;0.0471;
913893580994180;-0.0346;0.0433;0.0493;
913893591105691;-0.0613;0.0933;0.0631;
913893601212410;-0.0368;0.1040;0.0493;
913893611319180;-0.0346;0.0284;0.0173;
913893621426837;-0.0868;-0.0047;0.0111;
913893631533555;-0.1007;-0.0558;0.0216;
913893641640326;-0.1166;-0.0963;0.0100;
913893651749180;-0.1188;-0.0728;-0.0028;
913893661855899;-0.1071;-0.0356;-0.0028;
913893671962670;-0.0804;-0.0068;0.0089;
913893682059753;-0.0634;-0.0260;0.0333;
913893692166472;-0.0378;0.0017;0.0269;
913893702273243;-0.0389;0.0443;0.0068;
913893712383816;-0.0506;0.0944;-0.0518;
913893722490535;-0.0154;0.1274;-0.0401;
913893732597305;-0.0666;0.0443;-0.0113;
913893742710378;-0.0836;-0.0345;-0.0316;
913893752817097;-0.0964;-0.0004;-0.0454;
913893762923868;-0.0964;0.0422;-0.0443;
913893773029545;-0.0506;0.0667;-0.0241;
913893783136264;-0.0399;0.0156;0.0121;
913893793243035;-0.0197;-0.0047;0.0152;
913893803341941;-0.0336;0.0039;0.0089;
913893813448660;-0.0229;-0.0185;-0.0220;
913893823555430;-0.0399;-0.0846;-0.0220;
913893833672045;-0.0708;-0.1581;-0.0390;
913893843778764;-0.0740;-0.1410;-0.0305;
913893853885535;-0.0463;-0.0846;-0.0507;
913893863989545;-0.0368;-0.0366;-0.0475;
913893874096264;-0.0357;-0.0047;-0.0369;
913893884203035;0.0069;0.0869;-0.0177;
913893894306420;0.0282;0.1487;-0.0060;
913893904413139;0.0517;0.1146;-0.0326;
913893914519910;0.0943;0.0816;-0.0486;
913893924629753;0.0144;0.0007;-0.0092;
913893934736472;-0.0570;-0.0707;-0.0177;
913893944843243;-0.0698;-0.0579;-0.0134;
913893954938191;-0.1028;0.0198;-0.0209;
913893965044910;-0.0431;0.0838;-0.0348;
913893975151680;0.0091;0.0582;-0.0134;
913893985259857;-0.0016;-0.0324;0.0226;
913893995366576;-0.0091;-0.0824;0.0079;
913894005473347;-0.0261;-0.0515;-0.0443;
913894015591837;-0.0250;0.0028;-0.0348;
913894025698555;-0.0282;-0.0739;-0.0220;
913894035805326;-0.0538;-0.0696;-0.0433;
913894045894232;-0.0485;-0.0057;-0.0603;
913894056000951;-0.0112;0.0134;-0.0486;
913894066107722;-0.0197;-0.0313;-0.0103;
913894076248399;-0.0176;-0.0377;0.0162;
913894086355118;-0.0080;0.0507;0.0015;
913894096461889;0.0165;0.0955;-0.0401;
913894106515482;0.0144;0.0774;-0.0539;
913894116622201;-0.0123;0.0390;-0.0411;
913894126728972;-0.0517;-0.0153;-0.0358;
913894136855170;-0.0399;-0.0387;-0.0529;
913894146961889;-0.0378;-0.0356;-0.0411;
913894157068660;-0.0368;-0.0089;-0.0475;
913894167199753;-0.0037;0.0443;-0.0113;
913894177306472;0.0165;0.0635;0.0142;
913894187413243;0.0240;0.0348;-0.0071;
913894197508607;-0.0080;-0.0228;-0.0411;
913894207615326;-0.0218;-0.0025;-0.0422;
913894217722097;-0.0176;-0.0015;-0.0369;
913894227831212;-0.0431;-0.0899;-0.0454;
913894237937930;-0.0538;-0.1197;-0.0379;
913894248044701;-0.0591;-0.0579;-0.0507;
913894258146003;-0.0293;0.0422;-0.0539;
913894268252722;-0.0016;0.0742;-0.0667;
913894278359493;0.0570;-0.0068;-0.0284;
913894288466420;0.0282;-0.0441;-0.0337;
913894298573139;0.0101;-0.0782;-0.0688;
913894308679910;-0.0069;-0.0941;-0.0443;
913894318788347;-0.0186;-0.1325;-0.0529;
913894328895066;-0.0602;-0.1612;-0.0646;
913894339001837;-0.0389;-0.0739;-0.0784;
913894349115847;-0.0336;0.0273;-0.0891;
913894359222566;0.0176;0.0997;-0.0859;
913894369329337;0.0304;0.0635;-0.0486;
913894379431837;0.0442;-0.0238;-0.0507;
913894389538555;0.0293;0.0092;-0.0997;
913894399645326;0.0059;0.0369;-0.1051;
913894409725170;0.0133;0.0433;-0.0752;
913894419831889;-0.0218;0.0071;-0.0731;
913894429938660;-0.0261;-0.0047;-0.0869;
913894440060899;-0.0197;0.0252;-0.0688;
913894450167618;-0.0091;0.0060;-0.0891;
913894460274389;0.0208;-0.0185;-0.0880;
913894470380847;0.0186;-0.0973;-0.0390;
913894480487566;0.0282;-0.0877;-0.0731;
913894490594337;0.0304;-0.0089;-0.1360;
913894500700691;0.0346;-0.0015;-0.1232;
913894510807410;0.0378;-0.0185;-0.0976;
913894520914180;0.0016;0.0092;-0.1040;
913894531018712;0.0133;0.0710;-0.1189;
913894541125430;0.0570;0.0752;-0.1083;
913894551232201;0.0794;0.0443;-0.0987;
913894561332357;0.0602;0.0262;-0.0624;
913894571439076;0.0762;-0.0089;-0.0348;
913894581545847;0.0623;-0.0100;-0.0593;
913894591664753;0.0804;0.0379;-0.0944;
913894601771472;0.0975;0.0198;-0.0710;
913894611878243;0.0804;-0.0281;-0.0571;
913894621981732;0.0357;-0.0611;-0.0571;
913894632088451;0.0282;-0.0643;-0.0507;
913894642195222;0.0357;-0.0782;-0.0624;
913894652298399;0.0581;-0.0473;-0.0571;
913894662405118;0.0655;-0.0196;-0.0124;
913894672511889;0.1081;-0.0100;-0.0007;
913894682622462;0.0932;0.0561;-0.0433;
913894692729180;0.1358;0.1093;-0.0593;
913894702835951;0.1816;0.0816;-0.0348;
913894712940430;0.1933;0.0433;-0.0273;
913894723047149;0.1443;-0.0036;-0.0177;
913894733153920;0.1007;-0.1005;0.0248;
913894743286837;0.0826;-0.1698;0.0248;
913894753393555;0.0719;-0.1378;0.0557;
913894763500326;0.0719;-0.1165;0.0535;
913894773582357;0.1017;-0.0824;0.0503;
913894783689076;0.0953;0.0060;0.0162;
913894793795847;0.0943;0.0294;0.0375;
913894803909441;0.1369;-0.0047;0.0365;
913894814016160;0.1443;-0.0579;0.0312;
913894824122930;0.0900;0.0017;0.0514;
913894834227878;0.0826;0.1242;0.0375;
913894844334597;0.1390;0.1924;0.0386;
913894854441368;0.1433;0.1881;0.0802;
913894864550274;0.1294;0.1423;0.0993;
913894874656993;0.1049;0.1189;0.0716;
913894884763764;0.1007;0.0784;0.0631;
913894894851420;0.0602;-0.0313;0.0812;
913894904958139;0.0069;-0.1399;0.0684;
913894915064910;-0.0570;-0.2198;0.0716;
913894925203712;-0.1401;-0.2294;0.0738;
913894935310430;-0.1742;-0.2017;0.0429;
913894945417201;-0.1358;-0.1559;0.0407;
913894955503816;-0.0900;-0.1740;0.0557;
913894965610535;-0.0442;-0.1996;0.0375;
913894975717305;-0.0442;-0.1027;-0.0454;
913894985835014;-0.0197;-0.0036;-0.0156;
913894995941732;0.0506;0.0230;-0.0017;
913895006048503;0.1007;0.0220;-0.0134;
913895016137670;0.0932;0.0678;-0.0177;
913895026244389;0.0431;0.1019;0.0132;
913895036351160;0.0634;0.1040;0.0312;
913895046467357;0.0527;0.0923;0.0684;
913895056574076;0.0613;0.0880;0.0674;
913895066680847;0.0410;0.1232;0.0482;
913895076771107;0.0517;0.1583;0.0354;
913895086877826;0.0336;0.0774;0.0599;
913895096984597;-0.0123;-0.0249;0.0535;
913895107116524;-0.0559;-0.0686;0.0429;
913895117223243;-0.0794;-0.0590;0.0493;
913895127330014;-0.0868;0.0028;0.0280;
913895137431993;0.0069;0.0507;0.0269;
913895147538712;0.0581;0.0230;0.0589;
913895157645482;0.0336;-0.0526;0.0631;
913895167744024;0.0304;-0.0185;0.0015;
913895177850743;0.0250;0.0411;0.0121;
913895187957514;0.0591;0.0379;0.0057;
913895198070430;0.0921;0.0390;0.0036;
913895208177149;0.0197;0.0422;0.0226;
913895218283920;0.0218;0.0198;0.0301;
913895228393920;0.0495;0.0220;0.0312;
913895238500639;0.0410;0.0294;0.0471;
913895248607410;0.0570;0.0241;0.0493;
913895258711837;0.0399;-0.0015;0.0173;
913895268818555;0.0613;0.0379;0.0162;
913895278925326;0.0442;0.0401;0.0184;
913895289031212;0.0506;-0.0185;0.0057;
913895299137930;-0.0272;-0.0483;-0.0049;
913895309244701;-0.0080;-0.0632;0.0173;
913895319345691;-0.0048;-0.0558;0.0184;
913895329452410;0.0442;0.0134;0.0079;
913895339559180;0.0655;0.0252;0.0269;
913895349671212;0.0623;-0.0206;0.0280;
913895359777878;0.0442;0.0241;-0.0103;
913895369884545;0.0463;0.0933;0.0025;
913895379989024;0.0517;0.0465;-0.0124;
913895390095691;0.0218;0.0198;-0.0092;
913895400202357;-0.0399;-0.0100;0.0397;
913895410293920;-0.0165;-0.0238;0.0226;
913895420400587;-0.0389;0.0124;0.0248;
913895430507253;-0.0325;-0.0111;0.0375;
913895440622930;-0.0229;-0.0750;0.0557;
913895450729597;-0.0783;-0.0601;0.0184;
913895460836264;-0.0559;0.0390;-0.0113;
913895470948920;-0.0016;0.0379;-0.0049;
913895481055587;-0.0176;-0.0196;-0.0177;
913895491162253;-0.0666;-0.0217;-0.0188;
913895501264857;-0.0655;-0.0441;-0.0028;
913895511371524;-0.0613;-0.0292;0.0036;
913895521478191;-0.0591;0.0134;0.0142;
913895531584545;-0.0123;0.0688;0.0258;
913895541691212;0.0048;0.1083;0.0047;
913895551797878;0.0208;0.1178;-0.0358;
913895561905899;0.0112;0.0678;-0.0017;
913895572012566;-0.0229;-0.0345;-0.0007;
913895582119232;-0.0517;-0.0824;-0.0028;
913895592228712;-0.0900;-0.0664;0.0173;
913895602335378;-0.0698;-0.0377;0.0142;
913895612442045;-0.0314;-0.0111;0.0142;
913895622555274;0.0091;0.0060;0.0322;
913895632661941;0.0005;-0.0121;0.0663;
913895642768607;-0.0133;-0.0739;0.0269;
913895652864857;-0.0080;-0.0505;-0.0049;
913895662971524;-0.0197;-0.0089;-0.0092;
913895673078191;-0.0208;0.0177;-0.0305;
913895683191680;-0.0453;0.0252;-0.0124;
913895693298347;-0.0538;0.0039;0.0111;
913895703405014;-0.0474;-0.0121;0.0111;
913895713512357;-0.0186;-0.0068;0.0100;
913895723619024;0.0059;0.0188;0.0290;
913895733725691;-0.0016;0.0134;0.0184;
913895743836003;0.0176;0.0305;-0.0273;
913895753942670;0.0250;0.0795;-0.0262;
913895764049337;0.0442;0.0379;-0.0316;
913895774147774;0.0549;-0.0185;-0.0305;
913895784254441;0.0112;-0.0441;0.0047;
913895794361107;-0.0048;-0.0217;-0.0060;
913895804465587;0.0378;0.0230;-0.0156;
913895814572253;0.0698;-0.0111;0.0068;
913895824678920;0.0740;-0.0856;0.0269;
913895834779024;0.0240;-0.1527;-0.0039;
913895844885691;0.0218;-0.1304;-0.0230;
913895854992357;0.0229;-0.1144;-0.0156;
913895865124753;0.0186;-0.1176;-0.0326;
913895875231420;-0.0165;-0.0313;-0.0337;
913895885338087;-0.0080;0.0475;-0.0411;
913895895433712;0.0549;0.0742;-0.0305;
913895905540378;0.0740;0.0369;-0.0103;
913895915647045;0.1007;0.0007;0.0068;
913895925747566;0.0570;0.0348;-0.0039;
913895935854232;0.0549;0.0933;-0.0252;
913895945960899;0.0602;0.1413;-0.0060;
913895956063243;0.0527;0.1338;-0.0103;
913895966169910;0.0304;0.0774;-0.0039;
913895976276576;-0.0112;-0.0015;0.0237;
913895986389962;-0.0282;-0.1112;0.0344;
913895996496628;-0.0346;-0.1527;0.0344;
913896006603295;-0.0453;-0.1453;0.0344;
913896016719441;-0.0005;-0.0760;0.0280;
913896026826107;0.0037;-0.0036;-0.0252;
913896036932774;0.0293;0.0561;-0.0348;
913896047019024;0.0399;0.0443;-0.0220;
913896057125691;0.0091;-0.0260;-0.0188;
913896067232357;-0.0101;0.0039;-0.0230;
913896077341316;-0.0208;0.0316;0.0015;
913896087447982;0.0069;0.0316;0.0162;
913896097554649;0.0218;0.0731;0.0344;
913896107653920;0.0549;0.0869;0.0439;
913896117760587;0.0357;0.0752;0.0322;
913896127867253;0.0218;0.0475;0.0162;
913896137993607;0.0208;0.0145;0.0269;
913896148100274;0.0176;-0.0260;0.0184;
913896158206941;0.0080;-0.0483;0.0194;
913896168299701;-0.0059;-0.0462;0.0301;
913896178406368;-0.0144;-0.0728;0.0429;
913896188513035;0.0197;-0.0526;0.0397;
913896198625274;0.0506;-0.0409;0.0535;
913896208731941;0.0559;-0.0430;0.0567;
913896218838607;0.0314;-0.0196;0.0079;
913896228952357;0.0517;0.0230;0.0216;
913896239059024;0.0549;0.0518;-0.0071;
913896249165691;0.0559;-0.0206;-0.0028;
913896259279337;0.0133;-0.0569;0.0173;
913896269386003;-0.0048;-0.0270;0.0450;
913896279492670;0.0229;-0.0313;0.0503;
913896289592045;0.0453;-0.0217;0.0663;
913896299698712;0.0687;-0.0419;0.0834;
913896309805378;0.0399;-0.0398;0.0812;
913896319908607;0.0453;-0.0292;0.0557;
913896330015274;0.0453;-0.0654;0.0684;
913896340121941;0.0080;-0.1069;0.0567;
913896350235378;-0.0133;-0.0739;0.0471;
913896360342045;-0.0154;0.0017;0.0589;
913896370448764;-0.0250;0.0262;0.0557;
913896380549857;0.0059;0.0316;0.0674;
913896390656524;0.0144;0.0529;0.0876;
913896400763243;0.0314;0.0401;0.0855;
913896410865170;0.0069;0.0752;0.0375;
913896420971837;-0.0027;0.0742;0.0461;
913896431078555;0.0112;0.0624;0.0567;
913896441185378;0.0027;0.0944;0.0407;
913896451292045;-0.0016;0.1115;0.0599;
913896461398764;-0.0293;0.0401;0.0855;
913896471508087;-0.0229;-0.0547;0.1036;
913896481614753;-0.0346;-0.0973;0.1206;
913896491721472;-0.0421;-0.0814;0.1153;
913896501828399;-0.0314;-0.0398;0.0674;
913896511935066;-0.0218;0.0230;0.0546;
913896522041785;-0.0378;0.0390;0.0589;
913896532145170;-0.0570;0.0188;0.0695;
913896542251837;-0.0687;0.0028;0.0589;
913896552358555;-0.0815;-0.0132;0.0706;
913896562463295;-0.1081;-0.0387;0.0940;
913896572569962;-0.1316;-0.0377;0.1132;
913896582676680;-0.1411;-0.0100;0.1185;
913896592787097;-0.1060;0.0188;0.0951;
913896602893764;-0.0708;0.0742;0.0589;
913896613000482;-0.0676;0.0944;0.0770;
913896623106837;-0.0591;0.0688;0.0546;
913896633213503;-0.0506;0.0294;0.0514;
913896643320222;-0.0868;-0.0025;0.0791;
913896653427982;-0.0975;-0.0185;0.0855;
913896663534649;-0.1060;-0.0153;0.0993;
913896673641368;-0.0932;0.0262;0.1249;
913896683754024;-0.0762;0.0348;0.1281;
913896693860691;-0.0687;0.0774;0.0652;
913896703967410;-0.0676;0.0965;0.0727;
913896714068295;-0.1007;0.0273;0.0727;
913896724174962;-0.1049;-0.0164;0.0397;
913896734281680;-0.1433;-0.0292;0.0258;
913896744383087;-0.1582;0.0145;0.0471;
913896754489753;-0.1710;0.0433;0.0567;
913896764596472;-0.1497;0.0561;0.0535;
913896774699857;-0.1326;0.0316;0.0620;
913896784806524;-0.1337;0.0284;0.0248;
913896794913243;-0.1156;0.0827;0.0004;
913896805036837;-0.1188;0.0241;0.0194;
913896815143503;-0.1316;-0.0206;0.0004;
913896825250222;-0.1379;0.0060;-0.0316;
913896835333399;-0.1422;0.0209;-0.0113;
913896845440066;-0.1603;0.0198;0.0015;
913896855546785;-0.1699;-0.0142;0.0132;
913896865704649;-0.1667;0.0113;0.0237;
913896875811316;-0.1443;0.0220;-0.0252;
913896885918035;-0.1081;0.0422;-0.0635;
913896895972357;-0.1475;-0.0089;-0.0337;
913896906079024;-0.1379;-0.0377;-0.0624;
913896916185743;-0.1465;-0.0015;-0.0795;
913896926304337;-0.1262;0.0294;-0.0827;
913896936411003;-0.1411;0.0465;-0.0518;
913896946517722;-0.1252;0.0475;-0.0443;
913896956640587;-0.1113;0.0071;-0.0220;
913896966747253;-0.0932;-0.0100;-0.0316;
913896976853972;-0.0985;-0.0089;-0.0806;
913896986958191;-0.0985;0.0550;-0.0912;
913896997064857;-0.1017;0.0497;-0.0901;
913897007171576;-0.1039;0.0241;-0.0965;
913897017294910;-0.1081;0.0411;-0.1051;
913897027401576;-0.0985;0.1008;-0.1051;
913897037508295;-0.0581;0.1370;-0.0965;
913897047583607;-0.0858;0.0827;-0.0720;
913897057690274;-0.0666;0.0518;-0.0603;
913897067796993;-0.0655;0.0433;-0.1051;
913897077907149;-0.0357;0.0582;-0.1338;
913897088013816;-0.0676;-0.0100;-0.1072;
913897098120535;-0.0708;-0.1080;-0.1125;
913897108225691;-0.0740;-0.0643;-0.1274;
913897118332357;-0.0602;-0.0206;-0.1242;
913897128439076;-0.0474;-0.0419;-0.1189;
913897138543087;-0.0357;-0.0569;-0.1221;
913897148649753;-0.0336;-0.0611;-0.1040;
913897158756472;0.0005;-0.0622;-0.1189;
913897168864545;0.0250;-0.0089;-0.1743;
913897178971212;0.0463;0.0699;-0.1690;
913897189077930;0.0517;0.0656;-0.1658;
913897199186837;0.0708;0.0838;-0.1679;
913897209293503;0.0538;0.0848;-0.1434;
913897219400222;0.0346;0.0230;-0.1061;
913897229507670;0.0144;0.0252;-0.0912;
913897239614337;-0.0101;0.0039;-0.0656;
913897249721055;0.0186;-0.0270;-0.0561;
913897259827097;0.0005;-0.0334;-0.1093;
913897269933764;0.0069;0.0166;-0.1115;
913897280040482;0.0037;0.0177;-0.1083;
913897290147930;0.0048;-0.0196;-0.1328;
913897300254597;-0.0048;-0.0025;-0.1338;
913897310361316;-0.0091;0.0134;-0.1306;
913897320465691;-0.0005;0.0603;-0.1146;
913897330572357;0.0027;0.0656;-0.0678;
913897340679076;0.0229;0.0156;-0.0646;
913897350791628;0.0229;0.0007;-0.0838;
913897360898295;0.0325;0.0497;-0.1210;
913897371004962;0.0293;0.0656;-0.1040;
913897381107774;0.0410;-0.0036;-0.1083;
913897391214441;0.0314;-0.0281;-0.1232;
913897401321107;0.0453;0.0230;-0.1200;
913897411431524;0.0602;0.0507;-0.1221;
913897421538191;0.0975;0.0582;-0.1498;
913897431644857;0.0911;0.0156;-0.1200;
913897441748399;0.0655;-0.0313;-0.0955;
913897451855066;0.0581;-0.0100;-0.1264;
913897461961732;0.0879;0.0475;-0.1051;
913897472068607;0.0847;0.0209;-0.1061;
913897482175274;0.1007;-0.0260;-0.1221;
913897492281941;0.0698;-0.0153;-0.1029;
913897502386003;0.0783;-0.0281;-0.0742;
913897512492670;0.0868;-0.0707;-0.0571;
913897522599337;0.0666;-0.0877;-0.0326;
913897532714337;0.0772;-0.1325;-0.0198;
913897542821003;0.0889;-0.1421;-0.0337;
913897552927670;0.1103;-0.0441;-0.0806;
913897563025587;0.1134;0.0071;-0.0710;
913897573132253;0.1241;-0.0856;-0.0571;
913897583238920;0.0932;-0.1304;-0.0379;
913897593349857;0.0943;-0.0941;-0.0188;
913897603456524;0.1028;-0.1091;0.0047;
913897613563191;0.0996;-0.1122;0.0237;
913897623665066;0.0730;-0.1261;0.0759;
913897633771732;0.0826;-0.1463;0.0908;
913897643878399;0.0634;-0.0909;0.0450;
913897653986264;0.0943;-0.0121;0.0375;
913897664092930;0.0804;-0.0515;0.0471;
913897674199597;0.0783;-0.1059;0.0397;
913897684303191;0.0453;-0.0387;0.0397;
913897694409857;0.0644;0.0241;0.0471;
913897704516524;0.0730;0.0369;0.0610;
913897714626003;0.0666;0.0614;0.1068;
913897724732670;0.0581;0.0326;0.1441;
913897734839337;0.0538;0.0348;0.1292;
913897744943087;0.0559;0.0752;0.0940;
913897755049753;0.0549;0.0710;0.1068;
913897765156420;0.0218;0.0188;0.0866;
913897775264128;-0.0144;-0.0111;0.0610;
913897785370795;-0.0655;-0.0111;0.0567;
913897795477462;-0.0591;-0.0196;0.0716;
913897805596732;-0.0431;0.0326;0.0951;
913897815703399;0.0048;0.0134;0.0951;
913897825810066;0.0123;-0.0622;0.0919;
913897835917253;-0.0144;-0.0579;0.0142;
913897846023920;0.0154;-0.0164;0.0152;
913897856130587;0.0176;-0.0015;0.0162;
913897866255587;0.0080;-0.0835;-0.0039;
913897876362253;-0.0112;-0.0814;-0.0124;
913897886468920;0.0165;-0.0451;-0.0007;
913897896540274;0.0368;-0.0686;0.0004;
913897906646941;0.0240;-0.1005;0.0269;
913897916753607;0.0133;-0.1517;0.0365;
913897926867878;0.0112;-0.1581;0.0015;
913897936974545;0.0208;-0.0696;-0.0379;
913897947081212;0.0421;-0.0079;-0.0369;
913897957186837;0.0346;-0.0590;-0.0593;
913897967293503;0.0176;-0.0952;-0.0635;
913897977400170;0.0186;-0.0281;-0.0624;
913897987500795;0.0506;-0.0302;-0.0699;
913897997607462;0.0282;-0.0473;-0.0550;
913898007714128;0.0112;-0.0430;-0.0220;
913898017825378;0.0218;-0.0537;-0.0209;
913898027932045;0.0112;-0.0089;-0.0774;
913898038038712;0.0389;0.0177;-0.0880;
913898048156941;0.0186;0.0017;-0.0955;
913898058263607;0.0208;-0.0025;-0.1146;
913898068370274;0.0250;0.0507;-0.1285;
913898078470587;0.0538;0.0635;-0.1232;
913898088577253;0.0527;0.0358;-0.1083;
913898098683920;0.0304;0.0454;-0.0678;
913898108794128;0.0389;0.0049;-0.0475;
913898118900795;0.0304;-0.0228;-0.0880;
913898129007462;0.0399;0.0561;-0.1200;
913898139112149;0.0570;0.1051;-0.1104;
913898149218816;0.0613;0.0806;-0.1221;
913898159325482;0.0442;0.0230;-0.1210;
913898169435847;0.0549;0.0369;-0.1242;
913898179542514;0.0570;0.0710;-0.1306;
913898189649180;0.0794;0.0603;-0.0997;
913898199758920;0.0730;-0.0068;-0.0582;
913898209865587;0.0549;-0.0292;-0.0624;
913898219972253;0.0676;0.0465;-0.1146;
913898230082878;0.0911;0.0710;-0.1168;
913898240189545;0.0964;0.0134;-0.1146;
913898250296212;0.0634;-0.0334;-0.1115;
913898260388712;0.0762;0.0007;-0.1104;
913898270495378;0.1060;0.0273;-0.1061;
913898280602045;0.1433;0.0071;-0.0955;
913898290711212;0.1305;-0.0206;-0.0593;
913898300817878;0.1188;-0.0537;-0.0316;
913898310924545;0.1145;-0.0356;-0.0763;
913898321030014;0.1401;0.0475;-0.0656;
913898331136680;0.1646;0.0507;-0.0603;
913898341243347;0.1901;0.0060;-0.0635;
913898351358087;0.1326;-0.0079;-0.0561;
913898361464753;0.1294;0.0049;-0.0316;
913898371571420;0.1305;-0.0164;-0.0134;
913898381671212;0.1209;-0.0292;0.0173;
913898391777878;0.1039;-0.0132;0.0418;
913898401884545;0.0889;-0.0164;0.0237;
913898412009441;0.1071;0.0177;0.0004;
913898422116107;0.0985;0.0369;0.0047;
913898432222774;0.1049;0.0188;-0.0060;
913898442308035;0.0762;0.0028;-0.0060;
913898452414701;0.0985;0.0230;0.0025;
913898462521368;0.0964;0.0369;0.0089;
913898472643607;0.1124;0.0252;0.0237;
913898482750274;0.0794;0.0017;0.0695;
913898492856941;0.0623;-0.0430;0.0716;
913898502953712;0.0666;-0.0164;0.0226;
913898513060378;0.0836;0.0379;0.0290;
913898523167045;0.0889;-0.0057;0.0301;
913898533272670;0.0538;-0.0888;0.0248;
913898543379337;0.0176;-0.0569;0.0301;
913898553486003;0.0261;0.0209;0.0132;
913898563592357;0.1028;0.0539;0.0132;
913898573699024;0.0847;0.0166;0.0503;
913898583805691;0.0740;-0.0430;0.0780;
913898593914962;0.0485;-0.0643;0.0482;
913898604021628;0.0666;0.0081;0.0397;
913898614128295;0.0719;0.0539;0.0248;
913898624232253;0.0740;0.0433;0.0079;
913898634338920;0.0495;0.0177;0.0100;
913898644445587;0.0623;0.0262;0.0226;
913898654544962;0.0730;0.0252;0.0280;
913898664651628;0.0719;-0.0238;0.0429;
913898674758295;0.0591;-0.0643;0.0727;
913898684863920;0.0336;-0.0398;0.0663;
913898694970587;0.0591;0.0326;0.0312;
913898705077253;0.0644;0.0561;0.0205;
913898715194962;0.0687;0.0348;0.0079;
913898725301628;0.0389;0.0166;0.0100;
913898735408295;0.0655;0.0081;0.0173;
913898745505274;0.0836;0.0337;0.0121;
913898755611941;0.0900;0.0252;0.0280;
913898765718607;0.0836;0.0007;0.0663;
913898775868712;0.0591;-0.0142;0.0770;
913898785975378;0.0527;-0.0100;0.0258;
913898796082045;0.0517;-0.0015;0.0397;
913898806150743;0.0666;0.0039;0.0226;
913898816257410;0.0634;0.0049;0.0100;
913898826364076;0.0559;-0.0196;0.0205;
913898836501003;0.0708;-0.0313;0.0216;
913898846607670;0.1017;-0.0089;0.0205;
913898856714337;0.1124;0.0081;0.0482;
913898866797462;0.0996;-0.0142;0.0706;
913898876904128;0.0879;-0.0366;0.0365;
913898887010795;0.0815;0.0103;0.0354;
913898897128243;0.0783;0.0475;0.0354;
913898907234910;0.1198;0.0326;0.0142;
913898917341576;0.0783;0.0230;0.0205;
913898927433295;0.0676;0.0039;0.0312;
913898937539962;0.0996;0.0678;0.0184;
913898947646628;0.1134;0.0699;0.0546;
913898957754441;0.0953;-0.0079;0.0919;
913898967861107;0.0559;-0.0249;0.0802;
913898977967774;0.0527;0.0358;0.0493;
913898988076837;0.0676;0.0699;0.0620;
913898998183503;0.0740;0.0017;0.0407;
913899008290170;0.0442;-0.0664;0.0439;
913899018392878;0.0272;-0.0846;0.0610;
913899028499545;0.0304;-0.0771;0.0599;
913899038606212;0.0783;-0.0164;0.0791;
913899048716316;0.0996;0.0156;0.0951;
913899058822982;0.1049;0.0593;0.1004;
913899068929649;0.0868;0.0624;0.0738;
913899079033191;0.1039;0.0656;0.0802;
913899089139857;0.0708;0.0454;0.0706;
913899099246524;0.0666;0.0124;0.0642;
913899109351212;0.0453;0.0443;0.0791;
913899119457878;0.0719;0.0678;0.0940;
913899129564545;0.1092;0.1072;0.0961;
913899139675899;0.0996;0.0774;0.1313;
913899149782566;0.0932;-0.0185;0.1579;
913899159889232;0.0474;-0.0313;0.1387;
913899169997982;0.0538;0.0166;0.1441;
913899180104649;0.0772;0.0071;0.1569;
913899190211316;0.0815;-0.0356;0.1419;
913899200321003;0.0676;-0.0185;0.1569;
913899210427670;0.0666;-0.0228;0.1558;
913899220534337;0.0836;0.0039;0.1473;
913899230639232;0.0943;0.0465;0.1782;
913899240745899;0.0996;0.0454;0.2005;
913899250852566;0.0613;0.0699;0.1824;
913899260961837;0.0463;0.0433;0.1462;
913899271068503;0.0005;-0.0004;0.1750;
913899281175170;-0.0048;-0.0047;0.1526;
913899291280430;-0.0037;0.0049;0.1377;
913899301387097;-0.0485;-0.0015;0.1419;
913899311493764;-0.0740;-0.0515;0.1547;
913899321601003;-0.0815;-0.0664;0.1590;
913899331707670;-0.0826;-0.1559;0.1686;
913899341814337;-0.1326;-0.1847;0.1664;
913899351925066;-0.2274;-0.0451;0.1142;
913899362031732;-0.1774;0.1317;0.0887;
913899372138399;-0.0549;0.2212;0.0312;
913899382236212;-0.0165;0.1615;0.0205;
913899392342878;-0.0538;0.0827;0.0418;
913899402449545;-0.0964;0.0348;0.0461;
913899412569441;-0.1539;-0.0121;0.0290;
913899422676107;-0.1561;-0.0206;0.0599;
913899432782774;-0.1454;0.0103;0.0674;
913899442883816;-0.1124;0.0816;-0.0134;
913899452990482;-0.0772;0.0656;0.0004;
913899463097149;-0.0975;-0.1005;0.0301;
913899473212566;-0.0911;-0.2071;0.0111;
913899483319232;-0.0740;-0.2039;-0.0220;
913899493425899;-0.0506;-0.1559;-0.0401;
913899503521941;-0.0112;-0.1080;-0.0465;
913899513628607;0.0463;0.0188;-0.0326;
913899523735274;0.1209;0.1051;0.0132;
913899533839597;0.1987;0.0869;0.0036;
913899543946264;0.2019;0.1040;0.0047;
913899554052930;0.1529;0.0987;0.0258;
913899564160066;0.1507;0.0252;0.0503;
913899574266732;0.0996;0.0358;0.0652;
913899584373399;0.0474;0.1061;0.0855;
913899594472774;0.0527;0.1242;0.0972;
913899604579441;0.0687;0.1306;0.1196;
913899614686107;0.0676;0.0422;0.1632;
913899624793087;0.0250;-0.0877;0.1590;
913899634899753;-0.0293;-0.0686;0.1515;
913899645006420;-0.0474;-0.0430;0.1771;
913899655136420;-0.0591;-0.0430;0.1686;
913899665243087;-0.1007;0.0071;0.1483;
913899675349753;-0.1188;0.0699;0.1302;
913899685428295;-0.1401;0.0678;0.1238;
913899695534962;-0.1678;0.0369;0.1505;
913899705641628;-0.2093;0.0039;0.1451;
913899715822149;-0.1869;-0.0462;0.1430;
913899725928816;-0.2125;-0.0334;0.1185;
913899736035482;-0.2306;-0.0324;0.1015;
913899746081837;-0.2178;-0.0590;0.1025;
913899756188503;-0.2402;-0.0441;0.0780;
913899766295170;-0.2029;0.0230;0.0610;
913899776423920;-0.1635;0.0774;0.0599;
913899786530587;-0.1145;0.0337;0.0620;
913899796637253;-0.1166;-0.0174;0.0855;
913899806721680;-0.1071;-0.0409;0.1036;
913899816828347;-0.1220;-0.0707;0.0855;
913899826935014;-0.1316;-0.0079;0.0727;
913899837037514;-0.1593;0.0582;0.0823;
913899847144180;-0.1358;0.0678;0.0312;
913899857250847;-0.1433;0.0699;0.0248;
913899867367357;-0.1326;0.0379;0.0439;
913899877474024;-0.1603;-0.0473;0.0546;
913899887580691;-0.1688;-0.0963;0.0557;
913899897708920;-0.1806;-0.0750;0.0684;
913899907815587;-0.1454;-0.0558;0.0407;
913899917922253;-0.1337;0.0049;-0.0049;
913899928007774;-0.1582;0.0923;0.0025;
913899938114441;-0.1401;0.0465;-0.0092;
913899948221107;-0.1486;-0.0430;-0.0284;
913899958324545;-0.1379;-0.0526;-0.0411;
913899968431212;-0.1294;0.0134;-0.0422;
913899978537878;-0.0804;0.0177;-0.0241;
913899988648920;-0.0730;-0.0015;-0.0049;
913899998755587;-0.0708;0.0220;-0.0230;
913900008862253;-0.0495;0.0539;-0.0656;
913900018965274;-0.0165;0.0518;-0.0518;
913900029071941;-0.0538;-0.0547;-0.0358;
913900039178607;-0.0676;-0.1431;-0.0454;
913900049278451;-0.0921;-0.1261;-0.0582;
913900059385118;-0.0559;-0.0973;-0.0731;
913900069491785;-0.0613;-0.1165;-0.0486;
913900079615691;-0.0602;-0.0931;-0.0411;
913900089722357;-0.0325;0.0358;-0.0518;
913900099829024;-0.0112;0.0901;-0.0901;
913900109932357;0.0975;0.1370;-0.1285;
913900120039024;0.0815;0.1178;-0.1019;
913900130145691;0.0495;0.0177;-0.0848;
913900140261316;0.0133;0.0092;-0.0838;
913900150367982;-0.0314;0.0028;-0.0710;
913900160474649;-0.0261;0.0369;-0.0507;
913900170572045;-0.0144;0.0891;-0.0262;
913900180678712;0.0144;0.0976;-0.0198;
913900190785378;-0.0027;0.0134;-0.0252;
913900200903503;-0.0538;-0.0643;-0.0582;
913900211010170;-0.1028;-0.0824;-0.0486;
913900221116837;-0.0996;-0.0739;-0.0699;
913900231219962;-0.0826;-0.0313;-0.0869;
913900241326628;-0.1039;0.0379;-0.1029;
913900251433295;-0.0495;0.1125;-0.1061;
913900261538295;-0.0325;0.1083;-0.0699;
913900271644962;-0.0165;-0.0015;-0.0316;
913900281751628;-0.0357;-0.0579;-0.0316;
913900291859753;-0.0559;0.0039;-0.0827;
913900301966420;-0.0421;0.1029;-0.0752;
913900312073087;-0.0517;0.0688;-0.0656;
913900322178920;-0.0602;-0.0142;-0.0891;
913900332285587;-0.0751;-0.0174;-0.0901;
913900342392253;-0.0336;0.0145;-0.0752;
913900352491212;-0.0186;-0.0079;-0.0678;
913900362597878;0.0069;-0.0206;-0.0358;
913900372704545;0.0133;0.0230;-0.0305;
913900382814545;0.0261;0.0177;-0.0507;
913900392921212;0.0304;0.0028;-0.0411;
913900403027878;-0.0240;-0.0345;-0.0177;
913900413148607;-0.0666;-0.0643;-0.0284;
913900423255274;-0.0634;-0.0153;-0.0486;
913900433361941;-0.0431;0.0071;-0.0571;
913900443452774;-0.0389;0.0433;-0.0550;
913900453559441;-0.0282;0.0166;-0.0284;
913900463666107;-0.0133;-0.0473;-0.0166;
913900473797149;-0.0250;-0.0483;-0.0316;
913900483903816;-0.0378;-0.0068;-0.0614;
913900494010482;-0.0463;0.0465;-0.0379;
913900504089024;-0.0517;0.0241;-0.0497;
913900514195691;-0.0719;0.0145;-0.0774;
913900524302357;-0.0581;0.0092;-0.0859;
913900534403712;-0.0346;-0.0260;-0.0763;
913900544510378;-0.0197;0.0081;-0.0614;
913900554617045;0.0261;-0.0047;-0.0529;
913900564724128;0.0442;-0.0164;-0.0379;
913900574830795;0.0154;-0.0260;-0.0763;
913900584937462;0.0272;-0.0398;-0.0635;
913900595070795;-0.0133;-0.0398;-0.0454;
913900605177462;-0.0293;-0.0238;-0.0795;
913900615284128;-0.0016;0.0124;-0.0912;
913900625358712;0.0059;0.0134;-0.0869;
913900635465378;0.0325;0.0433;-0.0838;
913900645572045;0.0165;0.0071;-0.0561;
913900655709441;0.0293;-0.0302;-0.0465;
913900665816107;0.0112;0.0379;-0.0933;
913900675922774;0.0410;0.1296;-0.1136;
913900686025170;0.0559;0.1754;-0.0806;
913900696131837;0.0708;0.1402;-0.0987;
913900706238503;0.0655;0.0795;-0.0933;
913900716367462;0.0186;0.0539;-0.0838;
913900726474128;0.0442;0.0039;-0.0539;
913900736580795;0.0336;-0.0174;-0.0316;
913900746636107;0.0485;-0.0249;-0.0113;
913900756742774;0.0485;-0.0462;-0.0188;
913900766849441;0.0357;-0.0132;-0.0486;
913900776983347;0.0304;-0.0153;-0.0252;
913900787090014;-0.0016;-0.0856;-0.0156;
913900797196680;-0.0293;-0.1261;-0.0433;
913900807298087;-0.0229;-0.0803;-0.0518;
913900817404753;0.0059;-0.0068;-0.0603;
913900827511420;0.0613;0.0699;-0.0454;
913900837616212;0.0730;0.0454;-0.0071;
913900847722878;0.0751;-0.0089;0.0132;
913900857829545;0.0506;0.0411;-0.0230;
913900867943295;0.0666;0.0699;-0.0092;
913900878049962;0.0655;0.0443;0.0004;
913900888156628;0.0186;-0.0025;0.0184;
913900898255795;-0.0080;0.0039;0.0111;
913900908362462;0.0112;0.0656;-0.0017;
913900918469128;0.0527;0.0742;0.0068;
913900928587097;0.0485;-0.0206;0.0386;
913900938693764;0.0581;-0.1314;0.0802;
913900948800430;0.0123;-0.1304;0.0493;
913900958906680;0.0261;-0.0803;0.0258;
913900969013347;0.0069;-0.0537;0.0471;
913900979120014;-0.0154;-0.0632;0.0407;
913900989224128;-0.0442;-0.0782;0.0269;
913900999330795;-0.0485;-0.0324;0.0258;
913901009437462;-0.0591;-0.0430;0.0258;
913901019539441;-0.0282;-0.0430;0.0301;
913901029646107;-0.0229;-0.0174;0.0365;
913901039752774;-0.0176;0.0326;0.0184;
913901049862253;-0.0069;0.1647;-0.0379;
913901059968920;0.0133;0.1903;0.0057;
913901070075587;0.0005;0.0720;0.0237;
913901080193087;-0.0613;-0.0196;0.0269;
913901090299753;-0.0975;-0.0036;0.0237;
913901100406420;-0.1177;0.0401;0.0152;
913901110509545;-0.0399;0.0550;0.0079;
913901120616212;-0.0059;0.0252;0.0312;
913901130722878;-0.0240;-0.0313;0.0407;
913901140820587;-0.0293;0.0145;-0.0198;
913901150927253;-0.0133;0.0539;-0.0401;
913901161033920;-0.0123;-0.0079;-0.0316;
913901171140066;-0.0474;0.0007;-0.0326;
913901181246732;-0.0463;0.0774;-0.0422;
913901191353399;0.0005;0.1317;-0.0465;
913901201464545;0.0293;0.1061;-0.0529;
913901211571212;0.0133;0.0156;0.0047;
913901221677878;-0.0048;-0.0611;0.0301;
913901231791732;-0.0325;-0.0505;-0.0124;
913901241898399;-0.0069;0.0326;-0.0433;
913901252005066;0.0005;0.0443;-0.0252;
913901262107514;-0.0101;0.0294;-0.0326;
913901272214180;-0.0421;0.0390;-0.0454;
913901282320847;-0.0346;0.0401;-0.0443;
913901292433764;-0.0101;0.0188;-0.0529;
913901302540430;0.0144;-0.0505;-0.0177;
913901312647097;0.0101;-0.0686;0.0194;
913901322756628;0.0080;-0.0601;0.0269;
913901332863295;0.0208;0.0166;-0.0198;
913901342969962;-0.0027;0.0838;-0.0103;
913901353064857;0.0123;0.0582;-0.0103;
913901363171524;-0.0133;0.0582;-0.0230;
913901373278243;-0.0655;0.0124;-0.0166;
913901383382149;-0.0325;0.0028;-0.0262;
913901393488816;-0.0059;0.0763;-0.0443;
913901403595535;0.0357;0.1232;-0.0220;
913901413719180;0.0293;0.1029;0.0152;
913901423825847;0.0059;0.0646;-0.0198;
913901433932566;0.0112;0.0795;-0.0134;
913901444029128;-0.0112;0.0465;-0.0060;
913901454135795;-0.0463;0.0049;-0.0166;
913901464242514;-0.0708;-0.0334;-0.0188;
913901474345899;-0.0527;-0.1037;-0.0081;
913901484452566;-0.0826;-0.1250;-0.0145;
913901494559285;-0.0847;-0.1197;-0.0017;
913901504657097;-0.0591;-0.0718;0.0068;
913901514763764;-0.0336;-0.0302;-0.0273;
913901524870482;0.0091;0.1573;-0.0987;
913901534977462;0.0485;0.3096;-0.0933;
913901545084128;0.1092;0.2031;-0.0838;
913901555190847;0.1614;0.0401;-0.0550;
913901565310066;0.0240;-0.0132;-0.0188;
913901575416732;-0.0613;0.0273;-0.0198;
913901585523451;0.0250;0.0944;-0.0156;
913901595680795;0.0538;0.1232;0.0121;
913901605787462;0.0431;0.0465;0.0248;
913901615894180;0.0123;0.0220;-0.0081;
913901625963191;0.0250;0.0433;-0.0188;
913901636069857;0.0016;-0.1016;-0.0369;
913901646176576;-0.0091;-0.1602;-0.0475;
913901656291628;-0.0431;-0.0654;-0.0497;
913901666398295;0.0208;0.0358;-0.0550;
913901676505014;0.0698;0.0987;-0.0507;
913901686579962;0.1017;0.0816;-0.0230;
913901696686628;0.0804;0.0348;0.0226;
913901706793347;0.0442;0.0411;-0.0124;
913901716919337;0.0676;0.1360;-0.0539;
913901727026003;0.0900;0.1253;-0.0379;
913901737132722;0.0751;0.0081;-0.0273;
913901747256993;0.0037;-0.0547;-0.0230;
913901757363660;-0.0261;-0.0707;-0.0028;
913901767470378;-0.0005;-0.0622;-0.0060;
913901777543347;0.0421;-0.0419;-0.0092;
913901787650014;0.0666;0.0081;0.0173;
913901797756732;0.0719;0.0039;0.0237;
913901807861837;0.0676;-0.0292;0.0004;
913901817968503;0.0538;-0.0877;0.0068;
913901828075222;0.0357;-0.1410;0.0079;
913901838183503;0.0048;-0.1325;0.0089;
913901848290170;-0.0176;-0.0995;0.0173;
913901858396889;0.0059;-0.0569;0.0194;
913901868504857;0.0133;0.0060;0.0248;
913901878611524;0.0559;0.0699;0.0439;
913901888718243;0.0772;0.0752;0.0567;
913901898829962;0.0517;-0.0558;0.0344;
913901908936628;0.0346;-0.0952;0.0312;
913901919043347;-0.0016;-0.0505;0.0493;
913901929154649;-0.0101;-0.0419;0.0354;
913901939261316;-0.0197;0.0007;0.0365;
913901949368035;-0.0463;0.0241;0.0695;
913901959475482;-0.0740;0.0390;0.0535;
913901969582149;-0.0495;0.0838;0.0418;
913901979688868;-0.0091;0.0262;0.0418;
913901989795795;-0.0027;-0.1208;0.0439;
913901999902462;-0.0730;-0.1154;0.0142;
913902010009180;-0.0804;0.0497;-0.0134;
913902020116941;0.0176;0.0806;-0.0262;
913902030223607;0.0293;-0.0313;-0.0092;
913902040330326;-0.0527;-0.1133;0.0152;
913902050442878;-0.0921;-0.1389;0.0152;
913902060549545;-0.0559;-0.0537;-0.0071;
913902070656264;-0.0186;0.0177;-0.0241;
913902080761628;0.0453;0.0220;-0.0071;
913902090868295;0.0250;0.1008;-0.0486;
913902100975014;0.0517;0.2521;-0.0795;
913902111076264;0.1092;0.2574;-0.0774;
913902121182930;0.1848;0.1466;-0.0869;
913902131289649;0.1028;0.1242;-0.0624;
913902141421524;0.0101;0.1913;-0.0156;
913902151528191;0.0570;0.1626;-0.0092;
913902161634910;0.0634;0.1253;0.0152;
913902171720795;0.0570;0.1019;0.0301;
913902181827462;0.0527;0.0720;0.0173;
913902191934180;0.0346;-0.0196;-0.0177;
913902202034337;0.0218;-0.1144;0.0004;
913902212141003;0.0016;-0.1708;-0.0103;
913902222247722;-0.0005;-0.1730;-0.0316;
913902232364128;-0.0091;-0.1016;-0.0273;
913902242470795;0.0080;-0.0526;-0.0177;
913902252577514;0.0474;-0.0174;-0.0156;
913902262668087;0.0879;0.0486;0.0237;
913902272774753;0.1401;0.0752;0.0471;
913902282881472;0.1774;0.0646;0.0205;
913902292993295;0.1827;0.0731;0.0068;
913902303099962;0.1379;0.1019;0.0375;
913902313206680;0.1220;0.0774;0.0439;
913902323319753;0.0964;0.0294;0.0674;
913902333426420;0.0218;-0.0366;0.1174;
913902343533139;0.0048;-0.0899;0.1164;
913902353638607;0.0123;-0.0718;0.1324;
913902363745326;0.0027;-0.0877;0.1409;
913902373852045;0.0346;-0.1527;0.1558;
913902383947357;-0.0399;-0.1740;0.1185;
913902394054076;-0.0581;-0.1186;0.1057;
913902404160795;-0.0357;-0.0718;0.0993;
913902414303607;-0.0027;-0.0792;0.0770;
913902424410326;-0.0186;-0.0877;0.0834;
913902434517045;-0.0368;-0.0494;0.1036;
913902444586524;-0.0091;0.0007;0.1025;
913902454693243;0.0304;0.0188;0.1185;
913902464799962;0.0399;0.0230;0.1377;
913902474914910;0.0101;0.0156;0.1281;
913902485021628;0.0059;0.0433;0.1015;
913902495128347;-0.0091;0.0603;0.1206;
913902505243503;-0.0293;0.0305;0.0993;
913902515350222;-0.0559;0.0348;0.0919;
913902525456941;-0.1017;0.0646;0.0834;
913902535549649;-0.1060;0.0305;0.0897;
913902545656368;-0.1379;-0.0238;0.1004;
913902555763087;-0.1976;-0.0281;0.1068;
913902565906837;-0.1369;-0.0206;0.0908;
913902576013555;-0.1273;-0.0324;0.0407;
913902586120274;-0.0847;-0.0121;0.0216;
913902596224441;-0.0676;0.0134;0.0194;
913902606331160;-0.0442;0.0326;-0.0156;
913902616437878;-0.0229;0.0358;-0.0252;
913902626501316;-0.0304;0.0049;-0.0060;
913902636608035;-0.0399;-0.0153;0.0079;
913902646714753;-0.0123;-0.0196;0.0173;
913902656851837;0.0165;-0.0217;0.0142;
913902666958555;0.0197;0.0060;0.0036;
913902677065274;0.0123;0.0550;-0.0273;
913902687175691;0.0368;0.1136;-0.0113;
913902697282410;0.0602;0.0976;-0.0230;
913902707389128;0.0719;0.0209;-0.0252;
913902717493191;0.0165;-0.0441;0.0079;
913902727599910;-0.0304;-0.0846;0.0216;
913902737706628;-0.0250;-0.0856;0.0226;
913902747798503;0.0144;-0.0547;0.0461;
913902757905222;0.0229;-0.0462;0.0557;
913902768011941;0.0059;-0.0398;0.0173;
913902778118347;0.0048;-0.0419;0.0142;
913902788225066;0.0069;-0.0558;0.0344;
913902798331785;0.0133;-0.1059;0.0258;
913902808429024;-0.0218;-0.1186;0.0269;
913902818535743;-0.0410;-0.0675;0.0386;
913902828642462;-0.0399;-0.0547;0.0546;
913902838761212;-0.0197;-0.0920;0.0876;
913902848867930;-0.0261;-0.1112;0.1004;
913902858974649;-0.0250;-0.0973;0.0951;
913902869077774;-0.0314;-0.0664;0.0738;
913902879184493;-0.0261;-0.0526;0.0919;
913902889291212;-0.0314;-0.0132;0.0802;
913902899400847;-0.0325;0.0124;0.0620;
913902909507566;-0.0442;0.0358;0.0620;
913902919614285;-0.0783;0.0166;0.0876;
913902929733712;-0.0943;0.0028;0.0919;
913902939840430;-0.1273;0.0497;0.1057;
913902949947149;-0.1166;0.0752;0.0983;
913902960049545;-0.0644;0.0465;0.0802;
913902970156264;-0.1060;0.0561;0.0631;
913902980262982;-0.1209;0.0230;0.0823;
913902990363295;-0.1145;-0.0579;0.0578;
913903000470014;-0.1539;-0.1261;0.0375;
913903010576732;-0.2146;-0.1059;0.0429;
913903020686837;-0.2221;-0.0217;0.0354;
913903030793555;-0.1262;0.0039;0.0301;
913903040900274;-0.0804;-0.0590;0.0290;
913903051003191;-0.0730;-0.1367;0.0386;
913903061109910;-0.0953;-0.1666;0.0068;
913903071216628;-0.0826;-0.1889;0.0162;
913903081324128;-0.0666;-0.1953;0.0132;
913903091430847;-0.0655;-0.1591;0.0068;
913903101537566;-0.0655;-0.1048;0.0089;
913903111645274;-0.0463;-0.0739;0.0237;
913903121751993;-0.0399;-0.1250;0.0280;
913903131858712;-0.0304;-0.1868;0.0397;
913903141959076;-0.0708;-0.1719;0.0642;
913903152065795;-0.0591;-0.1165;0.0354;
913903162172514;-0.0698;-0.0260;-0.0220;
913903172291941;-0.0559;0.1668;-0.0284;
913903182398660;0.0027;0.2169;0.0397;
913903192505378;0.0399;0.0944;0.0312;
913903202614024;-0.0154;0.0763;0.0237;
913903212720743;-0.1358;0.1530;0.0365;
913903222827462;-0.1007;0.1562;0.0503;
913903232928295;-0.0826;0.0475;0.0823;
913903243035014;-0.1624;0.0017;0.0610;
913903253141732;-0.2507;0.0624;0.0015;
913903263247462;-0.1827;0.1008;-0.0071;
913903273354180;-0.1060;0.0262;-0.0145;
913903283460899;-0.1060;-0.0302;-0.0529;
913903293568712;-0.1134;-0.0547;-0.0678;
913903303675430;-0.1071;-0.1218;-0.0731;
913903313782149;-0.1316;-0.1474;-0.0646;
913903323891264;-0.1028;-0.0952;-0.0667;
913903333997982;-0.0261;-0.0185;-0.0507;
913903344104701;0.0559;-0.0164;-0.0731;
913903354210274;0.0517;-0.0675;-0.1115;
913903364316993;-0.0059;-0.1133;-0.0944;
913903374423712;-0.0399;-0.1091;-0.0891;
913903384526732;-0.0250;-0.0664;-0.1104;
913903394633451;-0.0368;-0.0718;-0.1104;
913903404740170;-0.0570;-0.0803;-0.1029;
913903414873816;-0.0644;-0.0430;-0.0955;
913903424980535;-0.0272;-0.0174;-0.0656;
913903435087253;-0.0112;-0.0334;-0.0731;
913903445211003;-0.0133;-0.0419;-0.0997;
913903455317722;-0.0123;0.0358;-0.1008;
913903465424441;0.0101;0.0752;-0.0859;
913903475471941;0.0453;0.0358;-0.1019;
913903485578660;0.0112;0.0081;-0.0955;
913903495685378;-0.0165;0.0230;-0.0848;
913903505853816;-0.0091;0.0593;-0.0550;
913903515960535;-0.0080;0.0390;-0.0060;
913903526067253;-0.0261;-0.0419;-0.0103;
913903536129857;-0.0389;-0.0941;-0.0475;
913903546236576;-0.0293;-0.0494;-0.0784;
913903556343295;-0.0304;0.0134;-0.0561;
913903566439285;0.0101;0.0230;-0.0901;
913903576546003;0.0037;0.0507;-0.1093;
913903586652722;0.0091;0.0752;-0.0933;
913903596765378;0.0304;0.0901;-0.0678;
913903606872097;0.0442;0.0475;-0.0731;
913903616978816;0.0517;-0.0547;-0.0230;
913903627095482;0.0144;-0.1549;0.0089;
913903637202201;-0.0250;-0.1666;-0.0305;
913903647308920;-0.0165;-0.0675;-0.0443;
913903657382149;-0.0059;0.0284;-0.0379;
913903667488868;0.0197;0.0806;-0.0752;
913903677595587;0.0229;0.0933;-0.0923;
913903687702357;0.0005;0.0411;-0.0774;
913903697872253;-0.0197;-0.0206;-0.0635;
913903707978972;-0.0144;-0.0760;-0.0326;
913903718085691;-0.0016;-0.1208;-0.0103;
913903728160847;-0.0037;-0.1048;-0.0252;
913903738267566;-0.0005;0.0028;-0.0667;
913903748374285;0.0208;0.0742;-0.0507;
913903758481941;0.0474;-0.0068;-0.0475;
913903768588660;0.0069;-0.1059;-0.0699;
913903778695378;-0.0368;-0.1687;-0.0699;
913903788799753;-0.0485;-0.2273;-0.0507;
913903798906472;-0.0570;-0.2401;-0.0390;
913903809013191;-0.0719;-0.1847;-0.0241;
913903819119962;-0.0250;-0.0632;-0.0252;
913903829226680;0.0112;0.0763;-0.0784;
913903839333399;0.0730;0.1871;-0.0795;
913903849442774;0.0858;0.1455;-0.0539;
913903859549493;0.0730;0.0454;-0.0635;
913903869656212;0.0240;0.0891;-0.0656;
913903879755482;0.0059;0.0635;-0.0465;
913903889862201;-0.0101;-0.0185;-0.0188;
913903899968920;-0.0527;-0.0281;0.0100;
913903910085274;-0.0389;-0.0036;0.0173;
913903920191993;-0.0016;0.0166;-0.0007;
913903930298712;0.0176;0.0497;-0.0507;
913903940404128;-0.0059;0.0156;-0.0422;
913903950510847;-0.0186;-0.0941;-0.0454;
913903960617566;-0.0325;-0.1410;-0.0667;
913903970730014;-0.0080;-0.1112;-0.0731;
913903980836732;-0.0091;-0.0941;-0.0561;
913903990943451;0.0080;-0.0068;-0.0379;
913904001046264;0.0293;0.0390;-0.0028;
913904011152982;0.1198;0.0624;-0.0017;
913904021259701;0.1348;0.0859;-0.0465;
913904031365170;0.1688;0.0838;-0.0443;
913904041471889;0.1624;0.0390;-0.0134;
913904051578607;0.1113;0.0198;-0.0220;
913904061682045;0.0964;0.0944;-0.0166;
913904071788764;0.1017;0.1509;0.0111;
913904081895482;0.1294;0.1306;0.0312;
913904092001107;0.0836;0.0348;0.0823;
913904102107826;0.0474;-0.0526;0.1142;
913904112214545;0.0144;-0.0952;0.0834;
913904122333087;0.0208;-0.0867;0.0482;
913904132439805;-0.0154;-0.0973;0.0791;
913904142546524;-0.0655;-0.1453;0.0546;
913904152650587;-0.1145;-0.0899;0.0162;
913904162757305;-0.1348;-0.0025;0.0162;
913904172864024;-0.0581;-0.0004;0.0015;
913904182960066;-0.0240;-0.0292;0.0290;
913904193066785;-0.0453;-0.0547;0.0546;
913904203173503;-0.0357;-0.0206;0.0290;
913904213290482;-0.0368;0.0156;-0.0134;
913904223397201;-0.0240;0.0348;-0.0017;
913904233503920;-0.0431;0.0188;-0.0134;
913904243609024;-0.0506;0.0060;-0.0166;
913904253715743;-0.0634;0.0166;-0.0124;
913904263822462;-0.0581;0.0007;-0.0198;
913904273934857;-0.0325;0.0081;-0.0145;
913904284041576;-0.0495;-0.0196;0.0121;
913904294148295;-0.0336;-0.0920;0.0121;
913904304246107;-0.0858;-0.0909;-0.0454;
913904314352826;-0.0879;0.0049;-0.0603;
913904324459545;-0.0591;0.0869;-0.0710;
913904334566264;0.0048;0.0912;-0.0859;
913904344672982;-0.0165;0.0965;-0.0859;
913904354779701;-0.0037;0.1072;-0.0763;
913904364886316;0.0336;0.0763;-0.0593;
913904374993035;0.0421;-0.0015;-0.0230;
913904385099805;0.0005;-0.0867;0.0132;
913904395197670;-0.0346;-0.0398;-0.0379;
913904405304389;0.0027;0.0806;-0.0710;
913904415411160;0.0314;0.1200;-0.0635;
913904425506732;0.0346;0.0475;-0.0731;
913904435613451;0.0037;-0.0153;-0.0710;
913904445720222;0.0048;-0.0185;-0.0667;
913904455840899;0.0144;-0.0185;-0.0507;
913904465947618;0.0282;0.0103;-0.0316;
913904476054389;0.0442;0.0358;0.0089;
913904486189857;0.0325;0.0326;-0.0113;
913904496296576;0.0538;0.0827;-0.0401;
913904506403347;0.0485;0.0944;-0.0305;
913904516476160;0.0399;0.0071;-0.0326;
913904526582878;0.0123;-0.0963;-0.0198;
913904536689649;0.0048;-0.0984;-0.0103;
913904546780587;-0.0069;-0.0590;-0.0017;
913904556887305;0.0154;-0.0419;0.0079;
913904566994076;0.0069;-0.0356;0.0471;
913904577123503;-0.0123;-0.0441;0.0397;
913904587230222;0.0059;0.0433;-0.0230;
913904597336993;0.0240;0.1093;-0.0252;
913904607445847;0.0485;0.0369;-0.0241;
913904617552566;0.0016;-0.0537;-0.0209;
913904627659337;-0.0229;-0.0068;-0.0156;
913904637760170;-0.0197;0.1264;-0.0081;
913904647866889;0.0485;0.2222;-0.0039;
913904657973660;0.0623;0.1796;0.0386;
913904668096212;0.0240;0.0507;0.0535;
913904678202930;-0.0037;-0.0260;0.0132;
913904688309701;-0.0112;-0.0611;0.0226;
913904698416680;0.0080;-0.1048;0.0226;
913904708523399;-0.0080;-0.0760;0.0184;
913904718630170;0.0091;-0.0100;-0.0028;
913904728726420;0.0218;0.0656;0.0025;
913904738833139;0.0442;0.0443;0.0237;
913904748939910;0.0261;-0.0611;0.0610;
913904759047878;0.0059;-0.1495;0.0855;
913904769154597;-0.0399;-0.1581;0.0344;
913904779261368;0.0059;-0.0750;0.0194;
913904789368399;0.0261;0.0028;0.0290;
913904799475118;0.0091;0.0443;0.0258;
913904809581889;0.0080;0.0262;0.0269;
913904819695378;-0.0048;0.0060;0.0397;
913904829802097;0.0069;0.0103;0.0375;
913904839908868;0.0154;0.0113;0.0663;
913904850016212;0.0091;-0.0057;0.0961;
913904860122930;-0.0165;-0.0281;0.0791;
913904870229701;-0.0080;0.0369;0.0482;
913904880339337;0.0037;0.0688;0.0599;
913904890446055;-0.0059;-0.0569;0.0748;
913904900552826;-0.0634;-0.1261;0.0738;
913904910663295;-0.1252;-0.0281;0.0557;
913904920770014;-0.0953;0.0614;0.0418;
913904930876785;-0.0059;-0.0015;0.0439;
913904940976732;-0.0453;-0.0611;0.0823;
913904951083451;-0.0932;-0.0718;0.0866;
913904961190222;-0.0858;-0.0473;0.0439;
913904971299962;-0.0783;-0.0292;0.0248;
913904981406680;-0.0847;-0.0601;0.0111;
913904991513451;-0.0836;0.0060;-0.0060;
913905001611628;-0.0804;0.0742;0.0121;
913905011718347;-0.0549;-0.0153;0.0248;
913905021825118;-0.0485;-0.0899;0.0248;
913905031934753;-0.0794;-0.0494;0.0482;
913905042041472;-0.0762;-0.0228;0.0439;
913905052148243;-0.0655;-0.0206;0.0025;
913905062259962;-0.0591;0.0156;0.0004;
913905072366680;-0.0431;-0.0004;0.0047;
913905082473451;-0.0389;0.0039;-0.0071;
913905092580066;-0.0549;-0.0111;-0.0124;
913905102686785;-0.0368;-0.0228;-0.0049;
913905112793555;-0.0218;0.0316;0.0100;
913905122902566;-0.0165;-0.0025;0.0322;
913905133009285;-0.0336;-0.0462;0.0535;
913905143116055;-0.0655;-0.0387;0.0162;
913905153218087;-0.0698;0.0017;0.0025;
913905163324805;-0.0517;0.0230;-0.0049;
913905173431576;-0.0463;0.0060;-0.0316;
913905183538868;-0.0613;0.0007;-0.0422;
913905193645587;-0.0549;-0.0079;-0.0316;
913905203752357;-0.0218;0.0134;-0.0262;
913905213864024;-0.0069;0.0071;0.0100;
913905223970743;-0.0272;0.0060;0.0301;
913905234077514;-0.0250;-0.0057;0.0237;
913905244172670;-0.0559;-0.0068;0.0015;
913905254279389;-0.0463;0.0390;-0.0134;
913905264386160;-0.0208;0.0198;-0.0422;
913905274504962;-0.0474;-0.0015;-0.0379;
913905284611680;-0.0431;-0.0270;-0.0305;
913905294718451;-0.0431;-0.0100;-0.0294;
913905304813295;-0.0037;0.0156;-0.0166;
913905314920014;-0.0208;-0.0100;0.0248;
913905325026785;-0.0293;-0.0121;0.0132;
913905335168712;-0.0581;0.0134;-0.0305;
913905345275430;-0.0399;0.0539;-0.0252;
913905355382201;-0.0442;0.0230;-0.0411;
913905365471420;-0.0517;-0.0121;-0.0603;
913905375578191;-0.0581;0.0156;-0.0539;
913905385684962;-0.0442;0.0539;-0.0443;
913905395819545;-0.0005;0.0848;-0.0337;
913905405926316;-0.0037;0.0720;-0.0145;
913905416033087;-0.0016;0.0624;0.0036;
913905426108503;-0.0410;0.0475;-0.0529;
913905436215274;-0.0314;0.0316;-0.0422;
913905446322045;-0.0357;0.0252;-0.0390;
913905456441628;-0.0304;0.0188;-0.0593;
913905466548399;-0.0272;0.0316;-0.0593;
913905476655170;-0.0208;-0.0057;-0.0390;
913905486735482;0.0027;-0.0142;-0.0326;
913905496842253;0.0080;-0.0025;-0.0092;
913905506949024;0.0037;-0.0526;0.0057;
913905517077982;-0.0304;-0.1069;-0.0230;
913905527184753;-0.0559;-0.0995;-0.0316;
913905537291524;-0.0314;-0.0973;-0.0379;
913905547403660;-0.0240;-0.1027;-0.0475;
913905557510430;-0.0399;-0.0718;-0.0550;
913905567617201;-0.0389;-0.0228;-0.0593;
913905577701212;-0.0048;0.0539;-0.0688;
913905587807982;0.0197;0.0784;-0.0411;
913905597914753;0.0240;0.0039;-0.0198;
913905608045066;-0.0154;-0.0153;-0.0486;
913905618151837;-0.0538;0.0603;-0.0571;
913905628258607;-0.0186;0.1115;-0.0475;
913905638339545;-0.0176;0.0827;-0.0603;
913905648446316;-0.0314;0.0699;-0.0656;
913905658553087;-0.0368;0.0699;-0.0475;
913905668653399;-0.0176;0.0156;-0.0348;
913905678760170;-0.0005;-0.0228;-0.0049;
913905688866941;-0.0091;-0.0409;-0.0039;
913905698979649;-0.0261;-0.0270;-0.0230;
913905709086420;-0.0240;0.0539;-0.0571;
913905719193191;-0.0304;0.0443;-0.0316;
913905729307670;-0.0208;-0.0100;-0.0646;
913905739414441;-0.0357;-0.0185;-0.0774;
913905749521212;-0.0357;0.0220;-0.0699;
913905759619857;-0.0091;0.0571;-0.0603;
913905769726628;0.0218;0.0838;-0.0401;
913905779833399;0.0399;0.0571;-0.0092;
913905789946212;0.0165;-0.0047;-0.0081;
913905800052982;-0.0176;0.0028;-0.0475;
913905810159753;-0.0336;-0.0356;-0.0262;
913905820264545;-0.0240;-0.0824;-0.0390;
913905830371316;-0.0101;-0.0451;-0.0593;
913905840478087;-0.0165;-0.0238;-0.0667;
913905850587566;0.0037;-0.0345;-0.0465;
913905860694337;0.0123;-0.0590;-0.0284;
913905870801107;0.0293;-0.0558;-0.0113;
913905880918191;0.0346;-0.0430;-0.0166;
913905891024962;0.0197;0.0017;-0.0550;
913905901131732;0.0165;0.0379;-0.0486;
913905911248920;0.0037;0.0113;-0.0507;
913905921355691;0.0027;-0.0228;-0.0763;
913905931462462;-0.0165;-0.0217;-0.0742;
913905941549649;-0.0123;0.0039;-0.0752;
913905951656420;0.0144;0.0539;-0.0763;
913905961763191;0.0485;0.1008;-0.0571;
913905971877462;0.0538;0.0667;-0.0422;
913905981984232;0.0208;0.0049;-0.0667;
913905992091003;0.0144;0.0166;-0.0752;
913906002190378;-0.0154;-0.0419;-0.0720;
913906012297149;-0.0005;-0.0782;-0.0976;
913906022403920;0.0123;-0.0281;-0.1157;
913906032516680;0.0346;0.0166;-0.0912;
913906042623451;0.0559;-0.0334;-0.0720;
913906052730222;0.0517;-0.0792;-0.0507;
913906062826628;0.0644;-0.0579;-0.0507;
913906072933399;0.0623;-0.0185;-0.0869;
913906083040170;0.0985;0.0294;-0.1040;
913906093155274;0.1028;0.0209;-0.0742;
913906103262045;0.0868;0.0252;-0.0869;
913906113368816;0.0687;0.0486;-0.1328;
913906123477097;0.1049;0.0475;-0.1242;
913906133583868;0.0687;0.0273;-0.0923;
913906143690639;0.0698;0.0071;-0.0763;
913906153801732;0.0975;-0.0174;-0.0433;
913906163908503;0.0698;-0.0505;-0.0369;
913906174015274;0.0772;0.0411;-0.0827;
913906184103816;0.0602;0.0827;-0.0838;
913906194210587;0.0836;-0.0185;-0.0912;
913906204317357;0.0485;-0.0888;-0.0816;
913906214434128;0.0442;-0.0526;-0.0742;
913906224540899;0.0623;0.0273;-0.0752;
913906234647670;0.1071;0.0198;-0.0529;
913906244745170;0.1209;0.0113;-0.0262;
913906254851941;0.1039;0.0252;-0.0379;
913906264958712;0.1198;0.0880;-0.0827;
913906275072253;0.1145;0.0252;-0.0465;
913906285179024;0.0687;-0.1165;-0.0379;
913906295285795;0.0485;-0.0771;-0.0433;
913906305368607;0.0794;0.0252;-0.0497;
913906315475378;0.1092;0.0593;-0.0390;
913906325582149;0.1124;-0.0004;-0.0060;
913906335715066;0.1092;-0.0334;0.0344;
913906345821837;0.1103;-0.0260;0.0397;
913906355928607;0.1007;-0.0601;0.0152;
913906366047566;0.0762;-0.0515;0.0407;
913906376154337;0.0421;-0.0494;0.0407;
913906386261107;0.0474;-0.0345;0.0258;
913906396350378;0.0570;-0.0132;0.0280;
913906406457149;0.0559;-0.0217;0.0482;
913906416563920;0.0687;-0.0185;0.0674;
913906426658712;0.0804;-0.0079;0.1047;
913906436765482;0.1230;0.0092;0.1398;
913906446872253;0.0911;-0.0057;0.1057;
913906457001316;0.0804;0.0411;0.1142;
913906467108087;0.0463;0.0475;0.1228;
913906477214857;0.0304;-0.0047;0.1228;
913906487314597;0.0048;-0.0153;0.0866;
913906497421368;-0.0005;0.0188;0.0929;
913906507528139;-0.0133;0.0433;0.1047;
913906517634024;0.0240;-0.0036;0.1771;
913906527740795;-0.0133;-0.0324;0.1814;
913906537847566;-0.0101;-0.0249;0.1249;
913906547949128;-0.0080;0.0113;0.0961;
913906558055899;-0.0485;0.0230;0.1015;
913906568162670;-0.0506;-0.0206;0.0866;
913906578272253;-0.0826;-0.0015;0.0887;
913906588379024;-0.0911;0.0028;0.0951;
913906598485795;-0.0740;-0.0004;0.0812;
913906608587982;-0.0740;-0.0228;0.0738;
913906618694753;-0.0740;-0.0324;0.0866;
913906628801524;-0.0666;-0.0100;0.0578;
913906638907514;-0.0229;0.0486;0.0194;
913906649014285;-0.0399;0.0656;0.0290;
913906659121055;-0.0538;0.0071;0.0015;
913906669251420;-0.0517;-0.0387;-0.0113;
913906679358191;-0.0453;-0.0057;-0.0092;
913906689464962;-0.0176;0.0518;-0.0273;
913906699562462;0.0144;0.0667;-0.0092;
913906709669232;0.0325;0.0166;0.0089;
913906719776003;0.0506;0.0049;-0.0060;
913906729888503;0.0357;0.0230;-0.0475;
913906739995274;0.0794;0.0486;-0.0294;
913906750102045;0.0442;0.0092;-0.0262;
913906760198399;0.0250;-0.0462;-0.0422;
913906770305170;0.0059;-0.0494;-0.0411;
913906780411941;0.0186;-0.0345;-0.0465;
913906790511680;0.0197;0.0230;-0.0433;
913906800618451;0.0549;0.0955;-0.0177;
913906810725222;0.1071;0.1466;-0.0177;
913906820840170;0.1209;0.1264;-0.0646;
913906830946941;0.1497;0.0273;-0.0241;
913906841053712;0.0463;-0.0899;0.0248;
913906851156316;-0.0144;-0.1389;0.0184;
913906861263087;-0.0037;-0.0611;-0.0134;
913906871369857;0.0186;0.0103;-0.0166;
913906881496316;0.0453;0.0209;0.0162;
913906891603087;0.0485;-0.0664;0.0503;
913906901709857;0.0144;-0.1272;0.0482;
913906911824753;0.0123;-0.1431;-0.0166;
913906921931524;0.0133;-0.0792;-0.0124;
913906932038295;0.0048;0.0113;-0.0071;
913906942108607;0.0240;0.0678;-0.0230;
913906952215378;0.0399;0.1285;-0.0316;
913906962322149;0.0463;0.1264;-0.0284;
913906972449180;0.0666;0.0923;-0.0039;
913906982555951;0.0485;0.0465;0.0386;
913906992662722;0.0676;-0.0132;0.0684;
913907002766212;0.0463;-0.0015;0.0301;
913907012872982;0.0517;0.0411;0.0152;
913907022979753;0.0378;0.0475;0.0461;
913907033101628;0.0080;-0.0217;0.0269;
913907043208399;-0.0282;-0.0771;0.0152;
913907053315170;0.0037;-0.0579;0.0269;
913907063416524;0.0165;-0.0153;0.0194;
913907073523295;0.0698;0.0103;0.0248;
913907083630066;0.0794;-0.0356;0.0823;
913907093734597;0.0644;-0.0483;0.0738;
913907103841368;0.0644;0.0156;0.0248;
913907113948139;0.0389;0.0337;0.0589;
913907124051680;-0.0112;-0.0601;0.0450;
913907134158451;-0.0453;-0.0984;0.0642;
913907144265222;-0.0602;-0.0324;0.0589;
913907154369753;-0.0154;-0.0142;0.0589;
913907164476524;0.0240;-0.0260;0.0834;
913907174583295;0.0069;-0.0505;0.1132;
913907184672670;0.0133;-0.0292;0.0770;
913907194779441;0.0410;0.0752;0.0471;
913907204886212;0.0123;0.0997;0.0589;
913907215009545;0.0154;0.0518;0.0546;
913907225116316;-0.0346;0.0273;0.0652;
913907235223087;-0.0399;0.0305;0.0706;
913907245321785;-0.0421;0.0518;0.0578;
913907255428555;-0.0059;0.0816;0.0589;
913907265535326;0.0080;0.0433;0.1015;
913907275654545;-0.0027;-0.0441;0.1025;
913907285761316;-0.0261;-0.0462;0.0525;
913907295868087;-0.0218;-0.0366;0.0546;
913907305981003;-0.0357;-0.0270;0.0503;
913907316087774;-0.0527;-0.0121;0.0322;
913907326194545;-0.0495;-0.0260;0.0216;
913907336287462;-0.0410;0.0092;0.0301;
913907346394232;-0.0123;0.0262;0.0290;
913907356501003;0.0059;-0.0025;0.0535;
913907366616264;-0.0037;-0.0569;0.0663;
913907376723035;-0.0208;-0.0334;0.0226;
913907386829805;0.0016;0.0827;0.0258;
913907396928087;0.0037;0.0944;0.0301;
913907407034857;-0.0250;0.0326;0.0280;
913907417141628;-0.0655;-0.0313;0.0407;
913907427250274;-0.0708;-0.0206;0.0450;
913907437357045;-0.0240;0.0326;0.0482;
913907447463816;-0.0016;0.0433;0.0471;
913907457572097;0.0069;0.0039;0.0599;
913907467678868;-0.0346;0.0049;0.0280;
913907477785639;-0.0080;0.0582;0.0194;
913907487889337;-0.0208;0.0284;0.0248;
913907497996107;-0.0666;-0.0132;0.0237;
913907508102878;-0.0921;-0.0483;0.0173;
913907518219545;-0.0719;-0.0462;0.0258;
913907528326316;-0.0921;-0.0174;0.0280;
913907538433087;-0.0613;-0.0526;0.0407;
913907548530430;-0.0740;-0.0483;0.0599;
913907558637201;-0.0772;-0.0004;0.0057;
913907568743972;-0.0154;0.0784;-0.0337;
913907578844232;-0.0368;0.0539;-0.0060;
913907588951003;-0.0613;-0.0281;-0.0081;
913907599057774;-0.0996;-0.0398;-0.0060;
913907609186316;-0.1103;-0.0302;0.0089;
913907619293087;-0.0879;0.0518;-0.0145;
913907629399857;-0.0336;0.1051;-0.0124;
913907639497045;-0.0176;0.0848;0.0205;
913907649603816;-0.0314;0.0092;0.0184;
913907659710587;-0.0474;0.0145;-0.0316;
913907669815691;-0.0368;0.0411;-0.0262;
913907679922462;-0.0421;0.0284;-0.0411;
913907690029232;-0.0549;0.0198;-0.0422;
913907700128295;-0.0826;-0.0036;-0.0220;
913907710235066;-0.0591;0.0198;-0.0177;
913907720341837;-0.0410;0.0284;-0.0252;
913907730452462;0.0133;0.0103;-0.0049;
913907740559232;-0.0176;-0.0611;0.0068;
913907750666003;0.0027;-0.0505;-0.0305;
913907760765430;-0.0101;0.0124;-0.0284;
913907770872201;0.0240;0.0049;-0.0550;
913907780978972;0.0261;-0.0025;-0.0582;
913907791090430;-0.0218;-0.0121;-0.0379;
913907801197201;-0.0112;-0.0228;-0.0124;
913907811303972;0.0069;-0.0302;-0.0166;
913907821419962;0.0218;-0.0483;-0.0049;
913907831526732;-0.0027;-0.0526;0.0004;
913907841633503;-0.0048;-0.0217;-0.0379;
913907851726524;0.0186;0.0624;-0.0369;
913907861833295;0.0165;0.0550;-0.0486;
913907871940066;0.0250;-0.0377;-0.0337;
913907882055691;-0.0527;-0.0909;-0.0113;
913907892162462;-0.0666;-0.0995;-0.0262;
913907902269232;-0.0250;-0.0387;-0.0326;
913907912387462;0.0091;-0.0121;-0.0092;
913907922494232;0.0218;-0.0089;0.0089;
913907932601003;0.0016;-0.0015;-0.0305;
913907942715691;0.0176;0.0454;-0.0529;
913907952822462;0.0250;0.0358;-0.0561;
913907962929232;-0.0005;-0.0483;-0.0667;
913907973020691;-0.0453;-0.0601;-0.0465;
913907983127462;-0.0708;-0.0057;-0.0358;
913907993234232;-0.0123;0.0688;-0.0411;
913908003337878;0.0325;0.0912;-0.0465;
913908013444649;0.0453;0.0742;-0.0177;
913908023551420;0.0027;0.0220;-0.0348;
913908033654232;0.0101;-0.0132;-0.0326;
913908043761003;0.0059;0.0028;-0.0326;
913908053867774;0.0048;-0.0334;-0.0656;
913908063979337;-0.0144;-0.0185;-0.0646;
913908074086107;-0.0144;0.0358;-0.0316;
913908084192878;0.0165;0.0358;-0.0145;
913908094295951;0.0474;-0.0164;0.0047;
913908104402722;0.0272;-0.0909;0.0111;
913908114509493;0.0016;-0.0984;-0.0198;
913908124618087;0.0186;-0.0270;-0.0507;
913908134724857;0.0389;0.0369;-0.0177;
913908144831628;0.0282;0.0017;-0.0134;
913908154930430;-0.0016;-0.0121;-0.0305;
913908165037201;-0.0336;0.0241;-0.0326;
913908175143972;-0.0027;0.0103;-0.0166;
913908185246993;0.0037;-0.0036;0.0079;
913908195353764;0.0421;0.0358;0.0132;
913908205460535;0.0442;0.0518;-0.0007;
913908215591472;0.0293;0.0433;-0.0198;
913908225698243;0.0080;0.0369;0.0025;
913908235805014;0.0144;0.0209;-0.0081;
913908245894649;-0.0005;0.0028;-0.0252;
913908256001420;-0.0186;-0.0260;-0.0007;
913908266108191;-0.0453;-0.0601;0.0226;
913908276223660;-0.0261;-0.0377;-0.0049;
913908286330430;0.0048;-0.0281;0.0015;
913908296437201;0.0197;-0.0547;0.0173;
913908306559024;0.0037;-0.0494;-0.0230;
913908316665795;0.0101;0.0209;-0.0326;
913908326772566;0.0272;0.0401;-0.0348;
913908336873607;0.0101;0.0092;-0.0529;
913908346980378;-0.0325;0.0348;-0.0656;
913908357087149;-0.0197;0.0518;-0.0422;
913908367199493;0.0186;0.0411;-0.0113;
913908377306264;0.0346;0.0294;0.0079;
913908387413087;0.0517;-0.0196;0.0057;
913908397489857;0.0123;-0.0164;-0.0326;
913908407596628;0.0165;0.0103;-0.0507;
913908417703451;0.0314;0.0081;-0.0454;
913908427826628;0.0133;-0.0260;-0.0699;
913908437933399;-0.0048;-0.0164;-0.0539;
913908448040222;-0.0069;-0.0089;-0.0358;
913908458137878;0.0250;-0.0249;-0.0348;
913908468244649;0.0218;-0.0249;-0.0262;
913908478351472;0.0485;-0.0324;-0.0103;
913908488461003;0.0325;-0.0004;-0.0326;
913908498567774;0.0538;0.0134;-0.0486;
913908508674597;0.0336;-0.0302;-0.0358;
913908518778712;0.0186;-0.0217;-0.0656;
913908528885482;0.0123;0.0017;-0.0688;
913908538992305;0.0154;-0.0057;-0.0614;
913908549105066;-0.0112;-0.0526;-0.0305;
913908559211837;0.0176;-0.0579;-0.0049;
913908569318660;0.0549;-0.0228;0.0036;
913908579427982;0.0602;0.0145;-0.0358;
913908589534753;0.0559;0.0433;-0.0550;
913908599641576;0.0431;0.0379;-0.0390;
913908609762982;0.0485;0.0305;-0.0550;
913908619869753;0.0410;0.0166;-0.0624;
913908629976576;0.0186;-0.0100;-0.0145;
913908640063347;-0.0080;-0.0089;-0.0305;
913908650170118;0.0250;-0.0015;-0.0124;
913908660276941;0.0336;0.0113;0.0057;
913908670390482;0.0506;-0.0025;0.0047;
913908680497253;0.0410;0.0241;-0.0465;
913908690604076;0.0431;0.0390;-0.0443;
913908700704024;0.0431;0.0284;-0.0518;
913908710810795;0.0272;-0.0057;-0.0379;
913908720917618;0.0005;-0.0015;-0.0209;
913908731028920;0.0027;0.0124;-0.0113;
913908741135691;0.0133;-0.0025;-0.0113;
913908751242514;0.0399;-0.0558;0.0226;
913908761350378;0.0282;-0.0696;0.0290;
913908771457149;0.0304;-0.0036;-0.0230;
913908781563972;0.0389;0.0582;-0.0209;
913908791667357;0.0527;0.0422;-0.0433;
913908801774128;0.0368;0.0049;-0.0411;
913908811880951;0.0048;-0.0068;-0.0411;
913908821996732;-0.0091;0.0369;-0.0252;
913908832103503;0.0133;0.0369;-0.0124;
913908842210326;0.0304;0.0124;0.0132;
913908852306837;0.0485;0.0028;-0.0060;
913908862413607;0.0389;0.0124;-0.0177;
913908872520430;0.0368;-0.0047;-0.0134;
913908882628295;0.0176;-0.0249;-0.0284;
913908892735066;0.0325;-0.0206;-0.0497;
913908902841889;0.0272;0.0039;-0.0529;
913908912967045;0.0272;0.0230;-0.0475;
913908923073816;0.0389;0.0028;-0.0411;
913908933180639;0.0399;-0.0249;-0.0145;
913908943267670;0.0517;-0.0270;-0.0092;
913908953374441;0.0538;-0.0366;-0.0465;
913908963481264;0.0570;0.0454;-0.0571;
913908973589753;0.0687;0.0699;-0.0529;
913908983696524;0.0847;0.0252;-0.0635;
913908993803347;0.0485;0.0134;-0.0529;
913909003909337;0.0442;0.0134;-0.0486;
913909014016107;0.0442;0.0241;-0.0454;
913909024122930;0.0421;0.0049;-0.0134;
913909034231680;0.0644;-0.0419;0.0015;
913909044338451;0.0591;-0.0313;-0.0326;
913909054445274;0.0826;0.0252;-0.0454;
913909064548503;0.0836;0.0017;-0.0156;
913909074655274;0.0921;-0.0356;-0.0390;
913909084762097;0.0762;-0.0089;-0.0539;
913909094857514;0.1007;-0.0047;-0.0411;
913909104964285;0.1134;-0.0015;-0.0177;
913909115071107;0.1145;-0.0174;0.0100;
913909125210587;0.1262;-0.0590;0.0525;
913909135317357;0.0932;-0.0835;0.0344;
913909145424180;0.0996;-0.0270;0.0036;
913909155498607;0.0921;0.0326;0.0184;
913909165605378;0.1198;0.0646;-0.0017;
913909175712201;0.1497;0.1242;-0.0092;
913909185844128;0.1475;0.0774;0.0162;
913909195950899;0.1262;-0.0174;0.0620;
913909206057722;0.0495;-0.0547;0.0855;
913909216141628;0.0687;-0.0707;0.1047;
913909226248399;0.0570;-0.0387;0.1068;
913909236355222;0.0666;0.0561;0.0525;
913909246464232;0.0783;0.1125;0.0631;
913909256571003;0.0676;0.0593;0.0589;
913909266677826;0.0602;-0.0047;0.0429;
913909276782045;0.0282;-0.0387;0.0471;
913909286888816;0.0218;-0.0451;0.0535;
913909296995639;0.0229;-0.0047;0.0748;
913909307119024;0.0261;0.0007;0.1057;
913909317225795;0.0304;-0.0015;0.1047;
913909327332618;0.0091;0.0124;0.0365;
913909337433607;0.0399;0.0635;0.0344;
913909347540378;0.0378;0.0252;0.0365;
913909357647201;0.0261;-0.0345;0.0344;
913909367774649;0.0144;-0.0228;0.0173;
913909377881420;0.0314;-0.0174;0.0226;
913909387988243;0.0357;-0.0132;0.0461;
913909398069337;0.0357;-0.0142;0.0908;
913909408176107;0.0378;-0.0217;0.0983;
913909418282930;0.0389;0.0134;0.0312;
913909428395378;0.0549;0.0923;0.0216;
913909438502149;0.0517;0.1125;0.0439;
913909448608972;0.0708;0.0603;0.0162;
913909458715847;0.0453;0.0571;0.0333;
913909468822618;0.0453;0.0422;0.0514;
913909478929441;0.0325;0.0198;0.0578;
913909489032670;0.0240;-0.0025;0.0876;
913909499139441;0.0282;-0.0622;0.1121;
913909509246264;0.0048;-0.0462;0.0855;
913909519355430;0.0229;0.0422;0.0546;
913909529462201;0.0463;0.0763;0.0652;
913909539569024;0.0272;-0.0206;0.0557;
913909549674441;0.0027;-0.0750;0.0429;
913909559781212;0.0016;-0.0696;0.0557;
913909569888035;-0.0091;-0.0526;0.0695;
913909579998191;0.0037;-0.0132;0.0983;
913909590104962;-0.0059;0.0230;0.1334;
913909600211785;0.0250;0.1019;0.1025;
913909610329024;0.0421;0.1541;0.0620;
913909620435795;0.0218;0.1019;0.0887;
913909630542618;0.0027;-0.0537;0.0791;
913909640638712;-0.0463;-0.1346;0.0748;
913909650745482;-0.1379;-0.0931;0.0802;
913909660852305;-0.1518;-0.0462;0.0791;
913909670968503;-0.0836;-0.0387;0.0972;
913909681075274;-0.0815;-0.0483;0.1164;
913909691182097;-0.0975;-0.0686;0.1089;
913909701280795;-0.1209;-0.0622;0.0386;
913909711387566;-0.1071;-0.0228;0.0290;
913909721494389;-0.0943;0.0497;-0.0081;
913909731601264;-0.0431;0.0997;-0.0411;
913909741708035;-0.0165;0.1786;-0.0220;
913909751814857;-0.0208;0.1945;-0.0071;
913909761918816;0.0037;0.1477;0.0162;
913909772025587;-0.0346;0.0667;0.0642;
913909782132410;-0.0581;0.0113;0.0642;
913909792241420;-0.0623;0.0177;0.0173;
913909802348191;-0.0346;0.0699;0.0036;
913909812455014;-0.0336;0.0443;0.0068;
913909822559232;-0.0655;-0.0601;-0.0166;
913909832666003;-0.0666;-0.0973;-0.0294;
913909842772826;-0.0655;-0.0782;-0.0379;
913909852881524;-0.0314;-0.0345;-0.0390;
913909862988295;-0.0218;-0.0100;-0.0113;
913909873095118;0.0080;-0.0100;0.0121;
913909883207982;0.0091;0.0422;-0.0273;
913909893314753;0.0272;0.0987;-0.0422;
913909903421576;0.0293;0.0848;-0.0294;
913909913543816;-0.0016;0.0475;-0.0688;
913909923650587;-0.0112;0.0379;-0.0550;
913909933757410;-0.0133;0.0220;-0.0465;
913909943857774;-0.0123;-0.0174;-0.0422;
913909953964545;-0.0112;-0.0345;-0.0071;
913909964071368;-0.0059;-0.0835;0.0258;
913909974173295;-0.0197;-0.1304;-0.0007;
913909984280066;-0.0176;-0.0483;-0.0401;
913909994386889;0.0059;0.0326;-0.0497;
913910004479857;0.0336;0.0060;-0.0529;
913910014586628;0.0218;-0.0803;-0.0614;
913910024693451;-0.0144;-0.0643;-0.0433;
913910034794232;-0.0005;0.0028;-0.0486;
913910044901003;0.0346;0.0305;-0.0262;
913910055007826;0.0325;0.0688;0.0173;
913910065150014;0.0314;0.0806;-0.0092;
913910075256785;0.0304;0.0784;-0.0369;
913910085363607;0.0069;0.0113;-0.0156;
913910095440274;-0.0208;-0.0728;-0.0103;
913910105547045;-0.0336;-0.0494;-0.0326;
913910115653868;-0.0186;0.0710;-0.0475;
913910125795899;0.0495;0.1264;-0.0497;
913910135902670;0.0719;0.0656;-0.0166;
913910146009493;0.0389;-0.0569;0.0280;
913910156082357;-0.0069;-0.1250;0.0407;
913910166189128;-0.0250;-0.1016;-0.0198;
913910176295951;0.0218;-0.0281;-0.0284;
913910186391628;0.0378;0.0188;-0.0401;
913910196498399;0.0368;0.0529;-0.0348;
913910206605222;0.0261;0.0411;-0.0358;
913910216755482;0.0197;-0.0249;-0.0113;
913910226862253;0.0218;-0.0590;-0.0113;
913910236969076;0.0314;-0.0142;0.0162;
913910247044753;0.0485;0.0273;0.0375;
913910257151524;0.0559;0.0411;0.0036;
913910267258347;0.0538;0.0529;0.0015;
913910277359753;0.0368;0.0475;0.0004;
913910287466524;0.0378;-0.0047;0.0194;
913910297573347;0.0037;-0.0601;0.0152;
