Sensor: bmi160 Accelerometer Non-wakeup
Vendor: BOSCH
TimestampAcc [ns]; AccX [m/s^2]; AccY [m/s^2]; AccZ [m/s^2]
82687050480125;-8.9231;1.7931;-2.1075;
82687060584813;-8.7867;1.7883;-2.4141;
82687070648719;-8.9782;1.7955;-3.0200;
82687080800542;-9.1627;1.7572;-3.4035;
82687090864448;-9.1292;1.7524;-3.5925;
82687101014240;-9.3066;1.6711;-3.5590;
82687111117573;-9.4980;1.6352;-3.0679;
82687121232834;-9.2632;1.8317;-2.5241;
82687131336532;-9.3832;1.9178;-2.1170;
82687141440386;-9.4956;1.9561;-1.8799;
82687151541011;-9.2082;1.9920;-1.9110;
82687161652834;-9.0239;1.8748;-2.3447;
82687171771792;-9.1340;1.5778;-3.1014;
82687181860698;-9.6945;1.3669;-4.2299;
82687191958719;-10.0370;1.0507;-4.3831;
82687202064969;-9.3185;1.0388;-3.3649;
82687212187469;-8.3818;1.4435;-2.4188;
82687222294344;-8.2119;1.5610;-1.8990;
82687232380542;-8.4129;1.5009;-1.9397;
82687242492365;-9.1149;1.5778;-2.8717;
82687252582938;-9.8815;1.4818;-3.7579;
82687262698042;-9.8791;1.4794;-3.9087;
82687272796063;-9.7208;1.5730;-3.6069;
82687282910230;-9.4741;1.7094;-2.9339;
82687293016011;-9.4884;1.8413;-1.8392;
82687303151636;-9.3473;2.1096;-0.9383;
82687313224136;-9.2656;2.2914;-1.2787;
82687323332000;-9.6658;1.9561;-2.3399;
82687333438511;-9.6778;1.6639;-3.0200;
82687343542469;-9.0168;1.7309;-3.2309;
82687353647105;-8.6189;1.7189;-3.4777;
82687363754917;-8.8394;1.5009;-3.6428;
82687373860386;-8.8083;1.4530;-3.0033;
82687383963459;-8.7099;1.7381;-2.1936;
82687394071636;-9.4286;1.9992;-1.8966;
82687404177313;-9.8049;2.0928;-1.8009;
82687414281167;-9.3855;2.2651;-2.0426;
82687424394188;-9.2898;2.2460;-3.0942;
82687434496271;-9.8886;1.9561;-3.9855;
82687444600698;-9.2441;1.8078;-3.2836;
82687454705698;-8.2382;2.2747;-2.4500;
82687464805646;-7.9890;2.4329;-2.2439;
82687474914917;-8.5304;2.3130;-2.8618;
82687485024188;-10.0609;2.2651;-3.7316;
82687495134344;-10.6481;2.3444;-3.2548;
82687505232678;-9.6730;2.8929;-2.7159;
82687515342053;-9.0861;2.9408;-2.6010;
82687525447782;-8.5926;2.6366;-2.1338;
82687535550698;-7.9193;2.7084;-1.9732;
82687545657678;-8.2693;2.7299;-2.6345;
82687555761011;-10.1617;2.3635;-3.2501;
82687565864292;-10.7988;2.4066;-2.9435;
82687575972469;-9.7472;2.8424;-2.7685;
82687586075438;-9.5486;2.8663;-3.2596;
82687596185698;-9.3473;2.3539;-2.9913;
82687606281167;-8.0536;2.4449;-2.2152;
82687616392834;-7.2320;2.7658;-2.0091;
82687626498355;-7.6825;2.6653;-2.6106;
82687636602990;-8.9901;2.4832;-3.0679;
82687646705386;-10.1856;2.4999;-2.6967;
82687656810334;-10.5449;3.0724;-2.5720;
82687666918303;-10.5018;3.2809;-3.1950;
82687677033928;-9.6443;2.9719;-3.2046;
82687687133511;-7.9651;2.9767;-2.7709;
82687697235855;-7.1507;3.2378;-4.1435;
82687707343928;-7.8428;5.5974;-4.3615;
82687717454553;-8.7963;5.7266;-6.0670;
82687727555021;-9.9174;5.6740;-6.0960;
82687737662938;-10.5353;4.6032;-5.1281;
82687747769865;-9.9078;1.8724;-2.6417;
82687757878615;-9.5916;-0.6574;0.7481;
82687767981636;-7.7064;-0.7196;2.5328;
82687778087365;-7.0810;3.2043;-2.2128;
82687788187886;-9.3449;4.3540;-5.3725;
82687798299448;-9.0168;3.5683;-5.1951;
82687808401011;-8.7796;5.6166;-9.4376;
82687818509136;-9.5533;6.7424;-10.8844;
82687828613928;-8.1733;1.3286;-0.8378;
82687838727938;-8.8011;-0.4681;1.2320;
82687848820178;-10.8251;-0.3676;-0.3682;
82687858927105;-8.7027;0.1403;1.8428;
82687869035803;-6.1301;1.2422;1.1602;
82687879136584;-7.2799;0.5955;-2.6536;
82687889267834;-4.9801;-1.5030;-4.5174;
82687899355855;-2.8193;0.3823;-4.4862;
82687909448980;-6.5420;3.3096;-9.2554;
82687919564761;-13.4435;0.7992;-9.4232;
82687929646792;-16.0116;-1.5485;-9.7992;
82687939760021;-17.5301;-0.0897;-10.6834;
82687949875334;-11.6830;1.0125;-3.9975;
82687959974136;-2.8771;4.7925;-2.5385;
82687970147105;-2.9776;6.0284;-1.5036;
82687980186375;-6.8967;2.6246;2.8561;
82687990307730;-10.1737;2.4162;1.1530;
82688000434396;-14.4018;4.8500;-4.7279;
82688010503771;-13.2613;3.6377;-3.6838;
82688020594240;-10.4468;1.9250;-2.2343;
82688030705021;-8.9686;1.2159;-2.6393;
82688040852417;-7.0642;-0.3724;-1.6259;
82688050930178;-7.2870;-1.3424;-2.4930;
82688061030959;-8.6812;-1.6513;-3.2453;
82688071131844;-9.9532;-2.0779;-3.6308;
82688081252000;-13.3908;-2.0731;-5.3964;
82688091353042;-12.0326;-2.1688;-2.6584;
82688101465698;-7.7758;-0.8827;0.2713;
82688111560334;-10.1306;1.2494;-1.0630;
82688121662573;-8.6572;-0.0440;2.5615;
82688131789709;-5.5337;0.9212;1.0475;
82688141880125;-10.0442;0.5740;-5.7652;
82688151987417;-11.5750;-1.4264;-5.3677;
82688162106740;-8.6716;-1.8981;-2.6393;
82688172206532;-9.2034;-0.9832;-4.1172;
82688182299761;-11.6061;-0.9138;-4.8790;
82688192397000;-9.7783;-0.8707;-0.6150;
82688202494240;-8.3554;1.0101;0.9685;
82688212611115;-9.7017;1.7812;-1.3361;
82688222708355;-10.2335;0.8471;-2.8116;
82688232805594;-10.3173;0.9667;-3.1831;
82688242931688;-9.1747;1.4315;-2.9506;
82688253028928;-8.1733;1.4961;-3.2381;
82688263126167;-8.5161;1.0244;-3.1038;
82688273252157;-8.9638;0.8734;-1.7001;
82688283349396;-9.7902;1.6902;-0.4472;
82688293446636;-10.1928;2.4664;0.7146;
82688303560282;-9.7950;2.8184;-0.1597;
82688313657521;-10.3101;2.9360;-2.0282;
82688323754761;-8.5735;2.1191;-1.0463;
82688333886532;-7.4859;2.4377;-2.2774;
82688343983771;-9.7711;1.9729;-4.3280;
82688354081011;-10.6935;1.6472;-2.8235;
82688364204969;-9.8336;2.4760;-1.3672;
82688374302209;-9.5076;2.9838;-2.5768;
82688384399448;-10.2024;1.8173;-3.0392;
82688394519865;-8.7485;1.1752;-2.3109;
82688404617105;-8.7700;1.2855;-2.8187;
82688414714344;-9.1819;0.9045;-2.3303;
82688424857365;-7.9484;1.1584;-1.9349;
82688434954605;-8.2549;1.1010;-1.8846;
82688445051844;-9.7065;0.7609;-2.1314;
82688455156011;-10.4755;1.0436;-2.8355;
82688465253250;-10.7868;1.4148;-2.9602;
82688475350490;-9.5462;1.6831;-2.0282;
82688485471219;-8.3195;1.7381;-1.9660;
82688495568459;-9.1077;1.4363;-2.0545;
82688505665698;-10.0828;1.2999;-0.9742;
82688515798615;-10.5664;1.7285;0.2737;
82688525895855;-9.7854;2.4162;0.6284;
82688535993094;-9.5124;2.3683;-0.9766;
82688546107469;-10.4396;1.5969;-2.5648;
82688556204709;-10.2024;1.1489;-2.4165;
82688566301948;-8.6572;1.1919;-1.8846;
82688576418407;-7.9436;0.3559;-2.2774;
82688586515646;-9.1986;-0.1400;-3.9712;
82688596612886;-10.4252;-0.5183;-3.7029;
82688606737990;-9.7017;-0.7962;-0.8809;
82688616835230;-8.1494;0.2841;0.2880;
82688626932469;-8.2837;1.6496;-1.0271;
82688637060959;-10.1306;1.4076;-1.4007;
82688647158198;-10.7605;0.6362;0.0197;
82688657255438;-9.6538;0.8136;0.4606;
82688667365073;-9.2946;1.2039;-1.2595;
82688677462313;-10.1067;1.0364;-2.6225;
82688687559553;-10.3077;0.4564;-2.4093;
82688697682678;-9.7376;0.3392;-1.6427;
82688707779917;-9.3999;1.2111;-1.8368;
82688717877157;-9.6108;2.1718;-1.9469;
82688728008094;-9.5868;2.6270;-1.7480;
82688738105334;-9.5988;2.8953;-2.1410;
82688748202573;-9.4573;3.0197;-2.0644;
82688758331219;-8.9399;2.5884;-1.5733;
82688768425750;-8.8585;1.6113;-1.5374;
82688778522990;-9.3377;1.3358;-2.5026;
82688788620230;-9.5195;1.1417;-2.7135;
82688798746636;-9.5821;1.2374;-2.4069;
82688808843875;-9.4765;1.3214;-2.0498;
82688818941115;-9.4860;1.2326;-2.1625;
82688829069344;-9.9772;0.7032;-2.4452;
82688839166584;-9.9772;0.1235;-2.2295;
82688849263823;-9.6299;0.2100;-2.2606;
82688859367469;-9.2632;0.5692;-2.3180;
82688869464709;-9.2922;0.9428;-2.4930;
82688879561948;-9.3497;1.2613;-2.5768;
82688889709396;-9.0790;1.5514;-2.4236;
82688899806584;-8.8466;1.8891;-2.5935;
82688909903823;-9.1962;1.9178;-3.1424;
82688920008563;-9.9174;1.6567;-3.2429;
82688930105855;-9.9676;1.4841;-2.5792;
82688940203094;-9.5438;1.7668;-2.1123;
82688950344344;-9.4167;1.7501;-1.8535;
82688960441584;-9.4406;1.4363;-1.6834;
82688970538875;-9.3664;1.7548;-1.8583;
82688980620490;-9.3425;2.1000;-1.8344;
82688990717730;-9.4214;1.8843;-1.5565;
82689000814969;-9.6562;1.7333;-1.7169;
82689011027938;-9.6467;1.5491;-1.7432;
82689021125125;-9.3090;1.4363;-1.8176;
82689031222417;-9.2489;1.4411;-2.0258;
82689041278094;-9.4621;1.4626;-2.0067;
82689051375334;-9.4932;1.5224;-1.8440;
82689061472573;-9.4693;1.6807;-1.8081;
82689071605542;-9.5315;1.8317;-1.9516;
82689081702782;-9.5124;1.9178;-2.1027;
82689091800021;-9.5510;1.9777;-2.2271;
82689101897990;-9.5124;2.0351;-2.2582;
82689111995230;-9.4143;2.0183;-2.2056;
82689122092469;-9.4502;1.9825;-2.1625;
82689132239188;-9.4621;1.9059;-1.9756;
82689142336428;-9.3999;1.9107;-1.8703;
82689152433667;-9.4238;1.8820;-1.9014;
82689162538823;-9.4406;1.7859;-1.8870;
82689172636063;-9.4190;1.6496;-1.8200;
82689182733303;-9.4669;1.5873;-1.8775;
82689192860021;-9.5004;1.6567;-2.0115;
82689202957261;-9.4238;1.7429;-2.0836;
82689213054500;-9.4741;1.7453;-2.0859;
82689223180855;-9.5076;1.6902;-2.1840;
82689233278094;-9.4693;1.6328;-2.2152;
82689243375334;-9.4454;1.5993;-2.2750;
82689253490282;-9.4454;1.4698;-2.2271;
82689263587521;-9.4190;1.3095;-2.2056;
82689273684761;-9.3927;1.2398;-2.2080;
82689283810282;-9.3497;1.2302;-2.1984;
82689293907521;-9.3449;1.2302;-2.2104;
82689304004761;-9.3927;1.1776;-2.2271;
82689314128511;-9.3951;1.1824;-2.4500;
82689324225750;-9.3114;1.1249;-2.6632;
82689334322990;-9.3018;1.1417;-2.8669;
82689344437834;-9.2297;1.3932;-3.1591;
82689354535073;-9.1436;1.7118;-3.4370;
82689364632261;-9.0742;1.9896;-3.6284;
82689374764761;-9.0766;2.2149;-3.6165;
82689384862000;-9.1196;2.3898;-3.6380;
82689394959240;-9.0766;2.4090;-3.7196;
82689405078615;-9.0431;2.2675;-3.4585;
82689415175855;-9.1125;2.2436;-3.5590;
82689425273094;-9.1149;2.2029;-3.5877;
82689435392053;-9.0096;2.2316;-3.5471;
82689445489790;-8.9590;2.2029;-3.5686;
82689455587030;-8.9925;2.1742;-3.5279;
82689465702186;-8.9782;2.1215;-3.5160;
82689475799426;-9.2683;1.9681;-3.5231;
82689485896665;-9.6586;1.5969;-3.1496;
82689496022134;-9.4717;1.4148;-2.7637;
82689506119373;-9.1651;1.3262;-2.7661;
82689516216613;-9.0191;1.0268;-2.8164;
82689526349009;-9.1412;0.6984;-2.9219;
82689536446248;-9.2850;0.3918;-2.8403;
82689546543488;-9.3544;0.1570;-2.5720;
82689556658696;-9.3927;0.1044;-2.4930;
82689566755936;-9.3592;0.2195;-2.5026;
82689576853176;-9.3377;0.3511;-2.5528;
82689586985363;-9.3114;0.4325;-2.7613;
82689597082603;-9.2393;0.5883;-3.0751;
82689607179842;-9.2154;0.8518;-3.1950;
82689617299426;-9.2393;1.1010;-3.0703;
82689627396665;-9.4143;1.3214;-2.9411;
82689637493905;-9.5701;1.8580;-3.1062;
82689647610259;-9.5486;2.5071;-3.4178;
82689657707446;-9.2755;3.0030;-3.5231;
82689667804686;-9.0311;3.4199;-3.6260;
82689677942342;-8.9686;3.6018;-3.6909;
82689688039582;-8.8777;2.7610;-3.1110;
82689698136821;-9.0503;2.4927;-3.4083;
82689708249009;-9.2827;2.3922;-3.7890;
82689718346248;-9.1986;2.2819;-3.7125;
82689728443488;-9.1149;2.1335;-3.7053;
82689738566769;-9.3736;1.9370;-3.9688;
82689748664009;-9.5124;1.9083;-3.9927;
82689758761248;-9.1173;2.0880;-3.5710;
82689768867290;-8.6596;2.0088;-3.4298;
82689778964478;-8.5113;1.7022;-3.6667;
82689789061717;-8.2334;1.2254;-3.1448;
82689799189686;-7.9699;0.7394;-2.2965;
82689809286926;-8.5663;0.6242;-2.4284;
82689819384165;-9.7448;0.7992;-2.9698;
82689829517446;-9.8312;0.8183;-2.9219;
82689839614686;-9.6132;0.4301;-3.1062;
82689849711926;-9.8312;0.6601;-4.4189;
82689859824217;-9.7759;0.7418;-3.9544;
82689869921457;-9.0072;0.2148;-2.2558;
82689880018696;-8.0441;-0.2955;-1.4246;
82689890155780;-6.9039;0.2100;-1.8344;
82689900253071;-7.2631;1.4937;-4.2275;
82689910350311;-9.8623;1.9968;-8.1727;
82689920462967;-11.6611;1.0747;-9.2124;
82689930560207;-10.3487;-0.6191;-5.1688;
82689940657446;-9.8097;-1.5963;-1.8081;
82689950765051;-9.9652;-0.5518;-0.6963;
82689960862238;-9.1962;1.1154;-0.9526;
82689970959478;-8.1422;2.5645;-2.6680;
82689981099269;-7.5769;3.4199;-4.6896;
82689991196509;-7.8523;2.7227;-5.1185;
82690001293748;-7.5745;0.4998;-3.3864;
82690011426353;-7.4046;0.1475;-3.9063;
82690021523592;-8.3794;-0.3556;-4.1387;
82690031620884;-9.8575;-1.2323;-3.0511;
82690041718592;-9.1101;-2.2098;-1.3720;
82690051815832;-9.0000;-2.6695;-3.8297;
82690061913071;-10.6768;-2.9498;-6.5749;
82690072060311;-9.3927;-3.1845;-4.1195;
82690082157551;-7.3540;-3.5847;-2.0091;
82690092254790;-8.7915;-3.0266;-3.4083;
82690102346665;-9.9030;-2.6551;-2.7852;
82690112443853;-9.4837;-2.1760;-1.8631;
82690122541092;-9.8121;-1.7474;-3.4848;
82690132672603;-10.6528;-2.1449;-4.6896;
82690142769842;-8.9662;-2.9115;-4.7761;
82690152867082;-8.3770;-3.4816;-5.1568;
82690162997759;-9.4238;-2.9306;-4.6346;
82690173094998;-9.5267;-0.7029;-3.2309;
82690183192238;-7.5194;0.5572;-2.8908;
82690193318853;-7.6271;-0.0320;-3.9568;
82690203416092;-10.5281;-0.2788;-4.1770;
82690213513332;-12.7391;1.0364;-3.6188;
82690223636509;-11.0934;2.0207;-2.5816;
82690233733748;-8.9877;1.3023;-1.2018;
82690243830988;-8.1541;1.4195;-0.8210;
82690253956509;-8.8490;2.4209;-1.6594;
82690264053748;-11.0647;1.4746;-1.0104;
82690274150988;-11.4649;1.6400;-0.7155;
82690284266301;-11.2253;1.1130;-0.2390;
82690294363540;-9.7998;0.9930;0.6114;
82690304460780;-8.4921;0.6242;0.0942;
82690314583853;-9.2994;-0.1065;-0.6580;
82690324681092;-10.3941;-0.7890;-0.5168;
82690334778332;-10.5544;-1.4336;-0.5575;
82690344902186;-10.1641;-1.6466;-0.7756;
82690354999426;-9.4190;-0.9855;-1.0080;
82690365096665;-9.3257;-0.7747;-0.7828;
82690375222030;-9.6706;-0.3027;-0.6724;
82690385319269;-9.9676;-0.0921;-1.0008;
82690395416509;-11.0360;0.0900;-1.2018;
82690405537446;-10.7701;0.6745;-1.1803;
82690415634686;-9.6156;0.8016;-1.7121;
82690425731926;-9.4119;0.6338;-2.3133;
82690435857967;-9.5028;0.6888;-2.3423;
82690445955207;-9.2656;0.9452;-2.5720;
82690456052498;-8.9495;1.4794;-3.0344;
82690466167342;-9.2297;1.5826;-3.3434;
82690476264582;-9.9197;1.6328;-3.4801;
82690486361821;-9.4860;2.0471;-3.3529;
82690496493696;-8.8418;1.6926;-3.2046;
82690506590936;-9.0311;1.3454;-3.6284;
82690516688176;-8.8561;0.6482;-3.4322;
82690526805467;-8.7844;0.1044;-3.7890;
82690536902707;-9.2874;-0.3796;-4.2682;
82690546999946;-9.1149;-0.7268;-4.1219;
82690557113384;-8.3459;0.4831;-4.3807;
82690567210623;-8.5591;0.3751;-4.7040;
82690577307863;-9.6180;0.1714;-4.9292;
82690587432967;-9.0694;0.1762;-4.9077;
82690597530207;-7.6582;-0.8321;-5.5762;
82690607627446;-8.9782;-0.8755;-6.8842;
82690617747967;-9.2850;-0.5734;-6.7642;
82690627845207;-8.7628;0.0446;-5.4443;
82690637942446;-8.2406;0.4783;-4.9866;
82690648067186;-7.5601;0.6673;-5.1497;
82690658164426;-9.1579;0.4783;-5.7389;
82690668261665;-11.6061;1.3502;-5.7843;
82690678387186;-8.6453;2.1957;-3.6957;
82690688484426;-5.5481;2.5454;-3.4083;
82690698581665;-8.3770;2.1263;-5.7006;
82690708706092;-10.4300;1.9298;-7.2194;
82690718803332;-8.6453;1.5586;-5.4443;
82690728900571;-9.1675;1.7357;-4.1435;
82690739025676;-7.9771;2.3563;-4.8024;
82690749122915;-8.2837;2.6414;-5.4706;
82690759220155;-9.4789;1.5730;-4.1650;
82690769344790;-9.2130;1.5057;-4.2586;
82690779442030;-11.0456;1.2470;-5.5475;
82690789539269;-11.3665;1.3071;-4.3567;
82690799661405;-8.0178;1.1632;-3.3123;
82690809758644;-8.8394;0.2483;-4.8838;
82690819855884;-10.0995;-0.2213;-5.8325;
82690829966509;-8.1159;-0.4944;-4.4644;
82690840063748;-7.6104;-0.5327;-3.3386;
82690850161040;-7.7351;-0.2668;-3.6045;
82690860290832;-7.7566;-0.4226;-3.3338;
82690870388019;-7.2990;-0.1280;-1.9923;
82690880485259;-7.9292;0.3607;-2.3109;
82690890600728;-10.6935;0.7681;-7.1501;
82690900697915;-13.2709;0.4783;-8.0004;
82690910795207;-10.6696;-0.3772;-3.3793;
82690920945623;-7.5888;0.4373;-1.8583;
82690931042811;-6.6643;0.8662;-3.5423;
82690941140051;-6.9900;0.4493;-3.4418;
82690951247707;-7.8045;0.5285;-3.9951;
82690961344946;-7.7327;0.9093;-3.8082;
82690971442238;-8.1517;0.6864;-2.4165;
82690981549217;-10.8203;-0.0176;-2.9267;
82690991646457;-11.8983;0.7633;-6.9440;
82691001743696;-12.7849;0.5357;-9.0111;
82691011881561;-13.0316;-1.3663;-4.9986;
82691021978801;-5.7514;-3.9655;5.0001;
82691032076040;0.7475;-4.0253;7.6137;
82691042199686;-4.2329;-0.5207;-5.3653;
82691052296926;-10.6792;-2.8253;-8.5705;
82691062394165;-14.3516;-2.9856;-4.2275;
82691072517811;-15.9515;-1.7258;-0.1959;
82691082615051;-12.0135;-0.1472;3.6036;
82691092712290;-9.2465;0.1977;3.4430;
82691102822082;-6.8222;1.4291;-1.3217;
82691112919269;-7.4142;2.1670;-5.9498;
82691123016509;-7.9508;0.9523;-4.4118;
82691133134530;-9.4334;0.1020;-2.0091;
82691143231769;-10.7055;-0.1137;-1.8703;
82691153329009;-12.9428;-1.0454;-1.2138;
82691163452186;-11.0001;-1.7426;-0.9120;
82691173549426;-10.1354;-1.9415;-2.9291;
82691183646665;-13.1010;-2.7126;-2.7398;
82691193768801;-11.1703;-1.9149;1.3373;
82691203866040;-8.0656;-1.4073;3.2106;
82691213963280;-9.5797;-0.7866;0.0966;
82691224097967;-12.2435;-0.4992;-1.9995;
82691234195207;-9.3592;-2.0922;-0.0640;
82691244292446;-8.2190;-2.4108;-2.7087;
82691254416873;-10.3220;-2.8110;-4.5628;
82691264514113;-9.4071;-2.9569;-1.7838;
82691274611353;-8.7051;-1.3017;-2.5744;
82691284718280;-9.9556;-0.2907;-4.0358;
82691294815519;-9.9963;-0.4322;-3.0176;
82691304912759;-8.2095;-0.2740;-2.0234;
82691315038071;-9.0885;0.3799;-2.2630;
82691325135311;-9.9556;0.6960;-1.7384;
82691335232551;-9.4765;1.5467;-2.4476;
82691345354321;-8.4682;1.4650;-2.9291;
82691355451561;-8.1039;1.5586;-3.5949;
82691365548801;-9.9509;1.9633;-2.6393;
82691375675884;-12.8088;2.6028;-0.7516;
82691385773123;-8.8513;2.8400;-0.3371;
82691395870363;-7.6825;2.4544;-3.3745;
82691405996926;-9.0885;2.3850;-5.1903;
82691416094165;-10.1378;2.6797;-3.6452;
82691426191405;-8.1206;3.3718;-3.4322;
82691436329269;-7.5194;2.9838;-4.3496;
82691446426509;-8.4897;2.4185;-5.0922;
82691456523748;-10.0633;2.4281;-5.2621;
82691466627342;-7.3421;1.5993;-2.8546;
82691476724582;-7.8021;1.2302;-4.9914;
82691486821821;-12.3512;-0.5758;-4.9053;
82691496945780;-10.6409;-0.6933;-2.3710;
82691507043019;-6.3721;0.3679;-1.2329;
82691517140259;-7.5745;0.6625;-2.3351;
82691527269269;-11.8361;-0.3628;-3.9808;
82691537366509;-9.2154;-0.1974;-3.0775;
82691547463748;-6.5997;0.4134;-1.2042;
82691557592915;-7.5601;0.8064;-3.7795;
82691567690155;-13.3095;1.1991;-7.9307;
82691577787394;-11.6782;0.4974;-3.5901;
82691587901613;-4.1465;0.8016;-1.2018;
82691597998853;-6.9972;1.1752;-6.4505;
82691608096092;-11.2421;-1.7809;-4.3902;
82691618214634;-8.6596;-2.0635;-1.7862;
82691628311873;-8.6859;-0.2405;-3.7962;
82691638409113;-9.0574;-0.9353;-4.0095;
82691648520103;-10.0179;-1.4121;-3.6981;
82691658617342;-10.5018;-1.7665;-1.7169;
82691668714582;-12.1331;-1.1100;-0.8330;
82691678834165;-9.7807;-0.6479;-1.2353;
82691688931405;-7.9122;-1.2227;-2.3133;
82691699028644;-9.0359;-1.3831;-2.6991;
82691709166301;-8.5591;-1.3448;-2.4619;
82691719263540;-7.9484;-0.1017;-3.8919;
82691729360780;-7.3708;-0.5040;-5.8564;
82691739472342;-10.3316;-0.8755;-5.5834;
82691749569582;-10.8227;-0.8755;-3.7890;
82691759666821;-8.7700;-0.4585;-3.2118;
82691769817186;-8.9710;0.0565;-2.6369;
82691779921196;-9.2178;0.0541;-3.9592;
82691790025259;-8.7820;-0.2046;-4.9627;
82691800098123;-10.8156;-0.0009;-5.2887;
82691810202186;-8.7171;0.6769;-2.7517;
82691820306248;-8.8346;2.0856;-2.6967;
82691830424530;-11.0886;1.3669;-1.8655;
82691840528592;-9.0670;2.3058;-0.3849;
82691850632603;-5.6175;1.7118;-4.1363;
82691860738957;-12.4807;-0.4322;-7.9235;
82691870843019;-12.9045;0.5118;-3.5136;
82691880947082;-2.8002;2.5454;-0.6820;
82691891058644;-6.2928;1.3190;-6.3835;
82691901162707;-14.1215;-0.5949;-6.9703;
82691911266769;-10.7557;0.9667;-3.6380;
82691921385623;-7.3229;1.2206;-1.3624;
82691931489686;-7.1889;-0.1663;-2.2798;
82691941593696;-8.4559;0.1738;-3.5016;
82691951682603;-8.8705;0.3559;-5.0109;
82691961786665;-12.6912;-0.0153;-4.8574;
82691971890728;-10.3678;-0.5064;-2.4021;
82691982011561;-7.1602;-0.3194;-0.8952;
82691992115623;-7.8500;-1.0406;-1.9780;
82692002219686;-10.6385;-1.2227;-4.6801;
82692012363123;-11.3880;-0.4226;-3.4059;
82692022467186;-8.6357;-0.0873;-1.5924;
82692032571248;-7.0857;-0.6479;-3.1902;
82692042658228;-8.9638;-1.3017;-4.4644;
82692052762290;-8.4778;-0.2357;-5.4419;
82692062866353;-8.7844;-0.5686;-6.3257;
82692072953280;-11.6587;-0.7723;-3.5303;
82692083057342;-9.4837;-0.8536;-0.9024;
82692093161405;-5.2436;-1.3089;-2.4452;
82692103298123;-10.7605;-2.0180;-6.0359;
82692113402134;-13.4363;-0.4442;-4.8646;
82692123506196;-8.4129;0.5596;0.3191;
82692133603228;-6.6212;0.7801;0.7337;
82692143707290;-8.1781;-1.1291;-2.9076;
82692153811353;-9.7615;-1.0502;-6.7642;
82692163912811;-12.3272;0.4014;-6.0526;
82692174016873;-8.2813;0.9954;-4.2562;
82692184120936;-7.5817;0.0182;-3.9879;
82692194227498;-9.5291;-0.2955;-4.0765;
82692204331561;-8.3243;-0.0583;-4.3280;
82692214435623;-11.6252;0.0661;-3.9712;
82692224551978;-10.2287;1.2565;-1.8344;
82692234656040;-4.9923;2.0638;-1.7695;
82692244760103;-8.8777;0.5237;-4.2969;
82692254863540;-11.1126;1.0723;-4.2610;
82692264967603;-7.8595;1.8580;-5.0874;
82692275071665;-9.7304;0.8973;-6.2396;
82692285181040;-11.1535;1.1130;-3.8824;
82692295285103;-8.1111;-0.0488;-4.4862;
82692305389165;-8.8753;-0.5136;-4.1770;
82692315499894;-8.5280;0.1283;-2.4141;
82692325603957;-8.0321;-0.7077;-3.4537;
82692335708019;-7.4429;-0.4753;-3.7196;
82692345818540;-9.6060;-0.8755;-5.3916;
82692355922603;-11.8409;-0.6120;-3.9592;
82692366026665;-9.3473;-0.5471;-2.0402;
82692376145728;-9.2441;-1.3184;-2.1482;
82692386249790;-8.0249;-1.7665;-3.3075;
82692396353853;-9.7448;-0.7938;-3.2501;
82692406453540;-9.4071;-1.2060;-2.7733;
82692416557603;-7.9460;-1.6828;-3.8106;
82692426661665;-8.2549;-2.1760;-5.8110;
82692436769686;-8.4945;-0.9832;-4.2897;
82692446873696;-8.9638;-2.3629;-5.1114;
82692456977759;-10.7031;-1.8694;-4.0549;
82692467083436;-8.9399;-1.5030;-3.1902;
82692477187498;-8.6596;-2.0994;-3.7531;
82692487291561;-9.7854;-1.6585;-1.8918;
82692497398696;-9.0957;-2.2098;-3.6643;
82692507502759;-10.6050;-1.7091;-3.7244;
82692517606821;-11.6611;-1.1195;-2.5289;
82692527720728;-7.0953;-0.9377;-2.0378;
82692537824790;-6.2306;-1.3687;-3.9473;
82692547928853;-9.1268;-1.6059;-4.5843;
82692558033436;-8.5065;-0.9688;-5.2887;
82692568137498;-9.3592;-1.0932;-5.8301;
82692578241561;-9.1484;-0.6957;-4.6729;
82692588352446;-9.8599;-0.3485;-4.2251;
82692598456509;-11.3186;-0.8345;-2.3925;
82692608560571;-8.3315;0.1020;-0.7588;
82692618665623;-7.7399;-1.0478;-3.2309;
82692628769686;-10.8275;-0.2596;-4.9890;
82692638873748;-10.7797;0.7343;-1.6475;
82692648987446;-9.1220;0.3751;-3.9784;
82692659091457;-7.4070;0.6458;-4.9196;
82692669195519;-8.5232;0.7561;-6.3185;
82692679323540;-10.8347;2.0112;-5.6312;
82692689427603;-8.1589;2.4090;-2.9626;
82692699531665;-6.1277;1.9466;-3.0870;
82692709613957;-8.7796;1.6735;-5.4012;
82692719718019;-11.9414;1.3836;-5.4826;
82692729822082;-11.5223;1.2135;-3.8967;
82692739935415;-9.0957;0.5979;-2.8956;
82692750039478;-7.0977;-0.3314;-2.5744;
82692760143540;-9.5366;0.0278;-2.6824;
82692770335571;-11.0192;-0.0945;-2.9889;
82692780441405;-8.9255;-0.5734;-2.9291;
82692790547238;-6.6619;-0.3218;-5.4993;
82692800548957;-10.6409;-0.4801;-4.5820;
82692810654738;-11.9079;-1.5341;-2.3566;
82692820760519;-8.9518;-1.6947;-2.2199;
82692830906509;-7.4668;-2.3198;-0.7660;
82692841012290;-7.2344;-2.4658;-2.8020;
82692851118123;-10.1737;-2.6145;-3.5112;
82692861189009;-10.3316;-2.9617;-2.8116;
82692871294790;-10.4372;-1.3854;-2.9506;
82692881400623;-6.6260;-2.1999;-1.8033;
82692891524009;-8.1087;-2.0420;-4.5796;
82692901629842;-10.5018;-1.5173;-5.1425;
82692911735623;-9.7711;-1.8335;-2.9363;
82692921824478;-8.7772;-1.0525;-4.0956;
82692931930311;-8.8944;-1.7354;-4.6466;
82692942036092;-9.0933;-1.7234;-4.2132;
82692952149478;-7.8906;-0.8273;-4.5820;
82692962255311;-10.5281;-1.0549;-4.4046;
82692972361092;-9.1675;-0.5734;-3.4920;
82692982485988;-9.7591;-0.3508;-3.1205;
82692992591769;-7.4836;-0.1639;-2.2391;
82693002697603;-6.7624;0.1068;-4.2060;
82693012790884;-11.4745;-0.0921;-5.8493;
82693022896665;-11.3402;-0.4848;-4.5915;
82693033002498;-9.2536;-0.6383;-4.5437;
82693043112655;-8.4440;-0.6215;-3.7819;
82693053218488;-7.3516;0.2483;-3.1325;
82693063324269;-10.2048;-0.6957;-4.1770;
82693073420155;-11.6806;0.2291;-3.3984;
82693083525988;-5.6533;0.9882;-2.3806;
82693093631769;-7.6271;1.0149;-4.5676;
82693103736613;-10.3220;0.5333;-4.9938;
82693113842394;-10.9403;0.3153;-4.1578;
82693123948228;-9.4478;1.0627;-2.7446;
82693134054842;-8.6142;0.0565;-2.7039;
82693144160623;-9.2683;1.0244;-2.9746;
82693154266457;-9.5557;-0.4083;-2.7159;
82693164368696;-7.0427;0.4301;-4.4142;
82693174474530;-8.2214;0.7801;-4.2730;
82693184580311;-12.2459;1.0388;-4.3519;
82693194686301;-9.3903;0.7801;-2.6441;
82693204792082;-7.1602;0.6505;-1.8081;
82693214897915;-8.1230;-0.0730;-3.2046;
82693225011561;-11.3330;-0.3003;-2.8211;
82693235117342;-8.4706;-0.5638;-1.3289;
82693245223176;-6.8198;-0.2859;-3.4825;
82693255323228;-9.9796;-0.2237;-4.9101;
82693265429061;-12.5620;-0.4083;-4.7016;
82693275534842;-10.3798;-0.6885;-1.7432;
82693285648176;-5.6462;-0.7795;-1.7073;
82693295753957;-10.7892;-0.5375;-4.7593;
82693305859790;-11.3067;-1.0358;-3.5064;
82693315961092;-7.9866;-0.4657;-1.3504;
82693326066873;-6.4678;0.6888;-2.3303;
82693336172707;-8.0752;-0.7101;-5.1305;
82693346279009;-12.2363;0.2985;-4.5652;
82693356384790;-8.5854;0.1379;-0.6173;
82693366490676;-8.0249;-0.6574;-3.9135;
82693376598176;-8.4826;-0.6431;-3.7507;
82693386703957;-10.8347;-0.5351;-2.7230;
82693396809790;-12.3200;-0.6670;-3.7053;
82693406911561;-7.0283;-0.6622;-1.8272;
82693417017342;-8.2717;-1.1844;-3.5949;
82693427123228;-13.0292;-0.6670;-4.5556;
82693437228228;-11.0480;-0.4968;0.3482;
82693447334009;-4.7958;0.1164;-1.7719;
82693457439842;-5.9169;-0.0320;-6.7475;
82693467551353;-9.1340;-0.0897;-6.7116;
82693477657134;-9.1196;0.4612;-5.0204;
82693487762915;-11.5271;0.0063;-4.7593;
82693497866144;-9.6873;-1.0741;-2.9626;
82693507971926;-7.0259;-0.1208;-2.2510;
82693518077759;-7.7518;-0.9185;-3.8082;
82693528183071;-9.6108;-0.6550;-6.0479;
82693538288853;-12.9117;-0.4035;-4.7809;
82693548394686;-6.9996;0.3200;-1.4844;
82693558495363;-6.7935;-0.8731;-5.5184;
82693568601196;-11.1006;-0.5973;-4.3950;
82693578706978;-9.8767;0.0781;-0.6317;
82693588812030;-9.2683;-0.1448;-2.4619;
82693598917811;-10.1163;0.5644;-3.2357;
82693609023696;-8.1757;-0.4920;-2.1529;
82693619130571;-7.2823;-0.5758;-4.3376;
82693629236353;-9.3808;-0.3242;-6.3978;
82693639342186;-10.9570;0.1642;-4.5508;
82693649439061;-11.0216;-0.1878;-3.5949;
82693659544842;-7.1483;-0.8489;-2.5792;
82693669650623;-8.7556;-0.8850;-5.6671;
82693679755259;-12.7032;-1.4360;-3.5614;
82693689861092;-10.2981;-1.0310;-1.8535;
82693699966873;-8.3842;-0.6646;-0.7325;
82693710075884;-6.9996;-0.9808;-0.2342;
82693720181717;-8.8968;-0.1448;-2.3351;
82693730287551;-12.3057;-0.3843;-5.9067;
82693740446561;-10.7151;0.2435;-3.7388;
82693750552342;-6.3048;0.3081;-3.6742;
82693760658176;-8.5041;-0.1591;-4.0956;
82693770786873;-9.4525;-0.3556;-4.3496;
82693780892498;-8.8681;-0.1089;-3.5901;
82693790998123;-10.4874;-0.2668;-2.5528;
82693801077394;-8.3554;0.5189;-1.8583;
82693811183019;-7.7136;-0.0392;-3.5590;
82693821288592;-10.2861;-0.1137;-5.0180;
82693831348123;-8.4706;-0.4585;-3.6861;
82693841453748;-7.7758;0.6888;-3.8130;
82693851559321;-11.1102;0.4974;-3.6117;
82693861658019;-9.4023;0.1738;-3.2836;
82693871763644;-6.9326;0.5189;-3.9350;
82693881869217;-9.0742;-0.1854;-4.5461;
82693891996092;-11.7739;0.0111;-3.4394;
82693902101665;-9.6467;-0.1591;-2.7661;
82693912207290;-7.4094;0.1427;-4.1028;
82693922287603;-8.7748;0.3870;-4.0765;
82693932393228;-10.0226;-0.2070;-3.5327;
82693942498801;-8.3339;0.5285;-4.1818;
82693952610415;-8.4993;-0.1089;-3.2453;
82693962716040;-12.5166;0.6601;-4.2873;
82693972821613;-9.6969;0.6482;-1.1539;
82693982932707;-7.6487;-0.1041;-0.4496;
82693993038332;-7.6753;-0.0272;-3.2836;
82694003143957;-8.3148;-1.0047;-3.8489;
82694013249582;-7.0714;0.0326;-4.8526;
82694023355207;-8.6548;1.7477;-7.2649;
82694033460832;-8.4200;0.3464;-5.0133;
82694043562290;-5.7419;0.3153;-4.7088;
82694053667915;-6.0030;-0.2213;-4.4429;
82694063773488;-7.1746;-0.7340;-4.8263;
82694073881873;-5.5672;-0.9784;-6.5079;
82694083987498;-19.2215;-0.0802;-3.8776;
82694094093123;-29.1126;-0.8465;6.0182;
82694104234269;-13.6041;-0.4944;12.5770;
82694114339894;-3.8327;-0.6574;4.7222;
82694124445467;-8.1805;-2.7269;-8.3620;
82694134511144;-7.5051;-4.7058;-7.6890;
82694144616769;-4.6113;-1.7928;-3.7938;
82694154722342;-6.0532;-0.0826;-5.6121;
82694164830207;-9.9006;1.2206;-6.8121;
82694174935832;-10.0828;5.5421;-3.6356;
82694185041405;-8.6189;4.4091;-1.6140;
82694195147811;-7.6848;0.3488;-7.0277;
82694205253436;-11.2875;0.0924;-7.1282;
82694215359009;-8.9901;0.0900;-2.3471;
82694225474790;-7.2799;0.3392;-1.3744;
82694235580415;-7.7447;-0.2740;-2.6082;
82694245685988;-8.5854;-1.2945;-1.5278;
82694255792863;-10.5377;-0.4274;0.0173;
82694265898488;-7.1842;-0.5638;-0.9168;
82694276004061;-6.5973;-0.2405;-2.1458;
82694286106978;-8.3291;0.5835;-4.9268;
82694296212603;-7.4668;0.0589;-13.9962;
82694306318176;-14.2627;-1.4791;-22.7160;
82694316422498;-14.4066;-0.2955;-6.3595;
82694326528123;-9.0718;0.2387;1.5338;
82694336633696;-6.2330;-0.2166;5.4120;
82694346734269;-7.4931;-0.7795;3.3257;
82694356839894;-11.5893;0.2267;3.1292;
82694366945467;-7.8619;0.9619;3.5052;
82694377064998;-9.8384;2.1909;-3.1902;
82694387170623;-14.3034;0.8207;-6.5821;
82694397276196;-8.9183;0.7705;-1.1348;
82694407370936;-4.8006;0.0565;-5.2143;
82694417476561;-9.5797;-0.6814;-8.7598;
82694427582134;-10.8757;-0.5782;-4.7498;
82694437698123;-9.1292;0.7104;-2.3157;
82694447803748;-7.3349;-0.4083;-2.9052;
82694457909321;-7.2272;0.3488;-2.5361;
82694468014373;-9.7543;0.1953;-2.9626;
82694478119998;-9.5821;0.1427;-1.9445;
82694488225571;-8.8394;0.0063;-3.0296;
82694498323332;-11.4769;-0.4274;-3.4825;
82694508428957;-13.0531;-0.1041;-0.9909;
82694518534530;-6.7098;0.5764;-0.2653;
82694528644790;-6.5731;0.2913;-4.2347;
82694538750415;-9.7567;0.1475;-6.4170;
82694548855988;-9.3808;0.7104;-2.3037;
82694558958540;-8.3411;1.3095;-3.0200;
82694569064113;-8.6429;0.5285;-4.9196;
82694579169738;-8.1948;0.7442;-5.0827;
82694589267498;-13.6472;-0.3266;-4.9173;
82694599373123;-11.6659;-0.4226;-1.7961;
82694609478696;-6.0894;-0.5136;-0.1693;
82694619581040;-9.4645;-0.6957;-1.7432;
82694629686665;-11.2373;-0.6048;-2.8693;
82694639792290;-11.3904;0.2195;-3.4585;
82694649904894;-9.9054;0.3703;-2.4188;
82694660010519;-7.6920;0.1642;-2.8570;
82694670116092;-10.0780;-0.1041;-3.6981;
82694680239061;-10.2933;0.8399;-3.4346;
82694690344634;-8.2430;-0.1137;-4.0214;
82694700450259;-9.6347;-0.4777;-5.9761;
82694710551665;-9.4023;-0.4274;-3.3003;
82694720657290;-5.3396;-0.1615;-3.6718;
82694730762863;-9.8456;0.2171;-5.1999;
82694740861405;-9.7161;-0.1663;-2.1840;
82694750966978;-7.3804;-0.1424;-3.5997;
82694761072603;-10.6074;-0.6670;-4.4548;
82694771184426;-9.6754;-0.2309;-2.6201;
82694781289582;-8.4559;-0.7436;-4.8311;
82694791394738;-9.2178;-0.3580;-4.1554;
82694801496405;-8.2382;-0.8369;-3.2931;
82694811601561;-11.0551;-1.0334;-4.5413;
82694821706717;-8.1470;-0.2142;-3.0894;
82694831794998;-8.7194;-0.4801;-3.4992;
82694841900103;-10.3869;0.7271;-3.2907;
82694852005259;-9.7926;-0.4131;-1.1013;
82694862119165;-5.3874;0.1570;-3.9497;
82694872224269;-9.6682;0.0039;-4.9555;
82694882329426;-12.4469;0.2578;-3.0344;
82694892460363;-11.9513;0.1451;-2.3204;
82694902565519;-8.0943;-0.3485;-0.5025;
82694912670676;-4.9995;-0.8489;-0.6939;
82694922769634;-11.6420;-0.9473;-5.2621;
82694932874790;-9.9437;-0.0488;-2.6895;
82694942979946;-5.2941;0.0517;-4.0478;
82694953077811;-11.3952;-0.1184;-6.2420;
82694963182967;-12.7825;-0.8010;-2.6201;
82694973288123;-6.5348;0.1355;-1.9062;
82694983388436;-7.3564;-0.6311;-2.2295;
82694993493540;-11.8600;-0.0826;-3.1496;
82695003598696;-13.9992;0.2841;-1.2835;
82695013709842;-7.2942;-0.4370;0.4678;
82695023814998;-1.9116;-0.4155;-3.8106;
82695033920155;-8.4535;-0.2285;-8.5442;
82695044034321;-14.0614;0.8351;-2.1817;
82695054139478;-9.7089;1.6902;-1.2691;
82695064244634;-6.1612;-0.7244;-5.9354;
82695074347967;-11.9991;-1.5269;-5.6336;
82695084453123;-8.4272;-0.2740;-1.9540;
82695094558280;-6.5515;0.1068;-2.8044;
82695104656144;-11.1799;1.0436;-4.0023;
82695114761248;-13.5826;0.0135;-0.7540;
82695124866405;-5.6821;0.4854;-0.9479;
82695134976405;-6.3290;-0.0416;-4.1818;
82695145081561;-13.6974;0.6529;-4.4767;
82695155186717;-12.0446;0.7271;0.5324;
82695165297655;-4.2162;-0.5997;-1.4773;
82695175402811;-7.2392;0.2578;-8.3644;
82695185507967;-12.8399;0.2602;-7.1477;
82695195609217;-15.2569;1.4363;-0.8880;
82695205714373;-9.7950;0.0709;2.4823;
82695215819530;-1.9116;-0.5877;0.5827;
82695225927134;-5.5289;-0.5399;-6.0359;
82695236032290;-12.9332;0.4564;-7.5021;
82695246137446;-10.7701;1.0364;-3.7723;
82695256238748;-10.5281;0.4349;-4.2706;
82695266343853;-8.4320;0.2746;-1.1013;
82695276449009;-7.0881;0.5213;-1.7862;
82695286553957;-9.2369;-0.6550;-5.2792;
82695296659061;-12.5524;0.2387;-4.0837;
82695306764217;-6.0607;0.8662;-1.4868;
82695316882238;-5.6629;-0.3508;-3.9855;
82695326987394;-12.3631;0.6721;-4.4910;
82695337092551;-11.9465;0.7247;-3.0320;
82695347197655;-8.7341;0.2291;-0.7349;
82695357302811;-5.5095;-0.0607;-2.7063;
82695367407967;-6.9733;-0.5590;-5.6408;
82695377516405;-13.2855;0.0063;-6.3353;
82695387621561;-16.1695;0.2889;-3.5638;
82695397726717;-5.4497;-0.5566;0.4271;
82695407825519;-2.9919;-0.0176;-0.6365;
82695417930623;-9.4214;-0.2357;-3.3314;
82695428035780;-13.1680;0.9428;-4.4886;
82695438151092;-11.6587;0.1977;-3.1974;
82695448256248;-9.5366;0.5524;-2.8403;
82695458361405;-11.7165;-1.7258;-1.1085;
82695468480051;-16.8165;-0.6550;0.1612;
82695478585207;-1.1306;-1.1701;3.0909;
82695488690363;6.8847;0.3894;-6.9368;
82695498784009;-8.6788;1.3597;-15.0024;
82695508889165;-20.0910;2.0833;-4.0214;
82695518994321;-9.6036;1.8891;-4.5413;
82695529120884;-7.3134;-1.5365;-2.7565;
82695539226040;-9.8671;-0.9640;1.2153;
82695549331196;-11.0097;-1.2802;-2.1864;
82695559410519;-11.9103;-1.2562;-3.7149;
82695569515623;-8.1589;0.2124;1.1674;
82695579620780;-9.0909;-0.1854;-1.7312;
82695589732551;-11.1054;0.3105;-4.6920;
82695599837707;-8.8179;0.2267;-2.5576;
82695609942863;-4.0244;0.8973;-3.5160;
82695620035155;-8.8537;-0.0129;-7.2721;
82695630140311;-12.3488;0.1929;-9.5743;
82695640245467;-15.0676;-0.0009;-6.0335;
82695650415571;-10.4348;0.3344;6.8207;
82695660520728;2.4577;-0.3700;8.1957;
82695670625884;-5.4233;-0.2596;-6.6302;
82695680698280;-14.3587;0.6505;-10.9995;
82695690803488;-8.5496;0.6960;-2.2726;
82695700908592;-6.3191;0.3655;-8.9584;
82695711048592;-9.3401;-1.0956;-10.2018;
82695721153748;-10.5975;-0.2835;-2.3901;
82695731258905;-8.3148;0.4684;-0.4905;
82695741328905;-5.2053;-0.4896;-0.9144;
82695751434061;-7.4836;-0.0583;-3.9951;
82695761539217;-27.8142;0.8901;-0.8665;
82695771656769;-16.1815;0.2243;9.5348;
82695781762394;-1.4635;-1.0190;7.7261;
82695791868071;-12.0350;-2.0492;-6.3018;
82695801952603;-16.4737;-2.7559;-7.2936;
82695812058228;-2.2134;-0.6096;0.3335;
82695822163905;-3.3488;0.0876;-2.7709;
82695832285103;-9.0790;-0.3218;-9.7370;
82695842390728;-14.2531;0.7032;-4.8120;
82695852496405;-10.3101;3.0532;5.4888;
82695862589790;-5.2917;2.4018;0.2737;
82695872695415;-7.3229;1.2135;-7.5093;
82695882801092;-9.3329;0.8088;-4.7498;
82695892902030;-7.0570;-0.0009;-0.4570;
82695903007655;-9.4167;-1.2514;-6.6948;
82695913113332;-11.5750;-0.2333;-2.2271;
82695923238540;-4.6663;-0.1089;-5.8083;
82695933344165;-16.3564;-1.6178;-15.2611;
82695943449842;-11.8816;-2.6934;-0.6748;
82695953532498;-1.9044;-0.5758;3.1627;
82695963638123;-10.3630;-1.0765;-6.5079;
82695973743801;-12.8925;-0.2740;-1.3959;
82695983854790;-8.6381;1.4602;7.8461;
82695993960415;-9.3449;2.1096;3.3377;
82696004066092;-11.1583;1.6304;-3.3697;
82696014164582;-12.6099;1.2135;-3.6861;
82696024270207;-8.7580;-0.0754;2.0393;
82696034375884;-8.6022;0.3392;-0.6221;
82696044483748;-11.5750;-0.0105;-4.7450;
82696054589373;-11.3641;-1.3496;-0.9814;
82696064695051;-8.7556;-0.2740;2.0967;
82696074806665;-9.8551;0.2961;-1.3624;
82696084912290;-11.4649;-1.1701;-2.7159;
82696095017967;-7.5793;-2.1329;-0.0544;
82696105114478;-8.0010;-1.3017;-0.8091;
82696115220103;-10.1402;-1.2467;-1.2114;
82696125325780;-11.2397;0.6697;-1.0223;
82696135433019;-12.0589;0.2841;-1.1611;
82696145538644;-11.0097;0.4038;-0.7564;
82696155644321;-8.0680;-1.1964;-2.5217;
82696165756457;-10.0035;-0.4992;-3.1134;
82696175862082;-9.1555;0.0350;-1.1396;
82696185967759;-9.1220;1.2254;-3.7866;
82696196076353;-10.6959;0.3870;-5.0563;
82696206181978;-8.6237;-0.1424;-2.0450;
82696216287655;-8.4105;1.8820;-3.3936;
82696226390103;-7.4094;0.1211;-4.6442;
82696236495728;-12.5524;-0.7771;-4.2802;
82696246601405;-9.4478;-0.7651;-2.5696;
82696256705623;-2.3405;0.6051;-2.7517;
82696266811248;-7.4859;0.1810;-3.9063;
82696276916926;-14.3922;0.0829;-3.5207;
82696287019113;-12.1355;0.5859;-1.3552;
82696297124738;-8.6453;0.2267;-1.3241;
82696307230415;-7.0187;-0.5255;-3.3099;
82696317338123;-10.5688;-1.4408;-2.9770;
82696327443748;-11.6949;-0.7795;-1.0965;
82696337549426;-9.1101;-0.1783;-2.5265;
82696347661196;-8.9471;-1.0071;-2.7948;
82696357766821;-4.6878;-0.7962;-1.1324;
82696367872498;-10.5018;-0.1376;-4.7112;
82696377987030;-19.2933;-0.2453;-1.1850;
82696388092655;-4.4797;-0.3748;4.4779;
82696398198332;-0.3592;0.3416;-3.0320;
82696408290623;-16.7973;-1.3184;-7.4133;
82696418396248;-17.4870;-0.7866;1.2129;
82696428501926;-5.1742;1.0914;7.3908;
82696438621561;-1.6002;-0.8970;0.8605;
82696448727186;-10.9499;-0.5734;-5.9402;
82696458832863;-16.8404;-0.4657;-4.2275;
82696468934113;-9.4334;0.0924;-0.7804;
82696479039738;-9.4143;-0.9018;-2.8570;
82696489145415;-9.1795;-1.7139;-0.6867;
82696499238436;-8.0273;-0.1807;0.7169;
82696509344061;-13.6878;-0.3170;-2.1601;
82696519449738;-11.0839;0.9882;-0.4448;
82696529543540;-4.3071;-0.9066;3.2441;
82696539649165;-7.0929;0.3894;-1.5709;
82696549754842;-16.0762;0.4134;-8.5729;
82696559869061;-18.4143;1.3190;-0.5360;
82696569974686;-4.6041;1.7883;8.5693;
82696580080363;2.5561;-0.9832;-2.7781;
82696590198644;-11.6228;1.7309;-11.0904;
82696600304269;-15.2354;-0.2357;-0.9742;
82696610409946;-9.5677;1.9107;3.1029;
82696620506040;-1.3845;0.0589;-4.8263;
82696630611665;-15.3718;0.2243;-8.6518;
82696640717290;-17.8920;1.6352;-0.0233;
82696650834946;-5.6366;0.3846;6.5788;
82696660940623;-5.3515;-1.1940;-4.8024;
82696671046301;-12.0302;-0.1161;-5.3055;
82696681143228;-12.6266;-0.8707;2.8609;
82696691248853;-4.1584;-0.5566;0.1038;
82696701354530;-9.2225;1.1489;-6.1893;
82696711494686;-9.0144;1.2709;-4.2634;
82696721600311;-16.5482;1.2206;-2.0354;
82696731705988;-13.0122;-0.5973;0.2450;
82696741787342;-0.9293;0.5333;-3.6981;
82696751892967;-5.7900;-0.9257;-4.4022;
82696761998644;-13.2302;0.8734;-0.7178;
82696772100780;-8.3219;0.4854;1.0499;
82696782206301;-9.9604;0.1810;-2.4476;
82696792311821;-13.5562;0.3918;-5.0611;
82696802415415;-3.4113;0.6051;-1.2401;
82696812520936;-7.5290;0.0781;-4.2323;
82696822626457;-11.3521;0.7319;-5.8851;
82696832725311;-10.0322;-1.2443;-3.0033;
82696842830832;-9.9987;0.2363;-1.8535;
82696852936353;-8.5567;0.1714;-2.5839;
82696863035623;-15.8175;-0.5853;-4.2873;
82696873141144;-11.0456;1.1058;1.1384;
82696883246665;-0.9485;-0.6694;2.5663;
82696893364061;-9.7902;-0.7962;-1.8200;
82696903469582;-14.2220;0.2267;-5.8445;
82696913575103;-12.2387;0.3272;-6.9559;
82696923713748;-9.1101;-0.2859;0.9613;
82696933819269;-6.1851;0.8088;3.0165;
82696943924790;-7.8882;-0.8608;-5.3844;
82696953999269;-13.2398;-0.2333;-5.8995;
82696964104790;-16.3110;0.8183;-0.3562;
82696974210311;-6.0583;-0.7077;2.6022;
82696984313540;0.0167;-1.0262;-1.8679;
82696994419061;-10.3893;-1.8072;-6.6805;
82697004524582;-15.5731;0.3607;-3.4178;
82697014637030;-11.3713;0.6051;-1.1994;
82697024742551;-9.6012;0.8016;-5.9665;
82697034848071;-2.0049;-0.0993;-4.5078;
82697044954269;-8.6596;-0.0392;-3.6523;
82697055059790;-12.6912;0.1140;-3.3984;
82697065165311;-8.6836;0.9188;0.0748;
82697075270519;-10.2335;1.4243;-3.6814;
82697085376040;-10.6050;0.1953;-3.4585;
82697095481561;-5.1048;0.0398;1.2009;
82697105587082;-7.5003;0.8877;-2.9483;
82697115692603;-13.9370;0.5572;-5.8059;
82697125798123;-12.3847;-0.2548;0.0054;
82697135895363;-11.1078;-0.8560;0.7217;
82697146000884;-8.8848;0.8351;-3.8345;
82697156106405;-4.6448;-0.1711;-0.3682;
82697166227915;-9.0383;-0.2740;1.4429;
82697176333436;-10.9953;1.3765;-2.3061;
82697186438957;-11.8385;1.5897;-4.3448;
82697196536144;-12.1283;0.6338;-1.0104;
82697206641665;-7.4883;1.1345;3.9413;
82697216747186;-8.1111;0.8566;3.7424;
82697226867863;-12.1810;0.5931;-2.1099;
82697236973384;-9.2297;0.7992;-3.5686;
82697247078905;-5.6988;-0.0320;-3.3075;
82697257177707;-11.0432;-0.2979;-3.6212;
82697267283228;-15.3455;0.9117;0.6882;
82697277388748;-7.0857;0.2028;5.7284;
82697287482915;-5.8259;-0.3628;-0.9096;
82697297588436;-10.2455;-0.7914;-8.2014;
82697307693957;-10.5832;-0.6502;-3.6428;
82697317803696;-14.8472;2.0518;0.1086;
82697327909217;-10.4898;-0.5183;0.4080;
82697338014738;-4.5754;-0.2166;0.3840;
82697348130936;-7.6705;-0.2859;-1.9564;
82697358236457;-13.7309;0.1810;-2.4619;
82697368341978;-11.3282;0.7199;-1.3074;
82697378445363;-9.5076;-0.1783;-2.6776;
82697388550884;-8.6429;0.8040;-2.6465;
82697398656405;-9.3497;-0.5590;-3.7651;
82697408753228;-7.3229;0.2985;-4.3639;
82697418858748;-11.2349;0.8662;-2.5504;
82697428964269;-11.6782;0.5357;-2.0354;
82697439075363;-7.6582;-0.7962;-1.0822;
82697449180884;-4.8317;0.4588;-4.6107;
82697459286405;-11.0958;-0.7412;-7.5236;
82697469384686;-17.6548;0.5166;-1.6714;
82697479490207;-7.9460;0.7585;0.7504;
82697489595728;1.0086;-0.2453;-5.8756;
82697499693540;-10.7198;-1.1749;-6.2348;
82697509799061;-17.3578;0.4807;-3.1086;
82697519904582;-7.9843;0.8303;0.1205;
82697530001978;-5.5648;-0.2333;-3.0440;
82697540107498;-12.0852;-0.0682;-5.3031;
82697550213019;-10.3101;0.6529;-3.9302;
82697560349061;-7.1267;-0.6957;-1.6020;
82697570454530;-9.2465;0.5046;-3.7795;
82697580560103;-10.4516;1.2517;-4.0765;
82697590644686;-10.9881;-0.3508;-0.1669;
82697600750207;-2.9369;0.9093;-2.2271;
82697610855728;-8.7461;-0.3027;-7.5500;
82697621001092;-16.1360;1.2063;-5.7461;
82697631106613;-12.7295;1.2159;4.1115;
82697641212134;-5.3085;0.6960;4.1713;
82697651299842;-8.0847;1.0244;-7.3702;
82697661405363;-13.3286;0.2363;-3.8943;
82697671510832;-10.9116;-0.2500;5.9653;
82697681623332;-6.7457;-0.1041;1.3229;
82697691728853;-9.9150;0.6003;-7.0564;
82697701834373;-13.2398;-0.3939;-1.9181;
82697711926196;-6.0102;-0.0488;1.3110;
82697722031717;-9.8910;0.1187;-3.9039;
82697732137238;-8.6142;-0.6790;-1.5156;
82697742236144;-8.7915;-0.9473;1.1216;
82697752341665;-12.6194;-0.4920;-2.2008;
82697762447186;-12.2578;-0.7771;-1.7480;
82697772569686;-10.6023;-1.2634;1.1169;
82697782675363;-5.2196;-1.6804;3.2249;
82697792781092;-6.7648;-1.4456;-1.2520;
82697802876248;-13.0388;-0.8970;-4.1578;
82697812981926;-10.5688;-0.8922;-0.1621;
82697823087655;-10.5688;-1.7976;-1.7384;
82697833191457;-10.2407;-1.3759;-3.2788;
82697843297134;-7.8404;-1.2275;-1.5108;
82697853402863;-9.6132;-1.0573;-1.4414;
82697863505363;-11.1197;-1.3304;-2.8932;
82697873611040;-7.8763;-0.1041;-2.0521;
82697883716769;-6.5085;-0.8130;-1.7671;
82697893819478;-10.5114;0.0230;-3.8393;
82697903925155;-12.7705;1.1608;-1.4940;
82697914030884;-8.4754;-0.5518;-1.4127;
82697924155311;-7.6247;0.6314;-2.4858;
82697934260988;-9.0622;0.6075;-2.0258;
82697944366717;-12.0039;0.2148;-3.2261;
82697954461873;-12.1331;0.3823;-2.8164;
82697964567551;-5.5337;0.1499;-2.7685;
82697974673280;-8.9136;-0.0607;-4.1172;
82697984777030;-12.4445;0.5309;-2.5002;
82697994882707;-7.4501;0.2626;-1.8009;
82698004988436;-5.2941;-0.6239;-2.6728;
82698015098280;-9.3688;-0.1926;-6.3667;
82698025203957;-15.0437;-0.4920;-4.6131;
82698035309686;-8.7123;-0.1663;0.1373;
82698045412446;-3.4352;-0.1519;-3.1854;
82698055518123;-8.6381;-0.0057;-6.3643;
82698065623853;-14.9839;-0.9640;-2.2750;
82698075724165;-11.9151;-0.3413;-0.0640;
82698085829842;-2.5415;0.2626;-1.9181;
82698095935571;-9.2321;-0.5830;-6.8865;
82698106044269;-14.7562;-0.7507;-3.6045;
82698116149946;-4.7599;0.4181;1.3158;
82698126255676;-3.8830;-0.0511;-4.3759;
82698136353019;-16.6463;0.5931;-9.9814;
82698146458696;-15.8031;0.2985;-2.2032;
82698156564426;-0.2396;0.6051;3.7161;
82698166678332;-4.3214;0.6888;-4.2754;
82698176784009;-15.2474;-0.4322;-7.7130;
82698186889738;-17.0222;0.7271;-0.6748;
82698197000519;-8.4993;-0.4083;5.6085;
82698207106196;1.7225;-0.2979;-1.2185;
82698217211926;-12.5955;0.2219;-8.7165;
82698227321978;-14.8232;-0.7795;-2.3877;
82698237427655;-8.6788;0.4349;3.2608;
82698247533384;-9.5366;0.5309;-4.3424;
82698257632186;-10.8682;-0.6072;-7.2362;
82698267737863;-7.2416;-1.1486;0.2569;
82698277843592;-6.6858;0.2291;-0.0138;
82698287955103;-14.7371;0.2770;-4.7856;
82698298060780;-14.7969;0.1187;0.1493;
82698308166509;-5.2412;-0.2022;4.4779;
82698318265936;-1.3893;-0.6526;-6.0864;
82698328371613;-11.8265;-0.9568;-12.8560;
82698338477342;-12.1738;-1.2730;-0.7995;
82698348586769;-5.5911;0.6147;4.2479;
82698358692446;-9.5342;0.3176;-4.8383;
82698368798176;-10.6385;-0.3437;-7.6122;
82698378905311;-10.1354;-0.8850;-3.1253;
82698389010988;-12.6745;0.4588;0.8605;
82698399116717;-8.1565;0.1738;0.5061;
82698409269894;-8.6070;-0.2524;-2.5792;
82698419375571;-6.2115;-0.6790;-3.4633;
82698429481301;-8.9375;-0.3266;-4.4596;
82698439528644;-15.4029;0.7609;-2.6441;
82698449634321;-15.3191;1.3980;2.0847;
82698459740051;-9.9485;1.2637;2.3483;
82698469846144;-4.3238;-0.4561;-2.8860;
82698479951821;-5.3515;-0.7603;-8.6088;
82698490057551;-10.6122;-1.0262;-5.8035;
82698500164113;-11.4601;1.0002;1.4213;
82698510269790;-5.7203;1.0723;3.2800;
82698520375519;-2.4888;0.8901;-4.1770;
82698530497603;-4.7934;0.1570;-9.1238;
82698540603280;-4.8724;0.9093;-8.3453;
82698550709009;6.7074;1.1776;-7.6361;
82698560810571;-13.7644;0.0494;-8.9991;
82698570916301;-77.8921;-2.4781;15.0156;
82698581022030;-14.3321;4.9911;40.5135;
82698591122603;44.3958;-0.0176;-7.4183;
82698601228280;-1.8015;-13.2147;-11.3133;
82698611334009;-29.7856;-5.4123;-5.5690;
82698621454269;-12.4660;2.4233;5.3091;
82698631559946;3.2076;3.4295;-2.1027;
82698641665676;-6.4654;1.7788;-22.5817;
82698651768540;-17.5493;-1.2610;-11.4667;
82698661874217;-2.9082;0.5859;8.5621;
82698671979946;-5.3133;4.0427;-0.8450;
82698682065988;-16.5793;0.5213;-10.8197;
82698692171665;-7.6176;0.0182;1.4859;
82698702277394;-4.5371;1.7261;2.3291;
82698712397811;-15.4125;1.0555;-2.6297;
82698722503488;-17.7075;-1.3519;4.5616;
82698732609217;-2.8627;-0.6120;9.1729;
82698742697446;5.9384;-0.7938;10.8763;
82698752803123;7.6513;-3.3547;-24.2441;
82698762908853;-46.6020;-5.0985;-65.9737;
82698773029582;-32.2576;-4.1548;-7.5858;
82698783135259;18.5749;-0.2524;45.7259;
82698793240884;9.1819;1.0412;3.2321;
82698803341353;-13.7716;1.2159;-24.0694;
82698813447030;-23.0830;3.9900;-0.2486;
82698823552655;-6.5997;4.9911;24.7367;
82698833653280;-1.4611;5.2235;-3.3505;
82698843758957;-18.6515;0.9212;-25.4157;
82698853864582;-12.4660;-2.3533;4.1545;
82698863978436;7.7064;1.1106;10.1288;
82698874084113;-13.2565;2.6988;-23.5735;
82698884189738;-24.1849;-0.8656;-9.1502;
82698894283540;-2.7308;-1.6851;17.1428;
82698904389217;-7.4405;-0.7962;-3.7866;
82698914494842;-15.1923;-0.0655;-13.4692;
82698924628436;-1.5523;-1.0478;3.6084;
82698934734113;-3.6508;-0.5064;-0.2486;
82698944839738;-13.1106;0.5716;-7.5763;
82698954929946;-11.1440;1.1680;-0.7325;
82698965035623;-8.6309;-0.5542;1.7327;
82698975141248;-14.6414;0.1834;-3.7053;
82698985241561;-9.4645;-0.9353;0.6667;
82698995347238;-0.6945;-0.2285;0.0942;
82699005452863;-12.4732;0.6218;-8.7188;
82699015552603;-17.0079;-0.1256;-3.8489;
82699025658280;-10.6217;-2.4781;4.8012;
82699035763905;-7.8619;-4.3561;2.1541;
82699045875363;-6.2569;-3.8459;-7.6122;
82699055981040;-8.8825;-3.6637;-6.9057;
82699066086665;-2.9656;-2.7607;0.9470;
82699076185415;-4.8174;-2.9210;-6.8145;
82699086291092;-14.1670;-2.6815;-14.2884;
82699096396717;-14.1000;-2.4467;-1.2401;
82699106506978;-8.6022;-0.7412;5.3139;
82699116612655;-6.2234;-0.2955;0.5563;
82699126718280;-11.3833;-0.9784;-1.2906;
82699136824686;-10.2909;-0.5183;-0.2390;
82699146930363;-9.8743;-1.3089;-2.5911;
82699157035988;-14.0758;-2.2744;-5.7532;
82699167139894;-11.2014;-0.9090;-3.9182;
82699177245571;-2.8747;1.6735;-0.4881;
82699187351196;1.7177;0.6434;-5.0133;
82699197450051;-14.1407;0.4926;-12.9302;
82699207555728;-24.2423;1.5873;-4.4189;
82699217661353;-10.1402;2.0761;7.9370;
82699227778019;-4.2544;1.0077;1.1001;
82699237883696;-1.1833;2.0686;-6.5844;
82699247989321;-9.0096;4.1886;-1.9828;
82699258094269;-19.0968;4.6702;2.1230;
82699268199946;-5.6270;3.0628;2.2430;
82699278305571;-1.8565;3.2545;-5.7748;
82699288405519;-15.8533;2.1814;-10.4510;
82699298511196;-10.2000;2.0040;-2.5648;
82699308616821;-5.1957;1.1369;1.3014;
82699318724373;-16.1934;0.5429;-1.5179;
82699328830051;-17.9088;1.9537;1.2440;
82699338935676;-3.3751;0.5477;5.8289;
82699349045936;-8.2932;-0.3075;-2.2128;
82699359151613;-19.2168;-1.1868;-4.3735;
82699369257238;-9.4119;-0.9520;9.9443;
82699379354582;2.1846;2.6366;7.3382;
82699389460259;-4.1130;1.4195;-14.0058;
82699399565884;-14.2340;-1.3783;-19.7456;
82699409674738;-5.6294;-0.7244;-4.5532;
82699419780415;-12.5859;-0.3652;7.2805;
82699429886092;-16.1982;1.4937;7.3956;
82699439989530;-7.8308;0.4421;4.4492;
82699450095207;-5.4425;-1.9822;-7.2529;
82699460200832;-11.9991;-0.6670;-8.6423;
82699470347186;-7.6415;-3.2324;3.9173;
82699480452863;-10.3101;-2.4251;1.4859;
82699490558488;-18.9365;0.1953;-4.9651;
82699500621926;-1.6672;-2.0228;1.8763;
82699510727551;2.3644;-0.5136;-6.4361;
82699520833280;-24.3933;0.4205;-14.6213;
82699530946248;-20.3187;-1.0669;1.9337;
82699541051926;-4.9537;-1.1509;11.9997;
82699551157551;-5.3133;-2.0683;-7.1067;
82699561244790;-14.7347;1.9896;-8.9178;
82699571350415;-9.9796;-2.0492;6.5477;
82699581456092;-1.3247;0.5189;4.8538;
82699591599686;-6.6715;2.7467;-9.2076;
82699601705363;-20.5893;1.4961;-5.2478;
82699611810988;-5.1861;1.6280;6.3511;
82699621893332;-2.1775;1.4937;-9.0568;
82699631999009;-16.1049;1.4004;-13.6370;
82699642104634;-15.4415;0.0757;3.3784;
82699652229582;-0.9317;-0.5303;4.7892;
82699662335259;0.0550;-2.0683;-11.5720;
82699672440884;-7.4979;1.8748;-8.8986;
82699682528019;-14.9504;1.6208;-6.6470;
82699692633696;-12.2219;1.2087;-5.7820;
82699702739321;-7.7853;2.6605;4.0322;
82699712849061;-8.1517;0.5285;2.4488;
82699722954738;-8.0943;0.6577;-6.5079;
82699733060363;-5.8020;1.9107;-14.5400;
82699743163957;-18.2178;-0.5758;-9.0927;
82699753269634;-15.2378;1.8126;9.0054;
82699763375259;-2.7835;-0.0754;9.7481;
82699773486561;-7.5362;1.1608;-9.1932;
82699783592186;-6.9398;2.3803;-4.8622;
82699793697811;-5.3324;1.3789;-2.3901;
82699803799113;-19.9304;0.6482;-8.6997;
82699813904738;-16.9816;2.2531;1.3229;
82699824010363;-4.3956;-0.5853;4.0753;
82699834116144;-1.9738;-0.1184;-11.1168;
82699844221769;3.3275;-1.7306;-13.6729;
82699854327394;-10.4324;-3.9488;-1.9780;
82699864428019;-32.6602;-1.2921;12.8524;
82699874533644;-16.2990;6.1531;15.5234;
82699884639269;0.7331;0.9739;0.0078;
82699894749269;2.5418;-4.6196;-24.0144;
82699904854894;-1.7991;0.1977;-21.7050;
82699914960519;-6.2761;-2.5044;-7.4471;
82699925055207;-21.3488;-1.6561;13.2957;
82699935160832;-22.1007;4.3373;7.4124;
82699945266457;-7.0020;1.7931;-0.4543;
82699955385519;-5.8283;-3.0553;-4.4839;
82699965491144;-3.8782;-2.5140;-6.4792;
82699975596769;-3.4831;-1.1940;-3.9592;
82699985700936;-12.4277;-0.8393;-1.4533;
82699995806561;-23.1428;1.5224;-3.0535;
82700005912186;-8.5926;0.5357;-1.3241;
82700016022707;-2.9536;-1.1557;-2.3157;
82700026128332;-13.0122;-1.0190;2.8992;
82700036233957;-5.1239;0.7537;11.2307;
82700046341561;-4.8413;0.7585;-6.3763;
82700056447186;-19.3651;-2.2504;-23.7915;
82700066552811;-17.5950;-1.5221;-1.8535;
82700076655415;-3.4615;1.4267;13.2861;
82700086761040;0.2492;1.0627;1.0762;
82700096866665;-11.7356;-0.9592;-0.4208;
82700106977446;-10.4181;1.7405;4.0561;
82700117083071;-6.3000;0.2459;-9.7609;
82700127188696;-18.5339;-1.0382;-13.9005;
82700137292030;-11.0647;-0.8827;4.9235;
82700147397655;0.1128;1.8413;4.3579;
82700157503280;-9.7137;0.8542;-5.0635;
82700167610311;-17.6644;-0.5088;2.8250;
82700177715936;-5.6031;0.5309;7.2565;
82700187821561;-5.1981;0.5381;-7.1426;
82700197925728;-13.9226;0.7968;-13.4859;
82700208031353;-12.9404;1.1895;4.1067;
82700218136978;-3.8040;0.2411;8.5980;
82700228241561;-11.5223;1.3358;-6.6900;
82700238347186;-16.7300;0.9787;-4.2419;
82700248452811;-13.1201;0.5931;6.2842;
82700258556978;-9.5390;-1.0525;3.6873;
82700268662603;-4.2520;0.4854;-4.9795;
82700278768228;-9.2034;1.0962;-6.4146;
82700288868540;-7.9723;1.2206;1.4668;
82700298974165;-3.3176;-1.7210;-1.4318;
82700309079790;-18.2824;-0.9760;-10.8556;
82700319178228;-18.1603;0.0757;0.8270;
82700329283853;-1.1761;-1.9316;6.6912;
82700339389478;-5.8164;-2.1688;-5.4012;
82700349503019;-11.0815;0.7343;-5.2167;
82700359608644;-6.3314;-1.4097;0.8198;
82700369714269;-4.5060;-1.5054;-6.8671;
82700379827446;-17.7841;-0.1854;-9.6102;
82700389933071;-13.6639;-0.5662;2.4583;
82700400038696;-3.3873;0.3870;6.2483;
82700410121092;-11.0408;-0.4992;-4.5461;
82700420226717;-16.0259;0.9188;-10.0890;
82700430332342;-5.7036;-1.0310;3.7831;
82700440464686;4.8341;-2.0300;0.8366;
82700450570311;-14.3130;-0.3939;-16.7581;
82700460675936;-24.1825;2.4927;-8.5011;
82700470740936;-6.7289;0.8495;9.3407;
82700480846561;-0.1172;-2.5092;0.4917;
82700490952186;-12.3464;0.9452;-7.9980;
82700501096873;-13.1178;1.2541;0.3864;
82700511202498;-10.2766;-0.5279;2.0177;
82700521308123;-4.5036;0.2195;-6.5127;
82700531436665;-7.6825;-0.1089;-6.3595;
82700541542290;-13.4267;-1.0669;-0.5073;
82700551647915;-7.9962;-0.9808;2.9542;
82700561718228;-11.3521;-1.8072;-2.4667;
82700571823853;-14.9360;0.0422;-0.8593;
82700581929478;-3.5405;-1.5030;2.2140;
82700592036873;-3.6242;-0.3580;-6.5844;
82700602142498;-14.7921;0.5046;-7.3534;
82700612248123;-9.4119;0.0206;-3.7723;
82700622373332;-7.0881;0.2483;-4.5676;
82700632478957;-11.3928;-1.0741;-0.5408;
82700642584582;-11.6949;-1.7354;6.5572;
82700652672915;-9.2731;0.0733;5.1727;
82700662778540;-9.7591;1.0651;-4.5628;
82700672884165;-13.1441;0.9093;-8.6351;
82700682995207;-6.9039;-0.1424;-1.4916;
82700693100832;-4.1369;-0.7723;0.0652;
82700703206457;-13.7548;-0.8874;-2.5816;
82700713315780;-13.4722;-0.2213;-0.4017;
82700723421405;-10.4994;-0.3867;2.2116;
82700733527030;-5.4664;-0.4848;0.4319;
82700743641873;-11.5558;0.1642;-3.5495;
82700753747498;-12.6529;-0.1280;-2.3997;
82700763853123;-4.5371;-1.0836;-0.4786;
82700773948957;-11.1126;-0.6096;-5.8875;
82700784054634;-23.0231;1.4435;-4.7737;
82700794160311;-8.2430;-1.8622;9.6473;
82700804250936;5.1864;-1.8885;4.8873;
82700814356613;-11.5702;2.7179;-11.9746;
82700824462290;-18.2225;0.7271;-5.8083;
82700834574894;-8.0656;-2.1712;7.5416;
82700844680571;-0.6203;0.5429;-1.3122;
82700854786248;-9.4717;1.3884;-15.7905;
82700864887811;-15.8318;0.2363;-6.5222;
82700874993488;-7.8715;-1.4671;6.2483;
82700885099165;-7.0905;-1.6585;-0.1119;
82700895205780;-12.2650;1.5176;-7.3128;
82700905311457;-12.3703;0.0470;1.3110;
82700915417134;-4.6783;-1.0334;2.0991;
82700925543123;-3.0039;0.2889;-5.0085;
82700935648801;-15.5181;1.2470;-5.3270;
82700945754478;-20.9605;1.1752;-0.7445;
82700955854998;-5.5481;-1.6202;3.3233;
82700965960676;-2.0698;-1.0741;-3.0727;
82700976066353;-10.1856;0.9715;-6.2300;
82700986168280;-10.5257;0.5740;0.1564;
82700996273957;-7.8715;0.0805;-2.6919;
82701006379634;-13.4674;-0.3796;-7.3391;
82701016478748;-14.2603;0.2674;-0.5360;
82701026584426;-7.0929;0.6027;4.8730;
82701036690051;-5.0689;-0.8465;-2.7733;
82701046797186;-5.4808;-0.1256;-7.1450;
82701056902863;-14.1718;-0.6479;-1.6211;
82701067008540;-16.7830;1.0340;6.6410;
82701077114478;-5.4927;0.0852;7.4770;
82701087220155;-5.4162;0.4014;-7.9549;
82701097325832;-13.9657;-0.6048;-8.3668;
82701107431248;-10.2790;-1.2060;-0.0305;
82701117536926;-3.3897;-0.8321;-1.2520;
82701127642603;-7.4955;-0.0081;-5.8756;
82701137762394;-12.7801;-1.2610;-2.7589;
82701147868071;-14.1909;-0.9903;1.8691;
82701157973748;-8.3794;-1.9487;1.4931;
82701168063644;-8.1446;-1.1052;-5.0946;
82701178169321;-10.6385;-0.0153;-4.9771;
82701188274998;-10.4683;-1.1821;1.5482;
82701198386561;-10.8467;-3.0194;3.2297;
82701208492238;-6.8127;-1.3232;-1.3887;
82701218597915;-5.8020;1.2302;-3.6356;
82701228702394;-15.7481;-1.0119;-3.6141;
82701238808071;-14.2053;-1.9654;-2.1529;
82701248913748;-8.0082;-0.3218;-0.5384;
82701259019478;-3.3802;-0.3461;-0.6054;
82701269125155;-10.7486;-0.3628;-0.5336;
82701279230832;-13.8027;-0.1974;-0.4810;
82701289346873;-12.3823;-1.0789;-3.6212;
82701299452551;-7.4524;0.2865;-4.9723;
82701309558228;-12.1283;-0.0993;-0.4977;
82701319641873;-8.6788;-2.2217;0.6428;
82701329747498;-6.9613;0.4349;-4.7880;
82701339853228;-9.5653;1.1560;-3.1496;
82701349954998;-9.5940;-0.8441;1.4285;
82701360060676;-5.2436;1.0364;-1.0582;
82701370166353;-9.2584;0.5189;-6.2850;
82701380294790;-16.3014;-0.8608;-4.5700;
82701390400467;-6.9805;0.6553;-2.2726;
82701400506144;-11.4194;0.2530;-2.2534;
82701410609373;-14.5238;-1.2203;-0.5001;
82701420714998;-5.1311;1.0986;-0.1789;
82701430820676;-0.0191;1.0412;-1.2978;
82701440932498;-13.0196;-0.3508;-3.6838;
82701451038176;-15.7816;0.4878;-1.9134;
82701461143853;-8.3387;1.2422;-1.8464;
82701471241509;-6.4750;0.4014;-5.0276;
82701481347238;-11.5487;-0.8369;-5.1209;
82701491452915;-8.8418;0.6840;-1.0032;
82701501574426;-5.2173;-0.7149;-2.0907;
82701511680103;-8.7461;0.3990;-7.3989;
82701521785780;-14.8711;-0.3748;-4.4213;
82701531884009;-10.7797;1.0196;3.3760;
82701541989686;-5.2436;0.0733;0.0078;
82701552095363;-9.4071;0.2459;-5.0348;
82701562186769;-13.1919;-0.0754;-0.5432;
82701572292446;-9.7065;-0.0033;1.8978;
82701582398123;-4.0699;0.0900;-0.7756;
82701592507811;-9.5342;-0.1998;-4.3974;
82701602613488;-11.3402;0.6362;-1.7049;
82701612719165;-9.7687;0.3416;-1.9540;
82701622820415;-9.3616;-0.2572;-3.1496;
82701632926092;-7.2320;-0.1113;-5.1185;
82701643031769;-15.5444;-0.6239;-4.3591;
82701653132811;-13.9561;-1.1148;2.5448;
82701663238488;-5.5792;0.3966;4.3268;
82701673344165;-7.0618;0.4660;0.9709;
82701683453436;-13.7692;-0.5088;-1.7503;
82701693559113;-14.2292;-0.3003;-2.2152;
82701703664790;-10.2622;-0.8584;0.6018;
82701713773540;-5.5840;-0.0344;0.2976;
82701723879217;-8.6764;-0.8130;-3.5710;
82701733984894;-11.5893;-0.8321;-1.9588;
82701744094530;-8.9542;0.0757;-0.3873;
82701754200207;-7.2344;0.1020;-3.8130;
82701764305884;-7.9914;-0.3290;-3.7460;
82701774412707;-9.7615;-0.3580;-2.9004;
82701784518384;-11.7356;0.1211;-2.6991;
82701794624061;-10.0466;-0.4585;-0.8785;
82701804721457;-7.2966;-0.5782;-0.5097;
82701814827134;-10.8275;-0.1161;-2.9483;
82701824932811;-11.1918;-0.3123;-0.1959;
82701835031561;-6.9589;-0.9616;1.5745;
82701845137238;-5.9384;0.3607;-1.5060;
82701855242915;-11.2086;-0.7436;-3.6165;
82701865351613;-12.9021;0.3057;-4.1865;
82701875457290;-8.4248;-0.1783;-2.1529;
82701885562967;-6.8632;-0.0009;-3.4131;
82701895673853;-10.8586;-0.9329;-5.0420;
82701905779530;-13.1560;-0.7531;-4.4767;
82701915885207;-8.1661;0.2124;-0.7373;
82701926020728;-5.4018;-0.2429;-1.3744;
82701936126405;-12.9452;-0.9281;-2.7422;
82701946232082;-10.6624;0.5094;-1.4462;
82701956322394;-8.6524;0.4110;-0.7155;
82701966428071;-10.0466;-0.7053;-0.9120;
82701976533748;-10.5951;0.5764;-1.1133;
82701986640623;-9.8743;0.1116;-0.8880;
82701996746301;-7.7375;-0.1663;-1.9134;
82702006851978;-8.5950;0.1499;-2.6369;
82702016945936;-9.9221;0.0948;-2.3037;
82702027051613;-10.7127;0.3607;-2.2223;
82702037157290;-8.2286;0.8327;-2.2175;
82702047258436;-8.7413;-0.4250;-1.8727;
82702057364113;-9.6036;0.7032;-2.4619;
82702067469790;-10.2359;0.1810;-1.5565;
82702077575311;-8.4488;0.3942;-1.4821;
82702087680988;-9.5940;0.4998;-1.3217;
82702097786665;-12.6817;0.5812;-1.3648;
82702107893957;-10.9810;0.1881;-0.5743;
82702117999634;-6.9111;0.3583;-0.1071;
82702128105311;-8.0560;-0.6550;-2.0378;
82702138215207;-13.1130;-0.4418;-2.1577;
82702148320884;-7.1483;-0.6239;-1.7408;
82702158426561;-6.4056;0.1283;-3.7531;
82702168530207;-11.5654;-0.6455;-4.5150;
82702178635884;-8.5615;-1.0884;-1.8775;
82702188741561;-5.9480;-0.6144;-1.7886;
82702198844686;-11.2205;-0.1878;-4.2156;
82702208950363;-14.6653;-0.5806;-1.9923;
82702219056040;-10.4563;-0.7053;1.3899;
82702229183019;-4.7623;-0.0706;-0.1549;
82702239288696;-7.8021;-0.5949;-2.4500;
82702249394373;-16.7204;-0.7699;-2.3638;
82702259480519;-12.0709;-1.3591;1.1456;
82702269586196;-5.0139;-0.4394;1.4477;
82702279691873;-7.8547;0.0302;-1.7815;
82702289792498;-12.1762;-0.2046;-2.9554;
82702299898176;-12.1283;-1.1892;-1.8224;
82702310003853;-7.5027;-0.6431;-2.1362;
82702320110936;-6.5611;0.1451;-3.8752;
82702330216613;-12.3081;-1.5891;-4.2203;
82702340322290;-13.6256;-0.8489;-1.2568;
82702350422811;-8.3961;-0.1878;0.9159;
82702360528488;-5.0737;0.8997;-2.9698;
82702370634165;-7.9484;-0.5495;-3.2740;
82702380753592;-9.4573;-1.3807;-3.7938;
82702390859269;-9.5988;0.1810;-3.0224;
82702400964998;-10.7964;-0.5997;-1.3481;
82702411059061;-10.3606;0.3894;-1.7408;
82702421164686;-9.9365;0.7944;-0.1071;
82702431270415;-8.7218;-0.4968;-0.2653;
82702441375519;-7.3205;0.1499;-1.7480;
82702451481196;-9.5172;-0.4035;-1.5227;
82702461586873;-12.9500;-1.5939;-1.7575;
82702471686509;-10.2072;0.9284;-2.5361;
82702481792238;-9.8360;-0.1280;-2.7278;
82702491897915;-8.6548;0.3368;-2.4476;
82702502035623;-6.8557;-0.4155;-1.8966;
82702512141301;-9.7328;-0.7244;-2.3228;
82702522246978;-12.6242;0.7152;-2.4954;
82702532367082;-11.5558;0.2865;-1.9158;
82702542472759;-8.4897;0.1570;-2.1314;
82702552578436;-9.9006;0.1642;-1.0726;
82702562651457;-11.0073;-0.4490;-1.1563;
82702572757134;-8.6620;0.0781;-1.2544;
82702582862811;-9.9891;-0.3266;-1.3217;
82702592967394;-9.1843;0.4493;-0.6508;
82702603073071;-7.8141;0.1594;-2.4284;
82702613178748;-7.6319;0.0733;-4.2443;
82702623290207;-8.4778;-0.8034;-5.1305;
82702633395884;-11.5319;0.4950;-4.1626;
82702643501561;-8.6142;0.1929;0.1421;
82702653604269;-5.2654;1.1704;-0.0185;
82702663709946;-8.2621;-0.0416;-2.0883;
82702673815623;-12.6960;0.2650;-2.5528;
82702683925988;-11.9175;0.2028;-1.0845;
82702694031665;-9.1531;-1.0047;-1.5422;
82702704137342;-11.4290;0.4038;-1.5685;
82702714235728;-13.4219;-0.7627;1.0929;
82702724341405;-11.7691;0.8016;0.3431;
82702734447082;-7.6848;-0.0416;1.2751;
82702744572811;-9.6395;-0.5614;-0.6604;
82702754678488;-10.8610;0.2985;-1.6379;
82702764784165;-8.9542;-0.3963;-2.7494;
82702774886665;-6.4606;-0.7938;-3.5518;
82702784992446;-6.5901;-0.4394;-4.4477;
82702795098228;-8.0991;-0.1663;-3.8082;
82702805189373;-9.2130;0.2291;-4.9029;
82702815295155;-11.2205;-0.5160;-6.6517;
82702825400936;-9.7543;-0.2859;-2.1912;
82702835508801;-8.6429;-0.7149;0.5898;
82702845614582;-9.3808;0.1738;-0.6724;
82702855720363;-10.0466;-1.0382;0.3745;
82702865819061;-11.9270;-0.5710;-0.0664;
82702875924790;-12.1475;-0.8755;0.8701;
82702886030571;-5.7156;0.3176;1.2535;
82702896143436;-8.0345;-0.7866;-0.8904;
82702906249165;-9.9748;-0.2118;-2.6417;
82702916354998;-8.5113;-0.5231;-2.1864;
82702926451457;-9.3329;-0.2740;-3.4825;
82702936557238;-8.9853;0.3775;-3.9999;
82702946663019;-10.1306;-0.1854;-2.9052;
82702956774998;-10.8084;-0.0440;-2.6776;
82702966880780;-8.2789;-0.5901;-1.8966;
82702976986561;-11.4000;-0.1519;-0.6197;
82702987097030;-10.8586;-0.7029;0.3553;
82702997202811;-7.3014;0.5285;-1.3241;
82703007308540;-10.5329;-1.5820;-1.1300;
82703017410415;-12.2124;0.3224;-3.1110;
82703027516196;-11.6157;-0.6335;-2.3949;
82703037621978;-8.2286;-0.5638;-1.2787;
82703047733123;-8.3530;-0.5112;-1.5251;
82703057838905;-12.7466;-0.0849;-2.1170;
82703067944686;-10.8829;0.3799;-0.5886;
82703078045519;-9.9867;-0.2572;1.8882;
82703088151301;-7.3998;0.1379;2.8872;
82703098257082;-7.6487;0.4253;0.3263;
82703108361248;-11.3809;-0.0849;-0.3371;
82703118467030;-11.5678;0.0637;-1.2090;
82703128572811;-8.8657;-0.6694;-0.9072;
82703138686769;-9.0311;-0.1376;-2.5504;
82703148792551;-9.9485;-1.1725;-2.3180;
82703158898332;-8.6501;-0.8512;-2.4045;
82703169004061;-6.5925;-0.9879;-2.6847;
82703179109790;-12.2889;0.0829;-3.9927;
82703189215571;-12.8566;-0.3628;-2.3518;
82703199321353;-8.0847;0.6123;0.0485;
82703209419582;-6.9517;-0.3389;0.5779;
82703219525363;-12.6625;0.7343;-0.9168;
82703229631144;-10.1330;-0.0416;-0.3108;
82703239721196;-8.5711;1.1177;0.1947;
82703249827030;-10.6816;0.7609;-1.0128;
82703259932759;-8.1398;0.5094;-2.4021;
82703270040623;-7.5960;-0.1687;-2.2869;
82703280146405;-12.8973;0.1810;-3.6595;
82703290252186;-10.5568;-0.1448;-2.1266;
82703300425415;-4.3717;-0.2357;-0.8426;
82703310531196;-12.5237;1.2685;-3.6838;
82703320636978;-9.4047;-0.7914;-0.7083;
82703330686665;-7.6729;-0.0655;-0.3586;
82703340792394;-15.6808;-0.4394;0.5994;
82703350898176;-9.0766;0.7561;0.1851;
82703361060311;-7.2751;-0.3628;0.2163;
82703371166040;-9.8288;0.1977;-0.8115;
82703381271821;-11.3641;-0.7699;-0.7373;
82703391318696;-9.6084;-0.0583;-1.6235;
82703401424478;-7.1145;-0.6072;-0.8354;
82703411530259;-10.5497;0.3870;-3.6284;
82703421615259;-13.3454;-1.0143;-2.0788;
82703431721092;-7.5123;0.3894;-0.0975;
82703441826873;-6.3888;-0.2835;-0.7373;
82703451959530;-12.1044;-0.6359;-1.1396;
82703462065311;-13.6113;0.3799;-0.7131;
82703472171040;-5.9408;0.1116;0.9015;
82703482271665;-6.7361;-0.3461;-0.2533;
82703492377394;-15.2761;-0.5471;-1.2497;
82703502483176;-11.4434;0.3392;-1.5084;
82703512590623;-7.6319;-0.6072;0.2521;
82703522696405;-6.0102;0.3296;-0.8378;
82703532802186;-11.2205;-0.4155;-3.5471;
82703542909269;-12.1451;-0.1113;-2.7541;
82703553015051;-7.9843;0.0900;-2.2439;
82703563120832;-10.6887;-0.4035;-1.9564;
82703573229478;-8.8801;-0.0631;-0.7107;
82703583335259;-10.3822;0.1307;1.1626;
82703593440988;-9.9796;-0.1519;-0.1430;
82703603552446;-10.4611;-0.3485;-0.2151;
82703613658280;-9.3592;-0.4059;-0.6078;
82703623764009;-9.4119;-0.2979;-0.9670;
82703633869946;-12.3775;-0.4226;-0.9000;
82703643975728;-8.4897;-0.6431;-0.2797;
82703654081561;-7.1794;-0.4872;-2.0931;
82703664176040;-10.4228;-0.5806;-2.6297;
82703674281821;-13.1680;-1.3017;-1.9684;
82703684387551;-7.7064;0.4469;-0.1549;
82703694485207;-5.7203;-0.8560;-1.3744;
82703704590988;-10.2024;-0.7172;-2.6417;
82703714696769;-12.4831;-0.2070;-2.4978;
82703724819373;-10.5592;-0.4250;-0.9909;
82703734925155;-9.8575;0.5285;-1.5398;
82703745030936;-7.0451;-0.3290;-0.5336;
82703755128957;-8.8298;-0.8850;-1.1037;
82703765234738;-8.9901;-0.0535;-2.8068;
82703775340519;-10.5305;-0.7819;-2.4284;
82703785436873;-12.1570;-0.0897;-3.2070;
82703795542394;-11.5128;0.3081;0.0221;
82703805647967;-6.6523;-0.7555;-0.3491;
82703815766040;-12.0589;0.3344;-1.4031;
82703825871561;-9.0885;-1.0836;0.7696;
82703835977134;-6.6069;0.0541;-0.6604;
82703846073748;-9.1101;-0.2572;-2.1147;
82703856179269;-13.1369;-0.0535;-2.3686;
82703866284842;-11.5415;0.5285;-0.7612;
82703876381248;-5.3635;0.7199;-0.4762;
82703886486821;-8.9662;-0.0153;-2.0282;
82703896592342;-12.7056;0.0637;-3.0033;
82703906730728;-10.8395;0.5931;-2.1529;
82703916836248;-6.4941;0.0494;-0.7875;
82703926941821;-7.3421;0.3320;-2.1721;
82703937047498;-14.8352;-0.1519;-1.0510;
82703947153019;-11.0527;0.7152;1.7590;
82703957258592;-6.2426;1.2422;0.2904;
82703967363228;-9.5821;0.5333;0.2976;
82703977468748;-11.4266;0.1259;-0.5264;
82703987574321;-8.4778;0.0781;-2.2008;
82703997674790;-10.7629;-0.2548;-1.1850;
82704007780311;-8.3865;0.0230;-2.1218;
82704017885884;-9.8647;-0.3075;-2.8092;
82704027994790;-11.1054;-0.5542;-0.6389;
82704038100311;-10.1569;-0.7196;-0.7397;
82704048205884;-9.8025;-0.7149;-1.9660;
82704058296144;-9.0646;-0.6933;0.0676;
82704068401717;-7.9555;-0.5303;0.8438;
82704078507238;-11.0910;-0.3748;-1.1061;
82704088611561;-8.9830;-0.4681;-0.8306;
82704098717082;-8.1975;-0.5973;-0.9694;
82704108822655;-13.3358;-1.1363;-3.0511;
82704118932186;-10.1928;-0.7603;-0.9383;
82704129037707;-7.8188;-0.6048;-1.4701;
82704139143280;-10.3750;-0.9281;-1.4366;
82704149243436;-4.7743;-0.5638;-0.9622;
82704159348957;-8.9160;-0.7819;-4.1339;
82704169454530;-14.4568;-0.5064;-2.7685;
82704179578644;-10.5855;0.4612;-0.2940;
82704189684217;-9.6203;0.0565;-1.8416;
82704199789738;-13.5850;-0.4059;-0.1573;
82704209899582;-11.9848;-0.7603;1.0451;
82704220005103;-7.8643;-0.7699;1.3349;
82704230110676;-6.5683;-0.4633;0.9494;
82704240190832;-7.9938;-0.7699;-1.7910;
82704250296353;-8.4177;-0.3580;-4.1554;
82704260401926;-11.1751;0.5716;-5.0492;
82704270507082;-11.7165;0.4493;-3.9999;
82704280612603;-10.0609;0.1068;-2.6919;
82704290718176;-8.6907;-0.2548;-2.0330;
82704300884061;-10.0322;-0.4490;-0.7540;
82704310989582;-10.4492;-0.0778;0.4295;
82704321095155;-6.6141;0.5740;0.7672;
82704331144009;-10.8852;-0.2620;-1.1228;
82704341249582;-11.9055;0.3846;-1.1874;
82704351355103;-8.6668;-0.1376;-0.2174;
82704361501457;-10.1976;-0.0009;-1.3696;
82704371606978;-9.8791;-0.0897;-1.5446;
82704381712551;-9.5557;0.1834;-2.4619;
82704391773853;-8.6189;0.1762;-1.6092;
82704401879426;-8.2549;0.6888;-1.4749;
82704411984946;-11.1174;1.2541;-2.2678;
82704422082186;-10.4157;1.1704;-2.2798;
82704432187707;-5.8331;-0.3027;-0.4472;
82704442293280;-9.4071;-0.3485;-1.4605;
82704452438332;-14.5358;-0.4322;-2.0692;
82704462543853;-11.8505;0.1331;0.1588;
82704472649426;-7.8069;-0.1711;0.0799;
82704482753384;-8.2956;0.5213;-0.2198;
82704492858905;-8.6357;0.5883;0.6212;
82704502964478;-10.8371;0.0852;-1.7121;
82704513048853;-11.5750;-0.2070;-2.1482;
82704523154426;-9.5219;0.8782;-1.1061;
82704533259946;-10.1474;0.8734;-0.2342;
82704543365728;-8.0106;0.3153;-1.0439;
82704553471248;-7.7279;0.6458;-2.2271;
82704563576821;-12.0230;0.3942;-2.1864;
82704573698696;-10.7151;0.5979;-1.8583;
82704583804269;-8.4081;0.2219;-2.0883;
82704593909790;-9.6012;0.4349;-1.7169;
82704604013540;-8.9662;-0.1663;0.0604;
82704614119061;-10.6337;0.6075;-1.3193;
82704624224634;-11.4386;0.5357;-1.6834;
82704634315936;-8.3243;0.0063;-0.4953;
82704644421457;-9.4023;0.3057;-0.7301;
82704654527030;-9.5964;0.0470;-0.9574;
82704664654686;-9.6084;0.1211;-1.5757;
82704674760207;-10.2048;-0.3003;-2.6895;
82704684865780;-11.0767;-0.6168;-1.7145;
82704694958540;-7.3974;-0.4250;0.4726;
82704705064061;-8.1975;-0.0488;-1.0774;
82704715169634;-9.9604;-0.0344;-2.8427;
82704725289373;-9.6538;-0.4753;-2.7876;
82704735394894;-7.3708;-0.1543;-2.4332;
82704745500467;-10.7151;0.1953;-3.1086;
82704755587186;-12.2507;0.4205;-2.0836;
82704765692707;-8.7075;0.4086;0.2545;
82704775798280;-7.2057;-0.0730;-0.8306;
82704785915676;-8.4583;-0.1519;-2.4763;
82704796021457;-11.5678;-0.0682;-3.3745;
82704806127238;-10.8610;-0.2118;-2.6417;
82704816231092;-10.5712;-0.1926;-3.0751;
82704826336873;-10.7653;-0.2333;-3.5590;
82704836442655;-12.0494;-0.7220;-1.0774;
82704846526405;-10.2742;-0.3748;0.3529;
82704856632186;-8.1326;-0.3843;1.1480;
82704866737967;-8.8513;-0.4226;1.4812;
82704876848488;-9.9724;-0.0559;0.3383;
82704886954269;-10.6385;0.0900;-0.5432;
82704897060051;-7.8787;0.5812;-0.7899;
82704907184373;-9.2154;-0.3748;-1.2305;
82704917290155;-9.1077;-0.5279;-2.6417;
82704927395988;-9.7831;-0.2333;-5.3749;
82704937497394;-11.1174;-0.3939;-3.7220;
82704947603176;-9.5414;-0.6670;-1.8440;
82704957708957;-10.4587;-0.2572;-2.0426;
82704967814894;-10.1521;-0.4609;-0.6628;
82704977920676;-10.1019;-0.7723;0.7241;
82704988026457;-8.9279;0.1451;1.4067;
82704998123801;-7.3756;0.2267;0.7169;
82705008229582;-11.5343;0.1810;-2.4117;
82705018335363;-11.1679;-0.1352;-1.5685;
82705028427394;-7.4261;-0.2644;-0.6173;
82705038533123;-9.1914;0.3631;-2.9411;
82705048638905;-11.9513;0.8351;-2.7446;
82705058768853;-10.2694;0.0230;-0.6915;
82705068874582;-9.1340;-0.3461;-2.5241;
82705078980363;-9.3114;-0.0272;-3.3625;
82705089074269;-10.2838;-0.1639;-1.3457;
82705099179998;-10.0131;0.0996;-0.3395;
82705109285780;-9.6921;0.4086;-0.0305;
82705119391978;-9.8192;0.5333;0.2091;
82705129497811;-9.1436;0.7343;-0.8091;
82705139603540;-10.3463;0.5309;-2.6106;
82705149698384;-9.9844;0.8255;-3.0057;
82705159804165;-8.6644;1.2951;-0.2892;
82705169909998;-8.9590;-0.1328;-2.0812;
82705180043176;-11.9967;-0.1424;-4.8479;
82705190148957;-10.1378;0.7968;-1.3361;
82705200254790;-6.9517;0.2291;1.7518;
82705210324998;-8.3554;-0.3748;-1.8488;
82705220430780;-10.2335;0.2985;-4.4767;
82705230536561;-10.5736;0.8375;-1.7743;
82705240665884;-10.1210;0.6649;-0.3514;
82705250771613;-10.3316;0.6625;-2.3590;
82705260877394;-9.2417;1.4315;-1.4533;
82705271011613;-8.3770;1.0795;0.0846;
82705281117394;-11.5534;1.5658;-3.0464;
82705291223176;-11.5080;2.5119;-2.6321;
82705301301613;-10.3367;2.7969;-0.2844;
82705311407394;-10.5401;2.0566;-1.0080;
82705321513176;-10.1856;0.8255;-0.5264;
82705331611561;-9.1149;-0.2596;1.0905;
82705341717342;-10.2598;-1.0741;-0.1645;
82705351823123;-12.2985;-0.6479;-1.2209;
82705361922811;-10.6911;-0.6239;1.4429;
82705372028592;-8.8681;-1.6875;1.8380;
82705382134373;-7.9795;-1.9316;-1.4366;
82705392238488;-7.5386;-1.7498;-3.8919;
82705402344269;-7.7423;-1.5772;-4.3974;
82705412450051;-7.8715;-1.1438;-3.3075;
82705422580467;-9.1723;-1.3137;-1.5470;
82705432686248;-11.3809;-1.5700;0.6476;
82705442792030;-11.5104;-1.6442;2.0273;
82705452895571;-11.6925;-0.5853;-0.5121;
82705463001353;-10.2000;0.7152;-2.8259;
82705473107134;-6.3912;-0.1089;-2.5504;
82705483183176;-5.7227;0.7199;-5.4682;
82705493288957;-8.4921;0.1570;-6.8818;
82705503394738;-9.9772;-0.5112;-2.6991;
82705513511926;-10.7701;1.0531;-0.5336;
82705523617707;-11.0145;2.3393;-1.7240;
82705533723488;-10.4468;2.1383;-2.2798;
82705543831196;-9.8121;1.7118;-1.5948;
82705553936978;-9.5916;1.6878;-0.7253;
82705564042759;-9.3975;2.0423;-0.6269;
82705574159113;-9.0550;2.2244;-1.4940;
82705584264894;-8.7604;2.2172;-2.4739;
82705594370676;-8.5543;2.0112;-3.4992;
82705604466821;-9.5868;1.3286;-4.3735;
82705614572603;-10.1139;0.5907;-2.8283;
82705624678384;-9.5821;0.8279;-0.8713;
82705634773384;-10.2311;1.6591;-1.5036;
82705644879165;-10.7007;1.6831;-1.8870;
82705654984946;-9.3138;1.1154;-0.5767;
82705665113488;-8.5591;0.8925;-1.2090;
82705675219321;-9.2755;0.3033;-3.1615;
82705685325051;-9.2536;-0.7531;-2.2534;
82705695420259;-8.9279;-0.8369;-0.7684;
82705705526040;-9.1531;0.8806;-2.2415;
82705715631821;-10.2072;0.5357;-2.5624;
82705725745155;-11.2875;0.5668;-2.3471;
82705735850936;-10.6624;-0.0730;-0.9861;
82705745956717;-9.5677;0.5524;-0.3682;
82705756046926;-9.1484;0.7872;-1.1635;
82705766152707;-8.8513;0.6482;-1.9493;
82705776258488;-8.8274;0.4878;-2.0859;
82705786364894;-9.3042;0.7199;-2.3399;
82705796470467;-9.3520;0.6170;-2.0330;
82705806576092;-9.0072;0.5620;-1.5589;
82705816686613;-9.7496;0.6458;-1.6379;
82705826792186;-10.7198;0.6745;-1.4031;
82705836897811;-10.6600;0.8925;-0.9984;
82705847005832;-10.3292;1.6591;-1.7432;
82705857111405;-9.4190;1.7764;-2.1051;
82705867217030;-8.5639;1.6496;-1.9301;
82705877313853;-8.5878;1.3645;-1.8727;
82705887419426;-8.6548;1.4004;-2.1266;
82705897525051;-8.9758;1.7955;-3.0918;
82705907628957;-9.8623;2.2627;-4.2084;
82705917734530;-9.6610;2.2819;-3.4370;
82705927840155;-9.1699;1.9561;-1.4007;
82705937966196;-9.7280;1.8221;-0.3347;
82705948071769;-9.9772;2.0016;0.0846;
82705958177394;-9.9580;2.3827;-0.1310;
82705968275207;-9.9724;2.8208;-1.2978;
82705978380780;-9.7304;3.3191;-3.0607;
82705988486405;-9.7472;3.9179;-4.9507;
82705998579790;-8.8777;4.3181;-4.7928;
82706008685363;-7.6896;4.1910;-3.1014;
82706018790988;-8.3770;3.9203;-2.4045;
82706028898436;-9.5725;3.9637;-2.7278;
82706039004009;-10.3268;3.9084;-2.5768;
82706049109634;-10.5042;3.2498;-1.3576;
82706059219582;-10.0561;2.7969;-0.5767;
82706069325155;-9.6945;2.7562;-1.4318;
82706079430780;-9.6993;3.2306;-2.5289;
82706089506353;-9.3568;3.0604;-2.1338;
82706099611926;-8.8370;2.2603;-0.8952;
82706109717551;-8.9423;2.0183;-1.4844;
82706119845363;-9.4837;1.7907;-2.2510;
82706129950936;-9.3855;1.4698;-2.3495;
82706140056561;-9.1866;1.1273;-2.4954;
82706150154790;-9.4956;1.5706;-3.5471;
82706160260363;-9.2731;1.3143;-3.0440;
82706170365936;-8.9375;0.4831;-1.4007;
82706180475832;-9.1125;-0.2907;-0.4137;
82706190581405;-9.6515;0.0326;-1.2066;
82706200687030;-9.9509;0.2363;-1.8176;
82706210844061;-9.7376;0.3583;-1.7934;
82706220949634;-9.7902;0.6123;-2.2822;
82706231055259;-10.1880;0.6218;-2.3830;
82706241111873;-9.9102;0.2985;-1.3600;
82706251217446;-9.4693;0.0087;-0.5121;
82706261323071;-9.4119;0.1666;-0.7660;
82706271474269;-9.1938;0.4469;-1.4127;
82706281579842;-8.8561;0.9332;-2.1266;
82706291685467;-8.9542;1.5586;-3.1974;
82706301742082;-9.4406;1.8150;-3.9135;
82706311847655;-10.0370;1.6424;-3.7484;
82706321953280;-10.2598;1.0026;-2.7565;
82706332064373;-9.8216;-0.0631;-0.9814;
82706342169946;-9.2489;-0.6479;0.0030;
82706352275571;-9.4119;-0.3365;-0.4594;
82706362383228;-9.8695;-0.1376;-1.6164;
82706372488801;-10.3534;0.3057;-2.8140;
82706382594426;-10.1689;0.2650;-2.9530;
82706392733332;-9.5557;-0.2812;-2.0931;
82706402838905;-9.4286;-0.4083;-2.3351;
82706412944530;-9.2874;-0.4561;-2.3686;
82706423027498;-8.8418;-0.9353;-1.2882;
82706433133071;-8.8131;-0.6933;-1.1563;
82706443238696;-9.5148;0.1140;-2.2534;
82706453333436;-10.1928;0.6123;-2.8044;
82706463439009;-10.0370;0.2794;-2.1338;
82706473544634;-9.9269;-0.0320;-1.3911;
82706483647603;-10.0995;-0.0655;-1.3672;
82706493753176;-9.8695;-0.2644;-1.0750;
82706503858801;-9.3209;-0.3700;-0.6748;
82706513979790;-9.1986;0.1235;-1.2425;
82706524085363;-9.6491;0.7585;-2.3423;
82706534190988;-9.8958;0.6817;-2.5720;
82706544313853;-9.8408;0.2028;-1.8751;
82706554419426;-9.9844;0.2052;-1.5084;
82706564525051;-9.9556;0.3607;-1.3002;
82706574619061;-9.5845;0.3990;-0.6891;
82706584724634;-9.3281;0.7705;-0.6604;
82706594830259;-9.3855;1.3836;-1.2497;
82706604934790;-9.4645;1.7524;-1.7599;
82706615040363;-9.5677;1.8078;-2.0306;
82706625145988;-9.6969;1.8748;-2.2630;
82706635298801;-9.7376;1.8027;-2.1482;
82706645404373;-9.6467;1.4028;-1.4916;
82706655509998;-9.4717;0.9428;-0.7202;
82706665583644;-9.5701;0.8949;-0.5934;
82706675689217;-9.7591;1.2254;-1.1109;
82706685794842;-9.7735;1.4746;-1.4342;
82706695888123;-9.6802;1.6041;-1.5326;
82706705993696;-9.6275;1.7118;-1.5972;
82706716099321;-9.4310;1.6137;-1.3457;
82706726185832;-9.2608;1.4937;-1.0917;
82706736291405;-9.4143;1.4889;-1.0726;
82706746397030;-9.5845;1.5296;-1.1970;
82706756518436;-9.6730;1.5945;-1.2787;
82706766624009;-9.7424;1.7118;-1.2811;
82706776729634;-9.6778;1.8700;-1.2763;
82706786835936;-9.5510;1.9848;-1.2138;
82706796941561;-9.4478;2.0327;-1.1779;
82706807047186;-9.3784;2.0375;-1.0989;
82706817148957;-9.4190;2.0518;-1.1013;
82706827254582;-9.5243;2.1550;-1.1635;
82706837360207;-9.5581;2.2029;-1.0774;
82706847466613;-9.5964;2.2244;-1.0487;
82706857572238;-9.6323;2.2651;-1.0271;
82706867677863;-9.5291;2.1909;-0.9120;
82706877771769;-9.4549;2.2292;-0.9215;
82706887877394;-9.4645;2.3850;-1.0104;
82706897983019;-9.4382;2.4377;-1.0726;
82706908092186;-9.5028;2.4449;-1.1180;
82706918197811;-9.5100;2.4473;-1.1252;
82706928303436;-9.4837;2.4592;-1.0869;
82706938411717;-9.5124;2.4449;-1.0822;
82706948517342;-9.4837;2.4544;-1.0750;
82706958622967;-9.4358;2.4784;-1.1061;
82706968728853;-9.4765;2.5430;-1.1731;
82706978834478;-9.5028;2.5262;-1.1898;
82706988940103;-9.4884;2.4784;-1.1970;
82706999044269;-9.4932;2.4760;-1.2185;
82707009149894;-9.4956;2.4736;-1.2090;
82707019255519;-9.4334;2.4879;-1.1922;
82707029357603;-9.4645;2.5908;-1.2353;
82707039463228;-9.4621;2.6004;-1.3074;
82707049568853;-9.4382;2.5525;-1.3026;
82707059665207;-9.4837;2.5047;-1.3193;
82707069770832;-9.4932;2.4544;-1.3193;
82707079876457;-9.4717;2.3587;-1.2520;
82707089994998;-9.4669;2.2412;-1.2595;
82707100100623;-9.4980;2.1670;-1.3720;
82707110206248;-9.4597;2.1479;-1.6068;
82707120337863;-9.3999;2.0518;-1.6092;
82707130443488;-9.4549;2.0112;-1.5036;
82707140549113;-9.4813;1.9753;-1.4414;
82707150608905;-9.5124;1.9346;-1.4533;
82707160714530;-9.5243;1.9202;-1.4557;
82707170820155;-9.4860;1.9322;-1.5132;
82707180965936;-9.4908;1.9442;-1.6259;
82707191071561;-9.4837;1.9226;-1.6618;
82707201177186;-9.4238;1.9155;-1.6762;
82707211253957;-9.4238;1.9178;-1.7073;
82707221359582;-9.4621;1.9011;-1.6786;
82707231465207;-9.4597;1.8820;-1.6714;
82707241598228;-9.4693;1.8987;-1.6451;
82707251703853;-9.4789;1.9226;-1.6187;
82707261809478;-9.4573;1.9848;-1.6020;
82707271884373;-9.4645;2.0207;-1.5781;
82707281989998;-9.4717;2.0566;-1.5781;
82707292095623;-9.4645;2.0809;-1.6283;
82707302196769;-9.4765;2.0952;-1.6164;
82707312302394;-9.4502;2.1096;-1.6235;
82707322408019;-9.4238;2.1191;-1.6044;
82707332517707;-9.4023;2.1455;-1.6164;
82707342623332;-9.4262;2.1646;-1.5374;
82707352728957;-9.4502;2.2268;-1.5060;
82707362839894;-9.4478;2.2651;-1.4868;
82707372945519;-9.4310;2.2675;-1.4940;
82707383051144;-9.4478;2.3058;-1.4916;
82707393163332;-9.4430;2.3468;-1.4557;
82707403268957;-9.4334;2.3707;-1.4342;
82707413374582;-9.4358;2.3970;-1.4198;
82707423473436;-9.4478;2.3874;-1.4079;
82707433579061;-9.4717;2.3922;-1.3624;
82707443684686;-9.4549;2.4018;-1.3385;
82707453814061;-9.4573;2.4114;-1.2954;
82707463919686;-9.4693;2.3755;-1.1779;
82707474025311;-9.4262;2.3106;-1.4533;
82707484107186;-9.4741;2.3058;-1.8416;
82707494212811;-9.4095;2.2388;-1.9229;
82707504318436;-9.3473;2.2340;-1.6546;
82707514422603;-9.3760;2.2507;-1.2787;
82707524528228;-9.4214;2.2316;-1.0439;
82707534633853;-9.5004;2.2651;-1.0487;
82707544747811;-9.5845;2.3010;-1.2520;
82707554853436;-9.5653;2.2890;-1.4366;
82707564959061;-9.5028;2.2555;-1.5948;
82707575075311;-9.3951;2.1981;-1.6594;
82707585180936;-9.3090;2.1526;-1.6905;
82707595286561;-9.3329;2.1359;-1.7025;
82707605379790;-9.4190;2.0638;-1.6164;
82707615485415;-9.4789;2.0255;-1.5470;
82707625591040;-9.5100;2.0327;-1.5227;
82707635693853;-9.4980;2.0471;-1.4629;
82707645799478;-9.4645;2.0518;-1.4462;
82707655905103;-9.4047;2.0423;-1.5302;
82707666011196;-9.3903;2.0112;-1.6235;
82707676116821;-9.4143;1.9490;-1.7145;
82707686222446;-9.3018;1.9250;-1.8799;
