Sensor: bmi160 Accelerometer Non-wakeup
Vendor: BOSCH
TimestampAcc [ns]; AccX [m/s^2]; AccY [m/s^2]; AccZ [m/s^2]
415509961507778;-9.4262;1.4459;-2.1840;
415509971641580;-9.4597;1.4219;-2.2343;
415509981715173;-9.4597;1.4483;-2.2606;
415509991846371;-9.4262;1.4483;-2.2343;
415510001919965;-9.3855;1.4387;-2.2175;
415510012068767;-9.4095;1.4530;-2.2056;
415510022142361;-9.4190;1.4435;-2.1793;
415510032313767;-9.4334;1.4411;-2.1410;
415510042387257;-9.4525;1.4195;-2.1912;
415510052495590;-9.4669;1.4243;-2.2247;
415510062617725;-9.4406;1.4052;-2.2199;
415510072718923;-9.4190;1.3980;-2.2319;
415510082835330;-9.4286;1.4315;-2.2367;
415510092924600;-9.4430;1.4387;-2.1793;
415510103013455;-9.4406;1.4889;-2.1745;
415510113112517;-9.4310;1.5224;-2.1769;
415510123247621;-9.4214;1.5634;-2.1673;
415510133331475;-9.4119;1.6017;-2.1817;
415510143423611;-9.4119;1.5826;-2.1864;
415510153549653;-9.4190;1.5849;-2.1984;
415510163642986;-9.4262;1.5802;-2.1840;
415510173763038;-9.4238;1.5224;-2.1936;
415510183851892;-9.4573;1.4818;-2.2152;
415510193980798;-9.4214;1.4291;-2.2056;
415510204088767;-9.4047;1.3549;-2.2534;
415510214164757;-9.4238;1.2736;-2.2678;
415510224257778;-9.4334;1.2015;-2.2534;
415510234394653;-9.4549;1.1321;-2.2582;
415510244474340;-9.4860;1.1297;-2.2798;
415510254598298;-9.4693;1.1201;-2.2893;
415510264690434;-9.4765;1.1225;-2.2941;
415510274798090;-9.4597;1.0842;-2.2941;
415510284886319;-9.4478;1.0842;-2.3109;
415510294998923;-9.4478;1.0747;-2.2510;
415510305102100;-9.4837;1.0890;-2.2415;
415510315203350;-9.4813;1.0962;-2.2439;
415510325326632;-9.4789;1.0795;-2.2367;
415510335440278;-9.4860;1.0388;-2.2606;
415510345528819;-9.4813;1.0675;-2.2702;
415510355627621;-9.4837;1.0172;-2.2822;
415510365734809;-9.4956;0.9787;-2.2965;
415510375825955;-9.4645;0.9882;-2.2534;
415510385947778;-9.4837;1.0531;-2.2606;
415510396039184;-9.4932;1.1297;-2.2343;
415510406152100;-9.4956;1.2039;-2.1888;
415510416254080;-9.4789;1.2398;-2.1984;
415510426349913;-9.4837;1.2422;-2.1553;
415510436472621;-9.5172;1.2254;-2.1864;
415510446572413;-9.4597;1.1082;-2.2295;
415510456673767;-9.4358;0.9715;-2.2032;
415510466777830;-9.5100;0.9835;-2.1721;
415510476881892;-9.4932;0.9619;-2.2056;
415510486991580;-9.4525;0.9260;-2.3037;
415510497087569;-9.4621;0.9284;-2.3949;
415510507194392;-9.4884;0.9093;-2.3973;
415510517297413;-9.4956;0.8710;-2.3204;
415510527403559;-9.5342;0.8112;-2.2582;
415510537512205;-9.5462;0.8160;-2.1960;
415510547620486;-9.4813;0.8351;-2.2702;
415510557719236;-9.4669;0.8853;-2.3877;
415510567824809;-9.4549;0.8518;-2.4165;
415510577927830;-9.4860;0.8782;-2.3109;
415510588041059;-9.5195;1.0316;-2.2726;
415510598146475;-9.5124;1.1082;-2.2223;
415510608256736;-9.4717;1.1154;-2.1745;
415510618351319;-9.4430;1.0268;-2.2247;
415510628469132;-9.4358;1.0364;-2.2989;
415510638555017;-9.4717;1.0555;-2.2343;
415510648662621;-9.4813;1.1776;-2.1601;
415510658771580;-9.4980;1.2398;-2.2152;
415510668872413;-9.4621;1.2541;-2.1697;
415510678981996;-9.4143;1.2230;-2.1984;
415510689085538;-9.4095;1.2951;-2.2223;
415510699179184;-9.4167;1.3908;-2.2152;
415510709295434;-9.4358;1.4698;-2.1625;
415510719396736;-9.4454;1.4100;-2.1864;
415510729504392;-9.4430;1.2951;-2.2822;
415510739608559;-9.4502;1.2470;-2.3157;
415510749711267;-9.4382;1.2494;-2.2271;
415510759817830;-9.4478;1.2784;-2.1745;
415510769921319;-9.4214;1.3238;-2.2415;
415510780020746;-9.3832;1.4865;-2.3013;
415510790128663;-9.4573;1.5586;-2.2271;
415510800224913;-9.5315;1.1345;-2.0354;
415510810332100;-9.5701;0.7753;-2.1625;
415510820443663;-9.5390;0.5692;-2.2965;
415510830517257;-9.5148;0.4660;-2.3758;
415510840664600;-9.5148;0.5118;-2.4858;
415510850756892;-9.4980;0.5835;-2.4811;
415510860857934;-9.4813;0.8590;-2.4571;
415510870967100;-9.4525;1.1177;-2.2989;
415510881100069;-9.4669;1.2039;-2.0907;
415510891163246;-9.5076;1.2446;-1.9612;
415510901272517;-9.4884;1.2637;-1.9397;
415510911377205;-9.4358;1.3167;-2.1553;
415510921492778;-9.4167;1.3214;-2.3180;
415510931593611;-9.4143;1.2470;-2.4188;
415510941689080;-9.4358;1.1393;-2.3830;
415510951783559;-9.4693;1.0866;-2.2439;
415510961943194;-9.4789;1.0842;-2.1553;
415510971992725;-9.4525;1.1201;-2.2487;
415510982111371;-9.4143;1.1225;-2.3471;
415510992215225;-9.4190;1.1800;-2.4069;
415511002318298;-9.4382;1.2685;-2.3276;
415511012416684;-9.4358;1.3597;-2.1314;
415511022530434;-9.4190;1.4411;-2.0402;
415511032626580;-9.3832;1.5849;-1.9804;
415511042748819;-9.3760;1.8293;-1.9660;
415511052834288;-9.3305;2.0761;-1.9516;
415511062932153;-9.3377;2.3468;-1.9588;
415511073040642;-9.3808;2.6076;-1.9373;
415511083134757;-9.3544;2.7275;-1.8440;
415511093267882;-9.3257;2.6438;-1.6666;
415511103366267;-9.3090;2.6174;-1.6355;
415511113464600;-9.3616;2.5741;-1.6690;
415511123561632;-9.3855;2.5597;-1.7815;
415511133659965;-9.3568;2.5334;-1.9038;
415511143758350;-9.3544;2.4927;-1.9445;
415511153886892;-9.3664;2.3946;-1.8392;
415511163985225;-9.3760;2.2555;-1.7216;
415511174083559;-9.3808;2.0809;-1.8105;
415511184229861;-9.4047;2.0136;-1.9134;
415511194328246;-9.4047;1.8341;-2.1553;
415511204426580;-9.3879;1.7213;-2.3447;
415511214525017;-9.3497;1.5514;-2.5193;
415511224623350;-9.3162;1.3932;-2.6752;
415511234721684;-9.2803;1.3286;-3.0799;
415511244811423;-9.1484;1.4506;-3.6093;
415511254909757;-8.9231;1.2709;-3.6308;
415511265008090;-9.0024;1.4339;-3.7699;
415511275151736;-9.7759;1.2709;-2.9626;
415511285250069;-10.2814;0.2530;-0.7349;
415511295348403;-9.9365;0.6505;-1.1420;
415511305448715;-9.1699;1.6184;-2.7876;
415511315547048;-8.6596;1.4291;-2.8403;
415511325645382;-9.0933;0.9308;-2.6417;
415511335783663;-9.8288;0.5405;-2.6512;
415511345882048;-9.6730;0.4086;-2.0692;
415511355980330;-9.0144;1.9107;-2.1410;
415511366077153;-8.9231;1.5849;-1.4629;
415511376175486;-9.2656;1.9992;-1.7312;
415511386273819;-9.3927;1.6567;-1.5757;
415511396395278;-9.7232;1.4483;-1.5805;
415511406493663;-10.0107;1.3430;-1.7073;
415511416591996;-9.6873;1.3478;-1.3696;
415511426704132;-9.3257;1.4171;-1.0678;
415511436802465;-9.4190;1.6591;-1.3672;
415511446900798;-9.3808;1.8532;-1.5661;
415511457026423;-9.2632;1.9513;-1.5084;
415511467124757;-9.4262;2.1550;-1.6259;
415511477223090;-9.4765;2.2412;-1.5685;
415511487330173;-9.2345;2.2412;-1.1874;
415511497428507;-9.2010;2.4162;-1.1061;
415511507526840;-9.3377;2.6342;-1.3002;
415511517640903;-9.2898;2.6557;-1.2305;
415511527739236;-9.3042;2.7299;-1.2377;
415511537837569;-9.3999;2.9049;-1.4294;
415511547967361;-9.2707;2.9264;-1.3792;
415511558065694;-9.1364;2.8496;-1.2520;
415511568164028;-9.2656;2.8089;-1.3193;
415511578270173;-9.3066;2.7706;-1.3337;
415511588368507;-9.2273;2.7802;-1.2449;
415511598466840;-9.2560;2.8953;-1.3457;
415511608590590;-9.1819;3.0772;-1.4486;
415511618688923;-9.0646;3.2904;-1.4103;
415511628787257;-9.0718;3.5611;-1.3337;
415511638898923;-9.1627;3.8222;-1.2520;
415511648997257;-9.1962;3.9467;-1.0941;
415511659095590;-9.1220;4.0618;-1.0152;
415511669207465;-9.0909;4.2918;-1.2329;
415511679305798;-9.0287;4.6487;-1.5227;
415511689404132;-8.9853;4.8619;-1.5757;
415511699532569;-9.0455;4.8691;-1.3839;
415511709630903;-9.0742;4.9122;-1.1037;
415511719729288;-9.1077;4.9624;-0.7564;
415511729840278;-9.1173;5.0776;-0.7131;
415511739938611;-9.0742;5.2908;-1.1324;
415511750036944;-8.9495;5.4033;-1.5179;
415511760150382;-8.8657;5.3076;-1.6499;
415511770248715;-8.9160;4.8188;-1.7360;
415511780347048;-9.0550;4.0116;-1.7719;
415511790447100;-9.1795;3.4367;-1.4366;
415511800545382;-9.2441;3.2689;-1.4486;
415511810643767;-9.1388;3.4869;-1.7985;
415511820784236;-8.9590;3.7170;-2.0593;
415511830882569;-9.0479;3.7624;-2.0450;
415511840980903;-9.2465;3.7361;-2.0115;
415511851099548;-9.1627;3.5994;-1.9708;
415511861197882;-8.9782;3.5252;-2.0644;
415511871296215;-8.9614;3.5539;-2.2080;
415511881413455;-8.9877;3.5037;-2.2199;
415511891511788;-9.1388;3.2665;-2.1721;
415511901610173;-9.2345;3.0293;-2.0812;
415511911721319;-9.2369;2.9695;-2.0931;
415511921819653;-9.1699;2.9910;-2.0474;
415511931917986;-9.1244;2.9886;-1.9588;
415511942031996;-9.2130;2.9145;-1.9564;
415511952130330;-9.2225;2.8280;-1.8751;
415511962228663;-9.1795;2.7371;-1.8129;
415511972343819;-9.1938;2.7060;-1.8368;
415511982442153;-9.1914;2.7395;-1.8081;
415511992540486;-9.2058;2.7682;-1.7169;
415512002671892;-9.3114;2.6964;-1.7192;
415512012770278;-9.3018;2.6390;-1.7432;
415512022868559;-9.2010;2.5645;-1.7503;
415512032971736;-9.0957;2.5645;-1.7934;
415512043070069;-9.2441;2.6198;-1.9158;
415512053168403;-9.4765;2.7467;-1.8535;
415512063279028;-9.4286;3.0867;-1.6403;
415512073377361;-9.2584;3.3000;-1.5541;
415512083475694;-9.1196;3.3550;-1.5876;
415512093622517;-9.1173;3.3263;-1.5709;
415512103720903;-9.2034;3.3694;-1.5924;
415512113819236;-9.3425;3.3598;-1.7073;
415512123923871;-9.2707;3.2306;-1.6427;
415512134022205;-9.1603;3.0843;-1.5398;
415512144120538;-9.2106;2.9169;-1.6379;
415512154232830;-9.2441;2.6988;-1.7408;
415512164331163;-9.2513;2.6127;-1.8655;
415512174429548;-9.3353;2.5262;-2.0043;
415512184527153;-9.4310;2.0399;-2.0979;
415512194625434;-9.3568;1.5419;-2.0764;
415512204723819;-9.3353;1.4387;-2.0474;
415512214844653;-9.2249;1.6615;-2.1051;
415512224942986;-9.1699;1.9609;-2.0617;
415512235041319;-9.3401;2.0303;-1.9804;
415512245169861;-9.4573;2.0351;-1.9181;
415512255268194;-9.3784;2.2436;-1.9493;
415512265366528;-9.3473;2.6940;-2.0354;
415512275496840;-9.3114;3.1418;-1.9469;
415512285595225;-9.1795;3.2665;-1.7216;
415512295693507;-9.1196;3.2210;-1.6451;
415512305794080;-9.1436;3.1202;-1.7360;
415512315892413;-9.2803;2.9671;-1.7767;
415512325990746;-9.4908;2.7586;-2.0330;
415512336115173;-9.4980;2.3393;-2.0692;
415512346213507;-9.2321;2.1526;-1.9756;
415512356311840;-9.0431;2.0040;-1.9732;
415512366434548;-9.2010;2.0064;-2.1721;
415512376532882;-9.4071;1.8078;-2.0186;
415512386631215;-9.5267;1.6663;-2.0859;
415512396736319;-9.4813;1.6591;-2.1601;
415512406834653;-9.2058;1.8796;-1.8751;
415512416932986;-9.0335;2.2196;-1.5470;
415512427049965;-9.2465;2.3659;-1.4892;
415512437148298;-9.5462;2.2986;-1.5350;
415512447246632;-9.5605;2.2436;-1.5757;
415512457361423;-9.4693;2.3779;-1.9205;
415512467459757;-9.2106;2.7299;-2.1194;
415512477558090;-9.0766;2.7826;-2.1075;
415512487677986;-9.1579;2.5693;-2.0836;
415512497776319;-9.2850;2.2196;-2.1888;
415512507874653;-9.4454;1.9083;-2.2654;
415512517998507;-9.4813;1.7955;-2.2199;
415512528096840;-9.4334;1.9178;-2.1769;
415512538195173;-9.3760;2.0952;-2.1147;
415512548310278;-9.3018;2.1622;-1.9636;
415512558408611;-9.2850;2.2388;-2.0883;
415512568506944;-9.3473;2.4233;-2.2463;
415512578619861;-9.3042;2.5525;-2.2199;
415512588718194;-9.3066;2.6892;-2.0931;
415512598816528;-9.2130;2.5143;-2.1529;
415512608939132;-9.2994;2.1957;-2.3109;
415512619037465;-9.3185;1.8341;-2.1290;
415512629135798;-9.4358;1.7070;-2.1362;
415512639243507;-9.5315;1.7166;-2.3252;
415512649341840;-9.3999;1.7836;-2.1912;
415512659440173;-9.3185;1.6567;-2.0569;
415512669558819;-9.4214;1.4554;-2.0426;
415512679657153;-9.5243;1.3645;-2.2630;
415512689755486;-9.3951;1.2470;-2.2869;
415512699875590;-9.4430;1.4363;-2.3782;
415512709973923;-9.5148;1.7333;-2.3204;
415512720072257;-9.4143;1.8269;-2.0330;
415512730198403;-9.3090;1.8700;-1.9828;
415512740296736;-9.3162;1.8532;-2.1434;
415512750395069;-9.2417;1.8676;-2.1290;
415512760493507;-9.2201;2.0566;-2.1673;
415512770591840;-9.4334;2.0255;-2.2223;
415512780690173;-9.4430;2.0231;-2.0931;
415512790795017;-9.3305;2.1670;-1.9301;
415512800893350;-9.3712;2.2053;-1.9947;
415512810991684;-9.3855;2.1957;-2.0234;
415512821118871;-9.3281;2.1598;-1.9229;
415512831217205;-9.4214;2.2029;-1.9062;
415512841315538;-9.4717;2.3922;-1.8799;
415512851440590;-9.3377;2.4640;-1.7264;
415512861538923;-9.2970;2.3803;-1.7240;
415512871637257;-9.3640;2.2412;-1.8679;
415512881763767;-9.3832;2.1574;-2.0306;
415512891862100;-9.3951;2.3034;-2.1123;
415512901960486;-9.3425;2.6103;-2.1338;
415512912061007;-9.3544;2.8065;-2.0716;
415512922159340;-9.3592;2.9312;-1.9397;
415512932257673;-9.3329;3.0078;-1.8679;
415512942376215;-9.3712;3.0652;-2.0282;
415512952474548;-9.3879;2.5286;-2.0979;
415512962572882;-9.3592;1.5826;-2.0450;
415512972687048;-9.2898;0.9667;-2.1577;
415512982785382;-9.0191;1.3047;-2.2367;
415512992883715;-9.2010;1.5419;-2.2487;
415513003020850;-9.5749;2.2699;-2.1888;
415513013119236;-9.8121;2.1168;-2.0354;
415513023217569;-9.6251;1.8173;-2.0859;
415513033317673;-9.2970;1.5081;-2.2726;
415513043416007;-9.1173;1.1345;-2.1601;
415513053514340;-9.3233;0.7705;-2.0979;
415513063630486;-9.6849;0.3320;-2.2582;
415513073728767;-9.7472;0.2961;-2.4547;
415513083827153;-9.5438;0.5166;-2.4978;
415513094005590;-9.3640;0.7777;-2.3327;
415513104103975;-9.4238;0.9906;-2.1266;
415513114202309;-9.5028;1.0555;-2.0330;
415513124253767;-9.4406;1.1082;-2.1218;
415513134352153;-9.4214;1.0268;-2.3542;
415513144450434;-9.2465;0.9571;-2.3399;
415513154590017;-9.1795;1.3765;-2.1960;
415513164688350;-9.5052;1.6711;-2.1386;
415513174786736;-9.6993;1.8051;-2.0306;
415513184877361;-9.6515;1.8221;-2.0210;
415513194975694;-9.3473;2.0255;-2.1386;
415513205074028;-9.0311;2.3994;-2.1170;
415513215203819;-9.1220;2.4592;-1.9851;
415513225302153;-9.4789;2.2507;-1.9516;
415513235400486;-9.5892;2.2460;-2.0474;
415513245520069;-9.4382;2.3970;-2.1649;
415513255618403;-9.2369;2.6270;-2.1745;
415513265716736;-9.1675;2.8953;-2.0186;
415513275859340;-9.1890;3.0604;-1.8918;
415513285957673;-9.2683;2.9216;-1.9277;
415513296056007;-9.4478;2.5860;-2.1218;
415513306139340;-9.4549;2.3225;-2.2008;
415513316237673;-9.3257;2.0761;-2.1673;
415513326336007;-9.3257;1.8796;-2.2199;
415513336460330;-9.3042;1.8269;-2.1864;
415513346558663;-9.3233;1.8150;-2.0788;
415513356656996;-9.4430;1.8628;-2.0979;
415513366782413;-9.3999;2.0351;-2.1266;
415513376880746;-9.3114;2.1359;-2.0788;
415513386979080;-9.2994;2.2053;-2.0692;
415513397090694;-9.3162;2.3707;-2.0378;
415513407189028;-9.3185;2.5382;-2.0091;
415513417287361;-9.3305;2.5430;-2.0282;
415513427398246;-9.2898;2.2771;-2.0569;
415513437496580;-9.4645;1.5682;-2.1673;
415513447594913;-9.6419;1.0436;-2.2008;
415513457712569;-9.5172;1.0842;-2.2032;
415513467810903;-9.3305;1.3071;-2.3085;
415513477909236;-9.2465;1.4554;-2.3109;
415513488024340;-9.2608;1.6878;-2.1553;
415513498122673;-9.4167;1.9777;-2.0883;
415513508221007;-9.4837;2.2890;-2.0907;
415513518342153;-9.4095;2.5286;-2.0115;
415513528440486;-9.2779;2.5597;-1.9804;
415513538538819;-9.3329;2.2101;-1.9780;
415513548652257;-9.5004;1.7166;-2.0402;
415513558750590;-9.4669;1.5395;-2.1912;
415513568848923;-9.3209;1.5105;-2.3590;
415513578970278;-9.2874;1.5897;-2.4212;
415513589068611;-9.3185;1.6639;-2.2510;
415513599166944;-9.4143;1.7381;-2.1003;
415513609277100;-9.4765;1.9418;-2.1410;
415513619375382;-9.3975;2.1861;-2.1194;
415513629473767;-9.2850;2.4042;-2.0378;
415513639589444;-9.3066;2.5406;-1.9923;
415513649687778;-9.3688;2.5238;-1.9301;
415513659786111;-9.4621;2.1790;-1.9588;
415513669916007;-9.5124;1.7620;-2.1242;
415513680014340;-9.4478;1.5320;-2.3037;
415513690112673;-9.2922;1.5057;-2.3303;
415513700219757;-9.2513;1.5945;-2.2630;
415513710318090;-9.3951;1.6998;-2.1338;
415513720416423;-9.4597;1.7836;-2.0306;
415513730537153;-9.4262;1.9011;-2.0378;
415513740635486;-9.3879;2.0112;-2.1027;
415513750733819;-9.3257;2.0279;-2.0668;
415513760843975;-9.2970;2.0447;-1.9995;
415513770942361;-9.3281;2.0495;-1.9851;
415513781040694;-9.3473;1.9848;-2.0378;
415513791159757;-9.4334;1.7261;-2.1123;
415513801263142;-9.5291;1.3860;-2.1218;
415513811366528;-9.5291;1.2326;-2.1793;
415513821473507;-9.4837;1.2087;-2.2606;
415513831576892;-9.3736;1.2302;-2.2606;
415513841680278;-9.3592;1.2760;-2.2319;
415513851791736;-9.4669;1.4124;-2.1960;
415513861895121;-9.5148;1.6448;-2.0907;
415513871998507;-9.5124;1.8580;-2.0545;
415513882117569;-9.3592;2.0710;-2.0617;
415513892221007;-9.2707;2.2484;-2.0692;
415513902324392;-9.2201;2.2603;-2.0330;
415513912410903;-9.1077;2.5286;-2.0402;
415513922514288;-9.4095;2.5406;-2.2056;
415513932617725;-9.5916;2.0518;-1.9971;
415513942762517;-9.3999;2.0423;-1.9756;
415513952865955;-9.4190;1.9657;-2.1793;
415513962969340;-9.4119;1.7405;-2.1362;
415513973042153;-9.3353;1.7596;-2.0716;
415513983145538;-9.3497;2.0088;-2.1338;
415513993248923;-9.3712;2.2196;-2.1266;
415514003352882;-9.2803;2.3106;-1.9708;
415514013456267;-9.2874;2.5597;-1.9349;
415514023559653;-9.4334;2.6004;-1.9851;
415514033679600;-9.3808;2.4879;-1.9540;
415514043783038;-9.4047;2.2890;-1.9229;
415514053886475;-9.5533;2.0423;-2.0234;
415514063979496;-9.4573;1.9346;-2.0115;
415514074082934;-9.2513;1.8891;-2.0091;
415514084186319;-9.3018;1.8245;-2.1505;
415514094308350;-9.4525;1.5658;-2.1912;
415514104411788;-9.4573;1.5368;-2.1410;
415514114515173;-9.4143;1.6184;-2.1553;
415514124618038;-9.3257;1.5706;-2.1529;
415514134721475;-9.2249;1.5802;-2.1003;
415514144824861;-9.3784;1.6854;-2.1003;
415514154918142;-9.5964;1.7716;-2.1553;
415514165021528;-9.5868;1.5081;-2.1864;
415514175124913;-9.4717;1.2111;-2.2774;
415514185234965;-9.4023;1.0962;-2.3109;
415514195338350;-9.4190;0.9763;-2.3061;
415514205441736;-9.4837;0.9452;-2.3061;
415514215553715;-9.4119;1.1824;-2.4165;
415514225657100;-9.3209;1.2784;-2.4739;
415514235760486;-9.3233;1.2589;-2.4093;
415514245873559;-9.4645;1.1680;-2.4260;
415514255976996;-9.5773;0.9500;-2.3949;
415514266080382;-9.5052;0.8183;-2.2965;
415514276176736;-9.4143;0.6673;-2.3518;
415514286280121;-9.4286;0.4759;-2.4978;
415514296383507;-9.4932;0.2889;-2.6249;
415514306495850;-9.4430;0.2052;-2.6608;
415514316599288;-9.4573;0.3081;-2.7422;
415514326702673;-9.4262;0.6769;-2.6201;
415514336814705;-9.4525;1.1943;-2.4428;
415514346918142;-9.6275;1.5921;-2.4308;
415514357021528;-9.0957;1.8532;-1.8990;
415514367125330;-9.0048;2.9097;-1.9756;
415514377228767;-9.4430;3.2234;-1.8224;
415514387332153;-9.5390;3.3670;-1.6905;
415514397439705;-9.5052;3.5396;-1.8559;
415514407543142;-9.3568;3.3455;-1.9277;
415514417646528;-9.3329;2.5143;-1.7862;
415514427774132;-9.3568;1.9920;-1.7623;
415514437877517;-9.3903;1.9083;-2.0569;
415514447980903;-9.4645;1.7716;-2.2726;
415514458071267;-9.2707;1.7716;-1.9971;
415514468174705;-9.2345;1.8915;-1.6810;
415514478278090;-9.5028;2.2388;-1.8368;
415514488381580;-9.4430;2.5214;-1.8153;
415514498485017;-9.4047;2.5358;-1.9708;
415514508588403;-9.5291;2.2196;-2.0979;
415514518693455;-9.3903;2.0088;-1.8224;
415514528796892;-9.2560;2.1790;-1.7815;
415514538900278;-9.4980;1.9322;-2.0402;
415514549008246;-9.5701;1.5993;-2.1697;
415514559111684;-9.3281;1.8245;-2.2534;
415514569215069;-9.1651;2.3201;-2.2558;
415514579322153;-9.2273;2.6868;-2.1147;
415514589425538;-9.3305;2.8376;-1.8464;
415514599528923;-9.5291;2.8591;-1.8990;
415514609638246;-9.3544;2.8786;-2.0955;
415514619741684;-9.1101;2.9145;-2.3423;
415514629845069;-9.3401;2.4832;-2.4691;
415514639948142;-9.4406;1.6496;-2.2152;
415514650051580;-9.4167;1.0603;-2.1864;
415514660154965;-9.3473;0.8447;-2.4643;
415514670267621;-9.1938;0.8040;-2.5385;
415514680371059;-9.3497;1.1465;-2.5026;
415514690474444;-9.6156;1.7357;-2.4117;
415514700575486;-9.6491;1.1776;-1.8535;
415514710678871;-9.5725;0.6027;-1.8942;
415514720782257;-9.2632;0.6362;-2.3806;
415514730894340;-8.9662;1.0555;-2.8116;
415514740997778;-9.3592;0.9667;-2.8765;
415514751101163;-10.1091;0.0517;-2.2869;
415514761218403;-10.3196;-0.8273;-1.7121;
415514771321788;-9.5366;-0.2883;-1.8775;
415514781425225;-8.8131;0.5835;-2.4667;
415514791516580;-9.0311;0.7513;-2.7661;
415514801620955;-9.5438;1.0101;-2.4260;
415514811725330;-9.7615;1.8245;-1.9421;
415514821833038;-9.7400;2.5023;-1.7551;
415514831937413;-9.4119;2.6677;-1.4892;
415514842041788;-9.2249;2.8256;-1.5565;
415514852142830;-9.5219;2.9001;-2.0716;
415514862247205;-9.5773;2.3082;-2.1721;
415514872351580;-9.1890;1.6089;-1.9899;
415514882480694;-8.7915;1.5200;-2.1984;
415514892585069;-9.0072;1.7740;-2.4165;
415514902689444;-9.7472;1.8748;-2.2008;
415514912763663;-10.0370;2.2651;-1.9684;
415514922868038;-9.6323;2.7754;-2.1218;
415514932972413;-8.9973;2.4401;-2.0859;
415514943073767;-8.6955;1.7716;-1.9756;
415514953178142;-9.4167;1.1273;-2.2869;
415514963282517;-9.7854;0.8901;-2.6847;
415514973407413;-9.6634;0.3224;-2.8211;
415514983511788;-9.5390;0.0876;-2.9004;
415514993616163;-9.3377;0.4588;-2.5504;
415515003695955;-9.3712;0.6840;-2.0764;
415515013800330;-9.5315;0.6745;-2.1769;
415515023904757;-9.5868;0.3870;-2.6082;
415515034040642;-9.4502;0.3057;-2.8451;
415515044145017;-9.2513;0.4902;-2.6632;
415515054249392;-9.2755;1.2422;-2.5122;
415515064353559;-9.5605;1.9011;-2.2989;
415515074457934;-9.5940;2.5382;-1.8751;
415515084562309;-9.5195;3.1851;-1.7288;
415515094670278;-9.3090;3.3431;-1.8751;
415515104774653;-9.0096;2.9719;-1.9181;
415515114879028;-9.0526;2.5765;-2.1266;
415515124958246;-9.2946;2.4568;-2.3925;
415515135062621;-9.4119;2.3082;-2.2630;
415515145166996;-9.4669;2.1670;-1.9756;
415515155276267;-9.4190;2.2771;-1.8727;
415515165380642;-9.2417;2.3683;-1.8488;
415515175485017;-9.2178;2.4114;-2.0234;
415515185595173;-9.2755;2.3563;-2.2965;
415515195699548;-9.2608;2.4377;-2.3614;
415515205803923;-9.2632;2.6486;-2.2917;
415515215910121;-9.4789;2.7227;-2.0043;
415515226014496;-9.5462;2.5406;-1.6690;
415515236118871;-9.3066;2.8041;-1.8176;
415515246223350;-9.1866;2.9551;-2.2247;
415515256327725;-9.2130;2.7203;-2.3925;
415515266432100;-9.3257;2.2436;-2.3061;
415515276536267;-9.3473;1.8485;-2.1936;
415515286640642;-9.1579;1.8197;-2.1434;
415515296745017;-9.2225;1.8820;-2.1099;
415515306848507;-9.5243;1.8724;-1.9301;
415515316952882;-9.7041;1.8915;-1.8583;
415515327057257;-9.5773;1.9202;-1.9469;
415515337167413;-9.2731;1.9322;-2.1458;
415515347271788;-9.2273;1.8580;-2.3351;
415515357376163;-9.3855;1.8197;-2.3973;
415515367482830;-9.4095;1.7764;-2.3303;
415515377587205;-9.2946;1.7955;-2.4188;
415515387691580;-9.2297;1.8700;-2.5170;
415515397790746;-9.3449;1.7836;-2.2558;
415515407895121;-9.5076;1.7524;-2.0163;
415515417999496;-9.5076;1.8724;-2.0907;
415515428095121;-9.4119;1.8317;-2.1721;
415515438199496;-9.3353;1.5176;-2.3180;
415515448303871;-9.4143;1.3932;-2.4236;
415515458417830;-9.3903;1.6304;-2.3180;
415515468522205;-9.2632;1.6472;-2.4571;
415515478626580;-9.1053;1.9968;-2.7924;
415515488733767;-9.0933;2.1790;-3.2405;
415515498838142;-8.9710;2.0928;-3.6643;
415515508942517;-10.5281;1.2350;-2.8355;
415515519045538;-9.5629;0.7442;-1.0534;
415515529149913;-8.8274;0.8040;-1.6475;
415515539254288;-9.3257;2.0710;-3.6069;
415515549355955;-9.0335;2.0016;-2.6177;
415515559460330;-8.9686;1.7524;-1.7169;
415515569564705;-9.6491;1.4315;-2.7302;
415515579673246;-9.6610;1.4243;-3.1687;
415515589777621;-9.1388;1.6615;-2.1936;
415515599881996;-9.2058;2.2053;-2.0668;
415515609993507;-9.3975;1.9585;-2.9435;
415515620097882;-9.2273;1.7070;-2.9722;
415515630202257;-8.7171;1.8700;-2.9841;
415515640307100;-9.2513;1.6089;-3.1615;
415515650411475;-9.8384;0.3009;-3.1735;
415515660515850;-8.6716;-1.6226;-3.2453;
415515670618663;-8.7580;-0.5255;-2.2152;
415515680723038;-10.5999;2.3587;-1.7384;
415515690827413;-10.1234;3.7839;-1.6499;
415515700934340;-9.1340;3.1899;-1.9899;
415515711038715;-9.0646;2.4640;-3.4298;
415515721143090;-8.5065;0.9739;-2.1769;
415515731247621;-7.9579;0.2001;-0.5791;
415515741351996;-9.2513;0.6242;-1.8775;
415515751456371;-10.7055;1.1536;-3.4825;
415515761587465;-10.2191;1.8126;-4.1411;
415515771691840;-9.7926;2.5406;-6.4074;
415515781796215;-9.5342;3.0293;-8.0961;
415515791870017;-7.7207;1.9657;-4.9842;
415515801974548;-6.8414;-0.8082;0.2569;
415515812079132;-9.0168;-0.3051;-0.2174;
415515822176111;-11.2397;0.6362;-1.7623;
415515832280642;-10.7868;1.3406;-1.7671;
415515842385225;-9.5124;1.9274;-2.7350;
415515852499705;-8.9231;2.8065;-4.9244;
415515862604236;-8.2167;1.8891;-4.0549;
415515872708819;-7.3086;0.8614;-1.4270;
415515882833871;-8.5065;1.8437;-2.2056;
415515892938403;-9.9269;2.6629;-3.1086;
415515903042934;-9.6347;2.3563;0.3864;
415515913119184;-9.5557;2.4520;3.9676;
415515923223715;-10.7845;4.4593;0.2378;
415515933328246;-9.7807;4.8045;-3.7914;
415515943460538;-7.8978;4.5482;-5.4036;
415515953565069;-8.2190;4.2392;-5.6192;
415515963669600;-9.0742;4.2799;-4.3352;
415515973739548;-8.3794;3.5611;-1.7503;
415515983844132;-7.5003;3.2019;-1.1707;
415515993948663;-5.1120;1.8700;-0.9335;
415516004102934;-5.7562;3.2450;-2.9315;
415516014207465;-13.7477;6.1747;-13.9866;
415516024311996;-17.7290;6.4454;-20.1503;
415516034397413;-11.3019;4.2150;-8.4171;
415516044501944;-2.5801;2.1287;0.8773;
415516054606475;-0.8192;0.5118;1.7088;
415516064692621;-6.3984;0.6673;-1.4581;
415516074797153;-11.1703;1.9513;-2.7182;
415516084901736;-8.6118;2.2388;-1.0487;
415516095003871;-10.3196;3.5204;-7.3439;
415516105108403;-14.4712;3.4989;-11.3874;
415516115212934;-9.1268;1.8939;-5.4443;
415516125342205;-4.6902;0.5764;-3.2836;
415516135446736;-7.1145;-0.1567;-5.6599;
415516145551267;-10.7892;0.1355;-5.3103;
415516155640538;-9.6203;0.3105;-1.1013;
415516165745069;-8.1876;1.4602;-0.9646;
415516175849653;-9.0215;2.2196;-4.5365;
415516185955955;-10.4850;2.2101;-6.8504;
415516196060486;-11.3139;1.9992;-6.4744;
415516206165017;-9.4406;1.9490;-3.4513;
415516216269705;-5.9192;2.1191;-2.0354;
415516226374236;-6.3290;2.0880;-3.4155;
415516236478819;-8.2382;1.5969;-3.1974;
415516246585642;-7.9484;0.7032;-3.3529;
415516256690173;-10.5616;2.2651;-8.8125;
415516266794705;-12.8088;4.3708;-9.6844;
415516276895850;-9.1340;3.6138;-3.9808;
415516287000382;-5.2244;2.3273;-0.7756;
415516297104913;-6.6188;2.4257;-1.6475;
415516307214288;-10.5520;2.4162;-2.3662;
415516317318819;-10.8610;2.5023;-1.2401;
415516327423403;-9.1101;3.0556;-1.4653;
415516337534705;-7.3158;3.7887;-5.1449;
415516347639236;-8.7218;3.7552;-10.8102;
415516357743767;-11.7500;3.3215;-14.0584;
415516367850121;-9.2513;1.4770;-8.1081;
415516377954653;-4.5371;0.3727;-0.0592;
415516388059236;-5.2534;1.0149;0.8581;
415516398155121;-9.2249;1.2541;-3.0894;
415516408259653;-11.2612;0.3033;-3.9449;
415516418364184;-10.0155;0.1738;-1.6690;
415516428451580;-5.6916;2.0590;-3.3362;
415516438556111;-6.7146;1.7501;-7.3056;
415516448660642;-9.7591;1.7548;-8.3166;
415516458784288;-11.4936;1.4459;-4.1961;
415516468888819;-12.0206;1.9777;-2.3375;
415516478993350;-8.1326;2.6605;-3.3505;
415516489106892;-10.1450;4.1886;-6.1845;
415516499211423;-14.1885;4.4474;-3.9975;
415516509315955;-12.2554;3.5946;-0.7493;
415516519406684;-7.6223;4.7518;-5.3916;
415516529511215;-0.6826;5.7912;-10.6475;
415516539615746;2.5944;5.0919;-11.5648;
415516549722309;-6.2713;5.9973;-9.1454;
415516559826840;-8.8490;5.0847;-2.9315;
415516569931423;-13.5897;4.9887;-6.2874;
415516580052725;-17.9519;3.4128;-7.5811;
415516590157257;-6.9613;1.9968;1.7758;
415516600261788;-0.8456;3.7552;1.1506;
415516610355330;-3.0972;4.7037;-7.2171;
415516620459861;-7.1483;2.6797;-10.3672;
415516630564392;-4.3047;0.8590;-5.6958;
415516640665850;-15.4869;2.6366;-8.5155;
415516650770382;-24.8127;2.9743;-5.1329;
415516660874913;-19.5760;3.3790;6.4038;
415516670982830;-2.5152;1.5706;9.0485;
415516681087361;-1.0947;1.3884;-1.9875;
415516691191944;5.2893;0.4253;-8.8819;
415516701294496;6.5204;2.2555;-12.9565;
415516711399028;-5.9312;2.2196;-8.8651;
415516721503559;-23.1862;-1.3376;-3.3434;
415516731605434;-31.6397;0.4854;-0.5551;
415516741709965;-18.8477;-0.0921;7.5778;
415516751814496;-2.6016;-1.2251;4.7055;
415516761918715;1.6385;-1.5556;-3.9425;
415516772023246;-3.8136;-2.7126;-8.1942;
415516782127778;-13.2350;-1.1028;-5.6504;
415516792255434;-12.8423;-0.4035;0.2641;
415516802359913;-14.2125;1.0651;-0.5192;
415516812464444;-8.0369;1.3717;-2.8932;
415516822569028;-7.3851;-0.9951;-3.0942;
415516832699028;-9.3185;-2.8349;-2.1218;
415516842803507;-7.4477;-2.9426;-0.4472;
415516852908038;-13.7644;-1.8837;-5.0946;
415516863012569;-10.8515;-2.4634;-0.7660;
415516873060850;-4.7695;-1.8168;0.9757;
415516883165382;-10.7581;-1.1390;-4.9866;
415516893269913;-8.7844;-2.5379;-2.7278;
415516903406788;-10.1306;-0.8058;-4.3543;
415516913511319;-14.3922;-1.4336;-3.9951;
415516923615850;-8.1135;-1.3208;-0.3156;
415516933687934;-7.3636;0.1475;-6.1678;
415516943792517;-12.0039;-1.7641;-5.0539;
415516953897048;-8.0871;-2.2816;-0.4977;
415516964028975;-7.8571;-0.1567;-4.5676;
415516974133507;-9.5414;-2.1760;-2.0210;
415516984238038;-9.6706;-1.7952;-0.4496;
415516994313142;-10.6911;-1.5173;-1.6235;
415517004417673;-9.8504;0.3200;-2.0306;
415517014522205;-8.8825;1.7477;-4.4767;
415517024638038;-10.4803;0.7080;-3.6909;
415517034742621;-12.9978;-0.8417;-0.6317;
415517044847153;-14.4951;-1.2227;-0.6987;
415517054948142;-4.6328;4.2030;-3.5231;
415517065052673;3.5213;2.7395;-3.4178;
415517075157257;1.0828;3.2186;-12.8608;
415517085279080;-9.6873;1.8126;-13.8526;
415517095383611;-15.9060;-2.1018;-2.9148;
415517105488142;-15.8510;1.6615;-9.1454;
415517115590538;-13.1034;4.9074;-12.2282;
415517125695069;-5.1407;3.4750;0.5515;
415517135799600;2.5226;2.3970;3.9700;
415517145896996;-5.5457;2.9264;-4.9938;
415517156001528;-14.6100;1.0172;-10.0627;
415517166106059;-16.9600;1.8051;-4.9268;
415517176208455;-11.6587;4.1432;-3.9808;
415517186312986;-5.5576;2.8448;-2.7039;
415517196417569;-4.2640;1.5467;-2.6273;
415517206528663;-7.1746;1.1728;-5.2382;
415517216633194;-7.4094;1.3478;-7.2290;
415517226737725;-7.3014;1.2808;-8.3405;
415517236836788;-9.9652;1.2808;-6.2755;
415517246941319;-13.3525;1.0026;-3.7005;
415517257081215;-9.6491;1.2350;-2.7087;
415517267185798;-5.3372;0.9476;-1.5156;
415517277290330;-6.4463;0.7128;-2.4715;
415517287361423;-9.3377;-0.8489;-3.5279;
415517297465955;-7.4070;-0.2333;-0.2079;
415517307570486;-12.4588;-0.1208;-3.2692;
415517317675538;-18.7185;-1.7737;-5.3940;
415517327780069;-9.9987;-2.0539;-1.7551;
415517337884600;-3.0398;-1.2778;0.4104;
415517347991840;-0.4839;-3.5031;0.7552;
415517358096371;-7.3134;-5.3261;0.0748;
415517368200903;-21.4421;-4.6098;-4.8742;
415517378301892;-18.6177;-4.3128;-5.9210;
415517388406423;-4.9753;-1.6681;-0.5312;
415517398510955;-8.8825;-0.8010;-1.5900;
415517408627413;-13.8724;-4.0062;11.5110;
415517418731944;0.6446;-2.8373;14.1245;
415517428836528;-5.8499;1.5129;-18.3775;
415517438933038;-34.8545;0.2865;-23.4177;
415517449037569;-1.3558;-2.8636;17.4541;
415517459142100;14.8041;0.7585;4.1928;
415517469252621;-20.2564;-2.0109;-24.2273;
415517479357153;-24.5898;-4.6627;-8.1512;
415517489461684;3.2004;0.8231;1.1073;
415517499557517;-1.0373;2.8615;-7.2841;
415517509662048;-16.1336;-1.1988;-7.3511;
415517519766580;-16.5123;-0.1113;-5.1042;
415517529870642;-0.4911;4.0786;-1.0917;
415517539975173;-1.8063;0.9069;-6.2037;
415517550079757;-17.9040;-0.2788;-6.5844;
415517560194600;-3.6051;1.8963;3.1579;
415517570299132;2.4553;1.4889;-4.1267;
415517580403663;-16.1719;-1.5030;-15.4983;
415517590503923;-9.9054;-0.4657;-7.9813;
415517600608455;-5.2989;0.3679;-6.2324;
415517610712986;-18.9269;-0.1663;-8.2304;
415517620819184;-16.4833;0.7801;-0.0257;
415517630923715;-2.7212;3.9805;0.7839;
415517641028246;-4.4940;0.9093;-4.0143;
415517651134080;-6.1588;-0.6814;-2.8522;
415517661238611;-8.9949;-0.8656;-5.8158;
415517671343194;-13.2470;-1.6107;-6.4122;
415517681415069;-6.9087;-1.6442;-4.1602;
415517691519600;-8.6189;-1.1243;-8.7308;
415517701624132;-13.5033;-1.7354;-7.9669;
415517711759080;-4.2544;-2.2146;-1.7384;
415517721863611;-8.1613;0.1546;-2.6752;
415517731968142;-11.1751;0.3727;-2.5385;
415517742072517;-12.4588;1.9418;-1.8057;
415517752177048;-8.0824;2.9001;-0.1911;
415517762281632;-6.4152;0.9476;-0.3826;
415517772382934;-8.6237;0.2937;-5.2525;
415517782487465;-12.8184;0.0924;-8.1033;
415517792592048;-14.3611;0.2818;-0.6891;
415517802714236;-6.6787;0.6290;-0.5934;
415517812818767;-6.3434;-1.1004;-6.0096;
415517822923298;-5.6653;-0.3003;-2.0306;
415517833021580;2.6901;-0.2118;-2.1505;
415517843126163;-23.6842;-0.1591;-5.2525;
415517853230694;-32.0734;2.6438;-4.2730;
415517863318871;-1.9905;3.6906;2.0225;
415517873423403;12.3416;2.1311;6.9141;
415517883527934;-4.5586;-2.0420;-5.3175;
415517893624028;-20.7712;-1.7282;-14.2454;
415517903728559;-17.8176;-1.4671;-9.2243;
415517913833142;-10.6098;-2.4060;-2.1673;
415517923997882;-2.9034;-0.6933;2.0680;
415517934102413;-2.9249;-1.2538;2.2813;
415517944206944;-7.2009;0.3679;-0.6772;
415517954257205;-10.2503;2.3468;-5.5714;
415517964361736;-13.9202;0.5118;-6.2157;
415517974466267;-13.6567;1.5730;-5.3773;
415517984619496;-6.0799;-0.9808;-0.6293;
415517994724028;-5.0521;-1.9487;-1.4533;
415518004828559;-14.2938;-0.0682;-2.3276;
415518014895121;-11.1197;-0.8584;-1.9181;
415518024999653;-8.2238;-0.0730;-4.8311;
415518035104236;-9.0311;-0.8321;-2.2989;
415518045214913;-7.2703;-0.2716;-0.4642;
415518055319444;-6.4750;0.3559;-4.0669;
415518065424028;-10.3077;-1.5006;-8.8627;
415518075536996;-13.3238;-1.2562;-10.3119;
415518085641528;-8.6453;-0.0153;-2.3997;
415518095746059;-4.1273;0.4038;-2.1003;
415518105857517;-6.6643;0.9045;-3.7484;
415518115962048;-11.0336;0.5572;-6.5079;
415518126066580;-12.7920;1.1201;-8.5513;
415518136157934;-9.7519;0.0182;-4.9268;
415518146262465;-7.7997;-0.4537;-0.3921;
415518156367048;-5.9456;0.5405;0.7481;
415518166476788;-7.4524;0.1666;-3.3673;
415518176581319;-13.8724;-0.1304;-6.5844;
415518186685850;-10.1306;-1.2084;-2.2271;
415518196792257;-5.3157;-1.7282;-1.0175;
415518206896788;-7.5242;-1.8957;-4.0573;
415518217001319;-7.3756;-3.3978;-3.3745;
415518227098350;-9.9844;-2.7942;-7.2673;
415518237202882;-17.2259;-3.2372;-11.0713;
415518247307413;-9.8862;-4.2027;-2.5672;
415518257413246;-0.0479;-3.2925;-0.1286;
415518267517621;-9.4956;-2.0204;-6.4720;
415518277622048;-11.8863;-0.4131;-2.0617;
415518287729392;-10.1593;-0.0655;-1.7049;
415518297833767;-8.1829;0.6027;-2.7517;
415518307938194;-8.7051;1.4674;-2.1434;
415518318050017;-11.0432;0.2841;-3.3003;
415518328154392;-10.2742;1.5344;-0.5145;
415518338258819;-6.0607;2.3154;-2.9339;
415518348369600;-9.2417;2.3177;-6.1415;
415518358473975;-14.5119;1.4985;-3.2572;
415518368578403;-9.6778;1.5706;-3.7651;
415518378665955;-6.9302;2.1598;-4.2562;
415518388770330;-8.6644;1.2951;-1.3672;
415518398874757;-10.8108;1.2254;-2.1218;
415518408987517;-8.6094;1.9274;-3.9808;
415518419091892;-7.8595;1.5224;-2.4284;
415518429196319;-11.0408;0.8734;-2.0545;
415518439296996;-10.6361;1.8365;-1.0845;
415518449401371;-7.0786;1.2661;-1.4342;
415518459505798;-5.4808;0.6960;-2.9722;
415518469613455;-9.2034;1.2470;-6.3353;
415518479717830;-13.2254;0.4950;-4.4189;
415518489822257;-11.0575;-0.1639;-0.5886;
415518499926580;-6.9541;-0.8082;-1.3098;
415518510030955;-7.8763;-1.1028;-3.7890;
415518520135382;-10.0442;-1.8742;-1.2425;
415518530244705;-10.4444;-0.8755;-1.4557;
415518540349080;-9.5964;-1.0214;-2.5624;
415518550453507;-7.9651;-1.6035;-5.1903;
415518560561163;-6.5683;-1.7402;-3.2740;
415518570665538;-6.0126;-0.8922;-3.7914;
415518580769965;-11.6396;-1.3304;-7.2769;
415518590887725;-9.9939;-2.0731;-6.2300;
415518600992100;-5.0689;-1.2969;-0.4041;
415518611096528;-14.6940;-0.0583;-3.7866;
415518621178767;-17.1876;-1.0789;-5.3079;
415518631283142;-8.4177;-1.4527;-0.7899;
415518641387569;-2.3067;0.9212;1.5075;
415518651487413;-6.4463;0.6362;-1.9947;
415518661591788;-9.1651;-1.3831;-4.1483;
415518671696215;-17.1876;0.1499;-4.7952;
415518681816059;-10.4707;0.3105;-2.9124;
415518691920434;-6.4080;0.0829;-3.5997;
415518702024861;-9.7591;-0.3218;-3.1301;
415518712128975;-5.7682;0.4421;-1.7527;
415518722233403;-8.2837;0.3918;-6.3353;
415518732337778;-13.8867;0.9141;-6.8695;
415518742434496;-11.8361;1.8413;-2.3471;
415518752538871;-5.3898;2.1024;-1.7288;
415518762643298;-6.1636;0.6266;-6.4457;
415518772751684;-11.5726;0.1857;-3.3601;
415518782856059;-9.4837;1.6615;1.6630;
415518792960486;-8.3554;2.7491;-2.1529;
415518803075330;-9.2154;1.4171;-4.6202;
415518813179705;-7.2870;1.5610;-0.5671;
415518823284132;-4.9370;2.3468;-0.8378;
415518833376996;-9.0790;1.1680;-9.9335;
415518843481371;-15.0604;0.1044;-13.3376;
415518853585798;-11.5104;-2.0204;-2.3710;
415518863673767;-2.2205;-0.6861;1.3277;
415518873778194;-8.0656;0.1905;-3.8201;
415518883882621;-10.6672;-1.9606;-3.2620;
415518893988142;-11.1727;-2.0492;-6.5629;
415518904092517;-14.3779;-0.3485;-5.7174;
415518914196944;-4.2066;-0.1089;3.7113;
415518924328298;-3.5716;-0.0488;-1.8559;
415518934432673;-9.5390;-0.5399;-6.1654;
415518944537100;-14.7897;-0.9879;-3.4370;
415518954633350;-18.4286;-0.1687;-4.3496;
415518964737725;-11.0791;0.8064;-0.1836;
415518974842153;-3.5261;0.6529;1.7638;
415518984932413;-4.9947;-0.1448;-1.0869;
415518995036788;-7.9484;-0.4920;-3.4729;
415519005141215;-10.8900;-1.3352;-8.8244;
415519015256267;-11.3761;-0.2596;-4.7040;
415519025360642;-5.6127;0.1451;-1.0343;
415519035465069;-9.3329;-0.8584;-6.9488;
415519045570434;-11.9895;-0.7507;-3.6212;
415519055674861;-7.2153;0.3344;-1.3146;
415519065779236;-11.1823;-1.2514;-4.5006;
415519075887517;-8.3339;-0.1137;-3.1110;
415519085991892;-8.2143;-0.5566;-2.9794;
415519096096319;-11.9489;0.2770;-1.4438;
415519106189913;-8.0943;0.3846;-0.5671;
415519116294288;-5.3683;-0.9975;-4.5269;
415519126398715;-12.6529;-0.1376;-3.2524;
415519136516371;-11.3737;1.1489;-0.9455;
415519146620746;-4.8245;0.9236;-2.1099;
415519156725173;-11.8385;-0.7364;-6.9464;
415519166821007;-13.7596;-0.5088;-6.2468;
415519176925382;-7.6247;-0.7149;-1.8200;
415519187029809;-5.1622;-0.6072;-1.3265;
415519197141163;-11.0169;0.5883;-1.9828;
415519207245538;-12.6290;0.4134;-3.5877;
415519217349965;-3.9981;1.9011;-2.1458;
415519227460590;-5.6797;0.6625;-3.5877;
415519237564965;-18.7687;0.5213;-1.4605;
415519247669392;-15.1852;1.3597;-2.6776;
415519257769340;-3.4304;0.3272;-3.2501;
415519267873923;-4.4028;-0.9449;-2.8789;
415519277978455;-8.3842;-0.4298;-1.8248;
415519288089340;-7.4644;0.0182;-5.0492;
415519298193923;-13.4818;-0.5638;-8.0004;
415519308298455;-12.5453;-0.1424;-4.1937;
415519318399184;-4.4076;1.3836;1.7806;
415519328503767;-5.9839;0.9188;-2.6393;
415519338608298;-11.4841;-0.2764;-5.9713;
415519348716684;-11.6707;0.2626;-4.4285;
415519358821267;-7.5027;0.7657;-2.0668;
415519368925798;-8.2167;-0.8417;-3.5016;
415519379023350;-10.4252;0.0661;-2.0234;
415519389127934;-7.2464;-0.7507;-2.9794;
415519399232465;-11.2564;-0.2644;-5.4323;
415519409337725;-10.5209;0.1355;-1.4605;
415519419442309;-4.0866;-0.4561;-0.2509;
415519429546840;-9.4717;-2.1090;-9.7107;
415519439644288;-16.2990;-2.9498;-10.3071;
415519449748871;-12.0996;-1.0095;1.8858;
415519459853455;-2.5582;0.3631;2.9471;
415519469965746;-18.0667;-0.7507;-2.9100;
415519480070330;-2.6973;0.5955;-2.2726;
415519490174861;3.3009;-0.0033;-3.0990;
415519500285955;-13.5392;-0.2142;-7.6193;
415519510390538;-20.4933;0.4134;-5.1138;
415519520495069;-10.2024;1.5248;1.9265;
415519530594288;-2.4410;1.1058;-1.2138;
415519540698871;-8.1757;0.4253;-5.8636;
415519550803403;-10.0681;0.1905;-3.1400;
415519560925903;-9.5414;0.4421;-1.2930;
415519571030538;-9.0287;0.5285;-5.0635;
415519581135069;-10.2144;0.4038;-3.6718;
415519591238038;-3.7370;-0.3963;-2.0521;
415519601342621;-4.8174;0.1953;-6.5988;
415519611447205;-21.7343;0.2387;-3.7077;
415519621536475;-15.1394;0.3248;1.6223;
415519631641059;-4.8532;1.0771;-2.3734;
415519641745642;-3.5118;0.2219;-3.4418;
415519651844809;-9.3736;1.1943;-2.2128;
415519661949392;-10.1282;-0.7938;-0.7708;
415519672053923;-13.6113;0.7513;-3.2764;
415519682185538;-7.7040;2.0160;-1.7288;
415519692290121;-6.1086;1.0699;-2.7015;
415519702394653;-16.1958;0.8758;-5.3677;
415519712480121;-12.9619;1.0938;-2.3590;
415519722584705;-2.4601;1.2374;-2.1888;
415519732689236;-2.7500;0.5166;-4.2467;
415519742784288;-9.9580;-0.4011;-5.1784;
415519752888871;-13.1369;-0.1089;-4.1100;
415519762993455;-7.3732;0.2937;-3.1400;
415519773106684;-8.0034;0.2554;-0.7178;
415519783211267;-10.2646;-0.5997;-0.4400;
415519793315798;-13.3454;-1.1988;-5.2549;
415519803421371;-11.9318;-0.3532;-4.0358;
415519813525955;-8.3602;-0.3532;0.4869;
415519823630486;-6.3912;-1.3639;-2.4021;
415519833679392;-10.3774;-0.6120;-3.9927;
415519843783975;-11.0695;0.0326;-2.0545;
415519853888559;-8.0273;-0.9520;-2.5792;
415519864052621;-7.5697;-0.3437;-5.1209;
415519874157205;-9.8384;-0.8082;-4.8526;
415519884261736;-8.8298;-1.5102;-6.4672;
415519894372309;-9.9700;-1.2706;-7.1067;
415519904476892;-6.5659;-0.7077;-1.5278;
415519914581423;-7.6681;-1.2299;-0.3610;
415519924682517;-9.2513;-1.2826;-4.6131;
415519934787100;-13.9657;-0.6383;-5.4179;
415519944891684;-11.1341;-0.4825;2.0680;
415519954990017;-2.4194;-1.6537;-1.0199;
415519965094600;-9.8073;-1.5485;-12.7002;
415519975199132;-12.7247;-1.5891;-8.8436;
415519985321684;-8.3124;-1.2538;0.5898;
415519995426267;-10.2000;-1.2730;0.1899;
415520005530798;-11.2253;-1.9965;0.1636;
415520015612413;-6.9111;-2.0850;-1.5996;
415520025716996;-7.0905;-0.4202;-7.6552;
415520035821528;-12.1283;1.7907;-5.9976;
415520045929496;-7.4812;0.7729;-0.7612;
415520056034080;-8.6931;0.0039;-3.1400;
415520066138611;-11.6157;-0.0921;-4.5030;
415520076253038;-2.4745;0.2076;-2.7733;
415520086357621;-5.8020;1.4195;-7.0708;
415520096462205;-15.3024;2.4209;-6.8264;
415520106560538;-14.4832;-0.3266;-0.9936;
415520116665121;-7.7160;-2.7488;0.7528;
415520126769653;-6.2521;-0.3242;-2.5385;
415520136878142;-9.3688;0.4516;-3.1496;
415520146982725;-10.5712;0.2602;-3.3888;
415520157087257;-8.9806;0.8255;-3.3386;
415520167193507;-7.9699;1.2374;-3.4920;
415520177298090;-9.5462;1.6496;-4.0789;
415520187402621;-11.8935;1.5778;-2.6656;
415520197506684;-8.9447;1.4004;-0.5073;
415520207611267;-8.5208;1.3980;-2.5504;
415520217715798;-8.6836;2.3611;-4.3998;
415520227849600;-5.5696;2.4353;-5.5714;
415520237954184;-12.8542;2.0183;-4.1267;
415520248058715;-10.7342;1.8078;3.1340;
415520258130955;-12.3368;2.1550;1.8332;
415520268235590;-11.1966;1.3525;-6.0670;
415520278340225;-6.8390;1.3669;-7.2242;
415520288444705;-3.4926;1.2302;-1.5924;
415520298549340;-7.8787;0.9404;-2.0306;
415520308653975;-14.8424;1.0388;-4.1124;
415520318761163;-11.7380;0.4301;-1.0319;
415520328865798;-6.9374;0.3990;0.3984;
415520338970434;-7.1049;1.2206;-1.9732;
415520349069913;-11.3163;0.8160;-4.3950;
415520359174548;-8.9327;-0.5495;-2.3276;
415520369279184;-7.2177;-0.2142;-2.6345;
415520379382830;-10.5568;0.4902;-5.9043;
415520389487465;-13.3908;-0.5901;-1.2763;
415520399592153;-1.8757;-1.1653;0.5515;
415520409700017;5.0737;-1.3328;-6.8767;
415520419804653;-26.8200;-0.9138;-9.0592;
415520429909340;-26.9758;-0.2788;0.6090;
415520440024705;-1.3989;-1.3543;4.4061;
415520450129340;4.2544;-1.3041;-0.9287;
415520460233975;-6.8366;-3.5919;-6.1534;
415520470321423;-16.3995;-3.5847;-8.2926;
415520480426059;-13.1201;0.5070;-1.7985;
415520490530694;-4.7264;2.3827;1.4979;
415520500640590;-8.1999;-1.1916;-3.5542;
415520510745225;-9.4956;-2.6934;-5.4036;
415520520849861;-11.4793;-1.1892;-3.8082;
415520530956788;-9.5845;-0.1089;-2.3925;
415520541061423;-9.8527;0.5046;-3.1831;
415520551166059;-8.8035;-0.8680;-3.2788;
415520561265278;-11.8624;-0.4418;-1.5470;
415520571369913;-6.4630;2.2484;3.3425;
415520581474548;-0.1603;0.8375;-3.2859;
415520591598246;-22.1178;-6.1023;-19.1465;
415520601702882;-14.3707;-2.3342;-2.5193;
415520611807517;-0.4167;3.4295;7.0337;
415520621890955;-6.0894;-1.7091;-5.0515;
415520631995590;-12.5548;-2.5379;-4.9842;
415520642100278;-16.1528;0.5189;-3.0918;
415520652206892;-6.6667;2.9049;1.2368;
415520662311528;-1.8039;0.3918;-1.1396;
415520672416215;-12.2435;-2.7293;-6.1750;
415520682520017;-11.5008;0.7729;-4.8239;
415520692624653;-7.1097;2.1431;-3.3864;
415520702729288;-8.6070;-0.5447;-2.8717;
415520712833507;-11.5176;-0.0129;-3.4705;
415520722938142;-9.9652;0.7705;-4.0214;
415520733042830;-9.6323;-1.7737;-2.3901;
415520743143559;-7.3732;0.1379;-0.7325;
415520753248194;-11.6324;-0.6239;-4.9388;
415520763352830;-13.5416;-1.1291;-3.8225;
415520773476788;-3.1597;1.1608;0.5324;
415520783581423;-7.8308;-1.5102;-4.3711;
415520793686059;-15.1540;-1.5102;-6.8985;
415520803771475;-16.5817;1.0172;-1.5012;
415520813876111;-4.0531;2.9288;0.9805;
415520823980746;-3.2985;-1.2084;-0.2318;
415520834101996;-9.3377;-3.2085;-8.1296;
415520844206632;-12.5237;-1.1462;-8.3907;
415520854311267;-7.1339;2.3058;-2.0740;
415520864414184;-6.7289;3.8103;-0.9048;
415520874518819;-7.5721;-1.1868;-4.3711;
415520884623455;-10.7749;-0.7723;-5.0204;
415520894731996;-10.5401;0.8901;-2.5170;
415520904836632;-15.6640;2.2627;-1.6618;
415520914941319;-7.7853;2.0375;-0.3945;
415520925030330;-5.8355;-3.1965;0.0126;
415520935134965;-5.2173;-2.5738;-5.4299;
415520945239653;-12.1618;-0.3099;-8.7021;
415520955365069;-8.8202;-1.4623;-8.7694;
415520965469705;-9.4358;-0.4394;-5.2430;
415520975574340;-13.1632;3.9613;2.2430;
415520985661059;-10.5185;7.2742;3.7304;
415520995765694;-7.3062;3.8701;4.1258;
415521005870382;-11.8026;-0.2524;-2.1649;
415521015980330;-10.1617;-1.6107;-8.4099;
415521026084965;-2.8361;-1.3902;-4.9196;
415521036189653;-2.0746;-0.8082;-6.3619;
415521046293038;-10.0756;0.2746;-6.2013;
415521056397673;-6.8366;-0.3389;-9.4854;
415521066502361;-26.8870;-3.5007;-3.6093;
415521076602830;-12.7633;10.1201;10.0810;
415521086707465;2.6231;9.4828;9.8079;
415521096812153;-12.3320;-5.1488;-3.4681;
415521106918350;-14.6246;-7.8583;-12.7890;
415521117022986;-2.7643;-0.6526;-8.9273;
415521127127621;-9.9341;0.9452;-3.7866;
415521137234600;-10.8733;-0.1400;-6.1941;
415521147339236;-11.4147;1.3980;1.5888;
415521157443871;-9.4525;3.4175;0.4630;
415521167547100;-12.4086;0.8614;-0.2007;
415521177651736;-13.5416;-0.3915;-0.7325;
415521187756423;-5.8020;4.4163;2.0680;
415521197861684;-4.1946;1.5586;-3.7029;
415521207966319;-7.0905;-4.7536;-5.6719;
415521218070955;-4.3765;-0.7292;-14.3148;
415521228179392;-13.0866;-6.3873;-14.4515;
415521238284028;-10.9786;-4.6146;-1.7336;
415521248388663;-5.0450;7.1447;5.8170;
415521258490850;-14.8448;6.6057;6.2602;
415521268595486;-14.4353;-0.3867;1.3756;
415521278700173;-7.9170;-1.0860;-4.5150;
415521288809705;-9.6849;-5.3213;-7.7106;
415521298914340;-6.3096;-2.4395;-6.4481;
415521309019028;-6.7576;-3.2635;-8.0004;
415521319117413;-10.4874;-1.3902;-3.8082;
415521329222048;-9.9987;1.4770;-3.3673;
415521339326736;-12.8925;1.4459;0.7074;
415521349434705;-9.4286;2.9408;1.5434;
415521359539340;-11.5798;1.8365;-0.5527;
415521369644028;-7.6801;-0.5088;-3.5136;
415521379749080;-3.1167;-0.1711;-2.6297;
415521389853715;-5.5167;0.0015;-9.6700;
415521399958403;-16.2150;-3.0769;-12.0559;
415521410066892;-8.2478;4.2248;-1.4773;
415521420171528;-1.8805;9.3727;1.3014;
415521430276215;-11.0169;1.5200;-2.8789;
415521440380330;-16.8021;0.1403;-7.3774;
415521450484965;-7.7686;3.5252;-2.0354;
415521460589653;0.0502;0.9045;0.0724;
415521470685330;-9.7926;-1.1821;-6.0550;
415521480789965;-18.6153;-1.0454;-9.1837;
415521490894653;-12.8112;2.8711;0.0556;
415521501004184;-6.0559;4.2200;4.8730;
415521511108819;-9.5172;-0.0153;1.3828;
415521521213507;-9.8767;0.1259;-0.1765;
415521531307934;-4.6496;-0.6502;-5.7461;
415521541412569;-14.4090;-3.4768;-9.5958;
415521551517205;-8.8657;0.3176;-4.4285;
415521561651632;-0.7235;3.0843;-0.2749;
415521571756267;-10.1641;1.7931;-0.6126;
415521581860955;-15.3000;1.1010;-5.3964;
415521591965590;-10.7533;0.8423;-2.3853;
415521602041267;-5.0474;0.5788;1.6822;
415521612145903;-5.5959;0.3966;-3.6742;
415521622250538;-12.0637;-3.0625;-7.3869;
415521632360017;-13.3119;-2.6862;-8.6183;
415521642464653;-6.0006;0.6290;-3.0081;
415521652569288;-9.7041;1.2230;0.2856;
415521662672830;-12.2842;0.9500;-1.2595;
415521672777465;-10.4324;2.1335;0.1875;
415521682882153;-10.0466;1.7285;-0.3634;
415521692991423;-10.9259;0.2889;-3.2477;
415521703096059;-9.1460;0.4854;-1.4557;
415521713200694;-8.5400;0.8518;-2.0979;
415521723289705;-6.2330;0.1786;-4.3687;
415521733394340;-10.0851;-2.5187;-7.1788;
415521743498975;-9.4478;-0.3532;-4.1626;
415521753618455;-8.1661;3.5850;-1.5876;
415521763723090;-11.9390;2.1861;1.2511;
415521773827778;-9.3401;1.8604;-0.6389;
415521783931319;-10.9738;-0.0897;-0.8426;
415521794036007;-8.8107;-0.1639;-3.3171;
415521804140642;-10.3702;-2.9856;-5.6121;
415521814246319;-8.3387;-1.0717;-3.6742;
415521824350955;-7.5314;0.6266;-3.5088;
415521834455642;-12.4708;-1.6226;-3.9135;
415521844579080;-9.9150;0.1211;-2.3375;
415521854683715;-5.5337;2.4736;-2.0258;
415521864788403;-11.2014;-1.6585;-4.4022;
415521874868246;-11.5391;-0.1472;-3.6428;
415521884972882;-5.3444;3.7457;-0.0520;
415521895077569;-8.6524;0.0637;-2.6393;
415521905200330;-12.7777;-0.4872;-4.7833;
415521915304965;-11.0336;-0.4370;-3.5375;
415521925409600;-9.6562;0.6338;-2.1553;
415521935497100;-4.2832;-0.0754;-2.2510;
415521945601736;-8.5424;-1.9172;-4.0645;
415521955706423;-15.5707;-1.5604;-5.4467;
415521965813663;-9.4143;2.7251;-2.4882;
415521975918298;-6.2785;2.1191;0.1851;
415521986022986;-7.3636;0.3511;-2.5768;
415521996119705;-8.3961;-1.1844;-7.7991;
415522006224340;-13.1393;-0.6718;-7.0875;
415522016329028;-8.3435;2.8161;-1.6714;
415522026436371;-6.8103;3.8270;-0.2294;
415522036541007;-9.4334;-0.2142;-2.4906;
415522046645694;-11.8313;-0.2213;-5.7293;
415522056757100;-8.6740;-0.2477;-4.6059;
415522066861736;-8.9327;0.1666;-4.4620;
415522076966423;-10.4085;1.4483;-0.6365;
415522087094600;-6.2952;3.0652;0.1875;
415522097199236;-8.4392;-0.6455;-5.5810;
415522107303923;-11.5965;-3.7953;-7.6265;
415522117384392;-9.7328;0.4038;-3.9592;
415522127489028;-9.3808;2.6028;-0.1382;
415522137593715;-6.9398;2.7826;0.7887;
415522147696423;-10.6217;-0.8225;-2.8379;
415522157801059;-10.2024;-1.4767;-5.3414;
415522167905746;-9.1173;0.5955;-3.6909;
415522178011007;-11.1054;1.7548;-2.5959;
415522188115642;-8.1374;1.1225;-0.7011;
415522198220330;-8.6022;-0.1615;-1.6355;
415522208334705;-9.8216;-0.4250;-4.2826;
415522218439340;-8.7796;-0.7436;-3.4226;
415522228543975;-10.0035;0.1977;-3.8177;
415522238641371;-9.3616;0.4397;-2.7613;
415522248746007;-7.8547;2.0351;-0.0401;
415522258850694;-8.5735;-0.3123;-2.7805;
415522268964184;-11.7284;-1.1100;-5.7987;
415522279068923;-9.6754;0.5955;-1.1922;
415522289173611;-8.0824;0.8566;-1.3050;
415522299269392;-9.7639;-0.1998;-2.8116;
415522309374132;-3.1092;-0.9042;-2.8618;
415522319478819;-15.5611;-1.6298;-6.2922;
415522329604496;-12.6841;1.7859;-2.0692;
415522339709236;-6.4080;1.7429;-0.2653;
415522349813923;-5.9958;-1.6490;-0.8833;
415522359903923;-9.5533;-0.5471;-5.2597;
415522370008663;-10.1378;-0.3290;-6.1391;
415522380113350;-9.6084;2.0423;-1.8296;
415522390211788;-11.1631;3.0126;-1.1396;
415522400316528;-9.1149;1.9992;-1.0582;
415522410421215;-10.4085;1.3095;-2.1170;
415522420523871;-11.5678;0.6793;-2.7757;
415522430628611;-5.2005;0.7848;-3.4274;
415522440733298;-11.4721;-1.4647;-1.3457;
415522450841840;0.0909;2.8834;-0.5743;
415522460946580;-15.2809;0.7152;-11.3420;
415522471051267;-18.8620;-1.2778;-5.0061;
415522481147725;-4.7623;5.6596;5.1580;
415522491252465;-5.0306;4.2751;2.8370;
415522501357153;-14.2388;-0.3147;-2.7470;
415522511470850;-8.6883;0.5524;-3.9449;
415522521575538;-6.4774;-0.0778;-4.9747;
415522531680278;-8.4682;-1.3711;-6.8743;
415522541780538;-8.7485;-0.7029;-4.7279;
415522551885278;-10.8132;0.8040;-3.0823;
415522561989965;-10.6505;2.2484;0.6954;
415522572095330;-8.8896;2.3731;0.3024;
415522582200017;-11.4864;0.2554;-0.2892;
415522592304757;-4.2520;1.0172;-1.2233;
415522602431475;-9.2034;-2.0348;-8.8603;
415522612536215;-13.9298;-3.1726;-6.7594;
415522622640903;-2.6806;-0.4801;-1.1444;
415522632719809;-9.6826;-1.1486;-5.7245;
415522642824548;-15.5204;-1.1581;-1.1420;
415522652929236;-10.4922;2.7227;3.2922;
415522663032413;-9.0885;2.5358;-0.4690;
415522673137153;-8.3746;-2.4757;-1.1946;
415522683241840;-6.5085;-0.7460;-2.1123;
415522693348663;-10.1139;-1.6947;-8.9991;
415522703453403;-12.6242;-1.3448;-6.3619;
415522713558090;-8.2813;1.9801;0.1181;
415522723655434;-8.4392;2.0952;-2.7805;
415522733760173;-7.8715;1.2470;-3.6500;
415522743864861;-8.4512;0.0924;-3.8154;
415522753981528;-4.4533;0.0805;-5.6025;
415522764086267;-14.1455;0.6338;-2.7039;
415522774191007;-11.7500;2.9025;-2.2128;
415522784277830;-8.9566;-0.2788;-3.1472;
415522794385278;-8.7194;-1.4288;-2.2223;
415522804489965;-0.1507;0.0087;-1.8894;
415522814594705;-14.3297;-1.8431;-6.2755;
415522824702413;-20.6133;2.7538;-3.8776;
415522834807153;-2.4147;2.5190;0.5970;
415522844911840;-4.4028;-1.9941;-2.3351;
415522855042205;-13.7692;-1.6466;-6.8169;
415522865146944;-16.0211;1.0220;-1.1659;
415522875251632;-7.7806;2.4473;2.4440;
415522885346215;-4.2209;0.5548;-0.4762;
415522895450955;-4.1680;-1.1940;-6.9990;
415522905555642;-19.0609;-1.7833;-7.5188;
415522915650225;-9.8862;2.2077;0.6090;
415522925754965;-6.8486;2.0662;-2.4667;
415522935859653;-4.1177;0.2602;-1.5541;
415522945966580;0.4648;-0.2548;-3.1062;
415522956071319;-25.7372;-1.4192;-17.4123;
415522966176007;-15.9323;2.0662;0.9230;
415522976300330;7.5649;2.9312;8.8208;
415522986405069;-14.5190;-1.5197;-9.0233;
415522996509757;-12.9093;-1.3065;-8.0985;
415523006596475;-12.1642;-0.0631;-0.7325;
415523016701215;-10.5377;0.6362;0.0652;
415523026805903;1.3774;-0.5542;-0.7107;
415523036908246;-12.3440;-0.8608;-8.3070;
415523047012986;-22.1680;1.0531;-6.7499;
415523057117673;-1.0086;0.8806;1.3780;
415523067220642;-8.5161;0.9356;0.7265;
415523077325382;-5.6773;1.0436;-3.1950;
415523087430069;-9.2369;-0.1831;-9.6485;
415523097530955;-16.8332;0.1786;-6.4409;
415523107635694;-6.7217;2.1885;5.9198;
415523117740382;-5.6725;0.0398;-5.9426;
415523127863455;-10.3487;-1.6851;-7.7847;
415523137968194;-7.2153;-0.4202;0.3191;
415523148072882;-12.9284;0.4516;-4.3687;
415523158176371;-13.7118;1.8843;-0.5743;
415523168281111;-2.0001;0.6338;-1.0487;
415523178385798;-11.3234;-1.3639;-6.8169;
415523188473663;-14.7778;0.3655;0.0966;
415523198578403;-3.7872;1.9107;-0.4089;
415523208683090;-9.9628;-0.0129;-5.5546;
415523218800330;-10.3726;0.6577;-3.0296;
415523228905069;-7.2799;0.6386;-1.2882;
415523239009757;-13.0074;0.7657;-4.6513;
415523249115330;-9.3855;-0.1902;-2.3638;
415523259220069;-9.6778;0.8662;2.2717;
415523269324757;-12.6912;1.9274;-1.9780;
415523279424705;-3.7178;0.4421;-4.7713;
415523289529444;-10.2598;-1.5604;-6.9129;
415523299634132;-6.9829;-0.4298;-2.0569;
415523309741892;-2.5825;1.4937;-3.8776;
415523319846632;-18.3230;1.2999;-9.6963;
415523329951319;-11.2421;1.3023;0.7361;
415523340059809;-3.8925;1.3167;3.6227;
415523350164548;-16.9217;1.6304;-4.7207;
415523360269236;-6.9613;-0.3987;-0.9718;
415523370369705;-4.4124;-1.4121;-2.3925;
415523380474444;-9.3090;-0.1065;-7.3080;
415523390579132;-7.6439;-0.7196;-6.5318;
415523400675173;-19.5138;1.7836;-3.8321;
415523410779913;-8.9638;1.6017;2.7604;
415523420884600;-2.7595;0.1642;2.6285;
415523431001580;-10.7366;1.2951;-3.1639;
415523441106319;-13.6256;1.1560;-3.5327;
415523451211007;-7.0594;0.3081;-0.9574;
415523461310538;-7.0738;-0.6407;-4.6609;
415523471415278;-10.0466;0.0063;-5.9785;
415523481520017;-11.1727;0.4807;-4.5604;
415523491615538;-11.0886;1.9107;-1.0415;
415523501720278;-7.5936;1.0101;-0.1741;
415523511824965;-5.9647;0.6170;-0.1406;
415523521945330;-3.2626;0.4062;-5.7556;
415523532050017;-18.5554;1.1345;-11.1383;
415523542154757;-11.8816;-0.0296;-1.3576;
415523552253038;-3.3897;0.5644;3.2441;
415523562357725;-7.0762;0.2698;-4.0071;
415523572462465;-14.1694;-0.5495;-7.2218;
415523582575330;-9.6084;-0.4107;-0.4208;
415523592680017;-6.1708;0.7490;-0.6150;
415523602784705;-10.3125;0.4421;-5.2573;
415523612877517;-12.0948;-0.2644;-2.6560;
415523622982257;-13.6998;2.0518;0.5133;
415523633086944;-2.0889;0.2387;-0.5192;
415523643206684;-8.8274;-0.5447;-5.2597;
415523653311371;-16.2799;1.1632;-3.1086;
415523663416111;-9.7089;1.2111;-0.7516;
415523673561684;-6.7289;-1.1219;-3.2333;
415523683666423;-10.7725;-0.2429;-2.7182;
415523693771111;-8.7317;1.3406;-1.1420;
415523703816788;-6.2713;0.4062;-4.6609;
415523713921475;-10.2383;0.0661;-5.0779;
415523724026215;-8.0560;1.6065;-2.8044;
415523734170955;-6.2210;1.9705;-3.2572;
415523744275694;-10.7510;-0.2477;-7.3989;
415523754380382;-16.6965;0.1666;-4.4692;
415523764458142;-5.1861;-0.0921;4.0920;
415523774562882;-4.2425;0.4325;-2.5433;
415523784667569;-14.0734;-0.0224;-10.6857;
415523794758194;-12.3224;-1.4791;-2.3734;
415523804862986;-6.3144;0.2770;2.4607;
415523814967725;-6.9350;0.2315;-3.2955;
415523825072621;-14.5214;0.2865;-6.6326;
415523835177413;-8.7963;1.3549;2.7314;
415523845282153;-4.8078;1.6328;0.3673;
415523855370278;-9.4860;0.9141;-7.5356;
415523865475121;-10.2503;1.4770;-6.1558;
415523875579861;-10.8084;0.9117;-1.9158;
415523885704913;-8.6979;0.0972;-1.0487;
415523895809653;-9.7519;-0.2166;-2.8068;
415523905914392;-11.2493;-0.0778;-1.4222;
415523916016684;-4.1970;-0.4513;-3.4274;
415523926121475;-10.9570;0.6147;-6.8913;
415523936226163;-14.8929;0.5620;-0.2198;
415523946322778;-4.4219;-0.1089;1.7040;
415523956427569;-6.5850;0.6242;-6.5198;
415523966532361;-11.8457;0.5429;-4.9938;
415523976632153;-10.5449;0.9547;-2.0210;
415523986736944;-12.5022;0.5070;0.2617;
415523996841684;-6.7840;-1.0358;0.2617;
415524006949705;-8.4897;0.6458;-6.3353;
415524017054496;-8.7844;1.4315;-3.7316;
415524027159236;-3.6051;0.1834;-3.3099;
415524037263663;-3.4663;1.2736;-11.0521;
415524047368455;-35.7625;4.3875;1.1264;
415524057473194;-21.4708;-3.8339;18.0245;
415524067577882;9.9461;-7.0893;7.6424;
415524077682673;9.1196;3.2019;-16.7414;
415524087787465;-15.9538;6.5052;-23.2597;
415524097895121;-9.1508;0.1953;-3.3314;
415524107999913;-16.7758;-0.8584;0.4941;
415524118104653;-26.1853;-1.0095;8.3393;
415524128204444;-0.3497;-3.0386;11.1422;
415524138309236;3.5022;0.5907;-6.3329;
415524148414028;-16.0905;3.9829;-12.5566;
415524158519653;-6.1014;0.6266;3.2417;
415524168624444;2.4434;3.0939;-10.2736;
415524178729184;-26.0653;-1.5532;-27.4253;
415524188832153;-21.8662;-2.9761;1.7471;
415524198936944;2.7069;0.0757;26.2744;
415524209041684;1.5595;-0.1974;6.1929;
415524219143715;-19.2263;0.2889;-15.4214;
415524229248507;-10.3292;2.7203;-7.3199;
415524239353298;-4.3908;-0.0057;-8.0961;
415524249466580;-16.8212;-1.7904;-8.5274;
415524259571371;-9.3185;-0.6766;7.4195;
415524269676111;-0.9365;1.3047;7.1943;
415524279780850;-10.6935;-0.2381;-9.3036;
415524289885642;-12.8088;-0.0993;-8.8986;
415524299990382;-9.7496;0.1714;0.3048;
415524310105642;-3.5309;-0.2883;-2.3782;
415524320210434;-11.8600;-0.5351;-8.9178;
415524330315173;-14.2340;-1.5054;-1.1396;
415524340435955;0.3520;-0.5279;3.9532;
415524350540746;-9.5390;-0.1615;-10.1516;
415524360645486;-20.3234;-1.1052;-4.5796;
415524370721475;-6.6811;-1.2251;4.9499;
415524380826267;-6.3721;-0.4896;-4.2993;
415524390930955;-8.7099;-0.2357;-4.0884;
415524401086163;-6.6356;-0.2500;-0.6700;
415524411190955;-13.0627;-1.1581;-6.1893;
415524421295642;-10.8805;-0.5423;-2.0883;
415524431348455;-5.0043;0.0900;0.0317;
415524441453194;-10.9810;-0.1687;-4.7521;
415524451557986;-14.3539;-0.1519;-3.7507;
415524461660955;-7.9193;-0.6287;0.1205;
415524471765694;-2.8914;1.0579;-2.3180;
415524481870434;-7.8236;-1.0765;-5.9545;
415524491977621;-15.0915;-1.1677;-8.9154;
415524502082413;-11.0695;-0.7316;-3.3793;
415524512187100;-8.7891;0.3679;1.9074;
415524522266423;-6.7433;-0.9066;-2.0764;
415524532371215;-10.3869;-1.0717;-4.8766;
415524542475955;-12.1762;-0.2596;-1.1970;
415524552600069;-7.7160;0.8853;-1.1707;
415524562704861;-8.2214;-0.4992;-5.6169;
415524572809600;-11.0575;-0.5686;-3.6694;
415524582884653;-6.7026;1.0555;-1.1444;
415524592989392;-7.3205;0.0422;-3.0105;
415524603094132;-8.1350;0.7466;-4.8383;
415524613239080;-10.4970;0.7801;-4.6107;
415524623343819;-9.6873;0.4134;-4.1746;
415524633448611;-10.0537;-0.1663;-2.5911;
415524643534288;-10.1952;-0.1878;-1.3648;
415524653639080;-8.8944;0.0637;-2.5289;
415524663743819;-8.0608;-1.1486;-3.6069;
415524673838715;-11.9919;-0.5279;-2.7230;
415524683943507;-13.9155;1.1130;-0.5815;
415524694048298;-10.6457;0.2937;0.7935;
415524704169757;-7.2512;-0.0754;0.0485;
415524714274548;-9.3138;0.7056;-1.9301;
415524724379288;-12.2363;0.4134;-2.6512;
415524734481684;-7.7949;0.8327;-1.4701;
415524744586475;-5.8642;0.2100;-4.6896;
415524754691267;-8.7171;1.2736;-4.2084;
415524764798194;-8.0369;0.9428;-5.9306;
415524774902986;-14.2555;1.0340;-5.6767;
415524785007725;-12.3775;0.6769;-0.6748;
415524795110434;-3.2459;1.1608;-0.6413;
415524805215069;-7.7806;0.0398;-6.6012;
415524815319653;-10.0035;-1.8694;-7.3726;
415524825425330;-11.2301;-0.8225;-3.3793;
415524835529965;-13.7788;0.4493;-1.0558;
415524845634548;-7.8452;0.1259;-1.6187;
415524855759392;2.4960;-1.3041;-1.7623;
415524865863975;-15.8988;1.4483;-2.2056;
415524875968611;-15.0174;1.5610;-2.8546;
415524886060642;-9.3568;2.4185;-1.0606;
415524896165278;-8.4921;0.2818;-0.8210;
415524906269861;-5.7778;-0.7101;-3.2333;
415524916368090;-6.7840;0.2411;-4.6442;
415524926472725;-12.7681;0.6027;-4.4237;
415524936577309;-14.0327;1.7883;-1.2715;
415524946684496;-8.2621;1.4171;-0.5097;
415524956789132;-1.4180;-1.6250;-6.0574;
415524966893715;-15.8462;-0.3290;-2.9411;
415524977004080;-11.1823;2.6127;4.8156;
415524987108715;-4.5538;2.6174;-4.6442;
415524997213298;-6.8462;-0.9784;-8.2256;
415525007314080;-0.7235;-2.2170;-4.7713;
415525017418715;-14.8017;1.9011;-7.4231;
415525027523298;-17.6812;1.3884;-2.0210;
415525037627830;-10.6361;0.3176;2.7027;
415525047732465;-4.2520;-0.7938;-1.2377;
415525057837048;-9.2489;-1.9798;-4.9316;
415525067938767;-14.0833;-2.3533;-1.5470;
415525078043403;-8.1494;2.3779;2.7171;
415525088147986;-7.1339;0.5716;-3.6523;
415525098255850;-14.0279;-1.0502;-6.9272;
415525108360486;-9.2345;0.5979;1.3421;
415525118465069;-6.7146;3.1947;2.6524;
415525128575017;-11.0767;1.6328;-3.3147;
415525138679653;-11.2516;-0.3987;-5.3844;
415525148784236;-6.3745;-0.9473;-4.0645;
415525158894705;-6.2186;0.3176;-5.3653;
415525168999288;-11.9560;0.6194;-3.7316;
415525179103923;-9.6491;1.1393;-2.4117;
415525189200955;-8.6453;0.7801;-4.1554;
415525199305590;-8.3076;0.1187;-2.2606;
415525209410173;-9.2779;0.6817;-2.1505;
415525219520017;-8.6429;0.0661;-4.7207;
415525229624653;-7.2799;-0.1352;-2.9435;
415525239729236;-15.1274;0.3918;-2.2678;
415525249841423;-12.9667;0.1618;-3.2931;
415525259946059;-9.0933;-1.2156;-0.3156;
415525270050642;-11.1512;0.1905;2.6883;
415525280144184;-5.7371;0.9547;-0.7202;
415525290248819;-8.7509;-0.1926;-4.8838;
415525300353403;-12.0087;1.1177;-1.2114;
415525310470330;-7.4022;3.1370;-1.7815;
415525320574965;-4.5251;2.0928;-4.4862;
415525330679548;-9.5510;0.7128;-4.9723;
415525340791007;-11.6228;2.5238;-4.8239;
415525350895642;-6.9781;1.9537;-1.7527;
415525361000225;-8.9255;0.1355;-6.5103;
415525371095330;-12.7056;-1.2586;-4.2658;
415525381199965;-6.6260;0.6553;-1.8679;
415525391304548;-14.5645;0.1881;-3.1591;
415525401404913;-10.7462;0.5979;1.4668;
415525411509496;-4.0077;0.7175;1.6848;
415525421614132;-11.8074;-0.4777;-5.9163;
415525431706475;-9.8360;-0.1208;-1.7719;
415525441811111;-10.7677;1.3214;1.0020;
415525451915694;-9.3927;1.8341;-3.0535;
415525462016007;-3.2052;0.0398;-3.5016;
415525472120590;-11.4721;0.8710;-2.9028;
415525482225225;-13.0627;2.1024;-4.8670;
415525492327621;-4.9851;1.8389;-3.0775;
415525502432257;-10.3005;2.2053;-3.0368;
415525512536840;-9.6108;0.9691;-3.4896;
415525522667934;-10.3654;0.6434;-3.9159;
415525532772517;-13.2518;1.1991;-3.4011;
415525542877153;-5.5217;-0.5327;-0.9909;
415525552962621;-1.0134;-0.1831;-2.8235;
415525563067257;-16.4282;-0.3843;-7.6576;
415525573171840;-12.1642;0.4493;0.7098;
415525583347778;-3.2363;2.2101;0.9278;
415525593452413;-14.3755;-0.3652;-6.4265;
415525603556996;-10.4037;0.2841;-0.3921;
415525613592830;-2.4338;1.5634;-0.2174;
415525623697465;-8.7748;0.5477;-8.4434;
415525633802048;-8.0417;0.0494;-4.9603;
415525643922205;-11.6707;-0.2788;-5.1855;
415525654026840;-22.3140;-0.4250;-2.8837;
415525664131423;-10.3367;-0.5207;6.5644;
415525674222100;-3.2459;0.5788;2.9925;
415525684326736;-9.3066;-1.0980;-7.0804;
415525694431319;-6.6356;-0.5782;-3.9206;
415525704568975;-9.1484;0.0733;-0.4232;
415525714673611;-14.1024;-0.0057;-6.2204;
415525724778194;-8.8920;-0.0440;-2.5050;
415525734848767;-5.6892;0.9308;-0.7493;
415525744953403;-5.3133;0.9882;-1.8009;
415525755057986;-5.4497;-0.6431;-6.7522;
415525765194809;-15.8964;-1.3639;-10.6041;
415525775299444;-16.2799;-2.3342;-4.0932;
415525785404028;-6.9446;-1.5891;-1.5494;
415525795467673;-8.8107;-0.6957;-1.6164;
415525805572309;-12.1690;-1.3759;4.4539;
415525815676944;-7.2990;-0.4250;-0.1047;
415525825782257;-8.0417;-0.7196;-9.7083;
415525835886892;-13.6328;0.3464;-1.1133;
415525845991475;-7.7016;0.2913;2.2092;
415525856104080;-11.6997;0.7128;-3.1687;
415525866208715;-11.3809;-1.0406;-1.2906;
415525876313350;-6.7457;0.7872;-1.4342;
415525886420850;-7.9508;-0.0416;-5.8301;
415525896525486;-8.9375;0.4902;-5.4897;
415525906630069;-11.8600;0.3631;-1.6092;
415525916742100;-6.4798;1.1776;-2.8475;
415525926846736;-5.5265;-0.0754;-8.3381;
415525936951371;-9.9102;-1.0669;-3.7603;
415525947050017;-9.2393;0.3320;-2.9028;
415525957154653;-11.2014;-0.6957;-6.2444;
415525967259236;-3.0685;-0.7819;-0.5384;
415525977354340;-10.8610;0.7008;-4.0502;
415525987458975;-19.8730;-0.1496;-3.0511;
415525997563611;-9.3090;-0.2381;2.1230;
415526007678038;-2.6638;0.5764;2.7700;
415526017782673;-4.0986;0.4325;-2.6512;
415526027887257;-12.9835;-0.0129;-8.0889;
415526037991007;-12.2961;1.7572;-0.4642;
415526048095642;-9.5821;2.7012;2.5328;
415526058200225;-14.4018;0.3918;-4.4189;
415526068304184;-5.2340;-1.0095;-3.8058;
415526078408819;-5.2965;0.9069;1.3875;
415526088513403;-6.8680;1.2254;-2.0979;
415526098615746;-8.1015;0.4612;-12.0775;
415526108720382;-16.0427;0.1929;-6.0670;
415526118824965;-7.1770;1.4483;2.2980;
415526128924809;-8.4440;1.3190;-1.8440;
415526139029444;-15.4005;-0.2644;-1.7647;
415526149134028;-0.8647;-0.9999;-1.6594;
415526159251684;-13.0122;-1.1171;-5.0133;
415526169356319;-21.2504;-2.1688;-4.8335;
415526179460903;-6.8728;-0.4083;2.5591;
415526189570746;-4.2425;0.6888;2.6237;
415526199675382;-14.9360;0.4253;-1.0702;
415526209779965;-9.7615;0.1642;-2.8259;
415526219878142;-2.3237;0.8949;-3.8465;
415526229982778;-3.7848;0.9260;-6.4672;
415526240087361;-12.1666;1.0603;-7.8541;
415526250192257;-17.5229;1.2446;-6.0742;
415526260296892;-12.5381;1.4626;1.9313;
415526270401475;5.6246;1.2278;0.9637;
415526280506007;-14.2651;-1.0645;-15.3808;
415526290610642;-15.8964;-1.8455;-2.8068;
415526300715225;7.3711;0.3870;3.7591;
415526310826580;-15.3598;1.1082;-9.5094;
415526320931163;-30.4445;-0.3508;-4.5915;
415526331035798;0.3257;-0.0033;8.8543;
415526341136267;11.5798;-0.3075;0.8749;
415526351240903;-23.5334;0.5524;-9.9383;
415526361345486;-25.4378;-0.2453;-3.4992;
415526371446580;-1.4874;-0.2835;4.3630;
415526381551215;3.8928;0.8183;1.2153;
415526391655850;-15.7792;-0.9975;-8.3094;
415526401748403;-23.3202;0.7104;-1.8727;
415526411853038;4.5132;1.5105;6.3870;
415526421957621;-3.5261;2.7993;-3.8369;
415526432070746;-18.4884;-1.0789;-17.9560;
415526442175382;-10.5664;-2.2744;-3.3601;
415526452280017;1.5595;1.7022;10.4785;
415526462383090;-0.9150;1.6208;-9.3682;
415526472487725;-20.4287;-1.3663;-20.9312;
415526482592361;-25.6846;-1.3496;4.5281;
415526492703038;-3.1789;1.2326;14.4718;
415526502807673;7.8141;-0.1137;-2.2965;
415526512912309;-16.3493;-3.2228;-20.0857;
415526523028663;-18.8836;-1.1844;0.4487;
415526533133298;9.8097;0.9547;9.0724;
415526543237882;-24.0628;0.2961;-13.7160;
415526553321163;-19.0059;-1.0095;-0.0712;
415526563425798;3.7944;1.8413;13.2263;
415526573530382;-6.2306;-0.2166;-7.1572;
415526583654132;-18.0069;0.8686;-10.0989;
415526593758767;-17.3291;0.7561;4.4994;
415526603863350;-8.1733;1.1417;-4.5054;
415526614005850;-5.2750;-1.5963;-5.2935;
415526624110434;-3.4831;-0.5375;3.0957;
415526634215069;-9.6634;1.5248;-4.3615;
415526644261736;-10.4133;1.1512;-6.4863;
415526654366319;-5.3779;-0.6215;-4.9842;
415526664470955;-18.8405;0.0661;-6.5725;
415526674607309;-9.0694;-0.6885;1.0738;
415526684711944;-3.4208;-0.2070;0.9709;
415526694816528;-6.7744;1.2063;-3.2405;
415526704864653;-9.7448;-1.0262;-11.5289;
415526714969340;-18.0260;-1.3208;-7.8326;
415526725073923;-5.4520;0.9308;7.2230;
415526735219496;-5.5720;0.9356;-0.1813;
415526745324132;-16.4522;0.1499;-7.2817;
415526755428715;-8.9710;0.0374;3.7376;
415526765536059;-2.0818;1.8604;1.1169;
415526775640694;-13.5706;0.9045;-9.3514;
415526785745278;-12.9619;-0.3218;-4.0119;
415526795835434;-6.8584;1.4722;3.0311;
415526805940173;-11.4960;1.8796;-3.5997;
415526816044861;-9.7687;-0.1687;-4.3902;
415526826151580;-5.6940;0.2794;-0.2342;
415526836256267;1.2482;0.3918;-5.2023;
415526846361007;0.2396;0.2506;-10.3119;
415526856463142;-30.3724;1.9346;-7.9164;
415526866567830;-31.5871;1.7692;5.9871;
415526876672569;5.0426;0.6505;10.3756;
415526886778715;9.7256;-2.2170;-4.9531;
415526896883455;-12.9811;-1.8144;-12.0153;
415526906988142;-24.7406;-0.5806;-4.7809;
415526917097257;-12.8303;1.6256;2.3411;
415526927201944;-0.9727;-0.4490;0.8270;
415526937306684;0.2922;-0.1759;-2.4763;
415526947410330;-16.9385;0.8686;-1.5661;
415526957515017;-16.9552;2.5382;4.2000;
415526967619757;7.0044;3.1469;-4.4596;
415526977711892;-17.8346;-2.1018;-23.9303;
415526987816632;-19.8993;-2.7126;-1.4222;
415526997921319;0.4169;0.2124;15.5019;
415527008037413;-2.9345;3.6712;-3.5614;
415527018142100;-7.2535;-0.1089;-16.6337;
415527028246840;-21.2623;-3.1989;-8.6327;
415527038353246;-0.2276;-1.0789;5.6970;
415527048457934;-3.0829;2.3273;-1.1133;
415527058562673;-38.7927;1.8485;-3.0176;
415527068668455;-7.1435;-0.7819;5.5032;
415527078773142;7.4548;-1.3759;3.4549;
415527088877882;-3.8877;-0.3194;-7.4399;
415527098974184;-18.2321;-0.2500;-10.5826;
415527109078871;-12.4708;0.6769;-4.4668;
415527119183611;-5.6366;0.5859;3.7137;
415527129301163;-6.4534;0.8064;-0.0640;
415527139405850;-10.3244;2.3468;-5.3294;
415527149510590;-20.5080;0.2124;-2.7757;
415527159619080;5.6175;0.1905;6.3655;
415527169723767;-9.8767;-0.5112;-20.1168;
415527179828507;-25.7348;-4.0397;-14.7556;
415527189909705;1.4471;-1.5173;17.1260;
415527200014392;-8.5807;2.7395;4.7533;
415527210119132;-15.3407;0.5812;-12.9278;
415527220233871;-4.5108;-2.4467;-3.6909;
415527230338559;-7.3540;0.8925;1.0259;
415527240443298;-13.3860;0.1929;-4.2658;
415527250543871;-10.4228;-0.0248;-5.8421;
415527260648559;-8.7242;-0.0129;0.9015;
415527270753298;-5.3324;0.9117;-1.1827;
415527280875955;-10.6241;-0.6885;-7.6385;
415527290980694;-15.5659;0.6386;-3.4466;
415527301085382;-2.1894;0.9667;3.9580;
415527311178767;-6.7241;-0.6287;-9.1669;
415527321283455;-18.8596;-1.4743;-7.8350;
415527331388194;-3.8160;0.2578;6.0039;
415527341487309;-6.9470;0.8279;-3.6933;
415527351592048;-15.9180;-1.5652;-7.8900;
415527361696684;-11.5367;1.1728;3.1149;
415527371804080;-10.2981;0.1379;0.6882;
415527381908767;-6.9876;-0.1926;-2.0354;
415527392013507;-1.2553;0.8949;-2.8499;
415527402127517;-7.5218;-0.5423;-8.0363;
415527412232205;-7.6104;0.8303;-6.5462;
415527422336944;-18.6320;1.5586;-0.7708;
415527432436684;-23.1715;0.3200;-0.0832;
415527442541371;-3.5357;0.2219;4.3798;
415527452646111;2.3477;-0.0730;0.7289;
415527462743663;-11.4482;-0.8106;-9.6150;
415527472848403;-13.2661;-1.3831;-9.1190;
415527482953090;-10.2861;-0.0272;-3.5949;
415527493058923;-6.2402;0.3296;2.5472;
415527503163611;-6.9254;1.7477;0.4606;
415527513268350;-9.2683;1.3286;-4.0119;
415527523379600;-9.9317;-0.0631;-2.3276;
415527533484288;-2.3333;0.8638;-8.2902;
415527543589028;-15.5563;-1.0430;-12.7938;
415527553671371;-14.0303;-0.4346;1.1794;
415527563776111;-5.0521;0.4783;6.7968;
415527573880746;-10.4228;-0.1711;-4.9723;
415527584008715;-10.5712;-0.3266;-4.7545;
415527594113455;-6.2593;0.0206;2.3435;
415527604218194;-8.9088;0.9643;-0.4496;
415527614296736;-12.2435;0.0398;-4.5748;
415527624401423;-14.9432;0.3870;-2.0644;
415527634506163;-5.7179;0.9978;2.4464;
415527644650225;-6.8127;0.3464;-1.6738;
415527654754913;-11.7404;0.1834;-4.0358;
415527664859600;-7.4548;0.6673;-2.7470;
415527674937205;-9.4789;0.7872;-5.8995;
415527685041892;-10.0947;-0.5806;-4.2251;
415527695146580;-5.9240;0.1857;-0.2438;
415527705268663;-8.6524;0.4493;-3.4609;
415527715373350;-12.2602;-0.6694;-5.6264;
415527725478090;-11.0815;-0.5231;-3.6093;
415527735567830;-7.4261;-0.9138;-1.1755;
415527745672569;-8.2669;-0.5734;-2.8283;
415527755777257;-9.0646;-0.3147;-2.1817;
415527765889288;-11.4218;0.0637;-2.5887;
415527775994028;-10.8419;-0.4753;-1.9923;
415527786098715;-7.9508;0.5572;-0.5695;
415527796197621;-9.7711;-0.1831;-1.8488;
415527806302309;-7.9436;0.2076;-2.5624;
415527816406996;-8.8011;0.2339;-2.8693;
415527826515955;-10.1019;0.2770;-3.1711;
415527836620642;-11.1679;0.6027;-2.5026;
415527846725330;-12.5692;1.3334;-0.9335;
415527856829288;-8.4873;0.0757;-0.9239;
415527866933975;-9.4502;0.1618;-1.8990;
415527877038663;-7.5745;-0.3290;-3.1735;
415527887139965;-6.2928;0.2937;-3.7747;
415527897244653;-10.9642;-0.2620;-4.9173;
415527907349340;-14.0952;1.2709;-3.3649;
415527917453038;-6.6236;0.5429;-0.5791;
415527927557725;-5.8546;0.7872;-1.2185;
415527937662413;-11.2612;-0.1280;-3.7029;
415527947774496;-10.9738;0.8877;-4.4572;
415527957879184;-11.5630;0.2794;-3.3697;
415527967983871;-10.6050;0.4636;-0.5982;
415527978083038;-6.0245;-0.6455;-2.8403;
415527988187725;-8.6477;-0.3796;-3.7627;
415527998292413;-10.9164;0.9021;-1.7097;
415528008398038;-9.2779;1.1297;-3.2429;
415528018502725;-8.9016;0.6242;-2.9650;
415528028607413;-10.9786;1.2613;-0.6054;
415528038713767;-5.7203;1.4411;-2.4093;
415528048818455;-10.1880;0.4612;-5.9354;
415528058923142;-13.3430;0.8327;-1.9612;
415528069025017;-6.3024;0.5261;-1.7408;
415528079129705;-7.3397;0.0350;-5.1209;
415528089234392;-9.9820;-0.3628;-3.5064;
415528099344705;-12.3200;1.2760;-1.5589;
415528109449392;-11.4314;0.4926;-1.5060;
415528119554080;-4.9370;0.3894;-0.3658;
415528129658246;-3.7418;0.6434;-3.1472;
415528139762934;-7.2703;0.2841;-6.2563;
415528149867621;-22.6110;1.4506;-1.3576;
415528159975850;-7.2368;1.5419;1.0810;
415528170080538;-2.7188;-0.5830;-4.3687;
415528180185225;-9.2874;-0.9903;-3.9278;
415528190277100;-17.3865;0.0422;-1.6857;
415528200381788;-10.4516;0.0230;-0.6173;
415528210486475;-5.0258;0.5501;-0.3849;
415528220594496;-9.5267;-0.6215;-4.7279;
415528230699184;-9.8432;-0.1017;-1.3672;
415528240803871;-7.9146;1.1656;-0.3921;
415528250918350;-11.1535;1.8485;-3.5734;
415528261023038;-11.4338;-1.5437;-5.8516;
415528271127725;-5.8834;-0.0897;-1.8488;
415528281193663;-5.6509;0.7442;-2.8956;
415528291298350;-10.8491;0.0039;-6.5557;
415528301403038;-14.1359;-0.9855;-4.1267;
415528311537673;-12.0494;-0.2620;-2.4500;
415528321642361;-6.0727;0.1044;1.1312;
415528331747048;-9.5195;-1.0789;-2.7374;
415528341875538;-11.8409;0.1953;-1.1061;
415528351980225;-5.3539;0.6123;-0.4570;
415528362084913;-7.7949;-0.1854;-5.4251;
415528372165121;-9.3018;-0.8082;-6.5175;
415528382269809;-16.3277;1.5320;-0.7828;
415528392374496;-8.0225;1.5009;3.2034;
415528402492830;-8.5376;0.0087;-2.9195;
415528412597517;-10.3869;-0.5399;-5.1975;
415528422702205;-8.7123;0.4831;-1.6068;
415528432794913;-9.9820;0.1977;-1.4103;
415528442899600;-10.7916;-0.2668;-6.2013;
415528453004288;-9.0263;-0.5614;-1.2739;
415528463099757;-6.9374;0.4660;-0.9239;
415528473204444;-8.8944;0.0685;-3.7436;
415528483309132;-5.8211;0.3416;-3.3434;
415528493455955;-10.7318;1.2808;-5.3198;
415528503560642;-10.9403;-0.0296;-3.2166;
415528513665330;-10.5401;1.4674;-2.4619;
415528523725538;-10.3822;-0.6885;-2.5193;
415528533830225;-11.6707;0.0159;0.3120;
415528543934913;-8.5615;-0.0631;-1.4940;
415528554060225;-7.7327;-0.7866;-2.9722;
415528564164913;-8.1015;-0.3628;-3.3003;
415528574269600;-11.9489;1.0531;-2.7996;
415528584361111;-15.6856;0.8758;0.5444;
415528594465798;-6.3912;1.5057;2.4440;
415528604570486;-3.1167;1.2760;-3.7340;
415528614667517;-14.4233;0.0278;-5.4395;
415528624772205;-9.4597;0.3990;-2.9052;
415528634876892;-8.6859;1.5224;-2.9674;
415528644988871;-5.6916;-0.5830;-5.8301;
415528655093559;-12.0948;-0.9090;-4.6346;
415528665198246;-12.7466;0.9165;-1.9923;
415528675320955;-9.5076;0.7247;0.5300;
415528685425642;-0.7594;-0.1759;-3.2931;
415528695530330;-13.4865;-0.3075;-6.4074;
415528705646788;-21.1259;0.1307;-0.6939;
415528715751475;-2.7811;1.0196;3.5892;
415528725856163;-2.6830;-0.5016;-5.0707;
415528735926580;-12.4014;-0.7962;-6.0311;
415528746031267;-13.0388;-0.1304;-1.7312;
415528756135955;-9.0981;2.1503;-0.5025;
415528766259496;-8.6189;0.1929;-2.7900;
415528776364184;-8.3315;-0.3939;-3.3936;
415528786468871;-8.8633;0.6410;-1.8392;
415528796563038;-11.3091;0.9523;-1.2425;
415528806667725;-9.3975;1.1130;-3.9159;
415528816772465;-12.7128;-0.9712;-5.7915;
415528826873246;-4.7169;-0.4202;0.8079;
415528836977934;-10.8900;0.2387;-0.5719;
415528847082673;-12.6553;0.6769;-5.6480;
415528857194913;-6.8175;-0.7627;-2.4428;
415528867299600;-6.8824;0.3942;-0.2605;
415528877404340;-9.4908;-0.0296;-3.6117;
415528887501996;-12.8830;1.2182;-3.7364;
415528897606684;-9.8767;0.1810;-1.0008;
415528907711423;-7.2464;0.4277;-1.5924;
415528917816684;-7.5362;-0.8034;-5.5929;
415528927921371;-13.4100;0.2148;-2.8283;
415528938026111;-5.3707;0.2387;0.1899;
415528948131007;-4.9370;-0.1232;-7.5978;
415528958235694;-16.8189;-1.0573;-6.2755;
415528968340434;-11.1440;1.6615;5.6970;
415528978445017;-4.2018;0.3703;-0.7875;
415528988549705;-11.1751;-0.3867;-7.4351;
415528998654444;-9.4382;-0.4872;-1.1707;
415529008772205;-7.0211;0.4469;-0.7178;
415529018876892;-7.9388;0.2483;-4.6250;
415529028981632;-7.1913;-0.2285;-3.3649;
415529039072309;-11.8313;-0.2189;-5.0010;
415529049176996;-14.8783;1.2135;-0.8880;
415529059281736;-5.6438;0.3057;3.4167;
415529069387621;-2.7476;0.4134;-4.4620;
415529079492309;-14.8352;-0.1878;-7.6962;
415529089596996;-18.5674;-0.1448;1.7949;
415529099698350;-6.2354;0.6936;2.8848;
415529109803038;-0.9078;-0.9473;-2.9961;
415529119907778;-11.9103;-1.1028;-6.0335;
415529130027621;-17.4440;0.6745;-0.7421;
415529140132309;-2.4673;1.3478;1.3062;
415529150237048;-6.8366;0.6721;-3.9544;
415529160318455;-17.9207;-0.0945;-5.0587;
415529170423142;-7.2392;0.1068;-0.4089;
415529180527882;-7.1073;0.8255;-1.4246;
415529190638767;-8.1852;0.5261;-3.9087;
415529200743455;-8.3387;-1.4288;-8.9273;
415529210848194;-14.9097;0.1881;-2.7709;
415529220968246;-9.6419;0.8638;3.1077;
415529231072934;-0.9823;-0.3580;-4.7112;
415529241177621;-16.1264;-0.0754;-7.2888;
415529251266163;-20.2421;0.3727;5.9510;
415529261370850;-1.8135;1.9633;2.0680;
415529271475590;-6.1014;-1.1315;-10.1803;
415529281585798;-11.3593;-1.1100;-2.1482;
415529291690538;-10.3750;1.2927;1.5936;
415529301795225;-11.6420;1.2903;-5.6791;
415529311905434;-4.5538;0.3583;-1.6307;
415529322010121;-5.8642;0.5524;-3.9951;
415529332114809;-18.3230;1.5033;-6.3233;
415529342236371;-8.7242;0.0446;1.9651;
415529352341059;-1.0397;0.6458;-2.4308;
415529362445798;-12.0254;-0.1998;-11.5672;
415529372525642;-14.0207;-0.9927;-3.0440;
415529382630330;-10.6146;0.5716;5.9103;
415529392735069;-7.4692;1.0002;-1.4988;
415529402856163;-6.8438;-0.8010;-7.9597;
415529412960850;-11.8409;-0.8608;-3.7507;
415529423065590;-8.0847;0.8566;3.7113;
415529433152934;-5.0641;1.3454;-2.5986;
415529443257621;-14.8591;0.2435;-8.9106;
415529453362309;-12.0852;-0.1759;0.4487;
415529463507413;-5.9815;0.6194;0.4247;
415529473612100;-8.9901;0.0111;-4.6872;
415529483716788;-9.4932;0.2243;-1.9516;
415529493785382;-7.2177;-0.6526;-5.3414;
415529503890069;-14.0590;-1.1964;-8.2328;
415529513994757;-11.1392;-0.4753;2.8418;
415529524129236;-5.6007;0.5572;0.7265;
415529534233923;-9.1914;-0.4250;-5.4299;
415529544338663;-7.4788;-0.6646;-2.8187;
415529554389913;-13.1728;0.2363;-2.3949;
415529564494600;-13.7477;0.0254;-1.8440;
415529574599340;-7.1794;-0.6502;0.2186;
415529584727725;-4.0842;-0.8755;-3.2309;
415529594832413;-11.2780;0.7271;-5.6671;
415529604937100;-10.3125;-0.7651;-2.9172;
415529615054600;-11.1078;-0.5183;-2.2822;
415529625159288;-8.6333;0.0398;-2.9291;
415529635264028;-6.2641;-0.1496;-2.5457;
415529645355017;-2.3118;-0.5614;-4.2371;
415529655459705;-16.8882;0.0039;-3.8010;
415529665564444;-21.2288;-0.5734;-1.0391;
415529675672934;-4.1369;-1.3137;-0.2964;
415529685777621;-0.2539;-0.9066;-1.6403;
415529695882361;-8.7676;0.0565;-4.5963;
415529705997100;-15.0485;0.1211;-3.9278;
415529716101788;-12.2172;0.2291;0.6018;
415529726206475;-5.6749;0.2124;-2.4667;
415529736287621;-11.2540;1.1201;-3.4035;
415529746392309;-10.0609;-0.2237;1.5721;
415529756497048;-6.6882;0.8040;1.9457;
415529766618871;-5.4808;0.3990;-10.0005;
415529776723559;-20.3617;-2.0515;-13.1172;
415529786828298;-14.5310;-1.0549;5.8313;
415529796925955;4.0986;0.7175;7.7381;
415529807030642;-3.4424;0.9045;-10.3549;
415529817135330;-25.7228;-0.4729;-8.1057;
415529827249496;-12.7367;0.7633;3.5530;
415529837354184;3.4687;1.2951;1.3134;
415529847458871;-3.8207;-1.0980;-7.8039;
415529857550017;-18.2608;-0.2955;-6.1822;
415529867654705;-14.0375;0.7896;0.9374;
415529877759392;-5.6533;0.9093;-1.9540;
415529887854861;-6.6165;-1.1821;-6.2252;
415529897959548;-11.2564;-0.8393;-3.8225;
415529908064236;-2.5702;0.6458;1.9579;
415529918185017;14.1407;1.6424;-6.2587;
415529928289705;-49.0741;0.5070;-13.9220;
415529938394392;-33.8554;-1.5604;8.8519;
415529948484705;21.7056;-0.4178;19.8688;
415529958589392;10.9546;1.3765;-5.3318;
415529968694080;-21.4253;-0.0488;-20.6845;
415529978799288;-25.2772;-1.4384;-11.2654;
415529988903975;-4.9513;0.4110;10.2221;
415529999008663;0.7307;1.0412;4.6624;
415530009131580;-16.4761;1.8341;-7.7656;
415530019236267;-15.0700;0.8136;4.6289;
415530029340955;8.1087;4.6726;12.1843;
415530039431059;-3.2028;-2.1401;-30.8414;
415530049535746;-40.0095;-3.0000;-28.9514;
415530059640434;5.8881;-1.1148;21.7253;
415530069753038;11.3812;3.0054;12.5698;
415530079857725;-24.0820;1.8003;-20.7180;
415530089962413;-22.9514;-1.4815;-4.6107;
415530100065017;-7.3158;-0.6191;10.4856;
415530110169705;-3.2913;0.7199;0.2809;
415530120274392;-7.7782;-2.0396;-6.4481;
415530130376267;-10.6624;-0.4394;-4.3783;
415530140480955;0.3739;1.3980;0.6260;
415530150585642;-27.8955;0.7657;-5.2023;
415530160686371;-29.9366;0.2100;-1.5517;
415530170791059;12.6194;0.6817;14.3498;
415530180895746;9.7953;2.1120;-0.9168;
415530191002621;-22.3546;0.9595;-18.5548;
415530201107309;-12.0972;0.0326;-9.2148;
415530211211996;-5.4281;-1.0310;-2.0498;
415530221315538;-12.9500;0.7175;-3.0153;
415530231420225;-5.2053;2.4879;1.7925;
415530241524913;-10.1210;1.3023;2.3770;
415530251623507;-4.1752;-1.1219;-7.1330;
415530261728194;-17.3722;-2.9904;-19.8150;
415530271832882;-19.7103;-2.1449;-1.3887;
415530281934496;-0.0096;-0.1041;18.4412;
415530292039184;-2.8699;1.7046;-0.3754;
415530302143871;-14.5741;-0.1567;-13.1363;
415530312257830;-12.3009;-0.9281;0.2115;
415530322362517;-8.3507;1.7381;3.1244;
415530332467205;-5.9767;1.8197;-3.9760;
415530342558455;-8.4826;-0.0921;-5.1784;
415530352663142;-10.5760;1.3262;-1.8224;
415530362767830;-6.1995;0.9021;-5.2071;
415530372889184;-15.5683;-0.0631;-8.7021;
415530382993871;-14.6462;-0.5518;1.8452;
415530393098559;0.2396;0.8853;3.2632;
415530403224184;-6.4391;-0.6191;-8.7212;
415530413328871;-21.8396;-0.7388;-0.9574;
415530423433559;-6.1134;0.8734;3.1795;
415530433560017;-2.2851;-0.4896;-7.8661;
415530443664705;-13.1895;-1.5437;-4.3950;
415530453769392;-8.6213;0.7992;3.8551;
415530463822673;-9.0981;0.8016;-3.8991;
415530473927309;-10.3244;-0.7507;-5.6958;
415530484032048;-9.2946;0.5142;-2.1147;
415530494180955;-11.7667;0.1451;-2.8932;
415530504285642;2.1799;0.7681;1.2655;
415530514390330;-9.5605;0.4469;-5.5017;
415530524454600;-24.1777;-1.4791;-12.2429;
415530534559288;-13.2183;0.4540;3.9150;
415530544663975;3.0832;1.0579;8.7682;
415530554756684;-6.7744;0.5094;-6.0574;
415530564861371;-12.9882;-1.2299;-9.4256;
415530574966059;-14.4114;-0.2118;-0.4184;
415530585100746;-10.7653;1.3932;1.7734;
415530595205434;-10.1210;-0.9090;-2.9841;
415530605310121;-15.4367;-0.0081;1.5601;
415530615413767;1.0277;0.6984;5.5367;
415530625518455;-8.6477;-0.6479;-10.3071;
415530635623142;-17.7817;-0.7795;-9.9335;
415530645716371;-6.0317;0.4735;1.7925;
415530655821059;-3.0470;2.3082;-1.0487;
415530665925746;-10.6074;0.4325;-6.4696;
415530676025017;-10.2694;0.7370;-1.4701;
415530686129705;-10.9905;0.7633;-4.9316;
415530696234392;-7.1794;-1.2730;-6.3042;
415530706342621;-1.1809;-1.1219;-3.1711;
415530716447309;-13.4076;-0.3147;-5.8134;
415530726551996;-16.0020;0.0230;-1.1420;
415530736653246;-13.5754;0.6242;0.3697;
415530746757934;-7.9986;-0.0607;2.3435;
415530756862621;-4.8580;-0.4370;0.0870;
415530766970850;-10.9618;-0.3604;-2.7685;
415530777075538;-13.0074;0.1738;-0.0544;
415530787180225;-5.2606;1.4315;-1.5541;
415530797287413;-10.5497;0.6458;-5.3462;
415530807392100;-10.7486;1.5658;-0.5168;
415530817496788;-2.6853;2.1885;1.6630;
415530827620746;-10.9403;1.5993;-8.3764;
415530837725434;-11.7619;0.0087;-6.9368;
415530847830121;-5.5768;0.9523;-4.0167;
415530857909913;-11.6949;-0.4777;-4.7160;
415530868014600;-11.4123;-0.3242;-1.2858;
415530878119288;-8.0154;0.2195;-0.1190;
415530888226059;-9.5725;-1.3184;-3.9568;
415530898330746;-9.6251;-1.4719;-2.3590;
415530908435434;-7.5194;0.1451;-0.3323;
415530918540955;-8.2621;0.4397;-0.9960;
415530928645642;-7.4381;0.1092;-2.5600;
415530938750330;-12.4445;0.4325;-5.2047;
415530948848871;-13.3143;0.9595;-1.3385;
415530958953559;-7.4166;1.4961;2.7003;
415530969058246;-8.7194;-0.0754;-3.6933;
415530979164184;-9.9891;-0.5518;-3.5782;
415530989268871;-8.2645;1.3549;-2.3399;
415530999373559;-10.0274;0.4902;-4.3831;
415531009482725;-9.8839;0.8542;-2.6560;
415531019587413;-7.3134;0.2698;-0.7660;
415531029692100;-8.4272;0.5907;-3.4513;
415531039793507;-8.2573;0.2459;-3.0799;
415531049898194;-11.5846;0.1259;-2.1338;
415531060002882;-12.9643;0.1044;-3.9497;
415531070103142;-10.0609;-0.8803;-0.6508;
415531080207830;-5.5792;0.0876;-1.9445;
415531090312517;-10.2239;-0.8946;-3.9640;
415531100418350;-16.9816;0.3009;-1.4892;
415531110523038;-7.1889;0.4636;0.4869;
415531120627725;-6.0030;0.1642;-1.3887;
415531130736580;-6.7265;0.2148;-2.9411;
415531140841267;-9.9174;0.7992;-4.3137;
415531150945955;-14.6964;2.0614;-1.7312;
415531161098246;-10.6409;0.5381;-2.1410;
415531171202934;-6.5611;-0.5303;-2.3901;
415531181307621;-6.3697;-1.0836;-4.7713;
415531191368663;-7.8476;0.1475;-4.4958;
415531201473298;-8.6764;0.8016;-1.9684;
415531211578038;-13.4052;0.2913;-7.4061;
415531221678038;-11.0073;-0.8560;-2.9076;
415531231782725;-6.1086;1.1249;2.9160;
415531241887413;-7.0546;0.2100;-0.3419;
415531251987934;-11.3617;-0.4513;-4.6490;
415531262092621;-17.0967;0.0135;-3.1639;
415531272197309;-5.8881;0.0733;-0.9383;
415531282317778;-1.7776;-0.0296;-0.5719;
415531292422517;-11.6853;0.6912;-3.4466;
415531302527153;-11.4577;0.4950;-1.8272;
415531312618923;-6.9876;1.4171;-2.6943;
415531322723611;-11.4266;0.0733;-5.6025;
415531332828298;-15.4798;1.3358;2.1972;
415531342950330;-7.1626;0.6314;1.0355;
415531353055017;-4.9681;-1.4097;-4.5772;
415531363159705;-7.5266;-0.9018;-5.9139;
415531373243663;-13.2278;-0.5327;-6.0048;
415531383348298;-1.2359;0.4421;-0.3371;
415531393453038;-10.1330;1.2422;-0.5384;
415531403565434;-31.5942;1.2087;-3.7364;
415531413670121;-4.9705;-0.3147;2.6309;
415531423774809;7.0164;-1.0765;2.0369;
415531433846736;-8.7485;-1.1291;-7.2075;
415531443951423;-19.4420;-1.6370;-11.5337;
415531454056163;-11.4936;-0.3915;-0.9670;
415531464187934;-3.4783;1.6831;4.0083;
415531474292621;-9.6491;1.4411;-3.8895;
415531484397309;-12.0302;-0.5279;-2.5433;
415531494496684;-7.9651;2.8304;4.3917;
415531504601371;0.2874;1.7213;-8.2687;
415531514706059;-21.0589;-3.0194;-19.4749;
415531524815225;-12.8495;-1.3854;5.5845;
415531534919913;-0.9102;3.2067;11.4177;
415531545024600;-11.9608;0.6601;-8.3501;
415531555144705;-15.0221;-0.6694;-9.2746;
415531565249392;-4.7046;-0.9353;5.6372;
415531575354080;-5.0234;1.8867;-0.7995;
415531585468663;-13.1034;0.3703;-7.7154;
415531595573350;-14.9097;-0.1280;-2.6249;
415531605678038;-7.7399;1.6567;1.6774;
415531615775121;-2.3692;-0.0849;-1.3816;
415531625879809;-10.1426;-0.8321;-6.6900;
415531635984496;-19.5257;0.8901;-1.2042;
415531646088350;-7.0211;1.7046;-1.3552;
415531656193038;-7.4764;-1.0836;-4.2299;
415531666297725;-5.4999;-0.3123;-0.0544;
415531676388246;-6.7720;0.7872;-3.1181;
415531686492934;-17.5564;0.7681;-7.8015;
415531696597621;-8.8896;0.5118;0.8127;
415531706713507;-2.8146;-0.8898;-2.1745;
415531716818194;-12.8973;-1.3687;-5.2621;
415531726922882;-15.2306;0.9523;1.4524;
415531737020017;-8.1805;1.1680;0.9254;
415531747124705;-7.4764;-1.3663;-7.4160;
415531757229392;-11.0862;-1.0190;-3.0416;
415531767338350;-9.4478;1.3669;3.1531;
415531777443038;-10.6935;1.5586;-2.2917;
415531787547725;-4.6017;0.0206;-4.9316;
415531797642621;-9.4717;-0.4825;-5.6145;
415531807747309;-13.5969;1.0866;-0.8593;
415531817851944;-9.3018;1.1967;0.7433;
415531827963038;-5.2436;0.9547;-3.9784;
415531838067725;-7.9651;-1.4982;-7.7178;
415531848172361;-17.0175;-0.0559;-3.8991;
415531858268767;-7.3421;1.7429;1.8476;
415531868373455;-3.7107;-1.4695;-2.7757;
415531878478090;-8.9949;-1.0190;-7.8063;
415531888591996;-13.4363;-0.7077;-3.1253;
415531898696684;-15.1442;1.9107;4.2526;
415531908801319;-7.4979;1.1704;0.7361;
415531918903246;-6.3553;-1.6202;-4.5508;
415531929007934;-9.8121;-0.9592;-4.6825;
415531939112569;-9.5797;0.9260;-0.3347;
415531949215538;-1.3271;1.2111;-1.7910;
415531959320225;-16.9481;0.0087;-8.7670;
415531969424861;-11.4864;0.0589;-3.5375;
415531979523923;-7.9508;0.7343;4.0848;
415531989628611;-10.5449;0.6266;-0.7684;
415531999733246;-8.7218;-0.5303;-4.6370;
415532009848246;-7.8284;-1.3902;-4.5796;
415532019952934;-13.9896;-0.1137;-3.5710;
415532030057569;-8.4535;0.3775;0.3505;
415532040171788;-4.1441;-0.4394;-2.3542;
415532050276475;-10.0274;0.4014;-3.3075;
415532060381111;-11.1006;1.0914;-1.8176;
415532070483507;-12.5620;0.3081;-4.9364;
415532080588194;-6.7146;0.0494;-0.3036;
415532090692830;-5.3492;0.4564;-1.3648;
415532100791267;-17.0151;-0.1759;-7.0325;
415532110895955;-8.9231;-0.2381;-0.5862;
415532121000590;-7.0499;0.6123;-1.5613;
415532131100746;-10.3534;-0.2835;-4.1435;
415532141205434;-10.8180;-0.3266;-0.7397;
415532151310069;-7.5841;2.1957;-0.5910;
415532161429392;-5.2941;-0.3170;-4.0908;
415532171534080;-11.2253;-0.7412;-4.3543;
415532181638715;-15.1756;1.4195;-2.2678;
415532191743403;-7.6896;0.8901;1.9938;
415532201825642;-4.4339;-0.1926;-3.4537;
415532211930278;-12.5477;-1.0358;-8.0052;
415532222034965;-10.4850;0.6218;-0.1406;
415532232147309;-5.4760;1.3478;-0.1214;
415532242251944;-10.3340;-0.0009;-6.2372;
415532252356632;-15.8462;0.1881;-3.2788;
415532262469600;-8.9662;0.2435;1.7447;
415532272574288;-6.7481;0.5931;0.4487;
415532282678923;-6.6021;-1.3400;-4.4189;
415532292784392;-13.6041;-0.7412;-6.2228;
415532302888640;-13.1895;0.2363;-0.1884;
415532312993275;-6.5803;1.3358;0.6452;
415532323109160;-5.9384;0.0852;-3.7316;
415532333213796;-10.7557;0.1714;-3.2357;
415532343318483;-7.9508;1.8939;-4.1530;
415532353408223;-9.5148;-0.0344;-3.2189;
415532363512858;-9.5124;-0.6790;-6.3978;
415532373617546;-8.6716;0.3655;-2.3518;
415532383698744;-8.5687;0.2291;-1.4940;
415532393803431;-12.0230;0.3727;-2.1625;
415532403908067;-10.9738;-0.3123;-3.3410;
415532414034056;-9.3832;-0.6526;-0.0855;
415532424138692;-11.7835;0.3057;0.5515;
415532434243379;-5.7610;0.2722;-2.1266;
415532444347754;-10.7151;-0.8082;-3.8225;
415532454452442;-11.9366;0.8638;-0.1860;
415532464557129;-6.1995;0.3488;-1.4677;
415532474676765;-12.6482;1.4339;-2.5481;
415532484781452;-6.8175;0.5477;-0.2103;
415532494886035;-8.7556;0.9691;-3.9664;
415532504958431;-8.1757;1.2135;-5.1209;
415532515063119;-5.5600;0.0924;-3.2237;
415532525167754;-14.4760;0.4253;-5.8421;
415532535278327;-15.6544;0.6338;-3.3147;
415532545383015;-4.8341;-0.5997;3.1507;
415532555487650;-6.5731;-0.2692;-2.3013;
415532565623431;-13.7644;0.1953;-4.2802;
415532575728119;-11.0408;0.1331;-0.0520;
415532585832754;-8.4682;0.8734;-0.7588;
415532595904785;-7.9986;1.6089;-1.8559;
415532606009473;-7.7590;0.5309;-2.1170;
415532616114108;-8.4993;0.9811;-5.2095;
415532626227910;-7.2607;1.8245;-1.6427;
415532636332598;-13.6711;0.8279;-6.6230;
415532646437233;-13.2808;0.8518;-3.1400;
415532656543327;-4.2066;0.4854;3.4741;
415532666648015;-8.3794;-0.1041;-4.8694;
415532676752650;-16.6558;1.7501;-4.4142;
415532686862181;-5.3970;-0.2812;1.1025;
415532696966869;-5.4855;0.3224;-3.6500;
415532707071504;-11.2947;1.7166;-2.1769;
415532717183744;-10.3654;0.7848;-2.2343;
415532727288431;-9.7926;1.0101;-1.1085;
415532737393067;-7.5266;0.6003;-0.9598;
415532747494577;-13.7381;0.8662;-3.9159;
415532757599265;-12.3727;0.3344;0.1445;
415532767703900;-7.4142;0.4540;0.8462;
415532777799890;-7.8523;-0.5303;-3.6117;
415532787904577;-10.3989;-0.7651;-2.4739;
415532798009213;-11.5726;1.6184;-1.2305;
415532808109994;-6.7050;0.3535;-1.0271;
415532818214681;-9.3712;0.0398;-3.9951;
415532828319317;-11.5941;1.0388;-1.6618;
415532838443848;-6.0485;-0.0897;-1.2281;
415532848548535;-8.8394;-0.8321;-3.9111;
415532858653171;-13.8221;1.4267;-4.1889;
415532868734733;-9.2058;-0.0682;-2.6106;
415532878839421;-7.1746;-0.1902;-0.9984;
415532888944056;-12.0039;0.0517;-1.4318;
415532899054265;-13.2709;-0.1376;-1.2906;
415532909158952;-4.8413;0.6170;-1.2715;
415532919263588;-10.9666;-1.7139;0.1708;
415532929372390;-11.8840;0.7968;-0.7732;
415532939477077;-13.8748;0.6793;0.6090;
415532949581713;-10.0202;-1.1701;0.4869;
415532959679265;-6.8847;0.3368;-1.4294;
415532969783952;-5.0569;-0.6574;-2.9818;
415532979888588;-9.2321;1.3286;-1.1324;
415532989993900;-7.8212;1.1369;-2.3518;
415533000098588;-11.7906;-0.0631;-8.4027;
415533010203223;-14.8831;0.7513;-4.6561;
415533020304473;-8.1876;-0.0320;3.1723;
415533030409160;-4.3286;-0.6957;-1.8320;
415533040513796;-13.4746;-0.5830;-5.0324;
415533050618640;-14.0399;-0.0296;-1.2906;
415533060723327;-11.1703;0.0422;0.6066;
415533070827963;-3.3033;-0.7149;0.1397;
415533080958015;-12.1187;0.0685;-1.2090;
415533091062702;-13.5491;2.0590;1.3947;
415533101167338;-3.3607;0.5955;-1.6355;
415533111240671;-7.0331;0.6912;-4.8144;
415533121345358;-12.9547;0.6338;-3.1567;
415533131449994;-11.2493;0.2387;-3.1301;
415533141559890;-8.1805;0.2171;-3.5255;
415533151664577;-11.0145;-0.6885;-4.9292;
415533161769213;-12.1451;0.9260;-4.3113;
415533171874890;-7.6992;0.0972;-0.1167;
415533181979577;-6.3817;0.1187;-0.8210;
415533192084213;-6.1516;0.0422;-4.2227;
415533202170775;-16.0116;0.6027;-3.1950;
415533212275463;-11.4864;1.2975;2.0512;
415533222380150;-4.0005;-0.1519;-0.0377;
415533232502077;-10.2526;-0.1161;-3.0655;
415533242606765;-14.1526;1.3597;-0.5647;
415533252711400;-6.2809;-0.2716;-2.0234;
415533262821348;-7.4094;0.4998;-5.1401;
415533272926035;-5.5217;-0.4418;-2.1027;
415533283030671;-12.4134;0.9835;-5.3366;
415533293133067;-11.6877;0.3559;-2.3037;
415533303237754;-14.6438;1.3478;0.6667;
415533313342390;-6.7146;0.9021;-0.3682;
415533323459577;-6.9446;-1.6971;-3.0081;
415533333564213;-11.1559;-0.2357;0.2785;
415533343668900;-10.2407;-0.2357;-1.5179;
415533353772910;-12.5836;-0.8249;-2.8355;
415533363877546;-7.0690;0.1570;1.1985;
415533373982233;-6.4128;1.5105;0.3144;
415533384067910;-9.4167;1.5419;-2.4811;
415533394172598;-11.9800;0.7271;-2.7350;
415533404277233;-13.5392;1.4148;-2.1266;
415533414403431;-3.4998;1.5105;-0.3203;
415533424508067;-8.9901;-2.5929;-6.8145;
415533434612754;-16.3684;0.9476;-2.6584;
415533444725723;-5.1407;1.7812;2.2693;
415533454830358;-1.4611;-1.1076;-6.0841;
415533464935046;-16.5553;-0.3628;-4.4692;
415533475033015;-13.1895;2.6004;3.1268;
415533485137702;-4.2449;1.6017;-0.2773;
415533495242338;-10.5975;-0.2166;-3.7388;
415533505343952;-8.8346;-0.6191;0.0990;
415533515448640;-8.7389;1.2278;-2.5768;
415533525553275;-12.8542;0.6338;-1.7025;
415533535659473;-9.1436;0.3464;1.1961;
415533545764160;-7.3277;-0.5207;-3.8871;
415533555868796;-15.2450;0.9643;-2.8618;
415533565956244;-7.9890;2.5932;4.4922;
415533576060931;0.3377;1.5849;0.1445;
415533586165567;-15.7744;0.1379;-9.8785;
415533596270410;-15.3526;1.6376;-1.0247;
415533606375098;-8.6022;0.6003;4.2766;
415533616479733;-7.6582;-0.0993;-3.4633;
415533626593431;-9.9915;-0.6718;-2.9794;
415533636698119;-11.9441;-0.2500;0.3120;
415533646802754;-8.8705;0.3200;-0.6317;
415533656903952;-7.7279;-0.5710;-3.4561;
415533667008640;-8.8155;0.3416;-2.1266;
415533677113275;-10.1761;0.2363;-2.1888;
415533687220983;-10.8682;0.3105;-1.6116;
415533697325671;-7.5769;1.0579;-2.4739;
415533707430306;-9.5390;-0.9640;-3.8991;
415533717532598;-10.2550;0.6840;-1.1252;
415533727637285;-10.3822;-0.8130;-3.4155;
415533737741921;-15.1131;0.3559;-0.6724;
415533747843327;-6.0437;-1.0190;-1.1922;
415533757948015;-8.9231;-1.3400;-3.4370;
415533768052650;-12.7777;1.5778;1.7064;
415533778152806;-6.3410;-0.3266;-0.2390;
415533788257494;-6.0006;-0.3147;-4.3376;
415533798362129;-17.4679;1.6376;0.0918;
415533808478327;-7.9292;0.5524;-2.8618;
415533818583015;-6.5659;-1.4384;-1.8799;
415533828687702;-7.6681;0.8327;-0.8474;
415533838800827;-14.5717;0.5907;-4.4142;
415533848905515;-8.4248;0.3918;-0.7588;
415533859010202;-7.1267;-0.3724;-4.4668;
415533869091973;-10.3292;-0.0706;-2.7541;
415533879196660;-8.5424;1.1728;0.8438;
415533889301348;-8.0919;0.5596;-3.7125;
415533899413640;-9.7041;0.5213;-3.4202;
415533909518327;-12.5070;1.3884;1.8858;
415533919623015;-12.4854;0.1355;-2.9387;
415533929734994;-11.5295;-0.0730;-1.3792;
415533939839681;-5.5265;-0.0057;4.3292;
415533949944369;-5.2101;-0.1687;-1.6499;
415533960037910;-12.6936;-0.3724;-7.6962;
415533970142598;-12.7271;1.9609;-2.0474;
415533980247285;-8.8825;0.1235;3.9485;
415533990355931;-6.9039;1.2951;-2.4308;
415534000460619;-10.7007;0.6505;-5.6408;
415534010565306;-11.5941;0.9404;0.2282;
415534020667494;-3.5118;1.2159;0.2904;
415534030772181;-11.1341;0.0661;-6.9823;
415534040876817;-19.8969;-0.1089;-2.5504;
415534050987494;-5.6079;0.1259;2.9471;
415534061092181;-2.7188;-2.0635;-1.0487;
415534071196869;-10.1186;-0.3796;-4.7016;
415534081294681;-14.1191;2.1574;-0.9120;
415534091399369;-6.0846;1.5368;1.7160;
415534101504056;-5.7395;-0.6048;-3.9350;
415534111611765;-18.3541;1.7333;-4.0358;
415534121716452;-8.1852;-0.0009;0.8462;
415534131821140;-6.5973;-0.5040;-1.1874;
415534141929265;-12.5453;0.4998;-1.1468;
415534152033952;-9.9126;-0.0655;-1.1946;
415534162138640;-11.6157;-0.7029;-5.5905;
415534172233223;-10.0971;-0.8560;0.5396;
415534182337910;-5.7419;0.6793;-0.0664;
415534192442598;-8.4081;0.8830;-0.9311;
415534202560306;-8.6979;0.5118;-4.4572;
415534212664994;-13.1034;1.3167;-3.3553;
415534222769681;-6.9829;1.5897;2.8801;
415534232868952;-4.7408;-1.2323;-6.7977;
415534242973640;-15.8964;0.6936;-8.7861;
415534253078327;-10.2598;-0.1137;5.5175;
415534263182494;-6.5683;0.6793;-1.7671;
415534273287181;-11.3617;-0.9975;-7.7991;
415534283391817;-12.4397;0.1762;-0.1597;
415534293552650;-7.1240;0.4735;0.3167;
415534303657338;-11.7787;0.7247;0.0556;
415534313762025;-7.7877;0.8806;-0.5695;
415534323812077;-9.9796;0.9165;-1.5156;
415534333916713;-8.5783;1.0340;-1.6977;
415534344021400;-7.8404;-0.4202;-1.9875;
415534354183431;-8.3650;0.9571;-1.9588;
415534364288119;-13.9059;0.6577;-2.7039;
415534374392806;-11.5846;0.6912;-2.5792;
415534384451452;-5.6581;0.4014;-0.2892;
415534394556140;-10.4635;0.0924;-1.9540;
415534404660775;-11.0145;1.0268;-4.2706;
415534414770723;-6.9087;0.0733;-1.3265;
415534424875410;-6.5803;0.2554;-2.0115;
415534434980098;-16.5601;1.2087;-3.9903;
415534445073848;-10.2550;-0.3194;1.8595;
415534455178535;-6.1732;0.7319;-0.4857;
415534465283223;-11.9632;0.6410;-1.6834;
415534475384160;-14.9288;0.2674;0.6428;
415534485488848;-5.4233;0.6386;-0.7971;
415534495593535;-5.8164;-0.8803;-4.9795;
415534505692390;-13.8939;0.8925;-3.1974;
415534515797077;-6.2880;0.4831;-0.8258;
415534525901765;-12.1786;0.4926;-4.6274;
415534536005983;-11.4075;0.6027;-2.6345;
415534546110671;-4.1345;0.2315;0.5300;
415534556215358;-3.7274;0.0948;-5.6264;
415534566337806;-13.2398;0.2124;-7.3606;
415534576442494;-20.1437;0.9284;0.4726;
415534586547181;-8.8705;0.4759;2.5831;
415534596635515;-2.0698;-1.6346;-3.3147;
415534606740202;-7.0116;-1.1940;-5.7150;
415534616844890;-14.0160;0.8016;-2.3997;
415534626955150;-11.2995;0.5309;2.6596;
415534637059838;-14.1766;1.7118;-1.2377;
415534647164525;-6.4630;-0.4107;-0.2151;
415534657271244;-1.9762;-0.6072;-4.5604;
415534667375931;-7.8428;-0.5375;-6.3401;
415534677480619;-6.2641;0.6769;-1.5084;
415534687587077;-17.7458;1.1106;-2.1314;
415534697691765;-18.0117;1.1130;-0.2031;
415534707796452;-8.5831;-0.5997;-1.1133;
415534717901765;-2.1870;-2.0276;-1.4844;
415534728006452;-6.0559;0.2291;-1.8081;
415534738111140;-12.1499;1.0053;-2.3973;
415534748209056;-11.3809;1.2999;-1.5637;
415534758313744;-7.2846;-0.4513;-3.0799;
415534768418431;-11.5965;0.1929;-4.5580;
415534778523640;-10.1737;0.5285;0.8294;
415534788628327;-7.5099;0.3392;2.4033;
415534798733015;-10.4898;1.9585;0.0628;
415534808837181;-8.5687;2.9647;0.7768;
415534818941869;-8.4153;0.2028;-5.3342;
415534829046556;-14.0710;-1.2514;-8.7550;
415534839168640;-9.6084;1.9992;0.2067;
415534849273327;-11.9441;1.3262;5.0169;
415534859377963;-7.8308;0.2411;-1.2066;
415534869467494;-3.9742;-0.0009;-4.4022;
415534879572181;-8.0584;0.7319;-3.3888;
415534889676817;-17.3387;2.8448;-0.0664;
415534899773015;-11.2923;1.8748;-0.7493;
415534909877702;-9.3066;-1.5221;-0.4208;
415534919982338;-6.4176;0.3440;0.9230;
415534930106973;-5.0545;0.9356;-3.2261;
415534940211660;-12.3033;0.1642;-5.1449;
415534950316296;-10.9283;1.0101;-3.0200;
415534960396817;-9.5267;0.4325;-1.6642;
415534970501504;-7.9890;1.8532;0.5970;
415534980606140;-10.7222;-0.1711;-5.4897;
415534990725827;-13.9753;0.5429;-4.5891;
415535000830515;-6.4774;0.5429;4.8443;
415535010935150;-2.6758;-0.3628;1.3421;
415535021020098;-11.2182;-0.0778;-11.9961;
415535031124785;-17.9279;0.3296;-5.1951;
415535041229421;-5.4497;0.1235;5.2134;
415535051350515;-4.9657;-2.3486;-2.8379;
415535061455202;-14.5645;0.3846;-6.0479;
415535071559838;-13.0173;0.9739;-0.1095;
415535081662285;-6.0413;0.0446;0.5180;
415535091766973;-4.2185;0.3416;-3.4059;
415535101871608;-11.7428;0.4926;-5.2286;
415535111962910;-10.6098;1.3908;-3.9159;
415535122067598;-8.2932;-0.8297;-3.6045;
415535132172233;-5.8259;-0.2333;-3.0057;
415535142279265;-8.3315;0.6912;-3.0057;
415535152383952;-18.9556;0.5142;-3.4107;
415535162488640;-15.3407;-1.0741;0.3864;
415535172599994;-2.3094;-0.9185;1.8308;
415535182704681;-2.2277;-1.6011;-3.9063;
415535192809369;-12.2937;0.6649;-7.9813;
415535202930046;-10.9140;0.0494;-4.3496;
415535213034733;-8.1350;-1.0310;-0.4041;
415535223139369;-8.3291;0.9045;-2.6489;
415535233223015;-11.7452;-0.5471;-3.7412;
415535243327702;-9.6682;-0.2835;-2.0378;
415535253432338;-10.1163;-0.5495;-1.3768;
415535263544004;-11.9871;0.6649;0.8605;
415535273648692;-0.5414;0.0613;-0.0568;
415535283753327;-13.8075;-1.6059;-13.0884;
415535293858067;-18.4908;-1.1148;-7.2075;
415535303962806;-5.5959;-1.0525;4.8467;
415535314067442;-5.1526;-0.7890;2.2980;
415535324219681;-8.5591;1.0723;-6.0574;
415535334324369;-10.8757;-0.8970;-3.4729;
415535344428952;-9.5868;0.4807;-2.0644;
415535354478640;-9.9604;0.1905;-2.3133;
415535364583327;-7.3875;0.4636;-3.4681;
415535374687963;-8.7915;-1.0071;-5.1640;
415535384807910;-11.1392;-0.5351;-2.8813;
415535394912598;-11.5439;0.2243;-2.1936;
415535405017233;-9.5052;0.8303;-0.3395;
415535415112910;-3.9335;-0.3389;-5.8277;
415535425217598;-13.6328;-0.6742;-6.3114;
415535435322285;-11.0575;-0.1663;-0.3108;
415535445426244;-7.4836;0.6218;-0.0999;
415535455530931;-11.4290;0.2506;-1.6068;
415535465635567;-9.2106;0.5907;-1.2787;
415535475742285;-8.8920;0.8399;-2.6273;
415535485846973;-8.5017;-0.0296;-4.1554;
415535495951608;-7.5075;-0.2453;-3.8058;
415535506046140;-7.6920;0.4421;-4.5317;
415535516150827;-10.5760;0.6314;-4.9029;
415535526255463;-7.2775;1.0962;-3.9736;
415535536357598;-10.9283;1.8461;-1.9205;
415535546462285;-8.1470;0.8016;0.2785;
415535556566921;-6.7505;-0.2405;-5.1568;
415535566688223;-8.1876;-0.1448;-6.4385;
415535576792910;-12.1881;1.4411;-1.7886;
415535586897546;-13.1943;0.2076;0.2378;
415535596992077;-13.4985;-0.5183;-0.6365;
415535607096765;-4.7312;-0.1831;0.0748;
415535617201400;-13.7931;-0.0849;-1.0247;
415535627312910;-13.7644;0.6314;-0.6820;
415535637417598;1.6241;0.9117;-1.2305;
415535647522233;4.4414;1.1512;-7.2553;
415535657621973;-2.9369;2.8687;-12.0607;
415535667726660;-25.6870;3.7887;-8.6973;
415535677831296;-20.3737;2.5406;4.2239;
415535687944890;-0.1053;0.5931;9.2234;
415535698049577;-1.9116;-0.2644;-1.2233;
415535708154265;-20.3665;-0.5064;-10.2425;
415535718250931;-15.2187;-0.3580;-2.9459;
415535728355619;-2.3955;-1.7067;0.6452;
415535738460254;-11.7858;-0.7651;-2.8331;
415535748565306;-10.0947;-1.2945;-5.0444;
415535758669994;-9.3066;-0.4322;-2.5146;
415535768774629;-4.8485;1.8676;5.2062;
415535778887077;-12.5166;4.0379;5.4144;
415535788991765;-13.0173;3.8581;-1.1180;
415535799096452;-4.8796;1.4674;-11.1960;
415535809200983;-10.2191;-1.3065;-7.8182;
415535819305671;0.2228;-0.1639;0.8079;
415535829410358;-6.9852;1.1177;-9.8474;
415535839528327;-12.1762;0.3153;-12.8584;
415535849633015;-15.3814;0.3009;-0.3993;
415535859737702;-14.6076;2.2579;3.9102;
415535869819265;-11.0934;0.2770;-1.5613;
415535879923952;-1.9283;-0.9138;-0.5288;
415535890028640;-3.3849;0.1953;0.1588;
415535900132650;5.6940;-0.1161;-5.2669;
415535910237338;-10.8203;1.5248;-16.3534;
415535920342025;-44.8077;2.2340;-3.7460;
415535930463223;-17.7864;-0.5160;18.1131;
415535940567910;14.5334;-1.6657;7.3454;
415535950672598;8.1640;-0.7627;-11.5648;
415535960759733;-10.7629;0.2387;-16.2697;
415535970864421;-36.9936;2.8663;-0.8426;
415535980969108;-13.2832;3.2833;7.8891;
415535991078431;-0.3305;0.9356;-1.7336;
415536001183119;7.7662;-1.6490;-9.3347;
415536011287806;0.6299;-1.8909;-8.0626;
415536021395306;-27.8668;1.4028;-1.4486;
415536031499994;-16.5338;5.6979;12.0212;
415536041604629;-4.2473;5.8466;-2.1266;
415536051698900;-7.4931;-2.3509;-24.9485;
415536061803588;-11.1703;-5.2543;-9.5501;
415536071908275;-7.5841;-1.3041;17.7129;
415536082023015;-7.2129;3.1346;10.0642;
415536092127702;-4.2999;1.0723;-16.6146;
415536102232390;-19.2096;-1.9487;-22.9627;
415536112335931;-9.2273;-3.1606;4.6481;
415536122440619;-10.8395;-1.0310;12.4717;
415536132545306;-7.7255;2.8735;2.7410;
415536142646817;-0.7092;2.8953;-3.8106;
415536152751504;-10.6720;0.2459;-13.4955;
415536162856140;-17.7194;-0.7723;-10.0149;
415536172963483;-17.8992;0.0972;2.4559;
415536183068171;-10.2670;0.2411;7.9537;
415536193172858;-4.8580;0.7609;-0.0855;
415536203292390;-10.0609;0.7104;-7.9789;
415536213397025;-6.5109;-0.7149;-3.9159;
415536223501713;-16.3971;0.8016;-1.2185;
415536233594369;-18.6395;0.7944;-0.6102;
415536243699056;1.0564;1.0507;-1.0989;
415536253803744;-4.9585;-0.3075;-4.7545;
415536263895775;-8.5519;-0.1041;-4.9962;
415536274000463;-5.3013;1.7548;-5.7724;
415536284105150;-14.3516;1.7883;-7.8972;
415536294208223;-13.2183;0.8949;-4.9819;
415536304312858;-3.3559;0.1283;-4.5221;
415536314417546;-1.7055;-1.1653;-7.0684;
415536324554213;-8.8011;-1.2993;-7.7010;
415536334658900;-17.5062;-0.2812;-1.7791;
415536344763535;-5.8379;0.8853;-0.5599;
415536354847494;-9.4214;-1.2610;-9.0401;
415536364952181;-11.6420;-1.4432;0.6882;
415536375056869;-8.0513;0.4588;7.0265;
415536385168848;-11.4482;0.4349;-2.8884;
415536395273535;-9.2010;1.5562;-1.0965;
415536405378223;-0.8743;1.8051;0.3096;
415536415473640;-4.8150;1.0747;-8.9130;
415536425578327;-22.0098;1.0388;-7.6409;
415536435683015;-18.5674;0.3775;5.6444;
415536445798900;1.6433;1.3143;6.3488;
415536455903588;3.4256;0.3081;-7.9502;
415536466008275;-15.2880;-0.1543;-12.7576;
415536476101973;-15.6856;0.1762;1.7447;
415536486206660;-5.7802;-0.8850;0.4223;
415536496311348;-9.5462;0.3966;-8.6638;
415536506414890;-8.1278;0.1068;-0.2964;
415536516519577;-5.6773;-1.1892;0.6978;
415536526624213;-7.6008;-0.2931;-6.6470;
415536536745931;-0.7570;1.0531;0.1947;
415536546850619;-4.8293;-0.9138;-8.2158;
415536556955306;-35.4748;-1.9965;-13.9938;
415536567048848;-39.5091;-2.7102;14.2804;
415536577153535;-9.3712;-4.6074;27.2638;
415536587258223;20.4936;-1.5150;0.1756;
415536597362910;1.4324;-2.1257;-17.0360;
415536607467598;-18.6515;-0.5830;-18.3057;
415536617572285;-19.0035;3.1107;-5.4993;
415536627693588;-11.4864;4.1671;7.2111;
415536637798275;-16.4833;2.6366;2.1230;
415536647902963;-1.1115;2.0809;-0.0473;
415536657999056;2.5346;1.9442;0.3048;
415536668103744;-8.5687;1.1082;-10.1659;
415536678208431;-6.3266;0.3703;-18.9383;
415536688306140;-19.6573;-2.6360;-19.6735;
415536698410827;-22.1752;-4.8733;-10.0941;
415536708515515;-10.4707;-0.7268;14.9198;
415536718622285;5.6964;1.5634;14.9868;
415536728726973;-0.5055;1.9418;-8.2184;
415536738831660;-12.7920;1.6711;-14.5543;
415536748942077;-13.2015;1.6328;-3.5447;
415536759046765;-14.6438;0.4349;-5.9952;
415536769151452;-15.4606;0.3009;-0.7875;
415536779233431;3.4256;1.5248;8.1646;
415536789338119;-8.2190;0.0398;-3.8776;
415536799442806;-17.3411;1.7596;-5.5017;
415536809555306;-4.9801;1.5682;-3.9640;
415536819659994;-9.4190;1.5706;-5.4562;
415536829764629;-5.2798;1.3884;-0.1836;
415536839886973;-15.9538;1.4124;-3.0248;
415536849991660;-15.1250;2.2436;0.5946;
415536860096296;5.2271;1.5467;1.6896;
415536870184056;3.5118;-0.1974;-11.6653;
415536880288744;-8.9207;-0.0368;-12.6858;
415536890393379;-5.0641;0.8207;-4.4692;
415536900483952;-10.0971;0.8327;-4.7737;
415536910588640;-18.5889;0.2100;-3.3745;
415536920693275;-14.5932;-0.2405;1.7351;
415536930813952;-6.8533;-1.4527;3.6491;
415536940918640;-5.5481;-1.3448;3.3975;
415536951023275;-26.3264;-1.8383;-0.1382;
415536961143588;-21.8566;-2.3629;-0.0808;
415536971248223;-1.5835;-3.1534;1.2846;
415536981352858;-1.5141;-2.6216;1.6920;
415536991442910;-17.2956;-0.4322;3.3257;
415537001547598;-28.6071;3.8366;5.5558;
415537011652233;-11.4745;5.1254;5.8624;
415537021753067;34.7252;4.0259;-2.0115;
415537031857702;0.0957;-1.2897;-22.2512;
415537041962390;-24.5492;-0.7316;-26.5415;
415537052069785;-16.9265;0.4038;-0.3730;
415537062174473;6.1253;2.9432;-4.3496;
415537072279108;-28.3819;1.5658;-18.2961;
415537082370515;-46.1276;-6.9383;7.1512;
415537092475098;-7.0331;-6.3012;22.8850;
415537102579733;11.2038;-1.3998;4.9905;
415537112684421;-2.4888;-4.9717;-15.9269;
415537122814994;-19.8395;-7.3170;-17.6830;
415537132919629;-22.5201;-3.8243;-0.5838;
415537143024317;14.2723;2.2842;18.6233;
415537153109056;3.8136;10.9585;-1.5278;
415537163213692;-22.8075;10.0146;-16.3415;
415537173318379;-8.2956;3.5228;-2.5122;
415537183423744;9.6849;0.5357;-3.4872;
415537193528431;2.2902;0.9811;-26.4290;
415537203633067;-25.2533;-5.3836;-27.0374;
415537213734369;-25.1767;-8.4595;4.4635;
415537223839004;2.2519;-1.6585;15.3221;
415537233943692;7.8141;4.3325;3.1555;
415537244060827;-17.3172;4.1264;-6.0287;
415537254165515;-23.2197;2.9025;4.8514;
415537264270150;-3.1765;1.0842;8.3273;
415537274370046;-4.8341;-1.0167;-7.8254;
415537284474733;-6.6523;-3.5007;-8.5035;
415537294579421;-9.2536;-2.4996;0.7672;
415537304698848;-5.9097;1.7046;4.5257;
415537314803483;-5.8905;2.9384;-0.9861;
415537324908171;-8.9518;-0.6766;-12.2644;
415537335002494;-15.5252;-1.2849;-4.4886;
415537345107181;-4.0986;2.2460;9.0556;
415537355211817;-3.8303;3.0604;-1.8320;
415537365311452;-10.3053;1.6759;-10.7743;
415537375416140;-12.7008;-0.3413;-0.9335;
415537385520775;-5.7275;-0.6383;0.0485;
415537395637494;-13.7333;0.5142;-2.8837;
415537405742181;-9.7663;0.3392;1.2535;
415537415846817;-19.7892;-0.9640;0.5300;
415537425941244;-17.6596;0.4181;4.0896;
415537436045931;1.3319;-0.9257;4.5305;
415537446150567;-8.7676;-2.2552;-5.1377;
415537456271765;-17.2594;-0.2500;-6.4241;
415537466376452;-3.6266;0.1451;-1.9301;
415537476481088;-1.2936;0.6003;-5.9139;
415537486568223;-14.7108;2.5645;-7.0181;
415537496672910;-12.0948;3.3598;-0.6293;
415537506777546;-3.7705;3.5611;-1.5470;
415537516876817;-5.0593;1.1608;-6.9559;
415537526981504;-6.0174;0.9141;-8.8340;
415537537086140;-15.3144;0.2411;-10.5586;
415537547195931;-14.0638;1.1776;-1.6403;
415537557300619;-7.6295;1.4052;2.0608;
415537567405254;-6.8438;0.2100;-2.5026;
415537577516140;-9.2731;-2.5929;-2.3973;
415537587620827;-8.2573;-1.2514;-0.6389;
415537597725463;-3.6891;2.1670;-0.7107;
415537607828015;-2.8409;1.5009;-7.2458;
415537617932702;-10.8275;2.7012;-6.3018;
415537628037338;-8.2334;4.4067;-0.1071;
415537638131973;-1.4515;5.1996;-0.3347;
415537648236660;-9.5486;3.5515;-3.8991;
415537658341296;-54.8019;3.1274;2.1254;
415537668443900;-31.6445;3.3455;15.9811;
415537678548588;27.6224;-3.9990;13.8754;
415537688653223;5.2391;-9.1277;-7.1644;
415537698775931;-14.3659;-3.0577;-23.4850;
415537708880619;-8.8466;0.4636;-16.8996;
415537718985254;-11.0527;0.3990;3.1842;
415537729080567;-12.3823;4.0834;12.8261;
415537739185254;-14.4640;8.5367;3.1866;
415537749289890;-11.9342;8.3641;2.0345;
415537759398744;0.2922;3.2474;2.3148;
415537769503431;4.1874;-3.1654;-22.3134;
415537779608067;-25.3349;-10.7880;-44.9175;
415537789706556;-23.0136;-10.8335;-4.5102;
415537799811244;7.7064;-4.9621;20.3958;
415537809915879;-2.9489;9.2408;2.5759;
415537820020723;-16.9457;9.6506;-3.1352;
415537830125410;-12.2937;1.0460;2.4993;
415537840230046;-4.9537;0.2363;-8.7694;
415537850338744;-0.0981;-0.1567;-12.3769;
415537860443431;-14.9264;0.9500;-7.6768;
415537870548067;-14.3659;3.0102;0.9446;
415537880641244;-6.5204;0.6529;-1.8583;
415537890745931;-11.4048;-2.3055;-5.7461;
415537900850567;-16.5864;0.4373;4.6983;
415537910956660;-4.2688;0.6984;5.5319;
415537921061296;-7.1794;1.6543;-2.6680;
415537931165983;-14.8424;3.1971;0.5276;
415537941274733;-10.0490;3.2234;0.3096;
415537951379421;-8.9973;2.1144;-4.8311;
415537961484056;-5.6438;0.4397;-1.9564;
415537971579577;-0.3401;0.6218;-2.3734;
415537981684213;-11.8002;1.3023;-11.6581;
415537991788900;-14.3465;0.7370;-3.7316;
415538001883952;-9.1627;1.4004;0.2258;
415538011988588;-0.8886;0.0159;-7.0708;
415538022093275;-16.3660;-0.5877;-3.3912;
415538032213640;-18.9820;0.8830;4.3917;
415538042318327;-6.7433;-0.6861;-1.0104;
415538052422963;-5.1718;-1.5748;-7.0708;
415538062525098;-13.3669;-1.3663;-2.2630;
415538072629785;-14.7850;-0.4848;4.1067;
415538082734369;-6.6811;-0.2070;-1.5996;
415538092854056;-8.4440;-0.6239;-2.6369;
415538102958744;-11.8816;0.3416;-2.2534;
415538113063379;-11.7500;1.1656;-3.4825;
415538123183535;-8.7075;1.2446;0.0990;
415538133288171;-2.6447;1.5057;-1.2763;
415538143392858;-10.6528;-0.6239;-12.0823;
415538153483431;-13.2183;0.1546;-7.2386;
415538163588067;-7.9436;1.9872;2.5041;
415538173692754;-4.8078;-0.9401;-1.9660;
415538183788744;-11.3402;-1.4575;-8.5059;
415538193893379;-13.2039;-0.5160;-1.1252;
415538203998015;-4.8820;1.0125;2.5639;
415538214132285;-3.8160;-0.7077;-6.1032;
415538224236973;-13.1417;-0.6144;-5.3988;
415538234341608;-2.9752;0.7056;2.6524;
415538244411296;1.0301;0.8853;-4.5820;
415538254515931;-39.1472;1.9202;-4.2802;
415538264620567;-25.7085;1.5610;10.2559;
415538274747390;6.0392;0.3033;9.0652;
415538284852077;3.8375;-3.5246;-3.2596;
415538294956660;-13.7285;-0.5686;-12.2067;
415538305032598;-16.4091;1.5296;-5.7700;
415538315137285;-9.2154;2.6052;4.6433;
415538325241921;-6.9230;2.9336;3.4478;
415538335367390;-6.6212;0.8136;-2.2391;
415538345472077;-10.7390;2.8400;-3.1400;
415538355576713;-8.1852;2.1622;5.6013;
415538365683848;-2.2995;2.1837;-9.3419;
415538375788535;-18.2536;-2.3486;-23.7413;
415538385893171;-13.1776;-3.6374;-2.1912;
415538395995619;-8.9064;-3.2444;10.7324;
415538406100306;-15.9299;-1.0262;-1.7312;
415538416204942;-3.9838;0.3631;-4.4620;
415538426296660;-7.4907;-1.6226;-0.4929;
415538436401348;-23.7730;0.1738;0.3505;
415538446505983;-17.9901;0.9356;0.9015;
415538456613431;0.0790;0.0446;1.9122;
415538466718119;-2.8361;-1.3017;-2.7398;
415538476822754;-12.0948;-0.8994;-10.3071;
415538486924160;-14.6797;1.8389;-7.6720;
415538497028848;-9.6610;1.6041;-1.1276;
415538507133483;-3.6290;1.3525;-4.1674;
415538517235306;-9.5438;-0.6048;-9.9120;
415538527339994;-16.6271;1.9609;-1.1133;
415538537444629;-8.0871;1.2903;2.7891;
415538547558640;-8.6692;-0.0921;-13.0621;
415538557663327;-16.4354;-4.0902;-7.1186;
415538567767963;-3.2076;-1.6947;5.0025;
415538577881869;-6.6428;-0.5734;-4.4189;
415538587986504;-17.4272;-0.8827;-6.2539;
415538598091192;-14.5119;0.2985;-1.5876;
415538608183535;0.0957;0.8351;1.4859;
415538618288223;-7.5314;1.2350;-1.8511;
415538628392806;-26.8032;1.5945;-3.8465;
415538638490254;-10.2191;2.1837;0.9350;
415538648594942;9.3951;-0.9018;-1.5446;
415538658699577;6.7552;-1.3448;-12.3936;
415538668807077;-22.5823;0.6458;-16.6457;
415538678911765;-33.7526;2.2436;6.8638;
415538689016400;-3.6027;0.7872;10.5601;
415538699124265;6.0607;-2.2720;-6.3691;
415538709228952;-5.8355;-2.9976;-9.8833;
415538719333588;-11.4338;0.6170;0.2617;
415538729435723;-10.1665;1.8389;1.4139;
415538739540410;-8.8298;-1.4049;-9.9526;
415538749645046;-13.0220;-2.2361;-6.4935;
415538759747181;-10.9307;-0.0272;6.8590;
415538769851869;-6.6141;1.5778;9.6281;
415538779956504;-5.3109;1.0125;-3.8608;
415538790058483;-14.6222;-0.4298;-15.0335;
415538800163171;-12.5668;-1.2897;-3.0320;
415538810267806;-4.4844;-1.6274;4.7222;
415538820374681;-13.2661;1.1106;-0.4089;
415538830479317;-12.9260;2.3201;-0.5695;
415538840583952;-2.7428;1.2903;1.0092;
415538850693952;-10.6289;0.4854;-2.5911;
415538860798588;-8.8226;2.0423;-3.5734;
415538870903223;-11.4506;0.5166;-3.7196;
415538881017233;-6.5348;0.6003;-2.3495;
415538891121869;-6.1804;1.0388;-3.6742;
415538901226556;-15.8270;-0.4801;-5.5666;
415538911316973;-14.1455;0.0206;0.6260;
415538921421608;-5.0904;1.1225;2.0441;
415538931526296;-5.5983;-0.0392;-4.4719;
415538941624056;-14.3225;0.8255;-3.3434;
415538951728744;-11.2110;1.6328;1.0259;
415538961833327;-5.8642;0.6625;-2.6728;
415538971943431;-7.4859;1.3167;-3.9688;
415538982048067;-7.8595;1.8820;-4.5508;
415538992152754;-11.4769;1.1106;-3.8632;
415539002270046;-10.8996;2.7108;-0.4953;
415539012374733;-7.0618;2.3803;-1.9540;
415539022479369;-21.4134;0.2578;-5.0133;
415539032568431;-17.3267;1.5562;3.8767;
415539042673067;16.7207;-0.0488;2.8131;
415539052777754;7.1052;-1.4312;-14.2382;
415539062888848;-25.3155;2.6390;-12.8130;
415539072993483;-25.4187;4.5003;5.0073;
415539083098119;-8.4634;2.6294;1.4429;
415539093199890;-0.1101;-1.1629;-2.5217;
415539103304525;-2.8651;-0.3700;1.0714;
415539113409160;-12.0350;-0.0897;-2.3614;
415539123558744;-14.7682;2.7538;-5.6671;
415539133663379;-8.5950;0.9954;-5.9498;
415539143768015;-7.1770;-1.9606;-8.7838;
415539153813431;-15.4989;-1.6226;1.6896;
415539163918067;-4.4267;2.4353;12.4406;
415539174022754;1.0181;1.5778;-2.7254;
415539184167806;-14.0638;-0.1208;-16.0923;
415539194272442;-16.9935;0.6242;-4.9531;
415539204377025;-8.3578;0.3823;5.0719;
415539214456660;-4.9370;-0.1424;-1.2305;
415539224561296;-9.3592;-0.5327;-6.1702;
415539234665931;-12.1187;-0.1256;-1.4677;
415539244785306;-8.3243;-0.8465;-1.5302;
415539254889942;-8.9830;-1.2849;-6.6900;
415539264994577;-11.8122;-0.1352;0.4175;
415539275081452;-6.0485;-0.3724;-0.1095;
415539285186088;-8.3865;-0.3748;-5.6575;
415539295290775;-11.8983;-0.1041;-2.6871;
415539305409577;-10.4994;1.2159;1.2200;
415539315514213;-7.6439;-1.1171;-5.2502;
415539325618848;-10.9164;0.0972;-4.0669;
415539335732077;-11.4386;0.2626;0.5587;
415539345836713;-12.0326;-1.2323;-1.9540;
415539355941348;-9.1962;-0.2381;-2.6010;
415539366039994;-5.8451;0.6553;0.6356;
415539376144629;-4.0005;-0.2333;-5.4634;
415539386249317;-14.4568;-0.2979;-8.4891;
415539396334733;-11.8887;0.4831;0.7624;
415539406439369;-7.7542;-0.0969;-1.2066;
415539416544004;-7.9890;-0.5447;-4.6011;
415539426654890;-8.9590;-0.0248;-3.0153;
415539436759525;-11.7667;-0.3437;-1.7862;
415539446864160;-10.1282;-0.6455;-2.9459;
415539456968535;-9.0168;-0.1711;-4.5389;
415539467073171;-6.9446;0.0230;-2.8283;
415539477177806;-8.4105;-1.3232;-3.9182;
415539487289265;-8.9207;0.5668;-3.1711;
415539497393900;-13.4076;0.6290;-0.1334;
415539507498535;-11.4553;0.7295;-2.3228;
415539517591140;-6.5850;0.8782;-1.7145;
415539527695775;-8.2549;1.0388;-2.7326;
415539537800410;-9.5725;0.4325;-2.9985;
415539547909733;-8.0321;0.5572;-3.4705;
415539558014369;-9.7950;0.3894;-4.9507;
415539568119004;-6.3625;0.4926;-3.4872;
415539578231973;-6.8031;0.4038;-4.7474;
415539588336608;-11.9656;0.7585;-3.6165;
415539598441244;-10.9810;1.4961;0.9829;
415539608541660;-7.0666;1.1752;-2.0883;
415539618646296;-10.3989;0.3416;-6.5222;
415539628750983;-10.9834;-0.2405;-2.6321;
415539638841973;-10.0971;-0.6574;1.9890;
415539648946608;-7.8571;-0.1807;-2.7781;
415539659051244;-8.8083;-0.0511;-3.0727;
415539669165410;-7.3950;0.1546;-3.4944;
415539679270046;-10.5951;0.7247;-4.2634;
415539689374681;-10.4204;0.5979;0.5420;
415539699475931;-8.9925;0.9476;-0.2366;
415539709580567;-8.8490;1.1560;-3.7555;
415539719685254;-7.9771;0.1211;-5.7054;
415539729794265;-12.4732;0.1475;-2.0716;
415539739898900;-12.2794;-0.1232;-0.5480;
415539750003535;-8.4993;0.1522;-3.1301;
415539760117181;-6.1828;-0.1496;-3.7579;
415539770221817;-6.8656;-0.7531;-4.4572;
415539780326452;-13.0268;0.3583;-3.5566;
415539790416869;-11.4793;1.1847;0.2880;
415539800521504;-3.1980;0.9356;-0.7107;
415539810626140;-2.2301;-0.7795;-7.5260;
415539820733483;-19.7294;0.9284;-6.9057;
415539830838119;-17.7912;0.6266;3.3353;
