Sensor: bmi160 Gyroscope Non-wakeup
Vendor: BOSCH
TimestampGyro [ns]; GyroX [rad/s]; GyroY [rad/s]; GyroZ [rad/s]
5087975666729473;-0.0011;0.0008;0.0025;
5087975686948848;-0.0075;-0.0003;0.0036;
5087975707144890;-0.0000;-0.0013;0.0089;
5087975742551921;-0.0032;-0.0019;0.0286;
5087975762752285;-0.0069;-0.0061;0.0419;
5087975782956348;-0.0149;-0.0072;0.0585;
5087975803168744;-0.0149;-0.0083;0.0776;
5087975823400254;-0.0197;-0.0157;0.0952;
5087975843575150;-0.0234;-0.0184;0.1149;
5087975863798067;-0.0309;-0.0136;0.1304;
5087975884051869;-0.0336;-0.0146;0.1458;
5087975904217962;-0.0368;-0.0248;0.1565;
5087975924438015;-0.0389;-0.0274;0.1650;
5087975944614733;-0.0410;-0.0226;0.1687;
5087975964821921;-0.0431;-0.0216;0.1708;
5087975985040671;-0.0431;-0.0232;0.1714;
5087976005245567;-0.0410;-0.0258;0.1714;
5087976025484994;-0.0410;-0.0242;0.1703;
5087976045667025;-0.0399;-0.0242;0.1676;
5087976065870671;-0.0405;-0.0264;0.1644;
5087976086088640;-0.0405;-0.0216;0.1597;
5087976106284004;-0.0405;-0.0178;0.1597;
5087976126492858;-0.0394;-0.0216;0.1597;
5087976146700983;-0.0389;-0.0237;0.1575;
5087976166918379;-0.0314;-0.0216;0.1586;
5087976187118900;-0.0186;-0.0194;0.1581;
5087976207332285;-0.0192;-0.0210;0.1565;
5087976227539785;-0.0975;-0.0115;0.1682;
5087976247746817;-0.0394;-0.0120;0.1277;
5087976267967546;-0.0133;-0.0301;0.1240;
5087976288156035;-0.0602;-0.0194;0.1245;
5087976308366192;0.0442;-0.0141;0.1149;
5087976328573587;-0.0352;-0.0099;0.1197;
5087976348784421;-0.0288;-0.0104;0.1091;
5087976368987442;-0.0293;-0.0162;0.1080;
5087976389196296;-0.0288;-0.0088;0.1000;
5087976409407025;-0.0250;-0.0125;0.0968;
5087976429619733;-0.0250;-0.0146;0.0941;
5087976449827129;-0.0197;-0.0104;0.0909;
5087976470045254;0.0043;-0.0146;0.0899;
5087976490251504;0.0613;-0.0162;0.0952;
5087976510450358;0.1357;-0.0189;0.0984;
5087976530658275;0.1969;-0.0221;0.1016;
5087976550856608;0.2305;-0.0210;0.1059;
5087976571072233;0.2539;-0.0189;0.1107;
5087976591276296;0.2960;-0.0173;0.1170;
5087976611487025;0.3104;-0.0200;0.1282;
5087976631701400;0.2720;-0.0226;0.1362;
5087976651890150;0.2518;-0.0205;0.1506;
5087976672115202;0.2608;-0.0221;0.1687;
5087976692328483;0.2454;-0.0280;0.1810;
5087976712546817;0.2523;-0.0274;0.1607;
5087976732734473;0.0501;-0.0370;0.1666;
5087976752979004;-0.0575;0.0013;0.1490;
5087976773183483;-0.0522;-0.0008;0.1357;
5087976793364994;-0.0506;-0.0141;0.1671;
5087976813554681;-0.0517;-0.0168;0.1655;
5087976833759108;-0.0410;-0.0072;0.1810;
5087976853987702;-0.0080;-0.0061;0.1794;
5087976874184577;0.0080;-0.0232;0.1836;
5087976894389004;-0.0676;-0.0194;0.1756;
5087976914587494;-0.0863;-0.0168;0.1735;
5087976934824994;-0.1720;-0.0168;0.1692;
5087976955029421;-0.2402;-0.0173;0.1597;
5087976975214733;-0.2700;-0.0072;0.1495;
5087976995425306;-0.2743;-0.0029;0.1352;
5087977015629733;-0.2610;-0.0077;0.1245;
5087977035892181;-0.3015;-0.0024;0.1027;
5087977056041765;-0.3430;0.0141;0.0883;
5087977076246192;-0.3398;0.0509;0.0728;
5087977096475098;-0.3297;0.0418;0.0206;
5087977116675462;-0.3483;-0.0194;-0.0140;
5087977136879890;-0.2887;-0.0210;-0.0534;
5087977157100046;-0.1518;0.0487;-0.0662;
5087977177297910;-0.0666;0.0802;-0.0811;
5087977197502337;-0.0527;0.0338;-0.0949;
5087977217722910;-0.0453;0.0423;-0.1210;
5087977237926244;-0.0549;0.0455;-0.1445;
5087977258130671;-0.0511;0.0567;-0.1578;
5087977278348952;-0.0602;0.0578;-0.1854;
5087977298560515;-0.0543;0.0312;-0.1901;
5087977318764942;-0.0511;0.0253;-0.1923;
5087977338970410;-0.0415;0.0716;-0.1896;
5087977359177077;-0.0336;0.0839;-0.1743;
5087977379381504;-0.0479;0.0732;-0.1557;
5087977399599004;-0.0421;0.0466;-0.1493;
5087977419820098;-0.0186;0.0471;-0.1402;
5087977440024525;0.0011;0.0535;-0.1232;
5087977460216296;-0.0069;0.0509;-0.1120;
5087977480418327;0.0069;0.0605;-0.1360;
5087977500622754;0.0277;0.0807;-0.1375;
5087977520847442;-0.0490;0.0860;-0.1551;
5087977541041244;-0.1012;0.0658;-0.2045;
5087977561245671;-0.1140;0.0748;-0.2210;
5087977581468640;-0.0916;0.0423;-0.2434;
5087977601667910;-0.0927;0.0557;-0.2812;
5087977621872337;-0.0868;0.1226;-0.2775;
5087977642090671;-0.0778;0.0551;-0.3137;
5087977662306765;-0.0916;0.0933;-0.3547;
5087977682511192;-0.0634;0.0892;-0.3478;
5087977702713900;-0.0059;0.0658;-0.4037;
5087977722909056;0.0346;0.1083;-0.4117;
5087977743115983;0.1905;0.0807;-0.4101;
5087977763337233;0.3849;0.0620;-0.4362;
5087977783532494;0.5309;0.0477;-0.4016;
5087977803739473;0.6960;0.0024;-0.4341;
5087977823951035;0.7987;-0.0045;-0.3744;
5087977844180983;0.9947;-0.0695;-0.4059;
5087977864387962;1.0415;0.0205;-0.3734;
5087977884581973;1.2642;-0.0173;-0.3782;
5087977904808640;1.3722;0.0008;-0.3419;
5087977925015619;1.4334;-0.0242;-0.3403;
5087977945206817;1.3258;0.0258;-0.3451;
5087977965424421;1.1949;0.0125;-0.3585;
5087977985631452;1.0117;0.0029;-0.3798;
5087978005829942;0.9771;-0.0269;-0.3883;
5087978026038379;1.0841;-0.0253;-0.3414;
5087978046245358;1.2152;-0.0152;-0.2711;
5087978066442285;1.2764;-0.0370;-0.1838;
5087978086680150;1.2935;-0.0338;-0.0869;
5087978106887129;1.3036;-0.0828;0.0419;
5087978127079733;1.2237;-0.0136;0.1064;
5087978147288692;1.0852;-0.0125;0.1980;
5087978167495671;0.8929;0.0370;0.2241;
5087978187702494;0.6241;0.0264;0.2630;
5087978207912858;0.4047;0.0360;0.2433;
5087978228119837;0.2614;0.0338;0.2715;
5087978248330410;0.0682;0.0130;0.2433;
5087978268553067;-0.0969;0.0487;0.2220;
5087978288760046;-0.2216;0.0461;0.1714;
5087978308961556;-0.3366;0.0423;0.1719;
5087978329170983;-0.4117;0.0040;0.1229;
5087978349377962;-0.4762;-0.0040;0.1565;
5087978369581556;-0.3638;0.0264;0.1389;
5087978389791192;-0.2423;0.0610;0.1607;
5087978409998171;-0.0879;0.0775;0.1762;
5087978430219160;0.0229;0.0658;0.2241;
5087978450411921;0.1049;0.0264;0.2417;
5087978470618900;0.1953;0.0439;0.2726;
5087978490830827;0.2486;0.0402;0.2800;
5087978511035879;0.2790;0.0738;0.2614;
5087978531242858;0.2630;0.0684;0.2987;
5087978551454056;0.2593;0.0743;0.3061;
5087978571654160;0.2593;0.0322;0.3477;
5087978591861087;0.2608;0.0013;0.3903;
5087978612063796;0.2656;0.0024;0.4375;
5087978632281817;0.2630;0.0743;0.4732;
5087978652488848;0.1847;0.0711;0.5084;
5087978672712233;0.0091;0.0892;0.5121;
5087978692905567;-0.2764;0.0727;0.4951;
5087978713112546;-0.6742;0.0589;0.4391;
5087978733330150;-1.0347;0.1051;0.3498;
5087978753516660;-1.4160;0.0557;0.2577;
5087978773761973;-1.6519;0.1482;0.1288;
5087978793970098;-1.8132;0.1333;0.0521;
5087978814143796;-1.7903;0.2004;-0.0305;
5087978834356973;-1.6290;0.2052;-0.1072;
5087978854565098;-1.3552;0.2574;-0.1791;
5087978874779890;-1.0321;0.2324;-0.2344;
5087978894980671;-0.7157;0.2169;-0.2631;
5087978915188848;-0.4314;0.1642;-0.2663;
5087978935401869;-0.2956;0.1509;-0.2610;
5087978955601400;-0.2849;0.0775;-0.2764;
5087978975809525;-0.3169;0.0679;-0.2610;
5087978996025462;-0.3419;0.0743;-0.2418;
5087979016245983;-0.3718;0.0903;-0.2200;
5087979036454108;-0.3984;0.0546;-0.1981;
5087979056650567;-0.4218;0.0519;-0.1843;
5087979076849421;-0.4463;0.0375;-0.1668;
5087979097057546;-0.4756;0.0386;-0.1864;
5087979117275462;-0.4852;0.0610;-0.1960;
5087979137478692;-0.4847;0.0690;-0.1917;
5087979157686817;-0.4873;0.0923;-0.2162;
5087979177898171;-0.4719;0.0642;-0.2359;
5087979198095775;-0.4224;0.0695;-0.2354;
5087979218303900;-0.3664;0.0684;-0.2530;
5087979238532962;-0.3206;0.0748;-0.2519;
5087979258720983;-0.1949;0.0636;-0.2695;
5087979278929108;-0.0314;0.0445;-0.2818;
5087979299136712;0.1751;0.0700;-0.2498;
5087979319353483;0.3370;0.0360;-0.2359;
5087979339561608;0.4355;0.0232;-0.2019;
5087979359771921;0.5075;0.0109;-0.1807;
5087979379984837;0.5724;0.0168;-0.1349;
5087979400192962;0.5836;-0.0258;-0.1221;
5087979420394108;0.5698;-0.0429;-0.0928;
5087979440602337;0.5399;-0.0296;-0.0790;
5087979460810462;0.4744;-0.0407;-0.0646;
5087979481029837;0.4190;-0.0296;-0.0635;
5087979501230150;0.3993;0.0019;-0.0337;
5087979521438275;0.3237;-0.0642;-0.0561;
5087979541645150;0.2284;-0.0887;-0.0656;
5087979561847077;0.2577;-0.0216;-0.0619;
5087979582055202;0.2992;0.0051;-0.0545;
5087979602263067;0.3535;-0.0077;-0.0161;
5087979622476504;0.3455;-0.0578;0.0361;
5087979642684629;0.2491;-0.0780;0.0691;
5087979662890306;0.1858;-0.0360;0.1048;
5087979683089004;0.1490;0.0162;0.1320;
5087979703297181;0.1421;0.0397;0.1591;
5087979723532702;0.1234;0.0466;0.1581;
5087979743699317;0.1049;0.0099;0.1479;
5087979763907233;0.1149;-0.0019;0.1080;
5087979784132233;0.1549;0.0099;0.1122;
5087979804365567;0.1543;-0.0253;0.0904;
5087979824573431;0.1176;-0.0770;0.0819;
5087979844752702;0.1309;-0.0519;0.0553;
5087979864977233;0.1650;0.0466;0.0595;
5087979885185098;0.2720;0.1557;0.0707;
5087979905403692;0.2486;0.0333;0.0941;
5087979925606140;0.0676;-0.0791;0.0872;
5087979945814004;-0.0533;-0.1020;0.0606;
5087979965999837;-0.1188;-0.1318;0.0329;
5087979986220202;-0.1182;-0.0189;0.0281;
5087980006428067;0.0208;0.0642;0.0510;
5087980026648692;0.0575;0.1333;0.0734;
5087980046839056;0.0565;0.0939;0.0968;
5087980067046921;-0.0581;-0.0285;0.1229;
5087980087250150;-0.1188;-0.1952;0.1341;
5087980107473744;-0.1252;-0.1547;0.1474;
5087980127681608;0.0133;-0.0194;0.1788;
5087980147893483;0.0314;0.0578;0.2012;
5087980168085567;0.0565;0.1615;0.1916;
5087980188293483;0.0330;0.2292;0.2214;
5087980208498483;-0.1305;0.1109;0.2124;
5087980228713744;-0.3084;0.1722;0.1927;
5087980248921556;-0.4213;0.1035;0.1485;
5087980269133587;-0.6273;0.0418;0.1048;
5087980289355046;-0.8068;-0.0940;-0.0055;
5087980309562910;-0.7269;0.1503;-0.0619;
5087980329754212;-0.6790;0.1130;-0.1684;
5087980349964890;-0.6342;0.1333;-0.2913;
5087980370172754;-0.6550;-0.0450;-0.4320;
5087980390372337;-0.6156;-0.0871;-0.5241;
5087980410597181;-0.6145;-0.4061;-0.6375;
5087980430805046;-0.5639;-0.7442;-0.7648;
5087980451007025;-0.0133;-0.0051;-0.7782;
5087980471214369;0.3828;0.1988;-0.6791;
5087980491422233;0.3855;0.1067;-0.5710;
5087980511637962;0.2427;-0.1872;-0.4740;
5087980531838640;0.2182;-0.2895;-0.3766;
5087980552046452;0.2949;-0.2282;-0.2940;
5087980572245150;0.3429;-0.1691;-0.1869;
5087980592470410;0.3860;0.1072;-0.1668;
5087980612678275;0.4792;0.4816;-0.1003;
5087980632879369;0.1085;0.0647;-0.0656;
5087980653086140;-0.0501;-0.2543;-0.0747;
5087980673293952;0.1911;-0.0567;-0.0310;
5087980693485462;0.3876;0.0535;-0.0529;
5087980713705410;0.5506;0.0615;-0.0731;
5087980733913275;0.7024;0.0695;-0.0529;
5087980754120358;0.8551;0.0157;-0.0220;
5087980774321504;0.9217;-0.0413;0.0180;
5087980794529837;0.9861;-0.0562;0.0787;
5087980814743692;0.9409;-0.0418;0.1399;
5087980834941244;0.9180;0.0290;0.1799;
5087980855149577;0.7024;0.1040;0.2177;
5087980875369733;0.5037;0.1615;0.2481;
5087980895569004;0.4169;0.2734;0.2577;
5087980915777337;0.2539;0.2132;0.2976;
5087980935990046;0.0389;0.0949;0.3200;
5087980956194994;-0.2051;-0.1169;0.3370;
5087980976403327;-0.2999;-0.0296;0.3109;
5087980996615567;-0.1348;0.0413;0.3109;
5087981016850046;-0.0708;0.0679;0.3045;
5087981037058327;-0.0229;0.0477;0.2869;
5087981057252025;-0.0011;-0.0056;0.2859;
5087981077442494;-0.0660;-0.1313;0.2630;
5087981097650775;-0.0314;-0.0860;0.2513;
5087981117869994;0.0943;0.0130;0.2790;
5087981138070254;0.1895;0.1184;0.3162;
5087981158278535;0.1527;0.0301;0.3413;
5087981178492077;0.0873;-0.0482;0.3519;
5087981198697129;-0.0096;-0.1819;0.3429;
5087981218905462;-0.0666;-0.1164;0.3285;
5087981239110410;0.1080;0.0928;0.3221;
5087981259331296;0.1224;0.0120;0.3700;
5087981279539629;-0.0197;-0.0274;0.3738;
5087981299752858;-0.1736;-0.1356;0.3684;
5087981319940098;-0.3483;-0.1744;0.3130;
5087981340148431;-0.5660;-0.2202;0.2827;
5087981360361504;-0.3776;0.3479;0.2475;
5087981380571296;-0.0240;-0.2533;0.3216;
5087981400779629;-0.7008;0.2228;0.1506;
5087981420989525;0.0154;0.0535;0.2252;
5087981441187442;-0.9069;-0.4956;0.1325;
5087981461395775;-0.8483;0.2968;0.0606;
5087981481617650;0.0836;0.6611;0.0979;
5087981501823067;-0.1917;0.3037;0.1240;
5087981522031400;-0.6161;-0.1915;-0.0097;
5087981542233900;-0.6268;-0.0061;-0.0992;
5087981562431192;-0.6374;-0.2682;-0.1620;
5087981582639525;-0.1555;0.6020;-0.0880;
5087981602851817;0.3088;0.1429;-0.0310;
5087981623062390;-0.0027;-0.1995;-0.1029;
5087981643270671;-0.0575;-0.0748;-0.0822;
5087981663480983;0.2273;0.0908;-0.0933;
5087981683694108;0.2411;0.0290;0.0121;
5087981703902390;0.1410;0.0976;0.0963;
5087981724126400;0.0565;0.0610;0.1458;
5087981744291869;0.0314;0.0184;0.1682;
5087981764500202;-0.0879;0.0178;0.1687;
5087981784724421;-0.1182;0.0178;0.1836;
5087981804950723;-0.1997;0.0626;0.1447;
5087981825159004;-0.1901;0.0439;0.1703;
5087981845348483;-0.2599;-0.0796;0.1490;
5087981865560150;-0.2083;0.0269;0.1181;
5087981885768483;-0.1220;0.0498;0.1325;
5087981905995723;-0.1646;-0.0338;0.1048;
5087981926186817;-0.1651;0.0242;0.0984;
5087981946395150;-0.2152;0.0024;0.1101;
5087981966598275;-0.2897;0.0306;0.0750;
5087981986812337;-0.3499;0.0802;0.0462;
5087982007020619;-0.3707;0.0551;0.0132;
5087982027218171;-0.4256;0.0583;-0.0593;
5087982047439837;-0.4181;0.0939;-0.0869;
5087982067648119;-0.4176;0.0908;-0.1232;
5087982087847910;-0.3798;0.0807;-0.1439;
5087982108061244;-0.3856;0.0216;-0.1695;
5087982128269525;-0.3467;-0.0684;-0.2072;
5087982148472233;-0.2477;0.0578;-0.2130;
5087982168685671;-0.2418;0.0146;-0.2168;
5087982188894004;-0.2189;0.0871;-0.1960;
5087982209092337;-0.2796;-0.0248;-0.1812;
5087982229315983;-0.2940;-0.1409;-0.2242;
5087982249524265;-0.2264;0.0455;-0.2189;
5087982269727442;-0.1843;0.1461;-0.1981;
5087982289935827;-0.2642;0.0285;-0.2173;
5087982310144108;-0.2397;0.1818;-0.2216;
5087982330342233;-0.2604;0.1360;-0.2237;
5087982350568171;-0.2636;0.1706;-0.2567;
5087982370776452;-0.2248;0.1732;-0.2983;
5087982390983587;-0.2290;0.1013;-0.3185;
5087982411175150;-0.2146;0.0285;-0.3675;
5087982431383431;-0.1838;-0.0823;-0.3995;
5087982451589942;-0.0847;-0.0812;-0.4346;
5087982471810879;0.0378;-0.0791;-0.4602;
5087982492019160;0.1953;-0.0029;-0.5012;
5087982512235410;0.3818;0.0796;-0.4804;
5087982532433483;0.4499;0.1168;-0.4405;
5087982552641817;0.4494;0.1136;-0.4000;
5087982572832025;0.4425;0.1056;-0.3276;
5087982593054994;0.3525;-0.0146;-0.2887;
5087982613263327;0.2843;-0.0620;-0.2636;
5087982633490567;0.2369;-0.1387;-0.2450;
5087982653666712;0.1639;-0.1995;-0.2450;
5087982673875046;0.2076;-0.1025;-0.2333;
5087982694125723;0.2305;-0.0573;-0.2088;
5087982714319525;0.2198;-0.0764;-0.1780;
5087982734527806;0.1831;-0.1430;-0.1652;
5087982754692285;0.1847;-0.1409;-0.1493;
5087982774927806;0.2150;-0.1031;-0.1349;
5087982795136087;0.2438;-0.0908;-0.1088;
5087982815330306;0.3029;0.0280;-0.1099;
5087982835534785;0.3093;-0.0636;-0.0885;
5087982855743067;0.2752;0.0413;-0.1024;
5087982875958848;0.3216;0.0807;-0.0736;
5087982896188379;0.2891;0.0754;-0.0704;
5087982916396712;0.2646;0.1386;-0.0726;
5087982936588587;0.2561;0.1706;-0.0678;
5087982956791192;0.2566;0.1157;-0.0822;
5087982976999525;0.2486;0.0157;-0.0891;
5087982997214004;0.2640;0.0051;-0.0912;
5087983017423692;0.2891;0.0274;-0.0949;
5087983037632025;0.3253;-0.0205;-0.0800;
5087983057834317;0.2726;-0.1371;-0.0747;
5087983078037025;0.2598;-0.2144;-0.0561;
5087983098245358;0.3977;0.0668;-0.0497;
5087983118460254;0.5474;0.1370;0.0100;
5087983138669837;0.5570;0.0960;0.0835;
5087983158878119;0.5719;0.7744;0.1213;
5087983179085150;0.9728;0.5354;0.1905;
5087983199287910;0.0165;-0.1537;0.3301;
5087983219496244;-0.1092;-0.1941;0.3274;
5087983239709681;0.0426;-0.3204;0.3839;
5087983259914733;0.2236;-0.1558;0.3945;
5087983280123015;-0.0479;-0.8491;0.4482;
5087983300335254;0.1028;-0.2112;0.4031;
5087983320536608;0.1017;0.1248;0.4222;
5087983340744890;0.2012;0.3389;0.5457;
5087983360960046;0.0815;-0.0269;0.6202;
5087983381164733;-0.1007;-0.0152;0.6101;
5087983401373067;-0.2258;-0.0099;0.5579;
5087983421585150;-0.4474;-0.0072;0.4977;
5087983441782233;-0.6023;0.2180;0.4132;
5087983461990567;-0.3611;-0.0546;0.3956;
5087983482206817;-0.5485;0.1487;0.3162;
5087983502409108;-0.4698;0.2217;0.2832;
5087983522617442;-0.4692;0.0360;0.1980;
5087983542832129;-0.5730;-0.0695;0.1027;
5087983563060150;-0.6305;-0.1281;0.0063;
5087983583268483;-0.7029;-0.0280;-0.1184;
5087983603452233;-0.5682;-0.0130;-0.2242;
5087983623649733;-0.3297;-0.0429;-0.3238;
5087983643858067;-0.2455;-0.0322;-0.3888;
5087983664069577;-0.1422;0.0322;-0.4794;
5087983684292546;-0.0703;0.0679;-0.4911;
5087983704500827;0.0607;0.0136;-0.5603;
5087983724726817;0.3152;0.0439;-0.5758;
5087983744882598;0.5181;-0.0157;-0.5273;
5087983765090931;0.7008;-0.0977;-0.4884;
5087983785305410;0.8173;-0.1643;-0.3814;
5087983805554733;0.9238;0.0487;-0.2775;
5087983825763015;0.8162;-0.0748;-0.1770;
5087983845947442;0.6433;-0.0194;-0.0566;
5087983866157910;0.4451;0.0115;-0.0039;
5087983886366244;0.3104;0.0711;0.0574;
5087983906590410;0.2427;0.2249;0.1293;
5087983926782962;0.0469;-0.0162;0.1868;
5087983946991244;0.0043;-0.0157;0.2118;
5087983967197337;0.0511;0.0008;0.2491;
5087983987405410;0.0336;-0.0162;0.2907;
5087984007613692;0.0176;0.0029;0.3482;
5087984027827650;-0.0447;-0.0509;0.3865;
5087984048028744;-0.0756;-0.0136;0.3807;
5087984068237025;-0.1593;0.0152;0.3876;
5087984088445254;-0.2077;0.1024;0.3626;
5087984108663796;-0.3371;0.0301;0.3514;
5087984128872077;-0.3920;0.0232;0.3242;
5087984149069942;-0.3947;0.0008;0.2688;
5087984169285775;-0.3137;0.0764;0.2188;
5087984189494108;-0.2322;0.0971;0.1921;
5087984209690462;-0.1779;-0.0301;0.1474;
5087984229905775;-0.1609;-0.0620;0.1820;
5087984250114056;-0.1182;-0.0503;0.1719;
5087984270317025;-0.1044;0.0312;0.1799;
5087984290531921;-0.1273;-0.0365;0.1607;
5087984310740202;-0.1720;0.0077;0.2007;
5087984330944942;-0.2604;-0.0897;0.1735;
5087984351147598;-0.3334;0.1594;0.1836;
5087984371355879;-0.3883;0.1301;0.1740;
5087984391567233;-0.5048;0.0487;0.1410;
5087984411778067;-0.5964;0.0146;0.0798;
5087984431986348;-0.5959;0.0823;0.0340;
5087984452190879;-0.5671;0.1370;-0.0326;
5087984472407077;-0.5080;-0.0104;-0.0475;
5087984492615358;-0.4277;-0.0924;-0.1130;
5087984512816400;-0.3553;0.0658;-0.1642;
5087984533027129;-0.3457;0.0615;-0.1976;
5087984553235462;-0.3425;0.1344;-0.2647;
5087984573497077;-0.3164;0.0535;-0.2620;
5087984593639108;-0.2439;0.0626;-0.2983;
5087984613847442;-0.2136;0.1162;-0.2722;
5087984634119265;-0.1262;-0.0514;-0.2887;
5087984654265150;-0.0873;0.0748;-0.2802;
5087984674473483;-0.1166;0.0402;-0.2802;
5087984694686087;-0.1140;0.0881;-0.2834;
5087984714919733;-0.1827;-0.0173;-0.2780;
5087984735128067;-0.1678;-0.0045;-0.2935;
5087984755310098;-0.1427;0.0067;-0.3196;
5087984775524212;-0.0852;0.0944;-0.3100;
5087984795732702;-0.0735;0.0439;-0.3297;
5087984815931192;-0.0431;-0.0344;-0.3164;
5087984836137337;0.0623;0.0013;-0.3206;
5087984856345827;0.1895;-0.0658;-0.3020;
5087984876560879;0.4068;0.0264;-0.2913;
5087984896780567;0.5980;0.0546;-0.2541;
5087984916989056;0.6944;-0.0301;-0.1700;
5087984937187962;0.8333;-0.0072;-0.0593;
5087984957395671;0.8583;-0.0642;0.0521;
5087984977604160;0.8077;-0.0189;0.1682;
5087984997807233;0.6672;0.0652;0.2193;
5087985018045150;0.3871;0.0471;0.3290;
5087985038253640;0.1383;0.0503;0.3386;
5087985058438171;-0.2407;-0.0929;0.3333;
5087985078638171;-0.5511;-0.0099;0.2683;
5087985098846660;-0.7445;0.0407;0.1740;
5087985119061765;-0.7754;0.1056;0.0260;
5087985139270046;-0.8068;0.0711;-0.0667;
5087985159478535;-0.7833;0.0178;-0.2125;
5087985179681087;-0.6300;-0.0056;-0.3148;
5087985199887129;-0.2988;0.0466;-0.3798;
5087985220095619;-0.0298;0.0802;-0.4330;
5087985240310462;0.1431;0.0194;-0.4671;
5087985260501712;0.3301;0.0194;-0.4128;
5087985280710254;0.4457;-0.0514;-0.3830;
5087985300929942;0.5421;-0.0402;-0.3345;
5087985321134994;0.6140;0.0269;-0.2375;
5087985341343483;0.5431;-0.0642;-0.1525;
5087985361556608;0.4558;-0.0232;-0.1093;
5087985381760462;0.3780;0.0306;-0.0422;
5087985401968952;0.2124;-0.0541;-0.0236;
5087985422180150;0.1863;0.0557;0.0238;
5087985442380462;0.1612;0.0003;0.0494;
5087985462588952;0.0799;0.0269;0.0691;
5087985482824421;0.1023;0.1381;0.0547;
5087985503011296;0.0889;-0.0402;0.0888;
5087985523219837;0.0943;0.0583;0.0579;
5087985543435879;0.0852;-0.0205;0.0936;
5087985563626608;0.0953;0.0280;0.0888;
5087985583835150;0.1176;-0.0205;0.0872;
5087985604044942;0.0943;-0.0807;0.1000;
5087985624238379;0.1229;0.1530;0.0925;
5087985644446869;0.1336;-0.0029;0.1011;
5087985664670671;0.1154;-0.0008;0.1112;
5087985684879629;0.1012;-0.0466;0.1399;
5087985705088119;0.1065;0.0498;0.1069;
5087985725307025;0.0937;0.0045;0.1341;
5087985745528379;0.0655;-0.1036;0.1138;
5087985765736921;0.0613;-0.0455;0.1085;
5087985785924317;0.0985;0.0605;0.1330;
5087985806126087;0.1160;0.0823;0.1197;
5087985826334629;0.0671;-0.0136;0.1240;
5087985846539525;0.0756;0.0631;0.0957;
5087985866751817;0.0879;0.0301;0.0893;
5087985886960358;0.0533;-0.0130;0.0957;
5087985907192025;0.0756;0.0557;0.0968;
5087985927373744;0.0714;-0.1494;0.0808;
5087985947582285;0.0490;-0.1063;0.0995;
5087985967798275;0.0911;0.0370;0.0771;
5087985988009942;0.1055;0.0146;0.0872;
5087986008218483;0.0905;-0.0306;0.0830;
5087986028417650;0.0746;-0.1052;0.1240;
5087986048636348;0.0826;0.0807;0.1075;
5087986068844890;0.0740;0.0722;0.1202;
5087986089040046;0.0336;-0.1031;0.1346;
5087986109253067;0.0266;0.0541;0.1192;
5087986129461608;0.0469;0.1019;0.1133;
5087986149667546;0.0181;-0.0530;0.1485;
5087986169878171;-0.0437;0.0232;0.1437;
5087986190086712;-0.0570;0.0136;0.1229;
5087986210287858;-0.0474;-0.0248;0.1213;
5087986230501660;-0.0900;-0.0860;0.1352;
5087986250710150;-0.0410;-0.0658;0.1144;
5087986270928067;-0.0554;0.0008;0.1107;
5087986291132442;-0.0181;0.1253;0.1021;
5087986311340983;-0.0378;-0.0269;0.1075;
5087986331536504;-0.0687;0.0567;0.1341;
5087986351733587;-0.1092;0.0019;0.1261;
5087986371942129;-0.0778;0.1546;0.1069;
5087986392164942;-0.1534;-0.0125;0.1117;
5087986412371608;-0.1342;0.0791;0.0601;
5087986432580150;-0.1406;-0.0013;0.0617;
5087986452791400;-0.1193;0.0700;0.0744;
5087986473004942;-0.1438;-0.0514;0.0680;
5087986493213483;-0.1598;-0.0935;0.0457;
5087986513458431;-0.1294;-0.0434;0.0025;
5087986533616608;-0.1108;0.0626;0.0041;
5087986553825150;-0.0836;-0.0194;0.0068;
5087986574080150;-0.0985;0.0035;0.0212;
5087986594239317;-0.1300;-0.0194;0.0047;
5087986614447858;-0.0895;0.0786;0.0095;
5087986634671244;-0.1305;-0.0365;-0.0124;
5087986654867337;-0.1395;-0.0631;-0.0300;
5087986675075827;-0.1071;0.0620;-0.0198;
5087986695293744;-0.1140;0.0077;-0.0395;
5087986715516087;-0.1124;0.0812;-0.0561;
5087986735724629;-0.0831;0.0647;-0.0513;
5087986755907598;-0.1124;-0.1185;-0.0534;
5087986776117442;-0.1268;0.1828;-0.0811;
5087986796325202;-0.0831;0.0407;-0.0992;
5087986816534525;-0.0735;0.0981;-0.1306;
5087986836738900;-0.0538;0.1146;-0.1455;
5087986856946660;-0.0575;-0.0578;-0.1487;
5087986877154942;-0.0650;-0.0178;-0.1546;
5087986897364212;-0.0495;-0.0647;-0.1823;
5087986917571973;-0.0085;-0.1142;-0.2130;
5087986937783744;0.0863;-0.0301;-0.2221;
5087986957992181;0.1804;-0.1158;-0.2184;
5087986978199890;0.1634;-0.2011;-0.1514;
5087986998403275;0.1559;-0.0019;-0.1120;
5087987018644473;0.1895;0.0631;-0.1482;
5087987038852233;0.2912;0.2286;-0.1162;
5087987059033119;0.2486;-0.1031;-0.0427;
5087987079239160;0.1341;0.1104;-0.0316;
5087987099446973;0.0879;-0.0019;0.0270;
5087987119653587;0.0431;-0.0434;0.0132;
5087987139869890;0.0021;-0.1526;-0.0119;
5087987160077650;0.0479;-0.1457;-0.0092;
5087987180286504;0.0858;-0.0573;0.0233;
5087987200483900;0.1192;0.1503;0.0494;
5087987220691712;0.1186;0.0312;0.0627;
5087987240920254;0.0858;0.0866;0.0569;
5087987261126140;0.0778;0.0157;0.0611;
5087987281333848;0.0794;0.1093;0.0707;
5087987301538535;0.0613;0.0487;0.0941;
5087987321733275;0.0298;-0.1057;0.0915;
5087987341941087;0.0543;-0.0434;0.0771;
5087987362154994;0.1012;0.0402;0.0691;
5087987382368327;0.1154;-0.0130;0.0947;
5087987402576035;0.1245;-0.0083;0.1240;
5087987422780515;0.1415;-0.0663;0.1245;
5087987442981712;0.0724;-0.0301;0.1352;
5087987463189473;0.0698;0.1903;0.1202;
5087987483412390;0.0650;0.0109;0.1522;
5087987503630827;0.0368;-0.0935;0.1586;
5087987523838535;0.0442;-0.0226;0.1367;
5087987544023692;-0.0826;0.1312;0.1479;
5087987564243900;-0.2099;-0.1803;0.1160;
5087987584451660;-0.2919;-0.0626;0.0606;
5087987604642025;-0.2061;-0.0258;0.0441;
5087987624875671;-0.0873;0.0514;0.0009;
5087987645083431;-0.0565;0.0589;0.0308;
5087987665271504;-0.0740;-0.0248;0.0350;
5087987685475254;-0.1385;-0.1569;0.0398;
5087987705683015;-0.2056;-0.1366;0.0095;
5087987725925410;-0.1981;0.0258;-0.0268;
5087987746111712;-0.1507;0.0610;-0.0332;
5087987766319837;-0.0964;-0.0051;-0.0300;
5087987786543952;-0.1017;-0.0194;-0.0023;
5087987806735358;-0.1044;0.0615;-0.0182;
5087987826943483;-0.0980;0.1061;-0.0550;
5087987847143796;-0.0804;0.0631;-0.0667;
5087987867359421;-0.0666;-0.1057;-0.0651;
5087987887567546;-0.1033;0.0200;-0.0742;
5087987907772806;-0.0756;0.0045;-0.0859;
5087987927987754;-0.0815;0.0402;-0.1120;
5087987948195879;-0.0570;0.0258;-0.1562;
5087987968404317;-0.0213;0.0981;-0.1642;
5087987988625671;-0.0607;0.0770;-0.1759;
5087988008833796;-0.0266;0.1322;-0.2237;
5087988029038587;-0.0266;0.0647;-0.2509;
5087988049232442;-0.0336;-0.0455;-0.2855;
5087988069440567;-0.0479;-0.1004;-0.2823;
5087988089646087;0.0378;-0.0120;-0.2972;
5087988109857754;0.2656;0.0503;-0.3036;
5087988130065879;0.4648;0.0040;-0.2359;
5087988150284733;0.5218;0.0035;-0.1130;
5087988170486921;0.4387;-0.0732;0.0281;
5087988190695046;0.3152;-0.1622;0.1618;
5087988210893483;0.1991;-0.1137;0.1996;
5087988231116400;0.1581;-0.0525;0.2140;
5087988251324525;0.1001;0.0061;0.2539;
5087988271544160;-0.0905;0.0333;0.2603;
5087988291736817;-0.3047;0.1599;0.2177;
5087988311944942;-0.4692;0.1173;0.1154;
5087988332147129;-0.5570;0.1210;-0.0321;
5087988352357546;-0.5735;-0.0157;-0.1365;
5087988372565671;-0.5298;-0.0754;-0.2541;
5087988392768379;-0.2461;-0.0045;-0.3819;
5087988412972025;0.0410;0.0583;-0.4900;
5087988433180150;0.3312;0.0040;-0.5118;
5087988453414004;0.5000;0.0083;-0.4378;
5087988473610671;0.5815;0.0684;-0.3611;
5087988493818796;0.5666;-0.0162;-0.2434;
5087988514027442;0.4233;-0.1403;-0.1674;
5087988534229212;0.3482;-0.0381;-0.1322;
5087988554437337;0.2944;-0.0684;-0.0726;
5087988574640358;0.2358;0.0067;-0.0039;
5087988594846296;0.1996;0.0716;0.0217;
5087988615054473;0.1096;0.0828;0.0526;
5087988635280462;-0.0224;0.0083;0.0611;
5087988655494733;-0.0751;0.0013;0.0356;
5087988675702858;0.0250;0.0397;0.0126;
5087988695910671;0.1218;0.0130;0.0036;
5087988716092962;0.1703;0.0573;0.0025;
5087988736301140;0.2390;-0.0280;0.0212;
5087988756518171;0.1730;-0.0866;0.0675;
5087988776730150;0.2124;0.0397;0.0952;
5087988796938275;0.2443;0.0003;0.1266;
5087988817143900;0.2028;-0.0434;0.1565;
5087988837344108;0.1309;-0.0615;0.1836;
5087988857552233;0.1533;-0.0003;0.2065;
5087988877766400;0.1075;-0.0232;0.2182;
5087988897977233;0.0410;0.0296;0.2198;
5087988918185358;0.0352;0.0684;0.2129;
5087988938390150;0.0011;-0.0173;0.2039;
5087988958597337;-0.0373;0.0397;0.2023;
5087988978805462;-0.0597;0.0509;0.1783;
5087988999026400;-0.0352;0.0652;0.1570;
5087989019254004;-0.0011;0.0184;0.1511;
5087989039462129;0.0277;0.0242;0.1330;
5087989059642546;0.0399;0.0056;0.1453;
5087989079845827;0.0123;-0.0844;0.1458;
5087989100053952;-0.0357;-0.0743;0.1485;
5087989120267962;-0.0650;-0.1233;0.1357;
5087989140475254;-0.0506;0.0317;0.1336;
5087989160683379;0.0304;0.0525;0.1325;
5087989180907962;0.0069;0.0917;0.1298;
5087989201092494;-0.0378;0.0253;0.1367;
5087989221300619;-0.2051;-0.0972;0.1096;
5087989241517806;-0.3110;-0.0450;0.0691;
5087989261734525;-0.1976;-0.0599;-0.0087;
5087989281942650;-0.0836;-0.0477;-0.0443;
5087989302139317;-0.0613;-0.0391;-0.0449;
5087989322336712;-0.0213;-0.0344;-0.0678;
5087989342544837;-0.0085;-0.0844;-0.0699;
5087989362777754;-0.0021;-0.0583;-0.1035;
5087989382968796;0.0762;0.0498;-0.1115;
5087989403176973;0.1165;-0.1025;-0.0885;
5087989423381973;0.0501;-0.2277;-0.0656;
5087989443577806;0.0660;-0.0274;-0.0779;
5087989463785931;0.2241;0.1897;-0.0896;
5087989484013379;0.2635;0.0248;-0.0390;
5087989504231608;0.1176;0.0099;-0.0065;
5087989524439733;0.1170;0.0690;0.0206;
5087989544627858;0.0250;-0.0754;0.0302;
5087989564859525;-0.0517;0.1865;-0.0087;
5087989585067650;0.1453;0.3165;-0.0268;
5087989605258900;0.1039;0.2244;-0.0156;
5087989625498587;0.1117;0.2606;-0.0310;
5087989645706712;0.0149;-0.0498;0.0329;
5087989665896504;-0.1635;-0.2277;0.0286;
5087989686081192;-0.1731;-0.3939;-0.0140;
5087989706289317;0.0613;0.0056;-0.0481;
5087989726528483;0.3919;0.0040;0.0084;
5087989746718483;0.5320;0.2606;0.1096;
5087989766926608;0.3285;-0.0940;0.2385;
5087989787125567;0.0895;-0.0913;0.2561;
5087989807345879;-0.1422;-0.1499;0.2827;
5087989827554056;-0.1752;0.0162;0.2433;
5087989847758223;-0.1523;-0.1718;0.2411;
5087989867964994;-0.1609;0.0141;0.2156;
5087989888173119;-0.0085;0.1471;0.2103;
5087989908383275;0.0101;0.1557;0.2268;
5087989928595410;-0.0469;0.0674;0.2475;
5087989948803587;-0.1678;0.0072;0.2646;
5087989969005046;-0.3377;-0.0466;0.2316;
5087989989222650;-0.2876;-0.0242;0.2081;
5087990009430775;-0.1880;-0.0280;0.1517;
5087990029639421;-0.1087;0.1434;0.1735;
5087990049844160;-0.0895;0.2276;0.1698;
5087990070052285;-0.1859;-0.2091;0.2166;
5087990090255827;-0.4037;-0.0338;0.1554;
5087990110463483;-0.2951;-0.0088;0.1101;
5087990130671608;-0.2551;0.0944;0.0798;
5087990150889629;-0.2013;0.0008;0.0483;
5087990171090567;-0.1087;0.3133;0.0851;
5087990191298692;-0.1662;-0.0173;0.0601;
5087990211508171;-0.2397;-0.0008;0.0574;
5087990231721087;-0.3063;-0.0786;0.0073;
5087990251929265;-0.3302;-0.0924;-0.0502;
5087990272141973;-0.2684;-0.0136;-0.0609;
5087990292339942;-0.1758;0.0605;-0.1136;
5087990312548119;-0.1060;0.1626;-0.1328;
5087990332749525;-0.1774;0.0083;-0.1375;
5087990352969421;-0.1577;0.0573;-0.1285;
5087990373177598;-0.1795;-0.0498;-0.1764;
5087990393398796;-0.1470;0.1125;-0.2210;
5087990413581921;-0.0628;0.0727;-0.2397;
5087990433790098;-0.0522;-0.0056;-0.2525;
5087990454009837;-0.0682;-0.0226;-0.2173;
5087990474206087;0.0096;0.0338;-0.2290;
5087990494414265;0.0368;-0.0418;-0.2322;
5087990514616608;0.0618;0.0498;-0.2285;
5087990534892650;0.1277;-0.0051;-0.1827;
5087990555100827;0.0613;0.0370;-0.1477;
5087990575256608;0.0889;0.0189;-0.1237;
5087990595455150;0.0394;-0.0115;-0.1045;
5087990615663275;-0.0352;-0.2181;-0.0854;
5087990635866556;-0.0538;-0.0450;-0.1003;
5087990656066140;0.0138;-0.1132;-0.0635;
5087990676274265;-0.0080;0.0115;-0.0694;
5087990696509942;-0.0234;0.0141;-0.0923;
5087990716734004;0.0011;0.1360;-0.0923;
5087990736942181;-0.0091;0.1093;-0.0790;
5087990757126921;-0.0069;0.0344;-0.0768;
5087990777335254;-0.0538;0.0146;-0.0912;
5087990797543431;-0.0762;-0.1398;-0.1184;
5087990817754942;-0.0415;-0.0578;-0.1381;
5087990837948900;0.0437;-0.0035;-0.1237;
5087990858157077;0.1149;0.0019;-0.1482;
5087990878375358;0.0538;-0.0157;-0.1530;
5087990898583067;0.0628;0.0269;-0.1381;
5087990918791244;0.0639;-0.0551;-0.1344;
5087990938997129;0.0474;-0.0546;-0.1599;
5087990959204317;0.0953;0.0184;-0.1546;
5087990979412494;0.1495;-0.0620;-0.1423;
5087990999626087;0.0804;-0.1169;-0.1317;
5087991019851973;0.1421;-0.0141;-0.1216;
5087991040060150;0.1863;0.0306;-0.1301;
5087991060250150;0.2928;0.1269;-0.1008;
5087991080454837;0.3381;0.1024;-0.0507;
5087991100663015;0.3354;0.0839;0.0126;
5087991120877650;0.2481;-0.0493;0.0766;
5087991141096400;0.1176;-0.0839;0.1080;
5087991161304577;0.0996;-0.0280;0.1186;
5087991181505671;0.0463;-0.0700;0.1170;
5087991201712129;-0.0256;-0.0461;0.1320;
5087991221920306;0.0378;0.1093;0.1229;
5087991242138900;-0.0032;0.0194;0.1309;
5087991262338015;-0.0469;-0.0881;0.1208;
5087991282546140;-0.0671;0.0077;0.1101;
5087991302749629;0.0378;-0.0173;0.1213;
5087991322949837;0.0394;0.0130;0.1133;
5087991343158015;0.1378;0.0599;0.1421;
5087991363391296;0.1682;0.1077;0.1565;
5087991383606244;0.0889;-0.0562;0.2220;
5087991403814369;0.0581;-0.0056;0.2321;
5087991423994004;0.0144;-0.0482;0.2534;
5087991444211296;-0.1028;-0.0881;0.2534;
5087991464419421;-0.1071;-0.0498;0.2342;
5087991484619785;-0.1529;0.0024;0.2390;
5087991504850046;-0.2365;-0.0200;0.1975;
5087991525058223;-0.3116;0.1652;0.1485;
5087991545234369;-0.2834;0.0908;0.0925;
5087991565459108;-0.3734;0.0445;0.0340;
5087991585667285;-0.4351;-0.0146;-0.0545;
5087991605863379;-0.4325;0.0232;-0.1333;
5087991626074525;-0.3387;-0.0972;-0.2317;
5087991646282702;-0.1864;-0.0146;-0.2855;
5087991666509212;-0.0437;0.1083;-0.3041;
5087991686697858;0.2060;0.1024;-0.2929;
5087991706906035;0.2220;0.0594;-0.2439;
5087991727146296;0.2571;0.0711;-0.2051;
5087991747330254;0.2241;-0.0290;-0.1535;
5087991767538483;0.1495;-0.1206;-0.1237;
5087991787748431;0.1080;0.0253;-0.0939;
5087991807948900;0.1927;0.0652;-0.0763;
5087991828157129;0.1495;-0.0850;-0.0481;
5087991848362806;0.0202;-0.1632;0.0015;
5087991868575150;-0.0027;0.1296;0.0254;
5087991888783379;0.1017;-0.0525;0.0308;
5087991908994890;0.0266;-0.0232;0.0169;
5087991929204317;0.0740;0.0981;0.0473;
5087991949412546;0.0879;0.1535;0.0989;
5087991969609108;0.0117;-0.1542;0.1186;
5087991989837181;-0.0847;-0.0125;0.0883;
5087992010045358;-0.0671;-0.0546;0.0526;
5087992030226035;-0.1230;-0.0072;0.0505;
5087992050459577;-0.0586;0.0381;0.0292;
5087992070667806;-0.0368;0.0562;0.0063;
5087992090867806;-0.0442;-0.0200;0.0036;
5087992111080358;-0.0873;0.0157;-0.0316;
5087992131288587;-0.0927;-0.0557;-0.0534;
5087992151498327;-0.0975;0.0035;-0.0624;
5087992171700567;-0.0730;-0.0397;-0.0912;
5087992191908796;-0.0298;0.1168;-0.1322;
5087992212116608;-0.0186;-0.0903;-0.1344;
5087992232336712;-0.0778;-0.0445;-0.1306;
5087992252544942;-0.0272;-0.0365;-0.1466;
5087992272749473;0.0027;0.0386;-0.1429;
5087992292953744;0.0490;-0.0913;-0.1551;
5087992313161921;0.1039;0.1413;-0.1317;
5087992333374369;0.1623;-0.0360;-0.0736;
5087992353590879;0.0320;-0.2043;-0.0374;
5087992373799108;-0.0458;-0.2490;-0.0518;
5087992394002962;-0.0543;-0.0807;-0.0587;
5087992414189629;0.0011;-0.0471;-0.0630;
5087992434397858;0.0879;0.0892;-0.0358;
5087992454640827;0.1346;0.1487;-0.0268;
5087992474822025;0.0772;0.2164;0.0079;
5087992495030254;0.0202;0.0471;0.0430;
5087992515259369;-0.0133;-0.0658;0.0569;
5087992535442546;-0.0613;-0.1047;0.0499;
5087992555650723;0.0213;0.1157;0.0249;
5087992575866140;0.1304;0.1349;-0.0065;
5087992596063692;0.1447;0.0834;0.0558;
5087992616271921;0.0533;-0.0205;0.0867;
5087992636485931;0.0298;0.0120;0.0787;
5087992656715462;0.0170;-0.0860;0.0579;
5087992676923692;0.0378;-0.0525;0.0558;
5087992697101452;0.0330;-0.0945;0.0521;
5087992717349212;0.0346;0.0216;0.0819;
5087992737557442;0.0607;0.1983;0.0712;
5087992757745462;0.1122;0.1264;0.0542;
5087992777950046;0.0399;0.0631;0.0478;
5087992798158379;-0.0362;0.0944;0.0489;
5087992818360723;-0.0117;0.0615;0.0387;
5087992838562962;-0.0405;-0.1696;0.0340;
5087992858771244;-0.0575;-0.0557;-0.0406;
5087992878989004;0.0304;0.0200;-0.0209;
5087992899197806;0.1618;0.1722;-0.0300;
5087992919406035;0.2246;0.1748;0.0148;
5087992939611921;0.2188;0.2718;0.0100;
5087992959799942;0.1060;0.1402;0.0318;
5087992980008119;0.1080;0.0104;0.0537;
5087993000236973;0.0522;-0.1446;0.0723;
5087993020445202;0.0565;-0.0386;0.0494;
5087993040664265;0.0980;-0.2229;0.0366;
5087993060872702;0.1001;-0.1904;0.0627;
5087993081080931;0.1192;-0.0434;0.0696;
5087993101290983;0.1234;-0.0615;0.1107;
5087993121482077;0.1039;0.0551;0.1330;
5087993141690358;0.2087;0.0013;0.1410;
5087993161903744;0.0911;0.0992;0.1799;
5087993182115358;0.1176;-0.0551;0.2337;
5087993202323692;-0.0826;-0.0700;0.2257;
5087993222543431;-0.1571;-0.0253;0.1810;
5087993242722650;-0.1758;0.0365;0.1628;
5087993262930931;-0.0905;-0.0828;0.1453;
5087993283153275;-0.1763;0.0242;0.1186;
5087993303357337;-0.1289;0.0248;0.0979;
5087993323565619;-0.0538;-0.0567;0.0617;
5087993343775150;-0.0538;-0.0738;0.0558;
5087993364019369;-0.0224;-0.0370;0.0292;
5087993384227650;0.0075;-0.0344;0.0297;
5087993404391921;0.0543;0.0908;0.0169;
5087993424625827;0.0447;-0.0264;-0.0044;
5087993444834108;-0.0011;0.0157;0.0047;
5087993465021921;-0.0107;-0.1403;0.0015;
5087993485216087;-0.0240;-0.0690;-0.0028;
5087993505424369;-0.0186;-0.1526;-0.0055;
5087993525643587;0.1039;0.1551;-0.0214;
5087993545857129;0.1023;-0.1430;0.0382;
5087993566065410;-0.1033;0.0253;0.0276;
5087993586291244;0.0133;0.2116;0.0398;
5087993606480775;-0.0144;0.1892;0.0478;
5087993626689056;-0.0293;0.0146;0.0680;
5087993646910202;-0.2626;-0.0738;0.0494;
5087993667105567;-0.1582;0.1546;0.0569;
5087993687313848;-0.1672;-0.2272;0.0542;
5087993707523119;-0.2759;-0.1324;-0.0481;
5087993727733483;-0.1651;-0.0077;-0.0768;
5087993747941765;-0.0607;0.1844;-0.0672;
5087993768146765;-0.0538;-0.1084;-0.0198;
5087993788356921;-0.0975;0.0908;-0.0507;
5087993808564994;-0.0863;-0.0344;-0.0433;
5087993828802910;-0.1071;-0.1467;-0.0390;
5087993848981608;-0.2349;-0.3454;-0.0587;
5087993869189681;0.1415;0.6568;-0.0875;
5087993889389890;-0.0176;0.0658;0.0063;
5087993909605567;-0.0618;-0.0455;-0.0337;
5087993929813640;-0.1678;-0.1531;0.0276;
5087993950025150;-0.0969;0.1631;0.0153;
5087993970226452;-0.2381;-0.7341;0.0718;
5087993990434525;-0.3047;-0.0583;-0.1003;
5087994010642702;-0.0863;0.1573;-0.0875;
5087994030863900;-0.0256;0.2675;-0.0742;
5087994051071973;-0.1156;0.0242;-0.0007;
5087994071285202;-0.1720;-0.0668;0.0073;
5087994091486400;-0.1784;-0.1004;-0.0561;
5087994111694473;-0.1672;-0.1435;-0.1248;
5087994131894473;-0.1103;0.0056;-0.1663;
5087994152124108;-0.0538;0.0850;-0.1738;
5087994172332181;-0.0314;0.1141;-0.1615;
5087994192526087;-0.0213;0.1173;-0.1636;
5087994212715775;0.0383;0.1445;-0.1955;
5087994232923848;0.0511;0.1397;-0.1802;
5087994253147285;0.0245;0.1024;-0.1567;
5087994273359004;0.0405;0.0631;-0.1349;
5087994293567077;0.0202;0.0375;-0.1221;
5087994313743483;0.0059;-0.0274;-0.1296;
5087994333979160;0.0149;0.0072;-0.1360;
5087994354187233;0.0304;0.0349;-0.1248;
5087994374413015;0.0575;0.1008;-0.1061;
5087994394604837;0.0080;-0.0264;-0.0896;
5087994414812962;0.0117;-0.0418;-0.0678;
5087994435085983;0.1634;0.5029;-0.1317;
5087994455211556;0.0559;0.0658;-0.0609;
5087994475419629;-0.0005;0.0088;-0.0609;
5087994495645515;0.0085;-0.1696;-0.0587;
5087994515843900;0.0362;0.0242;-0.0529;
5087994536051973;-0.0021;-0.1547;-0.0465;
5087994556267233;0.0421;-0.1808;-0.1407;
5087994576488483;0.0644;-0.1979;-0.0800;
5087994596696556;0.1980;-0.0109;-0.0891;
5087994616915462;0.0607;0.0226;-0.0177;
5087994637092233;0.0895;0.1242;-0.0656;
5087994657300306;0.0501;0.0125;-0.0651;
5087994677516087;0.0383;-0.1595;-0.0651;
5087994697725567;0.0389;0.0981;-0.0768;
5087994717933640;0.0458;-0.0109;-0.0603;
5087994738150567;0.0314;0.0115;-0.1130;
5087994758354421;0.0037;-0.6467;-0.0577;
5087994778562702;0.0676;-0.2288;-0.1157;
5087994798774785;0.3594;0.1748;-0.0971;
5087994818975254;0.3881;0.2979;-0.0715;
5087994839183535;0.3253;0.3783;-0.0427;
5087994859391869;0.4068;0.4390;-0.0465;
5087994879596817;0.3125;0.4161;0.0100;
5087994899805098;0.1889;-0.0668;0.1490;
5087994920015775;0.0357;-0.2282;0.1831;
5087994940225567;0.0858;-0.3198;0.1288;
5087994960433848;0.0533;-0.4828;0.0814;
5087994980646140;0.1762;-0.2932;0.0324;
5087995000844942;0.2108;-0.0908;0.1091;
5087995021053223;0.2358;0.0423;0.1799;
5087995041281608;0.0996;-0.2421;0.2704;
5087995061478483;0.0458;-0.1132;0.2529;
5087995081686765;-0.0639;-0.1212;0.2395;
5087995101903848;-0.1561;0.0706;0.1905;
5087995122094212;-0.1683;0.2531;0.1458;
5087995142302494;-0.1395;0.1706;0.1969;
5087995162519473;0.0176;0.2393;0.1320;
5087995182731400;-0.0362;-0.2453;0.1453;
5087995202939681;0.1069;-0.0482;0.1357;
5087995223166244;0.2081;0.0987;0.1836;
5087995243405306;0.2891;0.2798;0.2310;
5087995263613535;0.1644;-0.0312;0.2742;
5087995283758692;0.0107;-0.1015;0.2843;
5087995304022754;-0.2019;0.0205;0.2640;
5087995324230983;-0.3467;0.0551;0.2230;
5087995344388535;-0.4836;0.1786;0.1810;
5087995364603796;-0.7429;-0.1441;0.1256;
5087995384812077;-0.8238;-0.1627;0.0505;
5087995405007806;-0.6907;-0.0141;-0.0443;
5087995425241921;-0.5309;0.1823;-0.1083;
5087995445450202;-0.4192;0.0839;-0.1509;
5087995465629681;-0.3116;0.0093;-0.1843;
5087995485847442;-0.1923;-0.0370;-0.1546;
5087995506055723;-0.0602;-0.0162;-0.1700;
5087995526264890;0.1154;0.2382;-0.1099;
5087995546475358;0.0650;0.1439;-0.1301;
5087995566683640;-0.0362;0.1083;-0.0971;
5087995586903535;-0.1774;-0.0897;-0.1370;
5087995607099837;-0.1124;0.1104;-0.1599;
5087995627308119;-0.1257;0.1162;-0.1965;
5087995647508952;-0.1353;-0.0194;-0.2099;
5087995667721504;-0.1241;0.0589;-0.2471;
5087995687929785;-0.0991;0.0981;-0.2828;
5087995708137285;-0.1039;-0.0567;-0.3574;
5087995728357025;-0.0405;-0.0407;-0.3611;
5087995748565306;0.0016;-0.1116;-0.3845;
5087995768767598;0.1330;-0.1047;-0.3600;
5087995788973587;0.2624;0.0189;-0.3276;
5087995809181869;0.2688;-0.1308;-0.3196;
5087995829418535;0.2369;-0.0136;-0.2684;
5087995849601244;0.3386;0.0976;-0.2466;
5087995869809525;0.4995;0.1732;-0.1722;
5087995890005098;0.3935;-0.0077;-0.0960;
5087995910222129;0.2593;-0.0535;-0.0385;
5087995930430410;0.2145;-0.0013;-0.0427;
5087995950646973;0.2326;0.0232;-0.0364;
5087995970844108;0.1703;-0.0530;-0.0321;
5087995991052390;0.1581;-0.0519;-0.0491;
5087996011260931;0.2156;0.0115;-0.0566;
5087996031474733;0.3445;-0.0040;-0.0465;
5087996051683015;0.3349;0.0274;-0.0140;
5087996071877962;0.4654;0.0285;-0.0150;
5087996092100358;0.4622;-0.0152;0.0206;
5087996112308640;0.4089;-0.0061;0.0387;
5087996132522910;0.3764;-0.0205;0.0632;
5087996152747650;0.2816;-0.0360;0.0846;
5087996172955879;0.2955;0.0333;0.1043;
5087996193128744;0.3248;0.0487;0.1256;
5087996213335046;0.2619;0.0642;0.1442;
5087996233543327;0.2502;0.0088;0.1479;
5087996253772598;0.2582;0.0487;0.1543;
5087996273973796;0.2475;0.0088;0.2033;
5087996294182077;0.2470;0.0226;0.2438;
5087996314390827;0.2752;0.0450;0.2896;
5087996334603744;0.2076;-0.0322;0.3109;
5087996354811973;0.1858;-0.0551;0.3567;
5087996375009265;0.1367;-0.0104;0.3636;
5087996395216400;0.1778;0.0152;0.3961;
5087996415424681;0.1479;0.1035;0.4466;
5087996435633952;0.1469;0.1152;0.5265;
5087996455861244;0.1724;0.3378;0.5435;
5087996476069525;0.1060;0.2137;0.5680;
5087996496280515;-0.0581;0.0583;0.5925;
5087996516466817;-0.2535;-0.0940;0.5718;
5087996536675098;-0.4517;-0.0349;0.5691;
5087996556883692;-0.4378;-0.0583;0.5451;
5087996577084577;-0.3180;-0.1366;0.5148;
5087996597292858;-0.2764;-0.1537;0.4823;
5087996617508535;-0.2482;-0.0237;0.4338;
5087996637708379;-0.1624;0.1146;0.3961;
5087996657916660;-0.1278;-0.0072;0.4020;
5087996678146035;-0.2690;-0.0402;0.3594;
5087996698343275;-0.3888;-0.0535;0.3157;
5087996718551556;-0.5565;0.0093;0.2481;
5087996738769994;-0.5426;0.0866;0.1927;
5087996758963692;-0.5064;0.0503;0.1107;
5087996779171921;-0.5905;-0.0866;0.0617;
5087996799400410;-0.6422;-0.0381;0.0079;
5087996819595150;-0.4921;0.0700;-0.0161;
5087996839803379;-0.3457;0.1344;-0.0268;
5087996860011452;-0.3398;-0.0482;-0.0427;
5087996880207650;-0.3691;-0.0983;-0.0513;
5087996900415879;-0.3547;0.0434;-0.0449;
5087996920638952;-0.3153;0.2036;-0.0049;
5087996940849837;-0.3435;0.1658;-0.0172;
5087996961058067;-0.4144;0.0738;-0.0305;
5087996981284473;-0.5554;-0.0258;-0.0614;
5087997001464108;-0.5937;0.0450;-0.0955;
5087997021672337;-0.6007;-0.2005;-0.1466;
5087997041893952;-0.5900;-0.0770;-0.2061;
5087997062117025;-0.4517;-0.0354;-0.2120;
5087997082325254;-0.5325;-0.4104;-0.3041;
5087997102518848;-0.5389;0.2371;-0.3883;
5087997122704629;-0.2844;0.4065;-0.3595;
5087997142912858;-0.3249;0.5530;-0.3979;
5087997163150619;-0.2583;0.1519;-0.3957;
5087997183410671;-0.3728;0.0913;-0.4453;
5087997203618952;-0.3707;0.4007;-0.4559;
5087997223780098;-0.2178;0.7398;-0.6173;
5087997244022962;0.0043;0.9134;-0.5928;
5087997264231140;0.1069;0.6361;-0.6173;
5087997284385931;0.2044;0.3943;-0.6253;
5087997304580671;0.2348;-0.3486;-0.6130;
5087997324788952;0.2358;0.2126;-0.5427;
5087997344991556;0.3077;-0.4988;-0.6114;
5087997365208796;0.6433;-0.1073;-0.5566;
5087997385417025;0.8503;-0.1734;-0.4698;
5087997405627858;0.8567;0.1940;-0.3798;
5087997425835150;0.7971;0.1562;-0.2770;
5087997446043379;0.6102;0.0280;-0.2035;
5087997466247285;0.3226;-0.2437;-0.1605;
5087997486462025;0.1618;-0.1260;-0.1732;
5087997506670254;0.2582;0.0237;-0.1620;
5087997526883640;0.3056;0.0754;-0.1493;
5087997547093587;0.3237;0.1109;-0.1599;
5087997567301817;0.3258;-0.0322;-0.1620;
5087997587499785;0.2822;-0.1089;-0.1455;
5087997607718171;0.3152;-0.1100;-0.1168;
5087997627926452;0.3019;-0.0897;-0.0742;
5087997648126035;0.3338;-0.0732;-0.0449;
5087997668344733;0.3226;-0.0977;-0.0278;
5087997688552962;0.3589;-0.0551;-0.0033;
5087997708754369;0.3237;-0.1249;0.0393;
5087997728963327;0.2806;-0.1318;0.1043;
5087997749171504;0.2550;-0.0988;0.1581;
5087997769385202;0.2507;-0.0418;0.1767;
5087997789595254;0.2640;0.0354;0.2028;
5087997809803535;0.2566;0.0221;0.2486;
5087997830026400;0.2438;0.0354;0.2736;
5087997850210254;0.2129;0.0013;0.3503;
5087997870418535;0.1453;-0.0812;0.3881;
5087997890618900;0.0442;-0.0828;0.4047;
5087997910841921;-0.0309;-0.0770;0.3881;
5087997931050202;-0.1321;-0.0594;0.3834;
5087997951252858;-0.1619;-0.0115;0.3759;
5087997971470775;-0.2072;0.0120;0.3583;
5087997991679056;-0.3164;-0.0344;0.2987;
5087998011881556;-0.3712;0.1322;0.2363;
5087998032088119;-0.2945;0.1471;0.1708;
5087998052296348;-0.3174;0.0365;0.1186;
5087998072521452;-0.3228;0.0226;0.0808;
5087998092722962;-0.3057;-0.0178;0.0015;
5087998112931244;-0.2354;0.0317;-0.0571;
5087998133124629;-0.1273;-0.1084;-0.0981;
5087998153335567;-0.0937;-0.1164;-0.1152;
5087998173543848;0.0123;-0.0695;-0.1194;
5087998193734942;0.0581;-0.1499;-0.0944;
5087998213987077;0.0613;-0.1302;-0.0965;
5087998234195358;0.0607;-0.1308;-0.0811;
5087998254384681;0.0399;-0.1180;-0.0619;
5087998274584733;-0.0096;-0.2000;-0.0406;
5087998294793015;-0.0170;-0.0780;-0.0268;
5087998315001869;-0.0250;0.0120;-0.0454;
5087998335204004;-0.0192;0.1487;-0.0310;
5087998355412285;-0.0208;0.1919;-0.0113;
5087998375627702;-0.0336;0.2505;-0.0140;
5087998395820879;-0.0655;0.1791;0.0174;
5087998416029160;-0.1145;0.0019;-0.0033;
5087998436246087;-0.1816;-0.0312;-0.0358;
5087998456467390;-0.2099;-0.1387;-0.0779;
5087998476675619;-0.2312;-0.2937;-0.1301;
5087998496868431;-0.1736;-0.2740;-0.1642;
5087998517083379;-0.0964;-0.2005;-0.2168;
5087998537291660;-0.0352;0.0620;-0.2551;
5087998557508640;0.1506;0.1040;-0.2727;
5087998577711608;0.1863;0.0067;-0.2652;
5087998597919890;0.1149;0.0029;-0.2796;
5087998618128587;0.0607;-0.1510;-0.2855;
5087998638329160;0.0607;-0.1185;-0.3228;
5087998658537390;0.0996;-0.1808;-0.3451;
5087998678755931;0.2055;-0.1574;-0.3723;
5087998698969212;0.3146;-0.1270;-0.3158;
5087998719177494;0.4217;-0.0242;-0.2636;
5087998739376921;0.4808;0.1493;-0.2306;
5087998759588483;0.5080;0.2116;-0.1748;
5087998779796712;0.5096;0.1935;-0.1242;
5087998800005619;0.4297;0.1498;-0.0683;
5087998820200671;0.3051;-0.0093;-0.0065;
5087998840408900;0.2726;0.0322;0.0047;
5087998860619473;0.3168;-0.0620;0.0164;
5087998880822858;0.3594;-0.1212;0.0350;
5087998901031140;0.4244;-0.0866;0.0611;
5087998921242806;0.5394;0.0839;0.0989;
5087998941480567;0.6646;0.1977;0.1431;
5087998961688848;0.6278;0.2712;0.2118;
5087998981868015;0.4478;0.3186;0.2603;
5087999002069994;0.3759;0.2366;0.3210;
5087999022278275;0.2385;0.1242;0.3674;
5087999042491973;0.0985;0.2169;0.3535;
5087999062697390;0.2582;0.3069;0.3008;
5087999082905671;0.2901;0.3559;0.3024;
5087999103113327;0.3083;0.3772;0.3162;
5087999123359056;0.3301;0.3623;0.3439;
5087999143567285;0.3162;0.2345;0.4196;
5087999163740254;0.2683;0.1008;0.5068;
5087999183988900;0.1991;-0.0876;0.6090;
5087999204197129;0.0788;-0.1670;0.6900;
5087999224390619;-0.0128;-0.0759;0.7358;
5087999244565827;-0.0586;0.0130;0.7758;
5087999264774056;-0.1465;-0.1126;0.8290;
5087999284998275;-0.4282;-0.1750;0.8759;
5087999305212858;-0.8153;-0.1153;0.8684;
5087999325421087;-1.0465;-0.0210;0.7816;
5087999345629577;-1.1353;0.0482;0.6650;
5087999365828796;-1.0864;0.0992;0.5297;
5087999386037025;-1.0465;0.0125;0.4190;
5087999406241140;-1.0651;-0.0775;0.2656;
5087999426462233;-1.0534;-0.0386;0.0995;
5087999446670515;-0.8808;-0.0232;-0.0736;
5087999466885098;-0.6475;0.0397;-0.1955;
5087999487104525;-0.4724;0.0157;-0.2296;
5087999507312754;-0.3973;0.0509;-0.2690;
5087999527484785;-0.3084;0.1099;-0.2983;
5087999547707025;-0.2232;0.1136;-0.3345;
5087999567915254;-0.0762;0.0631;-0.3430;
5087999588124890;-0.0250;0.0620;-0.3430;
5087999608328692;0.0091;0.1573;-0.3121;
5087999628536921;0.0879;0.1200;-0.3095;
5087999648738952;0.0740;0.0296;-0.3121;
5087999668951921;0.0586;-0.0312;-0.3020;
5087999689160202;0.0117;-0.0594;-0.2802;
5087999709369577;-0.0197;0.0013;-0.2764;
5087999729578171;0.0501;0.0711;-0.2812;
5087999749786400;0.1096;0.0706;-0.2674;
5087999770005098;0.1065;0.0168;-0.2312;
5087999790218379;0.0165;0.1061;-0.2120;
5087999810426660;0.0975;0.1525;-0.2077;
5087999830631765;0.1229;0.0631;-0.1976;
5087999850832494;0.0282;-0.0178;-0.1875;
5087999871040775;0.0826;0.2638;-0.1875;
5087999891249369;0.2944;-0.2037;-0.1200;
5087999911455879;0.1522;-0.3838;-0.0662;
5087999931664160;0.1091;-0.3316;-0.0278;
5087999951877390;0.1149;-0.1206;-0.0001;
5087999972082129;0.0687;-0.3987;0.0276;
5087999992290410;0.0240;0.0514;0.0387;
5088000012499056;0.3242;0.2185;0.0851;
5088000032708067;0.4212;0.3841;0.1703;
5088000052916348;0.3615;0.1700;0.2832;
5088000073124108;0.0799;-0.0317;0.3668;
5088000093331608;-0.2312;-0.0935;0.3738;
5088000113539890;-0.4799;-0.0375;0.3114;
5088000133736712;-0.5756;-0.0013;0.2204;
5088000153947025;-0.4165;0.1216;0.1724;
5088000174155306;-0.1582;-0.0184;0.1815;
5088000194351348;-0.1795;-0.1084;0.1820;
5088000214594108;-0.3425;-0.0892;0.1224;
5088000234802390;-0.4501;0.0360;0.0446;
5088000255004785;-0.4021;-0.0418;-0.0188;
5088000275190567;-0.4181;0.0615;-0.0971;
5088000295398848;-0.1688;0.1589;-0.1290;
5088000315613223;-0.1166;0.0663;-0.1754;
5088000335840879;-0.1342;0.0471;-0.2280;
5088000356049160;-0.1545;-0.0306;-0.2434;
5088000376246765;-0.1614;0.0003;-0.2839;
5088000396450983;-0.1049;0.0535;-0.2967;
5088000416659265;-0.0399;0.1253;-0.3110;
5088000436853223;0.1202;0.0631;-0.2993;
5088000457092390;0.1304;-0.0658;-0.2477;
5088000477300671;0.0091;-0.1521;-0.2258;
5088000497496556;-0.0320;-0.0391;-0.2306;
5088000517696400;-0.0016;-0.0237;-0.2359;
5088000537904681;0.0144;-0.0876;-0.2264;
5088000558119837;-0.0410;-0.0866;-0.2269;
5088000578319942;0.0415;0.1008;-0.2189;
5088000598528223;0.1479;0.0928;-0.2338;
5088000618754265;0.1842;0.1024;-0.2168;
5088000638941817;0.1703;0.0130;-0.1896;
5088000659150098;0.0581;-0.0636;-0.1997;
5088000679365306;0.0671;-0.0296;-0.2024;
5088000699571087;0.0943;0.0061;-0.2258;
5088000719779369;0.2300;0.0136;-0.2200;
5088000739999681;0.3045;-0.0445;-0.1880;
5088000760210671;0.2491;-0.0423;-0.1530;
5088000780418952;0.2012;-0.0631;-0.1242;
5088000800621765;0.1559;0.0109;-0.1264;
5088000820823587;0.1985;0.0269;-0.0960;
5088000841031869;0.0969;-0.0040;-0.0720;
5088000861237754;0.0863;0.1072;-0.0385;
5088000881439837;0.0927;0.1088;-0.0326;
5088000901648119;0.0224;0.0157;-0.0214;
5088000921871608;-0.1156;-0.0402;-0.0252;
5088000942079994;-0.2232;-0.0551;-0.0465;
5088000962288275;-0.1891;-0.0099;-0.0795;
5088000982498744;-0.0868;-0.0152;-0.1354;
5088001002694108;-0.0176;-0.0253;-0.1445;
5088001022902390;-0.0399;-0.1068;-0.1668;
5088001043114733;0.0160;-0.0285;-0.1770;
5088001063363535;0.0628;-0.0115;-0.1981;
5088001083571765;0.1218;0.0658;-0.2221;
5088001103736087;0.1873;0.0530;-0.2248;
5088001123986817;0.0826;-0.0525;-0.2285;
5088001144195098;0.0953;0.0391;-0.2349;
5088001164370879;0.1431;0.0700;-0.2690;
5088001184559837;0.1831;0.0955;-0.2956;
5088001204768119;0.2161;0.0280;-0.2919;
5088001225006973;0.2087;-0.0226;-0.2871;
5088001245197025;0.2076;-0.0967;-0.2636;
5088001265405306;0.2806;-0.0642;-0.2706;
5088001285608223;0.3716;-0.0679;-0.2535;
5088001305805775;0.3823;-0.0290;-0.2061;
5088001326014056;0.4803;0.1099;-0.1477;
5088001346235931;0.4957;0.0274;-0.0933;
5088001366458067;0.3461;-0.0461;-0.0204;
5088001386666348;0.2944;-0.0237;0.0297;
5088001406853119;0.2859;-0.0040;0.0643;
5088001427088067;0.2768;-0.0269;0.1192;
5088001447296348;0.2742;0.0290;0.1367;
5088001467493796;0.2859;0.1162;0.1799;
5088001487699421;0.1921;-0.0674;0.2316;
5088001507907702;0.1101;-0.0248;0.2608;
5088001528113223;0.2236;0.1423;0.2614;
5088001548323744;0.2316;0.1423;0.2827;
5088001568532025;0.1378;-0.0652;0.3061;
5088001588739473;0.0085;-0.1371;0.3248;
5088001608942025;-0.0794;-0.0631;0.3317;
5088001629150306;0.1138;0.1583;0.2838;
5088001649356035;0.2081;0.1381;0.2901;
5088001669571504;0.0969;0.1306;0.3114;
5088001689779785;0.0522;0.0088;0.3242;
5088001709990358;-0.0756;-0.1073;0.3509;
5088001730200879;-0.2610;-0.2133;0.3104;
5088001750409160;-0.1257;-0.0077;0.2571;
5088001770632442;-0.0490;-0.0301;0.2470;
5088001790840462;0.0298;0.1088;0.2608;
5088001811048744;-0.0325;-0.0040;0.2656;
5088001831236921;-0.1411;0.0599;0.2566;
5088001851436296;-0.1001;-0.0445;0.2449;
5088001871644577;-0.2652;-0.0509;0.2198;
5088001891852650;-0.2232;0.0445;0.1863;
5088001912062962;-0.1145;0.2270;0.1533;
5088001932271244;-0.0788;0.2941;0.1288;
5088001952485462;-0.1033;0.2164;0.1261;
5088001972704004;-0.1779;0.0987;0.1085;
5088001992912285;-0.2594;0.0493;0.0664;
5088002013106504;-0.1262;-0.0354;0.0308;
5088002033315567;-0.1624;-0.2783;-0.0033;
5088002053523900;-0.1065;-0.1451;-0.0289;
5088002073707442;0.0330;-0.0445;-0.0177;
5088002093934942;0.0383;-0.0471;-0.0230;
5088002114143275;0.0469;0.0764;-0.0161;
5088002134347962;0.0320;0.0157;-0.0023;
5088002154554942;-0.0431;0.0146;0.0142;
5088002174763275;-0.0245;-0.0722;0.0142;
5088002194995567;-0.0724;-0.0328;0.0036;
5088002215179525;-0.0623;-0.0684;-0.0156;
5088002235387858;-0.0506;-0.0391;-0.0262;
5088002255616087;-0.0138;0.0503;-0.0156;
5088002275806817;-0.0085;0.1258;-0.0262;
5088002296015098;-0.0250;0.0965;-0.0172;
5088002316229317;-0.0708;-0.0684;-0.0129;
5088002336450462;-0.1246;-0.0748;-0.0150;
5088002356658744;-0.0570;0.0061;-0.0156;
5088002376854733;-0.0032;0.0700;-0.0332;
5088002397053379;0.0186;0.0674;-0.0316;
5088002417261712;-0.0431;-0.0375;-0.0225;
5088002437485046;-0.0282;-0.0290;-0.0071;
5088002457685462;-0.0336;-0.1148;-0.0252;
5088002477893796;-0.0325;-0.0418;-0.0284;
5088002498107106;-0.0272;0.0115;-0.0454;
5088002518314190;0.0123;0.1051;-0.0465;
5088002538522471;0.0085;0.0562;-0.0316;
5088002558735544;-0.0181;0.0562;-0.0555;
5088002578934190;-0.0181;0.0668;-0.0630;
5088002599142523;-0.0368;-0.0913;-0.0869;
5088002619348617;-0.0096;-0.0658;-0.0955;
5088002639557523;0.0341;0.0019;-0.1130;
5088002659765856;0.0895;0.0477;-0.1375;
5088002679978356;0.0826;-0.0019;-0.1391;
5088002700183877;0.0458;0.0136;-0.1285;
5088002720392158;0.0863;0.0003;-0.1189;
5088002740608669;0.1055;-0.0418;-0.1269;
5088002760804085;0.1154;0.0317;-0.1242;
5088002781012263;0.1810;0.0439;-0.1072;
5088002801227210;0.1314;-0.0365;-0.0683;
5088002821442940;0.1101;-0.0237;-0.0422;
5088002841651117;0.1485;0.0258;-0.0310;
5088002861852419;0.1240;-0.0509;0.0057;
5088002882055440;0.0836;-0.0599;0.0377;
5088002902263617;0.1065;-0.0083;0.0840;
5088002922473356;0.0826;-0.0349;0.1138;
5088002942679815;0.0607;0.0381;0.1421;
5088002962887992;0.0352;0.0344;0.1788;
5088002983103304;0.0309;0.0642;0.2161;
5088003003316117;0.0341;0.0780;0.2582;
5088003023524294;0.0069;0.0684;0.2699;
5088003043722158;-0.0511;0.0061;0.3024;
5088003063932940;-0.1379;-0.1153;0.3093;
5088003084141117;-0.2812;-0.0141;0.2912;
5088003104341065;-0.1747;-0.0391;0.2614;
5088003124544606;-0.1896;0.0439;0.2284;
5088003144752783;-0.0948;0.0754;0.1964;
5088003164964502;-0.0767;0.0695;0.1932;
5088003185191377;-0.0799;-0.0961;0.1783;
5088003205399554;-0.1752;-0.0157;0.1096;
5088003225610231;-0.1609;-0.0269;0.0601;
5088003245799033;-0.1678;-0.0216;0.0073;
5088003266007210;-0.0815;0.0003;-0.0246;
5088003286218773;-0.0405;0.0455;-0.0449;
5088003306434867;-0.0730;0.0194;-0.0720;
5088003326643044;-0.0655;0.0333;-0.0912;
5088003346850179;-0.1140;-0.0477;-0.1109;
5088003367063200;-0.1028;0.0461;-0.1040;
5088003387271325;-0.0527;0.0796;-0.1237;
5088003407467940;-0.0447;0.1381;-0.1141;
5088003427686794;-0.0591;0.0450;-0.1130;
5088003447894971;-0.0724;-0.0503;-0.0944;
5088003468095700;-0.0959;-0.1057;-0.0800;
5088003488308877;-0.1246;-0.0056;-0.1099;
5088003508517054;-0.0533;-0.0589;-0.1035;
5088003528718669;-0.0533;-0.1057;-0.1136;
5088003548935648;-0.0373;0.0040;-0.0992;
5088003569143825;-0.0218;-0.0056;-0.0939;
5088003589352106;-0.0511;-0.0173;-0.0933;
5088003609558044;-0.0415;0.1109;-0.1130;
5088003629766221;0.0224;0.0344;-0.1120;
5088003649969919;-0.0181;-0.0194;-0.0816;
5088003670172315;-0.0240;0.0407;-0.0965;
5088003690380492;-0.0240;0.0045;-0.1013;
5088003710591742;-0.0399;-0.0413;-0.1365;
5088003730816533;-0.0213;-0.0322;-0.1386;
5088003751024710;0.0144;0.1322;-0.1344;
5088003771224138;0.0671;0.0955;-0.1397;
5088003791428669;0.0687;0.1184;-0.1285;
5088003811636898;0.0314;-0.0450;-0.1258;
5088003831855596;0.0213;0.0423;-0.1104;
5088003852043773;0.0186;-0.0924;-0.1024;
5088003872252002;0.0032;0.0386;-0.1258;
5088003892466221;0.0389;-0.0093;-0.1423;
5088003912677210;0.0762;0.0381;-0.1391;
5088003932885440;0.0815;0.0173;-0.1029;
5088003953089867;0.0900;-0.0636;-0.0790;
5088003973311117;0.0133;-0.1691;-0.0710;
5088003993519294;0.0165;-0.1249;-0.0768;
5088004013727783;0.0352;-0.0764;-0.0843;
5088004033916065;0.0719;-0.0008;-0.0688;
5088004054124294;0.1176;0.0786;-0.0843;
5088004074356065;0.1256;0.0807;-0.0465;
5088004094541065;0.0570;0.0594;-0.0417;
5088004114749294;0.0618;-0.0162;-0.0289;
5088004134963408;0.0618;-0.0003;-0.0310;
5088004155167523;0.0708;0.0455;-0.0358;
5088004175375752;0.1055;0.0099;-0.0379;
5088004195612471;0.0863;-0.0269;-0.0353;
5088004215802002;0.0943;-0.0067;-0.0017;
5088004236010231;0.0820;-0.0812;0.0031;
5088004256213929;0.0565;-0.0200;-0.0071;
5088004276425804;0.0959;-0.0077;-0.0166;
5088004296633981;0.1069;-0.1105;0.0158;
5088004316841846;0.0905;-0.0913;0.0249;
5088004337072315;0.0671;-0.0168;0.0233;
5088004357280544;0.0682;0.0258;0.0174;
5088004377476742;0.0788;0.0253;0.0116;
5088004397664398;0.0927;0.0770;0.0111;
5088004417872627;0.1065;0.0939;0.0265;
5088004438094450;0.0597;0.0344;0.0382;
5088004458298460;0.0495;-0.0961;0.0356;
5088004478506690;0.0272;-0.1265;0.0286;
5088004498734346;0.0165;0.0620;0.0196;
5088004518923877;0.1341;0.0976;0.0260;
5088004539132106;0.2044;0.1013;0.0451;
5088004559353929;0.1575;-0.0035;0.0798;
5088004579553304;0.0895;0.1684;0.1160;
5088004599761481;0.1085;-0.0525;0.1703;
5088004619963721;0.0320;-0.2762;0.2161;
5088004640168877;-0.1044;-0.1025;0.1836;
5088004660377106;-0.1406;0.1285;0.1660;
5088004680586013;0.0309;-0.0503;0.2113;
5088004700801169;0.0016;0.0290;0.2177;
5088004721009398;0.0123;0.1770;0.2326;
5088004741216325;-0.0213;0.0541;0.2523;
5088004761423981;-0.1071;-0.0152;0.2614;
5088004781632210;-0.2674;-0.0210;0.2475;
5088004801852679;-0.2892;0.0908;0.1916;
5088004822043565;-0.1129;0.0477;0.1506;
5088004842251794;-0.1023;0.0280;0.1208;
5088004862463513;-0.0788;0.0115;0.1133;
5088004882665960;-0.0714;-0.0248;0.0947;
5088004902874190;-0.1060;-0.0280;0.0521;
5088004923089815;-0.0591;0.1061;0.0100;
5088004943310075;0.1055;-0.0125;0.0148;
5088004963518252;0.0005;-0.1286;0.0238;
5088004983709242;-0.0346;-0.0477;0.0111;
5088005003942523;-0.0671;-0.0711;-0.0204;
5088005024150700;-0.0506;-0.0876;-0.0742;
5088005044331065;-0.0000;0.0370;-0.0747;
5088005064548044;0.0208;0.0860;-0.0545;
5088005084756221;0.0080;0.0971;-0.0545;
5088005105014138;-0.0357;0.0152;-0.0411;
5088005125184033;-0.0921;0.0285;-0.0806;
5088005145392210;-0.1241;0.1205;-0.0822;
5088005165584242;-0.0304;0.1503;-0.0720;
5088005185784606;-0.0517;0.0562;-0.0747;
5088005205992835;-0.0485;0.0312;-0.0779;
5088005226224502;-0.0405;0.0029;-0.0672;
5088005246439815;-0.0394;-0.1228;-0.0539;
5088005266647992;-0.0336;-0.1116;-0.0507;
5088005286832263;-0.0447;-0.0951;-0.0561;
5088005307049085;-0.0288;-0.0706;-0.0694;
5088005327257315;-0.0282;-0.0897;-0.0502;
5088005347450596;-0.0309;0.0051;-0.0545;
5088005367666794;-0.0170;0.0487;-0.0651;
5088005387874971;-0.0123;0.0775;-0.0790;
5088005408081429;-0.0107;0.1248;-0.1040;
5088005428291273;-0.0117;0.0965;-0.0907;
5088005448499502;-0.0117;0.0226;-0.0885;
5088005468709763;-0.0378;-0.0072;-0.1109;
5088005488917783;-0.0069;0.0115;-0.1402;
5088005509126013;0.0517;0.0104;-0.1354;
5088005529330908;0.0463;-0.0802;-0.1083;
5088005549546481;0.0538;-0.0173;-0.0923;
5088005569754710;0.0330;-0.0120;-0.0939;
5088005589958721;0.0293;0.0056;-0.1056;
5088005610168773;0.0298;-0.0093;-0.0822;
5088005630377002;0.0479;0.0067;-0.0502;
5088005650576742;0.0362;-0.0317;-0.0225;
5088005670787940;0.0378;0.0210;-0.0284;
5088005690996169;0.0618;-0.0061;-0.0422;
5088005711214242;0.0490;-0.0466;-0.0028;
5088005731411533;0.0799;0.0573;0.0206;
5088005751619763;0.1149;-0.0019;0.0595;
5088005771832419;0.0352;-0.0924;0.0707;
5088005792038617;0.0671;0.0280;0.0643;
5088005812246794;0.0863;-0.0040;0.0968;
5088005832466638;0.0272;-0.0658;0.1256;
5088005852658460;0.0202;0.0168;0.1309;
5088005872866638;0.0357;0.0498;0.1149;
5088005893075596;0.0186;-0.0178;0.1218;
5088005913288877;0.0261;-0.0397;0.1309;
5088005933497054;0.0059;0.0051;0.1666;
5088005953726013;0.0011;0.0130;0.1581;
5088005973907783;-0.0000;0.0232;0.1352;
5088005994115960;0.0282;0.0912;0.1501;
5088006014333304;0.0250;0.0887;0.1703;
5088006034534502;-0.0075;0.1093;0.2140;
5088006054742731;-0.0799;-0.0397;0.2071;
5088006074968773;-0.1901;-0.0791;0.1964;
5088006095166481;-0.2892;-0.1196;0.1639;
5088006115374658;-0.3467;-0.0162;0.1362;
5088006135599190;-0.3835;0.0099;0.0734;
5088006155784710;-0.3393;0.0903;0.0057;
5088006175992888;-0.2519;0.1951;-0.0246;
5088006196194242;-0.2125;-0.0258;-0.0193;
5088006216401690;-0.2205;-0.0386;-0.0305;
5088006236609867;-0.2024;0.0344;-0.0955;
5088006256835804;-0.1433;0.0221;-0.1413;
5088006277039033;-0.0959;-0.0445;-0.1519;
5088006297247210;-0.0543;-0.0013;-0.1338;
5088006317456690;-0.0895;-0.0178;-0.0960;
5088006337666533;-0.1411;-0.1920;-0.1162;
5088006357874710;-0.1007;-0.0450;-0.1658;
5088006378082263;-0.0895;-0.0738;-0.1642;
5088006398283981;-0.0879;0.0487;-0.1786;
5088006418492210;-0.0570;0.0711;-0.1716;
5088006438695700;-0.0037;0.0605;-0.2083;
5088006458911794;0.0256;0.1887;-0.2461;
5088006479119971;0.0671;0.0933;-0.2381;
5088006499335492;0.0751;0.0157;-0.2301;
5088006519533356;0.1549;0.0040;-0.2386;
5088006539741533;0.3109;0.0944;-0.2365;
5088006559961273;0.4936;-0.0929;-0.1636;
5088006580163460;0.5719;-0.1515;-0.0758;
5088006600371638;0.6076;-0.0535;0.0462;
5088006620581585;0.5756;-0.0322;0.1405;
5088006640785648;0.4526;-0.0290;0.2294;
5088006660993825;0.2944;0.0067;0.3045;
5088006681214242;0.1442;0.0173;0.3722;
5088006701412835;-0.1475;0.0471;0.4212;
5088006721621013;-0.3904;0.0605;0.3604;
5088006741829398;-0.4932;0.0567;0.2710;
5088006762034450;-0.5788;0.0791;0.1863;
5088006782242627;-0.5357;0.1423;0.1149;
5088006802458929;-0.4325;-0.0013;0.0324;
5088006822661273;-0.3792;-0.0072;-0.0640;
5088006842869450;-0.2264;0.0157;-0.1248;
5088006863065179;-0.1561;-0.0796;-0.1626;
5088006883274554;-0.0905;-0.1153;-0.1869;
5088006903482731;0.0075;-0.0434;-0.2322;
5088006923694971;0.1826;0.0823;-0.2578;
5088006943908044;0.2853;0.0019;-0.2365;
5088006964116221;0.1298;-0.0077;-0.1864;
5088006984325075;-0.0266;0.0285;-0.1615;
5088007004525231;-0.0708;-0.0189;-0.1859;
5088007024733408;-0.0847;0.0487;-0.2210;
5088007044953096;-0.0117;-0.0477;-0.2280;
5088007065179190;-0.0011;0.0200;-0.2312;
5088007085387367;0.0698;0.0344;-0.2258;
5088007105574294;0.0969;-0.0493;-0.2317;
5088007125782106;0.0873;-0.0519;-0.2173;
5088007145990283;0.1101;-0.0104;-0.2035;
5088007166198721;0.1144;-0.0328;-0.1583;
5088007186436846;0.1091;-0.1148;-0.1461;
5088007206645023;0.1740;-0.0157;-0.1471;
5088007226849242;0.2017;-0.0099;-0.1322;
5088007247034815;0.1591;-0.0407;-0.1045;
5088007267242992;0.1501;-0.0024;-0.0896;
5088007287446325;0.1559;0.0434;-0.1221;
5088007307663877;0.2140;0.1045;-0.1162;
5088007327872054;0.1650;-0.0684;-0.0742;
5088007348078617;0.1234;-0.0519;-0.0609;
5088007368292940;0.1208;-0.1457;-0.0273;
5088007388501117;0.1357;-0.0583;-0.0550;
5088007408701013;0.2577;0.1162;-0.0752;
5088007428905960;0.3354;0.0912;-0.0262;
5088007449114138;0.2204;0.0445;0.0467;
5088007469320492;0.1932;0.0509;0.0830;
5088007489544867;0.1506;-0.0173;0.1075;
5088007509753044;0.1202;-0.0738;0.1240;
5088007529951742;0.1218;-0.0583;0.1442;
5088007550163773;0.1044;-0.0450;0.2113;
5088007570371950;0.0916;-0.0099;0.2182;
5088007590579033;0.0655;0.0535;0.2348;
5088007610784867;-0.0245;0.0397;0.2619;
5088007630993044;-0.1007;0.0178;0.2635;
5088007651195492;-0.1662;-0.0013;0.2667;
5088007671412627;-0.2354;0.0482;0.2097;
5088007691620804;-0.2141;0.0850;0.1517;
5088007711825492;-0.2109;0.0104;0.1122;
5088007732033773;-0.2349;0.0003;0.0670;
5088007752241950;-0.1555;0.0679;0.0302;
5088007772440335;-0.0533;0.1509;-0.0284;
5088007792663148;-0.0229;-0.0301;-0.0321;
5088007812871325;-0.0165;-0.2511;-0.0060;
5088007833072263;0.0884;-0.1451;0.0169;
5088007853279085;0.1415;-0.0892;0.0265;
5088007873487263;0.0884;-0.0541;0.0153;
5088007893683825;0.0804;0.1498;0.0116;
5088007913898773;0.1176;0.3277;0.0558;
5088007934106950;0.0085;0.1636;0.1362;
5088007954340440;-0.1422;-0.1031;0.1740;
5088007974527106;-0.2333;-0.1276;0.1628;
5088007994735283;-0.2951;-0.1531;0.1213;
5088008014964763;-0.3228;-0.1648;0.0893;
5088008035152210;-0.2977;-0.0445;0.0489;
5088008055360388;-0.1779;0.1221;-0.0081;
5088008075609815;-0.1348;0.1205;-0.0193;
5088008095761690;-0.1342;0.1940;-0.0449;
5088008115969867;-0.1161;0.2435;-0.0417;
5088008136187575;-0.1326;-0.0216;-0.0619;
5088008156396377;-0.1156;0.0178;-0.1130;
5088008176604554;-0.0969;0.0541;-0.1652;
5088008196817992;-0.0597;-0.1153;-0.1780;
5088008217031169;0.0112;-0.2293;-0.2029;
5088008237239346;0.2385;-0.0407;-0.2205;
5088008257454919;0.3865;-0.0141;-0.1711;
5088008277649710;0.3956;-0.1201;-0.0838;
5088008297857888;0.3610;-0.0690;-0.0220;
5088008318081481;0.3067;-0.1867;0.0537;
5088008338282627;0.1836;-0.1664;0.1000;
5088008358490804;0.1197;0.0168;0.0973;
5088008378699294;0.1154;0.0024;0.1192;
5088008398904033;0.0437;-0.1196;0.1597;
5088008419112210;-0.0431;0.0562;0.1383;
5088008439327315;0.0181;0.2121;0.1240;
5088008459520856;0.0565;0.0690;0.1453;
5088008479729033;0.0101;-0.0391;0.1676;
5088008499942888;-0.0937;0.0418;0.1639;
5088008520152002;-0.0953;0.1599;0.1293;
5088008540360179;0.0256;0.1493;0.1304;
5088008560575596;0.0410;0.1429;0.1399;
5088008580774294;0.0053;0.0381;0.1772;
5088008600982471;-0.0314;-0.0328;0.2076;
5088008621190492;-0.1379;-0.0141;0.1788;
5088008641397835;-0.1198;0.0498;0.1527;
5088008661606065;-0.0378;-0.1254;0.1607;
5088008681823513;-0.0794;-0.1489;0.1756;
5088008702028044;-0.1720;0.0716;0.1549;
5088008722236221;-0.1023;0.0695;0.1389;
5088008742450648;-0.1161;0.0008;0.0995;
5088008762644398;-0.1736;0.2190;0.0824;
5088008782852575;-0.0565;0.2489;0.0941;
5088008803065440;-0.0916;0.0658;0.0675;
5088008823270283;-0.1790;-0.0104;0.0201;
5088008843478460;-0.2796;0.0306;-0.0417;
5088008863688148;-0.2668;-0.1169;-0.0939;
5088008883903356;-0.1859;-0.0482;-0.1423;
5088008904111533;-0.0655;0.0466;-0.1859;
5088008924313565;0.1023;0.1578;-0.2008;
5088008944521273;0.2518;-0.0120;-0.1684;
5088008964729450;0.1017;-0.1015;-0.1407;
5088008985002158;-0.0091;-0.1329;-0.1525;
5088009005168773;-0.0005;-0.0919;-0.1775;
5088009025376950;0.0053;-0.1270;-0.2061;
5088009045562992;0.0383;-0.0647;-0.2035;
5088009065767627;0.1149;-0.0546;-0.1775;
5088009085975804;0.0964;0.1136;-0.1716;
5088009106172835;0.1282;0.1200;-0.1567;
5088009126402940;0.0666;0.0917;-0.1477;
5088009146611117;0.0101;0.0045;-0.1285;
5088009166818096;-0.0250;-0.0274;-0.1184;
5088009187026117;-0.0314;-0.0450;-0.1296;
5088009207234294;0.0234;-0.0530;-0.1439;
5088009227449398;0.0431;-0.0589;-0.1519;
5088009247656898;0.0708;-0.0216;-0.1264;
5088009267865075;0.1272;-0.0226;-0.1019;
5088009288070335;0.1075;-0.0668;-0.0790;
5088009308284763;0.0794;0.0109;-0.0747;
5088009328492888;0.0980;0.0104;-0.0598;
5088009348700127;0.0517;-0.0620;-0.0417;
5088009368903460;0.0868;0.0828;-0.0566;
5088009389111638;0.1229;0.0525;-0.0513;
5088009409314242;0.0724;-0.0301;-0.0369;
5088009429534710;0.0341;-0.0461;-0.0289;
5088009449742888;0.0634;-0.0322;-0.0252;
5088009469943408;0.0799;-0.0322;-0.0342;
5088009490151585;0.0975;0.0285;-0.0289;
5088009510363565;0.1224;0.0615;-0.0252;
5088009530588669;0.0682;-0.0051;0.0047;
5088009550796846;0.0671;-0.0450;0.0057;
5088009570983617;0.0719;0.0099;-0.0177;
5088009591196377;0.1039;0.1200;-0.0278;
5088009611404554;0.1277;0.0971;-0.0060;
5088009631606898;0.1017;0.0344;0.0031;
5088009651819190;0.1197;0.0322;0.0084;
5088009672027367;0.0911;-0.0764;0.0217;
5088009692235127;0.0783;-0.0738;0.0153;
5088009712451898;0.0676;-0.1206;0.0451;
5088009732660075;0.0762;-0.1830;0.0499;
5088009752854971;0.1085;-0.0610;0.0542;
5088009773067367;0.1485;0.0093;0.0680;
5088009793275596;0.1378;-0.0109;0.0893;
5088009813506325;0.0591;-0.0141;0.1208;
5088009833691690;0.0511;0.0434;0.1256;
5088009853899919;0.0511;0.0823;0.1197;
5088009874160492;0.0405;0.1237;0.1154;
5088009894310127;0.0628;0.1349;0.1330;
5088009914518356;0.0352;-0.0370;0.1490;
5088009934745388;0.0101;-0.0301;0.1565;
5088009954939815;-0.0655;-0.0109;0.1378;
5088009975148044;-0.0399;0.0903;0.1240;
5088009995358513;0.0064;-0.0344;0.1431;
5088010015575023;0.0032;-0.0285;0.1447;
5088010035783252;0.0197;0.1125;0.1586;
5088010055985908;0.0165;-0.0162;0.1676;
5088010076179398;-0.0868;-0.0115;0.1474;
5088010096387627;-0.0921;0.0562;0.1421;
5088010116611585;-0.0325;0.0077;0.1314;
5088010136835960;-0.0431;0.0684;0.1346;
5088010157044190;0.0069;0.0077;0.1240;
5088010177237471;-0.0714;-0.1169;0.1346;
5088010197437315;-0.1145;-0.0791;0.1080;
5088010217645544;-0.0900;0.0210;0.1149;
5088010237864554;-0.0490;0.0732;0.0760;
5088010258061169;0.0288;0.1887;0.0782;
5088010278269398;0.0591;0.0402;0.1234;
5088010298482158;-0.0921;-0.1031;0.1250;
5088010318686585;-0.2642;0.1061;0.0989;
5088010338894815;-0.2695;0.0040;0.0473;
5088010359115388;-0.2083;-0.1047;0.0084;
5088010379316377;-0.1550;-0.0764;0.0025;
5088010399524606;-0.1193;0.0855;0.0015;
5088010419737575;-0.0959;-0.1334;0.0063;
5088010439940335;-0.1055;-0.1579;-0.0140;
5088010460148617;-0.1241;-0.0557;-0.0166;
5088010480372888;-0.1150;-0.0306;-0.0193;
5088010500585440;-0.1065;0.0003;-0.0113;
5088010520793721;-0.0937;0.1344;-0.0348;
5088010541000388;-0.0304;0.1642;-0.0326;
5088010561189294;-0.0458;0.0775;-0.0119;
5088010581397523;-0.0959;0.0280;-0.0039;
5088010601620075;-0.1284;-0.0599;-0.0028;
5088010621815179;-0.2184;0.1493;-0.0688;
5088010642023408;-0.0346;0.0328;-0.0901;
5088010662237315;-0.0208;-0.0802;-0.0624;
5088010682433200;-0.0575;-0.0312;-0.0374;
5088010702641429;-0.0506;0.0796;-0.0257;
5088010722869450;-0.0783;-0.1521;-0.0369;
5088010743060335;-0.0868;-0.0461;-0.0630;
5088010763268565;-0.0767;-0.0652;-0.0502;
5088010783485960;-0.0527;0.0338;-0.0390;
5088010803695127;-0.0591;-0.0727;-0.0459;
5088010823903408;-0.0794;0.0024;-0.0774;
5088010844097263;-0.0687;-0.0312;-0.0816;
5088010864317523;-0.0559;-0.1270;-0.0843;
5088010884525804;-0.0421;-0.0743;-0.0630;
5088010904725492;-0.0522;-0.1233;-0.0854;
5088010924939398;-0.0815;-0.0375;-0.1056;
5088010945147679;-0.0799;-0.0626;-0.1253;
5088010965346533;-0.0469;0.1242;-0.1391;
5088010985565700;-0.0091;0.2696;-0.1370;
5088011005773981;0.0831;0.3660;-0.1626;
5088011025993617;0.1044;0.2403;-0.1541;
5088011046195544;0.0234;0.0944;-0.1546;
5088011066403825;0.0069;-0.0418;-0.1583;
5088011086603408;-0.0160;-0.2570;-0.1626;
5088011106820544;-0.0234;-0.2628;-0.1923;
5088011127028825;0.0101;-0.0583;-0.2226;
5088011147224554;0.2470;-0.0226;-0.2067;
5088011167448148;0.5277;0.0828;-0.1162;
5088011187656429;0.6182;0.1839;-0.0374;
5088011207850804;0.5335;0.1615;0.0792;
5088011228077367;0.2358;-0.0509;0.1575;
5088011248285648;0.0288;0.0759;0.1426;
5088011268481950;0.0751;-0.0365;0.1463;
5088011288711065;0.0043;-0.1515;0.1346;
5088011308919346;-0.0975;-0.0599;0.1250;
5088011329110804;-0.0751;-0.0344;0.1208;
5088011349322367;-0.0123;-0.0897;0.1208;
5088011369530648;-0.0218;-0.0407;0.1213;
5088011389739554;0.0053;0.0493;0.1181;
5088011409945544;0.0170;0.0349;0.1309;
5088011430153825;-0.0368;-0.0285;0.1298;
5088011450352575;-0.0943;-0.0099;0.1138;
5088011470571065;-0.1672;0.0232;0.0547;
5088011490779346;-0.2056;0.1557;0.0084;
5088011510989763;-0.0708;0.1045;-0.0289;
5088011531206898;-0.0437;0.0280;-0.0422;
5088011551415179;-0.0346;0.0509;-0.0475;
5088011571608096;-0.0213;-0.0381;-0.0715;
5088011591817835;-0.0543;-0.1073;-0.0838;
5088011612026117;-0.0245;-0.1041;-0.1104;
5088011632232888;0.0160;-0.0567;-0.1141;
5088011652445960;0.0570;-0.0802;-0.1184;
5088011672654242;0.0517;0.1013;-0.1301;
5088011692847054;0.1197;0.0557;-0.1248;
5088011713084294;0.0698;0.0013;-0.1125;
5088011733292575;0.0399;0.0573;-0.1125;
5088011753487263;0.0463;0.0599;-0.1205;
5088011773687627;0.0069;-0.0184;-0.1216;
5088011793895908;0.0117;-0.0674;-0.1365;
5088011814102158;0.0437;-0.0008;-0.1375;
5088011834308565;0.0639;0.0141;-0.1205;
5088011854516846;0.0602;-0.0072;-0.1210;
5088011874725127;0.0543;0.0344;-0.1205;
5088011894942106;0.0602;-0.0620;-0.1152;
5088011915150335;0.0788;0.0280;-0.1024;
5088011935372783;0.1060;0.0013;-0.0885;
5088011955560544;0.0762;-0.0498;-0.0811;
5088011975768773;0.0671;-0.0194;-0.0885;
5088011995984450;0.1245;-0.0003;-0.0875;
5088012016198981;0.1320;-0.0812;-0.0438;
5088012036407210;0.1213;-0.0322;-0.0438;
5088012056604346;0.1378;0.0253;-0.0294;
5088012076804190;0.1186;-0.0418;-0.0246;
5088012097012471;0.0927;-0.0178;-0.0150;
5088012117222575;0.1277;0.0695;0.0084;
5088012137438981;0.1101;-0.0056;-0.0097;
5088012157647263;0.0607;-0.0562;-0.0103;
5088012177853408;0.0788;-0.0429;-0.0268;
5088012198055127;0.1101;0.0487;-0.0364;
5088012218263408;0.1208;0.0280;-0.0667;
5088012238494867;0.1581;0.0802;-0.0806;
5088012258698200;0.1581;0.0471;-0.0965;
5088012278906429;0.1868;0.0754;-0.0859;
5088012299108929;0.2134;-0.0706;-0.0523;
5088012319306273;0.1751;-0.0407;-0.0662;
5088012339514502;0.2300;-0.0280;-0.0523;
5088012359733513;0.2438;-0.0210;-0.0406;
5088012379936273;0.2960;-0.0818;0.0116;
5088012400144554;0.2481;-0.0663;0.0787;
5088012420360700;0.2672;-0.0237;0.1053;
5088012440566690;0.3061;0.0194;0.1426;
5088012460774971;0.2486;0.0152;0.2023;
5088012480998304;0.1969;0.0035;0.2667;
5088012501199710;0.2156;0.1056;0.3583;
5088012521407992;0.1639;0.1189;0.3647;
5088012541622263;0.1044;0.0706;0.4073;
5088012561807731;-0.0389;0.0530;0.4158;
5088012582016013;-0.0618;0.0541;0.4280;
5088012602226481;-0.1342;-0.1222;0.4397;
5088012622430544;-0.3052;-0.1505;0.4020;
5088012642638825;-0.3728;-0.0210;0.3125;
5088012662849867;-0.3537;0.0509;0.2390;
5088012683046481;-0.2344;0.0594;0.1975;
5088012703254763;-0.2029;0.0312;0.1304;
5088012723493408;-0.1854;0.0152;0.0968;
5088012743698929;-0.1720;-0.0503;0.0174;
5088012763907158;-0.1326;-0.0748;0.0015;
5088012784098981;-0.0772;-0.0072;-0.0337;
5088012804306846;0.0075;0.1738;-0.0630;
5088012824515075;-0.0016;0.1146;-0.0497;
5088012844727263;-0.0591;-0.0146;-0.0593;
5088012864956794;-0.0597;-0.0977;-0.0332;
5088012885165023;-0.0549;-0.0732;-0.0332;
5088012905356117;-0.0666;-0.0993;-0.0683;
5088012925576690;-0.0644;0.0370;-0.0534;
5088012945784919;0.0144;0.1557;-0.0433;
5088012965972263;-0.0027;-0.0636;0.0079;
5088012986193617;0.0053;0.0397;0.0451;
5088013006401846;-0.0181;-0.0652;0.0403;
5088013026617054;-0.0538;-0.0605;0.0222;
5088013046818981;-0.0591;-0.1286;0.0105;
5088013067027210;-0.0016;0.0908;0.0217;
5088013087226221;0.0208;0.0083;0.0201;
5088013107439294;0.0250;0.0939;0.0387;
5088013127647523;-0.0107;0.0636;0.0105;
5088013147853252;-0.0362;-0.0035;0.0052;
5088013168069450;-0.0458;-0.0493;0.0031;
5088013188277679;-0.0261;-0.0770;-0.0017;
5088013208475075;-0.0011;-0.0136;-0.0257;
5088013228702315;-0.0107;-0.0828;-0.0529;
5088013248910544;0.0181;-0.0008;-0.0609;
5088013269105283;0.0405;0.0083;-0.0294;
5088013289319190;0.0607;0.0381;-0.0204;
5088013309527419;0.0724;0.0115;-0.0129;
5088013329733565;0.0479;-0.0493;0.0047;
5088013349941273;0.0426;-0.0557;0.0015;
5088013370149502;0.0698;-0.0285;0.0531;
5088013390362158;0.0863;-0.0487;0.0877;
5088013410565960;0.0746;-0.0908;0.0904;
5088013430774190;0.0644;-0.0221;0.1394;
5088013450989554;0.0256;-0.0072;0.1565;
5088013471208252;-0.0170;0.0013;0.1943;
5088013491416481;-0.0762;-0.0216;0.2108;
5088013511618148;-0.1092;0.0269;0.2097;
5088013531824085;-0.1475;0.0620;0.2140;
5088013552032315;-0.2407;-0.0024;0.2060;
5088013572235908;-0.2839;0.0944;0.1916;
5088013592442523;-0.3947;-0.1696;0.1831;
5088013612650752;-0.3558;-0.0157;0.1165;
5088013632858304;-0.3435;0.0168;0.0995;
5088013653067315;-0.3292;0.1146;0.0366;
5088013673275544;-0.3888;0.0088;0.0185;
5088013693499450;-0.3798;-0.0594;-0.0087;
5088013713713460;-0.2562;0.1477;-0.0246;
5088013733921690;-0.2551;0.0264;-0.0529;
5088013754158617;-0.2370;0.0939;-0.0603;
5088013774304606;-0.2642;-0.0626;-0.0907;
5088013794512888;-0.2210;0.0152;-0.0955;
5088013814730700;-0.2056;0.0056;-0.0864;
5088013834924502;-0.1715;0.0402;-0.1099;
5088013855132731;-0.1651;0.0429;-0.1099;
5088013875361533;-0.1417;0.0567;-0.1216;
5088013895558044;-0.1385;-0.0024;-0.1072;
5088013915766273;-0.1273;-0.0051;-0.1072;
5088013935966638;-0.1225;0.0194;-0.0923;
5088013956180960;-0.1332;0.0823;-0.1349;
5088013976389242;-0.1433;0.1146;-0.1375;
5088013996611742;-0.1401;0.1493;-0.1487;
5088014016824294;-0.2136;-0.3598;-0.1610;
5088014037032523;-0.0980;-0.0636;-0.1722;
5088014057236742;-0.0948;-0.0445;-0.1658;
5088014077437210;-0.0469;0.1365;-0.2253;
5088014097645440;-0.0692;0.0450;-0.2216;
5088014117867315;-0.0847;-0.0706;-0.2530;
5088014138055335;-0.0639;-0.2043;-0.2381;
5088014158263565;0.1495;0.2340;-0.2503;
5088014178486065;0.1250;0.0360;-0.1875;
5088014198684190;0.2113;0.1514;-0.1907;
5088014218892419;0.1900;-0.0652;-0.1981;
5088014239114242;0.2113;-0.0333;-0.1743;
5088014259319190;0.2949;0.0620;-0.1620;
5088014279527471;0.3631;0.1844;-0.1141;
5088014299732731;0.3056;-0.1068;-0.0550;
5088014319932002;0.3210;-0.0216;-0.0294;
5088014340140231;0.2731;-0.0940;0.0015;
5088014360359971;0.2790;0.0402;0.0153;
5088014380568148;0.2433;0.0557;0.0441;
5088014400776429;0.1623;-0.0093;0.1224;
5088014420988148;0.0687;-0.0839;0.1293;
5088014441178981;0.0149;-0.0764;0.1724;
5088014461387210;-0.0123;0.0328;0.1746;
5088014481617315;-0.0703;0.0711;0.1559;
5088014501826533;-0.1944;0.0423;0.1463;
5088014522034763;-0.2961;-0.0035;0.1053;
5088014542240596;-0.3702;-0.0658;0.0925;
5088014562430960;-0.4154;-0.0557;0.0430;
5088014582639242;-0.3073;0.0498;0.0201;
5088014602851429;-0.2317;0.0786;-0.0119;
5088014623053356;-0.1465;0.0647;-0.0358;
5088014643261638;-0.1310;-0.0301;-0.0417;
5088014663475231;-0.0714;-0.0237;-0.0779;
5088014683690127;-0.0154;0.1099;-0.0838;
5088014703898356;-0.0059;-0.0716;-0.0619;
5088014724106742;-0.0426;-0.1941;-0.0662;
5088014744297263;0.0282;0.0285;-0.0646;
5088014764505492;0.0410;0.0386;-0.0976;
5088014784721533;0.1160;0.1551;-0.0731;
5088014804929763;0.1288;0.0743;-0.0758;
5088014825127731;0.1639;0.0083;-0.0593;
5088014845324971;0.1447;-0.0626;-0.0198;
5088014865533252;0.1160;-0.1750;-0.0001;
5088014885763044;0.1884;0.1881;0.0174;
5088014905964763;0.1820;0.1008;0.0611;
5088014926172992;0.1575;0.1487;0.0755;
5088014946395283;0.0591;-0.0780;0.0814;
5088014966602210;-0.0186;-0.2256;0.0936;
5088014986810440;-0.0447;-0.2021;0.1080;
5088015007014658;-0.0069;-0.0045;0.0936;
5088015027223877;-0.0368;0.0434;0.1186;
5088015047432158;-0.0916;0.1828;0.1133;
5088015067650075;-0.2035;0.0594;0.1208;
5088015087857835;-0.3585;-0.1409;0.1229;
5088015108066065;-0.3814;-0.1750;0.1053;
5088015128267054;-0.3249;-0.0360;0.0435;
5088015148489346;-0.2418;0.1818;0.0489;
5088015168697575;-0.1609;0.2782;0.0158;
5088015188891846;-0.1481;0.2180;0.0254;
5088015209102210;-0.1736;0.0019;0.0222;
5088015229310440;-0.1401;-0.0391;0.0084;
5088015249524294;-0.1092;-0.0051;-0.0049;
5088015269730960;-0.0474;-0.0296;-0.0044;
5088015289939190;-0.0842;-0.0402;0.0073;
5088015310149815;0.0048;0.3288;0.0270;
5088015330357731;-0.0783;0.1391;0.0137;
5088015350566013;-0.1342;-0.0216;0.0233;
5088015370768565;-0.2210;-0.2106;-0.0092;
5088015390979710;-0.2008;-0.1025;-0.0198;
5088015411187992;-0.1667;-0.0141;-0.0188;
5088015431394971;-0.1161;0.0706;-0.0316;
5088015451601533;-0.1300;0.0365;0.0105;
5088015471809763;-0.2114;-0.0855;0.0073;
5088015492017263;-0.2647;-0.1126;-0.0326;
5088015512214502;-0.1710;0.1791;-0.0065;
5088015532422783;-0.2397;-0.1190;-0.0198;
5088015552642575;-0.2413;-0.0264;-0.0374;
5088015572843356;-0.2706;-0.0514;-0.0768;
5088015593051585;-0.2786;0.0535;-0.0790;
5088015613257315;-0.2631;0.1162;-0.0880;
5088015633470960;-0.2935;0.0450;-0.0715;
5088015653679242;-0.2993;-0.0125;-0.0987;
5088015673894346;-0.3451;0.0029;-0.1072;
5088015694091898;-0.3899;-0.0455;-0.1226;
5088015714300127;-0.3947;0.0088;-0.1546;
5088015734532210;-0.4011;0.0375;-0.1493;
5088015754714815;-0.3899;0.0807;-0.1620;
5088015774923148;-0.3744;0.0258;-0.1786;
5088015795154658;-0.3201;0.0200;-0.1981;
5088015815358252;-0.2610;-0.0162;-0.1786;
5088015835566533;-0.2067;-0.0146;-0.2019;
5088015855767054;-0.1742;0.0104;-0.2067;
5088015875967731;-0.1150;0.0652;-0.2114;
5088015896176013;-0.0399;0.0498;-0.2093;
5088015916390492;0.0426;-0.0237;-0.2013;
5088015936613669;0.1671;-0.0338;-0.2003;
5088015956821950;0.2715;-0.0471;-0.1802;
5088015977024450;0.4047;0.0194;-0.1743;
5088015997217106;0.5085;-0.0093;-0.1418;
5088016017425388;0.6257;-0.0541;-0.1429;
5088016037639658;0.7252;-0.0647;-0.1067;
5088016057849190;0.8120;-0.0402;-0.0944;
5088016078057419;0.8892;-0.0205;-0.0822;
5088016098272575;0.9057;-0.0264;-0.0454;
5088016118470752;0.8615;-0.0471;-0.0017;
5088016138679033;0.7960;-0.0471;0.0148;
5088016158891481;0.7066;-0.0429;0.0403;
5088016179106794;0.6278;-0.0067;0.0292;
5088016199315075;0.5266;0.0567;0.0622;
5088016219514763;0.3876;0.0093;0.0563;
5088016239728565;0.2081;-0.0466;0.0968;
5088016259936898;0.1911;-0.0274;0.0888;
5088016280148721;0.1692;0.0205;0.1202;
5088016300357731;0.1676;0.0695;0.1282;
5088016320566013;0.1490;0.0168;0.1533;
5088016340776742;0.0858;0.0029;0.1671;
5088016360973356;0.0698;-0.0221;0.1959;
5088016381181585;0.0634;0.0296;0.1868;
5088016401393513;0.0394;0.0487;0.1969;
5088016421604815;0.0101;0.0546;0.2124;
5088016441813096;-0.0948;0.0487;0.2188;
5088016462029033;-0.1752;-0.0093;0.1959;
5088016482210648;-0.2887;0.0013;0.2049;
5088016502418929;-0.3782;0.0253;0.1858;
5088016522643408;-0.4037;0.0301;0.1676;
5088016542852731;-0.4767;0.0679;0.1687;
5088016563061013;-0.5559;0.0610;0.1341;
5088016583266065;-0.6225;0.0455;0.1399;
5088016603474033;-0.7077;0.0226;0.0984;
5088016623682263;-0.8249;-0.0599;0.1048;
5088016643882783;-0.8574;0.0168;0.0664;
5088016664087002;-0.8600;0.0567;0.0707;
5088016684295283;-0.9485;0.0626;0.0574;
5088016704503721;-0.9825;0.0812;0.0158;
5088016724741429;-1.0789;0.0519;0.0356;
5088016744949710;-1.0417;-0.0274;-0.0172;
5088016765141794;-1.0278;0.0093;0.0036;
5088016785361377;-0.9277;0.0280;-0.0337;
5088016805569710;-0.8505;0.0610;-0.0039;
5088016825755752;-0.7301;0.0317;-0.0385;
5088016845966898;-0.6885;0.0146;-0.0417;
5088016866175231;-0.6039;0.0301;-0.0491;
5088016886377106;-0.4335;-0.0019;-0.0603;
5088016906604606;-0.3153;0.0557;-0.0108;
5088016926812940;-0.2008;0.0274;-0.0502;
5088016947035856;-0.1854;0.0072;-0.0071;
5088016967233773;-0.1369;0.0056;0.0073;
5088016987442106;0.0011;-0.0141;0.0201;
5088017007638044;0.1772;-0.0226;0.0728;
5088017027842835;0.3077;0.0141;0.1160;
5088017048051169;0.4542;0.0312;0.1234;
5088017068260023;0.5969;-0.0109;0.1160;
5088017088474190;0.6198;-0.0610;0.1309;
5088017108682523;0.6715;-0.0136;0.1266;
5088017128885648;0.7465;-0.0386;0.1138;
5088017149096065;0.8162;-0.0125;0.1410;
5088017169304398;0.8066;-0.0301;0.1586;
5088017189517627;0.8173;-0.0455;0.1389;
5088017209713356;0.8940;-0.1031;0.1410;
5088017229921690;0.9739;-0.0274;0.1911;
5088017250133460;1.0133;-0.0636;0.1730;
5088017270362419;1.0447;0.0700;0.1618;
5088017290570752;1.0000;-0.0024;0.1996;
5088017310767731;0.8498;-0.0061;0.1144;
5088017330976377;0.6608;-0.1723;0.0771;
5088017351184710;0.5783;-0.0722;0.0004;
5088017371386950;0.6214;-0.1132;-0.0230;
5088017391594450;0.6608;0.0200;-0.0204;
5088017411802783;0.6433;-0.0130;-0.0571;
5088017432014502;0.6827;0.0285;-0.0417;
5088017452223252;0.6699;0.0514;0.0217;
5088017472431585;0.6134;0.0743;0.0105;
5088017492628617;0.5639;0.0045;0.0387;
5088017512854606;0.5165;0.0360;0.0728;
5088017533062940;0.5612;-0.0647;0.0947;
5088017553258356;0.5788;-0.0706;0.1330;
5088017573466690;0.5991;-0.0988;0.1628;
5088017593675023;0.6017;0.0136;0.1916;
5088017613900440;0.6507;0.0418;0.2353;
5088017634092315;0.6086;0.0487;0.2518;
5088017654300648;0.5090;0.0269;0.3093;
5088017674522627;0.3834;0.0258;0.3152;
5088017694723773;0.2518;-0.0146;0.2907;
5088017714932106;0.1820;-0.0407;0.3264;
5088017735154919;0.1799;0.0045;0.2747;
5088017755350856;0.1911;0.0344;0.2348;
5088017775559190;0.2236;0.0573;0.1943;
5088017795757627;0.2204;0.0045;0.1240;
5088017815999085;0.2204;-0.0168;0.1096;
5088017836207419;0.2465;-0.0519;0.0574;
5088017856385960;0.2534;-0.0391;0.0009;
5088017876591377;0.2965;-0.0381;-0.0044;
5088017896799710;0.3045;-0.0216;-0.0726;
5088017917010127;0.3413;-0.0365;-0.0635;
5088017937212523;0.3541;-0.0450;-0.0933;
5088017957420856;0.3807;-0.0647;-0.1285;
5088017977643877;0.4425;-0.0445;-0.1093;
5088017997842315;0.4654;-0.0008;-0.1562;
5088018018050648;0.4467;0.0210;-0.1216;
5088018038263460;0.3567;0.0493;-0.1381;
5088018058466273;0.3418;0.0210;-0.0944;
5088018078674606;0.2619;-0.0423;-0.0566;
5088018098890648;0.1039;-0.0194;-0.0598;
5088018119092210;-0.0218;0.0040;-0.0704;
5088018139300544;-0.2120;0.0264;-0.1003;
5088018159516065;-0.4383;0.0146;-0.1146;
5088018179725231;-0.7375;-0.0088;-0.1864;
5088018199933565;-1.0188;0.0333;-0.2344;
5088018220122835;-1.2274;-0.0077;-0.2999;
5088018240331169;-1.3291;-0.0040;-0.3638;
5088018260566169;-1.3760;-0.0173;-0.3574;
5088018280755960;-1.3345;0.0253;-0.4282;
5088018300964294;-1.2018;0.0391;-0.4261;
5088018321188773;-1.0449;0.0663;-0.4096;
5088018341391481;-0.8137;0.0130;-0.4133;
5088018361599815;-0.5895;0.0221;-0.3462;
5088018381813356;-0.2924;-0.0035;-0.3329;
5088018402003356;-0.0261;0.0178;-0.2386;
5088018422211690;0.1117;-0.0248;-0.1923;
5088018442436898;0.2529;-0.0024;-0.1285;
5088018462639710;0.3418;-0.0109;-0.0358;
5088018482848044;0.3562;-0.0194;-0.0150;
5088018503053356;0.4121;-0.0162;0.0744;
5088018523265856;0.4180;-0.0008;0.1043;
5088018543474190;0.4441;-0.0083;0.1245;
5088018563675440;0.3945;-0.0189;0.1708;
5088018583896013;0.4068;-0.0274;0.1650;
5088018604104398;0.3908;-0.0083;0.1820;
5088018624294502;0.3285;-0.0317;0.1634;
5088018644500231;0.3258;-0.0221;0.1357;
5088018664708565;0.2720;-0.0205;0.1288;
5088018684924398;0.2081;0.0035;0.0643;
5088018705153356;0.1501;-0.0035;0.0494;
5088018725361690;0.1485;0.0120;0.0063;
5088018745575335;0.1932;-0.0328;-0.0188;
5088018765762315;0.2987;-0.0605;-0.0060;
5088018785970648;0.4824;-0.0072;-0.0150;
5088018806180231;0.6513;-0.0162;0.0356;
5088018826384606;0.8530;0.0178;0.0718;
5088018846592940;0.9670;-0.0402;0.1554;
5088018866815023;0.9819;-0.0152;0.2028;
5088018887005648;0.9824;-0.0205;0.2577;
5088018907213929;0.8828;0.0093;0.2843;
5088018927422106;0.7459;0.0306;0.2518;
5088018947633356;0.5943;0.0221;0.2763;
5088018967841638;0.4142;0.0306;0.2225;
5088018988060544;0.2518;0.0157;0.2566;
5088019008262731;0.1415;0.0317;0.2156;
5088019028471065;0.0788;-0.0168;0.2427;
5088019048673981;0.0005;-0.0072;0.2007;
5088019068890856;-0.1230;0.0322;0.2087;
5088019089099138;-0.2354;0.0423;0.1597;
5088019109302731;-0.3968;0.0589;0.1101;
5088019129510023;-0.4788;-0.0136;0.1117;
5088019149718304;-0.5799;-0.0605;0.0632;
5088019169923773;-0.6656;-0.0168;0.0510;
5088019190145127;-0.6800;0.0178;0.0201;
5088019210353408;-0.6880;0.0226;0.0238;
5088019230564710;-0.6656;0.0370;0.0169;
5088019250769450;-0.6188;0.0168;0.0281;
5088019270977731;-0.5628;-0.0162;0.0462;
5088019291182835;-0.5272;0.0168;0.0414;
5088019311384919;-0.4719;-0.0029;0.0654;
5088019331593200;-0.4288;-0.0099;0.0622;
5088019351814190;-0.3798;0.0072;0.0739;
5088019372021117;-0.3292;0.0375;0.0712;
5088019392229398;-0.2818;0.0093;0.0776;
5088019412424398;-0.2375;-0.0178;0.0750;
5088019432638877;-0.1854;-0.0173;0.0696;
5088019452847158;-0.1118;0.0072;0.0702;
5088019473054502;-0.0533;0.0168;0.0835;
5088019493259919;-0.0357;0.0285;0.0521;
5088019513468252;-0.0149;0.0205;0.0467;
5088019533668981;-0.0495;0.0232;0.0414;
5088019553882002;-0.0458;0.0173;0.0121;
5088019574090335;-0.0138;0.0466;0.0031;
5088019594291690;-0.0218;0.0269;0.0025;
5088019614502210;-0.0293;0.0019;-0.0076;
5088019634710544;0.0032;0.0620;-0.0087;
5088019654920127;0.0240;0.0285;-0.0156;
5088019675129190;0.0149;0.0407;-0.0060;
5088019695337523;-0.0027;0.0146;-0.0076;
5088019715564346;-0.0234;-0.0301;-0.0262;
5088019735751169;-0.0437;-0.0663;-0.0268;
5088019755959450;0.0032;-0.0099;-0.0438;
5088019776178981;0.0442;0.0013;-0.0545;
5088019796375023;0.0884;0.0663;-0.0348;
5088019816583356;0.0581;0.0727;-0.0364;
5088019836803044;0.0181;0.0423;-0.0582;
5088019857031013;-0.0229;-0.0051;-0.0071;
5088019877239346;-0.0453;-0.0210;0.0009;
5088019897428148;-0.0842;-0.0184;-0.0284;
5088019917629815;-0.1417;0.0322;-0.0129;
5088019937838148;-0.1587;0.0274;-0.0161;
5088019958048773;-0.1683;0.0099;-0.0513;
5088019978257002;-0.1891;0.0099;-0.0507;
5088019998465335;-0.2008;0.0391;-0.0443;
5088020018684867;-0.1550;0.0589;-0.0401;
5088020038875648;-0.0868;0.0796;-0.0108;
5088020059083981;-0.0378;0.0562;0.0142;
5088020079305440;-0.0213;-0.0093;0.0265;
5088020099520023;-0.0336;-0.0067;0.0409;
5088020119728356;-0.0314;0.0088;0.0537;
5088020139932106;-0.0368;0.0344;0.0569;
5088020160128617;-0.0469;0.0439;0.0643;
5088020180336950;-0.0826;0.0280;0.0526;
5088020200566794;-0.1241;0.0146;0.0505;
5088020220771690;-0.1678;-0.0125;0.0430;
5088020240980023;-0.1747;-0.0072;0.0350;
5088020261188356;-0.1561;0.0077;0.0366;
5088020281378200;-0.1193;0.0221;0.0425;
5088020301586533;-0.0868;0.0178;0.0435;
5088020321815231;-0.0570;0.0024;0.0489;
5088020342023617;-0.0378;-0.0130;0.0515;
5088020362231950;-0.0144;-0.0120;0.0521;
5088020382431273;-0.0133;-0.0024;0.0558;
5088020402631794;-0.0154;0.0035;0.0521;
5088020422840127;-0.0165;0.0051;0.0537;
5088020443054815;-0.0117;0.0008;0.0526;
5088020463290127;-0.0080;-0.0067;0.0521;
5088020483498408;-0.0101;-0.0083;0.0542;
5088020503672315;-0.0096;-0.0045;0.0553;
5088020523902158;-0.0117;-0.0019;0.0569;
5088020544110440;-0.0133;-0.0019;0.0595;
5088020564278981;-0.0123;-0.0040;0.0595;
5088020584517523;-0.0128;-0.0067;0.0611;
5088020604725804;-0.0154;-0.0072;0.0627;
5088020624941950;-0.0154;-0.0024;0.0585;
5088020645148096;-0.0144;-0.0003;0.0531;
5088020665356429;-0.0138;0.0003;0.0483;
5088020685547367;-0.0144;0.0024;0.0393;
5088020705780596;-0.0229;0.0013;0.0318;
5088020725988929;-0.0341;0.0008;0.0238;
5088020746174658;-0.0442;0.0029;0.0148;
5088020766389190;-0.0527;0.0045;0.0052;
5088020786597575;-0.0687;0.0056;-0.0023;
5088020806802367;-0.0852;0.0056;-0.0119;
5088020827009190;-0.0991;0.0051;-0.0188;
5088020847217523;-0.0985;0.0072;-0.0252;
5088020867414294;-0.0943;0.0088;-0.0332;
5088020887644867;-0.0847;0.0083;-0.0395;
5088020907853148;-0.0719;0.0083;-0.0433;
5088020928050648;-0.0511;0.0083;-0.0497;
5088020948266481;-0.0213;0.0083;-0.0497;
5088020968474815;0.0043;0.0072;-0.0507;
5088020988683408;0.0165;0.0045;-0.0555;
5088021008893565;0.0197;0.0040;-0.0614;
5088021029101898;0.0229;0.0056;-0.0672;
5088021049300231;0.0250;0.0077;-0.0726;
5088021069519398;0.0272;0.0072;-0.0784;
5088021089727783;0.0341;0.0072;-0.0816;
5088021109955023;0.0485;0.0077;-0.0827;
5088021130139815;0.0660;0.0072;-0.0869;
5088021150348148;0.0820;0.0088;-0.0864;
5088021170548773;0.0863;0.0077;-0.0869;
5088021190766950;0.0810;0.0061;-0.0907;
5088021210975283;0.0660;0.0035;-0.0907;
5088021231174710;0.0533;0.0013;-0.0928;
5088021251385023;0.0431;0.0013;-0.0944;
5088021271593356;0.0336;0.0024;-0.0901;
5088021291796846;0.0282;0.0024;-0.0869;
5088021312019710;0.0266;0.0008;-0.0848;
5088021332228044;0.0320;-0.0003;-0.0795;
5088021352427731;0.0415;-0.0003;-0.0747;
5088021372641690;0.0474;0.0013;-0.0710;
5088021392850023;0.0394;0.0045;-0.0688;
5088021413055648;0.0202;0.0035;-0.0694;
5088021433265127;0.0138;0.0035;-0.0688;
5088021453473460;0.0154;0.0029;-0.0672;
5088021473692627;0.0181;0.0045;-0.0667;
5088021493888929;0.0170;0.0045;-0.0672;
5088021514097210;0.0149;0.0061;-0.0678;
5088021534289294;0.0170;0.0051;-0.0694;
5088021554527940;0.0186;0.0077;-0.0720;
5088021574736273;0.0176;0.0061;-0.0736;
5088021594942315;0.0170;0.0056;-0.0790;
5088021615137992;0.0186;0.0067;-0.0822;
5088021635346273;0.0218;0.0072;-0.0864;
5088021655547315;0.0224;0.0067;-0.0923;
5088021675747731;0.0245;0.0056;-0.0981;
5088021695956065;0.0282;0.0045;-0.1035;
5088021716167106;0.0298;0.0024;-0.1061;
5088021736404398;0.0298;0.0013;-0.1067;
5088021756568929;0.0320;0.0019;-0.1040;
5088021776814710;0.0442;0.0008;-0.0976;
5088021797023044;0.0687;-0.0013;-0.0848;
5088021817222731;0.0948;-0.0040;-0.0710;
5088021837419190;0.1261;-0.0056;-0.0550;
5088021857627523;0.1639;-0.0061;-0.0401;
5088021877846898;0.2065;-0.0072;-0.0236;
5088021898056950;0.2385;-0.0067;-0.0044;
5088021918265231;0.2561;-0.0072;0.0089;
5088021938466950;0.2672;-0.0083;0.0238;
5088021958672367;0.2736;-0.0104;0.0324;
5088021978880700;0.2678;-0.0088;0.0398;
5088021999100752;0.2497;-0.0093;0.0451;
5088022019298460;0.2177;-0.0077;0.0430;
5088022039506794;0.1762;-0.0067;0.0441;
5088022059732731;0.1320;-0.0072;0.0419;
5088022079922210;0.0943;-0.0035;0.0387;
5088022100130596;0.0623;-0.0019;0.0372;
5088022120350960;0.0336;-0.0013;0.0372;
5088022140551273;0.0107;-0.0013;0.0372;
5088022160759606;-0.0080;0.0008;0.0377;
5088022180968356;-0.0133;0.0024;0.0387;
5088022201185596;-0.0133;0.0019;0.0409;
5088022221393877;-0.0101;0.0029;0.0430;
5088022241602002;-0.0112;0.0040;0.0403;
5088022261809606;-0.0133;0.0040;0.0403;
5088022282017940;-0.0117;0.0035;0.0382;
5088022302222158;-0.0101;0.0056;0.0372;
5088022322421273;-0.0107;0.0067;0.0329;
5088022342629606;-0.0101;0.0067;0.0324;
5088022362856585;-0.0085;0.0061;0.0324;
5088022383047783;-0.0080;0.0035;0.0324;
5088022403256169;-0.0080;0.0013;0.0334;
5088022423460700;-0.0080;0.0008;0.0350;
5088022443655856;-0.0075;-0.0008;0.0393;
5088022463864190;-0.0085;-0.0008;0.0414;
5088022484088773;-0.0112;-0.0008;0.0473;
5088022504316273;-0.0123;0.0003;0.0531;
5088022524524606;-0.0123;0.0013;0.0590;
5088022544722210;-0.0160;0.0056;0.0670;
5088022564949398;-0.0186;0.0072;0.0771;
5088022585157731;-0.0240;0.0061;0.0872;
5088022605337627;-0.0256;0.0051;0.0947;
5088022625571585;-0.0314;0.0035;0.1053;
5088022645779919;-0.0469;0.0051;0.1144;
5088022665979502;-0.0719;0.0056;0.1202;
5088022686188669;-0.1065;0.0067;0.1224;
5088022706397002;-0.1353;0.0077;0.1272;
5088022726613200;-0.1598;0.0077;0.1266;
5088022746815023;-0.1790;0.0072;0.1256;
5088022767023513;-0.1928;0.0045;0.1245;
5088022787237679;-0.2051;0.0035;0.1218;
5088022807420960;-0.2109;0.0019;0.1181;
5088022827629450;-0.2120;0.0013;0.1117;
5088022847835596;-0.2109;0.0003;0.1064;
5088022868054815;-0.2141;-0.0013;0.0947;
5088022888263304;-0.2280;-0.0040;0.0819;
5088022908490231;-0.2407;-0.0024;0.0654;
5088022928683148;-0.2503;-0.0003;0.0489;
5088022948891638;-0.2493;0.0019;0.0345;
5088022969090596;-0.2354;0.0045;0.0212;
5088022989297367;-0.2120;0.0040;0.0132;
5088023009505856;-0.1816;0.0019;0.0052;
5088023029726481;-0.1486;-0.0003;0.0015;
5088023049925960;-0.1108;-0.0019;-0.0007;
5088023070134450;-0.0698;-0.0035;-0.0007;
5088023090341117;-0.0325;-0.0035;-0.0028;
5088023110550856;-0.0107;-0.0051;-0.0033;
5088023130759346;-0.0005;-0.0045;-0.0060;
5088023150971117;-0.0043;-0.0045;-0.0108;
5088023171178981;-0.0091;-0.0024;-0.0150;
5088023191387471;-0.0117;-0.0008;-0.0204;
5088023211593981;-0.0192;-0.0024;-0.0220;
5088023231803877;-0.0181;-0.0051;-0.0230;
5088023252012367;-0.0128;-0.0056;-0.0230;
5088023272239346;-0.0016;-0.0061;-0.0257;
5088023292429190;0.0043;-0.0077;-0.0289;
5088023312637679;0.0096;-0.0093;-0.0289;
5088023332831846;0.0107;-0.0061;-0.0337;
5088023353044502;0.0128;-0.0035;-0.0390;
5088023373252992;0.0080;-0.0013;-0.0486;
5088023393514346;-0.0027;-0.0013;-0.0561;
5088023413675023;-0.0160;-0.0003;-0.0646;
5088023433883513;-0.0309;0.0008;-0.0731;
5088023454129554;-0.0474;0.0019;-0.0811;
5088023474291169;-0.0948;-0.0008;-0.0891;
5088023494499658;-0.1348;-0.0008;-0.0923;
5088023514729033;-0.1081;0.0077;-0.0917;
5088023534908044;-0.0458;0.0146;-0.0885;
5088023555116533;0.0085;0.0125;-0.0816;
5088023575342627;0.0330;0.0051;-0.0806;
5088023595541377;0.0304;-0.0013;-0.0811;
5088023615749867;0.0282;-0.0051;-0.0790;
5088023635957992;0.0250;-0.0088;-0.0774;
5088023656192210;0.0261;-0.0109;-0.0736;
5088023676400700;0.0293;-0.0056;-0.0699;
5088023696612158;0.0288;-0.0024;-0.0672;
5088023716819919;0.0288;-0.0013;-0.0667;
5088023737028408;0.0581;-0.0008;-0.0694;
5088023757208044;0.0570;-0.0024;-0.0726;
5088023777420752;0.0282;-0.0019;-0.0800;
5088023797629085;0.0277;0.0056;-0.0864;
5088023817844398;0.0309;0.0040;-0.0912;
5088023838040440;0.0346;-0.0040;-0.0955;
5088023858248773;0.0357;-0.0051;-0.1056;
5088023878466273;0.0421;-0.0003;-0.1152;
5088023898672367;0.0485;0.0067;-0.1264;
5088023918880700;0.0517;0.0104;-0.1429;
5088023939090440;0.0597;0.0040;-0.1519;
5088023959290648;0.0692;0.0051;-0.1599;
5088023979498981;0.0858;0.0083;-0.1620;
5088023999722315;0.1117;0.0061;-0.1647;
5088024019914190;0.1383;0.0029;-0.1674;
5088024040122523;0.1719;0.0040;-0.1658;
5088024060337940;0.2055;0.0056;-0.1610;
5088024080540648;0.2252;0.0056;-0.1594;
5088024100748981;0.2417;0.0061;-0.1551;
5088024120964971;0.2736;0.0024;-0.1493;
5088024141170283;0.2880;0.0040;-0.1461;
5088024161378617;0.2763;0.0067;-0.1397;
5088024181595440;0.2438;0.0024;-0.1301;
5088024201790335;0.2134;-0.0029;-0.1221;
5088024221998669;0.1932;0.0024;-0.1141;
5088024242218877;0.1655;0.0035;-0.1040;
5088024262416325;0.1192;0.0003;-0.0944;
5088024282624710;0.0730;0.0040;-0.0859;
5088024302840127;0.0426;0.0077;-0.0758;
5088024323034815;0.0362;0.0077;-0.0630;
5088024343243200;0.0138;-0.0003;-0.0539;
5088024363463773;0.0069;-0.0013;-0.0401;
5088024383666481;0.0075;0.0003;-0.0310;
5088024403874867;0.0043;0.0019;-0.0236;
5088024424087002;0.0032;-0.0008;-0.0156;
5088024444298669;0.0027;-0.0013;-0.0134;
5088024464507002;0.0037;0.0019;-0.0092;
5088024484711481;0.0005;0.0008;-0.0055;
5088024504927315;-0.0000;-0.0061;-0.0044;
5088024525135648;-0.0016;-0.0029;-0.0055;
5088024545347835;-0.0112;0.0013;-0.0071;
5088024565544919;-0.0133;0.0040;-0.0076;
5088024585753252;-0.0101;-0.0003;-0.0081;
5088024605962731;-0.0043;-0.0024;-0.0065;
5088024626167106;-0.0027;-0.0008;-0.0044;
5088024646375440;0.0032;-0.0019;-0.0007;
5088024666602315;0.0011;-0.0008;0.0009;
5088024686793356;0.0016;-0.0019;0.0015;
5088024707001690;0.0016;0.0008;0.0031;
5088024727225648;-0.0000;0.0019;0.0073;
5088024747429710;-0.0016;-0.0024;0.0100;
5088024767638096;-0.0037;-0.0019;0.0153;
5088024787837835;-0.0085;-0.0029;0.0196;
5088024808047731;-0.0138;-0.0035;0.0233;
5088024828256117;-0.0138;-0.0035;0.0265;
5088024848458513;-0.0059;-0.0051;0.0297;
5088024868682731;-0.0032;-0.0077;0.0297;
5088024888891117;-0.0048;-0.0083;0.0286;
5088024909089242;-0.0043;-0.0072;0.0276;
5088024929296481;-0.0016;-0.0051;0.0244;
5088024949504867;0.0011;-0.0051;0.0196;
5088024969713721;0.0027;-0.0029;0.0132;
5088024989922315;0.0037;0.0013;0.0068;
5088025010130700;0.0053;0.0040;0.0009;
5088025030326638;0.0032;0.0045;-0.0044;
5088025050545960;0.0032;0.0051;-0.0081;
5088025070754346;0.0021;0.0067;-0.0081;
5088025090955283;0.0005;0.0051;-0.0065;
5088025111167315;0.0005;0.0029;-0.0055;
5088025131375700;-0.0000;0.0029;-0.0055;
5088025151596117;0.0016;0.0029;-0.0055;
5088025171793356;0.0011;0.0029;-0.0108;
5088025192001742;-0.0000;-0.0008;-0.0140;
5088025212209606;0.0027;0.0024;-0.0193;
5088025232427523;0.0069;0.0040;-0.0230;
5088025252635908;0.0011;0.0019;-0.0289;
5088025272844971;-0.0229;-0.0008;-0.0337;
5088025293040752;-0.0613;0.0024;-0.0390;
5088025313249138;-0.0948;0.0051;-0.0465;
5088025333455804;-0.1177;0.0061;-0.0491;
5088025353672210;-0.1332;0.0077;-0.0529;
5088025373880596;-0.1459;0.0083;-0.0545;
5088025394125231;-0.1411;0.0067;-0.0518;
5088025414291794;-0.1198;0.0051;-0.0465;
5088025434500179;-0.0820;0.0045;-0.0364;
5088025454716533;-0.0389;0.0019;-0.0241;
5088025474923565;-0.0032;-0.0008;-0.0113;
5088025495131950;0.0053;-0.0008;0.0025;
5088025515358721;0.0016;0.0003;0.0126;
5088025535560544;-0.0053;-0.0008;0.0249;
5088025555768929;-0.0080;-0.0024;0.0393;
5088025575966429;-0.0091;-0.0019;0.0526;
5088025596162367;-0.0154;-0.0019;0.0638;
5088025616370752;-0.0181;-0.0029;0.0803;
5088025636598513;-0.0208;-0.0056;0.0925;
5088025656809919;-0.0245;-0.0067;0.1064;
5088025677018304;-0.0261;-0.0056;0.1181;
5088025697208721;-0.0309;-0.0056;0.1282;
5088025717437210;-0.0336;-0.0072;0.1389;
5088025737645596;-0.0352;-0.0093;0.1501;
5088025757842106;-0.0373;-0.0088;0.1618;
5088025778050544;-0.0410;-0.0109;0.1740;
5088025798258929;-0.0421;-0.0125;0.1858;
5088025818468356;-0.0415;-0.0115;0.1921;
5088025838661377;-0.0421;-0.0104;0.1932;
5088025858869763;-0.0426;-0.0115;0.1921;
5088025879093356;-0.0410;-0.0146;0.1847;
5088025899298877;-0.0415;-0.0115;0.1767;
5088025919507263;-0.0378;-0.0093;0.1698;
5088025939716533;-0.0368;-0.0083;0.1618;
5088025959916377;-0.0346;-0.0072;0.1538;
5088025980124763;-0.0330;-0.0088;0.1437;
5088026000342315;-0.0288;-0.0099;0.1325;
5088026020553669;-0.0266;-0.0104;0.1160;
5088026040762054;-0.0250;-0.0141;0.0995;
5088026060967210;-0.0176;-0.0120;0.0846;
5088026081171117;-0.0229;-0.0120;0.0659;
5088026101379502;-0.0501;-0.0115;0.0542;
5088026121590440;-0.0692;-0.0035;0.0403;
5088026141804294;-0.0799;0.0019;0.0313;
5088026162012679;-0.0980;0.0045;0.0222;
5088026182210231;-0.1257;0.0013;0.0169;
5088026202414606;-0.1545;-0.0013;0.0148;
5088026222622992;-0.1603;0.0013;0.0153;
5088026242839502;-0.1502;-0.0003;0.0196;
5088026263057835;-0.1353;-0.0035;0.0260;
5088026283266221;-0.1097;-0.0056;0.0350;
5088026303462940;-0.0618;-0.0029;0.0462;
5088026323648044;-0.0117;-0.0045;0.0585;
5088026343856429;-0.0075;-0.0067;0.0648;
5088026364083565;-0.0123;-0.0093;0.0648;
5088026384302419;-0.0112;-0.0099;0.0659;
5088026404510804;-0.0133;-0.0067;0.0622;
5088026424709398;-0.0117;-0.0061;0.0585;
5088026444933044;-0.0101;-0.0024;0.0537;
5088026465141377;-0.0101;-0.0019;0.0467;
5088026485337731;-0.0096;-0.0045;0.0403;
5088026505569398;-0.0085;-0.0040;0.0318;
5088026525777783;-0.0059;-0.0013;0.0270;
5088026545982940;-0.0027;-0.0035;0.0233;
5088026566193356;-0.0043;0.0003;0.0206;
5088026586401742;-0.0037;-0.0008;0.0164;
5088026606588252;-0.0043;-0.0019;0.0137;
5088026626801273;-0.0037;-0.0003;0.0116;
5088026647009658;-0.0043;0.0013;0.0116;
5088026667230335;-0.0021;0.0056;0.0126;
5088026687421950;-0.0032;0.0077;0.0132;
5088026707630335;-0.0032;0.0056;0.0180;
5088026727861273;-0.0059;0.0061;0.0217;
5088026748047731;-0.0053;0.0056;0.0260;
5088026768256065;-0.0075;0.0013;0.0292;
5088026788459502;-0.0069;-0.0029;0.0345;
5088026808669190;-0.0069;-0.0056;0.0393;
5088026828877523;-0.0075;-0.0056;0.0409;
5088026849082835;-0.0085;-0.0077;0.0446;
5088026869293877;-0.0075;-0.0072;0.0489;
5088026889502210;0.0021;-0.0019;0.0521;
5088026909721794;0.0378;-0.0003;0.0585;
5088026929918877;0.0644;-0.0029;0.0606;
5088026950127263;0.0708;-0.0067;0.0585;
5088026970334190;0.0756;-0.0072;0.0521;
5088026990550283;0.0735;-0.0093;0.0473;
5088027010758617;0.0543;-0.0120;0.0398;
5088027030970752;0.0234;-0.0019;0.0318;
5088027051174606;0.0096;0.0035;0.0233;
5088027071382940;0.0005;-0.0003;0.0190;
5088027091589710;-0.0027;-0.0003;0.0126;
5088027111807940;0.0011;-0.0008;0.0063;
5088027132016273;-0.0000;-0.0045;0.0031;
5088027152225700;0.0037;-0.0035;0.0009;
5088027172427940;0.0021;-0.0008;0.0009;
5088027192636273;-0.0000;-0.0003;0.0004;
5088027212832627;-0.0016;0.0008;0.0009;
5088027233062888;-0.0011;0.0003;0.0057;
5088027253271221;-0.0005;0.0008;0.0084;
5088027273464242;-0.0016;0.0013;0.0137;
5088027293674710;-0.0027;-0.0003;0.0190;
5088027313883044;-0.0048;-0.0013;0.0249;
5088027334126742;-0.0075;-0.0019;0.0340;
5088027354290023;-0.0064;0.0003;0.0451;
5088027374498356;-0.0069;-0.0003;0.0547;
5088027394714398;-0.0080;-0.0035;0.0617;
5088027414901065;-0.0154;-0.0056;0.0659;
5088027435109398;-0.0181;-0.0051;0.0702;
5088027455355127;-0.0192;-0.0040;0.0723;
5088027475537315;-0.0192;-0.0013;0.0712;
5088027495745648;-0.0176;0.0008;0.0686;
5088027515961273;-0.0170;-0.0019;0.0648;
5088027536191481;-0.0149;-0.0019;0.0595;
5088027556399815;-0.0154;-0.0008;0.0526;
5088027576592210;-0.0128;0.0013;0.0451;
5088027596785127;-0.0107;0.0008;0.0414;
5088027616993460;-0.0096;-0.0019;0.0372;
5088027637214710;-0.0080;0.0003;0.0329;
5088027657421377;-0.0069;0.0008;0.0292;
5088027677629710;-0.0059;0.0003;0.0233;
5088027697841950;-0.0053;-0.0003;0.0196;
5088027718052783;-0.0048;-0.0024;0.0158;
5088027738261117;-0.0043;-0.0013;0.0121;
5088027758466065;-0.0027;-0.0003;0.0063;
5088027778675960;-0.0000;0.0013;0.0020;
5088027798884294;0.0011;0.0024;-0.0039;
5088027819095231;0.0032;-0.0003;-0.0108;
5088027839290648;0.0053;0.0003;-0.0172;
5088027859498981;0.0069;0.0008;-0.0246;
5088027879719867;0.0085;0.0003;-0.0289;
5088027899925960;0.0117;0.0024;-0.0364;
5088027920134294;0.0138;0.0024;-0.0390;
5088027940339815;0.0234;0.0051;-0.0401;
5088027960541742;0.0368;0.0045;-0.0374;
5088027980750023;0.0538;0.0019;-0.0294;
5088028000963356;0.0799;0.0003;-0.0166;
5088028021171690;0.0730;-0.0045;0.0004;
5088028041385960;0.0639;-0.0056;0.0174;
5088028061594815;0.0996;0.0003;0.0430;
5088028081803148;0.1517;0.0040;0.0654;
5088028102009398;0.1783;-0.0029;0.0856;
5088028122213773;0.1597;-0.0130;0.0995;
5088028142422106;0.1266;-0.0146;0.1080;
5088028162629398;0.0905;-0.0088;0.1112;
5088028182839190;0.0138;-0.0125;0.1011;
5088028203047523;-0.0352;-0.0125;0.0931;
5088028223254971;-0.0277;-0.0029;0.0936;
5088028243480544;-0.0197;0.0051;0.0883;
5088028263688877;-0.0213;0.0003;0.0803;
5088028283873356;-0.0218;-0.0083;0.0739;
5088028304089346;-0.0181;-0.0083;0.0680;
5088028324297679;-0.0138;-0.0035;0.0611;
5088028344508669;-0.0133;0.0008;0.0558;
5088028364713252;-0.0117;-0.0013;0.0483;
5088028384921585;-0.0101;-0.0003;0.0403;
5088028405128981;-0.0085;0.0035;0.0361;
5088028425415075;-0.0091;0.0061;0.0265;
5088028445623460;-0.0053;0.0051;0.0217;
5088028465750231;-0.0080;0.0045;0.0158;
5088028485970283;-0.0053;0.0029;0.0116;
5088028506178617;-0.0027;0.0024;0.0068;
5088028526389867;-0.0027;0.0056;0.0009;
5088028546607523;-0.0053;0.0104;-0.0023;
5088028566815856;-0.0096;0.0157;-0.0108;
5088028587033044;-0.0128;0.0130;-0.0134;
5088028607235492;-0.0314;0.0152;-0.0198;
5088028627443825;-0.0575;0.0205;-0.0230;
5088028647620648;-0.0075;0.0317;-0.0252;
5088028667836481;0.0059;0.0386;-0.0348;
5088028688044815;0.0048;0.0258;-0.0475;
5088028708260856;0.0027;0.0104;-0.0529;
5088028728474710;-0.0085;0.0045;-0.0571;
5088028748683044;0.0107;0.0040;-0.0609;
5088028768879606;0.0154;0.0045;-0.0662;
5088028789091065;0.0160;0.0045;-0.0715;
5088028809299398;-0.0298;-0.0051;-0.0704;
5088028829526794;-0.0330;-0.0067;-0.0571;
5088028849716169;0.0240;0.0141;-0.0449;
5088028869924502;0.0181;0.0157;-0.0395;
5088028890134190;0.0123;0.0024;-0.0390;
5088028910342367;0.0107;-0.0109;-0.0401;
5088028930550700;0.0144;-0.0162;-0.0401;
5088028950763460;0.0176;-0.0157;-0.0411;
5088028970982731;0.0181;-0.0115;-0.0449;
5088028991191065;0.0197;-0.0061;-0.0475;
5088029011376117;0.0192;-0.0024;-0.0513;
5088029031599085;0.0234;-0.0019;-0.0539;
5088029051807419;0.0202;0.0008;-0.0571;
5088029071998356;0.0160;0.0013;-0.0635;
5088029092210960;0.0064;0.0013;-0.0683;
5088029112419294;-0.0538;0.0019;-0.0779;
5088029132626898;-0.0905;0.0104;-0.0885;
5088029152855544;-0.1108;0.0152;-0.0901;
5088029173063877;-0.1087;0.0136;-0.0891;
5088029193258981;-0.0927;0.0072;-0.0832;
5088029213471794;-0.0772;0.0029;-0.0763;
5088029233680127;-0.0682;0.0019;-0.0683;
5088029253895231;-0.0607;0.0077;-0.0561;
5088029274091273;-0.0714;0.0077;-0.0513;
5088029294299606;-0.0964;0.0035;-0.0427;
5088029314521846;-0.1438;-0.0056;-0.0417;
5088029334708565;-0.1987;-0.0120;-0.0385;
5088029354916898;-0.2280;-0.0104;-0.0300;
5088029375128565;-0.2487;-0.0093;-0.0241;
5088029395332106;-0.2668;-0.0067;-0.0177;
5088029415540440;-0.2807;-0.0072;-0.0150;
5088029435744190;-0.2839;-0.0162;-0.0134;
5088029456017835;-0.2722;-0.0200;-0.0103;
5088029476226169;-0.2541;-0.0200;-0.0060;
5088029496390648;-0.2035;-0.0152;0.0009;
5088029516591273;-0.1193;-0.0205;0.0126;
5088029536799606;-0.0261;-0.0370;0.0212;
5088029557027419;0.0415;-0.0530;0.0292;
5088029577210127;0.0490;-0.0360;0.0302;
5088029597418460;0.1192;-0.0146;0.0324;
5088029617640231;0.1682;-0.0115;0.0382;
5088029637832106;0.2007;-0.0216;0.0398;
5088029658040388;0.2379;-0.0269;0.0425;
5088029678269710;0.2795;-0.0264;0.0457;
5088029698470231;0.3221;-0.0189;0.0558;
5088029718678565;0.3423;-0.0130;0.0595;
5088029738899190;0.3391;-0.0077;0.0601;
5088029759093044;0.3258;-0.0104;0.0563;
5088029779301325;0.3040;-0.0136;0.0537;
5088029799510544;0.2683;-0.0115;0.0451;
5088029819711481;0.2246;-0.0083;0.0350;
5088029839919763;0.1836;-0.0045;0.0233;
5088029860123721;0.1415;-0.0008;0.0164;
5088029880334710;0.1001;0.0024;0.0105;
5088029900542992;0.0628;0.0029;0.0047;
5088029920757210;0.0272;0.0040;-0.0012;
5088029940967627;-0.0048;0.0045;-0.0055;
5088029961175960;-0.0154;0.0051;-0.0119;
5088029981390127;-0.0128;0.0115;-0.0113;
5088030001582523;-0.0021;0.0280;-0.0044;
5088030021790804;0.0176;0.0386;0.0009;
5088030042023877;0.0186;0.0333;0.0036;
5088030062232419;0.0016;0.0189;0.0031;
5088030082440700;-0.0181;0.0077;0.0025;
5088030102625648;-0.0208;0.0024;0.0047;
5088030122835127;-0.0197;0.0162;0.0031;
5088030143043408;-0.0154;0.0205;0.0015;
5088030163250856;-0.0154;0.0269;-0.0017;
5088030183471221;-0.0149;0.0301;-0.0055;
5088030203679502;-0.0112;0.0258;-0.0103;
5088030223911533;-0.0085;0.0333;-0.0108;
5088030244091273;-0.0107;0.0194;-0.0166;
5088030264299554;-0.0170;0.0136;-0.0230;
5088030284499033;-0.0149;0.0130;-0.0268;
5088030304719867;-0.0091;0.0301;-0.0305;
5088030324928148;-0.0091;0.0333;-0.0316;
5088030345125752;-0.0128;0.0328;-0.0332;
5088030365339085;-0.0128;0.0301;-0.0300;
5088030385547367;-0.0080;0.0317;-0.0284;
5088030405753877;-0.0069;0.0466;-0.0204;
5088030425965960;-0.0112;0.0322;-0.0113;
5088030446174242;-0.0154;0.0317;-0.0017;
5088030466394763;-0.0208;0.0210;0.0079;
5088030486578877;-0.0202;0.0221;0.0169;
5088030506787158;-0.0202;0.0317;0.0265;
5088030527022731;-0.0256;0.0344;0.0313;
5088030547244606;-0.0277;0.0258;0.0377;
5088030567452888;-0.0309;0.0210;0.0377;
5088030587641065;-0.0357;0.0162;0.0409;
5088030607847002;-0.0394;0.0109;0.0409;
5088030628055283;-0.0447;0.0109;0.0393;
5088030648247210;-0.0405;0.0109;0.0398;
5088030668468669;-0.0474;0.0120;0.0366;
5088030688676950;-0.0586;0.0088;0.0313;
5088030708899398;-0.0820;0.0013;0.0260;
5088030729101690;-0.0799;-0.0013;0.0281;
5088030749309971;-0.0597;0.0003;0.0286;
5088030769509815;-0.0282;0.0003;0.0308;
5088030789725960;-0.0037;-0.0035;0.0324;
5088030809934242;-0.0043;-0.0088;0.0260;
5088030830138460;-0.0091;-0.0152;0.0148;
5088030850341377;-0.0192;-0.0178;0.0068;
5088030870549658;-0.0149;-0.0088;-0.0055;
5088030890756690;-0.0160;-0.0024;-0.0161;
5088030910970023;-0.0224;-0.0061;-0.0177;
5088030931178304;0.0096;-0.0029;-0.0172;
5088030951385440;0.0192;0.0061;-0.0156;
5088030971603356;0.0234;-0.0013;-0.0182;
5088030991811638;0.0181;-0.0067;-0.0182;
5088031012007419;0.0165;-0.0067;-0.0188;
5088031032225700;0.0330;-0.0013;-0.0097;
5088031052433981;0.0479;0.0056;-0.0028;
5088031072653981;0.0527;0.0093;0.0041;
5088031092842315;0.0362;0.0104;0.0095;
5088031113050596;0.0048;0.0093;0.0132;
5088031133251898;-0.0128;0.0077;0.0164;
5088031153455440;-0.0123;0.0093;0.0249;
5088031173663721;-0.0144;0.0104;0.0324;
5088031193888929;-0.0154;0.0056;0.0398;
5088031214111377;-0.0181;0.0029;0.0430;
5088031234319658;-0.0202;-0.0008;0.0430;
5088031254522627;-0.0213;-0.0008;0.0473;
5088031274709294;-0.0288;0.0013;0.0446;
5088031294917627;-0.0479;0.0029;0.0393;
5088031315128617;-0.0804;0.0045;0.0286;
5088031335323981;-0.1204;0.0045;0.0190;
5088031355532263;-0.1656;0.0056;-0.0001;
5088031375756273;-0.2051;0.0072;-0.0166;
5088031395958148;-0.2226;0.0120;-0.0294;
5088031416166429;-0.2104;0.0162;-0.0395;
5088031436385856;-0.1784;0.0189;-0.0454;
5088031456605023;-0.1411;0.0194;-0.0470;
5088031476813304;-0.0964;0.0178;-0.0454;
5088031497011794;-0.0474;0.0168;-0.0438;
5088031517209085;0.0059;0.0162;-0.0348;
5088031537417367;0.0154;0.0141;-0.0284;
5088031557626481;0.0154;0.0109;-0.0241;
5088031577826377;0.0346;0.0088;-0.0188;
5088031598034710;0.0378;0.0040;-0.0119;
5088031618260231;0.0463;-0.0013;-0.0065;
5088031638459606;0.0394;-0.0035;-0.0001;
5088031658667888;0.0373;-0.0035;0.0041;
5088031678894815;0.0053;-0.0056;0.0095;
5088031699099502;0.0075;-0.0045;0.0132;
5088031719307835;0.0101;-0.0029;0.0217;
5088031739506013;0.0128;-0.0067;0.0254;
5088031759715648;0.0043;-0.0099;0.0270;
5088031779923929;0.0112;-0.0093;0.0297;
5088031800130856;0.0138;-0.0072;0.0324;
5088031820350023;0.0059;-0.0088;0.0313;
5088031840558304;-0.0080;-0.0099;0.0302;
5088031860767575;-0.0091;-0.0104;0.0276;
5088031880967315;-0.0053;-0.0083;0.0286;
5088031901175596;-0.0075;-0.0061;0.0260;
5088031921383877;-0.0075;-0.0056;0.0222;
5088031941598044;-0.0053;-0.0035;0.0185;
5088031961806325;-0.0043;0.0008;0.0164;
5088031982021429;-0.0080;0.0003;0.0137;
5088032002210856;-0.0272;-0.0024;0.0052;
5088032022419138;-0.0383;-0.0008;0.0009;
5088032042632731;-0.0399;0.0019;-0.0023;
5088032062834763;-0.0383;0.0029;-0.0060;
5088032083043044;-0.0437;0.0019;-0.0103;
5088032103258877;-0.0474;-0.0003;-0.0129;
5088032123473721;-0.0495;0.0024;-0.0182;
5088032143681950;-0.0399;0.0056;-0.0214;
5088032163870908;-0.0341;0.0045;-0.0257;
5088032184090335;-0.0346;0.0029;-0.0316;
5088032204298617;-0.0293;0.0051;-0.0379;
5088032224530335;-0.0154;0.0088;-0.0433;
5088032244704085;-0.0021;0.0093;-0.0459;
5088032264912367;0.0043;0.0072;-0.0518;
5088032285127731;0.0176;0.0083;-0.0534;
5088032305354346;0.0208;0.0088;-0.0566;
5088032325562627;0.0213;0.0099;-0.0640;
5088032345756325;0.0229;0.0067;-0.0672;
5088032365960231;0.0240;0.0045;-0.0715;
5088032386168513;0.0256;0.0040;-0.0726;
5088032406375492;0.0266;0.0051;-0.0736;
5088032426589502;0.0250;0.0045;-0.0736;
5088032446797783;0.0256;0.0035;-0.0726;
5088032467031846;0.0261;0.0019;-0.0704;
5088032487234294;0.0250;-0.0003;-0.0672;
5088032507442575;0.0256;-0.0035;-0.0640;
5088032527634710;0.0261;-0.0051;-0.0577;
5088032547858044;0.0378;-0.0061;-0.0518;
5088032568066377;0.0549;-0.0045;-0.0427;
5088032588277888;0.0639;-0.0067;-0.0326;
5088032608469815;0.0740;-0.0088;-0.0230;
5088032628678148;0.0794;-0.0077;-0.0113;
5088032648880544;0.0842;-0.0067;-0.0001;
5088032669104867;0.0836;-0.0067;0.0132;
5088032689313148;0.0740;-0.0077;0.0222;
5088032709513148;0.0479;-0.0104;0.0292;
5088032729726169;0.0149;-0.0099;0.0334;
5088032749934450;-0.0069;-0.0088;0.0340;
5088032770140127;-0.0075;-0.0093;0.0366;
5088032790338148;-0.0048;-0.0115;0.0393;
5088032810546429;-0.0027;-0.0120;0.0372;
5088032830754294;-0.0016;-0.0115;0.0340;
5088032850968565;-0.0021;-0.0109;0.0286;
5088032871176898;-0.0043;-0.0077;0.0206;
5088032891380127;-0.0053;-0.0072;0.0095;
5088032911588877;-0.0075;-0.0077;0.0009;
5088032931797158;-0.0085;-0.0056;-0.0087;
5088032952015544;-0.0080;-0.0040;-0.0161;
5088032972226638;-0.0080;-0.0013;-0.0236;
5088032992434919;-0.0021;-0.0003;-0.0300;
5088033012619867;-0.0011;0.0008;-0.0358;
5088033032845335;0.0016;0.0013;-0.0422;
5088033053053669;-0.0048;-0.0003;-0.0470;
5088033073266065;-0.0085;-0.0024;-0.0523;
5088033093463617;-0.0128;-0.0045;-0.0571;
5088033113671950;-0.0186;-0.0040;-0.0630;
5088033133889971;-0.0176;-0.0029;-0.0667;
5088033154092731;-0.0080;0.0008;-0.0742;
5088033174301065;0.0037;0.0045;-0.0816;
5088033194516273;0.0112;0.0045;-0.0869;
5088033214763148;0.0186;0.0035;-0.0939;
5088033234971429;0.0282;0.0008;-0.0965;
5088033255138617;0.0357;-0.0013;-0.0976;
5088033275340023;0.0405;-0.0008;-0.0976;
5088033295548304;0.0469;-0.0003;-0.0971;
5088033315755544;0.0458;-0.0040;-0.0976;
5088033335983669;0.0447;-0.0072;-0.0960;
5088033356191950;0.0453;-0.0104;-0.0955;
5088033376385752;0.0474;-0.0141;-0.0933;
5088033396575440;0.0485;-0.0136;-0.0896;
5088033416783773;0.0469;-0.0146;-0.0885;
5088033437008252;0.0479;-0.0173;-0.0859;
5088033457207627;0.0517;-0.0130;-0.0854;
5088033477415960;0.0522;-0.0152;-0.0854;
5088033497629294;0.0533;-0.0205;-0.0859;
5088033517830960;0.0565;-0.0253;-0.0896;
5088033538039294;0.0597;-0.0104;-0.0923;
5088033558253460;0.0602;-0.0104;-0.0960;
5088033578469033;0.0618;-0.0003;-0.1013;
5088033598677315;0.0698;0.0019;-0.1035;
5088033618886690;0.0900;-0.0120;-0.1045;
5088033639083773;0.1122;-0.0162;-0.1040;
5088033659292106;0.1320;-0.0152;-0.0965;
5088033679502367;0.1517;-0.0125;-0.0928;
5088033699712940;0.1586;-0.0067;-0.0864;
5088033719921221;0.1698;-0.0088;-0.0806;
5088033740143460;0.1879;-0.0056;-0.0710;
5088033760331221;0.1889;-0.0109;-0.0630;
5088033780556429;0.1815;-0.0125;-0.0523;
5088033800764710;0.1517;-0.0109;-0.0481;
5088033820957835;0.1256;-0.0115;-0.0422;
5088033841164971;0.1028;-0.0136;-0.0342;
5088033861373304;0.0783;-0.0130;-0.0278;
5088033881599294;0.0506;-0.0067;-0.0220;
5088033901804815;0.0352;-0.0088;-0.0113;
5088033922013148;0.0154;-0.0019;-0.0087;
5088033942211585;0.0138;0.0008;-0.0012;
5088033962420179;0.0096;-0.0051;0.0047;
5088033982628513;0.0075;-0.0109;0.0111;
5088034002842523;0.0085;-0.0088;0.0111;
5088034023040960;0.0069;-0.0045;0.0121;
5088034043249294;0.0064;-0.0045;0.0100;
5088034063468773;0.0032;-0.0040;0.0079;
5088034083677888;0.0075;-0.0035;0.0079;
5088034103886169;0.0064;-0.0003;0.0095;
5088034124082523;0.0186;-0.0008;0.0164;
5088034144294346;0.0320;-0.0040;0.0238;
5088034164502627;0.0410;-0.0056;0.0345;
5088034184713877;0.0474;-0.0040;0.0425;
5088034204916377;0.0293;-0.0019;0.0473;
5088034225124710;0.0021;-0.0008;0.0494;
5088034245337731;-0.0197;-0.0003;0.0499;
5088034265554606;-0.0181;-0.0003;0.0547;
5088034285762940;-0.0176;0.0003;0.0595;
5088034305983929;-0.0128;-0.0013;0.0627;
5088034326171690;0.0144;-0.0077;0.0696;
5088034346379971;0.0602;-0.0136;0.0824;
5088034366591377;0.1256;-0.0146;0.0963;
5088034386797106;0.1937;-0.0099;0.1080;
5088034407005440;0.2502;-0.0003;0.1213;
5088034427230700;0.3040;0.0029;0.1298;
5088034447443513;0.3285;-0.0003;0.1405;
5088034467651794;0.3296;0.0019;0.1431;
5088034487837835;0.3269;0.0045;0.1463;
5088034508046065;0.3098;0.0056;0.1410;
5088034528254398;0.2640;0.0040;0.1394;
5088034548481950;0.2225;0.0093;0.1293;
5088034568673148;0.1644;0.0173;0.1192;
5088034588881429;0.1112;0.0136;0.1069;
5088034609100648;0.0639;0.0146;0.0963;
5088034629298460;0.0123;0.0200;0.0925;
5088034649506794;-0.0197;0.0194;0.0798;
5088034669712002;-0.0192;0.0194;0.0760;
5088034689911794;-0.0170;0.0242;0.0728;
5088034710120075;-0.0149;0.0200;0.0707;
5088034730361950;-0.0176;0.0141;0.0686;
5088034750550388;-0.0202;0.0141;0.0654;
5088034770758669;-0.0341;0.0194;0.0579;
5088034790968200;-0.0549;0.0130;0.0473;
5088034811171794;-0.0799;0.0157;0.0393;
5088034831380075;-0.0884;0.0184;0.0249;
5088034851585127;-0.0852;0.0189;0.0201;
5088034871785908;-0.0708;0.0200;0.0121;
5088034891994190;-0.0458;0.0157;0.0073;
5088034912221898;-0.0272;0.0157;0.0031;
5088034932434606;-0.0149;0.0141;-0.0012;
5088034952642940;-0.0027;0.0109;-0.0049;
5088034972827210;0.0059;0.0125;-0.0076;
5088034993046690;0.0064;0.0115;-0.0097;
5088035013255023;0.0048;0.0093;-0.0113;
5088035033509502;0.0053;0.0077;-0.0156;
5088035053655856;0.0043;0.0035;-0.0177;
5088035073864190;0.0021;0.0013;-0.0182;
5088035094132263;-0.0021;0.0024;-0.0204;
5088035114290440;-0.0123;0.0040;-0.0214;
5088035134498773;-0.0208;0.0045;-0.0241;
5088035154729398;-0.0314;0.0040;-0.0262;
5088035174908617;-0.0368;0.0019;-0.0284;
5088035195116898;-0.0357;0.0013;-0.0310;
5088035215333252;-0.0240;0.0035;-0.0273;
5088035235532419;-0.0096;0.0061;-0.0230;
5088035255740752;0.0043;0.0067;-0.0177;
5088035275957627;0.0069;0.0061;-0.0113;
5088035296186481;0.0027;0.0045;-0.0039;
5088035316394763;-0.0005;0.0019;0.0041;
5088035336576533;-0.0032;-0.0003;0.0137;
5088035356786377;-0.0069;-0.0019;0.0228;
5088035376994710;-0.0096;-0.0061;0.0329;
5088035397193200;-0.0096;-0.0093;0.0451;
5088035417417315;-0.0107;-0.0093;0.0542;
5088035437625648;-0.0138;-0.0104;0.0664;
5088035457836377;-0.0170;-0.0157;0.0750;
5088035478038044;-0.0192;-0.0178;0.0846;
