Sensor: bmi160 Accelerometer Non-wakeup
Vendor: BOSCH
TimestampAcc [ns]; AccX [m/s^2]; AccY [m/s^2]; AccZ [m/s^2]
974172361028668;-9.5414;1.4459;-1.4844;
974172371159657;-9.5797;1.4339;-1.5613;
974172381257001;-9.5797;1.4124;-1.5733;
974172391393459;-9.5964;1.3741;-1.5398;
974172401511636;-9.5916;1.3502;-1.5972;
974172411604449;-9.5725;1.3310;-1.6068;
974172421722626;-9.5916;1.3190;-1.5996;
974172431823980;-9.6108;1.2784;-1.6187;
974172441924032;-9.6012;1.2760;-1.5470;
974172452022938;-9.5725;1.3358;-1.4773;
974172462136480;-9.5940;1.3693;-1.3768;
974172472197834;-9.5916;1.3836;-1.3816;
974172482355334;-9.6156;1.4219;-1.4725;
974172492447730;-9.6012;1.4195;-1.5227;
974172502520803;-9.5821;1.4195;-1.5422;
974172512630386;-9.5868;1.3932;-1.5757;
974172522742678;-9.5653;1.3310;-1.5757;
974172532820490;-9.5749;1.3334;-1.5374;
974172542944553;-9.5892;1.3836;-1.5996;
974172553081480;-9.6203;1.3860;-1.5900;
974172563148147;-9.5725;1.4315;-1.5398;
974172573248772;-9.5390;1.4746;-1.5036;
974172583378980;-9.5291;1.4961;-1.4892;
974172593448459;-9.5291;1.4770;-1.4773;
974172603571897;-9.5773;1.4937;-1.5757;
974172613674709;-9.5988;1.4889;-1.5781;
974172623806793;-9.5677;1.4483;-1.5589;
974172633891168;-9.5821;1.4315;-1.6092;
974172644002001;-9.5315;1.4506;-1.6140;
974172654114865;-9.5510;1.4435;-1.5541;
974172664196845;-9.5773;1.4243;-1.5661;
974172674295074;-9.6012;1.4148;-1.5350;
974172684429397;-9.5533;1.4100;-1.4892;
974172694533147;-9.5677;1.4650;-1.4964;
974172704611532;-9.5797;1.4578;-1.4773;
974172714736897;-9.5725;1.4291;-1.4390;
974172724826272;-9.5797;1.4602;-1.4964;
974172734953355;-9.5725;1.5105;-1.5012;
974172745059709;-9.5701;1.4841;-1.4462;
974172755134553;-9.5964;1.4674;-1.4725;
974172765237678;-9.5653;1.4889;-1.4677;
974172775342470;-9.5701;1.5129;-1.4653;
974172785442470;-9.5773;1.5200;-1.4749;
974172795551949;-9.5701;1.4913;-1.4581;
974172805656636;-9.5940;1.5419;-1.4366;
974172815766897;-9.5797;1.5682;-1.3887;
974172825866740;-9.5821;1.5778;-1.3720;
974172835969970;-9.5940;1.5897;-1.3792;
974172846075907;-9.5677;1.6041;-1.3409;
974172856182834;-9.5677;1.6041;-1.3528;
974172866277886;-9.6203;1.6089;-1.4007;
974172876389136;-9.5988;1.5849;-1.3983;
974172886491324;-9.6108;1.5969;-1.4151;
974172896595751;-9.6084;1.6065;-1.4390;
974172906699240;-9.5725;1.5682;-1.4318;
974172916804032;-9.5773;1.5514;-1.3983;
974172926909449;-9.5773;1.5538;-1.3744;
974172937013407;-9.5916;1.5969;-1.3744;
974172947117365;-9.6036;1.6017;-1.3720;
974172957221845;-9.5892;1.5730;-1.3863;
974172967348251;-9.5821;1.5562;-1.3983;
974172977437418;-9.5701;1.5969;-1.4557;
974172987559605;-9.5510;1.5802;-1.5326;
974172997638824;-9.6012;1.4578;-1.5685;
974173007750647;-9.6132;1.2832;-1.6738;
974173017850855;-9.5581;1.2999;-1.7575;
974173027956584;-9.4382;1.3813;-1.6403;
974173038061636;-9.5605;1.4411;-1.8344;
974173048168563;-9.4980;1.3071;-1.7336;
974173058263407;-9.5148;1.4483;-1.6475;
974173068373459;-9.5677;1.4841;-1.8296;
974173078477626;-9.5462;1.4148;-1.8583;
974173088584605;-9.5052;1.4435;-1.7575;
974173098681011;-9.5100;1.4411;-1.7838;
974173108797886;-9.4956;1.3071;-1.8224;
974173118891272;-9.5076;1.2517;-1.8344;
974173129000438;-9.4980;1.2350;-1.9277;
974173139108876;-9.5052;1.1919;-1.9732;
974173149213668;-9.5629;1.1704;-2.0163;
974173159319553;-9.5100;1.1273;-1.9493;
974173169420647;-9.5004;1.0938;-1.9181;
974173179522105;-9.5148;1.1656;-1.9038;
974173189627626;-9.5100;1.1847;-1.7360;
974173199732470;-9.5701;1.2613;-1.6522;
974173209834970;-9.5868;1.2975;-1.6857;
974173219962313;-9.6012;1.2565;-1.6953;
974173230038668;-9.6060;1.2470;-1.7985;
974173240173668;-9.5124;1.1058;-1.8176;
974173250253251;-9.4525;1.1130;-1.8416;
974173260360543;-9.4884;1.1632;-1.7985;
974173270468355;-9.5243;1.1201;-1.6977;
974173280573407;-9.6299;1.1728;-1.6857;
974173290659449;-9.7304;1.3190;-1.6044;
974173300769709;-9.7184;1.3047;-1.4581;
974173310878668;-9.6180;1.2063;-1.4557;
974173320977834;-9.5510;1.2565;-1.5517;
974173331085959;-9.4932;1.2784;-1.6259;
974173341190334;-9.4813;1.2326;-1.7264;
974173351293876;-9.5462;1.1895;-1.7216;
974173361378772;-9.6467;1.1847;-1.7384;
974173371504293;-9.6610;1.1177;-1.7695;
974173381604970;-9.6036;1.1465;-1.6738;
974173391704240;-9.5028;1.1919;-1.6355;
974173401828043;-9.4741;1.2470;-1.6977;
974173411914657;-9.5028;1.2685;-1.7743;
974173422012365;-9.6084;1.3908;-1.7671;
974173432119397;-9.6730;1.4722;-1.6834;
974173442251532;-9.6730;1.4722;-1.5685;
974173452332886;-9.5773;1.5344;-1.5227;
974173462452365;-9.4430;1.6615;-1.5805;
974173472558355;-9.4262;1.8508;-1.6499;
974173482665543;-9.4645;1.9178;-1.7001;
974173492772782;-9.5172;1.8772;-1.6762;
974173502862261;-9.5267;1.8078;-1.6666;
974173512969449;-9.4908;1.7501;-1.6522;
974173523076688;-9.4717;1.7213;-1.6355;
974173533162678;-9.5124;1.7189;-1.6307;
974173543269865;-9.5438;1.7070;-1.5060;
974173553377105;-9.5291;1.7189;-1.4270;
974173563494865;-9.5581;1.8102;-1.6140;
974173573602053;-9.5486;1.9059;-1.8224;
974173583709293;-9.4741;1.8580;-1.6857;
974173593786532;-9.5004;1.7548;-1.5132;
974173603893720;-7.1507;0.5213;-1.2353;
974173614000959;-7.1746;9.2288;-3.7723;
974173624110074;-11.4410;3.7385;-3.9425;
974173634217261;-13.0699;-0.5662;0.9685;
974173644324501;-10.2479;1.2206;0.5133;
974173654413720;-8.9710;3.6544;-3.3290;
974173664520907;-8.1494;2.0833;-2.3877;
974173674628147;-7.7997;0.0254;-0.7564;
974173684731480;-9.7304;-0.0153;-2.3276;
974173694838668;-10.9427;-0.2070;-3.2692;
974173704945907;-10.1402;-1.0119;-2.0234;
974173715054553;-9.4262;-1.0836;-1.2906;
974173725161740;-9.1890;1.3310;-2.6919;
974173735268980;-8.7652;1.2855;-1.3863;
974173745361011;-8.9614;1.4578;-0.4448;
974173755468199;-10.2096;1.7213;-0.9263;
974173765575438;-10.8948;1.4889;-1.1396;
974173775674657;-10.0346;0.6170;0.0461;
974173785781845;-9.4262;0.4373;0.0269;
974173795889084;-9.5195;1.1584;-1.6020;
974173805989553;-9.0072;0.9045;-1.5132;
974173816096740;-9.1101;0.1738;-0.9622;
974173826203980;-10.0995;0.3655;-1.7432;
974173836309970;-10.3244;0.5453;-2.2439;
974173846417157;-9.8504;0.2674;-1.7527;
974173856524397;-9.3903;0.4735;-1.6307;
974173866616532;-9.1292;1.1584;-1.9756;
974173876723720;-9.2178;1.4291;-2.0859;
974173886830959;-9.6132;1.3334;-1.8105;
974173896923407;-9.8456;1.4076;-1.7312;
974173907030595;-9.9652;1.7788;-2.1003;
974173917137834;-9.6299;2.0495;-2.0883;
974173927247678;-9.1388;2.0016;-1.7145;
974173937354865;-9.2297;1.7285;-1.6953;
974173947462105;-9.5845;0.6410;-1.4605;
974173957568876;-9.7208;0.2554;-1.6786;
974173967676063;-9.9174;0.1379;-2.0139;
974173977783303;-9.8049;0.4759;-2.2439;
974173987870230;-9.4119;0.5812;-1.8870;
974173997977418;-9.4693;0.7032;-1.6738;
974174008084657;-9.5414;1.0244;-1.5278;
974174018183407;-9.4143;1.2709;-1.1444;
974174028290595;-9.3329;1.9896;-1.2114;
974174038397834;-9.3066;2.7730;-1.4581;
974174048504865;-9.3233;3.4152;-1.3816;
974174058612053;-9.4167;3.8940;-1.0295;
974174068719293;-9.4717;4.3158;-0.6724;
974174078809970;-9.4573;4.3875;-0.6006;
974174088917157;-9.4382;3.9589;-0.8115;
974174099024397;-9.2946;3.2928;-1.2643;
974174109123407;-9.3257;2.3850;-1.8990;
974174119230595;-6.3745;3.0820;-1.5251;
974174129337834;-7.0881;3.4463;-1.9828;
974174139437574;-11.6444;3.1250;-5.3318;
974174149544761;-13.6735;2.1550;-7.6217;
974174159652001;-12.2124;-0.9640;-4.5676;
974174169747574;-9.0861;-3.1917;0.6739;
974174179854761;-6.7505;-2.7245;3.4597;
974174189962001;-7.1073;0.3727;2.1900;
974174200069240;-8.7987;2.8041;0.6691;
974174210176428;-10.5664;4.3181;-1.3193;
974174220283668;-11.7739;4.5506;-3.5255;
974174230372886;-11.0575;4.7372;-4.1100;
974174240480074;-8.5137;3.5515;-1.0654;
974174250587313;-7.6223;2.4281;1.0738;
974174260681845;-8.6644;2.1574;0.3000;
974174270789032;-9.3449;2.1742;-1.1755;
974174280896272;-10.3292;2.9336;-4.3543;
974174290997678;-11.4817;3.4869;-6.4217;
974174301104865;-9.5581;1.1058;-1.0845;
974174311195803;-8.1182;-1.2754;3.6012;
974174321302990;-9.5315;-0.0033;1.0642;
974174331410178;-10.3340;2.3058;-2.4284;
974174341523511;-10.1689;2.3393;-2.3734;
974174351630699;-10.2742;2.0785;-1.9205;
974174361737938;-9.9676;1.6807;-1.1157;
974174371827157;-9.1388;1.5081;0.0030;
974174381934345;-8.7963;1.6184;0.3601;
974174392041584;-9.2683;1.9083;-0.6915;
974174402158824;-9.9724;2.0590;-1.5012;
974174412266011;-9.7424;2.2292;-1.0199;
974174422373251;-9.3473;2.5813;-0.9215;
974174432517886;-9.6180;2.6462;-1.5374;
974174442625074;-9.5052;2.0447;-0.7780;
974174452732313;-9.4143;1.7788;-0.1478;
974174462748980;-9.9700;2.2507;-1.1468;
974174472856168;-9.9485;2.3898;-1.7312;
974174482963355;-9.4095;2.2340;-1.6331;
974174493070543;-9.4167;2.0471;-1.6810;
974174503175803;-9.2513;1.6759;-1.2185;
974174513282990;-9.0359;1.5538;-0.8641;
974174523390230;-9.3305;1.7477;-1.3935;
974174533525595;-9.4717;1.7261;-1.7456;
974174543632782;-9.6132;1.4985;-1.7671;
974174553740022;-9.8862;1.5826;-1.7791;
974174563831115;-9.5749;1.6113;-1.4342;
974174573938303;-9.3927;1.5009;-1.4462;
974174584045543;-9.6921;1.4506;-1.7456;
974174594124761;-9.6754;1.4435;-1.4725;
974174604231949;-9.6634;1.6065;-1.5494;
974174614339188;-9.6443;1.6711;-1.9684;
974174624442886;-9.3257;1.4674;-1.8535;
974174634550074;-9.3066;1.3525;-1.4964;
974174644657313;-9.4502;1.4506;-1.2449;
974174654749240;-9.5940;1.4794;-1.1372;
974174664856428;-9.9413;1.4387;-1.3122;
974174674963668;-9.9796;1.5224;-1.4629;
974174685063303;-9.6562;1.7094;-1.3792;
974174695170490;-9.4956;1.6328;-1.3983;
974174705277730;-9.4525;1.4219;-1.4079;
974174715375803;-9.3664;1.3143;-1.4509;
974174725482990;-9.5940;1.3813;-1.5852;
974174735590230;-9.7184;1.4985;-1.3959;
974174745692261;-9.7184;1.6854;-1.3074;
974174755799449;-9.7328;1.8197;-1.5517;
974174765906688;-9.6491;1.5491;-1.5227;
974174776006636;-9.4023;1.1369;-1.2425;
974174786113824;-9.2922;1.0436;-1.1611;
974174796221063;-9.4023;1.4267;-1.5156;
974174806317886;-9.3879;1.6854;-1.6786;
974174816425074;-9.2827;1.8963;-1.7312;
974174826532313;-9.4621;2.1311;-1.6953;
974174836633720;-9.9293;2.0518;-1.3050;
974174846740907;-10.0298;1.6017;-0.7493;
974174856848147;-9.7783;1.2254;-0.8952;
974174866941845;-9.6084;0.9332;-1.5326;
974174877049032;-9.1220;0.8088;-1.7169;
974174887156272;-9.0574;0.7319;-1.5757;
974174897255230;-9.5148;1.0460;-1.7575;
974174907362418;-9.8073;1.2927;-1.8296;
974174917469657;-9.4167;1.3573;-1.3504;
974174927579397;-9.6802;1.9561;-0.9383;
974174937686584;-9.8288;2.0112;-1.8344;
974174947793824;-9.3449;2.2292;-1.7910;
974174957904240;-9.4741;2.0160;-1.2858;
974174968011428;-10.0322;1.4674;-1.3122;
974174978118668;-9.8336;1.3190;-1.2978;
974174988193824;-9.2465;1.1776;-1.8679;
974174998301011;-8.9566;1.0026;-2.4715;
974175008408251;-8.7099;0.8088;-2.1673;
974175018513407;-8.7652;0.8566;-1.9564;
974175028620595;-9.1005;1.2039;-2.3013;
974175038727834;-9.8934;0.9978;-2.0836;
974175048826220;-10.2024;0.7104;-1.5326;
974175058933407;-10.0250;0.8638;-1.7838;
974175069040647;-9.9485;1.3741;-2.7805;
974175079140386;-9.6658;1.6089;-3.0990;
974175089247574;-9.5845;1.4339;-2.7326;
974175099354813;-9.8958;0.7777;-2.1864;
974175109453928;-10.0322;0.1953;-1.9062;
974175119561115;-9.4334;0.1355;-1.8894;
974175129668355;-9.1436;0.2243;-1.8129;
974175139765803;-9.3114;0.5022;-1.7073;
974175149872990;-9.7328;0.9667;-2.0258;
974175159980230;-10.2622;0.6458;-2.6249;
974175170073511;-10.3846;-0.0607;-1.9708;
974175180180699;-9.7687;0.3583;-0.9694;
974175190287938;-9.1890;0.7343;-0.7059;
974175200385803;-9.1555;1.4698;-1.7886;
974175210492990;-8.8322;1.7859;-1.6881;
974175220600230;-8.5424;1.3669;-0.9287;
974175230704553;-9.1316;1.8051;-1.4629;
974175240811740;-9.7256;2.2484;-1.3241;
974175250910230;-9.7041;2.2842;-0.5527;
974175261017470;-9.8192;2.5645;-1.2544;
974175271124709;-9.9676;2.5956;-2.3662;
974175281244553;-9.4597;1.9442;-2.1769;
974175291351740;-9.1436;1.3813;-2.0593;
974175301458980;-9.5845;0.4878;-2.2822;
974175311533303;-9.6897;-0.0296;-1.7288;
974175321640490;-9.5390;0.2818;-1.7001;
974175331747730;-9.4047;0.7585;-2.5863;
974175341841740;-9.7065;1.1010;-3.2237;
974175351948928;-9.7472;1.1369;-2.8837;
974175362056168;-8.8920;0.7944;-3.4729;
974175372156949;-8.7724;0.2291;-3.9401;
974175382264136;-8.4969;0.1499;-2.2463;
974175392371376;-7.7758;-1.7928;-1.0630;
974175402529240;-11.2875;-1.3496;-4.6585;
974175412636428;-11.0097;0.5955;-3.4155;
974175422743668;-9.4621;0.3296;-1.7961;
974175432778095;-9.0239;0.0852;-3.5758;
974175442885282;-8.1805;-1.6442;-3.4346;
974175452992522;-8.2765;-3.2707;-3.1062;
974175463107157;-9.4669;-2.9306;-2.6632;
974175473214293;-10.6457;0.1283;-2.1888;
974175483321480;-10.7366;2.4640;-1.1731;
974175493428720;-8.5663;1.4267;-2.9841;
974175503538511;-8.7099;-0.1256;-4.8861;
974175513645699;-9.0072;-2.3462;-4.8239;
974175523752938;-8.9423;-2.7365;-4.0358;
974175533848511;-8.6620;-1.4022;-4.4620;
974175543955699;-8.6955;-0.2907;-4.5628;
974175554062938;-9.4167;-0.4537;-3.4633;
974175564160282;-11.6587;-1.0286;-2.7996;
974175574267470;-11.5463;-2.2023;-1.5781;
974175584374709;-9.3640;-1.1124;-2.0569;
974175594456220;-8.2262;0.4807;-4.3711;
974175604563407;-8.2119;1.2063;-6.3425;
974175614670647;-8.6620;0.9165;-5.5834;
974175624763720;-8.3698;0.3248;-3.2046;
974175634870907;-8.6764;-0.1926;-1.9493;
974175644978147;-11.1942;0.0350;-3.0799;
974175655086428;-11.3091;-0.1184;-2.3351;
974175665193615;-9.7089;0.3033;-1.5685;
974175675300855;-10.0202;1.1656;-3.6957;
974175685406845;-8.4607;1.1489;-6.1678;
974175695514032;-7.9531;1.1680;-7.5404;
974175705621272;-7.0690;-0.0802;-5.7843;
974175715719449;-6.0751;-1.6804;-1.6140;
974175725826636;-9.3951;-0.7077;-1.7575;
974175735933876;-11.2732;0.6577;-3.5686;
974175746031949;-8.9806;-0.1041;0.4989;
974175756139136;-9.2106;-0.6861;0.9278;
974175766246376;-10.0418;-0.1663;0.0724;
974175776343199;-9.2154;1.4937;-0.0999;
974175786450386;-9.0215;2.3587;-0.9000;
974175796557626;-10.8515;2.3034;-3.1038;
974175806658928;-11.7452;1.3693;-3.1711;
974175816766115;-9.3544;0.1331;-0.0999;
974175826873355;-7.4333;-0.7723;0.7409;
974175836973147;-7.4620;0.2674;-3.5997;
974175847080334;-8.4392;3.1394;-8.3788;
974175857187574;-8.0082;4.9457;-8.6901;
974175867276845;-8.9279;4.0211;-6.8288;
974175877384032;-10.5162;1.7022;-4.0908;
974175887491272;-10.2287;1.2206;-2.3447;
974175897591740;-9.2803;2.4520;-3.3051;
974175907698928;-8.4200;3.3455;-5.0492;
974175917806168;-8.0441;2.8328;-7.5595;
974175927907470;-10.3654;1.6519;-11.3994;
974175938014657;-10.2718;0.5357;-9.8040;
974175948121897;-8.9734;1.1369;-7.1258;
974175958240699;-7.5266;1.5586;-6.1032;
974175968347886;-5.5840;0.2435;-3.7340;
974175978455126;-7.1746;0.6984;-6.8889;
974175988535282;-9.9604;1.5200;-9.4783;
974175998642470;-8.7075;1.8365;-7.3558;
974176008749709;-7.4596;1.2975;-6.4505;
974176018852470;-7.3732;1.3143;-7.5523;
974176028959657;-7.6825;2.2938;-6.3209;
974176039066897;-3.6843;2.4903;-5.8708;
974176049168668;-7.4189;2.1957;-10.1157;
974176059275855;-12.6601;3.5827;-10.4390;
974176069383095;-10.5832;4.5888;-4.6442;
974176079471011;-6.8895;5.3698;-1.0750;
974176089578199;-5.6509;4.9122;-3.0583;
974176099685438;-2.7930;3.2521;-6.3739;
974176109784657;-7.3277;2.6127;-8.2038;
974176119891845;-8.6189;2.4640;-6.5773;
974176129999084;-5.7706;0.7271;-2.5385;
974176140095074;-6.2928;-1.1677;-4.6537;
974176150202261;-1.7557;-0.4753;-7.4542;
974176160309501;-7.1746;-3.2013;-5.8181;
974176170405490;-17.6501;-4.6914;-3.8967;
974176180512678;-25.4689;-4.8733;3.0093;
974176190619918;-20.3522;-5.6904;4.3678;
974176200725803;-15.3024;-5.5585;-2.5528;
974176210832990;-11.2947;-8.1075;3.9843;
974176220940230;-3.1119;-4.7560;3.4478;
974176231039345;-5.3731;-2.2959;-2.6824;
974176241146532;-6.1684;-1.5126;0.4343;
974176251221636;-6.3072;-1.1462;2.6381;
974176261328824;-8.5519;-2.2624;1.5673;
974176271436011;-9.4645;-2.6743;-4.4046;
974176281553199;-15.3359;-2.2983;-6.2228;
974176291660386;-12.7056;-2.4996;-2.8789;
974176301767626;-12.4878;-1.3137;-5.6097;
974176311867730;-13.1991;-1.5987;-3.3482;
974176321974918;-6.2234;-0.3580;-1.3146;
974176332082157;-4.4892;-0.6622;-1.4270;
974176342180386;-5.3539;-0.8058;-3.1687;
974176352287574;-8.8537;-1.1052;-3.4705;
974176362394813;-11.5128;-0.7077;-3.3410;
974176372517990;-12.6649;0.0470;-5.2286;
974176382625178;-14.5238;-0.4394;-1.0295;
974176392732418;-8.8298;0.8207;1.5410;
974176402808720;-7.3516;0.8877;-0.7540;
974176412915907;-8.0680;0.2028;-0.9215;
974176423023147;-11.2493;0.3966;-0.6628;
974176433162990;-10.0155;1.0866;-0.6293;
974176443270178;-6.7505;1.5706;-3.0320;
974176453377418;-9.7472;0.4807;-5.6982;
974176463420647;-12.3248;-0.2572;-4.6059;
974176473527834;-10.4348;0.7513;-3.2046;
974176483635022;-7.4740;0.9045;-1.4701;
974176493742261;-5.2220;1.5057;-1.1133;
974176503843095;-8.0465;1.2709;-3.7531;
974176513950282;-11.0049;0.2841;-1.7192;
974176524057522;-6.5396;1.6232;3.0287;
974176534192209;-6.0703;2.2268;-1.8918;
974176544299397;-11.6683;-0.1567;-4.8885;
974176554406636;-7.8045;0.6218;-0.9335;
974176564475178;-8.6596;2.4784;-8.0698;
974176574582365;-9.7328;-0.4872;-14.1592;
974176584689605;-10.6648;2.1215;-18.8877;
974176594790230;-9.1771;1.9753;-12.0655;
974176604897418;-4.1970;1.2613;-3.9975;
974176615004657;-9.1077;1.5826;-3.8177;
974176625111324;-9.6275;2.7826;-0.5527;
974176635218511;-8.4969;0.9691;1.8356;
974176645325751;-11.6228;1.3286;-1.5060;
974176655422470;-12.8519;0.8495;-1.8535;
974176665529657;-9.2779;2.2651;-2.1482;
974176675636897;-5.8762;-0.0873;-4.3591;
974176685752886;-7.3421;-1.6322;-8.5777;
974176695860074;-9.0455;-0.8249;-9.4232;
974176705967313;-8.2143;-0.3843;-5.7867;
974176716030907;-8.5543;1.0125;-7.1477;
974176726138095;-9.4382;1.5778;-6.3500;
974176736245334;-7.5769;0.6625;-4.1219;
974176746359813;-9.3066;-0.0464;-5.1425;
974176756467001;-8.7003;-0.5518;-5.0085;
974176766574240;-9.0670;-0.3314;-1.6666;
974176776676011;-7.8882;-0.9688;0.4654;
974176786783199;-10.7079;-1.6513;-2.3423;
974176796890438;-9.7041;-2.9210;-4.9579;
974176806997365;-10.5592;-2.1233;-3.4848;
974176817104553;-7.5051;-1.7426;-1.7961;
974176827211793;-5.3683;-2.3294;-2.1051;
974176837298563;-10.0298;-1.9029;-4.8933;
974176847405751;-11.0767;-2.2648;-2.5672;
974176857512990;-11.9198;-1.5867;-3.2572;
974176867613928;-8.8131;-2.1736;-4.5604;
974176877721115;-15.2426;-3.7881;-4.1243;
974176887828355;-10.7007;-2.9713;0.6066;
974176897926480;-2.9082;0.1331;-1.1157;
974176908033668;-12.4636;-2.2863;-4.8287;
974176918140907;-14.7730;-2.4706;-2.5217;
974176928238511;-6.0126;-0.2237;-1.4174;
974176938345699;-0.6778;0.2315;-3.5710;
974176948452938;-6.8919;-1.7617;-7.7393;
974176958568095;-15.9227;-2.2098;-6.4385;
974176968675282;-11.2588;-0.1687;-2.0067;
974176978782522;-7.0283;0.1929;-1.8057;
974176988877678;-7.5697;-1.7737;-0.8402;
974176998984865;-8.1446;-3.0266;-2.8451;
974177009092105;-9.6873;-1.5820;-6.1295;
974177019183720;-10.0514;-0.6598;-3.4442;
974177029290907;-8.4440;-0.3266;-2.0521;
974177039398147;-7.6633;0.5859;-2.3276;
974177049503511;-8.5113;-0.4250;-3.7364;
974177059610699;-7.6872;-0.2907;-3.5949;
974177069717938;-8.5711;0.4807;-4.3759;
974177079804136;-10.6409;-0.0631;-3.7149;
974177089911324;-8.7772;0.9476;-1.3481;
974177100018563;-8.8418;0.4325;-1.8607;
974177110125074;-8.7772;0.2243;-3.7316;
974177120232261;-9.1173;0.0541;-6.0431;
974177130339501;-11.5343;-1.5796;-6.7451;
974177140436324;-10.8924;-0.9999;-3.6308;
974177150543511;-9.3712;0.8327;-1.3528;
974177160650751;-10.6672;0.2148;-1.6570;
974177170739553;-9.1890;0.3870;-1.2978;
974177180846740;-10.6983;0.3918;-3.6718;
974177190953980;-11.6949;0.5716;-0.5623;
974177201070803;-7.6582;0.8160;0.4558;
974177211177990;-6.4630;2.4999;-2.9889;
974177221285230;-6.2976;2.0952;-5.0010;
974177231374345;-10.9044;1.2685;-6.7044;
974177241481532;-11.4123;0.1881;-6.1702;
974177251588772;-8.6166;0.7753;-3.3505;
974177261687157;-8.3411;1.5849;-2.1458;
974177271792365;-9.6180;1.5368;-1.5781;
974177281897522;-6.9661;0.2243;-1.5996;
974177292004240;-7.9436;1.0125;-4.1028;
974177302109449;-9.3832;0.1810;-3.3194;
974177312214605;-8.0465;0.2483;-4.5580;
974177322312157;-7.8571;0.3057;-4.9220;
974177332417365;-5.3898;-0.0607;-5.4514;
974177342522522;-10.4827;0.1379;-5.8660;
974177352623980;-12.7032;0.3679;-4.4982;
974177362729136;-10.8781;1.2685;-2.1625;
974177372834293;-4.8126;1.4291;-1.9086;
974177382986845;-8.2334;-0.0730;-5.2262;
974177393092053;-11.5941;-1.0741;-5.6408;
974177403197209;-11.6973;-0.2668;-2.2439;
974177413236324;-8.2789;0.7008;-0.7445;
974177423341532;-8.5974;1.0340;-2.0306;
974177433446688;-9.2608;0.6314;-3.0823;
974177443558876;-10.8682;0.6458;-2.4452;
974177453664032;-15.5539;0.6242;-1.5326;
974177463769188;-16.0068;1.2808;1.4357;
974177473894553;-10.4228;1.0220;2.2382;
974177483999761;-3.8399;0.4831;-1.1061;
974177494104918;-2.2229;0.2339;-8.1607;
974177504185022;-6.5850;-0.6263;-10.2664;
974177514290178;-9.7113;-0.5662;-6.4193;
974177524395334;-5.5672;2.3539;-3.9544;
974177534528043;-8.7963;2.8424;-3.7771;
974177544633251;-10.2909;1.1895;-3.5973;
974177554738407;-10.4587;0.3009;-0.7875;
974177564815699;-7.1698;-0.2453;-0.9550;
974177574920907;-5.4257;-0.4202;-5.3988;
974177585026063;-10.4994;-0.5183;-7.7871;
974177595128355;-10.4181;-1.3256;-4.2538;
974177605233511;-8.4730;-1.0071;-1.0247;
974177615338668;-10.1019;-0.1256;-1.9540;
974177625447886;-7.8236;-0.2094;-2.5600;
974177635553095;-9.4430;-0.1663;-5.4562;
974177645658251;-12.0135;-0.4155;-6.7690;
974177655753511;-8.1565;-1.0813;-2.1434;
974177665858720;-2.2469;-0.1089;-4.0573;
974177675963876;-14.2196;1.4315;-10.2903;
974177686078824;-18.2871;1.2541;-5.4419;
974177696184032;-8.8705;-0.1328;5.4625;
974177706289188;-3.7250;0.6338;5.4529;
974177716380595;-7.5003;2.8759;-1.2162;
974177726485803;-9.8599;2.8065;-6.2252;
974177736590959;-11.7667;2.0928;-4.7569;
974177746698720;-7.9771;0.5501;-0.7875;
974177756803928;-6.1469;0.3799;-2.0234;
974177766909084;-7.5386;0.6194;-4.6155;
974177777014449;-9.2225;-0.1017;-5.0010;
974177787119657;-12.0111;-0.7005;-5.1951;
974177797224813;-9.7615;-1.5676;-0.4089;
974177807329345;-7.4788;-1.3161;-0.6245;
974177817434553;-10.5449;0.2243;-3.3362;
974177827539709;-9.7113;-0.6096;-3.4370;
974177837636428;-12.7152;-0.1998;-2.1769;
974177847741636;-11.5893;-0.5423;-1.1157;
974177857846793;-8.7652;-0.0511;0.8246;
974177867960907;-1.4133;0.8830;-3.2836;
974177878066115;-3.3200;0.5788;-9.0999;
974177888171272;-20.5463;1.4841;-7.7847;
974177898271428;-10.1689;-2.1855;0.5492;
974177908376636;-15.5683;-0.6766;3.6443;
974177918481793;-18.5746;-0.4226;1.9795;
974177928573824;0.7331;-1.2897;2.8920;
974177938679032;-18.0404;0.4014;-4.5772;
974177948784188;-12.6577;-3.2037;-2.3782;
974177958911115;-0.9221;-0.8803;-1.8416;
974177969016324;-6.8151;1.2832;-5.6216;
974177979121480;-6.4439;-2.1688;-8.2086;
974177989201115;-11.7500;-0.1328;-8.3644;
974177999306324;-12.4110;-1.6657;-0.1959;
974178009411480;-3.5764;-2.0109;0.5180;
974178019514136;-9.7759;1.7692;-8.7646;
974178029619345;-11.2540;0.3918;-4.1746;
974178039724501;-4.5084;-3.8049;-3.2668;
974178049830907;-7.0834;-0.5375;-9.6126;
974178059936115;-10.7988;-0.0706;-8.4817;
974178070041272;-10.5114;-1.0884;-2.5863;
974178080154761;-8.9375;0.4373;2.4751;
974178090259970;-2.5896;-0.7005;-2.7996;
974178100365126;-12.4421;0.6888;-11.6701;
974178110451115;-14.7251;1.2302;0.9876;
974178120556324;-0.5342;-1.2610;11.7506;
974178130661480;-2.2325;0.2865;-9.0808;
974178140770230;-18.8453;-0.9616;-21.6212;
974178150875438;-10.8852;-3.2061;-7.8278;
974178160980595;-10.5568;-4.1405;1.4261;
974178171076011;-4.7719;0.2195;0.7816;
974178181181220;-13.4124;1.8915;-7.0062;
974178191286376;-15.5372;3.2689;-1.3074;
974178201379605;-4.2114;0.5955;5.2205;
974178211484761;-6.9159;1.5897;-4.2395;
974178221589918;-11.0312;1.6065;-4.7498;
974178231701428;-7.1698;1.5682;0.5324;
974178241806636;-7.4979;2.3369;0.1086;
974178251911793;-6.9326;2.1526;-4.3089;
974178262007626;-9.6227;1.8485;-6.3930;
974178272112053;-11.1799;0.5118;-1.2882;
974178282216480;-5.8331;-0.0945;0.2354;
974178292359032;-5.5648;1.0364;-5.9545;
974178302463459;-9.5821;0.9093;-5.2502;
974178312567886;-11.3617;0.2794;-1.8248;
974178322642105;-7.5697;-0.4442;-4.3472;
974178332746532;-11.0551;0.0350;-2.8020;
974178342851011;-12.8566;0.1929;0.7481;
974178352949501;-7.9771;0.8638;1.0714;
974178363053928;-6.3697;-0.3194;-1.1707;
974178373158355;-9.3592;-0.3628;-4.1698;
974178383258980;-10.8538;-0.6239;-2.9841;
974178393363407;-6.8847;-0.2453;-1.5251;
974178403467834;-7.9146;-0.7436;-2.2869;
974178413587209;-15.7385;-0.8707;-2.7757;
974178423691636;-10.6600;-0.2764;0.6500;
974178433796063;-6.1971;0.6577;-0.2653;
974178443908876;-8.7218;-0.0320;-4.2371;
974178454013303;-13.4937;-1.2562;-2.9148;
974178464117730;-10.1091;-0.2046;0.5611;
974178474239345;-6.1110;0.8949;-1.1468;
974178484343772;-8.5208;0.5620;-4.6155;
974178494448199;-10.5353;-1.8790;-3.1448;
974178504520751;-7.8093;-1.5891;-2.8908;
974178514625178;-8.5735;-1.4192;-5.3294;
974178524729605;-7.7495;-1.7856;-3.5614;
974178534866688;-10.5808;-1.7378;-2.5911;
974178544971115;-9.9915;-2.2959;-2.1625;
974178555075543;-10.9714;-1.2156;-2.0186;
974178565153199;-8.4583;-1.0669;-0.3586;
974178575257626;-9.3712;-1.0908;-2.4188;
974178585362053;-9.8695;-2.2023;-5.0922;
974178595458876;-9.3855;-2.0468;-3.3912;
974178605563303;-10.6935;-1.7569;-2.6130;
974178615667730;-8.9758;-0.2213;-1.8703;
974178625779709;-6.5874;0.1331;-2.5576;
974178635884136;-11.8481;-0.9975;-3.7029;
974178645988563;-10.9594;-0.4729;-2.6106;
974178656094449;-8.1470;0.5094;-1.7384;
974178666198876;-6.4008;0.7370;-2.9363;
974178676303303;-7.9771;-1.7019;-5.3629;
974178686408772;-16.4665;-0.8850;-3.1759;
974178696513199;-15.6090;0.3368;1.8954;
974178706617626;-3.3057;-2.2696;1.3277;
974178716735751;-3.5668;-0.2788;-6.1080;
974178726840178;-8.4682;-0.2955;-9.1645;
974178736944605;-9.9556;0.4229;-6.3233;
974178747040647;-12.7415;1.3621;-1.4940;
974178757145074;-9.6443;1.2422;1.7207;
974178767249501;-5.8666;0.4684;-2.5481;
974178777349293;-9.4789;-0.1950;-6.4098;
974178787453720;-10.8805;1.0412;-3.5877;
974178797558147;-9.6586;0.8734;0.9924;
974178807656793;-8.2980;0.6817;-2.8259;
974178817761220;-7.7207;0.0900;-5.8421;
974178827865647;-8.2502;-0.2166;-3.2788;
974178837971115;-9.1914;-0.1687;-3.0751;
974178848075543;-7.6128;-0.5088;-8.1631;
974178858179970;-13.3238;0.5261;-5.7126;
974178868304918;-10.3869;0.7992;1.9747;
974178878409345;-8.9255;1.7620;1.3947;
974178888513772;-12.8375;1.6424;-1.3217;
974178898595438;-8.3554;1.2326;0.0317;
974178908699865;-5.8140;1.5993;-2.3037;
974178918804293;-9.3640;1.2015;-7.1234;
974178928916480;-5.1048;1.1752;-4.7498;
974178939020907;-5.3276;-0.0873;-6.9823;
974178949125334;-11.5152;0.9356;-5.5690;
974178959235959;-13.4626;0.3344;-3.2788;
974178969340386;-10.1928;0.8925;1.4357;
974178979444813;-1.6241;0.5668;-0.7971;
974178989543980;-6.4152;1.4961;-6.1654;
974178999648407;-14.4090;0.0087;-5.1353;
974179009752834;-18.4765;0.3416;1.4115;
974179019851376;-10.6122;-0.6263;3.1795;
974179029955803;-1.8852;0.3894;0.1828;
974179040060230;-5.5863;-0.1567;-7.6986;
974179050164605;-14.9599;-0.4825;-8.5083;
974179060269032;-11.5726;-0.9209;-1.0199;
974179070373459;-7.1842;0.4854;1.8021;
974179080472313;-9.3257;1.0771;-1.3122;
974179090576740;-8.7099;0.0302;-1.8248;
974179100681168;-8.4440;0.6482;-5.1305;
974179110793147;-10.3292;-0.3724;-4.8574;
974179120897574;-8.2717;-0.1663;-1.0295;
974179131002001;-7.5577;0.2913;-0.8833;
974179141100959;-4.2808;0.1379;-3.8608;
974179151205386;-6.2402;0.2578;-8.8173;
974179161309813;-12.6793;0.1044;-9.9072;
974179171420543;-12.3033;-1.1677;-2.0979;
974179181524970;-5.4712;-0.1424;1.8500;
974179191629397;3.0520;0.3368;-4.2658;
974179201752001;-12.9978;1.7501;-10.1348;
974179211856428;-45.4666;-0.3266;1.8930;
974179221960855;-15.4798;-3.2133;19.0687;
974179232037365;11.9608;-1.8407;8.8376;
974179242141793;-4.7432;-0.6742;-10.8509;
974179252230907;-13.5826;-0.3437;-17.0650;
974179262335282;-11.1365;0.9547;-7.0995;
974179272439657;-4.3119;0.6529;4.5281;
974179282544136;-4.3430;1.5538;0.1995;
974179292662418;-12.2746;1.7022;-4.9579;
974179302766845;-6.4032;-0.0105;-4.7498;
974179312871324;-9.6323;0.6817;-6.1774;
974179323004501;-9.8264;0.2100;-2.3830;
974179333108928;-8.6548;-0.2333;4.6528;
974179343213355;2.6566;-0.5207;-1.6355;
974179353277938;-10.0780;-2.2122;-29.2723;
974179363382365;-26.1542;-1.9726;-19.9202;
974179373486793;-9.9676;-2.7464;15.3006;
974179383627834;-0.8168;-0.2453;13.6549;
974179393732261;-16.1982;0.5094;-4.1865;
974179403836688;-15.1442;0.0685;-1.5781;
974179413920855;-3.2626;0.5692;4.2311;
974179424025282;-1.3415;0.5477;-1.4533;
974179434129709;-12.7561;0.9452;-10.6089;
974179444251688;-13.3190;1.6998;-3.8656;
974179454356115;-5.7924;0.2267;0.3359;
974179464460543;-7.2727;-1.0669;-6.3811;
974179474571688;-12.2267;-0.1735;-3.7436;
974179484676115;-7.2177;-0.2213;-0.8569;
974179494780543;-12.7247;-0.8560;-5.7293;
974179504855438;-12.3727;-0.9162;-2.9602;
974179514959865;-3.1092;-0.6598;1.3086;
974179525064293;-6.6236;-0.6766;-5.3366;
974179535170438;-12.1427;0.2722;-6.3329;
974179545274865;-11.0671;-1.3472;-0.9694;
974179555379293;-9.4573;-0.5255;-0.8210;
974179565492105;-4.6280;-0.0320;-2.1482;
974179575596532;-6.1110;-0.1448;-5.8995;
974179585700959;-13.7381;-0.6670;-6.0239;
974179595795855;-11.8648;-1.8479;-0.2294;
974179605900282;-8.2621;-0.6766;-0.2509;
974179616004709;-9.4573;-0.4920;-4.5102;
974179626115751;-10.5257;-0.8249;-3.4011;
974179636220178;-10.1641;0.1092;-0.8617;
974179646324605;-8.6620;0.1140;0.1349;
974179656423876;-12.6099;-0.1663;-2.9985;
974179666528303;-14.2244;-1.0717;0.8581;
974179676632730;1.3128;0.1522;-2.9411;
974179686742938;-5.8929;1.1632;-9.1454;
974179696847365;-14.0184;-0.0969;-4.3424;
974179706951793;-9.3688;-1.5221;0.0317;
974179717076063;-7.9412;-2.4948;-1.3241;
974179727180490;-8.8561;-0.3365;-5.4945;
974179737284918;-7.0068;0.4711;-3.7005;
974179747375699;-8.5974;0.1259;-3.9326;
974179757480126;-13.0579;-0.4825;-2.7135;
974179767584553;-9.3736;-1.0741;-0.8163;
974179777684605;-8.8059;-0.5016;-1.8894;
974179787789032;-6.2521;-0.3147;-5.6575;
974179797893459;-7.0594;-0.4490;-7.1139;
974179808002418;-14.2173;-0.1304;1.2655;
974179818106845;-13.8123;-1.4384;3.4525;
974179828211272;-10.8515;0.3248;-2.3109;
974179838316376;-10.5018;1.7166;-1.7025;
974179848420803;-4.2927;1.1177;2.0584;
974179858525230;-5.8164;1.5849;-2.9052;
974179868624136;-8.7700;0.1594;-7.1282;
974179878728563;-13.5993;-0.0535;-5.5522;
974179888832990;-10.7940;-1.0310;-1.9923;
974179898936063;-5.5433;0.3583;-2.4452;
974179909040490;-7.4716;0.2841;-5.0803;
974179919144918;-15.4582;0.3990;-2.6656;
974179929242522;-4.9226;-0.9879;2.9160;
974179939346949;-5.0043;-0.2692;-7.5141;
974179949451376;-11.7165;-0.5710;-10.0965;
974179959576584;-14.7060;-1.2969;-0.7253;
974179969681011;-5.7443;-0.5853;3.5459;
974179979785438;-5.4473;0.9452;-0.7708;
974179989869813;-12.7176;-0.0535;-4.3089;
974179999974240;-12.2124;-1.3878;-2.0812;
974180010078668;-6.3864;0.1594;-1.6666;
974180020183668;-7.5218;-0.7555;-2.1266;
974180030288095;-9.6778;-1.1414;-3.3984;
974180040392522;-10.3367;-0.7555;-3.6452;
974180050501793;-10.2909;-1.1581;-1.3863;
974180060606220;-10.9211;-1.3376;-1.0989;
974180070710647;-12.2267;-0.8082;-0.5623;
974180080833043;-9.8551;-1.6756;1.7447;
974180090937470;-8.3291;0.1187;-1.4103;
974180101041897;-7.9771;-0.1089;-4.2826;
974180111117938;-5.9240;-0.9257;-4.3878;
974180121222365;-12.1116;-2.3797;-4.9196;
974180131326793;-10.6098;-2.3797;-2.7135;
974180141435438;-8.2071;-1.8120;-0.5408;
974180151539865;-9.8073;-0.0392;-2.7972;
974180161644293;-8.1924;0.0733;-2.5265;
974180171742626;-9.6084;-0.9449;-1.8775;
974180181847053;-8.5543;-1.7210;-3.5662;
974180191951480;-6.4032;-0.9951;-5.8636;
974180202072626;-10.8132;-1.3137;-5.5570;
974180212177053;-11.1918;-1.6202;-2.2152;
974180222281480;-9.1412;-1.0334;-0.8665;
974180232381949;-7.8787;0.3894;-1.8918;
974180242486376;-11.5080;-1.5293;-2.6800;
974180252590803;-13.7213;-1.2036;-1.2619;
974180262675751;-6.7744;-0.0200;0.2809;
974180272780230;-2.8747;0.9212;-1.4103;
974180282884657;-8.6979;-0.4442;-5.0204;
974180293010022;-10.3149;0.3751;-4.4886;
974180303114449;-6.7481;0.5572;-2.5122;
974180313218928;-2.3477;0.2339;-2.6082;
974180323330126;-6.2402;-0.1089;-7.4973;
974180333434553;-17.5062;-0.9138;-5.1568;
974180343539032;-16.9481;-0.4490;3.2393;
974180353647626;-16.3349;-0.7292;3.0165;
974180363752105;-15.8940;-1.3328;1.9819;
974180373856532;-13.2541;-1.5628;4.7390;
974180383955595;-11.6061;-1.2754;4.7773;
974180394060022;-8.4344;0.4516;1.9675;
974180404164501;11.1775;0.7920;-3.7412;
974180414254709;-10.2718;-1.1267;-8.1224;
974180424359188;-43.5021;-0.2812;-3.7220;
974180434463615;-22.1680;3.0030;9.9395;
974180444557626;16.7949;2.4257;3.3640;
974180454662053;9.4502;-2.1616;-7.6768;
974180464766532;-15.0030;-4.5069;-18.3775;
974180474897938;-14.6892;0.5524;-16.1187;
974180485002365;-6.5874;1.6854;-9.2052;
974180495106845;-10.7103;1.1632;-4.9699;
974180505190022;-14.5430;3.8318;-3.8130;
974180515294449;-13.8963;3.1107;3.4262;
974180525398928;6.2644;2.8328;10.3205;
974180535505022;0.1702;-0.3700;-19.5299;
974180545609449;-22.2302;-5.9803;-22.2583;
974180555713928;-16.4426;-1.2299;7.7548;
974180565833459;-8.4416;6.8572;15.2049;
974180575937886;-7.2344;5.7290;0.3455;
974180586042313;-9.2058;-1.4240;-0.9598;
974180596132209;-10.0202;-1.9053;3.9652;
974180606236688;-4.0723;-0.9090;1.6080;
974180616341115;-7.0164;1.9537;-10.2832;
974180626449397;-14.3369;0.3248;-7.4423;
974180636553824;-3.9909;2.6103;3.2728;
974180646658303;-3.7466;3.7959;-3.2070;
974180656764709;-13.2975;1.6256;-8.7838;
974180666869136;-7.4022;1.9896;0.8151;
974180676973615;-6.5348;2.6342;-2.5911;
974180687074605;-12.0087;0.6314;-10.0436;
974180697179032;-12.3655;-0.4155;-2.3542;
974180707283511;-8.7485;0.5070;2.0034;
974180717376063;-11.7978;-1.1052;-1.8918;
974180727480543;-7.5649;-1.8287;-0.8856;
974180737584970;-7.1073;-1.0836;-0.4328;
974180747692626;-10.2574;-0.2524;-0.9287;
974180757797053;-7.8787;0.7561;-1.3050;
974180767901532;-12.2937;0.4110;-1.9780;
974180778016376;-16.2655;-0.0993;0.5659;
974180788120803;-5.6486;0.4636;-0.8593;
974180798225282;-5.9480;0.4588;-4.9388;
974180808324813;-14.1742;-0.2189;-2.4093;
974180818429240;-9.0431;-0.0296;-4.4767;
974180828533720;-7.5601;-0.4346;-5.7030;
974180838645855;-7.8236;0.2387;-3.2836;
974180848750282;-11.5511;0.3153;-2.4739;
974180858854761;-9.6849;0.7490;-1.6594;
974180868960647;-11.2588;1.5538;1.2703;
974180879065074;-10.8323;-0.7531;-0.5384;
974180889169553;-8.6166;-0.2716;-8.8795;
974180899269813;-7.1530;-0.7316;-3.0440;
974180909374240;1.5356;2.2340;2.4200;
974180919478720;2.8531;0.6697;-13.1865;
974180929581532;-29.3593;-0.0105;-11.3946;
974180939685959;-38.9124;1.6711;9.2354;
974180949790438;-6.4558;1.6902;14.2636;
974180959907626;15.5827;-1.5580;-0.5168;
974180970012053;-1.3199;-2.2361;-5.9402;
974180980116532;-22.4196;-0.3891;-7.8757;
974180990211063;-33.6712;1.7094;-6.1822;
974181000315490;2.0195;-0.9233;5.4072;
974181010419970;13.7743;0.6673;4.5425;
974181020518147;-10.2694;1.4459;-6.3329;
974181030622626;-16.1767;0.4038;-2.7063;
974181040727053;-8.0584;2.8256;-9.9168;
974181050827313;-14.3659;-0.1543;-24.7041;
974181060931740;-10.6098;-1.6947;-3.4107;
974181071036220;-1.4396;0.1714;16.2996;
974181081141063;-5.3683;1.6926;5.5678;
974181091245490;-11.9127;-0.1232;-14.7891;
974181101349970;-22.2733;-2.1808;-12.9661;
974181111458355;-11.6997;0.1977;16.2565;
974181121562834;2.4027;1.9513;13.9854;
974181131667261;-12.7080;-0.9185;-10.5395;
974181141763251;-14.5406;-1.4791;-2.0426;
974181151867730;-4.2664;-0.3437;4.4731;
974181161972157;-11.7021;0.8423;-4.2443;
974181172084813;-10.0708;1.5272;-0.8115;
974181182189240;-6.6236;0.7490;-0.7059;
974181192293668;-10.8829;-0.3963;-5.8277;
974181202434293;-8.7003;0.8662;-3.1448;
974181212538720;-7.9795;-0.2477;-3.2644;
974181222643147;-13.6137;-0.5758;-5.5304;
974181232703407;-9.6921;0.0087;0.4104;
974181242807886;-5.9312;-1.0813;0.8967;
974181252912313;-10.9092;-0.3147;-2.3351;
974181263035543;-10.0947;-0.6861;-2.5146;
974181273140126;-11.3498;-0.9042;-1.6642;
974181283244761;-10.0657;-0.6622;-0.1860;
974181293340074;-9.3162;-1.3878;-0.6150;
974181303444657;-12.1714;-1.2323;-1.7910;
974181313549293;-10.3053;-0.3987;0.9948;
974181323639709;-5.8164;-1.1291;0.2186;
974181333744345;-10.4348;-0.6096;-3.2261;
974181343848928;-11.9680;-0.8632;0.1301;
974181353961897;-9.5195;0.7705;-1.1611;
974181364066532;-9.5510;-1.0334;-4.2009;
974181374171063;-7.0618;-0.5040;-0.9622;
974181384291845;-8.0680;-0.8177;-1.7886;
974181394396480;-12.0661;-0.5207;-4.3902;
974181404501063;-7.7112;-0.5495;-3.2309;
974181414587522;-9.3233;-0.8177;-1.8392;
974181424692157;-11.8768;0.0757;-0.6341;
974181434796740;-8.8466;0.2818;2.0058;
974181444900543;-6.1660;-0.0057;-1.9373;
974181455005178;-9.4286;0.1307;-5.0085;
974181465109761;-9.2803;-0.2142;-1.3050;
974181475224188;-9.9197;0.1164;0.7624;
974181485328824;-9.2632;-0.0320;-1.3792;
974181495433407;-12.4277;-0.7220;-1.7408;
974181505529032;-14.1215;0.3990;-0.8115;
974181515633668;-11.2421;1.2111;2.6931;
974181525738251;-5.6486;-1.0813;1.6271;
974181535842105;-10.2191;-0.1017;-1.8607;
974181545946740;-10.8203;1.4841;-3.4442;
974181556051324;-8.1063;-0.2955;-0.9622;
974181566163876;-7.7734;1.2784;-1.8009;
974181576268511;-7.1049;1.5562;-4.5245;
974181586373095;-10.1521;0.7777;-3.9832;
974181596469084;-11.4577;1.5296;-3.3577;
974181606573720;-7.8380;1.4818;-5.4897;
974181616678303;-12.9667;-1.1462;-2.5409;
974181626779865;-15.0724;0.9763;-1.3624;
974181636884501;-3.1092;1.3047;-1.9181;
974181646989084;-5.9623;-0.8608;-1.8176;
974181657098147;-11.3282;0.3344;-0.3036;
974181667202782;-9.0311;1.6400;-1.3504;
974181677307365;-10.3654;0.2411;-1.7264;
974181687422626;-10.5090;0.9954;-1.2930;
974181697527261;-9.3568;0.5261;-0.8402;
974181707631845;-8.8896;-0.3820;-0.9239;
974181717711376;-10.3654;2.7060;0.8031;
974181727816011;-8.9160;-0.2309;-6.3425;
974181737920595;-12.9763;-0.4178;-5.6791;
974181748029188;-9.4813;1.5033;2.8920;
974181758133824;-5.0880;-0.6933;-0.4977;
974181768238407;-8.2454;0.0111;-3.1519;
974181778358303;-10.1019;0.2363;-2.9243;
974181788462938;-13.5754;-0.0778;-3.0248;
974181798567522;-9.5533;-0.9927;-0.3299;
974181808649970;-8.1565;0.1379;0.1445;
974181818754605;-8.0632;0.0422;-3.4633;
974181828859188;-9.4406;-1.4097;-2.7661;
974181838977938;-13.7596;-0.0248;-0.7131;
974181849082574;-7.4572;-1.5580;-1.5709;
974181859187157;-9.2560;-0.6311;-1.6642;
974181869307470;-12.2985;-0.7244;-1.6020;
974181879412105;-10.5688;0.0087;-0.0975;
974181889516688;-6.9326;-1.4097;0.5109;
974181899598251;-9.4406;-0.5136;-1.9540;
974181909702886;-8.5400;0.2100;-2.4476;
974181919807470;-7.8260;-1.8694;-3.6308;
974181929917105;-9.9102;-0.3843;-1.7169;
974181940021740;-11.9800;-0.9999;-2.5217;
974181950126324;-11.1918;-1.0813;-3.1014;
974181960267834;-6.8704;-0.9401;-0.9550;
974181970372418;-11.0862;-0.1256;-2.0354;
974181980477053;-14.5310;-0.8177;0.6930;
974181990548355;-6.3673;-0.4202;1.0092;
974182000652990;-8.7461;-1.0932;-2.6728;
974182010757574;-16.4210;0.0422;-0.2964;
974182020852522;-14.2364;-0.7938;2.9040;
974182030957157;-4.3741;-0.1974;1.4043;
974182041061740;-0.1603;-1.3615;-1.4821;
974182051162418;-10.0657;-0.6311;-6.5629;
974182061267053;-16.0953;-0.0368;-5.7676;
974182071371636;-5.9001;-0.6837;0.5970;
974182081517626;-2.6327;-0.1304;-4.7737;
974182091622209;-15.6377;-0.1854;-8.3548;
974182101726845;-16.3708;-0.5925;1.4357;
974182111789397;-3.1884;0.1331;2.0177;
974182121894032;-6.6212;-0.9640;-6.6876;
974182131998615;-9.0909;-0.8177;-4.6083;
974182142099709;-10.2981;-0.5614;2.7434;
974182152204293;-13.4243;1.6328;1.9169;
974182162308928;-10.3487;0.2650;2.1661;
974182172440126;-6.9589;0.2148;0.3505;
974182182544709;-5.0593;-0.3963;-0.1935;
974182192649345;-4.5012;0.6338;-2.5193;
974182202742001;-12.2650;-0.0033;-10.2138;
974182212846636;-17.2666;-0.5231;-3.6141;
974182222951220;-5.1646;0.0948;6.7825;
974182233078980;-14.8113;1.1369;1.8523;
974182243183563;-18.2871;1.2927;-1.3959;
974182253288199;-6.9111;0.1403;3.5506;
974182263338147;-4.1898;-0.5686;-0.9766;
974182273442313;-7.9316;-0.9855;-3.8441;
974182283546480;-11.7595;0.5979;-2.8741;
974182293663563;-10.6624;0.1307;0.3817;
974182303767730;-6.4678;-0.3290;0.1804;
974182313871897;-9.9150;1.3214;-4.9603;
974182323988876;-11.2445;-0.4178;-2.7805;
974182334093043;-8.4512;-0.0607;-3.3027;
974182344197209;-9.8025;0.3990;-7.6576;
974182354293772;-8.6046;0.0924;-3.6885;
974182364397938;-8.2525;-0.6287;0.1325;
974182374502157;-17.5950;-0.3820;-2.3638;
974182384632001;-17.9997;0.9667;2.9231;
974182394736168;-9.0144;-0.0682;6.2961;
974182404840334;-4.0603;-0.2716;-1.1468;
974182414922730;-5.1144;-0.8393;-2.7972;
974182425026897;-12.7657;0.8231;-2.3133;
974182435131063;-9.7807;0.8112;-1.4198;
974182445236115;-6.7409;1.4363;-2.4811;
974182455340282;-6.9087;-0.4920;-2.1386;
974182465444449;-8.6836;0.6817;-3.5016;
974182475553980;-12.6171;0.4062;-5.7820;
974182485658147;-12.1905;-0.3963;-5.3198;
974182495762313;-8.1350;-1.5772;-3.1253;
974182505862938;-11.1317;0.8949;-0.7155;
974182515967105;-11.8050;-1.6274;0.8103;
974182526071272;-6.6212;0.7609;1.2870;
974182536169657;-4.9995;-1.1701;-0.8210;
974182546273824;-11.9848;-0.0607;-2.6465;
974182556377990;-15.8198;0.2363;0.2976;
974182566494605;-8.6070;-0.1041;2.9925;
974182576598772;-4.4844;-0.8465;-1.1420;
974182586702938;-8.8466;-0.2453;-4.3472;
974182596804813;-13.5368;0.5596;-1.4844;
974182606908980;-10.0947;-1.0813;-3.1014;
974182617013147;-7.1240;-0.7890;-1.6451;
974182627121897;-6.8438;0.4711;-2.0498;
974182637226063;-7.2224;-1.2897;-1.0822;
974182647330230;-9.8169;-0.6837;-5.5522;
974182657428668;-11.7308;-0.4633;-5.3797;
974182667532834;-4.7671;-1.1629;-0.8450;
974182677637001;-10.8634;-1.7210;-0.8354;
974182687728772;-18.9150;0.5596;0.8294;
974182697832938;-13.3478;-1.3998;3.0141;
974182707937105;-6.6452;-0.7699;2.3626;
974182718047209;-7.1339;0.4783;-0.3778;
974182728151376;-10.8036;0.5453;-0.8354;
974182738255543;-11.4817;-0.0248;-0.4519;
974182748368980;-6.4941;-0.3266;-0.3012;
974182758473147;-7.9217;-0.1472;-0.5647;
974182768577313;-13.6998;-0.5542;-2.0115;
974182778683668;-8.5759;-0.0706;0.4104;
974182788787834;-6.3096;-2.1138;-7.5141;
974182798892001;-14.5047;-0.6933;-9.1765;
974182808992522;-9.3305;-0.4729;2.4033;
974182819096688;-4.4004;-2.2887;0.4869;
974182829200855;-10.9977;-2.1855;-7.5404;
974182839316168;-15.4391;-0.5423;-3.7675;
974182849420334;-13.8075;-1.2658;5.2014;
974182859524501;-4.6902;-2.1688;3.3305;
974182869630230;-6.8632;0.0422;-4.3208;
974182879734397;-11.1150;1.1225;-4.6561;
974182889838563;-8.7437;-0.5590;1.2176;
974182899933980;-4.2066;-0.5997;-1.0152;
974182910038147;-10.6672;0.0709;-6.8937;
974182920142313;-12.0111;-0.0320;-3.5949;
974182930243615;-7.2512;-0.5758;1.5529;
974182940347782;-6.9446;-0.9999;-2.7230;
974182950451949;-12.8782;-0.7579;-7.0397;
974182960563147;-13.1417;-0.9497;-2.3830;
974182970667261;-8.3459;-0.3580;1.2440;
974182980771480;-10.9929;0.3894;1.3038;
974182990888668;-11.1150;-0.1232;0.5539;
974183000992834;-7.1459;-0.4681;0.6906;
974183011097001;-7.0905;0.3870;-0.9072;
974183021184293;-11.6444;-0.1639;-1.9899;
974183031288459;-10.2335;0.1140;0.9039;
974183041392678;-6.4774;0.4998;0.5970;
974183051497105;-8.9638;-0.4083;-4.3974;
974183061601272;-15.1828;0.1714;-6.3066;
974183071705438;-7.1554;1.1776;0.7265;
974183081821480;0.3018;-1.5341;-2.9578;
974183091925647;-9.1244;0.1762;-11.1120;
974183102029813;-15.7337;-0.4609;-4.3926;
974183112115855;-14.0231;-0.2716;4.0107;
974183122220022;-12.9141;0.5501;1.3397;
974183132324240;-7.5721;-0.0392;-0.5216;
974183142477626;-4.1201;-0.1496;0.9230;
974183152581793;-13.1297;0.1379;-2.1577;
974183162685959;-11.3976;0.7032;-0.3730;
974183172739918;-8.8059;1.6448;0.3096;
974183182844136;-8.2669;1.2760;0.2880;
974183192948303;-6.6978;0.7394;0.5803;
974183203144449;-11.5606;1.0507;-4.3280;
974183213248668;-7.4644;0.2674;-4.3376;
974183223352834;-8.9040;-0.0344;-5.4873;
974183233368251;-14.1407;-0.6718;-5.5184;
974183243472418;-6.1971;0.9212;0.5037;
974183253576584;-2.6495;0.0446;-3.6909;
974183263686115;-8.9973;0.0494;-6.7522;
974183273790595;-10.4109;0.1594;-1.0869;
974183283895022;-3.7633;0.5931;-2.2008;
974183294004293;-15.6832;0.0948;-1.9086;
974183304108772;-11.4745;0.3703;-0.6173;
974183314213199;7.7303;1.7237;0.0823;
974183324338459;-54.1023;-3.1582;9.7840;
974183334442938;-24.9156;0.3870;-6.2803;
974183344547365;24.3000;-1.2778;10.4833;
974183354630699;8.3554;3.4702;13.4851;
974183364735178;-25.3660;-0.0778;-6.5653;
974183374839605;-25.5431;-1.7067;-4.6944;
974183384935282;-2.4410;2.0183;2.2382;
974183395039761;6.6260;3.0126;-6.3329;
974183405144188;-12.3607;-0.7149;-11.5050;
974183415253199;-11.6037;0.9260;2.7147;
974183425357678;6.3864;-3.6350;-16.9188;
974183435462105;-32.2867;-7.0463;-36.9093;
974183445565543;-15.6353;-0.0826;13.4513;
974183455670022;8.4562;2.2220;23.8358;
974183465774449;-14.9862;0.5764;-12.6380;
974183475889813;-17.0222;-1.4647;-10.2209;
974183485994293;-9.5315;-2.3821;9.2641;
974183496098720;-3.7035;2.5238;6.7825;
974183506205543;-2.7954;-0.4801;-1.7623;
974183516310022;-18.1316;0.0135;-2.8860;
974183526414449;-14.9575;3.0700;5.1751;
974183536515282;2.7547;0.0326;-1.4222;
974183546619761;-11.8552;0.1929;-10.3406;
974183556724188;-13.7118;1.3621;0.6165;
974183566836688;-7.5434;0.2889;-2.1194;
974183576941168;-13.3837;0.6482;-10.0627;
974183587045595;-5.7610;0.3009;2.3698;
974183597139293;-4.1632;0.0565;-1.7575;
974183607243772;-16.2344;0.7008;-8.2086;
974183617348199;-6.9757;-0.4250;3.0263;
974183627451949;-4.6208;0.4974;0.8222;
974183637556428;-13.8027;-0.3218;-6.1319;
974183647660855;-9.3257;-0.5327;3.7759;
974183657765438;-4.6400;0.1451;-1.6164;
974183667869865;-11.0240;-0.9209;-6.1582;
974183677974345;-11.0216;0.8925;2.4488;
974183688099136;-8.8537;0.2578;-0.6915;
974183698203615;-8.3554;0.4373;-3.4729;
974183708308043;-8.4607;0.0876;-0.4810;
974183718406793;-12.3057;0.6434;-1.9205;
974183728511272;-13.1465;-0.4035;-0.3897;
974183738615699;-8.8346;0.9811;0.6500;
974183748712782;-8.8179;-1.2395;-1.7001;
974183758817261;-14.2125;-0.0344;-1.0534;
974183768921688;-4.0484;1.6926;4.0274;
974183779023615;-4.7456;-1.4551;-5.2693;
974183789128043;-18.1508;0.6817;-5.9545;
974183799232522;-11.5774;1.0172;5.6539;
974183809319293;-5.9121;-0.9808;-2.6560;
974183819423772;-6.1875;0.2674;-5.8469;
974183829528199;-7.4166;0.0206;-1.5685;
974183839657834;-12.6123;-0.7292;-3.5040;
974183849762313;-11.3641;-0.3963;-3.8584;
974183859866740;-6.7050;-0.9305;-3.1038;
974183869979293;-10.9235;0.1499;-2.8379;
974183880083720;-6.7361;-0.5590;2.9160;
974183890188199;-6.0823;-1.0765;-3.6667;
974183900276793;-14.6462;-1.4145;-8.1009;
974183910381272;-17.5783;0.3009;4.1139;
974183920485699;-7.5984;1.0914;6.1451;
974183930580543;-1.4874;-1.3137;-2.4045;
974183940685022;-4.2353;-0.5925;-4.6466;
974183950789449;-11.9342;0.3153;-3.2309;
974183960913147;-12.6386;-0.0153;-2.4236;
974183971017574;-8.7796;0.5620;-0.0257;
974183981122053;-19.9810;-0.9233;-0.8856;
974183991228251;-26.4655;0.2052;2.7529;
974184001332730;1.4830;0.3511;4.6672;
974184011437157;4.9780;-2.8086;-2.8020;
974184021529084;-12.6553;-0.5375;-4.3328;
974184031633563;-14.6868;0.7319;-2.4667;
974184041737990;-8.8322;0.1522;-0.2533;
974184051846063;-5.8379;0.1116;-2.9985;
974184061950543;-8.9375;0.1331;-2.7613;
974184072054970;-10.1330;0.0924;-4.0454;
974184082152001;-6.2761;-1.5628;-8.8412;
974184092256428;-15.7026;-3.0936;-16.1474;
974184102360907;-12.8901;-0.8225;2.5950;
974184112514188;-0.7929;0.7104;12.5626;
974184122618615;-8.0058;-0.3532;-5.1568;
974184132723095;-18.2776;-1.0621;-7.9068;
974184142749813;-7.5386;0.8447;8.0758;
974184152854293;-1.5284;0.2746;1.0810;
974184162958720;-11.1607;-0.0849;-8.1129;
974184173118043;-14.7275;-0.1376;-1.4844;
974184183222522;-7.2057;0.5261;2.9542;
974184193326949;-5.4544;0.4759;-2.0019;
974184203379293;-10.7821;0.0470;-5.7652;
974184213483772;-12.8495;-0.2812;-0.5456;
974184223588199;-6.1493;0.2124;0.7241;
974184233700438;-4.0268;-0.1041;-5.5475;
974184243804918;-10.1976;-0.5973;-4.9819;
974184253909345;-10.7222;-0.2955;1.0762;
974184264046480;-12.2770;0.5333;-0.6628;
974184274151115;-10.4587;-1.1438;-2.8020;
974184284255699;-8.0704;-0.2859;0.6500;
974184294360230;-8.3722;-0.6144;0.7600;
974184304464865;-12.4110;-0.4131;-3.4681;
974184314569449;-11.0719;0.0757;0.0652;
974184324640230;-7.7710;0.1475;1.3277;
974184334744865;-8.3674;0.6673;0.5922;
974184344849449;-9.3281;0.5429;-0.5049;
974184354973876;-10.4683;-1.0214;-3.8991;
974184365078511;-11.6901;0.6960;-2.3228;
974184375183095;-9.7472;0.2483;-1.3672;
974184385342313;-12.0781;-0.6407;-3.6045;
974184395446949;-11.7954;0.0206;-2.6058;
974184405551532;-5.5095;-0.3314;0.8198;
974184415600543;-9.5868;-0.4513;-3.9278;
974184425705178;-12.9619;-0.0730;-0.7732;
974184435809761;-9.2465;0.6482;-0.8880;
974184445923772;-8.6524;-0.8273;-0.6676;
974184456028407;-6.2330;1.1536;-1.4390;
974184466132990;-5.3898;-0.1208;-4.3567;
974184476235647;-12.4229;-0.0897;-7.3606;
974184486340282;-11.7404;-0.0224;-1.9253;
974184496444865;-7.2846;-0.1113;0.6356;
974184506535647;-8.9064;-0.3147;-3.5495;
974184516640282;-10.6648;0.4516;-1.6857;
974184526744865;-6.8294;-0.8994;-1.3696;
974184536858147;-8.3483;0.3440;-2.0692;
974184546962782;-5.7514;-0.2716;-1.9708;
974184557067365;-11.0575;-0.2070;-2.2104;
974184567169188;-15.8677;-0.2261;-0.0066;
974184577273824;-11.4888;-0.0682;3.7759;
974184587378407;-4.8843;0.4950;-0.7131;
974184597469865;-6.9470;0.0278;-2.0426;
974184607574501;-12.1355;-0.4609;0.0102;
974184617679084;-20.6922;-1.2730;-0.5168;
974184627786688;-12.1235;-0.5590;1.4716;
974184637891324;11.6997;1.6017;-0.3802;
974184647995907;1.1617;0.0446;-5.6001;
974184658113251;-11.1942;-0.5949;-9.9646;
974184668217886;-31.6947;-3.2515;-4.0238;
974184678322470;-25.3923;-1.4791;3.2895;
974184688399709;4.2640;0.7920;2.1589;
974184698504345;8.2669;-0.2189;-1.2401;
974184708608928;-14.3683;-2.0013;-5.1018;
974184718720855;-23.9525;-2.9282;-7.4758;
974184728825490;-20.8505;-0.4561;-0.1884;
974184738930126;4.2233;4.7518;13.0083;
974184749042730;5.2032;0.0470;4.6262;
974184759147365;-8.2884;-1.1821;-5.5714;
974184769251949;-23.0207;-1.5652;-13.5649;
974184779353563;-22.7237;-1.5963;-8.5968;
974184789458199;0.9918;3.6640;6.6290;
974184799562782;8.3698;1.3238;-0.2198;
974184809670647;-10.2598;-3.1415;-13.8503;
974184819775282;-14.7180;-0.5231;-7.9020;
974184829879865;8.5041;2.7945;-5.2840;
974184839977313;7.0621;0.3870;-5.0372;
974184850081949;-68.0728;-2.6097;4.3845;
974184860186532;-76.0642;4.8978;10.1982;
974184870305855;21.8447;-1.3567;3.0479;
974184880410490;55.9923;-4.2051;45.8650;
974184890515126;-13.0388;1.5395;4.4180;
974184900609709;-33.4221;-0.5925;-12.9470;
974184910714345;-3.3368;2.1814;0.7624;
974184920818928;-0.2037;8.6252;-5.0180;
974184930914605;-2.8002;6.9317;5.5032;
974184941019240;15.6500;-0.4274;-7.8254;
974184951123824;-27.1696;-8.3758;-68.9178;
974184961211376;-70.9977;-14.1870;-49.6938;
974184971315959;1.7536;2.8857;36.3284;
974184981420595;49.8431;7.2718;16.7716;
974184991550647;-5.9551;1.2565;-20.5409;
974185001655282;-25.9983;-5.5801;8.4760;
974185011759865;-0.9413;3.8342;16.6229;
974185021846272;21.6171;6.8261;-3.3075;
974185031950907;3.9646;-1.6995;-19.8006;
974185042055490;-29.5125;-2.0085;-12.7026;
974185052158772;-39.5115;0.8327;11.0486;
974185062263407;-39.0993;5.2834;0.3505;
974185072367990;-15.2258;3.2043;-8.6662;
974185082541376;16.8404;-3.5270;23.5771;
974185092646011;8.0776;0.0948;28.2245;
974185102750595;-33.6159;0.1786;7.4698;
974185112798147;-16.2320;1.6280;2.9925;
974185122902782;5.7446;1.7668;11.4607;
974185133007365;-2.8241;0.3631;8.0447;
974185143148563;2.6638;0.0398;-3.6260;
974185153253199;-8.7461;-3.9176;-38.5406;
974185163357782;-31.4432;-9.3697;-36.3440;
974185173428668;-11.2086;-4.1668;-0.4977;
974185183533303;8.9255;-2.3103;-3.4848;
974185193637886;-21.3942;-5.9417;-20.3803;
974185203731793;-23.4230;-6.6221;5.2851;
974185213836376;-6.6428;-3.1726;18.0197;
974185223941063;-7.6367;0.9906;2.5831;
974185234034032;-12.8854;-1.4192;0.4271;
974185244138668;-18.4765;-0.0081;5.1054;
974185254243251;-6.5731;5.7697;7.9801;
974185264382418;8.9474;4.3899;7.3549;
974185274486845;-16.4282;1.6304;-6.4696;
974185284591324;-30.2910;2.9073;-0.4208;
974185294670230;8.4778;3.6401;-2.2558;
974185304774709;5.8187;1.1321;-18.4472;
974185314879136;-14.4544;-0.7890;-11.0617;
974185325000959;-12.9284;0.6314;1.3828;
974185335105386;-14.5621;2.1790;-10.9684;
974185345209865;-12.5166;0.0039;-9.2794;
974185355309918;3.4328;-1.1533;8.2005;
974185365414345;-1.1378;0.2961;0.8103;
974185375518824;-17.8872;-1.3543;-7.7489;
974185385581272;-23.2364;-2.2146;0.8581;
974185395685699;-9.8575;-0.0200;12.3374;
974185405790178;2.9847;1.6448;11.6333;
974185415924397;-1.5260;0.3200;-9.9120;
974185426028824;-19.3723;0.5548;-10.9134;
974185436133303;-16.4569;0.6577;6.8160;
974185446254605;-4.6089;0.7394;6.8518;
974185456359032;-6.4152;-0.0873;-4.1435;
974185466463511;-9.9676;0.9715;-1.4270;
974185476557522;-11.5343;-1.3759;-5.1162;
974185486661949;-16.2583;-2.8158;-7.7560;
974185496766428;-9.3042;-1.0693;3.0646;
974185506874605;-2.5896;-1.3950;3.5868;
974185516979032;-10.4827;-2.3174;-8.0842;
974185527083511;-12.0685;-1.3041;-3.0990;
974185537179865;-5.1981;-2.0085;0.9805;
974185547284293;-10.2144;-2.0157;-4.7904;
974185557388772;-14.0016;-0.9209;-2.2798;
974185567504605;-11.7093;-1.7258;0.3840;
974185577609032;-9.4908;-0.9832;-1.5757;
974185587713511;-7.9843;-0.9975;1.3971;
974185597813563;-7.4142;-0.1232;-2.2463;
974185607918043;-12.7466;0.3679;-3.8345;
974185618022470;-11.1559;0.1546;0.6042;
974185628132418;-9.9461;-0.2237;0.2952;
974185638236845;-4.1345;0.2818;-2.5552;
974185648341324;-9.2707;-0.1472;-5.3222;
974185658447938;-15.5013;-0.0033;-4.1100;
974185668552365;-10.3678;0.8758;1.8212;
974185678656845;-1.2553;0.6721;-2.1027;
974185688745282;-9.9820;0.4854;-7.1067;
974185698849709;-12.2124;-0.9090;0.6090;
974185708954188;-9.6275;-0.1663;1.8021;
974185719057730;-6.4798;-0.1591;-7.2147;
974185729162157;-5.3635;-0.8850;-2.5026;
974185739266584;-3.4831;1.2374;1.4524;
974185749375230;-14.6845;0.7247;-4.3017;
974185759479657;-34.5000;-0.3867;-0.1238;
974185769584136;-22.0433;-0.2788;11.4224;
974185779697105;11.8026;-0.1280;4.2526;
974185789801532;11.4386;0.1331;-2.4452;
974185799905959;-20.3234;2.0112;-7.0923;
974185810000699;-25.7898;-1.1315;-5.7389;
974185820105126;-9.0503;-1.0071;6.1140;
974185830209605;1.8446;-0.1711;3.0407;
974185840317834;-3.5524;-0.3461;-4.0717;
974185850422313;-9.0933;-0.6096;-10.9158;
974185860526740;-21.5426;-4.3896;-19.8245;
974185870643563;-16.1886;-4.3609;-4.0693;
974185880748043;-4.1201;-1.4408;16.9199;
974185890852470;-1.9427;0.0996;4.9116;
974185900943459;-15.8821;-1.2826;-14.5831;
974185911047938;-11.3737;0.3200;-2.5576;
974185921152365;-5.3683;0.1977;8.4257;
974185931249813;-6.4199;-0.2285;-1.8272;
974185941354240;-13.4770;0.3607;-6.9368;
974185951458720;-12.8877;-1.5221;-1.1898;
974185961573563;-6.4965;-0.6574;1.2200;
974185971677990;-8.3483;-1.2706;-3.6667;
974185981782470;-16.8189;-1.1773;-3.5949;
974185991881897;-10.7031;0.6625;-1.0175;
974186001986324;-4.8676;-0.5207;1.9026;
974186012090803;-5.4568;1.0866;-1.2544;
974186022192418;-12.3440;-0.0488;-4.9340;
974186032296845;-9.6945;-0.4035;-2.3710;
974186042401324;-9.9437;0.4735;-2.0617;
974186052515022;-10.4468;0.9236;-1.8894;
974186062619449;-6.3841;-0.8082;-1.6020;
974186072723876;-11.7811;0.1235;-5.5690;
974186082806168;-10.1163;1.0484;0.0799;
974186092910595;-2.1966;0.8399;0.8895;
974186103015074;-15.1780;0.9188;-5.5977;
974186113118772;-20.7042;0.2483;1.1841;
974186123223199;-5.1311;0.6099;4.3750;
974186133327678;-1.6098;0.9954;-2.7015;
974186143443043;-8.4248;-0.3604;-2.5146;
974186153547470;-17.6860;0.7705;-3.5327;
974186163651949;-12.3416;1.1560;2.1254;
974186173751272;-0.5246;0.5788;0.9135;
974186183855751;-9.9461;1.2039;-7.2171;
974186193960178;-10.3774;0.3033;2.3028;
974186204084709;-14.8113;-1.3089;-4.6705;
974186214189136;-12.7968;-1.0430;-10.1228;
974186224293615;-0.4409;0.6888;5.5558;
974186234403251;-8.8250;0.4253;4.0729;
974186244507678;-14.9216;-0.1878;-6.7714;
974186254612157;-10.4300;-0.3700;-2.7350;
974186264699397;-6.9350;-0.4274;2.4009;
974186274803668;-4.9825;0.2124;0.5157;
974186284907886;-13.1130;0.3655;-5.2597;
974186295028928;-14.8663;-3.0218;-3.7388;
974186305133147;-10.5712;-0.9377;-0.5647;
974186315237418;-6.0607;1.5993;5.0216;
974186325332626;-5.7251;-0.3748;1.3253;
974186335436897;-11.9752;-0.7914;-8.3213;
974186345541115;-12.8112;-0.2788;-4.5724;
974186355634709;-6.1780;-0.1089;5.1580;
974186365738980;-9.1627;-2.8804;-0.0353;
974186375843199;-7.0857;0.0661;-9.0209;
974186385974084;-8.5711;-1.5293;-7.6265;
974186396078303;-11.3210;-0.8321;-0.3060;
974186406182574;-11.5271;-0.2979;4.7174;
974186416263563;-10.8757;0.3033;-0.7325;
974186426367834;-8.2047;-0.8656;-5.1760;
974186436472053;-0.3162;0.5285;-0.7059;
974186446596793;-10.7557;-0.3820;-1.7503;
974186456701063;-26.9638;-0.5303;-2.4643;
974186466805282;-8.1757;-0.4896;1.8643;
974186476894084;5.4377;1.1991;2.5759;
974186486998355;-6.8871;0.7032;1.9555;
974186497102574;-8.2813;-0.2668;-6.6589;
974186507212626;-30.6936;-1.6899;-8.2854;
974186517316897;-13.2135;0.7032;7.1273;
974186527421115;4.1707;0.5524;4.5209;
974186537517522;-0.4361;1.4937;-3.7795;
974186547621793;-5.8666;-2.2911;-11.9842;
974186557726011;-32.7583;-0.9736;-12.3171;
974186567837418;-20.5199;0.6625;18.3479;
974186577941688;9.8839;2.8113;15.4182;
974186588045907;-6.8533;-0.5375;-22.3014;
974186598140543;-6.1373;-3.0505;-6.9129;
974186608244813;-18.8812;-1.9965;-4.6848;
974186618349032;-12.4253;1.3980;-0.4304;
974186628459813;-3.3679;-0.3365;3.9796;
974186638564084;-10.3511;2.0231;-1.9086;
974186648668303;-8.6524;-2.1903;-1.5036;
974186658765699;-14.2077;0.2530;-10.7623;
974186668869970;-6.3601;1.2494;-5.6480;
974186678974188;-13.5272;-0.2285;9.7409;
974186689077730;-8.1446;1.0388;5.3785;
974186699182001;-12.7271;0.2124;-8.7526;
974186709286272;-14.0255;-1.4791;-3.5399;
974186719412522;-12.9117;1.1608;5.3713;
974186729516740;-3.6290;1.2951;1.9433;
974186739621011;-3.9550;-0.5877;-3.2572;
974186749713147;-5.6797;0.5716;-10.1922;
974186759817418;-13.5562;1.2111;-2.0210;
974186769921636;0.7666;-0.2835;4.1450;
974186780014449;-18.1268;-0.2596;-16.0205;
974186790118720;-15.7122;0.0924;-7.2218;
974186800222938;-5.5983;-0.4490;8.7203;
974186810330438;-4.0819;0.8997;-2.5863;
974186820434709;-14.7132;-1.0454;-6.8456;
974186830538928;-12.2698;0.3703;4.4037;
974186840627418;-4.0555;-0.1472;5.0623;
974186850731636;-12.5907;1.8027;0.2067;
974186860835907;-11.4266;-0.2596;-1.0917;
974186870968459;-10.3487;-1.8622;-2.9865;
974186881072730;-13.0890;0.8207;0.6212;
974186891176949;-3.3248;0.0685;0.0748;
974186901268459;-6.2952;0.0661;-2.1482;
974186911372730;-17.7194;1.6687;-1.3265;
974186921477001;-10.5018;-0.5877;-5.3031;
974186931583563;-9.5677;0.0829;-3.3912;
974186941687834;-1.9905;-0.4442;3.1842;
974186951792053;-15.7505;-0.9927;-5.0970;
974186961909084;-23.4975;-1.5939;-6.0694;
974186972013303;-9.6419;-0.7196;6.0159;
974186982117574;1.1569;0.1618;0.6356;
974186992217105;-5.4162;-0.5112;-2.7996;
974187002321324;-4.5897;-0.5997;-6.0287;
974187012425595;-21.3416;0.2124;-9.9431;
974187022512001;-8.2358;0.3296;4.1641;
974187032616272;11.5822;0.1499;2.2932;
974187042720490;-11.5606;1.2159;-19.3262;
974187052838980;-28.9687;0.7418;-5.9880;
974187062943199;-20.4335;-0.0778;10.8117;
974187073047470;-1.3893;0.6625;6.9212;
974187083145751;7.1578;-0.3700;-2.9172;
974187093250022;-10.2814;-0.6431;-7.6962;
974187103354240;-17.5158;0.4229;-0.3060;
974187113457418;-14.8615;0.2650;1.4788;
974187123561688;-7.4883;1.5009;3.5195;
974187133665907;3.4926;1.2135;7.6759;
974187143780126;6.5710;0.5620;-10.7456;
974187153884397;-28.1590;-3.4911;-27.2961;
974187163988668;-25.0161;4.2823;-3.3745;
974187174079605;-21.9117;1.5945;30.6009;
974187184183876;2.6734;-2.9330;16.4770;
974187194288147;-1.5691;-2.8325;-24.3568;
974187204423355;-13.0244;0.4277;-8.6590;
974187214527574;-12.1020;2.6004;9.6688;
974187224631845;-5.3324;-0.5949;2.2454;
974187234700751;-6.4750;-0.8536;-3.5088;
974187244805022;-3.9311;-0.3604;-5.9856;
974187254909240;-24.4149;3.0796;-4.0932;
974187265029188;-7.0810;-2.6216;-1.5422;
974187275133511;-15.1298;-5.7144;-13.5891;
974187285237834;-4.4701;3.1469;0.6476;
974187295340855;-4.0053;0.9835;10.3684;
974187305445178;-13.8580;0.1762;-5.3366;
974187315549501;-3.7298;-0.3389;-5.2167;
974187325658355;-24.1753;-1.0502;-1.2930;
974187335762678;-15.2139;3.1202;9.3694;
974187345867001;16.5410;-0.9903;2.9207;
974187355973615;-10.7198;-2.9474;-22.2081;
974187366077938;-28.9807;1.4291;-8.2998;
974187376182261;-9.1843;1.5200;16.7979;
974187386278355;3.1597;-1.3208;5.3115;
974187396382678;-10.2168;0.2506;-15.7041;
974187406487001;-6.1062;3.9443;-2.0402;
974187416589605;-10.3173;-2.7341;2.5759;
974187426693928;-30.9595;-3.4361;-13.3113;
974187436798251;-6.4893;0.7609;6.2578;
974187446927626;7.7399;1.1536;14.4215;
974187457031949;-8.3507;-1.0932;-12.2907;
974187467136272;-34.4354;-0.2692;-8.4171;
974187477223043;-11.0791;-1.8479;10.8715;
974187487327365;18.8333;0.3129;2.7529;
974187497431688;-7.1073;0.2411;-9.8545;
974187507544293;-21.3078;0.1810;-3.2620;
974187517648615;-13.4913;-3.5318;-9.0015;
974187527752938;-13.3406;0.7777;-6.4481;
974187537850438;-5.8403;0.2148;6.1020;
974187547954761;-2.8193;-0.7125;2.4009;
974187558059084;-6.2521;-0.2142;-13.5963;
974187568172730;-25.4785;-2.1999;-13.5266;
974187578277053;-18.0882;0.8160;18.1155;
974187588381376;9.5701;0.3823;20.2188;
974187598480230;-9.0000;-0.5614;-23.4897;
974187608584553;-21.2145;0.1044;-6.3452;
974187618688876;0.6036;0.5931;15.0012;
974187628787938;-7.5769;0.7920;-9.7896;
974187638892261;-16.9696;-0.3194;-11.6438;
974187648996584;-5.4377;0.3248;5.1604;
974187659101688;-7.7901;0.7442;-0.6772;
974187669206011;-12.2913;-0.2142;-8.2208;
974187679310334;-10.6050;-0.8922;-2.0955;
974187689427105;-9.2489;-0.0897;0.4893;
974187699531428;-10.8443;1.3693;1.5840;
974187709635751;-7.4524;1.0244;-0.1143;
974187719731480;-8.5831;0.1522;-3.5710;
974187729835803;-11.9656;0.3464;0.2115;
974187739940126;-9.6538;-1.6035;-0.0975;
974187750044293;-11.7428;0.2171;-1.1109;
974187760148615;-6.8991;0.8375;0.8462;
974187770252938;-7.7231;-0.1208;-3.0511;
974187780345647;-12.6458;0.9571;-2.7541;
974187790449970;-6.8414;0.3009;1.3780;
974187800554293;-10.3077;-0.0535;-5.9067;
974187810665751;-13.6878;0.6697;-2.0907;
974187820770074;-6.3000;0.2530;2.3483;
974187830874397;-7.9603;-1.9726;-5.2863;
974187840955022;-15.1250;1.1010;-3.3505;
974187851059345;-10.6720;-0.6479;3.8432;
974187861163668;-6.4463;0.4998;-1.0032;
974187871297730;-6.5133;-0.7962;-2.7135;
974187881402105;-5.0139;0.4854;-0.2174;
974187891506376;-13.9968;-0.2022;-6.1582;
974187901601688;-14.3874;-0.8345;-1.5924;
974187911706011;-8.6046;-0.5806;2.2860;
974187921810334;-7.9050;-0.7795;-1.3648;
974187931907209;-9.4669;0.4783;-3.8201;
974187942011532;-8.6668;-0.8465;-1.2787;
974187952115855;-10.8347;-0.4178;-1.4605;
974187962251428;-18.2201;-0.6239;1.1722;
974187972355751;-11.2038;-0.1711;2.5735;
974187982460074;-3.7633;-1.4910;-1.1348;
974187992556272;-10.5903;-0.9353;-2.8355;
974188002660595;-11.5534;0.6864;0.0918;
974188012764918;-7.5051;-2.3581;-2.4739;
974188022826688;-7.5410;-0.2309;-3.7029;
974188032931011;-10.2383;-0.6263;-1.9828;
974188043035334;-9.7687;-0.4011;-0.3036;
974188053160022;-7.6705;-1.5915;-8.6758;
974188063264345;-12.8423;-1.7402;-7.4447;
974188073368668;-12.8040;-1.1028;4.3149;
974188083523043;-3.6843;-0.5734;-0.0497;
974188093627365;-11.3880;-0.9640;-8.0076;
974188103731688;-12.9021;0.6266;2.0895;
974188113785022;-6.0078;-0.0416;5.6468;
974188123889345;-6.3410;-0.0296;-5.0010;
974188133993668;-10.2526;0.5477;-4.5269;
974188144110126;-12.2001;0.0374;0.5539;
974188154214449;-16.3301;-0.0009;0.7648;
974188164318772;-5.9408;-0.4178;-2.0402;
974188174422209;-8.3722;0.1881;-2.2774;
974188184526532;-7.7183;1.1752;0.2402;
974188194630855;-10.4922;1.0699;-3.6452;
974188204737626;-11.8505;0.6984;-2.4835;
974188214841949;-8.8202;-0.4633;0.5970;
974188224946272;-9.2034;0.5524;-3.5806;
974188235080438;-10.8132;-0.5064;-0.4881;
974188245184761;-10.2000;-0.5830;-3.9182;
974188255289084;-12.1714;0.1857;-3.3386;
974188265358876;-9.3449;0.8806;2.0225;
974188275463199;-2.4817;0.6529;-1.9971;
974188285567574;-11.0886;-1.0023;-4.9747;
974188295681272;-16.1480;1.4937;-0.0927;
974188305785595;-11.1317;-0.5423;0.7481;
974188315889970;-10.8203;0.4660;-1.7145;
974188325979709;-7.1459;-0.0464;0.0437;
974188336084032;-9.1125;-0.4418;-1.8344;
974188346188407;-12.6745;0.9643;-1.4462;
974188356303147;-8.4105;1.1082;0.8031;
974188366407470;-9.1173;-0.3194;-3.2907;
974188376511845;-7.4309;0.1810;-1.1515;
974188386601480;-10.1498;-1.1390;-3.2237;
974188396705803;-15.6879;-0.4705;-4.2634;
974188406810178;-5.1718;-0.6383;-1.0487;
974188416922626;-9.0359;-0.7460;-5.4347;
974188427026949;-10.9187;-0.2237;-0.4400;
974188437131324;-8.7556;0.9715;-0.0353;
974188447221376;-10.4109;0.5644;-2.6106;
974188457325699;-12.0326;0.0159;-0.3491;
974188467430022;-9.1436;-0.4872;1.1602;
974188477557626;-8.0871;1.3214;-1.1731;
974188487661949;-11.0719;-1.8790;-1.2329;
974188497766324;-13.5634;-1.8383;-3.8512;
974188507863251;-10.6193;-0.7244;-0.8115;
974188517967574;-7.3110;-2.0276;-1.4653;
974188528071949;-7.2392;-0.6861;-3.0200;
974188538187730;-13.0962;-2.6264;-2.2750;
974188548292053;-15.0293;-2.3916;-3.5662;
974188558396428;-12.1235;0.4759;-0.8426;
974188568500334;-6.9757;-0.2692;1.9651;
974188578604657;-9.3329;-0.3123;-1.9564;
974188588709032;-9.5462;0.8423;-1.3528;
974188598800022;-9.1555;0.2937;-0.4881;
974188608904345;-10.4372;-0.3485;-2.6345;
974188619008720;-11.5582;0.0494;-0.1813;
974188629120959;-5.2484;0.6769;-2.4165;
974188639225282;-0.0287;-1.7282;-4.6346;
974188649329657;-7.6367;-2.8780;-6.4816;
974188659435543;-19.2981;-1.2969;-6.3138;
974188669539865;-26.4368;-2.6767;-0.2749;
974188679644240;-10.9546;-1.2538;0.8438;
974188689768980;5.7108;0.4783;2.5041;
974188699873303;-4.4821;0.0876;3.8046;
974188709977678;-19.9352;-1.7282;-0.0066;
974188720067001;-14.7658;0.4950;-0.6580;
974188730171324;-6.3000;0.9045;1.1841;
974188740275699;1.0947;1.3190;-0.4857;
974188750371480;-4.1776;-0.6670;-3.7555;
974188760475803;-14.7156;-3.5318;-12.4104;
974188770580178;-24.3574;-5.4556;-16.1522;
974188780684865;-17.8223;-1.2347;-0.0760;
974188790789188;1.9451;0.7128;4.7964;
974188800893563;1.8135;-0.6909;-2.7135;
974188810987834;-17.8609;1.3430;-3.6284;
974188821092157;-19.7868;2.4784;2.0824;
974188831196532;-9.9317;3.3215;1.8404;
974188841277105;-7.9986;3.3885;2.9279;
974188851381428;-11.4024;1.7381;1.2631;
974188861485803;-12.5022;2.1503;-1.0415;
974188871633772;-8.5113;2.3994;-1.7575;
974188881738095;-6.7313;-0.4107;-2.3877;
974188891842470;-4.0675;0.8112;-4.0813;
974188901927105;-7.7973;1.3789;-5.9713;
974188912031428;-13.3454;2.2077;-3.3434;
974188922135803;-9.8767;1.7764;-2.8932;
974188932244813;-9.1029;1.2517;-5.6336;
974188942349136;-14.3465;-0.9544;-1.3457;
974188952453459;-12.7585;-0.5112;3.6419;
974188962551480;-4.7408;0.8495;3.5916;
974188972655855;-7.1674;0.9547;2.8370;
974188982760178;-6.7959;1.2446;3.3927;
974188992838459;-9.0646;1.1584;4.5832;
974189002942782;-11.4793;-0.4944;-1.9349;
974189013047105;-17.2307;-0.8417;-1.8368;
974189023174188;-12.8279;-2.1760;0.2761;
974189033278511;-5.7275;-3.3500;-1.4031;
974189043382834;-5.7491;-3.7427;-2.7326;
974189053530855;-10.7725;-3.4911;-3.6619;
974189063635178;-12.2794;-3.2949;-7.3247;
974189073739553;-9.0622;-2.3103;0.1229;
974189083831376;-0.9942;-0.0488;1.3588;
974189093935699;-12.2243;-1.5963;-5.4036;
974189104040022;-18.1460;-0.6981;-0.6317;
974189114140126;-9.2536;-2.0946;-2.4954;
974189124244449;-9.0694;-2.1377;-1.1898;
974189134348772;-10.7988;-1.7210;-1.5924;
974189144439709;-8.7099;-0.6646;-4.0549;
974189154544032;-15.6329;-0.3532;-0.4089;
974189164648407;-20.1700;1.0866;0.3793;
974189174757209;7.1985;1.0026;-2.1529;
974189184861532;34.5933;1.5443;-8.2038;
974189194965907;-9.9604;0.3751;-13.9795;
974189205050438;-45.3754;2.2053;-5.2863;
974189215154761;-15.9661;4.6917;-3.7077;
974189225259136;8.4443;0.6888;-11.8929;
974189235377105;-2.1823;-4.4183;-1.5613;
974189245481428;-11.9294;1.1967;13.3603;
974189255585803;-9.9532;3.6858;-1.3552;
974189265685543;-6.4152;-2.5570;-16.6217;
974189275789865;-14.0928;-3.1463;14.9510;
974189285894188;0.6972;5.7194;24.8204;
974189296004188;-13.3190;4.2846;0.4367;
974189306108511;-16.5697;-0.7412;-18.1597;
974189316212782;-18.4310;-7.2018;0.2833;
974189326314813;-14.3393;1.6448;7.2924;
974189336419136;-7.7423;-0.7316;2.5831;
974189346523459;1.6169;-1.4216;-8.7117;
974189356626376;-13.7788;-3.7283;-4.8120;
974189366730699;-15.7576;-3.8506;-1.3768;
974189376835022;32.4661;2.3154;-6.8551;
974189386955647;27.5913;-2.6623;-16.8063;
974189397059970;-75.5324;-3.4624;-16.1785;
974189407164240;-54.7804;-1.8622;4.6672;
974189417245751;56.3925;-5.3142;7.0508;
974189427350074;44.1228;-11.3222;8.8902;
974189437454397;-51.0721;2.0785;-13.2727;
974189447585126;-38.5747;7.5281;10.2221;
974189457689449;31.0840;3.0867;2.1661;
974189467793720;2.7212;0.1116;-6.8647;
974189477880126;0.7499;5.2499;17.7826;
974189487984449;28.3484;9.7032;-10.7504;
974189498088772;-79.2694;-4.6938;-42.8668;
974189508203876;17.2573;-27.5492;3.6778;
974189518308147;77.7174;6.0715;32.6178;
974189528412522;28.5760;0.5094;-11.2511;
974189538509918;-40.1127;4.5960;-17.3740;
974189548614240;-58.9197;17.9845;15.9189;
974189558718563;-8.7123;14.8750;0.5061;
974189568830022;-21.1235;0.9619;-10.0220;
974189578934345;-13.2661;-4.7034;24.4035;
974189589038668;50.2935;-0.0583;-20.6557;
974189599133563;-47.8597;-20.8825;-23.1518;
974189609237886;-58.7160;2.0447;18.7621;
974189619342157;34.6125;2.5358;13.8850;
974189629440438;43.0568;1.1106;1.1674;
974189639544761;-28.7052;5.8513;-14.4897;
974189649649084;-56.0163;8.2516;-2.9172;
974189659759397;17.8609;2.8711;-5.9354;
974189669863720;30.3942;-2.4514;-30.5611;
974189679967990;-12.0565;-6.7011;-5.1042;
974189690074293;-78.9844;3.6736;11.3602;
974189700178615;6.3075;-4.7967;-17.2205;
974189710282938;56.7231;-11.6791;0.3625;
974189720358720;-37.0224;1.2494;18.8414;
974189730463043;-39.0443;-0.8584;0.3359;
974189740567313;7.7806;2.0303;-7.3654;
974189750700543;-3.5812;-3.2515;0.5755;
974189760804865;-22.7333;-0.9712;9.5731;
974189770909188;-3.4854;6.8764;19.5550;
974189781010438;33.1705;2.0351;-17.7260;
974189791114761;-43.4566;-7.2568;-46.5823;
974189801219084;-51.1295;-0.0655;25.4312;
974189811316272;34.7659;13.4402;21.9338;
974189821420595;21.7606;-5.2567;-45.2695;
974189831524918;-35.0031;-12.2683;-7.4183;
974189841626480;-27.7902;9.0757;31.2859;
974189851730803;6.8847;11.1643;-4.4453;
974189861835126;-8.1374;-5.6904;-10.4940;
974189871951897;-25.0858;-7.5299;9.4965;
974189882056220;-33.6856;4.1551;14.5343;
974189892160543;-0.7017;0.8877;-2.7350;
974189902255438;15.1540;-5.2304;8.6100;
974189912359709;-8.8490;3.3191;1.8595;
974189922464032;-10.6265;4.4641;-7.2793;
974189932580022;-7.3158;3.3311;-9.0353;
974189942684345;-11.0886;2.1957;-6.3882;
974189952788668;0.5629;1.2039;-4.6178;
974189962896376;-4.2209;-1.9869;-17.0602;
974189973000699;-14.1574;-2.7413;-6.0144;
974189983104970;-9.3425;-5.0004;-7.2482;
974189993198459;-21.3177;-5.4700;-3.4466;
974190003302782;-8.7147;-1.0334;15.6697;
974190013407105;2.1703;-0.3027;6.8925;
974190023490751;-5.5792;1.3813;3.4478;
974190033595074;-15.1226;4.9935;9.7528;
974190043699397;-7.6463;3.9156;2.2717;
974190053833772;-7.8380;1.4698;-5.3533;
974190063938095;-11.1464;0.2913;0.4678;
974190074042418;-6.7457;-0.2572;-0.2342;
974190084153511;-8.7844;-1.7067;-10.2449;
974190094257834;-14.5693;-1.3280;-4.4237;
974190104362105;-9.6323;-5.1488;-0.9263;
974190114467938;-7.3732;-3.6254;-2.7876;
974190124572261;-6.8584;-2.1736;-0.6676;
974190134676532;-8.1350;-4.1213;-1.9564;
974190144753980;-13.8485;-0.8874;-2.9626;
974190154858303;-10.3029;-0.3580;2.4535;
974190164962626;-3.4615;-1.0095;-0.7107;
974190175073563;-8.2095;1.6950;-1.9253;
974190185177886;-12.6625;0.4540;-1.2520;
974190195282209;-7.9675;0.0972;-1.6475;
974190205388355;-8.2167;0.4181;-3.7890;
974190215492678;-7.8284;-0.3075;-3.0846;
974190225597001;-9.9915;-0.0559;-4.9531;
974190235707105;-13.4124;1.0412;-3.5447;
974190245811428;-10.3917;-0.2237;-0.7899;
974190255915751;-10.1306;-0.9042;-0.6078;
974190266022730;-12.0757;2.1215;0.5659;
974190276127105;-7.7088;0.8758;2.0752;
974190286231532;-11.0910;1.1393;0.0823;
974190296328980;-13.1680;2.9121;1.0020;
974190306433355;-10.2622;1.1082;1.1192;
974190316537782;-9.0694;2.0040;-1.2643;
974190326650959;-5.0665;2.4209;0.6595;
974190336755334;-6.4726;0.8375;-5.5618;
974190346859761;-9.4071;0.8423;-6.1917;
974190356962626;-9.7687;-0.8201;-5.4945;
974190367067001;-9.4310;-2.3055;-4.0669;
974190377171428;-7.7949;-2.3701;-3.8130;
974190387292834;-6.5949;-3.7211;-2.8594;
974190397397209;-12.2698;-3.8172;-4.2873;
974190407501636;-14.3755;-1.8598;-0.6317;
974190417578563;-10.3750;-1.1076;2.0800;
974190427682938;-6.5133;-0.5542;1.5577;
974190437787365;-7.9508;0.8830;0.4415;
974190447912418;-6.2426;0.5477;1.6415;
974190458016793;-7.3998;0.8590;-2.0091;
974190468121220;-12.0948;-0.8632;-2.0043;
974190478204865;-6.5444;-1.0956;-2.5481;
974190488309240;8.0632;-1.2514;-7.5428;
974190498413668;20.8911;-4.8446;-11.3850;
974190508529501;-47.8023;-6.7155;-11.3228;
974190518633876;-72.5190;6.9700;12.7328;
974190528738303;-5.9456;6.6730;10.1288;
974190538837626;24.8222;-15.0135;9.3239;
974190548942053;-1.5284;-2.8947;17.4302;
974190559046428;-25.3756;6.3808;-6.3138;
974190569149188;-13.3980;1.4411;1.8260;
974190579253563;1.4252;1.8317;-1.3026;
974190589357990;-9.2010;3.9709;-0.5360;
974190599458147;4.2425;9.1307;11.9973;
974190609562522;21.0015;7.1136;-27.3033;
974190619666949;-26.1227;-1.8574;-49.6962;
974190629768563;-39.2357;-9.5088;-14.4778;
974190639872938;8.0082;0.8183;8.2986;
974190649977365;11.1823;-6.4041;-7.2673;
974190660089813;-14.6342;-4.3681;-5.1688;
974190670194188;-27.2225;2.1766;11.2881;
974190680298615;-26.7506;8.9845;9.9299;
974190690395230;-31.1510;3.3766;7.4435;
974190700499657;11.7476;-2.1473;15.5785;
974190710604032;10.2574;2.0136;17.5478;
974190720750543;-18.6826;2.6844;0.7337;
974190730854918;-30.9548;-0.5303;-0.7684;
974190740959293;-9.8575;2.6246;4.5257;
974190751026897;8.9330;0.0829;-2.8283;
974190761131324;-6.5013;0.0087;-9.6939;
974190771235699;7.9651;1.0268;-12.6404;
974190781334188;19.5808;-2.3605;-23.2502;
974190791438563;-49.7235;-14.5394;-35.2588;
974190801542990;-46.7363;-5.5107;4.9164;
974190811648147;24.1849;4.7614;14.1054;
974190821752522;15.9518;-13.2864;-7.5858;
974190831856949;-22.6134;-9.9808;-4.3328;
974190841976272;-45.8498;11.7227;4.8491;
974190852080647;-7.0762;12.0820;3.6251;
974190862185074;13.9849;-3.2037;13.1184;
974190872284970;-11.0767;1.9657;11.7577;
974190882389345;-4.2114;11.0542;9.0987;
974190892493720;-5.9791;0.6769;-15.9126;
974190902589293;-30.7678;-4.5428;-15.2061;
974190912693668;-13.2087;1.1249;4.8060;
974190922798095;3.0278;5.1948;3.5554;
974190932906272;3.7035;-1.5508;-11.9937;
974190943010647;-19.5401;-9.2070;-17.2708;
974190953115074;-16.6798;1.8389;1.7566;
974190963208459;2.7838;4.8691;3.5052;
974190973312834;-4.0962;-3.8148;-8.6782;
974190983417261;-13.2183;-0.8345;-0.8617;
974190993561793;-10.1115;5.9853;2.5783;
974191003666168;-5.2558;2.2675;-1.1157;
974191013770595;-7.5673;-1.5365;0.1828;
974191023826063;-13.9490;0.7271;-0.8234;
974191033930438;-13.7429;-0.0849;-0.8617;
974191044034865;-10.8538;-2.0587;2.2430;
974191054147522;-6.9637;-0.6215;2.2549;
974191064251949;-5.4999;-0.1519;1.7997;
974191074356324;-9.0957;0.1522;-0.3299;
974191084462522;-11.1365;0.0182;-2.9411;
974191094566897;-12.6362;-0.3915;-2.8331;
974191104671324;-9.3377;0.9691;0.3673;
974191114799084;-6.4295;1.0268;-1.9229;
974191124903459;-9.1484;-1.0980;-2.9530;
974191135007886;-10.3439;-1.2538;-2.9937;
974191145093459;-8.6189;-2.0276;-3.3745;
974191155197886;-9.9030;-1.9364;-2.6584;
974191165302261;-8.7915;-1.2323;-2.1051;
974191175403876;-9.2489;-0.8632;-2.9985;
974191185508251;-11.5056;-1.1291;-0.0114;
974191195612678;-14.8161;-0.8608;-0.2222;
974191205738147;-15.1490;-1.5078;0.8246;
974191215842522;3.5429;-1.7091;1.1602;
974191225946949;-1.0038;-0.0224;-2.4643;
974191236035647;-15.2737;1.2685;-6.3233;
974191246140022;-15.3215;3.8246;-4.5006;
974191256244449;-7.7183;1.6304;-2.5552;
974191266350022;-9.0981;-0.4178;-3.1998;
974191276454345;-8.8035;3.3383;1.8500;
974191286558668;-6.8847;2.9240;-0.9909;
974191296657626;-8.5543;-1.4982;-4.7426;
974191306761949;-9.0742;-1.7450;-4.5413;
974191316866272;-6.7457;2.9432;2.5950;
974191326973772;-6.3601;3.4439;0.4463;
974191337078095;-10.7438;0.3894;-2.9889;
974191347182418;-12.2172;0.5668;-1.8894;
974191357279605;-11.1030;2.2603;1.4261;
974191367383928;-10.6313;0.7152;0.3167;
974191377488251;-6.1205;-0.2261;0.6404;
974191387585647;2.2998;-1.2610;-2.9913;
974191397689970;-42.2040;-0.4298;1.5123;
974191407794293;-16.0020;2.1239;5.4239;
974191417904709;17.4081;-2.3246;5.4721;
974191428009032;-2.6160;-4.1836;-2.9578;
974191438113355;-20.4335;-0.3724;-6.7235;
974191448238980;-16.1360;2.2627;-4.0095;
974191458343303;-0.1196;-0.1041;-2.9841;
974191468447626;-1.1641;-3.4505;-7.9837;
974191478543355;-16.1743;0.5835;-5.7030;
974191488647678;1.7177;4.6678;5.1030;
974191498752001;-5.4927;-6.8952;-22.2368;
974191508844501;-29.8502;-5.6734;-11.8953;
974191518948824;-5.9121;4.4354;19.5048;
974191529053147;-5.9097;0.5740;5.0839;
974191539159397;-11.9031;-1.0214;-10.9325;
974191549263720;-6.9326;-0.7125;6.2530;
974191559368043;-14.3393;2.9288;3.7232;
974191569470543;-10.9977;3.0891;1.8547;
974191579574865;-3.9574;0.0637;0.2210;
974191589679188;-6.2354;0.8686;0.3649;
974191599783876;-5.2654;1.7309;-3.7388;
974191609888199;-17.8128;0.8853;-8.0578;
974191619992522;-17.1206;2.6964;-2.0258;
974191630102834;-2.2516;0.8231;-2.3133;
974191640207157;-3.9021;-2.0228;-5.1138;
974191650311480;-7.9675;-1.3807;-2.5170;
974191660417001;-10.8467;-0.8608;-3.7699;
974191670521324;-14.4042;-1.4240;-4.2467;
974191680625699;-10.2048;-0.9281;2.3291;
974191690736584;-5.0139;-0.3748;1.1360;
974191700840907;-8.0991;-0.4178;-0.5480;
974191710945230;-12.1499;-0.9042;0.2665;
974191721038876;-9.8145;-1.2251;-1.4031;
974191731143199;-10.1115;0.1762;-0.9984;
974191741247522;-8.0824;-0.5160;0.0580;
974191751349605;-8.7317;-1.2562;-1.1515;
974191761453928;-10.7868;-0.0344;-2.2798;
974191771558251;-11.0527;-1.5341;-1.0271;
974191781662209;-9.7089;-0.7603;-1.4725;
974191791766532;-9.1484;-0.1089;-0.2557;
974191801870855;-7.3588;-1.2084;-0.1214;
974191811975647;-8.9662;-0.4801;-2.1960;
974191822079970;-9.6969;0.3105;-0.4496;
974191832184293;-8.6189;-0.4202;-1.2667;
974191842327209;-8.4320;-0.4992;-1.7169;
974191852431532;-8.0991;-0.6861;-2.1362;
974191862535855;-10.1210;-0.3987;-2.7565;
974191872607418;-9.7974;0.3655;-1.2930;
974191882711740;-4.3095;0.7008;-2.2941;
974191892816115;-9.0838;0.6362;-2.1075;
974191902922157;-17.4440;2.0542;-1.0750;
974191913026480;-11.0743;1.3071;1.2464;
974191923130803;-7.5314;-0.1232;0.8895;
974191933234293;-5.7996;-0.0826;0.7552;
974191943338615;-9.0790;-0.0583;-0.9909;
974191953442938;-12.5094;1.3525;-1.2425;
974191963522834;-10.0537;2.8687;0.0580;
974191973627157;-9.2201;1.1895;-1.2138;
974191983731480;-8.2143;3.3766;0.3888;
974191993835803;-1.6241;0.9954;-3.4537;
974192003978876;-9.3138;0.3153;-7.4662;
974192014083199;-15.5635;2.2484;-4.2395;
974192024187522;-10.7653;-0.1519;-2.0186;
974192034292678;-8.8537;0.3440;-2.1170;
974192044397001;-7.5171;0.4253;0.4989;
974192054501324;-7.3974;0.0135;0.8725;
974192064593876;-10.0780;1.1321;-2.1099;
974192074698199;-10.8948;0.0470;-1.3959;
974192084802522;-6.9876;-0.8058;-1.0223;
974192094898199;-7.1746;0.7490;-0.8593;
974192105002522;-7.8284;0.2243;-1.7671;
974192115106845;-11.9824;-0.9497;-4.9196;
974192125216584;-13.4172;0.4831;-1.4222;
974192135320907;-7.9531;-0.6622;-0.5743;
974192145425230;-5.9791;-1.5532;-1.1659;
974192155533668;-9.5315;-0.7555;-2.1434;
974192165637990;-10.0155;-1.5915;-2.1386;
974192175742313;-8.7461;-0.7412;-1.8344;
974192185832313;-8.0656;0.0565;-0.4953;
974192195936636;-9.4908;-0.6790;-1.9181;
974192206040959;-14.2029;0.0398;-1.6164;
974192216173980;-12.8877;-0.9879;0.7289;
974192226278303;-5.6940;-1.3807;-0.5958;
974192236382626;-1.0181;-1.0741;-1.9301;
974192246475699;-6.8031;-1.2036;-3.8273;
974192256580022;-13.6807;-0.5351;-5.7628;
974192266684345;-13.7907;0.9523;-1.7719;
974192276777418;-9.5195;-0.1472;0.5157;
974192286881688;-10.4635;0.7343;-0.8809;
974192296985959;-11.1006;-0.1615;-0.1262;
974192307092522;-8.0441;-2.0492;0.0700;
974192317196793;-7.2081;-0.1161;-3.4920;
974192327301063;-8.9471;0.1834;0.1947;
974192337404865;-7.0762;1.2637;0.1636;
974192347509136;-8.1182;1.6161;-2.1769;
974192357613407;-9.0933;1.8987;-1.9110;
974192367719709;-9.5052;1.1369;-2.9004;
974192377823980;-12.9763;0.9045;-3.4968;
974192387928251;-10.7007;-0.9640;-1.7961;
974192398029709;-9.4669;-0.2022;-2.2678;
974192408133980;-11.6396;-0.3147;0.2067;
974192418238303;-8.4440;-0.0754;1.8571;
974192428343772;-7.8165;1.4841;0.7026;
974192438448043;-7.0116;1.1584;1.2272;
974192448552365;-7.2200;1.1225;-1.1157;
974192458673668;-12.8327;1.9370;-1.9588;
974192468777938;-9.5004;1.2374;-0.8617;
974192478882209;-5.5265;0.8758;-4.2873;
974192488970751;-10.2144;0.3416;-3.0631;
974192499075022;-11.5869;-0.3266;-2.6632;
974192509179293;-10.7342;-1.1533;-3.2548;
974192519299709;-7.4716;-0.1232;-0.2916;
974192529403980;-7.8811;-0.2166;-0.3562;
974192539508251;-8.5256;1.5897;0.1588;
974192549595126;-5.9480;0.7490;0.3793;
974192559699397;-10.0155;1.7046;-2.2415;
974192569803668;-4.1512;1.5802;-1.1037;
974192579907626;-18.9724;-0.2118;0.1660;
974192590011897;-35.4030;-1.4767;0.4558;
974192600116168;-2.5848;-3.7499;3.0933;
974192610215022;9.5581;-4.1524;4.5257;
974192620319293;-4.8150;0.0446;-3.0129;
974192630423563;-12.5166;-0.0009;-5.0157;
974192640540126;-12.3464;3.0987;-2.0186;
974192650644397;-6.4965;3.2737;-5.2071;
974192660748668;-10.2526;2.1814;-5.4514;
974192670860126;-3.3057;2.3345;0.2809;
974192680964397;-6.3096;-4.6412;-15.9461;
974192691068720;-25.0929;-5.0530;-9.0855;
974192701153772;-14.2268;-0.2477;7.4267;
974192711258043;-2.6471;-0.8970;3.8070;
974192721362365;-5.6773;1.2832;2.5759;
974192731475022;-8.1948;2.0399;4.5257;
974192741579293;-8.3315;2.2747;2.1015;
974192751683615;-9.0455;1.5344;-0.8833;
974192761800959;-12.0015;0.2530;-4.3328;
974192771905230;-9.2874;-0.5758;-2.8908;
974192782009501;-9.4669;0.3129;-3.7484;
974192792096115;-11.1006;-0.5542;-4.6394;
974192802200386;-11.7739;-0.5734;-0.5767;
974192812304709;-6.1325;0.1857;-2.0498;
974192822422522;-7.0068;-0.8827;-2.0019;
974192832526793;-10.7533;0.4229;0.2091;
974192842631063;-8.1015;0.3320;1.4764;
974192852735907;-10.7581;0.2889;-1.0343;
974192862840178;-13.1919;1.3047;0.8797;
974192872944449;-5.2460;-0.2477;2.1876;
974192883044813;-8.3650;0.7442;-0.0592;
974192893149084;-11.0336;-0.4513;-1.9134;
974192903253355;-12.3535;-0.2405;-1.1085;
974192913352730;-14.8977;0.0805;-0.7995;
974192923457001;-9.5725;-0.3242;2.2669;
974192933561272;-7.3158;0.3368;0.5922;
974192943671584;-11.0049;0.5692;-0.3802;
974192953775855;-11.5439;0.9691;0.0580;
974192963880178;-7.0762;2.2149;-0.7660;
974192973959918;-5.8355;1.1680;-1.9899;
974192984064188;-11.4649;1.7716;-2.9865;
974192994168511;-9.2560;2.1981;-3.9568;
974193004323668;-8.6094;0.2650;-3.5423;
974193014427938;-14.7706;1.0484;-2.4332;
974193024532209;-2.9321;0.7394;-2.9195;
974193034622522;2.7332;-0.6072;-2.0474;
974193044726793;-22.8314;2.3034;-1.7001;
974193054831063;-19.5856;1.7453;-1.4964;
974193064915699;0.0502;-0.6550;2.7003;
974193075019970;-2.0698;1.5009;3.1460;
974193085124240;-16.2559;-0.6646;0.9182;
974193095229188;-18.0332;0.7442;0.6834;
974193105333459;-5.6486;0.3535;0.2450;
974193115437730;-5.3970;-2.9809;0.0317;
974193125545126;-7.4477;2.9121;6.5931;
974193135649397;-0.5151;1.1656;-2.4882;
974193145753668;-15.7457;-0.9664;-13.4213;
974193155859813;-20.6707;0.5955;-0.3036;
974193165964084;-1.5380;-0.3194;4.7103;
974193176068355;-2.8507;-2.8325;-4.5054;
974193186157834;-17.4990;-2.3222;-3.5447;
974193196262105;-18.4789;-3.0769;2.4296;
974193206366376;-6.0006;-1.1557;4.6409;
974193216497938;0.6709;0.1666;1.6654;
974193226602209;-12.2195;-1.9415;1.1216;
974193236706480;-17.7960;0.4110;-0.7373;
974193246783772;-10.5832;-0.4178;0.3000;
974193256888043;-10.3750;-0.7220;0.6978;
974193266992313;-6.5324;0.5189;-0.2797;
974193277107626;-2.6423;0.1666;-3.9640;
974193287211897;-11.0886;0.4445;-4.5078;
974193297316220;-13.2183;2.4592;-4.5437;
974193307424813;-9.6634;3.1469;-2.3037;
974193317529084;-23.6602;0.2626;0.8198;
974193327633407;-5.5071;-1.1100;0.6380;
974193337739032;3.8447;-1.0645;3.8046;
974193347843303;-7.3158;0.5524;-0.9168;
974193357947626;-15.8151;1.1608;-4.1267;
974193368042365;-12.7008;3.5396;-0.4929;
974193378146636;-5.3372;2.1766;1.4620;
974193388250959;-6.3912;1.2879;-1.2787;
974193398354813;-11.1197;3.1564;0.9829;
974193408459084;-8.3411;-1.0549;-5.1999;
974193418563407;-16.9576;-1.6274;-6.0526;
974193428666376;-12.5453;0.2171;5.7547;
974193438770647;-0.5509;-1.7713;2.4488;
974193448874970;-6.3386;0.5788;-0.3706;
974193459000438;-12.0852;0.9739;2.2837;
974193469104709;-11.4194;0.2148;-0.3347;
974193479209032;-12.4783;-0.0248;0.4056;
974193489302730;-9.5605;-0.9664;-0.3921;
974193499407001;-9.2201;-3.4193;0.3625;
974193509511324;-9.7113;-1.5006;0.0918;
974193519639293;-11.3258;-3.0553;-2.4643;
974193529743563;-7.9819;-1.0382;-1.8344;
974193539847886;2.5657;1.0101;0.7576;
974193549919188;-16.5314;0.7585;-2.7900;
974193560023511;-25.8787;0.6577;-3.9063;
974193570127782;0.0550;-0.2764;2.4969;
974193580238563;1.2170;-0.7914;-1.5036;
974193590342834;-17.3219;-1.5532;-1.1300;
974193600447157;-15.3096;0.1618;-1.3122;
974193610547365;-6.7672;-0.2500;-1.5012;
974193620651688;-9.2345;0.5333;0.5109;
974193630755959;-10.5449;1.9083;3.3616;
974193640883668;-1.2311;3.7026;3.1842;
974193650987938;-8.4730;-0.2740;-9.3060;
974193661092261;-22.5392;0.6194;-2.1434;
974193671178043;-8.1422;3.6544;5.7117;
974193681282313;-1.9762;-0.7555;-3.1158;
974193691386636;-14.1598;-1.0238;-1.9756;
974193701487105;-11.2708;1.1225;2.2597;
974193711591428;-5.9527;-0.4777;0.1397;
974193721695699;-10.1474;-0.4202;-0.7804;
974193731820022;-16.4187;-0.2189;-1.2930;
974193741924293;-9.6132;-0.1807;1.9771;
974193752028615;-4.4605;-0.2596;1.2846;
974193762130543;-10.8852;-0.7292;-2.1194;
974193772234813;-11.1823;-0.1496;-1.1300;
974193782339136;-3.6338;0.2124;-2.7015;
974193792451272;-8.9279;-1.2012;-4.6657;
974193802555543;-12.7705;1.3478;-1.5108;
974193812659865;-6.2976;0.1355;-1.7671;
974193822736376;-8.7051;-0.5423;-4.9340;
974193832840699;-15.1899;-0.9497;-0.4786;
974193842944970;-10.2287;0.3248;2.0273;
974193853038303;-6.9039;-1.8622;-0.7349;
974193863142626;-12.6649;-0.6957;1.4285;
974193873246897;-8.5711;0.3799;3.7232;
974193883363043;-6.1158;1.2350;2.0321;
974193893467365;-9.9532;0.4516;-0.4017;
974193903571636;-9.7974;0.7247;-0.5671;
974193913663668;-8.0321;1.0579;-1.0845;
974193923767990;-10.0131;0.0781;-2.4667;
974193933872261;-9.4334;0.2961;-3.0775;
974193943987105;-11.0169;-0.6718;-4.2873;
974193954091376;-12.1570;-1.3448;-0.4137;
974193964195699;-9.7783;0.0996;0.0054;
974193974292105;-9.7041;-1.3017;0.5013;
974193984396376;-10.3606;-1.0741;2.0058;
974193994500699;-12.0326;0.4759;1.3205;
974194004613251;-9.1125;0.4158;2.5543;
974194014717574;-8.6859;0.0876;2.1709;
974194024821845;-14.4616;0.2937;-1.9780;
974194034914605;-11.0647;0.4325;0.7098;
974194045018876;-1.7605;-0.1759;-0.0784;
974194055123199;-4.4629;-1.1243;-4.7569;
974194065247209;-11.0097;-0.1352;-5.0061;
974194075351480;-12.6075;1.0507;-5.0659;
974194085455803;-7.9531;-0.0320;-3.8943;
974194095553355;-3.9479;0.8351;-0.7995;
974194105657626;-6.3984;0.5548;-1.1874;
974194115761949;-15.3766;0.2722;-0.7923;
974194125873876;-18.2704;0.0063;0.7839;
974194135978147;-14.3417;-0.4872;5.4458;
974194146082470;-9.6203;-0.4155;7.0651;
974194156190647;-11.4601;-0.9640;7.0098;
974194166294918;-10.1785;1.5200;7.0388;
974194176399240;-6.2402;-0.5758;2.9830;
974194186505282;-7.2488;1.8772;0.9948;
974194196609553;-8.3195;1.4124;-3.2070;
974194206713876;-9.1986;0.7944;-5.5475;
974194216812522;-8.4105;1.4100;-7.8565;
974194226916793;-4.7527;-1.2036;-9.2052;
974194237021115;-7.2512;-0.3314;-7.0349;
974194247127626;-11.5176;-0.9688;-6.5749;
974194257231897;-13.8867;-2.7317;-2.9267;
974194267336220;-13.0675;-0.4537;2.4200;
974194277431688;-9.6706;-0.8755;3.9939;
974194287535959;-16.9337;0.0470;7.1441;
974194297640282;-4.8365;0.5477;6.9236;
974194307748043;-2.7691;-0.0320;5.6707;
974194317852365;-14.8256;0.0948;1.6032;
974194327956636;-12.5357;2.6052;2.6501;
974194338053876;-3.4184;0.5835;-1.5709;
974194348158147;-6.4152;1.0842;-3.6069;
974194358262470;-11.0527;0.0948;-6.8671;
974194368365855;-12.0924;-0.1424;-6.3571;
974194378470178;-8.3435;-1.4958;-6.6733;
974194388574449;-10.0537;-2.8947;-4.3184;
974194398679397;-9.4406;-0.1591;1.4524;
974194408783720;-7.7399;0.0230;0.5922;
974194418887990;-8.1637;-0.4394;2.1135;
974194428991063;-13.9131;0.7319;3.0814;
974194439095386;-10.6265;1.4746;4.5209;
974194449199657;-10.5832;-0.2261;1.2368;
974194459322886;-10.6241;0.4229;3.5028;
974194469427157;-7.1145;-0.6335;2.0082;
974194479531480;-9.6849;-0.3652;-0.5216;
974194489619397;-15.2952;0.9619;-1.7312;
974194499723668;-10.8036;-0.1065;-1.4868;
974194509827990;0.1534;-0.1280;-0.7875;
974194519957938;1.5260;0.6410;-4.6609;
974194530062209;-10.2311;0.9978;-5.7963;
974194540166532;-17.8777;1.5272;-7.5165;
974194550244293;-13.4124;1.0244;-0.7564;
974194560348563;-9.2560;-0.7316;1.3134;
974194570452886;-10.0708;-0.3867;4.5233;
974194580565959;-12.5501;-1.0908;3.0885;
974194590670230;-10.2718;-1.4767;3.6634;
974194600774553;-10.2455;-0.7866;3.8142;
974194610874709;-8.8729;1.0101;5.2588;
974194620978980;-2.4960;1.1154;2.6859;
974194631083303;-5.0210;2.5789;-0.4738;
974194641201688;-13.9466;3.0173;-4.0789;
974194651305959;-17.2690;2.1622;-4.0454;
974194661410230;-10.2359;-0.1878;-6.5390;
974194671503043;1.9187;-2.1425;-3.5590;
974194681607313;-0.4792;-1.9268;-3.7507;
974194691711636;-36.5818;0.5022;-2.2606;
974194701804501;-18.5818;-0.1472;2.5352;
974194711908824;6.6332;-1.9893;3.0670;
974194722013095;1.1812;-0.6526;7.8485;
974194732129397;-9.3257;1.1847;2.9351;
974194742233668;-15.1612;3.6664;-4.0214;
974194752337990;-15.8103;-0.0921;-5.4371;
974194762486688;-11.8074;0.1618;-0.2557;
974194772590959;-10.6744;0.9428;3.9532;
974194782695282;4.6089;0.6075;3.5267;
974194792764397;-12.2387;-2.7990;-14.9040;
974194802868720;-28.9639;-1.6681;-1.9947;
974194812972990;-5.0689;-0.4083;6.7247;
974194823092522;1.0421;0.2171;-1.5876;
974194833196793;-12.3464;0.2339;-1.0056;
974194843301063;-9.0622;1.0053;3.6251;
974194853360647;-3.6314;1.9561;-3.1783;
974194863464970;-7.7734;-0.4633;-3.1376;
974194873569240;-14.2053;0.3344;-5.8205;
974194883687522;-10.7605;-0.2955;-0.0497;
974194893791845;-4.7480;-0.4801;-0.4304;
974194903896115;-9.7184;0.0852;-0.7923;
974194914001532;-16.0331;-0.4777;-0.3969;
974194924105803;-12.0494;0.2100;3.1029;
974194934210126;-10.9092;-0.3772;1.7327;
974194944330647;-9.8671;-0.4705;5.2277;
974194954434918;-5.0689;0.3631;4.9929;
974194964539240;-9.6299;0.9500;-0.4594;
974194974629397;-13.7309;-0.4777;0.0870;
974194984733668;-8.0776;1.3406;2.4081;
974194994837990;-8.3770;1.4291;-3.2931;
974195004948563;-11.8696;-0.9640;-2.0234;
974195015052834;-10.6170;1.2230;-2.8980;
974195025157157;-8.9949;-1.8072;-4.2084;
974195035264188;-12.7920;-1.5461;-2.2080;
974195045368459;-10.5927;-0.5734;-1.9134;
974195055472782;-5.4975;-1.0047;0.2330;
974195065579293;-8.6644;0.5309;-0.0544;
974195075683563;-12.4950;2.0279;2.2187;
974195085787886;-9.8647;0.5548;-1.3026;
974195095881168;-7.7614;1.0579;1.0379;
974195105985490;-8.0632;0.0374;-1.2978;
974195116089761;-12.6338;0.1929;-0.3730;
974195126204188;-10.5520;-0.2883;-2.1769;
974195136308459;-7.5769;-1.0334;-2.2965;
974195146412782;-10.5640;-0.8850;-1.8272;
974195156503147;-10.2431;1.8867;2.8801;
974195166607470;-6.2258;0.5692;-1.9828;
974195176711740;-12.3320;0.5644;-1.3959;
974195186839813;-12.7490;0.4612;0.1828;
974195196944084;-5.9001;0.3511;2.0273;
974195207048407;-6.0679;-0.8850;-0.9694;
974195217158147;-10.9953;0.3153;-0.5168;
974195227262418;-15.6305;-1.7115;-2.7398;
974195237366740;-11.5439;0.5094;2.1541;
974195247462053;-3.6772;-0.1113;0.8629;
974195257566376;-5.1550;0.7418;0.2450;
974195267670647;-12.5501;-0.2979;-1.8679;
974195277761688;-13.2135;0.4277;-1.0223;
974195287866011;-10.4037;-0.6598;-2.7494;
974195297970282;-9.5701;-0.3461;1.4091;
974195308075022;-9.9772;-0.8731;-0.5695;
974195318179345;-13.4674;-0.6168;1.5075;
974195328283615;-4.5658;0.3464;-1.3313;
974195338386793;-3.8638;-0.3604;0.8871;
974195348491063;-5.6533;1.3286;-2.8331;
974195358595386;-0.9628;3.1971;-2.2702;
974195368707782;-29.2992;0.3727;-3.9999;
974195378812105;-13.9561;1.8150;-2.8594;
974195388916376;0.1702;-0.8560;1.3612;
974195399011376;-16.6032;-2.3462;2.8705;
974195409115699;-6.7098;-0.2189;1.8428;
974195419219970;-2.8579;-1.2921;0.6428;
974195429325959;-7.6032;0.4469;0.7146;
974195439430282;-10.7845;2.2723;0.8725;
974195449534553;-21.5306;2.8639;1.0140;
974195459638147;-5.4592;3.3407;4.9403;
974195469742470;-0.1340;-1.7641;-10.5395;
974195479846740;-15.7528;-0.9903;3.3999;
974195489952365;-6.7313;1.6280;-0.5815;
974195500056688;-15.3048;-1.3926;-8.1272;
974195510160959;-17.8056;-1.5843;1.5386;
974195520277730;-2.1009;2.0904;4.4587;
974195530382053;-3.6314;0.4373;3.0550;
974195540486324;-6.1229;1.7166;1.7016;
974195550568459;-10.9905;-0.5160;-7.5141;
974195560672782;-15.5276;0.0613;-1.7671;
974195570777053;-8.7724;0.7370;0.0173;
974195580896480;-6.9637;1.1584;-0.0018;
974195591000803;-9.4047;-0.4322;-0.5432;
974195601105074;-8.6285;0.9691;-0.0473;
974195611206480;-12.5357;-1.4456;-3.4250;
974195621310803;-12.7585;0.7657;3.1220;
974195631415074;-6.7361;-0.4609;-0.8306;
974195641539605;-11.4577;-0.3290;2.1087;
974195651643928;-10.9068;0.6051;2.4033;
974195661748199;-5.4855;1.9250;1.8787;
974195671853720;-8.7341;0.4253;-2.2175;
974195681958043;-11.3545;0.4926;1.1240;
974195692062365;-11.1464;0.5189;-2.9004;
974195702135959;-9.2560;0.4759;-0.9215;
974195712240230;-6.4941;-0.7340;-2.1721;
974195722344605;-8.5831;0.1881;-0.7011;
974195732532782;-10.0346;-0.3891;-3.1926;
974195742637001;-13.0026;0.3296;-1.1348;
974195752741376;-17.8152;-0.7149;-0.5719;
974195762747001;-10.0466;-0.0033;5.7500;
974195772851324;-3.9838;-0.5471;3.1316;
974195782955647;-7.3875;0.1211;3.5821;
974195793132938;-12.7729;-1.1509;-0.7516;
974195803237209;-11.6420;1.0819;-0.3586;
974195813341532;-5.9073;-0.2548;-0.8593;
974195823393615;-10.1186;1.2808;-1.1659;
974195833497886;-15.5420;0.9284;-3.5734;
974195843602209;-7.6439;-0.4729;-0.2988;
974195853723876;-5.7658;-1.4360;-3.8656;
974195863828199;2.3381;-0.6885;-1.9588;
974195873932470;-9.7950;0.7681;-3.1687;
974195884032418;-19.8754;1.5081;-3.2572;
974195894136740;-18.9389;0.3535;0.0628;
974195904241011;-11.6468;-0.1472;4.3603;
974195914348355;-7.4979;-1.9172;6.5381;
974195924452626;-8.3507;0.0374;5.0551;
974195934556949;-13.1417;-4.2434;4.8179;
974195944645022;-7.0211;1.2565;-0.4089;
974195954749345;-13.1752;-0.5088;0.9015;
974195964853615;-5.8116;2.5860;3.9389;
974195974951793;3.1358;3.9108;-2.9004;
974195985056115;-11.8361;1.1895;-9.6820;
974195995160386;-19.9352;0.1618;-6.5438;
974196005282001;-11.5391;0.0111;-8.4987;
974196015386324;-2.4793;-1.7186;-0.8833;
974196025490595;-7.7806;-2.1520;0.3864;
974196035586897;-19.9786;-1.2802;0.6308;
974196045691220;-13.9011;0.2626;2.7290;
974196055795490;-0.7451;-1.4360;6.0063;
974196065893459;-6.5997;0.7056;5.6659;
974196075997782;-15.2904;1.4459;4.0466;
974196086102053;-9.6562;1.8939;0.9135;
974196096205543;-7.5099;-0.7771;-2.4930;
974196106309865;-12.3966;1.5491;1.3110;
974196116414136;-5.2388;1.7429;-2.8187;
974196126531063;-4.9418;0.3176;-4.7713;
974196136635386;-12.1881;-0.9664;-7.4806;
974196146739657;-16.5266;-0.0778;-2.9818;
974196156842313;-10.7390;0.2578;1.4285;
974196166946636;-4.9490;0.1379;2.0536;
974196177050907;-7.8906;-0.4777;0.5013;
974196187153876;-13.1345;-0.1591;2.7314;
974196197258199;-9.4119;1.7189;4.3125;
974196207362470;-7.4453;-0.4418;0.0245;
974196217485647;-12.9787;0.2124;0.9589;
974196227589970;-13.2230;1.1919;1.2392;
974196237694240;-4.8269;-0.7364;0.4534;
974196247778668;-10.5090;0.4421;-0.5168;
974196257882990;-10.6935;-0.2166;-2.3303;
974196267987261;-10.9235;-1.0573;-2.5409;
974196278084397;-10.7342;0.6840;-3.4442;
974196288188668;-9.3592;0.7490;1.7136;
974196298292990;-8.5926;-0.2381;-0.6006;
974196308404449;-10.2144;-0.6837;-0.7277;
974196318508720;-6.4845;-1.2802;0.8629;
974196328613043;-5.9647;-0.8130;-1.0056;
974196338713355;-15.6808;-0.4513;0.8270;
974196348817678;-15.4893;-0.6096;-2.4835;
974196358921949;-8.6812;-1.4480;2.1852;
974196369028355;-4.8820;-0.8632;3.5435;
974196379132678;-10.2311;0.1905;2.1254;
974196389236949;-14.0758;0.7128;-0.6891;
974196399336376;-11.1703;0.7442;-1.7025;
974196409440647;-4.4701;0.2626;2.3913;
974196419544970;-9.5366;1.1130;-0.1023;
974196429651376;-15.4846;4.0187;-0.1095;
974196439755699;-4.2329;1.8317;-1.1396;
974196449859970;-14.7993;0.9165;-4.9938;
974196459970230;-17.5663;1.6639;1.2751;
974196470074501;-1.4970;1.0364;2.2645;
974196480178876;-3.6508;0.8375;0.5755;
974196490283459;-13.9490;0.6529;-0.4184;
974196500387730;-13.4339;3.1564;-3.2883;
974196510492053;-2.8866;2.7299;1.0738;
974196520637157;-1.6959;3.8342;-0.1669;
974196530741428;-6.5348;1.6687;-3.8345;
974196540845751;-27.2824;3.9084;-0.7445;
974196550896272;-29.7210;1.8293;-2.2702;
974196561000595;4.0149;-5.6880;6.6769;
974196571104865;-9.9341;-0.9401;9.7457;
974196581219293;-10.0995;-3.3308;5.0192;
974196591323563;-7.5362;1.5491;2.7075;
974196601427886;-7.2248;0.3320;3.1627;
974196611533563;-6.4152;2.2077;-0.4905;
974196621637834;-7.3612;3.3168;-1.4701;
974196631742157;-11.4841;1.8556;-4.9388;
974196641860855;-4.8341;1.4722;-6.8647;
974196651965178;-13.8317;-2.0515;-12.5854;
974196662069449;-16.5912;-1.0717;-3.1902;
974196672157938;-1.6863;-2.8851;-3.8584;
974196682262209;-10.8757;-1.3496;3.3784;
974196692366584;-17.6118;-0.9018;5.3856;
974196702534032;-8.0919;1.0890;5.9847;
974196712638251;-5.4138;1.4076;7.6113;
974196722742626;-9.7161;0.4469;4.3774;
974196732785438;-14.2747;2.2675;1.2009;
974196742889761;-9.4190;1.6256;1.9337;
974196752994032;-4.5921;2.2053;-1.0391;
974196763135126;-11.9246;-0.0081;-5.5113;
974196773239397;-17.0345;1.1417;-1.9828;
974196783343720;-6.1469;0.9045;-1.9995;
974196793410126;-6.3673;-3.7116;-3.5973;
974196803514397;-15.3335;-1.8503;-0.4666;
974196813618720;-10.8156;-0.2596;0.9613;
974196823716011;-5.3085;-1.2514;0.4199;
974196833820282;-6.8824;-0.2453;1.4788;
974196843924605;-8.0345;0.3894;2.3937;
974196854055334;-9.5243;0.7418;-0.5599;
974196864159605;-10.9475;1.2903;-1.3433;
974196874263928;-13.4865;0.6314;-0.8378;
974196884334188;-12.2937;0.6505;-0.4953;
974196894438511;-7.3038;-0.9688;0.3888;
974196904542782;-9.1292;-1.4384;0.5133;
974196914685230;-12.8614;-0.0682;1.0810;
974196924789501;-10.2168;-0.8656;0.5252;
974196934893824;-8.3291;-0.2142;1.2081;
974196944969397;-9.6873;-0.2572;2.5352;
974196955073668;-13.1201;1.3884;2.0608;
974196965177990;-8.2454;-0.3843;1.0355;
974196975283251;-6.6260;0.3081;0.2665;
974196985387574;-7.5482;-0.2596;-2.0521;
974196995491845;-8.9758;-0.3843;-3.7627;
974197005603147;-8.4730;0.7513;-3.7340;
974197015707418;-9.2130;-0.4011;-1.8129;
974197025811740;-13.2903;1.1441;-2.7087;
974197035920751;-14.7371;0.2841;-0.0353;
974197046025022;-11.5965;0.5620;3.4502;
974197056129345;9.7977;-2.7870;3.0503;
974197066231897;-6.7002;1.2565;1.2966;
974197076336168;-40.9271;2.2531;-2.2702;
974197086440490;-1.3152;0.1259;0.3120;
974197096542418;14.3779;-2.3581;5.9031;
974197106646688;-29.4670;1.4650;4.4731;
974197116751011;-26.7769;2.8687;0.5276;
974197126860334;3.1669;-1.6804;1.5769;
974197136964605;-5.4544;-2.8851;3.9221;
974197147068928;-13.9202;-1.4695;-1.2114;
974197157171376;-13.4124;0.8758;-1.0128;
974197167275699;-2.4170;2.6868;4.1067;
974197177379970;0.9846;-0.5207;-9.5575;
974197187486688;-26.0773;0.3224;-7.0373;
974197197590959;-13.4937;1.8197;7.4554;
974197207695282;11.1200;1.0149;-2.0955;
974197217814709;-16.9098;-2.4443;-9.2602;
974197227918980;-31.5942;-2.5403;1.1192;
974197238023303;-4.1225;-0.6766;2.8944;
974197248113980;2.6830;-2.7030;4.3869;
974197258218251;-12.9619;-1.6466;3.8504;
974197268322574;-18.0356;0.9428;-0.2581;
974197278422938;-9.0790;0.2411;2.6166;
974197288527261;0.5844;0.0972;1.7399;
974197298631584;-10.2263;-0.7436;-0.7107;
974197308739501;-13.5634;1.4554;-0.1478;
974197318843824;-6.2498;0.2530;-4.8072;
974197328948147;-10.9379;-2.2887;-5.5810;
974197339041480;-14.6964;-0.1687;-1.1587;
974197349145803;-5.9049;-1.8885;0.0461;
974197359250126;-8.6716;-2.0492;-0.4184;
974197369355647;-15.0293;-1.0813;1.7638;
974197379459970;-9.4047;0.0182;1.7638;
974197389564293;-8.1999;-1.4767;4.1115;
974197399666584;-11.6997;-0.0416;4.0848;
974197409770907;-10.8682;0.7944;2.6166;
974197419875230;-6.5037;-0.7627;0.2665;
974197429978615;-7.8667;0.7080;2.4176;
974197440082938;-9.5533;-1.0190;-2.3447;
974197450187261;4.5658;-0.0778;-5.3007;
974197460290230;-0.9126;1.8796;-2.9961;
974197470394553;-41.9836;-1.3304;-5.5041;
974197480498876;-16.0881;0.3153;-3.8608;
974197490604397;4.4844;-1.8790;4.3654;
974197500708720;-10.2957;-5.5322;10.1384;
974197510813043;-19.8562;-0.1783;3.1938;
974197520924605;-14.2077;-1.6780;4.0370;
974197531028928;-0.0981;1.6519;5.3641;
974197541133251;-7.4022;0.0900;1.5027;
974197551239293;-13.2661;2.2053;0.5635;
974197561343615;-6.7887;5.9542;2.0967;
974197571447938;1.3391;2.2149;-1.3983;
974197581542313;-15.3431;1.0579;-10.9373;
974197591646636;-19.4803;1.2159;-5.5256;
974197601750959;-6.0221;-2.0922;-5.5905;
974197611854084;-8.0871;-1.4288;-1.8990;
974197621958407;-8.6883;0.6314;-2.2917;
974197632062730;-11.5152;-1.0190;-1.7985;
974197642190334;-13.3047;2.3683;5.2229;
974197652294657;1.9235;2.8953;3.4837;
974197662398928;-11.9560;1.6519;3.2824;
974197672507105;-15.9805;3.6353;6.3200;
974197682611428;-6.2569;2.8256;1.3923;
974197692715751;-11.2253;-0.5782;0.3287;
974197702791115;-11.5176;1.2302;1.8978;
974197712895438;-4.4267;1.4554;-1.7527;
974197722999761;-11.4290;-1.6202;-3.7699;
974197733151480;-21.0948;0.5429;-0.3586;
974197743255803;-0.7092;0.7394;-2.0788;
974197753360126;-2.8747;-1.0071;1.3588;
974197763418459;-14.4066;2.1503;2.3841;
974197773522782;-18.3712;1.8724;0.3431;
974197783627105;-3.0757;-0.8154;-0.3706;
974197793727730;1.3439;0.1451;4.8323;
974197803832053;-40.5533;-1.3711;0.7481;
974197813936376;-23.3824;-1.6681;-2.4021;
974197824046793;13.8293;-0.5925;10.2006;
974197834151115;0.1199;-2.7440;6.4277;
974197844255438;-21.0589;0.3846;-3.1496;
974197854366376;-19.4994;5.3195;-3.9736;
974197864470699;-6.1469;0.4325;-0.1143;
974197874575022;-4.2760;1.6567;-2.3518;
974197884677313;-5.7084;-0.4178;-1.5709;
974197894781636;-13.4722;2.7514;-3.3386;
974197904885959;-3.7394;2.5549;-0.1693;
974197914998668;-3.8734;-3.7738;-11.8355;
974197925102990;-29.2298;-3.2468;-6.1989;
974197935207313;-11.3761;0.2937;1.7518;
974197945303043;4.7599;-0.0969;4.0848;
974197955407365;-12.6386;-0.6766;3.2584;
974197965511688;-20.8217;2.1742;3.7854;
974197975625230;-6.4008;0.6242;2.4945;
974197985729553;-6.2593;0.4421;3.8934;
974197995833876;-11.7523;0.4325;1.6080;
974198005933772;-12.8351;1.1154;3.2512;
974198016038095;-9.4430;1.0364;0.1493;
974198026142418;-8.0034;-0.2524;-1.7384;
974198036253980;-10.3534;-0.6670;0.0846;
974198046358303;-14.6486;-0.0464;-2.0545;
974198056462626;-7.2918;0.0374;-2.7829;
974198066561532;-7.2942;-0.0535;-0.9072;
974198076665855;-9.0000;0.3153;-0.2509;
974198086770178;-12.0613;0.4038;-1.9062;
974198096878772;-11.4338;0.5405;0.3817;
974198106983095;-6.7672;-0.1854;1.4764;
974198117087418;-10.2479;-0.6742;0.7169;
974198127191272;-13.7955;-0.1878;0.7385;
974198137295595;-11.5463;1.0101;1.7423;
974198147399918;-7.4788;-1.2132;0.8079;
974198157495543;-13.3502;-0.4848;0.8079;
974198167599865;-13.1919;0.0565;1.7423;
974198177704188;-5.7658;0.7537;1.7495;
974198187801376;-8.0871;1.2565;0.8797;
974198197905699;-10.6074;0.9069;-0.3993;
974198208010022;-2.2062;2.8184;-3.3362;
974198218115959;-4.8604;3.7528;-1.5179;
974198228220282;-22.7309;-0.7364;-3.2333;
974198238324605;-9.7352;1.1465;-3.5112;
974198248444084;-3.4041;-0.5830;1.8500;
974198258548407;-16.9792;-4.9167;1.9385;
974198268652730;-26.9495;0.0374;2.2645;
974198278759084;-0.6156;-1.7761;3.5530;
974198288863407;8.3865;-0.9712;8.6940;
974198298967782;-17.2499;0.4493;-0.4519;
974198309067313;-22.0050;3.1995;-2.4787;
974198319171636;-3.7442;2.3201;-1.1898;
974198329276011;-3.4950;0.9739;3.5315;
974198339382834;4.4964;2.4377;-1.7862;
974198349487157;-6.2665;2.3273;-7.4085;
974198359591532;-36.3207;-2.1879;-1.5637;
974198369694397;-12.4708;-3.3212;-7.0636;
974198379798720;-1.7198;-3.0218;0.0437;
974198389903095;-16.4809;-5.7311;5.8744;
974198400008147;-6.6212;2.7156;6.0876;
974198410112470;4.0388;2.2890;4.7438;
974198420216845;-6.6404;1.6807;0.4056;
974198430318615;-25.3131;1.6304;-2.1673;
974198440422938;-16.1934;1.8485;0.8824;
974198450527313;-0.8527;0.5022;1.8141;
974198460623147;-5.2412;0.1092;6.6410;
974198470727470;0.5605;1.6998;5.2708;
974198480831845;-25.7300;-2.0300;-10.2473;
974198490938251;-36.8115;-4.7776;-10.3071;
974198501042574;2.9441;0.2291;5.3330;
974198511146949;10.6720;-2.2098;6.6817;
974198521271480;-21.2910;2.0279;1.9962;
974198531375803;-30.0443;2.9551;0.7816;
974198541480126;-15.8175;1.4818;4.6119;
974198551560230;20.1174;-2.6456;3.8982;
974198561664605;5.2415;0.5189;2.3961;
974198571768928;-29.3327;4.2248;-6.3619;
974198581865126;-16.9816;4.8284;-8.4867;
974198591969449;2.8077;1.8197;-3.1615;
974198602073824;-4.6567;-1.8718;-9.5142;
974198612185438;-27.2010;0.2339;-2.4500;
974198622289761;-10.0059;2.3994;3.4143;
974198632394084;7.8933;-0.7866;3.1723;
974198642522313;-11.9246;-1.6899;1.0546;
974198652626636;-28.3460;-0.4705;-1.2497;
974198662730959;-14.0327;-1.9029;0.4295;
974198672811584;0.1558;0.4711;11.2044;
974198682915959;0.5151;1.9490;7.0313;
974198693020282;-11.9294;2.4449;3.9293;
974198703158407;-13.3980;2.1168;-1.5422;
974198713262730;-14.2484;-0.5231;-2.6967;
974198723367053;-12.2626;-0.8608;0.5970;
974198733431793;-4.4964;-1.3161;-1.5805;
974198743536115;-15.9180;-2.9139;-2.1697;
974198753640490;-20.4742;1.0531;0.6811;
974198763763199;-2.9847;-1.6083;1.4405;
974198773867522;-11.2708;-3.7235;2.4921;
974198783971897;-22.1608;0.3272;1.9723;
974198794069813;-3.3320;-0.2213;3.5363;
974198804174136;-3.0829;0.1857;3.8934;
974198814278511;-12.9452;1.5296;0.3601;
974198824377522;-9.8073;2.5119;-1.8655;
974198834481845;-7.6657;0.7729;-2.5504;
974198844586220;-12.9404;-0.2261;-5.0348;
974198854708251;-15.9156;0.3176;-3.3601;
974198864812574;-10.3077;0.4516;-2.6776;
974198874916897;-5.8977;-1.4815;-0.1286;
974198885003772;7.7806;1.3071;-0.5312;
974198895108095;-18.4167;0.1259;-1.2305;
974198905212470;-27.5148;2.5238;-5.6695;
974198915323563;-6.5901;1.4913;1.5817;
974198925427886;-4.5826;-1.6681;7.3573;
974198935532261;-18.6224;0.8782;5.8720;
974198945633980;-1.5691;-0.2237;4.1186;
974198955738303;-10.8852;1.0412;4.5018;
974198965842678;-10.6696;2.2292;-0.1406;
974198975956793;-10.3292;-0.5901;-0.5958;
974198986061115;-11.7787;0.0637;-3.2357;
974198996165490;-13.2302;-0.4107;-3.5183;
974199006277105;-14.9527;3.3550;3.5773;
974199016381428;5.2415;3.1059;3.6419;
974199026485803;-7.7901;-1.0382;-1.3744;
974199036576480;-24.7645;0.3631;-3.0248;
974199046680803;-14.1574;-0.2979;-0.9694;
974199056785178;0.2324;-2.6743;0.1349;
974199066893459;-11.6997;-1.0741;1.7495;
974199076997782;-15.6066;0.5859;1.8500;
974199087102157;-6.3936;2.2579;2.1876;
974199097197834;-8.7724;0.0805;0.7074;
974199107302157;-16.9265;-1.4791;-1.4007;
974199117406532;-8.3459;0.6553;2.2813;
974199127516793;-2.4601;0.0829;2.1637;
974199137621115;-17.1541;0.2602;-1.0941;
974199147725490;-14.5860;-0.4059;-1.3457;
974199157831376;-6.1756;-0.5064;0.7241;
974199167935699;-5.3013;-0.1017;0.9781;
974199178040074;-12.5620;1.6304;-1.5637;
974199188122105;-12.0135;2.0710;-1.3600;
974199198226428;-6.4319;1.2784;0.4965;
974199208330803;-7.7136;2.8328;0.7528;
974199218457001;-9.1771;0.2770;0.5850;
974199228561324;-15.3024;-0.8345;-1.9110;
974199238665699;-12.0302;0.4493;1.4812;
974199248770855;-4.6926;1.3262;4.0920;
974199258875178;-8.7844;0.6218;2.2140;
974199268979501;-17.2355;-0.3556;-0.1860;
974199279082626;-16.3588;-1.0765;1.1530;
974199289186949;-10.1234;-0.6909;2.9638;
974199299291272;-8.2214;-1.3496;4.6528;
974199309393772;-8.2502;-0.7842;2.9638;
974199319498095;-11.3833;0.8207;1.0475;
974199329602418;-11.2923;-1.0095;1.2894;
974199339705022;-10.7318;0.2746;-0.7035;
974199349809345;-10.7222;-0.4083;-0.2174;
974199359913668;-9.4669;-0.5231;-0.5264;
974199370009136;-9.2369;-1.1653;-0.2270;
974199380113459;-14.9432;-1.6828;-0.7059;
974199390217782;-12.6817;-0.7723;-0.4208;
974199400319918;-10.3965;-1.2395;1.5075;
974199410424240;-8.8513;-0.7555;0.7816;
974199420528563;-10.3917;-1.4719;0.7026;
974199430639813;-10.8203;0.7466;0.6018;
974199440744136;-7.7997;0.7152;-0.7011;
974199450848459;-12.2961;1.1680;-0.2127;
974199460953355;-9.5964;1.1297;-0.2605;
974199471057678;-9.4406;1.6208;-0.0832;
974199481162001;-10.5808;1.7572;0.6428;
974199491262105;-12.2267;-0.3003;0.1253;
974199501366428;-12.5788;1.0627;2.7051;
974199511470751;-11.6133;0.0254;2.5041;
974199521581688;-8.7580;-0.3963;1.2368;
974199531686011;-9.5773;-0.9185;3.0141;
974199541790334;-11.0288;1.4722;1.0235;
974199551913459;-10.8805;1.4554;0.3673;
974199562017782;-9.4860;1.7357;1.2799;
974199572122105;-9.4860;1.2254;0.8533;
974199582195438;-10.5832;0.8112;0.6978;
974199592299761;-11.7380;1.4961;0.9494;
974199602404084;-8.0369;0.9547;1.9890;
974199612512626;-10.7438;-0.5088;2.7529;
974199622616949;-13.8027;-0.0153;1.6008;
974199632721272;-9.6586;-0.6574;1.2751;
974199642813147;1.6481;-0.2596;2.0776;
974199652917470;-11.7906;0.2291;0.1588;
974199663021793;-18.2536;0.9188;-5.6049;
974199673187574;-8.7556;1.1489;1.3421;
974199683291897;-21.2288;-2.0827;4.1833;
974199693396220;-9.0263;-0.8106;1.7040;
974199703447626;-17.2905;-2.5977;9.0030;
974199713551949;-32.6435;-3.3667;4.8156;
974199723656272;12.3248;0.7705;7.2565;
974199733775751;20.3761;0.6673;8.1838;
974199743880074;-23.2579;2.6725;-3.1687;
974199753984397;-34.0472;1.9107;-11.6222;
974199764105959;-5.4951;0.1570;-5.3079;
974199774210282;4.4581;-2.0276;-1.8344;
974199784314605;-16.0810;-0.8755;-0.7564;
974199794421376;-33.6545;2.0880;1.9699;
974199804525699;-19.0179;-1.0932;5.8792;
974199814630022;0.4098;-2.3222;9.2186;
974199824720543;2.0387;-1.6178;10.6678;
974199834824865;-0.9365;-1.0430;0.7744;
974199844929188;-8.5759;1.9944;-7.6672;
974199855033772;-7.4740;0.6864;-11.0426;
974199865138095;-20.3234;-3.6206;-19.1800;
974199875242418;-16.7638;0.1499;-6.7044;
974199885337730;5.3803;4.4019;6.0015;
974199895442053;3.0688;3.5133;7.6208;
974199905546376;-18.6296;1.6352;0.3793;
974199915654709;-28.6406;-2.8038;0.4032;
974199925759032;-12.2459;-2.2935;8.8950;
974199935863355;1.7465;-2.0276;10.8093;
974199945970855;-10.4181;-2.9665;5.2397;
974199956075178;-21.6936;-4.9167;-2.5624;
974199966179501;-21.5187;-3.0024;-3.3529;
974199976279188;-8.6596;-0.2333;0.0006;
974199986383511;-5.1096;3.6281;1.9675;
974199996487834;-8.1948;6.0571;4.3340;
974200006598772;-8.5113;5.5878;5.6659;
974200016703095;-4.3238;4.5912;6.3320;
974200026807418;-2.9512;0.9906;2.9853;
974200036898772;-24.2569;-0.6766;1.3277;
974200047003095;-11.6516;0.5261;3.4238;
974200057107418;1.1498;-1.8287;3.4645;
974200067211115;-12.8255;-2.3151;-1.0080;
974200077315438;-20.1365;-0.0320;-4.2491;
974200087419761;-10.6816;0.5955;-2.8235;
974200097534605;-5.2750;-0.9209;-1.0415;
974200107638928;-10.9355;0.1690;-0.7469;
974200117743251;-12.3775;0.4134;0.5252;
974200127856480;-8.7891;0.3966;2.3435;
974200137960803;-11.2612;0.3607;2.0177;
974200148065126;-10.3702;-0.5136;4.3125;
974200158164084;-7.8428;0.1259;4.5425;
974200168268407;-14.3827;-0.3748;2.5184;
974200178372730;-13.4291;1.3214;2.7314;
974200188477105;-6.5468;0.7271;2.1948;
974200198581428;-6.7600;1.8269;1.7806;
974200208685751;-13.8580;1.7979;-2.1625;
974200218802365;-12.3320;1.1656;-1.3648;
974200228906688;-6.7265;1.2494;-0.6628;
974200239011011;-8.4081;1.7166;-0.9502;
974200249100282;-11.8313;2.0614;-0.7107;
974200259204605;-12.3416;0.3870;0.6018;
974200269308928;-9.6347;0.5429;2.5950;
974200279418355;-9.9987;1.7309;2.7580;
974200289522678;-11.5822;0.3799;2.9662;
974200299627053;-12.8016;0.6314;2.9207;
974200309724501;-12.4950;-0.3461;3.4717;
974200319828876;-11.7906;-2.4467;3.2345;
974200329933199;-10.5927;-1.4456;1.3899;
974200340028147;-11.0934;-0.2859;1.6032;
974200350132470;-10.9235;0.7848;-0.6030;
974200360236845;-10.5138;1.1943;0.0102;
974200370337730;-10.7270;0.6625;-0.5527;
974200380442053;-8.0895;1.4985;-0.0377;
974200390546428;-8.3554;0.4735;1.1216;
974200400675751;-13.4698;1.0412;-0.3036;
974200410780074;-11.3641;0.9188;0.9470;
974200420884449;-11.1293;0.5429;2.5496;
974200430966272;-13.4746;0.3320;2.8801;
974200441070595;-11.9776;0.6529;3.4813;
974200451174970;-10.6193;1.3310;4.6095;
974200461276949;-6.6500;0.7008;3.0287;
974200471381272;-12.1355;0.6170;1.9962;
974200481485647;-10.5377;0.5070;-0.1454;
974200491594709;-7.4620;0.8758;0.4223;
974200501699032;-10.7653;0.9117;-1.5924;
974200511803407;-7.9170;0.7609;-2.6943;
974200521897418;-6.0509;-1.5461;-2.0907;
974200532001740;-14.9216;-0.5901;-1.8942;
974200542106115;-15.7217;1.2350;0.6978;
974200552205647;-5.9815;-0.7890;3.0045;
974200562309970;-6.3072;0.7271;5.1942;
974200572414345;-14.6940;0.8040;3.7328;
974200582532522;-18.1747;-0.5423;3.7304;
974200592636845;-13.1106;-1.4192;4.6095;
974200602741220;-6.1923;-0.0105;6.0182;
974200612853147;-11.7954;-1.0693;4.7653;
974200622957470;-13.2374;0.1738;1.1794;
974200633061793;-10.4252;-0.4633;-0.1983;
974200643157522;-15.1514;1.4411;-0.0018;
974200653261845;-11.7811;0.9858;0.5252;
974200663366220;-6.6141;0.1355;0.4989;
974200673481272;-9.4214;0.7104;0.1708;
974200683585595;-11.0767;0.2674;-0.0975;
974200693689970;-7.6705;0.9093;-0.5240;
974200703778511;-5.7514;1.4530;-0.5503;
974200713882834;-11.1150;1.8485;-0.0305;
974200723987209;-9.3401;0.9476;0.0628;
974200734116584;-5.8762;1.8341;0.2115;
974200744220907;-11.5295;1.1752;0.1038;
974200754325282;-15.4630;0.4086;0.4893;
974200764401688;-7.8643;1.5153;2.8490;
974200774506011;-5.8044;-0.8874;4.1904;
974200784610386;-9.2201;2.1574;2.6883;
974200794730022;-9.3042;1.0026;2.3100;
974200804834345;-12.3296;1.2565;0.3529;
974200814938720;-27.6559;-0.9401;-0.0592;
974200825037365;-26.0677;-0.9568;5.1655;
974200835141688;-13.5969;-0.1759;12.2465;
974200845246063;-6.9039;-0.9377;13.0011;
974200855351532;-2.2181;-0.9832;8.8543;
974200865455855;-5.6701;0.0350;3.0742;
974200875560230;-8.8107;1.1632;-2.9865;
974200885671688;-7.9002;1.4722;-6.2779;
974200895776011;-10.2861;0.9452;-6.8360;
974200905880386;-10.0274;1.0412;-5.7174;
974200915981688;-16.9792;-0.3724;-4.5317;
974200926086011;-9.9844;-1.3543;0.1373;
974200936190386;-5.9647;-0.6215;4.0753;
974200946310751;-11.1078;-0.6335;5.2780;
974200956415074;-14.6653;0.3511;2.7386;
974200966519449;-12.3823;-0.7579;5.2301;
974200976607730;-6.2091;0.4854;5.6228;
974200986712105;-6.8127;0.4110;2.6429;
974200996816428;-13.7261;-0.0945;0.9230;
974201006920647;-10.2718;1.3765;0.0508;
974201017024970;-7.8093;1.1177;0.5085;
974201027129345;-8.0776;0.0541;0.5755;
974201037233563;-11.7595;1.1130;0.3912;
974201047337886;-10.9881;0.5142;1.7949;
974201057442261;-6.1301;1.3597;3.1101;
974201067542522;-10.5808;-0.1496;3.1914;
974201077646845;-13.4578;0.1810;2.4631;
974201087751220;-14.4521;-0.2429;2.2669;
974201097862938;-8.6740;-1.2849;2.5687;
974201107967261;-10.3917;-2.3653;3.6012;
974201118071636;-15.0844;-0.3604;0.2234;
974201128185959;-6.4678;-0.0416;1.5936;
974201138290282;-7.7973;0.8375;1.6271;
974201148394657;-15.2282;2.7897;-0.5982;
974201158490959;-6.8079;1.6280;-0.5910;
974201168595282;-6.5180;0.9500;1.1985;
974201178699657;-13.0122;1.0771;-0.6365;
974201188800855;-11.1030;1.8027;-0.0688;
974201198905178;-7.8882;1.5514;1.4836;
974201209009553;-8.5065;-0.6861;0.7385;
974201219103980;-13.0843;-0.6742;0.0413;
974201229208303;-13.1130;-0.5949;0.1971;
974201239312678;-6.5779;-0.9832;2.0919;
974201249425959;-7.7064;-1.0406;1.4907;
974201259509240;-14.1479;0.2435;1.1169;
974201269613563;-10.3391;-0.6096;-0.7107;
974201279717886;-10.6887;-1.3974;-0.6676;
974201289837626;-12.0470;-0.8584;1.2416;
974201299941949;-9.8240;-0.8850;1.1025;
974201310046324;-13.6161;0.0829;1.8643;
974201320162001;-12.9954;2.4257;3.8166;
974201330266324;-9.3066;3.4247;5.5845;
974201340370699;-7.8906;3.8414;6.1929;
974201350464449;-8.5280;3.4798;5.3904;
974201360568824;-10.2550;2.7730;4.1450;
974201370673147;-12.0829;2.3345;3.0574;
974201380770022;-10.6505;1.2087;2.0536;
974201390874345;-9.6491;-0.3987;1.3253;
974201400978720;-9.9197;-1.5820;0.9230;
974201411086480;-9.8958;-2.1999;0.1181;
974201421190803;-10.5879;-2.0300;0.0724;
974201431295178;-10.8610;-0.9951;0.7409;
974201441381845;-10.0585;-0.0706;1.3971;
974201451486168;-10.2742;0.9906;1.9337;
974201461590543;-10.2766;1.9920;2.4993;
974201471709709;-9.8623;2.5765;2.5232;
974201481814084;-10.5042;2.5214;2.2238;
974201491918407;-10.3702;1.8676;1.9481;
974201502017834;-9.6108;0.4878;0.9781;
974201512122157;-10.0370;-1.2706;-0.4666;
974201522226532;-9.5964;-3.1128;-1.5470;
974201532352105;-8.8346;-4.8398;-2.1912;
974201542456428;-9.5988;-5.3716;-2.9291;
974201552560803;-9.7017;-4.9478;-3.0296;
974201562649293;-8.9136;-4.2601;-2.8522;
974201572753615;-9.1077;-3.3619;-2.7063;
974201582857990;-9.4262;-2.6456;-2.3566;
974201592981272;-9.2465;-2.2193;-2.0091;
974201603085595;-9.5581;-1.6780;-1.7719;
974201613189970;-9.7424;-1.3376;-1.3313;
974201623267261;-9.6515;-1.2945;-1.1204;
974201633371584;-9.7567;-1.8885;-1.1300;
974201643475959;-9.5940;-3.2492;-0.5288;
974201653636793;-9.4789;-3.5198;-0.7995;
974201663741115;-9.8456;-3.1822;-1.5060;
974201673845490;-9.7854;-2.7799;-1.6211;
974201683962938;-9.4860;-2.3031;-2.0402;
974201694067261;-8.8992;-2.0085;-2.3686;
974201704171636;-8.9351;-1.6633;-2.3782;
974201714208355;-9.4884;-1.4671;-2.3973;
974201724312574;-9.7783;-1.2562;-2.1697;
974201734416949;-9.6084;-1.0119;-2.0186;
974201744534188;-9.4502;-0.8082;-2.1840;
974201754638511;-9.5100;-0.6120;-2.6297;
974201764742886;-9.4693;-0.3652;-2.9411;
974201774851063;-9.3832;0.1427;-3.8608;
974201784955438;-9.1771;0.3583;-4.2347;
974201795059761;-8.7844;1.1776;-4.8622;
974201805170334;-8.4873;1.7979;-5.0707;
974201815274657;-8.4730;2.3417;-4.6011;
974201825379032;-8.5328;3.3622;-4.1746;
974201835494918;-8.4658;4.0953;-3.9449;
974201845599240;-8.2597;4.4785;-3.4896;
974201855703615;-8.4706;4.8691;-3.6500;
974201865794397;-9.4190;4.7734;-4.2060;
974201875898720;-10.1856;3.8581;-4.6370;
974201886003095;-9.7376;3.7002;-4.4572;
974201896107209;-8.6740;3.9108;-3.9520;
974201906211532;-8.2813;4.2272;-3.6861;
974201916315907;-8.5041;4.2464;-3.8656;
974201926433563;-8.8920;3.8629;-4.1004;
974201936537886;-9.6180;2.8137;-3.6021;
974201946642261;-10.1091;1.6424;-2.4404;
974201956706688;-9.8480;0.8590;-1.3959;
974201966811011;-9.3855;0.9643;-1.3696;
974201976915386;-9.4334;0.3535;-1.7312;
974201987057522;-9.6610;-0.5255;-2.8259;
974201997161845;-9.8336;-1.6490;-3.6643;
974202007266220;-9.7472;-1.9798;-4.1889;
974202017358980;-9.3903;-1.7689;-4.5389;
974202027463303;-8.8107;-2.0061;-4.4668;
974202037567678;-8.3387;-2.4757;-3.7316;
974202047672105;-8.6764;-3.3452;-2.7398;
974202057776428;-9.3712;-4.3295;-1.4127;
974202067880803;-10.0274;-4.6316;-0.3299;
974202077974813;-10.6959;-4.1357;-0.7971;
974202088079136;-10.5879;-3.2901;-1.7288;
974202098183511;-9.5868;-2.5905;-1.5326;
974202108289032;-8.7915;-1.8000;-1.6140;
974202118393355;-8.5017;-0.8393;-2.2822;
974202128497730;-8.6620;0.2171;-2.7015;
974202138614293;-9.0933;0.6123;-2.9483;
974202148718615;-9.4765;0.4831;-3.1352;
974202158822990;-9.5195;0.4807;-3.0488;
974202168936115;-9.3951;0.3846;-2.9889;
974202179040438;-9.2345;0.3799;-3.1134;
974202189144813;-9.1029;0.7825;-3.4202;
974202199213355;-9.0048;1.4578;-4.0502;
974202209317678;-9.1388;1.4530;-4.0860;
974202219422053;-9.3162;0.9739;-3.9159;
