Sensor: bmi160 Gyroscope Non-wakeup
Vendor: BOSCH
TimestampGyro [ns]; GyroX [rad/s]; GyroY [rad/s]; GyroZ [rad/s]
599601955154407;-0.0128;0.0201;-0.0582;
599601965285918;-0.0107;0.0148;-0.0550;
599601975407115;-0.0138;0.0244;-0.0561;
599601985501022;-0.0149;0.0254;-0.0561;
599601995571282;-0.0170;0.0158;-0.0550;
599602005708886;-0.0117;0.0052;-0.0561;
599602015792220;-0.0064;0.0009;-0.0550;
599602025903209;-0.0021;-0.0001;-0.0550;
599602035994824;-0.0011;0.0041;-0.0550;
599602046110657;-0.0053;0.0084;-0.0550;
599602056212272;-0.0085;0.0137;-0.0539;
599602066325240;-0.0138;0.0158;-0.0529;
599602076425032;-0.0170;0.0063;-0.0518;
599602086529407;-0.0160;-0.0044;-0.0497;
599602096638365;-0.0085;-0.0076;-0.0497;
599602106736490;-0.0075;-0.0065;-0.0497;
599602116844303;-0.0138;-0.0097;-0.0497;
599602126951178;-0.0149;-0.0087;-0.0454;
599602137061543;-0.0160;-0.0012;-0.0433;
599602147162115;-0.0224;-0.0001;-0.0433;
599602157263574;-0.0447;-0.0076;-0.0433;
599602167380918;-0.0724;-0.0129;-0.0475;
599602177477845;-0.0852;-0.0065;-0.0497;
599602187584303;-0.0989;0.0041;-0.0518;
599602197682740;-0.1330;0.0020;-0.0518;
599602207798053;-0.1671;0.0020;-0.0529;
599602217902636;-0.1905;0.0073;-0.0550;
599602228004615;-0.2076;0.0073;-0.0571;
599602238113574;-0.2214;0.0063;-0.0539;
599602248217636;-0.2193;0.0158;-0.0518;
599602258320032;-0.2172;0.0169;-0.0507;
599602268407793;-0.2289;0.0041;-0.0518;
599602278553886;-0.2278;0.0041;-0.0507;
599602288647376;-0.2076;0.0190;-0.0465;
599602298758157;-0.2236;0.0169;-0.0486;
599602308856386;-0.2992;-0.0044;-0.0529;
599602318956490;-0.3876;-0.0193;-0.0539;
599602329071595;-0.4387;-0.0182;-0.0614;
599602339165553;-0.4590;-0.0119;-0.0646;
599602349266282;-0.4750;-0.0087;-0.0624;
599602359370657;-0.4984;0.0031;-0.0593;
599602369543053;-0.5335;0.0126;-0.0529;
599602379588522;-0.5794;0.0095;-0.0518;
599602389686334;-0.6145;0.0073;-0.0571;
599602399839563;-0.6475;0.0169;-0.0593;
599602409949615;-0.7124;0.0212;-0.0582;
599602420013365;-0.7816;0.0148;-0.0593;
599602430114980;-0.8434;0.0063;-0.0614;
599602440220345;-0.9041;-0.0012;-0.0646;
599602450316907;-0.9180;-0.0001;-0.0646;
599602460452220;-0.9158;-0.0129;-0.0635;
599602470534251;-0.9137;-0.0353;-0.0603;
599602480640084;-0.8296;-0.0300;-0.0422;
599602490751803;-0.6944;-0.0055;-0.0209;
599602500845240;-0.5644;0.0052;-0.0145;
599602510976282;-0.3929;0.0254;-0.0060;
599602521066126;-0.2001;0.0553;0.0249;
599602531167220;-0.0852;0.0574;0.0515;
599602541279511;-0.0957;0.0169;0.0611;
599602551393053;-0.1692;-0.0353;0.0569;
599602561479407;-0.2321;-0.0694;0.0526;
599602571637845;-0.2640;-0.0875;0.0558;
599602581703886;-0.2523;-0.0896;0.0696;
599602591813678;-0.1724;-0.0672;0.0941;
599602601917220;-0.0735;-0.0236;0.1176;
599602612032793;-0.1117;-0.0044;0.1218;
599602622131126;-0.1341;0.0052;0.1122;
599602632236178;-0.1735;-0.0023;0.1144;
599602642339720;-0.2822;-0.0310;0.1101;
599602652447011;-0.3770;-0.0300;0.1048;
599602662566282;-0.4366;-0.0055;0.0963;
599602672661595;-0.5314;-0.0033;0.0792;
599602682765449;-0.6561;-0.0204;0.0632;
599602692869303;-0.7252;-0.0289;0.0601;
599602702975136;-0.7379;-0.0193;0.0632;
599602713084095;-0.7486;-0.0193;0.0590;
599602723184199;-0.7390;-0.0193;0.0547;
599602733287845;-0.6624;0.0095;0.0505;
599602743394407;-0.5762;0.0414;0.0473;
599602753509720;-0.5698;0.0276;0.0398;
599602763612324;-0.6166;-0.0108;0.0334;
599602773710605;-0.6316;-0.0342;0.0313;
599602783825709;-0.6166;-0.0481;0.0281;
599602793931282;-0.5889;-0.0640;0.0238;
599602804026543;-0.4750;-0.0470;0.0334;
599602814143990;-0.2875;-0.0023;0.0526;
599602824243053;-0.1554;0.0084;0.0622;
599602834325501;-0.1415;0.0041;0.0654;
599602844445032;-0.1660;0.0169;0.0696;
599602854561178;-0.1842;0.0350;0.0739;
599602864659928;-0.2108;0.0105;0.0664;
599602874761490;-0.2001;-0.0236;0.0622;
599602884868626;-0.1831;-0.0225;0.0728;
599602894976074;-0.1927;-0.0172;0.0771;
599602905087376;-0.1980;-0.0395;0.0728;
599602915185657;-0.1895;-0.0779;0.0718;
599602925301282;-0.1788;-0.1013;0.0739;
599602935402220;-0.1799;-0.0896;0.0824;
599602945503365;-0.1959;-0.0683;0.0888;
599602955607220;-0.1842;-0.0385;0.0963;
599602965723053;-0.1330;-0.0001;0.1059;
599602975825553;-0.0692;0.0457;0.1122;
599602985924303;-0.1064;0.0617;0.1069;
599602996029459;-0.2417;0.0382;0.0931;
599603006140136;-0.2843;0.0126;0.0877;
599603016245240;-0.2513;-0.0214;0.0899;
599603026350449;-0.2502;-0.0609;0.0867;
599603036452115;-0.2342;-0.0609;0.0995;
599603046553834;-0.2449;-0.0406;0.1037;
599603056676282;-0.2619;-0.0459;0.0909;
599603066777949;-0.2417;-0.0374;0.0856;
599603076879668;-0.2385;0.0148;0.0941;
599603086987740;-0.2758;0.0606;0.0952;
599603097089407;-0.2790;0.0606;0.0963;
599603107191126;-0.2726;0.0425;0.0814;
599603117294824;-0.2790;0.0521;0.0803;
599603127396490;-0.3013;0.0478;0.0643;
599603137498209;-0.3035;-0.0033;0.0387;
599603147618157;-0.2640;-0.0289;0.0505;
599603157719824;-0.2587;-0.0033;0.0664;
599603167821543;-0.2928;0.0244;0.0675;
599603177930657;-0.2992;0.0212;0.0558;
599603188032376;-0.2992;0.0063;0.0473;
599603198134043;-0.3003;0.0116;0.0451;
599603208250761;-0.3120;0.0063;0.0483;
599603218352428;-0.2928;-0.0268;0.0537;
599603228454147;-0.2481;-0.0257;0.0590;
599603238567949;-0.0968;0.0478;0.0750;
599603248669668;0.0032;0.0904;0.0750;
599603258771334;-0.1053;0.0340;0.0590;
599603268882063;-0.1916;0.0020;0.0526;
599603278983678;-0.1373;0.0425;0.0611;
599603289144615;-0.1011;0.0595;0.0632;
599603299246282;-0.1692;0.0318;0.0473;
599603309347949;-0.2651;-0.0033;0.0313;
599603319449615;-0.2822;0.0095;0.0206;
599603329539876;-0.2651;0.0286;0.0228;
599603339641543;-0.2640;0.0499;0.0281;
599603349743261;-0.2896;0.0691;0.0238;
599603359845345;-0.3365;0.0702;0.0036;
599603369947063;-0.3344;0.0787;-0.0039;
599603380048730;-0.3333;0.0787;-0.0039;
599603390151230;-0.3354;0.0744;-0.0060;
599603400252897;-0.3375;0.0968;-0.0081;
599603410354563;-0.3535;0.1085;-0.0081;
599603420463782;-0.3610;0.0904;-0.0188;
599603430565449;-0.3439;0.0606;-0.0188;
599603440667168;-0.3258;0.0766;-0.0049;
599603450768782;-0.3503;0.0851;-0.0188;
599603460870449;-0.3738;0.0648;-0.0465;
599603470972168;-0.3642;0.0467;-0.0497;
599603481115761;-0.3546;0.0627;-0.0369;
599603491217428;-0.3684;0.0766;-0.0273;
599603501319095;-0.3631;0.0542;-0.0454;
599603511476699;-0.3365;0.0723;-0.0550;
599603521578365;-0.3599;0.1032;-0.0550;
599603531680084;-0.3897;0.0766;-0.0720;
599603541732740;-0.3695;0.0553;-0.0688;
599603551834459;-0.3631;0.0595;-0.0656;
599603561936126;-0.3823;0.0574;-0.0923;
599603572053886;-0.3791;0.0734;-0.1051;
599603582155553;-0.3738;0.0851;-0.1029;
599603592257272;-0.3716;0.0840;-0.0923;
599603602364459;-0.3684;0.0904;-0.0838;
599603612466178;-0.3940;0.0883;-0.1083;
599603622567845;-0.4313;0.0585;-0.1306;
599603632680865;-0.4228;0.0574;-0.1274;
599603642782532;-0.3897;0.0670;-0.0987;
599603652884251;-0.3897;0.1639;-0.0656;
599603662991855;-0.4632;0.2182;-0.0955;
599603673093470;-0.5698;0.1820;-0.1647;
599603683195188;-0.6188;0.1309;-0.2104;
599603693315813;-0.6646;0.0808;-0.2093;
599603703417428;-0.7465;0.0329;-0.2029;
599603713519147;-0.7209;0.0542;-0.1891;
599603723642845;-0.5708;0.1405;-0.1466;
599603733744511;-0.5538;0.1714;-0.1328;
599603743846230;-0.7507;0.1160;-0.1562;
599603753950553;-0.8317;0.1341;-0.1423;
599603764052220;-0.7912;0.2055;-0.1104;
599603774153886;-0.8445;0.2257;-0.1157;
599603784273886;-0.9329;0.2374;-0.1509;
599603794375553;-1.0319;0.2140;-0.1743;
599603804477272;-1.1001;0.1533;-0.1827;
599603814590865;-1.0884;0.1703;-0.1764;
599603824692532;-1.1587;0.1660;-0.2093;
599603834794251;-1.3098;0.1383;-0.2658;
599603844897115;-1.3535;0.1075;-0.3095;
599603854998782;-1.3068;0.0883;-0.3233;
599603865100449;-1.2258;0.1842;-0.2903;
599603875212115;-1.3461;0.2172;-0.3073;
599603885313834;-1.4686;0.1746;-0.3638;
599603895415501;-1.3461;0.2193;-0.3606;
599603905531386;-1.3194;0.2437;-0.3585;
599603915633105;-1.3258;0.2490;-0.3755;
599603925734772;-1.2141;0.2778;-0.3808;
599603935849824;-1.0873;0.2884;-0.3776;
599603945951543;-0.9979;0.2820;-0.3819;
599603956053209;-0.8796;0.2447;-0.3904;
599603966152897;-0.7070;0.2385;-0.3883;
599603976254615;-0.5570;0.2469;-0.3659;
599603986356334;-0.5580;0.2257;-0.3691;
599603996479668;-0.5325;0.1884;-0.3755;
599604006581282;-0.4302;0.2268;-0.3616;
599604016683001;-0.3439;0.2469;-0.3478;
599604026808261;-0.2651;0.1948;-0.3553;
599604036909928;-0.1586;0.1490;-0.3435;
599604047011647;-0.0756;0.1490;-0.3222;
599604057116803;0.0011;0.1842;-0.2956;
599604067218470;0.0170;0.1628;-0.2871;
599604077320188;0.0980;0.1320;-0.2839;
599604087430240;0.1885;0.1383;-0.2498;
599604097531907;0.2120;0.1533;-0.2189;
599604107633626;0.2013;0.1597;-0.2008;
599604117751803;0.1172;0.1671;-0.2040;
599604127853470;0.0735;0.1458;-0.2104;
599604137955188;0.0820;0.1447;-0.2253;
599604148060501;-0.0170;0.1522;-0.2114;
599604158162115;-0.1469;0.1820;-0.2051;
599604168263834;-0.1756;0.1788;-0.2423;
599604178382740;-0.1927;0.1447;-0.2743;
599604188484407;-0.3333;0.1522;-0.2839;
599604198586126;-0.4579;0.1884;-0.3244;
599604208694355;-0.4324;0.1543;-0.3553;
599604218795970;-0.4313;0.0862;-0.3798;
599604228897688;-0.4547;0.1373;-0.3382;
599604239012428;-0.4004;0.2065;-0.3105;
599604249114095;-0.3237;0.1288;-0.3851;
599604259215761;-0.2150;0.0553;-0.4213;
599604269349355;-0.0947;0.1170;-0.3872;
599604279451022;-0.0362;0.1181;-0.3723;
599604289552740;0.0650;0.0521;-0.3723;
599604299639459;0.2706;0.0925;-0.3371;
599604309743782;0.4027;0.1138;-0.3137;
599604319848053;0.5049;0.0553;-0.2892;
599604329960813;0.6848;0.0574;-0.2274;
599604340065084;0.7839;0.0617;-0.1818;
599604350169407;0.8116;0.0265;-0.1466;
599604360277949;0.9074;0.0137;-0.1083;
599604370382272;0.9714;-0.0012;-0.1040;
599604380486543;0.9277;-0.0108;-0.0667;
599604390587584;0.8904;-0.0204;-0.0113;
599604400691907;0.8936;-0.0310;0.0185;
599604410796178;0.8702;-0.0278;0.0675;
599604420949043;0.8457;0.0020;0.0909;
599604431053365;0.7871;-0.0182;0.1112;
599604441157636;0.6230;-0.0353;0.1581;
599604451233209;0.5229;-0.0023;0.1751;
599604461337532;0.3707;0.0009;0.1730;
599604471441803;0.1854;0.0254;0.1730;
599604481546490;0.0107;0.0446;0.1378;
599604491650813;-0.2555;0.0031;0.1016;
599604501755084;-0.4057;-0.0033;0.0622;
599604511855501;-0.3535;-0.0033;0.0153;
599604521959824;-0.4611;-0.0087;-0.0071;
599604532064095;-0.5399;0.0095;-0.0454;
599604542187063;-0.5911;-0.0182;-0.0987;
599604552291386;-0.6614;-0.0683;-0.1274;
599604562395657;-0.5570;0.0148;-0.1509;
599604572508938;-0.4696;0.0617;-0.1722;
599604582613261;-0.4622;-0.0225;-0.2157;
599604592717532;-0.4611;-0.0289;-0.2466;
599604602823313;-0.3397;0.0254;-0.2338;
599604612927636;-0.2598;0.0318;-0.2764;
599604623031907;-0.2843;0.0137;-0.2828;
599604633173938;-0.2768;-0.0225;-0.2828;
599604643278261;-0.2630;-0.0225;-0.3116;
599604653382532;-0.2321;-0.0055;-0.3212;
599604663439147;-0.1245;0.0073;-0.3371;
599604673543470;-0.0479;0.0105;-0.3350;
599604683647740;0.0085;0.0095;-0.2999;
599604693769147;0.0969;0.0105;-0.3084;
599604703873470;0.1353;0.0414;-0.3020;
599604713977740;0.2365;0.0595;-0.2583;
599604724082063;0.2695;0.0095;-0.2551;
599604734186386;0.2834;-0.0044;-0.2125;
599604744290657;0.4186;0.0063;-0.1827;
599604754401022;0.5463;0.0052;-0.1509;
599604764505345;0.5975;-0.0140;-0.0997;
599604774609615;0.6124;-0.0353;-0.0742;
599604784726543;0.6028;-0.0246;-0.0603;
599604794830865;0.6507;-0.0257;-0.0230;
599604804935136;0.6369;-0.0374;-0.0145;
599604815040397;0.4975;-0.0502;0.0174;
599604825144720;0.4090;-0.0470;0.0292;
599604835248990;0.3110;-0.0225;0.0089;
599604845359355;0.1640;-0.0427;0.0313;
599604855463678;0.0362;-0.0555;0.0228;
599604865567949;-0.1288;-0.0310;0.0185;
599604875677168;-0.1288;-0.0172;0.0174;
599604885781490;-0.1085;-0.0087;0.0068;
599604895885761;-0.1160;0.0052;0.0260;
599604905984772;-0.1266;0.0116;0.0164;
599604916089095;-0.1096;-0.0001;0.0132;
599604926193365;-0.1096;0.0254;0.0206;
599604936304147;-0.0968;0.0617;0.0132;
599604946408470;-0.1011;0.0670;0.0025;
599604956512740;-0.1117;0.0670;-0.0017;
599604966639095;-0.1064;0.0190;0.0260;
599604976743365;-0.1202;0.0105;0.0281;
599604986847636;-0.0968;0.0095;0.0441;
599604996934980;-0.1192;-0.0353;0.0185;
599605007039303;-0.1170;-0.0140;-0.0007;
599605017143574;-0.1245;0.0009;0.0142;
599605027285918;-0.0895;0.0126;0.0100;
599605037390240;-0.0831;0.0585;-0.0049;
599605047494511;-0.0947;0.0979;-0.0209;
599605057586855;-0.0628;0.1192;-0.0060;
599605067691178;-0.1096;0.1202;-0.0007;
599605077795449;-0.1011;0.0457;0.0164;
599605087893105;-0.1170;0.0137;-0.0113;
599605097997428;-0.1309;0.0531;-0.0316;
599605108101699;-0.1266;0.0201;-0.0401;
599605118209772;-0.1383;-0.0087;-0.0358;
599605128314095;-0.1053;0.0222;-0.0262;
599605138418365;-0.1138;0.0403;-0.0465;
599605148525709;-0.1181;0.0446;-0.0720;
599605158630032;-0.1011;0.0521;-0.0667;
599605168734303;-0.0968;0.0648;-0.0624;
599605178840188;-0.0884;0.0723;-0.0667;
599605188944511;-0.0778;0.0382;-0.0635;
599605199048782;-0.1181;0.0105;-0.0859;
599605209144824;-0.0692;0.0169;-0.1019;
599605219249147;-0.0383;-0.0033;-0.1061;
599605229353418;-0.0373;0.0041;-0.0923;
599605239463574;-0.0895;-0.0182;-0.0965;
599605249567897;-0.0925;-0.0225;-0.1210;
599605259672168;-0.1224;-0.0427;-0.1274;
599605269824095;-0.1288;-0.0555;-0.1413;
599605279928365;-0.0957;-0.0353;-0.1519;
599605290032688;-0.0915;-0.0129;-0.1658;
599605300119459;-0.0852;-0.0044;-0.1626;
599605310225032;-0.0767;0.0041;-0.1711;
599605320330605;-0.0192;0.0595;-0.1891;
599605330424563;0.0426;0.1043;-0.1711;
599605340530136;0.1087;0.0659;-0.1796;
599605350635709;0.1566;0.0382;-0.1754;
599605360740813;0.1981;0.0467;-0.1711;
599605370846334;0.2003;0.0084;-0.1477;
599605380951907;0.2141;-0.0023;-0.1413;
599605391072376;0.2312;0.0052;-0.1402;
599605401177897;0.2184;-0.0023;-0.1168;
599605411283470;0.1715;-0.0438;-0.1232;
599605421367168;0.1363;-0.0246;-0.1232;
599605431472688;0.1012;-0.0182;-0.1455;
599605441578261;0.0618;-0.0427;-0.1328;
599605451710709;0.0309;-0.0470;-0.1221;
599605461816230;0.0192;-0.0257;-0.1402;
599605471921803;0.0075;-0.0087;-0.1328;
599605481999043;-0.0011;-0.0332;-0.1221;
599605492104563;0.0181;-0.0172;-0.1040;
599605502210136;0.0160;0.0478;-0.0987;
599605512307168;0.0000;0.0340;-0.1051;
599605522412688;0.0320;0.0222;-0.0816;
599605532518261;0.0266;0.0244;-0.0848;
599605542641647;0.0415;0.0425;-0.0901;
599605552747168;0.0618;0.0617;-0.0923;
599605562852740;0.0565;0.0478;-0.1040;
599605572960657;0.0927;0.0148;-0.0678;
599605583066178;0.0873;-0.0332;-0.0678;
599605593171751;0.0660;-0.0694;-0.0848;
599605603274459;0.0682;-0.0481;-0.0955;
599605613379980;0.0714;-0.0619;-0.0774;
599605623485553;0.0756;-0.0502;-0.0656;
599605633581386;0.1300;-0.0097;-0.0742;
599605643686907;0.1651;0.0020;-0.0667;
599605653792480;0.2216;0.0116;-0.0326;
599605663910188;0.2674;0.0031;-0.0092;
599605674015709;0.3110;-0.0097;0.0142;
599605684121282;0.3355;-0.0108;0.0409;
599605694224772;0.3313;-0.0289;0.0643;
599605704330293;0.3025;-0.0257;0.0846;
599605714435865;0.3196;-0.0246;0.1059;
599605724546230;0.3164;-0.0119;0.1112;
599605734651751;0.3068;-0.0033;0.1144;
599605744757324;0.3089;-0.0129;0.1453;
599605754854980;0.2812;-0.0310;0.1517;
599605764960501;0.3025;-0.0076;0.1549;
599605775066074;0.3249;0.0403;0.1559;
599605785176959;0.2983;0.0574;0.1762;
599605795282480;0.2802;0.0031;0.2145;
599605805388053;0.2919;-0.0300;0.2294;
599605815506230;0.2631;-0.0087;0.2348;
599605825611751;0.1779;-0.0055;0.2273;
599605835717324;0.0927;-0.0172;0.2188;
599605845810397;0.1012;-0.0268;0.2252;
599605855915918;0.0916;-0.0172;0.2209;
599605866021490;0.1097;-0.0193;0.2177;
599605876117845;0.1118;-0.0289;0.2209;
599605886223365;0.1001;-0.0268;0.2273;
599605896328938;0.1097;-0.0278;0.2273;
599605906431334;0.0479;-0.0502;0.2198;
599605916536855;-0.0149;-0.0481;0.2017;
599605926642428;-0.0266;-0.0246;0.2337;
599605936754824;-0.0735;-0.0193;0.2390;
599605946860345;-0.0341;-0.0225;0.2198;
599605956965918;0.0394;-0.0140;0.2134;
599605967096438;0.0714;-0.0119;0.2284;
599605977201959;0.0511;-0.0065;0.1889;
599605987307532;0.0905;0.0308;0.2060;
599605997388730;0.1118;0.0308;0.2550;
599606007494251;0.1268;-0.0055;0.2742;
599606017599824;0.0937;0.0020;0.2784;
599606027701855;0.0756;0.0393;0.2518;
599606037807376;0.0735;0.0169;0.2720;
599606047912949;0.0533;-0.0332;0.2901;
599606058038313;0.0309;-0.0395;0.2891;
599606068143834;0.0117;-0.0023;0.3114;
599606078249407;-0.0735;0.0052;0.3114;
599606088347584;-0.1415;-0.0044;0.2880;
599606098453105;-0.2087;0.0073;0.2838;
599606108558678;-0.3056;0.0265;0.2763;
599606118666334;-0.4068;0.0148;0.2678;
599606128771855;-0.5208;0.0329;0.2497;
599606138877428;-0.6166;0.0627;0.2316;
599606148975397;-0.6411;0.0361;0.1943;
599606159080918;-0.6933;-0.0044;0.1453;
599606169186490;-0.8306;-0.0236;0.0824;
599606179280293;-0.8679;0.0180;0.0483;
599606189385813;-0.8700;0.0137;0.0281;
599606199491386;-0.8817;-0.0012;-0.0252;
599606209618626;-0.7603;0.0457;-0.0795;
599606219724147;-0.7209;0.0723;-0.0891;
599606229829720;-0.6848;0.0499;-0.1232;
599606239935293;-0.5666;0.0435;-0.1722;
599606250040813;-0.4494;0.0670;-0.1818;
599606260146386;-0.3365;0.1011;-0.1636;
599606270224563;-0.2630;0.0989;-0.1647;
599606280330084;-0.2363;0.0435;-0.1827;
599606290435605;-0.2236;0.0020;-0.1976;
599606300576647;-0.1671;0.0073;-0.1636;
599606310682272;-0.1511;0.0318;-0.1594;
599606320787897;-0.0533;0.0425;-0.1647;
599606330876022;-0.0075;0.0105;-0.1519;
599606340981647;-0.0085;0.0180;-0.1668;
599606351087220;0.0511;0.1043;-0.1647;
599606361181647;0.0959;0.1469;-0.1338;
599606371287272;0.0948;0.1064;-0.1051;
599606381392845;0.1321;0.0872;-0.0923;
599606391518522;0.1523;0.0723;-0.0742;
599606401624147;0.0937;0.0105;-0.0571;
599606411729720;0.0735;-0.0704;-0.0337;
599606421826751;0.0810;-0.0385;-0.0294;
599606431932376;0.0138;0.0435;-0.0188;
599606442037949;-0.1234;0.0308;-0.0209;
599606452139147;-0.1138;-0.0161;-0.0081;
599606462244772;-0.1128;0.0126;0.0057;
599606472350345;-0.1234;0.0680;0.0132;
599606482460084;-0.1192;0.0542;0.0025;
599606492565709;-0.1117;0.0148;0.0015;
599606502671282;-0.1043;0.0063;0.0100;
599606512770657;-0.1075;0.0361;-0.0028;
599606522876282;-0.1277;0.0553;-0.0241;
599606532981855;-0.1085;0.0318;-0.0230;
599606543098834;-0.1128;-0.0545;-0.0443;
599606553204459;-0.1245;-0.0374;-0.0475;
599606563310032;-0.1341;0.0265;-0.0561;
599606573427480;-0.1064;0.0116;-0.0507;
599606583533105;-0.0895;0.0297;-0.0561;
599606593638678;-0.0831;0.0435;-0.0411;
599606603734563;-0.0554;0.0862;-0.0241;
599606613840188;-0.0682;0.0936;-0.0241;
599606623945761;-0.0607;0.0244;-0.0103;
599606634072897;-0.0469;0.0052;0.0015;
599606644178470;-0.0458;0.0425;-0.0060;
599606654284095;-0.0479;0.0244;-0.0028;
599606664361647;-0.0501;0.0041;0.0089;
599606674467272;-0.0362;0.0446;0.0036;
599606684572845;-0.0511;0.0595;0.0015;
599606694690397;-0.0373;0.0372;0.0068;
599606704796022;-0.0479;0.0521;0.0015;
599606714901595;-0.0671;0.0542;0.0217;
599606724996022;-0.0852;0.0435;0.0451;
599606735101647;-0.0852;0.0212;0.0451;
599606745207220;-0.0714;0.0670;0.0409;
599606755321126;-0.1000;0.0499;0.0590;
599606765426751;-0.1202;-0.0044;0.0835;
599606775532324;-0.1426;0.0158;0.0973;
599606785647376;-0.1490;0.0723;0.1133;
599606795753001;-0.1714;0.0744;0.1208;
599606805858574;-0.1714;0.0137;0.1218;
599606815958522;-0.1852;-0.0278;0.0909;
599606826064147;-0.1778;0.0446;0.0696;
599606836169720;-0.1820;0.0787;0.0941;
599606846269563;-0.2182;0.0318;0.0909;
599606856375188;-0.1703;0.0350;0.0920;
599606866480761;-0.1969;0.0648;0.0909;
599606876575813;-0.2619;0.0233;0.0739;
599606886681438;-0.2321;0.0499;0.0601;
599606896787011;-0.2076;0.0862;0.0739;
599606906896907;-0.2225;0.0148;0.0526;
599606917002532;-0.1980;0.0084;0.0345;
599606927108105;-0.1831;0.0446;0.0601;
599606937212584;-0.1937;0.0169;0.0675;
599606947318209;-0.2108;-0.0790;0.0739;
599606957423782;-0.2172;-0.1088;0.0515;
599606967554563;-0.1852;-0.0161;0.0174;
599606977660136;-0.1586;0.0286;0.0015;
599606987765761;-0.1501;0.0126;0.0068;
599606997858209;-0.1373;0.0521;0.0079;
599607007963834;-0.1671;0.0403;0.0057;
599607018069407;-0.2065;-0.0342;-0.0103;
599607028162272;-0.2055;-0.0577;-0.0220;
599607038267897;-0.1746;-0.0236;-0.0124;
599607048373470;-0.1650;-0.0268;-0.0198;
599607058485657;-0.1597;-0.0108;-0.0411;
599607068591282;-0.1735;0.0020;-0.0348;
599607078696855;-0.1820;-0.0129;-0.0007;
599607088804459;-0.2044;-0.0449;0.0079;
599607098910084;-0.1735;-0.0246;0.0185;
599607109015657;-0.1969;0.0265;-0.0166;
599607119111074;-0.1969;0.0372;-0.0305;
599607129216647;-0.1852;0.0158;-0.0071;
599607139322272;-0.1969;-0.0268;-0.0039;
599607149443730;-0.2140;-0.0087;-0.0305;
599607159549355;-0.2481;0.0318;-0.0316;
599607169654928;-0.2981;-0.0076;-0.0060;
599607179763522;-0.3631;0.0041;-0.0177;
599607189869095;-0.4249;-0.0044;-0.0433;
599607199974720;-0.4664;-0.0140;-0.0550;
599607210057584;-0.4867;0.0361;-0.0614;
599607220163157;-0.5133;0.0276;-0.0358;
599607230268782;-0.5304;-0.0332;-0.0305;
599607240395501;-0.5442;-0.0662;-0.0497;
599607250501074;-0.5836;-0.0459;-0.0912;
599607260606699;-0.6102;-0.0119;-0.1210;
599607270707480;-0.6017;-0.0374;-0.1221;
599607280813053;-0.5346;-0.0694;-0.1178;
599607290918678;-0.4941;-0.0438;-0.1391;
599607301020709;-0.5186;-0.0087;-0.1775;
599607311126230;-0.4792;-0.0278;-0.1965;
599607321231751;-0.4004;-0.0001;-0.1859;
599607331324980;-0.3642;0.0457;-0.1912;
599607341430501;-0.3610;0.0276;-0.1997;
599607351536022;-0.3461;0.0222;-0.1848;
599607361658470;-0.3482;0.0435;-0.1573;
599607371763990;-0.3333;0.0350;-0.1732;
599607381869511;-0.3045;0.0105;-0.2083;
599607391995709;-0.2630;0.0308;-0.2200;
599607402101230;-0.2513;0.0893;-0.2168;
599607412206751;-0.2449;0.0744;-0.2125;
599607422273522;-0.1852;0.0308;-0.2423;
599607432379043;-0.1277;0.0648;-0.2700;
599607442484563;-0.1778;0.0510;-0.2743;
599607452596751;-0.2033;0.0116;-0.2903;
599607462702272;-0.1543;0.0233;-0.3073;
599607472807793;-0.1533;0.0233;-0.3403;
599607482908261;-0.1213;-0.0076;-0.3595;
599607493013782;-0.0788;-0.0566;-0.3510;
599607503119303;-0.0330;-0.0790;-0.3446;
599607513231490;0.0256;-0.1024;-0.3478;
599607523337011;0.0820;-0.0875;-0.3893;
599607533442532;0.1609;-0.0108;-0.3957;
599607543547584;0.1949;0.0148;-0.3755;
599607553653105;0.3153;-0.0172;-0.3670;
599607563758626;0.4740;-0.0140;-0.3489;
599607573879563;0.5367;0.0020;-0.3180;
599607583985084;0.5847;-0.0087;-0.2786;
599607594090605;0.6550;0.0020;-0.2253;
599607604202480;0.6816;-0.0055;-0.2029;
599607614308001;0.6944;-0.0310;-0.1615;
599607624413522;0.6795;-0.0555;-0.0880;
599607634501386;0.6092;-0.0630;-0.0390;
599607644606907;0.5527;-0.0566;-0.0379;
599607654712428;0.4517;-0.0417;-0.0603;
599607664823313;0.3270;0.0084;-0.0422;
599607674928834;0.1981;0.0222;-0.0103;
599607685034355;0.2077;-0.0374;-0.0188;
599607695138834;0.1672;-0.0502;-0.0475;
599607705244355;0.1097;-0.0204;-0.0635;
599607715349876;0.0330;-0.0108;-0.0454;
599607725463834;-0.0543;0.0265;-0.0518;
599607735569355;-0.0597;0.0233;-0.0774;
599607745674876;0.0011;-0.0236;-0.0848;
599607755778157;-0.0043;-0.0097;-0.0795;
599607765883678;-0.0064;0.0265;-0.0923;
599607775989199;0.0341;-0.0150;-0.1104;
599607786096647;0.0788;-0.0150;-0.1636;
599607796202168;0.1023;0.0233;-0.1711;
599607806307688;0.1342;-0.0140;-0.1519;
599607816410918;0.1694;-0.0310;-0.1827;
599607826516438;0.1864;-0.0097;-0.1987;
599607836621959;0.1640;-0.0087;-0.1807;
599607846725813;0.1917;0.0340;-0.1827;
599607856831334;0.2791;0.1479;-0.1711;
599607866936855;0.4282;0.1682;-0.1296;
599607877025605;0.5218;0.0382;-0.0614;
599607887131126;0.5485;-0.1557;-0.0145;
599607897236647;0.4612;-0.2483;0.0441;
599607907355188;0.2908;-0.2228;0.1240;
599607917460709;0.2099;-0.1642;0.1431;
599607927566230;0.2407;-0.0662;0.1474;
599607937667584;0.2280;-0.0119;0.1623;
599607947773105;0.1928;0.0137;0.1421;
599607957878626;0.1683;0.0893;0.1389;
599607967983418;0.1289;0.1533;0.1762;
599607978088938;0.0501;0.1394;0.2060;
599607988194459;-0.0788;0.1170;0.2071;
599607998300709;-0.1842;0.0712;0.1943;
599608008406230;-0.2981;-0.0534;0.1772;
599608018511751;-0.4515;-0.0907;0.1687;
599608028633938;-0.5506;-0.0087;0.1549;
599608038739459;-0.5389;0.0947;0.1037;
599608048844980;-0.3961;0.1352;0.0654;
599608058941074;-0.3280;0.0542;0.0483;
599608069046595;-0.2811;0.0755;0.0292;
599608079152115;-0.2172;0.1682;-0.0028;
599608089237063;-0.1469;0.1639;-0.0230;
599608099342584;-0.0957;0.0968;-0.0518;
599608109448105;-0.0628;0.0425;-0.0465;
599608119565605;-0.0501;0.0308;-0.0710;
599608129671074;-0.0064;0.0510;-0.0859;
599608139776647;0.0043;-0.0087;-0.0912;
599608149941855;0.0533;-0.0481;-0.0955;
599608160047376;0.1523;0.0148;-0.1083;
599608170152897;0.2333;0.0702;-0.1455;
599608180196334;0.3057;0.0840;-0.1434;
599608190301855;0.3611;0.0893;-0.1157;
599608200407376;0.4176;0.0776;-0.0997;
599608210502272;0.4186;0.0318;-0.0955;
599608220607793;0.4314;0.0052;-0.0646;
599608230713313;0.3654;0.0031;-0.0486;
599608240825293;0.3057;-0.0225;-0.0262;
599608250930813;0.2716;-0.0236;-0.0124;
599608261036334;0.2035;-0.0140;0.0036;
599608271132480;0.1577;-0.0023;0.0079;
599608281238001;0.1502;-0.0087;0.0409;
599608291343522;0.1161;0.0063;0.0185;
599608301475813;0.1300;0.0638;0.0036;
599608311581386;0.1055;0.0340;0.0270;
599608321686959;0.0863;-0.0332;0.0324;
599608331775084;0.0959;-0.0065;0.0260;
599608341880657;0.1161;0.0680;0.0281;
599608351986230;0.1204;0.0446;0.0313;
599608362123313;0.1300;0.0095;0.0505;
599608372228886;0.1427;0.0212;0.0569;
599608382334459;0.1395;0.0276;0.0771;
599608392416334;0.1545;0.0244;0.0941;
599608402521907;0.1640;-0.0129;0.1133;
599608412627480;0.1502;-0.0481;0.1218;
599608422731855;0.1566;0.0009;0.1016;
599608432837428;0.1704;0.0361;0.1122;
599608442943001;0.1374;0.0031;0.1325;
599608453056230;0.1332;-0.0108;0.1272;
599608463161803;0.1257;0.0095;0.1197;
599608473267376;0.0991;0.0105;0.1250;
599608483361959;0.0916;-0.0044;0.1378;
599608493467532;0.0884;0.0222;0.1485;
599608503573105;0.1097;0.0574;0.1495;
599608513689355;0.1236;0.0872;0.1698;
599608523794928;0.1225;0.0968;0.1932;
599608533900501;0.1193;0.0595;0.2060;
599608543999772;0.0937;0.0542;0.1964;
599608554105345;0.0905;0.0883;0.1836;
599608564210918;0.0820;0.0627;0.2220;
599608574324407;0.0618;-0.0225;0.2358;
599608584429980;0.0373;-0.0459;0.2039;
599608594535553;0.0490;0.0041;0.2060;
599608604635188;0.0607;0.0361;0.2284;
599608614740761;0.0756;0.0478;0.2454;
599608624846334;0.0863;0.1011;0.2443;
599608634973418;0.0895;0.1511;0.2624;
599608645078990;0.0810;0.1426;0.2774;
599608655184563;0.1001;0.1181;0.2656;
599608665276022;0.0884;0.0872;0.2806;
599608675381595;0.0394;0.0478;0.2731;
599608685487168;0.0458;0.0659;0.2891;
599608695592688;0.0064;0.0553;0.3136;
599608705698261;-0.0394;-0.0182;0.2944;
599608715803834;-0.0746;-0.0481;0.2933;
599608725895084;-0.1863;-0.0065;0.3061;
599608736000657;-0.2758;0.0105;0.2997;
599608746106230;-0.2885;-0.0268;0.2859;
599608756216230;-0.3471;-0.0566;0.2838;
599608766321803;-0.4824;-0.1099;0.2688;
599608776427376;-0.5463;-0.1429;0.2465;
599608786540293;-0.5932;-0.1344;0.2092;
599608796645865;-0.6390;-0.1652;0.1367;
599608806751438;-0.6241;-0.1631;0.0707;
599608816861751;-0.5666;-0.0928;0.0601;
599608826967324;-0.5719;-0.0577;0.0515;
599608837072897;-0.5335;-0.1003;0.0111;
599608847168105;-0.4675;-0.0992;-0.0198;
599608857273678;-0.4228;-0.0193;-0.0294;
599608867379251;-0.3120;0.0105;-0.0220;
599608877485188;-0.2406;0.0095;-0.0007;
599608887590761;-0.2268;0.0787;-0.0060;
599608897696334;-0.2012;0.1021;0.0132;
599608907806074;-0.2012;0.0254;0.0569;
599608917911647;-0.1703;-0.0097;0.0664;
599608928017220;-0.1160;-0.0044;0.0547;
599608938122897;-0.0979;0.0126;0.0547;
599608948228470;-0.1117;0.0105;0.0995;
599608958334043;-0.1820;-0.0395;0.1272;
599608968456386;-0.2097;-0.0619;0.0877;
599608978561959;-0.1863;0.0254;0.0579;
599608988667532;-0.2044;0.1298;0.0675;
599608998753730;-0.2470;0.1394;0.0558;
599609008859303;-0.2214;0.0840;0.0419;
599609018964876;-0.2459;0.0883;0.0579;
599609029086230;-0.2555;0.0414;0.0771;
599609039191803;-0.2225;0.0020;0.0483;
599609049297376;-0.1799;0.1000;0.0196;
599609059379772;-0.2278;0.1426;0.0111;
599609069485345;-0.2044;0.1000;0.0025;
599609079590918;-0.2353;0.0531;0.0270;
599609089717845;-0.2577;0.0595;0.0206;
599609099823470;-0.2406;0.0244;0.0057;
599609109929043;-0.2790;-0.0364;0.0015;
599609120009095;-0.3003;-0.0470;-0.0209;
599609130114615;-0.3237;-0.0342;-0.0486;
599609140220293;-0.3375;0.0031;-0.0795;
599609150387949;-0.3226;0.0286;-0.0912;
599609160493522;-0.3024;0.0361;-0.1029;
599609170599095;-0.2278;0.0691;-0.1093;
599609180645709;-0.2076;0.0819;-0.1349;
599609190751282;-0.2055;0.0276;-0.1786;
599609200856855;-0.2118;-0.0129;-0.1965;
599609210990084;-0.2257;0.0031;-0.2114;
599609221095657;-0.2108;0.0265;-0.2242;
599609231201230;-0.2278;0.0073;-0.2253;
599609241277688;-0.1905;0.0510;-0.2125;
599609251383261;-0.1405;0.1565;-0.1965;
599609261488834;-0.1543;0.1426;-0.2136;
599609271656438;-0.0426;0.1341;-0.2040;
599609281762011;0.0394;0.1831;-0.1594;
599609291867584;-0.0298;0.1213;-0.1104;
599609301926959;0.0128;0.0638;-0.1189;
599609312032532;0.1204;0.0840;-0.1668;
599609322138105;0.1555;0.0851;-0.1509;
599609332240188;0.0565;0.0446;-0.0806;
599609342345761;0.0415;0.0425;-0.0848;
599609352451334;0.0884;0.0521;-0.0923;
599609362556647;0.0383;0.0723;-0.0806;
599609372662220;0.0192;0.0744;-0.0603;
599609382767793;-0.0405;0.0361;-0.0145;
599609392876855;-0.0479;0.0744;-0.0475;
599609402982428;-0.0075;0.1032;-0.0497;
599609413088001;-0.0979;0.0723;-0.0198;
599609423192688;-0.0628;0.0212;-0.0230;
599609433298261;-0.0925;0.0606;-0.0571;
599609443403834;-0.0735;0.1138;-0.1008;
599609453508418;-0.0873;0.0126;-0.0624;
599609463613990;-0.1085;-0.0310;-0.0497;
599609473719563;-0.1565;0.0478;-0.0507;
599609483824824;-0.2491;0.0276;-0.0752;
599609493930397;-0.2204;-0.0566;-0.0838;
599609504035970;-0.2353;-0.0704;-0.0699;
599609514148522;-0.3418;-0.0172;-0.0752;
599609524254095;-0.3589;0.0776;-0.0720;
599609534359668;-0.3013;-0.0129;-0.0880;
599609544456543;-0.2427;-0.0449;-0.0987;
599609554562115;-0.2662;0.0020;-0.1083;
599609564667688;-0.3546;-0.0896;-0.1754;
599609574781543;-0.2779;-0.1173;-0.1775;
599609584887115;-0.1948;-0.0129;-0.1786;
599609594992688;-0.1330;0.0830;-0.1827;
599609605098157;-0.1373;0.0702;-0.1891;
599609615203730;-0.1245;-0.0417;-0.1754;
599609625309303;-0.1415;-0.0683;-0.1827;
599609635417584;-0.1149;-0.0332;-0.1690;
599609645523157;-0.1000;-0.0321;-0.1370;
599609655628730;-0.0957;-0.0949;-0.0848;
599609665736230;-0.0724;-0.1003;-0.0454;
599609675841803;-0.1405;-0.0800;-0.0678;
599609685947376;-0.0810;0.0403;-0.1157;
599609696038105;0.0234;0.1714;-0.1668;
599609706143678;0.0352;0.1767;-0.1285;
599609716249251;-0.0192;0.1458;-0.0912;
599609726359407;-0.0277;0.0723;-0.0816;
599609736464980;-0.1330;-0.1482;-0.1040;
599609746570553;-0.1788;-0.1503;-0.1072;
599609756686855;-0.1810;-0.0321;-0.1189;
599609766792428;-0.1426;-0.0129;-0.1210;
599609776898001;-0.1075;-0.0172;-0.1413;
599609786998574;-0.1128;0.0222;-0.1700;
599609797104147;-0.1149;0.0478;-0.1626;
599609807209720;-0.0746;0.1170;-0.1072;
599609817322688;-0.1170;0.0893;-0.1189;
599609827428261;-0.1085;-0.0140;-0.2008;
599609837533834;-0.1170;-0.0726;-0.2423;
599609847632168;-0.1213;-0.0939;-0.2487;
599609857737740;-0.0628;-0.0385;-0.2573;
599609867843313;-0.0511;-0.0193;-0.2647;
599609877943730;0.0341;-0.0076;-0.2626;
599609888049303;0.1342;0.0798;-0.2636;
599609898154876;0.2493;0.0808;-0.2594;
599609908264980;0.3057;0.0446;-0.2658;
599609918370553;0.4037;0.0372;-0.2381;
599609928476126;0.5442;0.0233;-0.2040;
599609938581230;0.6592;0.0180;-0.1466;
599609948686803;0.6816;0.0084;-0.0923;
599609958792376;0.6997;-0.0321;-0.0752;
599609968881438;0.7317;-0.0417;-0.0614;
599609978987011;0.7008;-0.0342;-0.0241;
599609989092584;0.6529;0.0031;0.0089;
599609999212793;0.5921;-0.0161;0.0068;
599610009318365;0.4730;-0.0427;0.0238;
599610019423938;0.3430;0.0169;0.0494;
599610029536074;0.1939;-0.0023;0.0569;
599610039641647;0.1715;-0.0470;0.0483;
599610049747220;0.1289;-0.0342;0.0569;
599610059883834;0.0011;-0.0268;0.0419;
599610069989407;0.0043;0.0116;0.0334;
599610080094980;0.0660;0.0340;0.0611;
599610090159615;0.0149;-0.0449;0.0739;
599610100265240;-0.0394;-0.0342;0.0217;
599610110370865;0.0575;0.1138;0.0111;
599610120524563;0.1917;0.1458;0.0260;
599610130630136;0.1800;0.0169;0.0356;
599610140735709;0.1534;-0.0364;0.0622;
599610150803053;0.1438;-0.0065;0.0803;
599610160908626;0.1790;0.0105;0.0909;
599610171014199;0.1491;-0.0289;0.1016;
599610181111490;0.1427;-0.0736;0.1218;
599610191217063;0.1715;-0.0545;0.1431;
599610201322636;0.2088;0.0095;0.1612;
599610211436647;0.1854;0.0297;0.1463;
599610221542220;0.1811;0.0340;0.1389;
599610231647793;0.1587;0.1160;0.1176;
599610241757376;0.1395;0.1554;0.1325;
599610251862949;0.1513;0.1128;0.1378;
599610261968522;0.0138;-0.0875;0.1506;
599610272072376;-0.0543;-0.1194;0.1581;
599610282177949;-0.0692;0.0766;0.1485;
599610292283522;-0.0895;0.0819;0.1197;
599610302383834;-0.1394;-0.0481;0.0909;
599610312489459;-0.3312;-0.0864;0.0867;
599610322595084;-0.4366;-0.0374;0.0888;
599610332699824;-0.4473;-0.0108;0.0750;
599610342805449;-0.3748;0.0095;0.0654;
599610352911074;-0.3503;0.0361;0.0089;
599610363017168;-0.3397;0.0553;-0.0156;
599610373122793;-0.4345;-0.0129;-0.0060;
599610383228418;-0.5549;-0.1514;-0.0252;
599610393323522;-0.6070;-0.2696;-0.0603;
599610403429147;-0.4174;-0.1535;-0.0358;
599610413534772;-0.1383;0.1330;-0.0475;
599610423646438;-0.1043;0.0925;-0.0518;
599610433752011;-0.3386;-0.1929;-0.0710;
599610443857688;-0.5783;-0.3197;-0.0763;
599610453967063;-0.5027;-0.1333;-0.0220;
599610464072688;-0.0415;0.2268;-0.0763;
599610474178313;0.1193;0.2055;-0.0965;
599610484279824;-0.1341;0.0126;-0.1242;
599610494385449;-0.2491;0.0968;-0.1051;
599610504491074;-0.2704;0.0872;-0.0518;
599610514596543;-0.2342;-0.1194;-0.0550;
599610524702168;-0.2055;-0.1152;-0.0816;
599610534807793;-0.1160;0.0190;-0.0433;
599610544917897;-0.1490;-0.0374;-0.0209;
599610555023522;-0.1746;-0.0896;-0.0646;
599610565129147;-0.2182;-0.0875;-0.0944;
599610575239563;-0.2023;-0.0108;-0.0316;
599610585345188;-0.1703;0.2012;-0.0326;
599610595450813;-0.1405;0.2479;-0.0348;
599610605557168;-0.2065;0.1458;-0.0273;
599610615662793;-0.2023;-0.0300;-0.0124;
599610625768418;-0.2214;-0.1312;-0.0443;
599610635890293;-0.1820;0.0467;-0.1051;
599610645995918;-0.2225;-0.0172;-0.0774;
599610656101490;-0.2129;-0.2270;-0.0316;
599610666189407;-0.1671;-0.0811;-0.0465;
599610676295032;-0.1895;0.0222;-0.0848;
599610686400657;-0.1703;-0.0949;-0.0901;
599610696497897;-0.0957;0.0925;-0.0710;
599610706603522;-0.0947;0.3118;-0.0699;
599610716709147;-0.1767;0.0712;-0.0774;
599610726826074;-0.1352;-0.2249;-0.0550;
599610736931699;-0.1149;-0.2004;-0.0316;
599610747037324;-0.1085;-0.0640;-0.0188;
599610757142063;-0.0895;-0.0939;-0.0411;
599610767247688;-0.0032;-0.1120;-0.0497;
599610777353313;0.0692;0.0009;-0.0369;
599610787452063;0.0415;-0.0427;-0.0326;
599610797557688;0.0543;-0.1525;-0.0369;
599610807663313;0.1225;0.0499;-0.0411;
599610817780918;0.1246;0.2469;-0.0124;
599610827886543;0.0597;0.0819;0.0132;
599610837992168;0.1609;0.0414;0.0164;
599610848082897;0.2120;0.1511;0.0302;
599610858188522;0.1342;0.0244;0.0675;
599610868294147;0.1385;-0.1003;0.0995;
599610878398834;0.1832;0.0425;0.1027;
599610888504459;0.1545;0.1543;0.0792;
599610898610084;0.1555;0.0659;0.0675;
599610908718938;0.1790;0.0095;0.0877;
599610918824563;0.1278;-0.0182;0.0995;
599610928930188;0.0479;-0.0971;0.0760;
599610939036907;0.0245;-0.0076;0.0505;
599610949142532;0.0330;0.1032;0.0494;
599610959248157;0.0138;0.0052;0.0526;
599610969353626;0.0373;-0.1077;0.0675;
599610979459251;0.0160;-0.0523;0.0569;
599610989564876;0.0107;-0.0140;0.0579;
599610999657168;0.0298;-0.1599;0.0515;
599611009762740;0.0181;-0.2174;0.0228;
599611019868418;-0.0352;-0.0822;-0.0486;
599611029967897;-0.0628;-0.0342;-0.0976;
599611040073522;-0.0107;-0.1194;-0.0923;
599611050179147;0.0810;-0.0640;-0.1168;
599611060314615;0.0405;0.0073;-0.1732;
599611070420240;0.0639;-0.0182;-0.1976;
599611080525813;0.0937;-0.0140;-0.1880;
599611090604772;0.1087;0.0031;-0.1838;
599611100710397;0.1278;0.0063;-0.2051;
599611110816022;0.1758;0.0126;-0.2221;
599611120963209;0.2375;0.0308;-0.1912;
599611131068834;0.2578;-0.0300;-0.1668;
599611141174459;0.2823;-0.0715;-0.1647;
599611151259876;0.3270;-0.0097;-0.1732;
599611161365501;0.2972;0.0510;-0.2029;
599611171471126;0.3622;0.0201;-0.1668;
599611181559251;0.4357;-0.0470;-0.1200;
599611191664876;0.4112;-0.0417;-0.1306;
599611201770501;0.3931;-0.0172;-0.1253;
599611211904355;0.4048;0.0340;-0.1040;
599611222009980;0.4399;0.0808;-0.0848;
599611232115605;0.4985;0.0595;-0.0465;
599611242202740;0.4911;0.0499;-0.0358;
599611252308365;0.5240;0.0787;-0.0017;
599611262413990;0.5261;0.0201;0.0377;
599611272543105;0.4655;-0.0790;0.0611;
599611282648730;0.3654;-0.0438;0.0569;
599611292754355;0.3185;0.0478;0.0196;
599611302842480;0.2929;0.0489;0.0217;
599611312948105;0.3015;-0.0033;0.0409;
599611323053678;0.2738;0.0212;0.0356;
599611333161647;0.2865;0.0979;0.0142;
599611343267272;0.3036;0.0808;0.0451;
599611353372897;0.2951;0.0201;0.0441;
599611363481647;0.3047;0.0137;0.0601;
599611373587272;0.2716;-0.0364;0.0590;
599611383692897;0.2759;-0.0758;0.0686;
599611393796543;0.2759;-0.0917;0.1048;
599611403902168;0.2770;-0.1226;0.1037;
599611414007793;0.2503;-0.0790;0.0728;
599611424115605;0.2088;0.0158;0.0281;
599611434221230;0.2162;0.0830;0.0526;
599611444326855;0.3025;0.0744;0.0696;
599611454437688;0.3068;0.0734;0.0654;
599611464543313;0.2716;0.1160;0.0686;
599611474648938;0.2684;0.0893;0.0803;
599611484733834;0.2578;0.0308;0.0995;
599611494839459;0.2674;0.0393;0.1272;
599611504945084;0.2535;0.0446;0.1506;
599611515061855;0.2258;-0.0140;0.1687;
599611525167480;0.2024;0.0020;0.1996;
599611535273105;0.1704;0.0478;0.2326;
599611545370501;0.1214;0.0361;0.2326;
599611555476126;0.0873;0.0606;0.1964;
599611565581751;0.0586;0.1117;0.1953;
599611575698730;0.0075;0.0723;0.2113;
599611585804355;-0.0447;0.0222;0.1964;
599611595909980;-0.0884;0.0201;0.1421;
599611606008730;-0.1927;-0.0236;0.1378;
599611616114355;-0.3280;-0.0545;0.1133;
599611626219980;-0.3631;-0.0459;0.0728;
599611636313418;-0.3802;-0.0214;0.0206;
599611646419043;-0.3823;-0.0076;0.0036;
599611656524668;-0.3312;-0.0023;-0.0039;
599611666658001;-0.2566;0.0510;-0.0017;
599611676763626;-0.1714;0.0212;-0.0284;
599611686869251;-0.1437;-0.0481;-0.0752;
599611696964147;-0.0650;0.0403;-0.0965;
599611707069772;0.0096;0.0702;-0.1051;
599611717175397;0.0107;-0.0140;-0.1178;
599611727267897;-0.0085;-0.0310;-0.1338;
599611737373522;0.0138;-0.0257;-0.1338;
599611747479147;0.0437;-0.0182;-0.1360;
599611757598418;0.0820;0.0009;-0.1349;
599611767704043;0.1065;-0.0108;-0.1519;
599611777809615;0.1672;0.0084;-0.1402;
599611787918834;0.1907;-0.0161;-0.1083;
599611798024459;0.2024;-0.0672;-0.1008;
599611808130032;0.2162;-0.0513;-0.0987;
599611818234563;0.2237;-0.0161;-0.1157;
599611828340188;0.2152;0.0105;-0.0987;
599611838445813;0.1917;-0.0001;-0.0880;
599611848550240;0.2312;-0.0214;-0.0816;
599611858655865;0.2354;-0.0033;-0.0571;
599611868761490;0.1971;-0.0033;-0.0582;
599611878858001;0.1971;0.0148;-0.0379;
599611888963626;0.2152;0.0659;-0.0103;
599611899069251;0.1949;0.0734;0.0089;
599611909168730;0.1811;0.0361;0.0249;
599611919274355;0.2205;0.0190;0.0814;
599611929379928;0.1949;-0.0204;0.1080;
599611939480813;0.1321;-0.0491;0.0899;
599611949586438;0.0905;0.0041;0.0782;
599611959692011;0.0916;0.0350;0.0995;
599611969879407;0.1161;0.0318;0.1186;
599611979985084;0.0916;0.0414;0.1144;
599611990090709;0.0735;0.0457;0.1229;
599612000111126;0.0628;0.0073;0.1367;
599612010216751;0.0660;-0.0236;0.1431;
599612020322324;0.0597;-0.0289;0.1442;
599612030470293;0.0426;-0.0374;0.1474;
599612040575918;0.0447;-0.0395;0.1751;
599612050681490;0.0426;-0.0353;0.1985;
599612060777272;0.0160;-0.0715;0.1943;
599612070882897;0.0128;-0.0481;0.1421;
599612080988470;0.0383;0.0201;0.1421;
599612091076126;0.0011;0.0276;0.1559;
599612101181751;0.0021;0.0105;0.1485;
599612111287376;0.0405;0.0254;0.1346;
599612121408522;0.0320;0.0403;0.1431;
599612131514147;0.0149;-0.0087;0.1708;
599612141619720;0.0192;-0.0385;0.1666;
599612151716855;0.0288;-0.0310;0.1655;
599612161822480;-0.0117;-0.0726;0.1719;
599612171928105;-0.0277;-0.0832;0.2166;
599612182019876;-0.0597;-0.0672;0.2145;
599612192125501;-0.1085;-0.0949;0.1889;
599612202231126;-0.1650;-0.0502;0.1154;
599612212361334;-0.1597;-0.0001;0.1059;
599612222466959;-0.1980;-0.0193;0.1176;
599612232572584;-0.1575;-0.0427;0.1346;
599612242651438;-0.1565;-0.0481;0.1410;
599612252757063;-0.1415;-0.0758;0.1122;
599612262862688;-0.1884;-0.0161;0.0494;
599612272996855;-0.1309;0.1021;0.0185;
599612283102480;-0.0628;0.0521;0.0622;
599612293208105;-0.0682;-0.0395;0.0771;
599612303291959;-0.0767;0.0254;0.0995;
599612313397584;-0.0437;0.0904;0.1250;
599612323503209;-0.0852;0.0499;0.0899;
599612333615084;-0.0618;0.0020;0.0324;
599612343720709;-0.0692;0.0329;0.0654;
599612353826334;-0.0884;0.0446;0.0590;
599612363937324;-0.0831;0.0041;0.0451;
599612374042949;-0.0936;0.0265;0.0398;
599612384148574;-0.0597;0.1128;0.0441;
599612394260501;-0.0915;0.0893;0.0579;
599612404366126;-0.1426;-0.1237;0.0462;
599612414471751;-0.1149;-0.1557;0.0356;
599612424574355;-0.0788;0.0340;0.0537;
599612434679980;-0.1437;0.0521;0.0547;
599612444785605;-0.1192;-0.0364;0.0036;
599612454890084;-0.0810;-0.0033;-0.0049;
599612464995709;-0.0925;0.1096;0.0004;
599612475101334;-0.0915;0.0308;-0.0124;
599612485201022;-0.1085;-0.1013;-0.0103;
599612495306647;-0.0884;0.0467;0.0015;
599612505412272;-0.0703;0.2076;-0.0294;
599612515530813;-0.0671;0.0734;-0.0539;
599612525636438;-0.0597;0.0467;-0.0497;
599612535742063;-0.0522;0.1277;-0.0348;
599612545834563;-0.0181;0.0957;0.0505;
599612555940188;-0.0309;0.0276;0.0537;
599612566045813;0.0021;0.0542;-0.0007;
599612576156334;-0.0692;0.0446;-0.0028;
599612586261959;-0.1000;-0.0353;0.0036;
599612596367584;-0.0746;-0.0406;0.0079;
599612606483730;-0.0799;-0.0236;-0.0017;
599612616589355;-0.0554;0.0489;0.0260;
599612626694980;-0.0905;0.1192;0.0409;
599612636794615;-0.1053;-0.0459;0.0228;
599612646900240;-0.1085;-0.1067;0.0121;
599612657005865;-0.0831;0.0350;0.0196;
599612667121751;-0.1415;0.0222;0.0153;
599612677227376;-0.1149;-0.0609;0.0025;
599612687333001;-0.0799;0.0052;-0.0060;
599612697424668;-0.1170;0.0446;-0.0060;
599612707530293;-0.0989;0.0286;0.0057;
599612717635918;-0.1021;0.0126;-0.0145;
599612727734876;-0.0979;0.0510;-0.0475;
599612737840501;-0.0810;0.0957;-0.0582;
599612747946126;-0.0979;0.0467;-0.0326;
599612758057480;-0.0915;-0.0300;0.0004;
599612768163105;-0.1170;-0.0406;0.0100;
599612778268678;-0.1298;-0.0481;0.0185;
599612788387168;-0.1224;-0.0204;0.0345;
599612798492793;-0.1405;0.0095;0.0238;
599612808598418;-0.1927;-0.0864;-0.0124;
599612818704772;-0.1533;-0.0449;-0.0656;
599612828810397;-0.1298;0.0883;-0.0379;
599612838916022;-0.1714;0.0553;-0.0422;
599612849001751;-0.1469;-0.0332;-0.0646;
599612859107376;-0.1277;-0.0278;-0.0827;
599612869213001;-0.1138;0.0095;-0.0774;
599612879317168;-0.0925;0.0329;-0.0720;
599612889422793;-0.0810;0.0265;-0.0848;
599612899528365;-0.0799;0.0041;-0.0656;
599612909627168;-0.0501;-0.0044;-0.0731;
599612919732793;-0.0149;0.0095;-0.0539;
599612929838365;-0.0447;-0.0204;-0.0624;
599612939939251;0.0362;-0.0087;-0.0944;
599612950044876;0.0533;0.0510;-0.0976;
599612960150501;0.0298;0.0254;-0.1008;
599612970264615;0.0735;0.0063;-0.1093;
599612980370240;0.1182;0.0627;-0.1296;
599612990475865;0.1502;0.0893;-0.1157;
599613000569772;0.1214;0.0489;-0.0848;
599613010675345;0.1427;0.0723;-0.0827;
599613020780970;0.1907;0.0553;-0.0529;
599613030897480;0.1864;0.0776;-0.0316;
599613041003105;0.1981;0.0787;-0.0284;
599613051108678;0.1704;0.0020;-0.0209;
599613061229668;0.2173;-0.0044;-0.0177;
599613071335293;0.1790;0.0308;0.0281;
599613081440918;0.0437;-0.0417;0.0366;
599613091526751;0.0330;-0.1162;-0.0017;
599613101632376;0.0799;-0.0545;-0.0092;
599613111738001;0.0181;0.0531;0.0047;
599613121841543;0.0320;0.0531;-0.0177;
599613131947168;0.0107;-0.0055;-0.0209;
599613142052793;0.0202;-0.0001;0.0111;
599613152164563;0.0458;0.0318;0.0601;
599613162270188;0.0682;-0.0076;0.0728;
599613172375813;0.0863;-0.0406;0.0590;
599613182487480;0.0160;-0.0609;0.0483;
599613192593105;0.0256;-0.0108;0.0611;
599613202698730;0.0320;0.0031;0.1016;
599613212802272;0.0021;-0.0129;0.0877;
599613222907897;-0.0181;-0.0065;0.0686;
599613233013470;0.0202;0.0862;0.0515;
599613243135397;0.0000;0.0542;0.0782;
599613253241022;-0.0905;-0.1162;0.0963;
599613263346647;-0.0501;-0.0300;0.1059;
599613273431543;-0.0565;0.0723;0.1027;
599613283537168;-0.0565;0.0467;0.1091;
599613293642793;-0.0064;0.0372;0.0888;
599613303724824;0.0000;0.0957;0.0537;
599613313830449;-0.0511;-0.0491;0.0995;
599613323936074;-0.1277;-0.2547;0.1676;
599613334071490;-0.0799;0.0020;0.1602;
599613344177115;-0.0788;0.2193;0.0675;
599613354282740;-0.1064;0.0883;0.0377;
599613364396074;-0.0575;0.0116;0.0601;
599613374501699;-0.1202;0.0286;0.0814;
599613384607324;-0.2481;0.0340;0.0782;
599613394711907;-0.2640;-0.0108;0.0899;
599613404817532;-0.2225;0.0084;0.1080;
599613414923157;-0.2172;0.0372;0.0760;
599613425029407;-0.1916;-0.0577;0.0526;
599613435135032;-0.1788;-0.0854;0.0334;
599613445240657;-0.1714;-0.0076;0.0494;
599613455346334;-0.1628;0.0893;0.0654;
599613465451959;-0.1447;0.2097;0.0696;
599613475557584;-0.2726;-0.1290;0.0558;
599613485659980;-0.2385;-0.3314;0.0228;
599613495765605;-0.1256;-0.0001;-0.0081;
599613505871230;-0.1181;0.1565;-0.0081;
599613515982845;-0.1309;0.0105;0.0057;
599613526088470;-0.0671;-0.0609;0.0302;
599613536194095;-0.0213;0.0585;0.0675;
599613546295084;-0.0490;0.0648;0.0632;
599613556400709;-0.0586;-0.0640;0.0281;
599613566506282;0.0021;0.0031;0.0462;
599613576612376;-0.0650;0.0862;0.0611;
599613586718001;-0.1256;-0.0023;0.0398;
599613596823626;-0.0989;-0.0225;0.0164;
599613606928626;-0.1277;0.0585;0.0185;
599613617034251;-0.1362;0.0329;0.0217;
599613627139876;-0.1565;-0.0172;0.0025;
599613637234668;-0.1778;0.0489;-0.0273;
599613647340293;-0.2150;0.0403;-0.0124;
599613657445865;-0.1565;-0.0427;-0.0188;
599613667569876;-0.1554;-0.0214;-0.0593;
599613677675501;-0.2417;0.0553;-0.1072;
599613687781126;-0.1597;0.0798;-0.1083;
599613697876751;-0.1149;0.0936;-0.1210;
599613707982376;-0.1490;0.0308;-0.1328;
599613718087949;-0.1330;-0.0076;-0.1551;
599613728185345;-0.1096;-0.0097;-0.1658;
599613738290970;-0.0799;0.0116;-0.1594;
599613748396595;-0.0490;0.0201;-0.1615;
599613758514772;0.0043;0.0340;-0.1402;
599613768620397;0.0234;0.0318;-0.1115;
599613778725970;0.0341;-0.0364;-0.1040;
599613788836647;0.1523;-0.0278;-0.1168;
599613798942272;0.2791;0.0947;-0.0731;
599613809047897;0.1992;0.0925;-0.0933;
599613819154147;0.1502;-0.0502;-0.0678;
599613829259772;0.1459;-0.0523;-0.0390;
599613839365397;0.1118;-0.0193;-0.0635;
599613849473574;0.1118;-0.0662;-0.0337;
599613859579199;0.0085;-0.1205;-0.0017;
599613869684824;0.0650;0.0137;0.0057;
599613879784043;0.0916;0.1341;0.0111;
599613889889615;-0.0085;0.0808;0.0430;
599613899995240;-0.0202;-0.0119;0.0675;
599613910077949;0.0170;0.0308;0.0707;
599613920183574;-0.0671;0.0798;0.0345;
599613930289199;-0.1011;0.0041;0.0462;
599613940416959;-0.0957;-0.0161;0.0505;
599613950522584;-0.1373;-0.0289;0.0419;
599613960628157;-0.2608;-0.0875;0.0366;
599613970719980;-0.2960;-0.0545;0.0462;
599613980825605;-0.2800;0.1234;0.0217;
599613990931230;-0.1788;0.1682;-0.0017;
599614001062168;-0.1405;0.0595;0.0132;
599614011167793;-0.2289;-0.1503;0.0409;
599614021273365;-0.2427;-0.1535;0.0430;
599614031379980;-0.1831;0.0286;0.0047;
599614041485605;-0.1309;0.0595;-0.0646;
599614051591230;-0.0873;-0.0097;-0.0656;
599614061683886;-0.0925;-0.0332;-0.0262;
599614071789511;-0.0735;-0.0161;-0.0241;
599614081895084;-0.0650;-0.0204;-0.0433;
599614092004980;-0.0288;-0.0427;-0.0209;
599614102110605;0.0107;0.0137;-0.0156;
599614112216230;-0.0170;0.0446;-0.0273;
599614122296543;0.0011;0.0201;-0.0124;
599614132402168;-0.0064;-0.0023;0.0068;
599614142507793;-0.0586;-0.0811;-0.0028;
599614152631334;-0.0469;-0.1375;0.0153;
599614162736959;-0.0298;-0.0182;-0.0039;
599614172842584;-0.0501;0.0435;-0.0071;
599614182949668;-0.0778;0.0009;-0.0198;
599614193055293;-0.0905;-0.0033;-0.0582;
599614203160918;-0.0947;0.0361;-0.0699;
599614213267168;-0.1000;0.0031;-0.0582;
599614223372793;-0.0767;-0.0310;-0.0656;
599614233478418;-0.0778;-0.0342;-0.0582;
599614243591386;-0.0852;-0.0225;-0.0561;
599614253697011;-0.0426;0.0009;-0.0656;
599614263802584;-0.0415;-0.0119;-0.0497;
599614273920293;-0.0309;0.0372;-0.0742;
599614284025918;0.0213;0.1352;-0.1285;
599614294131543;0.0565;0.1117;-0.0965;
599614304215813;-0.0021;-0.0598;-0.0827;
599614314321438;0.0437;-0.0555;-0.0763;
599614324427063;0.0298;0.0393;-0.0720;
599614334536907;0.0011;-0.0055;-0.0997;
599614344642532;0.0660;-0.0427;-0.1051;
599614354748157;0.0746;0.0446;-0.1072;
599614364848418;0.0916;0.1128;-0.0976;
599614374954043;0.0905;0.0776;-0.0593;
599614385059668;0.0075;-0.0278;-0.0465;
599614395164980;0.0266;-0.0246;-0.0742;
599614405270605;0.0309;0.0254;-0.0944;
599614415376230;-0.0096;-0.0193;-0.1125;
599614425493105;0.0181;0.0126;-0.1178;
599614435598730;-0.0128;0.0073;-0.1242;
599614445704355;-0.0160;-0.0470;-0.1264;
599614455808209;-0.0341;-0.0182;-0.1210;
599614465913834;-0.0447;-0.0193;-0.1317;
599614476019459;-0.0021;-0.0172;-0.1530;
599614486111751;0.0234;0.0020;-0.1413;
599614496217376;0.0671;0.0148;-0.1115;
599614506323001;0.0170;0.0148;-0.1391;
599614516441751;0.0426;-0.0236;-0.1455;
599614526547376;0.0415;0.0031;-0.1168;
599614536653001;0.0501;0.0233;-0.0944;
599614546746647;0.0501;-0.0204;-0.0848;
599614556852272;0.0735;0.0009;-0.1178;
599614566957897;0.0394;-0.0076;-0.1040;
599614577077324;0.0000;-0.0395;-0.0869;
599614587182949;0.0373;-0.0385;-0.0784;
599614597288574;-0.0011;-0.0449;-0.0582;
599614607382272;0.0405;0.0105;-0.0337;
599614617487897;0.0437;-0.0065;-0.0379;
599614627593522;0.0490;-0.0065;-0.0401;
599614637704407;0.0383;0.0510;-0.0561;
599614647810032;0.0426;0.0851;-0.0827;
599614657915657;0.0554;0.0648;-0.0529;
599614668019980;-0.0128;-0.0438;-0.0209;
599614678125605;-0.0085;-0.0651;-0.0411;
599614688231230;-0.0341;0.0222;-0.0635;
599614698333001;-0.0224;0.0116;-0.0774;
599614708438626;-0.0501;-0.0449;-0.0688;
599614718544251;-0.0490;-0.0129;-0.0656;
599614728645188;-0.0245;0.0542;-0.0763;
599614738750813;0.0309;0.0617;-0.0710;
599614748856438;0.0245;0.0148;-0.0433;
599614758961438;0.0043;0.0489;-0.0816;
599614769067063;0.0160;-0.0289;-0.1296;
599614779172636;0.0224;0.0009;-0.1178;
599614789290813;0.0288;0.0446;-0.1072;
599614799396438;0.0352;0.0531;-0.1328;
599614809502011;0.0181;0.0457;-0.1360;
599614819613105;-0.0011;-0.0065;-0.1146;
599614829718730;0.0032;0.0041;-0.1040;
599614839824303;0.0597;0.0595;-0.0880;
599614849956595;0.0543;0.0446;-0.1051;
599614860062272;0.0522;-0.0033;-0.1019;
599614870167845;0.0554;-0.0150;-0.0848;
599614880231438;0.0362;-0.0108;-0.1157;
599614890337063;0.0501;0.0329;-0.1210;
599614900442636;0.0437;0.0521;-0.1093;
599614910545605;0.0447;-0.0012;-0.1391;
599614920651230;0.0479;0.0435;-0.1083;
599614930756855;0.0085;0.0542;-0.0976;
599614940857584;-0.0096;-0.0406;-0.1136;
599614950963209;0.0181;0.0361;-0.1125;
599614961068834;0.0256;0.0563;-0.0923;
599614971181022;0.0426;-0.0406;-0.0720;
599614981286647;0.0554;0.0169;-0.0624;
599614991392272;0.0426;0.0648;-0.0688;
599615001499251;0.0650;0.0840;-0.0965;
599615011604876;0.0373;0.1043;-0.0933;
599615021710501;0.0021;-0.1088;-0.0869;
599615031809043;0.0075;-0.2249;-0.0337;
599615041914668;0.0117;0.0766;-0.0326;
599615052020293;0.0181;0.2150;-0.0731;
599615062132897;-0.0394;0.0403;-0.1115;
599615072238522;-0.0447;-0.0609;-0.1242;
599615082344095;0.0096;-0.0161;-0.1264;
599615092457584;0.0778;0.0403;-0.1040;
599615102563209;0.0533;0.0798;-0.0571;
599615112668834;0.0213;-0.0033;-0.1146;
599615122769459;0.0234;0.0020;-0.1200;
599615132875084;0.0170;-0.0076;-0.1232;
599615142980709;0.0277;-0.0172;-0.1349;
599615153086647;0.0895;0.3087;-0.1083;
599615163192272;0.0266;0.0787;-0.1040;
599615173297897;-0.1075;-0.4783;-0.1019;
599615183403418;-0.0671;-0.2707;-0.0923;
599615193509043;0.0266;0.0830;-0.1413;
599615203614668;0.1321;0.0979;-0.1880;
599615213727480;0.1491;0.0222;-0.1445;
599615223833105;0.1587;-0.0001;-0.1605;
599615233938730;0.2375;0.0798;-0.1349;
599615244029876;0.2333;0.0627;-0.1402;
599615254135501;0.2024;-0.0587;-0.1381;
599615264241126;0.1949;-0.0278;-0.1061;
599615274349980;0.1640;0.0169;-0.0795;
599615284455605;0.1864;-0.0811;-0.0678;
599615294561230;0.2013;-0.1333;-0.0443;
599615304672011;0.1832;-0.0364;-0.0241;
599615314777636;0.1864;-0.0236;-0.0198;
599615324883261;0.2141;-0.0694;-0.0039;
599615334990657;0.1992;-0.0907;0.0111;
599615345096282;0.1896;-0.0214;0.0079;
599615355201907;0.2439;0.0723;-0.0028;
599615365310240;0.2823;0.0744;-0.0252;
599615375415865;0.2908;0.0467;-0.0156;
599615385521490;0.2684;0.1256;-0.0103;
599615395626751;0.2077;0.0947;0.0238;
599615405732376;0.1736;0.0084;0.0334;
599615415838001;0.2141;0.0393;0.0622;
599615425930709;0.2099;0.0297;0.1186;
599615436036334;0.2184;-0.0417;0.1538;
599615446141959;0.2269;-0.0310;0.1740;
599615456261438;0.1981;0.0361;0.1666;
599615466367063;0.1609;0.0329;0.1485;
599615476472688;0.1214;-0.0332;0.1005;
599615486574772;0.0511;-0.3634;0.1282;
599615496680397;0.0245;-0.3431;0.1815;
599615506786022;-0.0117;0.0819;0.1698;
599615516894668;0.0724;0.1597;0.0941;
599615527000293;0.1928;0.0851;0.0995;
599615537105918;0.2013;0.2204;0.1208;
599615547212168;0.2375;0.3023;0.1101;
599615557317793;0.1864;0.1309;0.1027;
599615567423418;0.1438;0.0574;0.1591;
599615577538834;0.1363;0.0627;0.1943;
599615587644459;0.0980;-0.0491;0.2071;
599615597750084;0.0692;-0.0097;0.2145;
599615607831959;0.2365;0.5292;0.2465;
599615617937584;0.2056;0.3374;0.2955;
599615628043209;-0.2118;-0.7148;0.2646;
599615638174772;-0.0873;-0.2920;0.2838;
599615648280397;-0.1543;0.1320;0.2337;
599615658386022;-0.2907;-0.2196;0.1687;
599615668486334;-0.1426;-0.1525;0.1240;
599615678591959;0.0597;0.2097;0.0931;
599615688697584;0.1427;0.2927;0.1016;
599615698806022;0.0458;0.0872;0.1410;
599615708911647;0.0149;-0.0587;0.1634;
599615719017272;0.0266;0.0989;0.2241;
599615729108209;-0.0011;0.1032;0.2284;
599615739213834;0.0202;-0.0736;0.2230;
599615749319459;0.0703;0.0659;0.2624;
599615759424824;0.0639;0.0787;0.2912;
599615769530449;-0.0234;-0.1929;0.2848;
599615779636022;0.0085;-0.1120;0.2987;
599615789784251;0.0000;-0.0065;0.2880;
599615799889876;-0.0522;-0.1546;0.2742;
599615809995449;-0.0746;-0.1162;0.2742;
599615820035084;-0.1213;-0.0790;0.2678;
599615830140709;-0.1905;-0.1471;0.2550;
599615840246334;-0.1820;-0.0640;0.2316;
599615850355293;-0.1383;0.0276;0.2337;
599615860460918;-0.1309;0.0116;0.2337;
599615870566543;-0.0533;0.1256;0.2507;
599615880676751;-0.1234;0.1511;0.2262;
599615890782376;-0.2204;0.0457;0.2230;
599615900887949;-0.1799;0.0478;0.2273;
599615911004043;-0.1735;0.0233;0.2060;
599615921109668;-0.2193;-0.0321;0.1911;
599615931215293;-0.2182;-0.0087;0.1634;
599615941314668;-0.2555;-0.0438;0.1453;
599615951420293;-0.2960;-0.0609;0.1304;
599615961525918;-0.3450;-0.0395;0.1144;
599615971631334;-0.3482;-0.0406;0.0728;
599615981736959;-0.3418;0.0073;0.0100;
599615991842584;-0.3290;0.0425;-0.0433;
599616001962480;-0.2822;0.0350;-0.0326;
599616012068105;-0.1969;0.0286;-0.0614;
599616022173730;-0.1799;0.0840;-0.0795;
599616032268626;-0.2044;0.0862;-0.0699;
599616042374251;-0.1948;0.0116;-0.0912;
599616052479876;-0.1501;0.0617;-0.0731;
599616062602793;-0.1362;0.0936;-0.0795;
599616072708418;-0.1096;0.0063;-0.0720;
599616082814043;-0.1128;-0.0119;-0.1061;
599616092919355;-0.1117;0.0414;-0.1360;
599616103024980;-0.0915;0.0169;-0.1306;
599616113130605;-0.1330;-0.0747;-0.1530;
599616123242584;-0.0820;-0.0704;-0.1381;
599616133348209;-0.0778;-0.0097;-0.1200;
599616143453834;-0.0597;0.0041;-0.1189;
599616153549980;-0.0320;-0.0129;-0.1328;
599616163655605;-0.0181;-0.0129;-0.1296;
599616173761230;0.0415;-0.0055;-0.0912;
599616183862584;0.0714;0.0276;-0.0912;
599616193968209;0.0064;-0.0236;-0.1157;
599616204073834;-0.0138;-0.0832;-0.0880;
599616214185397;0.0405;-0.0087;-0.1253;
599616224291022;0.0138;-0.0150;-0.1487;
599616234396647;-0.0511;-0.0395;-0.1093;
599616244506543;0.0309;0.0286;-0.0838;
599616254612168;0.0447;0.0340;-0.0965;
599616264717793;0.0075;-0.0023;-0.0912;
599616274810397;0.0447;0.0180;-0.0795;
599616284916022;0.0980;0.0052;-0.0699;
599616295021647;0.1129;0.0169;-0.0955;
599616305107793;0.0980;0.0137;-0.0774;
599616315213418;0.0831;-0.0278;-0.0880;
599616325319043;0.1374;-0.0555;-0.0816;
599616335461334;0.2514;-0.0065;-0.0188;
599616345566959;0.2120;0.0169;0.0569;
599616355672584;0.1587;-0.0278;0.0547;
599616365772584;0.1726;-0.0843;0.1037;
599616375878209;0.0937;-0.0800;0.1229;
599616385983834;0.1214;-0.0427;0.1485;
599616396078626;0.1140;-0.0033;0.1272;
599616406184251;0.0735;0.0105;0.1762;
599616416289876;0.0192;0.0244;0.1719;
599616426393313;0.0085;0.0478;0.1932;
599616436498938;-0.0628;0.0276;0.1900;
599616446604563;-0.0895;0.0382;0.2252;
599616456722063;-0.1714;0.0340;0.2358;
599616466827688;-0.2939;-0.0395;0.2262;
599616476933313;-0.3194;-0.0374;0.2220;
599616487036022;-0.3098;0.0095;0.1794;
599616497141647;-0.2907;0.0467;0.1250;
599616507247272;-0.3599;0.0670;0.1069;
599616517343313;-0.5304;-0.0310;0.0931;
599616527448938;-0.5879;-0.1226;0.0036;
599616537554563;-0.4718;-0.1045;-0.0624;
599616547667740;-0.3386;-0.0321;-0.0955;
599616557773365;-0.2608;0.0297;-0.1232;
599616567878990;-0.2278;0.0137;-0.1093;
599616577982584;-0.2150;-0.0193;-0.0752;
599616588088209;-0.0884;0.0116;-0.0720;
599616598193834;-0.0021;0.0830;-0.1189;
599616608299824;0.1033;0.1639;-0.1455;
599616618405449;-0.0469;0.0531;-0.1530;
599616628511074;-0.1085;-0.0672;-0.1328;
599616638616438;0.1726;0.0659;-0.0731;
599616648722063;0.3302;0.1799;-0.0614;
599616658827688;0.2791;0.1490;-0.0603;
599616668941126;0.0842;0.0563;-0.0166;
599616679046751;-0.0362;-0.0427;0.0356;
599616689152376;0.0746;0.0020;0.0696;
599616699248574;0.1545;0.0467;0.0409;
599616709354199;0.1406;0.1000;0.0121;
599616719459824;-0.0192;0.0190;0.0334;
599616729573626;-0.0426;-0.0896;0.0579;
599616739679251;0.0256;0.0382;0.0366;
599616749784824;0.0320;0.1565;0.0387;
599616759932324;-0.0437;0.0574;0.0579;
599616770037897;-0.0895;-0.0822;0.0792;
599616780143522;-0.0405;-0.1035;0.1027;
599616790216126;0.0021;-0.0055;0.1112;
599616800321751;-0.0224;0.0393;0.0835;
599616810427324;-0.0405;0.0180;0.0611;
599616820564563;-0.0724;0.0201;0.0611;
599616830670188;-0.0842;-0.0417;0.0664;
599616840775761;-0.1277;-0.0534;0.0249;
599616850812168;-0.1181;0.0041;0.0228;
599616860917793;-0.1405;-0.0374;-0.0007;
599616871023418;-0.1597;-0.1045;0.0047;
599616881157688;-0.1085;-0.0726;0.0324;
599616891263313;-0.0714;0.0073;0.0302;
599616901368886;-0.0810;0.0222;-0.0039;
599616911460709;-0.1256;-0.0385;-0.0294;
599616921566334;-0.1224;-0.0236;-0.0177;
599616931671959;-0.1011;0.0372;-0.0060;
599616941792272;-0.0671;0.0499;-0.0220;
599616951897897;-0.0957;0.0233;-0.0188;
599616962003522;-0.1032;0.0052;-0.0145;
599616972103938;-0.0842;0.0084;0.0015;
599616982209563;-0.0714;0.0212;0.0121;
599616992315188;-0.0554;0.0734;0.0281;
599617002453418;-0.0831;0.0073;0.0760;
599617012559043;-0.0925;-0.0843;0.0643;
599617022664615;-0.0543;-0.0459;0.0696;
599617032735084;-0.0533;0.0329;0.1112;
599617042840709;-0.0479;0.1000;0.0888;
599617052946334;-0.0746;0.0766;0.0569;
599617063060084;-0.1426;0.0276;0.0643;
599617073165709;-0.1660;-0.0108;0.0995;
599617083271334;-0.1213;0.0329;0.1165;
599617093378990;-0.1362;0.0499;0.1293;
599617103484615;-0.2608;-0.1173;0.1122;
599617113590240;-0.3258;-0.1812;0.0952;
599617123691334;-0.2033;0.0137;0.0377;
599617133796959;-0.1447;0.1032;0.0079;
599617143902584;-0.3354;-0.0502;0.0206;
599617154007793;-0.4995;-0.0907;-0.0166;
599617164113418;-0.4345;0.0063;-0.1008;
599617174219043;-0.3269;-0.0055;-0.1423;
599617184323834;-0.3269;-0.0555;-0.1519;
599617194429459;-0.2363;0.0489;-0.1328;
599617204535084;-0.1724;0.1352;-0.1338;
599617214647063;-0.2118;-0.0342;-0.1370;
599617224752688;-0.2118;-0.1344;-0.1786;
599617234858313;-0.1064;-0.0225;-0.1976;
599617244967272;-0.0128;0.0254;-0.1923;
599617255072897;0.0437;0.0190;-0.2242;
599617265178522;0.0991;0.1043;-0.2296;
599617275261543;0.0511;0.1117;-0.2029;
599617285367168;-0.0256;-0.0119;-0.1583;
599617295472793;-0.0288;-0.0534;-0.1253;
599617305591699;0.1023;0.0063;-0.1210;
599617315697532;0.2216;0.0041;-0.0965;
599617325803365;0.0959;-0.1035;-0.0646;
599617335915136;0.1108;-0.0310;-0.0667;
599617346020970;0.2173;0.1298;-0.0624;
599617356126803;0.1875;0.1192;-0.0358;
599617366226230;0.0138;-0.0459;-0.0103;
599617376332011;-0.0692;-0.1865;-0.0039;
599617386437845;0.0192;-0.1109;-0.0156;
599617396536282;-0.0192;0.0201;-0.0134;
599617406642115;-0.0383;0.0372;0.0345;
599617416747949;-0.0266;0.0286;0.0760;
599617426841959;-0.1202;-0.0246;0.0739;
599617436947793;-0.1895;-0.1130;0.0089;
599617447053626;-0.1788;-0.0395;-0.0124;
599617457176907;-0.2694;0.0308;0.0196;
599617467282740;-0.3194;-0.0417;0.0153;
599617477388574;-0.2587;-0.0449;-0.0273;
599617487494511;-0.3322;0.0158;-0.0379;
599617497600345;-0.4004;0.1202;-0.0465;
599617507706178;-0.3407;0.0723;-0.0624;
599617517819824;-0.3258;-0.1088;-0.0166;
599617527925657;-0.4419;0.1011;-0.0518;
599617538031490;-0.4174;0.2682;-0.1668;
599617548127636;-0.2513;0.1746;-0.2477;
599617558233470;-0.2236;0.1799;-0.3095;
599617568339303;-0.2470;0.2225;-0.3041;
599617578446490;-0.2012;0.1085;-0.2754;
599617588552324;-0.1628;0.0169;-0.2658;
599617598658157;-0.1628;-0.0119;-0.2860;
599617608758522;-0.1288;-0.0395;-0.2423;
599617618864355;-0.0979;-0.1162;-0.2189;
599617628970188;-0.0096;-0.1844;-0.2093;
599617639089303;-0.0330;-0.1695;-0.2157;
599617649195136;-0.0895;-0.3920;-0.2328;
599617659300970;-0.0309;-0.4953;-0.2668;
599617669409720;-0.0224;-0.1684;-0.3073;
599617679515553;0.0256;0.0031;-0.3457;
599617689621438;0.2099;-0.0598;-0.3851;
599617699754355;0.3387;0.0435;-0.4021;
599617709860136;0.3345;0.1884;-0.3861;
599617719965970;0.4325;0.1895;-0.3947;
599617730009928;0.6156;0.1128;-0.3616;
599617740115813;0.6646;-0.0204;-0.3116;
599617750221595;0.7274;-0.0513;-0.2562;
599617760385970;0.7274;0.0073;-0.2402;
599617770491803;0.7679;0.0329;-0.2328;
599617780597636;0.7828;0.0073;-0.2083;
599617790651699;0.6869;-0.1045;-0.2125;
599617800757532;0.6326;-0.1599;-0.1987;
599617810863365;0.5623;-0.0832;-0.1891;
599617820991699;0.5687;-0.0779;-0.1764;
599617831097532;0.6166;-0.0747;-0.1722;
599617841203365;0.7136;-0.0150;-0.1541;
599617851308261;0.8233;-0.0246;-0.0710;
599617861414095;0.8244;-0.0449;0.0036;
599617871519928;0.8339;0.0510;0.0068;
599617881595865;0.8276;0.0798;0.0313;
599617891701699;0.7040;0.0670;0.0931;
599617901807532;0.5698;0.1064;0.1133;
599617911950084;0.4762;0.1234;0.1261;
599617922055918;0.4559;0.1352;0.1687;
599617932161751;0.3441;0.1075;0.2156;
599617942244928;0.1960;0.0180;0.2433;
599617952350761;0.1278;-0.0300;0.2688;
599617962456595;0.0618;-0.0214;0.2965;
599617972563261;0.0213;0.0265;0.2987;
599617982669095;0.0639;0.0957;0.2635;
599617992774928;0.0458;0.0947;0.2848;
599618002880032;-0.0096;0.0606;0.2901;
599618012985865;-0.0575;0.0595;0.2720;
599618023091699;-0.1320;0.0563;0.2774;
599618033208261;-0.2023;0.0457;0.2955;
599618043314043;-0.2630;0.0095;0.2763;
599618053419876;-0.2822;-0.0129;0.2603;
599618063525240;-0.3056;0.0190;0.2720;
599618073631074;-0.3525;0.0585;0.2774;
599618083736907;-0.3397;0.0318;0.2379;
599618093832688;-0.2875;0.0361;0.1740;
599618103938522;-0.2875;0.0340;0.1794;
599618114044355;-0.3589;-0.0736;0.1517;
599618124155553;-0.3429;-0.1216;0.1027;
599618134261386;-0.3535;-0.0949;0.0941;
599618144367220;-0.3471;-0.0651;0.0803;
599618154480032;-0.2864;0.0009;0.0739;
599618164585865;-0.2587;0.0169;0.0675;
599618174691699;-0.2023;0.0531;0.0792;
599618184783053;-0.1575;0.0723;0.0824;
599618194888886;-0.1362;0.0553;0.0622;
599618204994720;-0.1245;0.1053;0.0483;
599618215094824;-0.1490;0.0808;0.0526;
599618225200657;-0.1522;-0.0523;0.0366;
599618235306490;-0.1170;-0.0364;0.0206;
599618245420136;-0.0767;0.0553;-0.0007;
599618255525970;-0.0415;0.0510;0.0015;
599618265631803;-0.0533;-0.0193;0.0132;
599618275727220;-0.0543;-0.0491;0.0292;
599618285833053;0.0032;-0.0353;0.0601;
599618295938886;0.0820;0.0403;0.0356;
599618306034303;0.0533;-0.0310;-0.0049;
599618316140188;0.0405;-0.0449;-0.0028;
599618326246022;0.0671;0.0574;0.0196;
599618336371907;0.0394;0.0521;-0.0134;
599618346477740;0.0021;-0.0001;-0.0401;
599618356583574;0.0021;0.0478;-0.0390;
599618366686386;-0.0053;0.0617;-0.0316;
599618376792220;0.0032;0.0627;-0.0262;
599618386898053;0.0138;0.0372;-0.0358;
599618396996699;0.0277;-0.0012;-0.0305;
599618407102532;0.0554;0.0158;-0.0262;
599618417208365;0.0394;-0.0246;-0.0624;
599618427308470;0.0234;-0.0843;-0.0795;
599618437414303;0.0650;-0.0087;-0.0411;
599618447520136;0.0479;-0.0204;-0.0411;
599618457645188;-0.0160;-0.1035;-0.0859;
599618467751022;-0.0170;-0.0300;-0.0901;
599618477856855;-0.0075;0.0435;-0.0965;
599618487953105;-0.0075;0.0478;-0.1040;
599618498058938;-0.0341;0.0190;-0.0933;
599618508164772;-0.0778;-0.0587;-0.0656;
599618518269303;-0.0479;-0.1077;-0.0539;
599618528375136;0.0415;-0.0332;-0.1008;
599618538480970;0.0618;0.0478;-0.1477;
599618548583053;0.0309;0.0478;-0.1285;
599618558688886;-0.0043;0.0041;-0.1157;
599618568794720;-0.0128;-0.0193;-0.1317;
599618578908886;-0.0202;-0.0087;-0.1583;
599618589014720;-0.0043;-0.0502;-0.1562;
599618599120553;0.0309;-0.0662;-0.1732;
599618609212636;0.1268;0.0169;-0.1477;
599618619318470;0.2162;0.0372;-0.1178;
599618629424303;0.2450;0.0020;-0.1040;
599618639535553;0.3995;0.0702;-0.0912;
599618649641438;0.4517;0.1405;-0.0816;
599618659747272;0.2674;0.0073;-0.0624;
599618669921959;0.1332;-0.1184;-0.0081;
599618680027740;0.2013;-0.0491;-0.0017;
599618690133626;0.3302;0.0158;-0.0081;
599618700197584;0.3302;-0.0204;0.0292;
599618710303418;0.3515;0.0244;0.0473;
599618720409251;0.4676;0.1373;0.0952;
599618730461855;0.3515;0.1011;0.1176;
599618740567688;0.1353;-0.0491;0.1506;
599618750673522;0.1779;-0.0395;0.1517;
599618760779615;0.2162;0.1107;0.1176;
599618770885449;0.1310;0.1043;0.1091;
599618780991282;0.0234;0.0041;0.1176;
599618791121178;-0.1469;0.0126;0.1293;
599618801227011;-0.2683;0.0457;0.1112;
599618811332845;-0.2992;-0.0076;0.0877;
599618821440865;-0.2406;0.0126;0.0451;
599618831546699;-0.1884;0.0840;0.0228;
599618841652532;-0.2310;0.0446;0.0292;
599618851737115;-0.2332;-0.0119;0.0217;
599618861842949;-0.1863;0.0233;-0.0166;
599618871948782;-0.1447;0.0734;-0.0635;
599618882083782;-0.1053;-0.0065;-0.0443;
599618892189615;-0.1128;-0.1024;-0.0252;
599618902295449;-0.0810;-0.0885;-0.0241;
599618912378365;-0.0586;-0.0310;-0.0284;
599618922484199;-0.0352;-0.0150;-0.0049;
599618932590032;-0.0426;-0.0023;-0.0017;
599618942699407;0.0043;0.0350;0.0270;
599618952805240;-0.0160;-0.0150;0.0963;
599618962911074;-0.0490;-0.1109;0.1144;
599618973030188;-0.0554;-0.0758;0.1069;
599618983136022;-0.0936;0.0084;0.0963;
599618993241855;-0.1650;-0.0630;0.1367;
599619003333105;-0.1959;-0.0715;0.1602;
599619013438938;-0.3035;0.0702;0.1325;
599619023544772;-0.4196;0.0680;0.1527;
599619033641386;-0.4387;-0.0342;0.1463;
599619043747220;-0.4079;0.0084;0.1005;
599619053853053;-0.4664;0.0372;0.0931;
599619063972272;-0.5069;-0.0129;0.0824;
599619074078105;-0.5005;-0.0395;0.0483;
599619084183938;-0.6007;0.0052;0.0047;
599619094288261;-0.7049;0.1128;-0.0390;
599619104394095;-0.5794;0.0670;-0.0678;
599619114499928;-0.3173;-0.0214;-0.1157;
599619124613522;-0.2864;-0.0023;-0.1562;
599619134719355;-0.3098;-0.0225;-0.1509;
599619144825188;-0.2566;-0.1099;-0.1754;
599619154914303;-0.2033;-0.0481;-0.2210;
599619165020136;-0.2044;0.0095;-0.2530;
599619175125970;-0.1202;-0.0332;-0.3095;
599619185230865;-0.0032;-0.0033;-0.3340;
599619195336699;-0.0170;0.0052;-0.3563;
599619205442532;0.0437;0.0308;-0.4138;
599619215566803;0.1630;0.0489;-0.4383;
599619225672636;0.2535;-0.0055;-0.4586;
599619235778470;0.3398;-0.0236;-0.4884;
599619245869459;0.3750;-0.0129;-0.5033;
599619255975293;0.3909;-0.0534;-0.4852;
599619266081126;0.4634;-0.0353;-0.4756;
599619276174511;0.5612;-0.0044;-0.4660;
599619286280345;0.6624;-0.0310;-0.4501;
599619296394355;0.7817;-0.0044;-0.4011;
599619306500084;0.8169;-0.0065;-0.3585;
599619316605970;0.8734;-0.0225;-0.3414;
599619326711803;0.9394;0.0297;-0.2977;
599619336844303;0.9490;0.0446;-0.2391;
599619346950136;0.9724;0.0254;-0.1859;
599619357055970;0.9522;0.0776;-0.1274;
599619367158678;0.9362;0.0212;-0.0635;
599619377264511;0.8510;-0.1258;-0.0028;
599619387370345;0.5975;-0.1194;0.0228;
599619397453990;0.3526;0.0116;0.0814;
599619407559824;0.2280;0.0734;0.1154;
599619417665657;0.2567;0.0723;0.1325;
599619427770761;0.3142;0.0382;0.0814;
599619437876595;0.3047;0.0968;0.0707;
599619447982428;0.2397;0.1277;0.1080;
599619458098470;0.2216;0.0595;0.0963;
599619468204303;0.2684;0.0617;0.1101;
599619478310136;0.2354;0.0787;0.1399;
599619488399720;0.1949;0.0158;0.1549;
599619498505553;0.1960;0.1000;0.1325;
599619508611386;0.2290;0.2140;0.1485;
599619518715032;0.3068;0.0808;0.1815;
599619528820865;0.3462;-0.0758;0.1943;
599619538926699;0.2897;-0.0481;0.1911;
599619549033209;0.2759;0.0297;0.1634;
599619559139043;0.2652;0.0521;0.1676;
599619569244876;0.2503;0.0233;0.1687;
599619579356074;0.2865;0.0329;0.1698;
599619589461907;0.2865;0.0680;0.1943;
599619599567740;0.2663;0.0105;0.2220;
599619609683730;0.2471;-0.0300;0.2337;
599619619789563;0.2429;-0.0033;0.2358;
599619629895345;0.2162;0.0137;0.2667;
599619639985865;0.1470;0.0350;0.2827;
599619650091699;0.0724;0.0851;0.2987;
599619660197532;-0.0426;0.1043;0.2678;
599619670278470;-0.0405;0.1138;0.2806;
599619680384303;-0.0160;0.0936;0.2614;
599619690490188;0.0117;0.0233;0.2539;
599619700632272;-0.0575;-0.0353;0.2603;
599619710738053;-0.1469;-0.0289;0.2699;
599619720843886;-0.2651;-0.0438;0.2763;
599619730925657;-0.3791;-0.0566;0.2550;
599619741031490;-0.4483;-0.0481;0.2348;
599619751137324;-0.5037;-0.0427;0.2198;
599619761245449;-0.5240;0.0286;0.1719;
599619771351282;-0.5122;0.0435;0.1218;
599619781457115;-0.4739;-0.0033;0.0877;
599619791557428;-0.3567;-0.0012;0.0696;
599619801663261;-0.2726;0.0009;0.0356;
599619811769095;-0.2459;-0.0129;-0.0071;
599619821908678;-0.1980;-0.0129;-0.0145;
599619832014511;-0.1831;0.0052;0.0047;
599619842120345;-0.1522;0.0190;-0.0060;
599619852217949;-0.1107;0.0052;-0.0017;
599619862323782;-0.0660;0.0276;0.0100;
599619872429615;-0.0362;0.0478;0.0206;
599619882506803;0.0607;0.0372;0.0249;
599619892612636;0.1193;-0.0225;0.0132;
599619902718470;0.1449;-0.0609;0.0228;
599619912829355;0.1587;-0.0385;0.0505;
599619922935188;0.1353;-0.0364;0.0409;
599619933041022;0.1118;-0.0566;0.0526;
599619943162011;0.0799;-0.0119;0.0760;
599619953267845;0.0394;0.0329;0.0792;
599619963373678;0.0405;0.0180;0.0824;
599619973491595;0.0565;-0.0001;0.1133;
599619983597428;0.0234;0.0276;0.1133;
599619993703261;0.0341;0.0265;0.0984;
599620003800970;-0.0043;0.0041;0.0590;
599620013906803;-0.0277;0.0148;0.0569;
599620024012636;0.0011;0.0254;0.0579;
599620034101386;-0.0085;0.0020;0.0260;
599620044207220;-0.0213;-0.0374;-0.0081;
599620054313053;-0.0469;-0.0140;-0.0039;
599620064432011;-0.0437;0.0233;0.0057;
599620074537845;-0.0447;0.0063;0.0015;
599620084643678;-0.0277;-0.0023;-0.0124;
599620094754303;-0.0043;0.0169;0.0025;
599620104860136;0.0107;0.0350;-0.0007;
599620114965970;0.0138;0.0340;-0.0305;
599620125065240;0.0032;0.0361;-0.0475;
599620135171074;0.0011;-0.0182;-0.0422;
599620145276907;0.0128;-0.0438;-0.0593;
599620155386803;0.0160;0.0041;-0.0763;
599620165492636;0.0277;0.0606;-0.0848;
599620175598470;0.0458;0.0723;-0.0742;
599620185706074;0.0671;0.0585;-0.0699;
599620195811907;0.1055;0.0372;-0.0316;
599620205917740;0.0565;-0.0715;0.0036;
599620216019407;0.0415;-0.1546;0.0111;
599620226125240;0.0533;-0.1589;-0.0166;
599620236231074;0.0490;-0.0864;-0.0433;
599620246323157;0.1023;0.0222;-0.0113;
599620256428990;0.1683;0.0659;0.0196;
599620266534824;0.1449;0.0286;0.0015;
599620276631699;0.1182;0.0318;0.0089;
599620286737532;0.0852;0.0233;0.0366;
599620296843365;0.0543;-0.0609;0.0643;
599620306979511;0.0479;-0.0854;0.0750;
599620317085345;0.0607;-0.0683;0.1272;
599620327191230;0.0405;-0.0459;0.1314;
599620337282845;0.0820;0.0158;0.1261;
599620347388678;0.0820;0.0979;0.1101;
599620357494563;0.0447;0.1692;0.1453;
599620367589407;0.0266;0.0989;0.1474;
599620377695240;-0.0096;-0.0491;0.1346;
599620387801126;0.0107;-0.0353;0.1229;
599620397916022;0.0149;0.0393;0.1272;
599620408021855;-0.0011;-0.0076;0.1517;
599620418127740;-0.0160;-0.0715;0.1815;
599620428223261;-0.0160;-0.0204;0.2028;
599620438329095;-0.0234;-0.0033;0.2166;
599620448434980;-0.0320;-0.0406;0.2220;
599620458549720;-0.0660;-0.0427;0.1698;
599620468655553;-0.0756;0.0457;0.1218;
599620478761438;-0.1639;0.0808;0.1304;
599620488868886;-0.2342;-0.0033;0.1080;
599620498974720;-0.2182;0.0031;0.1122;
599620509080605;-0.2363;0.1309;0.0430;
599620519176699;-0.3418;-0.0001;-0.0081;
599620529282532;-0.4079;-0.1578;0.0377;
599620539388418;-0.3301;-0.0640;0.0739;
599620549484303;-0.2651;-0.0129;0.0931;
599620559590136;-0.2246;-0.0278;0.0494;
599620569696022;-0.1320;-0.0055;0.0164;
599620579844303;-0.1117;0.0190;-0.0092;
599620589950136;-0.1298;-0.0023;0.0079;
599620600056022;-0.1234;-0.0353;0.0057;
599620610153365;-0.0884;-0.0406;0.0121;
599620620259199;-0.0618;0.0691;0.0132;
599620630365084;-0.0820;0.0329;-0.0252;
599620640448678;-0.0884;-0.0928;-0.0017;
599620650554563;-0.0383;0.1458;0.0206;
599620660660397;-0.0447;0.2714;0.0217;
599620670773782;-0.1405;0.0126;0.0473;
599620680879615;-0.1479;-0.0736;0.0483;
599620690985501;-0.0873;0.0190;0.0174;
599620701071282;-0.0968;0.0297;0.0057;
599620711177115;-0.1181;-0.0289;0.0164;
599620721283001;-0.1021;-0.0523;0.0185;
599620731409511;-0.0863;-0.0119;0.0526;
599620741515345;-0.0831;0.0553;0.0462;
599620751621230;-0.1117;-0.0310;0.0260;
599620761714615;-0.1554;-0.0545;0.0111;
599620771820501;-0.1277;-0.0204;0.0206;
599620781926334;-0.1543;-0.1099;0.0590;
599620792026595;-0.0947;-0.0598;0.0590;
599620802132428;-0.0266;0.2991;-0.0081;
599620812238313;0.0170;0.4588;-0.0507;
599620822346282;-0.1064;0.2948;-0.0358;
599620832452115;-0.1703;0.1565;-0.0486;
599620842558001;-0.1714;0.0787;-0.0678;
599620852672220;-0.1117;0.1075;-0.0635;
599620862778053;-0.1352;-0.0172;-0.0379;
599620872883938;-0.1586;-0.2174;-0.0401;
599620882977532;-0.0852;-0.1045;-0.0656;
599620893083365;-0.0831;-0.0566;-0.0379;
599620903189251;-0.0799;-0.1865;-0.0156;
599620913297220;-0.0352;-0.0992;-0.0571;
599620923403053;-0.0266;-0.0182;-0.0710;
599620933508938;-0.0373;-0.2238;-0.0571;
599620943611178;-0.0107;-0.3463;-0.0539;
599620953717011;-0.0682;-0.1929;-0.1125;
599620963822897;-0.0724;0.0265;-0.1274;
599620973933522;-0.0479;0.1735;-0.0593;
599620984039355;-0.0447;0.1820;-0.0401;
599620994145240;-0.0149;0.1511;-0.0401;
599621004249407;-0.0256;0.1969;-0.0433;
599621014355240;-0.0692;0.0766;-0.0454;
599621024461126;-0.0671;-0.0758;-0.0891;
599621034576178;-0.0298;-0.0204;-0.0571;
599621044682011;-0.0288;0.0041;-0.0369;
599621054787845;0.0043;-0.0523;-0.0379;
599621064885240;0.0075;-0.0864;-0.0454;
599621074991074;-0.0117;-0.1184;-0.0337;
599621085096959;-0.0266;-0.1290;-0.0134;
599621095202428;-0.0320;-0.1269;-0.0177;
599621105308261;-0.0341;-0.0555;-0.0379;
599621115414147;-0.0501;0.0425;-0.0316;
599621125521595;-0.0415;0.0467;-0.0156;
599621135627428;-0.0597;-0.0427;-0.0603;
599621145733313;-0.0714;0.0308;-0.1125;
599621155831126;-0.0415;0.1138;-0.0933;
599621165936959;-0.0628;-0.0353;-0.0816;
599621176042845;-0.0957;-0.0609;-0.1445;
599621186151178;-0.0936;0.0180;-0.1583;
599621196257011;-0.0362;0.1021;-0.1583;
599621206362897;-0.0043;0.1383;-0.1562;
599621216473365;0.0128;0.1309;-0.1413;
599621226579199;0.0224;0.1107;-0.1157;
599621236685084;0.0043;0.0393;-0.0912;
599621246782011;-0.0160;0.0180;-0.1551;
599621256887845;-0.0170;0.1138;-0.1690;
599621266993730;0.0181;0.1490;-0.1700;
599621277123470;0.0842;0.1053;-0.1605;
599621287229303;0.0682;0.0393;-0.1615;
599621297335188;0.0714;-0.0385;-0.1530;
599621307422897;0.0533;-0.0779;-0.1157;
599621317528470;0.0746;-0.0928;-0.1317;
599621327633990;0.1289;-0.1695;-0.1178;
599621337741022;0.1822;-0.1152;-0.0699;
599621347846595;0.1971;-0.0523;-0.0049;
599621357952115;0.1885;-0.0800;-0.0177;
599621368053157;0.2045;-0.0172;-0.0060;
599621378158730;0.1885;0.0723;0.0015;
599621388264251;0.2312;0.0840;-0.0071;
599621398370188;0.2482;0.0617;0.0377;
599621408475761;0.1747;0.0648;0.0430;
599621418581282;0.1342;0.1181;0.0505;
599621428683313;0.1353;0.1266;0.0814;
599621438788886;0.1150;0.0297;0.1453;
599621448894407;0.1108;0.0265;0.1293;
599621458997584;0.0991;0.0414;0.1495;
599621469103157;0.0692;-0.0140;0.1517;
599621479208678;0.0831;-0.0182;0.1623;
599621489315084;0.0916;0.0126;0.1431;
599621499420605;0.0650;0.0393;0.1559;
599621509526178;0.0820;0.0073;0.1570;
599621519624668;0.0820;-0.0044;0.1634;
599621529730188;0.0863;0.0510;0.1517;
599621539835761;0.0682;0.0350;0.1431;
599621549946022;0.0618;-0.0225;0.1719;
599621560051543;0.0671;-0.0172;0.1751;
599621570157115;0.0543;0.0009;0.1581;
599621580268522;0.0703;0.0467;0.1165;
599621590374043;0.0703;0.0893;0.1027;
599621600479615;0.0724;0.0585;0.0899;
599621610575501;0.0501;-0.0587;0.0931;
599621620681074;-0.0064;-0.1301;0.0792;
599621630786647;0.0011;-0.0811;0.0877;
599621640902272;-0.0085;0.0222;0.0803;
599621651007845;0.0011;-0.0193;0.0941;
599621661113365;0.0149;-0.0854;0.1261;
599621671204563;-0.0149;-0.0704;0.1112;
599621681310136;-0.0298;-0.0885;0.0803;
599621691415657;-0.0160;-0.0459;0.0782;
599621701551126;0.0107;-0.0044;0.0526;
599621711656699;-0.0096;-0.0470;0.0217;
599621721762220;0.0138;0.0244;0.0494;
599621731839772;-0.0160;0.0904;0.0494;
599621741945345;-0.0138;0.0414;0.0270;
599621752050865;0.0128;0.0531;0.0622;
599621762184980;0.0096;0.0755;0.0686;
599621772290501;0.0213;0.0382;0.0590;
599621782396074;0.0064;0.0265;0.0356;
599621792478730;0.0053;0.0989;0.0632;
599621802584303;-0.0011;0.1149;0.0409;
599621812689824;-0.0160;0.0084;0.0270;
599621822797740;-0.0373;-0.0800;0.0068;
599621832903261;-0.0330;-0.0268;0.0164;
599621843008834;-0.0160;0.0105;0.0356;
599621853121751;-0.0181;-0.0119;0.0398;
599621863227324;-0.0277;-0.1088;0.0494;
599621873332845;-0.0085;-0.0917;0.0782;
599621883442063;-0.0405;-0.0342;0.0238;
599621893547636;-0.0075;0.0201;0.0526;
599621903653157;0.0021;0.0414;0.0334;
599621913753105;0.0107;0.0467;0.0292;
599621923858678;-0.0128;0.0574;0.0324;
599621933964199;0.0011;0.0574;0.0217;
599621944072688;0.0192;0.1117;0.0334;
599621954178261;0.0107;0.0446;0.0558;
599621964283782;-0.0213;0.0148;0.0760;
599621974394563;-0.0277;-0.0087;0.0707;
599621984500136;-0.0501;-0.1088;0.0728;
599621994605657;-0.0735;-0.2100;0.0750;
599622004706907;-0.0957;-0.1429;0.0356;
599622014812480;-0.0799;0.0350;-0.0049;
599622024918001;-0.0298;0.1032;0.0302;
599622035019772;-0.0298;-0.0449;0.0494;
599622045125345;-0.0479;-0.2132;0.0366;
599622055230865;-0.1000;-0.2419;0.0622;
599622065344980;-0.1181;0.0158;0.0334;
599622075450553;-0.0479;0.1831;0.0451;
599622085556074;-0.0479;0.0585;0.0377;
599622095655918;-0.0330;0.0137;0.0462;
599622105761490;-0.0756;0.2639;0.0611;
599622115867011;-0.1373;0.2033;0.0398;
599622125969251;-0.1937;-0.1929;0.0068;
599622136074824;-0.2044;-0.2856;0.0164;
599622146180345;-0.2619;-0.0161;-0.0134;
599622156297480;-0.2033;0.2927;-0.0081;
599622166403001;-0.1671;0.2033;0.0206;
599622176508574;-0.1554;-0.1802;0.0441;
599622186614407;-0.2332;-0.2696;-0.0284;
599622196719980;-0.1991;-0.0630;-0.0443;
599622206825501;-0.1895;0.0574;-0.0571;
599622216936855;-0.1138;0.0190;-0.0539;
599622227042428;-0.1469;-0.0161;-0.0507;
599622237147949;-0.1618;0.0126;-0.0912;
599622247245084;-0.1075;0.0904;-0.0891;
599622257350657;-0.1021;0.0382;-0.0827;
599622267456178;-0.1021;-0.1045;-0.0763;
599622277572897;-0.1341;-0.0715;-0.0774;
599622287678470;-0.1202;-0.0108;-0.0976;
599622297783990;-0.1032;0.0435;-0.0859;
599622307879563;-0.0746;0.0766;-0.0891;
599622317985188;-0.1011;0.0308;-0.1189;
599622328090761;-0.1117;0.0340;-0.1360;
599622338189876;-0.0968;0.0648;-0.1338;
599622348295449;-0.0511;0.0180;-0.1210;
599622358401074;-0.0160;0.0350;-0.1221;
599622368497168;0.0362;0.0968;-0.0838;
599622378602740;0.0628;0.0063;-0.0454;
599622388708365;0.0320;-0.0609;-0.0742;
599622398822272;0.0543;-0.0214;-0.0742;
599622408927897;0.0788;-0.0268;-0.0880;
599622419033470;0.1321;-0.0236;-0.0838;
599622429127272;0.1417;0.0063;-0.0518;
599622439232897;0.1257;-0.0129;-0.0209;
599622449338470;0.1481;0.0073;-0.0507;
599622459448313;0.2099;0.0254;0.0057;
599622469553886;0.2216;0.0137;0.0579;
599622479659511;0.1811;-0.0055;0.0654;
599622489828990;0.1363;0.0233;0.0537;
599622499934615;0.1033;0.0052;0.0505;
599622510040240;0.0778;-0.0172;0.0185;
599622520073782;0.0447;-0.0193;0.0462;
599622530179407;0.0352;-0.0150;0.0792;
599622540285032;0.0245;0.0329;0.0632;
599622550413730;0.0597;0.0222;0.0739;
599622560519303;0.0565;-0.0502;0.0909;
599622570624928;0.0298;-0.0683;0.1133;
599622580707063;-0.0213;-0.0832;0.0856;
599622590812636;-0.0245;-0.0321;0.0494;
599622600918261;0.0032;-0.0044;0.0505;
599622611040501;0.0149;-0.0055;0.0292;
599622621146074;0.0096;0.0308;0.0196;
599622631251699;0.0107;0.0020;0.0419;
599622641375813;-0.0075;-0.0811;0.0292;
599622651481386;-0.0170;-0.0651;0.0409;
599622661587011;-0.0096;-0.0182;0.0398;
599622671691959;0.0170;-0.0150;0.0483;
599622681797532;-0.0245;-0.0342;0.0196;
599622691903157;-0.0309;-0.0417;0.0217;
599622701979980;-0.0607;-0.0289;-0.0326;
599622712085605;-0.0437;0.0041;-0.0316;
599622722191178;-0.0511;-0.0214;-0.0113;
599622732314251;-0.0724;-0.0236;-0.0305;
599622742419824;-0.0533;-0.0044;-0.0348;
599622752525449;-0.0607;-0.0470;-0.0145;
599622762635709;-0.0628;-0.0928;-0.0134;
599622772741334;-0.1043;-0.0555;-0.0774;
599622782846907;-0.0724;0.0627;-0.0774;
599622792946074;-0.0383;0.0617;-0.0624;
599622803051647;-0.0288;-0.0033;-0.1168;
599622813157272;-0.0458;-0.0097;-0.1136;
599622823266022;-0.0352;0.0233;-0.1072;
599622833371647;-0.0181;0.0286;-0.0987;
599622843477220;0.0096;-0.0395;-0.0667;
599622853578313;-0.0096;-0.0065;-0.0571;
599622863683886;-0.0053;0.0425;-0.0774;
599622873789511;-0.0415;-0.0715;-0.0944;
599622883889980;-0.0117;-0.1205;-0.0976;
599622893995553;-0.0128;-0.0459;-0.1274;
599622904101178;0.0064;0.0233;-0.1210;
599622914210240;0.0192;0.0041;-0.1189;
599622924315813;0.0277;-0.0598;-0.1040;
599622934421438;0.0341;-0.0246;-0.1157;
599622944526230;0.0724;0.0340;-0.0806;
599622954631803;0.0756;-0.0353;-0.0624;
599622964737428;0.0458;-0.0417;-0.0944;
599622974843209;0.0490;-0.0012;-0.0752;
599622984948834;0.0447;-0.0758;-0.0742;
599622995054407;0.0415;-0.1269;-0.0816;
599623005163730;0.0266;-0.0960;-0.0593;
599623015269303;0.0266;-0.0417;-0.0656;
599623025374928;0.0863;0.1011;-0.0731;
599623035476282;0.1129;0.1138;-0.0465;
599623045581855;0.1150;0.0116;0.0036;
599623055687480;0.1033;0.1064;-0.0241;
599623065813938;0.0352;0.1586;-0.0422;
599623075919563;-0.0245;0.0489;-0.0646;
599623086025136;0.0107;-0.0012;-0.0529;
599623096121490;0.0224;-0.0257;-0.0156;
599623106227063;0.0533;-0.0246;0.0057;
599623116332688;0.0959;0.1288;-0.0369;
599623126434563;0.1438;0.1490;-0.0358;
599623136540136;0.0575;-0.0555;-0.0103;
599623146645761;0.0021;-0.0662;-0.0252;
599623156761074;-0.0085;0.0052;-0.0188;
599623166866699;0.0000;0.0169;-0.0230;
599623176972272;0.0362;0.0542;-0.0646;
599623187064772;0.0565;0.1533;-0.0539;
599623197170397;0.0639;0.2511;-0.0433;
599623207275970;0.0820;0.2458;-0.0539;
599623217389355;0.0639;-0.0395;-0.0316;
599623227494928;0.0660;-0.2750;-0.0081;
599623237600553;0.0607;-0.2068;-0.0433;
599623247696022;0.0490;-0.1173;-0.0656;
599623257801595;0.0298;-0.1194;-0.0688;
599623267907220;0.0479;-0.0885;-0.1008;
599623278030501;0.0415;-0.0790;-0.1115;
599623288136074;0.0735;-0.0470;-0.0965;
599623298241699;0.0820;-0.0726;-0.0901;
599623308338001;0.1055;-0.1077;-0.0869;
599623318443626;0.1204;-0.0736;-0.0518;
599623328549251;0.1214;-0.0108;-0.0869;
599623338648522;0.1342;0.0265;-0.1019;
599623348754147;0.1459;0.0297;-0.0603;
599623358859772;0.1449;0.0020;-0.0454;
599623368955813;0.1001;-0.0417;-0.0561;
599623379061438;0.0927;-0.0278;-0.0422;
599623389167063;0.0959;-0.0406;-0.0401;
599623399278209;0.1268;-0.0683;-0.0294;
599623409383834;0.1406;0.0382;-0.0039;
599623419489459;0.1108;0.0414;0.0036;
599623429590813;0.0639;-0.0427;-0.0134;
599623439696438;0.0330;-0.0736;0.0004;
599623449802063;0.0256;-0.0800;0.0153;
599623459932272;0.0490;-0.0587;-0.0049;
599623470037897;0.0873;-0.0087;0.0079;
599623480143522;0.0383;0.0031;-0.0007;
599623490216595;0.0724;-0.0012;0.0238;
599623500322168;0.0778;-0.0534;0.0696;
599623510427845;0.0703;-0.0971;0.0611;
599623520581022;0.0842;-0.0055;-0.0028;
599623530686647;0.0778;-0.0012;0.0483;
599623540792272;0.0309;-0.0843;0.0419;
599623550867793;0.0980;-0.0001;0.0505;
599623560973418;0.0607;0.0585;0.0558;
599623571079043;0.0533;0.0031;0.0398;
599623581169459;0.0543;-0.0033;0.0771;
599623591275084;0.0597;0.0201;0.1133;
599623601380709;0.0916;0.0222;0.1027;
599623611521803;0.0692;-0.0065;0.0899;
599623621627428;0.0362;-0.0172;0.0803;
599623631733053;0.0394;-0.0395;0.0601;
599623641834147;0.0000;-0.0502;0.0334;
599623651939772;0.0021;-0.1035;0.0419;
599623662045397;-0.0096;-0.0470;0.0441;
599623672154459;-0.0064;0.0840;0.0430;
599623682260084;-0.0330;0.0308;0.0632;
599623692365709;-0.0947;-0.0566;0.0632;
599623702451230;-0.0170;-0.0278;0.0100;
599623712556855;0.0426;0.1256;-0.0145;
599623722662480;-0.0085;0.1628;-0.0273;
599623732768105;-0.0543;-0.0438;-0.0550;
599623742873730;-0.0373;-0.1003;-0.0571;
599623752979355;0.0234;0.0489;-0.0443;
599623763086230;0.0181;0.0372;-0.0443;
599623773191855;0.0352;-0.1184;-0.0198;
599623783297480;0.0277;-0.0917;-0.0188;
599623793402480;0.0788;0.0403;-0.0550;
599623803508105;0.0927;0.0446;-0.0497;
599623813613730;0.0650;-0.0214;-0.0156;
599623823720605;0.0266;-0.0534;-0.0220;
599623833826230;0.0565;-0.0076;-0.0369;
599623843931855;0.1182;0.0787;-0.0443;
599623854039824;0.0991;0.0382;-0.0177;
599623864145449;0.0650;-0.0385;0.0142;
599623874251074;0.1076;0.0169;0.0622;
599623884365032;0.1353;0.0020;0.0686;
599623894470657;0.0991;-0.0747;0.0398;
599623904576282;0.1257;-0.0374;0.0664;
599623914666959;0.1374;-0.0012;0.0760;
599623924772584;0.1012;-0.0204;0.1133;
599623934878209;0.0533;-0.0001;0.1165;
599623944986230;0.0628;0.0798;0.1133;
599623955091855;0.0735;0.1043;0.1453;
599623965197480;0.0533;0.0169;0.1943;
599623975307584;0.0149;-0.0619;0.1804;
599623985413209;0.0213;0.0414;0.1165;
599623995518834;0.0447;0.0893;0.1431;
599624005626751;-0.0245;-0.0427;0.1442;
599624015732376;-0.0735;-0.0491;0.1122;
599624025838001;-0.0989;-0.0321;0.1080;
599624035935293;-0.1522;-0.0939;0.0888;
599624046040918;-0.1117;-0.1216;0.0739;
599624056146543;-0.0692;-0.0225;0.1048;
599624066253105;-0.0586;0.0126;0.0824;
599624076358730;0.0064;-0.0023;0.0366;
599624086464355;0.0011;0.0648;0.0174;
599624096576230;0.0043;0.0648;0.0206;
599624106681855;-0.0138;0.0233;0.0260;
599624116787480;-0.0107;-0.0012;0.0057;
599624126883990;0.0298;-0.0076;-0.0017;
599624136989615;0.0479;0.0862;0.0079;
599624147095240;0.0735;0.0574;0.0483;
599624157215813;0.0426;-0.0630;0.0963;
599624167321438;0.0447;-0.0513;0.0451;
599624177427063;0.1129;0.0361;-0.0081;
599624187525084;0.0948;-0.0119;0.0238;
599624197630709;0.0128;-0.1035;0.0430;
599624207736334;0.0426;-0.0513;0.0366;
599624217852897;0.0831;0.0446;0.0451;
599624227958522;0.0234;0.0254;0.0430;
599624238064147;0.0053;-0.0459;0.0728;
599624248160293;0.0330;-0.0055;0.1005;
599624258265918;0.0234;0.0531;0.1037;
599624268371543;-0.0128;0.0137;0.0622;
599624278461178;0.0117;0.0659;0.0728;
599624288566803;-0.0224;0.0968;0.0675;
599624298672428;-0.0330;0.0766;0.0622;
599624308799876;-0.0437;0.1000;0.0888;
599624318905553;-0.1394;0.0340;0.0803;
599624329011178;-0.1586;-0.0395;0.1091;
599624339104043;-0.1628;0.0137;0.1091;
599624349209720;-0.1149;0.0297;0.1165;
599624359315397;-0.1895;-0.0427;0.0611;
599624369450188;-0.2118;0.0180;0.0419;
599624379555865;-0.1820;0.0893;0.0132;
599624389661490;-0.2161;-0.0502;-0.0188;
599624399770293;-0.2832;-0.1077;-0.0326;
599624409875918;-0.2726;-0.0001;-0.0529;
599624419981595;-0.2023;0.0521;-0.0603;
599624430063105;-0.1447;0.0510;-0.0699;
599624440168782;-0.1096;0.0265;-0.0518;
599624450274459;-0.1213;0.0308;-0.0997;
599624460394824;-0.0925;0.0925;-0.1434;
599624470500501;-0.0756;0.0862;-0.1455;
599624480606178;-0.0895;0.0041;-0.1754;
599624490695188;-0.1053;-0.0385;-0.1901;
599624500800865;-0.0671;0.0169;-0.1933;
599624510906543;-0.0458;-0.0140;-0.1764;
599624520997845;0.0011;-0.1003;-0.1477;
599624531103470;0.0650;-0.1099;-0.1317;
599624541209147;0.1619;-0.0108;-0.1274;
599624551314824;0.2152;0.0467;-0.1509;
599624561433105;0.2876;0.0073;-0.1136;
599624571538782;0.3643;0.0489;-0.0923;
599624581644459;0.3600;0.0723;-0.0720;
599624591766230;0.2908;-0.0161;-0.0209;
599624601871907;0.2354;-0.0545;0.0334;
599624611977532;0.1779;0.0009;0.0526;
599624622069668;0.1481;0.0563;0.0814;
599624632175345;0.1811;0.0180;0.1378;
599624642281022;0.1182;-0.0779;0.1399;
599624652390813;0.0618;-0.0758;0.1325;
599624662496490;0.0405;0.0308;0.1112;
599624672602115;0.0597;0.0606;0.1069;
599624682703001;0.0266;-0.0417;0.1325;
599624692808678;0.0117;0.0425;0.1378;
599624702914303;0.0032;0.1703;0.1634;
599624713015501;-0.0170;0.0446;0.1730;
599624723121178;0.0107;-0.0864;0.1612;
599624733226803;-0.0703;-0.0353;0.1549;
599624743330918;-0.1618;0.0457;0.1154;
599624753436595;-0.1405;0.0435;0.1346;
599624763542220;-0.1021;-0.0332;0.0899;
599624773659251;-0.0714;-0.0715;0.0654;
599624783764928;-0.0884;-0.0459;0.0494;
599624793870553;-0.0831;-0.0726;0.0686;
599624803981438;-0.0724;-0.1226;0.0771;
599624814087115;-0.0607;-0.0268;0.0771;
599624824192740;-0.0213;0.0073;0.0750;
599624834286803;-0.0160;-0.0268;0.0217;
599624844392480;-0.0298;0.0574;0.0057;
599624854498105;-0.0032;0.1149;0.0206;
599624864611438;0.0213;0.0702;-0.0060;
599624874717115;0.0149;0.0297;0.0174;
599624884822793;-0.0437;0.0648;0.0025;
599624894922063;-0.0298;0.1277;-0.0028;
599624905027740;0.0107;0.1128;0.0451;
599624915133365;0.0149;0.0457;0.0696;
599624925231022;-0.0330;0.0233;0.0473;
599624935336699;-0.0671;0.0212;0.0409;
599624945442324;-0.1149;-0.0747;0.0356;
599624955548730;-0.1138;-0.0981;-0.0124;
599624965654407;-0.0947;-0.0364;-0.0273;
599624975760032;-0.0373;-0.0779;-0.0305;
599624985869043;-0.0607;-0.0854;0.0057;
599624995974720;-0.0415;-0.1429;0.0281;
599625006080345;-0.0490;-0.1865;0.0441;
599625016194668;-0.0373;-0.1109;0.0217;
599625026300345;-0.0586;0.0212;-0.0103;
599625036405970;-0.0138;0.1149;-0.0156;
599625046503313;0.0213;0.1575;-0.0262;
599625056608990;-0.0043;0.1043;-0.0337;
599625066714615;-0.0501;-0.0481;-0.0401;
599625076819355;-0.0905;-0.0747;-0.0390;
599625086925032;-0.0586;-0.0353;-0.0177;
599625097030709;-0.0160;-0.1024;0.0111;
599625107138834;-0.0096;-0.1067;0.0313;
599625117244511;-0.0320;-0.0885;-0.0103;
599625127350136;-0.0075;-0.0449;0.0100;
599625137461230;0.0107;0.0126;-0.0262;
599625147566907;0.0969;0.0446;-0.0454;
599625157672532;0.0288;-0.0182;-0.0379;
599625167772168;0.0320;0.0627;-0.0571;
599625177877845;0.0522;0.1522;-0.0284;
599625187983470;0.0192;0.0435;0.0111;
599625198089407;0.0128;-0.0374;0.0111;
599625208195084;-0.0043;-0.0001;-0.0273;
599625218300709;0.0032;0.0915;-0.0230;
599625228407897;0.0352;0.0840;-0.0326;
599625238513574;0.0266;-0.0236;-0.0454;
599625248619199;-0.0075;-0.0023;-0.0411;
599625258728313;0.0309;0.0798;-0.0081;
599625268833990;0.0650;0.1288;-0.0273;
599625278939615;0.0309;-0.0779;0.0111;
599625289040605;-0.0096;-0.2089;0.0377;
599625299146282;-0.0714;-0.0981;0.0079;
599625309251959;0.0543;0.0744;-0.0177;
599625319349095;0.0703;0.1170;-0.0124;
599625329454615;0.0170;-0.0417;-0.0379;
599625339560136;-0.0117;-0.0726;-0.0497;
599625349660188;-0.0075;-0.0150;-0.0156;
599625359765709;-0.0192;-0.0758;0.0004;
599625369871230;-0.0107;-0.0747;0.0324;
599625379991647;-0.0288;-0.0875;0.0451;
599625390097168;-0.0245;-0.0832;0.0473;
599625400202688;0.0266;0.0435;0.0196;
599625410298365;-0.0053;0.0403;0.0238;
599625420403886;-0.0405;-0.0896;-0.0134;
599625430509407;-0.0149;-0.0214;-0.0316;
599625440614043;0.0000;0.0798;-0.0007;
599625450719563;-0.0075;0.0063;0.0228;
599625460825084;-0.0330;-0.0491;0.0654;
599625470946386;-0.0394;-0.0459;0.0963;
599625481051907;-0.0341;0.0063;0.0632;
599625491157428;-0.0831;0.0808;0.0228;
599625501271959;-0.0437;0.0734;0.0302;
599625511377480;-0.0671;-0.0513;0.0121;
599625521483001;-0.1277;-0.0726;0.0089;
599625531576647;-0.1256;-0.0395;0.0079;
599625541682168;-0.0852;-0.0161;0.0238;
599625551787688;-0.0925;0.0350;0.0558;
599625561917688;-0.0756;0.0340;0.0611;
599625572023209;-0.1053;-0.0097;0.0750;
599625582128730;-0.1117;0.0340;0.0366;
599625592206647;-0.0957;0.0670;0.0025;
599625602312168;-0.0852;0.0244;-0.0156;
599625612417688;-0.1170;-0.0129;0.0068;
599625622533001;-0.0979;0.0201;-0.0060;
599625632638522;-0.0490;0.0467;-0.0284;
599625642744043;-0.0330;-0.0161;-0.0337;
599625652845084;-0.0671;-0.1109;0.0238;
599625662950605;-0.0884;-0.0332;0.0345;
599625673056126;-0.0202;0.1543;0.0153;
599625683168626;0.0000;0.1362;-0.0156;
599625693274147;-0.0128;0.0116;-0.0241;
599625703379668;-0.0373;-0.0065;-0.0379;
599625713476438;-0.0256;-0.0310;-0.0390;
599625723581959;-0.0320;-0.0992;-0.0188;
599625733687480;-0.0437;-0.1716;-0.0007;
599625743791907;-0.0234;-0.1130;0.0164;
599625753897428;0.0181;-0.0182;-0.0177;
599625764002949;0.0437;-0.0609;-0.0529;
599625774129251;0.0000;-0.1493;-0.0433;
599625784234772;-0.0618;-0.0598;-0.0209;
599625794340293;-0.0362;0.0883;-0.0220;
599625804425293;0.0128;0.1458;-0.0337;
599625814530813;0.0075;0.1884;-0.0230;
599625824636334;-0.0245;0.1788;-0.0049;
599625834769668;-0.0352;0.0872;0.0036;
599625844875188;-0.0607;-0.0790;-0.0113;
599625854980709;-0.0660;-0.1237;-0.0220;
599625865071230;-0.0724;-0.0811;-0.0411;
599625875176751;-0.0426;-0.0481;-0.0507;
599625885282272;-0.0490;-0.0523;-0.0316;
599625895384147;-0.0383;-0.0172;-0.0134;
599625905489668;-0.0043;0.0680;-0.0294;
599625915595188;0.0213;0.0553;-0.0177;
599625925696438;-0.0117;0.0148;-0.0017;
599625935801959;-0.0447;0.0137;-0.0241;
599625945907480;-0.0192;0.0563;-0.0411;
599625956024980;-0.0224;0.0457;-0.0518;
599625966130501;-0.0373;-0.0076;-0.0731;
599625976236022;-0.0330;-0.0119;-0.0593;
599625986331230;-0.0192;-0.0342;-0.0401;
599625996436751;0.0011;-0.0364;-0.0497;
599626006542272;-0.0053;-0.0779;-0.0252;
599626016657324;-0.0053;-0.0598;-0.0337;
599626026762845;-0.0075;0.0137;-0.0720;
599626036868365;0.0213;-0.0289;-0.0731;
599626046973209;0.0085;-0.0097;-0.0710;
599626057078730;0.0096;0.0286;-0.1040;
599626067184251;0.0149;0.0052;-0.1200;
599626077298730;0.0320;-0.0161;-0.0933;
599626087404251;0.0352;0.0063;-0.0784;
599626097509772;0.0682;0.0148;-0.0507;
599626107600657;0.1012;0.0190;-0.0401;
599626117706178;0.0778;-0.0364;-0.0678;
599626127811699;0.0618;-0.0854;-0.0710;
599626137927272;0.0682;-0.0161;-0.0678;
599626148032793;0.1278;0.0222;-0.0784;
599626158138313;0.1545;0.0180;-0.0593;
599626168249043;0.1321;0.0478;-0.0614;
599626178354563;0.1619;0.1011;-0.0561;
599626188460084;0.1992;0.1256;-0.0230;
599626198557480;0.1854;0.0595;0.0356;
599626208663001;0.1012;-0.0289;0.0228;
599626218768522;0.0618;0.0254;0.0249;
599626228866438;0.0905;0.1032;0.0174;
599626238971959;0.0852;0.0169;0.0004;
599626249077480;0.0586;-0.0300;0.0121;
599626259178626;0.0671;0.0137;0.0409;
599626269284147;0.1087;0.0414;0.0345;
599626279389668;0.1150;0.0063;0.0739;
599626289556438;0.1033;-0.0854;0.1112;
599626299661959;0.0479;-0.0864;0.0909;
599626309767480;0.0383;-0.0513;0.0771;
599626319811230;0.0362;-0.1013;0.0739;
599626329916855;0.0245;-0.0832;0.0441;
599626340022532;0.0597;0.0361;0.0494;
599626350117168;0.0916;0.1107;0.0664;
599626360222793;0.0756;-0.0449;0.1091;
599626370328418;0.0085;-0.1631;0.1687;
599626380476855;-0.0224;0.0126;0.1453;
599626390582480;0.0330;0.1149;0.1048;
599626400688157;0.0298;-0.0289;0.1154;
599626410778313;-0.0565;-0.0949;0.0984;
599626420883938;-0.0586;0.0499;0.0941;
599626430989615;-0.0458;0.0457;0.0984;
599626441105397;-0.0085;-0.1194;0.0909;
599626451211022;-0.0703;-0.1780;0.1091;
599626461316699;-0.1181;-0.0438;0.1644;
599626471414824;-0.0277;0.0553;0.1762;
599626481520449;0.0011;-0.0758;0.1154;
599626491626126;-0.0415;-0.0395;0.1037;
599626501775813;-0.0469;0.1011;0.1069;
599626511881438;-0.0309;0.0531;0.0888;
599626521987063;-0.0671;-0.0534;0.0995;
599626532034043;-0.1437;0.0126;0.1250;
599626542139668;-0.0735;0.1692;0.1218;
599626552245345;0.0043;0.1852;0.1165;
599626562346334;-0.0213;0.0808;0.1208;
599626572451959;-0.0863;0.0830;0.1101;
599626582557636;-0.1224;0.1277;0.1176;
599626592667584;-0.1330;-0.0481;0.0963;
599626602773209;-0.1511;-0.1706;0.0803;
599626612878886;-0.2182;0.0585;0.0760;
599626622984407;-0.2385;0.1224;0.0888;
599626633090032;-0.0947;-0.0246;0.0632;
599626643195709;-0.1053;-0.0917;0.0782;
599626653303834;-0.1735;-0.0694;0.0430;
599626663409459;-0.0957;0.0084;0.0260;
599626673515136;-0.0735;0.1011;0.0334;
599626683622376;-0.1053;0.0063;0.0079;
599626693728001;-0.1373;-0.0449;0.0025;
599626703833678;-0.1192;0.0116;-0.0007;
599626713939563;-0.0947;0.0372;-0.0230;
599626724045188;-0.0618;0.0126;-0.0017;
599626734150865;-0.0554;-0.1099;0.0366;
599626744253730;-0.0437;-0.0896;0.0196;
599626754359355;0.0053;0.0553;-0.0422;
599626764465032;0.0746;-0.0257;-0.0177;
599626774596647;0.0298;-0.1908;-0.0049;
599626784702272;0.0192;-0.0204;0.0100;
599626794807949;0.0735;0.2118;0.0313;
599626804891022;0.1118;0.1149;0.0398;
599626814996647;0.0842;-0.0300;0.0814;
599626825102324;-0.0160;0.0531;0.1431;
599626835208209;0.0405;0.2204;0.0814;
599626845313834;0.0533;0.0872;0.0643;
599626855419511;-0.0138;-0.1130;0.1037;
599626865535605;-0.1320;-0.0609;0.1112;
599626875641230;-0.1511;0.0329;0.1250;
599626885746907;-0.0692;-0.0161;0.1069;
599626895845918;-0.0607;-0.1035;0.0931;
599626905951543;-0.1266;-0.0555;0.1208;
599626916057220;-0.1639;0.0137;0.1549;
599626926161334;-0.1096;-0.0097;0.1186;
599626936266959;-0.1170;-0.1269;0.0984;
599626946372636;-0.1501;-0.1035;0.0739;
599626956477480;-0.1511;0.0372;0.0345;
599626966583105;-0.1383;-0.0481;0.0377;
599626976688782;-0.1724;-0.1514;0.0590;
599626986791438;-0.2672;-0.1088;0.0526;
599626996897063;-0.2033;0.0116;0.0398;
599627007002740;-0.0682;0.0499;0.0270;
599627017111647;-0.0820;0.0361;0.0111;
599627027217272;-0.1138;0.0489;0.0068;
599627037322949;-0.1277;0.0382;0.0228;
599627047428730;-0.1320;-0.0023;-0.0060;
599627057534355;-0.1277;-0.0459;-0.0443;
599627067640032;-0.1224;0.0531;-0.0518;
599627077743001;-0.0767;0.1064;-0.0156;
599627087848626;-0.0682;0.0222;0.0398;
599627097954303;-0.0575;-0.0097;0.0313;
599627108069043;-0.0288;0.0808;-0.0316;
599627118174668;0.0554;0.1991;-0.0390;
599627128280345;0.0149;0.1554;-0.0060;
599627138386438;-0.0842;0.0254;0.0281;
599627148492063;-0.1554;-0.0768;0.0185;
599627158597740;-0.1277;-0.1482;0.0132;
599627168693938;-0.0905;-0.1045;-0.0209;
599627178799563;-0.0490;0.0009;0.0047;
599627188905240;-0.0256;-0.0609;0.0590;
599627199007688;-0.0554;-0.2324;0.0324;
599627209113313;-0.0979;-0.1780;-0.0124;
599627219218864;-0.0895;-0.0097;-0.0230;
599627229320271;-0.0884;0.0627;-0.0262;
599627239425896;-0.1362;0.0435;0.0185;
599627249531573;-0.0915;0.1469;0.0196;
599627259637458;-0.0767;0.2501;-0.0092;
599627269743083;-0.0628;0.2065;0.0121;
599627279848708;-0.0415;0.2565;0.0036;
599627289965792;-0.0245;0.4067;-0.0582;
599627300071417;-0.0714;0.3214;-0.0081;
599627310177094;-0.1458;-0.0332;0.0206;
599627320274385;-0.1383;-0.2867;0.0334;
599627330380062;-0.2449;-0.3463;0.0260;
599627340485792;-0.3162;-0.2696;-0.0134;
599627350586208;-0.2726;-0.1642;-0.0284;
599627360691885;-0.1543;-0.1375;-0.0529;
599627370797510;-0.0947;-0.1397;-0.0933;
599627380928396;-0.1447;-0.1876;-0.1232;
599627391034073;-0.1224;-0.1865;-0.1210;
599627401139698;-0.0925;-0.0640;-0.1040;
599627411250479;-0.0330;0.1671;-0.1168;
599627421356156;0.0107;0.3246;-0.1072;
599627431461833;-0.0234;0.3971;-0.1083;
599627441546521;-0.0458;0.3917;-0.0901;
599627451652198;-0.0639;0.2246;-0.0507;
599627461757875;-0.1053;-0.0577;-0.0465;
599627471881312;-0.0362;-0.2079;-0.0678;
599627481986989;0.1065;-0.0811;-0.0635;
599627492092667;0.2322;0.0169;-0.0848;
599627502177198;0.0756;-0.0715;-0.0348;
599627512282875;-0.1501;-0.1429;0.0377;
599627522388500;-0.0863;-0.1109;0.0217;
599627532497458;-0.0831;-0.0971;0.0004;
599627542603135;-0.0810;-0.0513;-0.0284;
599627552708812;-0.1298;0.0350;-0.0529;
599627562820792;-0.2161;0.0957;-0.0816;
599627572926469;-0.2811;0.0744;-0.0678;
599627583032146;-0.2949;0.0201;-0.0965;
599627593131781;-0.2630;0.0361;-0.1487;
599627603237458;-0.2768;0.0105;-0.1381;
599627613343135;-0.3152;-0.0278;-0.1349;
599627623447667;-0.2875;0.0286;-0.1423;
599627633553292;-0.2161;0.0627;-0.1754;
599627643659021;-0.2001;0.0126;-0.2391;
599627653764646;-0.1607;-0.0513;-0.2445;
599627663870323;-0.1298;-0.0321;-0.2562;
599627673976000;-0.0989;0.0350;-0.2977;
599627684088396;-0.1138;-0.0065;-0.3020;
599627694194073;-0.1192;-0.0640;-0.3041;
599627704299750;-0.0085;0.0744;-0.2956;
599627714400687;0.0053;0.1426;-0.2636;
599627724506364;-0.0383;0.0265;-0.2519;
599627734612042;-0.0447;-0.0651;-0.2871;
599627744715896;0.0522;-0.0236;-0.2956;
599627754821573;0.1630;0.0382;-0.3126;
599627764927250;0.1736;0.0233;-0.3116;
599627775041104;0.1619;0.0052;-0.2604;
599627785146781;0.1342;-0.0214;-0.2168;
599627795252458;0.0842;-0.1099;-0.1933;
599627805357771;0.1438;-0.0885;-0.1636;
599627815463448;0.2802;-0.0065;-0.1434;
599627825569125;0.3025;0.0201;-0.1573;
599627835667198;0.2940;0.0372;-0.1306;
599627845772875;0.1875;0.0095;-0.0965;
599627855878552;0.1513;-0.0193;-0.0667;
599627865989333;0.1960;0.0137;-0.0486;
599627876095010;0.1832;0.0105;-0.0177;
599627886200687;0.1459;-0.0193;0.0324;
599627896305687;0.1161;-0.0278;0.0846;
599627906411364;0.2152;-0.0278;0.0909;
599627916517042;0.2823;0.0808;0.0686;
599627926616937;0.1694;0.1224;0.0899;
599627936722614;0.0437;-0.0246;0.1133;
599627946828292;0.0767;-0.0662;0.1357;
599627956944698;0.0873;0.0212;0.1559;
599627967050323;0.0660;0.0137;0.1495;
599627977156052;0.0352;-0.0459;0.1538;
599627987252042;0.0043;-0.0502;0.1932;
599627997357719;0.0043;-0.0140;0.2081;
599628007463396;-0.0288;0.0233;0.1623;
599628017572562;-0.0490;-0.0587;0.1495;
599628027678239;-0.0639;-0.1056;0.1421;
599628037783917;-0.0170;0.0393;0.1154;
599628047896208;-0.0021;0.0968;0.1080;
599628058001885;-0.0957;0.0265;0.1197;
599628068107562;-0.1330;-0.0076;0.1431;
599628078206625;-0.1277;-0.0289;0.1485;
599628088312302;-0.0947;-0.0278;0.1069;
599628098417979;-0.0628;0.0808;0.0611;
599628108521104;-0.1224;0.0893;0.0409;
599628118626781;-0.2001;-0.0406;0.0345;
599628128732458;-0.1245;-0.0374;0.0302;
599628138840479;-0.0447;0.0308;0.0217;
599628148946156;-0.0863;0.0350;0.0164;
599628159051833;-0.1000;-0.0225;0.0228;
599628169153187;-0.0565;-0.0662;0.0899;
599628179258864;-0.0107;0.0041;0.0963;
599628189364542;-0.0298;0.0553;0.0398;
599628199476729;-0.0799;-0.0587;0.0281;
599628209582406;-0.1138;-0.1887;0.0345;
599628219688083;-0.0437;-0.0960;0.0366;
599628229799437;-0.0320;-0.0044;0.0473;
599628239905114;-0.0873;-0.0907;0.0419;
599628250010792;-0.1064;-0.1546;0.0664;
599628260092250;-0.0597;-0.0438;0.1027;
599628270197927;-0.0362;0.1362;0.0973;
599628280303552;-0.0554;0.1597;0.0728;
599628290441469;-0.1394;0.1916;0.0899;
599628300547146;-0.1863;0.2214;0.0792;
599628310652875;-0.1969;0.2129;0.0707;
599628320747198;-0.2374;0.1756;0.0952;
599628330852927;-0.2800;0.0798;0.0984;
599628340958656;-0.2577;0.0489;0.0792;
599628351082927;-0.2917;-0.0566;0.0782;
599628361188604;-0.3439;-0.2185;0.0483;
599628371294333;-0.2939;-0.2153;0.0015;
599628381383396;-0.1501;-0.1525;0.0025;
599628391489073;-0.1469;-0.1067;-0.0166;
599628401594802;-0.2033;-0.0193;-0.0848;
599628411714437;-0.2481;0.0425;-0.0933;
599628421820114;-0.2683;0.0979;-0.0582;
599628431925844;-0.2321;0.2140;-0.0337;
599628442021000;-0.1969;0.1788;-0.0582;
599628452126677;-0.1895;0.0233;-0.0646;
599628462232406;-0.0968;0.0734;-0.0955;
599628472310948;0.0256;0.1692;-0.1189;
599628482416625;0.0671;0.1085;-0.1370;
599628492522354;-0.1202;-0.0949;-0.1210;
599628502657250;-0.1352;-0.1961;-0.0997;
599628512762927;0.0011;-0.0864;-0.0784;
599628522868656;0.0788;0.0286;-0.0827;
599628532963812;0.0905;-0.0332;-0.0486;
599628543069489;-0.0352;-0.0843;-0.0188;
599628553175219;-0.0586;0.0670;-0.0571;
599628563277354;-0.0011;0.1746;-0.0933;
599628573383031;-0.0735;0.0862;-0.1296;
599628583488760;-0.1245;0.0148;-0.1317;
599628593600271;-0.0735;0.0734;-0.1391;
599628603705948;-0.0426;0.1341;-0.1338;
599628613811677;-0.0554;0.0798;-0.0763;
599628623916937;-0.0778;-0.0470;-0.0561;
599628634022614;-0.0628;-0.0598;-0.0933;
599628644128344;-0.0394;0.0830;-0.1306;
599628654237146;-0.0415;0.0531;-0.1530;
599628664342823;-0.0469;-0.0427;-0.1423;
599628674448552;-0.0479;-0.0481;-0.1562;
599628684547979;-0.0149;0.0041;-0.1636;
599628694653656;0.0352;0.0510;-0.1445;
599628704759385;0.0959;0.0680;-0.1200;
599628714865687;0.1172;0.0915;-0.0848;
599628724971364;0.1470;0.1181;-0.0816;
599628735077094;0.1204;0.0478;-0.0774;
599628745180792;0.0905;-0.0300;-0.0944;
599628755286469;0.1342;-0.0268;-0.0955;
599628765392198;0.1438;-0.0023;-0.0752;
599628775488552;0.1225;-0.0076;-0.0475;
599628785594229;0.1023;0.0158;-0.0454;
599628795699958;0.0554;-0.0364;-0.0049;
599628805829281;0.0405;-0.0939;0.0526;
599628815934958;0.0511;-0.0395;0.0526;
599628826040687;0.0309;0.0233;-0.0134;
599628836130271;0.0053;0.0020;-0.0113;
599628846235948;0.0000;-0.0822;-0.0092;
599628856341677;-0.0330;-0.1130;-0.0230;
599628866448187;-0.0266;-0.0278;-0.0081;
599628876553864;-0.0373;-0.0023;-0.0081;
599628886659594;-0.0362;-0.0513;0.0015;
599628896779906;-0.0138;-0.0992;0.0324;
599628906885583;-0.0437;-0.0747;0.0313;
599628916991312;-0.1245;-0.0609;0.0047;
599628927086208;-0.1362;-0.0097;-0.0188;
599628937191885;-0.0692;0.0563;-0.0656;
599628947297614;-0.0597;0.0947;-0.0795;
599628957399854;-0.1810;0.0041;-0.0656;
599628967505531;-0.2108;0.0222;-0.0678;
599628977611260;-0.1927;0.0606;-0.1051;
599628987718812;-0.1831;-0.1067;-0.1040;
599628997824489;-0.1735;-0.1929;-0.0923;
599629007930219;-0.1383;-0.0129;-0.1509;
599629018036833;-0.1362;0.0606;-0.1700;
599629028142510;-0.1373;-0.1407;-0.1807;
599629038248239;-0.1149;-0.2185;-0.2125;
599629048345479;-0.0330;-0.0481;-0.2114;
599629058451156;-0.0383;0.0414;-0.1987;
599629068556885;-0.0128;0.0063;-0.1827;
599629078668812;-0.0149;-0.0577;-0.1551;
599629088774489;0.0714;0.0254;-0.1477;
599629098880219;0.2088;0.1863;-0.1679;
599629108984646;0.1587;0.0936;-0.1157;
599629119090323;0.0394;-0.0811;-0.1125;
599629129196052;0.1363;-0.0449;-0.1104;
599629139323708;0.2418;0.0222;-0.1093;
599629149429385;0.2354;-0.0321;-0.0720;
599629159535114;0.1704;-0.0438;-0.0220;
599629169618500;0.1598;0.0180;0.0334;
599629179724177;0.1491;0.0041;0.0622;
599629189829906;0.0458;-0.0502;0.0366;
599629199941417;0.0170;0.0169;0.0132;
599629210047094;0.0245;0.0638;0.0121;
599629220152823;0.0330;0.0393;-0.0156;
599629230250427;0.0000;-0.0033;0.0174;
599629240356104;-0.0522;-0.0087;0.0324;
599629250461833;-0.0138;0.0350;-0.0028;
599629260562458;0.0479;0.0190;0.0164;
599629270668135;-0.0234;-0.0779;0.0441;
599629280773864;-0.0288;-0.0768;0.0228;
599629290889021;-0.0117;0.0595;0.0057;
599629300994698;-0.0128;-0.0087;0.0515;
599629311100427;-0.0788;-0.1727;0.0260;
599629321194958;-0.0383;0.0020;-0.0539;
599629331300635;-0.0245;0.1735;-0.0646;
599629341406312;-0.0277;0.0627;-0.0390;
599629351532250;0.0181;-0.0193;-0.0049;
599629361637927;0.0128;0.0340;-0.0113;
599629371743604;-0.0298;-0.0097;-0.0614;
599629381834542;-0.0352;-0.1173;-0.0305;
599629391940219;-0.0490;-0.1035;-0.0284;
599629402045896;-0.0128;0.0531;-0.0742;
599629412176833;0.0128;0.1895;-0.1242;
599629422282510;0.0075;0.1245;-0.0848;
599629432388187;-0.0021;-0.0300;-0.0433;
599629442457614;0.0565;0.0372;-0.0337;
599629452563292;0.0437;0.0148;-0.0113;
599629462668969;-0.0053;-0.0545;-0.0241;
599629472787042;-0.0107;-0.0161;-0.0273;
599629482892719;0.0032;0.0499;-0.0433;
599629492998396;0.0000;-0.0097;-0.0539;
599629503111625;-0.0618;-0.2760;-0.0656;
599629513217302;-0.0522;-0.3506;-0.1083;
599629523322979;0.0543;-0.1035;-0.0838;
599629533423292;0.1108;0.2065;-0.0369;
599629543528969;0.1204;0.3108;-0.0358;
599629553634646;0.0181;0.2607;-0.0624;
599629563747354;-0.0373;0.2458;-0.0198;
599629573853031;-0.0202;0.1767;0.0015;
599629583958708;-0.0245;0.1479;-0.0401;
599629594064958;-0.0170;0.0734;-0.0550;
599629604170635;0.0053;-0.0417;-0.0614;
599629614276312;0.0597;0.0808;-0.0593;
599629624377042;0.0628;0.0222;-0.0443;
599629634482667;0.0405;-0.3973;0.0004;
599629644588396;0.0043;-0.5880;-0.0358;
599629654699750;0.0969;-0.2142;-0.0752;
599629664805427;0.1097;0.0595;-0.0603;
599629674911104;-0.0565;-0.0321;-0.0667;
599629685016937;-0.0714;-0.0545;-0.0539;
599629695122614;-0.1043;0.0190;-0.1019;
599629705228292;0.0277;0.2300;-0.1360;
599629715335583;0.0213;0.2087;-0.1146;
599629725441260;0.0639;0.0233;-0.0944;
599629735546937;0.0650;0.0105;-0.1008;
599629745643187;0.0788;0.0776;-0.0891;
599629755748864;0.0458;-0.0257;-0.0806;
599629765854542;0.0277;-0.1674;-0.0912;
599629775975271;0.0415;-0.0640;-0.0987;
599629786080948;0.0138;0.0393;-0.1221;
599629796186625;0.0522;0.0446;-0.1285;
599629806286625;0.0660;-0.0257;-0.0987;
599629816392302;0.0597;-0.2047;-0.0678;
599629826497979;0.0618;-0.1503;-0.1285;
599629836596208;0.0788;0.0276;-0.1455;
599629846701885;0.0213;-0.0225;-0.1200;
599629856807562;0.0245;-0.0811;-0.1274;
599629866921000;0.0320;0.0148;-0.1242;
599629877026677;0.0714;0.0414;-0.1242;
599629887132354;0.0863;0.0595;-0.1146;
599629897222979;0.0927;0.0233;-0.0901;
599629907328656;0.1246;-0.0342;-0.0731;
599629917434333;0.1928;0.0744;-0.1008;
599629927554750;0.2194;0.1256;-0.1200;
599629937660427;0.2120;0.0095;-0.0859;
599629947766104;0.1811;-0.0385;-0.0752;
599629957856312;0.2056;-0.0395;-0.0539;
599629967961989;0.2280;0.0095;-0.0433;
599629978067667;0.1917;0.0052;-0.0305;
599629988179958;0.1491;-0.1834;0.0164;
599629998285635;0.1704;-0.2249;0.0387;
599630008391312;0.2194;0.0041;-0.0124;
599630018494750;0.1790;-0.0023;-0.0209;
599630028600427;0.1491;-0.1301;0.0025;
599630038706104;0.2003;0.0329;-0.0028;
599630048811833;0.1470;0.1043;0.0132;
599630058917510;0.1204;-0.0140;0.0398;
599630069023187;0.1321;-0.0406;0.0324;
599630079129021;0.1374;-0.0587;0.0590;
599630089234698;0.1736;0.0414;0.0835;
599630099340323;0.1939;0.1682;0.0622;
599630109437458;0.1704;0.1213;0.0249;
599630119543135;0.1417;0.0372;0.0515;
599630129648760;0.1268;0.0510;0.0398;
599630139773031;0.1097;-0.0023;0.0387;
599630149878708;0.0799;-0.0981;0.0526;
599630159984333;0.0895;-0.0395;0.0537;
599630170091469;0.0692;0.0318;0.0601;
599630180197198;0.0810;0.0510;0.0952;
599630190302823;0.0682;0.0148;0.0654;
599630200410896;0.1012;0.0105;0.0047;
599630210516521;0.1108;0.0276;-0.0007;
599630220622198;0.0810;-0.0204;0.0025;
599630230707250;0.0778;-0.0502;-0.0039;
599630240812927;0.0714;-0.0268;0.0004;
599630250918552;0.0842;-0.0055;0.0100;
599630261064750;0.0991;-0.0044;0.0270;
599630271170375;0.1193;0.0574;0.0558;
599630281276052;0.1172;0.0883;0.0569;
599630291334437;0.1172;0.0372;0.0025;
599630301440114;0.1481;0.0872;0.0089;
599630311545792;0.1129;0.0787;0.0142;
599630321691677;0.0937;-0.0023;0.0068;
599630331797458;0.0820;-0.0342;0.0302;
599630341903135;0.0842;-0.0236;0.0441;
599630352014698;0.1161;0.0063;0.0537;
599630362120427;0.1023;0.0190;0.0941;
599630372226208;0.1012;0.0009;0.1122;
599630382303292;0.0948;0.0105;0.0846;
599630392408969;0.1161;0.0787;0.0601;
599630402514750;0.0831;0.0585;0.0686;
599630412624646;0.0501;0.0084;0.0750;
599630422730375;0.0533;0.0563;0.0888;
599630432836104;0.0202;0.0063;0.1005;
599630442931677;0.0021;-0.0555;0.1208;
599630453037458;0.0213;-0.0278;0.1208;
599630463143187;0.0245;-0.0459;0.1346;
599630473246573;-0.0053;-0.0758;0.1208;
599630483352354;0.0320;0.0073;0.1122;
599630493458083;0.0501;0.0744;0.0984;
599630503576312;0.0192;0.0947;0.0888;
599630513682042;-0.0149;0.0776;0.0941;
599630523787771;-0.0128;0.0052;0.1186;
599630533894229;-0.0320;-0.0012;0.1410;
599630543999958;-0.0565;0.0297;0.1367;
599630554105687;-0.0330;-0.0001;0.1357;
599630564208187;-0.0128;-0.0055;0.0739;
599630574313917;-0.0011;0.0201;0.0824;
599630584419646;-0.0064;-0.0012;0.0846;
599630594528708;-0.0107;-0.0438;0.0505;
599630604634437;-0.0373;-0.1216;0.0611;
599630614740167;-0.0405;-0.1024;0.0877;
599630624843083;-0.0128;0.0031;0.0803;
599630634948812;0.0032;0.0158;0.1048;
599630645054542;-0.0064;-0.0001;0.1144;
599630655164854;0.0170;0.0734;0.0728;
599630665270583;0.0266;0.1213;0.0537;
599630675376312;0.0149;0.0542;0.0334;
599630685479542;0.0181;-0.0353;0.0142;
599630695585271;-0.0011;-0.0523;0.0419;
599630705691000;0.0202;0.0009;0.0419;
599630715796781;0.0149;-0.0182;0.0526;
599630725902510;0.0170;-0.0875;0.0579;
599630736008239;0.0511;-0.0257;0.0675;
599630746111781;0.0256;0.0435;0.0419;
599630756217510;0.0245;-0.0108;-0.0028;
599630766323239;-0.0149;-0.0545;0.0164;
599630776441000;0.0245;-0.0044;-0.0198;
599630786546729;0.0213;-0.0055;-0.0092;
599630796652458;0.0000;0.0425;-0.0039;
599630806753135;0.0149;0.1202;-0.0060;
599630816858864;0.0053;0.0542;0.0004;
599630826964594;0.0383;0.0403;0.0057;
599630837072979;0.0490;0.0915;-0.0166;
599630847178708;0.0192;0.0467;-0.0348;
599630857284437;0.0256;-0.1152;-0.0198;
599630867395062;0.0288;-0.1780;-0.0401;
599630877500792;0.0277;-0.0971;-0.0944;
599630887606521;0.0565;-0.0108;-0.0859;
599630897702354;0.0575;-0.0960;-0.0539;
599630907808083;0.0873;-0.1620;-0.0411;
599630917913812;0.1619;-0.0459;-0.0156;
599630928019646;0.1278;-0.0513;-0.0092;
599630938125375;0.0959;-0.0726;-0.0294;
599630948231104;0.1289;0.0755;-0.0103;
599630958328187;0.1353;0.1213;-0.0060;
599630968433864;0.1619;0.1565;-0.0134;
599630978539646;0.1278;0.1756;-0.0028;
599630988649437;0.0660;0.0446;0.0398;
599630998755167;0.0692;-0.0502;0.0622;
599631008860896;0.0991;-0.0417;0.0792;
599631018965531;0.0895;-0.0640;0.0792;
599631029071260;0.0895;-0.0609;0.0451;
599631039176989;0.0767;0.0308;0.0835;
599631049273396;0.0671;0.0212;0.0718;
599631059379125;0.0533;-0.0289;0.0473;
599631069484854;0.0256;-0.0491;0.0632;
599631079601104;0.0224;-0.0310;0.0771;
599631089706833;0.0543;0.0808;0.0803;
599631099812562;0.0256;0.0531;0.1154;
599631109933187;0.0224;-0.0449;0.1325;
599631120038917;0.0586;0.0531;0.0856;
599631130144646;0.0490;0.1394;0.0739;
599631140238239;-0.0107;0.0244;0.0760;
599631150343969;-0.0117;-0.0427;0.0664;
599631160449698;0.0000;0.0297;0.0579;
599631170535896;0.0160;0.0190;0.0590;
599631180641625;-0.0032;-0.0225;0.0494;
599631190747354;0.0149;-0.0630;0.0728;
599631200855948;0.0458;-0.0928;0.0909;
599631210961677;0.0639;-0.0470;0.0686;
599631221067458;0.0533;-0.0225;0.0324;
599631231171677;0.0330;-0.0406;0.0430;
599631241277406;0.0394;-0.0246;0.0313;
599631251383135;0.0575;0.0467;0.0015;
599631261513812;0.0415;0.0563;0.0185;
599631271619489;0.0341;0.0638;0.0409;
599631281725271;0.0458;0.0712;0.0494;
599631291814021;0.0479;-0.0268;0.0814;
599631301919698;0.0394;-0.0609;0.0590;
599631312025479;0.0501;-0.0076;0.0132;
599631322144125;0.0373;0.0169;0.0270;
599631332249802;0.0170;-0.0395;0.0174;
599631342355531;-0.0064;-0.1003;-0.0007;
599631352446521;0.0096;-0.0523;0.0047;
599631362552198;0.0320;0.0542;0.0068;
599631372657927;-0.0053;0.0382;0.0419;
599631382768031;-0.0947;0.0105;0.0632;
599631392873760;-0.0383;0.0553;0.0537;
599631402979437;-0.0117;0.1032;0.0185;
599631413094854;-0.0341;0.1000;0.0025;
599631423200531;-0.0597;0.0510;-0.0103;
599631433306260;-0.1213;-0.0470;-0.0252;
599631443399229;-0.0692;-0.0225;-0.0454;
599631453504906;0.0394;0.0244;-0.0326;
599631463610635;-0.0277;-0.0587;-0.0337;
599631473719854;-0.0138;-0.1205;0.0047;
599631483825531;-0.0117;-0.1035;0.0537;
599631493931260;0.0138;-0.0470;0.0004;
599631504037667;0.0437;0.0936;-0.0284;
599631514143396;-0.0053;0.0830;-0.0305;
599631524249073;-0.0511;0.0009;-0.0422;
599631534355479;-0.0043;0.0318;-0.0486;
599631544461156;0.0192;0.0499;-0.0220;
599631554566885;0.0075;-0.0427;-0.0103;
599631564671417;0.0202;-0.0939;0.0281;
599631574777094;0.0703;-0.0470;0.0494;
599631584882823;0.1300;-0.0055;0.0142;
599631594991833;0.1523;0.0606;0.0068;
599631605097510;0.0330;0.0244;0.0238;
599631615203239;-0.0224;-0.0800;0.0313;
599631625310687;0.0266;-0.0790;0.0324;
599631635416364;0.0341;0.0063;0.0366;
599631645522094;0.0224;0.0627;0.0228;
599631655635479;-0.0043;0.0169;0.0526;
599631665741156;-0.0021;-0.0225;0.0909;
599631675846885;0.0043;-0.0364;0.0654;
599631685944854;0.0138;-0.0225;0.0302;
599631696050531;0.0000;-0.0672;0.0387;
599631706156260;0.0000;-0.0992;0.0302;
599631716256000;0.0085;-0.0300;0.0281;
599631726361677;0.0053;0.0372;0.0196;
599631736467406;0.0107;0.0403;0.0217;
599631746578083;-0.0053;0.0052;0.0494;
599631756683760;0.0160;0.0276;0.0750;
599631766789437;0.0298;0.0510;0.0696;
599631776879385;0.0160;0.0201;0.0281;
599631786985114;0.0192;0.0148;0.0057;
599631797090792;0.0224;0.0233;-0.0134;
599631807218708;0.0117;0.0052;-0.0113;
599631817324385;0.0075;-0.0097;-0.0039;
599631827430114;0.0160;-0.0193;0.0068;
599631837540375;0.0373;-0.0182;-0.0124;
599631847646052;0.0266;-0.0534;0.0185;
599631857751781;0.0256;-0.0630;0.0462;
599631867845896;0.0256;-0.0427;0.0057;
599631877951573;0.0341;-0.0119;-0.0007;
599631888057302;0.0224;0.0169;-0.0156;
599631898159958;0.0064;0.0222;-0.0369;
599631908265635;0.0075;0.0105;-0.0326;
599631918371364;-0.0032;-0.0140;-0.0103;
599631928475271;0.0362;-0.0300;-0.0188;
599631938580948;0.0426;-0.0310;0.0206;
599631948686677;0.0256;-0.0225;0.0270;
599631958790375;0.0170;0.0116;-0.0177;
599631968896052;0.0085;0.0031;0.0100;
599631979001781;0.0000;-0.0268;0.0015;
599631989121208;0.0256;-0.0161;-0.0443;
599631999226937;-0.0043;0.0350;-0.0326;
599632009332614;0.0011;0.0617;-0.0284;
599632019431625;0.0288;0.0734;-0.0166;
599632029537302;-0.0053;0.0265;0.0036;
599632039643031;0.0383;-0.0470;0.0079;
599632049784958;0.0234;-0.0055;0.0004;
599632059890687;0.0192;0.0254;-0.0156;
599632069996364;0.0490;0.0350;-0.0113;
599632080044489;0.0330;0.0553;-0.0454;
599632090150167;0.0224;0.0680;-0.0465;
599632100255844;0.0213;0.0638;-0.0071;
599632110372302;0.0362;0.0254;0.0132;
599632120478031;0.0735;0.0531;0.0238;
599632130583760;0.0842;0.0372;0.0590;
599632140677250;0.1257;0.0574;0.0451;
599632150782927;0.1779;0.1863;0.0324;
599632160888604;0.0724;0.0734;0.0526;
599632171024125;-0.0043;-0.0960;0.0547;
599632181129802;0.0650;-0.0992;0.0526;
599632191235531;0.0490;-0.0427;0.0526;
599632201321417;0.0373;-0.0545;0.0377;
599632211427094;0.0373;-0.0768;0.0441;
599632221532823;0.0501;-0.1024;0.0867;
599632231659021;0.0543;-0.1162;0.1005;
599632241764698;0.0383;-0.0577;0.0632;
599632251870427;0.0320;-0.0193;0.0419;
599632261953083;0.0011;-0.0640;0.0356;
599632272058760;0.0064;-0.0310;0.0217;
599632282164489;0.0330;0.0744;0.0206;
599632292290687;0.0085;0.1373;0.0409;
599632302396364;-0.0064;0.1000;0.0654;
599632312502094;0.0021;0.0766;0.0696;
599632322609281;0.0948;0.1458;0.0760;
599632332714958;0.0426;0.1660;0.0462;
599632342820687;-0.0107;0.0947;0.0473;
599632352910479;-0.0288;-0.0172;0.0696;
599632363016156;-0.0320;-0.1152;0.0345;
599632373121885;0.0032;-0.0566;0.0100;
599632383230896;0.0107;0.0531;0.0281;
599632393336573;-0.0767;0.0063;0.0505;
599632403442302;-0.1501;-0.0896;0.0686;
599632413557042;-0.0511;-0.0257;0.0686;
599632423662719;0.0170;0.0904;0.0185;
599632433768448;-0.0575;0.0755;-0.0145;
599632443867250;-0.1075;-0.0449;0.0142;
599632453972927;-0.0989;-0.1216;0.0047;
599632464078656;-0.0362;-0.0459;-0.0081;
599632474181833;0.0011;0.0435;-0.0209;
599632484287510;-0.0426;-0.0395;-0.0284;
599632494393239;-0.0618;-0.1301;-0.0039;
599632504504698;-0.0426;-0.0843;0.0260;
599632514610375;0.0245;-0.0023;0.0111;
599632524716104;-0.0032;-0.0342;-0.0209;
599632534813396;-0.0479;-0.0800;0.0079;
599632544919073;-0.0032;0.0670;0.0068;
599632555024802;0.0224;0.2087;-0.0284;
599632565134854;-0.0586;0.1096;-0.0294;
599632575240531;-0.1053;-0.1258;-0.0017;
599632585346260;-0.1138;-0.1929;0.0228;
599632595464281;0.0192;-0.0545;0.0334;
