Sensor: bmi160 Gyroscope Non-wakeup
Vendor: BOSCH
TimestampGyro [ns]; GyroX [rad/s]; GyroY [rad/s]; GyroZ [rad/s]
82465146990194;0.0341;0.0113;-0.1366;
82465157101548;0.0288;0.0039;-0.1302;
82465167207486;0.0053;0.0177;-0.1345;
82465177321444;-0.0138;0.0177;-0.1313;
82465187427069;-0.0192;0.0134;-0.1228;
82465197535715;-0.0234;-0.0004;-0.1121;
82465207657225;-0.0138;-0.0174;-0.1025;
82465217738580;-0.0053;-0.0174;-0.0983;
82465227839673;-0.0117;-0.0132;-0.0972;
82465237931548;-0.0170;-0.0228;-0.0876;
82465248051705;-0.0128;-0.0228;-0.0748;
82465258161496;-0.0170;0.0071;-0.0610;
82465268254517;-0.0426;0.0305;-0.0525;
82465278369725;-0.0554;0.0273;-0.0503;
82465288475246;-0.0799;0.0103;-0.0439;
82465298581496;-0.1502;-0.0047;-0.0354;
82465308695455;-0.2109;-0.0196;-0.0237;
82465318790298;-0.2268;-0.0174;-0.0162;
82465328894569;-0.2056;-0.0079;-0.0077;
82465339001184;-0.1704;-0.0036;0.0072;
82465349094465;-0.1332;0.0007;0.0264;
82465359206184;-0.0852;0.0113;0.0381;
82465369312955;-0.0628;0.0081;0.0413;
82465379425038;-0.0778;-0.0217;0.0413;
82465389528580;-0.0682;-0.0206;0.0487;
82465399635298;-0.0671;-0.0260;0.0530;
82465409735455;-0.0735;-0.0546;0.0562;
82465419839934;-0.0554;-0.0578;0.0732;
82465429947173;-0.0586;-0.0451;0.0901;
82465440054361;-0.0767;-0.0430;0.0901;
82465450154725;-0.0820;-0.0292;0.0848;
82465460284048;-0.0937;-0.0025;0.0700;
82465470378684;-0.1193;0.0103;0.0605;
82465480481444;-0.1310;0.0039;0.0583;
82465490585246;-0.1683;-0.0068;0.0583;
82465500692850;-0.1012;-0.0089;0.0466;
82465510792330;-0.0959;-0.0089;0.0509;
82465520912486;-0.1651;-0.0461;0.0423;
82465531005142;-0.1843;-0.0525;0.0328;
82465541107538;-0.1097;-0.0196;0.0381;
82465551215663;-0.0405;-0.0174;0.0509;
82465561337277;-0.0628;-0.0419;0.0519;
82465571428111;-0.0565;-0.0451;0.0466;
82465581526913;-0.0607;-0.0356;0.0455;
82465591630715;-0.0810;-0.0409;0.0445;
82465601762798;-0.0884;-0.0398;0.0434;
82465611848267;-0.0852;-0.0142;0.0466;
82465621951965;-0.0905;0.0071;0.0487;
82465632096340;-0.0895;0.0028;0.0509;
82465642212694;-0.0756;-0.0015;0.0551;
82465652269569;-0.0799;-0.0057;0.0636;
82465662364205;-0.0959;-0.0281;0.0668;
82465672490038;-0.1023;-0.0281;0.0679;
82465682593580;-0.1023;-0.0174;0.0647;
82465692706809;-0.1140;-0.0217;0.0605;
82465702767225;-0.1140;-0.0281;0.0679;
82465712920871;-0.1065;-0.0185;0.0743;
82465722999673;-0.1289;-0.0249;0.0636;
82465733101444;-0.1310;-0.0206;0.0413;
82465743233632;-0.0810;-0.0004;0.0317;
82465753361236;-0.0842;-0.0057;0.0338;
82465763442486;-0.0660;0.0017;0.0413;
82465773536392;-0.0618;0.0188;0.0402;
82465783668475;-0.0852;-0.0142;0.0200;
82465793755455;-0.0884;-0.0493;0.0104;
82465803861132;-0.0692;-0.0292;0.0210;
82465813964413;-0.0373;-0.0047;0.0445;
82465824070142;-0.0053;0.0230;0.0573;
82465834194205;-0.0405;0.0273;0.0445;
82465844292642;-0.1406;0.0081;0.0040;
82465854382277;-0.1417;-0.0100;0.0264;
82465864524986;-0.0767;-0.0217;0.0519;
82465874616652;-0.0916;-0.0004;0.0859;
82465884713475;-0.0533;0.0635;0.0859;
82465894802955;-0.0969;0.0475;0.0615;
82465904941913;-0.1023;0.0081;0.0530;
82465915024205;-0.0160;0.0273;0.0679;
82465925132746;0.1076;0.0624;0.0955;
82465935241080;0.1097;0.0561;0.1200;
82465945354569;0.0245;0.0145;0.1083;
82465955441705;-0.0394;-0.0025;0.0859;
82465965558163;-0.0181;0.0369;0.0774;
82465975666288;0.0277;0.0742;0.0944;
82465985769413;-0.0213;0.0507;0.1072;
82465995856809;-0.1108;-0.0057;0.1029;
82466005985871;-0.1087;-0.0185;0.0784;
82466016083215;-0.0788;0.0028;0.0647;
82466026184934;-0.0692;0.0007;0.0891;
82466036295246;-0.0852;-0.0164;0.1008;
82466046394725;-0.0916;-0.0142;0.0997;
82466056514100;-0.1182;-0.0441;0.0880;
82466066611288;-0.1268;-0.1302;0.0784;
82466076721705;-0.0852;-0.1579;0.1125;
82466086827746;-0.0714;-0.1281;0.1306;
82466096932746;-0.0671;-0.0780;0.1221;
82466107030975;0.0479;0.0369;0.1093;
82466117139309;0.2578;0.1828;0.1178;
82466127260455;0.3888;0.2798;0.1232;
82466137355663;0.3899;0.3330;0.1477;
82466147455559;-0.0075;0.1317;0.1562;
82466157567850;-0.4814;-0.1771;0.1775;
82466167684986;-0.5027;-0.1995;0.2031;
82466177789152;-0.2513;-0.0940;0.1935;
82466187894048;-0.0522;-0.0461;0.1594;
82466198002902;-0.1097;0.0294;0.1306;
82466208101809;-0.0884;0.1104;0.1104;
82466218179257;-0.0724;0.1583;0.1232;
82466228256705;-0.2225;0.0987;0.1093;
82466238404673;-0.5772;-0.0535;0.0806;
82466248482121;-0.7541;-0.0908;0.0519;
82466258559569;-0.7647;-0.0961;0.0381;
82466268732590;-0.7530;-0.0940;0.0115;
82466278810038;-0.7754;0.0017;-0.0354;
82466288887486;-0.8626;0.0465;-0.0695;
82466299048267;-0.9584;0.0017;-0.0993;
82466309125715;-0.9478;0.0348;-0.1366;
82466319203163;-0.9329;0.0752;-0.1696;
82466329361757;-1.0373;0.0656;-0.1909;
82466339439205;-1.1118;0.0816;-0.2186;
82466349516652;-1.1278;0.0529;-0.2527;
82466359675246;-1.2162;0.0294;-0.2943;
82466369752642;-1.2631;0.0955;-0.3305;
82466379830090;-1.2706;0.1487;-0.3699;
82466389987902;-1.2738;0.1647;-0.3891;
82466400065402;-1.2429;0.2116;-0.4051;
82466410142798;-1.1140;0.1999;-0.4178;
82466420310819;-0.9552;0.1903;-0.4434;
82466430388267;-0.7370;0.2095;-0.4359;
82466440465715;-0.4728;0.2371;-0.4104;
82466450628059;-0.2545;0.2510;-0.4359;
82466460705507;-0.1640;0.2680;-0.3838;
82466470782955;-0.1001;0.4087;-0.2943;
82466480919986;-0.2747;0.3969;-0.3198;
82466490997434;-0.2683;0.2340;-0.3848;
82466501074882;-0.3067;0.1967;-0.3848;
82466511261652;-0.3716;0.2222;-0.3518;
82466521339100;-0.3759;0.1722;-0.3113;
82466531416548;-0.4164;0.0401;-0.3113;
82466541570507;-0.5112;0.0209;-0.3028;
82466551647955;-0.6965;0.0880;-0.2847;
82466561725402;-0.8391;0.0294;-0.3039;
82466571909777;-0.9073;-0.0238;-0.3028;
82466581987225;-1.0682;0.0720;-0.2879;
82466592064725;-1.2418;0.1178;-0.2666;
82466602231392;-1.2695;0.0987;-0.2676;
82466612308788;-1.3046;0.1040;-0.2772;
82466622386288;-1.3334;0.0731;-0.2783;
82466632516027;-1.3004;0.0838;-0.2879;
82466642593475;-1.2887;0.0955;-0.2826;
82466652670923;-1.2056;0.0326;-0.3049;
82466662839257;-1.0319;-0.0281;-0.3230;
82466672916705;-0.9766;-0.0068;-0.2996;
82466682994152;-0.8775;0.0305;-0.2826;
82466693151652;-0.7935;0.1328;-0.2975;
82466703229100;-0.6976;0.1647;-0.2751;
82466713306548;-0.5815;0.0901;-0.2985;
82466723503215;-0.5144;0.0081;-0.3028;
82466733580715;-0.4079;0.0156;-0.3337;
82466743658111;-0.2992;0.0955;-0.3561;
82466753810298;-0.1289;0.0848;-0.3433;
82466763887746;0.0905;0.0752;-0.3273;
82466773951027;0.3068;0.2020;-0.2666;
82466784028475;0.5112;0.2755;-0.2581;
82466794105923;0.7082;0.2318;-0.2463;
82466804351027;0.9618;0.2116;-0.2144;
82466814428475;1.0777;0.1977;-0.2027;
82466824505923;1.1971;0.1029;-0.1771;
82466834654309;1.2791;-0.0238;-0.1664;
82466844731705;1.1917;0.0049;-0.1558;
82466854809152;1.0777;0.0603;-0.1473;
82466864972486;0.9053;0.0039;-0.1441;
82466875049934;0.7509;-0.0823;-0.1132;
82466885127382;0.5602;-0.1249;-0.1494;
82466895269986;0.2919;-0.0780;-0.1920;
82466905347434;0.1268;-0.0260;-0.2261;
82466915424882;-0.0565;-0.0503;-0.2751;
82466925605507;-0.1843;-0.0387;-0.2772;
82466935683007;-0.2395;-0.0047;-0.3305;
82466945760402;-0.2024;0.0358;-0.3614;
82466955935507;-0.2024;0.0880;-0.3678;
82466966012955;-0.1907;0.1104;-0.4061;
82466976090402;-0.1790;0.1391;-0.3944;
82466986236027;-0.1747;0.2318;-0.4189;
82466996313475;-0.1481;0.2531;-0.4274;
82467006390923;-0.1193;0.2329;-0.4711;
82467016554361;-0.0660;0.2073;-0.4796;
82467026631809;-0.0213;0.1146;-0.5041;
82467036709309;0.0831;0.0177;-0.5052;
82467046879777;0.1907;-0.0525;-0.5073;
82467056957225;0.3142;-0.0313;-0.4732;
82467067034673;0.4739;-0.0387;-0.4391;
82467077180715;0.6571;-0.0684;-0.4136;
82467087258163;0.8478;-0.0228;-0.3891;
82467097335611;1.0266;0.0486;-0.3518;
82467107499152;1.2674;0.0784;-0.3134;
82467117576600;1.4090;0.0326;-0.2730;
82467127654048;1.5220;0.0678;-0.2282;
82467137825559;1.5571;0.0859;-0.1718;
82467147902955;1.5933;0.0358;-0.1579;
82467157980402;1.5688;0.0411;-0.1217;
82467168139309;1.4740;0.0582;-0.0567;
82467178216757;1.3728;0.0475;-0.0365;
82467188294205;1.2194;0.0017;-0.0077;
82467198464048;1.0618;-0.0451;0.0178;
82467208541496;0.8435;0.0241;0.0104;
82467218618944;0.6987;0.0997;-0.0226;
82467228781236;0.5506;0.0774;-0.0439;
82467238858684;0.3845;0.0103;-0.0834;
82467248936132;0.2844;0.0113;-0.1217;
82467259085507;0.3324;0.0827;-0.1366;
82467269162955;0.3483;0.0497;-0.1292;
82467279240402;0.3419;-0.0281;-0.1270;
82467289406809;0.3515;-0.0345;-0.0983;
82467299484257;0.3824;-0.0111;-0.1206;
82467309561705;0.3824;0.0007;-0.1377;
82467319711861;0.3696;-0.0387;-0.1228;
82467329789257;0.3430;-0.0249;-0.1004;
82467339866757;0.3451;0.0081;-0.0706;
82467350041652;0.3664;0.0326;-0.0684;
82467360119152;0.3728;0.0188;-0.0706;
82467370196548;0.3611;0.0198;-0.0791;
82467380353215;0.3909;0.0060;-0.0642;
82467390430663;0.3909;0.0113;-0.0290;
82467400508163;0.3814;0.0401;-0.0152;
82467410666444;0.3664;0.0635;-0.0258;
82467420743892;0.3600;0.0635;-0.0269;
82467430821340;0.3664;0.0422;0.0072;
82467440981965;0.3728;-0.0025;0.0434;
82467451059413;0.3505;-0.0260;0.0530;
82467461136861;0.3398;-0.0546;0.0573;
82467471304569;0.3366;-0.0047;0.0466;
82467481382017;0.3462;0.0465;0.0583;
82467491459465;0.3196;0.0539;0.0626;
82467501616757;0.3238;0.0103;0.0795;
82467511694205;0.3281;0.0081;0.0806;
82467521771652;0.3334;0.0305;0.0754;
82467531941444;0.3196;0.0198;0.0732;
82467542018840;0.3153;0.0156;0.0891;
82467552096340;0.2322;0.0220;0.1019;
82467562264986;0.1811;0.0198;0.1083;
82467572342382;0.0628;-0.0025;0.0848;
82467582419830;-0.0170;-0.0100;0.0784;
82467592595298;-0.1087;0.0305;0.0784;
82467602672746;-0.1672;0.0177;0.0573;
82467612750194;-0.1736;0.0049;0.0146;
82467622893007;-0.1981;0.0454;-0.0056;
82467632970455;-0.2651;0.0774;-0.0471;
82467643047902;-0.3162;0.0039;-0.0940;
82467653212173;-0.3226;-0.1867;-0.0759;
82467663289621;-0.2555;-0.2815;-0.0770;
82467673367069;-0.0820;-0.1547;-0.0940;
82467683536444;0.0905;0.0284;-0.1047;
82467693613892;0.2333;0.0891;-0.1079;
82467703691340;0.2248;0.1019;-0.0706;
82467713870767;0.2035;0.1519;-0.0578;
82467723948215;0.2024;0.1157;-0.0386;
82467734025663;0.1864;0.0518;-0.0663;
82467744180298;0.1811;0.0422;-0.0951;
82467754257746;0.1992;0.0369;-0.0844;
82467764335194;0.2226;0.0401;-0.0823;
82467774471705;0.2610;0.0326;-0.0855;
82467784572017;0.2983;0.0284;-0.0802;
82467794672382;0.3270;0.0454;-0.0525;
82467804803215;0.3441;0.0784;-0.0407;
82467814903527;0.3547;0.0774;-0.0312;
82467825003892;0.3622;0.0976;-0.0099;
82467835108944;0.3590;0.0923;-0.0141;
82467845209309;0.3494;0.0411;-0.0333;
82467855309621;0.3260;0.0422;-0.0120;
82467865439361;0.2802;0.0230;0.0104;
82467875539673;0.2482;0.0965;0.0146;
82467885640038;0.2599;0.3234;-0.0130;
82467895753527;0.3185;0.3043;-0.0109;
82467905853840;0.3110;-0.0036;-0.0109;
82467915954205;0.2077;-0.1345;-0.0056;
82467926092121;0.2365;-0.1196;0.0115;
82467936192486;0.2344;-0.1217;0.0200;
82467946292798;0.2226;-0.0684;0.0338;
82467956381132;0.2450;0.0252;0.0381;
82467966481496;0.2663;0.0869;0.0455;
82467976581809;0.2972;0.0987;0.0455;
82467986704882;0.3441;0.0273;0.0466;
82467996805246;0.3345;-0.0281;0.0562;
82468006905559;0.3419;-0.0015;0.0466;
82468017016652;0.4132;0.0880;0.0816;
82468027117017;0.4782;0.0784;0.0912;
82468037217330;0.4899;0.0667;0.0827;
82468047332382;0.4515;0.0710;0.0880;
82468057432746;0.4292;0.0593;0.1104;
82468067533059;0.4164;0.0656;0.1264;
82468077652798;0.3792;0.0369;0.1136;
82468087753163;0.3313;-0.0185;0.0933;
82468097853475;0.2887;-0.0387;0.0944;
82468107964152;0.2770;-0.0334;0.0859;
82468118064517;0.3121;0.0039;0.1029;
82468128164830;0.3334;0.0433;0.1029;
82468138285402;0.3441;0.0699;0.0987;
82468148385767;0.3569;0.0646;0.0997;
82468158486080;0.3409;0.0614;0.1104;
82468168589986;0.3110;0.0518;0.1221;
82468178690298;0.3153;0.0220;0.1242;
82468188790663;0.3249;0.0443;0.1274;
82468198936184;0.3792;0.1125;0.1200;
82468209036548;0.3547;0.0422;0.1423;
82468219136913;0.3110;-0.1004;0.1317;
82468229242798;0.2855;-0.0887;0.1498;
82468239343111;0.3025;0.0007;0.1615;
82468249443475;0.3409;0.0635;0.1881;
82468259563944;0.3153;0.0369;0.1988;
82468269664309;0.2834;-0.0089;0.1615;
82468279764621;0.2684;0.0177;0.1732;
82468289872486;0.3025;0.0614;0.1743;
82468299972798;0.3068;0.0316;0.1903;
82468310073163;0.3036;0.0348;0.2222;
82468320173996;0.3270;0.0774;0.2116;
82468330274309;0.3110;0.0465;0.2190;
82468340374673;0.2919;0.0166;0.2212;
82468350512069;0.2908;-0.0185;0.2350;
82468360612434;0.3089;-0.0419;0.2574;
82468370712746;0.3249;0.0348;0.2734;
82468380814465;0.3366;0.0624;0.2670;
82468390914777;0.2908;0.0294;0.2425;
82468401015142;0.2812;0.0486;0.2585;
82468411134986;0.2834;0.0859;0.2957;
82468421235298;0.2727;0.0816;0.3192;
82468431335663;0.2365;0.0230;0.3075;
82468441479309;0.2450;0.0294;0.3181;
82468451579673;0.2471;0.0614;0.3362;
82468461680038;0.2088;0.0422;0.3501;
82468471763111;0.1683;0.0752;0.3170;
82468481863475;0.2162;0.0816;0.3447;
82468491963788;0.2184;0.1189;0.3607;
82468502099152;0.2258;0.1200;0.3586;
82468512199517;0.2162;0.0539;0.4023;
82468522299830;0.1907;0.0188;0.4055;
82468532390975;0.1800;0.0699;0.3991;
82468542491340;0.1854;0.1189;0.3852;
82468552591652;0.1481;0.0582;0.3959;
82468562725350;0.0597;0.0326;0.3788;
82468572825663;-0.0107;0.0742;0.3969;
82468582925975;-0.0533;0.0486;0.4087;
82468593046392;-0.1395;-0.0068;0.3767;
82468603146705;-0.2715;-0.0430;0.3469;
82468613247069;-0.3876;-0.0153;0.3266;
82468623364152;-0.4558;0.0060;0.3149;
82468633464465;-0.5027;-0.0695;0.2883;
82468643564830;-0.5666;-0.0471;0.2340;
82468653696652;-0.6284;0.0369;0.2031;
82468663797017;-0.6273;0.0401;0.1860;
82468673897330;-0.5921;-0.0185;0.1573;
82468684028475;-0.6007;-0.0111;0.1264;
82468694128840;-0.6081;0.0401;0.1136;
82468704229152;-0.5666;0.0316;0.0711;
82468714299882;-0.4941;-0.0238;0.0381;
82468724400246;-0.4451;0.0316;0.0338;
82468734500559;-0.4249;0.0081;0.0370;
82468744635923;-0.3897;-0.1004;0.0253;
82468754736288;-0.3258;-0.0578;0.0093;
82468764836652;-0.2800;0.0007;0.0189;
82468774950767;-0.2438;-0.0313;0.0168;
82468785055507;-0.1875;0.0486;0.0391;
82468795160298;-0.1449;0.1413;0.0838;
82468805270298;-0.1523;0.0901;0.0658;
82468815375038;-0.1726;0.0486;0.0306;
82468825479830;-0.1609;0.0731;0.0795;
82468835582486;-0.1704;0.0294;0.0997;
82468845687225;-0.1545;-0.0366;0.0711;
82468855792017;-0.1566;-0.0345;0.0551;
82468865900819;-0.1694;-0.0196;0.0338;
82468876005559;-0.1822;-0.0100;0.0573;
82468886110350;-0.1715;0.0007;0.0774;
82468896223840;-0.1726;-0.0089;0.0965;
82468906328580;-0.1790;-0.0025;0.0848;
82468916433371;-0.2013;0.0049;0.0530;
82468926552590;-0.2182;-0.0419;0.0317;
82468936657330;-0.2332;-0.0228;0.0423;
82468946762069;-0.2161;-0.1206;0.0445;
82468956875194;-0.2449;-0.2676;0.0029;
82468966979934;-0.2278;-0.1132;-0.0024;
82468977084725;-0.1790;0.1913;0.0370;
82468987169100;-0.1683;0.2212;0.0434;
82468997273840;-0.1939;0.1487;0.0285;
82469007378632;-0.2374;0.1743;-0.0024;
82469017489100;-0.2491;0.2233;-0.0333;
82469027593840;-0.2523;0.1562;-0.0099;
82469037698580;-0.2853;-0.0100;-0.0280;
82469047811288;-0.3024;-0.0674;-0.0642;
82469057916027;-0.2949;-0.0260;-0.1079;
82469068020819;-0.2811;-0.0716;-0.0887;
82469078125715;-0.2502;-0.0791;-0.0993;
82469088230455;-0.1949;-0.0121;-0.1068;
82469098335246;-0.1662;0.0731;-0.1015;
82469108435611;-0.1758;0.1583;-0.0972;
82469118540350;-0.1395;0.3522;-0.0993;
82469128645142;-0.2067;0.1349;-0.1036;
82469138754465;-0.2342;-0.2772;-0.1270;
82469148859205;-0.2182;-0.2783;-0.1292;
82469158963996;-0.2523;-0.1771;-0.1877;
82469169084257;-0.2067;-0.0620;-0.1632;
82469179188996;-0.2193;-0.0876;-0.1100;
82469189293788;-0.1822;0.0060;-0.1164;
82469199406340;-0.0767;0.2435;-0.1675;
82469209511080;-0.0959;0.1285;-0.2016;
82469219615819;-0.2417;-0.1079;-0.1984;
82469229727173;-0.1694;0.0497;-0.2016;
82469239831913;-0.1044;0.2158;-0.1846;
82469249936652;-0.1353;0.0869;-0.1963;
82469260029986;-0.1800;-0.0770;-0.1728;
82469270134725;-0.1491;0.0039;-0.1867;
82469280239517;-0.1513;0.0401;-0.1877;
82469290346444;-0.1651;-0.1036;-0.1803;
82469300451184;-0.1395;-0.0015;-0.2421;
82469310555975;-0.1065;0.1945;-0.2325;
82469320657694;-0.0756;0.0763;-0.2208;
82469330762434;-0.1033;-0.1004;-0.2357;
82469340867225;-0.1417;-0.0663;-0.2549;
82469350976965;-0.1694;-0.0589;-0.2836;
82469361081705;-0.1704;-0.1142;-0.2932;
82469371186496;-0.1470;-0.0387;-0.2943;
82469381290923;-0.1087;0.1083;-0.2996;
82469391395663;-0.1044;0.0507;-0.2868;
82469401500455;-0.1097;-0.0780;-0.2794;
82469411605194;-0.0692;0.0348;-0.3092;
82469421709934;-0.0394;0.1807;-0.2559;
82469431814725;-0.0756;0.0656;-0.2655;
82469441951027;-0.0724;-0.0366;-0.3156;
82469452055767;-0.0724;0.0124;-0.3188;
82469462160507;-0.1001;-0.0866;-0.3124;
82469472261965;-0.1076;-0.0770;-0.3081;
82469482366705;-0.1023;0.0944;-0.3166;
82469492471496;-0.0820;0.0976;-0.3060;
82469502565663;-0.0362;0.0454;-0.3166;
82469512670402;0.0650;0.1029;-0.3273;
82469522775194;0.1438;0.0955;-0.3113;
82469532865819;0.2141;-0.0121;-0.2826;
82469542970507;0.2471;-0.0451;-0.2485;
82469553075298;0.2663;0.0113;-0.2154;
82469563210663;0.3164;0.0092;-0.2069;
82469573315402;0.4057;-0.0503;-0.1963;
82469583420194;0.4771;-0.0079;-0.1537;
82469593500923;0.5304;0.0561;-0.1121;
82469603605663;0.5900;-0.0228;-0.0855;
82469613710455;0.5825;-0.0482;-0.0620;
82469623845923;0.5719;-0.0228;-0.0365;
82469633950663;0.5250;-0.0249;0.0051;
82469644055455;0.4750;0.0284;0.0381;
82469654163996;0.4409;0.0933;0.0690;
82469664268736;0.4334;0.0880;0.1061;
82469674373527;0.4164;0.0699;0.1370;
82469684462277;0.4174;0.0134;0.1636;
82469694567017;0.3441;-0.0695;0.1573;
82469704671757;0.2269;-0.0153;0.1338;
82469714816444;0.1917;0.0124;0.1647;
82469724921184;0.1864;-0.0514;0.2073;
82469735025975;0.1417;0.0103;0.1881;
82469745099777;0.1438;0.0710;0.1871;
82469755204517;0.0799;0.0710;0.1754;
82469765309309;0.1140;0.0049;0.1999;
82469775419152;0.0980;0.0209;0.1956;
82469785524673;0.0213;0.0571;0.1679;
82469795630246;-0.0075;0.0198;0.1956;
82469805747486;-0.0437;-0.0620;0.1828;
82469815853007;-0.0373;-0.0228;0.1743;
82469825958580;-0.0682;0.0774;0.1338;
82469836053736;-0.0383;0.0518;0.1221;
82469846159257;0.0053;0.0550;0.1402;
82469856264830;0.0085;0.1264;0.1296;
82469866369465;0.0447;0.1083;0.1104;
82469876474986;0.0383;0.0262;0.1200;
82469886580559;0.0192;0.0316;0.0955;
82469896685715;0.0288;-0.0940;0.1317;
82469906791236;-0.0479;-0.2975;0.0965;
82469916896809;0.0426;-0.0972;0.0848;
82469926995090;0.1087;0.1328;0.1274;
82469937100611;0.1012;0.1285;0.1360;
82469947206184;0.0969;0.0561;0.1253;
82469957340507;0.0895;0.0571;0.1019;
82469967446027;0.0501;0.1104;0.1370;
82469977551600;0.0522;0.0891;0.1466;
82469987638111;0.0341;-0.0121;0.1338;
82469997743632;-0.0075;-0.0812;0.1221;
82470007849205;-0.0533;-0.0525;0.1029;
82470017951340;-0.0948;-0.0249;0.1029;
82470028056861;-0.1332;-0.0770;0.0923;
82470038162434;-0.1566;0.0529;0.0541;
82470048279257;-0.1257;0.2521;0.0690;
82470058384777;-0.1332;0.0646;0.0743;
82470068490350;-0.1012;-0.2133;0.0541;
82470078596965;-0.0767;-0.1398;-0.0067;
82470088702486;-0.0756;0.0869;0.0221;
82470098808059;-0.1332;0.0731;0.0423;
82470108910767;-0.1150;-0.0057;0.0242;
82470119016288;-0.1076;0.0571;-0.0088;
82470129121861;-0.1907;0.0827;-0.0067;
82470139223423;-0.2225;0.0454;-0.0280;
82470149328944;-0.1619;0.0688;-0.0802;
82470159434517;-0.1353;0.0923;-0.0844;
82470169539934;-0.1427;0.0880;-0.0780;
82470179645455;-0.0863;0.0433;-0.0929;
82470189751027;-0.0341;-0.0206;-0.0770;
82470199874777;-0.0522;0.0071;-0.1132;
82470209980298;-0.0138;0.0220;-0.1047;
82470220085871;-0.0575;-0.0493;-0.0919;
82470230177798;-0.0660;-0.0430;-0.1153;
82470240283319;-0.0852;0.0230;-0.1121;
82470250388892;-0.0810;0.0134;-0.1036;
82470260497902;-0.0724;-0.0292;-0.1121;
82470270603423;-0.0479;-0.0652;-0.1302;
82470280708996;-0.0330;-0.0461;-0.1451;
82470290808319;-0.0064;-0.0281;-0.1228;
82470300913840;-0.0053;-0.0897;-0.1185;
82470311019413;0.0224;-0.0674;-0.1345;
82470321112277;0.0043;0.0710;-0.1718;
82470331217798;-0.0021;0.0987;-0.1696;
82470341323371;0.0320;0.0539;-0.1387;
82470351437277;-0.0096;0.0443;-0.1515;
82470361542798;-0.0117;0.0039;-0.1675;
82470371648371;-0.0213;-0.1206;-0.1601;
82470381755194;-0.0362;-0.1739;-0.1696;
82470391860715;-0.0415;-0.1121;-0.1941;
82470401966236;0.0138;0.0028;-0.2101;
82470412097590;0.0202;0.0454;-0.1750;
82470422203111;0.0458;0.0060;-0.1867;
82470432308632;0.0724;0.0316;-0.2016;
82470442386548;0.0671;0.0987;-0.2517;
82470452492069;0.1534;0.1285;-0.2336;
82470462597642;0.2642;0.0529;-0.2005;
82470472728840;0.3888;-0.0430;-0.1888;
82470482834361;0.4174;-0.0366;-0.1686;
82470492939882;0.3961;-0.0196;-0.1430;
82470503031236;0.4249;0.0305;-0.1302;
82470513136757;0.4483;0.0518;-0.1281;
82470523242277;0.4952;-0.0089;-0.0940;
82470533353007;0.5016;-0.0142;-0.0439;
82470543458527;0.4920;0.0422;-0.0045;
82470553564100;0.5325;0.0656;0.0072;
82470563683163;0.5847;0.0220;-0.0130;
82470573788684;0.5953;-0.0631;0.0434;
82470583894205;0.5005;-0.0738;0.0743;
82470593998996;0.4409;0.0039;0.1083;
82470604104517;0.3600;0.0848;0.1477;
82470614210038;0.2663;0.0529;0.1146;
82470624323111;0.2173;0.0230;0.1242;
82470634428632;0.2077;0.0816;0.1061;
82470644534152;0.1609;0.1573;0.1200;
82470654611236;0.1044;0.2638;0.1434;
82470664716757;0.1321;0.2446;0.1104;
82470674822330;0.1555;0.0763;0.0583;
82470684935611;0.0927;-0.0036;0.0573;
82470695041132;0.0064;0.0071;0.0573;
82470705146705;0.0021;-0.0036;0.0541;
82470715247590;-0.0170;-0.0461;0.0285;
82470725353111;-0.0362;-0.0652;0.0125;
82470735458684;-0.0660;-0.0313;0.0019;
82470745569517;-0.0724;0.0454;-0.0301;
82470755675038;-0.0192;0.0720;-0.0407;
82470765780611;0.0565;0.0688;-0.0194;
82470775923736;0.1417;0.0060;-0.0035;
82470786029309;0.1523;-0.0546;-0.0312;
82470796134882;0.1427;-0.0111;-0.0503;
82470806214986;0.1609;-0.0461;-0.0674;
82470816320507;0.1459;-0.0716;-0.0173;
82470826426080;0.1342;-0.0142;-0.0290;
82470836528632;0.1214;0.0028;-0.0194;
82470846634152;0.1459;-0.0206;-0.0152;
82470856739725;0.1385;-0.0919;-0.0152;
82470866845715;0.1268;-0.1867;0.0115;
82470876951236;0.1481;-0.1409;0.0509;
82470887056809;0.1790;-0.0471;0.0690;
82470897173736;0.1704;0.0337;0.0690;
82470907279257;0.1300;0.2957;0.0381;
82470917384830;0.1342;0.3479;0.0679;
82470927485819;0.0895;0.1903;0.0615;
82470937591340;0.0756;0.1903;0.0391;
82470947696913;0.0714;0.1328;0.0285;
82470957802486;0.0671;-0.1643;0.0221;
82470967908007;0.0554;-0.3411;0.0178;
82470978013580;0.1129;0.0134;0.0370;
82470988108944;0.1182;0.4278;0.0848;
82470998214465;0.0735;0.4214;0.1274;
82471008320038;0.1246;0.2893;0.1328;
82471018428007;0.1172;0.3596;0.0827;
82471028533527;0.1172;0.0763;0.1253;
82471038639100;0.0660;-0.4285;0.1178;
82471048753007;0.0447;-0.4210;0.0827;
82471058858527;0.0394;-0.2197;0.0594;
82471068964100;0.0778;-0.1984;0.0562;
82471079054673;0.0959;-0.0748;0.0093;
82471089160194;0.1747;0.3234;-0.0130;
82471099265767;0.1704;0.1605;0.0880;
82471109377173;0.0415;-0.4583;0.1423;
82471119482694;0.1726;-0.6437;0.1519;
82471129588267;0.2162;-0.7138;0.1360;
82471139689777;0.2226;-0.6659;0.1647;
82471149795298;0.2961;-0.4008;0.1967;
82471159900819;0.4025;0.1029;0.1509;
82471170007590;0.4377;0.3852;0.1285;
82471180113111;0.2077;0.2446;0.1594;
82471190218684;0.0884;0.1818;0.1786;
82471200357225;0.1885;0.2553;0.1903;
82471210462746;0.1236;-0.1004;0.2371;
82471220568267;0.0969;-0.3763;0.2606;
82471230662069;0.1470;-0.1142;0.2723;
82471240767590;0.1513;0.1807;0.2116;
82471250873163;0.1395;0.4608;0.2105;
82471260969882;0.0213;0.4523;0.2190;
82471271075402;-0.1012;0.1754;0.2308;
82471281180975;-0.0692;0.0763;0.2031;
82471291272277;0.0586;0.0656;0.1999;
82471301377798;0.0458;0.0486;0.2020;
82471311483371;0.0021;0.0348;0.2116;
82471321590715;-0.0192;-0.0409;0.2126;
82471331696236;0.0064;-0.0525;0.2095;
82471341801809;0.0820;-0.0174;0.1924;
82471351908684;0.1118;0.0763;0.1562;
82471362014205;0.1140;0.1764;0.1775;
82471372119777;0.0778;0.1189;0.2031;
82471382233527;0.0490;0.0379;0.1945;
82471392339048;0.0288;0.0166;0.1945;
82471402444621;0.0117;-0.0345;0.1764;
82471412551652;-0.0234;-0.0908;0.1381;
82471422657173;-0.0565;-0.0802;0.1242;
82471432762694;-0.0905;0.0113;0.1466;
82471442860402;-0.1704;0.0933;0.1328;
82471452965923;-0.2619;0.0379;0.0933;
82471463071496;-0.3237;-0.0036;0.0317;
82471473172902;-0.3557;0.0071;0.0168;
82471483278423;-0.4238;-0.0961;-0.0088;
82471493383944;-0.4771;-0.1377;-0.0567;
82471503512173;-0.5144;-0.0844;-0.1015;
82471513617694;-0.5538;-0.0164;-0.1281;
82471523723267;-0.5623;0.0955;-0.1952;
82471533830298;-0.5538;0.1541;-0.2378;
82471543935819;-0.5346;0.0923;-0.2314;
82471554041392;-0.4558;0.0103;-0.2783;
82471564156652;-0.3429;0.0071;-0.3699;
82471574262173;-0.2236;0.1051;-0.3592;
82471584367746;-0.1949;0.0933;-0.3465;
82471594453944;-0.1800;-0.0546;-0.3603;
82471604559465;-0.1172;-0.1111;-0.3678;
82471614665038;-0.0213;-0.1324;-0.3603;
82471624767173;0.0458;-0.1419;-0.3582;
82471634872694;0.1214;-0.1068;-0.3561;
82471644978267;0.2301;-0.0897;-0.3124;
82471655078632;0.3036;-0.0759;-0.2921;
82471665184152;0.3526;-0.0834;-0.2868;
82471675289725;0.4292;-0.0802;-0.2751;
82471685430611;0.4526;0.0028;-0.2559;
82471695536132;0.4238;0.0337;-0.2218;
82471705641652;0.3792;-0.1100;-0.2229;
82471715728840;0.4302;-0.0951;-0.2144;
82471725834361;0.4643;0.1146;-0.1782;
82471735939934;0.3718;0.1232;-0.1462;
82471746054569;0.3366;0.0795;-0.1121;
82471756160090;0.3079;-0.0482;-0.1185;
82471766265663;0.3494;-0.1260;-0.1121;
82471776343111;0.3292;0.0039;-0.1047;
82471786448684;0.2141;0.0518;-0.1302;
82471796554205;0.2077;0.0145;-0.1409;
82471806694361;0.2024;-0.0270;-0.1164;
82471816799882;0.1917;-0.0727;-0.1324;
82471826905455;0.1577;-0.0716;-0.1174;
82471836999777;0.1885;0.0007;-0.1164;
82471847105298;0.1758;-0.0567;-0.1111;
82471857210871;0.2013;-0.0419;-0.1079;
82471867312173;0.2301;-0.0121;-0.0610;
82471877417694;0.2429;-0.0897;-0.0312;
82471887523267;0.2407;0.0539;-0.0162;
82471897628527;0.2503;0.1210;-0.0258;
82471907734048;0.2141;-0.0834;0.0072;
82471917839621;0.2152;-0.0620;-0.0099;
82471927958007;0.1960;0.0699;-0.0120;
82471938063527;0.1758;0.1072;0.0338;
82471948169100;0.1630;0.0241;0.0626;
82471958285767;0.1651;-0.0249;0.0647;
82471968391288;0.1800;0.0539;0.0880;
82471978496861;0.1523;0.0326;0.1200;
82471988580611;0.1523;0.0092;0.1519;
82471998686132;0.1534;0.1743;0.1178;
82472008791705;0.1598;0.1764;0.1615;
82472018896236;0.1236;0.0678;0.1764;
82472029001757;0.1225;0.0731;0.1690;
82472039107330;0.1118;0.1903;0.1722;
82472049213111;0.0618;0.2105;0.2009;
82472059318632;0.0383;-0.0260;0.1935;
82472069424205;0.0607;-0.2421;0.1945;
82472079529361;0.1129;-0.0015;0.2329;
82472089634882;0.0820;0.2425;0.2244;
82472099740455;0.0000;0.2702;0.2648;
82472109848111;-0.1523;0.0507;0.2031;
82472119953632;-0.0810;-0.1366;0.2063;
82472130059205;-0.0373;-0.0557;0.1828;
82472140162069;-0.0586;0.1083;0.1913;
82472150267590;-0.1459;0.0422;0.1477;
82472160373163;-0.2003;-0.1739;0.1402;
82472170481027;-0.2035;-0.2985;0.1466;
82472180586548;-0.1726;0.0369;0.1178;
82472190692121;-0.1545;0.3969;0.0923;
82472200781236;-0.2332;-0.1164;0.0997;
82472210886757;-0.1044;-0.4328;0.0466;
82472220992277;-0.0234;0.0848;-0.0109;
82472231119465;-0.1023;0.5939;-0.0099;
82472241224986;-0.2214;0.1818;-0.0045;
82472251330559;-0.1449;-0.1899;-0.0067;
82472261430611;-0.0277;0.1264;-0.0248;
82472271536132;-0.0501;0.3586;-0.0407;
82472281641705;-0.0682;0.1881;-0.0802;
82472291755507;-0.0341;0.0156;-0.0887;
82472301861027;-0.0149;-0.0887;-0.1121;
82472311966600;-0.0107;-0.1111;-0.1004;
82472322080715;0.0064;0.0060;-0.1569;
82472332186236;0.0245;-0.1611;-0.1888;
82472342291757;0.0650;-0.6829;-0.1760;
82472352367173;0.1321;-0.4083;-0.1867;
82472362472694;0.2514;0.3320;-0.1718;
82472372578267;0.2439;0.0742;-0.1036;
82472382722798;0.2045;-0.3667;-0.0876;
82472392828319;0.3494;-0.0610;-0.0663;
82472402933840;0.4142;0.2638;-0.0269;
82472413007694;0.4068;0.2105;-0.0557;
82472423113215;0.3451;0.0497;-0.0983;
82472433218788;0.3931;0.0795;-0.0684;
82472443345611;0.3983;0.3394;-0.0205;
82472453451132;0.3142;0.4310;-0.0216;
82472463556705;0.3355;0.1221;-0.0013;
82472473663007;0.3121;-0.2953;0.0178;
82472483768527;0.2429;-0.1270;0.0605;
82472493874100;0.2237;0.0326;0.0722;
82472503998007;0.1939;-0.0503;0.0859;
82472514103527;0.2184;-0.0599;0.0859;
82472524209100;0.2067;0.0284;0.0679;
82472534308580;0.1981;0.0646;0.0434;
82472544414100;0.2141;0.0390;0.0338;
82472554519673;0.2194;0.1029;0.0498;
82472564623215;0.2109;0.0763;0.1040;
82472574728736;0.1811;0.0401;0.0944;
82472584834309;0.1513;0.1115;0.1242;
82472594923423;0.1651;0.0859;0.0722;
82472605028944;0.1353;-0.0409;0.0455;
82472615134517;0.0682;-0.0525;0.0605;
82472625277798;0.0927;0.0518;0.0477;
82472635383319;0.0660;-0.1036;0.0487;
82472645488892;-0.0213;-0.1505;0.0061;
82472655562798;0.1087;0.1104;0.0125;
82472665668319;0.1097;-0.0228;0.0605;
82472675773892;0.0149;-0.1888;0.0583;
82472685903007;0.0810;-0.1675;0.0210;
82472696008527;0.1012;-0.1718;0.0264;
82472706114048;0.0479;-0.0482;0.0626;
82472716202382;0.0895;0.0933;0.0498;
82472726307902;0.1140;0.1338;0.0328;
82472736413475;0.0309;-0.0345;-0.0237;
82472746521444;0.0831;0.0177;-0.0109;
82472756626965;0.0479;0.2989;-0.0099;
82472766732486;0.0628;0.1146;-0.0226;
82472776782069;0.0905;-0.1569;0.0051;
82472786887642;0.0522;-0.0451;-0.0120;
82472796993163;0.0522;0.0198;-0.0024;
82472807168944;-0.0107;-0.0387;-0.0173;
82472817274465;0.0437;-0.0535;-0.0035;
82472827380038;0.0192;-0.2005;-0.0099;
82472837463736;0.0650;-0.0174;-0.0024;
82472847569257;-0.0064;0.1296;-0.0280;
82472857674830;0.0075;0.0646;-0.0035;
82472867792486;0.0937;0.0933;-0.0077;
82472877898007;0.0788;0.0284;-0.0461;
82472888003580;0.0490;-0.0503;-0.0365;
82472898090559;0.0511;-0.0929;-0.0194;
82472908196080;0.0586;-0.0674;-0.0706;
82472918301652;0.0842;0.0571;-0.0599;
82472928426236;0.1204;-0.0599;-0.0599;
82472938531757;0.1108;0.0784;-0.0461;
82472948637330;0.1385;0.2105;-0.0695;
82472958752902;0.2216;0.0039;-0.0514;
82472968858423;0.2312;-0.1515;-0.0589;
82472978963996;0.2290;-0.1004;-0.1036;
82472989055611;0.1555;-0.0153;-0.0620;
82472999161132;0.1449;-0.0164;-0.0280;
82473009266705;0.1736;-0.0260;-0.0791;
82473019374465;0.1726;0.0901;-0.0610;
82473029479986;0.1417;0.0965;-0.0471;
82473039585559;0.1832;-0.0153;-0.0226;
82473049687798;0.2535;0.1306;-0.0375;
82473059793319;0.2738;-0.0015;-0.0642;
82473069898840;0.3068;-0.2399;-0.0301;
82473080023632;0.2834;-0.1079;-0.0514;
82473090129152;0.2088;-0.0004;-0.0631;
82473100234725;0.2514;-0.0260;-0.0535;
82473110320611;0.3334;-0.0908;-0.0429;
82473120426132;0.3377;-0.0610;0.0019;
82473130531705;0.3441;0.0678;0.0381;
82473140641184;0.3686;0.0571;0.0965;
82473150746705;0.3750;-0.0260;0.1029;
82473160852225;0.3558;0.0699;0.0732;
82473171016444;0.3473;0.1732;0.1115;
82473181121965;0.3196;0.1423;0.1551;
82473191227538;0.2951;0.2244;0.1210;
82473201283319;0.3132;0.2702;0.1690;
82473211388840;0.2663;0.1477;0.2286;
82473221494361;0.2418;0.0603;0.2286;
82473231587902;0.1928;-0.0706;0.2297;
82473241693423;0.1395;-0.2048;0.2393;
82473251798996;0.0778;-0.1483;0.2574;
82473261903423;-0.0501;-0.0620;0.2585;
82473272008944;-0.1108;0.0848;0.2403;
82473282114465;-0.0298;0.0859;0.2350;
82473292219882;0.1300;-0.0142;0.2180;
82473302325402;0.1427;0.0475;0.1945;
82473312430975;0.0895;0.0561;0.2244;
82473322552642;0.0884;-0.0620;0.2425;
82473332658163;0.0895;-0.0036;0.2627;
82473342763684;0.0075;0.1423;0.2329;
82473352854673;-0.0405;0.2648;0.2222;
82473362960194;-0.0107;0.2830;0.2126;
82473373065767;0.0298;0.2041;0.1956;
82473383164361;0.0096;0.1967;0.2095;
82473393269882;-0.0224;0.1423;0.1743;
82473403375455;-0.0426;0.0944;0.1360;
82473413484048;-0.0490;0.0603;0.1232;
82473423589569;-0.0756;0.0060;0.1264;
82473433695142;-0.0671;0.0401;0.1210;
82473443828736;-0.0245;0.0113;0.1402;
82473453934257;-0.0618;-0.0589;0.1306;
82473464039830;0.0394;-0.0557;0.1338;
82473474117017;0.0373;-0.0302;0.0923;
82473484222538;0.0277;0.0507;0.0923;
82473494328111;0.0330;0.1423;0.0848;
82473504440715;0.0245;0.0454;0.0551;
82473514546236;0.0479;-0.0951;0.0402;
82473524651809;0.0330;-0.1036;0.0487;
82473534767017;0.0096;-0.0834;0.0189;
82473544872538;0.0160;-0.1249;0.0210;
82473554978111;0.0383;-0.2453;0.0498;
82473565091027;0.0650;-0.2282;0.0933;
82473575196548;0.0895;-0.0972;0.0658;
82473585302121;0.1055;-0.0142;0.0477;
82473595411965;0.0586;-0.0716;0.0711;
82473605517486;0.0831;-0.0919;0.0636;
82473615623059;0.0490;-0.1334;0.0423;
82473625723007;0.0511;-0.1015;0.0573;
82473635828527;0.0671;0.0401;0.0700;
82473645934100;0.0437;0.0305;0.0690;
82473656048007;0.0426;0.0230;0.0827;
82473666153527;0.0479;0.0848;0.0806;
82473676259100;0.0426;0.0667;0.0743;
82473686372902;0.0021;0.0071;0.0349;
82473696478423;0.0192;-0.0004;0.0200;
82473706583944;0.0192;0.0220;0.0381;
82473716666027;0.0032;0.0262;0.0296;
82473726771548;0.0000;-0.0270;0.0093;
82473736877121;-0.0075;-0.0451;-0.0269;
82473746991444;-0.0085;-0.0834;0.0019;
82473757096965;-0.0415;-0.1068;0.0232;
82473767202538;0.0288;-0.0345;0.0349;
82473777305455;0.0234;-0.0887;0.0848;
82473787411600;0.0543;-0.1664;0.0573;
82473797517746;0.0788;0.0060;0.0530;
82473807630663;0.0810;0.1381;0.0413;
82473817736809;0.0714;0.0571;0.0668;
82473827842955;0.0543;-0.0206;0.0477;
82473837941392;0.0309;-0.0642;0.0509;
82473848047538;0.0330;-0.0961;0.0168;
82473858153684;0.0192;-0.0919;0.0253;
82473868253371;0.0277;-0.0313;0.0487;
82473878359517;0.0415;0.0880;0.0551;
82473888465663;0.0021;0.0646;0.0477;
82473898580455;0.0160;-0.0153;0.0178;
82473908686600;-0.0117;0.0624;0.0168;
82473918792746;0.0447;0.1796;0.0498;
82473928893371;0.0117;0.1945;0.0891;
82473938999517;0.0170;0.2052;0.0221;
82473949105663;-0.0149;0.1860;-0.0237;
82473959224205;-0.0064;0.1690;0.0391;
82473969330350;0.0202;0.1264;0.0509;
82473979436496;0.0501;0.0369;0.0605;
82473989530871;0.0309;-0.0855;0.0530;
82473999637017;0.0256;-0.2495;0.0743;
82474009743163;-0.0192;-0.3390;0.0594;
82474019842798;-0.0799;-0.1377;-0.0024;
82474029948944;-0.0234;0.0252;0.0498;
82474040055090;0.0991;-0.1153;0.0498;
82474050155767;0.0383;-0.1686;0.0296;
82474060261913;0.0032;0.0220;0.0806;
82474070368059;0.0820;0.0273;0.0573;
82474080478527;-0.0266;-0.2857;0.0221;
82474090584673;-0.1023;-0.1739;0.0349;
82474100690819;-0.0884;0.1338;0.0466;
82474110795038;-0.0522;0.1040;0.0168;
82474120901184;-0.0117;-0.0249;-0.0791;
82474131007330;-0.0085;0.0337;-0.0770;
82474141108632;-0.0575;-0.0121;-0.0322;
82474151214777;-0.0905;0.0188;-0.0024;
82474161320923;-0.0415;0.3181;0.0168;
82474171455038;0.1001;0.3543;0.0668;
82474181561184;-0.0309;0.0486;0.0349;
82474191667330;-0.0660;0.1913;0.0104;
82474201762017;-0.0415;0.5514;0.0189;
82474211868163;-0.1225;0.2095;0.0551;
82474221974309;-0.1150;-0.0812;0.0221;
82474232075559;-0.0224;0.1860;-0.0407;
82474242181705;-0.0565;0.3085;-0.0919;
82474252287850;-0.0873;0.1487;-0.0908;
82474262374413;-0.0362;0.0571;-0.0876;
82474272480559;-0.0170;-0.2687;-0.0525;
82474282586705;0.0383;-0.3071;-0.0301;
82474292711184;0.0959;-0.0823;-0.0035;
82474302817330;0.0234;-0.0313;0.0328;
82474312923475;-0.0437;0.0390;0.0774;
82474323004413;-0.0117;0.2063;0.0754;
82474333110559;-0.0352;0.1051;-0.0035;
82474343216705;-0.0256;-0.0834;0.0083;
82474353317642;-0.0170;-0.0419;-0.0301;
82474363423788;0.0032;0.2244;-0.0471;
82474373529934;-0.0096;0.2414;-0.0407;
82474383661913;0.0043;0.1178;-0.0439;
82474393768059;0.0213;0.0358;-0.0173;
82474403874205;0.0043;-0.0493;-0.0194;
82474413986027;-0.0085;-0.1430;0.0093;
82474424092173;-0.0245;-0.1451;0.0253;
82474434198319;-0.0511;-0.1313;0.0146;
82474444281600;-0.0628;-0.1249;-0.0088;
82474454387746;0.0160;0.1786;-0.0290;
82474464493892;0.0341;0.3682;-0.0418;
82474474611548;-0.0618;-0.0620;-0.0589;
82474484717694;-0.0085;-0.2527;-0.0684;
82474494823840;0.0117;-0.0451;-0.0983;
82474504928996;0.0032;0.0337;-0.0972;
82474515035142;0.0064;-0.0270;-0.0620;
82474525141288;-0.0096;-0.1153;-0.0546;
82474535236913;0.0096;0.0188;-0.0333;
82474545343059;-0.0043;0.1040;-0.0716;
82474555449205;0.0064;-0.0089;-0.0940;
82474565561288;0.0170;-0.0121;-0.1068;
82474575667434;-0.0032;0.0060;-0.1196;
82474585773580;-0.0021;-0.0174;-0.1419;
82474595878892;0.0234;-0.0430;-0.1643;
82474605985038;0.0192;-0.0855;-0.1494;
82474616091184;0.0266;-0.0674;-0.1739;
82474626190350;0.0245;-0.1132;-0.1441;
82474636296496;0.0437;-0.0929;-0.1249;
82474646402642;0.1001;-0.0206;-0.1089;
82474656513163;0.0778;-0.1196;-0.1537;
82474666619309;0.0788;-0.0812;-0.1547;
82474676725455;0.1044;0.0912;-0.1473;
82474686845142;0.1065;0.0571;-0.1515;
82474696951288;0.1065;-0.0345;-0.1643;
82474707057434;0.0969;0.0017;-0.1814;
82474717137955;0.0980;0.0454;-0.1931;
82474727244100;0.1278;0.0475;-0.1611;
82474737350246;0.1502;0.0273;-0.1249;
82474747461548;0.1736;0.0262;-0.0983;
82474757567694;0.1513;-0.0270;-0.1238;
82474767673840;0.1864;-0.0525;-0.1132;
82474777771236;0.1459;-0.0834;-0.1004;
82474787877017;0.1363;-0.0791;-0.1196;
82474797982850;0.1395;0.0348;-0.1111;
82474808105142;0.1087;0.0848;-0.1238;
82474818210923;0.1885;0.0518;-0.0834;
82474828316757;0.1960;0.0539;-0.0972;
82474838428059;0.2578;0.0465;-0.0375;
82474848533840;0.2514;0.0134;-0.0194;
82474858639673;0.2929;-0.0802;0.0157;
82474868730715;0.3068;-0.0620;0.0104;
82474878836548;0.2993;0.0177;0.0583;
82474888942330;0.2802;0.0667;0.0530;
82474899043996;0.3089;0.0411;0.0445;
82474909149777;0.2940;0.0369;0.0859;
82474919255611;0.2567;-0.0471;0.1445;
82474929368788;0.2418;-0.0260;0.1306;
82474939474569;0.2354;0.0326;0.1807;
82474949580402;0.1896;-0.0748;0.2169;
82474959702434;0.1513;-0.0695;0.2318;
82474969808163;0.1257;-0.0557;0.2095;
82474979914048;0.1395;-0.0482;0.2095;
82474989999830;0.1864;0.1668;0.2638;
82475000105663;0.1470;0.1956;0.2478;
82475010211444;0.1129;-0.0302;0.2467;
82475020317121;0.0948;-0.0493;0.2478;
82475030422902;0.1023;0.0049;0.2606;
82475040528736;0.0916;0.0933;0.2904;
82475050633475;0.0863;0.1019;0.3351;
82475060739257;0.0565;0.1083;0.3383;
82475070845090;0.0628;0.1775;0.3106;
82475080969621;-0.0053;0.1242;0.2904;
82475091075402;-0.0639;0.1200;0.2904;
82475101181236;-0.1278;0.1232;0.2478;
82475111265663;-0.2204;-0.1430;0.2510;
82475121371444;-0.2555;-0.2868;0.2009;
82475131477277;-0.1726;-0.0908;0.1413;
82475141583788;-0.1214;0.0497;0.1370;
82475151689569;-0.1885;-0.1004;0.1594;
82475161795402;-0.1225;-0.1931;0.1583;
82475171914621;0.0096;-0.0546;0.1860;
82475182020455;-0.0628;0.0166;0.1519;
82475192126288;-0.1438;-0.0652;0.1200;
82475202209465;-0.0959;-0.1835;0.0743;
82475212315246;-0.0266;-0.0471;0.0594;
82475222421080;-0.0170;0.2308;0.0455;
82475232520455;-0.0927;0.2467;0.0360;
82475242626236;-0.1385;0.1317;0.0157;
82475252732069;-0.0554;0.0433;0.0008;
82475262886184;-0.0202;-0.0142;0.0328;
82475272991965;-0.0075;0.1040;0.0423;
82475283097798;-0.0234;0.0742;0.0115;
82475293156809;-0.0842;-0.0834;0.0466;
82475303262590;-0.0660;-0.0663;-0.0312;
82475313368423;-0.0213;0.2638;-0.0695;
82475323507850;-0.0597;0.4363;-0.0599;
82475333613632;-0.1459;0.0614;-0.0322;
82475343719465;-0.1694;-0.1270;-0.0354;
82475353823267;-0.0597;0.0156;-0.0716;
82475363929048;-0.0309;0.0198;-0.0866;
82475374034882;-0.0959;-0.0345;-0.0620;
82475384124725;-0.1023;-0.1004;-0.1164;
82475394230507;-0.0213;-0.0823;-0.1047;
82475404336340;-0.0288;-0.0844;-0.0897;
82475414469361;-0.0511;-0.0695;-0.1302;
82475424575142;-0.0288;0.0944;-0.1515;
82475434680975;-0.0149;-0.0057;-0.0951;
82475444760767;-0.0064;-0.1196;-0.0887;
82475454866600;0.0298;-0.1760;-0.1015;
82475464972382;0.0628;0.0060;-0.0844;
82475475070142;0.0927;0.2606;-0.0407;
82475485175923;0.0458;0.1541;-0.0631;
82475495281757;0.0575;-0.0292;-0.0642;
82475505396392;0.0820;0.0891;-0.1111;
82475515502173;0.1044;0.0710;-0.1089;
82475525608007;0.0692;-0.0217;-0.1121;
82475535713788;0.0746;-0.0398;-0.0897;
82475545819569;0.0831;-0.0791;-0.0706;
82475555925402;0.0714;-0.1185;-0.1036;
82475566031132;0.0959;-0.1206;-0.0684;
82475576136913;0.1225;0.0561;-0.0301;
82475586242746;0.1363;0.0433;-0.0162;
82475596351965;0.1523;-0.0770;-0.0386;
82475606457746;0.1566;0.0486;-0.0141;
82475616563580;0.1374;0.1125;-0.0301;
82475626665246;0.0937;0.0518;-0.0471;
82475636771027;0.0810;0.1136;-0.0354;
82475646876861;0.0778;0.0624;-0.0045;
82475656989100;0.0916;0.0017;-0.0205;
82475667094882;0.0873;0.0060;0.0061;
82475677200715;0.1108;0.0049;0.0221;
82475687286080;0.0895;-0.0121;0.0477;
82475697391861;0.0597;-0.0546;0.0328;
82475707497694;0.0724;-0.0217;0.0519;
82475717626496;0.0884;0.0113;0.0391;
82475727732277;0.0650;0.0007;0.0317;
82475737838111;0.0607;0.0390;0.0328;
82475747944621;0.0767;0.0177;0.0423;
82475758050402;0.0756;-0.0100;0.0349;
82475768156236;0.0948;-0.0206;0.0551;
82475778260455;0.0810;-0.0419;0.0848;
82475788366392;0.1023;0.0411;0.1072;
82475798472277;0.0565;0.0624;0.0816;
82475808596288;0.0107;-0.0802;0.0774;
82475818702225;0.0032;-0.3316;0.0732;
82475828808111;0.0394;-0.3220;0.0743;
82475838859830;0.0607;0.0454;0.0658;
82475848965767;0.0671;0.1828;0.0722;
82475859071652;0.0224;-0.0461;0.1008;
82475869200142;0.0469;-0.0652;0.1434;
82475879306080;0.0905;0.0976;0.1541;
82475889411965;0.0618;0.1402;0.1881;
82475899521288;0.0000;0.0348;0.1583;
82475909627225;-0.0383;-0.0791;0.1445;
82475919733111;-0.0064;-0.0292;0.1594;
82475929837642;0.0170;0.1700;0.1360;
82475939943580;0.0213;0.4023;0.1157;
82475950049465;-0.0842;0.0220;0.1317;
82475960165559;-0.1992;-0.3614;0.1264;
82475970271496;0.0639;-0.1270;0.1221;
82475980377382;0.0543;-0.0100;0.1583;
82475990472642;-0.0362;-0.0940;0.1562;
82476000578580;-0.0202;-0.1260;0.1679;
82476010684465;-0.0053;-0.0525;0.1796;
82476020794309;-0.0138;0.0656;0.1562;
82476030900246;0.0000;0.0465;0.1391;
82476041006132;-0.0085;0.0273;0.1274;
82476051105975;-0.0021;0.1019;0.1168;
82476061211913;-0.0075;0.0529;0.1242;
82476071317798;0.0437;0.0646;0.1391;
82476081424621;0.0330;0.0529;0.1466;
82476091530559;0.0117;-0.0652;0.1402;
82476101636444;-0.0479;-0.0738;0.1125;
82476111738163;-0.0298;0.0230;0.1200;
82476121844100;-0.0767;0.0007;0.1317;
82476131949986;-0.0586;-0.0535;0.1178;
82476142072538;-0.0916;-0.0324;0.0933;
82476152178475;-0.0969;0.0624;0.0944;
82476162284361;-0.1427;0.0209;0.0806;
82476172377330;-0.1758;-0.0706;0.0732;
82476182483267;-0.1683;-0.0823;0.0605;
82476192589152;-0.1321;-0.0919;0.0679;
82476202723059;-0.0842;0.0699;0.0509;
82476212828996;-0.1534;0.0603;0.0210;
82476222934882;-0.1992;-0.0748;0.0178;
82476232994725;-0.1150;-0.0324;-0.0045;
82476243100663;-0.0937;0.0635;-0.0194;
82476253206548;-0.1438;0.0348;-0.0099;
82476263316392;-0.1587;-0.0302;-0.0077;
82476273422330;-0.1055;0.0113;-0.0301;
82476283528215;-0.0597;0.1125;0.0040;
82476293663267;-0.1033;0.0678;0.0115;
82476303769205;-0.0799;0.0784;-0.0099;
82476313875090;-0.1065;0.1040;-0.0386;
82476323984621;-0.1140;0.0220;0.0104;
82476334090559;-0.0937;0.0039;-0.0226;
82476344196444;-0.0905;0.0188;-0.0567;
82476354278475;-0.1033;0.0358;-0.0503;
82476364384413;-0.1182;-0.0260;-0.0503;
82476374490298;-0.1033;-0.1132;-0.0450;
82476384621809;-0.0692;-0.0716;-0.0397;
82476394727746;-0.0628;-0.0387;-0.0354;
82476404833632;-0.0895;-0.0441;-0.0386;
82476414910246;-0.0905;-0.0631;-0.0525;
82476425016184;-0.1012;-0.1260;-0.0429;
82476435122069;-0.0863;-0.0844;-0.0674;
82476445237330;-0.0980;-0.0514;-0.1015;
82476455343267;-0.0991;-0.0983;-0.1068;
82476465449152;-0.0916;-0.0951;-0.1068;
82476475551913;-0.0618;0.0987;-0.1174;
82476485657850;-0.0309;0.2787;-0.0961;
82476495763736;-0.0447;0.1168;-0.0748;
82476505885298;-0.0511;-0.0025;-0.0748;
82476515991236;-0.0437;0.1200;-0.1260;
82476526097121;-0.0799;-0.0589;-0.1238;
82476536188996;-0.0724;-0.1238;-0.1494;
82476546294934;-0.0767;0.0933;-0.1814;
82476556400819;-0.0533;0.2435;-0.1899;
82476566512225;-0.0597;0.1818;-0.1654;
82476576618163;-0.0138;0.0582;-0.1632;
82476586724048;0.0202;0.0145;-0.1356;
82476596830142;0.0309;-0.1324;-0.1153;
82476606936080;0.0405;-0.1089;-0.1409;
82476617041965;0.0330;0.0955;-0.1750;
82476627147330;0.0000;0.0742;-0.1196;
82476637253267;0.0543;0.1104;-0.1387;
82476647359152;0.1172;0.3351;-0.1803;
82476657467642;0.0660;0.0028;-0.1707;
82476667573580;0.1332;-0.1835;-0.1728;
82476677679465;0.1800;-0.0940;-0.1515;
82476687797121;0.1332;-0.1089;-0.1196;
82476697903059;0.1385;-0.0983;-0.0738;
82476708008944;0.1672;-0.0057;-0.0706;
82476718087173;0.1278;0.0422;-0.0812;
82476728193111;0.1012;-0.0525;-0.0780;
82476738298996;0.1502;-0.0802;-0.0471;
82476748422330;0.1268;0.0294;-0.0610;
82476758528267;0.0831;0.2286;-0.0482;
82476768634152;0.0746;0.1860;-0.0269;
82476778727590;0.1268;-0.0164;-0.0045;
82476788833371;0.1300;0.0316;-0.0067;
82476798939100;0.1065;0.1146;-0.0099;
82476809055090;0.0703;-0.0025;-0.0130;
82476819160871;0.0469;-0.0961;-0.0194;
82476829266600;0.0415;-0.0620;-0.0056;
82476839363111;0.0586;-0.0471;-0.0099;
82476849468892;0.0415;-0.1462;-0.0067;
82476859574621;0.0522;-0.1249;-0.0173;
82476869674621;0.0437;-0.1079;0.0136;
82476879780402;0.0565;-0.2186;0.0083;
82476889886184;0.0969;0.0529;0.0093;
82476899990767;0.1236;0.2361;0.0413;
82476910096600;0.0682;0.0710;0.0391;
82476920202330;0.0607;0.0923;0.0008;
82476930305298;0.0756;0.1679;0.0125;
82476940411080;0.0511;0.0337;0.0200;
82476950516809;0.0383;-0.0387;-0.0099;
82476960618632;0.0565;0.0710;-0.0439;
82476970724413;0.0277;0.0039;-0.0248;
82476980830142;0.0330;-0.0631;-0.0088;
82476990947590;0.0735;-0.0356;0.0200;
82477001053371;0.0948;-0.0377;0.0349;
82477011159100;0.0447;-0.1185;0.0274;
82477021261080;0.0352;-0.0695;0.0072;
82477031366861;0.0128;-0.0356;0.0210;
82477041472590;0.0181;-0.0430;-0.0045;
82477051579882;0.0107;0.0838;-0.0290;
82477061685663;0.0373;0.2510;-0.0099;
82477071791392;0.0181;0.0177;-0.0216;
82477081916236;0.0458;-0.1558;-0.0099;
82477092021965;0.1214;0.0326;0.0221;
82477102127746;0.0959;0.0433;0.0328;
82477112206965;0.0415;-0.1164;-0.0056;
82477122312746;0.0522;-0.0313;-0.0216;
82477132418475;0.0266;0.1722;0.0125;
82477142520975;0.0373;0.0997;0.0178;
82477152626757;0.0245;0.0007;-0.0067;
82477162732538;0.0352;0.0262;-0.0067;
82477172852538;0.0181;-0.0185;-0.0003;
82477182958319;0.0330;0.1008;-0.0088;
82477193064048;0.0852;0.2031;0.0125;
82477203172746;0.0650;-0.0174;0.0029;
82477213278423;0.0426;-0.0727;-0.0280;
82477223384152;0.0575;0.0529;-0.0248;
82477233489934;0.0309;0.0007;-0.0035;
82477243605767;0.0288;-0.1920;0.0008;
82477253711600;0.0447;-0.1601;0.0072;
82477263817330;0.0458;0.0529;-0.0077;
82477273909205;0.0245;-0.0217;0.0061;
82477284014986;0.0554;-0.0897;0.0115;
82477294120767;0.0927;0.0017;0.0391;
82477304290194;0.1044;0.0465;0.0306;
82477314395923;0.0597;-0.0036;-0.0152;
82477324501705;0.0522;-0.0217;-0.0109;
82477334542642;0.0320;-0.0599;-0.0141;
82477344648423;0.0288;-0.0748;-0.0013;
82477354754205;0.0415;-0.0366;0.0019;
82477364866444;0.0458;-0.0036;-0.0205;
82477374972225;0.0298;-0.0121;-0.0205;
82477385077955;0.0394;-0.0100;0.0136;
82477395188632;0.0735;0.0529;0.0360;
82477405294413;0.0703;0.0060;0.0434;
82477415400142;0.0383;0.0028;-0.0045;
82477425502486;0.0234;0.0571;-0.0077;
82477435608267;0.0107;0.0177;-0.0152;
82477445713996;0.0309;-0.0482;-0.0216;
82477455829673;0.0266;-0.0642;-0.0269;
82477465935455;0.0234;-0.0599;-0.0333;
82477476041184;0.0192;-0.1111;-0.0344;
82477486134882;0.0288;-0.1398;-0.0120;
82477496240663;0.0650;-0.1238;0.0210;
82477506346340;0.0543;-0.1206;0.0210;
82477516449361;0.0352;-0.0812;-0.0269;
82477526555142;0.0149;0.0369;0.0019;
82477536660871;0.0245;0.0593;-0.0013;
82477546776652;0.0170;-0.0206;-0.0130;
82477556882434;0.0320;0.0305;-0.0312;
82477566988163;0.0362;0.0678;-0.0216;
82477577089048;0.0202;-0.0292;-0.0386;
82477587194830;0.0501;-0.0844;-0.0184;
82477597300559;0.0618;0.0326;-0.0056;
82477607415611;0.0724;0.1668;0.0125;
82477617521392;0.0458;0.0923;-0.0109;
82477627627121;0.0224;-0.0292;0.0125;
82477637727902;0.0107;-0.0620;0.0136;
82477647833684;-0.0096;-0.0972;-0.0077;
82477657939413;0.0277;-0.0940;-0.0248;
82477668038111;0.0490;-0.0940;-0.0205;
82477678143892;0.0469;-0.0324;-0.0173;
82477688249569;0.0628;0.0134;-0.0003;
82477698371392;0.0937;0.0348;0.0115;
82477708477225;0.0873;-0.0599;-0.0013;
82477718582955;0.0415;-0.1899;-0.0173;
82477728680194;0.0426;-0.0770;0.0136;
82477738785975;0.0117;0.0262;0.0189;
82477748891705;0.0234;0.0156;-0.0003;
82477758989777;0.0128;0.0337;-0.0184;
82477769095559;0.0394;0.1306;-0.0365;
82477779201288;0.0415;0.1796;-0.0237;
82477789311288;0.0927;0.1711;0.0232;
82477799417121;0.0927;0.0379;0.0189;
82477809522955;0.0895;-0.1334;-0.0077;
82477819635871;0.0352;-0.1057;-0.0194;
82477829741705;0.0138;-0.0004;-0.0045;
82477839847590;0.0202;-0.0366;-0.0237;
82477849943475;0.0128;0.0348;-0.0194;
82477860049309;0.0437;0.1317;-0.0045;
82477870155142;0.0373;0.0241;-0.0045;
82477880241027;0.0533;0.0326;-0.0152;
82477890346861;0.0543;0.0901;0.0093;
82477900452694;0.0714;-0.0567;0.0264;
82477910571548;0.0458;-0.0409;-0.0333;
82477920677382;0.0511;0.1967;-0.0546;
82477930783215;0.0341;0.1786;-0.0258;
82477940892746;0.0320;0.0230;-0.0333;
82477950998580;0.0383;0.0177;-0.0482;
82477961104413;0.0320;-0.0866;-0.0344;
82477971226236;0.0192;-0.1387;-0.0514;
82477981332017;0.0405;0.0273;-0.0525;
82477991437850;0.0565;0.0071;-0.0226;
82478001552434;0.0788;-0.0844;-0.0120;
82478011658267;0.0554;-0.0334;-0.0557;
82478021764100;0.0458;0.0507;-0.0706;
82478031843371;0.0362;0.0912;-0.0674;
82478041949205;0.0511;0.0486;-0.0631;
82478052055038;0.0565;0.0081;-0.0812;
82478062219777;0.0543;0.0103;-0.1036;
82478072325611;0.0575;0.0838;-0.0674;
82478082431444;0.0873;0.0337;-0.0631;
82478092482538;0.0927;-0.1356;-0.0631;
82478102588371;0.0852;-0.1739;-0.0940;
82478112694205;0.0831;-0.0642;-0.1228;
82478122840350;0.0831;0.0039;-0.0802;
82478132946184;0.0565;0.0198;-0.0823;
82478143052017;0.0575;0.0774;-0.1121;
82478153119621;0.0639;0.0742;-0.0908;
82478163225455;0.0916;0.0688;-0.0759;
82478173331288;0.1214;0.1125;-0.0844;
82478183429621;0.1236;-0.0493;-0.0642;
82478193535455;0.1033;-0.1963;-0.0684;
82478203641288;0.1278;-0.1260;-0.1089;
82478213768996;0.1118;-0.1654;-0.1569;
82478223874830;0.1811;-0.3582;-0.1132;
82478233980663;0.2301;-0.3198;-0.1121;
82478244057955;0.2418;-0.0791;-0.0738;
82478254163788;0.1182;-0.0270;-0.0525;
82478264269621;0.1087;-0.0599;-0.0003;
82478274407121;0.1843;0.0188;0.0178;
82478284512955;0.2109;0.1583;0.0253;
82478294618788;0.2109;0.2095;0.0626;
82478304735975;0.2067;0.2585;0.0019;
82478314841809;0.2365;0.3895;-0.0141;
82478324947642;0.2035;0.3841;-0.0407;
82478335028632;0.2386;0.5045;-0.0461;
82478345134465;0.2386;0.1519;-0.0035;
82478355240298;0.2684;-0.2932;0.0498;
82478365343163;0.1513;-0.1643;0.0816;
82478375448996;0.1257;-0.0929;0.1221;
82478385554830;0.1300;-0.1238;0.1477;
82478395651080;0.1257;-0.1302;0.1466;
82478405756913;0.1470;-0.0260;0.1040;
82478415862746;0.1502;0.0955;0.1221;
82478425975455;0.1363;0.0571;0.1242;
82478436081288;0.1374;0.0262;0.1178;
82478446187121;0.1150;0.0593;0.1221;
82478456320194;0.1385;0.0379;0.1360;
82478466425975;0.1438;0.0987;0.1455;
82478476531809;0.1523;0.1328;0.1860;
82478486618788;0.1513;0.0081;0.1913;
82478496724673;0.1438;-0.0036;0.1786;
82478506830455;0.1417;0.0688;0.1509;
82478516928632;0.1310;0.0454;0.1839;
82478527034465;0.1150;-0.0132;0.1828;
82478537140298;0.0905;-0.0802;0.1892;
82478547252330;0.0927;-0.0121;0.1892;
82478557358163;0.0895;-0.0324;0.1892;
82478567463996;0.1097;-0.1302;0.1988;
82478577562225;0.1108;-0.1238;0.2371;
82478587668059;0.1236;-0.0716;0.2542;
82478597773944;0.0937;0.0848;0.2095;
82478607884621;0.0969;0.0901;0.2126;
82478617990455;0.0724;-0.0185;0.2254;
82478628096288;0.0618;0.0316;0.2052;
82478638184621;0.0298;0.0848;0.1945;
82478648290455;-0.0053;0.1221;0.2084;
82478658396288;-0.0288;0.0273;0.2031;
82478668517225;-0.0053;0.0166;0.2063;
82478678623059;-0.0064;0.1935;0.2041;
82478688728892;-0.0586;0.0880;0.2031;
82478698851600;-0.0927;0.0177;0.1423;
82478708957434;-0.0394;-0.0036;0.1423;
82478719063267;-0.0469;-0.0567;0.1466;
82478729151392;-0.0575;0.0465;0.1360;
82478739257225;-0.1118;0.0039;0.1210;
82478749363059;-0.1204;-0.0684;0.1221;
82478759467538;-0.0969;-0.0620;0.1061;
82478769573371;-0.0937;-0.0855;0.1040;
82478779679205;-0.0628;-0.0812;0.0965;
82478789786132;-0.0394;-0.0961;0.0626;
82478799891965;-0.0053;-0.0057;0.0274;
82478809997746;-0.0075;-0.0079;0.0466;
82478820107330;-0.0170;-0.0578;0.0264;
82478830213111;-0.0586;-0.0185;0.0338;
82478840318944;-0.0479;-0.0089;0.0509;
82478850418892;-0.0639;-0.0025;0.0466;
82478860524673;-0.0415;0.0145;0.0338;
82478870630507;-0.0245;0.0188;0.0636;
82478880746392;-0.0298;0.1008;0.0891;
82478890852121;-0.0543;0.0923;0.0338;
82478900957955;-0.0383;0.0624;0.0264;
82478911060350;-0.0341;0.1061;0.0242;
82478921166184;-0.0501;0.0795;0.0264;
82478931271965;-0.0628;-0.0047;0.0381;
82478941362017;-0.0831;-0.0503;0.0360;
82478951467850;-0.0660;-0.0695;0.0423;
82478961573632;-0.0714;-0.0589;0.0455;
82478971676705;-0.0565;-0.0377;0.0551;
82478981782486;-0.0522;-0.0908;0.0509;
82478991888371;-0.0394;-0.2602;0.0200;
82479002039361;-0.0011;-0.0025;0.0051;
82479012145142;-0.0479;0.2734;0.0029;
82479022250975;-0.0586;0.2063;0.0232;
82479032325194;-0.0767;0.1072;0.0530;
82479042430975;-0.0490;0.1434;0.0647;
82479052536757;-0.0170;0.2116;0.0573;
82479062688788;-0.0458;0.1573;0.0573;
82479072794569;-0.0437;0.1040;0.0647;
82479082900402;-0.0522;0.1125;0.0189;
82479092947121;-0.0213;0.1519;-0.0162;
82479103052902;-0.0043;0.2702;0.0146;
82479113158736;-0.0160;-0.0313;0.0210;
82479123275559;-0.0298;-0.4019;0.0583;
82479133381340;-0.0330;-0.3955;0.0498;
82479143487173;-0.0927;-0.2964;0.0519;
82479153585871;-0.0415;-0.1931;0.0816;
82479163691705;-0.0362;-0.1579;0.0976;
82479173797486;-0.0256;-0.0876;0.1104;
82479183912121;-0.0320;0.0294;0.0690;
82479194017955;-0.0298;0.0390;0.0338;
82479204123736;-0.0107;0.0582;0.0498;
82479214254934;-0.0426;0.0550;0.0381;
82479224360715;-0.0490;0.0230;0.0360;
82479234466548;-0.0533;0.0603;0.0573;
82479244546705;-0.0437;-0.0015;0.0668;
82479254652486;-0.0298;-0.0356;0.0933;
82479264758319;-0.0224;0.0060;0.0901;
82479274866913;-0.0383;-0.0111;0.1232;
82479284972694;-0.0597;-0.0089;0.0891;
82479295078527;-0.0234;0.0752;0.0891;
82479305188475;-0.0533;0.0838;0.0848;
82479315294257;-0.0820;0.0145;0.0658;
82479325400090;-0.0927;0.0177;0.0827;
82479335498059;-0.0842;-0.0578;0.1210;
82479345603840;-0.0980;-0.0897;0.0891;
82479355709673;-0.0682;0.0145;0.0774;
82479365818580;-0.0873;0.0273;0.0997;
82479375924361;-0.1087;0.0209;0.0827;
82479386030194;-0.0756;0.1029;0.0605;
82479396134621;-0.0842;0.0912;0.0551;
82479406240402;-0.0788;-0.0366;0.0413;
82479416346236;-0.0810;-0.0908;0.0498;
82479426470663;-0.1332;-0.0398;0.0455;
82479436576444;-0.1108;0.0507;0.0498;
82479446682277;-0.1246;0.0827;0.0594;
82479456765715;-0.1193;0.0635;0.0541;
82479466871496;-0.0724;0.0443;0.0615;
82479476977277;-0.1289;0.0166;0.0125;
82479487083371;-0.1023;0.0539;-0.0258;
82479497189152;-0.0937;0.0092;-0.0141;
82479507294986;-0.0937;-0.0228;-0.0290;
82479517398996;-0.1182;0.0539;-0.0365;
82479527504777;-0.1438;-0.0610;-0.0439;
82479537610611;-0.1758;-0.2431;-0.0418;
82479547726080;-0.1491;-0.0493;-0.0557;
82479557831861;-0.1939;0.2276;-0.0674;
82479567937694;-0.2225;0.1338;-0.0407;
82479578032746;-0.1481;0.0443;-0.0919;
82479588138527;-0.0873;0.1381;-0.1036;
82479598244361;-0.1193;0.1530;-0.1228;
82479608364413;-0.1204;0.0795;-0.1419;
82479618470194;-0.1342;0.0209;-0.1281;
82479628576027;-0.1342;-0.0514;-0.1356;
82479638674205;-0.1118;0.0071;-0.1569;
82479648779986;-0.1076;0.0848;-0.1217;
82479658885819;-0.1523;-0.1877;-0.1132;
82479668991392;-0.0884;-0.3582;-0.1419;
82479679097173;-0.0799;-0.2154;-0.1782;
82479689203007;-0.1001;-0.0919;-0.1771;
82479699325194;-0.0895;-0.1409;-0.1718;
82479709430975;-0.0937;-0.1590;-0.1483;
82479719536809;-0.1140;-0.0546;-0.1750;
82479729634725;-0.1214;0.0166;-0.1888;
82479739740507;-0.0927;-0.0377;-0.1824;
82479749846340;-0.0714;0.0252;-0.1888;
82479759946652;-0.0490;0.0688;-0.1835;
82479770052434;-0.0650;0.0624;-0.1995;
82479780158215;-0.0362;0.0624;-0.2101;
82479790262330;-0.0362;0.0284;-0.2122;
82479800368163;-0.0021;0.0230;-0.2186;
82479810473944;-0.0032;0.0816;-0.2218;
82479820572955;0.0266;0.0635;-0.1824;
82479830678788;0.0362;-0.0025;-0.1579;
82479840784569;0.0650;-0.0047;-0.1483;
82479850895559;0.0767;0.0497;-0.1569;
82479861001392;0.0831;0.0060;-0.1451;
82479871107173;0.0895;-0.0451;-0.1718;
82479881230142;0.1118;-0.0535;-0.1537;
82479891335975;0.1044;-0.0503;-0.1569;
82479901441757;0.1310;-0.0610;-0.1611;
82479911525455;0.1534;-0.0834;-0.1483;
82479921631288;0.1481;-0.0674;-0.1292;
82479931737069;0.1363;-0.0748;-0.0951;
82479941837225;0.1225;-0.0068;-0.0567;
82479951943111;0.1374;0.0316;-0.0344;
82479962048892;0.1395;-0.0015;-0.0397;
82479972200194;0.1204;0.0411;-0.0642;
82479982305975;0.0916;0.1338;-0.0471;
82479992411809;0.1087;0.1157;-0.0535;
82480002469205;0.1225;-0.0238;-0.0557;
82480012575038;0.0916;-0.1739;-0.0652;
82480022680871;0.0213;0.0497;-0.0407;
82480032802173;0.0586;0.2861;-0.0109;
82480042908007;0.0927;0.1338;0.0285;
82480053013788;0.1129;-0.0324;0.0562;
82480063131705;0.0969;0.0880;0.0136;
82480073237538;0.0511;0.2265;-0.0173;
82480083343319;0.0362;0.0944;-0.0141;
82480093428371;0.0884;-0.0111;-0.0354;
82480103534205;0.0639;-0.0217;-0.0482;
82480113639986;0.0373;-0.0206;-0.0439;
82480123773475;0.0533;0.0678;-0.0397;
82480133879309;0.0543;-0.2304;0.0072;
82480143985090;0.0543;-0.4860;0.0317;
82480154090038;0.0692;-0.2676;0.0104;
82480164195871;0.0149;-0.0292;-0.0365;
82480174301652;-0.0192;-0.0111;-0.0269;
82480184382955;0.0639;-0.1121;-0.0120;
82480194488788;0.0895;-0.0111;-0.0386;
82480204594621;0.0533;0.0848;-0.0684;
82480214709413;0.0671;0.0188;-0.0642;
82480224815246;0.0714;0.0081;-0.0674;
82480234921027;0.0799;0.0294;-0.0567;
82480245027746;0.1023;-0.0100;-0.0280;
82480255133580;0.1065;-0.0185;-0.0482;
82480265239361;0.0639;-0.0270;-0.0759;
82480275339882;0.0650;-0.1004;-0.0525;
82480285445715;0.0692;-0.0897;-0.0642;
82480295551496;0.0660;-0.0174;-0.0972;
82480305640455;0.0362;0.0220;-0.0897;
82480315746288;0.0575;0.0944;-0.0727;
82480325852069;0.0735;0.0901;-0.0589;
82480335972746;0.0852;0.0007;-0.0557;
82480346078580;0.1076;0.0230;-0.0450;
82480356184361;0.0916;0.0806;-0.0620;
82480366294100;0.1001;0.0955;-0.0844;
82480376399934;0.0969;0.0752;-0.0802;
82480386505715;0.1012;-0.0142;-0.0866;
82480396610298;0.0873;-0.0461;-0.1004;
82480406716184;0.0948;-0.0409;-0.0855;
82480416821913;0.0703;-0.0802;-0.0567;
82480426946288;0.0863;-0.0791;-0.0461;
82480437052121;0.1140;-0.0493;-0.0077;
82480447157902;0.1246;0.0134;-0.0152;
82480457231600;0.1118;0.0688;-0.0642;
82480467337434;0.1097;0.0550;-0.0407;
82480477443215;0.1182;-0.0068;-0.0152;
82480487577330;0.1012;0.0507;-0.0993;
82480497683163;0.0948;0.1796;-0.0855;
82480507788996;0.1204;0.1818;-0.0365;
82480517879725;0.1246;0.1605;-0.0322;
82480527985559;0.1513;0.1658;0.0029;
82480538091340;0.1353;0.0912;0.0146;
82480548193632;0.1619;0.0838;0.0242;
82480558299465;0.1204;0.1828;-0.0184;
82480568405246;0.1118;0.1583;0.0040;
82480578520350;0.1087;0.0550;0.0051;
82480588626184;0.1172;0.0720;-0.0354;
82480598731965;0.1140;0.0134;-0.0450;
82480608853111;0.1140;-0.1249;-0.0407;
82480618958892;0.0991;-0.1015;-0.0567;
82480629064673;0.1118;-0.1409;0.0168;
82480639137330;0.1459;-0.1515;0.0381;
82480649243163;0.1715;-0.0503;0.0019;
82480659348944;0.1566;0.0475;-0.0056;
82480669473059;0.2162;0.0220;0.0232;
82480679578892;0.3206;-0.0727;0.0200;
82480689684673;0.3196;0.0156;0.0051;
82480699804309;0.2280;0.0891;0.0125;
82480709910194;0.2525;0.0688;0.0264;
82480720015975;0.3185;0.0976;0.0519;
82480730101965;0.3100;0.0092;0.0722;
82480740207798;0.3153;-0.0972;0.0987;
82480750313580;0.2652;-0.1345;0.0530;
82480760425142;0.2290;-0.1569;0.0732;
82480770530975;0.1715;-0.1345;0.1157;
82480780636757;0.1843;-0.0780;0.0848;
82480790740455;0.1768;-0.2655;0.0242;
82480800846288;0.1779;-0.5137;0.0370;
82480810952121;0.1555;0.0465;0.0763;
82480821051392;0.1864;0.5907;0.1818;
82480831157225;0.2152;0.1040;0.2190;
82480841263059;0.3281;-0.1632;0.2585;
82480851363788;0.4739;0.2350;0.2041;
82480861469621;0.2738;0.3735;0.2180;
82480871575455;0.1236;0.1232;0.2393;
82480881701913;0.2013;0.0049;0.2329;
82480891807746;0.1555;0.0827;0.2435;
82480901913580;0.0586;0.3458;0.2009;
82480912009048;0.0799;0.5917;0.2148;
82480922114830;-0.0266;-0.2900;0.3298;
82480932220663;0.0873;-0.7277;0.4012;
82480942309725;0.1193;-0.1270;0.3128;
82480952415611;-0.0873;0.0923;0.3106;
82480962521392;-0.2640;-0.0887;0.3181;
82480972613371;-0.1342;-0.0196;0.2766;
82480982719205;-0.0341;0.2009;0.2595;
82480992825038;-0.1118;0.2627;0.2563;
82481002970767;-0.0756;0.0742;0.2606;
82481013076600;0.0511;0.0092;0.2531;
82481023182434;0.0234;0.0774;0.2467;
82481033305767;-0.0234;-0.1270;0.2702;
82481043411600;-0.0256;-0.1888;0.2702;
82481053517434;-0.0639;0.0358;0.2180;
82481063604830;-0.1289;0.0550;0.2276;
82481073710663;-0.1502;-0.0292;0.2148;
82481083816496;-0.0927;0.0220;0.1850;
82481093923892;-0.0767;0.0262;0.1658;
82481104029725;-0.0490;-0.0302;0.1658;
82481114135559;-0.0426;-0.0599;0.1487;
82481124217955;-0.0597;-0.0738;0.1764;
82481134323788;-0.0447;-0.0302;0.1913;
82481144429621;-0.0479;0.1157;0.1626;
82481154538215;-0.0437;0.1977;0.1658;
82481164644048;-0.0373;0.1338;0.1509;
82481174749882;-0.0405;0.0241;0.1168;
82481184861288;-0.0522;0.0188;0.0891;
82481194967121;-0.0639;0.0635;0.1189;
82481205072955;-0.0820;0.0454;0.1221;
82481215179621;-0.0767;0.0049;0.1519;
82481225285455;-0.0660;0.0092;0.1328;
82481235391288;-0.0650;-0.0047;0.1402;
82481245504621;-0.0650;-0.0132;0.1274;
82481255610455;-0.0533;-0.0419;0.1242;
82481265716288;-0.0650;-0.0716;0.1072;
82481275821080;-0.0756;-0.0887;0.1157;
82481285926913;-0.0735;-0.0249;0.1200;
82481296032746;-0.1023;-0.0238;0.0997;
82481306137798;-0.1065;-0.0983;0.1104;
82481316243632;-0.1310;-0.0503;0.1370;
82481326349465;-0.1395;0.0571;0.1466;
82481336456392;-0.1736;0.0124;0.1296;
82481346562225;-0.1683;-0.0663;0.0955;
82481356668059;-0.1417;-0.0802;0.0838;
82481366772121;-0.2088;-0.1068;0.0763;
82481376877955;-0.2822;-0.1537;0.0402;
82481386983788;-0.3109;-0.1675;0.0051;
82481397086288;-0.3088;-0.1366;-0.0024;
82481407192121;-0.3301;-0.0206;-0.0162;
82481417297955;-0.3045;0.0827;-0.0045;
82481427422434;-0.2225;0.0561;0.0285;
82481437528267;-0.1779;0.0401;-0.0077;
82481447634100;-0.1395;0.1935;-0.0386;
82481457743371;-0.1790;0.1519;-0.0205;
82481467849205;-0.2067;-0.1036;-0.0684;
82481477955038;-0.1854;0.0763;-0.1132;
82481488035038;-0.1630;0.4257;-0.1526;
82481498140871;-0.2204;0.2414;-0.1196;
82481508246705;-0.2470;-0.0047;-0.0876;
82481518352017;-0.0842;0.0326;-0.0695;
82481528457850;-0.0799;-0.0419;-0.0493;
82481538563684;-0.2056;-0.1377;-0.0951;
82481548668163;-0.1449;-0.1153;-0.1111;
82481558773996;-0.1374;-0.0738;-0.0748;
82481568879830;-0.1481;0.0188;-0.1079;
82481578994413;-0.1108;0.2861;-0.1590;
82481589100246;-0.1427;0.0124;-0.1526;
82481599206080;-0.1310;-0.3241;-0.1281;
82481609315663;-0.0085;-0.0802;-0.1398;
82481619421496;-0.1246;0.0060;-0.1217;
82481629527330;-0.1321;-0.0302;-0.0834;
82481639631496;-0.0927;0.0273;-0.0940;
82481649737330;-0.0927;0.1221;-0.0972;
82481659843163;-0.0842;0.1796;-0.1345;
82481669949621;-0.0916;0.1264;-0.1324;
82481680055455;-0.0959;0.1008;-0.1526;
82481690161288;-0.0469;0.0859;-0.1387;
82481700257850;-0.0479;-0.0855;-0.1153;
82481710363684;-0.0778;-0.1569;-0.1270;
82481720469517;-0.0320;-0.1398;-0.1089;
82481730594413;-0.0735;-0.1835;-0.1260;
82481740700246;0.0096;-0.1846;-0.1057;
82481750806080;-0.0138;-0.1654;-0.1292;
82481760918788;0.0224;-0.0631;-0.1419;
82481771024673;0.0117;-0.1356;-0.1324;
82481781130455;-0.0085;-0.1760;-0.1281;
82481791211496;0.0362;0.0017;-0.1515;
82481801317277;0.0767;0.1541;-0.1324;
82481811423059;0.0756;0.1541;-0.0897;
82481821535038;0.0522;0.1370;-0.0482;
82481831640819;0.0565;0.0955;-0.1004;
82481841746600;0.0671;0.1232;-0.1153;
82481851844830;0.0170;0.0923;-0.1260;
82481861950663;0.0138;0.0806;-0.1238;
82481872056444;-0.0149;-0.0695;-0.1068;
82481882179934;-0.0064;-0.1270;-0.0929;
82481892285767;0.0032;-0.0684;-0.0748;
82481902391548;-0.0181;-0.1377;-0.0866;
82481912476496;0.0160;-0.0972;-0.0397;
82481922582277;-0.0032;-0.0812;-0.0248;
82481932688059;0.0170;-0.0908;-0.0141;
82481942802955;-0.0021;0.0177;-0.0333;
82481952908736;-0.0170;0.0369;-0.0493;
82481963014517;-0.0405;0.0209;-0.0812;
82481973129777;-0.0128;0.0379;-0.0738;
82481983235559;0.0085;0.0593;-0.0397;
82481993341340;0.0341;0.1051;-0.0184;
82482003461392;0.0160;0.0742;0.0072;
82482013567173;-0.0170;-0.0249;0.0253;
82482023672955;-0.0373;-0.0940;0.0264;
82482033750975;-0.0501;-0.1057;0.0136;
82482043856757;-0.0224;-0.0802;0.0338;
82482053962538;-0.0320;-0.0471;0.0306;
82482064069725;-0.0533;-0.0249;0.0146;
82482074175507;-0.0213;0.0656;0.0498;
82482084281288;-0.0660;0.0326;0.0083;
82482094397277;-0.0383;-0.0929;0.0157;
82482104503111;-0.0096;-0.0313;0.0434;
82482114608840;-0.0426;0.0188;0.0573;
82482124703684;-0.0671;-0.1111;0.0178;
82482134809465;-0.0298;-0.0260;0.0189;
82482144915246;-0.0298;-0.0324;0.0381;
82482155030350;-0.0607;0.0912;-0.0312;
82482165136132;-0.0533;0.1658;-0.0120;
82482175241913;-0.0341;0.0859;-0.0184;
82482185341184;0.0149;-0.0036;-0.0109;
82482195446965;0.0107;-0.0302;-0.0280;
82482205552746;0.0245;0.0422;-0.0205;
82482215662225;-0.0181;-0.0695;0.0136;
82482225768007;-0.0394;-0.1334;-0.0439;
82482235873788;0.0000;0.0358;-0.0695;
82482245987434;-0.0085;0.0241;-0.0674;
82482256093215;0.0341;-0.0036;-0.0727;
82482266198996;-0.0011;-0.0791;-0.0919;
82482276292017;-0.0149;-0.1430;-0.1047;
82482286397798;0.0277;-0.0535;-0.1196;
82482296503580;0.0181;0.1413;-0.0812;
82482306602017;0.0458;0.1093;-0.0567;
82482316707798;0.0096;-0.1856;-0.1047;
82482326813580;0.0149;0.1988;-0.1515;
82482336933371;0.0437;0.6312;-0.0908;
82482347039152;0.0170;0.3075;-0.1057;
82482357144934;0.0053;-0.0546;-0.0834;
82482367246600;0.0543;0.1242;-0.1185;
82482377352382;-0.0032;0.0752;-0.1142;
82482387458163;-0.0362;-0.0652;-0.1206;
82482397559517;0.0266;-0.0514;-0.0802;
82482407665298;0.0107;-0.2399;-0.0525;
82482417771132;-0.0277;-0.1302;-0.1196;
82482427886809;0.0724;0.3053;-0.0844;
82482437992590;-0.0479;-0.2602;-0.0184;
82482448098371;-0.0373;-0.6309;-0.0407;
82482458220246;0.0383;-0.1909;-0.0887;
82482468326027;0.0075;0.1274;-0.0887;
82482478431809;-0.0394;-0.0100;-0.0354;
82482488521913;-0.0469;-0.0706;-0.0333;
82482498627694;0.0469;0.0997;-0.0514;
82482508733475;0.0266;0.1061;-0.0695;
82482518849152;-0.0277;-0.0695;-0.0887;
82482528954882;0.0373;-0.1089;-0.0450;
82482539060663;0.0245;-0.0036;-0.0695;
82482549155455;0.0437;0.0369;-0.0802;
82482559261236;0.0075;0.0284;-0.0503;
82482569367017;0.0373;-0.0482;-0.0663;
82482579478892;0.0554;-0.1142;-0.0695;
82482589584673;0.0714;-0.1111;-0.0642;
82482599690507;0.0831;-0.0897;-0.0375;
82482609802225;0.1321;-0.0270;-0.0173;
82482619908059;0.1268;0.1051;-0.0290;
82482630013788;0.1225;0.0965;-0.0120;
82482640103215;0.1651;0.0017;0.0029;
82482650208944;0.2003;0.0081;0.0019;
82482660314725;0.1960;0.0411;0.0061;
82482670412538;0.1609;-0.0493;0.0317;
82482680518319;0.1044;0.0518;0.0391;
82482690624100;0.1225;0.0497;0.0668;
82482700755142;0.0991;-0.0089;0.0690;
82482710860923;0.0842;0.0390;0.0402;
82482720966757;0.0597;-0.0748;0.0573;
82482731062225;0.0511;-0.2485;0.1083;
82482741168007;0.0788;-0.2133;0.0605;
82482751273788;0.0511;-0.1366;0.0626;
82482761375559;0.0479;-0.1398;0.0838;
82482771481340;0.0224;-0.2655;0.0806;
82482781587121;0.0820;-0.4849;0.0668;
82482791684205;0.1129;0.0454;0.0221;
82482801789986;0.0394;0.7622;0.1328;
82482811895819;0.0597;0.4875;0.1818;
82482822023111;0.1406;0.0550;0.2031;
82482832128892;0.0362;0.2830;0.1828;
82482842234673;0.0746;0.6088;0.1743;
82482852326392;0.0362;0.3714;0.1818;
82482862432225;-0.0362;0.0678;0.1871;
82482872537955;-0.0767;0.1530;0.1679;
82482882640871;-0.1118;0.4268;0.1328;
82482892746652;-0.0937;0.5301;0.1562;
82482902852434;-0.2864;-0.3507;0.1999;
82482912967434;-0.1640;-0.8385;0.2201;
82482923073215;0.0415;-0.3891;0.1668;
82482933178996;-0.0746;-0.1771;0.1839;
82482943294517;-0.1534;-0.2325;0.2009;
82482953400298;-0.2236;-0.1718;0.1945;
82482963506080;-0.1758;0.1019;0.1509;
82482973597746;-0.1481;0.2318;0.1178;
82482983703527;-0.1566;0.1019;0.1221;
82482993809309;-0.0458;0.0795;0.1242;
82483003918788;-0.0405;0.1498;0.0912;
82483014024569;-0.0948;-0.0260;0.0944;
82483024130350;-0.0671;-0.1984;0.0955;
82483034230038;-0.0522;-0.0876;0.0402;
82483044335819;-0.0660;-0.0142;0.0541;
82483054441600;-0.0895;-0.0897;0.0859;
82483064569413;-0.0650;-0.0972;0.0658;
82483074675194;-0.0181;0.0092;0.0562;
82483084780975;-0.0138;0.0028;0.0583;
82483094871965;0.0138;-0.0759;0.0615;
82483104977746;-0.0234;-0.0525;0.0274;
82483115083527;-0.0362;-0.0047;0.0317;
82483125189309;-0.0447;-0.0036;0.0157;
82483135295090;-0.0458;0.0443;0.0146;
82483145400871;-0.0543;0.1051;0.0136;
82483155502538;-0.0394;0.0624;-0.0056;
82483165608319;-0.0575;0.0103;-0.0226;
82483175714100;0.0011;0.0529;0.0168;
82483185837225;-0.0181;-0.0674;0.0445;
82483195943007;-0.0575;-0.1515;0.0200;
82483206048788;-0.0575;-0.0334;-0.0216;
82483216145455;-0.0948;0.0017;0.0189;
82483226251236;-0.1672;-0.1111;-0.0130;
82483236357017;-0.0980;-0.1132;-0.0503;
82483246483527;-0.0597;-0.0684;-0.0322;
82483256589257;-0.0863;0.0134;-0.0077;
82483266695038;-0.0565;0.1264;-0.0109;
82483276776496;-0.0128;0.0987;0.0466;
82483286882277;-0.0469;-0.0897;0.0306;
82483296988059;-0.0330;-0.0089;-0.0365;
82483307094309;-0.0479;0.2350;-0.0173;
82483317200090;-0.0810;0.1072;0.0221;
82483327305871;-0.0767;-0.1505;-0.0088;
82483337407225;-0.0597;-0.0631;-0.0642;
82483347513007;-0.0660;0.1008;-0.0482;
82483357618788;-0.1161;0.0316;-0.0216;
82483367736548;-0.1481;-0.1409;-0.0120;
82483377842330;-0.0682;-0.1931;-0.0226;
82483387948111;-0.0618;-0.1057;-0.0525;
82483398050975;-0.1363;0.0624;-0.0972;
82483408156757;-0.1385;0.0976;-0.0567;
82483418262538;-0.1822;-0.0993;-0.0961;
82483428385194;-0.0884;-0.0759;-0.0748;
82483438490975;-0.0618;0.1818;-0.1228;
82483448596757;-0.1182;0.1999;-0.1004;
82483458677173;-0.1140;0.0486;-0.0834;
82483468782902;-0.0234;0.0401;-0.0706;
82483478888684;-0.0192;0.0827;-0.0866;
82483489004465;-0.0639;0.0603;-0.1047;
82483499110246;-0.0842;0.0774;-0.1057;
82483509216027;-0.0660;0.0529;-0.1206;
82483519308684;-0.0692;-0.0430;-0.1174;
82483529414465;-0.0437;-0.0057;-0.1611;
82483539520246;-0.0085;0.0561;-0.1153;
82483549636288;-0.0671;-0.1089;-0.1196;
82483559742121;0.0192;-0.1313;-0.1206;
82483569847850;0.0565;-0.1238;-0.0972;
82483579942017;0.1129;-0.1675;-0.0546;
82483590047798;0.0490;-0.1047;-0.1494;
82483600153632;0.1161;-0.0238;-0.1036;
82483610276496;0.1268;-0.0270;-0.0620;
82483620382277;0.1491;-0.0482;-0.0663;
82483630488059;0.1427;-0.0015;-0.0876;
82483640617694;0.1374;0.1040;-0.0386;
82483650723475;0.0948;0.1423;0.0008;
82483660829257;0.1534;0.1232;0.0391;
82483670897642;0.1321;0.0859;0.0381;
82483681003423;0.1438;0.0262;0.0210;
82483691109205;0.0969;0.0092;0.0178;
82483701229934;0.0266;-0.0599;0.0317;
82483711335715;0.0085;-0.1867;0.0232;
82483721441496;0.0138;-0.2676;0.0200;
82483731545975;0.0256;-0.1984;0.0594;
82483741651757;0.0181;-0.1995;0.0455;
82483751757538;0.0298;-0.3401;0.0530;
82483761868996;-0.0021;-0.4285;0.0784;
82483771974830;0.0533;-0.0834;0.0976;
82483782080611;-0.0533;0.3565;0.0763;
82483792237434;-0.1928;0.3991;0.0859;
82483802343892;-0.0820;0.1977;0.1040;
82483812450298;0.0362;0.2095;0.0658;
82483822483059;-0.0107;0.4172;0.0360;
82483832589517;-0.0032;0.3096;0.0551;
82483842695923;-0.0309;0.0806;0.0455;
82483852848423;-0.0245;0.1040;0.0381;
82483862954882;-0.0628;0.2371;0.0455;
82483873061288;-0.1417;0.2233;0.0423;
82483883105663;-0.1949;-0.1814;0.0232;
82483893212121;-0.1076;-0.4434;0.0466;
82483903318527;-0.1033;-0.4487;0.0434;
82483913440975;-0.1715;-0.3901;0.0285;
82483923547434;-0.2758;-0.2389;0.0168;
82483933653892;-0.2598;-0.1356;0.0210;
82483943757382;-0.2449;0.0092;-0.0035;
82483953863840;-0.2077;0.2126;-0.0354;
82483963970298;-0.1161;0.2425;-0.0322;
82483974092277;-0.0298;0.0752;-0.0461;
82483984198736;0.0107;0.0273;-0.0578;
82483994305142;0.0192;0.1807;-0.0738;
82484004413892;-0.0810;0.1093;-0.1079;
82484014520350;-0.0937;-0.0132;-0.1238;
82484024626757;-0.0586;0.0294;-0.1174;
82484034715871;-0.0863;-0.0983;-0.1249;
82484044822330;-0.0724;-0.1292;-0.1206;
82484054928788;-0.0437;-0.1579;-0.1036;
82484065024309;-0.0266;-0.2367;-0.1100;
82484075130767;-0.0405;-0.1526;-0.1334;
82484085237173;-0.0298;-0.0535;-0.1313;
82484095343163;-0.0479;-0.0471;-0.0908;
82484105449621;-0.0543;-0.1228;-0.1430;
82484115556080;-0.0170;-0.0727;-0.1654;
82484125661913;-0.0117;0.0401;-0.1590;
82484135768371;-0.0213;0.0433;-0.1739;
82484145874830;0.0160;-0.0036;-0.1707;
82484155978892;0.0692;-0.0281;-0.1601;
82484166085350;0.1055;0.0475;-0.1313;
82484176191809;0.0820;0.0955;-0.1686;
82484186311184;0.0991;-0.0366;-0.1846;
82484196417642;0.2141;-0.0897;-0.1398;
82484206524048;0.1374;0.0230;-0.1569;
82484216624413;0.0522;0.0284;-0.1356;
82484226730871;0.0810;0.0134;-0.1132;
82484236837277;0.1097;0.0561;-0.0919;
82484246944882;0.0884;0.0561;-0.0866;
82484257051340;0.0905;0.1168;-0.0652;
82484267157746;0.1097;0.1360;-0.0866;
82484277253215;0.1321;-0.0345;-0.1174;
82484287359673;0.1630;-0.1015;-0.1079;
82484297466080;0.1449;-0.0866;-0.1174;
82484307571080;0.0788;-0.1441;-0.0567;
82484317677538;0.0341;-0.1526;-0.0855;
82484327783944;0.0639;0.0039;-0.1185;
82484337893996;0.1055;0.1242;-0.0834;
82484348000455;0.1033;0.0262;-0.0493;
82484358106861;0.1939;-0.0164;-0.0130;
82484368210038;0.2013;0.0017;-0.0578;
82484378316496;0.1779;-0.0356;-0.0748;
82484388422902;0.1513;0.0316;-0.0738;
82484398522017;0.1363;0.0806;-0.0450;
82484408628475;0.1523;0.0710;-0.0567;
82484418734882;0.2109;0.0049;-0.0205;
82484428858580;0.1726;-0.0929;-0.0375;
82484438965038;0.1758;-0.1111;-0.0152;
82484449071496;0.1822;-0.1622;0.0636;
82484459162121;0.1236;-0.1196;0.0806;
82484469268580;0.1300;0.0518;0.0573;
82484479375038;0.1097;0.1029;0.0816;
82484489477955;0.1300;0.1551;0.0806;
82484499584413;0.1012;0.1605;0.0987;
82484509690819;0.0714;0.0880;0.0923;
82484519801288;0.0799;0.1477;0.0658;
82484529907746;0.1076;0.1881;0.1349;
82484540014152;0.0842;0.0997;0.1871;
82484550112225;0.0895;-0.0015;0.1722;
82484560218684;0.0682;0.0124;0.1306;
82484570325090;-0.0096;0.0348;0.1658;
82484580427382;-0.0298;-0.0217;0.1732;
82484590533840;-0.0320;-0.0695;0.1636;
82484600640298;-0.0746;-0.0897;0.1562;
82484610739413;-0.1236;-0.0461;0.1711;
82484620845871;-0.1534;0.0166;0.1232;
82484630952277;-0.0820;0.0422;0.1583;
82484641087173;-0.0799;0.0262;0.1722;
82484651193632;-0.0352;0.0134;0.1200;
82484661300038;-0.0011;0.0561;0.0987;
82484671372746;-0.0266;-0.0228;0.1083;
82484681479205;-0.0607;-0.0791;0.0869;
82484691585663;-0.1012;0.0507;0.0509;
82484701683371;-0.1150;0.0944;0.0700;
82484711789830;-0.1001;0.0028;0.0647;
82484721896236;-0.0245;-0.0196;0.0210;
82484732031392;-0.0320;0.0667;0.0466;
82484742137850;-0.0501;0.1381;0.0626;
82484752244257;0.0362;0.0774;0.0051;
82484762329569;0.0149;0.0571;-0.0301;
82484772436027;0.0149;0.1029;-0.0205;
82484782542486;0.0149;0.0614;-0.0599;
82484792653423;0.0160;-0.1345;-0.0695;
82484802758840;0.0266;-0.3198;-0.0876;
82484812864309;0.0298;-0.2314;-0.0738;
82484822957902;-0.0533;0.0987;-0.0855;
82484833063371;0.0479;0.2744;-0.0152;
82484843168788;0.2610;0.3288;-0.0099;
82484853313111;0.3569;0.3980;-0.0237;
82484863418527;0.2599;0.3682;0.0370;
82484873523996;0.1779;0.2627;0.0306;
82484883617902;0.1321;0.2616;0.0541;
82484893723319;0.0352;0.3085;0.0445;
82484903828788;0.0756;0.2808;0.0306;
82484913932590;0.0959;0.2116;0.0583;
82484924038007;0.0905;0.0539;0.0583;
82484934143475;0.0905;-0.3134;0.0774;
82484944242330;0.0352;-0.5435;0.0647;
82484954347746;0.0032;-0.4871;0.1104;
82484964453215;-0.1332;-0.3507;0.1434;
82484974553215;-0.2353;-0.1941;0.1221;
82484984658684;-0.1960;-0.0716;0.1434;
82484994764100;-0.0639;-0.0345;0.1583;
82485004878111;0.0309;0.0497;0.0912;
82485014983527;0.0415;0.1391;0.0997;
82485025088996;0.0479;0.1924;0.1232;
82485035190402;0.0692;0.2233;0.0784;
82485045295819;0.0820;0.1466;0.0573;
82485055401288;0.0692;0.0188;0.0679;
82485065500611;0.0245;-0.0844;0.0838;
82485075606027;-0.0266;-0.1601;0.1136;
82485085711496;-0.0735;-0.1931;0.0848;
82485095820715;-0.1055;-0.1888;0.0976;
82485105926132;-0.1736;-0.1292;0.1189;
82485116031600;-0.2099;0.0113;0.1221;
82485126144361;-0.1534;0.0284;0.1210;
82485136249777;-0.0522;-0.0674;0.0806;
82485146355246;-0.0394;0.0156;0.0413;
82485156466132;-0.0533;0.1221;0.0210;
82485166571600;-0.0511;0.0710;0.0285;
82485176677017;-0.1033;-0.0419;0.0221;
82485186760715;-0.0820;-0.0068;0.0072;
82485196866184;-0.1395;0.0784;-0.0237;
82485206971600;-0.1140;0.0337;0.0093;
82485217098111;-0.1087;-0.0493;0.0051;
82485227203580;-0.1033;-0.0493;-0.0375;
82485237308996;-0.1321;0.0561;-0.0738;
82485247404257;-0.1023;0.0933;-0.0429;
82485257509673;-0.0447;-0.0281;-0.0493;
82485267615142;-0.0479;-0.0802;-0.0610;
82485277741757;-0.0863;-0.0302;-0.0706;
82485287847173;-0.0778;0.0007;-0.0748;
82485297952642;-0.0256;-0.0079;-0.0567;
82485308057277;-0.0107;0.0326;-0.0439;
82485318162746;0.0160;0.0699;-0.0535;
82485328268163;0.0490;0.0614;-0.0674;
82485338360923;0.0224;0.0955;-0.0578;
82485348466340;-0.0096;-0.0430;-0.0663;
82485358571809;0.0096;-0.2186;-0.0716;
82485368683944;-0.0469;-0.1111;-0.0802;
82485378789361;-0.0873;0.0124;-0.0951;
82485388894830;-0.0447;0.0113;-0.0493;
82485398997590;-0.0138;0.0134;-0.0610;
82485409103007;0.0160;0.0081;-0.0258;
82485419208475;-0.0266;-0.0727;-0.0141;
82485429332694;-0.0117;-0.0366;-0.0663;
82485439438111;-0.0224;0.0529;-0.0375;
82485449543580;-0.0085;0.0294;-0.0503;
82485459626548;-0.0565;-0.0206;-0.0450;
82485469732017;-0.0511;0.0646;-0.0993;
82485479837434;-0.0618;0.0262;-0.0589;
82485489942798;-0.0128;-0.0409;-0.0514;
82485500048215;0.0043;-0.1249;-0.0088;
82485510153684;0.0575;-0.1515;0.0189;
82485520259830;0.0373;-0.0716;-0.0130;
82485530365246;0.0437;-0.0089;-0.0035;
82485540470715;0.0458;0.0060;-0.0099;
82485550587590;0.0756;-0.0057;-0.0216;
82485560693007;0.0245;-0.0748;-0.0652;
82485570798475;0.0447;-0.0334;0.0029;
82485580905507;0.0138;0.0017;-0.0216;
82485591010923;0.0256;-0.0228;-0.0035;
82485601116392;0.0565;0.0358;0.0391;
82485611223944;0.0724;0.0901;0.0455;
82485621329361;0.0905;0.1104;0.0285;
82485631434830;0.0778;0.0561;0.0498;
82485641520090;0.0767;0.0710;0.0360;
82485651625507;0.0160;0.0454;0.0040;
82485661730975;-0.0053;-0.0238;0.0242;
82485671839569;0.0043;-0.0196;0.0210;
82485681944986;0.0160;-0.0493;0.0722;
82485692050455;0.0320;-0.0844;0.0360;
82485702224517;0.0469;-0.1111;0.0168;
82485712329934;0.0128;-0.1569;0.0338;
82485722435402;0.0011;-0.1377;0.0029;
82485732492434;0.0053;-0.1984;0.0423;
82485742597902;0.0288;0.0134;0.0551;
82485752703319;0.0479;0.3181;0.0848;
82485762851965;0.0277;0.2137;0.0743;
82485772957382;-0.0043;0.0454;0.0722;
82485783062850;0.0394;0.1743;0.0679;
82485793124673;0.0053;0.1967;0.0838;
82485803230194;0.0000;0.0752;0.0880;
82485813335715;0.0117;0.1285;0.0498;
82485823426548;0.0245;0.0869;0.0679;
82485833532069;0.0309;-0.0111;0.0413;
82485843637590;0.0277;0.0891;0.0370;
82485853771132;-0.0362;-0.2581;0.0955;
82485863876652;-0.0788;-0.5584;0.1370;
82485873982173;-0.1001;-0.2687;0.0763;
82485884062434;-0.2438;-0.0196;0.0668;
82485894167955;-0.3439;0.0230;0.1168;
82485904273475;-0.2694;0.0784;0.0754;
82485914404569;-0.1182;0.1860;-0.0056;
82485924510090;-0.1033;0.1285;-0.0216;
82485934615611;-0.1097;0.1029;-0.0461;
82485944709934;-0.0905;0.1232;-0.0482;
82485954815455;-0.0959;0.1306;-0.0290;
82485964920975;-0.1214;0.1136;-0.0567;
82485975024882;-0.0969;0.0656;-0.0439;
82485985130402;-0.0735;0.0390;-0.0024;
82485995235923;-0.0447;-0.0514;0.0083;
82486005332798;-0.0831;-0.1601;-0.0429;
82486015438319;-0.0714;-0.0887;-0.0567;
82486025543840;-0.0447;-0.0111;-0.0716;
82486035671757;-0.0330;0.0049;-0.0525;
82486045777277;-0.0533;0.0220;-0.0599;
82486055882798;0.0075;0.0827;-0.0514;
82486065989361;-0.0181;0.0880;-0.0620;
82486076094882;-0.0352;0.0273;-0.0450;
82486086200402;-0.0085;0.0081;-0.0003;
82486096303840;-0.0170;0.1146;-0.0418;
82486106409361;-0.0064;0.2169;-0.0716;
82486116514882;-0.0192;0.1029;-0.0354;
82486126616600;0.0245;0.0252;-0.0514;
82486136722121;0.1204;0.0539;-0.0407;
82486146827642;0.0948;-0.0642;-0.0354;
82486156940819;0.1012;-0.1654;-0.0141;
82486167046340;0.1023;-0.1068;0.0423;
82486177151861;0.0490;-0.1366;0.0530;
82486187265194;0.0660;-0.1281;0.0477;
82486197370715;0.0714;-0.0334;0.0434;
82486207476184;0.0586;0.0486;0.0700;
82486217580819;0.0426;0.0603;0.0605;
82486227686340;0.0575;-0.0334;0.0178;
82486237791809;0.0543;-0.1047;0.0178;
82486247888319;-0.0053;-0.0111;0.0178;
82486257993840;-0.0213;0.0134;0.0679;
82486268099361;0.0117;-0.0727;0.0880;
82486278211132;0.0234;-0.1111;0.0891;
82486288316652;0.0064;-0.0514;0.0700;
82486298422173;0.0085;0.0465;0.0498;
82486308522486;0.0213;0.0198;0.0976;
82486318628007;0.0138;-0.0281;0.0754;
82486328733527;0.0107;-0.0525;0.0466;
82486338846340;-0.0107;-0.0057;0.0402;
82486348951861;-0.0224;-0.0057;0.0658;
82486359057382;-0.0160;-0.1526;0.0626;
82486369165090;-0.0117;-0.2165;0.0784;
82486379270611;-0.0075;-0.1270;0.0658;
82486389376132;-0.0075;-0.1079;0.0402;
82486399470298;0.0053;-0.1718;0.0285;
82486409575819;-0.0192;-0.4626;0.0477;
82486419681340;-0.0852;-0.5606;-0.0130;
82486429801444;-0.2045;0.0348;-0.0887;
82486439906965;-0.4718;0.4374;-0.0578;
82486450012486;-0.1832;0.2925;0.0051;
82486460107798;0.0905;0.2947;0.0296;
82486470213319;0.0660;0.5290;0.0562;
82486480318840;-0.0107;0.5885;0.0562;
82486490434569;-0.0607;0.4832;0.0264;
82486500540090;-0.0810;0.4065;0.0178;
82486510645611;-0.0714;0.3501;-0.0003;
82486520759986;-0.0820;0.6802;-0.0578;
82486530865507;-0.2491;0.4971;-0.0450;
82486540970975;-0.4068;-0.5244;0.0093;
82486551058840;-0.1257;-0.5925;-0.0514;
82486561164361;-0.1204;-0.4008;-0.0578;
82486571269882;-0.3067;-0.3667;-0.0280;
82486581384777;-0.3748;-0.3060;-0.0344;
82486591490298;-0.2768;-0.1174;-0.0461;
82486601595819;-0.1481;0.0582;-0.0876;
82486611701444;-0.1012;0.1029;-0.1451;
82486621806965;-0.0895;0.1381;-0.1696;
82486631912486;-0.0447;0.2009;-0.1782;
82486642057330;-0.0181;0.1189;-0.1686;
82486652162902;-0.0383;0.0113;-0.1611;
82486662268371;-0.0032;0.0337;-0.1569;
82486672337955;-0.0085;-0.0983;-0.1356;
82486682443475;-0.0490;-0.2325;-0.1654;
82486692548996;-0.0511;-0.0897;-0.1824;
82486702666027;-0.0703;-0.0482;-0.1782;
82486712771548;-0.0607;-0.1185;-0.1782;
82486722877069;0.0437;-0.0972;-0.1601;
82486732959882;0.0842;-0.1047;-0.1707;
82486743065402;0.1662;-0.0493;-0.1750;
82486753170923;0.2226;-0.0313;-0.1238;
82486763287798;0.2248;-0.1728;-0.0770;
82486773393319;0.2951;-0.1079;-0.0546;
82486783498840;0.2375;0.0816;-0.1196;
82486793600715;0.1172;0.0294;-0.1036;
82486803706288;0.0682;-0.1111;-0.0620;
82486813811861;0.0895;-0.0866;-0.0471;
82486823919569;0.0703;0.0134;-0.0397;
82486834025142;0.0490;0.0720;-0.0120;
82486844130715;0.0362;0.0944;0.0210;
82486854261861;0.0426;0.0348;0.0754;
82486864367434;0.0373;-0.0079;0.0848;
82486874473007;0.0298;0.0848;0.0274;
82486884554465;0.0288;0.1210;0.0530;
82486894660038;-0.0394;0.1019;0.0381;
82486904765611;0.0352;0.1594;0.0221;
82486914859673;0.0618;0.2425;0.0774;
82486924965246;0.0085;0.1764;0.1040;
82486935070819;0.0117;0.0838;0.1402;
82486945204882;-0.0117;0.0103;0.1530;
82486955310455;-0.0128;-0.0111;0.1573;
82486965416027;-0.0266;-0.0441;0.1434;
82486975517590;-0.0735;-0.0292;0.0743;
82486985623163;-0.0873;-0.0706;0.0658;
82486995728736;-0.1012;-0.1111;0.0795;
82487005837798;-0.1342;-0.0398;0.0519;
82487015943371;-0.0991;-0.0345;0.0285;
82487026048944;-0.0362;-0.2005;0.0573;
82487036146600;-0.0490;-0.2048;0.0466;
82487046252173;-0.0479;-0.1004;0.1136;
82487056357746;-0.0820;-0.0089;0.1626;
82487066462902;-0.0639;0.0262;0.0933;
82487076568475;-0.0746;0.0720;0.0296;
82487086674048;-0.1023;0.2063;-0.0077;
82487096776340;-0.0565;0.3032;-0.0130;
82487106881913;-0.0533;0.2020;-0.0045;
82487116987486;-0.0469;-0.0546;0.0061;
82487127106184;0.0043;-0.0557;0.0125;
82487137211757;-0.0107;0.0071;0.0381;
82487147317330;-0.0543;-0.0759;0.0530;
82487157419673;-0.0394;-0.0866;0.0816;
82487167525246;-0.0927;-0.1611;0.0146;
82487177630819;-0.0586;-0.1004;0.0370;
82487187744673;-0.0788;0.0166;0.0040;
82487197850246;-0.0937;-0.0812;-0.0429;
82487207955819;-0.0266;-0.0972;-0.0386;
82487218048944;-0.0383;-0.0876;-0.0077;
82487228154517;-0.0213;0.0188;-0.0184;
82487238260090;-0.0085;0.0944;0.0466;
82487248371757;-0.0149;-0.0387;0.0700;
82487258477330;-0.0352;-0.0471;-0.0280;
82487268582902;-0.0341;0.0965;-0.0461;
82487278689361;-0.0735;0.0997;-0.0173;
82487288794934;-0.0352;0.0955;-0.0280;
82487298900507;-0.0202;0.1722;-0.0450;
82487309003007;-0.0277;0.1445;-0.0418;
82487319108580;-0.0437;0.0401;-0.0407;
82487329214152;-0.0064;0.0348;0.0029;
82487339311132;-0.0256;-0.0430;0.0210;
82487349416705;-0.0426;-0.1920;0.0104;
82487359522277;-0.0469;-0.1356;-0.0120;
82487369644882;-0.0256;0.0624;-0.0248;
82487379750455;-0.0330;0.0507;-0.0184;
82487389856027;-0.0607;-0.0929;-0.0333;
82487399955871;-0.0202;-0.1782;-0.0418;
82487410061444;-0.0245;-0.0727;-0.0248;
82487420167017;-0.0479;-0.0089;-0.0375;
82487430270298;-0.0373;-0.0620;-0.0003;
82487440375871;-0.0138;-0.0471;0.0434;
82487450481444;-0.0447;-0.0706;0.0253;
82487460592069;-0.0181;0.0678;-0.0269;
82487470697642;-0.0032;0.1977;0.0029;
82487480803215;-0.0586;-0.1228;0.0072;
82487490905767;-0.0352;-0.1238;-0.0322;
82487501011340;-0.0256;0.0869;-0.0301;
82487511116913;-0.0256;0.0731;0.0253;
82487521224569;-0.0597;-0.0334;0.0232;
82487531330142;-0.0309;-0.0100;0.0264;
82487541435715;-0.0405;0.0614;0.0594;
82487551527382;-0.0735;0.0113;0.0274;
82487561632955;-0.0533;0.0624;0.0434;
82487571738527;-0.0597;0.0848;0.0285;
82487581857173;-0.0735;-0.0620;0.0232;
82487591962746;-0.0618;-0.1206;-0.0003;
82487602068319;-0.0575;-0.0228;0.0072;
82487612246652;-0.0969;0.0017;0.0029;
82487622352225;-0.1097;-0.1334;0.0264;
82487632457798;-0.0682;-0.0791;0.0562;
82487642490923;-0.0426;0.0614;0.0827;
82487652596496;-0.0959;0.0134;0.0413;
82487662702069;-0.0618;0.0390;0.0210;
82487672846392;-0.0479;0.0103;0.0391;
82487682951965;-0.0767;-0.0366;0.0221;
82487693057538;-0.0873;0.0252;-0.0035;
82487703112850;-0.0927;0.1008;-0.0152;
82487713218371;-0.1012;0.0166;-0.0141;
82487723323996;-0.0884;-0.1068;0.0029;
82487733429569;-0.0373;-0.0025;0.0115;
82487743541027;-0.0937;0.0039;0.0413;
82487753646600;-0.0905;-0.1292;0.0072;
82487763752173;-0.0969;-0.0695;-0.0035;
82487773859986;-0.0767;0.0358;-0.0312;
82487783965559;-0.1236;0.0614;-0.0162;
82487794071132;-0.1374;0.1051;-0.0429;
82487804174465;-0.0937;0.0198;-0.0642;
82487814280090;-0.0522;-0.0142;-0.0503;
82487824385663;-0.0362;0.0252;-0.0194;
82487834489882;-0.0490;0.0145;0.0200;
82487844595455;-0.0746;-0.0546;-0.0184;
82487854701080;-0.0895;-0.0961;-0.0429;
82487864812382;-0.0820;-0.0068;-0.0770;
82487874918007;-0.0969;0.0582;-0.0887;
82487885023580;-0.0959;0.0081;-0.0876;
82487895126600;-0.0714;-0.0759;-0.0983;
82487905232225;-0.0426;-0.0599;-0.1206;
82487915337798;-0.0479;-0.0281;-0.1079;
82487925442590;-0.0437;-0.0759;-0.0706;
82487935548215;-0.0682;-0.1142;-0.0802;
82487945653788;-0.1044;-0.0929;-0.1334;
82487955780715;-0.0778;0.0486;-0.1238;
82487965886340;-0.0575;0.1146;-0.1302;
82487975991913;-0.0447;0.0550;-0.1558;
82487986093944;-0.0437;0.0039;-0.1590;
82487996199569;-0.0107;-0.0079;-0.1590;
82488006305142;-0.0107;0.0113;-0.1537;
82488016403632;-0.0043;-0.0089;-0.1462;
82488026509257;0.0011;-0.0663;-0.1228;
82488036614830;0.0032;-0.0514;-0.1377;
82488046725507;-0.0160;0.0071;-0.1483;
82488056831132;0.0277;0.0294;-0.1228;
82488066936705;0.0522;-0.1281;-0.1569;
82488077034882;0.0980;-0.3113;-0.1728;
82488087140507;0.0117;-0.0716;-0.1846;
82488097246080;-0.0043;0.3128;-0.1238;
82488107356548;0.0863;0.2521;-0.0866;
82488117462173;0.0980;0.0411;-0.0652;
82488127567746;0.2684;0.1210;-0.0663;
82488137680715;0.2738;0.2233;-0.0812;
82488147786340;0.1513;0.0923;-0.0578;
82488157891913;0.1055;-0.0025;-0.0365;
82488168019152;0.1193;0.0369;-0.0354;
82488178124777;0.0437;0.1615;-0.0493;
82488188230350;0.1150;0.2467;-0.0535;
82488198326496;0.0969;-0.1526;-0.0099;
82488208432069;0.1332;-0.3923;0.0423;
82488218537694;0.1523;-0.2197;0.0487;
82488228624882;0.0597;-0.1462;0.0848;
82488238730507;0.0043;-0.1537;0.0541;
82488248836080;0.0437;-0.1036;0.0647;
82488258959361;0.0383;-0.0100;0.0381;
82488269064986;0.0511;0.0614;0.0285;
82488279170559;0.0660;-0.0036;0.0434;
82488289269569;0.0533;-0.0535;0.0423;
82488299375194;0.0948;0.0326;0.0434;
82488309480767;0.0842;-0.0004;0.0827;
82488319575715;0.0991;-0.0652;0.1125;
82488329681340;0.0394;0.0092;0.0763;
82488339786913;0.0245;0.0848;0.0891;
82488349900038;0.0170;0.0326;0.1029;
82488360005663;0.0362;0.0497;0.0880;
82488370111236;0.0341;0.0976;0.0732;
82488380217798;-0.0138;-0.0153;0.0583;
82488390323423;0.0085;-0.1068;0.0541;
82488400428996;0.0117;-0.0142;0.0784;
82488410537902;-0.0437;-0.0079;0.0923;
82488420643527;-0.0341;-0.0631;0.0498;
82488430749100;-0.0266;-0.0057;0.0434;
82488440840298;-0.0458;0.0784;0.0869;
82488450945871;-0.0394;-0.0185;0.0455;
82488461051496;0.0128;-0.0461;0.0328;
82488471164986;-0.0341;0.0252;0.0317;
82488481270611;-0.0383;0.0550;0.0296;
82488491376184;-0.0160;0.0688;0.0264;
82488501476027;0.0511;0.0348;0.0221;
82488511581652;0.0362;-0.0185;0.0157;
82488521687225;-0.0011;-0.0313;0.0008;
82488531798111;0.0138;-0.0025;-0.0162;
82488541903684;0.0096;-0.1206;-0.0162;
82488552009309;-0.0138;-0.2037;-0.0407;
82488562126861;0.0085;-0.0695;-0.0759;
82488572232486;-0.0160;-0.0068;-0.0525;
82488582338059;-0.0128;-0.1153;-0.0493;
82488592413007;0.0511;-0.0983;-0.0535;
82488602518580;0.0543;0.0134;-0.0375;
82488612624257;0.0533;0.0667;-0.0290;
82488622742798;0.0213;-0.0057;-0.0802;
82488632848423;0.0884;-0.0482;-0.0844;
82488642953996;0.0543;-0.0419;-0.0674;
82488653055923;0.0405;0.0103;-0.0940;
82488663161548;0.0692;-0.1537;-0.1100;
82488673267121;0.0032;-0.2634;-0.1292;
82488683411444;-0.0341;0.1370;-0.1281;
82488693517069;-0.0884;0.4683;-0.0471;
82488703622642;0.0298;0.2073;-0.0130;
82488713715715;0.2258;-0.0823;-0.0152;
82488723821340;0.3217;0.1850;-0.0748;
82488733926913;0.1172;0.3106;-0.0312;
82488744037382;0.0000;0.1189;-0.0418;
82488754143007;0.0820;0.0369;-0.0663;
82488764248580;0.0511;0.0710;-0.0791;
82488774341027;0.0490;0.1935;-0.1036;
82488784446652;0.0810;0.1136;-0.0844;
82488794552225;0.1129;-0.3955;-0.0013;
82488804661548;0.1236;-0.3997;0.0115;
82488814767225;0.0352;-0.1228;-0.0205;
82488824872902;-0.0011;0.0049;0.0210;
82488834971757;-0.0064;-0.1079;0.0477;
82488845077434;0.0597;-0.1015;0.0402;
82488855183111;0.0170;0.1029;-0.0184;
82488865292590;0.0138;0.1360;-0.0439;
82488875398267;0.0458;0.0337;-0.0482;
82488885503944;0.1225;0.1178;-0.0088;
82488895603423;0.1033;0.1115;0.0051;
82488905709100;0.1321;-0.0153;0.0083;
82488915814777;0.1033;-0.0270;-0.0024;
82488925911548;0.0320;-0.0153;0.0210;
82488936017225;0.0224;-0.0919;0.0232;
82488946122902;0.0160;-0.0292;0.0083;
82488956229986;-0.0234;0.0784;0.0040;
82488966335663;-0.0320;0.0965;0.0296;
82488976441340;-0.0202;0.1168;0.0168;
82488986561444;0.0405;0.1509;0.0019;
82488996667121;0.0810;0.1104;0.0189;
82489006772798;0.0298;0.0784;-0.0333;
82489016877798;0.0660;0.0880;0.0029;
82489026983475;0.0138;0.0230;0.0328;
82489037089152;0.0234;0.0337;0.0051;
82489047201027;0.0288;0.0731;-0.0088;
82489057306705;0.0309;-0.0142;0.0391;
82489067412382;0.0298;-0.0674;0.0210;
82489077512382;0.0288;-0.0482;0.0242;
82489087618059;0.0501;-0.0057;0.0349;
82489097723736;0.0671;-0.0174;0.0498;
82489107837798;0.0458;-0.0345;0.0583;
82489117943475;0.0192;0.0678;0.0296;
82489128049152;0.0341;0.0742;0.0338;
82489138147590;-0.0043;-0.0089;0.0434;
82489148253267;0.0043;-0.0079;0.0264;
82489158358944;-0.0021;0.0284;0.0040;
82489168471340;0.0096;-0.0196;0.0125;
82489178577017;0.0075;-0.0334;0.0253;
82489188682694;0.0330;0.0113;0.0242;
82489198798996;0.0373;0.0220;0.0189;
82489208904673;0.0383;0.0326;0.0115;
82489219010350;0.0107;0.0049;0.0328;
82489229115767;0.0043;-0.0791;0.0189;
82489239221444;0.0032;-0.0791;0.0136;
82489249327121;0.0085;-0.0887;0.0029;
82489259414986;0.0021;-0.0855;0.0029;
82489269520663;0.0373;-0.0578;0.0296;
82489279626340;0.0373;0.0081;0.0061;
82489289746757;0.0628;-0.0025;0.0200;
82489299852434;0.0266;-0.0302;-0.0077;
82489309958111;0.0341;0.0667;0.0019;
82489320058319;0.0138;0.1029;0.0168;
82489330163996;-0.0043;0.0156;0.0093;
82489340269673;-0.0085;0.0539;0.0115;
82489350379673;0.0181;0.1285;0.0232;
82489360485350;0.0075;0.1093;0.0274;
82489370591027;0.0192;0.0369;0.0285;
82489380694882;0.0586;-0.0004;0.0519;
82489390800559;0.0469;-0.0313;0.0370;
82489400906236;0.0128;-0.0409;-0.0173;
82489411016965;0.0021;-0.0631;0.0157;
82489421122642;-0.0352;-0.1856;0.0328;
82489431228319;-0.0064;-0.2336;0.0242;
82489441330402;0.0096;-0.0409;0.0040;
82489451436080;-0.0043;-0.0292;0.0306;
82489461541757;-0.0245;-0.1739;0.0445;
82489471649934;0.0320;-0.1707;0.0573;
82489481755611;0.0628;-0.0951;0.0509;
82489491861288;0.0288;-0.0302;0.0221;
82489501968840;0.0011;-0.0004;0.0221;
82489512074517;-0.0075;0.0656;0.0157;
82489522180194;-0.0096;0.0497;0.0189;
82489532263736;-0.0437;-0.1814;0.0146;
82489542369413;-0.0277;-0.0695;-0.0173;
82489552475090;-0.0469;0.2936;-0.0067;
82489562607538;-0.0703;0.2286;0.0487;
82489572713267;-0.0266;-0.0356;0.0944;
82489582818944;0.0362;0.0646;0.0838;
82489592911652;0.0234;0.2137;0.0232;
82489603017330;-0.0458;0.0965;0.0157;
82489613123007;-0.0447;-0.0599;0.0104;
82489623239048;-0.0394;-0.1356;0.0189;
82489633344725;-0.0341;-0.0812;0.0157;
82489643450402;0.0000;0.2318;-0.0237;
82489653547798;-0.0426;-0.0142;0.0146;
82489663653475;-0.0490;-0.3891;0.0901;
82489673759152;0.0383;-0.1249;0.0615;
82489683884257;0.0075;0.0433;0.0541;
82489693989934;-0.0639;-0.0748;0.0562;
82489704095611;-0.0447;-0.0398;0.0700;
82489714182069;-0.0458;0.0667;0.0253;
82489724287746;-0.0415;0.1541;-0.0099;
82489734393423;-0.0842;0.1093;-0.0322;
82489744514361;-0.0138;0.1157;0.0200;
82489754620038;0.0160;0.2158;0.0615;
82489764725715;0.0128;0.0422;0.1040;
82489774822694;0.0107;-0.0503;0.1210;
82489784928371;-0.0309;0.1626;0.0434;
82489795034048;-0.0682;0.3128;0.0498;
82489805118736;-0.0778;0.2180;0.0795;
82489815224413;-0.0884;0.0656;0.0668;
82489825330038;-0.0213;0.0710;0.0168;
82489835463840;-0.0309;0.0060;0.0274;
82489845569517;-0.0330;-0.0876;0.0083;
82489855675142;-0.0288;-0.2325;0.0551;
82489865777173;-0.0075;-0.2634;0.0455;
82489875882850;-0.0181;-0.1451;0.0370;
82489885988475;-0.0234;-0.0100;0.0232;
82489896086652;-0.0522;-0.0535;0.0626;
82489906192330;-0.0628;-0.1324;0.0594;
82489916297955;-0.0650;-0.0196;0.0178;
82489926387277;-0.0511;0.1850;-0.0003;
82489936492955;-0.0277;0.2297;0.0168;
82489946598580;-0.0011;0.2787;0.0296;
82489956723527;0.0138;0.2787;0.0349;
82489966829205;0.0149;0.2073;0.0200;
82489976934830;0.0277;0.1881;0.0019;
82489987042017;-0.0160;0.1157;-0.0088;
82489997147694;-0.0426;-0.0919;0.0083;
82490007253319;-0.0959;-0.1760;-0.0312;
82490017354569;-0.0746;-0.1728;-0.0173;
82490027460246;-0.0905;-0.0972;0.0029;
82490037565871;-0.0735;-0.0770;-0.0067;
82490047685194;-0.0554;-0.1345;0.0157;
82490057790871;-0.0107;-0.1856;0.0083;
82490067896496;-0.0085;-0.1899;-0.0013;
82490077984517;-0.0288;-0.1654;-0.0386;
82490088090194;-0.0202;-0.0663;-0.0280;
82490098195819;-0.0522;0.0475;-0.0567;
82490108315715;-0.0501;0.0081;-0.0663;
82490118421392;-0.0586;0.0262;-0.0684;
82490128527017;-0.0181;0.0784;-0.0684;
82490138624673;-0.0075;-0.0015;-0.0397;
82490148730350;-0.0075;-0.0951;-0.0301;
82490158835975;-0.0160;-0.1068;-0.0248;
82490168950298;-0.0149;0.1008;-0.0578;
82490179055975;-0.0075;0.2883;-0.0759;
82490189161600;-0.0415;0.1722;-0.0226;
82490199278111;-0.0458;0.1040;-0.0450;
82490209383736;-0.0565;0.1232;-0.0599;
82490219489413;-0.0320;0.0838;-0.0482;
82490229594882;-0.0586;-0.0589;-0.0407;
82490239700559;-0.0415;-0.0887;-0.0493;
82490249806184;-0.0256;0.0230;-0.0450;
82490259903632;0.0053;0.1072;-0.0269;
82490270009309;-0.0170;0.0635;-0.0770;
82490280114934;-0.0075;-0.0419;-0.0706;
82490290207486;-0.0053;-0.1196;-0.0162;
82490300313163;-0.0234;-0.2080;-0.0557;
82490310418788;-0.0597;-0.2623;-0.0514;
82490320527069;-0.0405;-0.2059;-0.0205;
82490330632746;-0.0330;-0.0684;-0.0461;
82490340738371;0.0117;0.0017;-0.0365;
82490350840298;0.0043;-0.0281;0.0029;
82490360945975;0.0277;-0.0812;0.0189;
82490371051600;0.0224;-0.0068;-0.0450;
82490381161965;0.0138;0.0539;-0.0461;
82490391267642;-0.0192;-0.0802;0.0008;
82490401373267;-0.0149;-0.0993;0.0008;
82490411485090;-0.0543;-0.0004;-0.0130;
82490421590767;-0.0298;0.0529;-0.0035;
82490431696392;-0.0415;-0.0111;0.0072;
82490441815819;-0.0266;-0.0206;0.0104;
82490451921444;-0.0043;0.0273;0.0115;
82490462027121;-0.0021;0.0379;0.0274;
82490472131548;-0.0085;0.0763;0.0210;
82490482237225;-0.0362;0.0443;0.0115;
82490492342850;-0.0522;0.0039;0.0136;
82490502408840;-0.0628;0.0284;0.0029;
82490512514465;-0.0746;0.0081;0.0178;
82490522620142;-0.0650;-0.0482;0.0019;
82490532798319;-0.0245;-0.0238;0.0072;
82490542903996;-0.0181;0.1178;0.0391;
82490553009621;-0.0117;0.0955;0.0562;
82490563079517;-0.0362;0.0209;-0.0237;
82490573185246;-0.0096;0.0550;-0.0162;
82490583290871;-0.0405;-0.0100;0.0051;
82490593402694;-0.0469;-0.1249;-0.0205;
82490603508371;-0.0714;-0.1015;-0.0077;
82490613613996;-0.0650;-0.0674;-0.0152;
82490623686652;-0.0554;-0.1036;-0.0099;
82490633792330;-0.0256;0.0816;-0.0194;
82490643898007;-0.0245;0.1722;0.0061;
82490654036757;-0.0117;0.0273;-0.0045;
82490664142434;0.0138;0.0284;0.0072;
82490674248059;0.0288;0.0379;0.0221;
82490684321652;0.0107;0.0049;-0.0194;
82490694427330;-0.0724;-0.0302;-0.0471;
82490704532955;-0.0799;-0.0482;-0.0045;
82490714671236;-0.0298;-0.0292;-0.0184;
82490724776913;-0.1012;-0.0206;-0.0535;
82490734882538;0.0117;0.0273;-0.0045;
82490744973684;0.0043;-0.0919;0.0306;
82490755079361;-0.0053;-0.3273;-0.0162;
82490765184986;0.0064;-0.1803;-0.0237;
82490775292486;-0.0618;-0.0738;-0.0461;
82490785398163;-0.0543;-0.0313;-0.0322;
82490795503788;-0.0501;0.0443;-0.0035;
82490805619048;-0.0277;0.1402;-0.0162;
82490815724777;-0.0138;0.1796;-0.0152;
82490825830507;-0.0277;0.0166;0.0040;
82490835924882;-0.0021;-0.0334;0.0178;
82490846030611;0.0096;0.1232;0.0125;
82490856136340;-0.0170;0.0198;0.0338;
82490866241965;-0.0021;0.0667;0.0072;
82490876347694;-0.0373;0.0944;0.0264;
82490886453423;-0.0831;0.0337;-0.0141;
82490896567538;-0.0543;0.0944;0.0019;
82490906673267;-0.0746;-0.0578;0.0381;
82490916778996;-0.0341;-0.0313;0.0423;
82490926897277;-0.0234;0.1232;0.0306;
82490937003007;-0.0202;0.0838;0.0647;
82490947108736;-0.0501;0.0145;0.0210;
82490957213736;-0.0085;0.0060;0.0253;
82490967319465;-0.0160;0.0497;0.0221;
82490977425194;-0.0234;0.1019;0.0264;
82490987515402;-0.0852;-0.0387;0.0189;
82490997621132;-0.0703;-0.1345;0.0423;
82491007726861;-0.0767;-0.0546;0.0306;
82491017825090;-0.0234;-0.0068;0.0647;
82491027930819;-0.0597;-0.0121;0.0679;
82491038036548;-0.0905;-0.0345;0.0381;
82491048144048;-0.0597;-0.0196;-0.0099;
82491058249725;-0.0362;0.0742;0.0413;
82491068355507;-0.0501;0.0316;0.0349;
82491078474048;-0.0501;-0.0366;-0.0152;
82491088579777;-0.1087;-0.1366;0.0136;
82491098685507;-0.0746;-0.3347;0.0423;
82491108783319;-0.1214;-0.7852;0.0061;
82491118889048;-0.1651;-0.1909;-0.0951;
82491128994777;-0.5197;0.8580;-0.0418;
82491139101965;-0.0703;0.6322;-0.0045;
82491149207642;0.1353;0.1509;-0.0407;
82491159313423;-0.0980;0.3383;-0.0802;
82491169428527;-0.0799;0.5045;-0.0716;
82491179534205;-0.0586;0.4065;-0.0876;
82491189639986;-0.1246;0.1700;-0.1174;
82491199748996;-0.1033;0.1605;-0.1462;
82491209854725;0.0075;0.5312;-0.1760;
82491219960455;0.0415;0.9571;-0.1973;
82491230050715;-0.1491;-0.4445;-0.1185;
82491240156444;0.0426;-1.4210;-0.1824;
82491250262173;0.1790;-0.5925;-0.2985;
82491260363059;-0.0671;-0.1654;-0.1366;
82491270468736;-0.0873;-0.4051;-0.0908;
82491280574517;0.0383;-0.3316;-0.1036;
82491290699882;0.0863;0.0518;-0.2059;
82491300805611;0.1566;0.2329;-0.1696;
82491310911340;0.1523;0.1498;-0.1121;
82491321004048;0.1896;0.1072;-0.0802;
82491331109725;0.2652;0.2105;-0.1441;
82491341215455;0.2503;0.1679;-0.1654;
82491351309465;0.1672;0.0273;-0.1015;
82491361415194;0.1800;0.1061;-0.0727;
82491371520975;0.1246;-0.0897;-0.0663;
82491381634934;0.0650;-0.3465;-0.0344;
82491391740611;0.0170;-0.1409;-0.0056;
82491401846392;0.0085;-0.1111;-0.0130;
82491411952590;0.1044;-0.1270;0.0402;
82491422058319;0.1438;-0.0620;0.0562;
82491432164048;0.1395;0.0752;0.0221;
82491442265455;0.1609;0.2648;0.0370;
82491452371184;0.0053;0.0060;0.0242;
82491462476913;0.0138;-0.1728;0.0423;
82491472619517;0.0660;0.1360;0.0146;
82491482725298;0.0394;0.2190;0.0413;
82491492830975;-0.0991;-0.0366;0.0466;
82491502895975;-0.0682;-0.1377;0.0869;
82491513001705;0.0352;-0.0377;0.1115;
82491523107434;0.0000;-0.0260;0.0711;
82491533246861;-0.0607;-0.1505;0.0626;
82491543352590;-0.0639;-0.2463;0.0806;
82491553458319;-0.0341;-0.2122;0.0562;
82491563527538;-0.0341;-0.0398;0.0296;
82491573633319;-0.0682;-0.0356;0.0455;
82491583739048;-0.0842;-0.0525;0.0551;
82491593853892;-0.0266;0.1115;0.0328;
82491603959673;-0.0320;0.0699;0.0551;
82491614065402;-0.0053;0.0838;0.0317;
82491624189621;-0.0192;0.1977;0.0189;
82491634295350;0.0192;0.2084;0.0242;
82491644401132;-0.0128;0.1115;0.0189;
82491654562330;0.0053;0.0422;0.0083;
82491664668059;-0.0117;-0.0919;-0.0109;
82491674773736;-0.0309;-0.1387;-0.0130;
82491684819882;-0.0107;-0.2016;0.0168;
82491694925611;0.0085;-0.4029;0.0221;
82491705031340;0.0298;-0.4700;0.0210;
82491715149934;-0.0032;-0.5531;0.0370;
82491725255663;-0.0735;-0.4242;-0.0514;
82491735361392;-0.0991;0.1871;0.0232;
82491745447694;0.0032;0.2861;0.0168;
82491755553423;0.1736;-0.1483;0.0487;
82491765659152;0.2738;-0.1760;0.0594;
82491775770923;0.2418;0.2861;0.0093;
82491785876652;0.0149;0.1658;0.0466;
82491795982382;-0.0554;-0.1494;0.0189;
82491806089257;0.0916;0.1828;0.0029;
82491816194986;0.0096;0.2489;-0.0109;
82491826300767;-0.0107;0.1988;-0.0333;
82491836402382;0.0383;-0.0164;-0.0130;
82491846508111;0.0469;-0.5947;0.0349;
82491856613892;0.0362;-0.5063;0.0296;
82491866707798;-0.0714;-0.2048;0.0370;
82491876813527;-0.1097;-0.1611;0.1083;
82491886919309;-0.1236;-0.2762;0.1019;
82491897026913;-0.0820;-0.3166;0.0743;
82491907132694;-0.1278;-0.1632;-0.0269;
82491917238423;-0.1044;0.1061;-0.0738;
82491927361705;-0.1939;0.2340;-0.0557;
82491937467434;-0.0714;0.0933;-0.0375;
82491947573215;0.0852;0.0454;-0.0706;
82491957688215;0.0820;-0.0292;-0.0738;
82491967793944;0.0671;0.0742;-0.0248;
82491977899725;-0.0415;0.2190;-0.0429;
82491987992382;-0.0383;0.0901;-0.0418;
82491998098111;-0.0149;0.1903;-0.0535;
82492008203892;0.0128;0.4832;-0.0993;
82492018307590;0.0000;0.3501;-0.1079;
82492028413319;0.0437;-0.1601;-0.0461;
82492038519048;0.1097;-0.2165;-0.0642;
82492048627382;0.0320;-0.1984;-0.0908;
82492058733111;-0.0554;-0.1100;-0.0674;
82492068838892;-0.0437;-0.0100;-0.0503;
82492078936548;-0.0138;-0.0557;-0.0109;
82492089042277;0.0117;-0.0174;0.0008;
82492099148007;0.0192;0.0976;-0.0684;
82492109255194;0.0096;0.2457;-0.1068;
82492119360923;0.0213;0.2340;-0.1025;
82492129466652;0.0341;0.0838;-0.1142;
82492139569777;0.0692;0.1168;-0.1121;
82492149675507;0.0362;0.2084;-0.1121;
82492159781236;0.0160;0.1647;-0.0887;
82492169888527;0.0096;0.0816;-0.0802;
82492179994257;0.0181;0.0933;-0.0471;
82492190100038;0.0341;0.1136;-0.0461;
82492200196236;0.0373;0.0848;-0.0812;
82492210301965;0.0234;0.0976;-0.0546;
82492220407746;0.0000;0.0230;-0.0557;
82492230521236;0.0234;0.0017;-0.0738;
82492240626965;0.0011;0.0358;-0.0599;
82492250732746;-0.0117;0.0060;-0.0482;
82492260834830;-0.0447;0.0550;-0.0866;
82492270940611;0.0149;0.1423;-0.0120;
82492281046392;0.0138;0.0571;0.0051;
82492291170402;0.0234;0.0230;-0.0013;
82492301276132;0.0309;0.1711;-0.0695;
82492311381913;0.0234;0.1732;-0.0471;
82492321470559;0.0330;0.0656;-0.0237;
82492331576340;0.0575;0.0880;-0.0525;
82492341682069;0.0714;0.0731;-0.0482;
82492351787173;0.0650;0.0646;0.0051;
82492361892902;0.0799;0.1242;0.0029;
82492371998632;0.0628;0.0017;0.0296;
82492382090923;0.1033;-0.1185;0.0551;
82492392196652;0.1172;-0.1142;0.0445;
82492402302434;0.1427;0.0103;0.0519;
82492412409048;0.1236;0.0486;0.0487;
82492422514777;0.0948;-0.0324;0.0626;
82492432620507;0.1193;-0.0578;0.0965;
82492442740611;0.1406;-0.0482;0.1072;
82492452846340;0.0991;-0.0079;0.1083;
82492462952069;0.0554;0.0230;0.1274;
82492473054725;0.0756;-0.0812;0.1796;
82492483160455;0.0415;-0.1089;0.1029;
82492493266236;0.0703;0.0752;0.1338;
82492503363267;0.0447;0.1487;0.1541;
82492513469048;0.0245;-0.0153;0.1200;
82492523574777;0.0479;-0.1121;0.1370;
82492533720350;0.0170;-0.1142;0.1115;
82492543826027;-0.0011;-0.0174;0.1413;
82492553931809;-0.0085;0.1402;0.1594;
82492564053163;-0.0128;0.0656;0.2148;
82492574158840;-0.0149;-0.0589;0.1999;
82492584264621;-0.0043;0.1072;0.1328;
82492594314205;0.0405;0.2840;0.1402;
82492604419986;-0.0810;0.0539;0.1328;
82492614525715;-0.0714;-0.1696;0.1083;
82492624642225;0.0075;-0.0642;0.0987;
82492634747955;-0.0234;0.0177;0.1136;
82492644853788;-0.0778;-0.0121;0.1306;
82492654964882;-0.0660;-0.1419;0.1722;
82492665070611;-0.0128;-0.2336;0.1754;
82492675176392;-0.0565;-0.2293;0.1040;
82492685305559;-0.0597;-0.0812;0.1083;
82492695411288;-0.0895;0.0156;0.1264;
82492705517121;-0.0511;-0.0620;0.1210;
82492715584725;-0.0490;-0.0642;0.0541;
82492725690507;-0.0138;0.0880;0.0711;
82492735796288;-0.0724;0.0188;0.1051;
82492745911913;-0.0224;-0.0599;0.1189;
82492756017694;-0.0426;-0.0313;0.1200;
82492766123475;-0.0746;-0.0482;0.0869;
82492776247590;-0.0959;-0.0142;0.0626;
82492786353319;-0.1023;0.0529;0.0477;
82492796459100;-0.0831;-0.0398;0.0509;
82492806567434;-0.1491;-0.1984;0.0019;
82492816673215;-0.0905;-0.2250;0.0136;
82492826778944;-0.1118;-0.1260;0.0125;
82492836873840;-0.1758;-0.0196;-0.0067;
82492846979621;-0.1672;0.0316;0.0008;
82492857085298;-0.0352;0.0997;0.0349;
82492867190090;-0.0863;-0.0132;-0.0173;
82492877295819;-0.0469;-0.0302;-0.0141;
82492887401600;-0.0479;0.1391;-0.0120;
82492897509465;-0.0490;0.2989;-0.0631;
82492907615246;-0.0905;0.2201;-0.0535;
82492917720923;-0.0479;0.2414;-0.0642;
82492927850455;-0.0245;0.2648;-0.0557;
82492937956236;-0.0650;0.1040;-0.0258;
82492948061965;-0.0383;-0.0610;0.0104;
82492958124621;-0.0618;-0.1537;-0.0013;
82492968230402;-0.0607;-0.2314;-0.0269;
82492978336132;-0.0490;-0.1313;-0.0461;
82492988467590;-0.0447;-0.1004;-0.0205;
82492998573371;-0.0980;-0.2389;-0.0365;
82493008679100;-0.0085;-0.3230;-0.0375;
82493018783007;-0.0277;-0.3603;-0.0269;
82493028888788;-0.0469;-0.2048;-0.0738;
82493038994517;-0.0021;0.0933;-0.0418;
82493049097798;0.0533;0.1935;-0.0035;
82493059203580;0.0810;0.0220;-0.0216;
82493069309309;0.1715;0.0028;-0.0397;
82493079413944;0.1672;0.0454;-0.0375;
82493089519673;0.0842;0.0134;-0.0194;
82493099625455;0.0085;-0.1526;-0.0216;
82493109733007;0.0107;-0.2091;-0.0141;
82493119838788;-0.0011;-0.1590;-0.0045;
82493129944517;0.0234;-0.0185;0.0115;
82493140044882;0.0043;-0.1931;0.0668;
82493150150663;-0.0160;-0.4679;0.0573;
82493160256340;-0.0362;-0.4029;0.0019;
82493170368007;-0.0714;-0.2144;0.0008;
82493180473788;-0.0660;-0.1057;-0.0056;
82493190579517;-0.0320;0.0188;0.0072;
82493200685923;-0.0053;0.2063;-0.0120;
82493210791652;0.0085;0.3565;-0.0375;
82493220897434;0.0149;0.3799;-0.0152;
82493231006444;-0.0128;0.3106;0.0104;
82493241112173;0.0075;0.4065;0.0040;
82493251217955;-0.0714;0.4395;-0.0322;
82493261314361;-0.0149;0.3895;-0.0301;
82493271420090;-0.0362;0.4001;-0.0088;
82493281525819;-0.0831;0.2957;-0.0130;
82493291631132;-0.1545;0.1168;-0.0056;
82493301736861;-0.1907;-0.0802;-0.0109;
82493311842642;-0.2120;-0.1792;-0.0493;
82493321978319;-0.1683;-0.1750;-0.0280;
82493332084048;-0.1630;-0.1547;0.0019;
82493342189830;-0.1065;-0.0377;-0.0375;
82493352259413;-0.0511;-0.0004;-0.0631;
82493362365194;-0.0522;-0.0514;-0.0333;
82493372470871;-0.0234;-0.0887;-0.0674;
82493382606757;-0.0586;-0.1217;-0.0897;
82493392712538;-0.0788;-0.1313;-0.0770;
82493402818267;-0.0458;-0.0802;-0.1047;
82493412905767;-0.0170;-0.0759;-0.0812;
82493423011548;-0.0064;-0.1579;-0.0375;
82493433117277;0.0138;-0.1760;-0.0322;
82493443259777;-0.0138;-0.2762;-0.0439;
82493453365507;-0.0277;-0.3507;-0.0333;
82493463471288;-0.0245;-0.3049;-0.0493;
82493473531861;-0.0224;-0.1569;-0.0546;
82493483637642;-0.0266;-0.0174;-0.0354;
82493493743371;0.0000;-0.0047;-0.0312;
82493503857486;0.1129;0.1200;-0.0290;
82493513963267;0.1555;0.1732;-0.0258;
82493524068996;0.1353;0.0624;0.0157;
82493534168840;0.1172;0.0838;0.0381;
82493544274621;0.0362;0.0955;0.0136;
82493554380298;0.0533;0.2222;0.0104;
82493564497382;0.0266;0.3064;-0.0003;
82493574603163;-0.0277;0.3405;0.0051;
82493584708892;-0.0053;0.3905;0.0146;
82493594806652;0.0011;0.4395;0.0668;
82493604912434;0.0213;0.5035;0.0690;
82493615018163;-0.0213;0.3991;0.0838;
82493625132590;-0.0565;0.2531;0.0987;
82493635238371;-0.0458;0.2361;0.0626;
82493645344100;-0.0735;0.2041;0.0754;
82493655429621;-0.0884;0.0561;0.0498;
82493665535455;-0.0501;-0.1675;0.0562;
82493675641184;-0.0394;-0.1718;0.0360;
82493685761861;-0.0522;-0.1643;0.0487;
82493695867590;-0.0138;-0.1963;0.0626;
82493705973371;-0.0053;-0.2708;0.0901;
82493716099517;-0.0565;-0.3656;0.0976;
82493726205350;-0.0810;-0.2676;0.0690;
82493736311080;-0.0724;0.0028;0.0391;
82493746395298;-0.0501;0.0326;0.0615;
82493756501080;-0.0213;-0.0196;0.0487;
82493766606809;-0.0245;0.1445;-0.0056;
82493776714361;-0.0277;0.1700;0.0115;
82493786820142;-0.0128;0.0081;0.0210;
82493796925871;0.0181;-0.0356;0.0370;
82493807040298;-0.0256;-0.0514;0.0477;
82493817146080;-0.0383;0.0379;0.0328;
82493827251809;-0.0533;0.0688;0.0381;
82493837359882;-0.0607;-0.0409;0.0636;
82493847465663;-0.0320;-0.0759;0.0093;
82493857571392;-0.0266;-0.0972;-0.0056;
82493867658059;-0.0234;-0.1196;0.0221;
82493877763892;-0.0373;-0.1739;0.0168;
82493887869621;0.0075;-0.1877;0.0391;
82493897979465;0.0011;-0.0684;0.0242;
82493908085246;-0.0096;0.0156;0.0413;
82493918190975;-0.0597;0.0379;-0.0024;
82493928297694;-0.0341;0.0912;-0.0152;
82493938403423;-0.0362;0.1658;-0.0130;
82493948509205;-0.0192;0.1381;-0.0344;
82493958604986;-0.0458;0.0742;-0.0312;
82493968710767;-0.0330;0.1061;-0.0258;
82493978816496;-0.0469;0.1125;-0.0375;
82493988930819;-0.0320;0.0699;-0.0226;
82493999036600;-0.0266;-0.0068;0.0253;
82494009142330;-0.0341;-0.0068;0.0093;
82494019250090;-0.0501;0.0071;-0.0226;
82494029355871;-0.0586;-0.0727;0.0019;
82494039461600;-0.0458;-0.1228;-0.0109;
82494049569934;-0.0778;-0.0770;-0.0429;
82494059675715;-0.0405;0.0369;-0.0162;
82494069781444;-0.0490;0.0284;-0.0088;
82494079904621;-0.0352;-0.0057;-0.0333;
82494090010402;-0.0075;0.0561;-0.0546;
82494100116184;0.0053;-0.0684;-0.0216;
82494110210923;-0.0309;-0.1622;-0.0439;
82494120316652;-0.0352;-0.0557;-0.0791;
82494130422434;-0.0639;-0.0802;-0.0738;
82494140519569;-0.0565;-0.0983;-0.1036;
82494150625350;-0.0575;-0.0589;-0.1174;
82494160731080;-0.0362;-0.0727;-0.1015;
82494170831027;-0.0245;-0.0748;-0.0983;
82494180936809;0.0192;-0.0514;-0.0716;
82494191042590;0.0288;0.0028;-0.0716;
82494201145194;0.0788;-0.0441;-0.0482;
82494211251027;0.0394;-0.0260;-0.0940;
82494221356757;0.0362;0.0166;-0.0738;
82494231471444;0.0138;-0.0727;-0.0961;
82494241577225;0.0362;-0.0451;-0.1164;
82494251682955;0.0075;-0.0546;-0.1356;
82494261792277;0.0128;-0.0578;-0.1164;
82494271898059;0.0447;0.0113;-0.0866;
82494282003788;0.0586;0.0369;-0.0652;
82494292128840;0.1278;0.0092;-0.0407;
82494302234621;0.0383;-0.1121;-0.0983;
82494312340350;0.0043;-0.0324;-0.0929;
82494322419673;0.0213;0.0678;-0.0919;
82494332525402;0.0277;0.0113;-0.0631;
82494342631184;0.0597;-0.0004;-0.0716;
82494352730507;0.0107;-0.0047;-0.1089;
82494362836288;-0.0075;-0.0164;-0.0823;
82494372941965;0.0447;-0.0589;-0.0493;
82494383039934;0.0703;-0.0525;-0.0248;
82494393145715;0.0554;-0.0249;-0.0397;
82494403251444;0.0309;-0.0111;-0.0727;
82494413389986;0.0085;0.0316;-0.0620;
82494423495767;-0.0181;-0.0004;-0.0642;
82494433601444;0.0043;0.0252;-0.0770;
82494443701600;0.0426;0.1274;-0.0780;
82494453807382;0.0554;0.0688;-0.0535;
82494463913163;0.0842;0.0656;-0.0716;
82494474007277;0.0799;0.0220;-0.0503;
82494484113007;0.0831;-0.0313;-0.0216;
82494494218788;0.0479;-0.1206;-0.0173;
82494504319986;0.0138;-0.1302;-0.0493;
82494514425767;0.0085;-0.0493;-0.0184;
82494524531548;0.0405;-0.0366;-0.0333;
82494534634830;0.0533;-0.0972;-0.0258;
82494544740663;0.0618;-0.1473;-0.0312;
82494554846392;0.0192;-0.2208;-0.0354;
82494564968319;0.0394;-0.1622;-0.0194;
82494575074100;0.0660;-0.1164;0.0051;
82494585179830;0.0692;-0.1515;0.0232;
82494595275611;0.0256;-0.0748;-0.0290;
82494605381392;0.0586;0.0614;0.0093;
82494615487121;0.0916;-0.2112;0.0210;
82494625603840;-0.0064;-0.8555;0.0178;
82494635709621;-0.2278;-0.8449;-0.0738;
82494645815350;-0.2406;0.5864;-0.0684;
82494655897277;0.3355;1.1732;-0.1121;
82494666003007;0.2897;0.2595;-0.0013;
82494676108788;-0.1662;-0.2527;0.0965;
82494686220923;0.1800;0.5461;0.0019;
82494696326652;0.2450;0.8005;-0.0503;
82494706432434;-0.1246;0.0933;0.0019;
82494716550402;-0.0724;-0.1473;-0.0109;
82494726656184;0.1001;0.6248;-0.1260;
82494736761913;0.1310;1.5407;-0.1228;
82494746857538;-0.4888;0.2148;-0.1025;
82494756963371;-0.1545;-1.7630;0.0519;
82494767069100;0.2258;-0.8640;-0.1771;
82494777171548;-0.0330;0.1328;-0.1302;
82494787277330;-0.3173;-0.0834;-0.0280;
82494797383111;-0.0469;-0.4349;0.0338;
82494807517642;0.1555;-0.0196;-0.0748;
82494817623423;0.0799;0.4417;-0.1782;
82494827729205;0.0714;0.2531;-0.1888;
82494837795767;0.2876;0.0092;-0.1387;
82494847901548;0.4355;0.2457;-0.1281;
82494858007330;0.2386;0.0955;-0.0674;
82494868128580;0.2642;-0.2538;0.0157;
82494878234361;0.2993;-0.2250;0.0136;
82494888340142;0.1513;-0.2165;0.0083;
82494898447330;0.1055;-0.2644;0.0434;
82494908553111;0.0639;-0.2751;0.0391;
82494918658892;0.0533;-0.2612;0.0253;
82494928787225;0.0863;-0.1206;0.0264;
82494938893007;0.1087;-0.0270;0.0264;
82494948998788;0.1587;-0.0292;0.0668;
82494959108892;0.2024;0.0497;0.0732;
82494969214673;0.2290;0.1903;0.0784;
82494979320455;0.1843;0.1487;0.0806;
82494989404621;0.1321;0.1413;0.0722;
82494999510402;0.1023;0.1722;0.0944;
82495009616184;0.0628;0.1008;0.0859;
82495019726913;0.0607;0.0752;0.0647;
82495029832694;0.0863;0.0369;0.0838;
82495039938527;0.0905;0.0092;0.1104;
82495050034621;0.1150;0.0433;0.1296;
82495060140402;0.1513;-0.0567;0.1636;
82495070246184;0.1246;-0.1632;0.1360;
82495080351340;0.1118;-0.1409;0.1264;
82495090457121;0.0799;-0.0578;0.1541;
82495100562902;0.0767;-0.0471;0.1413;
82495110675559;0.0842;-0.0961;0.1423;
82495120781340;0.0692;-0.0780;0.1210;
82495130887121;0.0852;-0.0121;0.1328;
82495140988267;0.0884;-0.0620;0.1573;
82495151094048;0.0767;-0.1025;0.1924;
82495161199830;0.0426;-0.0185;0.1658;
82495171319621;0.0458;0.0379;0.1285;
82495181425402;-0.0170;0.0433;0.1338;
82495191531184;-0.0501;0.1988;0.1242;
82495201636080;-0.0522;0.2478;0.1072;
82495211741913;-0.0628;0.2755;0.1093;
82495221847642;-0.0639;0.2521;0.1189;
82495231929100;-0.1268;0.2116;0.1306;
82495242034882;-0.1449;0.2478;0.1509;
82495252140663;-0.1236;0.2340;0.1605;
82495262259205;-0.1087;0.0646;0.1391;
82495272364986;-0.0724;-0.0292;0.1125;
82495282470715;-0.0341;0.0379;0.1466;
82495292575767;-0.0863;-0.0228;0.1445;
82495302681548;-0.1023;-0.1995;0.1466;
82495312787330;-0.1193;-0.1909;0.1093;
82495322894934;-0.0937;-0.1270;0.1146;
82495333000715;-0.1044;-0.0419;0.1445;
82495343106496;-0.1630;-0.0409;0.1881;
82495353186809;-0.1747;-0.0164;0.1679;
82495363292590;-0.1598;0.0880;0.1104;
82495373398371;-0.1204;0.1679;0.1285;
82495383528007;-0.1363;0.1360;0.1370;
82495393633736;-0.1619;0.0252;0.1168;
82495403739517;-0.1992;0.0284;0.1029;
82495413858059;-0.2534;-0.0292;0.1061;
82495423963840;-0.2257;-0.0727;0.1146;
82495434069621;-0.1896;0.0092;0.1189;
82495444146496;-0.1566;0.0646;0.1178;
82495454252277;-0.1236;-0.0164;0.1264;
82495464358059;-0.1427;-0.1142;0.0880;
82495474501600;-0.1502;0.0103;0.0658;
82495484607434;-0.1491;0.0390;0.0615;
82495494713163;-0.1342;-0.0313;0.0626;
82495504790559;-0.1427;0.0145;0.0477;
82495514896340;-0.1289;-0.0196;0.0541;
82495525002121;-0.1076;-0.0409;0.0573;
82495535115663;-0.0948;-0.0589;0.0647;
82495545221444;-0.0735;-0.0897;0.0869;
82495555327225;-0.0724;0.0145;0.0200;
82495565434830;-0.0383;0.1317;0.0466;
82495575540611;-0.0522;0.1423;0.0328;
82495585646444;-0.0405;0.0646;0.0189;
82495595763475;-0.0831;0.0262;0.0083;
82495605869257;-0.1300;0.0614;0.0242;
82495615975038;-0.0810;0.1285;0.0253;
82495626069725;-0.0660;0.1871;0.0562;
82495636175507;-0.0746;0.0880;0.0722;
82495646281288;-0.1214;-0.0185;0.0338;
82495656392330;-0.1182;0.0561;-0.0024;
82495666498111;-0.1417;0.0838;-0.0003;
82495676603892;-0.1385;0.0486;-0.0077;
82495686689100;-0.1609;0.0401;-0.0003;
82495696794882;-0.1864;0.0369;0.0242;
82495706900715;-0.1875;0.1296;-0.0003;
82495717028475;-0.1491;0.1391;-0.0280;
82495727134257;-0.1087;0.0454;-0.0365;
82495737240038;-0.1353;-0.0366;-0.0397;
82495747328892;-0.1683;0.0646;-0.0727;
82495757434673;-0.1481;0.1423;-0.0706;
82495767540455;-0.0756;0.0699;-0.0866;
82495777665559;-0.0948;0.0742;-0.1015;
82495787771392;-0.1246;0.1040;-0.1153;
82495797877121;-0.1140;0.0188;-0.0823;
82495807953788;-0.1033;0.0806;-0.1121;
82495818059517;-0.0735;0.0720;-0.0908;
82495828165194;-0.0543;0.0326;-0.1015;
82495838278423;-0.0660;0.0742;-0.1228;
82495848384100;-0.0224;0.1796;-0.1643;
82495858489830;0.0160;0.0678;-0.1345;
82495868610350;0.0842;-0.1334;-0.1483;
82495878716027;0.0905;-0.2442;-0.1643;
82495888821757;-0.0043;-0.3198;-0.1430;
82495898911184;-0.0415;-0.2943;-0.1515;
82495909016861;-0.0064;-0.1579;-0.1228;
82495919122590;-0.0075;-0.0887;-0.1111;
82495929250194;0.0905;-0.0441;-0.0972;
82495939355923;0.1268;0.0166;-0.1356;
82495949461600;0.1981;0.0337;-0.1142;
82495959546444;0.2578;0.0092;-0.0834;
82495969652173;0.2589;-0.0036;-0.0961;
82495979757850;0.1843;0.0049;-0.0759;
82495989886132;0.0842;-0.0206;-0.0280;
82495999991809;0.0607;0.0124;-0.0418;
82496010097538;0.0980;0.0401;-0.0312;
82496020193319;0.0959;-0.0121;-0.0056;
82496030299048;0.0905;-0.1750;0.0285;
82496040404725;0.0277;-0.2144;-0.0130;
82496050509673;0.0447;-0.0620;-0.0013;
82496060615350;-0.0043;-0.0738;-0.0045;
82496070721080;-0.0224;-0.1132;0.0125;
82496080843423;-0.0543;-0.0185;-0.0045;
82496090949100;-0.0415;0.0316;0.0061;
82496101054830;-0.0266;0.0752;-0.0077;
82496111149465;0.0170;0.0284;0.0264;
82496121255142;0.0075;0.0273;0.0178;
82496131360871;0.0224;0.0678;0.0061;
82496141451600;0.0352;0.0752;0.0157;
82496151557330;0.0234;-0.0313;0.0296;
82496161663007;-0.0256;-0.1771;0.0051;
82496171791340;-0.1108;-0.1270;0.0029;
82496181897017;-0.2109;-0.1324;0.0061;
82496192002746;-0.2225;-0.1995;0.0136;
82496202096548;-0.2003;-0.0993;-0.0013;
82496212202225;-0.2140;-0.0557;0.0029;
82496222307955;-0.1949;-0.0546;-0.0109;
82496232400142;-0.1854;-0.0834;-0.0940;
82496242505819;-0.1342;0.0497;-0.1196;
82496252611548;-0.0969;0.1999;-0.1068;
82496262736809;-0.0863;0.2020;-0.1079;
82496272842486;-0.1129;0.2308;-0.1387;
82496282948215;-0.0895;0.1178;-0.1142;
82496293029986;-0.0799;-0.0387;-0.1356;
82496303135663;-0.0650;-0.0324;-0.1345;
82496313241392;-0.0682;-0.0993;-0.1249;
82496323359882;-0.0245;-0.1153;-0.1558;
82496333465611;-0.0565;-0.2101;-0.1824;
82496343571288;0.0096;-0.1153;-0.1494;
82496353696496;0.0053;0.0241;-0.1505;
82496363802173;0.1289;-0.0025;-0.1632;
82496373907902;0.2173;-0.1771;-0.1526;
82496384016652;0.2162;-0.0791;-0.1004;
82496394122330;0.0575;0.0007;-0.0951;
82496404228059;-0.0138;-0.0142;-0.0897;
82496414335611;0.0746;0.2638;-0.1153;
82496424441288;0.1523;0.6482;-0.2144;
82496434547017;0.2280;0.4704;-0.1547;
82496444640923;0.3238;0.2318;-0.0471;
82496454746600;0.2706;0.0699;-0.0003;
82496464852330;0.0746;0.1274;0.0115;
82496474954465;0.0479;0.2063;-0.0684;
82496485060142;0.1236;0.1860;-0.0354;
82496495165871;0.0937;-0.1153;0.0157;
82496505278111;0.0405;0.0113;0.0019;
82496515383788;0.0202;0.2585;-0.0067;
82496525489517;0.0533;-0.3955;-0.0120;
82496535585767;0.1736;-0.5723;-0.0407;
82496545691496;0.1140;-0.1526;-0.0578;
82496555797173;0.0213;0.0518;-0.0013;
82496565902277;0.1076;-0.0471;0.0434;
82496576007955;0.1236;-0.2975;0.1040;
82496586113684;0.0213;-0.0961;0.0477;
82496596214673;0.0415;0.2680;0.0008;
82496606320350;0.1055;0.2180;0.0274;
82496616426080;0.1118;0.1636;-0.0056;
82496626539882;0.0980;0.2616;-0.0205;
82496636645559;0.1310;0.1903;0.0083;
82496646751288;0.1353;0.0198;0.0125;
