Sensor: bmi160 Gyroscope Non-wakeup
Vendor: BOSCH
TimestampGyro [ns]; GyroX [rad/s]; GyroY [rad/s]; GyroZ [rad/s]
973090270340539;-0.0250;-0.0120;0.0226;
973090280422414;-0.0186;-0.0077;0.0290;
973090290559602;-0.0176;-0.0099;0.0312;
973090300666164;-0.0218;-0.0130;0.0344;
973090310765956;-0.0250;-0.0184;0.0397;
973090320869549;-0.0282;-0.0216;0.0418;
973090330976424;-0.0314;-0.0216;0.0439;
973090341081320;-0.0304;-0.0258;0.0503;
973090351169862;-0.0293;-0.0280;0.0578;
973090361278039;-0.0325;-0.0322;0.0620;
973090371380122;-0.0325;-0.0375;0.0695;
973090381473299;-0.0357;-0.0439;0.0748;
973090391582049;-0.0410;-0.0493;0.0791;
973090401695852;-0.0431;-0.0493;0.0855;
973090411795122;-0.0463;-0.0450;0.0908;
973090421906893;-0.0506;-0.0429;0.0951;
973090432003247;-0.0549;-0.0418;0.0993;
973090442110643;-0.0591;-0.0429;0.1036;
973090452213977;-0.0634;-0.0450;0.1057;
973090462320747;-0.0623;-0.0461;0.1068;
973090472428924;-0.0602;-0.0482;0.1079;
973090482526893;-0.0613;-0.0535;0.1089;
973090492633456;-0.0570;-0.0599;0.1079;
973090502733091;-0.0591;-0.0620;0.1121;
973090512840956;-0.0634;-0.0631;0.1111;
973090522942466;-0.0666;-0.0610;0.1079;
973090533052674;-0.0698;-0.0546;0.1079;
973090543157414;-0.0719;-0.0471;0.1132;
973090553260383;-0.0751;-0.0429;0.1153;
973090563364497;-0.0762;-0.0450;0.1164;
973090573470539;-0.0772;-0.0503;0.1132;
973090583575383;-0.0762;-0.0535;0.1100;
973090593701945;-0.0762;-0.0567;0.1079;
973090603799289;-0.0762;-0.0546;0.1047;
973090613884810;-0.0772;-0.0525;0.1025;
973090623985383;-0.0815;-0.0471;0.1036;
973090634090539;-0.0826;-0.0450;0.1036;
973090644192831;-0.0740;-0.0471;0.1036;
973090654296685;-0.0378;-0.0503;0.1068;
973090664434654;0.0144;-0.0493;0.1079;
973090674510331;0.0613;-0.0471;0.1057;
973090684619549;0.0953;-0.0439;0.1047;
973090694736581;0.1092;-0.0397;0.1047;
973090704817727;0.1028;-0.0344;0.0993;
973090714935904;0.0868;-0.0333;0.0929;
973090725038352;0.0719;-0.0375;0.0844;
973090735153456;0.0719;-0.0375;0.0759;
973090745241945;0.0943;-0.0301;0.0716;
973090755348456;0.1252;-0.0269;0.0695;
973090765448039;0.1559;-0.0216;0.0663;
973090775544133;0.1911;-0.0152;0.0642;
973090785652831;0.2369;-0.0120;0.0610;
973090795810383;0.2848;-0.0077;0.0589;
973090805877049;0.3189;-0.0067;0.0589;
973090816000383;0.3328;-0.0056;0.0546;
973090826093560;0.3306;-0.0088;0.0482;
973090836173247;0.3423;-0.0141;0.0429;
973090846310539;0.3849;-0.0120;0.0439;
973090856400799;0.4521;-0.0088;0.0503;
973090866506633;0.5128;-0.0152;0.0567;
973090876619237;0.5650;-0.0205;0.0610;
973090886709185;0.6204;-0.0301;0.0631;
973090896810331;0.1166;-0.1909;-0.0477;
973090906918872;-0.6204;-0.3369;-0.0360;
973090917037310;-0.2860;-0.1782;0.0535;
973090927114810;-0.1305;-0.1196;0.1089;
973090937263612;-0.1134;-0.1132;0.1089;
973090947346789;-0.0911;0.0029;0.1079;
973090957448664;0.0123;0.0732;0.1313;
973090967551997;0.1943;0.0487;0.1526;
973090977645331;0.4308;0.0349;0.1654;
973090987753872;0.7429;0.0881;0.1846;
973090997863768;0.9888;0.1477;0.1963;
973091007962049;1.0389;0.1573;0.2037;
973091018076477;0.8908;0.0839;0.2346;
973091028181997;0.5607;-0.1228;0.2016;
973091038282831;0.3913;-0.2250;0.1515;
973091048386372;0.5841;-0.0812;0.1292;
973091058471216;0.8248;0.0477;0.1270;
973091068581164;0.7683;0.0136;0.1142;
973091078704706;0.6001;0.0466;0.1047;
973091088796372;0.5991;0.1594;0.0652;
973091098925383;0.5032;0.1136;-0.0040;
973091109017518;0.2944;0.0242;-0.0477;
973091119119706;0.3146;0.0541;-0.0679;
973091129225435;0.3136;0.0711;-0.1029;
973091139295591;0.1411;0.0296;-0.1530;
973091149437102;-0.0218;0.0349;-0.1690;
973091159537310;-0.1007;0.0530;-0.1636;
973091169641477;-0.0794;0.0285;-0.1711;
973091179748404;-0.0847;0.0146;-0.1732;
973091189846060;-0.0751;0.0381;-0.1711;
973091199953143;-0.0591;0.0146;-0.1732;
973091210073195;-0.0581;-0.0152;-0.1690;
973091220180383;-0.0644;0.0328;-0.1551;
973091230259966;-0.0719;0.0530;-0.1423;
973091240367622;-0.0687;0.0115;-0.1349;
973091250476477;-0.0623;0.0072;-0.1168;
973091260596529;-0.0527;0.0221;-0.0923;
973091270690956;-0.0538;0.0051;-0.0806;
973091280790122;-0.0666;0.0115;-0.0626;
973091290887310;-0.0783;0.0381;-0.0306;
973091301013872;-0.0751;0.0061;-0.0040;
973091311099914;-0.0698;-0.0397;0.0152;
973091321202622;-0.0687;-0.0354;0.0365;
973091331310747;-0.0687;-0.0216;0.0493;
973091341410956;-0.0751;-0.0301;0.0589;
973091351542258;-0.0826;-0.0248;0.0770;
973091361639758;-0.0815;-0.0077;0.0972;
973091371737258;-0.0762;-0.0109;0.1068;
973091381841112;-0.0676;-0.0226;0.1111;
973091391938612;-0.0623;-0.0226;0.1142;
973091402036112;-0.0474;-0.0280;0.1121;
973091412150383;0.0165;-0.0407;0.1057;
973091422247883;0.1049;-0.0429;0.1025;
973091432345383;0.1518;-0.0439;0.0897;
973091442463195;0.1284;-0.0546;0.0674;
973091452560695;0.0698;-0.0525;0.0365;
973091462658195;-0.0048;-0.0386;0.0024;
973091472774341;-0.0453;-0.0301;-0.0296;
973091482871841;-0.0272;-0.0173;-0.0466;
973091492969341;-0.0208;0.0008;-0.0519;
973091503092987;-0.0240;0.0083;-0.0530;
973091513190487;-0.0240;0.0136;-0.0519;
973091523287987;-0.0154;0.0146;-0.0423;
973091533406945;-0.0123;0.0083;-0.0242;
973091543504445;-0.0123;-0.0035;-0.0029;
973091553601945;-0.0176;-0.0130;0.0162;
973091563720591;-0.0272;-0.0216;0.0312;
973091573818091;-0.0314;-0.0301;0.0397;
973091583915591;-0.0304;-0.0375;0.0439;
973091593999289;-0.0293;-0.0386;0.0418;
973091604096737;-0.0282;-0.0354;0.0365;
973091614194237;-0.0325;-0.0301;0.0344;
973091624291685;-0.0357;-0.0184;0.0344;
973091634443195;-0.0346;-0.0056;0.0407;
973091644540747;-0.0336;0.0008;0.0471;
973091654638195;-0.0357;0.0029;0.0482;
973091664829862;-0.0368;0.0008;0.0525;
973091674927362;-0.0389;-0.0088;0.0599;
973091685024914;-0.0410;-0.0194;0.0716;
973091695085070;-0.0453;-0.0248;0.0812;
973091705182570;-0.0485;-0.0237;0.0876;
973091715280070;-0.0570;-0.0205;0.0919;
973091725377727;-0.0602;-0.0173;0.0972;
973091735475227;-0.0613;-0.0184;0.1015;
973091745572727;-0.0708;-0.0205;0.1068;
973091755711477;-0.1028;-0.0226;0.1089;
973091765808977;-0.1422;-0.0226;0.1111;
973091775906529;-0.1816;-0.0237;0.1100;
973091786013195;-0.2125;-0.0280;0.1057;
973091796110695;-0.2328;-0.0280;0.1047;
973091806208195;-0.2391;-0.0258;0.1025;
973091816333612;-0.2530;-0.0301;0.1015;
973091826431112;-0.2668;-0.0322;0.0993;
973091836528612;-0.2796;-0.0269;0.0993;
973091846686216;-0.2828;-0.0216;0.0993;
973091856783716;-0.2860;-0.0216;0.0972;
973091866881216;-0.3041;-0.0237;0.0961;
973091876974393;-0.3158;-0.0237;0.0951;
973091887071893;-0.2796;-0.0205;0.0844;
973091897169445;-0.2168;-0.0152;0.0834;
973091907273872;-0.1742;-0.0141;0.0919;
973091917371372;-0.1742;-0.0269;0.0940;
973091927468872;-0.1369;-0.0375;0.0887;
973091937588820;-0.0591;-0.0365;0.0844;
973091947686320;-0.0644;-0.0280;0.0908;
973091957783820;-0.0676;-0.0109;0.0929;
973091967899029;-0.0794;-0.0035;0.0887;
973091977996529;-0.0900;-0.0067;0.0802;
973091988094029;-0.1060;-0.0056;0.0727;
973091998217987;-0.1103;-0.0056;0.0567;
973092008315487;-0.0570;-0.0024;0.0354;
973092018412987;-0.0282;0.0136;0.0194;
973092028532570;-0.0304;0.0285;0.0099;
973092038630070;-0.0304;0.0338;-0.0040;
973092048727570;-0.0325;0.0210;-0.0200;
973092058837206;-0.0357;-0.0024;-0.0274;
973092068934758;-0.0314;-0.0237;-0.0296;
973092079032258;-0.0272;-0.0386;-0.0253;
973092089150904;-0.0282;-0.0386;-0.0232;
973092099248404;-0.0304;-0.0290;-0.0200;
973092109345904;-0.0336;-0.0152;-0.0104;
973092119472570;-0.0378;-0.0056;-0.0029;
973092129570122;-0.0421;-0.0013;-0.0104;
973092139667570;-0.0655;-0.0035;-0.0232;
973092149777258;-0.1475;-0.0045;-0.0349;
973092159874758;-0.2604;0.0083;-0.0445;
973092169972258;-0.3648;0.0285;-0.0498;
973092180078924;-0.4670;0.0434;-0.0573;
973092190176424;-0.5543;0.0519;-0.0658;
973092200273924;-0.5735;0.0509;-0.0636;
973092210437727;-0.5011;0.0360;-0.0562;
973092220535227;-0.3851;0.0093;-0.0477;
973092230632779;-0.2466;-0.0152;-0.0402;
973092240725799;-0.0996;-0.0344;-0.0338;
973092250823299;0.0059;-0.0461;-0.0274;
973092260920799;-0.0165;-0.0397;-0.0264;
973092271046112;-0.0165;-0.0162;-0.0306;
973092281143612;-0.0336;-0.0003;-0.0391;
973092291241112;-0.0762;0.0072;-0.0413;
973092301345904;-0.1635;0.0115;-0.0445;
973092311443404;-0.2370;0.0136;-0.0541;
973092321540904;-0.2668;0.0125;-0.0700;
973092331666112;-0.2573;0.0125;-0.0754;
973092341763612;-0.2359;0.0115;-0.0774;
973092351861112;-0.2146;0.0061;-0.0848;
973092361987049;-0.2019;0.0040;-0.0933;
973092372090122;-0.2168;0.0083;-0.1008;
973092382193195;-0.2743;0.0125;-0.1061;
973092392293195;-0.3691;0.0200;-0.1104;
973092402396216;-0.4808;0.0253;-0.1146;
973092412499289;-0.6033;0.0232;-0.1221;
973092422608612;-0.8313;0.0285;-0.1210;
973092432711685;-1.1497;0.0221;-0.1242;
973092442814758;-1.6779;0.0530;-0.1434;
973092452918247;-1.7343;0.0136;-0.2084;
973092463021372;-1.3318;-0.0141;-0.2073;
973092473124445;-1.0592;-0.0003;-0.1402;
973092483233664;-0.9996;-0.0312;-0.1136;
973092493336737;-0.9495;-0.0450;-0.1157;
973092503439862;-0.7812;-0.0226;-0.1115;
973092513544289;-0.4415;-0.0269;-0.0944;
973092523647414;0.0634;-0.0738;-0.0594;
973092533750487;0.3455;-0.1036;-0.0615;
973092543863977;0.4510;-0.0706;-0.0615;
973092553967049;0.4915;-0.0482;-0.0605;
973092564070122;0.5405;-0.0322;-0.0583;
973092574171164;0.5565;0.0040;-0.0477;
973092584274237;0.4915;0.0381;-0.0530;
973092594377310;0.3764;0.0477;-0.0795;
973092604496529;0.2806;0.0700;-0.0997;
973092614599549;0.2518;0.1264;-0.0976;
973092624702622;0.2869;0.1818;-0.1019;
973092634813143;0.3700;0.2084;-0.1115;
973092644916216;0.3849;0.1935;-0.0869;
973092655019289;0.1943;0.1221;-0.0700;
973092665112362;-0.1624;0.0093;-0.1146;
973092675215435;-0.3606;-0.0503;-0.1636;
973092685318508;-0.2125;0.0104;-0.1807;
973092695462206;-0.1422;0.0679;-0.1913;
973092705565279;-0.1784;0.0965;-0.1967;
973092715668299;-0.2168;0.1146;-0.1850;
973092725740539;-0.3499;0.0743;-0.1967;
973092735843612;-0.6310;-0.0088;-0.2478;
973092745946685;-0.7258;-0.0141;-0.2936;
973092756060018;-0.5820;0.0615;-0.3011;
973092766163091;-0.4256;0.1146;-0.2968;
973092776266164;-0.3201;0.1530;-0.3043;
973092786381841;-0.2871;0.1796;-0.3149;
973092796484914;-0.3766;0.1391;-0.3394;
973092806587935;-0.4915;0.0839;-0.3767;
973092816685435;-0.4989;0.0786;-0.3841;
973092826788508;-0.4192;0.0828;-0.3873;
973092836891581;-0.3606;0.0519;-0.4023;
973092847028924;-0.2860;0.0498;-0.3927;
973092857131997;-0.1987;0.0775;-0.3660;
973092867235070;-0.2328;0.0562;-0.3607;
973092877307206;-0.2498;0.0519;-0.3692;
973092887410279;-0.2636;0.0562;-0.3692;
973092897513404;-0.3670;0.0072;-0.3767;
973092907635383;-0.4840;-0.0493;-0.3799;
973092917738456;-0.4202;-0.0152;-0.3607;
973092927841529;-0.2839;0.0530;-0.3330;
973092937948508;-0.2636;0.0647;-0.3181;
973092948051581;-0.2807;0.0711;-0.3160;
973092958154654;-0.2732;0.1210;-0.3000;
973092968259758;-0.3712;0.1146;-0.2904;
973092978362831;-0.6214;0.0072;-0.3170;
973092988465904;-0.7556;-0.0301;-0.3351;
973092998574862;-0.7035;0.0040;-0.3181;
973093008677935;-0.5799;0.0210;-0.3256;
973093018780956;-0.3073;0.0871;-0.2883;
973093028890591;-0.0698;0.2222;-0.2414;
973093038993664;-0.0783;0.2457;-0.2382;
973093049096737;-0.2668;0.1636;-0.2670;
973093059193195;-0.3095;0.1146;-0.2915;
973093069296268;-0.2562;0.1115;-0.2808;
973093079399341;-0.2818;0.0732;-0.2883;
973093089512622;-0.2871;0.0274;-0.2904;
973093099615695;-0.1848;0.0530;-0.2712;
973093109718820;-0.1795;0.0700;-0.2563;
973093119833612;-0.2466;0.0306;-0.2744;
973093129936685;-0.2317;0.0200;-0.2659;
973093140039758;-0.2019;0.0445;-0.2361;
973093150146268;-0.1763;0.0466;-0.2148;
973093160249341;-0.0740;0.0743;-0.1999;
973093170352362;0.0634;0.1274;-0.1850;
973093180460435;0.0644;0.1051;-0.1796;
973093190563560;0.0368;0.0711;-0.1679;
973093200666581;0.1305;0.1136;-0.1221;
973093210773820;0.1305;0.1061;-0.0965;
973093220876841;-0.0698;0.0178;-0.1157;
973093230979966;-0.1965;-0.0162;-0.1136;
973093241085904;-0.1614;0.0168;-0.0838;
973093251188977;-0.1955;-0.0035;-0.0615;
973093261291008;-0.2413;-0.0546;-0.0413;
973093271394133;-0.1933;-0.0578;0.0013;
973093281497206;-0.2040;-0.0578;0.0354;
973093291617258;-0.2285;-0.0780;0.0493;
973093301720331;-0.2104;-0.0812;0.0716;
973093311823404;-0.2051;-0.0674;0.0972;
973093321936424;-0.2285;-0.0599;0.1142;
973093332039497;-0.2764;-0.0674;0.1302;
973093342142570;-0.4192;-0.1025;0.1334;
973093352245799;-0.5863;-0.1451;0.1206;
973093362348872;-0.6427;-0.1483;0.1185;
973093372451945;-0.5682;-0.1196;0.1430;
973093382562258;-0.4659;-0.0748;0.1750;
973093392665279;-0.4798;-0.0652;0.1941;
973093402768404;-0.6076;-0.0897;0.1750;
973093412869445;-0.7897;-0.1302;0.1473;
973093422972518;-0.9240;-0.1654;0.1228;
973093433075591;-0.9229;-0.1537;0.1302;
973093443187779;-0.8409;-0.1121;0.1419;
973093453290852;-0.7706;-0.0812;0.1430;
973093463393924;-0.7610;-0.0738;0.1409;
973093473516737;-0.7684;-0.0908;0.1366;
973093483619810;-0.7098;-0.0834;0.1515;
973093493722883;-0.6427;-0.0759;0.1622;
973093503817883;-0.6513;-0.1217;0.1473;
973093513920956;-0.5373;-0.1185;0.1387;
973093524024029;-0.3158;-0.0567;0.1696;
973093534123716;-0.2328;-0.0674;0.1718;
973093544226789;-0.2594;-0.0972;0.1494;
973093554329810;-0.2455;-0.0802;0.1515;
973093564438195;-0.2573;-0.0738;0.1483;
973093574541268;-0.2679;-0.0897;0.1366;
973093584644289;-0.2519;-0.0929;0.1409;
973093594721841;-0.2658;-0.0993;0.1430;
973093604824862;-0.2711;-0.1142;0.1345;
973093614927935;-0.2413;-0.1068;0.1356;
973093625031008;-0.2349;-0.0823;0.1398;
973093635166685;-0.2743;-0.0844;0.1419;
973093645269758;-0.2935;-0.1111;0.1345;
973093655372831;-0.2743;-0.1313;0.1409;
973093665480539;-0.2658;-0.1345;0.1515;
973093675583612;-0.2828;-0.1270;0.1430;
973093685686685;-0.3148;-0.1100;0.1398;
973093695820331;-0.3478;-0.1047;0.1174;
973093705923456;-0.3702;-0.1249;0.1206;
973093716026477;-0.2860;-0.1025;0.1356;
973093726110331;-0.3201;-0.0802;0.1387;
973093736213404;-0.3457;-0.0631;0.1270;
973093746316477;-0.3542;-0.0759;0.1313;
973093756421060;-0.3553;-0.1015;0.1419;
973093766524185;-0.3616;-0.1164;0.1558;
973093776627206;-0.3787;-0.1185;0.1579;
973093786741685;-0.3851;-0.1153;0.1473;
973093796844706;-0.3712;-0.1174;0.1441;
973093806947779;-0.3691;-0.1015;0.1537;
973093817044289;-0.4032;-0.0844;0.1505;
973093827147362;-0.4320;-0.0770;0.1238;
973093837250435;-0.4872;-0.0642;0.0983;
973093847388352;-0.4989;-0.0418;0.0940;
973093857491477;-0.4595;-0.0035;0.1004;
973093867594497;-0.4181;0.0317;0.0823;
973093877683716;-0.4234;0.0349;0.0557;
973093887786789;-0.4266;0.0402;0.0407;
973093897889810;-0.4595;0.0381;0.0099;
973093907997779;-0.4808;0.0072;-0.0115;
973093918100799;-0.4522;-0.0120;-0.0157;
973093928203924;-0.4234;-0.0099;-0.0317;
973093938326268;-0.4341;-0.0088;-0.0594;
973093948457570;-0.4394;-0.0120;-0.0923;
973093958560695;-0.4447;-0.0333;-0.1157;
973093968663768;-0.4170;-0.0354;-0.1189;
973093978727674;-0.3691;0.0200;-0.0976;
973093988830747;-0.3361;0.0754;-0.0901;
973093998933768;-0.4011;0.0732;-0.1242;
973094009044185;-0.4957;0.0296;-0.1477;
973094019147258;-0.4447;0.0264;-0.1360;
973094029250279;-0.4373;0.0615;-0.1157;
973094039353716;-0.4405;0.0722;-0.1242;
973094049456789;-0.3957;0.0647;-0.1360;
973094059559810;-0.2509;0.1104;-0.1200;
973094069690279;-0.1220;0.1583;-0.0912;
973094079793299;-0.2562;0.0828;-0.1146;
973094089896424;-0.4224;-0.0237;-0.1370;
973094099998508;-0.3371;-0.0301;-0.1083;
973094110101581;-0.1742;-0.0035;-0.0838;
973094120204602;-0.0474;0.0029;-0.0987;
973094130303299;0.1900;0.0743;-0.0636;
973094140406372;0.3679;0.1360;-0.0115;
973094150509393;0.2955;0.0786;-0.0115;
973094160611633;0.1644;0.0061;-0.0221;
973094170714654;0.1655;0.0381;-0.0093;
973094180817727;0.1305;0.0541;-0.0115;
973094190930799;-0.0676;-0.0173;-0.0285;
973094201033820;-0.2306;-0.0770;-0.0178;
973094211136893;-0.2402;-0.0652;-0.0093;
973094221260539;-0.2210;-0.0525;-0.0317;
973094231363664;-0.1923;-0.0322;-0.0445;
973094241466685;-0.1379;0.0636;-0.0146;
973094251547831;-0.2402;0.1221;0.0056;
973094261650904;-0.4936;0.0445;-0.0104;
973094271754029;-0.5181;-0.0045;-0.0402;
973094281866164;-0.4808;0.0232;-0.0487;
973094291969289;-0.5000;0.0626;-0.0562;
973094302072362;-0.5117;0.0912;-0.0455;
973094312181581;-0.4947;0.0764;-0.0423;
973094322284706;-0.4522;0.0647;-0.0530;
973094332387727;-0.3563;0.0796;-0.0615;
973094342483612;-0.2913;0.0402;-0.0880;
973094352586685;-0.2413;0.0232;-0.0848;
973094362689758;-0.1422;0.1434;0.0269;
973094372812362;-0.2636;0.2861;-0.0104;
973094382915435;-0.3734;0.3021;-0.1136;
973094393018456;-0.4659;0.2350;-0.2318;
973094403121997;-0.3563;0.1168;-0.2798;
973094413225122;-0.1348;0.0722;-0.2542;
973094423328195;-0.0794;0.0818;-0.1935;
973094433437414;-0.2359;0.0839;-0.1636;
973094443540539;-0.3702;0.1104;-0.1594;
973094453643612;-0.4192;0.1402;-0.1924;
973094463759185;-0.3691;0.1296;-0.2393;
973094473862258;-0.2232;0.1051;-0.2446;
973094483965279;-0.0794;0.0850;-0.2084;
973094494061372;-0.0186;0.1317;-0.1892;
973094504164497;-0.0144;0.2169;-0.1668;
973094514267518;-0.0197;0.2457;-0.1551;
973094524371581;0.0336;0.1732;-0.1743;
973094534474706;0.1549;0.1328;-0.1956;
973094544577727;0.1666;0.1296;-0.1945;
973094554731685;0.1433;0.0997;-0.2222;
973094564834758;0.1559;0.1051;-0.2638;
973094574937831;0.1060;0.1807;-0.2830;
973094584987779;0.0314;0.1381;-0.3256;
973094595090852;0.0708;0.1306;-0.3778;
973094605193872;0.0186;0.1839;-0.4129;
973094615335591;-0.0730;0.1935;-0.4459;
973094625438664;-0.0826;0.1775;-0.4811;
973094635541685;-0.1273;0.2371;-0.4800;
973094645620435;-0.2413;0.2180;-0.4768;
973094655723508;-0.3212;0.1125;-0.5035;
973094665826581;-0.3627;0.1423;-0.4939;
973094675977935;-0.5064;0.2254;-0.4907;
973094686081008;-0.6268;0.2020;-0.5013;
973094696184081;-0.7130;0.1530;-0.4779;
973094706276529;-0.7578;0.1274;-0.4630;
973094716379602;-0.7748;0.1008;-0.4715;
973094726482622;-0.7674;0.0690;-0.4992;
973094736591477;-0.7876;0.0370;-0.5045;
973094746694549;-0.7940;0.0402;-0.4726;
973094756797622;-0.7461;0.0881;-0.4385;
973094766890643;-0.8334;0.0274;-0.4300;
973094776993716;-0.7748;0.0466;-0.4193;
973094787096789;-0.7961;0.1636;-0.3959;
973094797198872;-0.9442;0.0860;-0.3852;
973094807301945;-0.8270;0.1328;-0.3618;
973094817405018;-0.8931;0.1807;-0.3586;
973094827520435;-0.9602;0.1360;-0.3639;
973094837623560;-0.9719;0.1210;-0.3501;
973094847726581;-1.0889;0.0413;-0.3575;
973094857837518;-1.0454;0.0605;-0.3522;
973094867940591;-1.0708;0.0455;-0.3469;
973094878043664;-1.1081;-0.0088;-0.3565;
973094888151529;-1.0038;-0.0237;-0.3224;
973094898254602;-0.9357;-0.0407;-0.3128;
973094908357674;-0.8941;-0.0695;-0.3224;
973094918464445;-0.7599;-0.0269;-0.2915;
973094928567518;-0.7706;0.0274;-0.2680;
973094938670591;-0.8281;-0.0162;-0.2712;
973094948788664;-0.6630;-0.0035;-0.2435;
973094958892727;-0.6055;0.0391;-0.2425;
973094968996841;-0.6342;-0.0045;-0.2574;
973094979097049;-0.6086;0.0562;-0.2222;
973094989201112;-0.6513;0.0732;-0.2254;
973094999305174;-0.6193;0.0061;-0.2467;
973095009407466;-0.5948;0.0051;-0.2244;
973095019511581;-0.6108;-0.0045;-0.2137;
973095029615643;-0.6023;-0.0876;-0.2148;
973095039720643;-0.5596;-0.1142;-0.2009;
973095049824706;-0.5160;-0.0993;-0.1924;
973095059928820;-0.5224;-0.1142;-0.2052;
973095070041372;-0.5192;-0.1238;-0.1892;
973095080145435;-0.4840;-0.0961;-0.1850;
973095090249549;-0.5000;-0.0716;-0.2084;
973095100343664;-0.5671;-0.0429;-0.2126;
973095110447727;-0.5959;-0.0322;-0.1881;
973095120551841;-0.5959;-0.0184;-0.1967;
973095130663143;-0.5810;0.0221;-0.1999;
973095140767258;-0.6044;0.0328;-0.1818;
973095150871320;-0.6055;0.0402;-0.1828;
973095160976789;-0.5873;0.0381;-0.1913;
973095171080852;-0.5533;-0.0184;-0.1945;
973095181184966;-0.5160;-0.0248;-0.2020;
973095191301789;-0.5106;-0.0152;-0.2276;
973095201405852;-0.4426;-0.0429;-0.2276;
973095211509966;-0.3947;-0.0450;-0.2222;
973095221606893;-0.4181;-0.0439;-0.2521;
973095231710956;-0.4734;-0.0439;-0.3043;
973095241815070;-0.4915;-0.0003;-0.3170;
973095251918872;-0.5149;0.0083;-0.3341;
973095262022935;-0.5096;0.0072;-0.3554;
973095272127102;-0.4702;0.0636;-0.3309;
973095282232935;-0.4808;0.0892;-0.3266;
973095292336997;-0.4192;0.1146;-0.4108;
973095302441112;-0.3254;0.1360;-0.5578;
973095312554185;-0.3435;0.0541;-0.6462;
973095322658247;-0.1294;-0.0141;-0.5482;
973095332762362;0.1379;-0.0322;-0.4118;
973095342867518;0.2103;-0.0897;-0.3650;
973095352971581;0.3242;-0.0908;-0.3767;
973095363100539;0.4861;-0.0716;-0.3820;
973095373204654;0.5437;-0.0748;-0.3458;
973095383308716;0.5373;-0.0695;-0.2595;
973095393402310;0.5799;-0.0269;-0.1924;
973095403506372;0.5980;-0.0077;-0.1668;
973095413610487;0.5980;-0.0482;-0.1423;
973095423704289;0.6513;-0.0375;-0.1136;
973095433808352;0.6321;-0.0983;-0.0732;
973095443912466;0.5426;-0.1675;-0.0477;
973095454009133;0.3743;-0.1206;-0.0157;
973095464113195;0.1751;-0.1121;-0.0168;
973095474217310;0.0911;-0.1760;-0.0253;
973095484328768;-0.0154;-0.1941;-0.0104;
973095494432831;-0.2104;-0.1387;-0.0008;
973095504536997;-0.4106;-0.0695;-0.0125;
973095514648143;-0.4309;-0.0876;-0.0178;
973095524752206;-0.3893;-0.1068;-0.0200;
973095534856372;-0.4426;-0.0248;-0.0210;
973095544937674;-0.4616;0.0466;-0.0274;
973095555041737;-0.4543;0.0786;-0.0573;
973095565145852;-0.4362;0.1093;-0.1146;
973095575259706;-0.4277;0.1061;-0.1189;
973095585363768;-0.3947;0.0976;-0.1274;
973095595467883;-0.3861;0.1040;-0.1264;
973095605588872;-0.3446;0.0818;-0.1903;
973095615692935;-0.2306;0.0168;-0.2286;
973095625797049;-0.0794;-0.0003;-0.2148;
973095635899393;-0.0655;0.0775;-0.1935;
973095646003456;-0.0655;0.0360;-0.2020;
973095656107570;0.0527;-0.0280;-0.2286;
973095666199289;0.0996;0.0125;-0.2041;
973095676303404;0.0527;0.0786;-0.2105;
973095686407466;-0.0240;0.0658;-0.2361;
973095696520227;0.0804;0.0200;-0.2744;
973095706624341;0.1751;0.0551;-0.3181;
973095716728404;0.1836;0.0178;-0.2808;
973095726874445;0.2348;0.0445;-0.2819;
973095736978508;0.2593;0.0711;-0.2627;
973095747082622;0.3232;-0.0088;-0.2659;
973095757173872;0.4222;-0.0866;-0.2467;
973095767277935;0.4531;-0.0407;-0.2095;
973095777382049;0.3487;0.0349;-0.2222;
973095787455852;0.3168;0.0104;-0.1988;
973095797559914;0.3232;-0.0024;-0.2105;
973095807664029;0.2603;0.0285;-0.2031;
973095817789081;0.1932;0.0668;-0.2201;
973095827893195;0.1156;0.0647;-0.2329;
973095837997258;0.0197;0.0573;-0.2382;
973095848113560;-0.0123;0.0189;-0.2606;
973095858217674;-0.0495;0.0498;-0.2478;
973095868321789;-0.1230;0.1051;-0.2627;
973095878418143;-0.1550;0.0850;-0.2659;
973095888522206;-0.1593;0.0796;-0.2819;
973095898626320;-0.1582;0.0743;-0.2936;
973095908731685;-0.1582;0.0487;-0.2851;
973095918835747;-0.1294;0.0083;-0.2872;
973095928939862;-0.0517;-0.0461;-0.2702;
973095939066529;0.0815;-0.1111;-0.2691;
973095949170591;0.2401;-0.1366;-0.2297;
973095959274654;0.3477;-0.0993;-0.2063;
973095969357883;0.4489;-0.1142;-0.1743;
973095979461997;0.5394;-0.0908;-0.1605;
973095989566060;0.5937;-0.0439;-0.1509;
973095999667831;0.6481;-0.0067;-0.1242;
973096009771893;0.6853;0.0264;-0.1349;
973096019876008;0.6907;0.0434;-0.1253;
973096029983456;0.7152;0.0594;-0.1413;
973096040087518;0.7333;0.0775;-0.1296;
973096050191685;0.7184;0.0818;-0.1349;
973096060303612;0.7003;0.1178;-0.1338;
973096070407674;0.6449;0.0933;-0.1317;
973096080511789;0.6193;0.0509;-0.1370;
973096090618977;0.5639;0.0221;-0.1477;
973096100723039;0.5309;0.0221;-0.1722;
973096110827154;0.4840;0.0509;-0.1850;
973096120928456;0.4755;0.0157;-0.2041;
973096131032518;0.5043;-0.0162;-0.1988;
973096141136633;0.5202;-0.0503;-0.2041;
973096151243404;0.5320;-0.0248;-0.2105;
973096161347466;0.5426;-0.0141;-0.2126;
973096171451529;0.5437;0.0104;-0.2180;
973096181561372;0.5788;0.0274;-0.2116;
973096191665487;0.6172;0.0285;-0.2063;
973096201769549;0.6896;0.0274;-0.1956;
973096211867935;0.7556;0.0178;-0.1786;
973096221971997;0.8098;-0.0035;-0.1498;
973096232076112;0.8482;0.0093;-0.1264;
973096242185331;0.8727;0.0413;-0.1083;
973096252289445;0.8770;0.0562;-0.0976;
973096262393508;0.8844;-0.0109;-0.0573;
973096272501060;0.9015;-0.0471;-0.0370;
973096282605122;0.9174;-0.0099;-0.0455;
973096292709237;0.8929;-0.0077;-0.0349;
973096302811789;0.9121;-0.0237;0.0205;
973096312915852;0.9409;0.0210;0.0503;
973096323019966;0.9995;0.0923;0.0503;
973096333141685;1.0101;0.1093;0.0652;
973096343245747;0.9249;0.0786;0.1004;
973096353349914;0.8695;-0.0173;0.1601;
973096363440956;0.9238;0.0498;0.1611;
973096373545331;0.9462;0.1796;0.1537;
973096383649706;0.8748;0.1274;0.1707;
973096393743039;0.7875;0.1051;0.1632;
973096403847414;0.7130;0.1200;0.1622;
973096413951789;0.6513;0.1381;0.1675;
973096424062831;0.5362;0.1189;0.1196;
973096434167206;0.5128;0.1157;0.0844;
973096444271581;0.5639;0.1083;0.0791;
973096454374393;0.5383;0.0764;0.0834;
973096464478768;0.5618;0.0615;0.0855;
973096474583143;0.5639;0.0700;0.0716;
973096484702727;0.5916;0.0519;0.0610;
973096494807102;0.6225;0.0296;0.0834;
973096504911477;0.6289;0.0647;0.0589;
973096514990435;0.6545;0.0786;0.0748;
973096525094862;0.6214;0.0264;0.0929;
973096535199237;0.6363;0.0413;0.0727;
973096545332102;0.6534;0.0912;0.0684;
973096555436477;0.6651;0.1413;0.0802;
973096565540852;0.7013;0.0976;0.1164;
973096575643872;0.7109;0.0562;0.1281;
973096585748247;0.7066;0.1146;0.1473;
973096595852570;0.7088;0.1583;0.1803;
973096605948299;0.7333;0.1615;0.1995;
973096616052674;0.7651;0.0839;0.2453;
973096626157049;0.7630;0.0146;0.2826;
973096636270747;0.7003;0.0168;0.2900;
973096646375122;0.6236;0.0338;0.2964;
973096656479497;0.6055;0.0551;0.2900;
973096666581581;0.5937;0.0743;0.2953;
973096676685956;0.5863;0.0976;0.2847;
973096686790331;0.5937;0.1104;0.2772;
973096696895383;0.5841;0.1221;0.2644;
973096706999758;0.5969;0.1274;0.2442;
973096717104133;0.6055;0.1370;0.2581;
973096727217310;0.5746;0.1349;0.2687;
973096737321685;0.6012;0.0997;0.2708;
973096747426060;0.5991;0.0987;0.2815;
973096757523872;0.5383;0.0839;0.2549;
973096767628247;0.5639;0.0754;0.2687;
973096777732622;0.5639;0.0690;0.2804;
973096787840331;0.5671;0.0626;0.2815;
973096797944706;0.5735;0.1008;0.3092;
973096808049081;0.5810;0.1668;0.3284;
973096818148143;0.6438;0.1583;0.3646;
973096828252518;0.6545;0.0786;0.4232;
973096838356893;0.6023;0.1072;0.4349;
973096848479549;0.5799;0.2276;0.4583;
973096858583924;0.5277;0.2212;0.4786;
973096868688299;0.5224;0.1573;0.5116;
973096878778299;0.4361;0.1051;0.5370;
973096888882674;0.3296;0.0965;0.5381;
973096898987049;0.2241;0.0965;0.5338;
973096909085799;0.1188;0.0892;0.5265;
973096919190174;0.0176;0.0828;0.5116;
973096929294549;-0.0889;0.0381;0.4988;
973096939415591;-0.2317;-0.0269;0.4956;
973096949519966;-0.3830;-0.0173;0.4391;
973096959624341;-0.4904;0.0232;0.4114;
973096969716164;-0.6683;0.1466;0.3390;
973096979820539;-0.7493;0.1264;0.2921;
973096989924914;-0.6353;-0.0035;0.3071;
973097000038456;-0.6065;0.0093;0.2676;
973097010142831;-0.6598;-0.0429;0.2676;
973097020247206;-0.7066;-0.1111;0.2676;
973097030351268;-0.7035;-0.1430;0.2357;
973097040455643;-0.6704;-0.1345;0.2272;
973097050560018;-0.6971;-0.1206;0.2080;
973097060678664;-0.7173;-0.1984;0.1856;
973097070783039;-0.7301;-0.2900;0.1473;
973097080887414;-0.6534;-0.3166;0.1142;
973097090975799;-0.5586;-0.2985;0.1057;
973097101080174;-0.5085;-0.1835;0.0834;
973097111184549;-0.4861;-0.0471;0.0684;
973097121289081;-0.4394;-0.0237;0.0663;
973097131393456;-0.3052;-0.0024;0.0770;
973097141497831;-0.1965;0.1008;0.0557;
973097151610956;-0.1220;0.1605;0.0503;
973097161715331;-0.0900;0.0764;0.0578;
973097171819706;-0.0101;-0.0152;0.0333;
973097181922622;0.0517;0.0541;0.0439;
973097192026997;0.0389;0.1743;0.0748;
973097202131372;0.0186;0.1754;0.0802;
973097212232831;0.0730;0.0923;0.0738;
973097222337206;0.0804;0.0381;0.0812;
973097232441581;0.0250;0.0338;0.0866;
973097242545122;-0.0048;-0.0344;0.0908;
973097252649497;-0.0112;-0.0471;0.0748;
973097262753872;-0.0272;0.0445;0.0599;
973097272878039;-0.0623;0.1626;0.0493;
973097282982414;-0.0804;0.1498;0.0386;
973097293086789;-0.0048;-0.0099;0.0770;
973097303182206;0.0708;-0.0610;0.1164;
973097313286581;0.0676;0.0232;0.1142;
973097323390956;0.0325;0.0157;0.1611;
973097333500591;-0.0112;-0.0727;0.1888;
973097343604966;0.0112;-0.0684;0.2016;
973097353709341;-0.0176;0.0338;0.2037;
973097363804081;-0.0794;0.0115;0.2463;
973097373908716;-0.0314;-0.1973;0.2740;
973097384013299;-0.0325;-0.2485;0.2410;
973097394119966;-0.1145;-0.0834;0.2101;
973097404224602;-0.1997;0.0455;0.2144;
973097414329185;-0.3180;0.0413;0.2165;
973097424431893;-0.3286;-0.0567;0.2314;
973097434536529;-0.2988;-0.0280;0.1728;
973097444641112;-0.3382;-0.0109;0.1632;
973097454811581;-0.4234;-0.0802;0.1174;
973097464916216;-0.4224;-0.1217;0.0887;
973097475020799;-0.3723;-0.1228;0.0684;
973097485054497;-0.2807;-0.0429;0.0652;
973097495159081;-0.2913;0.0051;0.0706;
973097505263716;-0.3499;0.0541;0.0141;
973097515400174;-0.3585;0.1658;0.0344;
973097525504810;-0.3031;-0.0024;0.0141;
973097535609341;-0.2178;-0.0791;-0.0253;
973097545690018;-0.1784;0.1807;-0.0083;
973097555794654;-0.2913;0.4246;-0.0370;
973097565899237;-0.2700;0.2244;-0.0477;
973097576028560;-0.1859;-0.1089;-0.0360;
973097586133195;-0.1145;0.0040;-0.0338;
973097596237779;-0.2051;0.2680;-0.0551;
973097606304706;-0.3105;0.1722;-0.0743;
973097616409341;-0.2711;0.0104;-0.1051;
973097626513924;-0.1944;0.0807;-0.1285;
973097636637727;-0.2338;0.1391;-0.1583;
973097646742362;-0.2530;0.0253;-0.1796;
973097656846997;-0.1891;-0.1483;-0.1935;
973097666949914;-0.1486;-0.0216;-0.2616;
973097677054549;-0.2040;-0.1835;-0.2265;
973097687159185;-0.1518;-0.2932;-0.2009;
973097697259810;-0.0485;-0.0972;-0.2616;
973097707364445;0.0559;-0.0951;-0.2893;
973097717469029;0.1049;-0.1334;-0.2329;
973097727576372;0.0868;-0.0216;-0.1732;
973097737681008;0.1039;0.0828;-0.1573;
973097747785591;0.1220;0.0349;-0.1381;
973097757896581;0.0815;-0.0972;-0.1104;
973097768001216;0.0975;-0.0162;-0.1338;
973097778105799;0.1124;0.0933;-0.1754;
973097788210643;0.0037;0.0200;-0.1903;
973097798315279;-0.0463;0.0104;-0.1935;
973097808419862;-0.0357;0.0594;-0.2009;
973097818518872;-0.0900;-0.0152;-0.1903;
973097828623508;-0.1198;-0.1015;-0.1988;
973097838728091;-0.1145;-0.0567;-0.2297;
973097848844706;-0.0517;-0.1494;-0.2009;
973097858949289;0.0666;-0.2442;-0.2542;
973097869053924;0.3477;-0.1877;-0.2744;
973097879148143;0.5415;0.0850;-0.2318;
973097889252779;0.4052;0.1296;-0.1210;
973097899357414;0.1497;0.0189;-0.0232;
973097909462206;0.0921;0.0434;-0.0061;
973097919566841;0.2529;0.1413;-0.0083;
973097929671424;0.2337;0.1306;-0.0178;
973097939782310;0.0921;0.0850;-0.0349;
973097949886945;0.0197;0.0445;-0.0178;
973097959991529;0.0623;0.0061;0.0120;
973097970086477;0.1858;0.0541;0.0216;
973097980191112;0.2337;0.1509;-0.0072;
973097990295695;0.2624;0.2553;-0.0253;
973098000402049;0.1507;0.2851;-0.0285;
973098010506685;-0.0399;-0.0525;0.0141;
973098020611320;-0.0431;-0.2442;0.0684;
973098030718247;-0.0421;-0.2996;0.0589;
973098040822883;0.0836;-0.3891;0.1004;
973098050927466;0.2901;-0.2783;0.1377;
973098061047622;0.4382;-0.1409;0.1387;
973098071152258;0.3700;-0.0951;0.1324;
973098081256841;0.1103;-0.0610;0.1132;
973098091350227;0.0027;-0.0674;0.1313;
973098101454862;0.0655;0.0965;0.1132;
973098111559445;-0.0186;0.1242;0.0652;
973098121668143;-0.0613;-0.0897;0.0652;
973098131772779;-0.0698;-0.0418;0.0493;
973098141877362;-0.0272;0.0381;0.0610;
973098151970383;-0.0368;-0.0312;0.0674;
973098162075018;-0.0953;-0.0631;0.0652;
973098172179602;-0.1081;-0.0993;0.0248;
973098182298560;-0.0218;-0.1356;0.0344;
973098192403195;0.0634;-0.1292;0.0184;
973098202507779;0.0836;-0.2570;0.0269;
973098212601997;0.1028;-0.2591;0.0248;
973098222706633;0.1783;-0.1547;0.0152;
973098232811216;0.1847;-0.1569;0.0461;
973098242911997;0.1241;-0.1324;0.0695;
973098253016633;0.1166;-0.0365;0.0791;
973098263121216;0.0826;0.0976;0.0695;
973098273216789;0.0517;0.0519;0.0887;
973098283321424;0.0154;-0.0088;0.0897;
973098293426060;-0.0154;0.0402;0.0791;
973098303540383;-0.0368;0.0573;0.0876;
973098313645018;-0.1039;-0.0088;0.1057;
973098323749602;-0.2104;0.0061;0.0546;
973098333849914;-0.4840;-0.1995;0.0386;
973098343954549;-0.5905;-0.4328;0.0248;
973098354059133;-0.5032;-0.3859;-0.0615;
973098364196008;-0.5714;-0.6542;-0.1008;
973098374300956;0.1719;-0.7980;-0.0338;
973098384405799;0.6001;-0.2549;-0.1828;
973098394483143;0.1975;0.1754;-0.0901;
973098404588039;-0.0730;0.1679;0.0439;
973098414692935;0.1507;0.0944;0.1036;
973098424824966;0.1017;0.3660;0.1057;
973098434929810;-0.0059;0.4907;0.0695;
973098445034758;-0.1092;0.2137;0.0844;
973098455088716;-0.1912;0.0232;0.1068;
973098465193664;-0.2061;0.1125;0.0791;
973098475298560;-0.2477;0.0965;0.0035;
973098485460799;-0.1614;0.1658;-0.0040;
973098495565695;-0.1071;0.0072;0.0312;
973098505670591;-0.0336;0.3437;0.0003;
973098515740227;0.0176;0.7707;-0.0816;
973098525845122;-0.0847;-0.3763;-0.0498;
973098535950018;-0.0314;-0.9770;0.1973;
973098546050643;0.2124;-0.1270;0.1089;
973098556155539;0.4744;-0.0173;0.1217;
973098566260435;0.2891;-0.6467;0.2751;
973098576363508;0.1369;-0.3827;0.2623;
973098586468404;0.2166;0.2851;0.2389;
973098596573352;0.2507;0.3714;0.2410;
973098606702310;0.0730;0.1029;0.2708;
973098616807206;-0.0794;0.2627;0.2431;
973098626912102;-0.1113;0.5620;0.1867;
973098636997154;-0.0794;0.0955;0.2410;
973098647102049;-0.1603;-0.2357;0.2293;
973098657206945;-0.2498;-0.0205;0.1622;
973098667314133;-0.2999;-0.1707;0.2112;
973098677419029;-0.4000;-0.0354;0.1814;
973098687523924;-0.5234;0.3181;0.1643;
973098697633404;-0.4415;-0.0972;0.2623;
973098707738299;-0.2210;-0.1377;0.1984;
973098717843195;-0.1241;-0.0322;0.1537;
973098727944914;-0.2530;-0.1739;0.2208;
973098738049810;-0.4469;-0.0802;0.1728;
973098748154706;-0.3808;0.1253;0.1483;
973098758257674;-0.4096;0.1189;0.0972;
973098768362570;-0.4181;0.1487;0.0663;
973098778467466;-0.4830;0.2425;0.0333;
973098788578195;-0.6023;0.3554;0.0056;
973098798683091;-0.5948;0.4949;-0.0690;
973098808787987;-0.6278;0.0466;-0.0562;
973098818900331;-0.5266;-0.1547;-0.0605;
973098829005174;-0.2668;0.0668;-0.0944;
973098839110070;-0.2690;0.0892;-0.0891;
973098849193768;-0.3723;-0.0333;-0.0880;
973098859298664;-0.2945;0.0711;-0.0605;
973098869403560;-0.2636;0.1168;-0.1029;
973098879513247;-0.2285;-0.0482;-0.1423;
973098889618143;-0.1891;-0.0205;-0.1338;
973098899723039;-0.1348;0.0976;-0.1157;
973098909828508;-0.1081;0.1253;-0.1019;
973098919933404;-0.1571;0.1104;-0.1232;
973098930038299;-0.1955;-0.0748;-0.0647;
973098940142466;-0.1944;0.0976;-0.0901;
973098950247362;-0.1252;0.1594;-0.0869;
973098960352258;-0.2274;-0.1877;-0.0763;
973098970455904;-0.2349;0.0944;-0.1168;
973098980560852;-0.0581;0.1242;-0.0754;
973098990665695;-0.0485;0.0157;-0.0827;
973099000777258;-0.0261;0.2254;-0.1104;
973099010882154;-0.0698;0.1732;-0.0859;
973099020987102;-0.2189;0.0796;-0.0328;
973099031087154;-0.2285;0.1072;-0.0370;
973099041192102;-0.1965;0.1306;-0.0615;
973099051296945;-0.1806;0.0615;-0.0583;
973099061391945;-0.1795;-0.0450;-0.0317;
973099071496841;-0.1667;-0.0248;-0.0477;
973099081601789;-0.1369;0.2095;-0.1072;
973099091719654;-0.1593;0.2009;-0.0795;
973099101824549;-0.2083;0.0061;-0.0743;
973099111929445;-0.1678;0.0242;-0.0923;
973099122045487;-0.1326;-0.0056;-0.0869;
973099132150383;-0.0783;-0.1153;-0.0200;
973099142255331;-0.0740;-0.1696;-0.0242;
973099152354862;-0.0517;-0.0418;-0.0125;
973099162459758;-0.0410;0.0541;-0.0541;
973099172564654;-0.1284;0.0232;-0.0232;
973099182672049;-0.0943;0.0944;0.0035;
973099192776997;-0.1134;0.1019;0.0024;
973099202881841;-0.1933;0.1072;-0.0901;
973099212967362;-0.1475;0.1104;-0.0923;
973099223072258;-0.1635;0.0232;-0.0880;
973099233177154;-0.1390;0.0530;-0.1264;
973099243288404;-0.1071;-0.0162;-0.1125;
973099253393299;-0.1113;-0.1121;-0.1306;
973099263463560;-0.1561;-0.0674;-0.1381;
973099273568456;-0.1454;0.0732;-0.1466;
973099283673352;-0.0953;-0.0791;-0.1274;
973099293814862;-0.1017;-0.1185;-0.1296;
973099303919810;-0.0953;-0.1302;-0.1317;
973099314024706;-0.1348;-0.1601;-0.1839;
973099324115279;-0.1124;0.0530;-0.2222;
973099334220227;-0.0655;0.0775;-0.1999;
973099344325122;-0.0112;-0.1558;-0.2084;
973099354453612;-0.1465;-0.0706;-0.3096;
973099364558560;-0.2296;0.0040;-0.3160;
973099374663456;-0.2296;-0.0301;-0.2861;
973099384810331;-0.3861;0.0594;-0.3671;
973099394915227;-0.3308;0.0605;-0.3586;
973099405020122;-0.1241;0.0274;-0.3330;
973099415050279;-0.0421;-0.0290;-0.3714;
973099425155227;-0.0698;-0.0663;-0.4118;
973099435260122;-0.0943;0.0210;-0.4406;
973099445400695;-0.0080;0.0083;-0.4044;
973099455505591;0.0495;-0.0493;-0.3948;
973099465610487;0.0613;-0.0535;-0.4246;
973099475705591;0.0591;-0.0109;-0.4204;
973099485810487;0.1273;-0.0130;-0.4033;
973099495915383;0.2220;-0.0674;-0.3682;
973099505996529;0.3061;-0.0152;-0.3288;
973099516101477;0.4819;-0.0439;-0.2627;
973099526206372;0.6576;-0.1441;-0.1945;
973099536323820;0.6768;-0.0780;-0.1370;
973099546428716;0.7098;-0.0162;-0.0784;
973099556533664;0.8194;0.0423;-0.0210;
973099566652466;0.8642;0.0338;0.0620;
973099576757362;0.8045;0.0146;0.0972;
973099586862258;0.6811;0.0615;0.1483;
973099596967414;0.6129;0.0509;0.2048;
973099607072310;0.5192;-0.0120;0.2698;
973099617177154;0.3487;-0.0099;0.2953;
973099627263612;0.2571;-0.0216;0.3294;
973099637368508;0.2166;-0.0578;0.3742;
973099647473404;0.1518;-0.1015;0.3901;
973099657583508;-0.0261;-0.1537;0.4061;
973099667688456;-0.2519;-0.0759;0.3848;
973099677793299;-0.2051;0.0051;0.3656;
973099687889237;-0.2253;-0.0162;0.3507;
973099697994133;-0.3947;-0.0067;0.2857;
973099708099029;-0.5117;0.0413;0.2367;
973099718207414;-0.5586;0.0317;0.1963;
973099728312310;-0.5788;0.0189;0.1462;
973099738417206;-0.5863;0.0168;0.0716;
973099748523612;-0.6065;0.0296;0.0429;
973099758628508;-0.5575;-0.0035;0.0130;
973099768733456;-0.5703;0.0253;-0.0562;
973099778838143;-0.5096;0.0743;-0.1423;
973099788942987;-0.3563;0.0019;-0.1988;
973099799047883;-0.2658;-0.0045;-0.2052;
973099809151008;-0.2157;0.0146;-0.2244;
973099819255956;-0.0985;0.0061;-0.2723;
973099829360799;-0.0389;-0.0301;-0.2872;
973099839449706;0.0272;-0.0961;-0.2840;
973099849554602;0.0953;-0.0855;-0.2830;
973099859659549;0.2273;0.0072;-0.2542;
973099869777102;0.3690;0.0242;-0.2190;
973099879881997;0.4648;-0.0429;-0.1839;
973099889986893;0.4137;-0.0535;-0.1615;
973099900130383;0.4158;-0.0184;-0.1370;
973099910235279;0.4606;0.0264;-0.1115;
973099920340174;0.5096;0.0455;-0.1093;
973099930407779;0.4915;0.0029;-0.0880;
973099940512727;0.3125;0.0232;-0.0583;
973099950617570;0.2092;0.0679;-0.0381;
973099960718820;0.1772;0.0658;-0.0360;
973099970823768;0.1401;0.0786;-0.0360;
973099980928612;0.0879;0.0178;-0.0221;
973099991042987;0.0389;-0.0620;-0.0072;
973100001147883;-0.1220;-0.0248;-0.0136;
973100011252831;-0.1571;0.0466;-0.0509;
973100021340174;-0.1039;0.0711;-0.0690;
973100031445070;-0.0836;0.0338;-0.0965;
973100041549966;-0.1145;-0.0216;-0.1125;
973100051661008;-0.1720;0.0019;-0.1274;
973100061765904;-0.1103;0.0328;-0.1338;
973100071870852;0.0123;0.0306;-0.1306;
973100081990695;0.0442;-0.0099;-0.1317;
973100092095643;0.0144;-0.0631;-0.1391;
973100102200487;0.0048;-0.1238;-0.1264;
973100112296841;0.0250;-0.0887;-0.1242;
973100122401737;0.1039;0.0232;-0.1370;
973100132506633;0.2252;0.0466;-0.1306;
973100142598612;0.2656;-0.0013;-0.1306;
973100152703508;0.2156;-0.0620;-0.1178;
973100162808404;0.1815;-0.0152;-0.1210;
973100172934602;0.2923;0.0083;-0.1083;
973100183039497;0.3583;-0.0695;-0.0795;
973100193144393;0.3189;-0.1068;-0.0615;
973100203237414;0.2656;-0.0642;-0.0360;
973100213342310;0.2838;-0.0077;-0.0360;
973100223447206;0.3594;-0.1728;-0.0423;
973100233552049;0.1454;-0.2772;-0.0381;
973100243656945;0.1103;-0.1111;0.0269;
973100253761841;0.2582;0.1157;0.0344;
973100263862570;0.3871;0.2180;0.0056;
973100273967622;0.3967;0.1732;0.0333;
973100284072622;0.2912;0.0466;0.0578;
973100294166164;0.1666;-0.2527;0.0216;
973100304271164;-0.1699;-0.1909;0.0439;
973100314376164;-0.0687;0.1828;0.0972;
973100324483820;0.2529;0.3756;0.0748;
973100334588872;0.1549;0.2851;0.0344;
973100344693872;-0.0037;0.4087;0.0067;
973100354816633;-0.0112;0.4417;0.0344;
973100364921685;0.1422;0.0413;0.0535;
973100375026737;0.0975;-0.0940;-0.0072;
973100385116789;-0.0644;-0.0887;-0.0189;
973100395221789;-0.0570;-0.1430;0.0226;
973100405326789;-0.0613;-0.1153;-0.0019;
973100415469966;-0.1273;0.1935;-0.0391;
973100425575018;0.1039;-0.0280;0.0077;
973100435680018;0.2678;-0.3656;0.0386;
973100445732674;0.1113;-0.2911;0.0141;
973100455837727;0.0581;-0.1334;0.0429;
973100465942727;0.1549;-0.0727;0.0951;
973100476069966;0.2092;-0.0940;0.0599;
973100486175018;0.0932;-0.2037;-0.0008;
973100496280018;-0.0581;-0.1792;0.0035;
973100506376841;-0.0549;0.0189;-0.0402;
973100516481893;0.1527;0.0881;-0.0679;
973100526586893;0.1719;0.0360;-0.0519;
973100536690695;0.1623;0.0615;0.0152;
973100546795747;0.1868;0.1743;0.0748;
973100556900747;0.2028;0.1828;0.0354;
973100567000331;0.2656;0.0944;0.0269;
973100577105331;0.1422;0.1040;0.0557;
973100587210331;0.0996;0.1423;0.0461;
973100597333977;0.1049;0.1264;0.0525;
973100607439029;0.0517;0.3458;0.0120;
973100617544029;0.1188;0.3873;0.0258;
973100627640591;0.0868;-0.0919;0.0493;
973100637745643;0.0059;0.1764;-0.0104;
973100647850643;0.0975;0.1722;0.0610;
973100657944133;0.2550;-0.3774;0.1505;
973100668049185;0.0730;-0.2900;0.0929;
973100678154185;-0.0389;-0.0983;0.1345;
973100688255018;0.0889;0.0104;0.1387;
973100698360018;0.1454;-0.0812;0.1217;
973100708465018;0.0762;-0.1707;0.1079;
973100718570331;0.0517;-0.1387;0.1047;
973100728675331;0.0879;-0.1611;0.1196;
973100738780331;0.1220;-0.1686;0.1260;
973100748889341;0.0900;-0.0844;0.1366;
973100758994393;0.0953;-0.0940;0.1451;
973100769099393;0.0719;-0.1206;0.1228;
973100779208977;0.0730;-0.0024;0.0812;
973100789313977;0.0900;-0.0099;0.1025;
973100799418977;0.0783;-0.0280;0.0951;
973100809518612;0.0527;0.0658;0.0812;
973100819623664;0.0474;0.0477;0.0972;
973100829728664;0.0570;0.0605;0.0812;
973100839832779;0.0250;0.0615;0.0567;
973100849937831;0.0282;0.0029;0.0503;
973100860042831;0.0048;0.0178;0.0620;
973100870151320;-0.0176;0.0051;0.0738;
973100880256372;0.0197;-0.0269;0.0940;
973100890361372;0.0368;-0.0141;0.1004;
973100900461112;0.0314;0.0072;0.0940;
973100910566164;0.0495;0.0306;0.0887;
973100920671164;0.0016;0.0360;0.1068;
973100930774758;-0.0165;0.0391;0.1238;
973100940879810;-0.0357;0.0605;0.1238;
973100950984810;-0.0069;0.0466;0.0940;
973100961092414;-0.0581;0.0178;0.1079;
973100971197466;-0.1188;0.0306;0.1377;
973100981302466;-0.1379;-0.0003;0.1004;
973100991400747;-0.1092;0.0221;0.0290;
973101001505747;-0.0495;-0.0503;0.0322;
973101011610747;-0.0527;-0.0716;0.0290;
973101021722674;-0.0453;-0.0003;0.0226;
973101031827727;0.0133;-0.0322;0.0397;
973101041932727;0.0421;-0.0280;0.0493;
973101052038404;0.0304;-0.0109;0.0333;
973101062143456;0.0634;-0.0322;0.0365;
973101072248456;0.0431;-0.0003;0.0589;
973101082357570;0.0581;0.0072;0.0557;
973101092462622;0.0591;0.0210;0.0280;
973101102567622;0.0549;0.0976;0.0226;
973101112666424;0.0378;0.1434;0.0194;
973101122771477;0.0368;0.1775;-0.0083;
973101132876477;0.0495;0.0997;0.0045;
973101142977362;0.0069;0.0306;0.0120;
973101153082414;0.0282;-0.0099;0.0024;
973101163187414;0.0346;-0.0301;0.0120;
973101173292258;0.0197;0.0051;0.0237;
973101183397310;0.0165;-0.0141;0.0226;
973101193502310;-0.0048;-0.1025;0.0226;
973101203602831;0.0272;-0.1121;0.0258;
973101213707883;0.0037;-0.0812;0.0226;
973101223812883;0.0208;-0.0365;-0.0136;
973101233920279;0.0186;-0.0269;0.0035;
973101244025331;0.0144;-0.0056;0.0290;
973101254130331;-0.0112;0.0498;0.0173;
973101264229081;0.0304;0.0679;0.0045;
973101274333872;0.0186;0.0636;0.0130;
973101284438612;0.0069;0.0636;0.0205;
973101294543143;-0.0133;0.0892;-0.0051;
973101304647935;0.0069;0.1157;-0.0104;
973101314752674;-0.0197;0.0594;-0.0083;
973101324841581;-0.0272;0.0242;-0.0466;
973101334946372;-0.0250;-0.0184;-0.0594;
973101345051112;-0.0080;-0.0844;-0.0562;
973101355189029;0.0154;-0.0812;-0.0466;
973101365293820;0.0154;-0.0333;-0.0296;
973101375398560;0.0644;-0.0237;-0.0072;
973101385481633;0.0698;-0.0919;0.0301;
973101395586424;-0.0069;-0.0812;0.0120;
973101405691164;0.0964;-0.0035;-0.0210;
973101415812258;0.0410;0.0136;0.0024;
973101425917049;0.0123;0.0636;0.0035;
973101436021789;0.0186;0.1370;-0.0551;
973101446102727;0.0091;0.1200;-0.0391;
973101456207518;0.0272;0.1019;-0.0423;
973101466312258;0.0431;0.0594;-0.0530;
973101476443560;0.0293;-0.0024;-0.0381;
973101486548352;0.0304;-0.0951;0.0130;
973101496653143;-0.0304;-0.0770;-0.0189;
973101506762049;0.0165;-0.0919;-0.0264;
973101516866893;0.0453;-0.0972;-0.0178;
973101526971581;-0.0048;0.0136;-0.0711;
973101537057831;0.0485;0.0391;-0.0754;
973101547162570;0.0346;-0.0578;-0.0562;
973101557267362;0.0346;-0.0109;-0.0360;
973101567372831;0.0698;-0.0173;-0.0189;
973101577477622;0.0655;-0.0461;-0.0296;
973101587582362;0.0240;-0.0493;-0.0210;
973101597685227;0.0378;-0.0919;-0.0029;
973101607790018;0.0272;-0.0365;-0.0487;
973101617894758;0.0794;-0.0130;-0.0423;
973101627999289;0.0527;-0.0514;-0.0317;
973101638104081;0.0634;-0.0120;-0.0402;
973101648208820;0.0495;-0.0695;-0.0157;
973101658321372;0.0144;-0.0706;-0.0200;
973101668426164;0.0559;-0.0056;-0.0498;
973101678530904;0.0421;-0.0503;-0.0274;
973101688637831;0.0304;-0.0407;-0.0274;
973101698742622;0.0314;0.0083;-0.0115;
973101708847362;0.0240;-0.0354;-0.0349;
973101718948664;0.0506;-0.1132;-0.0519;
973101729053456;0.0325;-0.1622;-0.0285;
973101739158195;0.0495;-0.0770;-0.0381;
973101749261893;0.0527;-0.0205;-0.0402;
973101759366685;0.0421;-0.0589;-0.0083;
973101769471424;0.0250;-0.1015;-0.0040;
973101779585070;0.0581;-0.1547;-0.0051;
973101789689914;0.0613;-0.1238;0.0333;
973101799794654;0.0431;-0.0482;0.0258;
973101809886685;0.0421;0.0104;-0.0210;
973101819991477;0.0176;-0.0354;-0.0146;
973101830096216;0.0261;-0.0631;-0.0157;
973101840187831;0.0165;0.0210;-0.0423;
973101850292674;0.0463;0.0115;-0.0519;
973101860397414;0.0368;-0.0471;-0.0626;
973101870539185;0.0421;-0.0972;-0.0605;
973101880643977;0.0272;-0.2080;-0.0700;
973101890748768;0.0506;-0.1462;-0.0487;
973101900850383;0.0943;0.0072;-0.0242;
973101910955227;0.1252;0.0285;-0.0360;
973101921059966;0.1262;0.0786;-0.0690;
973101931150435;0.1411;0.1040;-0.0264;
973101941255227;0.1518;0.1051;-0.0253;
973101951359966;0.1422;0.1647;-0.0869;
973101961463872;0.1985;0.0434;-0.0795;
973101971568664;0.1316;-0.0514;-0.0530;
973101981673404;0.1549;0.0274;-0.0530;
973101991770643;0.2273;0.0828;-0.0455;
973102001875435;0.2188;0.0997;-0.0093;
973102011980174;0.2326;-0.0141;0.0280;
973102022093247;0.2103;-0.1302;0.0216;
973102032198039;0.2230;-0.0226;0.0301;
973102042302779;0.1921;0.0221;0.0887;
973102052398352;0.1454;0.0221;0.0855;
973102062503143;0.0495;0.1210;0.0716;
973102072607883;0.0570;0.0125;0.0162;
973102082717831;-0.0676;-0.4604;-0.0072;
973102092822570;-0.2019;-0.5126;0.0546;
973102102927414;0.1422;-0.0482;0.0631;
973102113049081;0.2177;0.3277;0.0663;
973102123153872;0.0826;0.3021;0.0876;
973102133258612;0.0186;0.1913;0.1292;
973102143352622;-0.0314;0.2947;0.1558;
973102153457414;-0.0794;0.2435;0.1015;
973102163562154;-0.0431;-0.0354;0.0280;
973102173661477;-0.2029;-0.1696;0.0077;
973102183766268;-0.2061;-0.1174;0.0056;
973102193871008;-0.1422;0.0997;-0.0413;
973102203963664;-0.1071;0.5343;-0.0997;
973102214068508;-0.0921;0.1296;-0.1061;
973102224173247;0.1188;-0.5210;-0.0605;
973102234280487;0.1017;-0.3220;-0.0487;
973102244385331;0.0985;-0.1100;-0.0423;
973102254490070;0.2262;-0.2112;0.0077;
973102264606372;0.1092;-0.3326;0.0258;
973102274711164;-0.0027;-0.1877;0.0045;
973102284816008;0.0208;0.1913;-0.0647;
973102294914081;0.0474;0.2616;-0.1093;
973102305018924;-0.0091;0.0029;-0.1306;
973102315123664;0.0101;-0.0642;-0.1274;
973102325203612;0.0186;-0.0461;-0.1029;
973102335308456;0.1379;-0.0674;-0.1168;
973102345413247;0.1602;-0.1068;-0.1221;
973102355539393;0.1826;-0.1260;-0.0784;
973102365644237;0.2092;0.0019;-0.0264;
973102375749029;0.2273;0.1189;-0.0274;
973102385903247;0.2273;0.0168;-0.0541;
973102396008039;0.1124;-0.0695;-0.0562;
973102406112831;0.0602;0.0839;-0.0210;
973102416160904;0.0879;0.2158;-0.0083;
973102426265799;0.0676;0.2286;-0.0242;
973102436370591;0.0591;0.3053;-0.0221;
973102446486581;0.0676;0.2169;-0.0040;
973102456591372;0.0282;0.1423;-0.0104;
973102466696216;0.0485;0.2126;-0.0338;
973102476803977;0.1113;0.1104;0.0013;
973102486908768;0.0655;-0.0397;0.0194;
973102497013612;0.0506;-0.0535;0.0248;
973102507110279;0.0357;-0.0152;0.0482;
973102517215122;0.0953;0.0976;0.0344;
973102527319914;0.1507;0.0274;0.0290;
973102537429706;0.1092;-0.0855;0.0674;
973102547534497;0.0783;0.0061;0.0961;
973102557639341;0.1124;0.0487;0.1057;
973102567741997;0.1124;0.0850;0.0631;
973102577846841;0.1401;0.1509;0.0631;
973102587951633;0.1198;0.1466;0.1057;
973102598054602;0.0868;0.1722;0.0695;
973102608159445;0.0889;0.1200;0.0652;
973102618264237;0.0581;-0.0045;0.0567;
973102628372310;0.0527;-0.0610;0.0599;
973102638477102;0.0346;-0.0557;0.0780;
973102648581945;0.0570;0.0115;0.0674;
973102658676737;0.0719;-0.0045;0.0791;
973102668781581;0.0463;-0.0109;0.0844;
973102678886424;0.0506;-0.0024;0.0674;
973102689013039;0.0676;-0.0248;0.0876;
973102699117831;0.0975;-0.0493;0.0993;
973102709222674;0.0410;-0.2016;0.0631;
973102719315747;-0.0847;-0.2570;0.0620;
973102729420591;-0.1060;-0.0674;0.0727;
973102739525331;0.0101;0.1860;0.0620;
973102749630122;0.0549;0.2563;0.0088;
973102759734966;-0.0133;0.1754;0.0365;
973102769839758;-0.0314;0.0944;0.0482;
973102779960018;-0.0623;0.0965;0.0429;
973102790064810;-0.0165;0.0711;-0.0232;
973102800169654;-0.0229;0.0338;-0.0477;
973102810266060;-0.0495;-0.0269;-0.0498;
973102820370852;-0.1433;-0.0290;-0.0658;
973102830475695;-0.1784;0.0976;-0.1285;
973102840561424;-0.0474;0.0626;-0.1636;
973102850666320;0.0218;-0.2346;-0.1498;
973102860771060;0.0410;-0.2996;-0.1360;
973102870898352;0.0687;-0.2815;-0.0912;
973102881003195;0.0996;-0.2346;-0.0806;
973102891107987;0.1177;-0.1664;-0.0923;
973102901189914;0.0975;-0.1334;-0.1274;
973102911294810;0.1252;-0.0684;-0.1296;
973102921399602;0.1559;0.0285;-0.1338;
973102931518716;0.1879;0.0690;-0.1328;
973102941623560;0.2028;0.0807;-0.1360;
973102951728352;0.1847;0.0987;-0.1317;
973102961828143;0.1826;0.1402;-0.1328;
973102971932987;0.1581;0.1573;-0.1306;
973102982037779;0.1273;0.0668;-0.1253;
973102992141789;0.1039;-0.0610;-0.1338;
973103002246633;0.0879;-0.0780;-0.1668;
973103012351477;0.1337;-0.0759;-0.1956;
973103022451320;0.1443;-0.1590;-0.1722;
973103032556216;0.1241;-0.1601;-0.1615;
973103042660956;0.1698;-0.1760;-0.1509;
973103052770227;0.2103;-0.2176;-0.1349;
973103062875070;0.1708;-0.2282;-0.0997;
973103072979862;0.2273;-0.2367;-0.0784;
973103083081424;0.2475;-0.1569;-0.0285;
973103093186268;0.2124;-0.0322;0.0099;
973103103291112;0.2007;0.0306;0.0226;
973103113411581;0.1134;0.1349;-0.0338;
973103123516424;0.1166;0.1839;-0.0763;
973103133621216;0.0708;0.1583;-0.0658;
973103143724289;0.0165;0.1264;-0.1008;
973103153829133;-0.0368;0.0381;-0.1434;
973103163933924;-0.0442;-0.1047;-0.1754;
973103174023664;-0.0325;-0.1547;-0.2041;
973103184128560;0.0282;-0.2037;-0.2116;
973103194233352;0.0570;-0.3134;-0.2084;
973103204342570;0.1422;-0.3454;-0.2009;
973103214447414;0.1953;-0.2634;-0.1839;
973103224552206;0.2635;-0.1696;-0.1903;
973103234671997;0.3349;-0.1142;-0.2020;
973103244776789;0.4052;-0.0471;-0.1413;
973103254881633;0.3871;0.0647;-0.1168;
973103264965956;0.4158;0.2180;-0.1285;
973103275070643;0.4063;0.2276;-0.1306;
973103285175279;0.2869;0.0965;-0.1232;
973103295304966;0.1815;0.0445;-0.1317;
973103305409706;0.2007;0.0690;-0.1402;
973103315514393;0.1932;0.0562;-0.1498;
973103325612258;0.2145;-0.0258;-0.1455;
973103335716945;0.1868;-0.0578;-0.1541;
973103345821581;0.2699;-0.1292;-0.1700;
973103355924706;0.2539;-0.3134;-0.1328;
973103366029393;0.3125;-0.0791;-0.0658;
973103376134081;0.4584;0.3181;-0.0210;
973103386247622;0.3903;0.3117;0.0152;
973103396352310;0.2411;0.2265;0.0503;
973103406456997;0.2177;0.3362;0.0301;
973103416540122;0.1475;0.3351;0.0194;
973103426644810;0.0804;0.2126;0.0003;
973103436749497;0.0751;0.1232;-0.0402;
973103446852310;0.0091;0.0615;-0.0816;
973103456956997;0.0559;-0.0067;-0.0880;
973103467061685;0.0591;-0.0024;-0.1051;
973103477160956;0.1422;0.0551;-0.1370;
973103487265643;0.1921;-0.3145;-0.0880;
973103497370331;0.2475;-0.4668;-0.0264;
973103507483247;0.2411;-0.2037;0.0216;
973103517587935;0.2497;-0.0855;0.0226;
973103527692622;0.2891;-0.0525;0.0077;
973103537800539;0.2358;0.0881;0.0141;
973103547905227;0.2007;0.2340;-0.0168;
973103558009914;0.1836;0.2830;-0.0795;
973103568113560;0.2103;0.2553;-0.1200;
973103578218247;0.1719;0.1860;-0.1306;
973103588322935;0.2124;0.1360;-0.1306;
973103598421320;0.2294;0.0860;-0.1360;
973103608526008;0.2443;0.0317;-0.1328;
973103618630695;0.2401;-0.1111;-0.1210;
973103628741372;0.2838;-0.2421;-0.1210;
973103638846060;0.2774;-0.2666;-0.1274;
973103648950747;0.3242;-0.2378;-0.1178;
973103659107206;0.3796;-0.2559;-0.0816;
973103669211893;0.4276;-0.1047;-0.0838;
973103679316581;0.4787;0.0839;-0.0806;
973103689375904;0.4798;0.1146;-0.0253;
973103699480591;0.4691;0.2190;-0.0221;
973103709585279;0.4169;0.2702;-0.0019;
973103719673143;0.3328;0.1775;0.0120;
973103729777831;0.2901;0.0498;-0.0146;
973103739882518;0.2656;-0.0290;-0.0125;
973103749996477;0.2582;-0.0184;-0.0072;
973103760101164;0.2816;0.0551;-0.0178;
973103770205852;0.2710;0.0423;-0.0391;
973103780331477;0.3253;-0.0620;-0.0541;
973103790436164;0.3200;-0.1004;0.0099;
973103800540852;0.3477;-0.0301;0.0418;
973103810624393;0.4606;0.0264;0.0407;
973103820729081;0.4542;-0.0791;0.1047;
973103830833768;0.3786;-0.0429;0.1451;
973103840947414;0.3945;0.1274;0.1696;
973103851052102;0.3711;0.2212;0.1771;
973103861156789;0.3061;0.2137;0.1750;
973103871274706;0.2880;0.1423;0.1728;
973103881379393;0.2603;0.1157;0.1760;
973103891484081;0.2912;0.1796;0.1526;
973103901557414;0.2987;0.1487;0.1835;
973103911662102;0.2539;0.0594;0.1920;
973103921766789;0.2784;0.0647;0.1750;
973103931892206;0.2688;0.0679;0.2186;
973103941996893;0.2497;0.0976;0.2346;
973103952101581;0.2369;0.1019;0.2346;
973103962199289;0.2401;0.0349;0.2612;
973103972303977;0.1964;0.0551;0.2911;
973103982408664;0.1559;0.0786;0.2943;
973103992513352;0.1092;0.1690;0.2549;
973104002618039;0.0815;0.1519;0.1984;
973104012722727;0.1145;0.0679;0.2016;
973104022832466;0.0368;0.0839;0.1877;
973104032937154;0.0421;0.1498;0.1632;
973104043041841;0.0719;0.0892;0.1632;
973104053144185;0.0442;0.0189;0.1611;
973104063248872;0.0293;-0.0152;0.1494;
973104073353560;0.0602;-0.0557;0.1494;
973104083456997;0.0623;-0.0482;0.1728;
973104093561685;0.0559;0.0157;0.1707;
973104103666372;0.0719;0.0668;0.1526;
973104113784706;0.0623;0.0903;0.1111;
973104123889393;0.0538;0.1221;0.0951;
973104133994081;0.0272;0.1125;0.0823;
973104144086060;0.0389;0.0796;0.0514;
973104154190747;0.0346;0.0807;0.0375;
973104164295435;0.0304;0.0349;0.0450;
973104174394081;0.0421;0.0029;0.0642;
973104184498768;0.0282;0.0136;0.0567;
973104194603404;0.0804;-0.0450;0.0535;
973104204694914;0.0836;-0.0812;0.0759;
973104214799602;0.0698;-0.0312;0.0876;
973104224904289;0.1209;-0.0152;0.0546;
973104235003560;0.1209;-0.0152;0.0663;
973104245108247;0.0698;-0.0056;0.0908;
973104255212935;0.0858;0.0722;0.0642;
973104265338560;0.1124;0.1445;0.0599;
973104275443299;0.0815;0.1306;0.0652;
973104285548091;0.0964;0.1253;0.0780;
973104295636685;0.0847;0.1061;0.0770;
973104305741424;0.0783;0.0636;0.0972;
973104315846216;0.0730;0.0519;0.0972;
973104325958977;0.1113;0.0381;0.0983;
973104336063716;0.0847;-0.0706;0.0897;
973104346168508;0.0527;-0.0695;0.0908;
973104356296320;0.0932;0.0349;0.0866;
973104366401060;0.1017;0.0562;0.0972;
973104376505852;0.1241;0.0605;0.0983;
973104386596372;0.1007;0.0210;0.1142;
973104396701112;0.0687;-0.0716;0.1196;
973104406805904;0.0378;-0.0365;0.1356;
973104416897049;0.0655;0.0157;0.1537;
973104427001789;0.0847;0.0328;0.1558;
973104437106581;0.0666;0.0317;0.1377;
973104447230747;0.0453;0.0349;0.1185;
973104457335539;0.0293;0.1210;0.1004;
973104467440279;0.0527;0.1189;0.0993;
973104477543716;0.0549;0.0242;0.0929;
973104487648456;0.0517;-0.0109;0.0684;
973104497753247;0.0357;-0.0631;0.0770;
973104507857310;0.0165;-0.0897;0.0812;
973104517962102;-0.0048;0.0029;0.0844;
973104528066841;-0.0123;0.0317;0.0674;
973104538167727;0.0123;-0.0557;0.0663;
973104548272466;-0.0208;-0.0610;0.0610;
973104558377258;-0.0421;0.0083;0.0280;
973104568483977;0.0208;0.0562;0.0035;
973104578588716;0.0261;0.0008;0.0130;
973104588693508;-0.0144;-0.0237;-0.0093;
973104598820227;-0.0282;-0.0482;-0.0381;
973104608924966;-0.0240;-0.0791;-0.0690;
973104619029758;-0.0091;-0.0663;-0.0498;
973104629115227;0.0229;-0.0429;-0.0551;
973104639219966;0.0346;-0.0546;-0.0573;
973104649324758;0.0463;-0.0727;-0.0402;
973104659417570;0.0879;-0.0429;-0.0232;
973104669522362;0.0538;-0.0312;-0.0530;
973104679627154;0.0772;-0.0130;-0.0933;
973104689736216;0.1188;-0.0375;-0.0774;
973104699841008;0.0740;-0.0439;-0.0774;
973104709945747;0.0783;0.0210;-0.0891;
973104720058977;0.1156;0.0519;-0.1093;
973104730163716;0.0772;0.0541;-0.1136;
973104740268508;0.0964;0.0019;-0.1093;
973104750363977;0.1166;-0.0365;-0.0859;
973104760468716;0.1156;-0.0301;-0.0626;
973104770573508;0.1581;-0.1313;-0.0530;
973104780696997;0.1209;-0.1984;-0.0711;
973104790801737;0.1358;-0.1387;-0.0732;
973104800906529;0.1518;-0.1345;-0.0519;
973104811001060;0.1209;-0.1324;-0.0987;
973104821105852;0.1634;-0.0258;-0.1221;
973104831210591;0.2134;0.0455;-0.0774;
973104841304081;0.2369;0.1232;-0.0189;
973104851408820;0.2145;0.1711;0.0024;
973104861513612;0.1858;0.0912;0.0386;
973104871645331;0.1433;-0.0482;0.0237;
973104881750122;0.1326;-0.1100;-0.0157;
973104891854862;0.0772;-0.0674;-0.0562;
973104901954602;0.1071;-0.0301;-0.0784;
973104912059341;0.0708;-0.1366;-0.0754;
973104922164133;0.0794;-0.1366;-0.0827;
973104932256789;0.1049;-0.0237;-0.1200;
973104942361529;0.1996;-0.0141;-0.0901;
973104952466320;0.1783;-0.0695;-0.0328;
973104962570539;0.1847;-0.0312;-0.0232;
973104972675279;0.1836;-0.0386;-0.0178;
973104982780070;0.1507;-0.1217;-0.0232;
973104992876633;0.1209;-0.0919;-0.0487;
973105002981424;0.1252;0.0093;-0.1200;
973105013086216;0.1698;0.0455;-0.1296;
973105023200018;0.1581;0.1029;-0.0997;
973105033304758;0.1762;0.1786;-0.1083;
973105043409549;0.2049;0.1722;-0.1221;
973105053514185;0.1953;0.0679;-0.0944;
973105063618924;0.1879;0.0274;-0.0551;
973105073723716;0.2017;0.0850;-0.0328;
973105083825435;0.1602;0.0338;-0.0498;
973105093930227;0.1220;-0.0855;-0.0763;
973105104034966;0.1028;-0.0876;-0.0976;
973105114130643;0.0804;-0.0706;-0.1530;
973105124235383;0.1507;-0.1249;-0.1850;
973105134340174;0.1751;-0.1963;-0.1913;
973105144452206;0.2401;-0.2048;-0.1796;
973105154556945;0.2997;-0.1782;-0.1455;
973105164661737;0.4126;-0.1217;-0.1061;
973105174844497;0.4627;-0.0589;-0.0562;
973105184949237;0.4883;0.0146;0.0045;
973105195054029;0.4893;0.0860;0.0301;
973105205081997;0.4542;0.1221;0.0503;
973105215186737;0.3391;0.1892;0.0407;
973105225291477;0.2944;0.2435;-0.0381;
973105235399081;0.3051;0.2063;-0.0349;
973105245503820;0.2358;0.1509;-0.0104;
973105255608612;0.2571;0.1274;-0.0551;
973105265713820;0.2699;0.1083;-0.0679;
973105275818612;0.2475;-0.0003;-0.0466;
973105285923404;0.2731;-0.0929;-0.0061;
973105296015227;0.2678;-0.1281;0.0258;
973105306120018;0.2742;-0.1941;0.0493;
973105316224810;0.2720;-0.1814;0.0929;
973105326335799;0.2326;-0.2059;0.0770;
973105336440591;0.2092;-0.2985;0.0407;
973105346545383;0.2241;-0.0706;0.0812;
973105356666216;0.2614;0.2595;0.0897;
973105366771060;0.2337;0.3533;0.0450;
973105376875799;0.1740;0.2979;0.0375;
973105386993716;0.0900;0.2446;0.0503;
973105397098560;0.0858;0.2116;0.0439;
973105407203299;0.0708;0.1029;0.0109;
973105417274966;0.0581;-0.0333;-0.0104;
973105427379810;0.0506;-0.0620;0.0013;
973105437484602;0.0495;-0.0322;-0.0061;
973105447599289;0.1124;-0.0674;-0.0466;
973105457704081;0.1591;0.0743;-0.0784;
973105467808872;0.2156;0.2148;-0.0583;
973105477909914;0.2443;-0.0418;-0.0125;
973105488014654;0.2806;-0.0748;-0.0029;
973105498119497;0.2049;0.0242;0.0056;
973105508229602;0.2262;-0.0162;0.0099;
973105518334393;0.1783;-0.0162;-0.0061;
973105528439185;0.1497;0.0189;-0.0285;
973105538538977;0.1762;0.0551;-0.0115;
973105548643716;0.1475;0.1189;0.0099;
973105558748560;0.1230;0.1072;-0.0104;
973105568855747;0.1815;0.0679;-0.0711;
973105578960539;0.1751;0.0328;-0.0370;
973105589065331;0.1612;-0.0493;0.0035;
973105599178352;0.1932;-0.0375;-0.0093;
973105609283143;0.1826;-0.0216;-0.0306;
973105619387935;0.1634;-0.0770;-0.0487;
973105629481372;0.1815;-0.0248;-0.0264;
973105639586164;0.1996;0.0668;-0.0189;
973105649690956;0.2241;0.0221;-0.0061;
973105659792310;0.2113;0.0146;0.0003;
973105669897102;0.2198;0.0541;-0.0008;
973105680001893;0.2252;0.0200;-0.0200;
973105690113352;0.2475;-0.0226;-0.0061;
973105700218091;0.1996;-0.0557;0.0045;
973105710322935;0.2241;-0.0546;-0.0083;
973105720425122;0.2369;0.0317;-0.0157;
973105730529914;0.2198;0.0743;0.0003;
973105740634654;0.2007;0.0423;0.0067;
973105750736685;0.2017;0.0232;-0.0061;
973105760841477;0.2262;0.0509;0.0120;
973105770946268;0.2166;0.0923;0.0407;
973105781081008;0.2358;0.1008;0.0471;
973105791185852;0.1836;0.0019;0.0429;
973105801290643;0.1740;-0.0077;-0.0051;
973105811371581;0.2124;0.1008;0.0024;
973105821476320;0.1911;0.0679;0.0152;
973105831581164;0.1953;0.0061;-0.0008;
973105841673612;0.1985;0.0221;0.0024;
973105851778456;0.1932;-0.0280;0.0205;
973105861883247;0.2028;-0.0706;0.0280;
973105872006997;0.2049;-0.0375;0.0205;
973105882111789;0.2305;-0.0045;0.0162;
973105892216581;0.2230;-0.0237;0.0418;
973105902304497;0.2305;-0.0173;0.0791;
973105912409289;0.1953;0.0818;0.0589;
973105922514081;0.2060;0.2063;0.0216;
973105932637310;0.1751;0.1040;0.0205;
973105942742102;0.1475;-0.0567;0.0248;
973105952846893;0.1326;-0.0120;-0.0178;
973105962949081;0.1305;0.0541;-0.0274;
973105973053872;0.1433;0.0317;-0.0423;
973105983158664;0.1454;-0.0269;-0.0423;
973105993261372;0.1836;0.0285;-0.0402;
973106003366164;0.2209;0.0860;-0.0125;
973106013470956;0.2475;0.1051;-0.0019;
973106023575331;0.2614;0.1083;0.0280;
973106033680122;0.2145;0.0093;0.0130;
973106043784862;0.2593;-0.0248;-0.0168;
973106053883664;0.2284;-0.0088;0.0024;
973106063988456;0.1836;0.0189;-0.0051;
973106074093247;0.2145;0.0445;-0.0328;
973106084203143;0.1751;0.0530;-0.0541;
973106094307935;0.1889;0.1125;-0.0530;
973106104412727;0.1921;0.1370;-0.0445;
973106114512831;0.2337;0.1210;-0.0466;
973106124617622;0.2284;0.0860;-0.0051;
973106134722414;0.2529;0.0232;0.0003;
973106144830227;0.2614;0.0178;0.0003;
973106154935018;0.2603;0.0200;-0.0040;
973106165039810;0.2209;0.0402;-0.0029;
973106175112570;0.2262;0.0860;-0.0061;
973106185217362;0.2486;0.0903;-0.0232;
973106195322154;0.2475;0.0711;-0.0242;
973106205488091;0.2273;0.0754;-0.0178;
973106215592883;0.2550;0.0976;-0.0221;
973106225697674;0.2624;0.1040;0.0035;
973106235753299;0.2688;0.0668;0.0152;
973106245858091;0.2965;0.1093;0.0312;
973106255962935;0.2880;0.1391;0.0407;
973106266070956;0.3114;0.0573;0.0461;
973106276175643;0.2806;0.0115;0.0365;
973106286280279;0.2571;0.0636;0.0375;
973106296388247;0.2933;0.1413;0.0589;
973106306492935;0.3317;0.1083;0.0706;
973106316597570;0.3083;0.0306;0.0780;
973106326739289;0.2667;0.0551;0.1068;
973106336843924;0.2273;0.1093;0.1025;
973106346948612;0.2827;0.1349;0.0791;
973106357044602;0.2784;0.1232;0.1260;
973106367149237;0.2656;0.0551;0.1526;
973106377253924;0.2465;0.0402;0.1579;
973106387338560;0.1985;0.1146;0.1569;
973106397443195;0.2103;0.2126;0.1419;
973106407547883;0.2401;0.2350;0.1494;
973106417653456;0.1921;0.1668;0.1324;
973106427758091;0.1815;0.1136;0.1377;
973106437862779;0.1454;0.0413;0.1387;
973106447965435;0.1071;0.0061;0.1302;
973106458070070;0.0272;0.0019;0.1217;
973106468174758;0.0368;0.0083;0.0929;
973106478284914;0.0581;-0.0461;0.1142;
973106488389549;0.0293;-0.0375;0.1036;
973106498494237;0.0368;0.0232;0.0993;
973106508597622;0.1113;0.0104;0.0663;
973106518702258;0.1209;-0.0109;0.0652;
973106528806945;0.1230;-0.0173;0.0876;
973106538926477;0.1326;0.0178;0.0823;
973106549031164;0.1316;0.0296;0.0802;
973106559135799;0.0943;0.0285;0.0514;
973106569221789;0.0644;0.0754;0.0237;
973106579326424;0.0655;0.1413;0.0035;
973106589431112;0.1188;0.1104;-0.0125;
973106599561477;0.1039;0.0317;-0.0083;
973106609666112;0.0826;0.0093;-0.0083;
973106619770799;0.1230;0.0115;-0.0125;
973106629848664;0.1369;-0.0386;-0.0296;
973106639953352;0.1411;-0.0397;-0.0125;
973106650057987;0.1326;-0.0375;0.0077;
973106660169289;0.1316;-0.0503;-0.0029;
973106670273924;0.1198;-0.0642;-0.0221;
973106680378612;0.1081;-0.0312;-0.0349;
973106690476997;0.1326;0.0530;-0.0232;
973106700581685;0.1591;0.0391;-0.0189;
973106710686320;0.1497;0.0360;0.0045;
973106720796372;0.1401;0.0754;0.0109;
973106730901008;0.1379;0.0818;0.0013;
973106741005695;0.1422;-0.0035;-0.0274;
973106751109810;0.0591;-0.0290;-0.0498;
973106761214445;0.1177;0.0668;-0.0232;
973106771319133;0.1348;0.0923;-0.0285;
973106781414081;0.0921;0.0115;-0.0562;
973106791518716;0.0794;-0.0855;-0.0530;
973106801623404;0.0336;-0.1100;-0.0880;
973106811746789;0.0975;-0.0695;-0.0690;
973106821851424;0.1581;-0.0386;-0.0402;
973106831956112;0.1730;-0.0589;-0.0455;
973106842051164;0.1772;-0.1856;-0.0242;
973106852155799;0.1433;-0.1664;-0.0104;
973106862260487;0.1602;0.1935;0.0152;
973106872373664;0.3466;0.5248;0.0216;
973106882478299;0.3114;0.3980;0.0173;
973106892582987;0.0879;0.1796;0.0141;
973106902675643;0.0932;0.2680;-0.0200;
973106912780279;0.1326;0.3937;-0.0317;
973106922884966;0.1007;0.2659;-0.0306;
973106932999081;0.0421;0.1157;-0.0743;
973106943103716;0.0101;-0.0130;-0.0806;
973106953208404;-0.0186;-0.0652;-0.0965;
973106963322310;0.0282;0.0061;-0.1115;
973106973426945;0.1241;-0.0525;-0.1381;
973106983531633;0.1975;-0.3209;-0.0816;
973106993618872;0.1708;-0.4839;-0.0029;
973107003723560;0.2443;-0.2698;-0.0189;
973107013828195;0.3040;-0.1047;0.0248;
973107023935435;0.2539;-0.0951;0.0344;
973107034040122;0.1921;-0.0695;0.0162;
973107044144758;0.1559;0.0679;-0.0306;
973107054244914;0.1868;0.2105;-0.0594;
973107064349602;0.1964;0.2446;-0.0498;
973107074454237;0.1836;0.1786;-0.0562;
973107084559914;0.2113;0.1168;-0.1093;
973107094664549;0.1943;0.0615;-0.1083;
973107104769237;0.2411;0.0168;-0.0743;
973107114871372;0.2891;0.0349;-0.0690;
973107124976008;0.3328;-0.0216;-0.0658;
973107135080695;0.3189;-0.1228;-0.0264;
973107145203872;0.2933;-0.1206;-0.0125;
973107155308560;0.2784;-0.0716;-0.0083;
973107165413195;0.2838;-0.0535;0.0099;
973107175505227;0.2710;-0.0716;0.0258;
973107185609862;0.2688;-0.0631;0.0482;
973107195714549;0.2518;0.0541;0.0216;
973107205868247;0.2784;0.0850;-0.0061;
973107215972883;0.2518;0.0391;0.0354;
973107226077570;0.2497;0.0381;0.0258;
973107236121581;0.3146;-0.0109;0.0461;
973107246226268;0.2965;-0.0599;0.0727;
973107256330904;0.2550;0.0093;0.0748;
973107266476060;0.2465;-0.0333;0.0887;
973107276581060;0.2124;-0.0823;0.0940;
973107286686112;0.2177;0.0019;0.1057;
973107296762831;0.2326;0.0860;0.1132;
973107306867831;0.1975;0.1136;0.0908;
973107316972831;0.2028;0.1189;0.0748;
973107327101424;0.1921;0.1477;0.0844;
973107337206477;0.1751;0.1754;0.0546;
973107347311477;0.1975;0.1008;0.0439;
973107357386997;0.1953;0.0146;0.0429;
973107367491997;0.2454;0.0285;0.0525;
973107377596997;0.2497;0.0626;0.0844;
973107387706737;0.2156;0.0860;0.0961;
973107397811789;0.2411;0.1051;0.0642;
973107407916789;0.2486;0.0306;0.0844;
973107418020956;0.2326;0.0061;0.0855;
973107428125956;0.2284;0.0636;0.0972;
973107438230956;0.2252;0.0860;0.1036;
973107448328872;0.2017;0.0965;0.0802;
973107458433872;0.1815;0.0626;0.0471;
973107468538872;0.1751;0.0264;0.0418;
973107478644081;0.1634;-0.0109;0.0301;
973107488749081;0.2230;0.0328;0.0770;
973107498854133;0.2209;0.0455;0.0951;
973107508963820;0.2411;0.0093;0.1281;
973107519068872;0.1953;-0.0375;0.0866;
973107529173872;0.2518;0.0093;0.0919;
973107539248872;0.2092;0.0168;0.1281;
973107549353872;0.2092;0.0338;0.1047;
973107559458872;0.1655;0.0487;0.0983;
973107569587049;0.1708;0.1093;0.1079;
973107579692049;0.1740;0.2095;0.1238;
973107589797049;0.1602;0.3320;0.0738;
973107599919654;0.1985;0.2755;0.0972;
973107610024654;0.1188;0.0807;0.1196;
973107620129706;0.0943;0.0093;0.1164;
973107630225383;0.0996;0.0519;0.0535;
973107640330435;0.0698;0.0296;0.0461;
973107650435435;0.0218;-0.1313;0.0397;
973107660553977;0.0037;-0.1547;0.0354;
973107670658977;0.0240;-0.0503;0.0375;
973107680764029;0.0836;-0.0237;0.0429;
973107690850174;0.1230;-0.0375;0.0407;
973107700955227;0.1305;-0.0152;0.0812;
973107711060227;0.1103;-0.0024;0.1142;
973107721158299;0.1145;0.0594;0.1164;
973107731263299;0.0836;0.1232;0.0397;
973107741368299;0.1017;0.0923;0.0077;
973107751483820;0.0453;0.0796;-0.0115;
973107761588872;0.0218;0.1594;-0.0668;
973107771693872;0.0698;0.1445;-0.0869;
973107781796529;0.0879;-0.0056;-0.0774;
973107791901581;0.1262;-0.1302;-0.0763;
973107802006581;0.1284;-0.1739;-0.0754;
973107812118352;0.1527;-0.1601;-0.0104;
973107822223404;0.1581;-0.1238;0.0056;
973107832328404;0.1401;-0.0780;-0.0317;
973107842431216;0.1348;-0.0152;-0.0434;
973107852536268;0.1411;0.1019;-0.0189;
973107862641268;0.1559;0.1999;-0.0509;
973107872734706;0.1443;0.2009;-0.0732;
973107882839706;0.1358;0.1509;-0.0711;
973107892944706;0.1443;0.1242;-0.0763;
973107903050279;0.1305;0.1178;-0.0965;
973107913155279;0.1570;0.1200;-0.1061;
973107923260331;0.1826;0.0072;-0.1008;
973107933376320;0.1527;-0.2751;-0.1019;
973107943481372;0.1092;-0.2879;-0.1360;
973107953586372;0.2198;-0.0738;-0.0997;
973107963681841;0.3264;0.0178;-0.0605;
973107973786893;0.2987;-0.0866;-0.0923;
973107983891893;0.2262;-0.3294;-0.0370;
973107993993664;0.2262;-0.1686;0.0344;
973108004098716;0.3945;0.2467;0.0194;
973108014203716;0.4222;0.2936;-0.0104;
973108024300383;0.2028;0.0892;0.0461;
973108034405383;0.1975;0.0881;0.0674;
973108044510383;0.2337;0.3735;-0.0210;
973108054621164;0.2635;0.4885;-0.0690;
973108064726112;0.1623;-0.0301;-0.0253;
973108074831164;0.1559;-0.2399;0.0077;
973108084933560;0.1284;-0.0748;-0.0933;
973108095038560;0.2539;0.2467;-0.0754;
973108105143560;0.1847;-0.2538;0.0418;
973108115278404;0.1953;-0.4775;0.0940;
973108125383456;0.2806;-0.0493;0.0759;
973108135488456;0.1783;0.1178;0.1185;
973108145559445;0.1900;-0.0269;0.1036;
973108155664497;0.1623;-0.0365;0.0759;
973108165769497;0.1559;0.0562;0.0748;
973108175909341;0.0708;0.0976;0.0535;
973108186014341;0.1049;0.0807;0.0333;
973108196119393;0.1220;0.0711;-0.0146;
973108206183352;0.0985;0.1040;-0.0253;
973108216288352;0.1655;0.1157;-0.0168;
973108226393352;0.1868;-0.0120;0.0099;
973108236499706;0.1921;-0.0993;0.0290;
973108246604706;0.1284;-0.1771;0.0152;
973108256709706;0.1687;-0.0045;-0.0157;
973108266819810;0.1975;-0.0077;0.0173;
973108276924393;0.1252;-0.0322;-0.0093;
973108287028977;0.1443;0.0551;-0.0541;
973108297125643;0.1156;0.0306;-0.0477;
973108307230227;0.0953;0.0008;-0.0615;
973108317334810;0.0868;0.0210;-0.0901;
973108327440747;0.1017;0.0306;-0.0912;
973108337545331;0.1358;-0.0450;-0.0743;
973108347649914;0.1134;-0.0908;-0.0955;
973108357763352;0.1401;-0.0088;-0.1530;
973108367867935;0.1804;-0.0258;-0.1381;
973108377972518;0.1964;-0.0503;-0.1274;
973108388080539;0.2316;0.0285;-0.1509;
973108398185122;0.2156;-0.0333;-0.1477;
973108408289706;0.2614;-0.0716;-0.1274;
973108418391060;0.3264;0.0423;-0.1274;
973108428495643;0.3338;0.0818;-0.0965;
973108438600227;0.3221;0.0274;-0.0816;
973108448706268;0.3370;0.0923;-0.0901;
973108458810852;0.3754;0.0306;-0.1168;
973108468915435;0.4094;0.0274;-0.0562;
973108479026581;0.3754;0.0008;-0.0338;
973108489131164;0.3573;-0.0940;-0.0157;
973108499235747;0.3402;-0.0067;0.0194;
973108509328039;0.3935;0.0498;0.0301;
973108519432622;0.3274;0.0040;0.0940;
973108529537206;0.3168;0.0466;0.1185;
973108539667622;0.2976;0.1253;0.1558;
973108549772206;0.2710;0.1146;0.1611;
973108559876789;0.2561;0.1477;0.1387;
973108569961893;0.2593;0.1775;0.1696;
973108580066477;0.2113;0.1466;0.1611;
973108590171060;0.1113;0.1349;0.1707;
973108600297206;0.0581;0.1178;0.1750;
973108610401789;0.0485;0.0839;0.1718;
973108620506372;0.0634;0.0328;0.1664;
973108630589289;0.0091;-0.0439;0.1526;
973108640693872;-0.0282;-0.0280;0.1803;
973108650798456;-0.0165;-0.0631;0.1664;
973108660922622;-0.0197;-0.0439;0.1292;
973108671027206;0.0112;0.0221;0.1089;
973108681131789;0.0091;0.0146;0.0887;
973108691221997;0.0069;0.0594;0.0578;
973108701326581;0.0708;0.0658;0.0493;
973108711431164;0.0858;-0.0056;0.0578;
973108721534393;0.0964;-0.0855;0.0386;
973108731638977;0.1017;-0.0418;0.0344;
973108741743560;0.1156;0.0360;0.0205;
973108751853768;0.1220;0.0051;-0.0029;
973108761958352;0.1527;0.0455;-0.0210;
973108772062935;0.1708;0.0775;-0.0104;
973108782164966;0.1644;0.0541;-0.0296;
973108792269549;0.2103;0.0519;-0.0125;
973108802374133;0.1858;0.0189;-0.0200;
973108812477206;0.1634;0.0466;-0.0083;
973108822581789;0.1858;0.0881;0.0003;
973108832686372;0.2092;0.1413;-0.0051;
973108842801945;0.2284;0.0690;0.0077;
973108852906529;0.1518;0.0381;-0.0104;
973108863011112;0.2028;0.1264;0.0056;
973108873130643;0.2166;0.1008;0.0226;
973108883235227;0.1911;-0.0003;0.0077;
973108893339810;0.1017;0.0093;0.0333;
973108903429289;0.1220;0.0605;0.0525;
973108913533872;0.1497;0.0722;0.0482;
973108923638456;0.1559;-0.0439;0.0535;
973108933746685;0.0762;-0.0727;0.0631;
973108943851268;0.0272;-0.0024;0.0386;
973108953955852;0.1358;0.0072;0.0088;
973108964059810;0.1666;-0.0812;0.0280;
973108974164393;0.0975;-0.0940;0.0354;
973108984268977;0.1071;0.0317;0.0248;
973108994360331;0.1305;-0.0024;0.0162;
973109004464914;0.0996;-0.0056;0.0375;
973109014569497;0.1294;0.1434;0.0557;
973109024693247;0.1740;0.3543;0.0802;
973109034797831;0.1996;0.4257;0.0791;
973109044902414;0.1358;0.2499;0.0312;
973109054971424;0.1049;0.1455;0.0067;
973109065076060;0.1156;0.2041;-0.0242;
973109075180643;0.1198;0.1594;-0.0423;
973109085311581;0.1454;-0.0045;-0.0498;
973109095416164;0.1390;-0.0759;-0.0519;
973109105520747;0.1570;-0.1622;-0.0455;
973109115608716;0.1486;-0.4029;0.0141;
973109125713352;0.1676;-0.3774;0.0439;
973109135817935;0.1676;-0.2495;0.0589;
973109145923143;0.1252;-0.1963;0.0450;
973109156027727;0.1559;-0.1153;0.0450;
973109166132310;0.1369;-0.0887;-0.0040;
973109176265643;0.1209;0.0008;-0.0370;
973109186370227;0.1602;0.1200;-0.0455;
973109196474810;0.1486;0.1296;-0.0200;
973109206542883;0.1497;0.1509;-0.0391;
973109216647466;0.1730;0.2063;-0.0360;
973109226752049;0.1868;0.2371;-0.0093;
973109236875539;0.1762;0.2553;-0.0349;
973109246980122;0.1858;0.2585;-0.0189;
973109257084706;0.1804;0.2276;-0.0115;
973109267191633;0.1527;0.2063;-0.0445;
973109277296372;0.1220;0.1690;-0.0795;
973109287401112;0.1252;0.1306;-0.0711;
973109297502622;0.1348;0.1274;-0.0210;
973109307607362;0.1518;0.0871;0.0099;
973109317712102;0.1698;0.0668;0.0067;
973109327816164;0.1804;-0.0578;0.0130;
973109337920904;0.1570;-0.1909;0.0067;
973109348025643;0.1847;-0.1771;0.0088;
973109358131581;0.1655;-0.1505;-0.0019;
973109368236320;0.1783;-0.1324;0.0013;
973109378341060;0.1634;-0.2122;0.0130;
973109388451893;0.1804;-0.0407;0.0173;
973109398556633;0.2220;0.0976;0.0738;
973109408661372;0.1953;0.1051;0.1164;
973109418763664;0.1985;0.1764;0.0620;
973109428868404;0.1443;0.0200;-0.0008;
973109438973143;0.1612;0.1775;-0.0029;
973109449073143;0.1932;0.3160;-0.0434;
973109459177883;0.1230;0.1072;-0.0944;
973109469282622;0.1708;0.1242;-0.0848;
973109479388456;0.2230;0.2276;-0.1072;
973109489493195;0.2518;-0.0109;-0.0253;
973109499597935;0.2742;-0.0546;0.0812;
973109509702102;0.3690;0.1583;0.0759;
973109519806841;0.3604;0.2020;0.0706;
973109529911581;0.2593;0.3437;0.0929;
973109540038768;0.2582;0.2883;0.0706;
973109550143508;0.2262;-0.1270;0.1238;
973109560248247;0.2262;0.0178;0.0866;
973109570336789;0.2667;0.2382;0.0386;
973109580441529;0.2049;-0.1430;0.1047;
973109590546268;0.1698;-0.3507;0.1462;
973109600659393;0.2901;-0.2346;0.1398;
973109610764133;0.2880;-0.1015;0.1345;
973109620868872;0.2252;-0.0269;0.2570;
973109630962206;0.1209;-0.0258;0.3518;
973109641066945;0.1985;0.3298;0.2762;
973109651171685;0.1783;0.5162;0.2133;
973109661272622;0.0783;0.2499;0.2357;
973109671377362;-0.0911;0.0764;0.2229;
973109681482102;-0.0112;0.4395;0.1590;
973109691595435;0.0304;0.5109;0.1185;
973109701700174;-0.1124;-0.0674;0.1547;
973109711804914;-0.0591;-0.4328;0.1835;
973109721915018;0.1932;-0.1494;0.1238;
973109732019758;0.1804;-0.3039;0.1366;
973109742124497;0.0847;-0.3720;0.2122;
973109752223143;0.0794;-0.3188;0.2463;
973109762327883;0.0868;-0.1260;0.2389;
973109772432622;0.0655;-0.2453;0.1963;
973109782534914;0.0431;-0.2623;0.1569;
973109792639654;0.0889;0.1296;0.1164;
973109802744393;0.1996;0.2947;0.1963;
973109812851685;0.1698;0.4321;0.2048;
973109822956424;0.0208;0.0658;0.1771;
973109833061164;-0.0474;0.1008;0.1664;
973109843163872;-0.0485;0.5620;0.1387;
973109853268612;0.0112;0.4832;0.1302;
973109863373352;-0.1017;-0.0003;0.1824;
973109873488456;-0.0453;0.2361;0.1622;
973109883593195;0.0431;0.5194;0.0290;
973109893697935;-0.0613;-0.4626;0.1100;
973109903794289;0.0399;-0.3369;0.1398;
973109913899029;0.2166;0.2084;0.0834;
973109924003768;0.1188;-0.1899;0.0961;
973109934101477;0.0431;-0.6403;0.2101;
973109944206216;0.1028;-0.1696;0.1963;
973109954310956;0.1975;0.1807;0.1611;
973109964415747;0.1804;-0.1782;0.2314;
973109974520487;0.0176;-0.2474;0.2857;
973109984625227;0.0666;0.1818;0.2005;
973109994754810;0.1007;0.1125;0.1846;
973110004859549;-0.0538;-0.0961;0.1888;
973110014964289;-0.0474;0.2190;0.1228;
973110025052518;0.0133;0.2478;0.1121;
973110035157258;-0.0794;-0.0716;0.1537;
973110045261997;-0.1145;0.0157;0.1419;
973110055356477;0.0559;0.0923;0.1430;
973110065461216;0.0570;-0.0844;0.1622;
973110075565956;0.0197;-0.0109;0.1483;
973110085655747;0.0772;0.0434;0.1419;
973110095760487;0.0272;-0.0716;0.1505;
973110105865227;0.0485;0.0104;0.1430;
973110116015435;0.0911;0.0210;0.1558;
973110126120174;0.0559;-0.0354;0.1899;
973110136224914;0.0421;0.0477;0.2091;
973110146330018;0.0762;0.0146;0.2442;
973110156434758;0.0431;-0.0205;0.2921;
973110166539497;0.0463;0.1391;0.2410;
973110176626060;0.0250;0.1274;0.2602;
973110186730799;-0.0623;0.0157;0.2634;
973110196835539;-0.0719;0.0530;0.2346;
973110206920331;-0.0666;0.0051;0.2602;
973110217025070;-0.1220;-0.0322;0.2506;
973110227129810;-0.1081;-0.0397;0.2591;
973110237251893;-0.1060;-0.0716;0.2889;
973110247356633;-0.1241;-0.0173;0.2634;
973110257461372;-0.1209;0.0839;0.2133;
973110267560122;-0.1220;0.0445;0.2463;
973110277664862;-0.1656;0.0519;0.2389;
973110287769602;-0.1316;0.1871;0.2080;
973110297883768;-0.1699;0.1455;0.2229;
973110307988508;-0.2359;0.1168;0.1995;
973110318093247;-0.2477;0.1509;0.1643;
973110328191581;-0.2413;-0.0099;0.1739;
973110338296320;-0.2391;-0.0897;0.1398;
973110348401060;-0.1891;-0.0525;0.0791;
973110358501060;-0.1688;-0.1483;0.0716;
973110368605799;-0.1827;-0.2122;0.0439;
973110378710539;-0.1475;-0.1664;0.0471;
973110388822831;-0.1081;-0.1334;0.1015;
973110398927570;-0.1316;-0.1281;0.0876;
973110409032310;-0.1092;-0.0738;0.1100;
973110419138820;-0.0975;0.0008;0.1249;
973110429243560;-0.0975;0.1210;0.0716;
973110439348299;-0.1198;0.1828;-0.0146;
973110449445383;-0.1422;0.1477;-0.0178;
973110459550122;-0.1475;0.1253;-0.0551;
973110469654862;-0.1252;0.1328;-0.0901;
973110479760227;-0.1305;0.0615;-0.0965;
973110489864966;-0.1326;-0.0141;-0.1019;
973110499969706;-0.0804;0.0636;-0.1232;
973110510079185;-0.0581;-0.0503;-0.0700;
973110520183924;-0.0879;-0.0940;-0.0743;
973110530288664;0.0037;0.0965;-0.1264;
973110540397518;0.0059;0.0370;-0.0763;
973110550502258;-0.0900;0.0178;-0.1189;
973110560606997;-0.0346;-0.0013;-0.1541;
973110570706997;-0.0091;0.0370;-0.1189;
973110580811737;-0.0218;0.2371;-0.1125;
973110590916477;-0.0133;0.1924;-0.0816;
973110601040227;-0.0495;0.0157;-0.0530;
973110611144966;-0.0154;0.1860;-0.1509;
973110621249706;0.0229;0.2148;-0.1477;
973110631341477;-0.0655;-0.1281;-0.1221;
973110641446216;-0.0165;0.0019;-0.1402;
973110651550956;0.0431;0.0711;-0.1807;
973110661656997;0.0133;-0.0972;-0.1562;
973110671761737;-0.0080;-0.1196;-0.1178;
973110681866477;0.0623;-0.1686;-0.0891;
973110691961060;0.0900;-0.1132;-0.0997;
973110702065799;0.1124;-0.0802;-0.1264;
973110712170539;0.1337;-0.0237;-0.0933;
973110722278456;0.0964;0.2340;-0.0976;
973110732383195;0.1220;0.3213;-0.0711;
973110742487935;0.0570;0.0658;-0.0264;
973110752599185;-0.0101;0.2883;-0.0573;
973110762703924;0.0730;0.3714;-0.0551;
973110772808664;-0.0080;0.0019;0.0269;
973110782909602;-0.0240;0.0541;-0.0168;
973110793014341;0.1581;0.2638;-0.1051;
973110803119081;0.1602;0.0690;-0.0784;
973110813226789;0.0250;-0.2506;-0.0051;
973110823331529;0.1049;-0.1909;0.0141;
973110833436268;0.2411;-0.1877;0.0482;
973110843532831;0.1772;-0.2304;0.0759;
973110853637570;0.0644;-0.1867;0.1068;
973110863742310;0.0485;-0.1409;0.1281;
973110873870904;0.0410;-0.0684;0.0365;
973110883975643;0.0644;-0.0802;0.0695;
973110894080383;0.0123;-0.0461;0.0866;
973110904176216;0.0431;0.0338;0.0567;
973110914280956;0.0240;-0.0141;0.0780;
973110924385695;-0.0123;0.0040;0.0812;
973110934475122;-0.0037;0.1296;0.0908;
973110944579862;-0.0091;0.0413;0.1387;
973110954684602;-0.0165;-0.0226;0.1292;
973110964814393;-0.0282;0.1413;0.0695;
973110974919133;-0.0708;0.1636;0.0567;
973110985023872;-0.0719;0.1264;0.0525;
973110995081997;-0.0325;0.0976;0.0290;
973111005186685;-0.0634;0.0200;0.0120;
973111015291477;-0.0613;-0.0216;0.0397;
973111025458560;-0.0879;0.0146;0.0631;
973111035563299;-0.0602;-0.0589;0.0961;
973111045668039;-0.0762;-0.0194;0.0290;
973111055729706;-0.0644;0.0605;0.0205;
973111065834445;-0.0921;-0.0333;0.0194;
973111075939185;-0.0772;-0.0525;0.0099;
973111086056372;-0.1092;0.0083;-0.0306;
973111096161112;-0.0900;0.0306;-0.0168;
973111106265852;-0.0943;0.0168;0.0184;
973111116376268;-0.0868;0.0221;0.0237;
973111126481008;-0.0751;-0.0535;0.0152;
973111136585747;-0.0932;0.0605;-0.0519;
973111146685539;-0.0644;0.1072;-0.0583;
973111156790279;-0.1284;-0.0429;-0.0933;
973111166895018;-0.0804;0.1296;-0.1125;
973111176981893;-0.0549;0.2893;-0.1317;
973111187086633;-0.0623;0.1253;-0.0838;
973111197191372;-0.0889;0.1264;-0.1093;
973111207308664;-0.0730;0.1136;-0.1285;
973111217413404;-0.0676;0.0381;-0.1115;
973111227518143;-0.0389;0.0786;-0.1509;
973111237620956;-0.0399;-0.0120;-0.1754;
973111247725695;-0.0325;0.0615;-0.1881;
973111257830435;0.0112;-0.0407;-0.1807;
973111267940539;-0.0176;-0.3188;-0.1530;
973111278045331;0.0208;-0.1547;-0.1796;
973111288150070;0.0549;-0.0482;-0.1487;
973111298252102;0.0282;-0.1185;-0.0838;
973111308356893;0.0368;-0.0205;-0.1274;
973111318461633;0.0762;0.1083;-0.1541;
973111328560018;0.0751;0.1541;-0.1413;
973111338664810;0.0154;0.0923;-0.1647;
973111348769549;0.0250;0.0807;-0.2105;
973111358882518;0.0559;0.1157;-0.1775;
973111368987310;0.0581;0.0807;-0.1615;
973111379092049;0.0623;-0.0056;-0.1668;
973111389191268;0.1166;-0.0652;-0.1605;
973111399296060;0.1252;-0.0578;-0.1509;
973111409400799;0.1166;-0.0258;-0.1189;
973111419515747;0.1156;-0.0546;-0.1264;
973111429620487;0.1124;0.0083;-0.1360;
973111439725279;0.1103;0.0136;-0.1200;
973111449817622;0.1060;-0.0493;-0.0901;
973111459922414;0.0900;0.0146;-0.0859;
973111470027154;0.1177;0.0317;-0.0381;
973111480132935;0.0847;0.0083;-0.0530;
973111490237727;0.0985;0.0551;-0.0827;
973111500342466;0.0602;0.0349;-0.1157;
973111510442518;0.0644;0.0413;-0.0965;
973111520547310;0.0463;0.0562;-0.1083;
973111530652049;0.0623;-0.0280;-0.1072;
973111540779810;0.0666;0.0232;-0.0647;
973111550884602;0.0602;0.1125;-0.0732;
973111560989341;0.0708;0.0370;-0.0795;
973111571078352;0.0453;0.0157;-0.0615;
973111581183143;0.0485;0.1519;-0.1253;
973111591287883;0.0602;0.1232;-0.1360;
973111601404289;-0.0197;0.0796;-0.1658;
973111611509081;-0.0048;0.0818;-0.1796;
973111621613820;0.0016;0.0296;-0.2031;
973111631701997;0.0442;0.0434;-0.1977;
973111641806789;0.0772;-0.0375;-0.1328;
973111651911529;0.0325;0.0061;-0.1775;
973111662017727;0.1220;0.1306;-0.2084;
973111672122518;0.0911;-0.0120;-0.2158;
973111682227258;0.0453;-0.0897;-0.2553;
973111692334706;0.1156;0.0264;-0.2702;
973111702439497;0.1358;-0.0546;-0.2382;
973111712544237;0.0921;-0.0152;-0.2425;
973111722655383;0.1730;0.0679;-0.2158;
973111732760122;0.2646;-0.0940;-0.1871;
973111742864914;0.2358;-0.0280;-0.1977;
973111752969914;0.2028;0.0828;-0.1967;
973111763074706;0.1985;0.0274;-0.1913;
973111773179445;0.1911;-0.0205;-0.1860;
973111783288768;0.1836;0.0093;-0.2009;
973111793393560;0.1719;0.0455;-0.1796;
973111803498299;0.1644;0.0328;-0.1317;
973111813593768;0.2593;-0.0471;-0.0944;
973111823698560;0.3285;-0.0301;-0.0912;
973111833803299;0.3796;-0.1324;-0.1104;
973111843902831;0.2965;-0.1782;-0.0562;
973111854007622;0.1422;0.0722;0.0407;
973111864112362;0.2486;0.2105;0.0503;
973111874223768;0.3317;0.1093;0.0226;
973111884328560;0.3487;0.0807;0.0386;
973111894433299;0.3881;0.1093;0.1004;
973111904527622;0.3551;0.0466;0.0695;
973111914632362;0.2656;0.0434;0.0961;
973111924737102;0.1687;0.1487;0.1142;
973111934861268;0.1230;0.3245;0.0375;
973111944966060;0.1847;-0.0897;0.0493;
973111955070799;0.2358;-0.2378;0.1281;
973111965176529;0.1975;-0.0269;0.1302;
973111975281320;-0.0453;-0.0514;0.1931;
973111985386112;-0.2402;-0.0312;0.2304;
973111995469185;-0.1145;0.0519;0.1249;
973112005573977;-0.0485;0.0881;0.0983;
973112015678716;-0.1454;0.0594;0.0610;
973112025816477;-0.1369;0.0487;-0.0296;
973112035921268;-0.0623;0.0711;-0.0328;
973112046026008;-0.0996;0.0551;-0.0423;
973112056095331;-0.0069;0.0391;-0.0349;
973112066200122;0.0442;0.1285;-0.0328;
973112076304862;0.0346;0.0189;-0.0583;
973112086419914;0.0527;-0.0525;-0.0774;
973112096524706;0.0953;0.1061;-0.1072;
973112106629445;0.0836;0.0976;-0.1200;
973112116749393;0.1294;0.0040;-0.0880;
973112126854185;0.1220;0.0615;-0.1466;
973112136958924;0.1985;0.0732;-0.1264;
973112147057831;0.2241;-0.0120;-0.0754;
973112157162622;0.2166;-0.0397;-0.0615;
973112167267362;0.2262;-0.0312;-0.0636;
973112177354133;0.2827;-0.0141;-0.0402;
973112187458924;0.2710;0.0605;-0.0806;
973112197563664;0.2518;0.0690;-0.0445;
973112207676997;0.1996;-0.0003;-0.0200;
973112217781789;0.2561;-0.0248;0.0269;
973112227886529;0.2465;0.0189;0.0397;
973112237993560;0.2294;0.0178;0.0887;
973112248098352;0.1719;0.0285;0.0929;
973112258203091;0.1762;0.0711;0.0610;
973112268318299;0.1698;0.0860;0.0450;
973112278423039;0.1433;0.0743;0.0610;
973112288527831;0.0889;0.0168;0.0610;
973112298621268;0.1028;0.0136;0.0716;
973112308726060;0.1124;-0.0141;0.0834;
973112318830799;0.1060;-0.0226;0.1228;
973112328933977;0.0666;0.0306;0.1068;
973112339038768;0.0889;0.0732;0.0834;
973112349143508;0.0921;0.0722;0.1057;
973112359253977;0.0431;0.1541;0.0961;
973112369358768;0.0197;0.1562;0.0578;
973112379463508;0.0133;0.0860;0.0706;
973112389560747;-0.0144;0.1253;0.0482;
973112399665539;0.0378;-0.0056;0.0578;
973112409770279;0.0229;-0.0333;0.0589;
973112419855383;0.0559;-0.0013;0.0290;
973112429960227;0.0634;0.0029;0.0354;
973112440064966;0.0836;0.0051;0.0088;
973112450189289;0.0463;-0.1174;0.0471;
973112460294029;0.0581;-0.1196;0.0322;
973112470398820;0.1103;0.0008;0.0322;
973112480507206;0.0751;-0.0248;0.0514;
973112490611997;0.0889;0.0679;0.0322;
973112500716737;0.0964;0.0583;-0.0242;
973112510819393;0.1411;-0.1419;0.0130;
973112520924185;0.1252;-0.0375;0.0322;
973112531028924;0.1559;0.1178;0.0003;
973112541166945;0.1049;-0.0929;-0.0029;
973112551271737;0.1634;-0.2751;0.0471;
973112561376529;0.3541;0.0253;0.0738;
973112571452414;0.2795;0.2595;0.1057;
973112581557206;0.1623;0.1743;0.1537;
973112591661945;0.1124;0.1370;0.1366;
973112601789602;0.1794;0.3170;0.1079;
973112611894393;0.0964;0.2670;0.0897;
973112621999133;0.0368;0.0700;0.0887;
973112632083039;0.0762;0.1349;0.0684;
973112642187831;0.1369;0.3320;0.0301;
973112652292570;0.0804;-0.0866;0.1004;
973112662397310;0.0495;-0.3316;0.2016;
973112672502102;0.1602;0.0413;0.1537;
973112682606841;0.1538;-0.0791;0.1941;
973112692708560;-0.0399;-0.1984;0.2091;
973112702813352;0.0101;0.0221;0.1622;
973112712918091;-0.0123;0.1232;0.1100;
973112723016581;-0.0613;0.0647;0.0844;
973112733121372;-0.0485;0.0083;0.1025;
973112743226112;-0.0261;0.1146;0.1121;
973112753342883;0.0091;0.1136;0.0652;
973112763447674;0.0186;-0.0099;0.1068;
973112773552414;-0.0080;0.0573;0.0972;
973112783657935;0.0474;0.1221;0.0397;
973112793762727;-0.0123;0.0647;0.0461;
973112803867466;-0.0165;0.0051;0.0322;
973112813960695;0.0186;0.0955;0.0152;
973112824065539;0.0368;0.0711;0.0290;
973112834170279;0.0048;-0.0578;0.0301;
973112844274810;0.2188;-0.0184;0.0951;
973112854379602;0.1039;0.2009;0.1398;
973112864484341;-0.0165;0.1157;0.0684;
973112874593352;0.0431;-0.1313;0.0620;
973112884698143;0.0815;-0.2027;0.0780;
973112894802883;0.1198;-0.0312;0.0407;
973112904902622;0.1337;0.1008;0.0684;
973112915007414;0.0399;-0.0429;0.1409;
973112925112154;0.0176;-0.0557;0.1249;
973112935236477;0.1071;0.0423;0.0844;
973112945341320;0.1687;-0.1739;0.2208;
973112955446008;-0.0559;-0.0130;0.1771;
973112965528404;0.0208;0.4470;0.1121;
973112975633195;0.0123;0.1605;0.0887;
973112985737935;-0.1039;-0.0099;0.0929;
973112995835070;-0.0708;0.1264;0.1015;
973113005939914;0.0410;0.0626;0.1025;
973113016044602;-0.0549;0.0349;0.0780;
973113026180904;-0.0261;0.0136;0.0929;
973113036285695;-0.0080;-0.0834;0.0802;
973113046390435;0.0176;0.0029;0.0652;
973113056487987;-0.0186;-0.0407;0.0439;
973113066592779;0.0218;-0.0365;0.0503;
973113076697518;0.0208;0.0029;0.0972;
973113086813508;0.0080;-0.0429;0.1228;
973113096918352;-0.0069;0.0551;0.0770;
973113107023039;-0.0005;0.1668;0.0471;
973113117098404;0.0101;0.0987;0.0706;
973113127203247;-0.0208;0.1296;0.0578;
973113137307987;-0.0133;0.1573;0.0525;
973113147423247;-0.0687;0.0466;0.0493;
973113157528039;-0.0453;0.0477;0.0546;
973113167632779;0.0101;0.0200;0.0461;
973113177737206;0.0037;-0.0130;0.0461;
973113187841997;-0.0144;0.0061;0.0280;
973113197946737;0.0101;-0.0290;0.0258;
973113208046008;-0.0037;-0.0972;0.0386;
973113218150799;0.0016;-0.0461;0.0109;
973113228255591;-0.0197;-0.1217;0.0290;
973113238355122;-0.0293;-0.1622;0.0056;
973113248459914;0.0644;-0.0173;0.0088;
973113258564654;0.0069;-0.0024;0.0418;
973113268694393;-0.0325;-0.0344;0.0333;
973113278799133;0.0059;0.0200;0.0322;
973113288903924;0.0016;0.0423;0.0525;
973113299050747;-0.0549;0.0317;0.0162;
973113309155539;-0.0346;0.0775;-0.0093;
973113319260331;-0.0463;0.0125;-0.0189;
973113329301529;-0.0399;-0.0418;-0.0040;
973113339406320;0.0123;-0.0589;0.0099;
973113349511164;0.0293;-0.0194;0.0216;
973113359615383;0.0208;0.0210;0.0280;
973113369720227;0.0282;-0.0269;0.0897;
973113379825018;0.0304;-0.0088;0.0897;
973113389931112;0.0059;0.0839;0.0450;
973113400035956;-0.0229;0.0605;0.0226;
973113410140747;-0.0091;0.0860;0.0439;
973113420224810;-0.0314;0.0509;0.0003;
973113430329654;0.0123;-0.0077;0.0471;
973113440434393;-0.0186;-0.0557;0.0620;
973113450571060;0.0016;-0.1281;0.0791;
973113460675799;0.0389;-0.0748;0.0748;
973113470780643;0.0495;-0.0450;0.0748;
973113480882883;-0.0037;-0.0695;0.0887;
973113490987674;-0.0218;-0.0589;0.0940;
973113501092466;0.0091;-0.0386;0.0844;
973113511194081;0.0218;0.0178;0.0738;
973113521298872;-0.0154;0.1306;0.0780;
973113531403664;-0.0250;0.2265;0.0716;
973113541496997;-0.0581;0.1828;0.0738;
973113551601737;-0.0613;0.1818;0.0461;
973113561706581;-0.0676;0.1296;0.0322;
973113571829081;-0.0708;0.0668;0.0471;
973113581933820;-0.0581;0.0583;0.0333;
973113592038612;-0.0495;0.0413;0.0439;
973113602157466;-0.0698;-0.0514;0.0386;
973113612262258;-0.0229;-0.1782;0.0397;
973113622367049;-0.0112;-0.1387;0.0706;
973113632457727;-0.0421;-0.1494;0.0993;
973113642562518;-0.0133;-0.1281;0.0716;
973113652667310;-0.0325;-0.0855;0.0684;
973113662768039;-0.0314;0.0306;0.0589;
973113672872831;-0.0538;0.0551;0.0194;
973113682977622;-0.0240;0.0391;0.0503;
973113693078352;-0.0261;0.1317;0.0695;
973113703183143;-0.0485;0.1583;0.0226;
973113713287935;-0.0229;0.0903;0.0194;
973113723398560;-0.0357;0.0338;0.0375;
973113733503352;-0.0186;0.0828;-0.0232;
973113743608143;0.0250;0.0328;0.0013;
973113753710227;-0.0272;-0.0450;0.0482;
973113763815018;0.0293;-0.1366;0.0557;
973113773919810;0.0996;-0.1047;0.0642;
973113784023872;0.1454;-0.0812;0.0919;
973113794128664;0.0410;0.0157;0.0727;
973113804233404;0.0197;0.0487;0.0983;
973113814330904;-0.0005;-0.0599;0.0887;
973113824435747;0.0048;-0.0812;0.0578;
973113834540539;0.0250;-0.0684;0.0791;
973113844656372;0.0197;-0.0439;0.0855;
973113854761112;0.0229;-0.0652;0.0897;
973113864865904;0.0410;0.0146;0.1079;
973113874970643;0.0336;-0.0130;0.1047;
973113885046685;0.0218;-0.0375;0.1494;
973113895151424;0.0091;-0.0674;0.1760;
973113905256216;-0.0154;0.0605;0.1228;
973113915442779;-0.0123;0.1818;0.0876;
973113925547570;-0.0623;0.1935;0.1079;
973113935652362;-0.0804;0.1498;0.1015;
973113945703091;-0.0676;0.0541;0.0972;
973113955807883;-0.0208;0.0008;0.1068;
973113965912674;-0.0123;-0.0312;0.1047;
973113976049029;-0.0165;-0.0248;0.1366;
973113986153820;-0.0485;-0.0663;0.1334;
973113996258612;-0.0091;-0.0365;0.1153;
973114006365539;-0.0389;-0.0290;0.1356;
973114016470279;-0.0623;-0.0418;0.1174;
973114026575070;-0.0442;0.0072;0.1515;
973114036633195;-0.0943;0.1029;0.1345;
973114046737987;-0.0815;0.0200;0.1260;
973114056842779;-0.1294;0.0274;0.0674;
973114066954914;-0.0815;0.2041;0.0535;
973114077059706;-0.1358;0.2063;0.0770;
973114087164445;-0.2232;0.1818;0.0716;
973114097281060;-0.1997;0.0997;0.0599;
973114107385852;-0.2029;0.0306;0.0375;
973114117490643;-0.1816;0.0232;0.0003;
973114127576841;-0.1017;-0.0802;0.0429;
973114137681685;-0.1252;-0.0514;-0.0008;
973114147786477;-0.0666;0.0987;-0.0381;
973114157895956;-0.1039;-0.1899;-0.0083;
973114168000747;-0.0996;-0.2442;0.0226;
973114178105539;-0.0325;-0.0599;0.0035;
973114188208299;-0.0421;-0.0876;0.0056;
973114198313143;-0.0676;-0.0184;0.0205;
973114208417883;-0.0559;0.0083;0.0248;
973114218530852;-0.0687;0.0296;0.0354;
973114228635643;-0.0943;0.0933;-0.0040;
973114238740383;-0.0911;0.1051;-0.0008;
973114248838039;-0.1390;0.0754;-0.0146;
973114258942831;-0.1156;0.1338;-0.0466;
973114269047622;-0.0985;0.1157;-0.0200;
973114279157414;-0.1411;0.0573;-0.0157;
973114289262206;-0.0953;0.0317;-0.0136;
973114299366945;-0.0783;-0.0088;-0.0104;
973114309468872;-0.0762;-0.0067;-0.0306;
973114319573664;-0.0730;0.0104;-0.0317;
973114329678404;-0.0826;-0.0695;-0.0221;
973114339774602;-0.0527;-0.0929;-0.0391;
973114349879341;-0.0346;-0.0194;-0.0402;
973114359984133;-0.0581;-0.0162;-0.0168;
973114370096685;-0.0559;0.0136;-0.0189;
973114380201477;-0.0506;0.0360;0.0088;
973114390306216;-0.0389;0.0253;0.0344;
973114400409393;-0.0527;0.0647;-0.0083;
973114410514133;-0.0644;0.0944;-0.0296;
973114420618924;-0.0538;0.0583;-0.0146;
973114430718560;-0.0644;0.0754;-0.0253;
973114440823352;-0.0613;0.0679;-0.0349;
973114450928091;-0.0676;0.0200;-0.0274;
973114461029289;-0.0517;-0.0035;-0.0317;
973114471134029;-0.0218;-0.0375;0.0067;
973114481238820;0.0016;-0.0663;0.0258;
973114491355018;-0.0197;-0.0599;-0.0178;
973114501459810;0.0123;-0.0450;0.0003;
973114511564549;-0.0059;-0.0216;-0.0093;
973114521672102;-0.0325;-0.0109;0.0003;
973114531776841;-0.0314;-0.0045;-0.0125;
973114541881633;-0.0218;0.0274;0.0088;
973114551976633;-0.0421;-0.0056;0.0397;
973114562081372;-0.0165;0.0146;0.0280;
973114572186164;-0.0218;0.0402;0.0152;
973114582300383;-0.0357;0.0530;0.0088;
973114592405174;-0.0442;0.0679;-0.0072;
973114602509914;-0.0644;-0.0248;-0.0189;
973114612611477;-0.0453;-0.0333;-0.0466;
973114622716216;-0.0336;0.0093;-0.0221;
973114632821008;-0.0655;-0.0461;-0.0391;
973114642921789;-0.0282;-0.0919;-0.0061;
973114653026529;-0.0357;-0.0077;-0.0072;
973114663131320;-0.0144;-0.0280;-0.0157;
973114673229237;-0.0399;-0.0663;-0.0061;
973114683334029;-0.0570;-0.0088;-0.0296;
973114693438768;-0.0325;-0.0067;-0.0306;
973114703566789;-0.0698;0.0264;-0.0455;
973114713671529;-0.0399;0.0296;-0.0562;
973114723776320;-0.0549;0.0136;-0.0391;
973114733874706;-0.0325;0.0477;-0.0210;
973114743979445;-0.0314;-0.0205;-0.0349;
973114754084237;-0.0197;-0.0674;-0.0455;
973114764171997;-0.0378;-0.0386;-0.0541;
973114774276737;-0.0357;-0.0024;-0.0530;
973114784381529;-0.0495;-0.0535;-0.0615;
973114794496372;-0.0261;-0.0514;-0.0784;
973114804601112;-0.0272;-0.0567;-0.0754;
973114814705852;-0.0495;-0.0589;-0.0774;
973114824802622;0.0069;0.0136;-0.0743;
973114834907362;-0.0080;0.0157;-0.0509;
973114845012154;-0.0101;0.0466;-0.0901;
973114855109706;-0.0229;0.0933;-0.0711;
973114865214497;-0.0293;0.0892;-0.0869;
973114875319237;-0.0229;-0.0013;-0.0806;
973114885433352;-0.0314;0.0051;-0.1157;
973114895538091;0.0325;0.0264;-0.1178;
973114905642883;0.0091;0.0146;-0.0690;
973114915752935;0.0421;-0.0301;-0.0562;
973114925857674;0.0719;-0.1292;-0.0487;
973114935962414;0.0687;-0.0812;-0.0658;
973114946056581;0.1262;-0.0312;-0.0274;
973114956161372;0.0858;-0.0695;-0.0168;
973114966266112;0.0527;-0.0525;-0.0210;
973114976388456;0.0730;0.0434;-0.0061;
973114986493247;0.0218;0.0573;0.0003;
973114996597987;0.0453;-0.0013;0.0312;
973115006696789;0.0112;-0.0216;0.0407;
973115016801581;0.0261;0.0402;0.0077;
973115026906320;0.0240;0.0775;0.0003;
973115037028560;-0.0112;0.0583;0.0312;
973115047133299;-0.0176;0.0583;0.0248;
973115057238091;-0.0144;0.0573;0.0162;
973115067319497;-0.0250;0.0573;0.0226;
973115077424289;-0.0538;0.0200;0.0248;
973115087529029;-0.0474;0.0413;0.0397;
973115097645331;-0.0666;0.0668;0.0493;
973115107750070;-0.0836;0.0125;0.0333;
973115117854862;-0.0868;-0.0024;0.0013;
973115127959081;-0.0708;0.0722;-0.0040;
973115138063820;-0.0900;-0.0152;0.0003;
973115148168560;-0.1071;-0.0897;0.0162;
973115158275747;-0.1358;-0.0035;-0.0104;
973115168380487;-0.1017;-0.0013;-0.0146;
973115178485279;-0.1049;-0.0173;-0.0200;
973115188588143;-0.1113;0.0146;-0.0146;
973115198692935;-0.1060;0.0605;-0.0690;
973115208797674;-0.0591;0.0445;-0.0690;
973115218908247;-0.0975;0.0146;-0.0658;
973115229012987;-0.0932;0.0423;-0.0795;
973115239117779;-0.0730;0.0328;-0.0944;
973115249207154;-0.0613;-0.0045;-0.0933;
973115259311945;-0.0463;-0.0088;-0.0987;
973115269416685;-0.0336;0.0008;-0.0923;
973115279532622;-0.0133;-0.0407;-0.0784;
973115289637414;-0.0059;-0.0812;-0.0795;
973115299742154;0.0144;-0.0418;-0.0838;
973115309844497;0.0186;0.0072;-0.1072;
973115319949289;0.0059;-0.0525;-0.0923;
973115330054029;-0.0037;-0.0589;-0.0658;
973115340165018;0.0069;0.0413;-0.0722;
973115350269758;0.0101;0.0636;-0.0743;
973115360374549;-0.0123;0.0008;-0.0445;
973115370467310;-0.0005;-0.0088;-0.0509;
973115380572102;0.0059;0.0115;-0.0816;
973115390676841;-0.0101;0.0391;-0.0679;
973115400781372;-0.0154;0.0605;-0.0754;
973115410886164;-0.0282;-0.0024;-0.0594;
973115420990904;-0.0208;-0.0077;-0.0722;
973115431091372;-0.0123;-0.0067;-0.0763;
973115441196164;-0.0197;-0.0237;-0.0615;
973115451300904;0.0059;-0.0375;-0.0519;
973115461421216;-0.0229;-0.0642;-0.0583;
973115471526008;0.0101;-0.0322;-0.0955;
973115481630747;0.0048;-0.0248;-0.0636;
973115491728456;-0.0421;-0.0109;-0.0626;
973115501833247;-0.0346;0.0146;-0.0997;
973115511937987;-0.0240;0.0008;-0.0869;
973115522044706;-0.0463;0.0072;-0.0838;
973115532149497;-0.0069;0.0573;-0.0891;
973115542254237;-0.0218;0.0541;-0.0784;
973115552371164;-0.0282;0.0157;-0.1093;
973115562475956;0.0208;0.0690;-0.1509;
973115572580695;-0.0186;0.0807;-0.1285;
973115582674602;-0.0314;0.0146;-0.1583;
973115592779393;-0.0101;-0.0663;-0.1445;
973115602884133;-0.0069;-0.0738;-0.1573;
973115612987727;0.0176;-0.0770;-0.1594;
973115623092518;0.0176;-0.1142;-0.1274;
973115633197258;0.0389;-0.0642;-0.1083;
973115643307883;0.0293;-0.0418;-0.1402;
973115653412622;0.0421;-0.0471;-0.1573;
973115663517414;0.0346;-0.0120;-0.1668;
973115673610331;0.0336;0.0381;-0.1850;
973115683715122;0.0218;0.0423;-0.1754;
973115693819862;0.0144;0.0391;-0.1679;
973115703929393;0.0250;0.0274;-0.1903;
973115714034185;0.0549;0.0466;-0.1977;
973115724138924;0.0559;-0.0226;-0.1562;
973115734239185;0.0474;-0.1111;-0.1796;
973115744343977;0.1049;-0.0269;-0.2233;
973115754448716;0.1316;-0.0173;-0.1690;
973115764552414;0.0740;-0.0280;-0.2031;
973115774657154;0.1379;-0.0194;-0.1892;
973115784761945;0.1113;-0.0535;-0.1487;
973115794861893;0.0921;-0.0216;-0.1541;
973115804966685;0.0996;0.0338;-0.1647;
973115815071424;0.1156;-0.0120;-0.1615;
973115825203924;0.1316;-0.0162;-0.1551;
973115835308716;0.1284;0.0530;-0.1871;
973115845413456;0.1559;0.0029;-0.1711;
973115855531581;0.1497;0.0115;-0.1573;
973115865636320;0.1284;0.0083;-0.1668;
973115875741112;0.1591;-0.0045;-0.1264;
973115885836893;0.1103;0.0019;-0.1317;
973115895941685;0.1549;-0.0003;-0.1210;
973115906046424;0.1497;0.0402;-0.1136;
973115916117466;0.1698;0.0477;-0.1349;
973115926222310;0.1740;0.0317;-0.1573;
973115936327049;0.1486;0.0210;-0.1402;
973115946460435;0.1644;0.0061;-0.1498;
973115956565227;0.1858;-0.0407;-0.1221;
973115966669966;0.1465;-0.0386;-0.0891;
973115976762049;0.1454;-0.0184;-0.1029;
973115986866841;0.1676;-0.0035;-0.1093;
973115996971581;0.1655;-0.0162;-0.0722;
973116007070331;0.1486;-0.0791;-0.0933;
973116017175122;0.1740;-0.0013;-0.1200;
973116027279862;0.1518;0.0594;-0.1051;
973116037385227;0.1687;0.0487;-0.1125;
973116047490018;0.1602;0.0189;-0.0965;
973116057594758;0.1443;-0.0099;-0.0891;
973116067718456;0.1454;-0.0152;-0.0784;
973116077823247;0.1708;0.0168;-0.0690;
973116087927987;0.1559;0.0402;-0.0338;
973116098028299;0.1549;0.0402;-0.0647;
973116108133091;0.1847;0.0541;-0.1008;
973116118237831;0.1443;0.0594;-0.0912;
973116128337206;0.1527;0.0754;-0.0838;
973116138441997;0.1507;0.0455;-0.0859;
973116148546737;0.1538;0.0104;-0.0763;
973116158637206;0.1518;0.0178;-0.0806;
973116168741997;0.1815;-0.0130;-0.0647;
973116178846737;0.1815;-0.0312;-0.0509;
973116188966633;0.1751;-0.0599;-0.0679;
973116199071424;0.1740;-0.0652;-0.0795;
973116209176164;0.1804;-0.0035;-0.0498;
973116219255591;0.1751;0.0328;-0.0647;
973116229360383;0.1975;0.0370;-0.0605;
973116239465122;0.1698;0.0402;-0.0338;
973116249579706;0.1570;0.0807;-0.0455;
973116259684497;0.2049;0.0775;-0.0296;
973116269789237;0.1655;0.0605;-0.0296;
973116279899810;0.1879;0.0583;-0.0477;
973116290004549;0.1858;0.0349;-0.0647;
973116300109341;0.1698;0.0626;-0.0509;
973116310207310;0.1826;0.0509;-0.0722;
973116320312049;0.1730;-0.0567;-0.0732;
973116330416841;0.1740;-0.1015;-0.0413;
973116340525956;0.1719;-0.0599;-0.0296;
973116350630695;0.1762;-0.0024;-0.0168;
973116360735487;0.1751;0.0253;-0.0019;
973116370842102;0.1826;0.0072;-0.0136;
973116380946893;0.1826;0.0573;-0.0519;
973116391051581;0.2028;0.1083;-0.0423;
973116401152935;0.1751;0.0668;-0.0519;
973116411257727;0.1443;0.0923;-0.0519;
973116421362466;0.1443;0.0722;-0.0679;
973116431469185;0.1751;0.0093;-0.0349;
973116441573924;0.1772;0.0455;-0.0264;
973116451678716;0.1921;0.0434;-0.0253;
973116461792310;0.1794;-0.0290;-0.0051;
973116471897049;0.1836;-0.0312;-0.0455;
973116482001841;0.2134;0.0125;-0.0296;
973116492095227;0.1804;-0.0226;-0.0402;
973116502199966;0.1868;-0.0152;-0.0466;
973116512304758;0.2081;-0.0216;-0.0274;
973116522418664;0.2028;0.0008;-0.0210;
973116532523404;0.2433;0.0391;0.0024;
973116542628195;0.2103;0.0040;0.0280;
973116552730435;0.1964;0.0466;0.0269;
973116562835174;0.2060;0.0658;0.0045;
973116572939966;0.2134;0.1093;0.0013;
973116583048352;0.2028;0.0807;-0.0061;
973116593153143;0.1751;0.0828;-0.0178;
973116603257831;0.1783;0.0965;0.0045;
973116613370539;0.1570;0.0796;0.0269;
973116623475279;0.1900;0.0338;0.0205;
973116633580070;0.2103;-0.0024;0.0077;
973116643670852;0.1996;-0.0333;0.0290;
973116653775591;0.1900;-0.0780;0.0152;
973116663880383;0.2230;-0.0120;0.0258;
973116673990643;0.2007;0.0040;0.0258;
973116684095383;0.2209;-0.0610;0.0333;
973116694200174;0.2422;-0.0173;0.0439;
973116704301372;0.2486;-0.0162;0.0887;
973116714406112;0.2561;-0.0045;0.1142;
973116724510852;0.2305;0.0509;0.1260;
973116734621893;0.2028;0.1349;0.1292;
973116744726633;0.2198;0.1573;0.0770;
973116754831424;0.2475;0.0987;0.0855;
973116764933664;0.1858;0.0690;0.0919;
973116775038404;0.1676;0.0933;0.0748;
973116785143143;0.1794;0.1083;0.0716;
973116795242466;0.2145;-0.1164;0.1132;
973116805347258;0.2017;-0.0919;0.1643;
973116815452049;0.1762;0.0189;0.1334;
973116825550539;0.2007;-0.0237;0.1696;
973116835655279;0.1762;-0.0120;0.1750;
973116845760070;0.2411;0.0850;0.1846;
973116855844289;0.1911;0.0839;0.1686;
973116865949029;0.2071;0.1051;0.1590;
973116876053820;0.1497;0.0541;0.1473;
973116886202206;0.1337;-0.0099;0.1515;
973116896306945;0.1538;0.0391;0.1569;
973116906411737;0.1762;0.1519;0.1984;
973116916484185;0.1623;0.1796;0.2101;
973116926588924;0.1783;0.0285;0.1973;
973116936693716;0.1602;-0.0674;0.2112;
973116946822310;0.1538;0.0349;0.2133;
973116956927102;0.1326;0.0413;0.1973;
973116967031841;0.0975;-0.0258;0.2005;
973116977129706;0.1060;0.0594;0.1814;
973116987234445;0.1188;0.1104;0.1707;
973116997339237;0.1549;-0.0589;0.2037;
973117007442727;0.1634;-0.1249;0.2549;
973117017547466;0.1379;0.0051;0.2474;
973117027652258;0.1433;0.0200;0.2591;
973117037761164;0.1198;-0.0088;0.2474;
973117047865904;0.1559;0.0083;0.2421;
973117057970695;0.1060;0.0551;0.2410;
973117068079289;0.1177;0.0807;0.2325;
973117078184029;0.1007;0.0136;0.2655;
973117088288820;0.0730;0.0136;0.2698;
973117098400383;0.0421;0.0933;0.2549;
973117108505122;0.0527;0.0711;0.2698;
973117118609914;0.0474;-0.0109;0.2612;
973117128707518;0.0474;0.0381;0.2431;
973117138812258;0.0133;0.0647;0.2250;
973117148917049;0.0165;-0.0120;0.2463;
973117159020018;0.0101;-0.0162;0.2474;
973117169124758;0.0250;-0.0237;0.2623;
973117179229549;-0.0059;-0.0407;0.2676;
973117189328247;0.0080;0.0274;0.2804;
973117199432987;0.0069;0.0764;0.2964;
973117209537727;0.0059;0.0306;0.2666;
973117219650018;0.0495;0.0125;0.2666;
973117229754758;0.0059;0.0285;0.2570;
973117239859549;-0.0197;0.0668;0.2399;
973117249953977;-0.0165;0.0796;0.2463;
973117260058768;-0.0346;0.0423;0.2453;
973117270163508;-0.0261;0.0104;0.2410;
973117280267414;-0.0069;0.0029;0.2730;
973117290372154;-0.0208;-0.0226;0.2985;
973117300476893;-0.0495;-0.0301;0.2644;
973117310585383;-0.0314;-0.0269;0.2410;
973117320690122;-0.0101;-0.0546;0.2538;
973117330794862;-0.0250;-0.0557;0.2293;
973117340910695;-0.0250;-0.0407;0.2367;
973117351015435;-0.0399;0.0115;0.2410;
973117361120174;-0.0389;0.0381;0.2708;
973117371211372;-0.0186;0.0668;0.3081;
973117381316112;-0.0208;0.1402;0.3230;
973117391420852;-0.0591;0.1658;0.2932;
973117401525539;-0.0847;0.1285;0.2517;
973117411630279;-0.0932;0.0997;0.2655;
973117421735018;-0.1443;0.1242;0.2282;
973117431847518;-0.1710;0.1221;0.1899;
973117441952258;-0.1880;0.0040;0.1984;
973117452056997;-0.1795;-0.1718;0.1963;
973117462161268;-0.1209;-0.2900;0.2091;
973117472266008;-0.0655;-0.2250;0.2144;
973117482370799;-0.0836;-0.1505;0.2240;
973117492459810;-0.1017;-0.1473;0.2165;
973117502564549;-0.0762;-0.1153;0.2399;
973117512669289;-0.0591;-0.0258;0.2378;
973117522783560;-0.0858;0.0146;0.2314;
973117532888299;-0.1230;0.0029;0.2229;
973117542993039;-0.1188;0.0647;0.2154;
973117553102518;-0.1284;0.1328;0.2122;
973117563207258;-0.1603;0.1296;0.2165;
973117573311997;-0.1901;0.0775;0.1920;
973117583409497;-0.1688;0.0551;0.1558;
973117593514237;-0.1688;0.0402;0.1558;
973117603618977;-0.1667;0.0157;0.1760;
973117613732414;-0.1699;-0.0003;0.1494;
973117623837154;-0.1529;-0.0088;0.1441;
973117633941893;-0.1688;-0.0099;0.1664;
973117644035331;-0.1667;-0.0471;0.1824;
973117654140070;-0.1561;-0.0130;0.1909;
973117664244810;-0.1337;0.1008;0.1920;
973117674354289;-0.1784;0.1423;0.1686;
973117684459029;-0.2242;0.0583;0.1398;
973117694563768;-0.2210;0.0541;0.1526;
973117704691789;-0.2125;0.1146;0.1142;
973117714796529;-0.2178;0.0605;0.0993;
973117724901268;-0.2594;-0.0248;0.1249;
973117734974497;-0.2711;-0.0237;0.1142;
973117745079289;-0.1976;-0.0067;0.1111;
973117755183977;-0.2338;-0.0599;0.1132;
973117765299706;-0.1997;-0.0727;0.0929;
973117775404497;-0.1635;-0.0088;0.0887;
973117785509237;-0.1838;0.0562;0.0834;
973117795596789;-0.1838;0.1115;0.0834;
973117805701529;-0.2019;0.1210;0.0280;
973117815806268;-0.1987;0.1370;0.0237;
973117825910852;-0.2253;0.1839;0.0482;
973117836015591;-0.2221;0.1679;0.0216;
973117846120331;-0.2072;0.1242;0.0205;
973117856225747;-0.2008;0.1519;0.0205;
973117866330487;-0.1838;0.1434;-0.0157;
973117876435227;-0.1901;0.0391;-0.0296;
973117886569081;-0.1912;-0.0194;-0.0136;
973117896673820;-0.1571;-0.0205;-0.0402;
973117906778560;-0.1593;-0.0599;-0.0605;
973117916871581;-0.1582;-0.1387;-0.0168;
973117926976320;-0.1614;-0.1057;-0.0242;
973117937081060;-0.1284;-0.1015;-0.0232;
973117947189706;-0.1060;-0.0770;0.0088;
973117957294445;-0.1156;-0.0546;-0.0019;
973117967399185;-0.1220;0.0008;-0.0328;
973117977495643;-0.1379;0.0509;-0.0349;
973117987600383;-0.1624;0.0391;-0.0700;
973117997705174;-0.1369;0.0530;-0.0987;
973118007823247;-0.1614;0.0743;-0.0806;
973118017927987;-0.1656;0.0658;-0.0891;
973118028032727;-0.1401;0.0136;-0.0732;
973118038143352;-0.1284;-0.0056;-0.0754;
973118048248091;-0.0879;0.0466;-0.0784;
973118058352831;-0.0996;0.0445;-0.0901;
973118068443977;-0.1092;-0.0099;-0.0722;
973118078548768;-0.1039;-0.0461;-0.0763;
973118088653508;-0.0815;-0.0344;-0.1083;
973118098780018;-0.0996;-0.0770;-0.1115;
973118108884758;-0.0953;-0.1100;-0.0827;
973118118989497;-0.0655;-0.0589;-0.0732;
973118129075852;-0.0719;-0.0642;-0.0434;
973118139180591;-0.0879;-0.0908;-0.0455;
973118149285331;-0.0559;-0.0866;-0.0583;
973118159384289;-0.0762;-0.1036;-0.0732;
973118169489029;-0.0730;-0.0791;-0.0487;
973118179593820;-0.0613;-0.0194;-0.0583;
973118189702102;-0.0740;-0.0237;-0.0891;
973118199806841;-0.0932;-0.0088;-0.0997;
973118209911581;-0.0879;0.0615;-0.0763;
973118220034810;-0.0921;0.0477;-0.0647;
973118230139549;-0.0996;-0.0439;-0.0487;
973118240244289;-0.0623;-0.0077;-0.0487;
973118250317414;-0.0655;0.0551;-0.0944;
973118260422154;-0.0708;0.0328;-0.0869;
973118270526893;-0.0879;-0.0194;-0.0754;
973118280632883;-0.0399;0.0008;-0.1008;
973118290737622;-0.0133;-0.0610;-0.1509;
973118300842362;-0.0080;-0.0386;-0.1072;
973118310957049;-0.0389;0.0434;-0.0583;
973118321061789;-0.0357;-0.0493;-0.0296;
973118331166529;-0.0165;-0.0397;0.0013;
973118341280643;0.0069;0.0700;-0.0296;
973118351385383;-0.0293;0.0860;-0.0700;
973118361490122;-0.0858;0.0328;-0.0583;
973118371577310;-0.0879;-0.0557;-0.0477;
973118381682049;-0.0527;-0.0109;-0.0955;
973118391786789;-0.0634;0.0168;-0.0976;
973118401906060;-0.1007;-0.0184;-0.0573;
973118412010799;-0.0826;-0.0535;-0.0551;
973118422115539;-0.0442;-0.1483;-0.0317;
973118432211997;-0.0463;-0.2762;-0.0285;
973118442316737;-0.0581;-0.2527;-0.0827;
973118452421477;0.0293;0.0636;-0.1189;
973118462527727;0.0559;0.2521;-0.0722;
973118472632466;-0.0357;0.2222;-0.0477;
973118482737206;-0.0666;0.1605;-0.0658;
973118492844393;-0.0613;0.0923;-0.0690;
973118502949133;-0.0804;0.1828;-0.0859;
973118513053872;-0.0655;0.2105;-0.0573;
973118523160122;-0.0921;0.1093;-0.0370;
973118533264862;-0.0698;0.1807;-0.0869;
973118543369602;-0.0059;0.3767;-0.1466;
973118553479185;-0.0900;0.0944;-0.1349;
973118563583924;-0.0858;-0.4402;-0.0700;
973118573688664;0.0080;-0.2240;-0.1029;
973118583804914;0.0559;0.0381;-0.0976;
973118593909654;-0.0261;-0.1206;-0.0519;
973118604014393;-0.0581;-0.1675;-0.0232;
973118614102310;-0.0101;-0.0674;0.0045;
973118624207049;0.0197;0.1093;-0.0136;
973118634311789;-0.0123;0.1168;-0.0509;
973118644403247;-0.0581;0.1061;-0.0551;
973118654507987;-0.0527;0.2648;-0.0423;
973118664612727;-0.0730;0.2009;-0.0722;
973118674748456;-0.0836;0.1743;-0.1083;
973118684853195;-0.0836;0.2265;-0.1093;
973118694957935;-0.0783;0.0477;-0.0754;
973118705049081;-0.0719;-0.0173;-0.0573;
973118715153820;-0.0080;-0.0120;-0.0626;
973118725258560;0.0037;-0.1047;-0.0445;
973118735358560;-0.0144;-0.1558;-0.0679;
973118745463299;0.0357;-0.1260;-0.0370;
973118755568039;0.0197;-0.1728;-0.0370;
973118765669810;0.0282;-0.2037;-0.0328;
973118775774549;0.0421;-0.1654;-0.0317;
973118785879289;0.0431;-0.2186;-0.0093;
973118795996789;0.0293;-0.1824;0.0109;
973118806101529;0.0527;-0.0589;0.0375;
973118816206268;0.0730;-0.0482;0.0716;
973118826292102;0.0368;-0.0397;0.0439;
973118836396841;0.0218;0.0242;0.0205;
973118846501581;0.0080;0.0594;0.0407;
973118856629029;-0.0069;0.0881;0.0439;
973118866733768;-0.0314;0.1157;0.0333;
973118876838508;-0.0282;0.1370;0.0386;
973118886942779;-0.0218;0.1338;0.0557;
973118897047518;-0.0517;0.1892;0.0546;
973118907152258;-0.0517;0.1157;0.0620;
973118917246581;-0.0623;0.0093;0.0844;
973118927351320;-0.0602;0.0871;0.0535;
973118937456060;-0.0368;0.1146;0.0503;
973118947554289;-0.0570;0.0541;0.0738;
973118957659029;-0.0751;0.0072;0.0802;
973118967763768;-0.0549;-0.0077;0.0759;
973118977862414;-0.0676;-0.0439;0.0780;
973118987967154;-0.0794;-0.0940;0.0770;
973118998071893;-0.0644;-0.0706;0.1174;
973119008195279;-0.0591;-0.1025;0.1366;
973119018300018;-0.0474;-0.1281;0.1483;
973119028404758;-0.0847;-0.0876;0.0897;
973119038495122;-0.0794;-0.1153;0.0951;
973119048599862;-0.0740;-0.1877;0.1025;
973119058704602;-0.0719;-0.2133;0.0855;
973119068817727;-0.0559;-0.1622;0.0674;
973119078922466;-0.0911;-0.1089;0.0631;
973119089027206;-0.1433;-0.0802;0.0397;
973119099108872;-0.1039;-0.0855;0.0557;
973119109213612;-0.0708;-0.1462;0.0780;
973119119318352;-0.0730;-0.0567;0.0525;
973119129441477;-0.0772;0.1061;0.0226;
973119139546164;-0.0868;0.0743;0.0258;
973119149650956;-0.0889;0.0221;0.0258;
973119159753352;-0.0687;0.1498;-0.0040;
973119169858091;-0.0964;0.1839;-0.0221;
973119179962831;-0.0911;0.1093;-0.0029;
973119190061216;-0.1081;0.0965;0.0109;
973119200165956;-0.0953;0.1349;0.0226;
973119210270695;-0.0783;0.1051;0.0280;
973119220400435;-0.0953;0.0445;0.0301;
973119230505174;-0.1028;0.0519;0.0077;
973119240609914;-0.1198;0.0264;0.0482;
973119250685956;-0.1571;0.0775;0.0035;
973119260790695;-0.1262;0.0349;0.0045;
973119270895435;-0.1518;-0.0109;0.0280;
973119281004602;-0.1944;0.0402;0.0067;
973119291109341;-0.1529;0.0594;0.0162;
973119301214081;-0.1529;0.0850;0.0461;
973119311314081;-0.1635;-0.0407;0.0546;
973119321418820;-0.1923;0.0051;-0.0317;
973119331523560;-0.1390;0.1413;-0.0519;
973119341649445;-0.1859;0.0839;-0.0232;
973119351754185;-0.1976;0.0029;-0.0519;
973119361858924;-0.1220;0.0445;-0.0848;
973119371941789;-0.1188;0.0445;-0.0763;
973119382046529;-0.1348;0.0423;-0.0541;
973119392151320;-0.0996;-0.0013;-0.0317;
973119402268456;-0.1113;-0.1174;-0.0146;
973119412373195;-0.0644;-0.0375;-0.0381;
973119422477935;-0.0730;0.0987;-0.0763;
973119432584081;-0.0964;0.0775;-0.0349;
973119442688820;-0.0698;-0.0578;-0.0285;
973119452793560;-0.0762;-0.0589;-0.0519;
973119462897883;-0.0112;0.0541;-0.0434;
973119473002622;-0.0208;0.0125;0.0056;
973119483107362;-0.0772;-0.0482;0.0354;
973119493215383;-0.0666;-0.0205;0.0375;
973119503320122;-0.0463;0.0136;0.0333;
973119513424862;-0.0549;-0.0141;0.0354;
973119523525122;-0.1060;-0.0418;0.0280;
973119533629862;-0.0964;0.0274;0.0130;
973119543734602;-0.0858;0.0722;0.0312;
973119553837206;-0.1081;0.0944;0.0589;
973119563941945;-0.1177;0.1146;0.0375;
973119574046685;-0.1092;0.0519;0.0642;
973119584144706;-0.1465;0.0690;0.0876;
973119594249445;-0.1710;0.1221;0.0738;
973119604354185;-0.1795;0.0807;0.1057;
973119614455122;-0.2359;0.0519;0.0834;
973119624559862;-0.2498;0.1221;0.0365;
973119634664602;-0.2178;0.1274;0.0620;
973119644836372;-0.2583;0.0338;0.0386;
973119654941112;-0.2711;-0.0088;0.0173;
973119665045852;-0.2487;-0.0354;0.0173;
973119675071581;-0.2743;-0.1068;-0.0061;
973119685176320;-0.3414;-0.0525;-0.0349;
973119695281060;-0.2626;-0.0493;-0.0104;
973119705449185;-0.2445;-0.1132;-0.0083;
973119715553924;-0.2509;-0.0993;-0.0615;
973119725658664;-0.1720;-0.0834;-0.0732;
973119735726164;-0.2061;-0.1345;-0.0848;
973119745830904;-0.1838;-0.1835;-0.1104;
973119755935643;-0.1603;-0.1941;-0.1360;
973119766053195;-0.1624;-0.2101;-0.1519;
973119776157935;-0.1912;-0.1963;-0.1658;
973119786262674;-0.1678;-0.0791;-0.1679;
973119796348456;-0.1443;-0.1079;-0.1551;
973119806453195;-0.1039;-0.1664;-0.1498;
973119816557935;-0.0708;0.0040;-0.2126;
973119826669497;-0.0069;0.0551;-0.1892;
973119836774237;0.0101;0.0189;-0.1754;
973119846878977;-0.0069;0.1040;-0.2126;
973119856995279;-0.0005;0.1402;-0.2148;
973119867100018;-0.0421;0.1786;-0.2212;
973119877204758;-0.0048;0.1509;-0.2276;
973119887289497;-0.0186;0.1338;-0.2276;
973119897394237;-0.0389;0.1828;-0.1924;
973119907498977;0.0783;-0.0003;-0.1647;
973119917618352;0.0154;-0.0706;-0.1668;
973119927723091;-0.0378;0.0083;-0.1605;
973119937827831;-0.0357;-0.0525;-0.1285;
973119947923560;-0.0687;-0.0535;-0.1658;
973119958028299;-0.0549;-0.0237;-0.1732;
973119968133039;-0.0581;-0.0045;-0.1594;
973119978252518;-0.0613;0.0274;-0.1594;
973119988357258;-0.0751;0.0221;-0.1498;
973119998461997;-0.0836;0.0349;-0.1509;
973120008561060;-0.0783;0.0040;-0.1636;
973120018665799;-0.0783;0.0509;-0.1945;
973120028770539;-0.0613;0.1168;-0.1892;
973120038854810;-0.0730;0.1104;-0.1871;
973120048959549;-0.0783;0.0860;-0.2169;
973120059064289;-0.0730;0.0732;-0.2510;
973120069185956;-0.0581;0.0562;-0.2414;
973120079290695;-0.0602;-0.0130;-0.2361;
973120089395435;-0.0368;-0.0003;-0.2478;
973120099494914;-0.0240;0.0040;-0.2510;
973120109599654;-0.0197;-0.0802;-0.2478;
973120119704393;0.0027;-0.0439;-0.3043;
973120129803456;0.0293;-0.0056;-0.2989;
973120139908195;0.0304;0.0040;-0.3181;
973120150012935;0.1316;-0.0429;-0.3426;
973120160114810;0.1188;-0.0461;-0.3469;
973120170219549;0.1772;-0.0226;-0.3266;
973120180324289;0.2017;-0.0237;-0.3021;
973120190431581;0.2294;0.0019;-0.2776;
973120200536320;0.2465;-0.0067;-0.2478;
973120210641060;0.2603;-0.0077;-0.2553;
973120220760227;0.2731;0.0125;-0.2893;
973120230864966;0.2720;0.0200;-0.2542;
973120240969706;0.2827;0.0125;-0.2574;
973120251059289;0.2901;-0.0301;-0.2595;
973120261164029;0.2497;-0.0439;-0.2425;
973120271268768;0.2593;-0.0397;-0.2393;
973120281379810;0.2710;-0.0770;-0.2350;
973120291484549;0.2337;-0.0695;-0.1881;
973120301589341;0.2497;-0.0610;-0.1519;
973120311695018;0.2369;-0.0897;-0.1434;
973120321799758;0.2060;-0.0844;-0.1636;
973120331904549;0.2262;-0.0610;-0.1658;
973120342018664;0.2177;-0.0482;-0.1605;
973120352123404;0.1698;-0.0716;-0.1519;
973120362228195;0.1687;-0.0205;-0.1498;
973120372314966;0.1932;0.0274;-0.1349;
973120382419706;0.1676;0.0072;-0.1221;
973120392524445;0.1581;0.0210;-0.1083;
973120402628977;0.1687;0.0253;-0.0838;
973120412733768;0.1623;0.0104;-0.0743;
973120422838508;0.1687;-0.0013;-0.0944;
973120432945331;0.1804;0.0019;-0.0976;
973120443050122;0.1549;0.0104;-0.0912;
973120453154862;0.1401;0.0157;-0.0880;
973120463259289;0.1868;0.0232;-0.1264;
973120473364029;0.2081;0.0551;-0.1093;
973120483468820;0.2252;0.0232;-0.0647;
973120493571789;0.2103;0.0178;-0.0349;
973120503676529;0.2294;0.0413;-0.0136;
973120513781320;0.2422;-0.0258;-0.0157;
973120523884497;0.1964;-0.0333;-0.0253;
973120533989237;0.2049;0.0210;-0.0083;
973120544094029;0.2145;0.0754;-0.0051;
973120554203560;0.2145;0.1061;-0.0253;
973120564308299;0.2177;0.0551;-0.0168;
973120574413091;0.1868;-0.0099;0.0130;
973120584518768;0.1879;0.0125;0.0099;
973120594623508;0.2124;-0.0429;0.0386;
973120604728247;0.1698;-0.0205;0.0823;
973120614823872;0.1975;-0.0035;0.0876;
973120624928612;0.1623;0.0200;0.0514;
973120635033404;0.1751;0.0530;0.0450;
973120645145539;0.1507;0.0328;0.0482;
973120655250279;0.1348;0.0317;0.0375;
973120665355122;0.1316;-0.0045;0.0365;
973120675451737;0.0964;0.0317;0.0535;
973120685556477;0.1294;0.0754;0.0578;
973120695661268;0.1465;-0.0024;0.0919;
973120705764914;0.0804;0.0008;0.0844;
973120715869654;0.1113;0.0115;0.0876;
973120725974445;0.0772;-0.0269;0.0663;
973120736081060;0.0762;0.0402;0.0791;
973120746185799;0.0740;0.0530;0.0557;
973120756290591;0.0943;0.0221;0.0525;
973120766395122;0.0144;-0.0290;0.0514;
973120776499862;-0.0101;-0.0099;0.0205;
973120786604654;0.0453;0.0136;0.0003;
973120796707049;0.0463;0.0051;0.0354;
973120806811789;0.0623;0.0594;0.0631;
973120816916581;0.0847;0.0562;0.0780;
973120827035956;0.0613;-0.0269;0.0333;
973120837140695;0.0783;-0.0173;0.0375;
973120847245487;0.0740;-0.0237;0.0344;
973120857366477;0.0431;-0.0471;0.0120;
973120867471216;0.0772;-0.0194;-0.0093;
973120877576008;0.0730;0.0317;-0.0019;
973120887654810;0.1039;0.0242;-0.0019;
973120897759549;0.0719;-0.0056;0.0120;
973120907864341;0.1177;-0.0280;0.0301;
973120917976477;0.1411;0.0072;0.0631;
973120928081216;0.1252;0.0008;0.0418;
973120938186008;0.1369;0.0530;0.0471;
973120948296893;0.1527;0.0647;0.0514;
973120958401633;0.1145;0.0338;0.0280;
973120968506424;0.1294;0.0562;0.0056;
973120978635122;0.1411;0.0381;0.0205;
973120988739862;0.1188;-0.0067;0.0130;
973120998844654;0.1921;-0.0077;0.0429;
973121008913247;0.1826;-0.0237;0.1121;
