Sensor: bmi160 Gyroscope Non-wakeup
Vendor: BOSCH
TimestampGyro [ns]; GyroX [rad/s]; GyroY [rad/s]; GyroZ [rad/s]
3099618128331175;-0.0145;0.0125;-0.0180;
3099618138444300;-0.0028;0.0178;-0.0212;
3099618148549820;-0.0049;0.0146;-0.0180;
3099618158619039;-0.0060;0.0136;-0.0180;
3099618168762425;-0.0039;0.0125;-0.0180;
3099618178873362;-0.0028;0.0125;-0.0169;
3099618188935185;-0.0028;0.0115;-0.0180;
3099618199060081;-0.0017;0.0115;-0.0180;
3099618209173466;-0.0028;0.0093;-0.0169;
3099618219323779;-0.0039;0.0104;-0.0180;
3099618229401383;-0.0039;0.0115;-0.0180;
3099618239480498;-0.0039;0.0115;-0.0158;
3099618249612841;-0.0028;0.0093;-0.0148;
3099618259714352;-0.0028;0.0093;-0.0148;
3099618269841956;-0.0017;0.0093;-0.0158;
3099618279913206;-0.0028;0.0093;-0.0169;
3099618290025289;-0.0028;0.0083;-0.0148;
3099618300160185;-0.0028;0.0083;-0.0148;
3099618310250081;-0.0028;0.0083;-0.0137;
3099618320340341;-0.0017;0.0093;-0.0126;
3099618330449820;-0.0028;0.0083;-0.0137;
3099618340573102;-0.0039;0.0072;-0.0126;
3099618350695289;-0.0039;0.0072;-0.0126;
3099618360770758;-0.0039;0.0061;-0.0105;
3099618370880758;-0.0039;0.0061;-0.0095;
3099618380987373;-0.0049;0.0051;-0.0095;
3099618391086383;-0.0060;0.0029;-0.0084;
3099618401199404;-0.0049;0.0019;-0.0073;
3099618411308050;-0.0039;0.0008;-0.0052;
3099618421415445;-0.0060;-0.0003;-0.0041;
3099618431531123;-0.0081;0.0008;-0.0020;
3099618441632789;-0.0092;-0.0003;0.0001;
3099618451734820;-0.0092;-0.0003;0.0012;
3099618461844508;-0.0092;-0.0024;0.0033;
3099618471953050;-0.0113;-0.0056;0.0044;
3099618482052529;-0.0113;-0.0077;0.0044;
3099618492164977;-0.0113;-0.0067;0.0087;
3099618502272112;-0.0113;-0.0099;0.0129;
3099618512381487;-0.0124;-0.0099;0.0150;
3099618522489091;-0.0145;-0.0088;0.0172;
3099618532594612;-0.0177;-0.0120;0.0193;
3099618542699820;-0.0177;-0.0130;0.0214;
3099618552812737;-0.0166;-0.0130;0.0236;
3099618562917633;-0.0188;-0.0152;0.0268;
3099618573029300;-0.0188;-0.0184;0.0289;
3099618583132633;-0.0177;-0.0194;0.0321;
3099618593239820;-0.0188;-0.0226;0.0353;
3099618603349300;-0.0220;-0.0226;0.0374;
3099618613457841;-0.0166;-0.0280;0.0385;
3099618623569820;-0.0198;-0.0258;0.0395;
3099618633671279;-0.0188;-0.0280;0.0417;
3099618643774873;-0.0177;-0.0301;0.0417;
3099618653883570;-0.0188;-0.0290;0.0406;
3099618663995654;-0.0188;-0.0269;0.0395;
3099618674111643;-0.0177;-0.0248;0.0374;
3099618684211956;-0.0188;-0.0226;0.0364;
3099618694309039;-0.0177;-0.0205;0.0353;
3099618704417737;-0.0188;-0.0194;0.0332;
3099618714522737;-0.0145;-0.0205;0.0300;
3099618724642320;-0.0134;-0.0184;0.0300;
3099618734750445;-0.0145;-0.0184;0.0278;
3099618744856070;-0.0134;-0.0173;0.0268;
3099618754955966;-0.0124;-0.0194;0.0289;
3099618765062373;-0.0103;-0.0194;0.0268;
3099618775172737;-0.0092;-0.0194;0.0257;
3099618785281279;-0.0103;-0.0205;0.0257;
3099618795392529;-0.0092;-0.0194;0.0236;
3099618805493779;-0.0103;-0.0184;0.0257;
3099618815598258;-0.0103;-0.0162;0.0257;
3099618825681800;-0.0103;-0.0162;0.0257;
3099618835820550;-0.0103;-0.0194;0.0246;
3099618845924195;-0.0103;-0.0205;0.0268;
3099618856038362;-0.0103;-0.0184;0.0300;
3099618866143935;-0.0113;-0.0216;0.0289;
3099618876243466;-0.0103;-0.0237;0.0300;
3099618886350133;-0.0103;-0.0237;0.0310;
3099618896445029;-0.0124;-0.0248;0.0332;
3099618906585862;-0.0145;-0.0248;0.0364;
3099618916674404;-0.0124;-0.0280;0.0395;
3099618926795393;-0.0156;-0.0322;0.0417;
3099618936866956;-0.0156;-0.0354;0.0481;
3099618947002633;-0.0177;-0.0397;0.0523;
3099618957091539;-0.0177;-0.0418;0.0566;
3099618967209404;-0.0220;-0.0429;0.0609;
3099618977309716;-0.0262;-0.0461;0.0651;
3099618987400810;-0.0273;-0.0471;0.0715;
3099618997530550;-0.0294;-0.0525;0.0790;
3099619007631487;-0.0305;-0.0567;0.0864;
3099619017745445;-0.0305;-0.0631;0.0939;
3099619027853987;-0.0325;-0.0706;0.0992;
3099619037948987;-0.0357;-0.0770;0.1056;
3099619048054716;-0.0389;-0.0802;0.1130;
3099619058164508;-0.0399;-0.0876;0.1205;
3099619068295081;-0.0453;-0.0897;0.1290;
3099619078400237;-0.0506;-0.0929;0.1397;
3099619088509664;-0.0549;-0.1004;0.1493;
3099619098583258;-0.0570;-0.1047;0.1589;
3099619108736591;-0.0602;-0.1121;0.1652;
3099619118832373;-0.0687;-0.1238;0.1716;
3099619128901956;-0.0644;-0.1334;0.1823;
3099619139019612;-0.0762;-0.1387;0.1919;
3099619149114977;-0.0740;-0.1494;0.2036;
3099619159260445;-0.0719;-0.1505;0.2185;
3099619169338727;-0.0794;-0.1505;0.2292;
3099619179452477;-0.0858;-0.1579;0.2355;
3099619189570029;-0.0911;-0.1632;0.2409;
3099619199674404;-0.0932;-0.1675;0.2451;
3099619209778727;-0.0975;-0.1739;0.2494;
3099619219885966;-0.0953;-0.1760;0.2579;
3099619229990341;-0.0975;-0.1771;0.2590;
3099619240094664;-0.0996;-0.1846;0.2558;
3099619250195341;-0.0975;-0.1867;0.2579;
3099619260299716;-0.0932;-0.1867;0.2622;
3099619270404091;-0.0932;-0.1856;0.2643;
3099619280519716;-0.0985;-0.1824;0.2622;
3099619290624091;-0.1007;-0.1835;0.2579;
3099619300728466;-0.1028;-0.1792;0.2505;
3099619310828779;-0.1039;-0.1771;0.2419;
3099619320933154;-0.1028;-0.1718;0.2398;
3099619331037477;-0.1049;-0.1622;0.2366;
3099619341187945;-0.1092;-0.1558;0.2260;
3099619351292320;-0.1145;-0.1558;0.2164;
3099619361396643;-0.1124;-0.1579;0.2132;
3099619371491227;-0.1124;-0.1579;0.2132;
3099619381595602;-0.1092;-0.1579;0.2132;
3099619391699925;-0.1134;-0.1590;0.2132;
3099619401811227;-0.1156;-0.1590;0.2185;
3099619411915602;-0.1198;-0.1601;0.2217;
3099619422019977;-0.1273;-0.1611;0.2228;
3099619432135029;-0.1348;-0.1622;0.2260;
3099619442239404;-0.1379;-0.1601;0.2281;
3099619452343779;-0.1433;-0.1558;0.2324;
3099619462473154;-0.1443;-0.1515;0.2345;
3099619472577529;-0.1401;-0.1494;0.2355;
3099619482681852;-0.1465;-0.1526;0.2345;
3099619492771904;-0.1656;-0.1611;0.2302;
3099619502876279;-0.1688;-0.1686;0.2281;
3099619512980602;-0.1646;-0.1739;0.2281;
3099619523092737;-0.1624;-0.1739;0.2281;
3099619533197112;-0.1678;-0.1750;0.2260;
3099619543301487;-0.1859;-0.1760;0.2228;
3099619553422008;-0.1923;-0.1760;0.2185;
3099619563526383;-0.1955;-0.1718;0.2196;
3099619573630758;-0.2019;-0.1654;0.2228;
3099619583740966;-0.2072;-0.1601;0.2217;
3099619593845341;-0.2168;-0.1569;0.2164;
3099619603949664;-0.2264;-0.1515;0.2089;
3099619614060758;-0.2306;-0.1398;0.2079;
3099619624165081;-0.2370;-0.1281;0.2089;
3099619634269456;-0.2402;-0.1174;0.2110;
3099619644376070;-0.2466;-0.1079;0.2079;
3099619654480445;-0.2604;-0.0983;0.1993;
3099619664584820;-0.2722;-0.0834;0.1897;
3099619674720029;-0.2775;-0.0748;0.1823;
3099619684824404;-0.2807;-0.0759;0.1716;
3099619694928727;-0.2903;-0.0716;0.1599;
3099619705038154;-0.3095;-0.0620;0.1514;
3099619715142529;-0.3446;-0.0535;0.1386;
3099619725246852;-0.3787;-0.0397;0.1237;
3099619735360029;-0.4117;-0.0248;0.1120;
3099619745464404;-0.4383;-0.0226;0.1035;
3099619755568727;-0.4362;-0.0216;0.0992;
3099619765674925;-0.4224;-0.0269;0.0843;
3099619775779300;-0.3798;-0.0375;0.0577;
3099619785883623;-0.3361;-0.0365;0.0427;
3099619795998154;-0.3457;-0.0173;0.0385;
3099619806102529;-0.3638;0.0178;0.0491;
3099619816206852;-0.3680;0.0370;0.0577;
3099619826326904;-0.3648;0.0477;0.0459;
3099619836431279;-0.3755;0.0764;0.0417;
3099619846535602;-0.3819;0.0967;0.0395;
3099619856643987;-0.3830;0.0871;0.0268;
3099619866748362;-0.3968;0.0626;0.0012;
3099619876852685;-0.4138;0.0573;-0.0073;
3099619886948258;-0.4192;0.0743;0.0001;
3099619897052633;-0.4181;0.0786;-0.0105;
3099619907157008;-0.4106;0.0636;-0.0318;
3099619917268883;-0.4149;0.0732;-0.0340;
3099619927373258;-0.4341;0.1063;-0.0190;
3099619937477581;-0.4501;0.1189;-0.0148;
3099619947581695;-0.4501;0.0977;-0.0244;
3099619957686018;-0.4394;0.0711;-0.0233;
3099619967790393;-0.4149;0.0775;-0.0073;
3099619977913779;-0.4021;0.0956;-0.0031;
3099619988018154;-0.4202;0.0956;-0.0105;
3099619998122477;-0.4043;0.1009;-0.0276;
3099620008231175;-0.3883;0.1136;-0.0169;
3099620018335550;-0.4000;0.1253;0.0140;
3099620028439873;-0.4202;0.1509;0.0513;
3099620038551227;-0.4288;0.1881;0.0427;
3099620048655550;-0.4224;0.1754;-0.0467;
3099620058759925;-0.4426;0.1658;-0.1149;
3099620068869925;-0.4543;0.0967;-0.1011;
3099620078974300;-0.3574;0.0871;-0.0265;
3099620089078675;-0.2924;0.1434;0.0704;
3099620099203466;-0.3776;0.1360;0.0811;
3099620109307841;-0.4202;0.0924;0.0385;
3099620119412164;-0.3009;0.0935;0.0182;
3099620129508570;-0.1901;0.1072;0.0289;
3099620139612945;-0.1486;0.1125;0.0300;
3099620149717268;-0.1273;0.1115;0.0310;
3099620159865237;-0.0985;0.1157;0.0534;
3099620169969612;-0.1198;0.0988;0.0640;
3099620180073935;-0.1614;0.0711;0.0310;
3099620190175081;-0.1411;0.0615;-0.0158;
3099620200281695;-0.1092;0.0967;-0.0425;
3099620210388258;-0.1667;0.1455;-0.0276;
3099620220483831;-0.2562;0.1487;-0.0009;
3099620230590445;-0.2690;0.1349;-0.0009;
3099620240697008;-0.2775;0.1402;-0.0265;
3099620250837268;-0.3340;0.1605;-0.0670;
3099620260943883;-0.3936;0.1935;-0.1032;
3099620271050445;-0.4788;0.1956;-0.1064;
3099620281147060;-0.5576;0.1679;-0.1170;
3099620291253675;-0.5683;0.1242;-0.1415;
3099620301360237;-0.5800;0.0828;-0.1746;
3099620311447373;-0.5939;0.0626;-0.2096;
3099620321553987;-0.6513;0.1349;-0.2106;
3099620331660550;-0.6843;0.1956;-0.1916;
3099620341768727;-0.6640;0.2286;-0.1916;
3099620351875341;-0.6386;0.2766;-0.1852;
3099620361981904;-0.5523;0.2915;-0.1989;
3099620372101123;-0.4820;0.2808;-0.1959;
3099620382207737;-0.4117;0.2808;-0.1490;
3099620392314300;-0.3361;0.2510;-0.1714;
3099620402419039;-0.2232;0.2425;-0.2085;
3099620412525654;-0.1795;0.2648;-0.1671;
3099620422632216;-0.1603;0.2329;-0.1628;
3099620432747373;-0.0570;0.2148;-0.1937;
3099620442853987;-0.0357;0.2510;-0.1969;
3099620452960550;-0.1358;0.2297;-0.2021;
3099620463064768;-0.1667;0.1807;-0.2160;
3099620473171383;-0.1550;0.1615;-0.2362;
3099620483277945;-0.1699;0.1956;-0.2671;
3099620493377789;-0.2338;0.2979;-0.2607;
3099620503484404;-0.3585;0.3841;-0.2501;
3099620513590966;-0.3766;0.3948;-0.2810;
3099620523696956;-0.2967;0.4118;-0.3129;
3099620533833258;-0.2690;0.4289;-0.3129;
3099620543939820;-0.2562;0.4577;-0.3385;
3099620554046383;-0.2338;0.5067;-0.4013;
3099620564126852;-0.3137;0.4481;-0.4493;
3099620574233466;-0.4735;0.3075;-0.5228;
3099620584340029;-0.4639;0.3128;-0.5547;
3099620594456591;-0.4053;0.3628;-0.5217;
3099620604563206;-0.3798;0.4385;-0.4951;
3099620614669768;-0.3670;0.5365;-0.5217;
3099620624772998;-0.3489;0.5588;-0.5537;
3099620634879612;-0.2615;0.6025;-0.5281;
3099620644986175;-0.1891;0.6877;-0.4855;
3099620655094508;-0.1124;0.7355;-0.4780;
3099620665201123;-0.0634;0.6888;-0.4940;
3099620675307685;0.0526;0.5716;-0.4940;
3099620685436018;0.2294;0.4822;-0.4716;
3099620695542633;0.4276;0.3948;-0.4343;
3099620705649195;0.6767;0.2276;-0.4067;
3099620715743518;0.8951;0.1157;-0.3683;
3099620725850133;1.0559;0.0977;-0.2948;
3099620735956695;1.1486;0.0509;-0.2117;
3099620746058675;1.1550;-0.0844;-0.1714;
3099620756165289;1.1443;-0.0674;-0.0915;
3099620766271852;1.0900;0.0360;-0.0265;
3099620776378831;1.0069;0.0008;-0.0105;
3099620786485445;0.8525;-0.0770;0.0161;
3099620796592008;0.7374;-0.0354;0.0928;
3099620806692268;0.6724;-0.0205;0.1184;
3099620816798883;0.5724;-0.0695;0.0864;
3099620826905445;0.4499;-0.0834;0.1184;
3099620837023675;0.3658;-0.0120;0.1610;
3099620847130289;0.3072;0.0189;0.1375;
3099620857236852;0.2550;0.0125;0.0907;
3099620867347164;0.1953;0.1306;0.1099;
3099620877453779;0.1495;0.1647;0.1290;
3099620887560341;0.1847;-0.0354;0.0822;
3099620897666852;0.1847;-0.1174;0.0545;
3099620907773466;0.0856;0.0168;0.0896;
3099620917880029;0.1410;-0.0258;0.0694;
3099620927973414;0.2720;-0.1856;0.0087;
3099620938080029;0.2603;-0.0738;0.0278;
3099620948186591;0.2901;0.0338;0.0395;
3099620958326748;0.4286;-0.0067;0.0108;
3099620968433362;0.3903;0.0253;0.0182;
3099620978539925;0.3072;0.0945;0.0406;
3099620988653310;0.2816;0.0839;-0.0095;
3099620998759925;0.1826;0.0583;-0.0478;
3099621008866487;0.0846;0.0530;-0.0531;
3099621018947373;0.0132;0.0253;-0.0787;
3099621029053987;-0.0730;-0.0184;-0.1234;
3099621039160550;-0.1774;-0.0471;-0.1383;
3099621049272477;-0.2200;0.0019;-0.1724;
3099621059379091;-0.1624;0.0477;-0.1959;
3099621069485654;-0.1475;0.0328;-0.2117;
3099621079596852;-0.1273;0.0338;-0.2639;
3099621089703466;-0.0262;0.1360;-0.2469;
3099621099810029;0.1048;0.1009;-0.2447;
3099621109915081;0.2103;0.0605;-0.2756;
3099621120021695;0.3519;0.0860;-0.2383;
3099621130128258;0.5469;0.0264;-0.2533;
3099621140272789;0.7225;0.0029;-0.2149;
3099621150379404;0.9036;-0.0407;-0.1831;
3099621160485966;1.0655;-0.1185;-0.1671;
3099621170554456;1.2401;-0.0738;-0.0968;
3099621180661070;1.4041;-0.0557;-0.0585;
3099621190767633;1.5160;-0.0429;-0.0222;
3099621200879508;1.5916;-0.0258;0.0630;
3099621210986123;1.5863;-0.0386;0.0843;
3099621221092685;1.5532;0.0115;0.1450;
3099621231210185;1.4616;0.0115;0.1738;
3099621241316800;1.3008;-0.0461;0.1919;
3099621251423362;1.0793;-0.0344;0.2409;
3099621261521539;0.8684;0.0296;0.2206;
3099621271628154;0.6511;-0.0375;0.2579;
3099621281734716;0.3722;-0.0674;0.2430;
3099621291802789;0.1293;-0.0258;0.2558;
3099621301909404;0.0941;-0.0099;0.2792;
3099621312015966;0.0015;-0.0652;0.2750;
3099621322158623;-0.1603;-0.0407;0.3016;
3099621332265237;-0.2391;0.0200;0.3037;
3099621342371800;-0.2828;0.0487;0.3240;
3099621352482164;-0.3297;0.0711;0.2920;
3099621362588779;-0.4309;0.0328;0.3431;
3099621372695341;-0.5534;0.0168;0.3314;
3099621382799352;-0.6832;-0.0035;0.3517;
3099621392905966;-0.8228;0.0210;0.3080;
3099621403012529;-0.9261;-0.0152;0.2973;
3099621413122425;-1.0369;-0.0706;0.2995;
3099621423229039;-1.0742;0.0775;0.2760;
3099621433335602;-1.0656;0.1562;0.2419;
3099621443451331;-1.0369;0.1072;0.2334;
3099621453557945;-1.1530;0.0839;0.2132;
3099621463664508;-1.2020;0.0253;0.1567;
3099621473769039;-1.2030;0.0178;0.1407;
3099621483875654;-1.2116;0.0402;0.1099;
3099621493982216;-1.1977;-0.0280;0.0949;
3099621504096331;-1.1988;-0.0216;0.0459;
3099621514202945;-1.1402;0.0157;0.0257;
3099621524309508;-1.0528;0.0722;0.0310;
3099621534418102;-0.9666;0.0636;0.0055;
3099621544524925;-0.9208;0.0391;-0.0254;
3099621554631800;-0.8451;0.0189;-0.0627;
3099621564740498;-0.7173;0.1423;-0.0350;
3099621574847320;-0.6141;0.1232;-0.0606;
3099621584954195;-0.5331;0.0285;-0.0585;
3099621595057268;-0.5055;0.1594;-0.0574;
3099621605164091;-0.4106;0.1306;-0.0776;
3099621615270966;-0.3979;0.0647;-0.1085;
3099621625388727;-0.4053;0.1020;-0.0936;
3099621635495550;-0.3670;0.0860;-0.0957;
3099621645602425;-0.3798;-0.0706;-0.0862;
3099621655696748;-0.4362;-0.0770;-0.1149;
3099621665803570;-0.3925;0.0551;-0.1213;
3099621675910445;-0.3531;0.1796;-0.0808;
3099621686040393;-0.3616;0.1828;-0.1128;
3099621696147216;-0.4106;0.1072;-0.1245;
3099621706254091;-0.4618;0.1370;-0.1234;
3099621716344352;-0.5225;0.0839;-0.1533;
3099621726451175;-0.5342;0.0423;-0.1628;
3099621736558050;-0.5811;0.0434;-0.1842;
3099621746651123;-0.5502;0.0178;-0.1831;
3099621756757945;-0.5331;0.0573;-0.2043;
3099621766864820;-0.4469;0.1402;-0.2064;
3099621776988206;-0.3925;0.1786;-0.1959;
3099621787095029;-0.4309;0.1402;-0.2234;
3099621797201904;-0.4213;0.1052;-0.2288;
3099621807300914;-0.4362;0.0732;-0.2575;
3099621817407737;-0.4362;0.0967;-0.2575;
3099621827514612;-0.4202;0.0253;-0.2714;
3099621837631539;-0.4351;-0.0375;-0.2820;
3099621847738362;-0.3872;0.0466;-0.2703;
3099621857845237;-0.3702;0.1455;-0.2746;
3099621867933518;-0.2796;0.0988;-0.2650;
3099621878040341;-0.2796;0.0306;-0.2948;
3099621888147216;-0.3702;0.0530;-0.3055;
3099621898267268;-0.3734;0.0519;-0.2948;
3099621908374091;-0.3414;0.0967;-0.2969;
3099621918480966;-0.3212;0.1115;-0.3172;
3099621928586956;-0.2754;0.1083;-0.3172;
3099621938693779;-0.2913;0.0690;-0.3363;
3099621948800654;-0.2668;0.0551;-0.3385;
3099621958914352;-0.2754;0.0871;-0.3502;
3099621969021175;-0.2157;0.0232;-0.3875;
3099621979128050;-0.1816;-0.0248;-0.3832;
3099621989280914;-0.1603;0.0594;-0.3917;
3099621999387737;-0.0570;0.0658;-0.4003;
3099622009494612;0.0430;0.0040;-0.3971;
3099622019544456;0.0409;0.0381;-0.3822;
3099622029651279;0.0632;0.0945;-0.4216;
3099622039758154;0.1858;0.0605;-0.4162;
3099622049890810;0.2454;0.0647;-0.3630;
3099622059997633;0.2774;0.1178;-0.4013;
3099622070104508;0.3604;0.0967;-0.4184;
3099622080222060;0.4190;0.0477;-0.4088;
3099622090328883;0.4137;0.0072;-0.4077;
3099622100435758;0.4414;0.0370;-0.3981;
3099622110537998;0.5373;0.0338;-0.3843;
3099622120644820;0.6043;0.0210;-0.3981;
3099622130751695;0.6714;0.0104;-0.3694;
3099622140844456;0.7204;-0.0099;-0.3236;
3099622150951279;0.7598;-0.0312;-0.2884;
3099622161058154;0.8003;-0.0013;-0.3001;
3099622171180914;0.8663;-0.0088;-0.2543;
3099622181287737;0.8844;-0.0610;-0.2288;
3099622191394612;0.8471;-0.0386;-0.2288;
3099622201495706;0.8418;0.0221;-0.1948;
3099622211602529;0.9291;-0.0248;-0.1607;
3099622221709404;0.8780;-0.0663;-0.1362;
3099622231810185;0.7885;-0.0184;-0.1117;
3099622241917008;0.8013;-0.0418;-0.0936;
3099622252023883;0.7971;-0.0205;-0.0798;
3099622262131018;0.7118;0.0200;-0.0542;
3099622272237841;0.6341;-0.0503;-0.0638;
3099622282344716;0.5479;-0.0589;0.0119;
3099622292459352;0.4276;-0.0024;-0.0308;
3099622302566175;0.4276;-0.0269;-0.0467;
3099622312673050;0.3977;-0.0130;-0.0435;
3099622322776748;0.3754;0.0008;-0.0350;
3099622332883570;0.3604;-0.0461;-0.0382;
3099622342990445;0.3232;-0.0525;-0.0297;
3099622353104091;0.3487;0.0328;-0.0563;
3099622363210914;0.4063;-0.0099;-0.0403;
3099622373317789;0.4212;-0.0674;-0.0297;
3099622383417268;0.3786;-0.0929;-0.0009;
3099622393524091;0.3903;-0.0407;0.0225;
3099622403630966;0.4851;0.0040;0.0193;
3099622413754664;0.5341;-0.0077;0.0491;
3099622423861487;0.5053;0.0189;0.0481;
3099622433968362;0.4979;0.0519;0.0609;
3099622444076956;0.5075;0.0434;0.0939;
3099622454183779;0.4180;0.0008;0.0875;
3099622464290654;0.3487;-0.0216;0.0907;
3099622474398206;0.3487;-0.0205;0.1205;
3099622484505029;0.3604;0.0242;0.1045;
3099622494611904;0.3903;0.0967;0.1024;
3099622504703935;0.3573;0.0008;0.1375;
3099622514810758;0.3306;-0.0120;0.1258;
3099622524917633;0.3423;0.0189;0.1248;
3099622535023675;0.3359;-0.0620;0.1535;
3099622545130758;0.2838;-0.0663;0.1237;
3099622555237789;0.3061;-0.0993;0.1546;
3099622565354456;0.3178;-0.0216;0.1791;
3099622575461539;0.3743;0.0850;0.1812;
3099622585568570;0.3615;-0.0003;0.1706;
3099622595668831;0.2731;-0.0503;0.2057;
3099622605775914;0.2539;0.0498;0.2025;
3099622615882945;0.3114;0.0818;0.1802;
3099622626001748;0.3296;0.0189;0.1865;
3099622636108831;0.2603;-0.0269;0.1983;
3099622646215862;0.2284;-0.0631;0.1802;
3099622656313258;0.1900;-0.1079;0.1823;
3099622666420341;0.1836;-0.1515;0.1716;
3099622676527373;0.1815;-0.0780;0.1780;
3099622686653206;0.2241;-0.0013;0.1642;
3099622696760289;0.2923;0.0903;0.1706;
3099622706867320;0.3573;0.2371;0.1887;
3099622716947164;0.3764;0.3096;0.1929;
3099622727054248;0.3604;0.1605;0.1738;
3099622737161279;0.2539;0.1178;0.2068;
3099622747267477;0.1474;0.1242;0.2334;
3099622757374560;0.0846;0.0530;0.2142;
3099622767481591;0.0483;-0.0088;0.2110;
3099622777597425;0.0057;-0.1196;0.2015;
3099622787704508;-0.0826;-0.0983;0.2238;
3099622797811539;-0.0921;0.0061;0.1770;
3099622807914352;-0.0252;-0.1558;0.1322;
3099622818021435;-0.1390;-0.1909;0.1354;
3099622828128466;-0.2455;-0.0162;0.1365;
3099622838230393;-0.1071;0.1636;0.1248;
3099622848337477;0.1421;0.2105;0.0790;
3099622858444508;0.1655;0.0104;0.0971;
3099622868572164;-0.0836;-0.0961;0.0981;
3099622878679248;-0.2242;0.0008;0.0779;
3099622888786279;-0.1060;-0.0503;0.0257;
3099622898873518;-0.2040;-0.4136;0.0001;
3099622908980602;-0.3776;-0.4391;-0.0063;
3099622919087633;-0.2977;-0.1441;-0.0116;
3099622929211227;0.0217;0.0136;-0.0233;
3099622939318310;0.1858;-0.0333;-0.0276;
3099622949425341;0.0973;-0.0397;0.0023;
3099622959511852;0.1005;0.1977;0.0076;
3099622969618935;0.1517;0.3256;-0.0009;
3099622979725966;0.1431;0.1083;0.0332;
3099622989845289;0.0419;0.0541;-0.0052;
3099622999952373;-0.0071;0.1306;0.0001;
3099623010059404;-0.0252;0.0434;0.0044;
3099623020155914;0.0100;0.0040;0.0150;
3099623030262998;-0.0325;0.0210;0.0065;
3099623040370029;0.0057;0.0051;0.0214;
3099623050475706;0.0057;-0.0194;-0.0031;
3099623060582789;0.0132;-0.0791;-0.0318;
3099623070689820;0.0632;0.2680;-0.0361;
3099623080792477;0.1517;0.2542;-0.0137;
3099623090899560;0.1027;-0.2218;0.0172;
3099623101006591;-0.0964;-0.1345;0.0193;
3099623111118206;-0.0900;0.0562;0.0065;
3099623121225289;0.0782;0.0008;-0.0329;
3099623131332320;0.0238;-0.1643;0.0427;
3099623141448935;0.0132;-0.1313;0.0236;
3099623151556018;0.0824;0.0391;0.0332;
3099623161663050;0.1261;0.1052;0.0310;
3099623171772268;0.1261;-0.0035;0.0278;
3099623181879352;0.0707;0.0168;0.0577;
3099623191986383;0.0015;-0.0429;0.1003;
3099623202094560;-0.0613;-0.1473;0.0289;
3099623212201643;-0.0549;-0.1270;0.0704;
3099623222308675;-0.0177;-0.0237;0.0364;
3099623232415602;0.0324;0.0360;0.0907;
3099623242522685;0.0515;0.1690;0.0960;
3099623252629716;0.0664;0.1786;0.0960;
3099623262742685;0.0387;0.0871;0.0896;
3099623272849768;0.0121;0.1455;0.0630;
3099623282956800;-0.0028;0.0551;0.1003;
3099623293055289;0.0249;0.0605;0.0822;
3099623303162373;0.0153;0.0786;0.0481;
3099623313269404;0.0366;0.0115;0.0651;
3099623323386123;0.0174;-0.0674;0.1013;
3099623333493206;0.0462;0.1031;0.0928;
3099623343600237;0.0366;-0.1324;0.0321;
3099623353706018;0.0451;-0.2367;0.0502;
3099623363813102;0.0792;0.0700;0.0736;
3099623373920133;0.0909;0.0881;0.0609;
3099623384033831;0.1911;-0.0130;0.0726;
3099623394140914;0.1826;-0.0333;0.1226;
3099623404247945;0.0664;-0.0375;0.1152;
3099623414345602;0.0196;-0.1302;0.0981;
3099623424452685;0.0260;-0.1984;0.1045;
3099623434559716;0.0483;-0.1409;0.1493;
3099623444684248;0.0782;-0.0184;0.0939;
3099623454791331;0.0792;-0.0929;0.0630;
3099623464898362;0.1325;0.1031;0.1162;
3099623474984091;0.1911;0.2947;0.1695;
3099623485091175;0.2731;-0.0216;0.1184;
3099623495198206;0.1868;-0.2964;0.1365;
3099623505311435;0.0089;0.0168;0.1642;
3099623515418518;0.0643;0.0477;0.1525;
3099623525525550;0.1027;-0.1356;0.1684;
3099623535631539;0.0462;-0.0109;0.1620;
3099623545738675;0.0675;0.1434;0.1951;
3099623555845810;0.1389;0.1402;0.1993;
3099623565952268;0.1165;0.0168;0.1865;
3099623576059404;0.0292;0.0509;0.1844;
3099623586166539;0.0174;0.1413;0.1759;
3099623596273518;0.0632;0.1093;0.1929;
3099623606380654;0.0409;0.1200;0.1993;
3099623616487789;0.0643;0.1541;0.2015;
3099623626617685;0.0654;-0.1196;0.2100;
3099623636724820;-0.0644;-0.3039;0.1514;
3099623646831956;-0.1358;0.0328;0.1642;
3099623656918935;-0.0847;0.0189;0.1993;
3099623667026070;0.0696;-0.1419;0.2079;
3099623677133206;-0.0145;-0.0280;0.2142;
3099623687257685;-0.0378;-0.0109;0.2345;
3099623697364820;0.0079;0.1754;0.2100;
3099623707471956;0.0483;0.0807;0.1865;
3099623717557373;-0.0103;-0.1611;0.1887;
3099623727664508;-0.1188;-0.0280;0.1844;
3099623737771643;-0.1880;0.1189;0.1684;
3099623747866227;-0.0602;0.0466;0.1929;
3099623757973362;-0.0847;-0.1292;0.1865;
3099623768080498;-0.2083;-0.1632;0.1610;
3099623778201175;-0.2786;0.0562;0.1397;
3099623788308310;-0.2008;0.1562;0.1631;
3099623798415445;-0.0495;-0.0450;0.1695;
3099623808515393;-0.1294;0.0136;0.1365;
3099623818622529;-0.2328;0.1487;0.1439;
3099623828729664;-0.1475;0.1551;0.1567;
3099623838846435;-0.0889;-0.0258;0.1684;
3099623848953570;-0.2242;-0.2740;0.0971;
3099623859060706;-0.3116;-0.0003;0.0822;
3099623869178623;-0.3808;0.0892;0.0864;
3099623879285758;-0.2093;-0.1036;0.0332;
3099623889392893;-0.2114;-0.0535;0.0321;
3099623899477477;-0.2285;0.0530;0.0300;
3099623909584612;-0.1411;0.0679;0.0534;
3099623919691748;-0.1411;-0.0397;0.0491;
3099623929786018;-0.1209;0.0391;0.0321;
3099623939893154;-0.0879;0.2126;0.0225;
3099623950000289;-0.1198;0.0487;0.0481;
3099623960129091;-0.1390;-0.1483;0.0438;
3099623970236227;-0.1571;-0.0695;0.0236;
3099623980343362;-0.1475;0.0115;0.0236;
3099623990469248;-0.1156;-0.0301;-0.0180;
3099624000576383;-0.0889;-0.0450;0.0150;
3099624010683518;-0.1103;0.0519;-0.0126;
3099624020772268;-0.1113;0.0477;-0.0041;
3099624030879404;-0.1326;-0.0205;-0.0126;
3099624040986539;-0.1177;-0.0642;0.0140;
3099624051091018;-0.1177;-0.0599;0.0353;
3099624061198154;-0.1742;-0.1217;0.0129;
3099624071305289;-0.2019;-0.1792;0.0150;
3099624081418831;-0.1774;0.0200;0.0502;
3099624091525966;-0.1348;0.1477;0.0321;
3099624101633102;-0.1348;-0.0482;-0.0169;
3099624111743206;-0.1827;-0.0567;-0.0297;
3099624121850341;-0.1443;0.1871;-0.0126;
3099624131957477;-0.1071;0.2148;0.0342;
3099624142057685;-0.1124;0.1498;0.0449;
3099624152164820;-0.1390;0.1253;0.0342;
3099624162271956;-0.1571;0.1477;0.0321;
3099624172380602;-0.2104;0.0274;0.0246;
3099624182487737;-0.2498;-0.1228;0.0214;
3099624192594873;-0.2604;-0.1079;0.0172;
3099624202710081;-0.2636;-0.0929;0.0406;
3099624212817216;-0.2573;-0.1174;0.0044;
3099624222924352;-0.2338;-0.0780;0.0129;
3099624233026175;-0.1933;0.0019;0.0364;
3099624243133310;-0.1390;0.2105;0.0129;
3099624253240445;-0.1230;0.2052;0.0204;
3099624263352685;-0.1443;0.0881;-0.0126;
3099624273459820;-0.1710;0.1072;-0.0105;
3099624283566956;-0.2296;0.0296;-0.0073;
3099624293670602;-0.2477;-0.0397;-0.0340;
3099624303777737;-0.2402;-0.0503;-0.0435;
3099624313884873;-0.1646;0.0178;-0.0446;
3099624323997477;-0.1529;0.0328;-0.0276;
3099624334104612;-0.1529;0.1381;-0.0169;
3099624344211748;-0.0953;0.1530;0.0140;
3099624354315393;-0.0230;0.0743;0.0268;
3099624364422529;-0.0804;0.0232;-0.0318;
3099624374529664;-0.1646;0.0115;-0.0542;
3099624384635185;-0.1944;-0.0706;-0.0531;
3099624394742320;-0.1742;-0.0407;-0.1085;
3099624404849456;-0.1529;0.0051;-0.0851;
3099624414954039;-0.0975;0.0445;-0.1064;
3099624425061175;-0.0559;0.1178;-0.1043;
3099624435168310;-0.0017;0.0594;-0.0957;
3099624445297268;0.0792;0.1125;-0.0968;
3099624455404404;0.0601;0.1892;-0.0553;
3099624465511539;0.0451;0.0328;-0.0467;
3099624475604352;0.0238;-0.0567;-0.0148;
3099624485711487;-0.0644;-0.0024;-0.0244;
3099624495818623;-0.0730;0.0104;-0.0542;
3099624505919873;-0.0570;0.0764;-0.0286;
3099624516027008;-0.0230;0.0466;-0.0286;
3099624526134143;-0.0124;-0.0290;-0.0478;
3099624536245706;-0.0762;0.0242;-0.0702;
3099624546352893;-0.0751;0.0264;-0.0702;
3099624556460081;-0.0740;-0.0173;-0.0521;
3099624566565498;-0.0889;-0.0216;-0.0414;
3099624576672685;-0.0868;-0.0312;-0.0521;
3099624586779873;-0.0996;-0.0897;-0.0361;
3099624596889248;-0.0666;-0.0503;-0.0563;
3099624606996435;-0.0687;0.0967;-0.0457;
3099624617103623;-0.0368;0.0370;-0.0723;
3099624627236435;-0.0357;0.0306;-0.0691;
3099624637343623;-0.0879;-0.0237;-0.0766;
3099624647450810;-0.0783;0.0541;-0.0819;
3099624657527998;-0.0410;0.1210;-0.0925;
3099624667635185;-0.0474;0.0328;-0.1011;
3099624677742373;-0.0517;0.0210;-0.0808;
3099624687859977;-0.0719;0.0360;-0.0851;
3099624697967164;-0.0591;0.0221;-0.0627;
3099624708074352;-0.0453;0.0626;-0.0425;
3099624718165914;-0.0177;0.0828;-0.0936;
3099624728273102;0.0100;0.0360;-0.0521;
3099624738380289;-0.0389;-0.0471;-0.0840;
3099624748503831;-0.0325;0.0083;-0.0893;
3099624758611018;-0.0177;0.0594;-0.0489;
3099624768718206;0.0409;0.0530;-0.0648;
3099624778833518;0.0739;-0.0248;-0.0787;
3099624788940706;0.0537;-0.0620;-0.0755;
3099624799047893;0.0164;-0.0823;-0.0723;
3099624809123831;0.0526;-0.0514;-0.0595;
3099624819231018;0.0782;-0.0365;-0.0372;
3099624829338206;0.1442;-0.0386;-0.0095;
3099624839484248;0.1836;-0.0503;-0.0052;
3099624849591435;0.2071;-0.0418;0.0172;
3099624859698623;0.2156;-0.0088;0.0449;
3099624869774456;0.2305;0.0253;0.0822;
3099624879881643;0.2518;0.0242;0.1013;
3099624889988831;0.2635;-0.0109;0.1205;
3099624900119977;0.2017;-0.0333;0.1312;
3099624910227164;0.1144;-0.1217;0.1375;
3099624920334352;0.0686;-0.0748;0.1759;
3099624930395237;0.0324;-0.0631;0.1876;
3099624940502425;0.0537;-0.0823;0.1940;
3099624950609612;0.0473;-0.0333;0.2068;
3099624960716800;0.0622;0.0999;0.2132;
3099624970876748;0.0909;0.2031;0.2132;
3099624980983935;0.0973;0.1370;0.2355;
3099624991091123;0.0494;0.0700;0.2164;
3099625001167008;-0.0049;0.0903;0.2164;
3099625011274195;-0.0495;0.0881;0.2473;
3099625021381383;-0.0964;0.0189;0.2281;
3099625031491227;-0.1411;0.0562;0.2292;
3099625041598414;-0.1912;0.0732;0.2110;
3099625051705602;-0.1880;-0.0109;0.2057;
3099625061816643;-0.2349;0.0008;0.1940;
3099625071923831;-0.2594;0.0200;0.1748;
3099625082031018;-0.2317;-0.0237;0.1578;
3099625092116852;-0.2381;-0.0706;0.1205;
3099625102224039;-0.2849;-0.0770;0.1003;
3099625112331227;-0.3148;-0.0748;0.1077;
3099625122454664;-0.3137;-0.0514;0.0459;
3099625132561852;-0.2860;-0.0525;0.0278;
3099625142669039;-0.2754;-0.0248;0.0427;
3099625152776018;-0.2221;0.0008;0.0406;
3099625162883206;-0.1880;-0.0418;0.0119;
3099625172990393;-0.1838;-0.0045;-0.0222;
3099625183119352;-0.1635;0.0605;-0.0020;
3099625193226539;-0.1198;0.0264;0.0108;
3099625203333727;-0.1379;-0.0205;-0.0553;
3099625213424508;-0.1507;-0.0194;-0.0489;
3099625223531695;-0.1646;0.0658;-0.0222;
3099625233638883;-0.1209;0.1157;-0.0521;
3099625243742998;-0.1454;-0.0578;-0.0595;
3099625253850185;-0.1816;-0.0226;-0.0648;
3099625263957373;-0.2391;0.0626;-0.0435;
3099625274060498;-0.2349;-0.0748;-0.0510;
3099625284167685;-0.2573;-0.1121;-0.0915;
3099625294274873;-0.3616;-0.0013;-0.1032;
3099625304383206;-0.3915;-0.0365;-0.0819;
3099625314490393;-0.4021;-0.0919;-0.1170;
3099625324597581;-0.4170;-0.0450;-0.1288;
3099625334701748;-0.4160;-0.0248;-0.1650;
3099625344808935;-0.3798;-0.0120;-0.1639;
3099625354916123;-0.3936;-0.0152;-0.1905;
3099625365028414;-0.3616;-0.0184;-0.1810;
3099625375135602;-0.3861;-0.1153;-0.1969;
3099625385242789;-0.4192;-0.1590;-0.2628;
3099625395358623;-0.3414;0.0072;-0.2597;
3099625405465810;-0.2764;0.0988;-0.2778;
3099625415572998;-0.2636;0.0296;-0.2639;
3099625425685810;-0.2583;0.0264;-0.2799;
3099625435792998;-0.2317;0.0754;-0.2959;
3099625445900185;-0.2551;0.0264;-0.3097;
3099625455997893;-0.2445;0.0477;-0.3395;
3099625466105081;-0.2359;0.0754;-0.3065;
3099625476212268;-0.2519;0.0541;-0.3332;
3099625486311018;-0.2296;0.0487;-0.3374;
3099625496418206;-0.2264;0.1370;-0.3427;
3099625506525393;-0.1880;0.1573;-0.3502;
3099625516629560;-0.1806;0.0700;-0.3747;
3099625526748466;-0.1933;0.0594;-0.4141;
3099625536855654;-0.1454;0.1381;-0.4194;
3099625546962893;-0.1134;0.1935;-0.3992;
3099625557057789;-0.0549;0.1679;-0.3790;
3099625567164977;-0.0039;0.1775;-0.4333;
3099625577272164;0.0036;0.1850;-0.4429;
3099625587405550;0.0238;0.1189;-0.3960;
3099625597512737;-0.0103;-0.0184;-0.4152;
3099625607619925;0.0068;-0.0312;-0.4578;
3099625617703831;0.0686;-0.0226;-0.4312;
3099625627811018;0.1740;0.0200;-0.4375;
3099625637918206;0.2944;0.0924;-0.4429;
3099625648018623;0.3690;0.0594;-0.4312;
3099625658125810;0.4244;0.0754;-0.3651;
3099625668232998;0.4798;0.1242;-0.3236;
3099625678349248;0.5181;0.0743;-0.3118;
3099625688456435;0.4989;-0.0919;-0.2639;
3099625698563623;0.4467;-0.2261;-0.2138;
3099625708713310;0.4329;-0.1877;-0.1905;
3099625718820498;0.4798;-0.1174;-0.1341;
3099625728927685;0.5383;-0.1164;-0.0659;
3099625739013518;0.5682;-0.0738;-0.0169;
3099625749120706;0.5234;-0.1164;0.0012;
3099625759227893;0.4339;-0.1249;0.0033;
3099625769322373;0.3977;-0.0695;0.0800;
3099625779429560;0.3445;-0.0674;0.1152;
3099625789536748;0.2838;-0.0109;0.1194;
3099625799641227;0.2134;-0.0301;0.1344;
3099625809748414;0.1996;-0.0237;0.1312;
3099625819855602;0.2113;0.0519;0.1695;
3099625829961331;0.2071;0.0626;0.1865;
3099625840068518;0.1772;0.1083;0.2174;
3099625850175706;0.1357;0.1605;0.2174;
3099625860277164;0.1304;0.0445;0.2196;
3099625870384352;-0.0325;-0.1260;0.2142;
3099625880491539;-0.2008;0.0061;0.1951;
3099625890617060;-0.3116;0.1796;0.1695;
3099625900724248;-0.1891;0.1711;0.1546;
3099625910831435;-0.0900;-0.0397;0.1173;
3099625920921331;-0.2477;-0.0312;0.0609;
3099625931028518;-0.3840;0.0051;0.0790;
3099625941135706;-0.3521;-0.0258;0.0513;
3099625951249873;-0.2967;-0.0024;0.0108;
3099625961357060;-0.2636;-0.0706;-0.0393;
3099625971464248;-0.1923;-0.0365;-0.0627;
3099625981565914;-0.1624;0.1063;-0.0521;
3099625991673102;-0.0858;0.0722;-0.1117;
3099626001780289;-0.0399;0.0157;-0.1298;
3099626011895081;-0.0826;-0.0770;-0.0979;
3099626022002268;-0.0570;-0.1302;-0.1181;
3099626032109456;-0.0410;-0.0589;-0.1565;
3099626042212164;-0.0134;0.0519;-0.1234;
3099626052319352;0.0185;0.0807;-0.1181;
3099626062426539;0.0185;0.0658;-0.1490;
3099626072533623;0.0345;0.1157;-0.1682;
3099626082640810;0.0185;0.1999;-0.1778;
3099626092747998;0.0707;0.2073;-0.1618;
3099626102850914;0.0132;0.1189;-0.1565;
3099626112958102;-0.0762;-0.1142;-0.2011;
3099626123065289;-0.0453;-0.0748;-0.1948;
3099626133173675;-0.0346;0.0455;-0.1873;
3099626143280862;0.0185;0.0093;-0.1863;
3099626153388050;0.0260;-0.0109;-0.1969;
3099626163496748;-0.0007;-0.1057;-0.2053;
3099626173603935;0.0068;-0.1111;-0.2064;
3099626183711123;0.0036;-0.0589;-0.2106;
3099626193818102;0.0185;-0.0344;-0.2320;
3099626203925289;0.0174;-0.0269;-0.2724;
3099626214032477;0.0537;0.0338;-0.2639;
3099626224139039;0.0728;0.1104;-0.2511;
3099626234246227;0.0579;0.0636;-0.2746;
3099626244353414;0.0899;0.0477;-0.2437;
3099626254461748;0.0664;0.0146;-0.2256;
3099626264568935;0.0505;-0.0599;-0.2426;
3099626274676123;0.1027;0.0381;-0.2501;
3099626284789352;0.0963;-0.0056;-0.2362;
3099626294896539;0.1602;0.0061;-0.2415;
3099626305003727;0.1740;0.0594;-0.2415;
3099626315106852;0.1389;-0.0450;-0.2597;
3099626325214039;0.1421;-0.0514;-0.2660;
3099626335321227;0.1527;0.0253;-0.2309;
3099626345441956;0.1762;0.0477;-0.2703;
3099626355549143;0.2582;0.0455;-0.2288;
3099626365656331;0.3008;0.0423;-0.2021;
3099626375757164;0.3104;-0.0194;-0.1831;
3099626385864352;0.3274;0.0402;-0.1799;
3099626395971539;0.3466;0.0061;-0.1511;
3099626406070289;0.4116;-0.0003;-0.1192;
3099626416177477;0.3935;-0.0418;-0.1224;
3099626426284664;0.3317;-0.0738;-0.1224;
3099626436398518;0.3328;-0.0301;-0.0574;
3099626446505706;0.3700;0.0647;-0.0403;
3099626456612893;0.3977;0.1104;-0.0265;
3099626466726435;0.4584;0.1871;-0.0137;
3099626476833623;0.4467;0.1413;-0.0031;
3099626486940810;0.3562;0.0370;0.0715;
3099626497033518;0.2774;0.0828;0.0928;
3099626507140706;0.2582;0.0807;0.1301;
3099626517247893;0.1943;-0.0525;0.1162;
3099626527351852;0.2081;-0.0141;0.1344;
3099626537458987;0.2039;-0.0461;0.1312;
3099626547566070;0.2017;-0.1356;0.1589;
3099626557696539;0.1442;-0.2612;0.1802;
3099626567803675;0.0792;-0.3656;0.1770;
3099626577910758;0.1091;-0.2304;0.1546;
3099626588019664;0.1581;-0.1643;0.1876;
3099626598126800;0.1868;-0.1547;0.1865;
3099626608233883;0.1602;-0.0887;0.1951;
3099626618312373;0.1623;-0.0674;0.1727;
3099626628419508;0.1549;-0.1281;0.1812;
3099626638526591;0.1431;-0.1451;0.1876;
3099626648639352;0.1570;-0.0780;0.2249;
3099626658746487;0.0515;-0.3347;0.1663;
3099626668853570;0.0313;-0.2442;0.2100;
3099626678947164;-0.2818;0.3032;0.2228;
3099626689054300;-0.1731;0.5141;0.1887;
3099626699161383;0.4563;0.4182;0.1439;
3099626709295810;0.4893;0.2105;0.1929;
3099626719402945;0.2688;0.2169;0.2089;
3099626729510029;-0.0889;0.2158;0.2121;
3099626739587060;-0.2732;0.0700;0.1748;
3099626749694195;-0.2956;-0.0525;0.1823;
3099626759801279;-0.2551;0.0530;0.1748;
3099626769946435;-0.1529;0.4736;0.1439;
3099626780053570;-0.1262;-0.2932;0.1770;
3099626790160654;-0.1379;-0.6808;0.1578;
3099626800246383;-0.2945;-0.2975;0.1344;
3099626810353518;-0.2700;-0.2005;0.1173;
3099626820460602;-0.0336;-0.1579;0.0662;
3099626830573831;-0.0049;-0.0951;0.0385;
3099626840680966;-0.0134;0.0711;0.0097;
3099626850788050;0.0409;0.1818;0.0204;
3099626860926539;0.0664;-0.0045;0.0598;
3099626871033675;0.0899;0.0338;0.0907;
3099626881140758;0.0068;0.1020;0.0832;
3099626891215602;-0.0421;-0.0482;0.0577;
3099626901322737;-0.0368;-0.0386;0.0694;
3099626911429820;-0.0399;0.0232;0.0534;
3099626921533102;-0.0538;-0.1047;0.0204;
3099626931640185;-0.0804;-0.0855;0.0140;
3099626941747320;-0.1241;0.0296;-0.0233;
3099626951860914;-0.1305;-0.0844;-0.0393;
3099626961968050;-0.1124;-0.0450;-0.0553;
3099626972075133;-0.1635;0.0828;-0.1021;
3099626982176956;-0.1316;0.0754;-0.1341;
3099626992284091;-0.0241;0.2297;-0.1149;
3099627002391175;-0.0113;0.2063;-0.1021;
3099627012498102;-0.0220;0.0541;-0.1437;
3099627022605237;-0.0559;0.1274;-0.1490;
3099627032712320;-0.0166;0.1967;-0.1383;
3099627042825706;-0.0284;-0.0407;-0.1565;
3099627052932841;0.0057;0.0008;-0.1447;
3099627063039925;0.0089;0.0924;-0.1352;
3099627073142164;0.0015;0.0178;-0.1660;
3099627083249300;0.0292;-0.0716;-0.1533;
3099627093356383;-0.0134;-0.2122;-0.1682;
3099627103456435;-0.0081;-0.1739;-0.1852;
3099627113563570;-0.0028;-0.0173;-0.2522;
3099627123670654;0.0792;-0.0589;-0.2117;
3099627133787268;0.0963;-0.0589;-0.1916;
3099627143894404;0.0984;-0.0194;-0.2224;
3099627154001487;0.0835;-0.0013;-0.2362;
3099627164125498;0.1399;0.0530;-0.2085;
3099627174232633;0.1538;0.0146;-0.2085;
3099627184339716;0.2198;0.1338;-0.1863;
3099627194435185;0.2028;0.1200;-0.2373;
3099627204542320;0.1826;-0.0109;-0.2394;
3099627214649404;0.1250;-0.0003;-0.2352;
3099627224753831;0.1133;0.0700;-0.2181;
3099627234860966;0.1059;-0.0695;-0.2554;
3099627244968050;0.1048;-0.0812;-0.2618;
3099627255076123;0.1581;0.0136;-0.2298;
3099627265183258;0.1964;0.0019;-0.2362;
3099627275290341;0.1932;-0.0290;-0.2671;
3099627285404143;0.2188;-0.0386;-0.2352;
3099627295511279;0.1996;-0.0557;-0.2586;
3099627305618362;0.2539;0.0711;-0.2565;
3099627315719039;0.3168;0.0711;-0.2469;
3099627325826175;0.3945;0.0391;-0.2724;
3099627335933258;0.3999;0.0668;-0.2160;
3099627346035706;0.3860;0.1093;-0.2096;
3099627356142841;0.4254;0.0115;-0.2106;
3099627366249925;0.4329;-0.0280;-0.1692;
3099627376362268;0.3487;0.0178;-0.1842;
3099627386469404;0.3977;0.1754;-0.1863;
3099627396576487;0.5501;0.2883;-0.1597;
3099627406679456;0.6607;0.1935;-0.1394;
3099627416786591;0.6106;0.1977;-0.0872;
3099627426893675;0.4371;0.2254;-0.1043;
3099627437013727;0.3551;0.0306;-0.0744;
3099627447120862;0.3221;-0.1015;-0.0467;
3099627457227945;0.3306;-0.0727;-0.0254;
3099627467343310;0.3434;0.0530;-0.0169;
3099627477450445;0.3573;0.0115;0.0182;
3099627487557529;0.3189;-0.1995;0.0108;
3099627497652685;0.2710;-0.1707;-0.0020;
3099627507759820;0.3370;-0.0695;0.0278;
3099627517866904;0.3136;-0.2314;0.0129;
3099627527965289;0.2656;-0.3241;0.0140;
3099627538072477;0.3210;-0.1718;0.0364;
3099627548179664;0.3541;-0.1771;0.0385;
3099627558321748;0.3019;-0.3582;0.0513;
3099627568428935;0.3061;-0.4860;0.1855;
3099627578536123;0.2273;0.0562;0.1993;
3099627588641643;0.6458;0.7101;0.0960;
3099627598748831;1.1070;0.7473;0.1035;
3099627608856018;1.1571;0.3522;0.2355;
3099627618936435;0.8077;0.2616;0.2760;
3099627629043623;0.2646;0.4097;0.3101;
3099627639150810;0.1794;0.2201;0.3112;
3099627649257581;0.1762;0.1658;0.3261;
3099627659364768;0.1218;0.4108;0.3122;
3099627669471956;0.2678;0.4342;0.3975;
3099627679559560;0.1836;-0.5009;0.4655;
3099627689666748;-0.2445;-0.7820;0.4836;
3099627699773935;-0.4320;-0.2730;0.4602;
3099627709893675;-0.2839;-0.1206;0.3911;
3099627720000862;0.0483;-0.0631;0.2973;
3099627730108050;0.1666;0.0754;0.3176;
3099627740250185;0.2507;0.2329;0.3666;
3099627750357373;0.3477;0.3639;0.4092;
3099627760464560;0.4872;0.2403;0.4218;
3099627770542998;0.4414;0.1178;0.4485;
3099627780650185;0.1921;0.1509;0.4847;
3099627790757373;0.1282;0.0658;0.4868;
3099627800866956;0.0611;-0.0983;0.4772;
3099627810974143;-0.1688;-0.2027;0.4719;
3099627821081331;-0.2754;-0.1952;0.4623;
3099627831187060;-0.3126;-0.0280;0.4549;
3099627841294248;-0.2839;0.0242;0.4144;
3099627851401435;-0.1603;-0.1302;0.3996;
3099627861509560;-0.1720;-0.0280;0.4049;
3099627871616748;-0.2860;0.1977;0.3676;
3099627881723935;-0.1241;0.1541;0.3314;
3099627891866018;0.0132;0.1562;0.3463;
3099627901973206;-0.0262;0.2276;0.3272;
3099627912080393;-0.0368;0.0317;0.3197;
3099627922155289;-0.0644;-0.0322;0.3495;
3099627932262477;-0.1774;-0.0173;0.3389;
3099627942369664;-0.1379;-0.0940;0.3005;
3099627952465914;-0.1273;-0.0471;0.3037;
3099627962573102;-0.1571;0.0647;0.2835;
3099627972680289;-0.0772;0.1935;0.2590;
3099627982793675;0.0228;0.2233;0.2707;
3099627992900862;-0.0060;0.0999;0.2995;
3099628003008050;-0.0602;0.0636;0.2654;
3099628013118102;-0.0730;0.0828;0.2973;
3099628023225289;-0.0730;-0.0205;0.3005;
3099628033332477;-0.1305;-0.1728;0.2920;
3099628043439352;-0.2455;-0.3529;0.2664;
3099628053546539;-0.2551;-0.3198;0.3059;
3099628063653727;-0.2988;-0.0897;0.2760;
3099628073760602;-0.2988;-0.0333;0.2547;
3099628083867789;-0.1507;-0.2218;0.2238;
3099628093974977;-0.1401;-0.2122;0.2036;
3099628104086175;-0.2690;-0.0770;0.2260;
3099628114193362;-0.2711;0.0093;0.2313;
3099628124300550;-0.1454;0.0605;0.2174;
3099628134401956;-0.1273;0.0722;0.2025;
3099628144509143;-0.1273;0.2766;0.1951;
3099628154616331;-0.0911;0.2872;0.2004;
3099628164725706;-0.1433;-0.1036;0.1908;
3099628174832893;-0.2125;-0.1643;0.1780;
3099628184940081;-0.3435;-0.0823;0.1482;
3099628195053675;-0.3712;-0.0983;0.1258;
3099628205160862;-0.2988;-0.0088;0.1205;
3099628215268050;-0.3009;0.0104;0.1120;
3099628225367268;-0.2413;-0.0301;0.0395;
3099628235474456;-0.2402;0.0466;0.0438;
3099628245581643;-0.2168;0.1498;0.0150;
3099628255696539;-0.1177;0.2329;0.0076;
3099628265803727;-0.0751;0.2531;-0.0212;
3099628275910914;-0.0241;0.1892;0.0065;
3099628286014091;-0.0655;0.1615;0.0023;
3099628296121279;-0.1134;0.0402;-0.0116;
3099628306228466;-0.1465;-0.1153;-0.0105;
3099628316334352;-0.1848;-0.1398;-0.0297;
3099628326441539;-0.1838;-0.1206;-0.0670;
3099628336548727;-0.1379;-0.0780;-0.0776;
3099628346650810;-0.1177;-0.0791;-0.0766;
3099628356757998;-0.1103;-0.0397;-0.0851;
3099628366865185;-0.1071;-0.0599;-0.0968;
3099628376980914;-0.1060;-0.1153;-0.0712;
3099628387088102;-0.1134;-0.0386;-0.0712;
3099628397195289;-0.0985;0.0732;-0.0638;
3099628407299977;-0.0815;0.1178;-0.0457;
3099628417407164;-0.0655;0.1242;-0.0947;
3099628427514352;-0.0453;0.1477;-0.1117;
3099628437628518;-0.0783;0.1498;-0.1160;
3099628447735706;-0.0826;0.1786;-0.1383;
3099628457842893;-0.1039;0.0498;-0.1213;
3099628467965393;-0.0879;-0.0876;-0.1181;
3099628478072581;-0.1092;-0.0759;-0.1288;
3099628488179768;-0.1358;-0.2048;-0.1320;
3099628498260498;-0.1081;-0.2208;-0.1213;
3099628508367685;-0.1369;-0.3156;-0.1277;
3099628518474873;-0.1869;-0.7138;-0.1064;
3099628528582373;-0.2487;-0.3113;-0.1607;
3099628538689612;-0.4469;0.3320;-0.2330;
3099628548796852;0.1399;0.3362;-0.2810;
3099628558902008;0.3626;0.2180;-0.2479;
3099628569009248;0.2912;0.2670;-0.1618;
3099628579116487;0.2486;0.3895;-0.1650;
3099628589285185;0.2156;0.3128;-0.1181;
3099628599392425;0.1836;-0.0663;-0.0893;
3099628609499664;0.1122;-0.0216;-0.1032;
3099628619540185;0.0281;0.6398;-0.1011;
3099628629647425;0.0302;-0.0929;-0.0126;
3099628639754664;0.0654;-0.6467;-0.0776;
3099628649883831;-0.1166;-0.1963;-0.0627;
3099628659991070;-0.2168;-0.2612;-0.0499;
3099628670098310;-0.0113;-0.3582;-0.0734;
3099628680185914;-0.0666;-0.2059;-0.0723;
3099628690293154;-0.0230;0.0125;-0.1202;
3099628700400393;0.0995;0.1647;-0.0893;
3099628710539664;0.2848;0.0913;-0.0606;
3099628720646904;0.3796;0.0796;-0.0297;
3099628730754143;0.3913;0.2830;0.0406;
3099628740856904;0.4425;0.1264;0.0630;
3099628750964143;0.4979;-0.0099;0.0864;
3099628761071383;0.3615;0.0573;0.1205;
3099628771152164;0.3051;-0.0120;0.1652;
3099628781259404;0.2422;-0.1068;0.1983;
3099628791366643;0.1165;-0.0791;0.2334;
3099628801484039;0.1005;-0.1111;0.2334;
3099628811591279;0.0334;0.0083;0.2110;
3099628821698518;0.0089;0.2180;0.2441;
3099628831809977;0.1357;0.0839;0.2505;
3099628841917216;0.1027;-0.1047;0.2920;
3099628852024456;-0.0389;-0.0365;0.2899;
3099628862127164;-0.1369;0.0423;0.3122;
3099628872234404;-0.1198;0.0498;0.2941;
3099628882341643;-0.0772;-0.0003;0.2899;
3099628892442268;-0.1411;-0.0045;0.2739;
3099628902549508;-0.1763;0.0743;0.2782;
3099628912656748;-0.1390;0.0530;0.2515;
3099628922771956;-0.1017;-0.0812;0.2377;
3099628932879195;-0.1688;-0.1132;0.2153;
3099628942986435;-0.2210;-0.0162;0.2398;
3099628953094664;-0.1976;0.0200;0.2185;
3099628963201904;-0.1518;-0.0503;0.2206;
3099628973309143;-0.1976;-0.0386;0.2079;
3099628983415602;-0.2519;0.1391;0.1365;
3099628993522841;-0.1273;0.2329;0.1290;
3099629003630081;-0.0049;0.1253;0.1290;
3099629013738623;-0.0549;-0.0120;0.1546;
3099629023845862;-0.1582;-0.1153;0.0896;
3099629033953102;-0.2487;-0.0482;0.0715;
3099629044062789;-0.3180;0.0423;0.0609;
3099629054170029;-0.1869;0.0146;0.0683;
3099629064277268;-0.1060;-0.0716;0.0598;
3099629074380914;-0.1369;-0.1387;0.0033;
3099629084488154;-0.1710;-0.0919;0.0023;
3099629094595393;-0.1262;-0.0834;-0.0148;
3099629104701748;-0.1220;-0.1249;-0.0372;
3099629114808987;-0.1486;0.0583;-0.0542;
3099629124916227;-0.0804;0.2212;-0.0553;
3099629135029768;0.0132;0.1052;-0.0276;
3099629145137008;0.0228;0.0093;-0.0137;
3099629155244248;-0.1049;-0.0599;-0.0382;
3099629165362789;-0.1284;-0.0557;-0.0489;
3099629175470029;-0.2029;-0.2751;-0.0617;
3099629185577268;-0.3265;0.0764;-0.0989;
3099629195672477;-0.2903;0.5194;-0.1107;
3099629205779716;0.0196;0.3703;-0.1447;
3099629215886956;0.0132;-0.0493;-0.0840;
3099629226004039;-0.1433;-0.0141;-0.1128;
3099629236111279;-0.1955;0.0956;-0.0979;
3099629246218518;-0.1379;-0.1217;-0.0936;
3099629256319456;-0.1582;-0.2133;-0.1458;
3099629266426695;-0.2125;-0.0471;-0.1735;
3099629276533935;-0.2679;0.4097;-0.1767;
3099629286637425;-0.1284;-0.1877;-0.1884;
3099629296744664;-0.0517;-0.2953;-0.2298;
3099629306851904;-0.1433;0.0743;-0.1703;
3099629316951748;-0.0634;-0.0503;-0.2106;
3099629327058987;-0.0294;-0.0770;-0.2224;
3099629337166227;-0.0858;0.0498;-0.2096;
3099629347280029;-0.0463;0.2531;-0.2202;
3099629357387268;0.0345;0.2531;-0.2053;
3099629367494508;0.0483;0.1423;-0.2160;
3099629377600445;0.0100;0.2009;-0.2128;
3099629387707685;-0.0453;-0.0812;-0.1937;
3099629397814925;-0.0602;-0.2538;-0.1959;
3099629407919977;-0.0708;-0.1909;-0.1873;
3099629418027216;-0.0804;-0.1015;-0.2043;
3099629428134456;-0.0666;-0.0802;-0.2011;
3099629438242789;-0.0538;-0.1036;-0.2032;
3099629448350029;-0.0262;-0.0397;-0.2447;
3099629458457268;-0.0007;0.0264;-0.2426;
3099629468581748;0.0324;0.1253;-0.2639;
3099629478688987;0.0984;0.1594;-0.2746;
3099629488796227;0.1208;0.0530;-0.2554;
3099629498882060;0.1027;0.0338;-0.2320;
3099629508989300;0.1048;0.1041;-0.1682;
3099629519096539;0.1027;-0.0099;-0.1756;
3099629529215914;0.1080;-0.2037;-0.1831;
3099629539323310;0.0558;-0.0620;-0.1937;
3099629549430654;0.1059;0.0264;-0.1810;
3099629559521227;0.1431;-0.0482;-0.1905;
3099629569628623;0.1229;-0.0354;-0.2011;
3099629579735966;0.1197;0.0381;-0.1979;
3099629589858414;0.1336;0.0679;-0.1735;
3099629599965810;0.1122;0.1210;-0.1522;
3099629610073154;0.1389;0.1349;-0.1213;
3099629620174664;0.1442;0.0200;-0.1170;
3099629630282060;0.1208;0.0008;-0.1085;
3099629640389404;0.0995;0.0115;-0.1000;
3099629650488831;0.1517;-0.0088;-0.1117;
3099629660596227;0.1527;-0.0546;-0.0904;
3099629670703570;0.1304;-0.1153;-0.0872;
3099629680793414;0.1229;-0.1047;-0.0521;
3099629690900706;0.1272;-0.0439;-0.0190;
3099629701008102;0.1293;-0.0173;-0.0308;
3099629711115445;0.1346;-0.0780;-0.0254;
3099629721243831;0.1304;-0.0525;-0.0052;
3099629731351227;0.0696;-0.3113;0.0353;
3099629741458570;0.0643;-0.1750;0.0342;
3099629751566591;0.1463;0.2808;0.0438;
3099629761673987;0.3466;0.4640;-0.0052;
3099629771781331;0.4020;0.3277;0.0513;
3099629781889248;0.2294;0.0626;0.0971;
3099629791996643;0.0505;-0.0099;0.1450;
3099629802103987;0.0675;-0.0312;0.1865;
3099629812207685;0.1112;0.0146;0.1706;
3099629822315081;0.1165;0.0391;0.1567;
3099629832422425;0.1826;0.4193;0.1919;
3099629842537789;0.1304;0.0935;0.2313;
3099629852645185;-0.0252;-0.3838;0.2547;
3099629862752529;-0.1944;-0.4583;0.3336;
3099629872853935;-0.1891;-0.2410;0.3176;
3099629882961331;-0.0655;0.0040;0.2782;
3099629893068675;-0.0081;-0.0280;0.2718;
3099629903174248;-0.0007;-0.0834;0.2920;
3099629913281643;0.0004;0.0083;0.3027;
3099629923388987;-0.0113;0.0903;0.3336;
3099629933508727;0.0260;0.1242;0.3357;
3099629943616123;0.0281;0.1157;0.3612;
3099629953723466;0.0206;0.1391;0.3527;
3099629963814560;-0.0346;0.0221;0.3964;
3099629973921956;-0.1028;-0.2197;0.4389;
3099629984029300;-0.1880;-0.1973;0.4282;
3099629994146435;-0.3318;-0.0088;0.4218;
3099630004253831;-0.4170;0.1093;0.3975;
3099630014361175;-0.2892;0.1104;0.3644;
3099630024473310;-0.3041;0.0455;0.3517;
3099630034580654;-0.4735;0.0626;0.2973;
3099630044688050;-0.5726;0.1072;0.2664;
3099630054784925;-0.5779;-0.0706;0.2537;
3099630064892320;-0.6077;-0.0013;0.2292;
3099630074999664;-0.6949;0.1573;0.1897;
3099630085105914;-0.6088;0.0370;0.1269;
3099630095213310;-0.5843;-0.0290;0.0534;
3099630105320654;-0.6523;-0.0035;0.0033;
3099630115427008;-0.6248;-0.0375;-0.0499;
3099630125534404;-0.5726;0.0264;-0.0638;
3099630135641748;-0.5587;0.0029;-0.1639;
3099630145750602;-0.4543;0.0381;-0.2170;
3099630155857998;-0.4479;0.1509;-0.2181;
3099630165965341;-0.3925;0.1157;-0.2554;
3099630176093414;-0.3627;0.0892;-0.3033;
3099630186200810;-0.3329;0.2041;-0.3566;
3099630196308154;-0.2892;0.1594;-0.3545;
3099630206394560;-0.2668;0.1020;-0.3523;
3099630216501956;-0.2466;0.1253;-0.3981;
3099630226609300;-0.2264;-0.0088;-0.4077;
3099630236719508;-0.1891;-0.1366;-0.4088;
3099630246826904;-0.1422;-0.1622;-0.4333;
3099630256934248;-0.0644;-0.0972;-0.4237;
3099630267034977;0.0356;0.0370;-0.4525;
3099630277142373;0.0664;-0.0535;-0.4567;
3099630287249716;0.0803;-0.1824;-0.4280;
3099630297358831;0.1772;0.0519;-0.4194;
3099630307466227;0.1879;-0.0141;-0.3832;
3099630317573570;0.1474;-0.0780;-0.4162;
3099630327681435;0.2923;0.1839;-0.4216;
3099630337788831;0.3189;0.2254;-0.3449;
3099630347896175;0.2933;0.1189;-0.2895;
3099630358002841;0.2688;0.0381;-0.2330;
3099630368110237;0.2433;0.0093;-0.2128;
3099630378217581;0.2433;0.0594;-0.2181;
3099630388348206;0.2326;-0.0130;-0.1788;
3099630398455602;0.2209;-0.1100;-0.1490;
3099630408562945;0.3125;0.1786;-0.1256;
3099630418653831;0.2422;0.0498;-0.0734;
3099630428761227;0.0345;-0.3401;-0.0382;
3099630438868570;0.1080;-0.1174;0.0044;
3099630448953310;0.0835;-0.0929;-0.0052;
3099630459060654;0.0196;-0.1782;0.0246;
3099630469168050;0.0494;-0.0578;-0.0137;
3099630479302893;0.0632;0.1125;-0.0297;
3099630489410289;0.1005;0.2542;-0.0084;
3099630499517633;0.0739;0.1690;0.0087;
3099630509625706;0.0462;-0.0162;0.0502;
3099630519733102;0.0632;0.0125;0.0811;
3099630529840445;0.0334;-0.0003;0.1184;
3099630539968935;0.0174;-0.2304;0.1780;
3099630550076435;0.0419;-0.1515;0.1865;
3099630560183935;0.0526;-0.0024;0.1887;
3099630570258102;-0.0156;-0.2059;0.1738;
3099630580365602;-0.0113;-0.2261;0.2079;
3099630590473102;-0.0581;-0.1473;0.1951;
3099630600576123;-0.0847;-0.0706;0.1482;
3099630610683623;-0.0103;0.2190;0.1514;
3099630620791123;0.0111;0.3181;0.1631;
3099630630891591;-0.0145;0.1445;0.1897;
3099630640999091;-0.0453;0.1615;0.2387;
3099630651106591;-0.1081;0.0679;0.2622;
3099630661221331;-0.1614;-0.2410;0.2324;
3099630671328831;-0.1869;0.0232;0.2132;
3099630681436331;-0.2178;-0.0418;0.2569;
3099630691570914;-0.2061;-0.1675;0.1802;
3099630701678414;-0.2061;0.2233;0.2079;
3099630711785914;-0.1806;0.0221;0.2004;
3099630721876852;-0.1443;-0.1079;0.1951;
3099630731984352;-0.2711;-0.0727;0.1631;
3099630742091852;-0.3265;-0.1068;0.1503;
3099630752197164;-0.3371;0.1264;0.0683;
3099630762304664;-0.2285;0.4023;0.0609;
3099630772412164;-0.1252;0.1636;0.0534;
3099630782517893;-0.1539;-0.1217;0.0779;
3099630792625393;-0.3947;-0.6510;0.0417;
3099630802732893;-0.4394;-1.0323;0.0236;
3099630812831852;-0.6491;-0.0439;-0.0755;
3099630822939352;-0.6184;0.2489;-0.0148;
3099630833046852;0.0547;0.3277;-0.1959;
3099630843156539;-0.0740;0.6824;-0.2085;
3099630853264039;-0.3009;0.3682;-0.2266;
3099630863371539;-0.2711;0.0786;-0.2863;
3099630873482164;-0.3148;0.0668;-0.3182;
3099630883589664;-0.1443;0.9965;-0.2607;
3099630893697164;0.0931;1.7357;-0.2873;
3099630903801591;-0.0399;0.3053;-0.3204;
3099630913909091;-0.2871;-0.6648;-0.3459;
3099630924016591;-0.1305;0.0360;-0.2873;
3099630934147268;-0.1646;-0.4743;-0.2746;
3099630944254768;-0.2083;-0.9951;-0.3587;
3099630954362268;-0.0613;-0.2964;-0.3438;
3099630964449143;-0.2072;-0.0844;-0.4354;
3099630974556643;-0.2328;-0.2059;-0.4365;
3099630984664143;-0.0007;-0.1590;-0.4897;
3099630994778310;0.0164;0.1031;-0.4929;
3099631004885810;0.0579;0.0402;-0.4887;
3099631014993310;0.0569;-0.2048;-0.4429;
3099631025085706;-0.0357;-0.1494;-0.4418;
3099631035193206;0.0068;0.0423;-0.4237;
3099631045300706;-0.0506;-0.4349;-0.3747;
3099631055414352;-0.1081;-0.6947;-0.3395;
3099631065521852;0.0622;-0.2868;-0.2543;
3099631075629352;0.1176;-0.7564;-0.3108;
3099631085733310;0.2678;-0.5935;-0.3907;
3099631095840810;0.5511;0.3799;-0.4312;
3099631105948310;0.6245;0.6782;-0.4024;
3099631116051227;0.5778;0.2467;-0.2959;
3099631126158727;0.4126;0.4012;-0.3214;
3099631136266227;0.2443;0.8080;-0.3182;
3099631146374248;0.3807;0.7292;-0.3470;
3099631156481748;0.3562;0.6398;-0.2991;
3099631166589248;0.2166;0.6100;-0.3118;
3099631176700393;0.3029;1.1542;-0.2948;
3099631186807841;0.0356;-0.6712;-0.1085;
3099631196915393;-0.4106;-1.7607;-0.0585;
3099631207013623;0.0419;-0.4210;-0.0851;
3099631217121123;0.3306;-0.0695;-0.0819;
3099631227228623;0.2688;-0.4615;-0.1352;
3099631237348518;0.2230;-0.2698;-0.1437;
3099631247456018;0.1346;0.2180;-0.1873;
3099631257563518;0.1932;0.3309;-0.2288;
3099631267701643;0.1644;0.1881;-0.1639;
3099631277809143;0.1996;0.3298;-0.1181;
3099631287916643;0.1985;0.1242;-0.0936;
3099631297984716;0.0228;-0.4466;-0.0372;
3099631308092216;0.1122;-0.0780;0.0438;
3099631318199716;0.2518;0.3298;0.0204;
3099631328307425;0.1623;-0.1313;0.0140;
3099631338414925;0.2188;-0.1803;0.0289;
3099631348522425;0.1996;0.1967;0.0417;
3099631358640341;0.1091;0.0338;0.0662;
3099631368747893;0.0696;-0.1515;0.0246;
3099631378855393;0.0015;0.0189;0.0310;
3099631388945393;-0.0166;0.3298;0.0651;
3099631399052893;0.1378;0.3181;0.0694;
3099631409160393;0.1421;0.0338;0.1067;
3099631419264560;0.0419;0.0594;0.0651;
3099631429372060;-0.0921;0.0040;0.0342;
3099631439479560;-0.0772;0.0146;0.0204;
3099631449589248;-0.0378;-0.0503;0.0236;
3099631459696748;0.0185;-0.1718;0.0364;
3099631469804248;0.0249;-0.0216;0.0236;
3099631479926748;0.0356;-0.0567;0.0395;
3099631490034248;0.0579;-0.2495;0.0587;
3099631500141748;0.1048;0.0455;0.0481;
3099631510250393;0.1442;0.1839;0.0278;
3099631520357893;0.2294;0.0551;0.0087;
3099631530465393;0.2113;0.0306;0.0257;
3099631540548310;0.0547;-0.0695;0.0417;
3099631550655289;0.0377;-0.1036;0.0427;
3099631560762268;0.0409;0.0008;0.0598;
3099631570882581;0.0260;-0.0780;0.0651;
3099631580989560;0.0451;-0.1494;0.0523;
3099631591096539;0.0153;0.1381;0.0651;
3099631601206175;0.0483;0.0551;0.0747;
3099631611313154;0.1357;-0.1089;0.0236;
3099631621420133;0.0462;-0.0695;0.0310;
3099631631526018;0.0451;0.0115;0.0119;
3099631641632998;0.0718;0.0530;-0.0180;
3099631651739977;0.0579;-0.0599;-0.0095;
3099631661851956;0.0260;-0.1036;-0.0105;
3099631671958935;0.0164;-0.0759;0.0044;
3099631682065914;0.0356;0.0509;-0.0158;
3099631692157477;0.1570;-0.0248;-0.0169;
3099631702264456;0.0792;-0.3891;-0.0169;
3099631712371435;0.0462;-0.5402;0.0055;
3099631722497789;0.0260;-0.1696;-0.0606;
3099631732604768;-0.0644;-0.0429;-0.0425;
3099631742711748;0.0451;-0.1771;-0.0510;
3099631752812998;0.1336;0.0615;-0.0350;
3099631762919977;0.2529;0.2595;-0.0414;
3099631773026956;0.3402;-0.0184;-0.0297;
3099631783131591;0.2326;-0.3433;0.0246;
3099631793238570;-0.0039;0.1052;-0.0403;
3099631803345550;-0.1209;0.3650;-0.0542;
3099631813458518;0.3210;0.3586;-0.0222;
3099631823565498;0.4723;0.7144;-0.0787;
3099631833672477;0.4137;0.9965;-0.0712;
3099631843783310;0.4989;0.7090;-0.0073;
3099631853890289;0.2507;-0.2186;-0.0158;
3099631863997268;-0.0389;-0.5232;0.0438;
3099631874099352;-0.0092;-0.0791;0.0055;
3099631884206331;-0.1529;0.3277;-0.0073;
3099631894313310;-0.3169;0.1647;-0.0542;
3099631904419768;0.0505;0.3905;-0.0606;
3099631914526748;0.3690;-0.0184;-0.0372;
3099631924633727;0.0228;-1.0260;-0.0489;
3099631934736227;-0.2083;-0.7128;0.1035;
3099631944843206;-0.4149;0.0860;0.0204;
3099631954950185;-0.1401;0.3032;-0.1405;
3099631965066956;0.5383;-0.1249;-0.0574;
3099631975173935;0.4830;0.2276;0.0640;
3099631985280914;0.3519;0.8389;0.0055;
3099631995400498;0.6351;0.2105;-0.0009;
3099632005507477;0.5671;-0.5860;0.0470;
3099632015614456;0.1772;-0.2037;0.1642;
3099632025716956;-0.1667;0.8101;0.1162;
3099632035823935;-0.1561;0.3735;0.0747;
3099632045930914;0.6245;-0.6254;0.0768;
3099632056039456;0.6192;-0.4999;0.0875;
3099632066146435;0.0505;0.0072;0.0960;
3099632076253414;-0.3190;-1.0398;0.1727;
3099632086356018;-0.0559;-1.5510;0.2324;
3099632096462998;-0.4043;-0.1324;0.2079;
3099632106569977;-2.1434;0.9369;0.0555;
3099632116671331;-1.1945;0.1083;-0.0723;
3099632126778310;0.2028;-0.5562;-0.2075;
3099632136885289;0.4723;0.0200;-0.2149;
3099632146965498;0.5904;0.0178;-0.1202;
3099632157072477;0.8567;-0.5988;-0.0531;
3099632167179456;1.0176;0.0083;-0.0297;
3099632177315758;0.4723;1.1041;-0.1352;
3099632187422737;0.1016;0.2830;0.1461;
3099632197529716;0.4798;-0.0216;0.1834;
3099632207627789;0.5851;0.2989;0.0012;
3099632217734768;0.2710;0.7792;0.0747;
3099632227841748;0.5714;0.0072;0.2292;
3099632237960498;0.6149;-0.7277;0.2494;
3099632248067477;-0.0357;-0.0397;0.2707;
3099632258174456;-0.9900;0.3863;0.2153;
3099632268298987;-0.6864;0.3415;0.0822;
3099632278405966;-0.0847;0.3362;-0.0478;
3099632288512945;0.1953;1.0210;0.0214;
3099632298590029;0.4361;0.3000;0.0342;
3099632308697008;0.3604;-0.2495;0.0087;
3099632318803987;-0.2945;-0.0312;0.0683;
3099632328930393;-0.3489;-0.2921;0.0193;
3099632339037373;-0.0804;-0.3156;-0.0137;
3099632349144352;-0.0389;-0.2027;-0.0680;
3099632359246227;0.0867;0.0988;-0.1245;
3099632369353206;0.1900;-0.0375;-0.1160;
3099632379460185;0.3306;-0.6734;-0.0606;
3099632389587164;0.1644;-0.0525;-0.0659;
3099632399694143;-0.0071;0.3682;-0.0872;
3099632409801123;0.5596;0.0253;-0.1075;
3099632419902581;0.8823;0.1498;-0.0947;
3099632430009560;0.7268;0.4672;-0.0776;
3099632440116539;0.6703;0.0828;-0.0403;
3099632450216018;0.4457;-0.1515;0.0523;
3099632460322998;0.1314;0.1626;0.0491;
3099632470429977;0.1282;0.1020;-0.0350;
3099632480553727;0.3445;0.2883;-0.0041;
3099632490660706;0.3913;0.1583;0.0129;
3099632500767685;0.3828;-0.3166;0.0534;
3099632510846748;0.0430;-0.1494;0.0704;
3099632520953727;-0.0794;0.0200;0.0268;
3099632531060706;0.2305;0.0487;0.0236;
3099632541180081;0.3839;0.1935;0.0108;
3099632551287373;0.4670;0.0658;0.0502;
3099632561394716;0.3700;-0.1973;0.0971;
3099632571509143;0.2465;-0.0812;0.1216;
3099632581616435;0.2699;0.0125;0.0534;
3099632591723779;0.3573;0.0317;0.0736;
3099632601825602;0.3338;-0.2027;0.1184;
3099632611932893;0.1495;-0.3859;0.1109;
3099632622040237;0.0792;-0.2133;0.0843;
3099632632147373;0.0814;0.0551;0.1375;
3099632642254664;0.2390;0.0967;0.1109;
3099632652362008;0.4212;0.3383;0.0917;
3099632662484143;0.5682;0.3533;0.0992;
3099632672591435;0.6628;-0.1100;0.1759;
3099632682698779;0.2646;-0.1877;0.2036;
3099632692803206;0.0025;0.0541;0.2558;
3099632702910498;0.1197;0.0338;0.2217;
3099632713017841;0.2529;-0.0120;0.2174;
3099632723129091;0.1964;-0.0375;0.2515;
3099632733236383;0.1495;-0.0503;0.2483;
3099632743343727;0.1144;-0.1877;0.2920;
3099632753438831;0.1165;-0.1782;0.3240;
3099632763546123;0.1570;0.0743;0.3463;
3099632773653466;0.2571;0.0871;0.3218;
3099632783760810;0.2081;-0.0663;0.3122;
3099632793868102;0.1080;-0.0099;0.3762;
3099632803975445;0.1154;-0.0088;0.3687;
3099632814081956;0.1517;-0.0397;0.3826;
3099632824189248;0.1527;0.0477;0.4357;
3099632834296591;0.1889;0.0839;0.4602;
3099632844421956;0.1517;0.0125;0.4442;
3099632854529248;0.1154;-0.0951;0.4783;
3099632864636591;0.0153;-0.0418;0.4996;
3099632874735289;-0.0049;0.0285;0.4857;
3099632884842581;0.0292;0.0551;0.4964;
3099632894949925;0.0345;-0.0088;0.4943;
3099632905054091;-0.0230;-0.0333;0.5326;
3099632915161383;-0.1049;0.0754;0.5518;
3099632925268727;-0.1049;0.0232;0.5497;
3099632935356852;-0.1252;-0.0834;0.5230;
3099632945464143;-0.2178;0.0551;0.5454;
3099632955571487;-0.2860;0.1786;0.5379;
3099632965688623;-0.1859;0.1626;0.5039;
3099632975795914;-0.1742;0.0210;0.4953;
3099632985903258;-0.3627;-0.1313;0.4964;
3099632996017268;-0.4937;-0.1004;0.4996;
3099633006124560;-0.5481;0.0498;0.4218;
3099633016231904;-0.5214;0.0146;0.4028;
3099633026340081;-0.4991;-0.1696;0.3740;
3099633036447373;-0.5246;-0.0961;0.3016;
3099633046554716;-0.5214;0.0360;0.2846;
3099633056657373;-0.4618;-0.0258;0.2579;
3099633066764664;-0.3574;-0.0173;0.2047;
3099633076872008;-0.3606;0.0530;0.1738;
3099633086964768;-0.3158;0.1615;0.1748;
3099633097072060;-0.2828;0.1445;0.1471;
3099633107179404;-0.2413;0.0594;0.1312;
3099633117289664;-0.2498;0.1402;0.1237;
3099633127396956;-0.2328;0.2467;0.0822;
3099633137504300;-0.1859;0.1881;0.0885;
3099633147630081;-0.2530;0.0328;0.0640;
3099633157737373;-0.2636;0.0242;0.0470;
3099633167844716;-0.2924;-0.0375;0.0172;
3099633177942008;-0.2913;-0.1164;-0.0318;
3099633188049300;-0.2839;-0.0993;-0.0638;
3099633198156643;-0.2317;0.0498;-0.0382;
3099633208255185;-0.1869;0.1072;-0.0510;
3099633218362477;-0.1933;0.0210;-0.0531;
3099633228469820;-0.1912;0.0477;-0.0851;
3099633238585341;-0.1763;0.1754;-0.1202;
3099633248692633;-0.1539;0.1477;-0.0915;
3099633258799977;-0.1955;0.0115;-0.1011;
3099633268907268;-0.2242;0.0178;-0.1234;
3099633279014560;-0.2093;-0.0088;-0.1075;
3099633289121904;-0.1997;-0.0216;-0.1415;
3099633299248206;-0.1955;-0.0024;-0.1352;
3099633309355498;-0.1795;-0.0620;-0.1362;
3099633319462841;-0.1891;-0.0940;-0.1565;
3099633329534977;-0.1593;0.0029;-0.1703;
3099633339642268;-0.1475;0.0722;-0.1927;
3099633349749612;-0.1539;0.0967;-0.2064;
3099633359876331;-0.1923;0.1020;-0.2117;
3099633369983623;-0.1848;0.1306;-0.2128;
3099633380090966;-0.1816;0.1041;-0.2128;
3099633390191748;-0.2114;0.0668;-0.2011;
3099633400299039;-0.2317;-0.0493;-0.2043;
3099633410406383;-0.1710;-0.0248;-0.2405;
3099633420511956;-0.1273;0.0668;-0.2352;
3099633430619248;-0.1571;-0.0141;-0.2671;
3099633440726591;-0.0762;0.0210;-0.3044;
3099633450842789;-0.0911;0.0466;-0.3257;
3099633460950081;-0.1944;-0.0855;-0.3140;
3099633471057425;-0.2114;-0.3092;-0.3055;
3099633481147893;-0.0730;-0.2016;-0.3353;
3099633491255185;0.1133;0.0306;-0.3385;
3099633501362529;0.2294;0.0764;-0.3491;
3099633511485393;0.0771;-0.0450;-0.3289;
3099633521592685;0.0228;-0.0770;-0.2905;
3099633531700029;0.2230;0.0658;-0.2873;
3099633541816643;0.2593;0.0818;-0.3065;
3099633551924039;0.2124;0.2286;-0.2937;
3099633562031487;0.1005;0.2222;-0.2607;
3099633572128206;-0.1742;-0.2282;-0.1810;
3099633582235602;-0.0911;-0.3784;-0.1458;
3099633592343050;0.2763;0.0253;-0.1383;
3099633602436435;0.6106;0.2766;-0.2106;
3099633612543831;0.5245;0.1178;-0.1426;
3099633622651279;0.2571;0.0434;-0.0574;
3099633632776591;0.3093;0.1242;-0.0137;
3099633642883987;0.1730;0.0349;0.0097;
3099633652991435;-0.0049;-0.2357;0.0182;
3099633663099560;0.0771;-0.2911;-0.0105;
3099633673206956;0.2827;0.4608;-0.0105;
3099633683314404;0.1964;0.5130;0.0236;
3099633693414560;0.0739;-0.3124;0.1216;
3099633703521956;0.1133;-0.2261;0.1407;
3099633713629404;0.0867;0.0541;0.1493;
3099633723735289;-0.0220;-0.1313;0.1365;
3099633733842685;-0.0039;-0.2591;0.1567;
3099633743950133;0.0164;-0.2197;0.1631;
3099633754059039;0.0356;-0.0322;0.1194;
3099633764166435;0.0590;-0.0056;0.1450;
3099633774273883;0.0707;-0.0514;0.1514;
3099633784380081;0.0963;0.0988;0.1780;
3099633794487477;0.0803;0.0860;0.1919;
3099633804594925;0.0537;-0.0077;0.2015;
3099633814707998;-0.0198;0.0615;0.2430;
3099633824815393;-0.0262;0.0743;0.2355;
3099633834922841;-0.0209;-0.0983;0.2387;
3099633845016748;-0.1188;-0.1270;0.2451;
3099633855124143;-0.2562;-0.0503;0.2387;
3099633865231591;-0.2445;-0.0951;0.2324;
3099633875352841;-0.1624;-0.0418;0.1908;
3099633885460237;-0.1358;-0.0152;0.1887;
3099633895567685;-0.1113;-0.0929;0.1908;
3099633905664456;-0.1284;0.0285;0.1887;
3099633915771852;-0.0634;0.1157;0.1738;
3099633925879300;-0.0740;0.1178;0.1759;
3099633936001435;-0.1241;0.0349;0.1844;
3099633946108831;-0.2125;-0.0024;0.1983;
3099633956216279;-0.2626;0.0423;0.1610;
3099633966312581;-0.2072;0.0498;0.1674;
3099633976419977;-0.2008;0.0253;0.1631;
3099633986527425;-0.2562;-0.0205;0.1418;
3099633996624039;-0.2636;0.0072;0.1205;
3099634006731435;-0.2253;-0.0045;0.1322;
3099634016838883;-0.1848;-0.0162;0.1237;
3099634026931435;-0.1912;-0.0269;0.0907;
3099634037038831;-0.2146;-0.0610;0.0832;
3099634047146279;-0.2104;-0.0205;0.0736;
3099634057275706;-0.1795;0.0306;0.0672;
3099634067383102;-0.1646;0.0498;0.0758;
3099634077490550;-0.1624;0.0413;0.0896;
3099634087591175;-0.1443;0.1052;0.0353;
3099634097698570;-0.1316;0.1434;0.0204;
3099634107806018;-0.1646;0.0988;0.0278;
3099634117905289;-0.1710;0.1413;0.0119;
3099634128012685;-0.1763;0.0573;-0.0052;
3099634138120133;-0.1901;-0.0684;0.0097;
3099634148217268;-0.2210;-0.0024;-0.0148;
3099634158324664;-0.1955;0.0466;-0.0180;
3099634168432112;-0.1561;0.0210;-0.0244;
3099634178544456;-0.1486;-0.0162;-0.0276;
3099634188651852;-0.1486;-0.0003;-0.0712;
3099634198759300;-0.1539;-0.0365;-0.0744;
3099634208872268;-0.1497;0.0178;-0.0691;
3099634218979664;-0.1433;0.0722;-0.0627;
3099634229087112;-0.1688;-0.0599;-0.0862;
3099634239216956;-0.1539;-0.0599;-0.0925;
3099634249324352;-0.1188;0.0668;-0.0883;
3099634259431800;-0.1134;0.0455;-0.0659;
3099634269516018;-0.1316;-0.0365;-0.0510;
3099634279623414;-0.1284;-0.0216;-0.0574;
3099634289730862;-0.1113;0.0850;-0.1053;
3099634299865393;-0.1379;0.0605;-0.0915;
3099634309972789;-0.1305;0.0850;-0.0798;
3099634320080237;-0.1411;0.0839;-0.0787;
3099634330153935;-0.1422;0.0573;-0.0755;
3099634340261331;-0.1294;0.0498;-0.0521;
3099634350368779;-0.1113;0.0519;-0.0638;
3099634360500185;-0.1134;0.0722;-0.0670;
3099634370607581;-0.1198;0.0242;-0.0585;
3099634380715029;-0.1007;0.0328;-0.0510;
3099634390797685;-0.1230;-0.0056;-0.0521;
3099634400905081;-0.1358;-0.0344;-0.0595;
3099634411012529;-0.1103;0.0104;-0.0521;
3099634421131435;-0.1198;-0.0301;-0.0372;
3099634431238831;-0.1401;-0.1142;-0.0499;
3099634441346279;-0.0836;-0.0567;-0.0734;
3099634451471435;-0.0399;0.0487;-0.0819;
3099634461578831;-0.0932;-0.0429;-0.0308;
3099634471686279;-0.1071;-0.0738;-0.0489;
3099634481772060;-0.0826;-0.0184;-0.0510;
3099634491879456;-0.0676;0.0850;-0.0585;
3099634501986904;-0.1326;-0.1867;-0.0169;
3099634512102268;-0.1582;-0.3326;-0.0212;
3099634522209664;-0.0495;0.0541;-0.0819;
3099634532317112;-0.1348;0.0775;-0.0862;
3099634542424091;-0.0879;-0.0109;-0.0446;
3099634552531279;-0.0644;0.0466;-0.0382;
3099634562638466;-0.1060;0.1083;-0.0606;
3099634572751331;-0.0911;0.1020;-0.0659;
3099634582858518;-0.1124;0.0242;-0.0787;
3099634592965706;-0.1166;0.0402;-0.1085;
3099634603072112;-0.1518;-0.0237;-0.1021;
3099634613179300;-0.1497;0.2009;-0.1277;
3099634623286487;-0.1252;0.3533;-0.1021;
3099634633379248;-0.1124;-0.1877;-0.1064;
3099634643486435;-0.1667;-0.1856;-0.1543;
3099634653593623;-0.2317;0.0541;-0.1767;
3099634663696435;-0.2722;-0.1238;-0.1597;
3099634673803623;-0.1188;-0.2314;-0.1873;
3099634683910810;-0.1252;-0.1047;-0.2064;
3099634694028831;-0.1305;0.0296;-0.2447;
3099634704136018;-0.0527;-0.0386;-0.2511;
3099634714243206;-0.0156;-0.0738;-0.2458;
3099634724357789;-0.0220;0.1189;-0.2831;
3099634734464977;0.0153;0.1988;-0.2884;
3099634744572164;0.0728;0.0594;-0.2671;
3099634754678206;0.0270;0.0775;-0.2565;
3099634764785393;-0.0188;0.1509;-0.2628;
3099634774892581;0.0206;0.0796;-0.2469;
3099634784991018;0.0558;0.0509;-0.2458;
3099634795098206;0.0281;0.0061;-0.2724;
3099634805205393;0.0047;-0.1377;-0.2660;
3099634815316435;0.0952;-0.2272;-0.2277;
3099634825423623;0.2933;-0.0045;-0.2075;
3099634835530810;0.3945;0.5013;-0.2799;
3099634845652060;0.3551;0.4172;-0.2330;
3099634855759248;0.1442;-0.0961;-0.1352;
3099634865866435;0.0984;-0.1409;-0.1490;
3099634875976852;0.1197;0.1168;-0.1628;
3099634886084039;0.0888;0.0168;-0.1586;
3099634896191227;0.0888;-0.1984;-0.1128;
3099634906269612;0.1367;-0.1270;-0.0968;
3099634916376800;0.1378;0.0285;-0.0979;
3099634926483987;0.1144;0.1020;-0.0798;
3099634936623206;0.0419;-0.0397;-0.0425;
3099634946730393;-0.1113;-0.7309;-0.0244;
3099634956837581;0.0079;-0.3358;-0.0446;
3099634966926435;0.0324;0.2819;-0.1362;
3099634977033623;-0.0431;0.0541;-0.0915;
3099634987140810;0.0771;0.0093;-0.0606;
3099634997249248;0.0441;0.0754;-0.0521;
3099635007356435;0.0654;0.1775;-0.0702;
3099635017463623;0.0345;0.1423;-0.0286;
3099635027574560;0.0015;0.0136;-0.0126;
3099635037681748;0.0089;0.1402;-0.0276;
3099635047788935;-0.0474;0.0306;-0.0222;
3099635057879352;-0.0687;-0.1345;-0.0169;
3099635067986539;-0.0071;0.0349;-0.0563;
3099635078093727;-0.0410;-0.0290;-0.0563;
3099635088193102;-0.0826;-0.1419;-0.0435;
3099635098300289;-0.0124;-0.0237;-0.0606;
3099635108407477;-0.0188;-0.0631;-0.0851;
3099635118525185;-0.0060;-0.1356;-0.0957;
3099635128632373;0.0356;-0.0258;-0.1011;
3099635138739560;0.0292;0.0498;-0.1011;
3099635148877477;0.0132;0.0594;-0.0936;
3099635158984664;-0.0188;-0.0077;-0.1107;
3099635169091852;0.0079;-0.0045;-0.1043;
3099635179174456;0.0068;0.0072;-0.0925;
3099635189281643;0.0217;0.0008;-0.1011;
3099635199388831;0.0292;-0.0013;-0.0979;
3099635209490081;0.0206;-0.0876;-0.1011;
3099635219597268;0.0387;-0.0589;-0.1298;
3099635229704456;0.0430;-0.0173;-0.1234;
3099635239846643;0.0185;-0.0354;-0.1320;
3099635249953831;0.0601;-0.0045;-0.1352;
3099635260061018;0.0292;0.0083;-0.1490;
3099635270155602;0.0100;-0.0748;-0.1735;
3099635280262789;0.0398;-0.0216;-0.1639;
3099635290369977;0.0483;0.0051;-0.1628;
3099635300476123;0.0771;0.0093;-0.1746;
3099635310583310;0.0803;0.0679;-0.1671;
3099635320690498;0.0995;0.0530;-0.1469;
3099635330791018;0.0888;0.0157;-0.1746;
3099635340898206;0.0973;-0.0099;-0.1618;
3099635351005393;0.1005;-0.0333;-0.1746;
3099635361099456;0.1027;-0.0450;-0.1788;
3099635371206643;0.1144;-0.0674;-0.1810;
3099635381313831;0.1272;-0.0940;-0.1810;
3099635391429248;0.1612;-0.0418;-0.1511;
3099635401536435;0.1644;0.0253;-0.1597;
3099635411643623;0.1772;0.0200;-0.1554;
3099635421760289;0.1463;0.0008;-0.1352;
3099635431867477;0.1261;-0.0450;-0.1181;
3099635441974664;0.1655;-0.0067;-0.1554;
3099635452059664;0.1772;0.0083;-0.1277;
3099635462166852;0.2007;0.0296;-0.0872;
3099635472274039;0.2284;0.1658;-0.1234;
3099635482404873;0.1889;0.1328;-0.1202;
3099635492512060;0.1059;0.0573;-0.0851;
3099635502619248;0.0888;-0.0216;-0.0680;
3099635512728258;0.1144;-0.0695;-0.0819;
3099635522835445;0.1154;-0.1419;-0.0606;
3099635532942633;0.1399;-0.1132;-0.0435;
3099635543048102;0.1272;-0.1579;-0.0382;
3099635553155393;0.1399;-0.1877;-0.0553;
3099635563262685;0.1996;-0.1803;-0.0212;
3099635573361591;0.2390;-0.0770;-0.0244;
3099635583468883;0.2965;0.0413;-0.0105;
3099635593576175;0.2411;0.0232;-0.0020;
3099635603688935;0.2230;0.0700;0.0065;
3099635613796227;0.1953;0.1232;-0.0073;
3099635623903518;0.1762;0.1338;0.0044;
3099635634008831;0.1431;-0.0173;0.0119;
3099635644116123;0.1943;-0.0557;0.0790;
3099635654223414;0.2039;-0.0216;0.0747;
3099635664327893;0.2348;0.0189;0.0577;
3099635674435185;0.1847;0.0541;0.0864;
3099635684542477;0.1027;-0.3273;0.1535;
3099635694647581;0.1495;-0.4775;0.1961;
3099635704754873;0.2358;-0.2506;0.1759;
3099635714862164;0.2156;-0.3688;0.1897;
3099635724977581;0.3157;-0.1739;0.1908;
3099635735084873;0.3647;0.2073;0.1354;
3099635745192164;0.2166;-0.0631;0.1770;
3099635755300706;0.2188;-0.2932;0.2611;
3099635765407998;0.4510;0.1285;0.2877;
3099635775515289;0.6788;0.7632;0.2068;
3099635785616435;0.6490;0.9209;0.1748;
3099635795723727;0.3945;0.5833;0.3037;
3099635805831018;0.2944;0.4374;0.4007;
3099635815938623;0.3679;0.8037;0.3463;
3099635826045914;0.2284;0.5727;0.3666;
3099635836153206;0.0281;-0.1590;0.4474;
3099635846264143;-0.1113;-0.0844;0.4293;
3099635856371435;-0.1475;-0.2410;0.4325;
3099635866478727;-0.1348;-0.4786;0.4463;
3099635876582164;-0.1124;0.1136;0.4102;
3099635886689456;-0.0092;0.2212;0.4250;
3099635896796748;0.0004;-0.3113;0.4730;
3099635906892268;-0.2732;-0.6489;0.4474;
3099635916999560;-0.3798;-0.3614;0.4431;
3099635927106852;-0.1262;-0.0237;0.4335;
3099635937212060;-0.0655;-0.0823;0.4474;
3099635947319352;-0.2551;-0.1696;0.4495;
3099635957426643;-0.2700;0.0658;0.4357;
3099635967537841;-0.1869;0.2531;0.4154;
3099635977645133;-0.2743;0.0360;0.3847;
3099635987752425;-0.4479;-0.0525;0.3943;
3099635997865289;-0.5257;0.1031;0.4039;
3099636007972581;-0.4820;0.0104;0.3836;
3099636018079873;-0.5438;-0.0503;0.3282;
3099636028199352;-0.6301;0.0221;0.2782;
3099636038306643;-0.6534;-0.0834;0.2782;
3099636048413935;-0.6683;-0.1334;0.2451;
3099636058496123;-0.6736;-0.0557;0.1834;
3099636068603414;-0.6608;-0.0599;0.1567;
3099636078710654;-0.6152;0.0242;0.1226;
3099636088804560;-0.5896;0.0988;0.1056;
3099636098911852;-0.5992;-0.0290;0.0609;
3099636109019143;-0.5832;-0.0706;0.0204;
3099636119123831;-0.5704;0.0136;0.0129;
3099636129231123;-0.5118;-0.0248;-0.0020;
3099636139338414;-0.4618;-0.0003;-0.0265;
3099636149465185;-0.4394;0.0903;-0.0798;
3099636159572477;-0.4256;0.0818;-0.1107;
3099636169679768;-0.4447;-0.0706;-0.0947;
3099636179776018;-0.3521;0.0924;-0.1309;
3099636189883310;-0.2892;0.3746;-0.1927;
3099636199990602;-0.3435;0.4076;-0.1989;
3099636210133570;-0.3723;0.2233;-0.2181;
3099636220240862;-0.3585;0.0519;-0.2458;
3099636230348154;-0.3244;0.1083;-0.2905;
3099636240470081;-0.3073;0.0860;-0.3289;
3099636250577373;-0.3126;-0.0834;-0.3449;
3099636260684664;-0.2828;-0.0780;-0.3513;
3099636270745289;-0.2562;-0.0194;-0.3907;
3099636280852581;-0.2391;-0.1505;-0.4397;
3099636290959873;-0.1965;-0.1462;-0.4642;
3099636301072998;-0.0858;0.0349;-0.4759;
3099636311180289;0.0451;0.2297;-0.4983;
3099636321287581;0.0047;0.0818;-0.5174;
3099636331397268;-0.0113;-0.0897;-0.5441;
3099636341504560;0.0686;-0.0557;-0.5451;
3099636351611852;0.2358;-0.0056;-0.5579;
3099636361718206;0.3349;0.0349;-0.5430;
3099636371825498;0.3530;-0.0216;-0.5132;
3099636381932789;0.4755;0.0349;-0.5281;
3099636392045185;0.5501;0.0850;-0.5217;
3099636402152477;0.5989;-0.0184;-0.5110;
3099636412259768;0.6767;0.0072;-0.4716;
3099636422373935;0.7470;0.0605;-0.4482;
3099636432481227;0.8194;0.0019;-0.3875;
3099636442588518;0.8216;0.0146;-0.3779;
3099636452717581;0.8759;0.0328;-0.3640;
3099636462824873;0.8439;0.0477;-0.3108;
3099636472932164;0.8365;0.0466;-0.2671;
3099636483006175;0.7971;-0.0354;-0.2352;
3099636493113466;0.7704;-0.0322;-0.2149;
3099636503220758;0.7118;-0.0748;-0.1703;
3099636513346227;0.6277;-0.0429;-0.1533;
3099636523453518;0.5957;-0.0471;-0.1192;
3099636533560810;0.5394;-0.0674;-0.0936;
3099636543666748;0.5383;-0.0109;-0.1021;
3099636553774039;0.5181;0.0487;-0.0787;
3099636563881331;0.4606;0.0615;-0.0521;
3099636573976956;0.4393;0.1253;-0.0308;
3099636584084248;0.3636;-0.0248;-0.0041;
3099636594191539;0.2742;-0.3198;0.0651;
3099636604294873;0.3189;-0.2037;0.0619;
3099636614402164;0.3264;-0.2772;0.0832;
3099636624509456;0.2635;-0.4104;0.1365;
3099636634615081;0.3434;-0.2059;0.1248;
3099636644722373;0.4137;-0.0471;0.1099;
3099636654829664;0.3796;-0.0354;0.1248;
3099636664954560;0.4009;0.0200;0.1407;
3099636675061852;0.4286;0.2648;0.1418;
3099636685169143;0.3935;0.4832;0.0992;
3099636695265602;0.2390;0.1775;0.1865;
3099636705372893;0.0569;-0.3880;0.2664;
3099636715480185;0.1527;-0.3571;0.2888;
3099636725591591;0.2667;-0.1302;0.2409;
3099636735698883;0.2720;-0.0567;0.2409;
3099636745806175;0.2923;0.1541;0.2313;
3099636755924664;0.3679;0.3447;0.2185;
3099636766031956;0.3359;0.3671;0.2334;
3099636776139248;0.3274;0.5919;0.2110;
3099636786224664;0.2806;0.8122;0.2057;
3099636796331956;0.0995;0.5663;0.2100;
3099636806439248;-0.1134;0.2105;0.2249;
3099636816540602;-0.2168;-0.0226;0.2643;
3099636826647893;-0.3009;-0.2634;0.2590;
3099636836755185;-0.3095;-0.4285;0.1961;
3099636846864091;-0.2029;-0.4136;0.1738;
3099636856971383;-0.0145;-0.0727;0.1546;
3099636867078675;0.1612;0.3181;0.1290;
3099636877185758;0.2401;0.3021;0.1429;
3099636887293050;0.1794;0.1445;0.1407;
3099636897400341;0.1176;0.0956;0.1003;
3099636907500081;0.0718;-0.0024;0.1333;
3099636917607373;0.1016;-0.0727;0.1844;
3099636927714664;0.0803;-0.2740;0.2366;
3099636937829456;0.0164;-0.5146;0.2782;
3099636947936748;0.0068;-0.5786;0.3037;
3099636958044039;0.0611;-0.4114;0.2643;
3099636968139248;0.1399;-0.1760;0.2324;
3099636978246539;0.1623;-0.0780;0.2877;
3099636988353831;0.1623;0.0903;0.2920;
3099636998463727;0.2103;0.2819;0.2238;
3099637008571018;0.1186;0.2861;0.2174;
3099637018678310;0.0366;0.2371;0.2739;
3099637028838258;-0.0453;0.1850;0.3336;
3099637038945550;-0.1816;-0.0173;0.3431;
3099637049052841;-0.3297;-0.0855;0.3261;
3099637059127164;-0.3638;0.0541;0.3122;
3099637069234456;-0.4362;-0.2325;0.3559;
3099637079341748;-0.5704;-0.4722;0.3527;
3099637089431956;-0.5236;-0.1995;0.3176;
3099637099539248;-0.4309;0.1052;0.3112;
3099637109646539;-0.4927;0.0136;0.3186;
3099637119770185;-0.5587;-0.0525;0.3027;
3099637129877477;-0.6694;0.1370;0.2877;
3099637139984768;-0.8835;-0.1569;0.3527;
3099637150084456;-0.8899;-0.3688;0.3229;
3099637160191748;-0.6598;0.2063;0.2121;
3099637170299039;-0.6459;0.8069;0.1834;
3099637180411643;-0.7929;0.5663;0.2142;
3099637190518831;-0.9165;0.2063;0.2515;
3099637200626123;-0.8952;0.4044;0.2196;
3099637210733414;-0.9250;0.3351;0.1823;
3099637220849768;-0.9943;-0.1601;0.1439;
3099637230957060;-0.8941;-0.2879;0.1237;
3099637241064352;-0.7556;-0.0493;0.1333;
3099637251145602;-0.6694;-0.0567;0.1173;
3099637261252893;-0.5821;-0.1899;0.0864;
3099637271360185;-0.4916;-0.0077;0.0768;
3099637281476643;-0.4639;0.3021;0.0875;
3099637291583935;-0.5161;0.3245;0.0854;
3099637301691227;-0.5683;0.1562;0.0747;
3099637311794039;-0.6141;0.2052;0.0694;
3099637321901331;-0.6449;0.2467;0.0470;
3099637332008623;-0.6843;0.0668;0.0150;
3099637342118935;-0.6205;0.4182;-0.0148;
3099637352226227;-0.6971;0.2904;-0.0329;
3099637362333518;-0.8973;-0.5849;-0.1021;
3099637372446175;-0.8110;-0.7181;-0.1511;
3099637382553466;-0.6651;-0.2186;-0.1160;
3099637392660758;-0.5907;-0.0652;-0.0659;
3099637402772008;-0.5726;-0.1462;-0.0904;
3099637412879300;-0.5864;0.0743;-0.1501;
3099637422986591;-0.5736;0.4395;-0.1756;
3099637433088831;-0.6109;0.4225;-0.1788;
3099637443196123;-0.6907;0.2084;-0.2053;
3099637453303414;-0.6672;0.2755;-0.2341;
3099637463414508;-0.6333;0.2265;-0.2586;
3099637473521800;-0.5907;-0.0631;-0.2948;
3099637483629091;-0.4873;-0.0919;-0.2820;
3099637493719248;-0.4895;-0.0493;-0.2469;
3099637503826539;-0.4756;-0.1686;-0.2692;
3099637513933831;-0.4288;-0.0770;-0.2756;
3099637524061018;-0.3968;0.0860;-0.2948;
3099637534168466;-0.3616;0.0913;-0.3055;
3099637544275758;-0.3702;0.1562;-0.2905;
3099637554383050;-0.4202;0.1913;-0.2831;
3099637564487789;-0.4490;0.0945;-0.3204;
3099637574595081;-0.4341;0.0754;-0.3534;
3099637584702373;-0.4256;0.0775;-0.3704;
3099637594798102;-0.4181;0.0391;-0.4003;
3099637604905393;-0.3904;0.0445;-0.4152;
3099637615012685;-0.3616;0.0253;-0.4343;
3099637625108518;-0.2881;0.0157;-0.4429;
3099637635215810;-0.2178;0.0562;-0.4599;
3099637645323102;-0.1177;0.0711;-0.4759;
3099637655461539;-0.0549;0.0871;-0.4631;
3099637665568831;0.0079;0.1178;-0.4588;
3099637675676123;0.0984;0.0818;-0.4674;
3099637685788414;0.1889;0.0328;-0.4642;
3099637695895706;0.3051;0.0487;-0.4588;
3099637706002998;0.4105;0.0146;-0.4386;
3099637716087685;0.5458;-0.0109;-0.4077;
3099637726194977;0.6650;0.0051;-0.4184;
3099637736302268;0.7608;0.0029;-0.4130;
3099637746420341;0.8493;-0.0130;-0.3587;
3099637756527633;0.9249;-0.0035;-0.3246;
3099637766634925;0.9366;-0.0024;-0.3065;
3099637776739768;0.9888;0.0029;-0.2810;
3099637786847060;0.9845;0.0104;-0.2501;
3099637796954352;0.9515;-0.0130;-0.2394;
3099637807056539;0.9611;-0.0567;-0.2043;
3099637817163831;0.9419;-0.0450;-0.1884;
3099637827271123;0.9291;-0.0141;-0.1873;
3099637837367998;0.8844;-0.0173;-0.1511;
3099637847475289;0.8226;-0.0173;-0.1362;
3099637857582581;0.7715;-0.0194;-0.1394;
3099637867732581;0.7534;-0.0152;-0.1170;
3099637877839873;0.7065;0.0136;-0.1085;
3099637887947164;0.6554;0.0008;-0.0979;
3099637898010706;0.6224;-0.0216;-0.0968;
3099637908117998;0.5628;-0.0354;-0.1107;
3099637918225289;0.5383;-0.0439;-0.1064;
3099637928329039;0.5618;-0.0088;-0.0862;
3099637938436331;0.5234;0.0221;-0.1192;
3099637948543623;0.5490;0.0200;-0.1202;
3099637958662320;0.5533;0.0285;-0.0968;
3099637968769612;0.5298;0.0370;-0.1011;
3099637978876904;0.5735;0.0306;-0.0947;
3099637988953831;0.5682;0.0093;-0.1021;
3099637999061123;0.5682;0.0040;-0.1170;
3099638009168362;0.6160;0.0136;-0.1064;
3099638019316123;0.5904;0.0136;-0.1160;
3099638029423414;0.6170;0.0051;-0.1011;
3099638039530706;0.6288;-0.0194;-0.0798;
3099638049613518;0.6234;-0.0162;-0.0840;
3099638059720810;0.6799;0.0210;-0.0617;
3099638069828102;0.6596;0.0189;-0.0638;
3099638079943206;0.6618;0.0072;-0.0563;
3099638090050498;0.6810;0.0115;-0.0329;
3099638100157789;0.6533;0.0253;-0.0254;
3099638110278102;0.6863;0.0370;0.0097;
3099638120385393;0.6501;0.0168;0.0172;
3099638130492685;0.6064;0.0093;0.0193;
3099638140604977;0.5829;-0.0162;0.0427;
3099638150712268;0.5096;-0.0365;0.0630;
3099638160819560;0.5288;-0.0067;0.0694;
3099638170911956;0.5298;0.0083;0.0513;
3099638181019248;0.5021;0.0189;0.0790;
3099638191126539;0.4989;0.0434;0.1173;
3099638201199664;0.4755;0.0434;0.1216;
3099638211306956;0.4851;0.0264;0.1258;
3099638221414248;0.4648;0.0264;0.1461;
3099638231556539;0.4361;0.0210;0.1503;
3099638241663831;0.4222;-0.0088;0.1802;
3099638251771123;0.4116;-0.0141;0.1983;
3099638261892060;0.4137;-0.0013;0.2174;
3099638271999352;0.4137;-0.0056;0.2185;
3099638282106643;0.4052;0.0083;0.2430;
3099638292205237;0.3977;0.0104;0.2643;
3099638302312529;0.3860;0.0125;0.2803;
3099638312419820;0.3775;0.0093;0.2899;
3099638322540393;0.3466;0.0115;0.2888;
3099638332647685;0.3328;0.0285;0.2941;
3099638342754977;0.2784;0.0200;0.3016;
3099638352856123;0.2784;0.0210;0.3059;
3099638362963414;0.2348;0.0402;0.3112;
3099638373070706;0.2198;0.0381;0.2888;
3099638383166591;0.1836;0.0296;0.2888;
3099638393273883;0.1261;0.0200;0.2941;
3099638403381175;0.1005;0.0200;0.2835;
3099638413501123;0.0707;0.0317;0.2377;
3099638423608414;0.0430;0.0455;0.2249;
3099638433715706;-0.0017;0.0519;0.2302;
3099638443794768;-0.0314;0.0413;0.2302;
3099638453902060;-0.0474;0.0051;0.1983;
3099638464009352;-0.0538;-0.0088;0.1706;
3099638474138102;-0.0698;-0.0013;0.1716;
3099638484245393;-0.0644;0.0040;0.1471;
3099638494352685;-0.0517;0.0157;0.1461;
3099638504451123;-0.0284;0.0146;0.1194;
3099638514558414;-0.0092;0.0253;0.1141;
3099638524665706;-0.0198;0.0232;0.0949;
3099638534785602;-0.0209;0.0083;0.1088;
3099638544892893;-0.0156;0.0146;0.0971;
3099638555000133;-0.0039;0.0178;0.0992;
3099638565100810;-0.0124;0.0178;0.0885;
3099638575208102;-0.0177;-0.0035;0.0992;
3099638585315341;-0.0134;-0.0162;0.0928;
3099638595424560;0.0185;-0.0088;0.0822;
3099638605531852;0.0249;-0.0035;0.0875;
3099638615639091;0.0409;0.0040;0.0928;
3099638625749143;0.0473;0.0178;0.1173;
3099638635856435;0.0590;0.0381;0.0854;
3099638645963675;0.0750;0.0445;0.1056;
3099638656077581;0.0877;0.0306;0.0811;
3099638666184873;0.0931;0.0104;0.1301;
3099638676292112;0.1027;0.0051;0.1003;
3099638686398623;0.1176;0.0051;0.1301;
3099638696505914;0.1176;-0.0077;0.0928;
3099638706613154;0.1229;-0.0162;0.1024;
3099638716709091;0.1186;-0.0045;0.1184;
3099638726816383;0.1304;0.0104;0.1130;
3099638736923623;0.1197;0.0402;0.1258;
3099638747018310;0.1304;0.0913;0.0832;
3099638757125602;0.1144;0.1455;0.1120;
3099638767232841;0.1208;0.1551;0.0726;
3099638777347268;0.0995;0.1052;0.0928;
3099638787454560;0.0728;0.0530;0.0779;
3099638797561800;0.0728;0.0178;0.0726;
3099638807654925;0.0590;-0.0099;0.1035;
3099638817762216;0.0419;-0.0482;0.0630;
3099638827869456;0.0387;-0.0599;0.0885;
3099638837987477;0.0579;-0.0248;0.0513;
3099638848094768;0.0739;0.0317;0.0321;
3099638858202008;0.0654;0.0349;0.0417;
3099638868325654;0.0366;0.0328;0.0055;
3099638878432945;0.0366;0.0221;0.0129;
3099638888540185;0.0047;-0.0407;-0.0063;
3099638898625133;-0.0284;-0.1142;-0.0169;
3099638908732425;-0.0071;-0.1206;-0.0063;
3099638918839664;0.0142;-0.0471;-0.0510;
3099638928945706;0.0292;-0.0109;-0.0489;
3099638939052998;0.0654;0.0029;-0.0691;
3099638949160237;0.0792;0.0455;-0.0979;
3099638959284560;0.1091;0.0690;-0.0648;
3099638969391852;0.1112;0.0636;-0.0723;
3099638979499091;0.1091;0.0391;-0.0617;
3099638989583310;0.1080;0.0093;-0.0467;
3099638999690602;0.1261;-0.0130;-0.0574;
3099639009797841;0.1229;-0.0226;-0.0201;
3099639019920081;0.1133;-0.0365;-0.0180;
3099639030027373;0.1027;-0.0514;-0.0350;
3099639040134612;0.1144;-0.0301;-0.0169;
3099639050247060;0.1304;-0.0099;-0.0169;
3099639060354352;0.1122;-0.0067;-0.0084;
3099639070461591;0.1101;0.0093;0.0278;
3099639080583727;0.1154;0.0285;0.0119;
3099639090691018;0.1059;0.0583;0.0076;
3099639100798258;0.0952;0.0498;0.0491;
3099639110890289;0.0824;0.0285;0.0417;
3099639120997581;0.0835;0.0104;0.0449;
3099639131104820;0.0771;0.0093;0.0683;
3099639141234768;0.0622;-0.0226;0.0598;
3099639151342060;0.0601;-0.0642;0.0662;
3099639161449300;0.0686;-0.0844;0.0939;
3099639171513623;0.0547;-0.0876;0.0779;
3099639181620914;0.0569;-0.0620;0.0545;
3099639191728154;0.0760;-0.0354;0.0832;
3099639201844352;0.0622;-0.0003;0.1024;
3099639211951643;0.0409;0.0253;0.0790;
3099639222058883;0.0238;0.0487;0.0736;
3099639232167685;-0.0017;0.0466;0.0971;
3099639242274977;-0.0134;0.0402;0.0822;
3099639252382216;-0.0410;0.0573;0.0513;
3099639262489143;-0.0826;0.0466;0.0598;
3099639272596435;-0.1188;0.0253;0.0704;
3099639282703675;-0.1422;0.0136;0.0289;
3099639292802268;-0.1646;0.0125;0.0044;
3099639302909560;-0.2136;-0.0024;0.0204;
3099639313016800;-0.2402;0.0019;0.0161;
3099639323137685;-0.2359;0.0168;-0.0244;
3099639333244977;-0.2519;0.0328;-0.0478;
3099639343352216;-0.2924;0.0434;-0.0254;
3099639353460758;-0.3180;0.0402;-0.0244;
3099639363568050;-0.2999;0.0743;-0.0808;
3099639373675289;-0.2935;0.1125;-0.0968;
3099639383776539;-0.3435;0.0999;-0.0659;
3099639393883831;-0.3670;0.0786;-0.0606;
3099639403991070;-0.3329;0.0636;-0.1107;
3099639414110185;-0.2977;0.0455;-0.1479;
3099639424217477;-0.2860;-0.0013;-0.1234;
3099639434324716;-0.2903;-0.0439;-0.0819;
3099639444423414;-0.2498;-0.0322;-0.1075;
3099639454530706;-0.1624;0.0019;-0.1469;
3099639464637945;-0.1113;-0.0088;-0.1394;
3099639474745393;-0.0921;-0.0173;-0.0957;
3099639484852685;-0.0847;-0.0067;-0.0766;
3099639494959925;-0.0581;0.0317;-0.0936;
3099639505064456;-0.0284;0.0328;-0.1138;
3099639515171748;-0.0188;0.0242;-0.1053;
3099639525278987;-0.0134;0.0264;-0.0744;
3099639535391539;-0.0156;0.0242;-0.0595;
3099639545498779;-0.0346;0.0200;-0.0648;
3099639555606018;-0.0495;-0.0184;-0.0734;
3099639565706331;-0.0570;-0.0045;-0.0734;
3099639575813570;-0.0442;0.0232;-0.0659;
3099639585920810;-0.0666;0.0051;-0.0489;
3099639596027581;-0.1241;0.0051;-0.0382;
3099639606134820;-0.1635;0.0157;-0.0393;
3099639616242060;-0.2104;0.0189;-0.0414;
3099639626371539;-0.2466;0.0434;-0.0435;
3099639636478779;-0.2871;0.0583;-0.0414;
3099639646586018;-0.3371;0.0647;-0.0393;
3099639656669091;-0.3766;0.0700;-0.0350;
3099639666776331;-0.4224;0.0722;-0.0286;
3099639676883570;-0.4660;0.0850;-0.0286;
3099639687000498;-0.5108;0.0924;-0.0350;
3099639697107737;-0.5640;0.0807;-0.0350;
3099639707214977;-0.6173;0.0690;-0.0382;
3099639717310289;-0.6662;0.0775;-0.0414;
3099639727417529;-0.7152;0.0647;-0.0446;
3099639737524768;-0.7578;0.0477;-0.0435;
3099639747646227;-0.8015;0.0509;-0.0318;
3099639757753466;-0.8366;0.0700;-0.0361;
3099639767860706;-0.8632;0.0881;-0.0542;
3099639777946435;-0.8750;0.0850;-0.0595;
3099639788053675;-0.9229;0.0764;-0.0627;
3099639798160914;-0.9676;0.0711;-0.0510;
3099639808272789;-0.9772;0.0636;-0.0553;
3099639818380029;-0.9399;0.0658;-0.0744;
3099639828487268;-0.8387;0.0807;-0.1138;
3099639838594768;-0.7461;0.0722;-0.1309;
3099639848702008;-0.6481;0.0509;-0.1362;
3099639858809248;-0.4788;0.0391;-0.1362;
3099639868910289;-0.2924;0.0274;-0.1490;
3099639879017529;-0.1092;0.0168;-0.1671;
3099639889124768;0.0302;0.0051;-0.1810;
3099639899287893;0.0643;-0.0088;-0.1863;
3099639909395133;0.1634;-0.0194;-0.1937;
3099639919502373;0.2838;-0.0322;-0.2032;
3099639929551435;0.3338;-0.0386;-0.2043;
3099639939658675;0.3881;-0.0418;-0.2000;
3099639949765914;0.4435;-0.0493;-0.1895;
3099639959904768;0.4734;-0.0333;-0.1905;
3099639970012008;0.4840;0.0136;-0.1959;
3099639980119248;0.4808;0.0690;-0.1873;
3099639990227477;0.4574;0.1136;-0.1660;
3099640000334716;0.4116;0.1242;-0.1565;
3099640010441956;0.3530;0.0988;-0.1660;
3099640020540185;0.2901;0.0541;-0.1788;
3099640030647425;0.2369;0.0157;-0.1863;
3099640040754664;0.2071;-0.0003;-0.1863;
3099640050876435;0.1740;-0.0024;-0.1852;
3099640060983675;0.1325;0.0029;-0.1873;
3099640071090914;0.0877;0.0146;-0.1873;
3099640081164508;0.0537;0.0115;-0.1916;
3099640091271748;0.0419;-0.0024;-0.1948;
3099640101378987;0.0228;-0.0205;-0.1948;
3099640111486956;-0.0602;-0.0461;-0.1989;
3099640121594195;-0.1443;-0.0418;-0.1927;
3099640131701435;0.0142;0.0061;-0.1831;
3099640141809508;0.0515;0.0242;-0.1714;
3099640151916748;0.0025;0.0264;-0.1650;
3099640162023987;-0.0273;0.0455;-0.1671;
3099640172144352;-0.1198;0.0274;-0.1735;
3099640182251591;-0.2871;-0.0045;-0.1810;
3099640192358831;-0.3606;0.0136;-0.1788;
3099640202461539;-0.1571;0.0349;-0.1852;
3099640212568779;-0.0325;0.0370;-0.1842;
3099640222676018;-0.1486;0.0786;-0.1575;
3099640232772529;-0.1667;0.0913;-0.1501;
3099640242879768;-0.2232;0.0434;-0.1746;
3099640252987008;-0.3787;0.0072;-0.1916;
3099640263101175;-0.5150;-0.0013;-0.1948;
3099640273208414;-0.5779;-0.0088;-0.1937;
3099640283315654;-0.5608;0.0061;-0.1852;
3099640293422789;-0.5182;0.0402;-0.1756;
3099640303530029;-0.5065;0.0530;-0.1714;
3099640313637268;-0.5097;0.0445;-0.1746;
3099640323747373;-0.4980;0.0477;-0.1756;
3099640333854612;-0.4810;0.0498;-0.1724;
3099640343961852;-0.4959;0.0338;-0.1650;
3099640354065602;-0.4884;0.0306;-0.1533;
3099640364172841;-0.3968;0.0445;-0.1415;
3099640374280081;-0.3190;0.0391;-0.1298;
3099640384393310;-0.2849;0.0296;-0.1138;
3099640394500550;-0.2210;0.0328;-0.0968;
3099640404607789;-0.1997;0.0274;-0.0808;
3099640414725393;-0.2370;0.0146;-0.0617;
3099640424832633;-0.2051;0.0115;-0.0531;
3099640434939873;-0.1518;0.0136;-0.0372;
3099640445034664;-0.1113;0.0072;-0.0222;
3099640455141904;-0.0772;0.0019;-0.0073;
3099640465249143;-0.0284;0.0019;0.0076;
3099640475355758;0.0089;-0.0013;0.0150;
3099640485462998;0.0068;-0.0035;0.0225;
3099640495570237;-0.0060;-0.0024;0.0353;
3099640505673727;-0.0028;-0.0067;0.0321;
3099640515780966;0.0036;-0.0130;0.0353;
3099640525888206;-0.0039;-0.0077;0.0364;
3099640536013102;-0.0421;-0.0120;0.0385;
3099640546120341;-0.0368;-0.0184;0.0289;
3099640556227633;-0.0028;-0.0141;0.0289;
3099640566323623;0.0025;-0.0077;0.0342;
3099640576430862;-0.0092;-0.0088;0.0342;
3099640586538154;-0.0177;-0.0077;0.0246;
3099640596643258;-0.0262;-0.0013;0.0119;
3099640606750498;-0.0495;-0.0003;0.0033;
3099640616857789;-0.0943;-0.0099;-0.0020;
3099640626952685;-0.1284;-0.0109;-0.0095;
3099640637059925;-0.1379;-0.0003;-0.0180;
3099640647167216;-0.1475;-0.0024;-0.0318;
3099640657278102;-0.1422;-0.0035;-0.0435;
3099640667385341;-0.0996;0.0072;-0.0478;
3099640677492581;-0.0538;0.0040;-0.0542;
3099640687613623;-0.0506;-0.0120;-0.0585;
3099640697720862;-0.0378;-0.0056;-0.0595;
3099640707828102;-0.0103;0.0040;-0.0595;
3099640717927789;0.0111;0.0125;-0.0648;
3099640728035029;0.0419;0.0253;-0.0638;
3099640738142320;0.0558;0.0285;-0.0627;
3099640748253310;0.0419;0.0200;-0.0712;
3099640758360550;0.0142;0.0146;-0.0819;
3099640768467841;-0.0220;0.0136;-0.0893;
3099640778552373;-0.0463;0.0157;-0.0915;
3099640788659612;-0.0431;0.0200;-0.0915;
3099640798766904;-0.0177;0.0221;-0.0904;
3099640808877477;0.0164;0.0264;-0.0862;
3099640818984716;0.0409;0.0274;-0.0808;
3099640829091956;0.0441;0.0200;-0.0798;
3099640839180810;0.0451;0.0157;-0.0766;
3099640849288050;0.0430;0.0136;-0.0734;
3099640859395341;0.0377;0.0125;-0.0670;
3099640869530498;0.0366;0.0125;-0.0617;
3099640879637737;0.0334;0.0104;-0.0553;
3099640889745029;0.0249;0.0083;-0.0489;
3099640899864404;0.0260;0.0093;-0.0372;
3099640909971643;0.0366;0.0115;-0.0244;
3099640920078935;0.0345;0.0051;-0.0169;
3099640930162164;0.0313;0.0051;-0.0105;
3099640940269404;0.0281;0.0029;-0.0041;
3099640950376695;0.0238;-0.0024;0.0023;
3099640960510498;0.0217;-0.0024;0.0097;
3099640970617737;0.0185;-0.0003;0.0161;
3099640980725029;0.0153;-0.0013;0.0225;
3099640990837789;0.0132;-0.0045;0.0300;
3099641000945029;0.0068;-0.0067;0.0374;
3099641011052320;-0.0007;-0.0109;0.0427;
3099641021132893;-0.0017;-0.0130;0.0470;
3099641031240133;-0.0007;-0.0130;0.0513;
3099641041347425;-0.0007;-0.0120;0.0534;
3099641051472998;0.0015;-0.0088;0.0534;
3099641061580237;-0.0028;-0.0099;0.0545;
3099641071687529;-0.0049;-0.0109;0.0566;
3099641081773414;-0.0049;-0.0130;0.0577;
3099641091880654;-0.0103;-0.0141;0.0566;
3099641101987945;-0.0156;-0.0152;0.0566;
3099641112101123;-0.0177;-0.0130;0.0555;
3099641122208362;-0.0230;-0.0120;0.0545;
3099641132315654;-0.0336;-0.0120;0.0534;
3099641142429456;-0.0399;-0.0099;0.0502;
3099641152536695;-0.0463;-0.0088;0.0481;
3099641162643935;-0.0559;-0.0099;0.0481;
3099641172759248;-0.0634;-0.0077;0.0449;
3099641182866487;-0.0687;-0.0077;0.0449;
3099641192973779;-0.0740;-0.0077;0.0449;
3099641203066956;-0.0815;-0.0088;0.0417;
3099641213174195;-0.0879;-0.0099;0.0417;
3099641223281487;-0.0932;-0.0088;0.0406;
3099641233388414;-0.0964;-0.0077;0.0406;
3099641243495654;-0.0911;-0.0077;0.0427;
3099641253602945;-0.0804;-0.0067;0.0438;
3099641263716591;-0.0730;-0.0056;0.0438;
3099641273823831;-0.0719;-0.0077;0.0438;
3099641283931123;-0.0751;-0.0099;0.0438;
3099641294036748;-0.0783;-0.0109;0.0438;
3099641304143987;-0.0847;-0.0088;0.0417;
3099641314251279;-0.0879;-0.0077;0.0395;
3099641324362008;-0.0889;-0.0056;0.0364;
3099641334469248;-0.0889;-0.0045;0.0353;
3099641344576539;-0.0953;-0.0035;0.0321;
3099641354687789;-0.1017;-0.0056;0.0300;
3099641364795029;-0.1092;-0.0067;0.0257;
3099641374902320;-0.1113;-0.0077;0.0204;
3099641385002581;-0.1071;-0.0056;0.0182;
3099641395109820;-0.1017;-0.0013;0.0150;
3099641405217112;-0.0762;0.0061;0.0108;
3099641415343570;-0.0325;0.0093;0.0033;
3099641425450810;-0.0421;-0.0003;0.0065;
3099641435558102;-0.0284;-0.0013;0.0161;
3099641445638310;-0.0177;-0.0024;0.0214;
3099641455745550;-0.0071;-0.0045;0.0172;
3099641465852841;-0.0028;-0.0045;0.0129;
3099641475966435;-0.0092;-0.0067;0.0108;
3099641486073675;-0.0113;-0.0045;0.0097;
3099641496180914;-0.0103;-0.0024;0.0065;
3099641506282425;-0.0103;-0.0024;0.0065;
3099641516389664;-0.0156;-0.0024;0.0055;
3099641526496956;-0.0124;-0.0024;0.0033;
3099641536602841;-0.0039;-0.0013;0.0044;
3099641546710029;0.0004;0.0008;0.0033;
3099641556817216;0.0004;0.0019;0.0001;
