Sensor: bmi160 Gyroscope Non-wakeup
Vendor: BOSCH
TimestampGyro [ns]; GyroX [rad/s]; GyroY [rad/s]; GyroZ [rad/s]
81126312341814;-0.1065;0.0092;0.0072;
81126322459106;-0.1044;0.0081;0.0115;
81126332572074;-0.1033;0.0103;0.0125;
81126342660929;-0.1023;0.0092;0.0136;
81126352765095;-0.1055;0.0113;0.0146;
81126362871762;-0.1055;0.0113;0.0146;
81126373000304;-0.1033;0.0156;0.0146;
81126383079679;-0.1065;0.0220;0.0168;
81126393181345;-0.1118;0.0145;0.0168;
81126403289574;-0.1129;0.0071;0.0178;
81126413396554;-0.1140;0.0017;0.0210;
81126423500616;-0.1140;0.0017;0.0232;
81126433598324;-0.1129;-0.0004;0.0232;
81126443710720;-0.1076;0.0017;0.0232;
81126453819887;-0.1033;0.0060;0.0253;
81126463920512;-0.0873;0.0188;0.0296;
81126474031345;-0.0703;0.0294;0.0328;
81126484133845;-0.0884;0.0284;0.0306;
81126494239054;-0.1246;0.0198;0.0285;
81126504344158;-0.1278;0.0156;0.0328;
81126514449939;-0.1300;0.0113;0.0328;
81126524561033;-0.1321;0.0049;0.0285;
81126534659991;-0.1310;0.0007;0.0264;
81126544769731;-0.1363;0.0060;0.0232;
81126554870564;-0.1427;0.0134;0.0189;
81126564975408;-0.1406;0.0177;0.0157;
81126575083897;-0.1374;0.0252;0.0136;
81126585213533;-0.1395;0.0337;0.0136;
81126595294158;-0.1395;0.0379;0.0083;
81126605398533;-0.1438;0.0401;-0.0013;
81126615553429;-0.1470;0.0411;-0.0099;
81126625622074;-0.1459;0.0401;-0.0120;
81126635723429;-0.1427;0.0401;-0.0152;
81126645819054;-0.1406;0.0358;-0.0216;
81126655928012;-0.1427;0.0337;-0.0280;
81126666029262;-0.1406;0.0358;-0.0365;
81126676138012;-0.1459;0.0465;-0.0439;
81126686247804;-0.1513;0.0550;-0.0493;
81126696355095;-0.1502;0.0593;-0.0535;
81126706461345;-0.1491;0.0678;-0.0578;
81126716562908;-0.1566;0.0763;-0.0652;
81126726678741;-0.1619;0.0688;-0.0770;
81126736770408;-0.1523;0.0593;-0.0866;
81126746882179;-0.1427;0.0603;-0.0866;
81126756982804;-0.1129;0.0784;-0.0834;
81126767147491;-0.0735;0.0955;-0.0866;
81126777193012;-0.0692;0.0912;-0.0993;
81126787296241;-0.0873;0.0838;-0.1068;
81126797403845;-0.1118;0.0720;-0.1089;
81126807508429;-0.1193;0.0593;-0.1132;
81126817613533;-0.0703;0.0646;-0.1100;
81126827717387;0.0149;0.0869;-0.1004;
81126837851033;0.0682;0.0955;-0.1015;
81126847946137;0.0607;0.0816;-0.1100;
81126858028064;0.0298;0.0710;-0.1121;
81126868148845;0.0170;0.0614;-0.1068;
81126878242699;0.0522;0.0614;-0.1036;
81126888365824;0.1257;0.0806;-0.0972;
81126898475824;0.2173;0.1008;-0.0876;
81126908564106;0.2983;0.1157;-0.0780;
81126918656762;0.3377;0.1232;-0.0716;
81126928765929;0.3132;0.1210;-0.0748;
81126938898949;0.2258;0.1115;-0.0780;
81126948984887;0.1193;0.0944;-0.0855;
81126959118220;0.0213;0.0795;-0.0929;
81126969205199;-0.0458;0.0667;-0.0983;
81126979290199;-0.0469;0.0561;-0.0929;
81126989417804;0.0192;0.0720;-0.0738;
81126999505720;0.1140;0.0987;-0.0503;
81127009616449;0.1427;0.1072;-0.0386;
81127019716658;0.0905;0.1008;-0.0439;
81127029821554;0.0075;0.0944;-0.0514;
81127039927647;-0.1044;0.0635;-0.0610;
81127050060720;-0.1928;0.0337;-0.0642;
81127060147595;-0.1885;0.0369;-0.0514;
81127070271762;-0.1150;0.0582;-0.0418;
81127080356345;-0.0543;0.0699;-0.0344;
81127090457804;-0.0160;0.0699;-0.0322;
81127100576137;0.0277;0.0795;-0.0194;
81127110680564;0.0831;0.1029;-0.0045;
81127120798324;0.0767;0.0955;-0.0035;
81127130905408;0.0266;0.0763;-0.0077;
81127141001762;0.0192;0.0880;-0.0099;
81127151107595;0.0128;0.0838;-0.0152;
81127161210408;-0.0597;0.0262;-0.0312;
81127171321970;-0.0405;0.0166;-0.0226;
81127181425929;0.1001;0.0624;0.0019;
81127191529054;0.2056;0.0667;0.0051;
81127201635408;0.2184;0.0284;-0.0003;
81127211739887;0.2908;0.0348;0.0019;
81127221838637;0.4707;0.1008;0.0328;
81127231944314;0.5730;0.1083;0.0455;
81127242049158;0.5314;0.0486;0.0285;
81127252177179;0.4931;0.0262;0.0317;
81127262264991;0.5463;0.0635;0.0434;
81127272372595;0.5208;0.0401;0.0274;
81127282471449;0.3877;-0.0228;-0.0120;
81127292581658;0.4260;0.0486;-0.0035;
81127302686137;0.6262;0.1796;0.0445;
81127312787179;0.5985;0.1743;0.0445;
81127322910616;0.2834;0.0742;-0.0024;
81127333001970;0.0788;0.0667;-0.0269;
81127343104783;-0.0149;0.0965;-0.0386;
81127353209783;-0.1981;0.0326;-0.0567;
81127363316137;-0.2502;0.0007;-0.0599;
81127373424783;-0.0650;0.1338;-0.0312;
81127383524783;0.0170;0.1850;-0.0375;
81127393624783;-0.1736;0.0838;-0.0887;
81127403746293;-0.2779;0.0656;-0.1036;
81127413846293;-0.1928;0.1200;-0.0897;
81127423946293;-0.2056;0.1061;-0.0855;
81127434061449;-0.2449;0.0838;-0.0919;
81127444161449;-0.2342;0.0965;-0.0983;
81127454261449;-0.2310;0.1189;-0.1079;
81127464375408;-0.2513;0.1189;-0.1217;
81127474475408;-0.2694;0.0667;-0.1419;
81127484575408;-0.2534;-0.0302;-0.1356;
81127494693949;-0.1971;-0.0174;-0.1089;
81127504793949;-0.1960;0.0710;-0.0876;
81127514893949;-0.2427;0.0710;-0.1164;
81127525025616;-0.2374;0.0156;-0.1419;
81127535125616;-0.1907;0.0603;-0.1483;
81127545225616;-0.1172;0.1562;-0.1142;
81127555329262;-0.1076;0.1445;-0.1121;
81127565429262;-0.1917;0.0997;-0.1409;
81127575529262;-0.1534;0.1711;-0.1515;
81127585640877;-0.1310;0.2020;-0.1441;
81127595740929;-0.3024;0.0624;-0.1675;
81127605840929;-0.2758;-0.0419;-0.1611;
81127615965668;-0.2193;-0.0546;-0.1345;
81127626065720;-0.1843;-0.0142;-0.1387;
81127636165720;-0.2013;0.0177;-0.1537;
81127646275929;-0.0852;0.0443;-0.1537;
81127656375929;0.0980;0.1051;-0.1249;
81127666475929;0.3292;0.1924;-0.0961;
81127676594574;0.4324;0.1999;-0.1068;
81127686694574;0.2780;0.0923;-0.1419;
81127696794574;0.1225;0.0337;-0.1483;
81127706916137;0.1001;0.0124;-0.1185;
81127717016137;0.1300;-0.0302;-0.1015;
81127727116137;0.2770;0.0007;-0.0940;
81127737224262;0.5272;0.0901;-0.0876;
81127747324262;0.7125;0.1391;-0.0780;
81127757424262;0.6699;0.0720;-0.0557;
81127767530043;0.5016;-0.0015;-0.0429;
81127777630043;0.4430;0.0060;-0.0482;
81127787730043;0.4366;0.0134;-0.0684;
81127797848533;0.2780;-0.0451;-0.0802;
81127807948533;0.0980;-0.0695;-0.0631;
81127818048533;0.1278;0.0209;-0.0365;
81127828174158;0.2003;0.0561;-0.0652;
81127838274158;0.0607;-0.0036;-0.0951;
81127848374158;-0.0810;0.0284;-0.0780;
81127858552595;-0.0895;0.1029;-0.0674;
81127868652595;-0.1651;0.0795;-0.0897;
81127878752595;-0.2120;0.0230;-0.1185;
81127888796554;-0.1790;0.0326;-0.1153;
81127898896554;-0.1566;0.0369;-0.0876;
81127908996554;-0.1406;0.0465;-0.0770;
81127919126502;-0.1577;-0.0047;-0.1089;
81127929226502;-0.1662;-0.0196;-0.1313;
81127939326502;-0.1843;0.0678;-0.1409;
81127949446970;-0.1619;0.1093;-0.2112;
81127959546918;-0.1321;0.0763;-0.2644;
81127969646970;-0.0991;0.0390;-0.2772;
81127979757387;-0.1321;-0.0121;-0.2485;
81127989857335;-0.1651;-0.0057;-0.2069;
81127999957335;-0.1481;0.0646;-0.1952;
81128010089627;-0.1214;0.1423;-0.2453;
81128020189627;-0.1161;0.1743;-0.3209;
81128030289627;-0.1385;0.1594;-0.3443;
81128040403793;-0.1427;0.1242;-0.3188;
81128050503845;-0.1161;0.1349;-0.2581;
81128060603845;-0.1140;0.1328;-0.2485;
81128070721345;-0.1300;0.1104;-0.3092;
81128080821397;-0.1715;0.0742;-0.3955;
81128090921397;-0.1417;0.0742;-0.4146;
81128101028116;-0.1076;0.0710;-0.3869;
81128111128116;-0.0703;0.0454;-0.3838;
81128121228116;-0.0991;0.0113;-0.3838;
81128131355616;-0.1406;-0.0025;-0.3869;
81128141455616;-0.1672;0.0092;-0.4029;
81128151555616;-0.1566;0.0507;-0.4072;
81128161664574;-0.1577;0.0337;-0.3955;
81128171764574;-0.1438;0.0007;-0.3774;
81128181864574;-0.1470;0.0433;-0.3561;
81128191978324;-0.1609;0.0827;-0.3486;
81128202078324;-0.1587;0.0731;-0.3433;
81128212178324;-0.1736;0.0379;-0.3209;
81128222296137;-0.1566;0.0763;-0.3166;
81128232396137;-0.1459;0.0901;-0.3198;
81128242496137;-0.1289;0.0316;-0.3102;
81128252599991;-0.1449;0.0049;-0.3028;
81128262699991;-0.1513;0.0401;-0.3156;
81128272799991;-0.1523;-0.0142;-0.3230;
81128282921554;-0.1363;-0.0503;-0.3102;
81128293021554;-0.1513;0.0188;-0.3134;
81128303121554;-0.1438;0.0134;-0.3252;
81128313240199;-0.1033;0.0071;-0.3443;
81128323340199;-0.0788;0.1093;-0.3475;
81128333440199;-0.0991;0.0944;-0.3433;
81128343555252;-0.0256;0.0028;-0.3507;
81128353655199;0.0799;0.0624;-0.3347;
81128363755199;0.0373;0.1455;-0.3262;
81128373887074;0.0927;0.0635;-0.3561;
81128383987074;0.2908;-0.0377;-0.3646;
81128394086636;0.3569;0.0177;-0.3316;
81128404191792;0.3409;0.0955;-0.3209;
81128414291792;0.4643;0.0230;-0.3358;
81128424391792;0.6869;-0.0217;-0.3060;
81128434511376;0.6997;0.1455;-0.3198;
81128444611376;0.7828;0.1498;-0.2623;
81128454711376;0.9479;-0.1153;-0.2783;
81128464822417;1.1523;-0.0802;-0.2794;
81128474922417;1.0650;0.0486;-0.2346;
81128485022417;1.1811;-0.0249;-0.2101;
81128495139917;1.3515;-0.0387;-0.1302;
81128505239917;1.2503;0.0667;-0.0578;
81128515339917;1.1363;0.0976;-0.0706;
81128525475438;1.1939;0.0784;-0.0567;
81128535575490;1.1630;0.0071;-0.0503;
81128545675438;1.0628;0.0316;-0.0354;
81128555773251;0.9181;0.0603;0.0029;
81128565873251;0.8510;-0.0281;0.0605;
81128575973251;0.7136;0.0177;0.0519;
81128586082886;0.5495;0.1029;0.0317;
81128596182886;0.5229;0.0092;0.0306;
81128606282886;0.4260;-0.0345;0.0189;
81128616423876;0.2759;0.0358;0.0530;
81128626523824;0.1726;0.0401;0.0605;
81128636623824;0.1225;0.0124;0.0349;
81128646715907;0.1438;-0.0313;0.0232;
81128656815855;0.1385;-0.0249;0.0061;
81128666915855;0.1513;0.0177;-0.0248;
81128677043251;0.1289;0.0113;0.0029;
81128687143251;0.1427;0.0145;0.0274;
81128697243251;0.1854;0.0134;0.0434;
81128707359136;0.2088;-0.0260;0.0434;
81128717459136;0.1768;-0.0940;0.0317;
81128727559136;0.1353;-0.1270;0.0083;
81128737668303;0.1363;-0.0057;0.0232;
81128747768303;0.1917;-0.0036;0.0264;
81128757868303;0.1758;-0.0482;0.0402;
81128767973459;0.1534;0.0667;0.0146;
81128778077834;0.1694;0.0997;-0.0003;
81128788182209;0.1640;0.0539;0.0434;
81128798300282;0.1427;0.0017;0.0573;
81128808404657;0.1694;0.0166;0.0605;
81128818509032;0.1907;0.1040;0.0445;
81128828622001;0.1981;0.0688;0.0562;
81128838726376;0.1523;-0.0132;0.0976;
81128848830751;0.1427;0.0177;0.0869;
81128858997001;0.1427;0.0624;0.1008;
81128869101376;0.1385;-0.0079;0.1210;
81128879205751;0.1470;-0.0471;0.1487;
81128889264605;0.1385;0.0081;0.1285;
81128899368980;0.1001;0.0774;0.1093;
81128909473355;0.0895;0.0806;0.1796;
81128919595126;0.0554;0.0443;0.2190;
81128929699501;0.0565;0.0901;0.2201;
81128939803876;-0.0277;0.1221;0.2031;
81128949881792;-0.1449;0.0486;0.2318;
81128959986167;-0.1534;0.0635;0.2606;
81128970090542;-0.2619;0.1519;0.2489;
81128980203147;-0.3407;0.1402;0.2297;
81128990307522;-0.4324;0.0071;0.2425;
81129000411897;-0.4888;0.0081;0.2531;
81129010518459;-0.5666;0.0007;0.2297;
81129020622834;-0.6145;-0.0503;0.1786;
81129030727209;-0.6742;-0.0589;0.1647;
81129040833980;-0.7189;-0.0748;0.1423;
81129050938355;-0.7434;-0.0535;0.1157;
81129061042730;-0.7189;-0.0185;0.1221;
81129071154813;-0.6955;0.0113;0.0955;
81129081259188;-0.6497;0.0465;0.0754;
81129091363563;-0.6294;0.0411;0.0466;
81129101472626;-0.5889;0.0369;0.0541;
81129111577001;-0.5559;0.0784;0.0445;
81129121681376;-0.5304;0.0273;0.0328;
81129131802626;-0.4877;0.0017;-0.0088;
81129141907001;-0.4856;0.0465;-0.0301;
81129152011376;-0.4888;-0.0908;-0.0407;
81129162108563;-0.4739;-0.1601;-0.0450;
81129172212938;-0.4238;-0.1057;-0.0557;
81129182317313;-0.4270;-0.0983;-0.0802;
81129192433667;-0.3269;-0.0759;-0.1121;
81129202538042;-0.2800;0.0049;-0.1036;
81129212642417;-0.2140;0.0561;-0.0812;
81129222750230;-0.1768;0.0348;-0.0823;
81129232854605;-0.1278;0.0624;-0.0759;
81129242958980;-0.1513;0.0379;-0.0652;
81129253064397;-0.1822;-0.0770;-0.0961;
81129263168772;-0.1268;-0.0292;-0.0674;
81129273273147;-0.1619;-0.0270;-0.0418;
81129283373980;-0.1704;-0.1760;-0.0716;
81129293478355;-0.1854;-0.1707;-0.0812;
81129303582730;-0.1758;-0.0398;-0.0620;
81129313690959;-0.1790;0.0113;-0.0674;
81129323795334;-0.1363;0.0060;-0.0482;
81129333899709;-0.1800;0.0624;-0.0482;
81129344007938;-0.1577;0.1626;-0.0812;
81129354112313;-0.2225;0.1317;-0.1238;
81129364216688;-0.1928;0.0401;-0.1004;
81129374350334;-0.1513;0.0678;-0.0748;
81129384454709;-0.1459;0.0742;-0.0770;
81129394559084;-0.1672;-0.0217;-0.1217;
81129404643355;-0.1672;-0.0089;-0.1366;
81129414747730;-0.1502;0.0209;-0.1398;
81129424852105;-0.1640;-0.0302;-0.1068;
81129434967105;-0.1577;-0.0951;-0.1100;
81129445071480;-0.1811;-0.0802;-0.1654;
81129455175855;-0.1044;-0.0025;-0.1409;
81129465279449;-0.1736;0.0443;-0.1494;
81129475383824;-0.1609;0.0049;-0.1249;
81129485488199;-0.1630;-0.0652;-0.1324;
81129495600751;-0.1715;-0.0546;-0.1441;
81129505705126;-0.1662;-0.0036;-0.1441;
81129515809501;-0.2140;-0.0451;-0.1590;
81129525925438;-0.1598;-0.0121;-0.1334;
81129536029813;-0.1704;0.0081;-0.1302;
81129546134188;-0.1747;-0.0716;-0.1409;
81129556233667;-0.1587;0.0252;-0.1505;
81129566338042;-0.1470;0.1743;-0.1611;
81129576442417;-0.1971;0.0976;-0.1387;
81129586547209;-0.1822;-0.0142;-0.1206;
81129596651584;-0.1726;-0.0398;-0.0791;
81129606755959;-0.2024;-0.0345;-0.1430;
81129616863355;-0.2523;-0.0919;-0.1441;
81129626967730;-0.1704;-0.1909;-0.0780;
81129637072105;-0.1363;-0.1622;-0.0759;
81129647189136;-0.0799;0.0869;-0.0983;
81129657293511;-0.1417;0.1413;-0.1025;
81129667397886;-0.2024;0.0252;-0.1047;
81129677495022;-0.1587;0.0667;-0.0759;
81129687599397;-0.1417;0.1551;-0.0887;
81129697703772;-0.1864;0.0944;-0.1004;
81129707807938;-0.1832;-0.0206;-0.0929;
81129717912313;-0.2003;-0.0482;-0.0929;
81129728016688;-0.1587;-0.0430;-0.0493;
81129738131792;-0.1854;-0.0356;-0.0652;
81129748236167;-0.2182;-0.0684;-0.0812;
81129758340542;-0.1640;-0.0748;-0.0652;
81129768481115;-0.1790;0.0028;-0.0535;
81129778586897;-0.1598;0.0220;-0.0493;
81129788692626;-0.1172;0.1328;-0.0727;
81129798769501;-0.1619;0.1253;-0.1015;
81129808875282;-0.1992;0.0049;-0.0439;
81129818981063;-0.1545;-0.0260;-0.0599;
81129829080542;-0.1236;0.0603;-0.1025;
81129839186324;-0.1150;0.0933;-0.0823;
81129849292105;-0.1704;0.0241;-0.0834;
81129859411220;-0.2225;-0.0983;-0.1025;
81129869517001;-0.0479;0.0348;-0.0908;
81129879622782;0.1353;0.2638;-0.0695;
81129889715907;0.0415;0.0795;-0.0578;
81129899821688;-0.1161;-0.2421;-0.0684;
81129909927470;-0.1193;-0.2495;-0.0716;
81129920072470;0.0352;-0.0908;-0.1004;
81129930178251;0.1300;-0.0015;-0.0631;
81129940284032;0.0405;-0.0409;-0.0471;
81129950370074;0.0234;0.0316;-0.0802;
81129960475855;0.1182;0.1519;-0.1132;
81129970581636;0.1438;0.0816;-0.1249;
81129980690282;0.1545;-0.0004;-0.1036;
81129990796063;0.1960;0.0550;-0.0866;
81130000901845;0.2077;0.0337;-0.0684;
81130010986845;0.0948;-0.1036;-0.0748;
81130021092626;-0.0309;-0.1558;-0.0578;
81130031198407;-0.0469;-0.1100;-0.1334;
81130041309345;-0.0085;-0.0270;-0.1707;
81130051415178;-0.0373;-0.0217;-0.1835;
81130061520907;-0.0245;-0.0249;-0.1792;
81130071621011;0.0309;0.0475;-0.2186;
81130081726792;0.0383;0.0103;-0.2495;
81130091832574;0.0714;-0.0196;-0.2517;
81130101946740;0.0778;0.0156;-0.2293;
81130112052522;0.1033;-0.0164;-0.2304;
81130122158303;0.1385;-0.0142;-0.2282;
81130132258563;0.1981;0.0497;-0.2261;
81130142364345;0.2141;-0.0206;-0.2261;
81130152470178;0.2429;-0.0887;-0.2250;
81130162566220;0.3228;-0.0324;-0.2314;
81130172672001;0.3983;0.0188;-0.2048;
81130182777782;0.3803;-0.0270;-0.1569;
81130192893511;0.3750;-0.0260;-0.1345;
81130202999292;0.4462;0.0699;-0.0940;
81130213105074;0.3824;0.0134;-0.0642;
81130223217678;0.2759;-0.0844;-0.0258;
81130233323459;0.3110;-0.0121;-0.0035;
81130243429240;0.3920;0.1008;-0.0067;
81130253513095;0.3398;0.0838;-0.0056;
81130263618876;0.1885;0.0273;0.0498;
81130273724657;0.0959;0.0188;0.0754;
81130283833511;0.1257;0.0348;0.0498;
81130293939292;0.1023;0.0081;0.0381;
81130304045074;0.1097;0.0145;0.0711;
81130314148928;0.0863;0.0262;0.0976;
81130324254761;0.1012;0.0124;0.0997;
81130334360490;0.0842;-0.0079;0.1317;
81130344468095;0.1001;0.0166;0.1530;
81130354573876;0.0991;0.0337;0.1498;
81130364679657;0.0799;0.0475;0.1509;
81130374796532;0.0426;-0.0047;0.1668;
81130384902365;0.0426;-0.0206;0.1573;
81130395008095;0.0660;0.0017;0.1317;
81130405113147;0.0756;-0.0196;0.1349;
81130415218928;0.0799;-0.0142;0.1349;
81130425324709;0.1001;0.0752;0.1146;
81130435420074;0.1140;0.1370;0.0944;
81130445525855;0.0703;0.0475;0.1040;
81130455631688;0.0511;-0.0514;0.1093;
81130465741011;0.0746;-0.0780;0.1370;
81130475846792;0.0724;-0.0812;0.1093;
81130485952574;0.0810;-0.0610;0.0636;
81130496051949;0.1257;-0.0068;0.0487;
81130506157730;0.1395;0.0262;0.0732;
81130516263511;0.1609;0.0145;0.0774;
81130526379136;0.0852;-0.0493;0.0869;
81130536484917;0.0852;-0.0674;0.0530;
81130546590699;0.1310;0.0166;0.0743;
81130556680178;0.0980;-0.0185;0.0912;
81130566785959;0.1033;-0.0514;0.0955;
81130576891740;0.1076;-0.0089;0.1285;
81130587004553;0.1076;0.0156;0.1157;
81130597110334;0.1427;0.0571;0.1125;
81130607216167;0.0575;-0.0578;0.0690;
81130617277157;0.0969;-0.0525;0.0923;
81130627382938;0.1321;0.0486;0.1360;
81130637488720;0.1150;0.0369;0.1626;
81130647645595;0.0767;0.0252;0.1636;
81130657751428;0.0873;0.0667;0.1551;
81130667857157;0.0895;0.0475;0.1903;
81130677956063;0.1055;0.0379;0.2265;
81130688061897;0.0810;0.0550;0.2371;
81130698167626;0.0628;0.0358;0.2084;
81130708265282;0.0458;0.0177;0.2233;
81130718371063;0.1001;0.0614;0.2553;
81130728476792;0.0778;0.1455;0.2947;
81130738589397;0.0288;0.1242;0.2776;
81130748695178;-0.0309;0.0656;0.2723;
81130758800959;-0.1779;-0.0260;0.2734;
81130768922105;-0.2640;-0.0706;0.2787;
81130779027626;-0.2257;-0.0004;0.2638;
81130789133147;-0.1885;0.0667;0.2201;
81130799224292;-0.2481;0.0646;0.2052;
81130809329813;-0.4068;0.0252;0.2212;
81130819435334;-0.5080;0.0017;0.1935;
81130829563563;-0.5485;0.0049;0.1562;
81130839669084;-0.5943;-0.0377;0.1051;
81130849774605;-0.6220;-0.0599;0.0722;
81130859849397;-0.6113;0.0017;0.0562;
81130869954917;-0.5921;-0.0036;-0.0067;
81130880060438;-0.5698;-0.0409;-0.0557;
81130890210542;-0.5399;-0.0047;-0.0578;
81130900316063;-0.5346;-0.0313;-0.0844;
81130910421584;-0.5868;-0.1473;-0.1057;
81130920493042;-0.5389;-0.1782;-0.1185;
81130930598563;-0.3684;-0.1036;-0.1377;
81130940704084;-0.1939;0.0017;-0.1185;
81130950811063;-0.1640;0.0475;-0.1611;
81130960916584;-0.1768;0.0678;-0.1718;
81130971022105;-0.1843;0.0507;-0.1515;
81130981125282;-0.2130;0.0017;-0.1270;
81130991230803;-0.1992;-0.0111;-0.0951;
81131001336324;-0.1683;0.0177;-0.1004;
81131011445647;-0.1470;0.0348;-0.1132;
81131021551167;-0.1438;0.0262;-0.0876;
81131031656688;-0.1577;0.0113;-0.0738;
81131041748772;-0.1609;-0.0089;-0.0589;
81131051854292;-0.1619;-0.0334;-0.0375;
81131061959813;-0.1353;-0.0079;0.0029;
81131072069397;-0.0362;0.0720;0.0136;
81131082174917;-0.0107;0.0933;0.0413;
81131092280438;-0.0671;0.0720;0.0349;
81131102396792;-0.0937;0.0763;0.0423;
81131112502313;-0.0628;0.0688;0.0381;
81131122607834;-0.0330;0.0688;0.0360;
81131132724605;-0.0341;0.0252;0.0636;
81131142830126;-0.0192;0.0635;0.0583;
81131152935647;0.0522;0.1157;0.0423;
81131163035699;0.0245;0.0923;0.0445;
81131173141220;-0.0394;0.1029;0.0253;
81131183246740;-0.0692;0.0465;0.0328;
81131193349188;-0.0692;-0.0100;0.0477;
81131203454709;-0.0586;-0.0111;0.0487;
81131213560230;-0.0671;-0.0578;0.0296;
81131223665126;-0.0639;-0.0610;0.0434;
81131233770647;-0.0810;-0.0802;0.0328;
81131243876167;-0.0937;-0.1302;0.0168;
81131253989397;-0.1268;-0.2144;-0.0003;
81131264094917;-0.0788;-0.0238;-0.0333;
81131274200438;-0.0501;0.1168;-0.0812;
81131284294188;-0.0075;0.1253;-0.0929;
81131294399709;-0.0266;0.0124;-0.1142;
81131304505230;0.0224;-0.0387;-0.0951;
81131314610438;0.0330;-0.0791;-0.1121;
81131324715959;0.0799;-0.0780;-0.1387;
81131334821480;0.1822;-0.0174;-0.1217;
81131344936949;0.3015;0.0081;-0.1164;
81131355042470;0.4004;-0.0461;-0.0738;
81131365147990;0.4569;-0.0238;-0.0322;
81131375255334;0.4952;0.0209;-0.0056;
81131385360855;0.5304;0.0294;0.0253;
81131395466376;0.5485;-0.0068;0.0827;
81131405570855;0.5282;-0.0228;0.1360;
81131415676376;0.5772;0.0177;0.1935;
81131425781897;0.5751;0.0443;0.1786;
81131435893876;0.4600;-0.0642;0.1594;
81131445999397;0.3004;-0.1973;0.1892;
81131456104917;0.2237;-0.1664;0.2254;
81131466204917;0.2024;-0.0951;0.2180;
81131476310438;0.2130;-0.1004;0.2084;
81131486415959;0.2418;0.0348;0.2052;
81131496508563;0.1704;0.1136;0.1807;
81131506614084;0.0969;0.0124;0.1913;
81131516719605;-0.0927;-0.0546;0.2169;
81131526845803;-0.3386;-0.0185;0.2233;
81131536951324;-0.4281;0.0081;0.2041;
81131547056845;-0.4238;-0.0100;0.1903;
81131557156792;-0.4888;-0.0281;0.1690;
81131567262313;-0.5282;-0.0132;0.1423;
81131577367834;-0.5090;-0.0142;0.1221;
81131587468042;-0.4537;-0.0025;0.0997;
81131597573563;-0.3865;0.0348;0.1285;
81131607679084;-0.3823;0.0060;0.1562;
81131617769709;-0.3077;0.0156;0.1541;
81131627875230;-0.1609;0.0795;0.1466;
81131637980751;-0.0980;0.0593;0.1658;
81131648114813;-0.1087;-0.0057;0.1807;
81131658220334;-0.0873;-0.0503;0.1860;
81131668325855;-0.1076;-0.1675;0.2009;
81131678457001;-0.0916;-0.1398;0.2031;
81131688562522;-0.0873;-0.0111;0.2126;
81131698668042;-0.1023;-0.0409;0.2052;
81131708712626;-0.1246;-0.0716;0.2244;
81131718818095;-0.1289;-0.0302;0.2340;
81131728923667;-0.1587;0.0113;0.2435;
81131739057001;-0.2109;0.0603;0.2116;
81131749162522;-0.2363;0.0869;0.2212;
81131759268042;-0.3130;0.0411;0.2627;
81131769369397;-0.4260;-0.0121;0.2766;
81131779474917;-0.4909;-0.0292;0.2403;
81131789580438;-0.5612;-0.0238;0.1999;
81131799717938;-0.6582;-0.0525;0.1754;
81131809823459;-0.6742;-0.0567;0.1423;
81131819928980;-0.7232;0.0081;0.1402;
81131830012730;-0.7743;0.0379;0.1221;
81131840118251;-0.7338;0.0401;0.1029;
81131850223772;-0.6624;0.0624;0.0816;
81131860329709;-0.6347;0.0241;0.0391;
81131870435230;-0.5612;-0.0015;0.0168;
81131880540751;-0.4803;0.0252;0.0072;
81131890635699;-0.4185;0.0539;0.0008;
81131900741220;-0.3695;0.1019;-0.0120;
81131910846740;-0.3375;0.0965;-0.0386;
81131920973147;-0.3535;0.0177;-0.0589;
81131931078667;-0.3780;-0.0387;-0.0929;
81131941184188;-0.3365;-0.0451;-0.1142;
81131951281063;-0.3088;0.0284;-0.1228;
81131961386584;-0.2758;0.0955;-0.1281;
81131971492105;-0.2875;0.0369;-0.1505;
81131981580126;-0.2587;-0.0004;-0.1590;
81131991685647;-0.2608;0.0507;-0.1419;
81132001791167;-0.2353;0.0806;-0.1398;
81132011905959;-0.2045;0.0230;-0.1537;
81132022011480;-0.1811;-0.0153;-0.1814;
81132032117001;-0.1427;0.0017;-0.1973;
81132042221897;-0.1300;0.0060;-0.2399;
81132052327417;-0.1161;0.0145;-0.2602;
81132062432938;-0.0810;0.0486;-0.2410;
81132072543615;-0.0554;0.0411;-0.2261;
81132082649136;-0.0138;0.0443;-0.2442;
81132092754657;0.0575;0.1296;-0.3102;
81132102853772;0.0959;0.1072;-0.2698;
81132112959292;0.0234;0.0220;-0.2346;
81132123064813;0.0575;-0.0610;-0.2122;
81132133173615;0.1321;-0.0876;-0.2410;
81132143279136;0.1513;-0.0876;-0.2442;
81132153384657;0.1811;-0.0249;-0.2144;
81132163515647;0.2067;0.0880;-0.1814;
81132173621167;0.2184;0.0358;-0.1558;
81132183726688;0.2525;-0.0153;-0.1505;
81132193798199;0.3473;0.0859;-0.1856;
81132203903720;0.4569;0.2020;-0.1739;
81132214009240;0.4366;0.1743;-0.1228;
81132224126688;0.4068;0.0465;-0.0993;
81132234232209;0.4611;0.0454;-0.0557;
81132244337730;0.4313;0.0763;-0.0429;
81132254431167;0.3451;-0.0493;-0.0067;
81132264536688;0.2514;-0.1313;0.0360;
81132274642209;0.1864;-0.0972;0.0413;
81132284756949;0.1907;0.0113;0.0605;
81132294862470;0.1310;0.0433;0.0795;
81132304967990;0.0969;0.0071;0.1136;
81132315076949;0.1001;0.0997;0.1509;
81132325182470;0.0746;0.1583;0.1679;
81132335287990;0.0309;0.0103;0.1445;
81132345394449;-0.0490;-0.0706;0.1061;
81132355499970;-0.1161;0.0518;0.0743;
81132365605490;-0.2024;0.0348;0.0615;
81132375728563;-0.3056;-0.1047;0.0615;
81132385834084;-0.3759;-0.1004;0.0125;
81132395939605;-0.4004;-0.0313;-0.0280;
81132406038355;-0.4079;0.0039;-0.0535;
81132416143876;-0.3365;-0.0409;-0.0631;
81132426249397;-0.2502;0.0113;-0.0780;
81132436342417;-0.1577;0.0816;-0.0834;
81132446447938;-0.0192;0.0688;-0.0844;
81132456553459;-0.0075;0.0635;-0.0237;
81132466651376;0.0117;0.1051;0.0040;
81132476756897;0.0927;0.1061;0.0115;
81132486862417;0.0884;0.0422;0.0328;
81132496973563;0.0298;-0.0025;0.0370;
81132507079084;0.0011;-0.0260;0.0029;
81132517184605;-0.0213;-0.0164;0.0157;
81132527294709;-0.0437;0.0060;0.0402;
81132537400230;-0.0426;-0.0004;0.0317;
81132547505751;-0.0501;0.0124;0.0210;
81132557605022;-0.0714;0.0550;0.0349;
81132567710542;-0.0873;0.0710;0.0541;
81132577816063;-0.0927;0.0880;0.0594;
81132587918042;-0.1172;0.1083;0.0658;
81132598023563;-0.1438;0.1051;0.0551;
81132608129084;-0.2077;0.0379;0.0530;
81132618245542;-0.2715;0.0486;0.0423;
81132628351063;-0.2843;0.0497;0.0455;
81132638456584;-0.3109;-0.0185;0.0562;
81132648592209;-0.3780;-0.0716;0.0391;
81132658697730;-0.4579;-0.0929;0.0061;
81132668803251;-0.5165;-0.0398;-0.0290;
81132678849813;-0.5293;-0.0068;-0.0578;
81132688955334;-0.4366;-0.0100;-0.0738;
81132699060855;-0.3802;-0.0121;-0.0929;
81132709190438;-0.3727;-0.0142;-0.1185;
81132719295959;-0.3301;0.0081;-0.1185;
81132729401480;-0.2651;0.0443;-0.1185;
81132739515230;-0.1949;0.0401;-0.1334;
81132749620751;-0.1790;0.0049;-0.1494;
81132759726272;-0.1875;-0.0132;-0.1483;
81132769903720;-0.1502;0.0145;-0.1473;
81132780009970;-0.1321;0.0209;-0.1249;
81132790116220;-0.1150;0.0603;-0.0919;
81132800157990;-0.0895;0.0624;-0.0983;
81132810264240;-0.0735;0.0795;-0.1089;
81132820370490;-0.0330;0.1072;-0.1121;
81132830476740;-0.1001;0.0869;-0.0876;
81132840582990;-0.1055;0.0624;-0.0386;
81132850689240;-0.1257;0.0443;-0.0099;
81132860778824;-0.1363;0.0145;-0.0429;
81132870885074;-0.1768;-0.0292;-0.0322;
81132880991324;-0.1981;0.0017;-0.0194;
81132891097886;-0.2088;-0.0387;-0.0429;
81132901204136;-0.2024;-0.0951;-0.0375;
81132911310386;-0.2003;-0.0599;-0.0599;
81132921423095;-0.2161;-0.0557;-0.0770;
81132931529345;-0.2278;-0.0387;-0.0780;
81132941635595;-0.2662;-0.0684;-0.0748;
81132951731845;-0.2406;-0.0855;-0.0770;
81132961838095;-0.2257;-0.0674;-0.0993;
81132971944345;-0.2321;-0.1153;-0.1622;
81132982044657;-0.1917;-0.0716;-0.1963;
81132992150907;-0.1683;-0.0324;-0.1941;
81133002257157;-0.1236;-0.0142;-0.2027;
81133012367678;-0.1033;0.0284;-0.2197;
81133022473928;-0.0756;0.0795;-0.2314;
81133032580178;-0.0341;0.1104;-0.2069;
81133042681063;0.0352;0.1189;-0.1750;
81133052787313;0.1150;0.0529;-0.1515;
81133062893563;0.1704;0.0252;-0.1153;
81133072997157;0.2258;0.0593;-0.1132;
81133083103407;0.2770;0.0795;-0.0908;
81133093209657;0.2471;-0.0015;-0.0418;
81133103319136;0.1907;-0.0823;-0.0109;
81133113425386;0.2035;-0.0430;0.0242;
81133123531636;0.1545;-0.0057;0.0264;
81133133639970;0.0160;-0.0206;-0.0035;
81133143746220;-0.0543;0.0156;0.0029;
81133153852470;-0.0597;0.0465;0.0200;
81133163949553;-0.0597;0.0326;0.0093;
81133174055803;-0.0842;0.0337;-0.0162;
81133184162053;-0.1097;0.0145;-0.0226;
81133194273095;-0.1491;0.0081;-0.0056;
81133204379345;-0.2342;-0.0100;-0.0194;
81133214485595;-0.2864;-0.0599;-0.0237;
81133224582261;-0.3152;-0.0228;-0.0535;
81133234688511;-0.3098;0.0348;-0.0802;
81133244794761;-0.2822;0.0358;-0.0780;
81133254900907;-0.2257;0.0028;-0.0684;
81133265007157;-0.1577;0.0039;-0.0482;
81133275113407;-0.1481;0.0358;-0.0450;
81133285218720;-0.1587;0.0454;-0.0450;
81133295324970;-0.1694;-0.0132;-0.0461;
81133305431220;-0.1683;-0.0471;-0.0333;
81133315528095;-0.1481;-0.0334;-0.0344;
81133325634345;-0.1427;-0.0164;-0.0578;
81133335740595;-0.1363;0.0177;-0.0823;
81133345847157;-0.0959;0.0784;-0.0940;
81133355953407;-0.0873;0.1019;-0.0983;
81133366059657;-0.0639;0.0742;-0.0866;
81133376180490;-0.0650;0.0326;-0.0748;
81133386286740;-0.0788;0.0145;-0.0716;
81133396392990;-0.0831;-0.0142;-0.0738;
81133406481220;-0.1055;-0.0599;-0.0706;
81133416587470;-0.1023;-0.0823;-0.0727;
81133426693720;-0.0788;-0.0419;-0.0706;
81133436804553;-0.0863;0.0113;-0.0993;
81133446910803;-0.1055;0.0326;-0.1100;
81133457017053;-0.1278;0.0262;-0.0993;
81133467116220;-0.1342;-0.0047;-0.0695;
81133477222470;-0.1300;-0.0409;-0.0727;
81133487328720;-0.1310;-0.0631;-0.0855;
81133497428199;-0.1630;-0.1079;-0.1089;
81133507534449;-0.1854;-0.1313;-0.1132;
81133517640699;-0.1779;-0.1068;-0.1174;
81133527758511;-0.1790;-0.0866;-0.1228;
81133537864761;-0.1427;-0.0451;-0.1196;
81133547971011;-0.1001;-0.0004;-0.1356;
81133558061324;-0.1204;0.0017;-0.1483;
81133568167574;-0.1310;0.0316;-0.1217;
81133578273824;-0.1204;0.0678;-0.0972;
81133588390595;-0.1278;0.1104;-0.1079;
81133598496845;-0.1353;0.1008;-0.1356;
81133608603095;-0.1278;0.0795;-0.1260;
81133618716428;-0.1012;0.0859;-0.1025;
81133628822678;-0.0756;0.1019;-0.0961;
81133638928928;-0.0703;0.0997;-0.1004;
81133649032990;-0.0692;0.0869;-0.0812;
81133659139240;-0.0852;0.0731;-0.0471;
81133669245438;-0.0767;0.0752;-0.0205;
81133679329032;-0.0884;0.0443;-0.0109;
81133689435282;-0.1225;-0.0525;-0.0109;
81133699541532;-0.1353;-0.0972;-0.0173;
81133709640699;-0.1044;-0.0111;0.0136;
81133719746949;-0.1513;-0.0430;-0.0045;
81133729853199;-0.1449;-0.0791;-0.0120;
81133739966428;-0.1704;-0.0684;-0.0045;
81133750072678;-0.2150;-0.1217;-0.0567;
81133760178928;-0.1960;-0.1260;-0.0706;
81133770279032;-0.1555;-0.0398;-0.0642;
81133780384136;-0.1417;-0.0174;-0.0834;
81133790489240;-0.1513;-0.0441;-0.1238;
81133800633876;-0.1161;-0.0228;-0.1206;
81133810738980;-0.1150;0.0156;-0.0951;
81133820844084;-0.1129;0.0028;-0.0727;
81133830913980;-0.1300;-0.0631;-0.0674;
81133841019032;-0.1310;-0.0419;-0.0791;
81133851124188;-0.1374;0.0017;-0.0844;
81133861242886;-0.1395;-0.0079;-0.0610;
81133871347990;-0.1374;-0.0196;-0.0589;
81133881453095;-0.1268;0.0081;-0.0525;
81133891561636;-0.1523;-0.0228;-0.0855;
81133901666740;-0.1683;-0.0631;-0.1100;
81133911771845;-0.1555;-0.0228;-0.1164;
81133921871324;-0.1513;-0.0036;-0.1430;
81133931976376;-0.1300;-0.0057;-0.1728;
81133942081480;-0.1055;-0.0089;-0.1920;
81133952196115;-0.1182;0.0198;-0.2059;
81133962301220;-0.0873;0.0571;-0.2431;
81133972406324;-0.0607;-0.0057;-0.2378;
81133982507678;-0.0415;-0.0185;-0.2208;
81133992612782;-0.0043;0.0252;-0.2080;
81134002717886;0.0096;-0.0089;-0.2101;
81134012826740;0.0192;-0.0610;-0.2016;
81134022931845;0.0714;-0.0791;-0.1718;
81134033036949;0.1118;-0.0567;-0.1622;
81134043148407;0.1513;0.0039;-0.2016;
81134053253511;0.1896;0.0507;-0.2037;
81134063358615;0.2162;0.0561;-0.1728;
81134073455334;0.2706;0.0411;-0.1483;
81134083560438;0.3089;0.0422;-0.1526;
81134093665542;0.3622;0.0550;-0.1270;
81134103781011;0.3228;0.0049;-0.0876;
81134113886115;0.2535;-0.0748;-0.0684;
81134123991220;0.2226;-0.0557;-0.0450;
81134134105074;0.2525;0.0294;-0.0450;
81134144210178;0.2727;0.0571;-0.0461;
81134154315282;0.2333;0.0188;0.0072;
81134164407730;0.1587;0.0081;0.0509;
81134174512782;0.1321;0.0252;0.0806;
81134184617886;0.0767;0.0049;0.0711;
81134194735907;0.0234;-0.0196;0.0541;
81134204841011;0.0288;-0.0366;0.0722;
81134214946115;0.0447;-0.0206;0.0562;
81134225050490;0.0362;-0.0111;0.0157;
81134235155595;0.0149;-0.0419;-0.0003;
81134245260699;0.0288;-0.0238;0.0391;
81134255367053;0.0277;-0.0047;0.0541;
81134265472157;0.0447;-0.0121;0.0626;
81134275577261;0.0639;0.0667;0.0487;
81134285681428;0.0597;0.0454;0.0381;
81134295786532;0.0405;-0.0302;0.0551;
81134305891636;0.0543;-0.0153;0.0795;
81134315991063;0.0469;0.0124;0.0859;
81134326096115;0.0373;0.0071;0.0647;
81134336201220;0.0256;-0.0260;0.0509;
81134346315178;0.0213;-0.0716;0.0679;
81134356420282;0.0628;-0.0557;0.0795;
81134366525386;0.0660;-0.0334;0.0594;
81134376634761;0.0458;-0.0535;0.0594;
81134386739865;0.0288;-0.0004;0.0816;
81134396844970;0.0490;0.0113;0.0827;
81134406946115;0.0543;-0.0036;0.0880;
81134417051167;0.0565;0.0348;0.0679;
81134427156272;0.0426;0.0358;0.0754;
81134437276220;0.0330;-0.0249;0.1125;
81134447381324;0.0170;-0.0695;0.1360;
81134457486428;0.0298;-0.0535;0.1615;
81134467577365;-0.0479;-0.1047;0.1509;
81134477682417;-0.0362;-0.1324;0.1242;
81134487787522;-0.0330;-0.1377;0.1519;
81134497891324;-0.0288;-0.1068;0.1636;
81134507996376;-0.0394;0.0390;0.1466;
81134518101532;-0.0288;0.1573;0.1146;
81134528247990;-0.0117;0.1871;0.1232;
81134538353147;-0.0660;0.1466;0.1349;
81134548458199;-0.1118;0.0795;0.1466;
81134558548720;-0.1854;0.1019;0.1519;
81134568653824;-0.2289;0.0997;0.1349;
81134578758980;-0.2056;-0.0281;0.1328;
81134588835542;-0.1790;-0.0663;0.1541;
81134598940595;-0.2342;-0.0228;0.1732;
81134609045699;-0.2214;-0.0430;0.1541;
81134619224345;-0.1726;-0.0716;0.1434;
81134629329449;-0.2003;-0.0313;0.1455;
81134639434553;-0.1726;0.0944;0.1594;
81134649480490;-0.1758;0.1796;0.1573;
81134659585595;-0.1672;0.1530;0.1328;
81134669690699;-0.1843;0.0134;0.1157;
81134679801115;-0.2481;-0.0578;0.1210;
81134689906220;-0.3045;-0.0716;0.1146;
81134700011324;-0.2822;-0.0716;0.0754;
81134710108876;-0.2214;-0.0546;0.0445;
81134720213928;-0.1704;-0.0589;0.0445;
81134730319032;-0.1885;-0.0642;0.0615;
81134740426688;-0.1619;-0.0313;0.0690;
81134750531740;-0.1587;0.0273;0.0413;
81134760636845;-0.1534;0.0710;0.0136;
81134770765647;-0.1449;0.0624;0.0370;
81134780871324;-0.1481;0.0348;0.0381;
81134790977105;-0.1523;0.0294;0.0200;
81134801070647;-0.1768;0.0049;-0.0152;
81134811176376;-0.1790;-0.0196;-0.0237;
81134821282157;-0.1768;-0.0324;-0.0056;
81134831388147;-0.1896;-0.0281;-0.0067;
81134841493876;-0.1939;0.0081;-0.0248;
81134851599657;-0.1854;0.0252;-0.0493;
81134861705438;-0.1150;0.0390;-0.0194;
81134871811167;-0.1150;0.0390;-0.0045;
81134881916897;-0.1577;0.0230;-0.0194;
81134892017053;-0.1843;0.0294;-0.0567;
81134902122834;-0.1896;0.0337;-0.0631;
81134912228615;-0.1960;0.0060;-0.0738;
81134922350126;-0.1609;0.0081;-0.0961;
81134932455855;-0.1928;0.0060;-0.1047;
81134942561636;-0.2374;0.0007;-0.1100;
81134952658042;-0.2449;-0.0015;-0.1004;
81134962763772;-0.2523;0.0284;-0.1142;
81134972869553;-0.2172;0.0529;-0.1217;
81134982971272;-0.1800;0.0209;-0.1334;
81134993077001;-0.1310;0.0220;-0.1292;
81135003182782;-0.1555;-0.0079;-0.1015;
81135013292417;-0.1694;-0.0174;-0.1036;
81135023398147;-0.1417;-0.0185;-0.0866;
81135033503928;-0.1672;-0.0004;-0.1015;
81135043608251;-0.1395;0.0337;-0.1238;
81135053713980;-0.1385;-0.0132;-0.1142;
81135063819761;-0.1353;-0.0025;-0.1132;
81135073927313;-0.1246;0.0816;-0.1206;
81135084032990;-0.1310;0.0252;-0.0983;
81135094138824;-0.1236;-0.0174;-0.0897;
81135104249605;-0.1481;0.0316;-0.0791;
81135114355282;-0.1481;0.0113;-0.0791;
81135124461115;-0.1118;0.0092;-0.1004;
81135134566949;-0.0905;0.0646;-0.1004;
81135144672678;-0.0639;0.0646;-0.0940;
81135154778459;-0.0692;0.0358;-0.0844;
81135164871845;-0.0650;0.0465;-0.1025;
81135174977626;-0.0458;0.0688;-0.1228;
81135185083355;-0.0554;0.0763;-0.1217;
81135195191792;-0.0501;0.0358;-0.1196;
81135205297522;-0.0490;0.0039;-0.1281;
81135215403303;-0.0373;0.0124;-0.1526;
81135225510855;-0.0767;-0.0313;-0.1760;
81135235616532;-0.0703;-0.0535;-0.1846;
81135245722365;-0.0426;0.0550;-0.1558;
81135255813511;-0.0724;-0.0164;-0.1664;
81135265919240;-0.0426;-0.1047;-0.1750;
81135276025022;-0.0320;-0.0196;-0.1632;
81135286142209;-0.0160;0.0156;-0.1696;
81135296247938;0.0064;-0.0132;-0.1803;
81135306353720;0.0426;-0.0121;-0.1963;
81135316457886;0.0969;0.0188;-0.2229;
81135326563667;0.1236;0.0401;-0.2005;
81135336669449;0.1108;-0.0185;-0.1952;
81135346779865;0.1619;-0.0578;-0.2005;
81135356885595;0.2269;-0.0142;-0.2091;
81135366991376;0.2248;0.0081;-0.1867;
81135377105230;0.2482;-0.0121;-0.1632;
81135387210959;0.2919;-0.0164;-0.1387;
81135397316740;0.3025;-0.0430;-0.1015;
81135407410022;0.2535;-0.0482;-0.0908;
81135417515751;0.2674;0.0209;-0.0674;
81135427621584;0.2599;0.0039;-0.0407;
81135437714970;0.2589;-0.0557;-0.0312;
81135447820751;0.2589;-0.0281;-0.0120;
81135457926480;0.1917;-0.0345;-0.0354;
81135468032574;0.1385;-0.0663;-0.0386;
81135478138355;0.0863;-0.1185;-0.0088;
81135488244136;0.0639;-0.1590;0.0029;
81135498353980;0.0692;-0.1121;-0.0333;
81135508459709;0.0639;-0.0196;-0.0620;
81135518565438;0.0703;-0.0493;-0.0834;
81135528666584;0.0660;-0.0887;-0.0610;
81135538772313;0.0543;-0.0334;-0.0450;
81135548878042;0.0959;0.0220;-0.0652;
81135558989032;0.1385;0.0688;-0.0652;
81135569094813;0.1630;0.0529;-0.0471;
81135579200542;0.1694;0.0230;-0.0301;
81135589308407;0.1651;0.0252;-0.0216;
81135599414136;0.1960;0.0294;-0.0450;
81135609519917;0.2237;0.0635;-0.0439;
81135619681688;0.2418;0.0869;-0.0003;
81135629787417;0.2684;0.0859;-0.0099;
81135639893147;0.3270;0.1274;-0.0194;
81135649959553;0.3526;0.1913;0.0104;
81135660065282;0.3110;0.1285;0.0477;
81135670171063;0.2248;-0.0196;0.0636;
81135680274188;0.2599;0.0422;0.0923;
81135690379865;0.1726;0.0390;0.1125;
81135700485699;0.1363;-0.0823;0.1051;
81135710581792;0.1278;-0.0525;0.1189;
81135720687522;0.1310;0.0252;0.1146;
81135730793303;0.1129;0.0081;0.1146;
81135740897730;0.0714;0.0134;0.0806;
81135751003459;0.0586;0.0816;0.0754;
81135761109240;0.0394;0.0656;0.0955;
81135771228772;0.0330;-0.0398;0.1146;
81135781334449;-0.0330;-0.0727;0.0923;
81135791440178;-0.0980;-0.0567;0.0859;
81135801541792;-0.1502;-0.0897;0.0605;
81135811647470;-0.1300;-0.1079;0.0562;
81135821753199;-0.1321;-0.0663;0.0636;
81135831856688;-0.1545;-0.0471;0.0562;
81135841962365;-0.1055;-0.0356;0.0700;
81135852068095;-0.0703;-0.0004;0.1083;
81135862173563;-0.1257;-0.0015;0.0848;
81135872279240;-0.0895;0.0209;0.0955;
81135882384970;-0.0043;0.0145;0.0690;
81135892492626;-0.0032;-0.0036;0.0594;
81135902598303;-0.0490;-0.0174;0.0816;
81135912704032;-0.0288;-0.0036;0.0626;
81135922807626;0.0075;0.0518;0.0381;
81135932913303;0.0383;0.0603;0.0413;
81135943019032;0.0426;0.0774;0.0668;
81135953127522;0.0330;0.0742;0.0700;
81135963233199;0.0330;0.0603;0.0795;
81135973338928;0.0064;0.0348;0.0987;
81135983429084;-0.0107;-0.0270;0.0997;
81135993534761;-0.0234;-0.0377;0.1125;
81136003640490;-0.0437;0.0294;0.1189;
81136013762105;-0.0714;0.0241;0.1274;
81136023867782;-0.1513;-0.0866;0.1029;
81136033973511;-0.1843;-0.0940;0.0562;
81136044071897;-0.1587;0.0454;0.0573;
81136054177574;-0.2491;0.0060;0.0402;
81136064283303;-0.2587;-0.0972;-0.0056;
81136074397001;-0.2321;-0.0525;-0.0099;
81136084502678;-0.3088;-0.0270;-0.0216;
81136094608407;-0.3205;-0.0652;-0.0599;
81136104716376;-0.2619;-0.0302;-0.0716;
81136114822053;-0.2672;-0.0356;-0.0812;
81136124927782;-0.2395;-0.0111;-0.0983;
81136135033980;-0.1971;0.1285;-0.0610;
81136145139657;-0.1598;0.1605;-0.0589;
81136155245386;-0.0149;0.1338;-0.0674;
81136165337209;-0.0650;0.1210;-0.0642;
81136175442886;-0.0842;0.1157;-0.0620;
81136185548615;-0.0479;0.0848;-0.0237;
81136195655126;-0.0479;0.0379;-0.0056;
81136205760803;-0.0341;0.0230;-0.0162;
81136215866532;-0.0138;0.0113;-0.0056;
81136225970230;-0.0703;-0.0015;0.0168;
81136236075907;-0.0873;0.0252;0.0104;
81136246181636;-0.0810;0.0912;0.0242;
81136256283147;-0.1033;0.1146;0.0221;
81136266388824;-0.0937;0.0614;0.0317;
81136276494553;-0.0746;0.0635;0.0626;
81136286601167;-0.0788;0.0486;0.0636;
81136296706845;-0.1012;-0.1142;0.0562;
81136306812574;-0.1459;-0.1515;0.0264;
81136316921376;-0.1278;-0.0674;0.0115;
81136327027053;-0.1577;-0.0482;0.0040;
81136337132782;-0.1395;-0.0599;-0.0024;
81136347230074;-0.1289;-0.0535;-0.0141;
81136357335751;-0.1182;-0.0356;-0.0290;
81136367441428;-0.1087;-0.0132;-0.0120;
81136377553563;-0.0969;-0.0398;-0.0130;
81136387659240;-0.0980;-0.0812;-0.0194;
81136397764970;-0.1150;-0.0567;-0.0248;
81136407861480;-0.0873;-0.1174;-0.0237;
81136417967157;-0.0799;-0.1675;-0.0056;
81136428072886;-0.0692;-0.0770;-0.0173;
81136438180959;-0.0607;-0.0567;-0.0354;
81136448286636;-0.0330;-0.0802;-0.0418;
81136458392365;-0.0298;-0.0270;-0.0557;
81136468561376;-0.0138;-0.0047;-0.0439;
81136478667053;0.0320;0.0103;-0.0471;
81136488772782;0.0522;-0.0079;-0.0482;
81136498837626;0.0373;-0.0430;-0.0855;
81136508943251;0.0330;-0.0398;-0.1068;
81136519049032;0.0362;-0.0004;-0.1015;
81136529149397;0.0618;-0.0089;-0.0503;
81136539255074;0.0288;-0.0589;-0.0450;
81136549360803;0.0330;-0.0451;-0.0546;
81136559454084;0.0149;-0.0409;-0.0471;
81136569559761;0.0224;-0.0334;-0.0407;
81136579665490;0.0309;0.0348;-0.0535;
81136589776688;0.0117;-0.0185;-0.0503;
81136599882365;-0.0160;-0.0897;-0.0706;
81136609988095;-0.0149;-0.0557;-0.0940;
81136620105230;-0.0202;0.0049;-0.0940;
81136630210907;0.0213;0.0752;-0.0780;
81136640316636;0.0362;0.0582;-0.0855;
81136650407313;0.0234;-0.0503;-0.1206;
81136660512990;0.0373;-0.0897;-0.1164;
81136670618720;0.0096;-0.0929;-0.1142;
81136680741272;0.0394;-0.0249;-0.1015;
81136690846949;0.0767;0.0816;-0.0897;
81136700952678;0.0820;0.0859;-0.0802;
81136711046480;0.1332;0.0316;-0.0897;
81136721152157;0.1917;0.0688;-0.0919;
81136731257886;0.2173;0.1061;-0.0578;
81136741361063;0.2035;0.0486;-0.0642;
81136751466740;0.2855;0.0475;-0.0919;
81136761572470;0.3409;0.1104;-0.0535;
81136771684917;0.2993;0.0795;0.0051;
81136781790542;0.2610;-0.0270;0.0061;
81136791896167;0.2130;-0.0759;-0.0333;
81136801999709;0.1832;-0.0557;-0.0375;
81136812105334;0.1257;0.0316;-0.0354;
81136822210959;0.1427;0.0912;-0.0344;
81136832307209;0.1577;0.0848;-0.0375;
81136842412834;0.1449;0.0635;-0.0248;
81136852518459;0.1225;0.0252;0.0029;
81136862646688;0.1246;-0.0036;0.0019;
81136872752313;0.1321;-0.0174;-0.0184;
81136882857938;0.1172;-0.0482;-0.0226;
81136892939605;0.0937;-0.0281;-0.0482;
81136903045230;0.1087;0.0156;-0.0514;
81136913150855;0.1140;-0.0004;-0.0333;
81136923274917;0.1172;0.0017;-0.0375;
81136933380542;0.1140;-0.0142;-0.0365;
81136943486167;0.0767;-0.0876;-0.0312;
81136953572626;0.0746;-0.0631;-0.0269;
81136963678251;0.1182;0.0028;-0.0162;
81136973783876;0.1076;-0.0451;-0.0184;
81136983899501;0.1172;-0.0419;-0.0152;
81136994005126;0.1236;0.0390;0.0264;
81137004110751;0.1491;0.0241;0.0445;
81137014220542;0.1971;0.0230;0.0498;
81137024326167;0.2077;0.0784;0.0615;
81137034431792;0.2205;0.0401;0.0178;
81137044535022;0.1907;-0.0089;0.0296;
81137054640647;0.1672;-0.0409;0.0923;
81137064746272;0.1374;-0.0546;0.1125;
81137074845647;0.0969;-0.0514;0.1104;
81137084951272;0.0767;-0.1015;0.0955;
81137095056897;0.0756;-0.1111;0.1093;
81137105163980;0.0788;-0.0196;0.1317;
81137115269605;0.0618;0.0017;0.1328;
81137125375230;0.0767;0.0348;0.1274;
81137135499605;0.0714;0.0987;0.1338;
81137145605230;0.0714;0.0635;0.1455;
81137155710855;0.0597;0.0092;0.1700;
81137165798667;0.0341;0.0071;0.1690;
81137175904292;0.0011;-0.0121;0.1455;
81137186009917;-0.0117;-0.0174;0.1242;
81137196122313;-0.0224;0.0284;0.1125;
81137206227938;-0.0383;-0.0206;0.1306;
81137216333563;-0.0597;0.0092;0.1434;
81137226448355;-0.0820;0.0624;0.1317;
81137236553980;-0.0820;-0.0089;0.1210;
81137246659605;-0.0788;-0.0249;0.1083;
81137256740542;-0.1225;-0.0387;0.1051;
81137266846167;-0.2130;-0.0897;0.1061;
81137276951792;-0.3152;-0.0493;0.0955;
81137287088772;-0.2800;0.0337;0.0605;
81137297194397;-0.1640;0.0646;0.0466;
81137307300022;-0.0991;0.0337;0.0338;
81137317379188;-0.0884;-0.0015;0.0253;
81137327484813;-0.0618;-0.0004;0.0061;
81137337590438;-0.0352;-0.0174;-0.0152;
81137347691688;-0.0447;-0.0780;-0.0024;
81137357797313;-0.0298;-0.1174;0.0370;
81137367902938;-0.0298;-0.0281;0.0455;
81137378009501;-0.0330;0.0134;0.0168;
81137388115126;-0.0447;-0.0196;0.0008;
81137398220751;-0.0309;0.0497;0.0115;
81137408308511;-0.0202;0.1104;0.0072;
81137418414136;0.0160;0.1274;0.0061;
81137428519761;0.0064;0.1668;0.0200;
81137438631792;0.0011;0.0901;0.0530;
81137448737417;-0.0341;-0.0535;0.0997;
81137458843042;-0.0479;-0.0791;0.1029;
81137469016376;-0.0394;-0.0727;0.0658;
81137479122001;-0.0490;-0.0334;0.0477;
81137489227626;-0.0639;0.0369;0.0232;
81137499276167;-0.0479;0.0699;0.0296;
81137509381792;-0.0277;0.1200;0.0615;
81137519487417;-0.0288;0.1743;0.0658;
81137529598042;-0.0330;0.1338;0.0668;
81137539703667;-0.0724;0.0294;0.0901;
81137549809292;-0.1204;-0.0503;0.0880;
81137559905438;-0.1342;-0.1100;0.0763;
81137570011063;-0.1076;-0.1132;0.0668;
81137580116688;-0.0969;-0.0834;0.0445;
81137590252678;-0.1140;-0.1047;0.0519;
81137600358303;-0.1736;-0.1462;0.0827;
81137610463928;-0.2120;-0.1920;0.0732;
81137620561792;-0.1896;-0.1494;0.0445;
81137630667417;-0.2715;0.0241;-0.0162;
81137640773042;-0.4015;0.0635;-0.0375;
81137650877313;-0.2204;-0.0142;-0.0397;
81137660982938;-0.0522;-0.0217;-0.0482;
81137671088563;-0.1598;-0.0292;-0.0855;
81137681186376;-0.1246;-0.0004;-0.1121;
81137691292001;-0.1055;0.0156;-0.1079;
81137701397626;-0.0703;0.0230;-0.0961;
81137711505282;0.0000;0.1178;-0.0631;
81137721610907;0.0192;0.1839;-0.0578;
81137731716532;0.0778;0.1029;-0.0514;
81137741819605;0.0746;-0.0228;0.0178;
81137751925230;0.0916;-0.0270;0.0573;
81137762030855;0.1257;0.0007;0.0690;
81137772141897;0.0597;-0.0153;0.0806;
81137782247522;-0.0682;0.0454;0.0423;
81137792353147;-0.0298;0.0869;0.0402;
81137802463251;-0.0660;-0.0228;0.0754;
81137812568876;-0.0873;-0.0961;0.0551;
81137822674501;-0.0873;0.0230;0.0178;
81137832778042;-0.1108;0.0827;-0.0056;
81137842883667;-0.0937;-0.0079;-0.0056;
81137852989292;-0.0810;-0.0770;0.0019;
81137863106584;-0.0937;-0.0908;0.0040;
81137873212209;-0.1033;-0.0855;-0.0301;
81137883317834;-0.1385;-0.1419;-0.0471;
81137893400230;-0.0948;-0.1174;-0.0216;
81137903505855;-0.0394;0.0550;0.0061;
81137913611480;-0.0650;0.0901;-0.0152;
81137923728667;-0.0852;0.1296;0.0008;
81137933834292;-0.0447;0.1402;-0.0120;
81137943939917;-0.0394;0.0230;0.0328;
81137954046949;-0.0799;-0.0461;0.0413;
81137964152574;-0.0895;-0.0780;0.0178;
81137974258199;-0.1353;-0.0631;-0.0045;
81137984359032;-0.1406;0.0124;0.0040;
81137994464657;-0.1587;-0.0345;0.0072;
81138004570282;-0.0969;-0.0525;-0.0205;
81138014683459;-0.0991;0.0177;-0.0386;
81138024789084;-0.0767;0.0720;-0.0567;
81138034894709;-0.0288;0.1413;-0.0471;
81138044996897;-0.0202;0.1349;-0.0365;
81138055102522;0.0085;0.0624;-0.0109;
81138065208147;0.0085;0.0358;-0.0056;
81138075326272;0.0192;0.0475;-0.0216;
81138085431897;-0.0170;0.0081;-0.0620;
81138095537522;-0.0256;-0.0345;-0.0684;
81138105632105;0.0192;0.0795;-0.0578;
81138115737730;0.0341;0.1807;-0.0429;
81138125843355;-0.0107;0.1008;-0.0663;
81138135960438;-0.0234;-0.0100;-0.0407;
81138146066063;-0.0437;-0.0228;0.0136;
81138156171688;-0.0607;-0.0238;0.0168;
81138166264605;-0.0703;-0.0121;-0.0003;
81138176370230;-0.0522;-0.0111;-0.0525;
81138186475855;-0.0458;-0.0281;-0.0599;
81138196580022;-0.0522;-0.0228;-0.0237;
81138206685647;-0.0692;-0.0292;-0.0226;
81138216791272;-0.0426;-0.0471;-0.0280;
81138226901584;-0.0639;-0.0121;-0.0716;
81138237007209;-0.0202;0.0720;-0.0887;
81138247112834;-0.0234;0.0060;-0.0642;
81138257189605;-0.0330;-0.0642;-0.0599;
81138267295230;-0.0511;-0.1047;-0.0908;
81138277400855;-0.0618;-0.0409;-0.1047;
81138287537522;-0.0501;0.0177;-0.0951;
81138297643147;-0.0543;-0.0642;-0.1142;
81138307748772;-0.0075;-0.0844;-0.1111;
81138317854084;-0.0075;-0.0015;-0.0727;
81138327959709;-0.0266;0.0103;-0.0855;
81138338065334;0.0277;-0.0121;-0.0834;
81138348162938;0.0415;-0.0132;-0.0631;
81138358268563;0.0383;-0.0866;-0.0684;
81138368374188;0.0426;-0.1249;-0.0620;
81138378545334;0.0639;-0.0493;-0.0876;
81138388650959;0.0522;0.0944;-0.0780;
81138398756584;0.0298;0.0486;-0.0844;
81138408796792;0.1001;-0.1153;-0.0791;
81138418902417;0.1917;-0.0451;-0.0493;
81138429008042;0.1214;0.0507;-0.0525;
81138439163980;-0.0011;-0.0206;-0.0471;
81138449269605;0.0426;-0.0589;-0.0173;
81138459375230;0.0991;-0.0142;-0.0120;
81138469445126;0.0895;0.0326;-0.0344;
81138479550751;0.0138;-0.0185;-0.0557;
81138489656376;0.0266;-0.0791;-0.0333;
81138499737522;0.0383;-0.0292;-0.0205;
81138509843147;0.0756;0.1423;-0.0067;
81138519948772;0.0969;0.1690;0.0040;
81138530085022;0.0842;0.0933;-0.0099;
81138540190647;0.0905;0.0134;0.0040;
81138550296272;0.0682;-0.0897;0.0253;
81138560379605;0.0234;-0.1430;0.0306;
81138570485230;0.0213;-0.0387;0.0072;
81138580590855;0.0298;0.0923;0.0221;
81138590691792;0.0011;-0.0206;0.0200;
81138600797417;-0.0213;-0.1867;0.0189;
81138610903042;-0.0415;-0.0823;-0.0067;
81138621016480;-0.0011;0.0827;-0.0077;
81138631122105;-0.0192;0.0124;-0.0088;
81138641227730;0.0277;-0.0196;-0.0035;
81138651350647;0.0437;0.0507;-0.0120;
81138661456272;0.0490;0.0220;-0.0237;
81138671561897;0.0501;-0.0706;-0.0216;
81138681662313;0.0021;-0.1814;-0.0663;
81138691767938;0.0511;-0.0345;-0.0429;
81138701873563;0.0799;0.1381;-0.0546;
81138711968147;0.1108;0.0337;-0.0535;
81138722073772;0.0597;-0.0409;-0.0375;
81138732179397;0.0394;-0.0313;0.0008;
81138742291897;0.0373;-0.0047;0.0125;
81138752397522;0.0107;-0.0366;-0.0056;
81138762503147;0.0160;-0.0780;-0.0067;
81138772606272;0.0309;-0.0324;0.0200;
81138782711949;0.0266;-0.0238;0.0146;
81138792817626;0.0160;-0.0759;0.0146;
81138802921584;0.0234;-0.0313;0.0146;
81138813027261;0.0245;-0.0164;0.0498;
81138823132938;-0.0043;-0.1036;0.0328;
81138833233772;0.0192;-0.0514;-0.0003;
81138843339449;0.0266;0.0422;0.0061;
81138853445126;0.0426;-0.0111;0.0040;
81138863568667;0.0266;-0.0419;0.0061;
81138873674345;0.0202;-0.0004;0.0146;
81138883780022;-0.0117;-0.0292;0.0146;
81138893876688;-0.0383;-0.0100;0.0264;
81138903982365;-0.0085;0.0220;0.0285;
81138914088042;-0.0032;0.0113;0.0466;
81138924200855;0.0149;0.0422;0.0445;
81138934306532;0.0234;0.0454;0.0413;
81138944412209;0.0107;0.0166;0.0722;
81138954506376;0.0128;-0.0409;0.0933;
81138964612053;-0.0245;-0.0716;0.1051;
81138974717730;-0.0309;0.0049;0.0944;
81138984836584;-0.0320;0.1434;0.0498;
81138994942261;0.0043;0.2009;0.0487;
81139005047938;0.0043;0.1615;0.0594;
81139015146480;-0.0234;0.1083;0.0583;
81139025252157;-0.0320;0.0646;0.0583;
81139035357834;-0.0618;0.0965;0.0605;
81139045465959;-0.0863;0.1210;0.0647;
81139055571636;-0.0533;0.0955;0.0136;
81139065677313;-0.0863;0.0134;0.0317;
81139075782626;-0.0682;0.0145;0.0784;
81139085888303;-0.0597;-0.0206;0.1051;
81139095993980;-0.0352;-0.0249;0.1029;
81139106094397;-0.0426;0.0316;0.0795;
81139116200074;-0.0458;0.0784;0.0976;
81139126305751;-0.0714;0.0838;0.1232;
81139136410751;-0.0554;0.1051;0.1019;
81139146516428;-0.0948;0.0646;0.0987;
81139156622105;-0.1523;0.0134;0.0636;
81139166721376;-0.0479;0.0422;0.0328;
81139176827053;-0.0511;0.0188;0.0498;
81139186932730;-0.0810;-0.0334;0.0328;
81139197044292;-0.0842;-0.0834;0.0317;
81139207149970;-0.1012;-0.1004;0.0647;
81139217255647;-0.0831;-0.0610;0.0743;
81139227359032;-0.1182;-0.1782;0.0477;
81139237464709;-0.1395;-0.1963;0.0008;
81139247570386;-0.0522;0.0507;0.0285;
81139257705022;-0.1694;0.0262;0.0583;
81139267810699;-0.0895;-0.0217;0.0605;
81139277916376;-0.0884;0.0529;0.0381;
81139287979605;-0.0692;0.0593;0.0019;
81139298085282;-0.0149;0.0326;0.0413;
81139308190959;-0.0256;-0.0153;0.0370;
81139318336480;-0.0298;-0.0983;-0.0003;
81139328442157;-0.0714;-0.1174;-0.0109;
81139338547834;-0.1033;-0.1899;-0.0035;
81139348619553;-0.0884;-0.1249;-0.0280;
81139358725230;-0.0447;0.0539;-0.0226;
81139368830907;-0.0905;-0.0196;-0.0152;
81139378992105;-0.0277;-0.1164;-0.0173;
81139389097782;-0.0810;-0.0430;-0.0024;
81139399203459;-0.0767;0.0156;0.0019;
81139409264501;-0.0298;0.1072;0.0210;
81139419370126;0.0000;0.1242;0.0051;
81139429475855;-0.0810;-0.0313;-0.0173;
81139439596792;-0.0234;-0.0132;-0.0035;
81139449702470;-0.0628;0.0081;0.0168;
81139459808147;-0.0554;-0.0535;0.0178;
81139469916897;0.0096;-0.0100;0.0168;
81139480022574;-0.0426;0.0230;0.0072;
81139490128251;-0.0660;-0.0695;0.0061;
81139500206480;-0.0170;-0.1047;0.0413;
81139510312157;-0.0479;-0.1153;0.0763;
81139520417834;-0.1023;-0.1398;0.0774;
81139530517522;-0.0895;-0.1451;0.0498;
81139540623199;-0.1076;-0.1654;0.0370;
81139550728876;-0.1044;-0.0610;0.0210;
81139560847417;-0.0831;0.1125;0.0274;
81139570953095;-0.0746;0.0912;0.0690;
81139581058772;-0.0788;0.0433;0.0573;
81139591150699;-0.0533;0.0742;0.0029;
81139601256376;-0.0543;0.0827;-0.0237;
81139611362053;-0.0501;0.0465;-0.0045;
81139621467626;-0.0501;-0.0398;0.0051;
81139631573303;-0.0447;-0.0727;0.0029;
81139641678980;-0.0607;-0.0716;0.0242;
81139651782313;-0.0714;-0.0132;0.0061;
81139661887990;-0.1033;-0.0345;-0.0258;
81139671993667;-0.0788;0.0710;-0.0301;
81139682120438;-0.0724;0.2425;-0.0120;
81139692226115;-0.0447;0.1945;0.0253;
81139702331792;-0.0469;0.0582;0.0509;
81139712435647;-0.0213;0.0209;0.0466;
81139722541324;-0.0810;-0.1270;0.0306;
81139732647001;-0.1001;-0.2431;0.0445;
81139742758042;-0.1513;-0.1931;0.0328;
81139752863720;-0.1811;-0.0004;-0.0280;
81139762969397;-0.2013;0.1008;-0.0738;
81139773073667;-0.1875;-0.0015;-0.1387;
81139783179397;-0.0511;0.0433;-0.1228;
81139793285126;-0.0202;0.2680;-0.1025;
81139803394188;-0.0607;0.2158;-0.1047;
81139813499917;-0.0533;0.0667;-0.1409;
81139823605647;0.0192;0.0806;-0.1047;
81139833697157;-0.0597;-0.0292;-0.0045;
81139843802938;-0.0863;-0.2410;-0.0088;
81139853908667;-0.0660;-0.1281;-0.1142;
81139864015595;-0.1609;0.0795;-0.1324;
81139874121376;-0.1076;0.1264;-0.0855;
81139884227105;-0.0501;0.1434;-0.0546;
81139894345282;-0.0149;0.1913;-0.0482;
81139904451011;-0.0224;0.2627;-0.0141;
81139914556740;-0.0085;0.2659;0.0093;
81139924676688;-0.0469;0.0305;0.0445;
81139934782417;-0.0788;-0.0164;0.0658;
81139944888147;-0.0618;0.0593;0.0530;
81139954974605;-0.0714;-0.0228;0.0242;
81139965080334;-0.0458;-0.1324;-0.0141;
81139975186063;-0.0714;-0.1824;-0.0226;
81139985302522;-0.1278;-0.1100;0.0061;
81139995408303;-0.0746;0.0475;-0.0162;
81140005513980;-0.0820;0.0923;-0.0375;
81140015606376;-0.0969;0.0305;-0.0397;
81140025712105;-0.0128;0.2105;-0.0226;
81140035817834;-0.0884;0.1626;0.0072;
81140045924084;-0.1332;-0.1004;0.0178;
81140056029813;-0.0746;-0.0855;0.0285;
81140066135542;-0.0884;-0.0589;0.0051;
81140076242313;-0.0479;-0.0482;-0.0834;
81140086348042;-0.0671;-0.0196;-0.0759;
81140096453720;-0.0842;-0.0738;-0.0365;
81140106547209;-0.0511;-0.0557;-0.0077;
81140116652886;-0.0703;-0.0557;0.0029;
81140126758667;-0.1353;-0.1345;-0.0439;
81140136876063;-0.0660;-0.0567;-0.0482;
81140146981792;-0.0586;0.1743;-0.0514;
81140157087522;-0.0660;0.1466;-0.0162;
81140167199970;-0.0778;-0.0802;0.0051;
81140177305699;-0.0501;-0.1260;-0.0301;
81140187411428;-0.0820;-0.0535;-0.0493;
81140197508355;-0.0554;0.0571;-0.0280;
81140207614032;-0.0682;-0.0004;-0.0194;
81140217719761;-0.0320;-0.0855;-0.0333;
81140227818095;-0.0234;-0.0631;-0.0514;
81140237923824;-0.0266;-0.0121;-0.0482;
81140248029605;-0.0746;0.0369;-0.0567;
81140258132209;-0.0490;0.2158;-0.0695;
81140268237938;-0.0405;0.3000;-0.0439;
81140278343615;-0.0021;0.0848;-0.0141;
81140288497417;0.0181;-0.1313;-0.0130;
81140298603147;0.0320;-0.1079;-0.0162;
81140308708824;-0.0565;-0.0260;-0.0365;
81140318798667;-0.0916;0.0262;-0.0269;
81140328904345;-0.0778;-0.0089;-0.0077;
81140339010074;-0.0692;-0.0589;0.0115;
81140349111688;-0.0575;-0.0377;0.0157;
81140359217417;-0.0831;0.0316;-0.0237;
81140369323147;-0.1118;0.0624;-0.0194;
81140379415074;-0.0831;0.0475;0.0157;
81140389520803;-0.0373;0.0326;0.0019;
81140399626532;-0.0234;-0.0451;0.0051;
81140409728667;-0.0181;-0.0535;0.0178;
81140419834345;-0.0501;0.0209;-0.0120;
81140429940074;-0.0437;0.0710;-0.0503;
81140440029240;-0.0522;0.0358;-0.0642;
81140450134970;-0.0660;-0.1025;-0.0972;
81140460240699;-0.0341;-0.1483;-0.1068;
81140470374449;-0.0458;-0.0620;-0.1174;
81140480480230;-0.0181;0.1040;-0.1228;
81140490585907;0.0043;0.1178;-0.1302;
81140500677417;0.0181;0.0188;-0.1036;
81140510783147;-0.0043;-0.0897;-0.0802;
81140520888876;0.0373;-0.0887;-0.0727;
81140530994292;0.0735;-0.0025;-0.0578;
81140541100022;0.0192;0.0156;-0.0684;
81140551205751;0.0575;-0.0578;-0.0727;
81140561312938;0.0959;-0.0812;-0.0503;
81140571418667;0.0746;-0.0834;-0.0546;
81140581524345;0.1353;-0.0759;-0.0695;
81140591627313;0.1609;-0.0228;-0.0652;
81140601733042;0.1278;0.0401;-0.0770;
81140611838720;0.1736;0.0454;-0.0716;
81140621967522;0.1459;-0.0356;-0.0514;
81140632073251;0.1758;-0.1217;-0.0386;
81140642178980;0.2013;-0.0929;-0.0333;
81140652304188;0.2109;-0.0461;-0.0237;
81140662409917;0.1577;-0.0121;-0.0216;
81140672515647;0.1449;-0.1451;-0.0194;
81140682575282;0.2216;-0.1462;-0.0354;
81140692681063;0.1747;-0.0567;-0.0141;
81140702786792;0.1140;-0.0302;0.0040;
81140712901897;0.1651;0.0326;0.0189;
81140723007626;0.1917;0.0454;0.0594;
81140733113355;0.1843;0.0614;0.0743;
81140743214188;0.2141;0.0539;0.0976;
81140753319917;0.2024;0.0166;0.1136;
81140763425647;0.1651;-0.0377;0.1253;
81140773534709;0.1694;-0.0780;0.1285;
81140783640386;0.1108;-0.1324;0.1423;
81140793746063;0.0320;-0.1696;0.1455;
81140803854084;0.0458;-0.0887;0.1434;
81140813959761;0.0405;0.0007;0.1466;
81140824065438;0.0320;-0.0153;0.1487;
81140834163667;0.0586;0.0198;0.1551;
81140844269345;0.0543;0.0795;0.1541;
81140854375022;0.0277;0.0699;0.1519;
81140864477209;0.0245;0.0497;0.1626;
81140874582886;-0.0149;0.0752;0.1530;
81140884688563;-0.0810;0.0177;0.1349;
81140894799813;-0.0991;-0.0377;0.1061;
81140904905490;-0.1044;0.0614;0.1093;
81140915011167;-0.1694;0.0806;0.1125;
81140925137105;-0.2214;-0.0238;0.1061;
81140935242782;-0.2225;-0.0876;0.0976;
81140945348459;-0.2246;-0.0684;0.0743;
81140955434501;-0.2481;0.0113;0.0487;
81140965540178;-0.2130;-0.0270;0.0647;
81140975645855;-0.2035;-0.0674;0.0647;
81140985756428;-0.1683;-0.0089;0.0455;
81140995862105;-0.1065;0.0081;0.0051;
81141005967782;-0.0341;0.0262;-0.0013;
81141016071063;-0.0415;0.1072;0.0168;
81141026176740;-0.0224;0.1189;0.0519;
81141036282417;0.0075;0.0731;0.0466;
81141046388876;-0.0053;0.0806;0.0264;
81141056494553;-0.0341;0.0198;0.0178;
81141066600230;-0.0415;-0.0684;0.0040;
81141076704917;-0.0735;-0.0791;-0.0056;
81141086810595;-0.0703;-0.1025;-0.0248;
81141096916272;-0.0969;-0.0961;-0.0407;
81141107022105;-0.0980;-0.0546;-0.0397;
81141117127782;-0.1087;-0.0313;-0.0226;
81141127233459;-0.1044;0.0603;-0.0333;
81141137332626;-0.0426;0.1328;-0.0642;
81141147438303;-0.0383;0.0454;-0.0791;
81141157543980;-0.0170;-0.0430;-0.0514;
81141167657209;-0.0117;-0.0812;-0.0386;
81141177762886;-0.0064;-0.0610;-0.0152;
81141187868563;-0.0309;-0.0292;-0.0184;
81141197973615;-0.0298;-0.0961;-0.0226;
81141208079292;-0.0415;-0.1654;0.0019;
81141218184970;-0.0341;-0.0313;-0.0312;
81141228297782;-0.0096;0.0710;-0.0620;
81141238403459;-0.0021;0.0550;-0.0269;
81141248509136;-0.0032;0.0262;0.0168;
81141258604501;-0.0032;0.0294;0.0349;
81141268710178;0.0138;0.0443;0.0221;
81141278815855;0.0682;0.0209;0.0370;
81141288926740;-0.0043;-0.0377;0.0732;
81141299032417;-0.0298;-0.0324;0.0754;
81141309138147;-0.0597;-0.0111;0.0848;
81141319249605;-0.0575;-0.0196;0.0636;
81141329355334;-0.0831;-0.0100;0.0711;
81141339461011;-0.0692;0.0411;0.0997;
81141349539761;-0.0959;0.0806;0.1072;
81141359645490;-0.0799;0.0614;0.1210;
81141369751167;-0.1523;0.0252;0.1168;
81141379866532;-0.1374;0.0390;0.1296;
81141389972209;-0.2172;-0.0004;0.1253;
81141400077886;-0.2459;-0.0525;0.0976;
81141410222626;-0.2598;-0.0004;0.0933;
81141420328303;-0.3237;0.0593;0.0690;
81141430433980;-0.2981;0.0752;0.0647;
81141440506584;-0.3237;0.0582;0.0487;
81141450612261;-0.2981;0.0593;0.0264;
81141460717938;-0.2523;0.1104;0.0083;
81141470812834;-0.2321;0.0731;-0.0013;
81141480918511;-0.2013;-0.0025;0.0157;
81141491024188;-0.2417;0.0134;0.0029;
81141501133667;-0.1417;0.0326;-0.0493;
81141511239345;-0.1278;-0.0025;-0.0663;
81141521345022;-0.1161;-0.0196;-0.0567;
81141531461115;-0.0863;0.0209;-0.0631;
81141541566792;-0.0767;0.0379;-0.0631;
81141551672470;-0.0948;0.0369;-0.0599;
81141561779813;-0.0852;0.0635;-0.0748;
81141571885490;-0.0873;0.0624;-0.0748;
81141581991167;-0.0831;0.0134;-0.0663;
81141592094292;-0.0905;0.0049;-0.0663;
81141602199970;-0.0937;0.0252;-0.0620;
81141612305647;-0.1236;-0.0025;-0.0652;
81141622397417;-0.1257;-0.0345;-0.0546;
81141632503095;-0.1065;0.0262;-0.0546;
81141642608772;-0.1140;0.0092;-0.0226;
81141652714397;-0.1640;-0.0451;-0.0120;
81141662820074;-0.1385;-0.0260;0.0136;
81141672925751;-0.1949;-0.0292;0.0040;
81141683044292;-0.1577;-0.0503;0.0051;
81141693149970;-0.2077;-0.0089;-0.0045;
81141703255647;-0.2385;0.0028;-0.0162;
81141713350334;-0.2598;-0.0430;-0.0482;
81141723456011;-0.2843;-0.0142;-0.0322;
81141733561688;-0.3301;0.0422;0.0008;
81141743691897;-0.3109;0.0614;-0.0099;
81141753797574;-0.2992;0.0614;-0.0216;
81141763903251;-0.2992;0.0593;-0.0482;
81141774001115;-0.2502;0.0337;-0.0322;
81141784106845;-0.3013;-0.0015;-0.0290;
81141794212522;-0.2885;-0.0281;-0.0130;
81141804310959;-0.2885;-0.0451;-0.0397;
81141814416636;-0.2875;-0.0228;-0.0365;
81141824522365;-0.3706;-0.0377;-0.0503;
81141834630282;-0.2864;-0.0589;-0.0589;
81141844736011;-0.3130;-0.0238;-0.0716;
81141854841688;-0.3248;-0.0142;-0.0791;
81141864993511;-0.3194;-0.0324;-0.1164;
81141875099188;-0.2332;-0.0430;-0.1004;
81141885204917;-0.2694;-0.0270;-0.0866;
81141895268980;-0.2630;-0.0100;-0.0929;
81141905374709;-0.2481;-0.0398;-0.1079;
81141915480386;-0.1704;-0.0419;-0.0929;
81141925594501;-0.1843;0.0007;-0.0780;
81141935700230;-0.1736;-0.0153;-0.1047;
81141945805907;-0.1598;-0.0430;-0.1249;
81141955900438;-0.1726;-0.0503;-0.1111;
81141966006167;-0.1779;-0.0706;-0.0940;
81141976111845;-0.1917;-0.1217;-0.1174;
81141986223251;-0.2161;-0.2431;-0.1260;
81141996328980;-0.0565;-0.5382;-0.0972;
81142006434657;0.1225;-0.6776;-0.0535;
81142016523876;-0.2182;-0.5787;-0.0748;
81142026629605;-0.4334;-0.2165;-0.1728;
81142036735282;-1.2120;0.0880;-0.2975;
81142046842522;-1.4590;0.1732;-0.1931;
81142056948251;-0.4739;0.3959;-0.1963;
81142067053928;-0.1566;0.4736;-0.2389;
81142077172782;-0.0927;0.5237;-0.3177;
81142087278459;0.1097;0.5567;-0.3433;
81142097384188;0.0565;0.4683;-0.2602;
81142107477001;-0.1087;0.2883;-0.1526;
81142117582678;-0.1023;0.1509;-0.1153;
81142127688407;-0.0650;0.0198;-0.1238;
81142137794292;-0.0831;-0.0876;-0.1782;
81142147900022;-0.0799;-0.1228;-0.1345;
81142158005699;-0.1470;-0.1142;-0.1121;
81142168130438;-0.1800;-0.0695;-0.0876;
81142178236115;-0.1875;0.0103;-0.1015;
81142188341845;-0.2035;0.0816;-0.0940;
81142198415855;-0.1236;0.1668;-0.0642;
81142208521584;-0.0160;0.2180;-0.0312;
81142218627261;0.1779;0.2137;-0.0088;
81142228735542;0.3664;0.2031;0.0125;
81142238841272;0.5016;0.1551;0.0445;
81142248946949;0.5911;0.1423;0.0700;
81142259090959;0.6827;0.1423;0.1051;
81142269196636;0.5964;0.0923;0.0722;
81142279302365;0.5921;0.0987;0.0795;
81142289379501;0.4505;0.1317;0.0626;
81142299485178;0.3079;0.1455;0.0732;
81142309590907;0.1822;0.1487;0.0509;
81142319699917;0.1896;0.3149;0.0168;
81142329805647;0.1491;0.5715;0.0083;
81142339911324;0.1321;0.6951;0.0349;
81142350019709;0.1044;0.5971;0.0594;
81142360125438;0.0405;0.1029;0.0743;
81142370231115;-0.0916;-0.3156;0.0040;
81142380333563;-0.1885;-0.4264;-0.1100;
81142390439292;-0.3493;-0.4881;-0.2538;
81142400544970;-0.4036;-0.4999;-0.3656;
81142410657730;-0.3184;-0.3379;-0.4679;
81142420763459;-0.0320;-0.1494;-0.4956;
81142430869136;0.2439;-0.0047;-0.4679;
81142440977730;0.3643;0.0294;-0.3901;
81142451083407;0.5325;-0.0132;-0.3156;
81142461189136;0.7104;-0.0100;-0.2708;
81142471285230;0.8936;-0.0249;-0.2399;
81142481390959;0.9511;-0.0398;-0.2091;
81142491496636;1.0106;-0.0578;-0.1483;
81142501599709;0.9746;-0.1313;-0.1100;
81142511705438;1.0053;-0.1526;-0.0738;
81142521811115;0.9735;-0.1057;-0.0589;
81142531918563;0.8904;-0.1398;-0.0248;
81142542024292;0.8254;-0.1526;0.0125;
81142552129970;0.7402;-0.0983;0.0541;
81142562238615;0.7668;-0.0663;0.1019;
81142572344345;0.6486;-0.0727;0.1360;
81142582450022;0.5485;-0.0238;0.1700;
81142592562313;0.4728;0.0262;0.1690;
81142602668042;0.2951;0.0039;0.1541;
81142612773720;0.1640;-0.0482;0.1455;
81142622900647;0.0650;-0.0780;0.1072;
81142633006376;-0.1225;-0.0313;0.1019;
81142643112053;-0.4110;0.0284;0.0827;
81142653227938;-0.5879;0.0529;0.0605;
81142663333615;-0.6955;0.0827;0.0157;
81142673439345;-0.7860;0.1104;-0.0248;
81142683512730;-0.7232;0.0624;-0.0344;
81142693618459;-0.7562;0.0443;-0.0312;
81142703724136;-0.7743;0.0720;-0.0013;
81142713826688;-0.7136;0.0081;-0.0120;
81142723932417;-0.5495;-0.0535;-0.0344;
81142734038095;-0.3130;-0.0068;-0.0589;
81142744146376;-0.1640;0.0049;-0.0130;
81142754252105;-0.0266;0.0049;0.0306;
81142764357782;0.1172;0.0145;0.0391;
81142774465647;0.2695;0.0028;0.0285;
81142784571324;0.4260;0.0039;0.0338;
81142794677053;0.4814;0.0443;0.0827;
81142804773042;0.5080;0.0561;0.1115;
81142814878720;0.5112;0.0337;0.1221;
81142824984449;0.4473;-0.0079;0.1168;
81142835097209;0.3079;-0.0196;0.0987;
81142845202886;0.2663;-0.0132;0.0859;
81142855308615;0.1182;-0.0153;0.0763;
81142865413720;0.0202;-0.0270;0.0647;
81142875519397;-0.0170;-0.0482;0.0423;
81142885625074;-0.1214;-0.0387;0.0210;
81142895730803;-0.1523;-0.0089;-0.0184;
81142905838459;-0.2024;0.0092;-0.0503;
81142915944136;-0.2225;0.0166;-0.0429;
81142926049865;-0.2278;0.0113;-0.0514;
81142936163199;-0.2130;-0.0356;-0.0546;
81142946268876;-0.1140;-0.0471;-0.0759;
81142956374605;-0.0202;-0.0057;-0.0631;
81142966471376;0.0533;-0.0567;-0.0770;
81142976577053;0.1225;-0.0748;-0.0780;
81142986682782;0.1864;-0.0451;-0.0514;
81142996786897;0.2961;0.0443;-0.0599;
81143006892574;0.3941;0.1349;-0.0503;
81143016998303;0.4760;0.1146;-0.0344;
81143027114813;0.5293;0.0923;-0.0290;
81143037220490;0.5921;0.1157;0.0125;
81143047326220;0.6113;0.0454;0.0232;
81143057425230;0.6901;0.0220;0.0455;
81143067530907;0.6475;0.0230;0.0690;
81143077636636;0.5740;-0.0302;0.0732;
81143087748615;0.5367;-0.0451;0.1104;
81143097854345;0.4174;-0.0503;0.1104;
81143107960074;0.3142;-0.0398;0.0944;
81143118044397;0.2194;0.0124;0.0923;
81143128150126;0.1278;-0.0025;0.0551;
81143138255803;0.1108;0.0039;0.0668;
81143148380282;0.1204;0.0678;0.0944;
81143158485959;0.1278;0.0582;0.0880;
81143168591688;0.1214;0.0284;0.1146;
81143178678355;0.1129;0.0294;0.1125;
81143188784084;0.1225;-0.0217;0.0848;
81143198889709;0.1044;-0.0206;0.1157;
81143209017626;0.0831;0.0667;0.1146;
81143219123303;0.1001;0.0965;0.0891;
81143229229032;0.1310;0.0774;0.0827;
81143239336011;0.1172;0.0518;0.0901;
81143249441740;0.1289;0.0284;0.0816;
81143259547470;0.1310;0.0465;0.0891;
81143269669292;0.1065;-0.0132;0.0774;
81143279774970;0.1076;-0.0249;0.0774;
81143289880699;0.1236;0.0561;0.0806;
81143299948563;0.1300;0.0859;0.1029;
81143310054240;0.1449;0.0401;0.0955;
81143320159970;0.1470;0.0379;0.1125;
81143330260542;0.1193;0.0561;0.1093;
81143340366220;0.1289;0.0379;0.1093;
81143350471949;0.0959;0.0113;0.1349;
81143360586532;0.0959;0.0326;0.1349;
81143370692209;0.1182;0.0955;0.1423;
81143380797938;0.1204;0.0678;0.1210;
81143390905647;0.0788;0.0220;0.1136;
81143401011324;0.0927;0.0901;0.1423;
81143411117053;0.1300;0.1200;0.1786;
81143421230959;0.0778;0.0688;0.1668;
81143431336636;0.0671;0.0571;0.1370;
81143441442365;0.0980;0.0007;0.1264;
81143451556897;0.0075;-0.0567;0.1157;
81143461662574;-0.0107;-0.0313;0.1168;
81143471768303;0.0426;-0.0377;0.1242;
81143481861688;0.0607;-0.0812;0.1104;
81143491967365;0.0469;-0.0546;0.1253;
81143502073095;0.0969;0.0433;0.1253;
81143512177938;0.1332;0.0731;0.1136;
81143522283615;0.1172;0.0443;0.1178;
81143532389345;0.0991;0.0614;0.1221;
81143542495542;0.0991;0.0699;0.1274;
81143552601220;0.0884;0.0816;0.1466;
81143562706949;0.0565;0.1274;0.1509;
81143572833042;-0.0160;0.2009;0.1445;
81143582938720;-0.0032;0.1839;0.0912;
81143593044449;0.0373;0.1061;0.1061;
81143603147001;0.0341;0.2382;0.1658;
81143613252678;0.0256;0.4747;0.1466;
81143623358407;0.0724;0.6780;0.1146;
81143633447522;0.1012;0.8453;0.1146;
81143643553199;0.0607;0.9358;0.1413;
81143653658928;-0.1033;0.9752;0.1605;
81143663767522;-0.2577;0.8985;0.1455;
81143673873199;-0.3503;0.7462;0.1296;
81143683978928;-0.4451;0.5407;0.0848;
81143694096688;-0.5730;0.4001;0.0594;
81143704202365;-0.7296;0.2638;0.1136;
81143714308095;-0.8370;0.1051;0.1093;
81143724423459;-0.7423;-0.0164;0.0722;
81143734529136;-0.6539;-0.0567;0.0487;
81143744634865;-0.6454;-0.1142;0.0402;
81143754718042;-0.4664;-0.2197;0.0317;
81143764823720;-0.3130;-0.2847;0.0455;
81143774929449;-0.2779;-0.3347;0.0413;
81143785056532;-0.2406;-0.3582;0.0253;
81143795162313;-0.2555;-0.3944;-0.0258;
81143805268042;-0.3258;-0.4413;-0.0855;
81143815358459;-0.3983;-0.4754;-0.1238;
81143825464188;-0.4686;-0.4956;-0.1313;
81143835569970;-0.5208;-0.4754;-0.1377;
81143845692678;-0.5367;-0.3923;-0.1632;
81143855798407;-0.5250;-0.3198;-0.1909;
81143865904188;-0.4760;-0.2570;-0.2016;
81143875997626;-0.4164;-0.2442;-0.1899;
81143886103355;-0.3056;-0.2378;-0.1846;
81143896209136;-0.2545;-0.2740;-0.1814;
81143906301532;-0.2608;-0.3177;-0.1739;
81143916407261;-0.2161;-0.3454;-0.1664;
81143926512990;-0.1832;-0.4487;-0.1750;
81143936620542;-0.1864;-0.5297;-0.1569;
81143946726272;-0.2140;-0.5489;-0.1473;
81143956832053;-0.1704;-0.4232;-0.1696;
81143966939501;-0.0820;-0.2336;-0.1696;
81143977045230;-0.0810;-0.1302;-0.1654;
81143987151011;-0.0117;-0.0047;-0.1547;
81143997246428;0.0213;0.0933;-0.1292;
81144007352209;0.0671;0.0624;-0.1111;
81144017457938;0.1502;0.1019;-0.0834;
81144027562001;0.1300;0.1466;-0.0780;
81144037667678;0.0799;0.0656;-0.0866;
81144047773511;0.0927;0.0134;-0.0684;
81144057888615;0.0075;-0.0228;-0.0738;
81144067994292;-0.0863;-0.0610;-0.0887;
81144078100126;-0.0628;-0.0430;-0.0844;
81144088183459;-0.0703;-0.0228;-0.0908;
81144098289188;-0.0618;-0.0025;-0.0812;
81144108394917;-0.0543;-0.0281;-0.0620;
81144118568251;-0.0522;-0.0345;-0.0780;
81144128673980;-0.0586;0.0326;-0.0706;
81144138779709;-0.0522;0.0369;-0.0599;
81144148814761;0.0394;0.0028;-0.0674;
81144158920490;0.0788;-0.0238;-0.0834;
81144169026324;0.0415;-0.0121;-0.0940;
81144179144292;0.0756;0.0134;-0.0706;
81144189250022;0.1683;-0.0398;-0.0674;
81144199355803;0.2365;-0.1238;-0.0738;
81144209471376;0.2610;-0.1483;-0.0770;
81144219577105;0.2684;-0.1185;-0.0642;
81144229682886;0.3185;-0.0557;-0.0599;
81144239770386;0.4952;-0.0153;-0.0461;
81144249876115;0.6465;-0.1803;-0.0386;
81144259981949;0.7114;-0.3784;-0.0301;
81144270105074;0.7477;-0.4690;-0.0237;
81144280210803;0.7594;-0.4264;-0.0077;
81144290316584;0.6933;-0.4210;-0.0109;
81144300412990;0.6465;-0.4359;-0.0269;
81144310518720;0.5996;-0.3379;-0.0130;
81144320624501;0.5591;-0.2325;0.0146;
81144330743355;0.6316;-0.2144;0.0434;
81144340849084;0.7487;-0.2186;0.0636;
81144350954813;0.8265;-0.2122;0.0711;
81144361059605;0.8744;-0.2442;0.0573;
81144371165334;0.8329;-0.2943;0.0541;
81144381271115;0.7072;-0.3007;0.0498;
81144391381063;0.6007;-0.2943;0.0391;
81144401486792;0.5240;-0.2826;0.0221;
81144411592574;0.4760;-0.2581;0.0210;
81144421696115;0.4505;-0.2367;0.0296;
81144431801845;0.4324;-0.2197;0.0402;
81144441907626;0.4110;-0.1803;0.0381;
81144452031792;0.3867;-0.1675;0.0338;
81144462137574;0.3473;-0.1941;0.0296;
81144472243303;0.2663;-0.1909;0.0221;
81144482325751;0.2013;-0.1696;0.0125;
81144492431480;0.1758;-0.1696;0.0146;
81144502537261;0.1470;-0.1654;0.0125;
81144512646949;0.1342;-0.1451;0.0136;
81144522752678;0.1566;-0.1270;0.0125;
81144532858459;0.1885;-0.1068;0.0029;
81144542961376;0.2237;-0.0706;-0.0067;
81144553067105;0.2237;-0.0260;-0.0035;
81144563172886;0.2024;0.0273;-0.0056;
81144573284917;0.1790;0.0827;-0.0184;
81144583390647;0.1587;0.1328;-0.0258;
81144593496428;0.1491;0.1839;-0.0344;
81144603614553;0.1513;0.1999;-0.0610;
81144613720282;0.1438;0.1967;-0.0589;
81144623826063;0.1577;0.2659;-0.0344;
81144633918980;0.1875;0.3703;-0.0162;
81144644024709;0.2258;0.4608;-0.0322;
81144654130490;0.2578;0.5290;-0.0525;
81144664236480;0.3089;0.5960;-0.0642;
81144674342209;0.3494;0.6908;-0.0652;
81144684447990;0.3409;0.7015;-0.0493;
81144694537574;0.3526;0.6312;-0.0258;
81144704643355;0.3430;0.5726;-0.0354;
81144714749136;0.2844;0.5821;-0.0567;
81144724890855;0.2770;0.6045;-0.0514;
81144734996584;0.2802;0.6397;-0.0652;
81144745102365;0.3206;0.7931;-0.0589;
81144755199397;0.4718;0.6226;0.0200;
81144765305126;0.5730;0.1945;0.0838;
81144775410907;0.2375;-0.1430;0.0891;
81144785492938;-0.0117;-0.1675;0.0200;
81144795598615;-0.0085;-0.0983;-0.0141;
81144805704292;0.0969;-0.0716;-0.0344;
81144815817730;0.1811;-0.0249;-0.1100;
81144825923407;0.3505;0.0411;-0.1941;
81144836029084;0.4473;0.0955;-0.2037;
81144846115647;0.5059;0.1189;-0.1579;
81144856221324;0.6102;0.1732;-0.0844;
81144866326949;0.6422;0.1871;-0.0589;
81144876469813;0.5953;0.1573;-0.0386;
81144886575490;0.4728;0.0752;-0.0493;
81144896681167;0.3079;0.0316;-0.0344;
81144906763615;0.2620;-0.0057;-0.0450;
81144916869292;0.2418;-0.0993;-0.0407;
81144926974970;0.0852;-0.1569;-0.0461;
81144937081480;-0.0373;-0.1558;-0.0652;
81144947187157;-0.1353;-0.1100;-0.1196;
81144957292834;-0.1917;-0.0620;-0.1377;
81144967370126;-0.1832;-0.0642;-0.1324;
81144977475803;-0.1459;-0.0802;-0.1547;
81144987581480;-0.1023;-0.0281;-0.1686;
81144997709188;-0.0170;0.0113;-0.1664;
81145007814865;0.1353;0.0124;-0.1632;
81145017920542;0.2386;0.0369;-0.1324;
81145028035022;0.3068;0.0550;-0.1142;
81145038140699;0.3036;0.0230;-0.1174;
81145048246376;0.2823;0.0039;-0.1004;
81145058362105;0.2791;0.0039;-0.0770;
81145068467782;0.2354;-0.0079;-0.0599;
81145078573459;0.2003;-0.0514;-0.0333;
81145088653720;0.1854;-0.0780;-0.0013;
81145098759397;0.1981;-0.0631;0.0253;
81145108865022;0.2013;-0.0855;0.0413;
81145118984605;0.1747;-0.0897;0.0370;
81145129090282;0.1939;-0.0759;0.0157;
81145139195959;0.2099;-0.0100;0.0487;
81145149292522;0.2269;0.0401;0.0933;
81145159398199;0.2290;-0.0121;0.1061;
81145169503876;0.2045;0.0049;0.1157;
81145179630230;0.2024;0.0241;0.1242;
81145189735907;0.2109;0.0369;0.1296;
81145199841584;0.2045;0.0869;0.1509;
81145209977209;0.2088;0.0838;0.1679;
81145220082886;0.2003;0.0358;0.1796;
81145230188563;0.1758;0.0284;0.1935;
81145240252209;0.1694;0.0390;0.2052;
81145250357886;0.1694;0.0465;0.2435;
81145260463563;0.1662;0.0433;0.2531;
81145270579292;0.1363;-0.0345;0.2595;
81145280684970;0.1044;-0.0451;0.2638;
81145290790647;0.0447;0.0316;0.2403;
81145300879397;-0.0288;0.0071;0.2542;
81145310985074;-0.0597;0.0166;0.2276;
81145321090751;-0.0639;0.0699;0.2531;
81145331206688;-0.1342;0.0017;0.2414;
81145341312365;-0.2204;-0.0535;0.2361;
81145351418042;-0.2981;-0.0398;0.2222;
81145361521063;-0.3684;0.0103;0.2009;
81145371626740;-0.4515;-0.0047;0.1956;
81145381732417;-0.4814;-0.0409;0.1551;
81145391842938;-0.5612;-0.0238;0.1455;
81145401948615;-0.5911;-0.0100;0.1296;
81145412054292;-0.6220;-0.0377;0.1264;
81145422165230;-0.6379;0.0071;0.1136;
81145432270907;-0.7125;0.0241;0.0806;
81145442376584;-0.7562;-0.0196;0.0232;
81145452480126;-0.7157;-0.0164;0.0061;
81145462585803;-0.6965;-0.0089;0.0168;
81145472691480;-0.6316;-0.0482;0.0040;
81145482790647;-0.5751;-0.0589;0.0061;
81145492896324;-0.5389;-0.0302;-0.0535;
81145503002001;-0.4505;-0.0068;-0.0716;
81145513107105;-0.3013;-0.0377;-0.0919;
81145523212782;-0.1076;-0.0546;-0.0855;
81145533318459;0.0170;-0.0366;-0.0791;
81145543427782;0.0479;-0.0589;-0.0514;
81145553533459;0.1555;-0.0983;-0.0695;
81145563639136;0.2450;-0.0387;-0.0354;
81145573752522;0.2375;0.0113;-0.0493;
81145583858199;0.3079;-0.0153;-0.0418;
81145593963876;0.4643;0.0049;-0.0344;
81145604080595;0.4920;-0.0036;-0.0035;
81145614186272;0.5250;0.0241;0.0242;
81145624291949;0.5122;0.0177;0.0423;
81145634389136;0.4952;-0.0292;0.0242;
81145644494813;0.4835;0.0049;0.0210;
81145654600490;0.4217;0.0198;0.0242;
81145664700230;0.3899;0.0145;0.0445;
81145674805907;0.3270;0.0422;0.0487;
81145684911584;0.2695;0.0774;0.0146;
81145695005022;0.2642;0.0465;0.0519;
81145705110699;0.2802;0.0710;0.0573;
81145715216376;0.2652;0.0593;0.0711;
81145725314084;0.2429;0.0081;0.0434;
81145735419761;0.1640;0.0411;0.0976;
81145745525438;0.0543;0.0731;0.1083;
81145755654449;0.0778;0.0720;0.0912;
81145765760126;0.0778;0.1019;0.0795;
81145775865803;0.0639;0.1370;0.0722;
81145785966272;0.0724;0.0880;0.0987;
81145796071949;0.1108;0.0859;0.1072;
81145806177678;0.0852;0.0561;0.1157;
81145816292522;0.0543;0.0486;0.1051;
81145826398199;0.0021;0.0369;0.1253;
81145836503928;-0.0458;0.0166;0.1391;
81145846593772;-0.0447;0.0816;0.1445;
81145856699449;-0.0959;0.0774;0.1455;
81145866805178;-0.0479;0.0593;0.1615;
81145876925438;0.0107;0.0848;0.2031;
81145887031115;-0.0053;0.0688;0.2148;
81145897136845;0.0128;-0.0004;0.1999;
81145907231532;0.0011;0.0060;0.2308;
81145917337209;-0.0490;0.0656;0.2382;
81145927442938;-0.1033;0.0838;0.2393;
81145937546272;-0.0852;0.0561;0.2329;
81145947651949;-0.0628;0.0071;0.2606;
81145957757678;-0.1236;-0.0196;0.2755;
81145967862001;-0.1939;-0.0855;0.2819;
81145977967678;-0.1790;-0.0068;0.3202;
81145988073407;-0.2481;0.0614;0.2851;
81145998168563;-0.2427;-0.0089;0.2659;
81146008274240;-0.2438;-0.0866;0.2883;
81146018379970;-0.3088;-0.0780;0.2968;
81146028556376;-0.3674;-0.0620;0.3266;
81146038662053;-0.4526;-0.0387;0.2680;
81146048767782;-0.4398;-0.0292;0.2467;
81146058808876;-0.4292;-0.0377;0.2808;
81146068914501;-0.4845;-0.0345;0.2819;
81146079020230;-0.4622;-0.0174;0.2702;
81146089165438;-0.5048;-0.0025;0.2329;
81146099271115;-0.5666;0.0049;0.2126;
81146109376845;-0.6017;-0.0430;0.2414;
81146119474813;-0.6678;-0.0940;0.2041;
81146129580490;-0.7253;-0.1068;0.1562;
81146139686220;-0.7455;-0.0844;0.1466;
81146149768355;-0.7999;-0.0057;0.1008;
81146159874032;-0.7935;0.0209;0.0869;
81146169979761;-0.7945;-0.0206;0.0530;
81146180091167;-0.7764;-0.0047;0.0210;
81146190196845;-0.7658;-0.0164;-0.0067;
81146200302574;-0.7082;0.0145;-0.0141;
81146210392313;-0.6710;0.0209;-0.0461;
81146220497990;-0.6039;-0.0089;-0.0503;
81146230603720;-0.5612;0.0060;-0.0589;
81146240722522;-0.5495;0.0529;-0.1089;
81146250828199;-0.4824;0.0997;-0.1196;
81146260933928;-0.3493;0.1136;-0.1036;
81146271032001;-0.2715;0.0358;-0.1132;
81146281137678;-0.2917;-0.0652;-0.1089;
81146291243407;-0.2875;-0.0142;-0.1260;
81146301349188;-0.3961;0.0944;-0.1664;
81146311454865;-0.3620;0.1210;-0.1899;
81146321560595;-0.3067;0.0869;-0.1909;
81146331671897;-0.2566;0.0465;-0.2037;
81146341777574;-0.1502;0.0955;-0.2176;
81146351883303;-0.1023;0.0997;-0.2410;
81146361982313;-0.0810;0.0944;-0.2336;
81146372087990;-0.0703;0.0688;-0.2282;
81146382193720;-0.0415;0.0561;-0.2336;
81146392307834;-0.0256;0.0593;-0.2304;
81146402413511;-0.0149;0.0284;-0.2389;
81146412519240;-0.0245;0.0081;-0.2421;
81146422624813;-0.0320;0.0529;-0.2250;
81146432730490;-0.0852;0.0433;-0.2357;
81146442836220;-0.0895;0.0614;-0.2367;
81146452959084;-0.0863;0.0624;-0.2346;
81146463064761;-0.0639;0.0582;-0.2378;
81146473170490;-0.0330;0.0209;-0.2261;
81146483251167;0.0021;0.0848;-0.1973;
81146493356845;0.0373;0.1040;-0.1888;
81146503462574;0.1268;0.0848;-0.1952;
81146513568980;0.1790;0.0507;-0.1707;
81146523674657;0.2045;0.0060;-0.1142;
81146533780386;0.1917;-0.0409;-0.1057;
81146543895855;0.1630;-0.0844;-0.1068;
81146554001532;0.0895;-0.0185;-0.1111;
81146564107261;0.0554;0.0582;-0.0844;
81146574224397;0.0245;0.0326;-0.0770;
81146584330074;0.1129;0.0273;-0.0525;
81146594435803;0.1555;0.0475;-0.0375;
81146604505855;0.1640;0.0454;-0.0194;
81146614611532;0.1768;0.0422;0.0083;
81146624717261;0.1481;0.0507;0.0274;
81146634852782;0.1108;0.0688;0.0423;
81146644958459;0.1481;0.0433;0.0615;
81146655064188;0.1768;0.0475;0.0859;
81146665159397;0.1566;0.0166;0.1083;
81146675265074;0.1310;-0.0238;0.1189;
81146685370803;0.0842;-0.0196;0.1253;
81146695481376;-0.0128;-0.0164;0.1296;
81146705587053;-0.0639;-0.0174;0.1115;
81146715692782;-0.0415;-0.0503;0.1615;
81146725801063;-0.0660;-0.0535;0.1200;
81146735906740;-0.0650;-0.0206;0.1146;
81146746012470;-0.0884;-0.0631;0.1157;
81146756116376;-0.1278;-0.0727;0.1413;
81146766222053;-0.1758;-0.0419;0.1423;
81146776327782;-0.2332;-0.0441;0.1189;
81146786431167;-0.2736;-0.0345;0.1061;
81146796536845;-0.3429;-0.0631;0.0743;
81146806642574;-0.3908;-0.1206;0.0360;
81146816741167;-0.4185;-0.0377;-0.0173;
81146826846845;-0.4718;0.0124;-0.0397;
81146836952574;-0.4537;-0.0780;-0.0599;
81146847106272;-0.3503;-0.1132;-0.0770;
81146857211949;-0.3162;-0.0546;-0.0876;
81146867317626;-0.3620;-0.0451;-0.0961;
81146877401949;-0.3194;-0.0834;-0.1111;
81146887507626;-0.2726;-0.1089;-0.1004;
81146897613355;-0.3290;-0.0068;-0.1238;
81146907682782;-0.4132;0.1104;-0.1505;
81146917788459;-0.4206;0.1360;-0.1792;
81146927894188;-0.2608;0.1977;-0.1941;
81146938003563;-0.1044;0.2137;-0.2016;
81146948109240;-0.0820;0.1498;-0.1792;
81146958214970;0.0234;0.1636;-0.1675;
81146968313355;0.0501;0.1157;-0.1430;
81146978419032;0.0394;0.0081;-0.1419;
81146988524761;0.0447;0.0422;-0.1377;
81146998634084;-0.0618;0.0976;-0.1302;
81147008739761;-0.0810;0.0614;-0.1249;
81147018845438;-0.0490;0.0156;-0.1100;
81147029007522;-0.0671;0.0316;-0.1185;
81147039113199;-0.1001;0.0816;-0.1132;
81147049218928;-0.1182;0.1040;-0.1313;
81147059275542;-0.1150;0.0305;-0.1526;
81147069381220;-0.0458;0.1210;-0.1238;
81147079486949;-0.0288;0.2521;-0.0727;
81147089606897;-0.0362;-0.0471;-0.0791;
81147099712574;0.0575;-0.2431;-0.1398;
81147109818303;-0.0820;-0.0738;-0.1632;
81147119917313;-0.2130;-0.0132;-0.1824;
81147130022990;-0.1310;-0.0451;-0.1601;
81147140128720;-0.1182;-0.0260;-0.2005;
81147150241792;-0.1065;-0.0036;-0.2336;
81147160347470;-0.0533;0.0731;-0.1803;
81147170453199;-0.0447;0.0497;-0.1515;
81147180542522;0.0213;0.0017;-0.1409;
81147190648199;-0.0053;0.0145;-0.1526;
81147200753928;-0.0320;-0.0164;-0.1153;
81147210872313;-0.0320;-0.0441;-0.1057;
81147220977990;-0.0383;-0.0514;-0.1228;
81147231083720;-0.0767;-0.0535;-0.1217;
81147241182886;-0.0554;-0.0461;-0.1057;
81147251288563;-0.0543;-0.0079;-0.1228;
81147261394292;-0.0650;-0.0206;-0.1643;
81147271505751;-0.0383;-0.0015;-0.1473;
81147281611428;-0.0479;0.0134;-0.1441;
81147291717157;-0.0245;-0.0334;-0.1494;
81147301820438;-0.0309;-0.0345;-0.1419;
81147311926115;-0.0490;-0.0292;-0.1590;
81147322031845;-0.0426;0.0081;-0.1803;
81147332136480;-0.0117;0.0635;-0.1728;
81147342242157;0.0607;0.0273;-0.1260;
81147352347886;0.1310;-0.0089;-0.1292;
81147362467522;0.1896;-0.0695;-0.1537;
81147372573199;0.1864;-0.0503;-0.1111;
81147382678928;0.1150;0.0113;-0.1068;
81147392780230;0.1342;0.0326;-0.0855;
81147402885907;0.1609;0.0124;-0.0642;
81147412991636;0.1843;-0.0238;-0.0908;
81147423089709;0.2525;0.0348;-0.0514;
81147433195386;0.2003;0.0433;-0.0397;
81147443301115;0.1278;-0.0089;-0.0578;
81147453403563;0.1747;0.0326;-0.0407;
81147463509240;0.1427;0.0230;-0.0471;
81147473614970;0.1129;-0.0919;-0.0056;
81147483730438;0.0948;-0.0578;0.0093;
81147493836115;0.0671;0.0241;-0.0088;
81147503941845;0.0437;-0.0260;-0.0471;
81147514034709;0.0543;-0.0356;-0.0184;
81147524140386;0.0628;-0.0409;0.0072;
81147534246115;0.0778;-0.0589;-0.0035;
81147544358563;0.0554;-0.0057;-0.0045;
81147554464240;0.0085;0.0593;-0.0141;
81147564569970;-0.0096;0.0401;0.0083;
81147574681688;0.0234;-0.0334;0.0083;
81147584787365;0.0575;-0.0674;-0.0035;
81147594893095;0.0415;-0.0834;-0.0045;
81147605004084;-0.0085;-0.1164;-0.0354;
81147615109761;-0.0043;-0.0441;-0.0301;
81147625215490;-0.0075;-0.0324;-0.0237;
81147635310959;0.0117;0.0113;-0.0578;
81147645416636;0.0405;0.1349;-0.0333;
81147655522365;0.0565;0.1072;-0.0216;
81147665621532;0.0671;-0.0770;-0.0067;
81147675727209;0.0394;-0.1632;-0.0099;
81147685832938;0.0543;-0.0610;-0.0003;
81147695929292;0.0330;0.0188;-0.0322;
81147706034970;0.0096;0.0326;-0.0663;
81147716140699;0.0032;-0.0121;-0.0429;
81147726262105;0.0320;-0.0121;-0.0312;
81147736367834;0.0437;-0.0142;-0.0482;
81147746473511;0.0597;0.0156;-0.0706;
81147756582834;0.1012;0.0901;-0.0503;
81147766688511;0.0863;0.0784;-0.0280;
81147776794240;0.1076;0.0603;-0.0130;
81147786898042;0.1193;0.0092;0.0019;
81147797003720;0.1257;-0.0174;-0.0162;
81147807109449;0.1289;-0.0281;-0.0109;
81147817204813;0.1257;-0.0302;0.0253;
81147827310490;0.1257;0.0092;0.0285;
81147837416220;0.1278;0.0433;0.0093;
81147847528615;0.1214;0.0987;0.0115;
81147857634345;0.0905;0.0933;0.0328;
81147867740074;0.0383;0.0252;0.0455;
81147877841063;0.0650;0.0475;0.0594;
81147887946792;0.0628;0.0603;0.0466;
81147898052470;0.0724;0.0614;0.0519;
81147908148459;0.0373;0.0284;0.0647;
81147918254136;-0.0032;-0.0174;0.0605;
81147928359865;-0.0096;-0.0567;0.0551;
81147938504917;-0.0149;-0.0961;0.0774;
81147948610595;-0.0096;-0.0217;0.0541;
81147958716324;0.0202;-0.0313;0.0763;
81147968773251;0.0565;-0.1515;0.1029;
81147978878928;0.0149;-0.2069;0.1146;
81147988984605;-0.0490;-0.1206;0.1306;
81147999139188;-0.0639;0.0113;0.0976;
81148009244865;-0.0128;0.0699;0.0912;
81148019350595;0.0277;0.0028;0.1008;
81148029423667;0.0554;0.0092;0.0795;
81148039529345;0.0682;0.0028;0.0189;
81148049635022;0.0383;-0.0419;0.0189;
81148059750855;0.0554;0.0273;0.0615;
81148069856532;0.0362;0.0358;0.0477;
81148079962261;0.0213;0.0028;0.0360;
81148090070178;0.0330;0.0326;0.0487;
81148100175855;0.0437;0.0369;0.0784;
81148110281584;0.0362;0.0113;0.1083;
81148120392938;0.0043;0.0411;0.1008;
81148130498615;0.0245;0.1306;0.0997;
81148140604345;0.0469;0.2116;0.1168;
81148150692730;0.0458;0.1296;0.1338;
81148160798407;-0.0192;-0.0004;0.1274;
81148170904136;-0.0320;-0.0217;0.1093;
81148181011792;-0.0746;-0.0441;0.0636;
81148191117522;-0.0948;-0.0535;0.0029;
81148201223199;-0.1065;-0.0503;-0.0322;
81148211330647;-0.1459;-0.0441;-0.0567;
81148221436324;-0.1087;-0.0334;-0.0493;
81148231542053;-0.0863;-0.0356;-0.0429;
81148241655751;-0.1012;0.0039;-0.0386;
81148251761428;-0.0639;0.0284;-0.0354;
81148261867157;0.0128;-0.0100;-0.0450;
81148271954188;0.0160;-0.0525;-0.0152;
81148282059917;0.0107;-0.0461;-0.0077;
81148292165595;-0.0053;-0.0004;-0.0269;
81148302278199;-0.0266;0.0209;-0.0418;
81148312383876;-0.0181;-0.0302;-0.0407;
81148322489605;0.0181;-0.0716;-0.0280;
81148332594397;0.0011;-0.1132;-0.0365;
81148342700074;-0.0085;-0.1047;-0.0461;
81148352805803;-0.0032;-0.0334;-0.0312;
81148362923667;-0.0117;0.0465;-0.0216;
81148373029345;-0.0128;-0.0025;-0.0152;
81148383135074;0.0128;-0.0663;0.0189;
81148393233251;0.0522;-0.0313;-0.0013;
81148403338980;0.0991;-0.0228;0.0498;
81148413444657;0.0991;-0.0409;0.0763;
81148423549813;0.1353;-0.0430;0.0806;
81148433655490;0.1651;-0.0281;0.0976;
81148443761220;0.1374;-0.0217;0.1072;
81148453859188;0.0863;-0.0503;0.1306;
81148463964865;0.0107;-0.1238;0.1285;
81148474070595;0.0618;-0.1356;0.1285;
81148484186532;0.0991;-0.0313;0.1413;
81148494292209;0.0362;0.0390;0.1945;
81148504397938;-0.0320;-0.0174;0.2222;
81148514500022;-0.0373;-0.0738;0.2212;
81148524605699;-0.0522;-0.0461;0.2126;
81148534711428;-0.0863;0.0220;0.1935;
81148544828459;-0.1672;0.0582;0.1732;
81148554934136;-0.1662;0.0688;0.1690;
81148565039865;-0.1321;-0.0111;0.1605;
81148575139865;-0.1619;-0.0716;0.1434;
81148585245542;-0.2417;-0.0068;0.1146;
81148595351272;-0.3738;0.0411;0.0668;
81148605453980;-0.4047;0.0081;0.0402;
81148615559657;-0.3237;0.0379;0.0029;
81148625665386;-0.2726;0.1285;-0.0439;
81148635762626;-0.3173;0.1764;-0.0439;
81148645868303;-0.2598;0.1615;-0.0439;
81148655974032;-0.1150;0.1019;-0.0770;
81148666086376;-0.0820;0.0880;-0.0951;
81148676192053;-0.0682;0.1019;-0.0972;
81148686297782;-0.0490;0.0561;-0.1015;
81148696394188;-0.0394;0.0369;-0.1174;
81148706499865;-0.0160;0.0039;-0.1334;
81148716605595;-0.0479;-0.0706;-0.1558;
81148726737782;-0.0533;-0.0079;-0.1547;
81148736843459;-0.0895;0.0241;-0.1419;
81148746949188;-0.0756;-0.0100;-0.1590;
81148757036792;-0.0511;-0.0196;-0.1995;
81148767142470;-0.0415;-0.0089;-0.2005;
81148777248199;-0.0522;0.0316;-0.1963;
81148787340230;-0.0586;0.0614;-0.1931;
81148797445907;-0.0543;-0.0089;-0.2016;
81148807551532;0.0138;0.0252;-0.1739;
81148817655855;0.0309;0.1402;-0.1675;
81148827761532;0.0181;0.0326;-0.1664;
81148837867157;0.0895;-0.0706;-0.1505;
81148847977522;0.1800;-0.0972;-0.1004;
81148858083147;0.1534;-0.0546;-0.0695;
81148868188824;0.0011;0.0156;-0.0684;
81148878291949;-0.0660;0.0113;-0.0386;
81148888397574;-0.0192;-0.0345;-0.0312;
81148898503251;-0.0394;-0.0514;-0.0280;
81148908615230;-0.0330;-0.0313;-0.0397;
81148918720907;-0.0447;-0.0281;-0.0216;
81148928826532;-0.0543;-0.0589;-0.0344;
81148938949761;-0.0511;-0.0557;-0.0418;
81148949055438;-0.0426;-0.0387;-0.0727;
81148959161063;0.0021;-0.0398;-0.0770;
81148969228042;0.0138;-0.0302;-0.0834;
81148979333667;0.0511;-0.0589;-0.1142;
81148989439345;0.0842;0.0220;-0.1153;
81148999591897;0.0575;0.1146;-0.1196;
81149009697574;-0.0021;0.0316;-0.1206;
81149019803199;0.1438;0.0603;-0.0887;
81149029877209;0.2493;0.0614;-0.0951;
81149039982886;0.2876;0.0081;-0.0887;
81149050088511;0.3153;0.0337;-0.0770;
81149060198980;0.2535;0.0103;-0.0493;
81149070304657;0.2301;-0.0652;-0.0397;
81149080410282;0.2961;-0.0578;-0.0407;
81149090511792;0.3068;-0.0196;-0.0290;
81149100617470;0.2567;-0.0015;-0.0205;
81149110723095;0.2471;0.0134;-0.0194;
81149120853563;0.2663;0.0507;-0.0067;
81149130959240;0.2599;0.0838;-0.0088;
81149141064865;0.2205;0.0742;-0.0035;
81149151164970;0.1992;0.0379;0.0168;
81149161270647;0.1992;0.0774;0.0413;
81149171376272;0.1640;0.0593;0.0477;
81149181479292;0.1513;0.0209;0.0519;
81149191584970;0.1129;0.0529;0.0743;
81149201690595;0.0682;0.0166;0.0965;
81149211789084;0.0415;0.0156;0.1019;
81149221894761;-0.0021;0.0806;0.1274;
81149232000386;-0.0437;0.0923;0.1626;
81149242099292;-0.0383;0.0550;0.1647;
81149252204970;0.0075;0.0550;0.1573;
81149262310595;-0.0298;0.0901;0.1402;
81149272424917;-0.0746;0.0603;0.1615;
81149282530595;-0.0565;0.0603;0.1754;
81149292636220;0.0021;0.1391;0.1690;
81149302742209;0.0032;0.1189;0.1402;
81149312847886;0.0064;0.0188;0.1668;
81149322953511;0.0107;0.1061;0.2052;
81149333064032;-0.0021;0.1434;0.2190;
81149343169709;0.0107;-0.0324;0.2190;
81149353275334;0.0320;-0.0674;0.2467;
81149363386376;-0.0288;-0.0004;0.2691;
81149373492001;-0.0969;-0.0441;0.2563;
81149383597678;-0.1055;-0.1079;0.2340;
81149393677209;-0.0980;-0.0610;0.2148;
81149403782886;-0.1640;0.0049;0.1700;
81149413888511;-0.1917;0.0156;0.1636;
81149424017001;-0.1417;0.0390;0.1690;
81149434122678;-0.0948;0.0294;0.1530;
81149444228303;-0.0905;-0.0503;0.1328;
81149454347313;-0.0554;-0.0567;0.1178;
81149464452990;-0.0533;-0.0111;0.1349;
81149474558615;-0.0735;-0.0716;0.1477;
81149484649501;-0.0458;-0.0951;0.1391;
81149494755178;-0.0320;0.0348;0.1200;
81149504860803;-0.0053;0.0156;0.1423;
81149514966167;0.0085;-0.2005;0.1743;
81149525071792;-0.0117;-0.2229;0.1636;
81149535177470;-0.0671;-0.0366;0.0869;
81149545285230;-0.0490;0.0145;0.0912;
81149555390855;-0.0298;-0.1121;0.0838;
81149565496532;-0.0320;-0.0929;0.0253;
81149575607105;-0.0117;0.0284;-0.0013;
81149585712782;-0.0383;0.0007;0.0285;
81149595818407;-0.0245;-0.0089;0.0232;
81149605921428;-0.0096;0.0411;0.0317;
81149616027053;0.0032;0.0241;0.0253;
81149626132730;0.0032;0.0433;0.0200;
81149636228355;0.0298;0.0667;0.0264;
81149646334032;0.0437;0.0124;0.0784;
81149656439657;0.0149;-0.0951;0.1019;
81149666552313;0.0756;-0.1174;0.0722;
81149676657990;0.1598;0.0220;0.0743;
81149686763615;0.1044;0.0401;0.0880;
81149696854709;-0.0362;-0.1206;0.0838;
81149706960386;-0.0053;-0.1728;0.1029;
81149717066011;0.1363;-0.0695;0.1285;
81149727185647;0.1704;0.0188;0.1711;
81149737291324;0.1087;0.0177;0.2371;
81149747396949;0.0213;0.0326;0.2915;
81149757495803;-0.0117;0.0475;0.3064;
81149767601480;-0.0650;-0.0089;0.3192;
81149777696167;-0.0820;-0.0174;0.3682;
81149787801845;-0.0895;-0.0174;0.4310;
81149797907470;-0.1342;0.0092;0.4395;
81149808006167;-0.2236;0.0497;0.3841;
81149818111792;-0.3429;0.0475;0.3905;
81149828217470;-0.5101;0.0220;0.4012;
81149838346272;-0.6060;-0.0409;0.3735;
81149848451897;-0.6411;-0.0514;0.3085;
81149858557574;-0.7189;-0.0217;0.2553;
81149868634605;-0.8201;-0.0217;0.2254;
81149878740282;-0.8434;0.0348;0.2137;
81149888845907;-0.9073;0.1115;0.1562;
81149898971532;-0.9510;0.1221;0.1051;
81149909077209;-0.9521;0.0571;0.0668;
81149919182886;-0.9180;0.0017;0.0285;
81149929293772;-0.8031;-0.0206;-0.0003;
81149939399449;-0.7285;-0.0471;-0.0493;
81149949505074;-0.6188;0.0411;-0.0823;
81149959644709;-0.5730;0.0869;-0.0887;
81149969750334;-0.5304;0.0848;-0.1036;
81149979856011;-0.4345;0.1679;-0.1920;
81149989918667;-0.4153;0.2297;-0.2272;
81150000024345;-0.3951;0.1796;-0.2186;
81150010129970;-0.3258;0.0678;-0.2133;
81150020251376;-0.3045;0.0294;-0.2282;
81150030357001;-0.2214;0.0305;-0.2549;
81150040462678;-0.2278;-0.0324;-0.2442;
81150050547365;-0.2150;-0.0057;-0.2346;
81150060653042;-0.1949;0.0688;-0.2676;
81150070758667;-0.1672;0.0401;-0.3177;
81150080873355;-0.1150;0.0539;-0.3401;
81150090979032;-0.1044;0.1328;-0.3188;
81150101084657;-0.0575;0.1232;-0.3102;
81150111200542;-0.0021;0.0390;-0.3550;
81150121306167;0.0671;-0.0238;-0.3816;
81150131411845;0.0671;-0.0025;-0.3752;
81150141509865;0.0991;0.0390;-0.3912;
81150151615542;0.1577;0.0369;-0.3784;
81150161721167;0.2003;0.0443;-0.3347;
81150171811220;0.2375;0.0220;-0.3156;
81150181916897;0.3153;-0.0855;-0.2975;
81150192022522;0.3888;-0.1206;-0.2623;
81150202158095;0.4292;-0.1004;-0.2485;
81150212263720;0.4632;-0.0535;-0.2506;
81150222369397;0.4920;-0.0079;-0.2346;
81150232443772;0.5282;0.1221;-0.1718;
81150242549449;0.5346;0.2446;-0.1664;
81150252655074;0.5517;0.1455;-0.1473;
81150262792834;0.5325;-0.0025;-0.1249;
81150272898511;0.5133;-0.0228;-0.0759;
81150283004136;0.4228;0.0060;-0.0461;
81150293094084;0.3462;-0.0111;-0.0237;
81150303199761;0.2716;-0.0770;0.0019;
81150313305386;0.1971;-0.0695;0.0178;
81150323418042;0.1555;-0.0503;0.0264;
81150333523720;0.1374;-0.1132;0.0636;
81150343629345;0.1374;-0.0164;0.0668;
81150353744188;0.1140;0.1626;0.0509;
81150363849865;0.0799;0.1871;0.0136;
81150373955490;0.0330;0.1285;0.0157;
81150384049084;-0.0309;0.0539;0.0423;
81150394154761;-0.1395;-0.0345;0.0423;
81150404260386;-0.1609;-0.1515;-0.0237;
81150414363459;-0.1747;-0.1696;-0.0407;
81150424469136;-0.2013;-0.0493;-0.0237;
81150434574761;-0.1555;-0.0047;-0.0397;
81150444683876;-0.1182;-0.0919;-0.0493;
81150454789553;-0.1065;-0.0866;-0.0290;
81150464895178;-0.0479;0.0646;-0.0141;
81150475001897;-0.0330;0.0838;-0.0162;
81150485107574;0.0160;-0.0047;-0.0067;
81150495213199;0.0341;-0.0238;0.0104;
81150505318980;0.0458;0.0230;0.0019;
81150515424657;0.0288;-0.0324;0.0136;
81150525530282;-0.0053;-0.1121;0.0328;
81150535636584;-0.0107;-0.0929;0.0189;
81150545742261;-0.0341;-0.0908;0.0189;
81150555847886;-0.0533;-0.1313;0.0040;
81150565950855;-0.0778;-0.1419;-0.0152;
81150576056532;-0.1044;-0.1015;-0.0365;
81150586162157;-0.1129;0.0081;-0.0418;
81150596267209;-0.1619;0.1093;-0.0429;
81150606372886;-0.1385;0.1988;-0.0727;
81150616478511;-0.1182;0.2265;-0.0812;
81150626605438;-0.0863;0.1594;-0.0652;
81150636711115;-0.0245;0.0348;-0.0567;
81150646816740;0.0075;0.0177;-0.0578;
81150656897522;0.0245;0.1146;-0.0802;
81150667003199;0.0575;-0.0057;-0.0823;
81150677108824;0.0980;-0.1217;-0.0493;
81150687223980;0.0756;-0.0897;0.0232;
81150697329657;0.1097;0.0166;0.0413;
81150707435282;0.1385;0.0454;0.0391;
81150717519917;0.1087;0.1040;0.0445;
81150727625542;0.0905;0.1764;0.0711;
81150737731220;0.0266;0.2052;0.0848;
81150747845334;-0.0085;0.1967;0.0763;
81150757951011;-0.0383;0.1871;0.0668;
81150768048095;-0.0597;0.1328;0.0754;
81150778153772;-0.1129;-0.0089;0.1232;
81150788259449;-0.1555;-0.1728;0.1477;
81150798390126;-0.1545;-0.1909;0.1072;
81150808495803;-0.1566;-0.1345;0.0891;
81150818601428;-0.1651;-0.0589;0.0763;
81150828686167;-0.2067;-0.0366;0.0668;
81150838791845;-0.1427;0.0593;0.0413;
81150848897470;-0.0788;0.2095;0.0349;
81150859025438;-0.0916;0.2031;0.0477;
81150869131063;-0.1161;0.0848;0.0869;
81150879236740;-0.1470;-0.0015;0.0997;
81150889340959;-0.1864;-0.0356;0.0816;
81150899446636;-0.2088;-0.1228;0.0774;
81150909552261;-0.2438;-0.1558;0.0562;
81150919663355;-0.2747;-0.1441;0.0274;
81150929768980;-0.2417;-0.1185;-0.0003;
81150939874657;-0.1811;-0.0345;0.0178;
81150949960022;-0.1257;-0.0387;0.0210;
81150960065699;-0.1321;-0.0716;-0.0056;
81150970171324;-0.0565;0.0752;-0.0418;
81150980275959;-0.0533;0.2116;-0.0589;
81150990381636;0.0032;0.2190;-0.0610;
81151000487261;-0.0479;0.0742;-0.0439;
81151010603563;-0.0437;-0.0313;-0.0397;
81151020709240;-0.0181;-0.0567;-0.0525;
81151030814865;0.0266;0.0273;-0.0344;
81151040904397;0.0320;0.0369;-0.0184;
81151051010022;0.0288;-0.0025;0.0072;
81151061115699;0.0298;0.0145;0.0296;
81151071217626;0.0245;0.0411;0.0423;
81151081323303;0.0447;0.1083;0.0541;
81151091428928;0.0149;0.1210;0.0901;
81151101543563;-0.0671;0.0507;0.1104;
81151111649240;-0.0575;0.0624;0.0976;
81151121754865;-0.0810;0.0305;0.0944;
81151131869709;-0.1076;0.0369;0.0605;
81151141975386;-0.0788;0.1583;0.0455;
81151152081011;-0.1385;0.0742;0.0466;
81151162185542;-0.1704;-0.0578;0.0626;
81151172291220;-0.1523;-0.0036;0.0668;
81151182396845;-0.1662;0.0646;0.0317;
81151192496063;-0.1960;0.0710;0.0221;
81151202601740;-0.2225;0.0806;0.0232;
81151212707365;-0.2332;0.0166;0.0061;
81151222822105;-0.2513;-0.0451;0.0285;
81151232927782;-0.2736;-0.0174;0.0136;
81151243033407;-0.2278;0.0294;0.0051;
81151253160751;-0.2342;0.0198;-0.0109;
81151263266376;-0.2332;-0.0196;-0.0088;
81151273372053;-0.2013;-0.0281;0.0008;
81151283454292;-0.2193;-0.0313;-0.0035;
81151293559970;-0.1896;-0.0578;-0.0237;
81151303665595;-0.1896;-0.0238;-0.0514;
81151313776688;-0.1630;0.0241;-0.0674;
81151323882313;-0.1491;0.1051;-0.0855;
81151333987990;-0.1310;0.0454;-0.0631;
81151344084917;-0.1427;-0.0567;-0.0088;
81151354190595;-0.0905;0.0028;-0.0216;
81151364296220;-0.1150;-0.0334;-0.0397;
81151374385334;-0.1236;-0.0652;-0.0248;
81151384490959;-0.0479;0.0262;0.0221;
81151394596636;-0.0298;0.0944;0.0157;
81151404725230;-0.0607;0.0667;0.0317;
81151414830907;-0.0799;0.0326;0.0573;
81151424936532;-0.0618;0.0316;0.0912;
81151435042626;-0.0735;0.0369;0.1274;
81151445148303;-0.1214;0.0103;0.1317;
81151455253928;-0.1204;0.0316;0.1381;
81151465363772;-0.1161;0.0912;0.1434;
81151475469449;-0.2024;-0.0430;0.1562;
81151485575074;-0.2140;-0.0972;0.1818;
81151495654240;-0.2182;0.0390;0.1636;
81151505759917;-0.3450;-0.0249;0.1221;
81151515865542;-0.4068;-0.0866;0.1029;
81151525997730;-0.2875;0.1519;0.0827;
81151536103407;-0.3557;0.2063;0.0763;
81151546209032;-0.5197;0.1093;0.0912;
81151556304605;-0.5059;0.1274;0.0615;
81151566410230;-0.4451;0.1061;0.0381;
81151576515907;-0.5037;0.0411;0.0285;
81151586609292;-0.4632;0.0390;-0.0056;
81151596714970;-0.3546;0.0507;-0.0258;
81151606820595;-0.3461;0.0103;-0.0248;
81151616910803;-0.3567;-0.0759;-0.0365;
81151627016428;-0.2715;-0.0068;-0.0706;
81151637122105;-0.2523;0.0933;-0.0951;
81151647227782;-0.2598;0.0188;-0.0802;
81151657361376;-0.1875;0.1232;-0.0706;
81151667467001;-0.1992;0.2361;-0.1057;
81151677572678;-0.3184;0.0230;-0.1739;
81151687674761;-0.2056;0.0997;-0.1792;
81151697780386;-0.1800;0.2893;-0.1462;
81151707886063;-0.2619;0.0880;-0.1728;
81151717987730;-0.2577;-0.0972;-0.1877;
81151728093407;-0.1822;0.0145;-0.2133;
81151738199032;-0.1566;0.0912;-0.2069;
81151748295751;-0.1885;0.0273;-0.1696;
81151758401376;-0.1694;-0.0206;-0.1196;
81151768507053;-0.1513;-0.0079;-0.0940;
81151778626688;-0.1715;-0.0855;-0.1238;
81151788732365;-0.1332;-0.0228;-0.1302;
81151798838042;-0.0586;0.1903;-0.1132;
81151808992834;-0.0160;0.2137;-0.1025;
81151819098511;-0.2035;0.0379;-0.1068;
81151829204188;-0.2342;0.0060;-0.0855;
81151839252834;-0.1598;0.0294;-0.0738;
81151849358459;-0.1374;0.0390;-0.0503;
81151859464188;-0.0991;0.0294;-0.0024;
81151869614345;-0.1481;0.0305;-0.0365;
81151879720022;-0.2534;-0.1153;-0.0237;
81151889825647;-0.1481;-0.1270;-0.0216;
81151899886376;-0.0746;-0.0356;-0.0035;
81151909992053;-0.0724;-0.0493;0.0317;
81151920097730;-0.0554;-0.0748;0.0605;
81151930241480;-0.0405;-0.0855;0.0997;
81151940347157;-0.0831;-0.1558;0.0923;
81151950452834;-0.0735;-0.1292;0.1008;
81151960530126;-0.1172;-0.0482;0.0944;
81151970635803;-0.1662;-0.0897;0.0859;
81151980741480;-0.2182;-0.1622;0.0583;
81151990851584;-0.2470;-0.1526;0.0370;
81152000957261;-0.2353;-0.0993;-0.0056;
81152011062938;-0.2193;-0.0047;-0.0205;
81152021155647;-0.2204;0.0518;-0.0418;
81152031261324;-0.2619;0.0816;-0.0610;
81152041367001;-0.2907;0.1168;-0.0407;
81152051485803;-0.2992;0.0710;-0.0162;
81152061591532;-0.2077;0.0294;-0.0067;
81152071697209;-0.1417;0.0348;-0.0056;
81152081793355;-0.1300;0.0848;0.0051;
81152091899032;-0.1118;0.1647;0.0200;
81152102004709;-0.1363;0.1530;0.0466;
81152112107834;-0.1161;0.0571;0.0306;
81152122213511;-0.0149;0.0486;0.0605;
81152132319188;0.0043;0.0859;0.0784;
81152142445438;-0.0352;0.0156;0.1051;
81152152551115;-0.0447;-0.0132;0.1136;
81152162656792;-0.0032;0.0603;0.1029;
81152172748876;-0.1108;0.0081;0.1242;
81152182854553;-0.1854;-0.1494;0.1338;
81152192960230;-0.1342;-0.2240;0.1008;
81152203072417;-0.1321;-0.1515;0.0647;
81152213178095;-0.2651;0.0252;0.0125;
81152223283772;-0.4068;0.0177;0.0051;
81152233380230;-0.4047;-0.0993;0.0178;
81152243485907;-0.3578;-0.0674;-0.0013;
81152253591584;-0.3450;-0.0228;-0.0173;
81152263696480;-0.3802;-0.0546;-0.0056;
81152273802157;-0.4015;-0.0993;0.0029;
81152283907834;-0.4100;-0.1228;-0.0493;
81152294008042;-0.3546;-0.0047;-0.0684;
81152304113720;-0.3738;0.0795;-0.0620;
81152314219397;-0.3631;0.0752;-0.0610;
81152324338355;-0.2736;0.0784;-0.0407;
81152334444032;-0.2843;0.0816;-0.0184;
81152344549709;-0.2853;0.0678;-0.0407;
81152354662522;-0.2459;-0.0324;-0.0493;
81152364768199;-0.1864;-0.0047;0.0115;
81152374873876;-0.1662;0.1594;0.0285;
81152384994449;-0.2013;0.1945;-0.0312;
81152395100178;-0.1822;0.0656;-0.0589;
81152405205855;-0.1854;-0.0546;-0.0407;
81152415284917;-0.0852;0.0987;-0.0280;
81152425390595;-0.0873;0.2350;-0.0503;
81152435496272;-0.1736;0.1466;-0.0610;
81152445605647;-0.1694;0.0933;-0.1036;
81152455711324;-0.1268;0.1104;-0.1228;
81152465817001;-0.2140;0.1391;-0.1036;
81152475924865;-0.1843;0.0933;-0.1260;
81152486030542;-0.1811;0.0379;-0.1366;
81152496136220;-0.2161;0.0166;-0.1483;
81152506230647;-0.2077;0.0965;-0.1387;
81152516336324;-0.2088;0.1306;-0.1270;
81152526442001;-0.1949;0.1700;-0.1409;
81152536568667;-0.2045;0.1615;-0.0908;
81152546674345;-0.2342;0.1423;-0.0834;
81152556780022;-0.2214;0.1136;-0.0812;
81152566869917;-0.2417;0.0614;-0.0780;
81152576975595;-0.1992;0.0497;-0.0652;
81152587081272;-0.2523;0.0039;-0.0482;
81152597191063;-0.2598;0.0497;-0.0599;
81152607296740;-0.2853;0.0923;-0.0727;
81152617402417;-0.3365;0.0092;-0.0855;
81152627517938;-0.3567;0.0049;-0.0929;
81152637623615;-0.2960;0.0465;-0.0961;
81152647729292;-0.2917;0.0209;-0.1238;
81152657819501;-0.2832;0.0379;-0.1249;
81152667925178;-0.2928;0.0774;-0.1164;
81152678030855;-0.3035;0.0188;-0.0951;
81152688144605;-0.3003;-0.0525;-0.0993;
81152698250282;-0.2981;-0.0430;-0.1057;
81152708355959;-0.2917;-0.0387;-0.1004;
81152718494709;-0.2779;-0.0100;-0.0961;
81152728600386;-0.2353;-0.0366;-0.1047;
81152738706063;-0.1981;-0.0652;-0.0716;
81152748770647;-0.1854;-0.0493;-0.0312;
81152758876272;-0.1939;-0.0620;-0.0077;
81152768981949;-0.2003;-0.0599;0.0221;
81152779120855;-0.2363;-0.1270;0.0306;
81152789226532;-0.2651;-0.2027;0.0381;
81152799332313;-0.2438;-0.1153;0.0466;
81152809391584;-0.2608;-0.0302;0.0349;
81152819497261;-0.2619;-0.0419;0.0242;
81152829603042;-0.2736;-0.0228;0.0200;
81152839738095;-0.2672;0.0017;0.0168;
81152849843824;-0.2758;-0.0451;0.0487;
81152859949605;-0.3173;-0.0727;0.0445;
81152870009865;-0.3003;-0.0748;0.0296;
81152880115595;-0.2758;-0.0546;0.0338;
81152890221376;-0.2992;0.0007;0.0360;
81152900358615;-0.3578;-0.0599;0.0317;
81152910464345;-0.3482;-0.0823;0.0349;
81152920570126;-0.3429;-0.0451;0.0423;
81152930671897;-0.3589;-0.0132;0.0370;
81152940777626;-0.3482;0.0071;0.0636;
81152950883407;-0.4057;0.0678;0.0774;
81152960992626;-0.4675;0.1328;0.0658;
81152971098355;-0.4888;0.1732;0.0901;
81152981204136;-0.3748;0.2244;0.0743;
81152991322782;-0.3514;0.1232;0.0541;
81153001428511;-0.4132;0.0092;0.0498;
81153011534292;-0.3344;0.0667;0.0317;
81153021617001;-0.3216;0.1445;0.0157;
81153031722782;-0.3748;0.1253;0.0242;
81153041828563;-0.3865;0.0454;0.0519;
81153051929813;-0.3834;0.0220;0.0530;
81153062035542;-0.4025;0.0337;0.0402;
81153072141324;-0.4089;0.0177;0.0487;
81153082258876;-0.4047;-0.0164;0.0658;
81153092364605;-0.3951;0.0124;0.0583;
81153102470386;-0.3951;0.0358;0.0541;
81153112577105;-0.3929;0.0401;0.0370;
81153122682834;-0.3983;0.0816;0.0157;
81153132788615;-0.4196;0.1775;-0.0333;
81153142911688;-0.4089;0.1636;-0.0439;
81153153017417;-0.3844;0.0763;-0.0642;
81153163123199;-0.3557;0.0081;-0.1228;
81153173193980;-0.3482;0.0273;-0.1835;
81153183299709;-0.3802;0.0880;-0.2144;
81153193405490;-0.3802;0.0667;-0.2378;
81153203523772;-0.3471;0.0955;-0.2506;
81153213629501;-0.3365;0.1658;-0.2879;
81153223735282;-0.3035;0.0305;-0.3347;
81153233842209;-0.2587;-0.0345;-0.3635;
81153243947938;-0.2662;0.0614;-0.3752;
81153254053720;-0.2427;0.0763;-0.4168;
81153264160126;-0.1726;0.0571;-0.4359;
81153274265803;-0.1257;0.0443;-0.4178;
81153284371636;-0.1012;0.0401;-0.4296;
81153294474032;-0.0799;0.0443;-0.4668;
81153304579761;-0.0170;0.0316;-0.5094;
81153314685542;0.0277;-0.0260;-0.4860;
81153324806949;0.0799;-0.0292;-0.4573;
81153334912678;0.1076;-0.0695;-0.4423;
81153345018407;0.1566;-0.0919;-0.4253;
81153355128199;0.2450;-0.0589;-0.4423;
81153365233928;0.3600;-0.0398;-0.3891;
81153375339761;0.4238;-0.0419;-0.2985;
81153385418720;0.4590;-0.0599;-0.2453;
81153395524501;0.4941;-0.0567;-0.2154;
81153405630282;0.5048;-0.0695;-0.1782;
81153415741584;0.5794;-0.0313;-0.1132;
81153425847313;0.5825;0.0337;-0.0557;
81153435953095;0.5314;-0.0036;-0.0205;
81153446070334;0.4654;-0.1419;0.0445;
81153456176063;0.4238;-0.1771;0.0891;
81153466281845;0.3867;-0.0812;0.1008;
81153476362626;0.2141;-0.0377;0.0722;
81153486468355;0.0682;-0.0780;0.1083;
81153496574136;0.0138;-0.0929;0.1200;
81153506694605;0.0032;-0.0206;0.0965;
81153516800334;-0.1363;0.0859;0.0668;
81153526906115;-0.3791;0.0688;0.0466;
81153537009397;-0.5378;-0.0228;0.0328;
81153547115126;-0.5250;-0.0345;-0.0067;
81153557220907;-0.6060;-0.1366;-0.0354;
81153567319397;-0.6635;-0.2474;-0.0674;
81153577425126;-0.5293;-0.1622;-0.0983;
81153587530907;-0.5016;-0.0153;-0.1537;
81153597644813;-0.6049;0.0348;-0.1931;
81153607750490;-0.7498;-0.0260;-0.2474;
81153617856324;-0.6060;0.0113;-0.2772;
81153627968772;-0.4750;0.0838;-0.2953;
81153638074501;-0.4686;-0.0281;-0.2943;
81153648180282;-0.2779;-0.0514;-0.2985;
81153658276480;-0.0873;0.0039;-0.3049;
81153668382209;-0.1704;-0.0546;-0.2879;
81153678487990;-0.1491;-0.1494;-0.2421;
81153688577834;-0.0107;-0.1579;-0.2165;
81153698683563;0.1353;-0.0461;-0.2080;
81153708789345;0.0405;0.0092;-0.2101;
81153718918563;-0.1044;-0.0196;-0.1782;
81153729024240;-0.1470;0.0124;-0.1345;
81153739130022;-0.1598;0.0241;-0.0940;
81153749225803;-0.1672;0.0177;-0.0578;
81153759331532;-0.1577;-0.0047;-0.0407;
81153769437365;-0.1150;0.0230;-0.0120;
81153779528876;-0.1768;0.0816;0.0029;
81153789634501;-0.2555;0.0252;0.0933;
81153799740126;-0.3216;-0.0142;0.1658;
81153809877522;-0.3184;0.0145;0.1626;
81153819983147;-0.3546;0.0198;0.1615;
81153830088772;-0.4185;-0.0111;0.1370;
81153840195334;-0.4430;0.0177;0.1200;
81153850300959;-0.5154;0.2105;0.1019;
81153860406584;-0.5836;0.2904;0.1029;
81153870504397;-0.5474;0.1636;0.1285;
81153880610022;-0.5154;0.1040;0.1189;
81153890715647;-0.4909;0.0593;0.0763;
81153900817209;-0.5080;-0.0823;0.0562;
81153910922834;-0.4909;-0.1931;0.0541;
81153921028459;-0.4537;-0.2027;0.0551;
81153931128772;-0.4505;-0.2591;0.0573;
81153941234397;-0.5144;-0.3273;0.0242;
81153951340022;-0.5154;-0.2549;0.0029;
81153961452522;-0.5101;-0.0482;-0.0024;
81153971558147;-0.5048;-0.1057;-0.0226;
81153981663772;-0.4494;-0.4445;-0.0897;
81153991783199;-0.4025;-0.3529;-0.1142;
81154001888824;-0.3897;-0.3379;-0.1015;
81154011994449;-0.3045;-0.6128;-0.1057;
81154022075074;-0.3812;-0.3965;-0.1185;
81154032180699;-0.4153;0.1700;-0.1867;
81154042286324;-0.2939;0.4097;-0.2463;
81154052407522;-0.3056;0.2531;-0.2218;
81154062513147;-0.2598;0.1146;-0.2517;
81154072618772;-0.2342;0.1445;-0.3188;
81154082717626;-0.1651;0.1232;-0.3550;
81154092823251;-0.1172;0.1029;-0.3486;
81154102928876;-0.0533;0.1061;-0.3092;
81154113050959;-0.0565;0.0529;-0.2847;
81154123156584;-0.0597;-0.1079;-0.2911;
81154133262209;0.0085;-0.1292;-0.3166;
81154143365959;0.0170;-0.0430;-0.3379;
81154153471584;0.0533;0.0028;-0.3465;
81154163577209;0.0320;0.1051;-0.3284;
81154173683459;-0.0181;0.1839;-0.3113;
81154183789084;0.0053;0.1434;-0.3145;
81154193894709;0.0873;0.2158;-0.3220;
81154203984813;0.2024;0.6194;-0.3241;
81154214090438;0.1374;0.5226;-0.3039;
81154224196063;0.1747;0.1871;-0.2826;
81154234307626;0.3600;0.4353;-0.2900;
81154244413251;0.3174;0.1541;-0.2399;
81154254518876;0.3952;-0.5371;-0.1313;
81154264613563;0.5293;-0.5009;-0.0834;
81154274719188;0.5698;-0.1814;-0.1004;
81154284824813;0.5421;-0.1196;-0.0834;
81154294928980;0.4845;-0.2357;-0.0631;
81154305034605;0.4377;-0.1963;0.0093;
81154315140230;0.4025;0.0486;0.0658;
81154325266272;0.3824;0.1466;0.1423;
81154335371897;0.2439;0.1807;0.1913;
81154345477522;0.1832;0.4236;0.1381;
81154355586167;0.1438;0.4481;0.0901;
81154365691792;0.0873;0.1583;0.1168;
81154375797417;0.0117;0.0049;0.1455;
81154385888772;0.0107;-0.0812;0.1605;
81154395994397;0.0309;-0.1718;0.1605;
81154406100022;0.0426;-0.0791;0.1083;
81154416204865;0.0522;-0.0260;0.1040;
81154426310490;0.0330;-0.0514;0.1253;
81154436416115;0.0192;0.0209;0.1338;
81154446516063;0.0202;0.0997;0.1146;
81154456621688;0.0138;0.1519;0.0912;
81154466727313;0.0639;0.2286;0.0509;
81154476841272;0.0831;0.1594;0.0136;
81154486946897;0.1822;0.0252;0.0093;
81154497052522;0.1449;0.0497;-0.0045;
81154507159292;0.0863;0.1125;-0.0130;
81154517264917;0.0916;0.0220;-0.0077;
81154527370542;0.1055;-0.0471;-0.0024;
81154537467209;0.0810;-0.1025;0.0232;
81154547572834;0.0597;-0.1750;0.0360;
81154557678459;0.0554;-0.1526;0.0391;
81154567805855;0.0586;-0.0951;0.0232;
81154577911480;0.0522;-0.0366;0.0242;
81154588017105;0.0607;0.1051;-0.0024;
81154598085647;0.0543;0.1200;-0.0205;
81154608191272;0.0863;0.1104;-0.0141;
81154618296897;0.0735;0.0710;0.0019;
81154628451480;0.0628;-0.0260;0.0061;
81154638557105;0.0490;0.0060;0.0051;
81154648662730;0.0405;-0.0121;0.0008;
81154658723563;-0.0021;-0.0812;-0.0162;
81154668829188;-0.0447;-0.1185;-0.0099;
81154678934813;-0.0991;-0.1249;0.0210;
81154689052209;-0.1672;-0.1441;0.0178;
81154699157834;-0.1651;-0.1483;0.0189;
81154709263459;-0.1619;-0.1302;0.0551;
81154719382938;-0.2310;-0.0940;0.0562;
81154729488563;-0.2045;-0.0324;0.0455;
81154739594188;-0.1332;0.0177;0.0583;
81154749684032;-0.0618;0.0028;0.0976;
81154759789657;-0.0341;-0.0334;0.0965;
81154769895282;-0.0245;-0.0482;0.1168;
81154780023355;-0.0117;-0.0503;0.1317;
81154790129032;-0.0128;-0.0695;0.1178;
81154800234761;-0.0799;-0.0951;0.0912;
81154810304188;-0.0767;-0.0738;0.0923;
81154820409865;-0.1502;-0.0589;0.1146;
81154830515595;-0.1651;-0.0919;0.1029;
81154840625438;-0.1651;-0.1057;0.0901;
81154850731115;-0.2672;-0.0780;0.0647;
81154860836845;-0.3184;-0.0567;0.0413;
81154870937313;-0.2992;-0.0652;0.0445;
81154881042990;-0.3205;-0.0514;0.0338;
81154891148720;-0.3525;-0.0302;-0.0045;
81154901279032;-0.3216;-0.0631;-0.0344;
81154911384709;-0.2917;-0.0578;-0.0322;
81154921490438;-0.3205;-0.0121;-0.0407;
81154931588876;-0.2907;-0.0270;-0.0461;
81154941694553;-0.2099;-0.0324;-0.0535;
81154951800282;-0.1651;-0.0100;-0.0620;
81154961912522;-0.1619;-0.0238;-0.0599;
81154972018199;-0.0991;-0.0802;-0.0514;
81154982123928;-0.0948;-0.0940;-0.0546;
81154992230282;-0.1055;-0.0578;-0.0887;
81155002335959;-0.1076;-0.0377;-0.1196;
81155012441688;-0.0948;-0.0228;-0.1036;
81155022532105;-0.0660;0.0049;-0.0855;
81155032637782;-0.0746;-0.0025;-0.0791;
81155042743511;-0.0586;-0.0441;-0.0834;
81155052842105;-0.0341;-0.0441;-0.0961;
81155062947782;-0.0490;-0.0249;-0.0951;
81155073053511;-0.0597;-0.0302;-0.0770;
81155083172053;-0.0575;-0.0260;-0.0759;
81155093277730;-0.0383;-0.0185;-0.0887;
81155103383459;-0.0565;-0.0377;-0.0706;
81155113500334;-0.1140;-0.0652;-0.0674;
81155123606011;-0.1395;-0.0164;-0.0663;
81155133711740;-0.2130;0.2499;-0.0503;
81155143827365;-0.1949;0.4182;-0.0141;
81155153933042;0.0565;0.2936;0.0178;
81155164038772;0.1033;0.2425;0.0328;
81155174143355;0.0149;0.1935;-0.0290;
81155184249032;-0.0490;0.0550;-0.0503;
81155194354761;-0.0756;-0.1185;-0.0418;
81155204451949;-0.0905;-0.1036;-0.0237;
81155214557626;-0.1001;-0.0206;-0.0099;
81155224663355;-0.0767;0.0166;-0.0099;
81155234770230;-0.0873;0.1029;0.0008;
81155244875907;-0.0831;0.0742;-0.0205;
81155254981636;-0.0085;-0.1004;-0.0333;
81155265080490;0.0565;-0.2197;-0.0365;
81155275186167;-0.1332;0.2574;-0.0610;
81155285291897;-0.2332;0.6386;-0.0003;
81155295392626;0.0810;0.3437;0.0965;
81155305498303;0.5250;0.0859;0.0530;
81155315604032;0.3718;0.2702;-0.0652;
81155325721688;0.0692;0.3096;0.0040;
81155335827365;0.1747;0.1189;0.0859;
81155345933095;0.2589;-0.2218;0.1679;
81155356040022;0.1992;-0.4328;0.1636;
81155366145699;0.0671;-0.2378;0.1349;
81155376251428;0.0256;0.0411;0.1019;
81155386364813;0.0032;0.0901;0.0763;
81155396470490;-0.0330;0.0497;0.0583;
81155406576220;-0.0469;0.0848;0.0605;
81155416664605;-0.0597;0.1072;0.0594;
81155426770282;-0.0149;0.0699;0.0498;
81155436876011;-0.0043;-0.0260;0.0306;
81155446996480;-0.0224;-0.0727;0.0296;
81155457102157;-0.0213;0.1083;-0.0375;
81155467207886;0.0469;0.3543;-0.0908;
81155477305230;0.0170;0.1615;-0.0876;
81155487410907;0.0447;-0.4711;-0.0375;
81155497516636;0.0426;-0.6840;0.0157;
81155507605855;0.1640;-0.3134;0.0242;
81155517711532;0.1097;-0.0503;0.0306;
81155527817261;-0.0096;-0.3092;-0.0056;
81155537925959;0.0458;-0.2336;-0.0354;
81155548031636;-0.6976;0.6865;-0.0290;
81155558137365;-1.1076;0.9401;0.1232;
81155568244605;-0.1332;0.2872;0.1104;
81155578350282;0.6017;0.0007;0.0051;
81155588456011;-0.0437;0.1530;-0.0610;
81155598555438;-0.4238;-0.0324;0.0093;
81155608661115;-0.2310;-0.1995;-0.0024;
81155618766845;-0.3120;-0.1973;-0.0205;
81155628882782;-0.5612;-0.2591;-0.0578;
81155638988459;-0.6028;-0.3092;-0.1206;
81155649094240;-0.5708;-0.2570;-0.1515;
81155659193511;-0.6571;-0.0951;-0.1899;
81155669299188;-0.6561;0.0305;-0.1973;
81155679404917;-0.4867;0.0816;-0.1526;
81155689500959;-0.2067;0.2393;-0.1483;
81155699606688;-0.0330;0.3373;-0.1430;
81155709712417;0.1161;0.3021;-0.1228;
81155719859917;0.2503;0.2947;-0.1089;
81155729965595;0.2748;0.1562;-0.0823;
81155740071324;0.3451;0.0113;-0.0599;
81155750137626;0.3185;-0.1750;-0.0589;
81155760243303;0.2695;-0.2708;-0.0610;
81155770349032;0.3537;-0.3987;-0.0184;
81155780452938;0.4334;-0.7863;0.0848;
81155790558563;0.2791;-0.8353;0.1402;
81155800664188;-0.0991;-0.3145;0.1338;
81155810774813;-0.2300;0.1445;0.1125;
81155820880438;-0.0522;0.3330;0.0402;
81155830986063;-0.0213;0.3927;-0.0205;
81155841089813;-0.0288;0.4630;-0.0173;
81155851195438;-0.0298;0.3948;0.0221;
81155861301063;0.1513;0.0912;0.0827;
81155871405542;0.2216;-0.1846;0.0774;
81155881511167;0.0618;-0.3379;0.0274;
81155891616792;-0.0650;-0.4967;-0.0088;
81155901725438;-0.0458;-0.6021;-0.0216;
81155911831063;-0.0639;-0.6979;-0.0386;
81155921936688;-0.0533;-0.8246;-0.0589;
81155932044605;-0.0703;-0.7607;-0.0780;
81155942150230;-0.3748;-0.3262;-0.1015;
81155952255855;-0.6198;0.1061;-0.0471;
81155962370022;-0.1715;0.2073;-0.0791;
81155972475647;0.0852;0.2425;-0.1494;
81155982581272;0.0586;0.4268;-0.1941;
81155992683042;0.1033;0.5024;-0.1973;
81156002788667;0.1939;0.2893;-0.1142;
81156012894292;0.2514;-0.0387;-0.0418;
81156022988876;0.0810;-0.1973;-0.0482;
81156033094501;-0.1044;-0.2815;-0.0823;
81156043200126;-0.1555;-0.3678;-0.1356;
81156053309605;-0.2790;-0.4061;-0.1835;
81156063415230;-0.3642;-0.3316;-0.2261;
81156073520855;-0.3844;-0.1782;-0.2389;
81156083628772;-0.2694;-0.0089;-0.2911;
81156093734397;-0.0447;0.1274;-0.3316;
81156103840022;0.0831;0.1711;-0.3390;
81156113955647;0.2109;0.1913;-0.3177;
81156124061272;0.3856;0.3011;-0.3039;
81156134166897;0.4696;0.4129;-0.3326;
81156144263876;0.4867;0.3746;-0.3710;
81156154369501;0.5122;0.3767;-0.3561;
81156164475126;0.5059;0.4672;-0.3347;
81156174599292;0.4558;0.4118;-0.3465;
81156184704917;0.1854;-0.0345;-0.3827;
81156194810542;0.0405;-0.5574;-0.4871;
81156204903563;0.1076;-0.5510;-0.5498;
81156215009188;0.1960;-0.3347;-0.5445;
81156225114813;0.2727;-0.3124;-0.5158;
81156235209605;0.3888;-0.2506;-0.5041;
81156245315230;0.5186;-0.0557;-0.5084;
81156255420855;0.5485;0.0305;-0.5094;
81156265529709;0.5857;-0.0249;-0.5073;
81156275635334;0.7114;0.0369;-0.4828;
81156285740959;0.8489;0.1967;-0.4583;
81156295846897;0.9288;0.2393;-0.4189;
81156305952522;1.0012;0.1722;-0.3720;
81156316058147;1.0948;0.1221;-0.2719;
81156326179813;1.1363;0.0369;-0.1505;
81156336285438;1.1949;-0.0834;-0.0557;
81156346391063;1.1971;-0.1302;0.0455;
81156356490855;1.1491;-0.1483;0.1136;
81156366596428;1.1417;-0.1228;0.1807;
81156376702105;1.0746;-0.0249;0.2414;
81156386798199;0.9959;0.0198;0.2776;
81156396903824;0.8872;0.0635;0.3138;
81156407009449;0.7732;0.1871;0.3469;
81156417110126;0.6347;0.2542;0.3841;
81156427215751;0.4483;0.2744;0.3799;
81156437321376;0.4196;0.3085;0.3522;
81156447418980;0.3867;0.2968;0.3841;
81156457524605;0.2599;0.2691;0.4406;
81156467630230;0.1704;0.2787;0.4758;
81156477757209;0.0447;0.1903;0.4896;
81156487862834;-0.1055;0.0358;0.4907;
81156497968459;-0.2885;-0.1132;0.4800;
81156508057365;-0.4483;-0.2304;0.4417;
81156518162990;-0.5410;-0.2101;0.4012;
81156528268615;-0.6369;-0.1164;0.3671;
81156538399449;-0.7136;-0.0546;0.3501;
81156548505074;-0.7136;0.1413;0.3011;
81156558610699;-0.6912;0.3852;0.2393;
81156568695751;-0.7690;0.4236;0.2254;
81156578801376;-0.8732;0.2893;0.2158;
81156588907001;-0.7498;0.1818;0.2190;
81156599030230;-0.5815;0.0092;0.2808;
81156609135855;-0.5144;-0.2091;0.3320;
81156619241480;-0.5037;-0.3486;0.3437;
81156629339709;-0.4888;-0.4871;0.3447;
81156639445334;-0.4686;-0.5254;0.3650;
81156649550959;-0.4824;-0.3997;0.3927;
81156659664292;-0.5698;-0.2740;0.3980;
81156669769917;-0.7029;-0.2165;0.3852;
81156679875542;-0.7903;-0.0929;0.3682;
81156689956167;-0.8881;0.0656;0.3479;
81156700061792;-1.0117;0.1200;0.3607;
81156710167417;-0.9638;0.1242;0.3288;
81156720271584;-0.9116;0.0806;0.2989;
81156730377209;-0.9148;0.0028;0.2712;
81156740482834;-0.8977;-0.0313;0.2222;
81156750599032;-0.8924;-0.1270;0.1743;
81156760704657;-0.8423;-0.3081;0.1296;
81156770810282;-0.8487;-0.3049;0.1093;
81156780919917;-0.9627;-0.1398;0.0754;
81156791025542;-0.9819;-0.0249;0.0093;
81156801131220;-0.9521;0.0603;-0.0631;
81156811238980;-0.9148;0.2009;-0.1451;
81156821344605;-0.8839;0.4033;-0.2165;
81156831450282;-0.7136;0.5088;-0.2240;
81156841547834;-0.3929;0.4875;-0.2282;
81156851653459;-0.1885;0.4843;-0.2708;
81156861759136;0.0107;0.5109;-0.3081;
81156871865542;0.1534;0.4662;-0.3337;
81156881971167;0.3579;0.3479;-0.3326;
81156892076845;0.6060;0.2595;-0.2932;
81156902190126;0.6944;0.2233;-0.2527;
81156912295751;0.7008;0.1242;-0.2133;
81156922401428;0.7913;0.1146;-0.1728;
81156932511792;0.8435;0.1583;-0.1228;
81156942617417;0.9192;0.1317;-0.0983;
81156952723095;1.0415;0.1029;-0.0546;
81156962834397;1.0319;0.0742;-0.0003;
81156972940022;1.0501;0.0124;0.0477;
81156983045699;1.0042;0.0593;0.0997;
81156993140230;0.9224;0.2052;0.1264;
81157003245855;0.8893;0.1924;0.1605;
81157013351532;0.9852;0.0763;0.2137;
81157023448667;1.0394;-0.0228;0.2798;
81157033554292;0.9202;-0.1984;0.3373;
81157043659970;0.7583;-0.3507;0.3820;
81157053777365;0.4515;-0.3017;0.3714;
81157063882990;0.2035;-0.2069;0.3362;
81157073988667;0.0788;-0.1941;0.3298;
81157084102626;-0.0352;-0.1952;0.3437;
81157094208251;-0.2353;-0.1867;0.3224;
81157104313928;-0.4185;-0.1505;0.2989;
81157114421428;-0.5431;-0.1590;0.2563;
81157124527053;-0.7008;-0.1356;0.2467;
81157134632730;-0.8754;-0.0567;0.1690;
81157144738147;-0.9414;0.0028;0.1115;
81157154843772;-0.9648;0.0092;0.0848;
81157164949449;-0.9212;0.0305;0.0434;
81157175059397;-0.8764;0.0561;-0.0280;
81157185164970;-0.8668;0.0667;-0.0983;
81157195270699;-0.8423;0.0593;-0.1292;
81157205363772;-0.8413;-0.0535;-0.1473;
81157215469397;-0.8137;-0.1750;-0.1899;
81157225575074;-0.7072;-0.1675;-0.2261;
81157235677938;-0.6518;-0.0983;-0.2250;
81157245783563;-0.4739;0.0443;-0.2122;
81157255889240;-0.2013;0.2031;-0.2122;
81157265994449;-0.0895;0.2446;-0.2037;
81157276100074;0.0352;0.2297;-0.1931;
81157286205751;0.2173;0.2340;-0.1771;
81157296303303;0.3121;0.1956;-0.1611;
81157306408928;0.3569;0.1157;-0.1824;
81157316514605;0.3483;0.0635;-0.1718;
81157326643563;0.3302;-0.0302;-0.1920;
81157336749188;0.2844;-0.1558;-0.2154;
81157346854865;0.1417;-0.3081;-0.1963;
81157356939292;0.0053;-0.4146;-0.1675;
81157367044917;0.0650;-0.4029;-0.1877;
81157377150595;0.1332;-0.2772;-0.2218;
81157387244605;0.0000;-0.1302;-0.2740;
81157397350230;-0.0128;-0.0174;-0.3071;
81157407455855;0.0373;0.0997;-0.3039;
81157417565647;0.0192;0.1583;-0.2762;
81157427671272;0.0650;0.1626;-0.2666;
81157437776949;0.1076;0.1455;-0.2879;
81157447891167;0.1566;0.1029;-0.2815;
81157457996792;0.1981;0.0188;-0.2506;
81157468102470;0.1598;-0.2250;-0.2186;
81157478207417;0.2099;-0.3028;-0.1803;
81157488313042;0.4899;-0.2208;-0.1941;
81157498418720;0.4302;-0.4423;-0.0887;
81157508532938;0.3632;-0.6744;0.0573;
81157518638563;0.2610;-0.4498;0.0605;
81157528744240;0.8105;0.1413;-0.0780;
81157538853251;1.3164;0.5077;-0.1814;
81157548958876;0.9948;0.4832;-0.0120;
81157559064553;0.1097;0.2830;0.1732;
81157569157313;0.0820;0.3916;0.2244;
81157579262938;0.1332;0.2734;0.2371;
81157589368563;-0.0213;-0.1973;0.2606;
81157599487626;0.0181;-0.3209;0.2776;
81157609593251;0.1726;-0.1451;0.2371;
81157619698928;0.3068;-0.0961;0.2350;
81157629785022;0.3238;-0.0663;0.2595;
81157639890647;0.0309;0.0028;0.2553;
81157649996324;-0.2363;0.1232;0.2883;
81157660109865;-0.4313;0.1519;0.2989;
81157670215490;-0.3823;0.1189;0.2819;
