Sensor: bmi160 Accelerometer Non-wakeup
Vendor: BOSCH
TimestampAcc [ns]; AccX [m/s^2]; AccY [m/s^2]; AccZ [m/s^2]
990542596396625;-9.3688;0.3990;-2.6919;
990542606542875;-9.3616;0.3775;-2.7039;
990542616650375;-9.3664;0.3655;-2.7326;
990542626687770;-9.3377;0.3679;-2.7661;
990542636891833;-9.3520;0.4062;-2.7757;
990542646929229;-9.3736;0.4253;-2.7852;
990542657099750;-9.3760;0.3775;-2.7565;
990542667228968;-9.3640;0.3296;-2.7422;
990542677334854;-9.3329;0.3679;-2.7111;
990542687393604;-9.3616;0.4229;-2.6919;
990542697537198;-9.3616;0.4205;-2.7278;
990542707637979;-9.3688;0.4301;-2.7565;
990542717743968;-9.3544;0.4301;-2.7565;
990542727844698;-9.3520;0.4301;-2.7398;
990542737937302;-9.3688;0.4301;-2.7254;
990542748041052;-9.4023;0.4158;-2.7302;
990542758176677;-9.3640;0.4110;-2.7182;
990542768270062;-9.3497;0.4373;-2.7135;
990542778346833;-9.3784;0.4636;-2.7087;
990542788447666;-9.3808;0.4878;-2.7182;
990542798552614;-9.3784;0.5046;-2.7039;
990542808648812;-9.3999;0.5189;-2.6871;
990542818756573;-9.3832;0.4998;-2.6417;
990542828860218;-9.3784;0.5285;-2.6345;
990542838961260;-9.3664;0.5429;-2.6800;
990542849082666;-9.3568;0.5333;-2.7182;
990542859170531;-9.3520;0.5285;-2.7159;
990542869273968;-9.3712;0.5453;-2.7063;
990542879371416;-9.3784;0.5668;-2.7182;
990542889481468;-9.3664;0.5548;-2.6943;
990542899628708;-9.3664;0.5859;-2.6680;
990542909682823;-9.3760;0.6075;-2.6847;
990542919788656;-9.3640;0.5692;-2.6847;
990542929886312;-9.3544;0.5596;-2.6991;
990542940012562;-9.3664;0.5477;-2.7494;
990542950100062;-9.3640;0.5213;-2.7613;
990542960232718;-9.3640;0.5046;-2.7182;
990542970333031;-9.3616;0.4902;-2.6991;
990542980409020;-9.3568;0.4660;-2.6752;
990542990520739;-9.3568;0.4902;-2.6776;
990543000616104;-9.3616;0.5285;-2.6847;
990543010733812;-9.3808;0.5166;-2.6919;
990543020845583;-9.3855;0.4854;-2.7111;
990543030918448;-9.3640;0.4854;-2.7135;
990543041021468;-9.3544;0.4660;-2.7374;
990543051136156;-9.3592;0.4588;-2.7159;
990543061237823;-9.3520;0.4229;-2.7135;
990543071341573;-9.3712;0.4277;-2.6704;
990543081462041;-9.3808;0.4397;-2.6656;
990543091558395;-9.3784;0.4588;-2.6943;
990543101654541;-9.3903;0.4759;-2.6991;
990543111756885;-9.3832;0.4660;-2.7063;
990543121851156;-9.3808;0.4660;-2.7230;
990543131989437;-9.3377;0.4564;-2.7087;
990543142061625;-9.3544;0.4493;-2.6752;
990543152167718;-9.3616;0.4516;-2.6824;
990543162267510;-9.3616;0.4636;-2.6728;
990543172371677;-9.3688;0.4998;-2.7039;
990543182506208;-9.3784;0.5261;-2.7182;
990543192581260;-9.3903;0.4759;-2.7254;
990543202683864;-9.3664;0.4759;-2.6919;
990543212789489;-9.3832;0.4878;-2.7015;
990543222902927;-9.3736;0.4926;-2.7015;
990543232998135;-9.3425;0.5357;-2.7087;
990543243101468;-9.3832;0.5309;-2.6871;
990543253203864;-9.3903;0.5189;-2.7206;
990543263306052;-9.3592;0.5070;-2.7254;
990543273414906;-9.3520;0.4926;-2.7159;
990543283509177;-9.3425;0.4735;-2.7206;
990543293616573;-9.3544;0.4325;-2.7206;
990543303722041;-9.3808;0.4181;-2.6847;
990543313822823;-9.3688;0.4038;-2.7039;
990543323927041;-9.3544;0.3990;-2.6967;
990543334032823;-9.3425;0.4373;-2.6991;
990543344132406;-9.3425;0.4660;-2.7135;
990543354237718;-9.3473;0.5189;-2.7230;
990543364341364;-9.3401;0.5524;-2.7446;
990543374443135;-9.3449;0.5859;-2.7661;
990543384546573;-9.3616;0.5764;-2.8140;
990543394652823;-9.3640;0.5859;-2.7757;
990543404756364;-9.3592;0.5859;-2.7470;
990543414856052;-9.3425;0.5620;-2.7470;
990543424983291;-9.3592;0.5548;-2.7589;
990543435062406;-9.3377;0.5716;-2.7829;
990543445164281;-9.3257;0.6338;-2.8092;
990543455270114;-9.3664;0.6936;-2.8044;
990543465372927;-9.3640;0.6984;-2.7517;
990543475490427;-9.3688;0.7247;-2.6967;
990543485584802;-9.3903;0.7370;-2.6441;
990543495684385;-9.4119;0.7223;-2.6465;
990543505788239;-9.3903;0.6984;-2.6441;
990543515890323;-9.3879;0.6194;-2.6680;
990543525993760;-9.3808;0.5189;-2.6967;
990543536096364;-9.3760;0.4253;-2.7494;
990543546199593;-9.3353;0.3464;-2.7948;
990543556304802;-9.3042;0.2937;-2.7876;
990543566404177;-9.3209;0.2554;-2.7541;
990543576507927;-9.3425;0.2818;-2.7278;
990543586614489;-9.3592;0.2578;-2.6536;
990543596717093;-9.3784;0.2483;-2.6034;
990543606821364;-9.4119;0.2124;-2.6345;
990543616920010;-9.3927;0.2291;-2.6824;
990543627028135;-9.3592;0.1499;-2.7039;
990543637131260;-9.3616;0.0757;-2.7494;
990543647225010;-9.4143;0.0805;-2.8379;
990543657341364;-9.4167;0.0541;-2.8283;
990543667437718;-9.3927;0.0589;-2.7876;
990543677543656;-9.3784;0.0446;-2.7206;
990543687667614;-9.3832;-0.0033;-2.6201;
990543697750218;-9.4023;0.0039;-2.5887;
990543707857614;-9.4095;0.0302;-2.6584;
990543717960531;-9.4023;-0.0153;-2.7972;
990543728052458;-9.3473;-0.0921;-2.8546;
990543738142614;-9.3640;-0.1711;-2.8259;
990543748232770;-9.3520;-0.2381;-2.7996;
990543758363864;-9.3497;-0.3194;-2.7685;
990543768453968;-9.3377;-0.4322;-2.6584;
990543778544125;-9.4071;-0.5160;-2.6106;
990543788682718;-9.4119;-0.5590;-2.6249;
990543798772875;-9.3784;-0.5471;-2.6058;
990543808863083;-9.3497;-0.4920;-2.6847;
990543818997406;-9.3784;-0.4011;-2.7182;
990543829087614;-9.3736;-0.2237;-2.7302;
990543839177770;-9.3760;-0.0730;-2.7422;
990543849295166;-9.3712;0.0805;-2.7733;
990543859385323;-9.3736;0.2554;-2.8427;
990543869475531;-9.3162;0.3990;-2.9937;
990543879665895;-9.2946;0.5453;-3.0583;
990543889756000;-9.2874;0.6840;-3.0607;
990543899846156;-9.3209;0.7466;-2.9674;
990543909896156;-9.3640;0.6960;-2.8164;
990543919986312;-9.3520;0.5740;-2.6560;
990543930076468;-9.3640;0.5859;-2.7470;
990543940245427;-9.3138;0.6482;-2.8427;
990543950335583;-9.2874;0.7199;-2.8837;
990543960425739;-9.3090;0.7705;-2.8765;
990543970556052;-9.3353;0.8160;-2.8283;
990543980646156;-9.3353;0.8638;-2.7422;
990543990736312;-9.3090;0.8782;-2.7135;
990544000826520;-9.3162;0.9188;-2.7326;
990544010947041;-9.2946;0.9571;-2.7733;
990544021037198;-9.2850;0.9978;-2.8068;
990544031127354;-9.3162;1.0484;-2.8499;
990544041264906;-9.3042;1.0771;-2.8475;
990544051355062;-9.2874;0.9141;-2.7159;
990544061445270;-9.3497;0.8638;-2.6919;
990544071575531;-9.3879;0.9380;-2.7709;
990544081665739;-9.3688;0.8686;-2.7517;
990544091755895;-9.3353;0.8088;-2.8211;
990544101887510;-9.3497;0.7223;-2.8211;
990544111977666;-9.3473;0.6314;-2.7182;
990544122067875;-9.3640;0.5859;-2.6656;
990544132185687;-9.3784;0.5501;-2.6393;
990544142275791;-9.3927;0.5357;-2.6345;
990544152366000;-9.3784;0.5309;-2.6297;
990544162502614;-9.3855;0.4469;-2.6752;
990544172592718;-9.3832;0.4445;-2.7230;
990544182682927;-9.3162;0.5405;-2.7063;
990544192835791;-9.3425;0.6242;-2.7039;
990544202925948;-9.3975;0.7032;-2.7446;
990544213016104;-9.3832;0.7896;-2.7637;
990544223150218;-9.3664;0.8662;-2.7302;
990544233240375;-9.3879;0.8901;-2.6752;
990544243330583;-9.4190;0.8806;-2.6489;
990544253436989;-9.3449;0.7944;-2.6656;
990544263527145;-9.3066;0.7008;-2.6225;
990544273617354;-9.3544;0.5070;-2.5528;
990544283749906;-9.4047;0.3440;-2.5217;
990544293840062;-9.4119;0.2937;-2.5146;
990544303930270;-9.4095;0.3440;-2.5433;
990544314060531;-9.4190;0.4397;-2.5720;
990544324150687;-9.4023;0.4229;-2.6321;
990544334240895;-9.3425;0.3679;-2.6249;
990544344365948;-9.3592;0.3344;-2.6369;
990544354456104;-9.3736;0.2602;-2.6512;
990544364546312;-9.3975;0.2001;-2.6752;
990544374679385;-9.3832;0.0685;-2.6895;
990544384769541;-9.3544;-0.0655;-2.7781;
990544394859698;-9.3401;-0.1304;-2.8594;
990544404982406;-9.3520;-0.0897;-2.7972;
990544415072562;-9.3903;-0.0272;-2.7517;
990544425162770;-9.4286;0.0494;-2.7470;
990544435293448;-9.4214;0.1259;-2.7135;
990544445383604;-9.3568;0.2001;-2.7326;
990544455473812;-9.3497;0.3033;-2.8307;
990544465627562;-9.3473;0.4062;-2.8765;
990544475717718;-9.3544;0.4636;-2.8259;
990544485807875;-9.3568;0.4181;-2.7589;
990544495919958;-9.3688;0.4253;-2.6369;
990544506010166;-9.3520;0.6362;-2.6225;
990544516100323;-9.3377;0.7801;-2.6919;
990544526225323;-9.2803;0.8518;-2.7972;
990544536315479;-9.3401;0.9404;-2.7230;
990544546405687;-9.3975;0.9835;-2.6201;
990544556538343;-9.3951;0.9691;-2.5193;
990544566628500;-9.3209;1.0244;-2.4811;
990544576718708;-9.2970;1.1130;-2.5624;
990544586836937;-9.3138;1.2685;-2.6656;
990544596927041;-9.3520;1.3478;-2.7685;
990544607017250;-9.3664;1.3932;-2.8068;
990544617153343;-9.3736;1.4602;-2.7637;
990544627243500;-9.3449;1.5009;-2.7206;
990544637333656;-9.3353;1.5153;-2.7182;
990544647451989;-9.3305;1.5081;-2.7470;
990544657542145;-9.3497;1.4315;-2.7757;
990544667632302;-9.3568;1.1776;-2.7470;
990544677774489;-9.3712;0.8183;-2.6656;
990544687864645;-9.3975;0.5596;-2.6512;
990544697954802;-9.3664;0.3464;-2.7398;
990544708078187;-9.3090;0.2267;-2.7398;
990544718168343;-9.3377;0.1331;-2.8331;
990544728258500;-9.3305;0.1475;-2.8546;
990544738391833;-7.6080;0.5788;-5.2023;
990544748492562;-7.6487;5.3435;-8.7308;
990544758593291;-11.5630;3.6592;-3.9230;
990544768719385;-10.9044;1.1201;-0.0975;
990544778820062;-8.9279;1.0292;-1.7862;
990544788920843;-8.4177;-0.1998;-1.8368;
990544799019333;-8.5687;-1.1797;-1.4486;
990544809120062;-9.2632;-1.2873;-3.0296;
990544819220791;-9.7232;-1.7450;-3.8177;
990544829321989;-9.7783;-2.1162;-4.0860;
990544839422718;-9.5797;-2.2071;-4.0430;
990544849523448;-9.1029;-2.3103;-2.6608;
990544859660843;-8.9949;-2.4395;-1.1539;
990544869761573;-9.3903;-2.0204;-1.0175;
990544879862354;-9.8551;-0.6263;-2.2534;
990544889931677;-9.8049;-0.3075;-2.8187;
990544900032406;-9.4502;0.1570;-2.8259;
990544910133135;-9.3090;-0.5997;-1.5876;
990544920291833;-9.5581;-0.5088;-0.8354;
990544930392562;-9.4932;0.2937;-0.8689;
990544940493343;-9.3353;0.7585;-1.7145;
990544950580062;-9.4549;0.8614;-2.6536;
990544960680843;-9.4478;1.2087;-2.9339;
990544970781573;-9.3018;2.0638;-2.6536;
990544980891156;-9.3497;2.6103;-2.5241;
990544990991885;-9.1866;3.0006;-2.2367;
990545001092666;-9.1723;3.4534;-2.4954;
990545011186781;-9.4143;3.7768;-3.2907;
990545021287510;-9.3281;3.8773;-3.5327;
990545031388291;-9.1220;3.5204;-3.0368;
990545041497406;-9.2513;3.1346;-2.6082;
990545051598135;-9.3066;3.1298;-2.4452;
990545061698916;-9.1412;2.6773;-2.3447;
990545071795948;-9.2560;1.6376;-2.4356;
990545081896677;-9.4884;2.1287;-3.5877;
990545091997458;-9.2034;2.3321;-3.5495;
990545102116000;-9.2178;2.1215;-3.2883;
990545112216729;-9.3329;1.7166;-2.9267;
990545122317458;-9.1579;1.3047;-2.4236;
990545132432198;-9.1890;1.0795;-2.4787;
990545142532927;-9.3401;0.8973;-2.9506;
990545152633708;-9.3808;0.6147;-3.1735;
990545162740739;-9.2803;0.4421;-2.9674;
990545172841468;-9.1962;0.7561;-2.9363;
990545182942198;-9.2755;0.5596;-2.7302;
990545193048916;-9.3162;0.5692;-2.6489;
990545203149645;-9.2731;0.4854;-2.6465;
990545213250375;-9.4238;0.4253;-3.0200;
990545223360531;-9.3712;0.4493;-3.0823;
990545233461260;-9.1508;0.3990;-2.7733;
990545243561989;-9.3090;0.3918;-2.7900;
990545253675323;-9.3927;0.3057;-2.6847;
990545263776052;-9.2656;0.2961;-2.5576;
990545273876781;-9.4262;0.3344;-2.8140;
990545283982093;-9.4047;0.3033;-2.9052;
990545294082823;-9.2178;0.3105;-2.6895;
990545304183552;-9.3018;0.3200;-2.6991;
990545314290739;-9.3520;0.4205;-2.6800;
990545324391468;-9.3114;0.6099;-2.5911;
990545334492198;-9.3473;0.7633;-2.7135;
990545344606677;-9.2898;0.9188;-2.8259;
990545354707406;-9.2321;1.0125;-2.7685;
990545364808135;-9.2755;1.0484;-2.7254;
990545374909698;-9.2321;1.1824;-2.7254;
990545385010427;-9.2130;1.3430;-2.7876;
990545395111156;-9.2489;1.4746;-2.8789;
990545405227406;-9.2082;1.5873;-2.8355;
990545415328135;-9.2656;1.6902;-2.8379;
990545425428916;-9.2345;1.8700;-2.8451;
990545435530010;-9.1244;2.0638;-2.7709;
990545445630739;-9.1508;2.2531;-2.9148;
990545455731520;-9.1508;2.5717;-3.0224;
990545465851885;-9.0861;2.9743;-3.0775;
990545475952614;-9.2106;3.2569;-3.0870;
990545486053343;-9.2178;3.4510;-2.9291;
990545496150010;-9.1699;3.5779;-2.7733;
990545506250739;-9.1890;3.5850;-2.7709;
990545516351468;-9.1579;3.3718;-2.7852;
990545526457093;-9.1268;3.1178;-2.8669;
990545536557823;-9.1699;2.8711;-3.0176;
990545546658604;-9.1651;2.6270;-2.9913;
990545556771052;-9.1675;2.3154;-2.8717;
990545566871781;-9.2393;2.1168;-2.8068;
990545576972510;-9.2058;2.0542;-2.8140;
990545587086833;-9.1651;2.0542;-2.8259;
990545597187562;-9.2010;2.1981;-2.9626;
990545607288343;-9.1866;2.4903;-3.0057;
990545617392510;-9.1914;2.7251;-2.9411;
990545627493239;-9.2707;2.7897;-2.9004;
990545637593968;-9.3162;2.5525;-2.7541;
990545647706573;-9.2922;2.2244;-2.7350;
990545657807302;-9.2560;1.9131;-2.8717;
990545667908083;-9.2130;1.5706;-2.9506;
990545678017823;-9.1962;1.1441;-2.9674;
990545688118552;-9.1579;0.8136;-2.9602;
990545698219281;-9.2898;0.4807;-2.8379;
990545708325427;-9.4454;0.1092;-2.5313;
990545718426156;-9.4071;-0.0272;-2.3853;
990545728526937;-9.2898;0.1666;-2.5026;
990545738631104;-9.2130;0.4807;-2.6536;
990545748733968;-9.1771;0.7657;-2.6297;
990545758836833;-9.2683;1.3143;-2.7422;
990545768956989;-9.3688;1.9633;-2.8235;
990545779059906;-9.3951;1.9561;-2.4595;
990545789162823;-9.3664;1.7955;-2.3853;
990545799239489;-9.2441;1.7285;-2.5768;
990545809342406;-9.1436;1.6232;-2.7350;
990545819445270;-9.2249;1.6400;-2.8475;
990545829586625;-9.3449;1.6854;-2.7565;
990545839689489;-9.3305;1.8341;-2.6058;
990545849792406;-9.2898;2.0880;-2.5361;
990545859851573;-9.2225;2.2316;-2.5193;
990545869954489;-9.1986;2.2986;-2.5816;
990545880057354;-9.2441;2.2723;-2.7182;
990545890177510;-9.2803;2.0928;-2.7829;
990545900280323;-9.2584;2.0040;-2.7685;
990545910383239;-9.2632;1.9537;-2.7015;
990545920495218;-9.2970;1.8556;-2.5433;
990545930598083;-9.3018;1.8245;-2.4882;
990545940701000;-9.2632;1.8580;-2.5696;
990545950787979;-9.2850;1.8461;-2.6967;
990545960890895;-9.3138;1.8150;-2.6943;
990545970993760;-9.3329;1.7668;-2.6656;
990545981132666;-9.3497;1.6567;-2.6058;
990545991235531;-9.2946;1.5296;-2.5887;
990546001338395;-9.2850;1.4100;-2.5792;
990546011430062;-9.3066;1.3095;-2.6489;
990546021532927;-9.2946;1.2879;-2.6704;
990546031635791;-9.3042;1.3238;-2.6225;
990546041731000;-9.3688;1.2709;-2.6010;
990546051833864;-9.3305;1.2541;-2.5146;
990546061936781;-9.2779;1.1895;-2.4236;
990546072045479;-9.3209;1.1800;-2.6417;
990546082148343;-9.2249;1.3741;-2.9124;
990546092251208;-9.1723;1.6735;-3.0631;
990546102362666;-9.3497;1.8437;-2.9626;
990546112465531;-9.3281;1.8173;-2.6560;
990546122568448;-9.2489;1.6543;-2.4906;
990546132665791;-9.2441;1.5153;-2.5720;
990546142768656;-9.1914;1.4171;-2.7613;
990546152871573;-9.1388;1.3693;-2.9650;
990546162979958;-9.2225;1.1919;-3.2261;
990546173082823;-9.2441;1.2063;-3.2596;
990546183185739;-9.2321;1.2254;-2.8741;
990546193280218;-9.2946;1.3813;-2.6010;
990546203383135;-9.3616;1.1943;-2.5768;
990546213486000;-9.3999;0.7418;-2.4547;
990546223619541;-9.2465;0.4110;-2.5170;
990546233722406;-9.2106;0.3679;-2.8669;
990546243825323;-9.2827;0.4014;-2.6752;
990546253907354;-9.3042;0.7223;-2.3276;
990546264010218;-9.4214;0.9547;-2.4069;
990546274113135;-9.3449;1.2736;-2.6680;
990546284217979;-9.1938;1.6543;-2.8140;
990546294320843;-9.2154;1.9537;-2.9124;
990546304423760;-9.2369;2.1885;-2.8211;
990546314529281;-9.2369;2.2053;-2.5744;
990546324632145;-9.2994;2.0231;-2.5193;
990546334735062;-9.3162;1.7142;-2.6465;
990546344834333;-9.2393;1.3573;-2.7565;
990546354937198;-9.1364;1.0627;-2.8837;
990546365040114;-9.0838;1.0244;-3.0703;
990546375155375;-9.0790;1.1919;-3.0846;
990546385258239;-9.1316;1.3478;-2.8403;
990546395361104;-9.2417;1.5610;-2.8379;
990546405460895;-9.2393;1.8700;-3.0416;
990546415563812;-9.1053;2.2077;-3.1974;
990546425666677;-9.0766;2.1885;-3.2716;
990546435768291;-9.1938;1.6591;-3.0511;
990546445871156;-9.2393;1.3119;-2.6967;
990546455974020;-9.3090;1.4506;-2.7302;
990546466091677;-9.3425;1.0986;-2.7182;
990546476194593;-9.2321;0.9045;-2.7876;
990546486297510;-9.2441;0.9619;-2.8283;
990546496388187;-9.1508;1.1369;-2.6919;
990546506491052;-9.0670;1.4076;-2.5696;
990546516593968;-9.1077;1.8891;-2.7063;
990546526702198;-9.1244;2.3707;-2.7159;
990546536805062;-9.1412;2.5525;-2.5361;
990546546907979;-9.1914;2.7251;-2.5552;
990546557000895;-9.1531;2.9743;-2.6704;
990546567103812;-9.1077;3.1947;-2.6512;
990546577206677;-9.0646;3.3790;-2.6177;
990546587314593;-9.1029;3.4893;-2.6608;
990546597417510;-9.1579;3.5444;-2.5600;
990546607520427;-9.1388;3.6520;-2.4595;
990546617626625;-9.1603;3.7600;-2.5050;
990546627729489;-9.1220;3.8605;-2.6225;
990546637832354;-9.0718;3.8486;-2.6225;
990546647948760;-9.1149;3.8007;-2.6249;
990546658051625;-9.1795;3.8270;-2.6512;
990546668154593;-9.1699;3.7983;-2.5863;
990546678246520;-9.1531;3.7002;-2.6034;
990546688349385;-9.1268;3.6616;-2.6895;
990546698452302;-9.0622;3.5779;-2.7015;
990546708566520;-9.1101;3.4654;-2.6800;
990546718669437;-9.1819;3.3766;-2.7278;
990546728772302;-9.1843;3.2976;-2.7829;
990546738876885;-9.0479;3.2665;-2.9243;
990546748980270;-8.9423;3.3168;-3.1663;
990546759083656;-9.0048;3.0604;-3.2070;
990546769210739;-9.1244;2.8786;-3.0559;
990546779314125;-9.2321;2.8496;-2.9937;
990546789417458;-9.2369;2.8905;-3.0224;
990546799502666;-9.0861;3.0269;-3.1181;
990546809606052;-8.9782;3.0078;-3.1448;
990546819709385;-9.0335;2.6366;-3.0081;
990546829796312;-9.1436;2.4855;-2.9818;
990546839899645;-9.1484;2.6892;-3.0464;
990546850003083;-9.1436;2.5310;-2.8741;
990546860108448;-9.1771;2.1526;-2.6608;
990546870211833;-9.0742;2.2149;-2.7159;
990546880315218;-8.6596;3.3646;-2.5481;
990546890408708;-7.9699;4.8523;-2.7924;
990546900512093;-9.6538;3.6090;-3.4513;
990546910615479;-10.5855;2.6581;-1.5924;
990546920740323;-9.0670;0.9500;-1.8799;
990546930843708;-8.3052;1.7261;-4.5317;
990546940947093;-8.1613;2.1239;-4.2323;
990546951050739;-8.0536;0.5764;-1.0606;
990546961154125;-9.5845;1.1871;-1.1922;
990546971257510;-10.9116;2.7491;-3.1134;
990546981361156;-9.7472;3.7361;-3.4178;
990546991464541;-8.5831;3.8892;-3.3769;
990547001567927;-8.7867;3.3885;-4.0382;
990547011687406;-8.9853;1.9155;-3.7196;
990547021790791;-8.8657;0.9428;-2.4188;
990547031894177;-9.2731;0.5285;-2.5193;
990547041962354;-9.9245;0.0852;-2.9148;
990547052065687;-9.5868;-0.5375;-2.2965;
990547062169073;-8.9064;-0.9784;-2.5672;
990547072289385;-8.8322;-0.8082;-3.8154;
990547082392770;-8.7290;-0.6263;-4.3831;
990547092496156;-8.5711;-0.2500;-4.5508;
990547102598552;-8.8920;0.0350;-4.2586;
990547112701937;-9.3401;-0.2070;-3.1038;
990547122805323;-9.4932;-0.5375;-1.8440;
990547132913448;-9.5438;-0.3724;-1.5685;
990547143016833;-9.4478;0.3200;-2.3662;
990547153120218;-9.2922;1.1800;-3.6021;
990547163216781;-9.2273;1.9226;-4.4596;
990547173320166;-9.0024;2.3563;-4.4501;
990547183423552;-8.8083;2.5143;-3.8967;
990547193526156;-8.7915;2.5023;-3.0918;
990547203629541;-8.7844;2.3587;-2.0210;
990547213732927;-9.4382;2.4090;-2.4547;
990547223857510;-9.5076;2.2125;-1.8607;
990547233960895;-9.1077;1.4530;1.1985;
990547244064281;-10.1856;2.9599;-0.8976;
990547254154073;-10.2526;4.9098;-5.5427;
990547264257458;-7.9122;3.5635;-5.3151;
990547274360843;-7.6487;2.3803;-3.8130;
990547284456260;-9.8145;3.2186;-4.8048;
990547294559645;-9.5605;3.4247;-3.2022;
990547304663031;-8.2717;3.0150;-0.7875;
990547314770635;-8.9399;2.4257;-1.0510;
990547324874020;-9.9820;3.0413;-2.7398;
990547334977406;-7.6008;2.5214;-3.2883;
990547345077198;-2.3094;4.0834;-4.2634;
990547355180583;-7.8380;3.9733;-11.8403;
990547365283968;-11.4673;5.7936;-19.2544;
990547375385635;-12.5788;4.2846;-16.3152;
990547385489020;-11.6707;-0.0200;-8.0698;
990547395592406;-7.3229;-0.3724;-1.1659;
990547405691468;-4.4844;1.4028;0.8342;
990547415794854;-6.1181;1.1776;0.2880;
990547425898239;-8.8609;1.6065;-0.3467;
990547436016052;-9.5172;1.1776;-2.3734;
990547446119437;-11.2804;0.4205;-6.3042;
990547456222823;-11.8552;-0.5925;-7.2458;
990547466340323;-8.8466;-1.3663;-4.8909;
990547476443708;-6.9254;-0.9233;-4.0358;
990547486547093;-7.2177;-1.0023;-3.4920;
990547496639802;-8.4706;-2.6192;-1.1133;
990547506743187;-9.9437;-2.9378;-1.6451;
990547516846573;-10.0274;-1.6418;-3.6021;
990547526931573;-9.3473;-0.9855;-4.8287;
990547537034958;-8.3818;-0.8465;-5.1712;
990547547138343;-7.9531;0.2483;-5.2911;
990547557243239;-7.8858;1.2685;-4.5030;
990547567346625;-8.3770;2.1622;-4.2730;
990547577450010;-8.8609;2.4640;-4.8191;
990547587557718;-10.2885;2.7012;-5.5618;
990547597661104;-10.8876;3.3431;-4.9029;
990547607764489;-8.4153;3.8414;-3.5136;
990547617868552;-7.5960;3.3000;-4.1052;
990547627971937;-9.0885;2.2149;-5.0803;
990547638075323;-8.5328;1.2661;-4.1315;
990547648187198;-8.5161;1.2927;-4.7737;
990547658290583;-9.9006;0.6817;-6.3811;
990547668393916;-9.4573;-0.1328;-5.3773;
990547678479958;-7.4764;-0.4466;-3.9808;
990547688583291;-7.3588;-0.8441;-4.3854;
990547698686677;-8.6644;-0.6215;-5.4873;
990547708790895;-8.7748;-0.3027;-5.6575;
990547718894229;-8.7580;-0.5183;-6.3353;
990547728997614;-9.3066;-1.0956;-6.4983;
990547739103552;-8.5017;-0.5566;-5.0252;
990547749206885;-7.3277;0.3990;-4.1363;
990547759310218;-7.2009;0.6529;-5.0946;
990547769405375;-8.9566;0.7343;-7.3558;
990547779508656;-10.8829;1.0507;-7.7536;
990547789611989;-9.4119;1.5873;-5.2887;
990547799723708;-7.6657;2.0880;-4.3831;
990547809827041;-7.4883;2.1550;-5.8445;
990547819930323;-7.5266;2.3898;-7.3415;
990547830051468;-8.6501;2.1622;-7.6433;
990547840154802;-8.3889;2.4951;-6.1941;
990547850258083;-7.7782;2.4305;-5.0204;
990547860351156;-8.5926;1.4578;-5.6599;
990547870454489;-9.5267;2.0809;-7.2290;
990547880557770;-9.1364;2.8208;-5.2214;
990547890687198;-7.0355;3.4822;-3.3745;
990547900790531;-7.7112;3.7361;-4.7833;
990547910893812;-10.0250;3.1804;-4.7474;
990547920960010;-10.0971;2.9264;-2.0258;
990547931063343;-8.9375;1.9490;-0.7421;
990547941166677;-9.7161;1.0101;-2.7948;
990547951280062;-11.2971;0.8112;-4.0430;
990547961383395;-9.7759;0.7418;-2.9243;
990547971486729;-7.2535;-0.5064;-1.9205;
990547981594073;-8.5304;-2.0946;-2.9554;
990547991697406;-10.6768;-2.2385;-3.1253;
990548001800739;-9.5291;-1.9029;-1.7384;
990548011910270;-8.1015;-2.2528;-1.0822;
990548022013552;-9.3879;-2.9139;-2.5361;
990548032116885;-10.4827;-3.5174;-3.0440;
990548042217510;-10.9020;-3.4337;-2.2367;
990548052320843;-9.2827;-3.9727;-0.1095;
990548062424177;-8.6405;-3.7283;-1.2018;
990548072530114;-11.1751;-2.9450;-2.5839;
990548082633448;-9.7472;-3.0171;-0.5623;
990548092736781;-8.3913;-3.4002;-0.9287;
990548102838343;-9.8958;-2.8947;-1.7551;
990548112941729;-9.5315;-1.5006;-1.1157;
990548123045010;-8.8825;-1.7713;-1.5036;
990548133150635;-9.4765;-1.4838;-1.4438;
990548143253968;-9.8504;-0.5566;-1.3863;
990548153357302;-10.7103;-0.7029;-2.0067;
990548163460218;-10.3534;-1.0813;-2.1721;
990548173563552;-9.6443;0.1642;-1.3074;
990548183666885;-9.1340;1.1752;-1.0893;
990548193761156;-9.0861;0.8973;-1.4533;
990548203864489;-10.1761;0.4902;-2.3180;
990548213967823;-10.6720;1.2855;-2.0115;
990548224097458;-8.3889;1.8508;-1.5589;
990548234200739;-9.0838;0.5524;-3.0535;
990548244304073;-9.9461;-0.1208;-3.4178;
990548254391052;-9.0909;0.5022;-2.8044;
990548264494385;-7.8858;0.6960;-3.2788;
990548274597718;-8.4344;-0.1519;-4.0214;
990548284699802;-10.0322;-0.9712;-4.2634;
990548294803135;-10.2981;-0.4226;-3.7986;
990548304906468;-8.2502;-0.1161;-3.4992;
990548314985531;-8.8657;-0.8946;-4.4719;
990548325088864;-9.7065;-0.5375;-4.3113;
990548335192145;-8.3578;-0.0248;-3.6260;
990548345318864;-8.7194;-0.4466;-3.7005;
990548355422198;-9.6491;-1.0525;-4.3543;
990548365525531;-9.7615;-0.4920;-4.6777;
990548375627927;-8.6118;0.2052;-3.9855;
990548385731260;-7.9723;-0.6837;-4.2778;
990548395834593;-9.8719;-0.7077;-5.7796;
990548405934229;-9.3999;0.7848;-4.7545;
990548416037614;-7.6008;0.1522;-4.6370;
990548426140895;-10.0971;-1.3304;-6.3114;
990548436249385;-10.6433;-0.2764;-5.0204;
990548446352718;-9.0431;-0.2740;-3.4609;
990548456456052;-9.1579;-2.0707;-4.3065;
990548466558343;-8.6142;-1.2610;-3.8297;
990548476661729;-7.2990;0.1834;-2.9913;
990548486765010;-7.8835;-0.0607;-3.9326;
990548496880739;-8.3818;0.5166;-3.5303;
990548506984073;-7.4788;1.3382;-3.7053;
990548517087406;-9.2731;0.4493;-5.9976;
990548527235791;-9.8862;1.1584;-6.2946;
990548537339073;-9.1555;2.4257;-5.1999;
990548547442406;-8.4153;1.3023;-5.1999;
990548557494541;-7.4405;1.7022;-4.8670;
990548567597823;-7.3373;1.3023;-4.7088;
990548577701156;-8.2502;-0.0224;-5.4012;
990548587797510;-8.6668;0.1953;-5.2816;
990548597900843;-8.9399;0.4038;-6.6230;
990548608004177;-9.3832;-0.1208;-6.6278;
990548618112562;-7.8954;1.1225;-4.4070;
990548628215843;-7.6056;0.6482;-5.1664;
990548638319177;-8.5280;-0.0296;-5.9545;
990548648398552;-7.9217;1.3860;-5.3151;
990548658501885;-8.3578;1.1608;-5.5475;
990548668605218;-8.3722;1.6831;-4.5891;
990548678731573;-7.7758;3.1107;-4.6825;
990548688834906;-8.7509;2.7036;-5.0324;
990548698938239;-7.0929;3.8940;-4.2658;
990548709026989;-7.6056;3.8438;-5.3581;
990548719130375;-8.9112;4.0618;-5.6551;
990548729233656;-9.2898;5.2786;-6.0359;
990548739353708;-9.9509;4.3349;-5.4921;
990548749456989;-8.9853;5.6716;-4.7928;
990548759560323;-8.7242;4.8643;-4.9890;
990548769651312;-8.4320;5.2570;-5.6456;
990548779754645;-8.3195;4.6989;-5.2621;
990548789857979;-8.9782;3.6473;-5.2669;
990548799963708;-8.6309;2.2340;-4.2395;
990548810067041;-9.2441;-0.5136;-3.3458;
990548820170375;-8.9518;-1.1653;-2.9626;
990548830280323;-9.1484;-2.9186;-3.4681;
990548840383656;-11.0551;-4.3319;-2.3782;
990548850486989;-10.2120;-5.3955;-1.4797;
990548860587614;-10.2909;-5.1224;-2.1482;
990548870690948;-9.8934;-5.1033;-1.7599;
990548880794281;-10.1809;-4.6026;-2.3180;
990548890914645;-9.8097;-4.0950;-3.2477;
990548901017927;-9.9317;-3.7235;-3.1424;
990548911121208;-10.1019;-3.4935;-2.8451;
990548921202718;-9.3138;-2.6815;-3.2716;
990548931306052;-9.8815;-1.5030;-4.0789;
990548941409385;-9.6156;-1.8335;-3.3338;
990548951540635;-9.7065;-0.7220;-4.0023;
990548961643968;-10.0394;-0.6239;-3.9664;
990548971747302;-8.9399;0.2530;-3.5255;
990548981851260;-9.0718;-1.0334;-3.0488;
990548991954593;-9.9915;-0.3772;-3.3123;
990549002057927;-9.8815;-1.2562;-3.1878;
990549012156468;-9.5988;-1.4216;-2.5720;
990549022259802;-9.3616;-1.5221;-3.2836;
990549032363135;-9.9365;-1.9917;-3.5136;
990549042452406;-8.8202;-1.9077;-3.5806;
990549052555739;-9.0550;-2.1473;-3.6260;
990549062659073;-8.2813;-1.8263;-2.7589;
990549072764385;-8.8825;-1.9196;-2.4858;
990549082867718;-9.5028;-2.1832;-2.1984;
990549092971052;-10.5018;-2.6001;-2.5816;
990549103071468;-8.8657;-2.3988;-2.5672;
990549113174802;-8.1159;-1.1581;-4.1243;
990549123278135;-7.6343;-0.8827;-4.4405;
990549133391052;-8.9542;-0.6574;-4.9196;
990549143494385;-8.9136;-0.3963;-4.7737;
990549153597718;-10.1976;0.4373;-4.8479;
990549163700948;-8.7604;0.2339;-3.6428;
990549173804281;-8.8537;0.3846;-3.8058;
990549183907614;-8.4392;0.2746;-4.2323;
990549194007718;-8.9327;0.7585;-4.4189;
990549204111052;-8.2286;0.6840;-3.5997;
990549214214385;-9.2608;1.5634;-4.4213;
990549224324541;-9.4597;0.7944;-5.0252;
990549234427823;-9.4502;1.8221;-4.6968;
990549244531156;-8.4177;1.1919;-3.8943;
990549254630062;-9.2683;1.4746;-4.8407;
990549264733395;-9.2130;1.0196;-3.6643;
990549274836729;-8.5089;1.8724;-3.9520;
990549284937093;-8.7772;0.8782;-4.9962;
990549295040427;-9.1508;1.6639;-3.7412;
990549305143760;-8.0943;1.1082;-4.3400;
990549315245323;-8.6764;2.1837;-4.3687;
990549325348916;-9.2560;1.7979;-4.3472;
990549335452458;-10.7940;2.1909;-4.0741;
990549345560635;-10.9570;2.0542;-3.4370;
990549355664229;-11.0121;1.7070;-2.4547;
990549365767770;-9.0263;1.7237;-2.9698;
990549375882823;-8.5448;1.5562;-3.2094;
990549385986416;-8.1254;1.7453;-3.7005;
990549396089958;-8.1087;1.5419;-2.9076;
990549406172458;-7.9699;1.3621;-3.4561;
990549416276000;-8.6213;1.0412;-3.2501;
990549426379593;-8.6333;1.4339;-4.0908;
990549436488135;-9.4143;2.1048;-4.5485;
990549446591729;-9.7950;1.9801;-4.1124;
990549456695323;-9.8551;1.0747;-1.7815;
990549466795427;-9.3520;0.1379;-1.6331;
990549476899020;-8.9566;0.9595;-1.7934;
990549487002562;-8.4344;0.1666;-1.8607;
990549497111052;-9.6203;0.5453;-3.3458;
990549507214645;-9.4262;-0.0129;-3.6141;
990549517318187;-9.5821;0.5405;-2.7637;
990549527421885;-9.2273;-0.5447;-3.3242;
990549537525531;-9.0383;0.1594;-3.0727;
990549547629073;-8.4778;-0.8345;-3.8465;
990549557729281;-8.6166;-0.1783;-3.6452;
990549567832875;-9.0742;-0.9257;-4.5700;
990549577936468;-8.1948;-0.0969;-3.7866;
990549588038812;-9.0981;-1.0262;-4.2897;
990549598142406;-9.4789;-0.5973;-3.4274;
990549608246000;-9.3927;0.1666;-4.0884;
990549618349593;-8.1159;-0.0464;-3.9975;
990549628453187;-8.2095;-0.4466;-5.0587;
990549638556781;-9.2584;-2.2839;-5.6910;
990549648644854;-10.3391;-2.3390;-4.8096;
990549658748395;-8.8944;-2.5020;-3.5758;
990549668851937;-8.6381;-1.1773;-3.8010;
990549678962562;-9.0885;-1.7330;-3.5423;
990549689066104;-9.5219;-2.0874;-2.8884;
990549699169698;-9.3138;-1.2921;-3.3577;
990549709267562;-9.4813;-1.4527;-3.3051;
990549719371104;-8.7099;-1.9510;-3.9784;
990549729474645;-8.0871;-2.7823;-3.8441;
990549739630531;-9.1077;-3.1295;-4.4046;
990549749734125;-9.8743;-3.0888;-5.1473;
990549759837666;-8.5687;-2.3892;-3.6021;
990549769894229;-7.9484;-1.4527;-4.1172;
990549779997823;-9.0144;-1.7593;-3.0751;
990549790101312;-8.4583;-1.2969;-4.3615;
990549800243239;-7.6487;-1.0669;-4.2443;
990549810346833;-8.2502;-1.3352;-4.2802;
990549820450375;-6.5587;-0.9497;-5.6767;
990549830504177;-7.5506;-1.0119;-4.5341;
990549840607770;-9.4143;-1.2132;-5.6575;
990549850711364;-9.8551;-0.4561;-4.1483;
990549860837979;-9.5653;1.3430;-2.4476;
990549870941573;-9.5124;0.7104;-2.3157;
990549881045114;-9.7472;-0.6598;-2.6800;
990549891146989;-8.6668;-0.0344;-4.1172;
990549901250583;-8.3770;-0.2142;-3.2644;
990549911354177;-9.0526;-1.2299;-3.7196;
990549921466052;-8.6979;-0.5949;-4.9627;
990549931569645;-10.4755;0.8638;-2.4715;
990549941673187;-8.1230;1.6280;-1.2018;
990549951783343;-9.5124;1.3645;-2.3061;
990549961886937;-9.0838;0.5501;-1.8655;
990549971990479;-9.4765;0.6745;-3.8034;
990549982081156;-9.4717;0.1786;-3.1663;
990549992184750;-9.1603;-0.0440;-3.4633;
990550002288343;-8.4778;1.0364;-2.9363;
990550012393343;-9.6419;0.6051;-2.2869;
990550022496937;-10.4970;1.0172;-2.8669;
990550032600479;-9.8599;1.7836;-0.7684;
990550042683708;-8.8705;1.7931;-1.3361;
990550052787250;-9.3592;2.0375;-2.4476;
990550062890791;-8.7171;1.2374;-2.1147;
990550073009489;-8.7437;0.7753;-3.5088;
990550083113083;-8.4682;1.4171;-3.0894;
990550093216677;-8.5113;1.3956;-2.9554;
990550103317927;-8.4224;1.4913;-3.4657;
990550113421520;-8.6357;0.9835;-3.0894;
990550123525062;-9.0359;0.2387;-3.9664;
990550133628656;-9.7926;1.3143;-3.3529;
990550143732250;-9.9604;0.0302;-2.6512;
990550153835791;-9.6586;-0.1184;-2.9602;
990550163937979;-9.6826;-0.0873;-2.2104;
990550174041573;-8.9375;-0.8874;-2.3471;
990550184145114;-9.9006;0.4831;-3.1038;
990550194256052;-8.8944;0.0900;-2.3351;
990550204359645;-8.7724;-0.2261;-3.6523;
990550214463239;-9.4502;0.3248;-4.0837;
990550224538448;-9.1866;0.3488;-3.1400;
990550234642041;-9.5581;0.7008;-3.8177;
990550244745583;-10.2383;0.7490;-2.4332;
990550254880895;-9.9030;-0.2740;-1.9588;
990550264984489;-9.2779;0.2435;-2.6345;
990550275088031;-9.6778;-0.4681;-2.5265;
990550285185114;-8.9566;-0.5614;-3.6117;
990550295288708;-8.9901;0.0494;-3.6742;
990550305392250;-8.6812;0.1355;-3.6742;
990550315490531;-9.1436;-0.4681;-4.7088;
990550325594020;-8.7266;0.2483;-3.7651;
990550335697562;-8.5089;0.9547;-3.4322;
990550345800948;-8.9136;1.1632;-3.8369;
990550355904489;-8.7652;1.1584;-3.7842;
990550366007979;-10.2479;0.0087;-3.8656;
990550376109385;-8.9423;0.8806;-3.3386;
990550386212927;-9.2321;-0.1543;-3.2836;
990550396316416;-10.2431;-0.1615;-3.4131;
990550406413812;-9.3592;0.3200;-2.6632;
990550416517302;-9.0287;0.2865;-2.3758;
990550426620791;-9.2369;0.3081;-3.7890;
990550436726312;-9.4454;0.4277;-3.9326;
990550446829854;-8.1999;0.8973;-3.5375;
990550456933343;-9.1412;0.8830;-3.6766;
990550467034177;-9.9269;1.0101;-3.2142;
990550477137718;-9.3162;0.8040;-2.6967;
990550487241208;-9.3329;0.5022;-2.7063;
990550497345479;-9.6682;-0.3170;-3.2070;
990550507448968;-9.5291;-0.0631;-3.2524;
990550517552458;-9.3090;0.0876;-3.6861;
990550527670010;-9.8264;-0.3027;-4.0334;
990550537773500;-9.8551;0.1044;-3.2333;
990550547877041;-9.7113;1.1249;-2.6847;
990550557978864;-8.3913;1.5296;-2.0043;
990550568082406;-9.1843;0.7848;-3.1472;
990550578185895;-10.0851;0.3511;-4.1937;
990550588273448;-8.7509;0.1235;-3.6093;
990550598376937;-8.4296;0.1929;-3.1253;
990550608480427;-9.3712;-0.0873;-3.4490;
990550618587145;-10.7175;-0.8632;-2.8427;
990550628690687;-8.9327;-0.4561;-1.9086;
990550638794177;-9.8767;-0.7244;-2.3157;
990550648911052;-10.7605;-1.7617;-2.3901;
990550659014593;-10.2431;-1.5389;-1.7575;
990550669118083;-9.1986;-1.0238;-1.6522;
990550679200062;-10.6337;-1.1148;-1.7145;
990550689303552;-10.1976;-1.2132;-1.3074;
990550699407041;-9.6203;-1.0813;-2.3327;
990550709524229;-8.3459;-1.6947;-2.6824;
990550719627718;-8.6548;-1.7474;-3.5447;
990550729731208;-9.5581;-0.4537;-4.1650;
990550739822145;-9.7854;-0.2788;-3.7627;
990550749925635;-9.7567;-0.5375;-2.9961;
990550760029177;-8.1422;0.2722;-2.6512;
990550770152614;-9.2393;0.1810;-3.2333;
990550780256104;-10.6768;-1.0334;-3.4968;
990550790359645;-9.6371;-0.5997;-3.0440;
990550800443864;-8.3842;0.0852;-3.1424;
990550810547354;-9.4430;-0.3915;-2.7900;
990550820650895;-9.1244;-0.3820;-3.1062;
990550830775427;-8.2908;0.3942;-4.0167;
990550840878968;-8.5663;-0.2046;-3.6742;
990550850982458;-10.0899;-0.4920;-4.2251;
990550861071052;-9.3185;0.8064;-3.9449;
990550871174593;-9.0622;1.6089;-2.0115;
990550881278083;-9.7041;0.9619;-1.5661;
990550891408604;-11.1416;1.2254;-2.7829;
990550901512093;-9.6945;1.1536;-2.5289;
990550911615583;-9.2922;0.4445;-2.5170;
990550921687562;-8.1948;-0.3218;-3.8058;
990550931791052;-8.5878;0.0996;-5.2645;
990550941894541;-8.9255;-0.7842;-3.8034;
990550952002614;-9.1843;-0.1639;-3.3840;
990550962106156;-7.7471;1.2975;-2.5457;
990550972209645;-9.2755;1.6089;-1.6929;
990550982331260;-10.0828;0.0278;-2.3351;
990550992434802;-9.7472;0.2171;-3.6260;
990551002538291;-9.3162;0.3368;-2.7948;
990551012629073;-10.2431;-0.1926;-2.8068;
990551022732614;-9.2417;0.4349;-3.3769;
990551032836104;-8.8705;0.6721;-3.3888;
990551042940218;-9.2683;0.0159;-3.3218;
990551053043760;-9.8169;-0.0057;-4.3400;
990551063147250;-8.9877;1.1991;-3.6404;
990551073243239;-8.4658;1.8508;-2.3252;
990551083346781;-8.7604;0.7442;-3.4848;
990551093450270;-10.1163;0.4902;-4.8431;
990551103555635;-9.5390;0.8183;-4.1435;
990551113659177;-9.2707;0.9308;-2.7206;
990551123762666;-7.6271;1.1369;-3.5495;
990551133870635;-9.8288;0.5213;-4.9173;
990551143974177;-10.1569;0.5142;-4.6920;
990551154077666;-9.6586;0.6218;-3.2883;
990551164175114;-8.0489;0.8160;-2.4547;
990551174278656;-8.0201;0.2483;-2.4739;
990551184382145;-9.6371;-0.4992;-3.3577;
990551194483656;-10.5066;-0.3170;-3.0200;
990551204587198;-10.7438;1.0002;-2.7087;
990551214690687;-9.9365;-0.1783;-0.7732;
990551224797458;-8.1182;-0.5662;-2.4835;
990551234900948;-8.4368;-1.6466;-4.4743;
990551245004489;-9.7400;-1.1339;-5.2959;
990551255113135;-10.0828;-1.1462;-3.8536;
990551265216677;-8.9638;0.3440;-2.8693;
990551275320166;-8.0824;0.9715;-2.3638;
990551285427093;-10.1617;0.3607;-1.7791;
990551295530635;-10.5401;0.6099;-2.2941;
990551305634125;-9.5342;-0.1328;-2.2606;
990551315737302;-8.5831;0.0685;-2.7470;
990551325840843;-8.1541;-0.7484;-3.4202;
990551335944333;-9.8192;-0.4466;-4.2562;
990551346042718;-10.0490;-0.0993;-4.0119;
990551356146260;-9.0646;0.6769;-2.4978;
990551366249750;-7.7830;0.4038;-2.7398;
990551376352927;-9.0263;-1.5508;-3.9401;
990551386456468;-9.3401;-0.1304;-4.7160;
990551396559958;-8.9973;-0.3027;-2.9650;
990551406654437;-9.7878;-0.3508;-2.3949;
990551416757927;-9.0622;-0.8154;-2.9554;
990551426861416;-8.9088;-1.4838;-4.0430;
990551436967145;-10.5473;-1.4456;-4.4572;
990551447070635;-10.4348;-0.6981;-2.3638;
990551457174125;-9.2656;-0.0559;-1.3050;
990551467277041;-8.1063;-0.3194;-2.6345;
990551477380531;-9.9078;-0.6694;-2.5624;
990551487484020;-9.8719;0.0829;-2.6273;
990551497588812;-9.3233;0.8231;-2.6154;
990551507692354;-8.7700;-0.4059;-2.7661;
990551517795843;-8.9853;-0.3365;-3.6332;
990551527912198;-9.8815;-0.3628;-3.7603;
990551538015687;-9.4693;0.1738;-3.8489;
990551548119229;-9.1938;0.4759;-2.8837;
990551558225166;-8.8298;-0.0296;-2.6919;
990551568328656;-9.4549;-0.7938;-3.8991;
990551578432145;-10.3989;-0.4250;-3.2213;
990551588513916;-8.7341;0.4038;-2.2582;
990551598617406;-9.6419;-0.0272;-2.4045;
990551608720895;-10.3678;0.4229;-3.1277;
990551618827198;-9.7328;0.7705;-2.7254;
990551628930687;-10.4683;0.5931;-1.8440;
990551639034177;-9.6180;0.9691;-2.7015;
990551649156677;-9.1029;1.2661;-2.9387;
990551659260166;-9.1914;0.1092;-3.5088;
990551669363708;-9.5749;-0.1017;-3.5614;
990551679450791;-9.2755;0.9715;-2.5026;
990551689554229;-8.6524;1.1943;-2.8570;
990551699657770;-7.6777;0.5022;-3.2572;
990551709757250;-8.3195;-0.1256;-3.9039;
990551719860739;-9.9054;-0.2142;-4.5724;
990551729964281;-10.2000;0.0015;-3.5710;
990551740122823;-8.9710;0.2506;-2.4260;
990551750226312;-8.7317;0.1211;-2.0426;
990551760329854;-9.1579;0.4373;-2.5552;
990551770373135;-9.2441;-0.4777;-3.1301;
990551780476677;-9.4765;-0.9879;-3.2668;
990551790580166;-8.3626;-0.0511;-3.5207;
990551800725323;-8.1470;0.0613;-3.3290;
990551810828812;-9.5773;0.3918;-3.8847;
990551820932354;-9.9317;0.0589;-3.8704;
990551831024073;-9.2632;-0.1807;-2.9339;
990551841127614;-8.5998;-0.0153;-3.1615;
990551851231104;-8.2717;0.0589;-3.7388;
990551861316677;-8.2167;-0.1256;-2.7374;
990551871420218;-7.0690;0.2219;-3.7699;
990551881523708;-7.4572;0.1235;-4.6896;
990551891625166;-9.4956;-0.1280;-4.2658;
990551901728656;-10.7892;0.2841;-2.5720;
990551911832145;-10.5257;0.5237;-1.1013;
990551921940114;-10.2263;-0.0464;-1.0271;
990551932043656;-9.1173;-0.0344;-2.0067;
990551942147145;-10.3367;-0.9042;-1.8894;
990551952245010;-10.5401;-1.1557;-2.7039;
990551962348552;-9.9293;-0.5518;-3.2740;
990551972452041;-9.4549;-0.3051;-3.1352;
990551982558552;-9.2369;-1.3639;-1.8918;
990551992662093;-8.7389;-0.9162;-2.9818;
990552002765583;-9.0024;-1.8766;-4.2251;
990552012887614;-9.6156;-2.5259;-4.1100;
990552022991156;-10.1402;-2.1066;-2.2774;
990552033094645;-8.3722;-1.1844;-1.5350;
990552043178395;-9.7424;-1.2610;-1.9110;
990552053281937;-10.8180;-1.5580;-1.7408;
990552063385427;-9.2513;-1.6609;-1.3504;
990552073492979;-8.1326;-1.6633;-1.3839;
990552083596520;-8.9088;-0.9616;-2.6417;
990552093700010;-8.7796;-0.5471;-2.9794;
990552103799489;-8.4416;-0.7196;-3.0320;
990552113903031;-8.5783;-1.0908;-3.9640;
990552124006520;-9.4167;-1.3807;-5.2645;
990552134126260;-9.8671;-0.6981;-5.7461;
990552144229802;-8.7413;0.3846;-3.9951;
990552154333291;-9.8384;-0.4035;-3.0607;
990552164417145;-11.1847;-0.2022;-3.8584;
990552174520635;-9.4406;1.7070;-3.0607;
990552184624125;-8.4368;1.9609;-1.9564;
990552194730895;-9.0096;0.5907;-2.6800;
990552204834437;-8.8011;-0.0969;-4.6513;
990552214937927;-8.4969;0.6003;-3.8728;
990552225046052;-7.4692;-0.0730;-3.3147;
990552235149541;-8.9112;-0.9018;-4.2156;
990552245253083;-10.1928;-0.0464;-4.1411;
990552255355010;-9.7304;-0.1472;-4.2826;
990552265458552;-8.1063;-0.1567;-4.9364;
990552275562041;-9.1699;0.0829;-3.6212;
990552285665948;-10.6433;-0.5255;-4.2802;
990552295769489;-8.5639;0.5285;-3.2261;
990552305872979;-6.9135;0.2913;-3.7436;
990552315973656;-8.9734;-0.4944;-4.7279;
990552326077093;-9.0694;-0.7531;-3.2931;
990552336180479;-8.6883;-0.8850;-4.2395;
990552346286885;-9.7878;-0.7484;-3.1038;
990552356390323;-9.7783;-0.6359;-3.5806;
990552366493760;-10.0708;-1.4264;-4.3663;
990552376589541;-10.3511;-1.2371;-2.9818;
990552386692927;-9.8504;-1.5939;-2.5146;
990552396796364;-9.2850;-0.6622;-0.7277;
990552406903812;-8.5974;-0.6383;-1.6092;
990552417007250;-7.8452;-0.8249;-1.8799;
990552427110687;-8.3195;-0.9999;-2.8813;
990552437214073;-9.2850;-1.9869;-3.9159;
990552447317510;-9.0909;-1.8024;-3.3817;
990552457420948;-10.7557;-1.8168;-4.1195;
990552467519489;-10.5879;-1.2323;-2.0931;
990552477622927;-8.8585;-1.5389;-2.2343;
990552487726364;-9.5629;-1.6828;-1.5060;
990552497838656;-9.7854;-2.3294;-2.7517;
990552507942093;-10.5951;-1.3974;-2.5986;
990552518045531;-8.8466;-1.1315;-1.9110;
990552528171885;-7.9699;-0.8656;-0.9718;
990552538275270;-9.0096;-1.3998;-3.8321;
990552548378708;-9.4430;-1.3017;-5.0444;
990552558483968;-9.7735;-1.6274;-4.6513;
990552568587406;-10.1210;-1.0956;-2.5528;
990552578690791;-10.0418;-0.9975;-1.5637;
990552588761364;-9.9556;-1.0789;-1.6953;
990552598864750;-10.1186;-0.7914;-2.7039;
990552608968187;-9.5195;-0.3389;-2.2199;
990552619076729;-8.3411;-0.5255;-2.6728;
990552629180114;-8.1254;-0.4250;-3.0296;
990552639283500;-8.1685;-0.0368;-3.1807;
990552649409281;-8.7389;-0.4872;-3.7412;
990552659512718;-9.6275;-0.7651;-4.0047;
990552669616156;-9.9341;-0.9353;-4.2802;
990552679707406;-9.1268;-0.4848;-2.7829;
990552689810843;-9.2034;-0.6574;-3.0631;
990552699914281;-10.3101;-0.7531;-3.2381;
990552710016520;-10.3965;-0.8874;-3.6694;
990552720119906;-10.0633;-0.4322;-2.5576;
990552730223343;-9.4741;-0.1328;-2.1960;
990552740364281;-9.7854;0.4229;-1.1157;
990552750467718;-8.5663;0.0087;-2.3228;
990552760571104;-7.9675;0.7992;-3.4920;
990552770616885;-8.9638;0.8399;-5.0109;
990552780720323;-9.9628;0.4397;-3.4561;
990552790823708;-10.1378;-0.9162;-2.6680;
990552800932770;-8.9375;-0.1113;-2.3351;
990552811036156;-10.1378;0.1570;-3.8536;
990552821139593;-10.6696;-0.1448;-2.3447;
990552831242562;-8.9686;-1.3974;-1.9469;
990552841345948;-7.8715;-0.7890;-1.7719;
990552851449385;-8.1924;-0.5566;-4.1195;
990552861555479;-9.3233;-0.4346;-4.1698;
990552871658864;-10.5832;-1.4551;-2.9985;
990552881762302;-8.9758;-0.7436;-1.7791;
990552891900531;-8.2549;-0.6957;-3.7005;
990552902003916;-8.6668;-0.7531;-4.0502;
990552912107354;-8.8992;-1.3161;-4.5269;
990552922184385;-9.2513;-0.6024;-2.9818;
990552932287823;-8.9901;-0.9712;-3.7555;
990552942391260;-9.0239;-0.4298;-2.7541;
990552952491000;-9.2417;-0.8130;-2.9530;
990552962594385;-8.7987;-0.2524;-2.1170;
990552972697823;-8.6357;-0.6790;-3.6141;
990552982800218;-9.8288;-0.0176;-3.2213;
990552992903656;-9.6108;-0.7842;-3.0727;
990553003007093;-8.3028;-0.4442;-2.7159;
990553013111052;-8.4129;-0.7795;-4.2873;
990553023214489;-9.2417;-0.4777;-4.0956;
990553033317927;-9.8791;-0.8731;-3.9568;
990553043424073;-9.9700;-0.4059;-2.4763;
990553053527510;-9.5677;-0.4298;-1.8870;
990553063630948;-9.5725;-0.0607;-3.0129;
990553073731468;-10.1545;-0.0682;-3.2548;
990553083834906;-8.9782;-0.2740;-2.2295;
990553093938343;-8.3554;0.3129;-1.6977;
990553104043968;-8.2573;0.3751;-1.6953;
990553114147406;-9.3305;0.1594;-2.7206;
990553124250843;-9.9772;0.1953;-3.1400;
990553134362302;-9.7639;0.4950;-2.4452;
990553144465739;-8.1015;0.0230;-2.8499;
990553154569177;-8.0967;-0.2764;-3.0105;
990553164665531;-9.2130;-1.1390;-3.5279;
990553174768968;-8.9183;-1.0621;-3.3649;
990553184872406;-8.0704;-1.1940;-4.5030;
990553194972302;-7.8835;-0.8922;-4.2132;
990553205075739;-9.2106;-1.3663;-4.3017;
990553215179177;-9.1603;-1.9558;-2.4117;
990553225310843;-8.9136;-1.7426;-1.8464;
990553235414281;-9.9221;-1.3184;-3.3840;
990553245517666;-11.4769;-1.2467;-3.4992;
990553255604385;-10.4611;-1.0406;-2.5002;
990553265707823;-9.9987;-0.8345;-0.8928;
990553275811260;-10.3029;-1.6131;-1.0822;
990553285906677;-10.0947;-1.2634;-0.9984;
990553296010114;-9.4621;-0.2237;-2.4882;
990553306113552;-8.8992;0.5979;-3.4035;
990553316215114;-8.6405;0.0111;-3.9712;
990553326318552;-9.6012;-0.4250;-3.5303;
990553336422041;-9.5366;-0.1543;-2.5146;
990553346526885;-8.6022;-0.9592;-3.6308;
990553356630323;-8.5591;-0.6670;-3.8345;
990553366733812;-9.1460;-0.7723;-3.8177;
990553376833291;-9.0311;-0.8034;-3.2477;
990553386936729;-8.5472;-0.6670;-1.8105;
990553397040166;-7.5506;-0.7507;-3.2213;
990553407171260;-9.7902;-0.6837;-4.6250;
990553417274750;-11.2756;-0.6933;-3.3123;
990553427378187;-10.1019;-1.0143;-1.4797;
990553437454645;-10.0011;-0.5949;-2.0378;
990553447558083;-9.2584;-0.8731;-3.5830;
990553457661520;-9.1053;-0.9401;-3.2309;
990553467769281;-9.0048;-0.4896;-3.4561;
990553477872770;-9.5028;-0.7244;-3.7412;
990553487976208;-9.2225;-0.6096;-2.8020;
990553498076000;-9.2393;-0.1280;-2.6776;
990553508179385;-9.0479;-0.0511;-2.7900;
990553518282875;-9.3377;0.3440;-2.8116;
990553528371625;-9.3162;-0.3891;-2.9506;
990553538475062;-9.0000;0.3799;-2.5002;
990553548578500;-9.3808;0.6577;-2.8789;
990553558733031;-7.7064;0.1881;-3.4681;
990553568836468;-7.9962;0.2219;-4.1507;
990553578939958;-9.9580;0.3129;-4.0119;
990553589008291;-10.1450;0.2794;-2.5792;
990553599111729;-9.4549;0.0541;-1.7695;
990553609215166;-8.8801;0.3631;-3.2788;
990553619320739;-9.0000;0.1881;-3.8034;
990553629424177;-9.5172;-0.3867;-3.6212;
990553639527666;-10.3846;-0.2692;-3.0535;
990553649678812;-10.4300;-0.2453;-2.0859;
990553659782250;-8.5089;-0.3580;-2.4356;
990553669885687;-8.6501;0.2506;-2.5241;
990553679937562;-9.2010;0.5740;-2.6082;
990553690041000;-8.8035;0.0350;-2.8307;
990553700144437;-8.4802;0.1762;-2.4619;
990553710294385;-8.8490;0.2674;-3.2213;
990553720397823;-9.3090;0.1642;-4.1650;
990553730501260;-9.2608;0.5764;-3.8847;
990553740576468;-9.4095;0.3775;-4.0167;
990553750679906;-9.8623;0.1618;-3.0009;
990553760783395;-10.0226;0.3248;-1.5278;
990553770877406;-9.1986;0.1786;-1.7192;
990553780980843;-8.1876;0.6840;-2.8669;
990553791084281;-8.7194;0.1427;-3.7890;
990553801186677;-9.2560;-0.3413;-3.6838;
990553811290114;-9.3425;0.2913;-2.9435;
990553821393604;-9.0885;-0.3365;-2.7422;
990553831512302;-9.0838;-0.3820;-3.4226;
990553841615739;-9.9197;0.1068;-3.4226;
990553851719177;-10.3487;-0.1831;-2.8908;
990553861809385;-9.2850;-0.6814;-2.5217;
990553871912875;-8.6142;-0.4681;-2.4763;
990553882016312;-8.7748;-0.2812;-2.6345;
990553892095166;-9.0766;-0.4250;-3.1086;
990553902198552;-8.6859;-0.1280;-3.4609;
990553912302041;-9.2779;0.0924;-3.8512;
990553922426104;-9.5100;0.0948;-3.2740;
990553932529541;-8.8657;-0.0682;-2.1697;
990553942632979;-8.8442;-0.1902;-2.9530;
990553952737979;-8.5902;-0.2931;-3.7531;
990553962841416;-10.0274;-0.4274;-3.2118;
990553972944854;-10.7342;0.1140;-2.3228;
990553983056677;-10.4994;-0.1663;-2.3710;
990553993160114;-9.3855;-0.5782;-2.3758;
990554003263604;-8.3052;-0.0440;-2.0716;
990554013369177;-8.1876;-0.4155;-3.0751;
990554023472614;-8.2573;-0.4083;-3.8560;
990554033576104;-8.3387;-0.2477;-4.0597;
990554043675843;-8.6189;0.2889;-4.1626;
990554053779333;-9.1316;0.0733;-3.9111;
990554063882770;-9.2707;-0.1089;-3.6045;
990554073982718;-10.3678;-0.2835;-3.5853;
990554084086156;-10.2383;0.0159;-2.7565;
990554094189645;-8.9279;-0.2955;-1.5446;
990554104288135;-8.7724;0.2001;-1.8918;
990554114391573;-9.1244;-0.0655;-2.8403;
990554124495062;-8.9423;0.0111;-2.9554;
990554134614906;-10.1091;-0.3843;-2.5528;
990554144718343;-10.5855;0.1403;-2.5887;
990554154821833;-9.1890;-0.5112;-2.6752;
990554164909333;-8.0249;-0.3987;-3.2620;
990554175012718;-8.4969;-0.2931;-4.1818;
990554185116208;-10.8900;-0.4585;-4.0525;
990554195217458;-9.6203;0.0302;-2.1314;
990554205320895;-8.4057;0.2148;-1.6857;
990554215424333;-8.4416;0.2961;-2.5337;
990554225504229;-8.8250;0.0876;-3.4872;
990554235607614;-9.5605;0.2626;-3.5782;
990554245711052;-10.2431;0.5501;-2.6106;
990554255849906;-10.3292;0.4134;-2.0812;
990554265953343;-8.4778;-0.1232;-2.4165;
990554276056833;-8.2837;-0.3242;-3.1424;
990554286155843;-8.6094;-0.3963;-3.4083;
990554296259281;-9.1340;-0.6790;-3.0440;
990554306362770;-10.3340;0.0996;-3.0511;
990554316468552;-10.4587;-0.2309;-3.0464;
990554326572093;-9.2369;-0.4250;-2.5672;
990554336675687;-9.2369;-0.1735;-2.9746;
990554346772510;-9.2417;-0.0969;-2.9219;
990554356876104;-9.1053;-0.2166;-2.7494;
990554366979645;-9.0957;-0.3580;-2.3758;
990554377089593;-9.1555;-0.0682;-2.8379;
990554387193135;-9.4765;-0.2524;-3.1424;
990554397296729;-9.9509;-0.0849;-3.6981;
990554407386520;-9.7807;0.3416;-3.0751;
990554417490062;-9.1077;0.1810;-2.3590;
990554427593604;-7.8141;-0.1376;-2.8908;
990554437705531;-8.4535;0.2411;-3.9111;
990554447809073;-9.2297;-0.0583;-3.7699;
990554457912614;-9.2994;-0.2572;-2.5337;
990554468030635;-10.3534;0.3942;-2.8594;
990554478134177;-10.7031;0.0135;-2.7135;
990554488237718;-8.0943;-0.5877;-1.9780;
990554498328135;-7.6992;-0.0200;-3.6933;
990554508431729;-9.4956;-0.3147;-4.3256;
990554518535270;-10.7725;-0.2237;-2.9961;
990554528631625;-9.3903;-0.7316;-1.7695;
990554538735114;-8.3865;0.0494;-2.4404;
990554548838656;-8.9447;-0.3365;-3.9879;
990554558935270;-10.1569;-0.3485;-4.1339;
990554569038812;-10.6193;0.4253;-2.7398;
990554579142354;-10.0107;0.5453;-2.1529;
990554589256468;-8.6524;0.0972;-2.3901;
990554599360010;-8.3842;0.0565;-2.8980;
990554609463552;-9.4095;-0.0153;-2.9530;
990554619586781;-10.9499;0.3009;-1.8894;
990554629690323;-9.1866;0.6003;-1.9756;
990554639793864;-5.9982;0.2626;-3.0631;
990554649884125;-8.2502;0.0589;-4.2395;
990554659987666;-10.8108;0.0063;-4.5772;
990554670091208;-10.6146;0.0805;-3.5160;
990554680191989;-9.0694;-0.0849;-2.3133;
990554690295531;-7.3851;-0.4466;-2.9339;
990554700399125;-7.2153;-0.4035;-4.4501;
990554710506885;-9.5773;-0.4753;-4.9699;
990554720610427;-10.7318;-0.1161;-3.6766;
990554730713968;-10.6887;0.4854;-2.2319;
990554740795948;-10.0490;0.0661;-1.1324;
990554750899437;-8.8513;-0.4442;-1.9421;
990554761003031;-9.7017;-0.4968;-2.9004;
990554771123395;-9.7113;-0.5351;-2.4571;
990554781226989;-9.6826;-0.3772;-1.9062;
990554791330531;-10.3292;0.3870;-2.6201;
990554801427458;-10.2096;0.0230;-2.9387;
990554811530948;-8.0249;0.0637;-2.4523;
990554821634541;-8.3124;0.0876;-3.2955;
990554831759125;-8.9471;0.1929;-3.8704;
990554841862666;-8.4802;0.2387;-4.1052;
990554851966208;-8.0321;0.0589;-3.5734;
990554862056260;-7.7614;0.4759;-3.9760;
990554872159802;-9.2513;0.3727;-4.5915;
990554882263395;-10.4516;0.0709;-3.6523;
990554892356364;-8.9160;0.4421;-2.1649;
990554902459906;-7.8858;0.1762;-2.6082;
990554912563448;-9.1268;-0.3314;-3.4992;
990554922673656;-10.1498;-0.6263;-3.8010;
990554932777198;-10.2933;-0.6263;-2.7015;
990554942880791;-10.5736;-0.6790;-1.9349;
990554952989073;-11.6085;-0.5949;-1.9828;
990554963092614;-10.5927;-0.4753;-1.3624;
990554973196208;-8.8035;-0.5949;-1.7384;
990554983301781;-9.8982;-0.3724;-2.7829;
990554993405323;-9.8504;0.0494;-2.8789;
990555003508916;-8.7915;0.1834;-2.1147;
990555013600895;-7.7399;0.5309;-2.6632;
990555023704385;-8.1661;0.9906;-3.6814;
990555033807979;-8.9040;0.5166;-4.3208;
990555043918968;-9.3760;0.8183;-3.6595;
990555054022510;-8.8059;0.9858;-2.6871;
990555064126104;-8.7772;0.4110;-2.8980;
990555074232927;-8.9973;-0.0105;-3.5518;
990555084336468;-8.9136;-0.2405;-3.5542;
990555094440062;-9.0622;-0.5542;-3.2381;
990555104542823;-10.2550;-0.2883;-3.3745;
990555114646364;-11.3115;-0.5686;-2.9387;
990555124749958;-8.8561;-0.7555;-2.3109;
990555134860010;-9.0048;-0.8803;-2.9961;
990555144963552;-10.5162;-0.7771;-3.9111;
990555155067145;-10.3534;-0.7436;-2.7733;
990555165157198;-8.6979;-0.0802;-1.9397;
990555175260739;-7.7758;0.5931;-3.2788;
990555185364333;-9.8145;0.4469;-4.3950;
990555195472562;-9.9509;1.1465;-3.2883;
990555205576104;-9.0311;1.2709;-2.0644;
990555215679698;-9.6180;1.1249;-1.7647;
990555225788864;-8.8322;0.5812;-2.9554;
990555235892406;-8.0728;-0.2309;-3.2931;
990555245995948;-8.1422;0.1738;-3.8225;
990555256102718;-8.8131;-0.1735;-3.5423;
990555266206260;-10.3268;0.0565;-3.3099;
990555276309854;-9.5605;-0.2381;-2.8642;
990555286401364;-8.3865;-0.5542;-3.2524;
990555296504906;-9.6132;-0.7819;-4.0095;
990555306608500;-9.8456;-0.3891;-3.0655;
990555316715427;-8.1541;-0.6168;-2.6225;
990555326818968;-7.6729;-0.2692;-3.4513;
990555336922458;-8.9590;-0.0873;-4.2897;
990555347025062;-10.2861;0.0111;-3.4011;
990555357128604;-9.1675;0.2770;-1.4821;
990555367232093;-8.3148;0.6505;-1.7216;
990555377330687;-8.3243;-0.0535;-2.7757;
990555387434177;-9.6969;-0.1304;-3.0559;
990555397537666;-9.4430;0.0278;-2.9626;
990555407626468;-10.0947;-0.1472;-2.7876;
990555417730010;-10.3415;0.0661;-2.4523;
990555427833500;-9.0622;0.1546;-1.6331;
990555437963343;-6.9876;-0.1926;-2.4045;
990555448066885;-8.4778;-0.4896;-4.2586;
990555458170375;-10.2311;-0.0607;-4.1626;
990555468276260;-10.3463;0.2148;-2.2487;
990555478379802;-9.5366;0.2794;-1.9253;
990555488483291;-9.9724;0.0087;-2.9506;
990555498581468;-11.3545;0.0924;-2.9195;
990555508685010;-10.2981;-0.3628;-0.9479;
990555518788500;-7.5338;0.0517;-1.2595;
990555528903448;-6.1660;0.1044;-3.3697;
990555539006989;-9.0933;-0.1041;-4.3232;
990555549110479;-10.5616;0.3153;-3.2118;
990555559211052;-9.6849;0.5764;-2.4069;
990555569314593;-10.0466;-0.0105;-2.8092;
990555579418083;-9.8839;0.2650;-3.2907;
990555589516000;-8.9758;-1.0023;-3.0823;
990555599619489;-8.4488;-0.6311;-3.1205;
990555609722979;-9.3975;-0.2309;-3.0846;
990555619809750;-10.3149;-0.2907;-2.3303;
990555629913291;-8.0991;-0.1376;-2.0764;
990555640016781;-8.2334;0.3057;-3.9159;
990555650144489;-10.7462;-0.0320;-4.7327;
990555660247979;-10.2526;-0.3099;-3.5758;
990555670351520;-9.4980;0.3057;-2.8451;
990555680426468;-8.8992;-0.1184;-2.7230;
990555690530010;-9.3808;-0.3748;-2.9411;
990555700633500;-10.2407;0.1331;-2.0306;
990555710783968;-8.3459;0.1546;-1.5156;
990555720887510;-9.2755;0.1116;-3.4083;
990555730991000;-10.0828;0.2818;-3.4537;
990555741054385;-9.0287;-0.4346;-2.8860;
990555751157927;-9.0646;-0.0464;-3.0153;
990555761261416;-10.0466;-0.3580;-3.3625;
990555771375010;-10.2814;-0.2022;-2.4236;
990555781478552;-8.2310;-0.0873;-2.4763;
990555791582041;-8.1182;-0.2812;-4.0430;
990555801709958;-11.2110;-0.0033;-4.1841;
990555811813500;-10.5257;0.2626;-2.2319;
990555821916989;-8.8322;0.0278;-1.7025;
990555832024281;-9.7184;-0.1519;-2.8044;
990555842127823;-11.1512;-0.5423;-2.7541;
990555852231312;-11.8505;-0.2094;-1.1946;
990555862307406;-11.2349;-0.2979;-0.9287;
990555872410948;-10.5903;-0.5710;-1.4940;
990555882514437;-8.6955;-0.5471;-2.3853;
990555892625218;-7.0881;-0.8560;-3.6069;
990555902728760;-6.4726;-0.4370;-4.5174;
990555912832250;-7.3445;0.4205;-5.5041;
990555922925739;-7.4142;0.7442;-4.9795;
990555933029281;-6.2354;0.7247;-5.4802;
990555943132770;-8.3889;0.7128;-6.7427;
990555953234750;-10.0537;0.8231;-5.3605;
990555963338291;-8.2549;0.3368;-3.0511;
990555973441781;-6.8704;0.5859;-2.9794;
990555983549906;-8.1039;0.0206;-4.8048;
990555993653448;-9.8647;-0.4944;-4.1004;
990556003756937;-11.4529;-0.3963;-2.3061;
990556013860323;-13.4028;-0.6957;-1.7695;
990556023963864;-13.5440;-1.0813;-1.0869;
990556034067354;-11.8935;-1.1988;-0.4137;
990556044172510;-9.8815;-1.6971;-0.6843;
990556054276052;-9.5390;-1.2538;-1.2090;
990556064379541;-9.3018;0.1307;-1.0175;
990556074472406;-7.8739;0.4878;-0.0066;
990556084575948;-8.3219;1.5033;-1.4390;
990556094679437;-10.9283;2.2292;-2.3204;
990556104787093;-11.9441;2.2555;-0.8354;
990556114890635;-9.9676;1.7261;-1.0822;
990556124994125;-8.5161;1.2808;-2.6034;
990556135098135;-8.0130;-0.0368;-3.6021;
990556145201677;-7.9866;0.1522;-4.0095;
990556155305166;-6.4128;0.1020;-4.1722;
990556165411677;-6.0532;-0.4801;-5.6958;
990556175515218;-8.0824;-0.2620;-7.2697;
990556185618708;-10.7198;-0.8779;-7.2864;
990556195721989;-11.2636;-1.4671;-5.1377;
990556205825531;-11.2947;-1.1868;-3.2764;
990556215929020;-10.5018;-1.0119;-1.7288;
990556226050323;-8.1494;-1.0286;-1.9038;
990556236153864;-9.0885;-1.0119;-2.3590;
990556246257354;-9.5004;-0.3194;-1.7910;
990556256350948;-8.3865;-0.1328;-1.4438;
990556266454489;-8.5807;0.3033;-2.9339;
990556276557979;-10.0585;0.1140;-4.6585;
990556286653760;-10.4755;0.0876;-3.3194;
990556296757302;-10.5832;0.8471;-2.0091;
990556306860791;-10.3989;0.8255;-2.1482;
990556316965479;-10.6863;0.7633;-1.8703;
990556327069020;-9.3353;1.1010;-1.4509;
990556337172562;-7.8165;0.2387;-1.4557;
990556347286885;-8.2358;0.7801;-3.1854;
990556357390427;-10.2072;0.5572;-4.2347;
990556367493968;-9.1843;-0.0176;-3.2142;
990556377590895;-8.2717;0.6649;-4.0454;
990556387694437;-8.8059;0.0159;-4.8215;
990556397797979;-9.5052;-0.4250;-3.5853;
990556407903031;-10.2646;-0.1543;-2.0498;
990556418006573;-9.8839;-0.0873;-1.5685;
990556428110114;-8.6453;-0.4083;-1.9038;
990556438199125;-8.7556;-0.8584;-2.5986;
990556448302614;-8.9160;-0.5614;-3.2836;
990556458406156;-9.4813;-0.8827;-3.2501;
990556468534593;-9.9867;-0.3532;-3.0894;
990556478638135;-9.8862;-0.3413;-3.0105;
990556488741677;-9.3808;-0.8273;-3.0176;
990556498825635;-9.1220;-0.0200;-2.9626;
990556508929177;-8.8920;-0.0320;-2.6345;
990556519032718;-7.8667;0.0900;-3.6981;
990556529122614;-9.4717;0.3440;-4.9747;
990556539226104;-10.5616;0.6482;-3.4442;
990556549329645;-9.2225;0.6410;-1.6522;
990556559459958;-9.2010;0.3679;-2.4069;
990556569563500;-9.3688;-0.3099;-3.3649;
990556579667041;-9.8312;-0.8731;-3.2285;
990556589748395;-10.4587;-0.3461;-2.7182;
990556599851885;-9.6012;-0.5806;-2.2845;
990556609955479;-9.2827;-1.0717;-2.1769;
990556620111468;-9.4597;-0.5231;-2.6106;
990556630215010;-9.4645;-1.1773;-3.0153;
990556640318552;-9.3018;-0.9832;-2.5672;
990556650371156;-8.6644;-0.4011;-2.5672;
990556660474698;-8.6429;-0.1807;-3.1974;
990556670578239;-10.4827;-0.5136;-3.8489;
990556680703448;-10.7557;-0.0224;-2.9985;
990556690806937;-10.0274;-0.2166;-1.7910;
990556700910531;-8.1999;-0.4418;-2.3877;
990556711012198;-7.7375;-0.3939;-3.7484;
990556721115739;-8.5065;-0.4825;-4.2179;
990556731219281;-8.5878;-0.2309;-3.4370;
990556741321260;-8.5472;0.2411;-4.1530;
990556751424802;-9.6299;-0.1280;-4.1889;
990556761528343;-10.0466;0.0517;-3.6694;
990556771626260;-10.4037;0.1164;-2.7805;
990556781729802;-9.5964;-0.1735;-2.2774;
990556791833343;-8.8561;-0.3532;-2.3782;
990556801931885;-8.7341;-0.0511;-2.3566;
990556812035427;-8.5974;0.1403;-3.0320;
990556822138968;-8.7075;0.2746;-3.1567;
990556832234229;-9.2779;0.4229;-2.9315;
990556842337718;-10.7390;0.6482;-3.0224;
990556852441260;-10.7246;0.4134;-3.0129;
990556862549593;-10.0708;-0.0176;-2.6704;
990556872653135;-9.5462;-0.1137;-1.8607;
990556882756677;-9.3401;0.0206;-2.2893;
990556892856208;-10.1761;-0.0105;-2.3901;
990556902959698;-9.2441;0.3248;-1.5637;
990556913063239;-7.7806;0.3129;-2.0668;
990556923172406;-7.7351;0.3224;-3.4107;
990556933275948;-8.8561;0.0924;-4.2203;
990556943379489;-10.4037;0.4759;-3.5327;
990556953485062;-9.8336;0.3727;-3.1253;
990556963588604;-8.8872;0.1283;-3.7220;
990556973692145;-9.4765;0.3894;-3.6117;
990556983805739;-9.2755;-0.0802;-2.2630;
990556993909281;-8.9495;0.1187;-2.2893;
990557004012823;-9.1220;0.0876;-3.1974;
990557014120218;-9.3975;-0.5255;-3.1639;
990557024223760;-9.1747;-0.1184;-3.3864;
990557034327302;-9.1077;-0.1400;-3.0535;
990557044415843;-10.0490;0.0876;-2.5528;
990557054519385;-9.6634;-0.1926;-2.7326;
990557064622927;-10.5520;-0.1591;-3.2740;
990557074731677;-9.8432;-0.1065;-1.7886;
990557084835218;-8.5424;-0.2572;-0.9144;
990557094938760;-8.2334;0.4783;-2.4739;
990557105039281;-9.2010;0.0852;-4.5604;
990557115142823;-10.6481;0.3823;-3.6814;
990557125246364;-10.1498;0.4301;-1.7599;
990557135362510;-7.8500;0.2363;-2.1170;
990557145466052;-7.2535;-0.1950;-4.3998;
990557155569593;-8.4730;-0.4178;-4.4815;
990557165664802;-8.5256;-0.0655;-3.9760;
990557175768343;-9.6012;0.0996;-3.7340;
990557185871885;-10.6098;0.0374;-3.0488;
990557195966156;-10.4444;-0.3075;-1.7671;
990557206069698;-9.5414;0.2171;-2.0812;
990557216173239;-9.0168;-0.6144;-2.9770;
990557226306260;-9.3401;-1.0119;-2.6058;
990557236409802;-9.4717;-0.0754;-1.7886;
990557246513343;-9.1866;-0.0754;-2.9722;
990557256593239;-9.6538;0.0063;-3.3577;
990557266696781;-9.8336;0.4998;-2.4069;
990557276800323;-8.8657;0.4181;-2.0521;
990557286899177;-8.8729;0.1259;-3.8010;
990557297002718;-10.4061;-0.0849;-3.7675;
990557307106260;-9.5821;0.3942;-1.8559;
990557317214802;-9.1077;0.1546;-1.7527;
990557327318343;-9.2584;0.1140;-2.3638;
990557337421885;-8.5663;-0.1184;-2.4763;
990557347523343;-8.9016;-0.0176;-3.2644;
990557357626885;-10.4659;-0.1137;-4.0334;
990557367730427;-9.9054;-0.6479;-3.1639;
990557377831052;-9.0048;-0.5112;-2.3901;
990557387934593;-9.0814;-0.2333;-3.4442;
990557398038135;-9.7280;-0.5088;-4.2706;
990557408170687;-9.0072;0.0302;-3.1134;
990557418274229;-7.5697;0.2411;-2.5433;
990557428377718;-8.1494;0.2028;-3.5997;
990557438450375;-9.1508;-0.0248;-3.9135;
990557448553864;-10.2455;0.5596;-2.9794;
990557458657406;-10.3846;0.3009;-2.7159;
990557468770635;-10.3989;-0.2955;-2.7470;
990557478874177;-9.2827;-0.6359;-2.3351;
990557488977718;-8.4559;-0.5542;-2.7039;
990557499077406;-9.5773;0.0900;-3.5040;
990557509180948;-9.7376;-0.7292;-2.7470;
990557519284489;-8.6572;0.0661;-2.1434;
990557529406156;-7.5936;0.4950;-4.1076;
990557539509698;-9.3616;0.1522;-5.4251;
990557549613187;-8.6907;0.7271;-3.7627;
990557559708708;-7.8212;0.4134;-2.4284;
990557569812250;-9.9748;0.7343;-3.3194;
990557579915791;-11.8768;0.3009;-2.6871;
990557590016468;-9.4932;-0.1113;-1.0774;
990557600119958;-7.6032;0.1762;-1.5565;
990557610223552;-8.7413;-0.1496;-3.4825;
990557620304802;-8.5878;-0.1232;-3.8010;
990557630408343;-9.6227;-0.2716;-3.2764;
990557640511885;-12.4373;-0.4011;-3.0846;
990557650646364;-12.4134;-0.5782;-1.6522;
990557660749906;-9.1508;-0.2716;-0.2390;
990557670853448;-9.1723;0.2841;-2.1434;
990557680925791;-11.3569;-0.1304;-3.0009;
990557691029281;-9.5076;0.2001;-1.8105;
990557701132823;-6.8510;0.7418;-1.2353;
990557711264906;-7.6343;0.9236;-2.7948;
990557721368448;-9.8073;0.4902;-3.5686;
990557731471989;-8.6453;0.6984;-3.4561;
990557741575843;-7.9193;0.7175;-4.7327;
990557751679385;-8.3650;-0.0921;-5.6599;
990557761782927;-7.6104;0.0661;-4.4477;
990557771880010;-10.2431;-0.1735;-3.5495;
990557781983552;-12.9835;-0.2142;-2.3710;
990557792087093;-9.8910;-1.0190;-1.6355;
990557802181468;-6.3144;-0.6885;-1.8918;
990557812285010;-8.9853;-0.2237;-4.7761;
990557822388552;-14.1670;-0.8034;-4.1865;
990557832482198;-12.8806;-0.3700;-0.5264;
990557842585687;-8.8274;-0.0224;0.0437;
990557852689229;-8.7915;-0.0488;-2.3853;
990557862803760;-7.5290;0.0063;-3.1950;
990557872907302;-6.8222;0.9452;-3.2070;
990557883010843;-7.0857;0.8806;-4.0382;
990557893134125;-7.6944;1.0579;-5.1305;
990557903237666;-8.7242;1.3023;-3.8201;
990557913341208;-11.4194;0.8662;-2.0091;
990557923430323;-11.7284;0.6649;-1.5852;
990557933533864;-7.2990;0.0350;-2.7589;
990557943637406;-5.9862;-0.5782;-5.4156;
990557953733448;-11.0527;-0.7986;-5.7843;
990557963836989;-14.6366;-0.7436;-1.9038;
990557973940531;-9.7902;-0.5614;0.5970;
990557984060062;-6.3168;-0.5016;-1.9373;
990557994163604;-9.0144;-0.5566;-5.5570;
990558004267145;-10.0370;-0.8779;-4.5413;
990558014364906;-9.0957;-0.9879;-1.4509;
990558024468500;-10.7677;0.4373;-0.7851;
990558034571989;-8.7147;0.9739;-1.0750;
990558044665010;-7.5577;1.0675;-1.9612;
990558054768552;-9.0503;0.3703;-1.8464;
990558064872093;-10.1330;0.4301;-1.6235;
990558074979593;-9.9030;0.1403;-3.0655;
990558085083135;-9.3736;-0.4418;-4.3113;
990558095186677;-9.4980;-0.4896;-3.9350;
990558105286989;-9.6036;-0.7388;-2.8116;
990558115390531;-7.5218;-0.4083;-3.2524;
990558125494073;-6.6858;-0.5399;-5.6073;
990558135607406;-7.6848;-0.4657;-6.6876;
990558145710948;-11.5008;-0.9855;-3.6619;
990558155814489;-12.4998;-0.3027;0.0006;
990558165916156;-10.4946;0.3799;-0.4161;
990558176019698;-8.1565;-0.3218;-1.4222;
990558186123239;-7.6801;-0.3915;-2.7709;
990558196219906;-9.2106;-0.5853;-3.1086;
990558206323448;-9.7854;-0.5638;-1.9469;
990558216426989;-9.8647;-0.4537;-1.6786;
990558226540479;-8.6142;-0.9042;-2.6680;
990558236644020;-9.5342;-0.2740;-3.9808;
990558246747562;-12.3248;-0.6885;-4.1722;
990558256839385;-10.7749;-0.6024;-2.0979;
990558266942927;-7.6463;-0.2022;-1.5948;
990558277046468;-7.7447;0.5548;-3.1325;
990558287185323;-9.0766;-0.2142;-3.5160;
990558297288864;-9.6682;0.0541;-2.2654;
990558307392406;-7.4692;0.5788;-1.9732;
990558317462510;-8.2597;-0.1137;-4.9005;
990558327566052;-10.4779;-0.8707;-5.1257;
990558337669541;-11.3402;-0.4609;-2.8164;
990558347772614;-9.2632;-1.1243;-1.8105;
990558357876156;-8.3961;-0.8082;-2.7111;
990558367979645;-8.5974;-0.9449;-3.4537;
990558378086677;-8.7556;-0.6335;-2.8283;
990558388190218;-11.5654;-0.4011;-2.9865;
990558398293708;-10.3367;-0.0826;-2.7446;
990558408374645;-6.8704;0.0206;-2.7733;
990558418478135;-7.2033;0.3296;-3.8967;
990558428581625;-10.4468;-0.2118;-3.9182;
990558438700270;-10.5999;-0.0176;-2.2845;
990558448803760;-8.6907;0.8279;-2.1649;
990558458907250;-8.9686;0.1427;-3.5806;
990558469009958;-9.7328;-0.1807;-3.3003;
990558479113448;-9.1149;0.4711;-2.4595;
990558489216989;-10.2024;-0.4394;-2.6177;
990558499331781;-10.7964;-0.4466;-2.7781;
990558509435323;-8.8466;-0.2237;-2.2223;
990558519538864;-8.4969;-0.1950;-2.4643;
990558529652406;-10.0780;0.1164;-2.5337;
990558539755948;-10.0514;-0.0802;-2.9411;
990558549859437;-8.3530;0.1570;-3.2644;
990558559927145;-8.1661;0.7199;-3.5279;
990558570030635;-10.3750;0.1068;-2.5576;
990558580134125;-10.3220;0.2961;-1.5948;
990558590295843;-6.8632;0.7223;-2.5839;
990558600399385;-8.3172;-0.0272;-4.9388;
990558610502875;-12.2913;-0.2859;-3.3984;
990558620563448;-10.9762;0.0852;-1.2401;
990558630666989;-8.7075;-0.3170;-1.9373;
990558640770479;-8.8490;-0.4848;-3.0655;
990558650903864;-9.7735;-0.7172;-3.2429;
990558661007406;-9.6395;-0.5447;-3.1110;
990558671110895;-9.4454;0.0829;-2.8020;
990558681193968;-8.7556;0.4564;-3.2572;
990558691297510;-8.4802;-0.0993;-3.4298;
990558701401052;-9.5773;0.2674;-3.4657;
990558711512718;-10.8443;0.9141;-2.4404;
990558721616260;-9.1747;0.0517;-1.8655;
990558731719750;-7.4764;0.3775;-3.1807;
990558741798083;-8.3483;-0.1041;-4.6107;
990558751901573;-9.8623;-0.4801;-3.0320;
990558762005114;-9.2393;0.1283;-2.0139;
990558772132093;-9.4262;-0.6479;-3.6718;
990558782235635;-11.5606;-0.8393;-4.1913;
990558792339125;-11.6877;-0.7244;-2.1027;
990558802429958;-8.1230;-0.7268;-1.2185;
990558812533448;-7.6681;-0.3604;-3.4872;
990558822636937;-9.4286;-0.3242;-4.6681;
990558832753760;-9.0742;0.0757;-2.5170;
990558842857302;-8.6022;1.0364;-1.3481;
990558852960791;-10.4420;0.5716;-2.3734;
990558863059593;-11.0480;-0.1065;-3.0488;
990558873163135;-10.2742;0.1953;-3.1831;
990558883266625;-10.2646;-0.1448;-2.8307;
990558893372979;-9.5172;-1.0549;-1.7264;
990558903476520;-6.8824;-0.0296;-1.9756;
990558913580010;-6.6667;-0.3676;-3.9855;
990558923684177;-9.0479;-0.6120;-4.9699;
990558933787718;-9.2082;0.3176;-3.7555;
990558943891208;-6.5659;0.0733;-3.9951;
990558953991468;-9.0000;-0.3748;-5.8349;
990558964095010;-14.1383;-0.2740;-4.5317;
990558974198500;-12.6386;-0.3266;-0.0305;
990558984312718;-6.8079;0.1857;0.5372;
990558994416260;-5.1670;-0.0200;-2.9315;
990559004519750;-7.0929;-0.8489;-5.0515;
990559014625114;-9.6419;-0.1663;-4.5843;
990559024728656;-10.8443;-0.2883;-3.6141;
990559034832145;-10.5688;-0.4274;-2.1601;
990559044916052;-9.7543;-0.4274;-2.5217;
990559055019593;-11.7954;-1.1653;-2.7374;
990559065123135;-11.5176;-0.6287;-1.0199;
990559075236364;-9.5124;0.2530;0.6332;
990559085339906;-6.7146;0.3511;-0.7445;
990559095443395;-7.4405;-0.2166;-4.2132;
990559105535218;-10.3149;1.0938;-3.5901;
990559115638760;-10.2646;0.4134;-0.7828;
990559125742250;-8.2932;0.4062;-2.7733;
990559135855010;-8.9279;-0.3508;-6.5414;
990559145958552;-10.9116;-1.0860;-4.8383;
990559156062093;-9.9293;-0.2477;-1.1922;
990559166165427;-8.2382;-0.1831;-0.9479;
990559176268968;-8.5256;-0.7364;-3.2333;
990559186372458;-8.7171;-0.2118;-4.0741;
990559196471468;-9.2249;-0.3266;-3.1543;
990559206575010;-8.7290;-0.5016;-2.4380;
990559216678552;-9.3640;-0.2237;-3.4131;
990559226803239;-8.7987;-0.5901;-4.2730;
990559236906781;-9.8504;-0.7340;-3.7795;
990559247010323;-11.7476;0.5381;-3.0440;
990559257097510;-9.6060;0.2698;-0.6987;
990559267201052;-7.1818;-0.5566;-1.2233;
990559277304541;-8.6548;0.2124;-4.1770;
990559287399333;-11.9513;-0.2213;-3.9254;
990559297502875;-10.1402;0.0206;-1.3744;
990559307606364;-9.1029;0.1642;-2.1721;
990559317709854;-9.7663;-0.2285;-2.7182;
990559327813343;-8.6668;-0.6239;-2.3686;
990559337916833;-7.8930;-0.1807;-2.7613;
990559348021208;-11.6013;0.0900;-3.5542;
990559358124698;-13.3621;0.0111;-2.1290;
990559368228187;-9.2946;-0.2548;-0.6580;
990559378329020;-6.9876;-0.5518;-2.1434;
990559388432510;-10.4539;0.2387;-4.4767;
990559398536000;-13.0460;-0.0921;-1.6977;
990559408635270;-9.4621;0.1211;-0.7995;
990559418738760;-5.5119;-0.1065;-2.9028;
990559428842250;-5.0833;-0.2142;-5.7748;
990559438948500;-7.1770;0.2746;-6.9511;
990559449051989;-9.6610;0.0733;-5.9474;
990559459155479;-10.4922;0.8877;-3.6933;
990559469282041;-9.2273;0.8016;-2.7517;
990559479385583;-8.6309;0.1499;-3.9832;
990559489489073;-9.6945;-0.5088;-4.0932;
990559499594802;-9.6754;-0.1328;-1.4414;
990559509698343;-8.1470;-0.3437;-2.3351;
990559519801833;-9.9174;-0.5949;-4.9603;
990559529898031;-11.8744;-0.0559;-3.6933;
990559540001573;-10.1426;-0.0153;0.0652;
990559550105114;-7.0451;-0.0440;-0.9790;
990559560250739;-8.8083;0.0565;-4.9699;
990559570354281;-12.1905;-0.3242;-4.9771;
990559580457770;-10.9331;0.4134;-0.9168;
990559590507823;-7.5697;0.7992;0.6114;
990559600611364;-7.7542;0.7729;-1.4677;
990559610714854;-9.8623;0.1355;-3.1519;
990559620825323;-10.6863;-0.3003;-2.5648;
990559630928864;-11.2660;-0.0873;-1.9469;
990559641032354;-9.7376;0.0087;-1.5996;
990559651134073;-6.4367;-1.1052;-3.0129;
990559661237614;-7.0211;-1.1291;-5.5208;
990559671341104;-9.7711;-0.0440;-5.1353;
990559681461885;-9.2297;-0.2070;-2.9411;
990559691565427;-8.8370;-0.0969;-3.2070;
990559701668916;-8.5854;-0.5351;-4.3878;
990559711749750;-9.9078;-0.3748;-3.4992;
990559721853239;-11.5056;0.0159;-2.6536;
990559731956729;-10.9475;-0.5112;-1.7961;
990559742064177;-9.2321;-0.6479;-0.9263;
990559752167718;-8.2669;-1.0597;-1.4581;
990559762271208;-8.3602;-0.6766;-2.5959;
990559772382823;-9.8934;-0.5112;-3.3075;
990559782486364;-10.4037;-0.2859;-2.6106;
990559792589854;-9.5749;-0.3290;-3.8441;
990559802693552;-11.3115;-0.5183;-4.2251;
990559812797093;-11.2971;0.2339;-2.1123;
990559822900583;-8.4464;-0.5279;-1.1300;
990559833006885;-7.6008;-0.2453;-2.6417;
990559843110427;-8.3722;-0.2596;-3.3314;
990559853213916;-9.9820;-0.1543;-3.0105;
990559863315635;-9.9628;-0.2692;-3.1277;
990559873419177;-9.2297;-0.0754;-3.6308;
990559883522666;-9.6634;-1.1509;-3.7077;
990559893628239;-10.2814;-1.3304;-3.5064;
990559903731781;-9.3329;-1.3567;-3.2836;
990559913835270;-9.6323;-1.3280;-3.0894;
990559923933760;-9.5076;-1.1004;-2.1864;
990559934037302;-8.4873;-0.1926;-2.7470;
990559944140791;-8.8107;-0.0607;-3.7125;
990559954246260;-9.7184;0.8973;-3.4298;
990559964349802;-9.3281;0.5740;-3.1807;
990559974453343;-8.4682;0.0063;-3.1783;
990559984568812;-7.0929;0.1164;-3.7603;
990559994672354;-6.6930;0.2124;-4.9340;
990560004775843;-8.0800;0.5046;-5.8059;
990560014882198;-10.4659;0.7609;-4.7112;
990560024985739;-10.7845;-0.1998;-2.1553;
990560035089229;-9.0479;-0.8874;-1.6092;
990560045170739;-9.2632;-0.6837;-3.4394;
990560055274281;-10.3367;-0.9233;-2.7781;
990560065377770;-8.8107;-0.5949;-1.3887;
990560075482823;-8.8848;-0.3628;-2.7948;
990560085586364;-10.1641;-0.3604;-3.6093;
990560095689854;-10.8323;0.5859;-1.5302;
990560105788500;-10.3292;0.4445;-0.5503;
990560115891989;-8.6285;-0.1472;-1.4725;
990560125995479;-7.7853;0.6314;-3.8991;
990560136113239;-9.3233;0.9858;-4.4743;
990560146216781;-9.0096;0.3081;-2.4332;
990560156320270;-8.1975;0.7753;-1.6594;
990560166415948;-8.1470;0.7152;-2.0692;
990560176519489;-9.4095;0.4516;-3.2572;
990560186622979;-10.8012;0.3751;-3.8560;
990560196727302;-11.2325;-0.5973;-2.1745;
990560206830843;-10.0899;-0.8201;-0.8426;
990560216934333;-8.9495;-0.6168;-2.7494;
990560227050010;-8.8179;-0.7268;-3.7125;
990560237153552;-8.1063;-0.4513;-2.7111;
990560247257041;-7.5338;0.0182;-2.6465;
990560257345427;-6.6212;0.1546;-4.3304;
990560267448968;-8.2860;0.2818;-5.2167;
990560277552458;-10.0633;0.6505;-3.8106;
990560287678031;-10.4659;0.1355;-2.0836;
990560297781520;-11.0551;-0.1639;-0.8521;
990560307885062;-11.3665;-0.9257;-0.2246;
990560317963968;-9.9652;-1.1964;-0.3156;
990560328067510;-9.0335;-1.3400;-1.3983;
990560338171052;-9.8791;-1.5891;-2.4978;
990560348285010;-12.2025;-1.1844;-2.6369;
990560358388552;-12.9739;-1.3017;-2.0402;
990560368492093;-10.2239;-1.4886;-1.6594;
990560378574229;-8.9040;0.1044;-1.7049;
990560388677770;-8.0106;0.1881;-2.6608;
990560398781260;-6.9948;0.4325;-3.2668;
990560408910791;-6.9924;1.0436;-3.4633;
990560419014333;-7.5625;1.9705;-3.6547;
990560429117875;-7.9938;1.8269;-4.4285;
990560439200791;-7.9866;0.9906;-4.1172;
990560449304281;-6.8728;0.0182;-4.7737;
990560459407770;-7.9986;-0.9018;-6.0168;
990560469548760;-10.7151;-1.0717;-5.6025;
990560479652250;-12.4807;-1.6370;-3.5112;
990560489755687;-12.6984;-2.0180;-0.7851;
990560499859229;-10.8299;-1.6633;-0.7947;
990560509931625;-9.4382;-2.5331;-2.6608;
990560520035166;-10.8757;-1.5580;-3.7938;
990560530138656;-10.0899;-0.5016;-2.1936;
990560540284281;-9.2106;-0.1759;-0.9814;
990560550387823;-9.5725;0.7848;-0.3897;
990560560491364;-8.7051;1.3980;-1.1109;
990560570564489;-8.3698;1.8269;-2.0354;
990560580668031;-8.6788;1.7979;-2.8908;
990560590771573;-8.8872;2.1168;-3.4298;
990560600866260;-9.7376;1.3836;-3.8608;
990560610969802;-9.8192;1.1154;-3.3912;
990560621073343;-8.3818;1.0962;-3.3338;
990560631192302;-8.1781;0.9021;-3.3338;
990560641295843;-8.9590;0.1618;-5.5451;
990560651399385;-10.0370;-0.7890;-6.2396;
990560661482666;-9.6108;-0.7436;-4.7303;
990560671586156;-9.0287;0.1905;-3.1878;
990560681689698;-9.3305;-0.3003;-3.0775;
990560691822354;-9.2225;-1.2227;-2.6034;
990560701925895;-9.0000;-0.7125;-1.8033;
990560712029385;-7.9292;-0.4944;-2.6919;
990560722117875;-8.6979;-0.1496;-3.1543;
990560732221416;-9.8384;-0.2453;-2.3997;
990560742324906;-9.6323;0.2794;-2.0186;
990560752418760;-8.9614;0.2602;-2.6345;
990560762522302;-10.0466;-0.0200;-2.9028;
990560772625843;-10.3463;-0.0682;-2.7350;
990560782727250;-9.8599;0.3320;-2.9530;
990560792830739;-9.2584;0.0446;-3.9206;
990560802934281;-9.0503;-0.0057;-3.3529;
990560813041885;-9.7591;0.9069;-2.9219;
990560823145427;-9.9221;0.7729;-2.6776;
990560833248968;-9.0239;0.3655;-2.5481;
990560843349125;-7.9843;0.4660;-3.1400;
990560853452614;-7.9962;0.5812;-4.1315;
990560863556156;-9.2970;0.3129;-3.9879;
990560873658604;-11.4577;0.4397;-2.8451;
990560883762093;-9.0455;0.6051;-1.6690;
990560893865635;-8.6285;-0.0511;-2.5122;
990560903972458;-9.9939;-0.8225;-3.3075;
990560914075948;-10.4300;-0.9760;-1.8823;
990560924179489;-7.4979;-0.2405;-2.9387;
990560934282562;-9.1340;-0.3413;-4.4934;
990560944386052;-9.9963;-0.7220;-4.2203;
990560954489593;-9.5148;0.0805;-2.3327;
990560964592302;-7.4094;0.5477;-2.3542;
990560974695843;-8.0345;-0.1735;-3.6404;
990560984799385;-8.7485;0.2315;-4.3687;
990560994904593;-8.9064;0.7056;-3.8249;
990561005008135;-10.3268;0.3942;-3.7101;
990561015111677;-9.4693;0.6338;-1.7961;
990561025234281;-7.8476;0.4588;-1.8607;
990561035337823;-11.0886;-0.7866;-3.8776;
990561045441364;-13.5730;-0.4466;-2.6082;
990561055525114;-11.2971;-0.6742;0.5492;
990561065628656;-9.0574;-0.1137;-0.3251;
990561075732198;-9.8312;-1.1004;-3.3721;
990561085839906;-9.8025;-1.1557;-2.7685;
990561095943448;-8.0728;0.2913;-1.1755;
990561106046989;-7.9914;1.1943;-2.7852;
990561116146573;-9.0000;0.4684;-3.7842;
990561126250114;-8.5759;0.8183;-3.3529;
990561136353656;-7.3540;1.0101;-3.6885;
990561146463968;-8.5639;0.6936;-4.7617;
990561156567510;-9.9748;0.6123;-3.9401;
990561166671052;-9.0933;0.1690;-2.7135;
990561176767562;-9.5701;-0.3820;-3.1567;
990561186871052;-9.9915;-1.0095;-3.1158;
990561196974593;-8.8872;-1.6107;-2.8355;
990561207084698;-9.7089;-1.1964;-3.8512;
990561217188187;-12.5357;-0.9568;-4.4309;
990561227291729;-11.9560;-1.3328;-1.7384;
990561237390531;-9.8480;-0.8417;-0.4137;
990561247494020;-10.5999;-0.0993;-0.7899;
990561257597562;-10.1785;-0.2213;-1.5060;
990561267735739;-8.7218;-0.3389;-1.6044;
990561277839281;-7.1049;0.9547;-2.2247;
990561287942823;-8.3435;0.7561;-3.7077;
990561298010062;-9.8456;1.0244;-3.7029;
990561308113604;-8.6812;1.2254;-3.1062;
990561318217145;-7.2224;1.0388;-4.2921;
990561328338864;-5.6940;0.2770;-5.7796;
990561338442458;-6.5276;0.1092;-6.3523;
990561348546000;-8.9279;0.3153;-6.1869;
990561358622354;-9.8216;0.7247;-4.7474;
990561368725895;-9.1173;0.5118;-4.4839;
990561378829437;-6.6595;-0.2453;-4.1530;
990561388936104;-7.0857;-0.3580;-4.1841;
990561399039645;-8.9255;-0.4657;-4.1459;
990561409143239;-8.0058;-0.6502;-3.3051;
990561419250635;-8.4416;0.1786;-3.1663;
990561429354229;-9.1914;0.0015;-3.5303;
990561439457770;-8.6907;-0.0535;-2.1840;
990561449578135;-7.6415;0.3416;-1.3648;
990561459681729;-9.5028;0.3488;-1.9923;
990561469785323;-10.0708;0.0541;-2.2247;
990561479868239;-8.8274;0.6386;-1.2233;
990561489971833;-8.4344;0.9284;-0.9239;
990561500075375;-7.8858;0.8614;-1.1827;
990561510213552;-8.3028;1.3262;-2.4787;
990561520317145;-8.2286;1.0675;-3.1134;
990561530420687;-7.7231;0.6769;-2.7398;
990561540510687;-8.4945;1.2159;-2.7350;
990561550614281;-9.0838;0.5907;-2.2534;
990561560717823;-9.1077;0.2148;-2.2295;
990561570798395;-9.2827;-0.0416;-2.2558;
990561580901937;-9.4597;-0.5160;-1.9181;
990561591005531;-9.1077;-0.7723;-1.9588;
990561601114281;-9.5701;-0.8584;-2.2032;
990561611217823;-9.4765;-1.3687;-1.5470;
990561621321416;-9.2082;-1.5939;-1.3313;
990561631445010;-8.4009;-0.9927;-2.2822;
990561641548604;-8.6261;-0.7436;-3.4490;
990561651652145;-9.3688;-0.7675;-3.4753;
990561661738187;-10.3149;-0.1017;-2.5265;
990561671841729;-9.7496;0.2076;-1.7599;
990561681945323;-9.5219;0.2387;-1.8488;
990561692038812;-8.8585;-0.1161;-2.2032;
990561702142354;-7.6295;-0.0802;-2.4954;
990561712245895;-7.3229;0.1116;-3.4059;
990561722330635;-6.3864;0.0613;-5.0563;
990561732434229;-5.7275;-0.1280;-6.7403;
990561742537770;-7.3158;-0.0993;-6.1439;
990561752671520;-11.0504;-0.3891;-3.9159;
990561762775062;-11.2995;-0.3194;-2.4906;
990561772878604;-10.6624;-0.1256;-2.2487;
990561782988031;-9.3425;-0.7938;-2.5720;
990561793091625;-9.8145;-1.1797;-2.0378;
990561803195166;-8.8322;-0.2500;-1.0319;
990561813295531;-7.2248;-0.3027;-0.6556;
990561823399073;-7.4883;-0.0464;-2.3013;
990561833502666;-9.5653;0.2459;-3.8847;
990561843604958;-10.6193;-0.4155;-2.9674;
990561853708500;-9.8791;0.3129;-2.2080;
990561863812041;-9.6227;0.2100;-3.0990;
990561873918135;-8.3411;-0.1926;-2.7135;
990561884021729;-8.8896;-0.4298;-1.7480;
990561894125323;-8.7580;-0.1472;-0.8617;
990561904225791;-9.0096;0.1092;-0.9646;
990561914329333;-10.9211;-0.1519;-1.5108;
990561924432927;-10.4970;-0.6072;-2.5361;
990561934541781;-10.2048;-0.8608;-3.5806;
990561944645375;-10.3340;-0.5136;-3.0368;
990561954748968;-8.7700;-0.8512;-2.0139;
990561964847875;-7.0810;-0.6598;-2.1697;
990561974951416;-7.7088;-0.0897;-3.3194;
990561985054958;-9.9197;0.4759;-2.6489;
990561995165427;-11.7260;0.3823;-2.2989;
990562005269020;-11.7069;0.4229;-3.1110;
990562015372562;-9.1627;0.2913;-2.4308;
990562025500218;-7.4118;-0.3170;-2.6441;
990562035603812;-7.8930;-0.6598;-3.3577;
990562045707354;-9.5988;-0.4681;-3.1301;
990562055777250;-11.1030;-0.2118;-2.6536;
990562065880791;-8.8035;0.0661;-3.5183;
990562075984333;-9.2058;-0.1328;-5.6097;
990562086098500;-11.4697;-0.1304;-4.3878;
990562096202093;-10.6959;-0.2333;-1.9205;
990562106305687;-9.1029;0.6577;-2.2798;
990562116403448;-9.6227;0.3033;-2.2989;
990562126507041;-9.3281;0.8471;-1.5757;
990562136610635;-6.9781;0.7944;-1.9277;
990562146718239;-6.2856;0.4902;-4.2156;
990562156821833;-9.7280;0.3081;-5.5690;
990562166925375;-12.0230;-0.3700;-5.0515;
990562177026052;-11.6324;-0.4298;-3.2166;
990562187129645;-10.5760;-0.3194;-1.0247;
990562197233239;-8.5400;-0.4705;-1.1420;
990562207333916;-7.5147;-0.7771;-3.0440;
990562217437458;-9.5653;-0.4992;-3.3410;
990562227541052;-11.6085;0.2076;-2.2008;
990562237649906;-11.0815;0.1642;-1.5470;
990562247753500;-8.2884;0.2578;-1.6451;
990562257857093;-8.7027;-0.2261;-2.9961;
990562267963552;-8.9566;-0.4490;-3.7340;
990562278067145;-9.2898;-0.0464;-3.5279;
990562288170687;-10.7462;-0.1496;-2.5600;
990562298267718;-8.7242;-0.4657;-2.8451;
990562308371312;-7.2248;-0.3194;-3.4633;
990562318474906;-9.6156;-0.2596;-3.0033;
990562328579073;-13.0962;-0.7795;-2.9578;
990562338682614;-10.0035;-0.7125;-2.0210;
990562348786156;-8.0991;-0.6072;-3.0272;
990562358916156;-9.6634;-0.8946;-3.8871;
990562369019698;-9.3999;-0.2955;-2.4093;
990562379123239;-8.0728;0.0063;-1.3433;
990562389191208;-9.9796;-0.0969;-3.4442;
990562399294750;-11.7715;-0.3867;-4.0573;
990562409398291;-10.5903;0.4181;-1.4821;
990562419529073;-9.4406;-0.1807;-2.2367;
990562429632614;-11.1942;-0.6766;-2.6082;
990562439736156;-11.1870;-0.5495;-1.5781;
990562449808500;-8.9040;-1.0597;-2.7494;
990562459912041;-10.3678;-0.7340;-2.2152;
990562470015531;-9.9724;-0.4178;-0.5575;
990562480160739;-7.2559;-0.5040;-4.3304;
990562490264281;-7.8691;0.0685;-6.2970;
990562500367823;-10.5018;0.3176;-4.4620;
990562510429385;-10.8299;0.1259;-2.5217;
990562520532927;-8.4057;0.7729;-1.5470;
990562530636468;-7.1602;0.0805;-3.7675;
990562540781885;-8.4153;-0.0607;-4.7521;
990562550885427;-12.5812;-0.0778;-3.5112;
990562560988968;-9.9078;-0.2524;-3.5160;
990562571080218;-6.0293;-0.3915;-3.0894;
990562581183812;-6.1301;-0.9425;-5.5400;
990562591287302;-11.9704;-1.0669;-6.8913;
990562601375166;-13.9657;-0.2453;-1.4533;
990562611478708;-9.1005;0.2746;-0.9431;
990562621582250;-7.5721;0.1211;-4.4213;
990562631715531;-9.8958;0.0422;-3.4944;
990562641819073;-10.4994;0.9380;-0.9909;
990562651922614;-9.0359;1.1393;0.6643;
990562661998031;-9.6012;0.9930;-1.9828;
990562672101573;-9.9796;0.3272;-4.8694;
990562682205114;-7.9555;0.7175;-2.2726;
990562692299281;-6.2043;0.5094;-2.7781;
990562702402823;-8.4969;-0.0129;-6.0864;
990562712506364;-12.3272;-0.3676;-5.8780;
990562722621156;-10.5233;-0.4992;-2.6465;
990562732724698;-7.1507;0.4373;0.2880;
990562742828239;-5.8259;-0.1663;-3.1639;
990562752926312;-8.2741;-0.5806;-7.3415;
990562763029854;-11.3354;-0.0849;-3.6500;
990562773133395;-10.7533;0.1810;-1.1324;
990562783243239;-9.3640;0.1570;-1.1468;
990562793346781;-7.1578;-0.5064;-2.1290;
990562803450323;-8.1733;-0.5686;-4.2323;
990562813554177;-9.4741;-0.1831;-3.9784;
990562823657718;-11.1631;-0.4729;-3.1878;
990562833761312;-10.6768;-0.3867;-1.3337;
990562843868343;-10.3077;-0.0849;-0.3802;
990562853971937;-9.8743;-0.8874;-3.1998;
990562864075479;-9.7376;-0.6072;-2.2319;
990562874176312;-9.1268;-0.2166;-1.0487;
990562884279906;-8.4153;-0.2142;-2.9626;
990562894383448;-9.5366;0.4445;-2.3830;
990562904486989;-10.6122;0.1522;-2.5744;
990562914590583;-9.9963;0.5883;-1.4821;
990562924694125;-7.9747;-0.0559;-2.1769;
990562934793968;-8.1781;-0.7412;-4.7160;
990562944897562;-10.0155;0.1786;-2.6441;
990562955001104;-10.6481;-0.2668;-2.9315;
990562965113656;-8.7963;-0.2070;-2.4571;
990562975217198;-7.8571;-0.2883;-3.4178;
990562985320791;-9.0096;-1.1339;-4.7498;
990562995423552;-10.5473;-0.4226;-2.9483;
990563005527145;-9.8671;-1.0023;-3.1134;
990563015630635;-9.6156;-0.4226;-2.8765;
990563025744281;-10.4563;-0.1615;-3.0703;
990563035847823;-10.2120;-0.6359;-2.3614;
990563045951364;-8.2549;0.6434;-0.5288;
990563056037823;-7.5769;-0.0778;-3.1400;
990563066141364;-8.7266;0.0494;-3.9326;
990563076244906;-10.7701;0.1810;-3.5279;
990563086344437;-10.9905;0.4926;-2.8717;
990563096447979;-8.1039;0.5620;-1.2906;
990563106551520;-8.1517;-0.4011;-5.0587;
990563116663656;-9.4454;-0.2429;-4.2371;
990563126767250;-9.6754;-0.0778;-3.0870;
990563136870791;-10.0202;0.5309;-2.2774;
990563146972823;-9.9676;-0.0535;-2.1218;
990563157076416;-9.3497;-0.4920;-4.5652;
990563167179906;-9.1795;0.3655;-1.8727;
990563177283239;-10.2048;-0.0488;-2.0836;
990563187386781;-10.4133;0.1283;-2.4523;
990563197490375;-7.6609;-0.2644;-1.8942;
990563207620687;-7.9292;0.1977;-3.2907;
990563217724229;-10.9187;0.6027;-3.1974;
990563227827770;-10.3702;-0.1113;-3.2740;
990563237902562;-8.5041;0.7370;-2.4356;
990563248006104;-7.7495;-0.5303;-3.9230;
990563258109645;-9.1053;-0.4011;-4.2586;
990563268221260;-10.1545;0.0254;-2.5986;
990563278324802;-8.4826;-0.0559;-2.8187;
990563288428395;-8.5567;0.5548;-3.7268;
990563298525687;-9.6275;-0.6526;-5.3366;
990563308643968;-10.0466;0.4950;-1.7240;
990563318747458;-10.8323;0.4397;-2.0859;
990563328851052;-11.8672;-0.3413;-1.6977;
990563338954541;-10.6289;-0.4777;-1.8727;
990563349032875;-6.9470;-0.2572;-2.0498;
990563359136416;-5.2077;0.1690;-2.6249;
990563369239958;-6.3721;-0.1184;-6.0479;
990563379354073;-11.0025;0.2387;-5.1999;
990563389457614;-13.0914;-0.0105;-3.6814;
990563399561156;-11.2325;0.5692;0.4678;
990563409689281;-7.6657;-0.1352;-1.5948;
990563419792823;-7.7614;-0.1543;-4.4524;
990563429896364;-8.5902;-0.3290;-4.9555;
990563439958604;-9.6299;-0.3242;-2.2199;
990563450062093;-10.5353;0.8255;-1.0175;
990563460165635;-9.0790;-0.4777;-2.6465;
990563470258343;-7.7231;0.1116;-3.0368;
990563480361833;-8.6094;-0.4968;-6.4648;
990563490465375;-9.3855;-0.4035;-4.2467;
990563500568916;-8.6955;-0.4035;-2.6895;
990563510731625;-9.6610;0.7992;-0.2270;
990563520835166;-9.5052;-0.3218;-2.1960;
990563530938760;-8.2813;0.0039;-2.8499;
990563541027875;-8.0441;0.2219;-3.7364;
990563551131416;-11.0480;-0.6814;-4.2730;
990563561234958;-12.1068;-0.3796;-2.1410;
990563571340791;-10.1402;-0.2022;-0.6461;
990563581444333;-7.8476;0.4349;-0.4376;
990563591547875;-7.3708;-0.5877;-3.9855;
990563601659281;-8.6907;-0.0511;-3.7364;
990563611762823;-9.5004;0.3464;-4.4022;
990563621866364;-10.9451;0.4540;-1.8990;
990563631943187;-9.6634;0.1499;-2.1529;
990563642046677;-9.0622;0.7490;-1.7910;
990563652150218;-9.5462;-0.5925;-2.8499;
990563662290948;-9.4956;-0.2333;-2.3638;
990563672394489;-8.8274;-0.2453;-3.0679;
990563682498031;-8.9949;-0.2333;-3.2189;
990563692571468;-9.3879;0.0565;-3.3123;
990563702675010;-10.1426;-0.4681;-2.6632;
990563712778552;-10.6863;-0.1232;-2.8259;
990563722907198;-9.9844;-0.1400;-2.8570;
990563733010739;-9.2106;-0.1352;-1.5924;
990563743114281;-9.8743;0.2411;-2.4595;
990563753196156;-9.7448;0.1259;-2.0426;
990563763299698;-8.6955;-0.3891;-2.2678;
990563773403239;-8.2956;-0.1113;-2.9291;
990563783516573;-8.3650;-0.2644;-4.6322;
990563793620114;-8.6285;-0.3170;-3.5710;
990563803723656;-9.4645;-0.1926;-3.8489;
990563813820948;-10.8275;0.0254;-4.0023;
990563823924489;-11.5678;-0.1184;-3.0129;
990563834028083;-10.6505;0.0613;-0.3275;
990563844130635;-8.3124;-0.0081;-1.7527;
990563854234177;-7.1746;-0.2022;-3.1567;
990563864337718;-8.3124;-0.0200;-4.6657;
990563874436052;-10.3678;0.1092;-3.0296;
990563884539593;-9.5725;-0.5088;-2.9602;
990563894643135;-8.2884;0.3081;-2.3901;
990563904745479;-8.9518;-0.5160;-4.5580;
990563914848968;-10.2838;-0.6885;-3.6885;
990563924952510;-9.9915;-0.7795;-2.5816;
990563935060635;-8.5496;-0.0535;-0.8928;
990563945164177;-8.4802;-0.4370;-3.5925;
990563955267718;-9.8886;0.0948;-2.8475;
990563965384958;-9.0479;-0.5830;-2.6632;
990563975488500;-8.9423;0.4445;-2.4117;
990563985592041;-12.4277;-1.0262;-4.0358;
990563995686677;-12.6793;-0.7005;-0.8713;
990564005790270;-9.1938;-0.4131;-0.9144;
990564015893812;-5.9312;-0.1831;-0.9909;
990564026010531;-5.5768;-1.0334;-5.1664;
990564036114073;-7.5075;-0.4083;-5.9282;
990564046217614;-9.4190;-0.3365;-4.8359;
990564056307823;-12.8782;-0.1591;-0.4543;
990564066411364;-10.7055;-0.4705;-1.1372;
990564076514906;-8.5161;-0.0535;-3.3266;
990564086615895;-8.4607;-0.2812;-4.7064;
990564096719437;-9.0742;-0.6885;-2.0979;
990564106822979;-10.3726;-1.1219;-2.1147;
990564116933656;-10.5927;-0.7890;-1.4318;
990564127037250;-7.5577;-0.1854;-2.0859;
990564137140739;-7.9723;0.2578;-4.3017;
990564147250323;-11.8863;-1.4022;-6.4337;
990564157353864;-11.4745;-0.7842;-1.5060;
990564167457406;-9.7232;-0.6574;-0.1813;
990564177555739;-9.9939;0.3344;-0.1884;
990564187659333;-6.9398;0.3224;-1.9923;
990564197762823;-6.3266;-0.0440;-3.5686;
990564207853864;-10.9116;-0.7340;-7.2506;
990564217957406;-12.1522;0.4612;-3.3075;
990564228060948;-9.4406;0.0135;0.1014;
990564238173135;-7.9579;0.6075;-0.8067;
990564248276677;-8.6596;-0.7077;-5.7485;
990564258380218;-8.7461;0.2363;-4.6322;
990564268504281;-9.8121;-0.2261;-3.4394;
990564278607875;-9.4047;0.1307;-1.8176;
990564288711416;-7.9531;-0.2022;-3.2740;
990564298790583;-8.3913;-0.0849;-3.8608;
990564308894177;-10.2455;-0.8707;-4.4309;
990564318996677;-9.5342;0.0829;-2.1936;
990564329100270;-9.2178;-0.4035;-3.1158;
990564339203812;-11.5319;-0.1448;-2.5265;
990564349296000;-10.7151;0.3918;-0.8354;
990564359399489;-8.3339;-0.0320;-0.3658;
990564369503031;-7.8045;0.3918;-3.3505;
990564379679802;-8.6883;0.1546;-3.6667;
990564389783343;-9.1962;0.4134;-3.1400;
990564399886885;-10.5592;0.4998;-2.7589;
990564409922198;-9.2513;0.5261;-2.1793;
990564420025739;-7.2583;0.0422;-3.3984;
990564430129281;-9.2608;-0.1376;-4.2227;
990564440287614;-10.3917;-0.4202;-3.8536;
990564450391156;-9.3544;0.4974;-1.4605;
990564460494698;-8.8657;-0.3748;-3.1110;
990564470559385;-10.5257;0.0446;-3.4968;
990564480662927;-9.2249;-0.5351;-2.7733;
990564490766416;-7.2679;0.2076;-1.5036;
990564500870010;-9.5821;-0.4418;-4.3878;
990564510958448;-11.7260;0.1116;-1.7480;
990564521061989;-8.3483;-0.0730;-1.6786;
990564531165531;-7.9241;0.7008;-1.9253;
990564541299489;-8.8179;-0.5566;-4.1650;
990564551403031;-9.2225;-0.2022;-2.9985;
990564561506573;-9.8934;-0.0344;-3.0942;
990564571591468;-10.0995;-0.3987;-1.3863;
990564581695062;-8.8370;-0.0730;-3.0488;
990564591798604;-9.4382;-0.7388;-4.5389;
990564601901364;-10.4300;-0.4226;-3.1086;
990564612004906;-10.1617;-0.3051;-1.3959;
990564622108448;-9.2994;-0.2931;-1.3289;
990564632218135;-9.9509;-0.4274;-2.3157;
990564642321677;-8.0536;-0.2572;-1.7192;
990564652425218;-6.4726;-0.3987;-3.5279;
990564662526989;-9.5124;-0.0535;-4.2323;
990564672630531;-9.2273;-0.6120;-3.6452;
990564682734073;-10.8515;0.0613;-1.2667;
990564692838031;-15.7074;-1.2443;-1.9612;
990564702941573;-11.8863;-0.9712;-0.3347;
990564713045114;-6.3215;-1.2443;-1.5541;
990564723160323;-6.3242;-1.2754;-3.8967;
990564733263864;-9.3616;-1.2634;-5.5475;
990564743367406;-10.3846;-0.3963;-2.2295;
990564753456573;-10.1665;0.2578;-0.6843;
990564763560114;-9.0622;0.1259;-2.2152;
990564773663656;-8.0130;-0.1113;-4.2275;
990564783769802;-8.6381;-0.5303;-4.5556;
990564793873343;-10.5209;0.0278;-2.7254;
990564803976885;-9.2683;-0.0057;-1.8775;
990564814078760;-7.5242;0.0996;-2.3085;
990564824182302;-7.5841;-0.8608;-4.9579;
990564834285843;-6.7433;-0.4466;-5.6025;
990564844381364;-10.8538;-1.2682;-8.6112;
990564854484906;-14.2244;-0.8177;-4.4237;
990564864588448;-11.9536;-0.0583;1.1169;
990564874702718;-7.8452;0.0230;2.0776;
990564884806260;-7.8787;0.2124;-1.8679;
990564894909802;-8.5902;0.0135;-4.2275;
990564905005479;-7.4812;0.3464;-3.0320;
990564915109020;-8.9662;0.7801;-2.7852;
990564925212562;-9.5533;1.1608;-2.0617;
990564935325635;-7.5697;0.5788;-3.3075;
990564945429177;-8.4969;0.9093;-4.4142;
990564955532770;-11.2253;-0.0511;-4.8550;
990564965645323;-10.8132;0.6864;-1.7360;
990564975748864;-8.1063;0.3823;-2.5863;
990564985852406;-8.7461;0.3464;-3.3840;
990564995947302;-9.7448;0.1834;-2.5337;
990565006050843;-8.8059;0.0565;-2.0569;
990565016154385;-10.3750;-0.1639;-3.1062;
990565026265010;-9.5988;0.1618;-2.4093;
990565036368552;-8.8633;0.0852;-2.0258;
990565046472093;-10.6863;0.3105;-2.5193;
990565056568239;-8.3818;0.7247;-0.6508;
990565066671781;-7.0259;-0.6383;-3.0846;
990565076775323;-10.2790;0.6314;-3.7077;
990565086881468;-9.8384;0.2076;-2.7254;
990565096985010;-7.7518;0.6051;-1.8799;
990565107088552;-9.9891;-0.0416;-5.6049;
990565117194593;-11.8193;-0.2213;-4.1459;
990565127298135;-9.8527;0.2530;-0.4666;
990565137401677;-8.8944;0.0589;-1.5132;
990565147498031;-10.0756;-0.1496;-3.2740;
990565157601573;-9.3784;-1.0669;-3.6909;
990565167705166;-9.6706;-0.1208;-1.6068;
990565177809698;-9.5797;0.1810;-2.3590;
990565187913239;-8.8777;-0.4633;-2.5146;
990565198016781;-8.9423;-0.6407;-3.5590;
990565208123552;-9.9126;-0.1376;-2.8932;
990565218227093;-9.3544;0.1929;-1.6666;
990565228330635;-8.8298;-0.2788;-4.3591;
990565238435323;-9.2465;0.0302;-3.6523;
990565248538916;-9.5195;-0.0224;-2.6632;
990565258642406;-10.5066;0.3535;-2.3375;
990565268750218;-9.5148;-0.1807;-3.0176;
990565278853760;-8.2669;-0.5638;-3.4705;
990565288957354;-9.2779;-0.3604;-3.6452;
990565299061781;-9.9006;-0.4322;-3.2405;
990565309165375;-9.3066;0.2148;-2.0426;
990565319255531;-9.9939;-0.4825;-3.3912;
990565329359073;-9.5725;-0.1543;-2.4930;
990565339462562;-8.8681;-0.3556;-2.7063;
990565349587510;-8.9112;-0.3485;-2.5074;
990565359691052;-10.5951;0.6147;-3.6523;
990565369794593;-9.3233;-0.4178;-3.4729;
990565379894906;-8.1999;0.6888;-1.5012;
990565389998500;-9.1627;0.0541;-2.9722;
990565400102041;-10.1163;0.2387;-3.2405;
990565410184281;-8.8202;0.4493;-3.6718;
990565420287823;-9.0096;-0.3604;-3.2022;
990565430391364;-9.6849;0.8949;-2.3085;
990565440515531;-9.8647;-0.0081;-3.1229;
990565450619073;-8.5591;0.0087;-2.8140;
990565460722614;-8.2214;-0.4537;-3.8704;
990565470807302;-7.9460;0.0015;-3.2118;
990565480910791;-10.0490;0.3272;-4.0454;
990565491014333;-11.5056;0.1905;-3.2596;
990565501117927;-9.5773;0.5166;-1.1635;
990565511230531;-9.1053;0.0374;-2.3997;
990565521334073;-9.2898;-0.2333;-1.7240;
990565531437666;-8.6285;0.0876;-1.7910;
990565541559802;-7.8643;0.5644;-3.2357;
990565551663343;-9.6993;-0.0655;-3.8584;
990565561766885;-9.6897;0.2889;-2.1434;
990565571842770;-9.2106;0.3942;-2.0644;
990565581946312;-7.7327;-0.4825;-4.8383;
990565592049854;-7.2559;-0.0826;-4.2849;
990565602178864;-9.3329;-0.1543;-3.7149;
990565612282406;-10.8682;0.0948;-2.9195;
990565622385948;-11.7045;0.7008;-1.6259;
990565632465166;-7.6777;-0.3147;-1.8559;
990565642568656;-6.5085;0.1953;-2.7470;
990565652672250;-10.1833;-0.8393;-4.2179;
990565662780010;-11.6782;0.2722;-1.9373;
990565672883552;-10.9283;-0.1735;-1.0104;
990565682987093;-8.7604;-0.3099;-1.3074;
990565693087770;-6.7433;0.4181;-1.8751;
990565703191260;-9.4358;-0.9353;-4.1913;
990565713294854;-11.4314;0.0494;-3.0727;
990565723426677;-10.9092;-0.2596;-1.5060;
990565733530218;-8.2908;-0.1543;-1.1372;
990565743633760;-6.0126;0.5764;-3.5590;
990565753718968;-7.7016;-0.6024;-5.3222;
990565763822510;-10.2431;0.1403;-3.5662;
990565773926052;-11.7595;-0.0057;-2.8116;
990565784029385;-10.2479;-0.1280;-0.5145;
990565794132927;-7.7566;0.3224;-2.0569;
990565804236468;-7.9986;-0.9616;-4.5891;
990565814348239;-14.8113;-0.3194;-3.3625;
990565824451781;-15.2306;-1.0765;0.0556;
990565834555323;-9.3449;-0.7627;1.9579;
990565844647302;-4.1512;-1.0621;-1.6451;
990565854750843;-6.6500;-0.6072;-6.6350;
990565864854385;-9.4932;-0.2716;-6.7570;
990565874968135;-10.5736;0.1211;-4.5341;
990565885071729;-10.5903;0.5907;0.3000;
990565895175218;-8.3913;1.8867;0.6018;
990565905270948;-7.5888;0.2100;-3.8489;
990565915374541;-9.3903;0.0422;-5.8540;
990565925478083;-10.2646;0.0733;-4.5413;
990565935598135;-8.4993;-0.1639;-2.2582;
990565945701677;-8.7891;0.1475;-2.5624;
990565955805270;-7.8380;-0.8321;-5.4634;
990565965917510;-11.9967;-0.9568;-6.7834;
990565976021052;-13.3454;-0.9281;-3.3673;
990565986124593;-9.4190;-0.6048;0.1971;
990565996211156;-6.5611;0.5716;-0.9096;
990566006314698;-8.2741;0.1355;-3.4657;
990566016418239;-9.4693;0.5764;-0.8498;
990566026515010;-8.9447;1.2613;-0.9383;
990566036618552;-10.4228;1.5344;-2.4835;
990566046722093;-9.7902;1.1010;-2.8980;
990566056827406;-7.6032;0.3464;-3.3888;
990566066930948;-8.2549;0.7152;-3.6571;
990566077034489;-9.7184;0.1786;-4.6537;
990566087157093;-11.0432;-0.4250;-3.0942;
990566097260635;-10.1593;0.0613;-1.6666;
990566107364177;-7.9241;0.0589;-3.1277;
990566117448864;-8.4826;0.1427;-5.4467;
990566127552458;-10.6170;-0.1448;-4.4405;
990566137655948;-10.2048;0.0422;-0.7011;
990566147760323;-12.4998;1.0938;1.3373;
990566157863916;-10.7533;0.1546;-0.7059;
990566167967406;-7.5984;0.4783;-1.4509;
990566178065323;-7.9241;0.1786;-3.8106;
990566188168864;-9.8097;-0.5542;-3.7723;
990566198272458;-10.6433;0.5118;-1.6881;
990566208402823;-8.8657;-0.7101;-2.3276;
990566218506364;-7.5194;-0.1783;-3.1663;
990566228609906;-8.8681;0.5692;-4.5365;
990566238691573;-9.4454;0.0589;-6.0239;
990566248795166;-8.0536;0.0661;-4.9316;
990566258898656;-7.6896;-0.0368;-3.8034;
990566269006468;-8.5735;0.4588;-2.6943;
990566279110062;-10.2335;0.6003;-1.9780;
990566289213604;-9.7424;-0.6814;-3.8584;
990566299319489;-10.9905;-0.2979;-5.2693;
990566309423083;-10.6768;-0.9879;-3.0966;
990566319526573;-10.7845;-1.0382;0.6643;
990566329701364;-11.4984;-0.5160;0.7217;
990566339805114;-11.1030;-1.2036;-1.8631;
990566349908812;-9.2106;-1.1486;-2.0330;
990566359932145;-5.7084;0.0374;-1.6857;
990566370035791;-6.8919;-0.0153;-4.0549;
990566380139541;-10.1593;0.3248;-5.0850;
990566390284437;-12.5907;0.2889;-1.9397;
990566400388187;-10.1402;0.6625;1.6056;
990566410491885;-6.8919;1.0364;-0.9407;
990566420569125;-7.5458;0.1522;-5.3198;
990566430672875;-9.5701;-0.3365;-6.5725;
990566440776625;-10.2024;-0.8010;-4.4572;
990566450870375;-8.9734;-0.8130;-2.5361;
990566460974073;-6.8728;-0.7699;-2.7733;
990566471077770;-7.6777;-1.6059;-6.1199;
990566481174645;-9.3855;-1.4121;-6.7427;
990566491278343;-12.9308;-1.3759;-3.7627;
990566501382093;-13.6878;-1.3089;0.9278;
990566511507875;-7.9747;-0.4322;3.6993;
990566521611573;-5.7849;0.0661;-0.7131;
990566531715323;-8.2406;0.2243;-5.9521;
990566541824854;-10.3558;-0.0607;-4.1794;
990566551928552;-11.1150;0.0039;-2.1505;
990566562032302;-9.6634;0.3488;-0.9024;
990566572116937;-6.7600;0.6027;-2.4523;
990566582220635;-9.4286;-0.5303;-5.9713;
990566592324385;-11.2540;-0.4394;-4.2467;
990566602420791;-11.5822;-0.3485;-0.9502;
990566612524489;-9.6826;-0.2477;0.6090;
990566622628239;-7.4309;0.0852;-2.4212;
990566632731625;-7.5793;0.6051;-6.0984;
990566642835323;-9.4167;-0.0033;-5.2744;
990566652939073;-13.0098;-0.3170;-1.2138;
990566663044854;-10.8156;-0.9879;1.6848;
990566673148552;-8.1446;-0.2524;0.2354;
990566683252302;-8.5687;0.2076;-4.5843;
990566693356416;-8.8681;0.1546;-5.0252;
990566703460114;-9.4573;0.4110;-2.9124;
990566713563864;-8.8394;-0.4035;-2.2152;
990566723683500;-8.6046;-0.4083;-3.3171;
990566733787198;-8.7194;0.0517;-3.2070;
990566743890948;-9.1005;-0.7029;-4.8838;
990566753978864;-10.5664;-0.0778;-5.3797;
990566764082562;-10.4348;-0.3170;-2.5457;
990566774186312;-9.1795;-0.8608;-0.0042;
990566784295166;-10.1617;-0.1424;-0.3084;
990566794398864;-9.2803;-0.5495;-3.1567;
990566804502614;-10.1833;0.3248;-4.4357;
990566814614750;-9.1986;0.2913;-3.2692;
990566824718448;-7.1363;-0.2548;-1.7192;
990566834822198;-10.1928;0.2267;-2.7159;
990566844909958;-10.9068;-0.1424;-3.3362;
990566855013656;-8.9136;-0.3796;-1.9301;
990566865117406;-7.1794;0.0613;-2.7015;
990566875222562;-6.9111;-0.0176;-5.4873;
990566885326260;-8.8250;0.8734;-5.5113;
990566895430010;-10.6241;0.3631;-2.8355;
990566905533187;-10.9977;-1.2730;-0.1789;
990566915636885;-8.5687;-0.6598;-0.3993;
990566925740635;-9.0885;-0.1639;-4.2323;
990566935850687;-9.5486;-0.2022;-4.4022;
990566945954385;-9.7161;-0.7292;-2.9698;
990566956058135;-9.6515;-1.2778;-1.3720;
990566966173083;-8.2932;-0.5375;-0.5934;
990566976276781;-7.8523;-0.8755;-3.5255;
990566986380479;-7.7112;0.0470;-4.6848;
990566996471625;-10.0585;-0.0033;-4.7785;
990567006575323;-13.9346;-1.0119;-2.4643;
990567016679073;-11.8792;-0.4346;2.1565;
990567026779229;-7.1722;-0.6718;2.3913;
990567036882927;-5.2316;-0.3676;-2.6154;
990567046986625;-8.7317;0.3775;-8.2663;
990567057086520;-12.6123;0.2578;-6.2683;
990567067190218;-9.9269;-0.3218;-0.3299;
990567077293968;-8.5424;-1.0143;0.2282;
990567087393239;-9.6778;-0.7914;-2.2175;
990567097496937;-9.0215;-0.7029;-4.6394;
990567107600687;-6.7959;-0.3314;-4.1028;
990567117709645;-7.8452;0.2411;-3.0320;
990567127813343;-10.5736;-0.4872;-3.5566;
990567137917093;-11.9680;0.0876;-2.3518;
990567148021937;-10.2000;-0.1448;-0.9479;
990567158125583;-8.4849;-0.9568;-3.3769;
990567168229385;-9.8049;-0.4394;-3.7053;
990567178331833;-9.6275;-0.6598;-2.0931;
990567188435531;-9.9772;-0.3867;-1.4677;
990567198539281;-9.0359;-0.1878;-1.4055;
990567208639073;-9.1603;-0.4633;-3.5686;
990567218742823;-8.8466;0.1690;-3.7795;
990567228846520;-8.3530;-0.5495;-3.4131;
990567238950270;-8.1278;0.1570;-2.9411;
990567249053968;-11.0240;0.2913;-3.0153;
990567259157718;-11.8170;0.0685;-2.6895;
990567269285427;-7.9412;0.3894;-1.7384;
990567279389177;-6.5683;0.4493;-3.0775;
990567289492875;-7.6633;-0.7723;-5.2119;
990567299596885;-10.1210;0.1570;-4.6705;
990567309700635;-13.5562;-0.1974;-2.5146;
990567319804385;-13.2350;0.2937;-0.8569;
990567329907510;-7.8595;-0.5782;-0.2940;
990567340011104;-6.9805;-1.1940;-2.9865;
990567350114698;-8.6979;-0.4896;-3.7651;
990567360201677;-8.6477;0.0182;-2.9746;
990567370305323;-8.4033;0.8638;-3.0224;
990567380408916;-8.8466;0.8351;-3.6165;
990567390487823;-9.4262;0.8806;-4.3448;
990567400591468;-9.9772;1.1082;-3.5255;
990567410695062;-8.7290;1.2398;-2.9387;
990567420815583;-8.8226;0.5333;-2.9004;
990567430919177;-9.5243;0.4636;-2.0474;
990567441022770;-9.3114;0.6864;-3.3147;
990567451126000;-8.1206;0.2435;-3.5949;
990567461229593;-9.2273;-1.1028;-4.1507;
990567471333135;-10.2359;-0.3338;-5.0515;
990567481442458;-10.7055;-0.2261;-1.9636;
990567491546104;-10.3149;0.1259;-0.4472;
990567501649698;-9.8527;-0.0344;-1.7432;
990567511740479;-9.6347;0.5859;-1.8296;
990567521844073;-9.8360;0.1116;-1.4174;
990567531947666;-7.5960;0.3272;-0.9239;
990567542056625;-7.3205;0.6218;-3.3745;
990567552160218;-8.6836;0.2001;-3.9015;
990567562263812;-8.3267;0.8471;-3.6380;
990567572375739;-8.8274;0.9452;-4.1578;
990567582479385;-8.9734;0.5931;-4.0262;
990567592582979;-10.3244;0.5189;-3.3673;
990567602688395;-9.3281;-0.0969;-3.1400;
990567612791989;-9.6969;-0.1807;-2.3806;
990567622895635;-8.0871;-0.2788;-2.5193;
990567632999593;-6.9805;-0.5399;-4.5365;
990567643103239;-11.8792;0.1092;-4.0884;
990567653206833;-14.4162;-0.0631;-1.2305;
990567663307927;-11.8863;-0.5112;0.9111;
990567673411573;-9.7783;-0.7005;0.1899;
990567683515166;-9.8575;-1.3113;-0.7540;
990567693618239;-11.5415;-0.1184;-0.3395;
990567703721885;-7.9050;-0.6598;-0.8354;
990567713825479;-4.1994;-0.4777;-2.4500;
990567723958343;-6.2258;1.0149;-5.0157;
990567734061989;-9.1460;0.3583;-6.6541;
990567744165583;-10.4755;0.6625;-5.0922;
990567754248552;-9.4430;1.1034;-4.7351;
990567764352198;-10.8996;0.9045;-5.1736;
990567774455791;-11.3258;1.0172;-2.2654;
990567784565948;-5.8283;0.1570;-1.8703;
990567794669593;-6.6069;-0.9616;-5.3581;
990567804773187;-10.1378;-1.7880;-6.2922;
990567814881364;-12.8351;-1.3400;-3.5327;
990567824985010;-13.1728;0.2219;-0.3586;
990567835088604;-9.8145;-1.2132;-0.2222;
990567845168604;-7.4979;-1.5030;-1.7934;
990567855272198;-10.8900;-0.2118;-0.6389;
990567865375791;-8.9255;-0.2572;0.7289;
990567875491052;-5.5505;0.3105;-1.4462;
990567885594698;-8.1709;1.7979;-4.4381;
990567895698291;-10.6193;0.7104;-5.3509;
990567905800635;-10.7342;1.0002;-3.1181;
990567915904229;-10.0250;0.8518;-3.0727;
990567926007875;-10.6552;0.5835;-4.3184;
990567936114698;-8.5831;-0.5351;-2.4858;
990567946218343;-8.9447;0.4807;-3.1424;
990567956321937;-7.6247;-0.4825;-3.4250;
990567966444802;-7.5338;-0.2213;-4.1722;
990567976548395;-10.6744;0.2722;-5.1784;
990567986651989;-9.9485;-0.0320;-2.5217;
990567996734177;-7.5290;0.7777;-1.3433;
990568006837823;-9.3760;-0.0129;-3.7388;
990568016941364;-10.7868;-0.0105;-2.5696;
990568027036208;-10.0394;1.0651;-0.8713;
990568037139802;-9.1484;-0.0153;-0.7947;
990568047243343;-6.6643;-0.2142;-2.3901;
990568057348812;-8.7194;-0.0057;-4.5724;
990568067452406;-11.8385;-0.3147;-4.3878;
990568077556000;-9.7591;0.0637;-2.4284;
990568087677927;-8.6142;0.0374;-2.5002;
990568097781520;-9.4358;0.2363;-2.9339;
990568107885114;-9.9844;0.3918;-2.2439;
990568117972614;-9.8910;0.1044;-2.1553;
990568128076260;-9.3090;0.3607;-2.6106;
990568138179854;-8.3626;0.2913;-2.8187;
990568148284906;-10.4276;0.0470;-2.2104;
990568158388552;-8.4945;0.0422;-1.7001;
990568168492145;-8.8179;-0.8755;-2.6273;
990568178592927;-9.2560;-0.1448;-3.8154;
990568188696573;-7.8069;-0.3437;-3.0488;
990568198800166;-8.4200;0.3679;-2.3997;
990568208924125;-10.0851;-0.1280;-3.9135;
990568219027718;-10.4181;0.0422;-2.7541;
990568229131312;-9.3090;-0.2237;-2.1505;
990568239222823;-5.6892;-0.7388;-3.1448;
990568249326468;-5.4520;-0.6766;-5.7389;
990568259430010;-13.4411;-0.7747;-6.1439;
990568269577510;-17.6237;0.0852;-0.9766;
990568279681104;-10.9642;0.1499;3.2970;
990568289784698;-6.6021;-0.0730;-1.1946;
990568299831156;-7.5673;-1.3926;-4.0884;
990568309934750;-7.9890;-0.5495;-2.8884;
990568320038343;-11.1631;0.4397;-2.1290;
990568330165948;-11.1679;1.1369;-0.7732;
990568340269541;-7.3926;1.0268;-0.3467;
990568350373187;-7.6056;0.1642;-4.9579;
990568360441781;-9.0909;0.1642;-5.0874;
990568370545427;-7.7088;0.3511;-3.7627;
990568380649020;-9.0072;0.4086;-4.4094;
990568390760114;-8.6883;0.5740;-2.7063;
990568400863708;-8.3626;0.5118;-2.6632;
990568410967302;-9.9604;-0.2716;-6.5175;
990568421082770;-12.3799;-1.2084;-4.1937;
990568431186364;-9.0311;-0.5710;-0.9909;
990568441289958;-8.1637;-0.2309;-2.0569;
990568451391937;-7.8571;0.3392;-1.8966;
990568461495531;-9.5533;-0.7029;-0.9239;
990568471599125;-13.9155;-0.7986;-2.3877;
990568481735323;-10.5760;0.1834;-0.4424;
990568491838968;-4.6759;-0.2118;-1.3122;
990568501942562;-6.6906;-0.8082;-4.5580;
990568512012145;-12.1522;-1.0789;-4.3472;
990568522115739;-11.6492;-1.1414;-1.5757;
990568532219333;-7.3564;0.7729;-1.0199;
990568542325323;-6.3072;0.9332;-3.3745;
990568552428916;-9.8862;0.1881;-4.7952;
990568562532510;-10.6146;-0.7938;-3.6212;
990568572646573;-11.5750;0.0326;-2.1434;
990568582750218;-9.3688;-0.0464;-1.9899;
990568592853812;-6.5252;0.5166;-1.4246;
990568602951364;-7.3875;0.1235;-2.6704;
990568613055010;-10.1593;-0.5375;-5.2071;
990568623158604;-11.3067;-0.6311;-4.3352;
990568633260479;-9.5366;0.1977;-2.8741;
990568643364125;-9.2608;1.0316;-1.2715;
990568653467718;-8.8202;0.9787;-1.4055;
990568663568708;-9.8264;-0.8417;-3.1567;
990568673672302;-10.3774;0.1092;-2.1242;
990568683775895;-8.7290;0.4854;-1.1922;
990568693891781;-9.4047;0.0470;-2.9602;
990568703995427;-9.6873;0.5022;-3.0751;
990568714099020;-8.1709;-0.1998;-2.6201;
990568724214645;-8.8466;0.6099;-3.7340;
990568734318291;-10.4994;0.2483;-3.1831;
990568744421885;-8.1852;1.2230;-2.1912;
990568754508812;-8.6524;0.6697;-4.5437;
990568764612458;-11.6611;0.7777;-3.6452;
990568774716052;-9.2898;1.2517;-1.4821;
990568784825010;-6.2139;1.3789;-2.6991;
990568794928656;-9.0622;0.0159;-3.9999;
990568805032250;-12.2315;-0.2644;-3.2740;
990568815131729;-12.0565;0.4397;-1.8368;
990568825235375;-9.5315;1.1273;-0.8593;
990568835338968;-6.2904;0.0063;-1.8942;
990568845439385;-5.4138;-0.3242;-3.8919;
990568855543031;-10.3965;0.2001;-3.5830;
990568865646625;-11.4290;1.1369;-3.1253;
990568875759802;-10.2598;1.1201;-3.1567;
990568885863448;-10.2048;0.4974;-3.2213;
990568895967041;-7.8906;0.1427;-1.5733;
990568906062614;-7.1842;0.7418;-2.7398;
990568916166260;-10.3244;-0.1256;-3.6236;
990568926269854;-11.6157;-0.5255;-1.8799;
990568936384489;-10.0708;0.0015;-2.0498;
990568946488135;-6.5539;0.4926;-2.0740;
990568956591729;-8.9542;-0.5375;-3.9688;
990568966710948;-13.3238;-1.0789;-3.5590;
990568976814541;-12.0254;-0.2189;-1.2882;
990568986918187;-5.3013;0.2578;0.5396;
990568997003812;-4.1680;0.3559;-3.0033;
990569007107406;-11.3593;-0.1304;-5.7245;
990569017211052;-12.5477;-0.4585;-4.7569;
990569027318968;-8.4559;0.2291;-2.7350;
990569037422614;-6.5925;0.1714;-2.1960;
990569047526208;-10.0756;-0.8755;-3.7172;
990569057621885;-11.9007;-0.4633;-3.1615;
990569067725479;-9.4071;-0.6144;-2.5313;
990569077829125;-8.7676;-0.3075;-2.6417;
990569087941573;-8.8250;-0.9975;-2.5002;
990569098045166;-7.3205;-0.0248;-1.7551;
990569108148812;-8.5184;0.0063;-4.1315;
990569118244177;-10.8419;-0.6144;-5.3821;
990569128347823;-10.9642;0.7729;-2.3614;
990569138451416;-10.3292;1.1752;-0.6485;
990569148555895;-8.7123;0.6147;-2.4930;
990569158659541;-8.4607;0.0182;-3.5064;
990569168763135;-9.3425;-0.3461;-1.6164;
990569178863968;-8.9782;0.2243;-2.1649;
990569188967614;-9.4334;0.2435;-2.9746;
990569199071208;-9.2898;0.4660;-3.7795;
990569209185218;-9.5581;-0.5518;-3.5566;
990569219288812;-9.3855;-0.0416;-2.9865;
990569229392406;-9.0096;0.6649;-2.2941;
990569239490635;-7.6534;0.6505;-2.5816;
990569249594229;-8.2741;0.0829;-4.7593;
990569259697875;-11.2062;0.2889;-3.2453;
990569269781104;-9.1819;1.0412;-1.6164;
990569279884698;-6.5037;0.2937;-3.6500;
990569289988291;-8.4392;-0.5877;-4.9053;
990569300106000;-10.5401;0.0876;-2.7541;
990569310209645;-10.9427;0.1092;-1.8440;
990569320313291;-9.1866;0.3392;-2.2917;
990569330414281;-8.1230;-0.1352;-2.6082;
990569340517875;-9.0455;-0.7149;-2.1314;
990569350621468;-10.4372;-0.0682;-1.9373;
990569360737458;-9.4358;0.3081;-2.2869;
990569370841052;-9.0000;-0.3508;-2.8379;
990569380944645;-9.6754;0.2315;-2.5744;
990569391040479;-10.2407;0.1283;-1.8990;
990569401144125;-9.4214;0.0948;-2.6225;
990569411247666;-7.7806;-0.4298;-2.6776;
990569421374698;-8.8179;0.1283;-2.5409;
990569431478291;-9.7448;0.5501;-2.0740;
990569441581885;-8.8322;-0.2022;-2.7637;
990569451655531;-9.2154;0.2435;-3.9688;
990569461759125;-8.7027;-0.5088;-3.6547;
990569471862718;-7.9412;-0.2740;-2.1769;
990569481965687;-7.4572;0.1164;-3.1591;
990569492069281;-8.4105;-0.0200;-5.4538;
990569502172823;-11.3043;-0.1352;-4.3113;
990569512295375;-10.7557;-0.3170;-1.5781;
990569522398968;-7.9193;-0.3218;-1.6427;
990569532502562;-6.7840;-0.1472;-3.8201;
990569542593552;-7.4501;-0.8608;-3.8919;
990569552697145;-8.3124;0.2291;-2.5433;
990569562800739;-7.6534;0.0398;-3.1400;
990569572906989;-9.4645;0.3894;-3.4083;
990569583010583;-10.6409;-0.1831;-3.3147;
990569593114177;-10.7964;0.1044;-1.7145;
990569603213239;-9.2297;0.1044;-1.1827;
990569613316833;-9.5414;0.0111;-1.8703;
990569623420427;-10.2335;-0.0754;-1.4916;
990569633525843;-10.4013;-0.3580;-1.1922;
990569643629437;-9.8336;-0.1352;-1.2185;
990569653733031;-10.0657;-0.2907;-2.5576;
990569663840895;-9.0000;-0.4825;-2.1577;
990569673944489;-9.2827;0.1331;-1.4390;
990569684048083;-10.0923;-0.0535;-1.0822;
990569694150739;-9.8360;0.3918;-1.4868;
990569704254385;-9.7496;-0.3652;-2.0234;
990569714357927;-9.4597;0.1307;-2.1529;
990569724472510;-10.5688;-0.4944;-2.7733;
990569734576156;-11.2540;-0.7292;-4.0908;
990569744679750;-9.9054;-0.4896;-3.0224;
990569754777302;-9.5390;-0.9425;-2.4978;
990569764880895;-10.7964;-0.9664;-3.7914;
990569774984489;-9.4956;-0.8106;-3.5303;
990569785083760;-9.8145;-0.8489;-3.2189;
990569795187354;-10.5329;-0.3508;-2.5576;
990569805290948;-7.0546;-0.2309;-1.9181;
990569815391885;-6.5252;0.1092;-3.6117;
990569825495531;-7.8787;-0.3580;-4.8431;
990569835599073;-9.1890;0.0565;-4.1339;
990569845703448;-10.6983;0.3368;-4.7064;
990569855807041;-11.1703;-0.0009;-4.6944;
990569865910635;-10.6023;0.1307;-4.3113;
990569876018239;-11.2182;-0.2572;-2.7829;
990569886121833;-12.4253;0.1881;-1.4151;
990569896225427;-11.0886;-0.7149;-1.3911;
990569906326781;-7.0762;-0.7723;-1.3074;
990569916430375;-6.3072;0.5285;-2.2845;
990569926533968;-7.1339;0.2674;-3.5973;
990569936644385;-11.1559;0.7418;-3.7005;
990569946748031;-10.1928;0.8088;-1.8009;
990569956851573;-8.0345;1.2015;-1.5996;
990569966960323;-8.0489;1.3023;-3.4059;
990569977063916;-8.7915;0.6673;-4.5820;
990569987167510;-10.4611;0.3559;-4.1841;
990569997265948;-11.5032;0.0709;-3.1181;
990570007369541;-9.0670;-0.3170;-2.7159;
990570017473135;-7.4955;-0.7053;-4.1674;
990570027572927;-8.7556;-0.7101;-5.3844;
990570037676573;-12.5788;0.0924;-2.7948;
990570047780166;-10.7821;0.3344;0.1277;
990570057888552;-8.2478;0.7319;-0.3419;
990570067992145;-7.4836;0.1594;-1.3720;
990570078095739;-8.8561;0.6099;-1.6834;
990570088208604;-10.5066;0.7729;-2.8908;
990570098312198;-9.4621;0.8088;-2.7709;
990570108415791;-9.5076;0.7992;-2.9698;
990570118500062;-9.7615;0.0661;-2.9650;
990570128603656;-9.0646;-0.0488;-4.3591;
990570138707198;-9.1412;-0.2189;-4.5030;
990570148805479;-8.1135;0.2937;-3.2836;
990570158909073;-7.8021;0.8207;-3.1376;
990570169012614;-7.0259;0.6075;-3.3793;
990570179120895;-9.0598;0.7920;-4.3567;
990570189224489;-9.0503;-0.0873;-3.5303;
990570199328031;-8.5352;0.3272;-1.5948;
990570209428448;-9.4932;0.4564;-3.1205;
990570219532041;-9.9580;-0.0009;-3.3960;
990570229635635;-9.2273;-0.2716;-1.8894;
990570239753343;-8.9901;-0.3796;-1.4007;
990570249856937;-9.5148;-0.1807;-2.3037;
990570259960583;-10.4755;-0.5375;-2.6895;
990570270031000;-10.5616;-0.3939;-1.0869;
990570280134541;-10.7557;-0.1017;-0.9909;
990570290238135;-11.9103;-0.0607;-0.2916;
990570300363968;-12.6888;-0.0706;0.5204;
990570310467562;-8.1900;-0.8584;0.6452;
990570320571156;-6.8608;-0.4274;-1.3911;
990570330663031;-9.3233;-0.2740;-3.9302;
990570340766625;-10.4013;-0.3891;-3.8154;
990570350870218;-9.8169;-0.4322;-2.9459;
990570360978812;-9.5148;-0.3123;-3.0751;
990570371082354;-9.2010;-0.5183;-3.4131;
990570381185948;-7.6343;-0.6096;-3.7340;
990570391298812;-9.5004;-0.5853;-4.5365;
990570401402354;-9.2130;-0.5064;-3.6452;
990570411505948;-8.9327;-0.8731;-3.3673;
990570421609541;-9.2465;-1.2275;-4.3328;
990570431713083;-8.9925;-1.4408;-4.1530;
990570441816677;-9.1795;-1.2132;-4.3232;
990570451920479;-9.2898;-0.9664;-3.2812;
990570462024020;-9.1029;-0.3532;-2.8427;
990570472127614;-9.8288;-0.1113;-2.7517;
990570482225062;-10.2407;-0.1065;-2.2989;
990570492328604;-10.9379;-0.1591;-1.7599;
990570502432198;-11.0169;-0.2955;-1.7815;
990570512542666;-10.7390;-0.3700;-1.2018;
990570522646208;-8.5807;0.1762;-0.9263;
990570532749802;-8.4754;-0.4705;-2.6106;
990570542852145;-10.0442;-0.1041;-2.9865;
990570552955687;-10.3391;-0.3748;-2.0812;
990570563059281;-9.7998;0.6051;-2.9363;
990570573166885;-9.3305;0.0350;-3.8991;
990570583270479;-8.9016;0.3631;-2.2008;
990570593374073;-8.4778;0.7872;-1.8009;
990570603480010;-8.8011;-0.1184;-3.5949;
990570613583604;-9.4980;0.5668;-4.1195;
990570623687198;-8.3076;-0.2285;-3.4944;
990570633789698;-8.4826;0.1834;-4.4719;
990570643893291;-10.2024;-0.2381;-4.1076;
990570653996885;-11.9031;-0.2309;-3.4848;
990570664097354;-10.5664;-0.4896;-2.5792;
990570674200895;-7.9508;-0.1232;-1.0798;
990570684304489;-9.1699;0.8399;-2.8860;
990570694408187;-11.3139;0.3703;-3.5064;
990570704511729;-10.2239;0.7319;-1.1731;
990570714615323;-7.5362;1.1728;-1.5446;
990570724739489;-5.6701;0.5596;-3.6141;
990570734843083;-8.9877;0.9930;-5.2238;
990570744946677;-13.1441;0.5429;-3.9087;
990570755038135;-12.2124;0.9858;-1.3911;
990570765141729;-7.5745;0.7609;-1.4151;
990570775245323;-9.3329;0.6458;-3.3888;
990570785351781;-13.3765;-0.4896;-2.1003;
990570795455375;-13.3478;-0.0488;-0.7923;
990570805558968;-10.5209;0.0182;-0.5671;
990570815658968;-6.8728;-0.3099;-1.5108;
990570825762562;-7.2775;0.3296;-3.0344;
990570835866156;-11.2038;0.2124;-3.4083;
990570845964125;-13.3430;-0.2812;-2.0306;
990570856067666;-9.2082;0.6673;-1.3265;
990570866171260;-2.9130;0.9045;-1.9469;
990570876280218;-2.8265;0.6817;-5.0827;
990570886383812;-8.4464;-0.4657;-8.2783;
990570896487406;-11.0623;0.1283;-7.3798;
990570906593448;-11.4912;-0.4442;-3.2070;
990570916697041;-9.2898;-0.1113;-4.3687;
990570926800635;-7.2177;-0.7364;-7.7178;
990570936907510;-10.1809;-1.7043;-5.5690;
990570947011104;-11.5511;-1.2084;-0.7804;
990570957114698;-9.1795;-0.6048;0.3697;
990570967222510;-5.8762;-0.0344;-0.9215;
990570977326104;-6.9446;-0.2955;-3.7172;
990570987429698;-11.2086;-0.0344;-3.3888;
990570997525843;-12.1475;0.1235;0.2593;
990571007629489;-10.6098;0.0494;2.0106;
990571017733031;-9.2898;0.5261;-0.0162;
990571027831729;-9.1986;-0.1352;-0.8258;
990571037935270;-9.8336;0.2578;-1.5948;
990571048038864;-11.2110;-0.4968;-4.1626;
990571058148343;-11.4482;-1.1004;-3.3290;
990571068251937;-7.9866;-0.3389;-0.9550;
990571078355531;-7.2416;-1.0406;-3.5327;
990571088477198;-9.6730;-1.1797;-4.9555;
990571098580791;-11.0886;-1.0932;-3.4274;
990571108684333;-10.8227;-0.6287;-0.2653;
990571118761364;-8.1398;-0.7125;-0.4304;
990571128864906;-8.7437;-0.9760;-2.7159;
990571138968500;-11.4888;-1.5867;-2.2271;
990571149068812;-10.0585;-1.5508;-1.3816;
990571159172354;-9.0503;-0.6072;-3.1735;
990571169275948;-9.3377;-1.2706;-4.2826;
990571179393343;-9.6921;-1.0502;-3.4226;
990571189496937;-10.3316;-1.0071;-4.1578;
990571199600479;-9.9150;-0.6359;-3.3410;
990571209708031;-9.1316;-0.3580;-2.5959;
990571219811625;-11.8600;-0.7101;-3.2859;
990571229915218;-12.1235;0.0135;-1.3720;
990571240016520;-7.4692;-0.4537;-1.8799;
990571250120114;-8.4224;-0.2142;-2.9722;
990571260223656;-12.2602;-0.7172;-1.7985;
990571270316625;-12.5836;-0.6311;-2.0067;
990571280420218;-8.7218;0.2219;-3.0846;
990571290523760;-3.9383;0.1235;-3.1831;
990571300638552;-6.1038;0.2961;-3.9278;
990571310742145;-12.3655;-0.0057;-4.7689;
990571320845687;-13.0914;-0.1113;-2.8403;
990571330930114;-10.9929;0.3583;-2.3157;
990571341033760;-9.0574;-0.0416;-2.5313;
990571351137354;-7.6439;-0.5758;-2.4523;
990571361249854;-9.0407;-0.8946;-3.3649;
990571371353448;-12.1666;-1.0693;-3.6619;
990571381457041;-10.6816;-0.8731;-0.6748;
990571391583135;-5.6031;0.3751;-1.5589;
990571401686781;-6.0485;-0.0368;-6.1104;
990571411790375;-8.7820;-0.1567;-6.1199;
990571421881573;-10.4707;0.3488;-2.3252;
990571431985218;-7.4094;0.7585;0.1923;
990571442088812;-4.8676;1.5057;-3.7555;
990571452184645;-10.7438;0.3320;-7.3391;
990571462288239;-16.6558;-0.7268;-3.3960;
990571472391833;-12.6362;0.4540;-0.5886;
990571482502927;-7.3301;-1.6226;-1.2473;
990571492606573;-7.8739;-1.0334;-1.5996;
990571502710166;-7.5625;-1.3400;-2.4069;
990571512812823;-8.9806;-0.2644;-3.0224;
990571522916468;-12.0757;0.6601;-2.6345;
990571533020062;-10.6624;0.7370;-0.9024;
990571543118968;-8.2190;0.9284;-0.2270;
990571553222614;-6.5013;0.3224;-2.0593;
990571563326208;-7.3732;0.5285;-3.1376;
990571573433812;-9.2898;0.2195;-3.3601;
990571583537458;-8.6931;0.1881;-3.1062;
990571593641052;-6.7217;-0.2070;-5.3294;
990571603738395;-10.5688;-1.0717;-7.7369;
990571613841989;-13.0244;-1.0621;-5.2286;
990571623945583;-9.5366;-1.2873;-1.5084;
990571634050375;-7.4142;-0.3003;-2.4643;
990571644153968;-7.5147;-0.3867;-3.0775;
990571654257562;-7.2105;-0.1400;-2.0617;
990571664370843;-8.0680;0.1666;-2.2128;
990571674474489;-9.1795;0.1881;-2.7302;
990571684578083;-10.5592;0.5883;-2.2989;
990571694676989;-10.8180;0.0206;-2.1577;
990571704780635;-9.6682;-0.3218;-1.4318;
990571714884229;-11.6061;0.1331;-1.9277;
990571724976885;-13.9753;-0.8130;-0.6676;
990571735080479;-12.2507;-0.6263;0.1110;
990571745184073;-8.1781;-1.2969;-0.7516;
990571755301052;-6.6093;-0.1352;-2.6297;
990571765404698;-4.6783;0.0326;-4.4958;
990571775508291;-3.3802;0.1881;-5.3270;
990571785615323;-6.8510;1.0244;-6.1056;
990571795718968;-9.2225;1.5706;-5.9091;
990571805822562;-8.2071;1.4746;-4.9962;
990571815924802;-10.4396;1.1871;-4.4142;
990571826028448;-10.2000;0.0757;-3.8871;
990571836132041;-8.6381;-0.2118;-2.9435;
990571846235843;-12.7585;-1.0908;-2.2295;
990571856339489;-15.6856;-1.7282;-0.7947;
990571866443083;-12.8758;-2.2265;-0.5838;
990571876549906;-10.8610;-1.6418;-0.1406;
990571886653552;-8.5687;-1.2323;-0.0377;
990571896757145;-8.3004;-0.1448;0.8270;
990571906857198;-8.0656;0.6051;1.2224;
990571916960843;-6.6428;1.3238;0.9254;
990571927064385;-7.4883;2.0686;-2.5672;
990571937175739;-9.0407;1.2999;-4.8359;
990571947279385;-8.4033;1.3741;-4.3615;
990571957382979;-7.8093;1.0125;-6.9870;
990571967447145;-9.6945;-0.0272;-7.2027;
990571977550739;-7.6753;-0.9209;-5.5786;
990571987654333;-6.3506;-0.9903;-7.8829;
990571997788552;-10.9762;-1.0860;-9.4926;
990572007892198;-12.0159;-1.3137;-5.0276;
990572017995791;-10.7892;-0.5758;-0.9096;
990572028104073;-9.6395;-0.3338;0.7409;
990572038207666;-9.0526;-0.7890;0.9661;
990572048311312;-8.4057;0.3344;0.1851;
990572058415843;-7.7710;0.5022;-0.0640;
990572068519437;-10.3029;0.5381;-0.6150;
990572078623083;-11.8313;0.2052;-0.9936;
990572088744906;-11.3665;0.2961;-0.7325;
990572098848500;-9.8886;-0.1208;-1.8224;
990572108952145;-7.5601;-1.0549;-3.5590;
990572119022875;-7.7183;0.3583;-4.7713;
990572129126468;-7.1674;0.1164;-5.7796;
990572139230062;-7.6343;0.2435;-5.1688;
990572149338552;-9.1747;0.3631;-4.6657;
990572159442145;-9.3066;0.0709;-5.3366;
990572169545791;-9.3281;0.1977;-5.5161;
990572179670739;-8.5089;-0.2285;-2.9937;
990572189774333;-8.3842;-0.0873;-1.5278;
990572199877979;-8.9806;-0.4753;-1.7121;
990572209970739;-10.3415;-0.2548;-2.1362;
990572220074385;-9.8647;-0.6431;-1.9971;
990572230177979;-9.1244;-0.4777;-2.2630;
990572240335531;-10.8491;0.0613;-1.9421;
990572250439125;-9.7831;-0.1352;-1.0319;
990572260542718;-8.9016;0.1355;-0.7059;
990572270580114;-7.7231;0.4854;-1.3768;
990572280683760;-8.4826;0.3153;-3.3290;
990572290787302;-10.2168;0.3679;-4.8287;
990572300914385;-11.6420;0.1451;-2.5361;
990572311018031;-10.1450;0.0852;-1.5972;
990572321121625;-9.6084;-0.5782;-2.2845;
990572331242406;-8.8777;-0.6526;-3.2261;
990572341346156;-6.9159;-0.2812;-2.4308;
990572351449854;-7.9292;-0.1878;-3.8943;
