Sensor: bmi160 Accelerometer Non-wakeup
Vendor: BOSCH
TimestampAcc [ns]; AccX [m/s^2]; AccY [m/s^2]; AccZ [m/s^2]
974386551919369;-9.5028;0.6051;-2.1434;
974386562023223;-9.4860;0.5835;-2.1482;
974386572127129;-9.5052;0.6027;-2.1577;
974386582240150;-9.5342;0.6099;-2.1984;
974386592344004;-9.4956;0.6482;-2.2152;
974386602457754;-9.4980;0.7175;-2.1745;
974386612561609;-9.4956;0.7394;-2.1721;
974386622665515;-9.4813;0.7681;-2.1482;
974386632766296;-9.5004;0.7968;-2.1577;
974386642870150;-9.5052;0.7777;-2.1529;
974386652974057;-9.5100;0.8040;-2.1482;
974386663065046;-9.4980;0.7992;-2.1864;
974386673168900;-9.4980;0.7920;-2.1386;
974386683272754;-9.4860;0.8255;-2.1529;
974386693353640;-9.5100;0.8231;-2.1529;
974386703503744;-9.5052;0.7992;-2.1840;
974386713614734;-9.4956;0.8040;-2.2056;
974386723718588;-9.5028;0.8112;-2.1745;
974386733822442;-9.4956;0.8088;-2.1697;
974386743888588;-9.5052;0.8088;-2.1673;
974386753992442;-9.5052;0.8351;-2.1314;
974386764096348;-9.5052;0.8734;-2.1123;
974386774199994;-9.4980;0.9476;-2.1147;
974386784303900;-9.5076;0.9739;-2.1266;
974386794407754;-9.4884;1.0077;-2.1697;
974386804534265;-9.4837;0.9978;-2.1577;
974386814638171;-9.4789;1.0026;-2.2128;
974386824741973;-9.4932;1.0364;-2.2008;
974386834829838;-9.4932;1.0555;-2.1577;
974386844933640;-9.4980;1.0795;-2.1147;
974386855037494;-9.4908;1.0866;-2.1075;
974386865141088;-9.4956;1.0938;-2.0979;
974386875244994;-9.5052;1.0651;-2.0593;
974386885348796;-9.5028;1.0388;-2.0788;
974386895457963;-9.4980;1.0026;-2.0883;
974386905561765;-9.5100;0.9787;-2.1314;
974386915665619;-9.5052;0.9141;-2.1314;
974386925765254;-9.5004;0.8782;-2.1075;
974386935869109;-9.5291;0.8327;-2.0883;
974386945972911;-9.5219;0.8183;-2.0426;
974386956098067;-9.5148;0.7848;-2.0378;
974386966201921;-9.5148;0.7561;-2.0258;
974386976305775;-9.5366;0.7681;-2.0306;
974386986385984;-9.5533;0.7633;-2.0330;
974386996489838;-9.5390;0.7609;-2.0402;
974387006593692;-9.5629;0.8040;-2.0498;
974387016702129;-9.5267;0.8279;-2.0764;
974387026805984;-9.5076;0.7992;-2.0740;
974387036909838;-9.4932;0.8327;-2.0692;
974387047015254;-9.5148;0.8447;-2.0788;
974387057119109;-9.5100;0.8686;-2.0836;
974387067222963;-9.5172;0.8997;-2.0812;
974387077328900;-9.5052;0.9284;-2.0931;
974387087432754;-9.5124;0.9069;-2.0668;
974387097536609;-9.5100;0.9619;-2.0955;
974387107639629;-9.5124;1.0002;-2.1123;
974387117743484;-9.4837;0.9835;-2.1482;
974387127847338;-9.4765;0.9835;-2.1745;
974387137954838;-9.4956;1.0149;-2.1673;
974387148058692;-9.4884;1.0196;-2.2032;
974387158162546;-9.4789;1.0531;-2.1697;
974387168262546;-9.4908;1.0579;-2.1505;
974387178366400;-9.4908;1.0819;-2.2008;
974387188470254;-9.4884;1.0866;-2.2104;
974387198587598;-9.4717;1.1584;-2.1960;
974387208691504;-9.4693;1.1584;-2.1721;
974387218795359;-9.4525;1.1345;-2.2032;
974387228885723;-9.4693;1.1489;-2.2319;
974387238989577;-9.4765;1.0603;-2.2319;
974387249093432;-9.4765;1.0220;-2.2104;
974387259220307;-9.4645;1.0026;-2.2032;
974387269324161;-9.5004;1.0077;-2.1936;
974387279428015;-9.5100;1.0292;-2.1912;
974387289513275;-9.4813;1.0484;-2.1505;
974387299617129;-9.4860;1.0531;-2.1697;
974387309720984;-9.4956;1.0842;-2.1745;
974387319819421;-9.5028;1.0675;-2.1410;
974387329923327;-9.5028;1.0268;-2.1817;
974387340027182;-9.4860;0.9954;-2.1745;
974387350135567;-9.4837;0.9882;-2.2032;
974387360239421;-9.4669;0.9811;-2.2032;
974387370343275;-9.4669;0.9811;-2.1697;
974387380447754;-9.5291;0.9428;-2.1410;
974387390551609;-9.5052;0.9619;-2.1027;
974387400655463;-9.4956;0.9667;-2.1458;
974387410762859;-9.5148;0.9476;-2.1864;
974387420866713;-9.4597;0.9643;-2.2104;
974387430970567;-9.4693;0.9571;-2.1960;
974387441070984;-9.4908;0.8973;-2.1505;
974387451174786;-9.5028;0.8495;-2.1482;
974387461278692;-9.4908;0.8183;-2.1721;
974387471393588;-9.4980;0.7992;-2.1793;
974387481497442;-9.5052;0.8255;-2.1649;
974387491601296;-9.5172;0.8495;-2.1817;
974387501701296;-9.5028;0.8495;-2.1793;
974387511805150;-9.4837;0.8183;-2.1912;
974387521908952;-9.4813;0.8207;-2.1960;
974387532003327;-9.4789;0.8255;-2.2415;
974387542107129;-9.4765;0.8518;-2.2702;
974387552211036;-9.4932;0.8183;-2.2367;
974387562315671;-9.5028;0.7633;-2.1721;
974387572419525;-9.5004;0.7370;-2.1673;
974387582523432;-9.4884;0.7128;-2.1888;
974387592647390;-9.4693;0.7394;-2.2487;
974387602751296;-9.4765;0.7585;-2.3037;
974387612855150;-9.4765;0.7513;-2.2845;
974387622915827;-9.4669;0.7271;-2.2822;
974387633019734;-9.4693;0.7104;-2.2630;
974387643123588;-9.4884;0.6912;-2.2247;
974387653228223;-9.4597;0.6553;-2.2367;
974387663332077;-9.4956;0.6314;-2.3590;
974387673435984;-9.4717;0.5620;-2.4260;
974387683567807;-9.4502;0.5620;-2.4811;
974387693671661;-9.4454;0.5524;-2.3901;
974387703775515;-9.4597;0.5812;-2.3590;
974387713892807;-9.4860;0.7008;-2.3758;
974387723996609;-9.4621;0.7466;-2.2702;
974387734100515;-9.4549;0.8279;-2.2367;
974387744187598;-9.4813;0.9284;-2.2726;
974387754291452;-9.4525;0.9404;-2.2965;
974387764395307;-9.4597;0.9212;-2.3901;
974387774496296;-9.4478;0.9069;-2.3949;
974387784600098;-9.4669;0.8925;-2.3471;
974387794703952;-9.4789;0.8614;-2.2798;
974387804796557;-9.4430;0.9212;-2.1864;
974387814900463;-9.4932;0.9619;-2.0812;
974387825004265;-9.5291;1.0002;-2.0617;
974387835110619;-9.5195;1.0125;-2.1075;
974387845214525;-9.4789;1.0268;-2.1529;
974387855318327;-9.5076;1.0292;-2.1745;
974387865430150;-9.4980;1.0268;-2.1912;
974387875534004;-9.4765;1.0026;-2.1601;
974387885637807;-9.4980;0.9835;-2.1482;
974387895750150;-9.5172;0.9332;-2.1194;
974387905853952;-9.5195;0.9188;-2.1338;
974387915957807;-9.5267;0.9308;-2.0955;
974387926071869;-9.5510;0.8853;-2.0812;
974387936175723;-9.5315;0.8423;-2.0569;
974387946279577;-9.5124;0.8279;-2.0955;
974387956390307;-9.5004;0.7896;-2.1362;
974387966494161;-9.4932;0.7271;-2.0955;
974387976598015;-9.5219;0.6984;-2.0426;
974387986708848;-9.5414;0.7056;-2.0569;
974387996812702;-9.5629;0.6912;-2.1003;
974388006916609;-9.5366;0.6625;-2.1170;
974388016990463;-9.5148;0.6745;-2.1793;
974388027094317;-9.5052;0.7104;-2.1458;
974388037198171;-9.4765;0.8112;-2.1075;
974388047307338;-9.5148;0.8925;-2.0955;
974388057411140;-9.5342;0.9212;-2.0955;
974388067514994;-9.4932;0.9595;-2.1458;
974388077613327;-9.4741;1.0077;-2.1817;
974388087717182;-9.4908;0.9595;-2.1960;
974388097821088;-9.4956;0.9021;-2.2463;
974388107930567;-9.4765;0.8614;-2.2415;
974388118034421;-9.4717;0.8351;-2.2415;
974388128138275;-9.4741;0.8279;-2.2439;
974388138241296;-9.4932;0.7418;-2.2415;
974388148345150;-9.4956;0.6577;-2.2582;
974388158449004;-9.4860;0.6051;-2.3013;
974388168552963;-9.4837;0.4998;-2.2893;
974388178656817;-9.5315;0.4205;-2.2415;
974388188760619;-9.5315;0.3416;-2.2439;
974388198878432;-9.5124;0.2291;-2.3037;
974388208982286;-9.4837;0.1355;-2.3518;
974388219086192;-9.5004;0.0470;-2.3351;
974388229183640;-9.5414;-0.0200;-2.2869;
974388239287494;-9.5219;-0.0682;-2.2199;
974388249391348;-9.5148;-0.0535;-2.1553;
974388259498379;-9.5414;-0.0176;-2.1840;
974388269602182;-9.5315;0.0517;-2.2223;
974388279706088;-9.5243;0.1044;-2.2199;
974388289803223;-9.5267;0.0757;-2.2319;
974388299907077;-9.5052;0.0039;-2.1912;
974388310010932;-9.5076;-0.0057;-2.2152;
974388320113900;-9.5291;0.0230;-2.2247;
974388330217754;-9.5124;0.0541;-2.2534;
974388340321609;-9.5028;0.0494;-2.2439;
974388350425671;-9.5462;0.0374;-2.1553;
974388360529525;-9.5291;0.0876;-2.0450;
974388370633327;-9.5219;0.1642;-2.0716;
974388380728744;-9.5124;0.2530;-2.1362;
974388390832650;-9.4741;0.3727;-2.2104;
974388400936504;-9.5052;0.5237;-2.2247;
974388411046400;-9.5004;0.6194;-2.2128;
974388421150254;-9.4932;0.6864;-2.1817;
974388431254109;-9.4884;0.7175;-2.1290;
974388441358900;-9.4741;0.7490;-2.1194;
974388451462702;-9.5052;0.7199;-2.1290;
974388461566609;-9.4932;0.6817;-2.1817;
974388471680567;-9.4813;0.6482;-2.1984;
974388481784369;-9.4813;0.6003;-2.1984;
974388491888275;-9.4693;0.5979;-2.1218;
974388501977182;-9.4765;0.6051;-2.0979;
974388512081088;-9.4765;0.6936;-2.1840;
974388522184890;-9.4645;0.8614;-2.2367;
974388532298379;-9.4717;1.0125;-2.2989;
974388542402234;-9.4597;1.0747;-2.3423;
974388552506088;-9.4573;1.1130;-2.3180;
974388562654161;-9.4549;1.1297;-2.2319;
974388572758015;-9.4597;1.1177;-2.2343;
974388582861921;-9.4549;1.1465;-2.3252;
974388592909004;-9.4358;1.1465;-2.3471;
974388603012859;-9.4238;1.1536;-2.3710;
974388613116765;-9.4358;1.1824;-2.3830;
974388623267338;-9.4573;1.2230;-2.3133;
974388633371192;-9.4573;1.2565;-2.2487;
974388643475098;-9.4454;1.2350;-2.2271;
974388653546713;-9.4693;1.1967;-2.2343;
974388663650515;-9.4693;1.1393;-2.2463;
974388673754369;-9.4478;1.2063;-2.2391;
974388683850515;-9.4190;1.3358;-2.2750;
974388693954421;-9.3736;1.4530;-2.2534;
974388704058223;-9.4143;1.4818;-2.2558;
974388714183744;-9.4717;1.4650;-2.2247;
974388724287598;-9.5390;1.4363;-2.1290;
974388734391504;-9.5486;1.4004;-2.0210;
974388744498015;-9.4860;1.4506;-1.9516;
974388754601869;-9.4573;1.5176;-1.9804;
974388764705775;-9.4095;1.5634;-2.1170;
974388774788900;-9.4047;1.6663;-2.2199;
974388784892702;-9.4095;1.8051;-2.2869;
974388794996661;-9.4430;1.8987;-2.2750;
974388805087390;-9.4765;1.9657;-2.2295;
974388815191296;-9.4765;1.9992;-2.1817;
974388825295150;-9.4573;1.9801;-2.2822;
974388835406661;-9.4502;2.0662;-2.3638;
974388845510567;-9.4645;1.8604;-2.3303;
974388855614421;-9.4502;1.3478;-2.0692;
974388865723171;-9.5028;1.2589;-2.1840;
974388875827025;-9.5028;1.1201;-2.1817;
974388885930932;-9.4645;1.0986;-2.1314;
974388896042650;-9.4717;1.0675;-2.1601;
974388906146504;-9.4765;1.0723;-2.0306;
974388916250411;-9.5028;1.1082;-2.1051;
974388926352754;-9.0790;1.1728;-2.5026;
974388936456609;-6.7816;3.4319;-5.0515;
974388946560463;-9.8049;3.7911;-5.2502;
974388956640202;-12.6075;0.5955;-0.3108;
974388966744109;-10.4492;0.7537;1.6175;
974388976848015;-9.3425;0.8183;-1.2305;
974388986965775;-8.6453;0.7128;-3.1062;
974388997069629;-8.0967;0.8040;-2.3252;
974389007173536;-9.2874;0.7370;-2.5816;
974389017287963;-10.4037;1.0412;-3.6045;
974389027391817;-9.6969;1.1297;-2.5792;
974389037495723;-8.8274;0.9428;-1.2449;
974389047592911;-9.0933;0.9619;-1.8823;
974389057696817;-9.5028;1.3573;-2.5193;
974389067800723;-9.3449;1.1106;-1.8105;
974389077901244;-9.7711;0.7247;-2.1601;
974389088005098;-10.2766;0.4229;-2.8522;
974389098109057;-9.4143;0.1666;-1.7456;
974389108227129;-8.9088;0.1140;-0.8952;
974389118330984;-9.7376;0.1786;-1.8057;
974389128434890;-9.7950;0.2219;-2.0426;
974389138535723;-9.3090;0.2435;-1.6427;
974389148639577;-9.7065;0.2411;-2.4332;
974389158743484;-9.7256;0.2387;-2.6536;
974389168850984;-9.1005;0.3440;-1.7192;
974389178954838;-9.3401;0.6075;-1.7121;
974389189058744;-9.7472;1.0651;-2.3085;
974389199175411;-9.5438;1.4052;-2.2175;
974389209279317;-9.4860;1.4961;-2.2463;
974389219383171;-9.6060;1.4626;-2.5986;
974389229473067;-9.4908;1.3502;-2.4595;
974389239576921;-9.3520;1.1895;-1.9899;
974389249680827;-9.4813;1.0196;-1.9134;
974389259793275;-9.6706;0.8734;-2.1960;
974389269897129;-9.5533;0.7319;-2.1482;
974389280001036;-9.3640;0.7128;-2.0091;
974389290091504;-9.5315;0.7968;-2.2702;
974389300195359;-9.5052;0.9547;-2.2271;
974389310299265;-9.3042;1.1058;-1.9899;
974389320409890;-9.4956;1.1847;-2.2893;
974389330513744;-9.5916;1.2015;-2.4619;
974389340617650;-9.3162;1.2230;-2.1721;
974389350711661;-9.4717;1.2832;-2.2439;
974389360815567;-9.5940;1.2903;-2.2798;
974389370919421;-9.3832;1.2422;-2.0282;
974389381026817;-9.4334;1.0914;-2.1147;
974389391130671;-9.5195;0.8853;-2.3157;
974389401234577;-9.4286;0.8016;-2.1912;
974389411333223;-9.4956;0.7585;-2.1601;
974389421437129;-9.5366;0.7681;-2.2056;
974389431541036;-9.4286;0.8279;-2.1505;
974389441653588;-9.3855;0.8710;-2.1721;
974389451757390;-9.4190;0.9428;-2.2343;
974389461861348;-9.4454;0.9978;-2.2678;
974389471983327;-9.4837;1.0699;-2.3157;
974389482087182;-9.3305;1.3454;-2.3327;
974389492191088;-9.3425;1.7118;-2.5481;
974389502270879;-9.5845;1.7333;-2.5002;
974389512374734;-9.5366;1.7022;-2.0931;
974389522478588;-9.5028;1.7118;-2.0979;
974389532615723;-9.4693;1.6783;-2.3925;
974389542719629;-9.3066;1.4841;-2.3686;
974389552823484;-9.3879;1.2135;-2.3157;
974389562881609;-9.5219;1.0795;-2.3686;
974389572985463;-9.4573;1.0771;-2.2510;
974389583089317;-9.4143;1.1201;-2.1721;
974389593218379;-9.4143;1.2589;-2.2989;
974389603322286;-9.4071;1.4459;-2.3303;
974389613426140;-9.4262;1.5826;-2.3327;
974389623535984;-9.4238;1.7094;-2.4188;
974389633639838;-9.4310;1.7572;-2.3877;
974389643743744;-9.3975;1.8003;-2.3327;
974389653829994;-9.3736;1.8915;-2.3351;
974389663933848;-9.4047;1.9657;-2.4739;
974389674037754;-9.4693;1.9801;-2.5026;
974389684157598;-9.5172;1.8676;-2.3204;
974389694261452;-9.4789;1.8676;-2.2989;
974389704365359;-9.3808;1.8580;-2.3853;
974389714481973;-9.2632;1.8939;-2.4428;
974389724585879;-9.2779;1.9537;-2.4858;
974389734689786;-9.4478;1.9346;-2.5074;
974389744784890;-9.5052;1.8724;-2.3901;
974389754888796;-9.4549;1.6950;-2.2941;
974389764992702;-9.4573;1.4315;-2.3662;
974389775084317;-9.4023;1.2159;-2.3758;
974389785188171;-9.4262;0.9571;-2.3447;
974389795292129;-9.5390;0.6912;-2.3710;
974389805393067;-9.4286;0.4493;-2.2917;
974389815496973;-9.2898;0.2770;-2.3853;
974389825600879;-9.3042;0.1594;-2.4930;
974389835703640;-9.4669;-0.0296;-2.3949;
974389845807598;-9.5797;-0.0488;-2.2726;
974389855911504;-9.6132;-0.1400;-2.2032;
974389866022338;-9.5243;-0.1854;-2.2223;
974389876126244;-9.3784;-0.2716;-2.2367;
974389886230150;-9.4047;-0.2477;-2.3109;
974389896337963;-9.4741;-0.1496;-2.3351;
974389906441869;-9.4621;0.0446;-2.3638;
974389916545775;-9.4167;0.1235;-2.3351;
974389926641557;-9.3664;0.2076;-2.3180;
974389936745411;-9.3999;0.4038;-2.3423;
974389946849317;-9.5052;0.5979;-2.3614;
974389956974838;-9.5581;0.6482;-2.2798;
974389967078744;-9.5462;0.6984;-2.2869;
974389977182650;-9.4980;0.8064;-2.2845;
974389987240411;-9.3736;0.9619;-2.3109;
974389997344369;-9.3497;1.1321;-2.4212;
974390007448275;-9.3760;1.2855;-2.4763;
974390017583484;-9.5195;1.2903;-2.3252;
974390027687390;-9.6132;1.3190;-2.2175;
974390037791244;-9.4478;1.3669;-2.2032;
974390047886452;-9.2345;1.5826;-2.3853;
974390057990411;-9.2130;1.7692;-2.4428;
974390068094265;-9.3473;2.0016;-2.2798;
974390078201557;-9.5749;2.1503;-2.0979;
974390088305463;-9.6802;2.2101;-1.9828;
974390098409369;-9.5677;2.1981;-1.8966;
974390108516088;-9.4932;1.8556;-1.9349;
974390118619942;-9.4765;1.1130;-2.0019;
974390128723900;-9.4214;0.7128;-2.2128;
974390138821088;-9.3473;0.7968;-2.4858;
974390148925046;-9.4119;1.0172;-2.5457;
974390159028952;-9.6538;1.0866;-2.0764;
974390169136713;-9.7328;1.0507;-1.5948;
974390179240619;-9.6682;1.0412;-1.7647;
974390189344473;-9.4956;0.7152;-2.1697;
974390199469265;-9.3281;0.1116;-2.4236;
974390209573171;-9.3664;0.0182;-2.6584;
974390219677077;-9.5291;-0.0392;-2.4141;
974390229761504;-9.6467;-0.1041;-1.9062;
974390239865411;-9.6491;-0.0272;-1.7264;
974390249969317;-9.4741;-0.0344;-1.8488;
974390260080046;-9.3975;0.2913;-2.3327;
974390270183952;-9.4310;0.4807;-2.4619;
974390280287859;-9.4789;0.6410;-2.3830;
974390290386296;-9.5028;0.7848;-2.2510;
974390300490202;-9.4262;0.9763;-2.1697;
974390310594109;-9.2994;1.2326;-2.2630;
974390320679473;-9.2850;1.4722;-2.5504;
974390330783379;-9.3425;1.7142;-2.7805;
974390340887286;-9.3544;1.9370;-2.7972;
974390351011713;-9.2656;2.2866;-2.8187;
974390361115619;-9.3951;2.6342;-2.7470;
974390371219525;-9.6060;2.6509;-2.3566;
974390381318484;-9.5342;2.6222;-2.0521;
974390391422338;-9.3975;2.5023;-2.2893;
974390401526296;-9.2417;2.3369;-2.6776;
974390411625411;-9.1555;2.1885;-2.7278;
974390421729369;-9.2393;2.0614;-2.6225;
974390431833275;-9.3903;1.9513;-2.4858;
974390441943484;-9.3927;1.8532;-2.3157;
974390452047338;-9.3927;1.7501;-2.2319;
974390462151244;-9.4430;1.6639;-2.3638;
974390472260879;-9.4167;1.5153;-2.5385;
974390482364734;-9.3712;1.3358;-2.6273;
974390492468692;-9.4167;1.1225;-2.6297;
974390502614161;-9.4358;0.9930;-2.5816;
974390512718067;-9.3736;0.9476;-2.4452;
974390522821973;-9.3640;0.9069;-2.3734;
974390532892286;-9.3664;1.1632;-2.0019;
974390542996192;-9.2369;0.6482;-2.5959;
974390553100098;-10.0732;0.6912;-3.2261;
974390563228952;-8.9040;0.2818;-2.1864;
974390573332859;-9.3209;0.4636;-2.6489;
974390583436765;-9.6969;0.4445;-3.2716;
974390593518744;-9.1196;0.4902;-2.2463;
974390603622650;-9.2683;0.5788;-2.1817;
974390613726557;-9.9102;0.8758;-2.8884;
974390623841869;-9.5076;0.8614;-2.6943;
974390633945775;-9.1125;0.9356;-2.2463;
974390644049682;-9.1914;1.0484;-2.7087;
974390654134786;-9.2994;1.3573;-3.0655;
974390664238640;-9.1125;1.7118;-2.7063;
974390674342598;-9.2489;1.9992;-2.6824;
974390684454682;-9.6108;2.1407;-3.0535;
974390694558588;-9.4621;2.2436;-2.8717;
974390704662494;-9.0335;2.5406;-2.6776;
974390714777598;-9.2632;2.6414;-3.1352;
974390724881504;-9.2393;2.4832;-2.9746;
974390734985463;-8.7915;2.4903;-2.4236;
974390745055619;-9.2683;1.4148;-2.8307;
974390755159525;-9.6419;-1.3496;-3.1181;
974390765263484;-7.9241;-2.2409;-3.1134;
974390775387807;-8.4512;-0.6120;-1.4007;
974390785491661;-11.4024;1.5419;-0.1430;
974390795595619;-11.5295;3.2976;0.2665;
974390805690671;-9.8192;3.2210;-0.5623;
974390815794577;-9.1340;3.0891;-3.3386;
974390825898484;-8.6668;3.2737;-4.9675;
974390835996921;-8.0967;2.8400;-5.2382;
974390846100879;-8.2837;1.6663;-4.2682;
974390856204786;-9.4071;1.3382;-4.2921;
974390866311192;-9.5172;0.1762;-3.0416;
974390876415098;-9.1364;-0.9712;-0.9790;
974390886519004;-9.6538;-1.4671;-0.6317;
974390896626296;-10.1545;-0.4561;-1.7049;
974390906730202;-9.3712;0.8160;-2.3973;
974390916834109;-8.8896;0.8136;-2.4404;
974390926948067;-9.5486;1.4195;-3.6718;
974390937051921;-9.4286;1.0866;-2.8837;
974390947155879;-9.1125;1.2374;-2.0450;
974390957265984;-9.3760;1.4889;-2.2008;
974390967369942;-9.4717;1.8437;-2.3157;
974390977473848;-9.3544;2.0928;-2.0545;
974390987577598;-9.3903;2.2053;-2.1266;
974390997681557;-9.3090;2.3010;-2.3061;
974391007785463;-9.2513;2.5669;-2.4882;
974391017879734;-9.1508;3.0413;-2.4165;
974391027983640;-8.8059;3.1971;-1.9062;
974391038087546;-8.6142;2.1957;0.3407;
974391048182234;-9.8097;2.0518;1.0140;
974391058286140;-11.3545;5.3148;-5.5089;
974391068390046;-9.2946;4.7204;-2.7494;
974391078514213;-8.8155;2.7945;-0.7947;
974391088618119;-9.5195;2.3539;-1.5924;
974391098722025;-8.8226;2.8256;-2.0716;
974391108812025;-7.9460;4.2823;-4.1722;
974391118915932;-8.3315;5.3172;-6.1319;
974391129019838;-9.3592;5.6812;-6.6398;
974391139130254;-9.2584;5.3626;-4.6059;
974391149234161;-8.8609;3.8701;-2.6776;
974391159338067;-9.7184;3.9565;-3.0655;
974391169435254;-9.3784;4.5482;-2.9363;
974391179539109;-7.9002;4.5529;-3.1711;
974391189643067;-4.6543;4.0738;-4.8814;
974391199763900;-4.6759;4.1336;-6.6422;
974391209867859;-11.9079;2.1981;-10.7456;
974391219971765;-15.1684;-0.0033;-11.4835;
974391230066921;-13.1680;-0.5590;-8.3644;
974391240170827;-8.9279;-1.1004;-3.5303;
974391250274734;-3.0685;-0.6909;0.4630;
974391260381088;-2.6327;0.2315;-1.6331;
974391270484994;-7.5529;0.5237;-5.1042;
974391280588900;-11.3928;-0.2812;-4.8096;
974391290680046;-11.8792;0.4540;-5.2983;
974391300783952;-12.6458;1.3597;-6.3595;
974391310887859;-10.7438;0.5213;-3.9473;
974391320994577;-6.0679;0.2148;-1.5251;
974391331098536;-5.1048;1.4770;-3.3601;
974391341202442;-8.2549;2.2316;-5.1616;
974391351298432;-9.3425;2.0279;-4.8957;
974391361402390;-10.0346;2.0686;-6.1869;
974391371506296;-11.2684;1.6831;-6.0598;
974391381619057;-9.5414;0.9428;-3.0464;
974391391722963;-5.9336;0.7394;-1.6738;
974391401826869;-6.6763;2.2747;-4.7545;
974391411973848;-9.9485;2.6773;-6.0383;
974391422077754;-11.3354;1.3597;-4.1770;
974391432181713;-9.2249;1.2903;-3.6838;
974391442242546;-7.2870;1.8963;-4.6442;
974391452346452;-8.0704;1.9513;-4.8766;
974391462450359;-8.2956;1.1417;-3.5518;
974391472583848;-9.2707;0.8231;-4.4644;
974391482687807;-10.7031;1.0675;-6.0960;
974391492791713;-9.4334;0.7418;-4.1435;
974391502873744;-7.8667;0.3464;-2.3133;
974391512977650;-9.0694;0.2985;-4.2251;
974391523081557;-10.6696;-0.0706;-5.2792;
974391533176192;-7.9675;-0.2596;-2.7135;
974391543280098;-6.5157;0.7705;-3.4370;
974391553384004;-8.4607;0.7152;-6.7834;
974391563502129;-11.2780;0.3129;-6.3114;
974391573606088;-8.2645;0.5357;-3.3242;
974391583709994;-4.9178;1.6137;-3.3458;
974391593821348;-10.6552;1.2063;-7.4423;
974391603925254;-13.4578;0.9380;-6.3643;
974391614029161;-8.1975;1.5921;-2.2367;
974391624118900;-4.9107;2.0638;-3.8967;
974391634222807;-9.3114;1.5395;-7.4949;
974391644326713;-8.8705;0.7271;-5.5977;
974391654417546;-5.5361;1.8126;-4.2419;
974391664521400;-9.5052;2.3225;-8.5801;
974391674625359;-11.1392;1.3382;-8.6614;
974391684739213;-7.8858;2.1574;-4.0430;
974391694843067;-7.4812;3.8007;-3.6619;
974391704947025;-8.4730;3.7720;-4.5700;
974391715040723;-6.5396;3.4678;-5.3462;
974391725144577;-8.8705;3.5659;-7.4782;
974391735248484;-9.8671;3.0604;-7.3941;
974391745357182;-9.5677;5.2810;-3.4059;
974391755461088;-4.7192;6.1196;0.1229;
974391765564942;-8.4105;5.1661;-6.2276;
974391775677650;-14.9647;3.4965;-10.8341;
974391785781504;-12.5692;1.7716;-4.6753;
974391795885359;-6.2378;1.3884;0.6787;
974391805989213;-4.7839;0.5859;-0.2366;
974391816093067;-8.3387;-1.6226;-3.1496;
974391826196921;-11.6877;-1.6995;-4.2873;
974391836297442;-12.1570;-0.8656;-0.8043;
974391846401296;-10.6696;-0.6407;0.4606;
974391856505150;-9.9293;-0.0200;-0.2533;
974391866610567;-9.1340;-1.5389;0.2665;
974391876714421;-8.9662;-2.0085;-0.2007;
974391886818275;-8.3195;-2.2887;0.0870;
974391896929838;-9.8551;-2.5403;-1.4174;
974391907033692;-11.1751;-3.3739;-1.3122;
974391917137546;-8.9877;-4.4973;-0.6820;
974391927232442;-10.4181;-4.5476;-2.5696;
974391937336244;-9.3544;-5.5777;-2.5504;
974391947440150;-9.8910;-4.9956;-2.6034;
974391957542963;-10.6959;-4.1572;-2.4811;
974391967646817;-8.5759;-3.9009;-2.1888;
974391977750671;-9.0263;-3.2444;-2.6249;
974391987856557;-11.1655;-2.6982;-2.2606;
974391997960411;-9.5845;-1.8311;-1.6283;
974392008064265;-9.2225;-0.4561;-2.9339;
974392018180463;-9.3736;-0.5327;-2.5744;
974392028284317;-9.3401;-1.1797;-1.7599;
974392038388171;-9.8527;-0.4322;-2.3614;
974392048484109;-10.7031;-0.0033;-3.9808;
974392058587963;-9.9915;-0.4944;-3.3458;
974392068691817;-9.2106;0.5429;-2.6919;
974392078797807;-9.1531;1.1776;-4.3065;
974392088901661;-9.4597;0.9858;-3.5255;
974392099005515;-7.9627;1.2230;-2.5098;
974392109115046;-8.8418;1.0364;-4.6178;
974392119218900;-11.0169;0.7199;-3.2166;
974392129322754;-9.2345;0.2219;-1.9325;
974392139424317;-8.6907;1.2685;-3.9087;
974392149528171;-10.0708;1.5730;-3.6428;
974392159632025;-9.6706;-0.7747;-3.4729;
974392169735463;-9.5100;0.3224;-3.8154;
974392179839317;-9.6419;0.2889;-4.3137;
974392189943171;-9.2201;-0.5136;-4.0454;
974392200058015;-8.3794;0.8566;-2.1218;
974392210161921;-6.9015;0.0087;-2.0330;
974392220265775;-7.2535;0.4277;-2.9315;
974392230357234;-8.3124;1.0436;-3.1424;
974392240461088;-10.1833;-0.8249;-3.1062;
974392250564994;-10.0370;0.3440;-3.4178;
974392260670150;-9.6060;0.6458;-3.2309;
974392270774004;-8.3770;0.2961;-2.7422;
974392280877859;-8.3435;1.8772;-4.2826;
974392290987234;-8.3172;1.0579;-4.6825;
974392301091088;-7.5864;1.3334;-4.8933;
974392311194942;-7.4094;2.2388;-5.6384;
974392321286088;-8.7748;0.8925;-6.3835;
974392331389942;-8.9040;1.7429;-8.2807;
974392341493796;-10.6361;0.9404;-7.8589;
974392351600723;-12.8901;0.5405;-4.8455;
974392361704629;-6.8608;1.2446;-2.4595;
974392371808484;-6.2378;0.4086;-4.7641;
974392381902963;-8.0584;0.2315;-6.2085;
974392392006817;-5.5265;-2.0300;-4.2802;
974392402110723;-5.2484;-0.8201;-5.1281;
974392412241400;-10.4731;-1.1773;-6.3930;
974392422345254;-13.0173;-1.8072;-4.3878;
974392432449109;-8.5878;0.8207;-2.2917;
974392442565671;-9.2154;1.1871;-4.4572;
974392452669577;-7.2224;2.6004;-5.1401;
974392462773432;-7.3421;2.2603;-3.9230;
974392472840671;-8.2143;2.4066;-3.6021;
974392482944525;-10.7175;1.8987;-4.9914;
974392493048432;-14.9360;2.2555;-5.8134;
974392503161661;-11.5750;2.1168;-3.5112;
974392513265515;-8.8681;2.8113;-2.9722;
974392523369369;-8.5208;1.7477;-4.2849;
974392533461817;-7.0379;1.4171;-2.7422;
974392543565619;-8.4248;0.4974;-3.1277;
974392553669525;-10.0609;-1.8861;-1.1635;
974392563804473;-9.8360;-1.6681;-0.0353;
974392573908327;-12.1762;-2.5905;-1.0439;
974392584012234;-14.2914;-4.0253;0.0580;
974392594107129;-9.3975;-3.4361;-0.1813;
974392604210984;-7.8978;-2.4538;-2.0474;
974392614314838;-7.8763;-3.4265;-1.2811;
974392624409317;-7.3373;-3.5632;-2.3590;
974392634513119;-11.2564;-4.2817;-2.4236;
974392644617025;-11.2612;-2.6862;-1.7743;
974392654715932;-10.9786;-3.3523;0.0990;
974392664819786;-11.2923;-2.4036;-0.6030;
974392674923692;-7.3062;-1.1557;0.1851;
974392685060723;-6.4295;-0.4681;-1.6642;
974392695164577;-9.8025;-1.4240;-1.5685;
974392705268484;-13.0627;-1.7593;-0.5647;
974392715340202;-9.5629;-1.9893;0.5157;
974392725444161;-7.9723;-1.1797;-0.5743;
974392735548067;-10.6385;-1.2754;-1.9181;
974392745661921;-10.3268;-1.5437;-1.8368;
974392755765827;-12.1475;-2.7990;-0.8498;
974392765869734;-8.6046;-3.7642;1.4740;
974392775972754;-7.3828;-0.3820;-2.4500;
974392786076661;-10.3917;-0.7819;-2.2415;
974392796180567;-8.5831;-0.7340;-0.1382;
974392806280619;-10.1689;-0.3170;-3.4801;
974392816384577;-10.0250;-0.8755;-3.2405;
974392826488484;-9.8073;-0.7507;-2.4332;
974392836592442;-9.8647;-0.2764;-2.2917;
974392846696348;-8.7556;0.7104;-1.0774;
974392856800254;-9.8623;0.8471;-2.7541;
974392866906296;-9.4190;1.4650;-2.1697;
974392877010202;-9.1077;0.5644;-0.9718;
974392887114057;-8.9183;1.0986;-4.5532;
974392897228796;-11.0695;-0.1041;-2.6608;
974392907332702;-7.0164;-0.5040;-1.2835;
974392917436609;-7.7016;0.3176;-4.2275;
974392927518171;-9.8647;-1.3878;-3.0583;
974392937622077;-8.8657;0.3535;-3.0009;
974392947725984;-9.2994;0.3320;-3.3410;
974392957841504;-9.5940;1.1728;-3.1902;
974392967945411;-8.7437;1.3956;-2.1338;
974392978049317;-8.5711;1.0603;-3.8034;
974392988161296;-8.7652;2.2268;-4.0741;
974392998265202;-7.3397;1.2760;-4.2802;
974393008369109;-10.6935;0.1690;-3.9087;
974393018465567;-8.8322;-1.0406;-3.5064;
974393028569473;-10.5760;-0.1831;-3.9350;
974393038673379;-9.1077;-0.1926;-2.3495;
974393048784421;-6.9422;0.7080;-2.8908;
974393058888327;-9.4214;-0.3290;-4.8359;
974393068992182;-12.0565;-0.1496;-3.8656;
974393079102442;-9.9700;-0.5782;0.2450;
974393089206348;-5.8283;0.0398;-0.7564;
974393099310254;-9.4478;0.2937;-4.9292;
974393109410463;-10.9283;-1.1988;-4.4333;
974393119514317;-10.6433;-1.7952;-2.1936;
974393129618275;-8.1039;-1.3807;-2.5122;
974393139740671;-9.3066;-0.9616;-3.5303;
974393149844577;-8.1039;-2.0300;-3.4968;
974393159948484;-10.4468;-1.8048;-3.4370;
974393170027129;-7.8978;-2.7413;-2.7063;
974393180131036;-10.7462;-2.7846;-4.0047;
974393190234890;-9.3520;-2.5738;-1.8607;
974393200357598;-8.7915;-1.4886;-2.6106;
974393210461504;-10.2790;-2.0779;-2.1984;
974393220565411;-8.5783;-2.0515;-2.7422;
974393230659942;-8.9471;-1.3807;-3.9497;
974393240763848;-9.1986;-1.2491;-3.8177;
974393250867754;-10.5090;-1.4815;-2.5074;
974393260983275;-9.7448;-0.3437;-2.8741;
974393271087182;-10.0011;-0.3461;-2.3109;
974393281191088;-8.1781;-0.1184;-2.5217;
974393291282129;-8.8992;-0.8827;-3.7077;
974393301386036;-9.7854;-0.0511;-4.2060;
974393311489942;-8.8202;-0.6598;-3.3625;
974393321598484;-9.5892;-0.4872;-3.8297;
974393331702390;-8.6764;-0.8536;-3.0009;
974393341806296;-9.0550;-0.1615;-3.7268;
974393351893952;-8.9040;0.3583;-4.4644;
974393361997859;-10.2814;0.8351;-4.4070;
974393372101765;-9.5725;0.8064;-2.6345;
974393382216296;-10.3101;0.6434;-2.3399;
974393392320150;-8.9710;0.5213;-2.7422;
974393402424057;-9.3114;0.7633;-3.4322;
974393412554890;-8.8777;0.4950;-4.1602;
974393422658796;-8.3172;1.0747;-3.8249;
974393432762702;-9.4167;1.5467;-3.3075;
974393442821504;-9.4430;1.1465;-3.5040;
974393452925411;-9.9915;1.1225;-2.6800;
974393463029265;-8.6644;1.0914;-2.9602;
974393473155827;-7.8093;1.1489;-4.4118;
974393483259682;-9.7902;1.1273;-3.6933;
974393493363640;-8.1159;1.0149;-3.8967;
974393503465046;-8.4778;0.6697;-2.7733;
974393513568952;-9.5414;-0.0272;-4.0286;
974393523672807;-9.2441;-0.4107;-2.8355;
974393533759421;-8.2669;0.1905;-3.5686;
974393543863327;-8.2286;0.0039;-3.9087;
974393553967182;-8.6189;-0.4035;-3.4585;
974393564079109;-7.2990;-1.6804;-2.3180;
974393574182963;-8.4826;-2.1185;-3.1400;
974393584286869;-9.3209;-2.7751;-3.3721;
974393594392129;-10.3534;-2.8445;-2.5935;
974393604495984;-8.2119;-2.7990;-2.2128;
974393614599890;-8.1063;-2.8158;-3.1253;
974393624734161;-9.1962;-3.4433;-3.3936;
974393634838067;-10.5592;-3.8554;-2.4284;
974393644941973;-8.8920;-3.0697;-1.5326;
974393655052807;-8.5998;-2.7703;-2.1721;
974393665156713;-8.8992;-3.3021;-3.8680;
974393675260619;-10.3654;-2.8181;-3.9087;
974393685330984;-11.8193;-3.2731;-1.6092;
974393695434838;-9.8671;-2.6958;-1.0175;
974393705538796;-10.3798;-1.3783;-1.1085;
974393715642650;-9.0479;-0.6550;-2.1936;
974393725746557;-9.9485;0.0948;-2.1123;
974393735850515;-10.7581;0.0254;-2.5744;
974393745956504;-9.3185;0.7271;-3.4226;
974393756060411;-7.4931;-0.0826;-3.1325;
974393766164369;-7.3804;0.1092;-4.2299;
974393776262546;-10.9666;-0.1232;-4.4692;
974393786366452;-9.8312;-0.4059;-3.4825;
974393796470411;-8.6788;0.3200;-4.0214;
974393806573640;-9.1029;-0.7795;-3.6308;
974393816677598;-8.5017;-0.1328;-3.4011;
974393826781504;-8.6357;0.3799;-3.9087;
974393836893379;-9.0766;0.0087;-3.7077;
974393846997286;-9.8575;-0.2620;-2.7326;
974393857101244;-8.0321;-0.0392;-2.6824;
974393867209838;-8.6213;0.6864;-3.6547;
974393877313744;-10.6265;-0.2644;-3.4322;
974393887417702;-8.1999;-0.1639;-2.8068;
974393897524317;-7.5147;0.6338;-3.6093;
974393907628223;-10.2263;-0.9808;-4.1578;
974393917732182;-11.9895;-0.4753;-3.8177;
974393927828379;-8.0249;0.0039;-2.7470;
974393937932286;-7.9193;0.5835;-3.1519;
974393948036192;-10.2814;-0.1639;-3.0176;
974393958132442;-8.9183;0.5716;-3.1086;
974393968236348;-8.4607;0.6745;-3.4011;
974393978340307;-10.5114;0.4711;-3.4705;
974393988473640;-7.8930;1.0101;-3.1229;
974393998577598;-9.4167;-0.1735;-3.8369;
974394008681557;-10.9714;0.4926;-3.7986;
974394018776817;-9.6921;0.2195;-2.7876;
974394028880723;-9.2656;-0.2596;-3.2453;
974394038984682;-8.7218;0.4854;-2.6800;
974394049077129;-8.7389;-0.0559;-2.5265;
974394059181036;-8.6836;-0.0200;-3.3410;
974394069284994;-9.3257;0.2483;-3.6861;
974394079386504;-9.0479;-0.5518;-3.5255;
974394089490411;-10.7103;-0.2572;-3.7244;
974394099594369;-9.0215;0.3105;-2.1745;
974394109696713;-6.6763;0.2770;-2.6728;
974394119800619;-9.2130;-1.2873;-3.9999;
974394129904525;-11.2804;-0.6263;-4.1722;
974394140009161;-9.2994;-0.5351;-3.2333;
974394150113067;-10.0828;-0.5423;-2.3399;
974394160217025;-8.0895;-0.5973;-2.8594;
974394170323379;-9.7089;-0.4490;-2.5959;
974394180427286;-9.7208;-0.1687;-2.3542;
974394190531192;-9.1292;-0.2285;-2.2439;
974394200654265;-8.2789;-0.2524;-3.8154;
974394210758223;-9.7424;-1.1219;-3.5447;
974394220862182;-9.4238;-0.3338;-2.9650;
974394230951921;-8.8825;-0.2381;-2.7565;
974394241055827;-9.5581;-0.6311;-3.0894;
974394251159734;-9.8839;-0.7986;-3.3171;
974394261264213;-8.5567;-1.0765;-4.2419;
974394271368119;-9.4860;-1.1243;-2.8307;
974394281472077;-10.0155;-1.2802;-3.1902;
974394291570463;-9.6586;-0.7364;-2.7230;
974394301674369;-9.0526;-1.4288;-2.4308;
974394311778275;-10.4635;-0.7484;-2.9052;
974394321900202;-9.2178;-0.5542;-2.4428;
974394332004161;-8.4634;-0.4035;-1.4653;
974394342108119;-8.8490;-0.9592;-3.6619;
974394352189994;-11.4147;-1.0310;-4.1530;
974394362293952;-8.8442;0.2435;-2.8427;
974394372397911;-7.8595;-0.2644;-2.3806;
974394382512963;-9.2850;-0.3580;-3.6212;
974394392616921;-10.5808;-0.5901;-3.2429;
974394402720879;-9.0479;0.1690;-2.6847;
974394412836557;-9.9580;-0.1543;-2.8355;
974394422940463;-8.2454;-0.0272;-2.6345;
974394433044421;-9.1986;-0.4537;-3.0583;
974394443144161;-9.6730;-0.5112;-3.5351;
974394453248067;-9.7472;-1.1195;-3.7364;
974394463352025;-10.1043;-0.5566;-3.2381;
974394473423744;-9.6251;-0.6766;-2.0210;
974394483527702;-8.0919;-0.0176;-3.0081;
974394493631609;-8.5256;-0.8536;-3.4083;
974394503753327;-8.8705;-1.0167;-3.9254;
974394513857286;-9.7376;-1.0645;-4.0119;
974394523961192;-10.8467;-0.7460;-3.7149;
974394534090723;-7.6968;-0.7962;-2.6225;
974394544194629;-9.6323;-1.2108;-3.7484;
974394554298588;-10.9929;-1.3424;-3.2548;
974394564399161;-9.7783;-0.2524;-1.8583;
974394574503119;-8.2478;0.7080;-2.2175;
974394584607025;-9.0120;-0.7579;-2.0569;
974394594704577;-10.4539;-1.1797;-3.4753;
974394604808484;-9.6203;-0.7531;-2.4619;
974394614912442;-8.3698;-0.6622;-2.6201;
974394625004421;-8.0010;-1.1486;-3.4609;
974394635108275;-9.2779;-1.7330;-4.8646;
974394645212286;-11.6949;-1.5030;-4.0597;
974394655311348;-10.1019;-1.0238;-2.3085;
974394665415254;-8.0632;-0.8441;-2.6417;
974394675519265;-7.3926;-0.9808;-3.1158;
974394685621973;-10.1258;-1.4384;-3.5949;
974394695725932;-9.5988;-0.9808;-3.5901;
974394705829890;-9.7783;-0.8201;-3.0153;
974394715941921;-10.0274;-0.2620;-2.5528;
974394726045879;-8.3387;0.2889;-2.7182;
974394736149838;-8.8920;-0.4178;-3.5040;
974394746259421;-9.7065;-1.0549;-3.8465;
974394756363379;-9.3162;-1.0645;-3.1687;
974394766467338;-8.3076;0.0159;-3.1902;
974394776575984;-8.3650;0.0398;-4.0956;
974394786679890;-9.5100;-0.3867;-2.3638;
974394796783900;-8.4272;-0.2740;-3.1711;
974394806878900;-9.1843;-0.5662;-4.1841;
974394816982859;-7.5960;-0.4872;-2.5457;
974394827086817;-8.7290;-0.8707;-4.2682;
974394837191504;-9.2345;-1.4022;-4.6155;
974394847295463;-9.5868;-1.4384;-2.5122;
974394857399421;-9.4119;-0.5710;-3.1424;
974394867504682;-8.9351;-0.7962;-3.0440;
974394877608692;-10.4850;-1.1581;-2.6297;
974394887712650;-10.5520;-1.4264;-1.8440;
974394897819838;-8.4344;-0.5064;-1.6929;
974394907923796;-10.2933;-0.0272;-2.0812;
974394918027754;-8.7461;-0.8489;-2.8837;
974394928126088;-7.9098;-1.5867;-3.3960;
974394938229994;-10.0585;-0.9592;-2.6847;
974394948333952;-10.3029;-0.6407;-2.9028;
974394958433900;-8.4682;-0.1687;-2.4691;
974394968537859;-8.5304;-0.5495;-2.0163;
974394978641817;-10.4922;-1.0597;-3.2548;
974394988749213;-8.1975;-0.3604;-2.1817;
974394998853171;-7.3612;-0.1232;-3.6069;
974395008957129;-9.4047;-0.9042;-4.0023;
974395019062546;-9.3999;-0.5423;-2.2965;
974395029166504;-9.4214;-1.5078;-4.2873;
974395039270463;-8.7290;0.2291;-2.8741;
974395049374942;-8.4583;-1.3280;-2.7757;
974395059478900;-9.6060;-1.1462;-3.6694;
974395069582859;-9.0072;-1.5341;-4.0549;
974395079689004;-9.0000;-1.5413;-3.4968;
974395089792963;-9.2321;-1.8000;-3.4944;
974395099896921;-8.3219;-1.0908;-4.5078;
974395109997234;-9.7041;-1.8431;-4.6513;
974395120101140;-10.5209;-1.4695;-1.6475;
974395130205150;-9.5414;-1.0406;-1.4844;
974395140310984;-9.8695;-0.3194;-1.7671;
974395150414942;-9.4884;-0.3891;-2.9913;
974395160518900;-10.0466;-0.1352;-1.5972;
974395170620879;-9.6443;-0.4705;-2.1505;
974395180724786;-8.9686;-0.4825;-2.8884;
974395190828796;-9.8312;-0.8512;-2.7733;
974395200930984;-9.6491;-0.7651;-2.6632;
974395211034890;-8.4945;-0.3194;-2.7254;
974395221138900;-7.2846;-0.9879;-4.6561;
974395231258900;-9.3568;-0.6359;-4.8670;
974395241362807;-9.5701;-1.5628;-2.8980;
974395251466817;-10.6696;-1.3831;-3.5662;
974395261559213;-9.8504;-0.7842;-2.9530;
974395271663171;-8.5926;-0.9975;-2.9865;
974395281767129;-8.1398;-0.4394;-2.9148;
974395291881973;-7.9002;0.2315;-2.1745;
974395301985932;-8.3028;0.0398;-2.4571;
974395312089942;-9.0144;-0.1854;-3.5088;
974395322171973;-9.2393;0.0685;-3.9326;
974395332275932;-7.5171;-0.0081;-4.4862;
974395342379942;-7.7112;-0.5327;-4.4022;
974395352501036;-9.8862;-1.2179;-5.2983;
974395362604994;-11.5702;-1.4336;-3.4322;
974395372709004;-9.8743;-0.7747;-0.8498;
974395382797442;-9.3425;-1.4934;-1.6427;
974395392901348;-11.3354;-1.2897;-3.7795;
974395403005307;-10.0995;-0.4848;-2.5361;
974395413106296;-8.7194;-0.5064;-0.6341;
974395423210202;-8.9710;0.1738;-1.4390;
974395433314161;-8.8370;0.0494;-4.3400;
974395443424161;-10.4946;-0.1280;-4.3639;
974395453528119;-10.5377;-0.3843;-2.3133;
974395463632077;-9.5004;-0.0873;-1.0104;
974395473786557;-8.9255;0.3464;-1.5251;
974395483890515;-9.3377;0.8542;-2.3518;
974395493994473;-8.2310;0.4062;-3.0488;
974395504059421;-9.3425;0.0733;-4.2227;
974395514163327;-9.1699;-0.0296;-2.8908;
974395524267286;-9.4884;0.5070;-1.3241;
974395534358432;-7.6199;0.0781;-2.6130;
974395544462442;-8.8944;-0.7364;-5.1688;
974395554566348;-8.8418;-0.3915;-5.2840;
974395564694473;-10.4970;-0.9879;-4.1435;
974395574798432;-9.8192;-1.3328;-3.1086;
974395584902390;-9.6203;-0.8632;-3.1376;
974395594980202;-10.9427;-1.3137;-3.1134;
974395605084213;-9.8025;-1.3017;-2.0043;
974395615188171;-9.7256;-0.4250;-1.1348;
974395625302129;-9.6180;0.5453;-1.3337;
974395635406088;-7.0068;0.5118;-2.5792;
974395645510046;-6.1756;0.6553;-5.2621;
974395655629004;-4.9011;0.8662;-6.2539;
974395665732911;-3.8662;0.4493;-7.6146;
974395675836921;-6.6835;0.3488;-7.7704;
974395685930567;-8.4826;-0.2859;-5.0850;
974395696034525;-9.8240;-1.0430;-2.8451;
974395706138432;-11.6925;-1.2969;-1.4749;
974395716239734;-13.6400;-1.4456;0.3335;
974395726343692;-12.5261;-1.6250;1.5338;
974395736447650;-10.9403;-2.2600;1.2631;
974395746560463;-11.5774;-1.4264;-1.7288;
974395756664421;-12.2001;-0.4992;-3.0655;
974395766768379;-9.5390;-0.0248;-1.8942;
974395776869004;-8.8226;0.0494;-2.1194;
974395786972963;-10.2239;-0.1232;-2.0740;
974395797076921;-10.0971;-0.9879;-1.2401;
974395807185046;-13.0508;-0.1208;-0.6389;
974395817289004;-11.1150;0.3081;1.0068;
974395827392963;-8.3507;0.9069;1.4644;
974395837492650;-5.3539;2.0833;0.4965;
974395847596609;-6.7074;1.6687;-1.6714;
974395857700567;-9.1364;1.3095;-4.3448;
974395867794994;-7.0403;1.0986;-4.7593;
974395877899004;-3.6867;0.7370;-6.8432;
974395888002963;-5.5143;-0.3891;-10.4629;
974395898116400;-8.9136;-2.0970;-12.0177;
974395908220359;-10.9211;-2.8229;-8.7957;
974395918324317;-11.3785;-3.5847;-3.1783;
974395928449786;-12.2626;-3.1822;-1.7336;
974395938553744;-10.8084;-1.7593;-1.5876;
974395948657754;-10.2550;-1.0023;-1.3911;
974395958729004;-11.9246;-0.9616;-0.2629;
974395968832963;-11.8289;-1.0095;0.6547;
974395978936921;-10.4348;0.4493;0.0870;
974395989040098;-11.8217;0.0254;-1.1731;
974395999144109;-10.7701;0.4301;-1.6642;
974396009248067;-7.7806;0.1738;0.1564;
974396019365567;-6.8079;0.8782;-2.5911;
974396029469525;-9.7567;0.9165;-5.1664;
974396039573484;-7.1192;0.5142;-4.1937;
974396049680567;-3.3631;1.4865;-4.6202;
974396059784525;-3.0206;1.9585;-5.0683;
974396069888484;-7.4907;1.6950;-6.0646;
974396079992338;-10.3558;0.3320;-5.0010;
974396090096296;-11.0623;-0.6215;-5.3175;
974396100200254;-13.7740;-0.9832;-5.3940;
974396110304004;-11.8935;-1.4288;-2.7781;
974396120407911;-9.2058;-1.4073;-0.8426;
974396130511921;-10.8805;-1.8622;-1.4127;
974396140612390;-10.2407;-1.9750;-1.1755;
974396150716348;-7.8404;-1.5987;-2.1458;
974396160820307;-8.5831;-1.8670;-2.9435;
974396170920254;-8.1829;-1.3472;-2.0043;
974396181024213;-8.0967;-0.7579;-1.7934;
974396191128171;-12.3823;-0.0826;-2.5576;
974396201266504;-14.5095;0.7872;-0.4594;
974396211370463;-11.8289;1.9633;2.8609;
974396221474421;-8.2765;2.6892;2.7604;
974396231578379;-8.4488;2.4209;-0.0497;
974396241647807;-10.5975;1.3765;-2.4500;
974396251751713;-7.9193;0.0398;-4.3256;
974396261855723;-7.8835;-0.5973;-7.5284;
974396271969629;-10.0250;-0.8850;-6.9272;
974396282073588;-8.6620;-1.7761;-5.4754;
974396292177546;-8.8513;-1.9316;-6.2922;
974396302272859;-11.3186;-1.6971;-4.5772;
974396312376817;-10.5209;-1.2610;-1.8799;
974396322480775;-6.8895;-0.7436;-3.2740;
974396332659577;-3.7944;-0.4968;-4.0502;
974396342763588;-1.3582;0.4540;-3.7507;
974396352867546;-5.4664;0.3009;-4.5772;
974396362903536;-0.6993;0.1977;-8.5131;
974396373007494;-4.0268;-1.3113;-9.8354;
974396383111504;-19.5329;-1.2443;-5.1640;
974396393254942;-15.7385;-0.3003;-4.1148;
974396403358952;-17.3028;-0.9209;-1.7408;
974396413462911;-11.3617;-0.8827;3.0550;
974396423531140;-7.3732;0.2148;3.2321;
974396433635098;-28.2284;-1.4097;4.4994;
974396443739057;-35.1371;0.5261;8.1021;
974396453796921;-6.9709;1.8963;10.4856;
974396463900827;8.9402;0.9188;6.8973;
974396474004786;3.9526;-1.6561;-5.4467;
974396484108744;-12.8112;-5.4051;-11.1311;
974396494239577;-12.5477;-0.3796;-5.9234;
974396504343536;-4.0699;7.4010;-1.0702;
974396514447494;-3.6676;7.7342;-4.4118;
974396524579369;-9.1579;3.3479;-4.1530;
974396534683379;-2.2181;0.4205;-3.7316;
974396544787286;-4.9346;0.4253;-15.1125;
974396554863744;-12.8949;-1.7545;-16.2864;
974396564967702;-13.2855;-3.1343;-8.6614;
974396575071713;-6.1971;-0.2716;-1.7862;
974396585180098;3.6915;-2.0037;-5.1353;
974396595284109;-7.3397;-6.5240;-20.4114;
974396605388015;-27.6224;-11.3892;-12.3147;
974396615495098;-24.3814;-7.0319;8.1383;
974396625599057;-4.7839;1.9944;14.4359;
974396635703015;-0.1005;3.0580;9.1035;
974396645804265;-12.0565;-0.7531;4.3005;
974396655908223;-15.0532;-0.9760;1.6199;
974396666012182;-9.2827;2.0904;0.5061;
974396676124317;-6.8943;1.7237;-1.0104;
974396686228223;-8.2167;1.1560;-3.2931;
974396696332182;-9.4023;1.3860;-4.9364;
974396706455567;-7.9914;-0.3604;-7.6938;
974396716559473;-8.9112;0.7152;-6.0359;
974396726663484;-9.6873;2.4353;-4.0334;
974396736747546;-7.6729;2.8567;-4.5556;
974396746851504;-8.1517;1.2374;-6.7834;
974396756955515;-8.9638;-0.6335;-6.5844;
974396767057494;-7.3588;0.5644;-3.9640;
974396777161504;-7.5984;0.5381;-5.1760;
974396787265463;-8.8705;0.0446;-4.7231;
974396797369682;-9.5172;0.7080;-2.0907;
974396807473640;-10.6720;0.0182;-2.7900;
974396817577650;-10.1091;0.2315;-0.3299;
974396827678171;-10.0274;-0.4561;-0.2151;
974396837782129;-10.1952;-1.2156;-0.8809;
974396847886140;-8.6405;-0.6239;0.5372;
974396857993171;-8.0656;-1.0214;-2.2032;
974396868097182;-9.4095;-0.5160;-3.5303;
974396878201192;-11.0551;-0.5088;-3.9903;
974396888301921;-11.9151;1.8843;-1.6905;
974396898405932;-8.9853;2.0590;-1.3122;
974396908509890;-7.9340;1.9107;-3.5016;
974396918623171;-10.0226;0.6840;-3.3553;
974396928727129;-9.8145;1.4435;-3.1950;
974396938831140;-8.9112;1.9681;-2.6225;
974396948932807;-8.2813;1.0268;-3.6838;
974396959036765;-7.6128;0.8758;-2.6465;
974396969140723;-8.7147;-0.1232;-4.5293;
974396979246973;-9.3855;-0.1711;-3.2955;
974396989350879;-9.3305;-0.1974;-2.8932;
974396999454890;-8.8107;0.3392;-2.1697;
974397009555098;-9.8551;-0.5112;-3.8465;
974397019659057;-10.4516;-0.0392;-0.9670;
974397029763119;-8.5807;-0.2333;-1.0175;
974397039867702;-8.4754;-0.0368;-2.0668;
974397049971661;-10.1833;-0.8249;-3.6380;
974397060075723;-10.5473;-0.0176;-0.9574;
974397070185150;-9.7591;0.0350;-2.8980;
974397080289057;-10.0804;-0.2070;-2.7733;
974397090393119;-9.1196;-0.2692;-1.8081;
974397100493067;-9.5195;0.0350;-1.9995;
974397110597025;-10.5042;-0.5830;-2.7996;
974397120700984;-9.4693;0.1211;-0.9622;
974397130802077;-8.8705;0.3918;-2.5768;
974397140906036;-11.8672;0.2076;-3.0248;
974397151010046;-12.6266;-0.0778;-1.4031;
974397161117025;-7.6367;0.9021;-0.1167;
974397171220932;-4.7432;-0.7627;-3.4801;
974397181324942;-7.4094;-0.4968;-3.8177;
974397191425671;-9.5004;-0.1161;-4.6226;
974397201529682;-11.1102;0.5022;-3.7460;
974397211633640;-10.1713;0.2674;-3.5064;
974397221739629;-8.3889;-0.3891;-2.7206;
974397231843536;-8.7171;-0.2859;-3.7890;
974397241947546;-9.1699;-0.8106;-1.3313;
974397252048171;-7.9771;-0.2094;-2.4930;
974397262152129;-8.5687;-0.2142;-2.8570;
974397272256088;-10.8371;-0.1472;-3.4131;
974397282354786;-9.8719;-0.2764;-0.8904;
974397292458796;-8.8968;-0.2453;-1.9971;
974397302562754;-10.3439;-1.2945;-1.9110;
974397312677025;-11.5989;-0.6933;-0.4519;
974397322780984;-10.3415;-0.2740;0.6452;
974397332884942;-9.9341;0.6075;0.3455;
974397342995307;-8.6189;0.4349;0.3936;
974397353099265;-8.6692;-0.0272;-1.8727;
974397363203223;-9.8671;0.6242;-2.6560;
974397373301296;-10.1545;-0.2548;-3.2692;
974397383405202;-8.9088;0.5429;-2.0043;
974397393509213;-10.0250;-0.4585;-4.4261;
974397403605150;-11.6013;0.1642;-2.0716;
974397413709109;-9.1579;0.4759;-1.6762;
974397423813119;-6.7600;0.5907;-1.7145;
974397433912650;-8.0560;-0.3389;-2.0836;
974397444016609;-9.7328;-0.2788;-2.9052;
974397454120619;-10.0875;-0.8082;-3.5495;
974397464240150;-10.4779;-0.5471;-3.4274;
974397474344057;-9.0766;-1.6585;-2.9195;
974397484448067;-7.9843;-3.1128;-3.4442;
974397494549057;-11.6468;-2.4562;-4.3831;
974397504653015;-9.3544;-2.4275;-3.2022;
974397514757025;-5.7706;-1.5556;-3.4131;
974397524886765;-7.7686;-1.6274;-5.4036;
974397534990775;-9.8551;-0.9855;-6.2420;
974397545094734;-8.4488;0.3535;-4.3065;
974397555164577;-6.9350;0.0565;-6.0526;
974397565268536;-9.6515;-0.4346;-5.5642;
974397575372546;-10.9857;0.1642;-4.1387;
974397585484369;-7.9292;0.8614;-2.7135;
974397595588327;-8.5280;0.9260;-4.0454;
974397605692338;-9.4502;0.6745;-2.0883;
974397615797182;-10.2933;0.6553;-3.0751;
974397625901140;-11.1245;0.0374;-2.4619;
974397636005150;-8.3698;0.4588;-2.0426;
974397646110202;-8.4248;-0.8946;-4.5221;
974397656214161;-12.7514;-0.2142;-3.2668;
974397666318171;-11.7141;-0.4825;-0.8521;
974397676422390;-6.3936;0.0398;-0.6054;
974397686526348;-5.3492;-0.1639;-0.3730;
974397696630411;-10.1234;-0.2907;-1.8942;
974397706737338;-11.1823;0.3679;-2.9291;
974397716841244;-8.8179;0.9428;-3.9520;
974397726945307;-10.2885;-0.3147;-5.2525;
974397737045411;-9.2082;-1.1509;-3.6188;
974397747149421;-7.8500;0.8327;-4.1483;
974397757253432;-7.9531;-0.7819;-4.3017;
974397767356661;-8.0513;-0.8731;-5.9139;
974397777460671;-9.7376;0.3727;-6.9320;
974397787564629;-12.4756;-0.6168;-3.7340;
974397797668327;-8.9973;0.5572;-3.3194;
974397807772338;-6.3817;-1.0454;-3.1325;
974397817876296;-10.0250;-0.2716;-1.9229;
974397827980098;-10.5975;0.4110;-0.9215;
974397838084109;-5.4473;0.1857;-2.0426;
974397848188067;-9.5557;0.6147;-3.8441;
974397858291869;-11.2947;-1.3232;-4.7569;
974397868395879;-9.7902;-0.7005;-4.2203;
974397878499838;-10.8538;-0.3413;-3.2524;
974397888606765;-8.6070;-0.8994;-3.7412;
974397898710775;-12.9523;-1.3208;-3.3840;
974397908814786;-12.3081;-0.1926;-0.0568;
974397918921348;-6.8632;0.7343;-0.0520;
974397929025359;-1.1785;-0.3939;-3.7077;
974397939129317;-6.2952;-1.1124;-5.1975;
974397949231557;-9.8480;-0.5375;-6.0215;
974397959335567;-13.0244;-0.3147;-4.0238;
974397969439577;-9.0455;-0.5160;-4.5126;
974397979547546;-6.9446;-0.9784;-2.1218;
974397989651504;-8.8944;-0.1974;-2.7015;
974397999755515;-10.3391;-0.1950;-1.8607;
974398009856244;-7.7806;-0.2381;-3.0344;
974398019960254;-13.5945;0.0374;-4.4862;
974398030064265;-9.1747;-0.8106;-1.0104;
974398040169213;-8.4033;-0.1304;-2.6656;
974398050273171;-11.5128;-1.3974;-3.4490;
974398060377182;-11.6516;-0.3147;-0.4113;
974398070488588;-8.9758;0.2746;1.1650;
974398080592546;-8.4921;1.5945;0.9446;
974398090696504;-6.0150;1.1824;-1.6522;
974398100795984;-9.1508;0.1929;-3.8776;
974398110899942;-12.1259;0.6123;-3.0464;
974398121003900;-4.7169;-0.2835;-3.5231;
974398131105098;-7.2033;-0.6502;-8.6136;
974398141209109;-11.7523;-0.8632;-5.2816;
974398151313067;-8.4873;-2.1209;-3.1086;
974398161412025;-10.0322;-1.9244;-4.8431;
974398171515984;-6.5563;-1.6131;-1.7480;
974398181619942;-5.9743;-0.5255;-3.1998;
974398191729265;-12.8997;-0.9497;-3.4729;
974398201833275;-13.1417;-0.3604;-0.1167;
974398211937286;-8.5161;-1.8670;0.0173;
974398222034421;-9.4669;0.8542;-2.0617;
974398232138432;-11.7236;0.3823;-0.8665;
974398242242442;-9.0503;-1.5963;-1.7791;
974398252357286;-9.8216;-0.1783;-2.4978;
974398262461244;-10.3053;-0.3485;-1.2185;
974398272565254;-9.1579;-1.0693;-1.5733;
974398282662963;-8.3818;-1.2060;-3.2836;
974398292766921;-9.4119;-0.8874;-3.8680;
974398302870932;-10.3487;-0.9305;-2.7829;
974398312987286;-10.0514;-0.2261;-1.2763;
974398323091296;-5.8929;-0.8874;-1.9516;
974398333195254;-7.9531;-0.4992;-5.9019;
974398343289734;-10.0274;-0.0416;-4.5820;
974398353393744;-7.6487;-1.0478;-4.0789;
974398363497702;-9.4932;-1.0310;-5.4443;
974398373619473;-11.3521;-0.5853;-4.2179;
974398383723432;-9.2321;0.3870;-0.3299;
974398393827442;-7.9026;-0.6263;-0.9287;
974398403941400;-10.1665;-0.1831;-2.3375;
974398414045359;-11.1990;1.0699;-2.9698;
974398424149317;-10.1043;0.3320;-2.0593;
974398434224786;-12.7032;0.7705;-0.7804;
974398444328796;-11.0743;-1.4671;-0.3060;
974398454432754;-8.8274;-0.0488;-1.6379;
974398464563327;-6.7816;0.5907;-2.8789;
974398474667286;-8.0393;1.0627;-4.7426;
974398484771296;-13.6352;1.9178;-4.4668;
974398494853275;-7.4261;0.4445;0.8342;
974398504957234;-7.0977;0.4902;-1.1970;
974398515061192;-9.6993;1.4124;-3.7675;
974398525167234;-7.4022;-0.1519;-4.0502;
974398535271192;-9.4502;0.8566;-4.8814;
974398545375202;-9.6610;0.1834;-2.9841;
974398555477494;-10.1186;-1.3496;-2.1912;
974398565581504;-9.7472;-0.9951;-3.6093;
974398575685515;-10.1354;-1.8048;-4.1483;
974398585786765;-6.5157;-1.9678;-2.7206;
974398595890775;-8.5304;0.0852;-3.1687;
974398605994734;-6.5949;-0.8560;-2.3782;
974398616097702;-6.3912;-0.4011;-5.9498;
974398626201713;-16.2799;0.5118;-2.6345;
974398636305671;-13.2087;-3.2806;2.4559;
974398646414994;-13.7453;-4.0038;4.4228;
974398656519004;-11.6806;-2.2071;4.0848;
974398666622963;-7.5960;-1.7617;-1.3792;
974398676724004;-6.8557;1.4554;-6.7570;
974398686828015;-8.2813;1.5200;-6.9129;
974398696932025;-11.9608;-2.0898;-4.6609;
974398707046765;-9.4334;-1.9822;-1.3409;
974398717150723;-1.9140;-1.1557;-0.1573;
974398727254734;-6.4152;0.0781;-3.3817;
974398737342598;-12.2315;-0.6239;-4.8431;
974398747446609;-11.1392;0.1355;-1.8272;
974398757550567;-6.7792;-0.8201;-5.2621;
974398767665984;-10.7653;-1.5772;-7.6600;
974398777769942;-11.3617;-1.9678;-4.5293;
974398787873900;-10.3750;-3.2515;-2.1960;
974398797975827;-8.4224;-3.2204;-2.4188;
974398808079838;-11.5511;-0.3748;-1.9804;
974398818183848;-12.1618;-0.0392;0.4702;
974398828285254;-4.3167;-0.3099;-0.5168;
974398838389265;-7.8212;1.8820;-1.5972;
974398848493223;-11.2660;2.4855;0.3335;
974398858603588;-10.1043;1.7764;-0.9502;
974398868707546;-15.6784;1.8628;-3.1448;
974398878811557;-12.8997;0.4735;-1.9158;
974398888913379;-2.4386;-0.3099;-0.3562;
974398899017338;-6.7720;0.3009;-4.5197;
974398909121348;-9.6156;-0.7388;-8.7694;
974398919225515;-5.3994;-1.0597;-5.2167;
974398929329525;-8.6046;0.3894;-3.3482;
974398939433484;-13.2446;0.9643;-2.6919;
974398949537182;-11.0791;-0.2500;-0.4496;
974398959641192;-5.5624;-0.1161;0.6114;
974398969745202;-6.0293;0.4038;-3.1519;
974398979855150;-11.3115;-0.2716;-5.1688;
974398989959109;-11.8457;-0.5351;-2.9267;
974399000063119;-11.1655;-1.8814;-4.5508;
974399010167129;-14.7036;-1.6513;-1.1970;
974399020271088;-7.1746;-0.2022;2.3267;
974399030375098;-12.3129;-0.5925;-1.8727;
974399040477859;-10.1521;0.3966;-0.6987;
974399050581817;-5.6533;2.4592;3.5605;
974399060685827;-8.1999;2.0952;-2.2750;
974399070789109;-8.7915;0.4974;-6.7666;
974399080893067;-8.4559;1.4506;-5.2190;
974399090997077;-9.4238;0.0470;-2.1649;
974399101104317;-11.8768;0.5620;-1.2520;
974399111208275;-8.8561;-2.0157;-4.7737;
974399121312234;-10.6935;0.0350;-5.2310;
974399131408796;-10.8467;-2.2672;-2.1601;
974399141512807;-6.5850;-2.3653;-3.3840;
974399151616765;-9.2827;-0.5136;-4.2754;
974399161722286;-10.3534;-0.6694;-3.8345;
974399171826296;-7.1435;-0.0897;-1.0128;
974399181930254;-6.1158;-0.7962;-2.7350;
974399192028536;-14.1263;0.1929;-5.2238;
974399202132546;-7.9795;0.1666;0.2761;
974399212236557;-9.3162;-0.4537;-1.1085;
974399222344786;-21.1355;0.5142;-2.7135;
974399232448796;-18.0571;-2.3390;2.0943;
974399242552807;-6.2856;-0.7364;3.5459;
974399252683015;-0.8623;-0.8731;-5.3175;
974399262787025;-3.5357;0.5716;-9.3227;
974399272891036;-4.2664;-0.3580;-7.7130;
974399282981244;-7.5314;0.1881;-6.4313;
974399293085254;-6.1780;0.9619;-4.6226;
974399303189213;-21.3078;1.6065;0.1780;
974399313320150;-12.0781;1.0340;0.8246;
974399323424161;4.4940;-1.5772;-5.2621;
974399333528171;-11.4529;-0.8154;-6.2970;
974399343603327;-20.2469;-1.6681;-3.6380;
974399353707286;-18.4549;-5.1272;-5.5376;
974399363811296;-11.1464;-2.5355;0.6571;
974399373927911;-2.3285;-0.9616;2.7123;
974399384031869;-3.9957;0.5548;-0.9335;
974399394135879;-8.5400;0.5118;-0.8019;
974399404235411;-10.8443;2.1909;-0.2079;
974399414339369;-8.8681;2.7443;0.7457;
974399424443379;-2.5487;3.1851;-4.2467;
974399434549369;-14.6557;1.1752;-13.2990;
974399444653327;-8.9566;-0.3194;-0.6820;
974399454757338;6.4869;0.7370;-0.1813;
974399464874473;-19.9472;-1.5437;-17.5271;
974399474978432;-22.6496;-4.0253;-7.7656;
974399485082442;-12.2025;-2.7894;6.2746;
974399495151661;-9.0120;-0.6861;4.5042;
974399505255671;-13.8820;-0.4777;3.3042;
974399515359629;-20.7954;-1.0262;4.3077;
974399525471973;-8.3459;-0.4322;3.9604;
974399535575984;4.4055;-0.4178;-0.8641;
974399545679942;-7.7710;0.6817;-6.5629;
974399555784682;-5.8355;0.7418;-8.3333;
974399565888692;-4.1441;0.3631;-9.4591;
974399575992650;-1.7919;1.4554;-6.4505;
974399586090932;-4.6591;2.7227;-5.8229;
974399596194942;-12.0709;2.2220;-10.2329;
974399606298900;-15.9323;1.0484;-7.7273;
974399616402494;-6.3601;-0.0993;-2.2391;
974399626506504;-0.0526;-1.9149;-8.7500;
974399636610515;-9.9772;-5.0219;-12.7409;
974399646719473;-21.0685;-4.6122;-1.3983;
974399656823484;-17.4583;-2.6336;9.8892;
974399666927494;-9.1316;0.4660;10.1192;
974399677039004;-7.4094;2.5167;4.6792;
974399687142963;-5.7323;1.6783;0.4845;
974399697246973;-7.7949;0.9523;-0.1262;
974399707360515;-11.1392;0.1570;0.1421;
974399717464473;-6.7122;2.5190;-3.4011;
974399727568484;-2.7739;3.3431;-5.5570;
974399737663119;-1.8996;1.8027;-6.4552;
974399747767129;-0.7594;0.3392;-11.4018;
974399757871192;-7.2966;-0.1950;-10.2879;
974399767978900;-16.0546;0.3511;-2.1817;
974399778082911;-4.5060;3.1660;-3.5614;
974399788186921;-27.7277;1.4602;-6.5629;
974399798289525;-29.9270;-3.3165;4.4037;
974399808393536;-10.9953;-4.4495;12.6897;
974399818497598;-1.3774;-2.8564;7.5511;
974399828606452;-7.7375;-3.8554;-7.8661;
974399838710463;-17.4488;-4.2051;-4.3472;
974399848814525;-13.7644;-2.5307;7.4004;
974399858916036;-5.4544;1.6256;4.6672;
974399869020098;-5.8355;4.1408;0.4798;
974399879124109;-2.7787;3.9060;-0.8163;
974399889225619;-11.4075;1.1991;-10.6283;
974399899329629;-3.8375;2.7993;-6.0024;
974399909433692;2.5274;0.7175;-17.9249;
974399919545098;-15.0604;-3.3332;-25.4061;
974399929649109;-14.0088;-5.0578;-6.8312;
974399939753171;-21.1642;-0.9712;5.1823;
974399949855307;-12.5453;3.8174;3.0909;
974399959959369;-1.5042;-1.2969;-1.2715;
974399970063432;-6.7481;-3.9942;-3.3577;
974399980172598;-11.9536;-0.7531;-0.7995;
974399990276609;-12.4038;1.8437;0.6284;
974400000380671;-13.3167;2.1622;1.1578;
974400010477390;-11.1655;3.1394;2.5041;
974400020581400;-3.8471;2.8567;0.2043;
974400030685463;-2.7667;1.7596;-4.5628;
974400040785619;-7.4836;0.4612;-6.0817;
974400050889629;-7.9938;1.5706;-4.4910;
974400060993692;-13.2015;1.9872;-6.7738;
974400071109629;-15.6018;2.0686;-2.6800;
974400081213640;-10.6023;3.1035;3.4478;
974400091317650;-8.0560;2.1909;-0.9909;
974400101417702;-7.4189;1.0603;-4.4046;
974400111521713;-3.8686;-0.5327;-3.1663;
974400121625775;-6.3096;-1.0382;-6.8049;
974400131724786;-10.4827;0.2578;-8.2400;
974400141828848;-14.2053;0.0900;-1.2018;
974400151932859;-10.4181;1.7596;3.9078;
974400162037286;-4.6424;2.3994;2.0106;
974400172141348;-7.3875;0.1690;-4.2275;
974400182245359;-10.6361;-1.7641;-5.4179;
974400192343379;-10.4468;-2.4996;-3.5758;
974400202447390;-11.7165;-2.1784;-4.8383;
974400212551452;-12.3607;-1.0047;-1.8416;
974400222662234;-9.5148;-0.7962;1.8691;
974400232766244;-9.3257;0.2459;0.4822;
974400242870254;-11.1870;0.2339;-0.1382;
974400252970515;-9.7089;0.1044;0.4845;
974400263074577;-8.0680;0.2746;-2.6177;
974400273178588;-11.3617;-0.8874;-4.9579;
974400283283744;-7.2033;-0.6383;-1.1324;
974400293387807;-6.6069;-1.1749;-3.1663;
974400303491817;-10.1545;-1.7019;-6.0479;
974400313593536;-9.1460;-1.6681;-3.0464;
974400323697546;-8.6907;-1.2251;-2.6512;
974400333801609;-9.8145;-1.7115;-4.6657;
974400343904161;-10.2215;-0.9329;-3.3362;
974400354008171;-9.7400;-0.7579;-2.2295;
974400364112234;-8.7051;-1.0071;-2.4811;
974400374249734;-10.2957;-0.9640;-3.0057;
974400384353744;-11.0360;-1.7904;-2.5672;
974400394457807;-10.7462;0.1546;-1.5203;
974400404547390;-8.6213;0.2219;-1.7671;
974400414651400;-7.5147;-1.6657;-3.4322;
974400424755463;-9.3233;-0.1232;-3.8201;
974400434859004;-8.7171;-0.1352;-3.5160;
974400444963067;-9.6802;0.0087;-4.8383;
974400455067077;-10.1450;0.7199;-2.7206;
974400465167754;-8.6979;1.0795;-2.1434;
974400475271765;-9.0957;1.0053;-2.8068;
974400485375827;-9.4119;1.9250;-3.0583;
974400495469369;-9.7543;1.2589;-2.5457;
974400505573432;-9.3090;2.3922;-4.0238;
974400515677442;-10.4133;1.3310;-3.4633;
974400525788432;-7.7590;2.2244;-1.0391;
974400535892442;-5.8092;2.0399;-3.1902;
974400545996504;-9.5438;0.4134;-5.8373;
974400556102807;-11.4386;1.5467;-2.3830;
974400566206817;-8.7147;1.9896;-0.8019;
974400576310879;-8.5137;0.7825;-2.9865;
974400586411348;-9.8336;-0.1113;-3.4801;
974400596515359;-10.9068;0.4540;-0.4017;
974400606619421;-10.3244;0.1977;-1.6403;
974400616726348;-10.2718;0.1905;-3.3027;
974400626830359;-7.0164;-0.4968;-1.6738;
974400636934421;-8.4849;-0.5686;-3.1424;
974400647036765;-10.1976;0.3200;-3.5638;
974400657140775;-9.6419;-0.3003;-1.5661;
974400667244838;-7.8547;0.0206;-1.8655;
974400677350827;-8.5328;0.4205;-2.6943;
974400687454838;-11.0145;-0.3027;-3.2979;
974400697558900;-8.6213;-1.0573;-2.0091;
974400707667598;-7.0546;-0.3867;-3.2501;
974400717771661;-12.2913;-1.1219;-5.5352;
974400727875671;-12.3631;-1.2467;-2.0091;
974400737979057;-7.5817;-1.3089;-0.0281;
974400748083119;-7.1746;-1.5772;-3.2883;
974400758187182;-10.6768;-0.5830;-4.9795;
974400768286869;-9.8504;-0.9760;-1.8416;
974400778390932;-10.0756;-1.8526;-0.9479;
974400788494994;-12.3583;-1.4288;-1.1228;
974400798593744;-8.0489;-0.6479;-1.3528;
974400808697807;-7.5099;-0.7771;-3.7627;
974400818801869;-8.2502;0.5740;-4.3328;
974400828911869;-7.2081;-0.7579;-3.2453;
974400839015932;-10.0466;-1.0549;-5.0587;
974400849119994;-11.2564;-0.6598;-5.4084;
974400859225411;-8.9016;-0.3365;-1.6044;
974400869329525;-6.8198;-1.0286;-1.6786;
974400879433536;-9.1699;-0.2859;-3.7675;
974400889536452;-11.0504;-1.0669;-3.2381;
974400899640515;-8.1182;-1.1291;-3.1277;
974400909744577;-8.6979;-1.0478;-4.4022;
974400919869942;-11.6324;-0.8273;-2.9004;
974400929973952;-11.1245;-0.5327;1.3851;
974400940078067;-7.5649;-0.1496;-0.1789;
974400950179734;-8.3698;0.8734;-3.7938;
974400960283848;-10.8108;1.2760;-3.4155;
974400970387859;-8.7676;-1.0167;-1.6403;
974400980487807;-7.8906;-0.2596;-1.5781;
974400990591869;-9.4238;1.2446;-2.5696;
974401000695984;-9.9006;-0.3820;-2.3782;
974401010792286;-10.3053;-0.3604;-3.8441;
974401020896348;-9.4238;1.0340;-2.0306;
974401031000411;-6.3697;-0.1615;-0.7660;
974401041107702;-9.3784;0.0876;-4.4309;
974401051211765;-11.3713;0.0757;-4.8622;
974401061315827;-10.5592;-0.2931;-1.1252;
974401071434161;-8.2956;-1.2060;-1.2568;
974401081538223;-11.0432;-0.5064;-3.3601;
974401091642286;-10.7557;-0.4848;-0.7708;
974401101729577;-6.8390;-0.3652;-0.3347;
974401111833640;-7.4548;0.5883;-4.9364;
974401121937702;-9.4358;0.1738;-5.0755;
974401132050827;-11.4984;0.7152;-1.6116;
974401142154838;-9.9963;0.1714;-0.9837;
974401152258952;-9.6969;0.1618;-2.8717;
974401162345463;-9.0096;0.1618;-3.3625;
974401172449473;-8.9925;-0.5518;-3.0966;
974401182553588;-11.1341;-0.3389;-3.0799;
974401192653171;-10.9044;-0.7268;-1.1468;
974401202757182;-8.3411;-0.3580;-2.6489;
974401212861296;-9.1125;0.0637;-3.8154;
974401222980202;-9.3138;0.4014;-1.5012;
974401233084265;-7.4357;0.5357;-1.2377;
974401243188327;-5.8475;-0.0200;-3.7890;
974401253282754;-9.3209;0.5644;-7.3989;
974401263386765;-10.4635;-0.1711;-4.1076;
974401273490879;-8.7461;-1.1124;-0.6485;
974401283605098;-13.3765;-1.0525;-2.5744;
974401293709161;-12.4854;-0.5877;-1.2209;
974401303813223;-8.0704;-1.5987;-1.1180;
974401313899577;-7.8954;0.0039;-3.2716;
974401324003640;-7.3636;-0.0754;-2.4882;
974401334107754;-9.1101;-0.0559;-3.0248;
974401344237702;-11.6997;0.3559;-2.4523;
974401354341765;-8.7628;0.4564;-1.3672;
974401364445827;-8.9853;0.2865;-0.8761;
974401374537077;-9.1795;-0.0802;-2.3614;
974401384641140;-7.1435;-0.0535;-3.1448;
974401394745254;-8.0106;0.1834;-4.6872;
974401404867598;-9.1914;-1.1964;-6.8889;
974401414971661;-14.0614;-1.1171;-3.9951;
974401425075723;-11.6037;-0.5447;1.2535;
974401435153536;-7.1650;-0.4250;1.1698;
974401445257598;-6.7265;-0.0535;-4.3807;
974401455361661;-10.4946;-0.2333;-5.1664;
974401465478640;-9.7448;-0.8369;-1.8033;
974401475582702;-6.8824;0.0422;-0.6580;
974401485686765;-10.3630;0.0948;-3.8010;
974401495796765;-11.9342;-0.0440;-2.1458;
974401505900827;-10.2574;-0.3123;-0.8833;
974401516004890;-9.8264;0.2387;-2.0955;
974401526098119;-6.0799;0.1475;-1.9445;
974401536202182;-6.6547;-0.2500;-6.1534;
974401546306244;-10.7486;-0.5710;-6.1678;
974401556414161;-11.2684;0.1618;-2.1170;
974401566518223;-10.1665;-0.8345;0.3482;
974401576622338;-9.8599;-0.0655;-1.1444;
974401586713484;-9.5773;0.1738;-1.3696;
974401596817494;-7.8188;-0.0583;-2.1649;
974401606921609;-10.0107;-0.6861;-4.2108;
974401617036557;-11.2493;-0.0153;-3.6790;
974401627140619;-8.6524;0.0254;-0.8234;
974401637244682;-7.5218;-0.5231;-2.7517;
974401647347598;-10.1450;0.0733;-3.9951;
974401657451661;-8.3794;0.6577;-1.8248;
974401667555723;-7.3062;-0.2692;-2.2702;
974401677655723;-7.8787;0.2698;-4.4910;
974401687759786;-11.5726;0.4854;-3.7555;
974401697863900;-7.3062;-1.0190;-2.8499;
974401707982286;-13.5945;0.1929;-2.2223;
974401718086348;-10.4013;-0.1926;-0.6556;
974401728190411;-5.8403;-0.4729;-2.3351;
974401738295619;-7.0618;0.2913;-5.1999;
974401748399734;-13.6878;-0.6646;-3.1591;
974401758503796;-12.8447;-0.5710;2.1589;
974401768604161;-8.8155;0.2578;0.6138;
974401778708275;-8.2645;-0.2692;-1.5876;
974401788812390;-7.8715;0.5955;-2.7254;
974401798911244;-6.0799;-0.1854;-4.7737;
974401809015359;-12.3727;0.3703;-2.6871;
974401819119421;-9.8575;0.4373;-1.0487;
974401829233952;-10.9810;-0.3748;-4.2993;
974401839338067;-8.0154;-0.1448;-2.7278;
974401849442129;-9.6323;0.0422;-0.9048;
974401859551452;-8.2621;-1.0956;-3.4083;
974401869655567;-9.8886;-0.9497;-4.7761;
974401879759682;-11.3713;-0.6718;-2.5552;
974401889855098;-9.6108;-0.7460;-0.9191;
974401899959213;-8.7461;-0.4226;-2.2654;
974401910063275;-9.7663;0.3918;-1.7815;
974401920174004;-5.8044;-0.4370;-1.2643;
974401930278067;-8.1589;-0.1950;-6.4361;
974401940382182;-10.0804;-0.0607;-5.8110;
974401950483015;-7.8476;-0.4274;-1.2811;
974401960587129;-10.1115;-0.7244;-2.0402;
974401970691192;-11.1054;-0.1687;-3.1325;
974401980796192;-10.1306;-0.9736;-0.8426;
974401990900254;-9.8312;-0.2859;-2.4356;
974402001004369;-7.3038;-0.1926;-4.2706;
974402011099577;-9.5291;-0.2166;-1.4007;
974402021203692;-10.3173;-0.7914;-1.9899;
974402031307754;-9.9341;-0.4729;-1.9612;
974402041413588;-9.0431;0.2363;-2.0091;
974402051517702;-10.7079;-0.6479;-0.7828;
974402061621765;-7.7447;-0.0033;-0.3012;
974402071724629;-8.6836;-0.3724;-3.5638;
974402081828744;-7.9217;0.4564;-4.8096;
974402091932859;-7.2512;-1.0669;-3.9832;
974402102036765;-10.7222;-0.2189;-4.3950;
974402112140879;-8.9614;0.7370;-0.7684;
974402122244994;-10.7366;-0.6670;-2.3782;
974402132374994;-13.6615;-0.5447;-3.4083;
974402142479109;-12.2411;-0.7507;0.6404;
974402152583171;-7.5242;-0.8536;0.1923;
974402162655463;-5.7419;-1.1438;-4.1722;
974402172759525;-10.2550;-1.2610;-4.9986;
974402182863640;-11.5702;-0.0682;-2.1386;
974402192980723;-9.0861;1.0268;1.2296;
974402203084838;-4.1465;1.6137;-1.1013;
974402213188900;-4.8556;0.6458;-6.6805;
974402223317129;-12.6769;1.2087;-5.9833;
974402233421192;-14.7969;0.2411;-2.4332;
974402243525307;-10.7940;-0.7962;-0.9311;
974402253605515;-9.2106;-1.8622;-3.7579;
974402263709577;-11.9294;-1.4527;-3.4729;
974402273813692;-13.9322;-0.9832;0.5085;
974402283925202;-9.3568;-0.6072;1.4043;
974402294029317;-5.7562;0.7295;-1.8296;
974402304133432;-8.6405;0.4229;-2.6201;
974402314235307;-11.0145;1.2302;-0.8330;
974402324339421;-9.7448;1.1321;-0.6676;
974402334443484;-7.3086;1.3789;-4.2467;
974402344549682;-5.3396;0.3846;-6.5438;
974402354653796;-7.8500;-1.0717;-7.2290;
974402364757859;-10.5688;-1.2179;-6.5318;
974402374849577;-12.8303;-0.7962;-4.1865;
974402384953692;-14.2029;-0.9449;-1.3816;
974402395057754;-9.8767;-0.0802;0.0990;
974402405155932;-4.6783;0.3272;-0.5767;
974402415260046;-6.2904;0.0685;-6.4337;
974402425364161;-9.1436;-0.5782;-6.5821;
974402435478952;-11.3545;-0.9162;-0.9694;
974402445583067;-14.4377;0.3511;0.7504;
974402455687129;-10.3340;1.7046;2.5400;
974402465783744;-7.6825;1.1536;-0.2390;
974402475887859;-8.4392;-0.6479;-3.3840;
974402485991973;-9.2970;0.0182;-3.3362;
974402496097598;-11.0839;0.1499;-3.6643;
974402506201713;-6.6595;-0.0488;-2.9841;
974402516305827;-13.3525;0.4469;-2.8283;
974402526410932;-16.8763;-0.5638;-0.6317;
974402536515046;-2.8484;0.2865;0.7026;
974402546619109;-1.1163;-0.0511;-5.1449;
974402556722338;-9.1005;-0.8297;-9.4472;
974402566826452;-13.9155;-0.8850;-5.2238;
974402576930567;-16.4955;0.2363;0.9350;
974402587028848;-5.3659;1.1752;2.5567;
974402597132911;-2.5848;-0.9592;-5.6767;
974402607237025;-10.3149;-1.5796;-9.2387;
974402617353432;-9.3808;-0.2596;-1.0415;
974402627457546;-7.1169;-0.4705;-1.5613;
974402637561609;-16.9911;-1.2108;-6.4840;
974402647656244;-11.5654;0.2913;3.1220;
974402657760359;-5.4425;1.6735;2.7099;
974402667864473;-2.9776;-0.5734;-3.3051;
974402677970411;-8.2765;-0.3194;-7.9813;
974402688074525;-14.4999;0.0757;-4.7713;
974402698178588;-13.9537;1.0651;1.4859;
974402708291765;-13.3502;0.8040;3.4860;
974402718395879;-10.1785;-0.8656;-1.2739;
974402728499942;-5.3850;-1.5126;-2.2175;
974402738613432;-4.8030;0.8590;-3.3649;
974402748717546;-9.3760;-0.7627;-5.4227;
974402758821661;-11.7308;0.2100;-5.6527;
974402768908119;-8.7242;-0.1376;-0.6724;
974402779012234;-11.2229;1.7644;0.8797;
974402789116348;-7.1674;1.3214;-1.6379;
974402799222754;-10.0274;-0.8898;-5.4347;
974402809326869;-12.4277;-0.8321;-5.3581;
974402819430984;-13.4794;-2.5522;-3.1014;
974402829538171;-15.6568;-1.3567;-0.1789;
974402839642286;-13.0196;-1.1940;3.5892;
974402849746400;-4.9995;-0.5207;1.2799;
974402859854577;-3.8614;0.1235;-3.4155;
974402869958692;-5.2678;1.3143;-4.1602;
974402880062807;-5.9767;1.6328;-4.9914;
974402890163588;-7.3205;0.9858;-7.8685;
974402900267702;-10.1258;2.1383;-6.5797;
974402910371817;-8.8753;0.5333;-4.0621;
974402920476400;-12.6601;-1.3232;-4.5508;
974402930580515;-9.6634;-2.0228;-2.9028;
974402940684629;-7.5912;-1.6226;-5.7461;
974402950804369;-10.7845;-2.7727;-3.9449;
974402960908536;-12.3081;-0.3508;1.7877;
974402971012598;-12.0135;1.2832;4.2431;
974402981107182;-9.9509;1.2254;3.0503;
974402991211296;-7.0642;1.7357;0.2593;
974403001315411;-5.8283;1.2422;-0.9455;
974403011414265;-7.5673;0.8375;-2.6369;
974403021518379;-9.2082;0.6266;-4.6011;
974403031622494;-14.7371;0.9476;-4.2419;
974403041726140;-14.2555;1.2446;-0.9287;
974403051830307;-6.7792;0.9093;1.4668;
974403061934369;-7.6104;-0.6502;-2.3614;
974403072046452;-8.4535;-0.0849;-5.9474;
974403082150567;-9.2874;-0.0706;-6.2468;
974403092254682;-11.4936;1.0316;-4.6681;
974403102347025;-7.4333;-0.1089;-1.2305;
974403112451140;-8.2119;-0.3338;-0.8665;
974403122555254;-12.9500;0.5835;-1.7599;
974403132685202;-14.6725;-0.1184;-1.4868;
974403142789369;-11.9919;-0.5686;-0.5958;
974403152893432;-8.6285;-1.2203;-0.9455;
974403162977546;-2.7667;-1.4432;-1.7432;
974403173081661;-0.5868;-1.2610;-5.0061;
974403183185775;-5.1311;0.2076;-6.6470;
974403193281661;-14.3563;0.6697;-4.7928;
974403203385775;-18.7926;1.2661;-0.3802;
974403213489890;-9.1771;1.4746;4.5090;
974403223597598;-1.9810;0.7442;-0.7059;
974403233701713;-10.9618;-1.7665;-6.2827;
974403243805827;-15.9419;0.0494;-0.8521;
974403253904577;-12.6793;-1.9558;1.7495;
974403264008692;-11.0025;-1.2802;-0.6652;
974403274112807;-9.7759;-0.2740;2.9734;
974403284248067;-9.7304;1.9035;6.0924;
974403294352182;-3.3703;1.7644;4.5544;
974403304456296;-4.0771;0.9188;-3.2094;
974403314554057;-12.1116;2.5286;-6.9177;
974403324658171;-11.8720;1.1034;-3.7627;
974403334762286;-7.6343;0.7394;-1.7838;
974403344854265;-10.0155;2.3563;-4.4572;
974403354958379;-10.4181;-1.9077;-6.3114;
974403365062494;-8.9471;-1.3496;-4.7279;
974403375164682;-10.7055;-1.2802;-2.3662;
974403385268796;-13.5873;-2.1712;-1.5251;
974403395372911;-14.3201;-1.0765;0.1612;
974403405472338;-11.9198;-1.5604;2.8298;
974403415576452;-8.0584;0.4998;3.8743;
974403425680567;-6.3096;-0.0873;0.9182;
974403435784838;-6.1684;1.6950;0.5468;
974403445888952;-8.1829;0.1331;-2.3133;
974403455993067;-7.5697;0.8997;-6.8408;
974403466094838;-7.9050;-0.5638;-8.6495;
974403476198952;-8.7915;-1.1581;-6.5892;
974403486303119;-5.9886;-0.7866;-5.5905;
974403496413119;-7.5577;-0.8803;-7.0612;
974403506517234;-10.0681;-1.8885;-6.8719;
974403516621348;-12.9404;-1.8550;-4.0214;
974403526725098;-11.9584;-1.5580;1.1985;
974403536829213;-10.4252;-0.4131;1.6463;
974403546933327;-10.8180;-1.0334;2.9207;
974403557037702;-6.9446;1.5945;2.0393;
974403567141817;-12.6625;-1.1195;0.8366;
974403577245932;-12.9021;0.6553;4.2885;
974403587364682;-7.9050;1.5802;2.5161;
974403597468796;-6.8895;-0.2285;0.8581;
974403607572911;-10.9283;1.6496;0.1636;
974403617661348;-10.6050;-0.9018;-5.2983;
974403627765463;-8.6189;1.1417;-4.6035;
974403637869577;-5.7706;0.7944;-4.9675;
974403647976036;-4.9777;-0.3099;-7.4471;
974403658080150;-11.4386;-1.3807;-8.9082;
974403668184265;-12.4540;-0.2405;-3.5231;
974403678284577;-8.5831;0.0805;0.0604;
974403688388692;-9.4430;-0.6909;-3.9664;
974403698492807;-12.7008;-3.0218;-1.0654;
974403708614577;-10.3196;0.2243;2.4921;
974403718718692;-10.4635;-0.8273;1.0235;
974403728822807;-7.9723;0.0135;0.0150;
974403738913223;-6.4128;-0.4107;1.0929;
974403749017338;-12.8112;2.2627;-0.1621;
974403759121452;-12.6051;0.4588;-1.2329;
974403769226765;-6.4223;1.6041;-0.7564;
974403779330879;-7.2966;0.4540;-1.0774;
974403789434994;-11.2062;1.1082;-3.5040;
974403799539161;-11.2684;0.4831;-3.4657;
974403809643275;-8.8825;-0.0392;-2.9004;
974403819747390;-10.7940;-0.2453;-2.6393;
974403829861348;-12.7490;-0.9664;-2.0716;
974403839965463;-10.9020;0.2554;1.0618;
974403850069577;-9.0144;0.9404;0.8127;
974403860162702;-8.8872;0.2100;-0.9742;
974403870266817;-10.1928;-1.6298;-0.8521;
974403880370932;-10.8876;0.3200;0.0508;
974403890480671;-7.9146;0.3583;0.0389;
974403900584734;-7.2248;-0.9401;-3.0870;
974403910688848;-8.9327;0.1379;-4.4261;
974403920793536;-9.6419;-0.1208;-4.0884;
974403930897598;-8.6596;0.9811;-3.9520;
974403941001713;-7.7877;-0.7795;-4.1315;
974403951101921;-11.1607;-0.1137;-5.1520;
974403961206036;-12.5046;-0.6311;-1.5637;
974403971310150;-9.9030;-0.7699;-1.1372;
974403981422077;-9.5100;-0.5518;-1.1180;
974403991526192;-10.3822;-1.1219;1.4333;
974404001630307;-11.3904;0.2243;0.3697;
974404011723327;-9.2803;-0.0802;0.3455;
974404021827442;-6.8752;0.5429;0.5850;
974404031931557;-9.5195;1.7716;-0.0018;
974404042027702;-8.6836;0.9500;-0.9960;
974404052131817;-8.2860;1.5443;-3.0918;
974404062235932;-9.5581;1.3789;-3.4394;
974404072344004;-7.4596;0.6529;-3.7603;
974404082448067;-8.9734;0.2148;-4.0884;
974404092552182;-11.0504;-0.4178;-3.9616;
974404102664161;-12.0757;-0.2716;-0.0090;
974404112768223;-6.4917;-1.9388;-1.8081;
974404122872338;-10.0585;-2.2170;-3.0272;
974404132987286;-11.2158;0.2602;0.9446;
974404143091400;-8.3865;-0.5231;1.3540;
974404153195463;-6.9446;-0.3003;-1.6164;
974404163282598;-11.0312;0.0805;-0.6197;
974404173386713;-12.3847;-0.1950;-0.6820;
974404183490775;-8.1999;0.2315;-0.0185;
974404193598223;-7.6582;-0.3628;-1.2906;
974404203702338;-13.8796;-0.9760;-1.4031;
974404213806452;-9.5868;-1.0143;-1.7743;
974404223910098;-9.0981;-1.4910;-3.2070;
974404234014213;-9.6156;-0.1017;-1.2619;
974404244118275;-10.6265;-0.0945;-1.7985;
974404254232338;-14.6438;-1.0621;-2.2128;
974404264361504;-11.5582;-0.1926;0.8103;
974404274465619;-2.1966;0.4134;-0.1358;
974404284569734;-5.7682;-0.6981;-4.1841;
974404294632494;-14.6749;-0.2596;-2.8427;
974404304736609;-12.5142;1.1177;-2.4452;
974404314840723;-7.1169;-0.3051;-1.7288;
974404324946661;-9.6060;-0.5040;-3.2118;
974404335050775;-13.9681;-0.6742;-2.8283;
974404345154890;-9.3138;0.2650;-0.7516;
974404355269577;-3.4424;0.3559;-1.2595;
974404365373692;-8.4464;-0.4394;-3.8130;
974404375477807;-13.1130;-1.1892;-5.6384;
974404385578119;-11.2588;0.7199;-1.5852;
974404395682234;-4.3549;1.0747;-0.9814;
974404405786348;-9.5605;0.1092;-2.2247;
974404415894577;-11.7523;0.3942;-1.6762;
974404425998692;-10.8132;0.7175;-1.0965;
974404436102807;-6.0102;1.1943;-1.8129;
974404446216973;-8.5567;-1.1390;-1.8679;
974404456321088;-15.6521;-0.4944;-2.3734;
974404466425202;-12.8710;1.1704;-0.3754;
974404476540098;-5.5768;-1.0502;0.7768;
974404486644213;-9.9174;-0.7771;-0.5910;
974404496748327;-12.7657;-0.7651;0.9063;
974404506837129;-12.3440;0.7295;-0.2390;
974404516941244;-8.1135;0.6888;1.1698;
974404527045359;-9.0885;-1.2658;-0.0832;
974404537151088;-14.2579;-0.9257;-3.7388;
974404547255202;-9.0574;1.0484;-1.8464;
974404557359317;-6.3386;-0.1232;-0.9814;
974404567457911;-6.7720;0.3583;-5.5522;
974404577562025;-14.9240;-0.7220;-5.2310;
974404587666140;-15.7744;0.7896;-2.7781;
974404597772598;-2.6112;-0.5399;-1.8248;
974404607876713;-8.0656;-1.8503;-3.0535;
974404617980827;-11.0145;0.6434;-0.6508;
974404628080202;-9.1843;-0.5375;-3.5518;
974404638184317;-14.1574;-2.0994;-3.5638;
974404648288432;-10.6624;-0.1591;-0.5599;
974404658399682;-9.1890;-0.9233;-2.4380;
974404668503796;-15.6760;-0.6861;1.3899;
974404678607911;-7.5841;1.0866;0.7600;
974404688706244;-7.2033;-0.0511;-0.1813;
974404698810359;-8.4993;1.3669;-0.1935;
974404708914473;-10.3989;1.6926;-4.4237;
974404719022494;-13.5033;1.8341;-1.9660;
974404729126609;-11.8313;1.0579;-2.0955;
974404739230723;-12.0374;0.9452;-2.3973;
974404749331661;-5.5409;0.7370;0.0078;
974404759435775;-5.7972;0.0829;-1.5179;
974404769539890;-11.4024;0.0541;-3.6500;
974404779651504;-11.3761;1.4506;-3.4825;
974404789755619;-12.3272;-1.0143;-3.9377;
974404799859734;-9.6897;0.3535;-0.6891;
974404809957702;-3.6027;0.3990;0.0365;
974404820061817;-10.8562;-1.4073;-3.2859;
974404830165932;-8.9064;2.2412;-1.5398;
974404840275515;-8.3435;1.2135;-2.2487;
974404850379629;-11.8552;-0.9784;-3.5136;
974404860483744;-8.2597;-0.4801;-3.9230;
974404870588119;-11.1966;-0.3556;-1.8870;
974404880692234;-8.8633;1.2951;0.0748;
974404890796348;-12.6625;-0.3867;-1.4773;
974404900907077;-17.2570;-0.5566;0.0580;
974404911011192;-7.8882;0.2435;2.2645;
974404921115307;-9.1795;-2.4781;0.6834;
974404931203171;-12.0661;-1.5221;1.5793;
974404941307286;-3.4854;1.4770;-0.9790;
974404951411400;-17.2403;-1.8144;-1.5278;
974404961521140;-10.7629;2.4425;-4.2945;
974404971625254;-0.1555;0.8255;-1.4174;
974404981729369;-10.3196;2.0016;-4.7928;
974404991826869;-10.0011;1.3502;-4.0980;
974405001930984;-13.0962;1.2760;-4.7904;
974405012035098;-5.9575;0.9021;-5.0180;
974405022138119;4.4294;-1.0597;-3.9592;
974405032242234;-16.6511;-1.1414;-3.4848;
974405042346348;-23.0997;1.4889;-4.2586;
974405052454057;-10.8371;-0.5495;-1.7169;
974405062558171;-6.7744;-2.2624;5.6372;
974405072662286;-5.5289;-1.1148;3.3879;
974405082768119;-14.7084;-1.4958;-0.2629;
974405092872234;-15.6281;3.2019;3.5821;
974405102976348;-6.7074;0.9404;1.2703;
974405113082494;-7.2823;-0.2907;0.4008;
974405123186557;-19.3603;-0.5112;-0.8330;
974405133290671;-21.6362;0.4950;-2.6656;
974405143386765;-3.9526;2.1646;6.3846;
974405153490879;-2.7212;-0.6837;-0.1669;
974405163594994;-16.7758;-3.9464;-6.1128;
974405173701244;-17.0273;1.5129;-4.2036;
974405183805359;-9.3784;0.4277;-3.6790;
974405193909473;-27.3063;-2.1688;-1.4868;
974405204019786;-23.2771;-2.1377;0.4367;
974405214123900;1.2242;-3.8291;4.1354;
974405224228015;-1.7151;1.2302;5.7069;
974405234348640;-10.4707;0.8662;-2.9554;
974405244452754;-9.0861;-0.0464;-7.2099;
974405254556869;-10.5162;1.5009;-10.4629;
974405264636765;-6.2809;2.7730;-9.2291;
974405274740775;-7.7327;0.1594;-11.6677;
974405284844838;-14.1598;1.5634;-9.4184;
974405294975307;-13.3789;2.7467;-4.9460;
974405305079317;-7.4716;1.0579;-2.9387;
974405315183379;-4.4988;-1.1509;-4.6777;
974405325265619;-15.7481;-6.9168;-6.3329;
974405335369629;-24.1346;0.4516;0.9063;
974405345473692;-5.8211;2.2603;5.0551;
974405355587598;-0.0622;0.2506;3.4454;
974405365691661;-11.7715;0.3344;3.0069;
974405375795671;-12.3966;7.5090;1.2607;
974405385885827;-11.1679;5.8274;-2.2008;
974405395989838;-12.5859;2.1814;-0.1238;
974405406093900;-7.4788;3.4295;-1.8799;
974405416211869;-4.2616;0.9882;-2.8403;
974405426315879;-8.6477;1.1393;-5.2887;
974405436419942;-15.7026;1.4674;-1.4246;
974405446518744;-13.4243;1.3621;-2.0019;
974405456622754;-5.0378;-1.6466;0.8824;
974405466726817;-8.9614;-1.6322;2.1087;
974405476830411;-14.8232;0.5835;1.5864;
974405486934421;-9.3520;-0.1519;2.0106;
974405497038536;-6.7241;-0.0105;0.7959;
974405507147911;-13.6591;-1.0143;0.2976;
974405517251921;-14.2460;-1.9005;-0.8234;
974405527355984;-10.8323;0.3129;-0.3179;
974405537469057;-16.5434;-1.3017;1.3038;
974405547573067;-17.6860;-1.6756;2.5926;
974405557677129;-9.7041;-0.3437;2.2238;
974405567765932;-2.1200;-2.1616;1.0020;
974405577869942;-10.4563;-1.5867;-1.0008;
974405587974004;-17.7003;2.9743;-3.8728;
974405598076557;-6.9230;1.7931;-4.4094;
974405608180619;-8.1924;-0.6407;-4.5939;
974405618284629;-15.0820;2.9504;-3.6021;
974405628404265;-5.2654;3.3622;-4.3304;
974405638508275;-5.5433;0.7729;-4.3615;
974405648612338;-9.1603;2.1574;-3.8871;
974405658714421;-10.6552;2.7227;-4.8718;
974405668818484;-15.8581;-0.5806;-7.2458;
974405678922494;-8.3674;-2.2911;-1.5494;
974405689021661;-12.7271;-2.3868;-2.3901;
974405699125723;-12.2172;-3.5680;-0.7011;
974405709229734;-6.8318;0.1451;0.6858;
974405719340827;-9.8647;-0.2189;-0.7155;
974405729444890;-12.2219;-0.4920;0.5276;
974405739548900;-4.8963;1.1034;0.1875;
974405749648432;-8.2214;0.4325;-3.1277;
974405759752442;-6.2761;1.2446;-2.5241;
974405769856504;-10.8203;1.2182;-4.4046;
974405779961036;-11.8313;2.2316;-2.9698;
974405790065046;-6.7792;0.3057;-3.6523;
974405800169109;-7.5864;-0.7651;-4.4692;
974405810275202;-14.4544;0.1427;-1.0582;
974405820379213;-9.9437;-0.3532;-0.5599;
974405830483275;-7.8476;-2.6671;-3.6742;
974405840584161;-12.0876;-1.3161;0.0437;
974405850688171;-10.0947;-1.0525;1.0786;
974405860792234;-8.7676;-1.8742;-0.8593;
974405870905932;-13.2733;-0.3556;1.2894;
974405881009942;-16.0283;1.9801;1.1480;
974405891114004;-9.4837;0.9188;2.7362;
974405901214317;-6.9278;1.1369;0.5898;
974405911318327;-11.2325;0.9165;-1.2138;
974405921422390;-15.2665;0.8040;-1.2353;
974405931512494;-6.0583;1.3286;-1.8894;
974405941616504;-6.5324;0.2435;-3.9039;
974405951720567;-13.2015;0.4926;-4.5915;
974405961828744;-16.7157;1.6543;-3.1759;
974405971932807;-8.9949;1.3478;-1.5661;
974405982036817;-5.9432;0.5668;-0.6532;
974405992141244;-8.3842;2.1024;-0.4690;
974406002245307;-11.4793;0.2001;-2.5002;
974406012349317;-14.3082;0.6338;-1.4844;
974406022470411;-2.9345;0.7008;-2.4404;
974406032574473;-12.3679;-1.6995;-2.4308;
974406042678536;-13.0316;0.1307;-1.3648;
974406052774994;-6.6739;-0.0009;-4.1172;
974406062879004;-6.4941;-0.5830;-3.5901;
974406072983067;-11.9342;0.4086;-0.0473;
974406083081973;-13.3238;-0.7651;-2.5552;
974406093185984;-5.0163;-0.7101;-1.4390;
974406103290046;-9.5797;-2.3581;-1.5757;
974406113387807;-18.9293;-1.9558;-2.5959;
974406123491817;-15.6930;-0.2524;0.4534;
974406133595879;-10.6146;-1.1773;3.8815;
974406143713015;-10.0059;-1.9917;1.2655;
974406153817025;-14.8663;-2.8875;-0.9526;
974406163921088;-17.5588;-1.0956;1.5314;
974406174055723;-9.0909;-0.4633;2.3722;
974406184159734;-9.8456;-1.5532;1.7231;
974406194263796;-12.7080;-0.6957;-1.0247;
974406204350932;-9.4884;0.2770;-1.8870;
974406214454942;-8.2382;1.6089;-1.4725;
974406224559004;-13.1536;1.3071;-5.2645;
974406234661869;-10.1498;0.9619;-3.1424;
974406244765879;-6.3577;2.7993;-4.8814;
974406254869942;-10.9044;-1.4551;-8.7308;
974406264962286;-15.5563;0.3416;-5.7150;
974406275066400;-9.9987;1.2182;-1.5374;
974406285170463;-11.1703;-0.4083;-4.4501;
974406295288588;-9.3903;-0.8441;-2.9818;
974406305392650;-10.0851;-1.3543;-3.3290;
974406315496765;-14.9767;-0.8225;-1.4605;
974406325588848;-8.2334;0.6314;1.2105;
974406335692911;-6.9781;1.6567;-1.8272;
974406345797025;-11.1631;-0.1184;-1.1803;
974406355901452;-10.2263;2.6725;-2.8068;
974406366005515;-10.6768;2.1215;-3.1519;
974406376109629;-4.1058;2.3563;-1.2281;
974406386203327;-7.2272;2.3827;-6.0383;
974406396307442;-13.9681;0.0589;-6.1606;
974406406411504;-8.8394;1.1393;-0.3993;
974406416520671;-5.2606;1.2832;-5.1377;
974406426624734;-12.5046;-1.5365;-5.2430;
974406436728848;-10.4827;-0.8536;0.4798;
974406446841661;-10.0995;-0.6359;-1.1492;
974406456945723;-9.8312;-2.1066;-2.1745;
974406467049838;-4.1393;-2.0204;-0.7202;
974406477151765;-9.6275;-1.6971;-3.3721;
974406487255827;-12.4588;-0.5877;-1.8464;
974406497359942;-7.4022;-0.5160;-1.5278;
974406507484890;-10.6863;-1.8909;-3.3864;
974406517588952;-13.4985;-1.3783;-0.9622;
974406527693067;-11.9656;-0.5375;1.2894;
974406537785619;-9.3305;-0.5471;0.1923;
974406547889682;-10.1976;-1.6370;-1.5996;
974406557993796;-14.1909;-1.7402;-1.7985;
974406568088327;-11.7835;-0.5255;0.3215;
974406578192390;-9.0455;-1.1701;0.0413;
974406588296504;-11.1679;-0.4202;-2.3013;
974406598400307;-10.8538;-0.6550;-2.3638;
974406608504369;-11.5606;1.3023;-0.3299;
974406618608484;-7.4524;2.2747;-0.7804;
974406628715098;-7.2081;1.3214;-3.9230;
974406638819161;-9.2803;1.5033;-4.8933;
974406648923275;-7.6152;2.3731;-3.1158;
974406659037754;-8.8155;1.1082;-5.7724;
974406669141817;-8.2406;0.1068;-7.7010;
974406679245932;-9.8073;0.0374;-6.3571;
974406689343536;-11.4960;-0.6502;-1.7073;
974406699447598;-8.3267;-1.4360;-1.7599;
974406709551713;-6.4439;-0.2333;-4.6992;
974406719658432;-11.3282;-1.1509;-3.6404;
974406729762546;-16.3134;-1.4551;-0.2988;
974406739866609;-10.9164;-0.7292;1.6008;
974406749981973;-3.8351;-0.4896;-1.6283;
974406760086036;-8.4849;-0.2309;-4.9484;
974406770190150;-14.0112;-0.3170;-2.9674;
974406780282182;-10.4109;0.9547;0.0102;
974406790386244;-5.0234;1.1393;-3.6117;
974406800490359;-9.3975;0.6386;-5.5594;
974406810602182;-10.9522;1.7548;-3.0368;
974406820706244;-10.2048;1.1465;-0.6604;
974406830810359;-9.4573;0.1140;-2.8187;
974406840907286;-7.7375;0.3679;-3.3649;
974406851011348;-9.7926;0.7418;-2.0282;
974406861115463;-9.9245;-0.5566;-1.5805;
974406871208275;-6.9159;-2.0635;-4.6298;
974406881312338;-11.6109;-2.0515;-5.4036;
974406891416400;-13.2879;-1.7139;-0.9742;
974406901528952;-8.0776;-2.5283;-0.0066;
974406911633015;-6.3168;-1.2251;-2.8092;
974406921737129;-8.2549;0.1331;-4.7303;
974406931879265;-13.8389;1.1058;-1.6857;
974406941983327;-13.7764;0.3679;0.8055;
974406952087442;-9.2632;0.5477;0.9039;
974406962161140;-7.3277;0.0159;-2.7182;
974406972265254;-10.0466;-0.4394;-3.9135;
974406982369369;-12.9523;-0.3556;-1.2739;
974406992476244;-9.3664;-0.5638;-0.5384;
974407002580359;-7.1216;-0.1472;-2.7709;
974407012684421;-8.9518;0.1738;-4.0167;
974407022775984;-11.0551;-0.7747;-2.7087;
974407032880046;-7.7973;0.0398;-3.2644;
974407042984161;-8.6166;0.3488;-4.6777;
974407053091244;-8.8418;1.5706;-2.7350;
974407063195307;-8.9447;1.2709;-1.0295;
974407073299421;-7.4166;0.3559;-3.7268;
974407083396765;-13.0292;-0.9353;-6.1104;
974407093500827;-14.0495;-1.0693;-1.0295;
974407103604942;-10.8060;-0.6742;0.9709;
974407113719890;-8.8155;-1.6537;-0.6604;
974407123823952;-7.8021;-0.6455;-3.1181;
974407133928067;-13.2278;-0.0272;-1.5227;
974407144017286;-9.0311;-0.6622;-1.0654;
974407154121400;-7.6681;0.0015;-2.3157;
974407164225463;-8.7604;0.1068;-4.8957;
974407174332390;-12.2073;0.3703;-3.1950;
974407184436452;-9.8862;0.9212;0.4223;
974407194540567;-8.6453;1.0460;-1.6905;
974407204673119;-8.3507;0.3200;-4.3352;
974407214777182;-9.0048;0.2650;-4.6274;
974407224881296;-9.2656;-0.0778;-2.7470;
974407234960932;-8.8011;-0.6766;-3.0751;
974407245065046;-10.7557;-1.6681;-4.6322;
974407255169109;-10.6241;-1.5006;-4.4022;
974407265281661;-10.2814;-2.3174;-2.3997;
974407275385775;-9.0215;-2.0827;-1.0247;
974407285489890;-8.7075;-1.1171;-3.1229;
974407295612598;-12.8112;-0.6120;-2.9387;
974407305716765;-11.4458;-0.3652;0.1804;
974407315820827;-8.1613;0.0781;-0.1789;
974407325901869;-7.8835;-0.5064;-3.5112;
974407336005984;-9.5845;0.4205;-2.7996;
974407346110098;-9.8504;0.0805;-3.7125;
974407356218432;-11.3258;-0.9784;-4.0932;
974407366322546;-12.0230;-1.0095;-1.7216;
974407376426661;-9.3927;-1.4336;-0.9598;
974407386551140;-6.4510;-0.3170;-3.5279;
974407396655202;-7.8045;-0.9903;-4.6059;
974407406759369;-10.5784;-0.8297;-3.5782;
974407416844161;-9.3425;-0.6742;-3.8417;
974407426948275;-8.9638;-1.3591;-3.4274;
974407437052390;-8.5878;-0.4346;-3.3434;
974407447151244;-10.8227;-1.6059;-3.0775;
974407457255359;-10.9570;-1.6828;-2.6297;
974407467359473;-7.6896;-0.6287;-1.7695;
974407477470098;-9.5195;-1.0023;-2.0402;
974407487574213;-10.6648;-0.3700;-2.3228;
974407497678327;-9.2465;-1.3543;-2.3566;
974407507773432;-9.2874;-1.2347;-3.5207;
974407517877546;-8.5280;-1.4408;-4.1459;
974407527981661;-8.6022;-1.3902;-3.4633;
974407538101661;-9.1101;-0.8874;-2.6967;
974407548205775;-9.5677;-0.5423;-3.9063;
974407558309890;-10.2766;-0.3338;-1.8727;
974407568412286;-7.5697;0.0159;-1.8464;
974407578516400;-8.5687;0.2411;-2.8522;
974407588620515;-9.8336;-0.1280;-4.0167;
974407598710932;-11.1269;-0.6383;-3.1062;
974407608815098;-8.9112;-0.6263;-1.2377;
974407618919161;-6.9900;-0.7507;-2.5696;
974407629026921;-9.1388;-0.7340;-4.3998;
974407639131036;-10.1115;-0.9473;-3.9951;
974407649235150;-9.1771;-0.9712;-2.5744;
974407659342494;-8.0058;-0.3075;-2.7254;
974407669446609;-7.7566;0.2028;-3.5040;
974407679550723;-9.6802;-0.0945;-3.7699;
974407689649994;-11.1631;-0.1687;-1.1731;
974407699754109;-7.4883;-0.3242;-1.0534;
974407709858223;-8.2358;0.0781;-3.7316;
974407719958536;-9.7950;-0.0802;-4.6035;
974407730062598;-10.5425;-0.9449;-1.5326;
974407740166765;-8.7628;-1.6657;-1.0104;
974407750257702;-8.4706;-1.1988;-2.7182;
974407760361713;-9.0718;-0.4298;-3.5040;
974407770465827;-11.2014;-0.4753;-2.0788;
974407780569994;-9.2273;-0.8034;-1.7216;
974407790690515;-9.0024;-0.3508;-3.3601;
974407800794629;-8.7027;0.3631;-2.3614;
974407810898744;-8.1446;0.3679;-2.4595;
974407821005671;-8.8226;-0.4490;-3.0559;
974407831109786;-9.8097;-0.1472;-3.9808;
974407841213900;-10.1043;0.3200;-3.1110;
974407851311140;-8.8896;-0.0224;-2.0955;
974407861415254;-8.6333;-0.7555;-2.4643;
974407871519369;-8.3363;-0.5303;-3.3027;
974407881629838;-8.9853;0.4110;-3.2883;
974407891734004;-8.3243;-0.7029;-3.5495;
974407901838067;-8.6261;-0.6048;-3.3984;
974407911968796;-9.7639;-0.5231;-4.2132;
974407922072859;-11.9656;-1.0741;-2.3447;
974407932177025;-7.8571;-0.9879;-0.8641;
974407942255827;-7.6511;-0.3843;-2.7111;
974407952359994;-9.8480;-0.5997;-3.0559;
974407962464109;-9.3449;-0.5303;-2.8187;
974407972580359;-10.0585;-0.1376;-2.0883;
974407982684525;-8.7939;-0.7699;-1.9971;
974407992788692;-8.2047;-0.6335;-3.0727;
974408002892025;-10.4850;-0.5207;-3.6260;
974408012996088;-9.2225;-1.0286;-1.6738;
974408023100254;-7.5314;-0.8297;-3.1663;
974408033263275;-9.6515;0.2291;-3.9832;
974408043367442;-9.3473;-0.2931;-2.2415;
974408053471609;-10.8299;-1.3854;-2.6489;
974408063488848;-11.9728;-1.1844;-2.7613;
974408073592963;-9.0263;-0.5207;-1.7456;
974408083697077;-8.5735;-0.1926;-1.8727;
974408093842494;-10.7151;-0.6383;-2.6177;
974408103946609;-7.5984;-0.3676;-2.9076;
974408114050723;-8.5615;-1.0813;-3.6428;
974408124135932;-9.8336;-0.4298;-2.9770;
974408134240046;-4.8461;0.1331;-3.3960;
974408144344161;-6.1397;-0.1543;-6.6924;
974408154449994;-10.0179;-0.3266;-6.6541;
974408164554109;-11.2253;-0.3580;-2.1314;
974408174658223;-12.0087;-0.4753;0.2856;
974408184782650;-7.4644;-0.9568;-0.4977;
974408194886765;-5.9743;-0.8010;-6.1558;
974408204990879;-11.4769;-0.7292;-7.4973;
974408215079265;-13.6567;-1.0214;-0.1959;
974408225183379;-11.4506;-2.0252;1.4668;
974408235287494;-8.6357;-0.2333;-1.4749;
974408245382338;-8.1565;-0.4848;-1.4366;
974408255486452;-7.8284;0.3823;-3.5949;
974408265590567;-9.8791;0.3942;-3.2764;
974408275708744;-6.9948;1.1369;-0.7083;
974408285812911;-8.2071;0.9954;-1.6307;
974408295917025;-8.5807;1.0484;-3.8560;
974408306024161;-7.8691;0.7490;-5.7843;
974408316128327;-9.6395;-0.4848;-6.3954;
974408326232442;-8.8561;-0.3724;-3.0224;
974408336335098;-9.7089;-0.2500;-0.4448;
974408346439265;-10.7629;-1.3232;-3.1974;
974408356543379;-9.7615;-1.9726;-4.0262;
974408366648119;-10.2838;-0.8058;-1.7961;
974408376752286;-9.5414;-0.7412;-1.3959;
974408386856452;-11.7356;-0.9281;-2.0764;
974408396949994;-9.4143;0.0876;-0.8856;
974408407054161;-7.8906;0.1499;0.3144;
974408417158275;-5.5143;0.6793;-2.4930;
974408427276140;-9.3209;0.3679;-4.6418;
974408437380307;-11.1559;0.7175;-3.8489;
974408447484421;-9.5916;0.6553;-1.2763;
974408457591869;-7.0403;0.5285;-1.8655;
974408467696036;-4.1632;-0.4657;-5.9904;
974408477800150;-1.1354;-0.3604;-8.9154;
974408487885515;2.3405;-0.2453;-10.7862;
974408497989682;-11.7547;-0.9497;-10.5515;
974408508093796;-33.7143;-1.5724;1.1746;
974408518203432;-25.5670;-1.8287;15.3368;
974408528307598;-4.0914;-2.6743;12.2489;
974408538411713;0.7762;-2.3031;-4.2610;
974408548516036;-14.8185;0.5644;-11.1383;
974408558620202;-16.2078;-0.4370;1.0259;
974408568724317;-8.0895;-1.0884;5.4793;
974408578828327;-4.8437;0.9284;-1.9923;
974408588932494;-9.6371;0.0446;-4.6848;
974408599036661;-13.8796;0.6793;-1.9636;
974408609144265;-10.4922;1.6161;0.3529;
974408619248432;-6.4319;2.7299;3.7711;
974408629352546;-0.5294;3.0030;0.6404;
974408639470411;-3.1813;1.6137;-19.2425;
974408649574577;-16.2870;-1.0047;-23.6955;
974408659678692;-11.6877;-3.8985;-4.7880;
974408669760463;-7.0953;-4.2601;5.4314;
974408679864577;-12.9571;-2.6408;-3.3984;
974408689968744;-14.2292;-2.9569;-6.2133;
974408700086661;-9.9174;-2.6169;0.4175;
974408710190827;-5.4497;-0.3556;3.2489;
974408720294994;-5.9408;0.5883;-2.5170;
974408730391036;-11.1392;1.5826;-6.4816;
974408740495202;-13.3214;0.5764;-2.5911;
974408750599317;-9.9437;1.4315;1.0451;
974408760719161;-7.6223;1.8341;-0.5216;
974408770823327;-7.9579;1.0460;-2.9913;
974408780927442;-11.8289;1.5897;-3.9350;
974408791025307;-12.1092;1.6639;-1.4988;
974408801129473;-7.8332;1.0819;-0.6532;
974408811233588;-7.0116;0.9811;-4.5915;
974408821333432;-9.2106;-0.2309;-5.8636;
974408831437598;-8.2119;-0.1256;-3.6981;
974408841541713;-7.5410;-0.2620;-3.1783;
974408851632442;-9.4789;-0.1089;-3.6861;
974408861736557;-8.2454;0.3129;-2.0378;
974408871840671;-10.1785;-0.3242;-3.9063;
974408881951348;-10.5114;-1.1124;-3.2955;
974408892055515;-8.6261;-1.3208;-0.6126;
974408902159682;-10.3149;-0.8922;-1.1444;
974408912256921;-9.3281;-0.4322;-2.2534;
974408922361088;-9.3999;-1.5437;-2.6034;
974408932465254;-11.3617;-1.2730;-2.4858;
974408942655619;-7.3181;-0.6933;-1.6857;
974408952759786;-9.0048;-0.2118;-2.6369;
974408962863952;-11.9489;-0.7771;-3.3099;
974408972887286;-9.4095;0.3775;-1.3361;
974408982991452;-7.8882;0.9858;-1.0008;
974408993095619;-9.1053;0.7801;-3.0081;
974409003199994;-8.0369;-0.6120;-4.2826;
974409013304109;-13.3167;-0.3147;-4.5293;
974409023408275;-10.3726;-0.1448;-1.7073;
974409033525515;-9.6156;-1.1605;-0.8378;
974409043629682;-8.9064;-0.9425;-3.1783;
974409053733796;-6.6404;-1.3017;-3.6694;
974409063846661;-9.9389;-0.8225;-3.0846;
974409073950775;-9.7639;0.4158;-1.8679;
974409084054942;-6.4869;0.8710;-2.4212;
974409094161765;-10.5018;-0.6096;-4.7088;
974409104265932;-10.9235;0.1977;-2.2175;
974409114370046;-8.4009;-0.3508;-1.7408;
974409124455411;-8.8011;-0.6072;-3.2477;
974409134559577;-9.3281;-0.7651;-2.1984;
974409144663744;-7.2177;-0.6646;-2.6680;
974409154761504;-11.3163;-1.0095;-4.7136;
974409164865671;-11.6707;-1.2658;-3.7747;
974409174969786;-8.8872;-1.2514;-0.0449;
974409185081244;-7.0451;0.2554;-2.0115;
974409195185411;-9.6897;-0.2142;-4.0837;
974409205289525;-10.5257;1.0125;-2.4260;
974409215396244;-8.9830;0.8040;-0.1597;
974409225500411;-6.5850;0.5189;-2.0282;
974409235604525;-8.7413;0.3990;-6.1008;
974409245706869;-12.3823;0.0063;-3.9544;
974409255811036;-10.8658;0.7705;-0.4089;
974409265915150;-9.7113;-0.1974;-1.0056;
974409276037807;-10.0681;0.0182;-2.9602;
974409286141973;-7.8500;0.0350;-2.2774;
974409296246192;-7.7734;-0.1232;-2.8765;
974409306350411;-9.4310;0.2506;-4.2586;
974409316454577;-9.4669;1.4387;-2.0474;
974409326558796;-8.4440;0.6505;-1.9636;
974409336643588;-11.3689;0.6051;-3.5830;
974409346747754;-8.3889;0.6721;-3.3721;
974409356851973;-10.1426;-0.1567;-1.8248;
974409366965827;-10.6983;0.1905;-1.4868;
974409377069994;-10.5209;-0.0200;-1.7145;
974409387174213;-9.6299;-0.0057;-2.6728;
974409397264786;-6.5348;-1.1557;-2.9937;
974409407368952;-6.1325;0.3081;-4.1674;
974409417473171;-7.5984;-0.0488;-5.3294;
974409427584577;-8.2406;0.7585;-4.3424;
974409437688744;-6.6428;1.3765;-2.6752;
974409447792963;-8.2047;1.3167;-3.3171;
974409457900827;-9.1005;1.3334;-3.6045;
974409468004994;-9.1866;0.2076;-5.3055;
974409478109213;-9.9556;0.4349;-2.6273;
974409488188432;-8.1206;-0.7172;-1.1228;
974409498292598;-11.4697;-0.9377;-3.4848;
974409508396817;-11.9390;-0.9425;-2.1864;
974409518527442;-10.6528;-1.2562;1.0929;
974409528631609;-10.5544;-0.5495;0.0102;
974409538735827;-11.8241;0.3392;-0.7131;
974409548838327;-8.7509;0.7801;2.1757;
974409558942494;-10.2431;0.3751;1.7064;
974409569046713;-9.0000;0.6242;-1.0893;
974409579149682;-9.5749;1.6472;-2.5313;
974409589253848;-12.2411;0.5572;-2.6871;
974409599358067;-9.8767;0.4684;-1.4581;
974409609460098;-8.8513;0.1738;-2.4045;
974409619564265;-10.5162;-0.6024;-4.3950;
974409629668484;-8.6213;-0.8393;-4.0430;
974409639783744;-9.7400;-1.1028;-4.9292;
974409649887911;-9.9150;-0.7460;-4.9627;
974409659992129;-7.5410;-0.5518;-3.3721;
974409670092754;-8.3889;-0.9425;-4.2538;
974409680196921;-8.5424;-0.7603;-4.3759;
974409690301140;-9.4837;-1.1243;-4.7521;
974409700398015;-14.0833;-0.3147;-3.5566;
974409710502182;-10.4013;-0.3939;0.4917;
974409720606400;-8.8609;-1.5126;-2.5986;
974409730699786;-12.2842;-0.4083;-3.5279;
974409740803952;-9.5940;-0.6550;-0.7899;
974409750908171;-7.5601;0.4301;-2.4045;
974409761040515;-5.8068;0.9667;-3.8297;
974409771144682;-4.4124;1.5057;-5.4730;
974409781248900;-6.5396;2.4927;-7.0277;
974409791333744;2.6686;2.6342;-7.2218;
974409801437911;7.2224;3.2163;-10.6786;
974409811542129;-27.2513;3.4654;-9.2195;
974409821647598;-34.9071;1.0866;8.3898;
974409831751765;-15.4295;-3.0048;13.7773;
974409841855984;-1.0588;-8.2726;3.7519;
974409851952442;0.0981;-2.0420;-7.4973;
974409862056609;-10.9164;4.6654;-10.4653;
974409872160879;-15.2833;0.8399;-2.6154;
974409882260202;-11.8528;-2.5020;2.3052;
974409892364421;-5.1407;-0.8584;3.8504;
974409902468588;-6.9135;1.6232;1.6247;
974409912639265;-10.4922;1.8796;-2.4356;
974409922743484;-14.9456;0.7199;5.0958;
974409932847650;4.2401;3.3598;9.5157;
974409942881036;-2.0384;0.6027;-22.4596;
974409952985254;-26.9854;-0.3365;-26.2134;
974409963089421;-11.5582;-0.4825;-1.4127;
974409973189213;0.6060;-6.6150;5.5654;
974409983293379;-9.0479;-8.0091;-6.9583;
974409993397598;-15.0006;-2.1138;-8.9919;
974410003516088;-11.8241;-1.2610;-0.3682;
974410013620254;-5.0521;-1.8144;2.1972;
974410023724473;-6.6930;-1.4216;-2.1410;
974410033855202;-11.7835;1.5778;-3.8728;
974410043959369;-10.9307;2.8137;-0.5360;
974410054063588;-7.4333;-0.4753;-1.3289;
974410064164265;-12.2148;0.0182;-2.4978;
974410074268432;-8.5519;1.3214;-0.4642;
974410084372650;-6.6715;-0.4944;-4.8311;
974410094471244;-13.3119;-0.0081;-6.7714;
974410104575411;-9.4884;0.0589;-1.4055;
974410114679629;-6.8198;-0.0033;-2.8765;
974410124770254;-9.4884;-1.1390;-5.1305;
974410134874421;-7.9002;-0.1831;-3.2979;
974410144978640;-8.3650;-0.7460;-4.8766;
974410155078119;-10.0947;-0.6766;-3.2261;
974410165182286;-6.1660;-1.5604;-1.3983;
974410175286504;-10.2550;-1.6274;-4.6131;
974410185393640;-12.0015;-0.8225;-2.8837;
974410195497807;-8.0824;-0.9497;0.7337;
974410205602025;-8.4969;-0.2309;-2.4380;
974410215701869;-9.1388;0.0111;-2.4523;
974410225806036;-6.3506;0.7080;-2.3518;
974410235910254;-10.9307;-0.2596;-4.1004;
974410246016869;-12.4469;0.2746;-3.3147;
974410256121036;-11.1269;-1.5245;-0.2318;
974410266225254;-6.1636;-0.5566;-1.5326;
974410276341869;-6.9422;-0.4801;-3.7316;
974410286446036;-10.1186;-0.7507;-3.8177;
974410296550202;-9.5243;-0.1567;-2.3303;
974410306644682;-10.8996;-0.0559;-3.1277;
974410316748848;-10.3173;0.1379;-2.1888;
974410326853015;-7.5936;0.3799;-0.7612;
974410336956973;-8.7844;-0.0730;-2.6967;
974410347061140;-11.2014;0.4086;-1.8464;
974410357165307;-10.4994;0.6242;-1.2858;
974410367269473;-11.3904;-0.4083;-1.8511;
974410377373640;-11.0839;-1.0693;-1.7719;
974410387477807;-13.9585;0.1020;-1.3816;
974410397577911;-10.7533;-0.6383;1.8260;
974410407682077;-6.2641;-0.1591;0.1875;
974410417786244;-9.2130;0.2770;-4.4022;
974410427902494;-8.8777;1.1058;-3.4896;
974410438006661;-5.5576;0.8112;-3.6021;
974410448110827;-9.2874;0.4759;-5.0659;
974410458215827;-10.4587;1.2039;-5.1138;
974410468319994;-9.2513;1.3478;-3.3482;
974410478424161;-8.0967;-0.3218;-3.2692;
974410488541140;-10.2550;-0.2285;-5.1353;
974410498645307;-12.2459;-0.4083;-4.2036;
974410508749473;-8.4969;-0.7938;-2.3901;
974410518842807;-9.1962;-0.7555;-3.9039;
974410528946973;-10.8538;0.2650;-3.2979;
974410539051140;-10.4516;-0.0057;-0.2892;
974410549148952;-8.8705;1.0077;0.0030;
974410559253119;-8.6429;1.0125;-1.2954;
974410569357286;-6.9517;1.4387;-1.9325;
974410579467390;-9.2441;1.5514;-3.9855;
974410589571557;-9.6826;1.6854;-2.5672;
974410599675723;-10.2335;1.3597;-1.8775;
974410609776036;-9.6515;0.9165;-3.4466;
974410619880202;-9.0479;0.6745;-3.0775;
974410629984369;-8.9160;-0.1232;-4.8622;
974410640101765;-11.1679;0.2483;-3.1158;
974410650205932;-8.9327;0.4134;-1.2544;
974410660310098;-6.8608;-0.1208;-2.4165;
974410670406661;-8.9662;-0.1759;-4.1602;
974410680510827;-11.1245;0.0302;-2.9052;
974410690614994;-8.8920;0.2530;-0.8569;
974410700716140;-8.1159;-0.4561;-1.0822;
974410710820307;-9.2850;0.0685;-3.3458;
974410720924473;-10.7127;-0.9353;-2.6776;
974410731028015;-9.1077;0.4086;-1.6834;
974410741132182;-9.7687;-0.5495;-2.8693;
974410751236348;-10.4922;-0.3963;-3.2668;
974410761329161;-8.7003;-0.2381;-1.8033;
974410771433327;-8.7290;-0.2261;-2.9363;
974410781537494;-8.8179;-0.2405;-3.9855;
974410791655515;-10.3965;-0.1065;-2.8594;
974410801759682;-10.7749;-0.3437;-2.4069;
974410811863848;-9.8719;-1.1124;-2.0163;
974410821956973;-8.0465;-1.0789;-1.6905;
974410832061140;-8.7194;0.0685;-2.9411;
974410842165307;-9.8240;-0.7077;-3.3123;
974410852281557;-11.2373;0.0996;-2.5720;
974410862385671;-9.6778;-0.3820;-1.7551;
974410872489890;-8.5065;0.6362;-3.0607;
974410882646869;-8.4945;-0.7412;-3.1014;
974410892751036;-9.8839;0.2171;-2.8837;
974410902855202;-10.1115;-0.4825;-2.1362;
974410912882598;-7.1291;0.2028;-2.4069;
974410922986765;-10.2909;-1.4599;-4.6107;
974410933090932;-11.9632;-0.0464;-3.4848;
974410943276192;-8.7724;-0.4729;-1.0463;
974410953380359;-6.9254;-0.2453;-2.7900;
974410963484577;-10.6170;0.4759;-3.9473;
974410973519890;-10.3005;0.0470;-1.7360;
974410983624057;-9.1531;0.1211;-2.0139;
974410993728223;-7.0786;0.2506;-3.7029;
974411003851504;-9.9150;0.4325;-4.0071;
974411013955671;-11.5654;-0.0296;-1.2882;
974411024059838;-9.5629;-0.0897;-0.9048;
974411034165723;-9.2130;-0.2213;-2.7589;
974411044269890;-8.8537;0.8566;-1.9899;
974411054374057;-8.0776;-0.9257;-3.0823;
974411064477911;-10.2526;0.4277;-3.4920;
974411074582077;-9.7783;0.6314;-1.4151;
974411084686244;-7.8571;0.4831;-1.7503;
974411094795150;-7.9603;0.5309;-4.0597;
974411104899317;-8.8083;0.4086;-4.1841;
974411115003484;-9.8671;0.7223;-2.3806;
974411125090098;-12.8830;0.0876;-1.1779;
974411135194265;-9.9700;0.4445;-1.8942;
974411145298432;-9.3999;-0.5566;-1.7192;
974411155400515;-8.6142;-0.3820;-1.7961;
974411165504682;-6.9805;-0.3338;-2.9746;
974411175608848;-12.1235;0.4854;-2.9626;
974411185699786;-12.1881;0.1092;-0.6820;
974411195803952;-7.0283;1.0268;-0.8545;
974411205908119;-5.7730;0.4086;-3.9350;
974411216032390;-10.7677;0.8734;-5.1257;
974411226136557;-12.1020;0.8638;-0.9936;
974411236240723;-7.8882;0.4660;-0.9168;
974411246336244;-8.7939;-0.1304;-5.2983;
974411256440411;-13.8604;-0.3556;-4.4934;
974411266544577;-7.9146;-0.9281;-1.3600;
974411276661036;-10.0537;-0.3772;-2.3423;
974411286765202;-11.4171;0.6601;-1.2042;
974411296869369;-6.4343;-0.3604;-0.8545;
974411306976244;-8.6692;0.2052;-4.3328;
974411317080411;-9.5557;0.6051;-3.5686;
974411327184629;-9.4956;0.4277;-1.7623;
974411337282077;-9.8169;1.0436;-1.8057;
974411347386244;-8.3315;0.0015;-3.6117;
974411357490411;-9.5868;0.2001;-2.9004;
974411367588119;-7.8476;-0.3123;-3.2166;
974411377692286;-8.6883;-0.7196;-6.2683;
974411387796504;-14.1000;0.0661;-3.8752;
974411397903015;-8.6189;0.2219;1.1530;
974411408007182;-7.2368;-0.2548;-3.0655;
974411418111348;-9.7854;-0.3843;-4.7689;
974411428219057;-10.7533;0.5668;-1.2401;
974411438323223;-9.7424;-0.1615;-0.2007;
974411448427442;-7.1698;-0.0730;-2.5935;
974411458544057;-11.3019;0.3009;-3.0272;
974411468648223;-12.2172;-0.6670;-1.5446;
974411478752390;-7.4405;0.2554;-1.3122;
974411488850619;-7.7160;-0.2261;-3.6260;
974411498954786;-9.7089;0.4397;-2.4356;
974411509058952;-7.8212;-0.1926;-3.1807;
974411519149994;-10.4946;0.5333;-4.6442;
974411529254161;-8.4320;-0.2453;-3.8010;
974411539358379;-8.8920;0.1642;-3.3888;
974411549466557;-9.3497;-0.6981;-3.2859;
974411559570723;-10.4731;-0.9808;-2.6393;
974411569674890;-10.2120;-0.2237;-1.5446;
974411579778327;-7.9002;-0.3700;-2.3204;
974411589882494;-10.1521;-1.9678;-3.4250;
974411599986661;-10.8586;-0.4992;-1.8057;
974411610094473;-6.5348;1.0699;-0.0377;
974411620198640;-1.8589;-0.2883;-3.9111;
974411630302807;10.2864;0.9284;-9.7250;
974411640414265;-11.0121;0.5955;-11.2008;
974411650518432;-46.6810;2.1359;0.5850;
974411660622598;-31.4794;1.0651;15.4852;
974411670711088;2.2567;-1.9340;6.1307;
974411680815202;9.1340;-4.6026;-4.9436;
974411690919421;-7.1578;-4.4207;-3.4394;
974411701037286;-17.7960;-1.2849;-4.4743;
974411711141452;-13.6831;2.5813;-2.1434;
974411721245671;-6.0126;1.1489;0.3191;
974411731327182;-5.0713;0.5788;-2.4404;
974411741431348;-8.6381;2.1861;-4.3424;
974411751535515;-13.2135;3.9829;4.0753;
974411761647859;7.7853;4.4210;6.2674;
974411771752077;-6.9159;-1.3424;-32.9495;
974411781856244;-28.5111;-4.7680;-27.5094;
974411791961036;-12.5429;-2.2504;10.6630;
974411802065202;-3.7561;-1.9005;10.6798;
974411812169369;-7.7806;-0.2955;-7.6385;
974411822277807;-10.7007;-0.0754;-6.7666;
974411832382025;-9.1173;-1.0095;4.6023;
974411842486192;-8.6501;1.3238;2.5854;
974411852598275;-9.9150;0.7968;-4.1267;
974411862702494;-8.1829;1.7548;-0.9335;
974411872806713;-5.2508;1.1584;0.6212;
974411882876036;-9.3497;0.5453;-4.4046;
974411892980254;-13.7907;1.2541;-2.7829;
974411903084421;-10.0250;0.9117;-2.4069;
974411913270411;-10.4037;0.3846;-4.4453;
974411923374577;-9.4023;0.3344;-3.2309;
974411933478744;-3.2961;0.0661;-2.5050;
974411943534786;-7.4812;0.3583;-6.2970;
974411953638952;-15.0700;0.5237;-3.7747;
974411963743119;-8.5902;-0.1783;0.0846;
974411973852807;-7.0211;-0.4633;-3.5830;
974411983956973;-8.8490;-0.4346;-2.9602;
974411994061140;-9.1938;-0.8154;0.2378;
974412004144369;-10.6170;-0.8130;-0.7660;
974412014248536;-11.6659;-0.9281;-2.8044;
974412024352702;-9.9245;-0.5495;-1.8583;
974412034482807;-8.2095;0.0661;-1.2233;
974412044586973;-9.5390;-0.9497;-1.7791;
974412054691140;-9.8097;0.4974;-1.8990;
974412064798327;-7.3828;0.0757;-2.2654;
974412074902494;-9.8910;-0.7579;-5.9378;
974412085006661;-9.8240;-0.4178;-4.0095;
974412095091557;-8.6812;-0.0583;-1.8870;
974412105195723;-9.0072;0.0470;-2.9459;
974412115299890;-8.7796;0.1044;-4.7255;
974412125402494;-9.2827;-1.3472;-3.7699;
974412135506661;-11.3880;1.1321;-2.8475;
974412145610827;-9.6299;-0.8970;-0.7708;
974412155733588;-6.3912;0.0135;-2.6632;
974412165837754;-8.6333;0.0733;-3.7268;
974412175941973;4.3310;0.6338;-4.0597;
974412186046869;9.2372;1.2063;-9.9838;
974412196151036;-35.5923;0.2985;-9.2100;
974412206255202;-41.9907;0.4612;11.0919;
974412216337911;-6.1732;0.2291;11.2786;
974412226442077;8.1111;-2.3486;-3.9254;
974412236546244;-3.0254;-3.6087;-3.3793;
974412246669473;-16.2870;-1.1339;-1.8057;
974412256773640;-14.0399;0.0470;-1.7767;
974412266877807;-7.2607;0.3224;-2.8307;
974412276981661;-9.0598;1.2206;-3.1277;
974412287085827;-6.3625;1.2855;-2.7541;
974412297190046;-14.8687;1.9394;2.9088;
974412307278848;5.5624;3.3694;11.0943;
974412317383015;1.2769;1.1919;-22.8093;
974412327487234;-26.5205;-2.2481;-34.6980;
974412337601452;-17.7099;-1.0741;4.0490;
974412347705619;-3.9093;-1.5556;15.0515;
974412357809838;-3.3679;-2.1592;-5.9593;
974412367907182;-12.3344;-2.2385;-13.3014;
974412378011348;-14.9767;-0.7986;1.7279;
974412388115567;-7.3756;1.1417;7.4554;
974412398222077;-7.4955;0.0374;-3.0679;
974412408326296;-10.8156;0.2195;-4.1339;
974412418430463;-5.4449;1.0938;2.3483;
974412428529786;-7.9914;1.1441;-2.7972;
974412438633952;-15.8486;1.2206;-3.1854;
974412448738171;-11.4673;1.2182;0.5468;
974412458849265;-5.1431;0.8614;-3.1352;
974412468953432;-6.3697;-0.0583;-5.9952;
974412479057650;-7.5601;0.8662;-5.2358;
974412489175984;-10.4468;0.1522;-5.7987;
974412499280150;-13.7429;0.2387;-2.4212;
974412509384369;-8.5974;-1.1004;-0.2868;
974412519466765;-6.8462;-0.9951;-3.8345;
974412529570984;-10.0322;-0.8827;-3.4250;
974412539675150;-11.3521;-0.6120;0.5539;
974412549786348;-9.9317;-1.6681;0.6356;
974412559890515;-8.0201;-0.1807;-2.5289;
974412569994734;-8.1613;-0.0368;-3.8584;
974412580094161;-9.9150;-0.7627;-3.3147;
974412590198327;-11.6468;0.3033;-0.0520;
974412600302546;-8.9375;-0.6550;-0.0951;
974412610407182;-7.2081;-0.3485;-4.0406;
974412620511348;-9.2683;0.2841;-5.0946;
974412630615567;-7.9890;0.3296;-3.5782;
974412640723015;-10.2311;-1.1629;-4.3735;
974412650827182;-12.3942;-0.6335;-3.6571;
974412660931400;-8.1230;0.1977;-1.7503;
974412671046504;-8.4440;-0.4513;-3.1062;
974412681150671;-10.2096;0.0685;-3.1543;
974412691254890;-9.8791;-0.1256;-0.8043;
974412701343952;-8.5137;0.0206;-1.7432;
974412711448119;-8.9183;-0.4513;-2.3276;
974412721552338;-11.2349;0.3918;-1.4294;
974412731645827;-9.2297;-0.4920;-1.0199;
974412741749994;-11.5606;0.0159;-2.1721;
974412751854213;-10.3268;0.0589;-1.2978;
974412761988536;-7.4764;0.3392;-1.0798;
974412772092702;-8.7748;0.0565;-4.1339;
974412782196921;-9.1890;-0.3027;-3.5590;
974412792270515;-9.4717;0.3176;-3.8895;
974412802374682;-10.0708;-0.1711;-4.1076;
974412812478900;-7.1961;-0.2022;-3.2740;
974412822652338;-5.5935;-0.8154;-3.8560;
974412832756504;-8.0058;0.6386;-4.7976;
974412842860723;-16.7348;0.5907;-3.3075;
974412852911973;-14.1622;-0.3413;-0.0305;
974412863016192;-4.7070;0.0948;0.6356;
974412873120359;-3.3993;-0.5303;-4.1818;
974412883271140;-8.4658;0.1834;-5.5499;
974412893375307;-13.0412;0.4421;-3.1400;
974412903479525;-11.9536;1.0771;-0.1645;
974412913533015;-9.3449;-0.1591;-1.1252;
974412923637182;-9.6658;0.2722;-3.6236;
974412933741400;-10.7868;0.1929;-0.7875;
974412943869890;-9.6826;0.5955;0.8991;
974412953974057;-7.8954;1.2999;-2.8427;
974412964078275;-6.5157;-0.8034;-5.4969;
974412974143015;-11.2804;1.0842;-5.4682;
974412984247234;-12.1929;0.0254;-1.4868;
974412994351400;-7.2775;0.7585;0.1516;
974413004476973;-6.5085;0.9117;-4.8191;
974413014581140;-10.9786;0.0182;-4.2371;
974413024685359;-9.0359;0.2674;-1.5132;
974413034767494;-9.3784;-0.5949;-3.3242;
974413044871713;-8.5567;0.6936;-3.2668;
974413054975879;-10.0346;-0.8632;-4.0286;
974413065094473;-11.2804;-0.7436;-3.0057;
974413075198640;-10.2957;0.1977;-1.1683;
974413085302859;-9.5581;-0.5399;0.2856;
974413095417182;-7.5841;0.7056;-2.7757;
974413105521348;-11.7284;-0.2788;-4.3041;
974413115625567;-8.5519;1.1297;0.0150;
974413125739890;-6.2474;-1.2132;-2.0764;
974413135844109;-10.5042;-0.3266;-5.4682;
974413145948275;-10.8876;0.4325;-2.2367;
974413156050307;-10.8251;-0.6431;-2.1649;
974413166154473;-8.6357;0.3033;-4.2873;
974413176258692;-1.7752;0.6984;-2.8693;
974413186362911;-8.2789;-0.2596;-5.1377;
974413196467077;-11.3139;0.5357;-4.1841;
974413206571296;-10.4372;0.4469;-3.4777;
974413216653379;-8.7604;-0.6909;-2.8642;
974413226757546;-9.3305;-0.6622;-2.6249;
974413236861765;-9.5390;-1.6971;-1.5398;
974413246990723;-5.3180;-0.8827;-1.4509;
974413257094890;5.5528;0.3870;-5.2840;
974413267199109;-26.1350;0.8207;-6.7307;
974413277296140;-36.0380;-1.4121;5.9557;
974413287400307;-12.1379;-2.2361;13.4010;
974413297504525;6.0224;-1.8646;2.3961;
974413307601348;-3.0852;-0.3676;-5.9713;
974413317705515;-17.8944;-0.3508;-4.3759;
974413327809734;-14.7443;-0.0921;-1.5924;
974413337908432;-4.9899;-0.4872;-0.5575;
974413348012650;-2.5008;-0.1137;-4.6992;
974413358116817;-8.9614;0.3081;-8.8149;
974413368223848;-14.8161;1.8051;-2.8980;
974413378328015;-1.2048;3.1899;7.9633;
974413388432234;1.9044;0.3655;-16.8446;
974413398539004;-17.3650;-2.6073;-28.2159;
974413408643171;-15.7433;-1.3687;-2.8116;
974413418747390;-11.5989;-1.0932;9.2521;
974413428848952;-7.0379;-1.5724;0.4654;
974413438953119;-8.8346;-2.0133;-7.1836;
974413449057338;-12.4588;-1.0789;-1.2811;
974413459180098;-8.0106;0.0398;4.6409;
974413469284265;-8.9423;0.8614;0.7169;
974413479388484;-10.1115;1.3789;-0.1047;
974413489475515;-7.3325;1.4650;0.4199;
974413499579734;-7.9484;1.3597;-3.0464;
974413509683900;-11.8241;2.8881;-3.6838;
974413519816504;-10.1689;2.1048;-2.0883;
974413529920671;-7.4333;1.1273;-4.0167;
974413540024890;-9.4932;0.5788;-6.5892;
974413550099838;-9.9341;0.2339;-4.3424;
974413560204004;-9.5868;0.2818;-2.6177;
974413570308223;-13.2111;0.3057;-2.6201;
974413580408327;-8.2430;0.0230;-0.5360;
974413590512494;-5.6677;0.4086;-1.4390;
974413600616713;-5.2917;-0.1759;-5.0779;
974413610720932;-9.0909;0.4158;-3.9664;
974413620825098;-10.9116;-0.4298;-1.8272;
974413630929317;-9.3257;0.0374;-1.9588;
974413641036973;-8.9686;-0.1137;-3.8943;
974413651141192;-10.3678;-1.3807;-2.1147;
974413661245359;-10.2503;-0.3915;-2.2104;
974413671357911;-12.9021;-0.3147;-2.9746;
974413681462077;-10.0875;-1.2993;-0.5408;
974413691566296;-9.6156;0.0015;-1.7791;
974413701660098;-9.4119;0.1977;-3.0272;
974413711764265;-9.7256;0.3655;-1.9397;
974413721868484;-8.8274;0.9069;-0.6245;
974413731967077;-7.2679;0.9978;-2.2798;
974413742071296;-9.1101;0.3870;-5.1568;
974413752175515;-10.1234;1.0412;-2.8116;
974413762297807;-7.5434;0.8303;-1.6714;
974413772402025;-10.3415;0.9212;-4.7112;
974413782506244;-10.6983;0.4807;-4.3089;
974413792655202;-9.5845;-0.0129;-1.2691;
974413802759369;-8.1733;-0.3218;-3.2453;
974413812863588;-8.2502;-0.4801;-3.9302;
974413822884890;-10.1617;0.0900;-3.4107;
974413832989109;-10.8586;-0.7101;-1.7551;
974413843093275;-10.5927;-1.7258;-1.0893;
974413853219629;-8.1470;-0.4968;-1.2305;
974413863323796;-7.4166;-0.7603;-2.3662;
974413873428015;-10.0322;0.1379;-3.2979;
974413883544682;-11.8433;0.6840;-1.2473;
974413893648848;-8.1589;0.0805;-0.9814;
974413903753067;-7.6319;0.3392;-4.5030;
974413913869734;-9.3425;-0.2812;-4.8526;
974413923973900;-8.9231;0.1092;-2.6847;
974413934078119;-8.2837;1.2565;-2.9794;
974413944154369;-10.1139;-0.5303;-3.7436;
974413954258588;-9.5510;-0.3580;-3.7603;
974413964362754;-10.1067;-0.4705;-2.6895;
974413974466661;-11.4338;-0.4131;-1.8511;
974413984570879;-9.2249;0.0302;-0.7612;
974413994675046;-6.6643;0.3368;-0.8761;
974414004776348;-9.8480;-0.1591;-2.6130;
974414014880515;-11.5534;0.1475;-3.4155;
974414024984734;-9.2994;0.4807;-1.1013;
974414035090671;-8.5041;-0.4801;-1.1994;
974414045194890;-8.3100;0.0541;-2.5002;
974414055299057;-9.6084;0.2770;-3.5590;
974414065410619;-11.5032;-0.3772;-2.5863;
974414075514786;-9.7496;-0.0849;-2.3303;
974414085619004;-8.9901;0.2985;-3.4202;
974414095721557;-11.0384;-0.6024;-3.1086;
974414105825723;-10.1713;-0.2764;-0.9431;
974414115929942;-5.3922;0.5524;-2.1625;
974414126052182;-8.1733;-0.1304;-5.0300;
974414136156348;-9.6060;-0.0440;-3.3434;
974414146260567;-7.2416;-0.4250;-3.1735;
974414156355254;-8.9495;-0.2309;-2.8693;
974414166459421;-11.0743;1.0388;-3.0200;
974414176563640;-11.8409;-0.1998;-2.6417;
974414186635098;-10.2766;-0.6718;-2.6034;
974414196739265;-6.7840;0.6673;-1.6618;
974414206843432;-8.4057;-0.8632;-2.8908;
974414216967182;-11.4506;-0.1184;-3.5327;
974414227071348;-12.4493;-0.1735;-1.4749;
974414237175567;-8.5065;-0.3027;-1.0582;
974414247300984;-4.8891;-0.2142;-1.6857;
974414257405150;-8.1900;0.3631;-3.6188;
974414267509369;-13.1273;0.7223;-0.9909;
974414277621036;-11.9895;0.7175;-1.3504;
974414287725254;-12.2507;0.2483;-2.7972;
974414297829473;-8.1087;-0.2979;-2.2845;
974414307914161;-7.3875;0.0135;-1.2377;
974414318018379;-6.4917;-0.5566;-3.8034;
974414328122598;-8.0632;0.6194;-4.6442;
974414338236348;-9.4406;-0.4202;-5.2238;
974414348340567;-12.6266;-0.6885;-3.8752;
974414358444786;-11.4362;-0.1376;-0.7708;
974414368537598;-6.5874;0.3727;0.1421;
974414378641817;-7.1291;-0.0392;-4.3591;
974414388746036;-11.3521;0.2387;-5.5328;
974414398836661;-11.0121;-1.3759;-0.5168;
974414408940879;-7.5147;0.2100;-2.6752;
974414419045098;-11.9198;-0.4753;-4.2443;
974414429163171;-10.4085;-0.4083;-0.3491;
974414439267390;-6.3888;0.0829;-0.8737;
974414449371609;-8.1206;0.3488;-3.3984;
974414459488119;-9.0503;0.4878;-2.7278;
974414469592338;-10.1737;0.0230;-2.3204;
974414479696557;-8.9734;0.8710;-4.3184;
974414489808432;-10.8251;0.2698;-3.2118;
974414499912650;-8.6046;0.0159;-1.6211;
974414510016817;-7.5936;-0.4729;-3.2572;
974414520096661;-9.2345;0.1762;-3.7579;
974414530200879;-10.0681;0.2411;-1.2763;
974414540305098;-10.9786;-1.0334;-3.1615;
974414550412598;-10.4922;0.2746;-2.2678;
974414560516817;-9.0933;-0.9162;-0.4161;
974414570621036;-7.4118;-0.5183;-1.4318;
974414580727182;-9.2584;0.3081;-2.9411;
974414590831400;-10.7462;-0.0945;-2.2319;
974414600935619;-7.4716;0.7513;-0.6987;
974414611043536;-8.2693;0.3105;-3.6694;
974414621147754;-10.5377;0.2506;-5.2621;
974414631251973;-9.9150;0.2889;-1.9780;
974414641358432;-6.9159;-0.2477;-2.5146;
974414651462650;-10.2838;-0.8297;-5.5065;
974414661566869;-13.3047;-1.0262;-2.1601;
974414671673171;-13.0196;0.3105;-0.9072;
974414681777338;-13.9490;-1.4480;-1.4103;
974414691881557;-12.5596;0.4854;1.8691;
974414701969682;-11.8026;-0.0730;2.7410;
974414712073900;-9.6395;-0.8297;1.1578;
974414722178119;-3.4113;0.7080;-1.9134;
974414732271140;-6.3120;0.1570;-3.7795;
974414742375359;-9.0718;0.7175;-5.5546;
974414752479577;-8.7628;1.1034;-6.8794;
974414762663119;-6.2234;0.1522;-5.0034;
974414772767338;-4.7695;0.2650;-7.3869;
974414782871504;-10.4755;0.8399;-9.7849;
974414792910411;-12.3248;0.2100;-6.2492;
974414803014629;-8.3172;-1.1916;-3.0607;
974414813118848;-7.8500;-0.5997;-4.1243;
974414823274057;-11.2732;-1.9340;-6.5366;
974414833378275;-11.4936;-0.7005;0.7241;
974414843482442;-5.8642;-0.4274;3.6012;
974414853559369;-6.1636;-0.1711;-0.5360;
974414863663588;-11.6228;0.6745;-1.2978;
974414873767754;-14.1120;1.3334;0.6978;
974414883871348;-14.5597;1.3430;3.1029;
974414893975567;-7.8667;1.1991;1.6896;
974414904079734;-3.6362;-0.5590;-1.7312;
974414914157702;-4.1369;0.7920;-4.6394;
974414924261921;-4.8891;0.4205;-8.4242;
974414934366140;-5.3013;-0.1902;-11.5552;
974414944493223;-6.2186;0.6147;-7.6385;
974414954597442;-5.4999;0.7442;-6.3763;
974414964701661;11.9704;1.1991;-8.9058;
974414974783536;-6.5276;1.2975;-11.9818;
974414984887754;-66.0201;-1.2826;4.2957;
974414994991973;-40.0119;-0.3437;20.5253;
974415005093744;18.1101;-9.8154;6.2097;
974415015197963;10.4827;-7.5829;-1.2568;
974415025302182;-19.8778;0.5453;3.0622;
974415035412494;-20.3976;0.9571;1.3062;
974415045516713;-4.5108;2.4162;6.9069;
974415055620932;-1.4922;3.1226;2.2092;
974415065721557;-7.7686;3.8151;-3.6885;
974415075825775;-15.9515;5.6237;0.3096;
974415085929994;15.4702;6.1699;12.1508;
974415096046452;8.7174;3.0102;-47.0806;
974415106150671;-46.1755;-6.7202;-51.4379;
974415116254890;-23.2484;-5.6830;7.3262;
974415126353640;3.0254;-5.0770;16.5990;
974415136457859;-0.7235;-1.3543;-5.7054;
974415146562025;-13.2999;-1.8742;-7.0851;
974415156664265;-20.0216;-0.4202;10.4665;
974415166768484;-4.1922;2.1383;9.5061;
974415176872650;-1.1043;0.4540;-7.4710;
974415186996140;-12.7801;0.7633;-5.6073;
974415197100359;-10.0394;3.7217;6.4493;
974415207204525;-5.9743;1.0819;0.9278;
974415217294057;-15.4582;2.4473;-1.1707;
974415227398275;-8.6907;1.5849;-1.7001;
974415237502494;-10.5688;-2.1425;-8.6830;
974415247614577;-14.5693;0.3823;-5.2959;
974415257718796;-4.2903;-0.3891;0.5204;
974415267822963;-4.1082;-1.5030;-7.0875;
974415277924994;-13.0196;0.2171;-9.2148;
974415288029161;-7.7901;0.7394;1.0666;
974415298133379;-6.6069;-0.4801;-1.0439;
974415308227911;-8.8394;0.2530;-6.8169;
974415318332077;-8.0943;-0.0826;-1.4605;
974415328436296;-9.4956;-0.9257;-1.7886;
974415338553952;-14.6246;-1.9463;-2.8259;
974415348658119;-10.3630;-2.1185;-0.1501;
974415358762338;-6.3649;-1.6513;-1.4486;
974415368856765;-11.3043;-0.7268;-3.8130;
974415378960932;-10.5401;-0.0057;-0.8402;
974415389065150;-9.9437;0.5261;0.9494;
974415399174161;-9.3353;0.3392;-1.3002;
974415409278327;-8.5926;0.9141;-1.4031;
974415419382546;-10.3487;1.9537;-4.0669;
974415429476088;-8.6237;0.6170;-3.3769;
974415439580254;-8.2837;0.5501;-3.5853;
974415449684421;-12.0733;-0.4442;-5.8947;
974415459801504;-11.2899;-0.8154;-3.3338;
974415469905671;-7.4094;0.3751;-1.2691;
974415480009890;-6.6619;0.5668;-3.2788;
974415490115515;-12.5883;0.1594;-3.0296;
974415500219682;-11.9414;0.3583;0.6547;
974415510323848;-7.6534;1.4746;-0.7636;
974415520407077;-7.9890;0.5237;-3.4944;
974415530511244;-8.7099;-0.2189;-2.9028;
974415540615411;-8.3387;0.0637;-2.2319;
974415550740827;-10.0322;-0.2692;-3.9975;
974415560844994;-8.9638;-0.3867;-4.2108;
974415570949213;-10.0756;-0.8584;-3.9544;
974415581054577;-12.9428;0.0589;-2.4260;
974415591158744;-8.9471;1.3358;1.6487;
974415601262963;-7.3804;0.7920;-2.3614;
974415611351244;-10.3534;0.2865;-4.9412;
974415621455411;-10.4659;-0.3700;-2.4188;
974415631559629;-8.5256;0.1762;-0.5097;
974415641677598;-7.2296;0.6745;-3.2907;
974415651781817;-9.4621;0.1044;-2.8789;
974415661885984;-11.3761;0.5070;-1.9899;
974415671987077;-10.2670;0.5333;-1.8176;
974415682091244;-9.4908;1.1130;-1.6881;
974415692195411;-9.5940;0.3416;-1.7551;
974415702291557;-8.4009;0.4205;-1.8488;
974415712395723;-6.5635;0.4110;-3.5040;
974415722499942;-9.8049;0.4807;-4.9196;
974415732670723;-9.2130;-0.2644;-3.1014;
974415742774890;-9.7448;-0.3891;-3.3888;
974415752879057;-9.7376;0.0039;-2.3997;
974415762919786;-10.0059;0.0254;-1.5637;
974415773024004;-10.0394;-0.6455;-2.5552;
974415783128171;-9.5052;-0.2644;-1.9086;
974415793274577;-6.2713;-0.0440;-1.6857;
974415803378744;-9.6371;-0.5853;-2.7733;
974415813482963;-14.3297;0.1379;-2.3399;
974415823542807;-10.9187;0.9308;-0.9885;
974415833646973;-9.6467;-0.2046;0.1804;
974415843751192;-5.9815;-0.4370;-1.4557;
974415853836973;-7.5362;-0.2524;-4.1172;
974415863941140;-8.4945;-0.3700;-4.0549;
974415874045307;-9.4262;0.0781;-3.7866;
974415884185515;-9.8192;0.2267;-4.5006;
974415894289682;-10.9355;0.7128;-2.5552;
974415904393900;-9.2058;0.1259;-1.1779;
974415914481921;-9.4143;-0.1184;-2.2845;
974415924586088;-10.9786;0.1570;-3.5949;
974415934690307;-9.1173;-1.2347;-2.8187;
974415944789786;-7.9217;-1.2347;-2.6847;
974415954893952;-10.3750;-1.1533;-2.9985;
974415964998171;-10.9379;-0.4442;-1.3672;
974415975126140;-9.3664;0.1020;-0.6604;
974415985230307;-7.1483;0.8327;-0.7397;
974415995334525;-7.8715;0.7609;-2.0883;
974416005405619;-9.5028;0.8207;-2.8403;
974416015509786;-8.5639;1.2063;-3.5901;
974416025614004;-6.2426;0.3464;-5.1544;
974416035729994;-8.7461;0.1355;-6.3763;
974416045834161;-8.9590;-1.0884;-5.8804;
974416055938379;-10.6050;-0.1974;-2.7805;
974416066042598;-13.9537;-0.8489;-1.9038;
974416076146765;-12.7176;0.4421;0.6236;
974416086250984;-8.3698;-0.4394;0.1253;
974416096365515;-8.3052;0.1331;-0.5384;
974416106469682;-6.5109;-0.3170;-0.4570;
974416116573900;-8.5304;-0.0993;-3.2764;
974416126669786;-11.6157;1.4554;-2.1218;
974416136773952;-10.3053;0.1522;-0.4328;
974416146878171;-5.7658;-0.0105;-3.3147;
974416156979786;-8.9447;0.9906;-4.5293;
974416167083952;-9.3066;-0.0682;-3.8871;
974416177188171;-10.7821;-0.0176;-5.2525;
974416187305515;-11.1392;-0.0081;-4.1602;
974416197409682;-8.9853;-0.7101;-3.8297;
974416207513848;-9.5291;-1.2132;-3.6188;
974416217614161;-9.4669;-0.2166;-2.2845;
974416227718327;-9.5366;-0.1065;-1.2835;
974416237822546;-5.4042;0.0637;-0.9479;
974416247934057;-6.6523;-0.6646;-3.9111;
974416258038223;-13.6998;1.0531;-3.1062;
974416268142390;-10.5257;-0.5351;-0.5312;
974416278227598;-3.1741;0.6625;-3.7436;
974416288331765;20.1604;1.0699;-8.1344;
974416298435932;-28.6717;0.7442;-8.5346;
974416308545202;-60.0933;-1.5293;3.7639;
