Sensor: bmi160 Gyroscope Non-wakeup
Vendor: BOSCH
TimestampGyro [ns]; GyroX [rad/s]; GyroY [rad/s]; GyroZ [rad/s]
1182616988813031;0.0120;0.0044;0.0108;
1182616998916989;0.0077;-0.0009;0.0044;
1182617009018344;0.0056;-0.0031;0.0076;
1182617019090427;0.0120;-0.0009;0.0087;
1182617029210635;0.0194;0.0001;0.0076;
1182617039313552;0.0248;-0.0009;0.0076;
1182617049446989;0.0248;-0.0020;0.0076;
1182617059487041;0.0205;-0.0009;0.0065;
1182617069619021;0.0120;0.0012;0.0055;
1182617079701677;0.0024;0.0001;0.0044;
1182617089807302;-0.0019;0.0023;0.0044;
1182617099899333;-0.0019;0.0023;0.0055;
1182617110009437;0.0003;0.0012;0.0055;
1182617120110896;-0.0029;0.0012;0.0055;
1182617130238031;-0.0029;0.0001;0.0055;
1182617140313135;-0.0008;-0.0009;0.0076;
1182617150386000;-0.0019;0.0001;0.0087;
1182617160510010;-0.0019;0.0012;0.0076;
1182617170663291;-0.0008;0.0001;0.0076;
1182617180707406;-0.0008;0.0012;0.0087;
1182617190810323;-0.0019;0.0012;0.0108;
1182617200907771;-0.0008;0.0023;0.0108;
1182617211028656;-0.0029;0.0012;0.0108;
1182617221131469;-0.0040;0.0012;0.0140;
1182617231233448;-0.0029;0.0023;0.0140;
1182617241338187;-0.0029;0.0012;0.0140;
1182617251422041;-0.0061;0.0012;0.0161;
1182617261506521;-0.0051;0.0023;0.0182;
1182617271609646;-0.0040;0.0012;0.0182;
1182617281715062;-0.0040;0.0012;0.0182;
1182617291813604;-0.0040;0.0012;0.0182;
1182617301937458;-0.0061;0.0012;0.0172;
1182617312050062;-0.0040;0.0012;0.0140;
1182617322125479;-0.0019;0.0023;0.0119;
1182617332236729;-0.0029;0.0033;0.0097;
1182617342359802;-0.0029;0.0012;0.0087;
1182617352421156;-0.0040;0.0023;0.0065;
1182617362531156;-0.0029;0.0023;0.0055;
1182617372634906;0.0003;0.0012;0.0055;
1182617382730479;-0.0008;0.0012;0.0033;
1182617392836573;-0.0029;0.0012;0.0012;
1182617402956364;-0.0019;0.0001;0.0012;
1182617413052927;-0.0008;0.0012;-0.0009;
1182617423129958;0.0013;0.0012;-0.0009;
1182617433236416;-0.0008;0.0012;-0.0009;
1182617443334437;-0.0008;0.0001;0.0001;
1182617453438708;0.0003;0.0001;0.0001;
1182617463544437;0.0003;0.0012;0.0023;
1182617473642146;-0.0008;-0.0009;0.0023;
1182617483742771;-0.0008;0.0001;0.0023;
1182617493847823;-0.0008;-0.0009;0.0033;
1182617503950166;-0.0008;-0.0009;0.0055;
1182617514051989;-0.0019;-0.0009;0.0055;
1182617524152250;-0.0019;0.0001;0.0065;
1182617534257458;-0.0008;0.0001;0.0076;
1182617544348604;-0.0019;0.0001;0.0097;
1182617554447666;-0.0029;0.0001;0.0108;
1182617564571625;-0.0029;0.0012;0.0119;
1182617574661833;-0.0019;0.0001;0.0129;
1182617584760687;-0.0040;0.0001;0.0150;
1182617594859646;-0.0040;0.0012;0.0150;
1182617604959854;-0.0040;0.0012;0.0182;
1182617615070062;-0.0040;0.0012;0.0236;
1182617625172354;-0.0040;0.0001;0.0236;
1182617635269333;-0.0051;0.0001;0.0225;
1182617645363812;-0.0051;0.0012;0.0246;
1182617655470271;-0.0051;0.0012;0.0268;
1182617665569489;-0.0040;0.0001;0.0257;
1182617675667771;-0.0040;0.0001;0.0278;
1182617685773812;-0.0051;-0.0009;0.0289;
1182617695874437;-0.0051;0.0001;0.0300;
1182617705980271;-0.0040;0.0001;0.0300;
1182617716081104;-0.0051;-0.0009;0.0289;
1182617726179646;-0.0061;-0.0009;0.0289;
1182617736282354;-0.0040;0.0001;0.0310;
1182617746397094;-0.0051;0.0012;0.0300;
1182617756478812;-0.0061;0.0012;0.0310;
1182617766577666;-0.0072;0.0023;0.0310;
1182617776680583;-0.0072;0.0012;0.0300;
1182617786775062;-0.0072;-0.0009;0.0310;
1182617796876208;-0.0083;-0.0009;0.0321;
1182617806981937;-0.0083;-0.0009;0.0332;
1182617817099646;-0.0061;-0.0009;0.0342;
1182617827178396;-0.0061;-0.0009;0.0353;
1182617837284646;-0.0072;0.0001;0.0364;
1182617847385166;-0.0083;0.0001;0.0364;
1182617857492562;-0.0093;0.0012;0.0364;
1182617867590479;-0.0093;0.0023;0.0395;
1182617877692979;-0.0104;0.0012;0.0417;
1182617887791156;-0.0115;0.0012;0.0438;
1182617897886989;-0.0104;0.0012;0.0470;
1182617907994333;-0.0115;0.0012;0.0481;
1182617918093500;-0.0125;0.0012;0.0502;
1182617928195479;-0.0125;0.0001;0.0523;
1182617938296000;-0.0136;-0.0009;0.0545;
1182617948391729;-0.0125;-0.0009;0.0555;
1182617958494489;-0.0136;0.0001;0.0566;
1182617968586937;-0.0146;0.0023;0.0577;
1182617978698812;-0.0157;0.0023;0.0577;
1182617988799125;-0.0146;0.0023;0.0577;
1182617998898604;-0.0157;0.0033;0.0577;
1182618009001104;-0.0157;0.0033;0.0577;
1182618019104125;-0.0157;0.0033;0.0577;
1182618029204021;-0.0146;0.0023;0.0587;
1182618039307146;-0.0146;0.0023;0.0587;
1182618049454541;-0.0157;0.0033;0.0577;
1182618059525271;-0.0136;0.0023;0.0577;
1182618069595844;-0.0136;0.0012;0.0566;
1182618079696833;-0.0136;0.0012;0.0577;
1182618089797771;-0.0146;0.0044;0.0555;
1182618099896677;-0.0146;0.0033;0.0545;
1182618109997666;-0.0136;0.0033;0.0545;
1182618120098656;-0.0136;0.0023;0.0555;
1182618130278031;-0.0157;0.0012;0.0555;
1182618140378969;-0.0136;0.0023;0.0555;
1182618150479958;-0.0146;0.0001;0.0555;
1182618160515062;-0.0125;0.0012;0.0545;
1182618170616052;-0.0125;0.0012;0.0545;
1182618180716989;-0.0125;0.0033;0.0545;
1182618190888864;-0.0125;0.0023;0.0545;
1182618200989802;-0.0136;0.0023;0.0545;
1182618211090739;-0.0136;0.0012;0.0555;
1182618221119021;-0.0136;0.0012;0.0545;
1182618231219906;-0.0146;0.0012;0.0545;
1182618241320896;-0.0136;0.0001;0.0545;
1182618251459698;-0.0115;-0.0009;0.0545;
1182618261560635;-0.0115;0.0001;0.0555;
1182618271661573;-0.0104;0.0001;0.0545;
1182618281728552;-0.0125;-0.0009;0.0566;
1182618291829489;-0.0115;0.0001;0.0555;
1182618301930479;-0.0125;-0.0009;0.0566;
1182618312031000;-0.0146;0.0001;0.0566;
1182618322131937;-0.0136;0.0001;0.0566;
1182618332232875;-0.0157;0.0023;0.0577;
1182618342341833;-0.0146;0.0033;0.0566;
1182618352442719;-0.0136;0.0023;0.0577;
1182618362543708;-0.0136;0.0023;0.0577;
1182618372646312;-0.0136;0.0001;0.0566;
1182618382747250;-0.0125;0.0012;0.0566;
1182618392848187;-0.0146;0.0012;0.0577;
1182618402936364;-0.0146;-0.0009;0.0555;
1182618413037354;-0.0136;-0.0009;0.0577;
1182618423138291;-0.0157;0.0001;0.0566;
1182618433252666;-0.0157;0.0001;0.0566;
1182618443353604;-0.0146;0.0012;0.0566;
1182618453454594;-0.0146;0.0023;0.0577;
1182618463566260;-0.0157;0.0033;0.0587;
1182618473667198;-0.0168;0.0044;0.0587;
1182618483768187;-0.0157;0.0033;0.0598;
1182618493859437;-0.0146;0.0012;0.0598;
1182618503960323;-0.0168;0.0023;0.0587;
1182618514061312;-0.0168;0.0023;0.0598;
1182618524161937;-0.0146;0.0023;0.0619;
1182618534262875;-0.0136;0.0023;0.0609;
1182618544363812;-0.0157;0.0012;0.0619;
1182618554469437;-0.0168;0.0001;0.0619;
1182618564570375;-0.0136;0.0001;0.0630;
1182618574671312;-0.0157;0.0001;0.0630;
1182618584763396;-0.0157;0.0012;0.0630;
1182618594864333;-0.0157;0.0012;0.0640;
1182618604965271;-0.0168;0.0001;0.0651;
1182618615072666;-0.0168;0.0012;0.0662;
1182618625173604;-0.0189;0.0033;0.0651;
1182618635274541;-0.0168;0.0033;0.0672;
1182618645374073;-0.0157;0.0033;0.0662;
1182618655475010;-0.0178;0.0012;0.0672;
1182618665575948;-0.0178;-0.0009;0.0694;
1182618675684021;-0.0168;-0.0009;0.0683;
1182618685784958;-0.0146;0.0001;0.0672;
1182618695885896;-0.0157;0.0001;0.0683;
1182618705981000;-0.0157;0.0001;0.0672;
1182618716081937;-0.0157;0.0001;0.0672;
1182618726182875;-0.0136;-0.0009;0.0672;
1182618736284541;-0.0157;-0.0009;0.0672;
1182618746385479;-0.0136;-0.0009;0.0662;
1182618756486469;-0.0125;0.0012;0.0662;
1182618766587771;-0.0115;0.0012;0.0704;
1182618776688708;-0.0115;-0.0009;0.0726;
1182618786789646;-0.0125;-0.0031;0.0736;
1182618796888500;0.0013;-0.0041;0.0790;
1182618806989385;0.0365;-0.0041;0.0864;
1182618817090375;0.0791;-0.0031;0.0971;
1182618827193500;0.1185;-0.0020;0.1088;
1182618837294437;0.1601;-0.0020;0.1173;
1182618847395375;0.1961;-0.0041;0.1248;
1182618857501937;0.2292;-0.0095;0.1354;
1182618867602875;0.2654;-0.0095;0.1429;
1182618877703812;0.3059;-0.0095;0.1503;
1182618887798916;0.3431;-0.0084;0.1557;
1182618897899854;0.3730;-0.0073;0.1620;
1182618908000791;0.3953;-0.0084;0.1674;
1182618918102406;0.4177;-0.0095;0.1736;
1182618928203291;0.4539;-0.0126;0.1822;
1182618938304281;0.5019;-0.0148;0.1917;
1182618948400427;0.5562;-0.0148;0.2024;
1182618958501416;0.6201;-0.0169;0.2152;
1182618968602354;0.7000;-0.0158;0.2280;
1182618978717041;0.7639;-0.0190;0.2365;
1182618988817979;0.8181;-0.0190;0.2578;
1182618998918916;0.8778;-0.0116;0.2610;
1182619009014021;0.8671;-0.0137;0.2738;
1182619019114958;0.8032;-0.0180;0.2695;
1182619029215896;0.6723;-0.0244;0.2620;
1182619039317875;0.5338;-0.0201;0.2567;
1182619049418812;0.4582;-0.0052;0.2503;
1182619059519802;0.2835;-0.0073;0.2312;
1182619069634750;0.0035;-0.0137;0.2120;
1182619079736052;-0.1126;0.0023;0.1843;
1182619089837354;-0.1627;0.0204;0.1800;
1182619099919021;-0.2362;0.0257;0.1704;
1182619110020323;-0.2746;0.0364;0.1503;
1182619120121625;-0.3001;0.0364;0.1407;
1182619130298500;-0.3044;0.0225;0.1418;
1182619140399802;-0.2724;0.0119;0.1482;
1182619150501156;-0.2128;0.0076;0.1546;
1182619160543812;-0.1371;0.0033;0.1578;
1182619170645114;-0.0700;-0.0031;0.1620;
1182619180746416;-0.0093;-0.0052;0.1652;
1182619190854854;0.0194;0.0012;0.1578;
1182619200956208;0.0109;0.0108;0.1461;
1182619211057510;0.0088;0.0076;0.1375;
1182619221147094;0.0077;0.0044;0.1269;
1182619231248396;0.0077;0.0129;0.1130;
1182619241349698;0.0056;0.0161;0.1088;
1182619251437198;-0.0008;0.0108;0.1003;
1182619261538552;-0.0093;0.0150;0.0981;
1182619271639854;-0.0136;0.0289;0.0917;
1182619281741469;-0.0146;0.0417;0.0790;
1182619291842823;-0.0317;0.0321;0.0683;
1182619301944125;-0.0647;0.0065;0.0662;
1182619312071364;-0.0594;-0.0095;0.0704;
1182619322172719;0.0120;-0.0063;0.0704;
1182619332274021;0.0748;0.0097;0.0672;
1182619342350844;0.0706;0.0097;0.0640;
1182619352452146;0.0855;0.0023;0.0577;
1182619362553448;0.1164;0.0140;0.0609;
1182619372657771;0.1142;0.0172;0.0630;
1182619382759073;0.0802;0.0001;0.0619;
1182619392860375;0.0493;-0.0297;0.0587;
1182619403001156;0.0631;-0.0403;0.0545;
1182619413102458;0.0631;-0.0233;0.0513;
1182619423203760;0.0599;-0.0073;0.0502;
1182619433255739;0.0599;0.0023;0.0449;
1182619443357094;0.0589;0.0033;0.0438;
1182619453458396;0.0546;-0.0020;0.0438;
1182619463568291;0.0578;0.0023;0.0470;
1182619473669594;0.0631;0.0044;0.0502;
1182619483770896;0.0706;-0.0052;0.0438;
1182619493874229;0.0802;0.0087;0.0374;
1182619503927198;0.0738;0.0289;0.0353;
1182619514028552;0.0642;0.0182;0.0364;
1182619524129854;0.0567;-0.0095;0.0364;
1182619534274073;0.0557;-0.0286;0.0438;
1182619544375375;0.0642;-0.0265;0.0545;
1182619554476677;0.0716;-0.0233;0.0577;
1182619564594333;0.0791;-0.0265;0.0566;
1182619574695635;0.0823;-0.0212;0.0555;
1182619584796937;0.0780;-0.0158;0.0534;
1182619594889021;0.0663;-0.0286;0.0502;
1182619604990323;0.0620;-0.0276;0.0417;
1182619615091625;0.0663;-0.0052;0.0438;
1182619625193812;0.0748;-0.0031;0.0491;
1182619635295114;0.0823;-0.0276;0.0502;
1182619645396416;0.0866;-0.0403;0.0406;
1182619655500896;0.0834;-0.0361;0.0321;
1182619665602198;0.0770;-0.0254;0.0257;
1182619675703500;0.0716;-0.0137;0.0225;
1182619685799333;0.0738;-0.0169;0.0332;
1182619695900635;0.0802;-0.0286;0.0438;
1182619706001937;0.0834;-0.0457;0.0459;
1182619716096208;0.0866;-0.0627;0.0502;
1182619726197510;0.0855;-0.0680;0.0523;
1182619736298812;0.0866;-0.0595;0.0545;
1182619746413916;0.0791;-0.0446;0.0502;
1182619756515271;0.0620;-0.0414;0.0566;
1182619766616573;0.0642;-0.0425;0.0651;
1182619776698552;0.0684;-0.0318;0.0619;
1182619786799906;0.0695;-0.0372;0.0598;
1182619796901208;0.0535;-0.0563;0.0566;
1182619806990844;0.0067;-0.0489;0.0449;
1182619817092198;-0.0732;-0.0169;0.0364;
1182619827193500;-0.1702;-0.0169;0.0300;
1182619837304437;-0.2554;-0.0254;0.0300;
1182619847405739;-0.3214;-0.0222;0.0119;
1182619857507041;-0.3651;-0.0457;-0.0041;
1182619867622146;-0.4003;-0.0723;-0.0180;
1182619877723448;-0.4216;-0.0648;-0.0382;
1182619887824750;-0.4555;-0.0467;-0.0595;
1182619897918604;-0.5088;-0.0680;-0.0691;
1182619908019906;-0.5205;-0.1126;-0.0808;
1182619918121208;-0.4907;-0.1563;-0.0936;
1182619928228656;-0.4587;-0.2021;-0.0840;
1182619938329958;-0.4736;-0.1957;-0.0787;
1182619948431260;-0.4949;-0.1265;-0.1181;
1182619958528187;-0.5663;-0.0350;-0.1597;
1182619968629489;-0.6718;0.0278;-0.1746;
1182619978730791;-0.7080;0.0204;-0.1639;
1182619988836104;-0.6249;0.0065;-0.1799;
1182619998937406;-0.5461;0.0182;-0.2055;
1182620009038708;-0.4917;0.0182;-0.2129;
1182620019131989;-0.4024;-0.0031;-0.2023;
1182620029233291;-0.2863;-0.0116;-0.1884;
1182620039334594;-0.1893;-0.0169;-0.1788;
1182620049457094;-0.1073;-0.0308;-0.1810;
1182620059558448;-0.0115;-0.0489;-0.1810;
1182620069659750;0.0407;-0.0414;-0.1778;
1182620079737666;0.0365;-0.0031;-0.1692;
1182620089839021;0.0674;0.0172;-0.1522;
1182620099940323;0.1601;-0.0244;-0.1352;
1182620110041052;0.2760;-0.0723;-0.1277;
1182620120142406;0.3421;-0.0585;-0.1341;
1182620130243708;0.3250;0.0001;-0.1362;
1182620140341521;0.2835;0.0150;-0.1181;
1182620150442823;0.2675;0.0097;-0.1000;
1182620160544125;0.2419;0.0545;-0.1149;
1182620170674229;0.2132;-0.0361;-0.1032;
1182620180775583;0.2270;-0.0702;-0.1426;
1182620190876885;0.1739;-0.0158;-0.1533;
1182620200934125;0.0322;-0.0318;-0.1181;
1182620211035479;0.0248;-0.0755;-0.1160;
1182620221136729;0.0152;-0.0734;-0.1479;
1182620231256260;-0.0125;0.0182;-0.1714;
1182620241357614;-0.0935;0.0768;-0.1543;
1182620251458864;-0.1212;0.0001;-0.1575;
1182620261542302;-0.0136;-0.0670;-0.1959;
1182620271643656;-0.0296;-0.0212;-0.2076;
1182620281744958;-0.1244;0.0481;-0.1799;
1182620291850844;-0.1169;0.0704;-0.1895;
1182620301952146;-0.0509;0.0417;-0.2385;
1182620312053448;-0.0296;0.0087;-0.2310;
1182620322179177;-0.0562;0.0001;-0.1820;
1182620332280531;-0.0477;-0.0084;-0.1895;
1182620342381781;-0.0104;0.0204;-0.2321;
1182620352450896;-0.0200;0.0619;-0.2172;
1182620362552250;-0.0072;0.0672;-0.1831;
1182620372653552;0.0993;0.0193;-0.2118;
1182620382776833;0.2110;0.0055;-0.2332;
1182620392878135;0.2387;0.0385;-0.2065;
1182620402979437;0.2515;0.0992;-0.1863;
1182620413077510;0.3250;0.1248;-0.1916;
1182620423178864;0.3591;0.1152;-0.1799;
1182620433280166;0.3410;0.0885;-0.1820;
1182620443379646;0.3325;0.0502;-0.2108;
1182620453480948;0.2739;0.0214;-0.2406;
1182620463582250;0.1483;0.0033;-0.2481;
1182620473690687;0.0738;0.0225;-0.2683;
1182620483791989;0.0716;0.0587;-0.2981;
1182620493893291;0.0791;0.0470;-0.2875;
1182620503986729;0.0695;0.0097;-0.2481;
1182620514088291;0.1047;0.0129;-0.2470;
1182620524189854;0.1473;0.0161;-0.2715;
1182620534294854;0.2153;-0.0361;-0.2353;
1182620544396416;0.3623;-0.0839;-0.1831;
1182620554497979;0.5977;-0.0617;-0.1533;
1182620564599281;0.7628;-0.0158;-0.1213;
1182620574700844;0.8277;0.0790;-0.0648;
1182620584802406;0.8564;0.1173;-0.0254;
1182620594888864;0.8746;0.1184;-0.0158;
1182620604990427;0.8778;0.1535;-0.0063;
1182620615091989;0.8192;0.0715;0.0640;
1182620625195635;0.8330;-0.0052;0.1013;
1182620635297198;0.7957;-0.0052;0.0907;
1182620645398760;0.6936;-0.0531;0.1056;
1182620655508344;0.6020;-0.0988;0.1482;
1182620665609906;0.5157;-0.1052;0.1610;
1182620675711469;0.4134;-0.0786;0.1312;
1182620685812823;0.2792;-0.0617;0.1141;
1182620695914385;0.1558;-0.0775;0.1333;
1182620706015948;0.1164;-0.0372;0.1237;
1182620716122510;0.1068;0.0332;0.0790;
1182620726224073;0.0866;0.0065;0.0694;
1182620736325635;0.0322;-0.0276;0.0992;
1182620746396469;0.0482;0.0172;0.1035;
1182620756498031;0.0908;-0.0137;0.0736;
1182620766599594;0.1004;-0.0903;0.0587;
1182620776717927;0.1377;-0.0734;0.0672;
1182620786819489;0.1462;-0.0478;0.0726;
1182620796921052;0.1356;-0.0734;0.0619;
1182620807028760;0.1696;-0.0850;0.0385;
1182620817130323;0.2015;-0.0553;0.0523;
1182620827231885;0.2196;-0.0254;0.0768;
1182620837325635;0.2771;-0.0286;0.0875;
1182620847427198;0.3186;-0.0585;0.0811;
1182620857528760;0.3815;-0.0329;0.0885;
1182620867639021;0.4497;-0.0116;0.1354;
1182620877740583;0.5136;-0.0361;0.1779;
1182620887842146;0.5711;-0.0297;0.1811;
1182620897940427;0.5445;-0.0286;0.2035;
1182620908041989;0.4369;-0.0382;0.2429;
1182620918143552;0.3474;-0.0265;0.2301;
1182620928243344;0.2185;-0.0627;0.1843;
1182620938344906;0.0802;-0.1190;0.1822;
1182620948446469;-0.0125;-0.0850;0.2056;
1182620958536052;-0.1531;-0.0403;0.2035;
1182620968637614;-0.2692;-0.0489;0.1482;
1182620978739177;-0.3917;-0.0435;0.1205;
1182620988841781;-0.4992;-0.0063;0.1184;
1182620998943344;-0.5514;0.0055;0.0907;
1182621009044906;-0.6047;-0.0041;0.0459;
1182621019155323;-0.6632;0.0033;0.0395;
1182621029256885;-0.6856;0.0470;0.0193;
1182621039358448;-0.6451;0.0577;-0.0254;
1182621049457458;-0.6228;0.0214;-0.0489;
1182621059559021;-0.5887;0.0310;-0.0510;
1182621069660531;-0.4630;0.0587;-0.0766;
1182621079756573;-0.3236;0.0055;-0.0989;
1182621089858135;-0.2064;-0.0467;-0.0904;
1182621099959698;-0.0253;0.0012;-0.0904;
1182621110061677;0.1260;0.0214;-0.0979;
1182621120163239;0.1876;-0.0158;-0.0766;
1182621130264802;0.2824;-0.0095;-0.0755;
1182621140350114;0.3474;0.0204;-0.0968;
1182621150451677;0.3612;0.0150;-0.0702;
1182621160553239;0.3495;-0.0148;-0.0510;
1182621170715844;0.3197;-0.0020;-0.0776;
1182621180817354;0.2260;0.0023;-0.0819;
1182621190918916;0.1228;-0.0425;-0.0766;
1182621200961156;0.0684;-0.0414;-0.0989;
1182621211062666;0.0354;-0.0308;-0.1128;
1182621221164229;-0.0285;-0.0499;-0.0915;
1182621231305010;-0.0573;-0.0212;-0.0925;
1182621241406573;-0.1222;0.0129;-0.0936;
1182621251508083;-0.1670;-0.0116;-0.0617;
1182621261559802;-0.2032;-0.0116;-0.0489;
1182621271661364;-0.2884;0.0395;-0.0531;
1182621281762927;-0.3726;0.0438;-0.0308;
1182621291867198;-0.4470;0.0140;-0.0265;
1182621301968760;-0.5535;0.0353;-0.0276;
1182621312070323;-0.6419;0.0523;-0.0095;
1182621322183135;-0.7037;0.0150;-0.0169;
1182621332284698;-0.7719;-0.0158;-0.0457;
1182621342386260;-0.8049;-0.0009;-0.0190;
1182621352505114;-0.8060;-0.0095;-0.0041;
1182621362606625;-0.7847;0.0129;-0.0308;
1182621372708187;-0.7261;0.0438;-0.0190;
1182621382783239;-0.6494;0.0300;-0.0190;
1182621392884802;-0.5908;0.0364;-0.0233;
1182621402986364;-0.4704;0.0513;0.0012;
1182621413075219;-0.3150;0.0640;0.0023;
1182621423176781;-0.2000;0.0907;0.0172;
1182621433278344;-0.1041;0.1141;0.0310;
1182621443377354;-0.0977;0.0992;0.0140;
1182621453478969;-0.0786;0.0438;0.0012;
1182621463580531;-0.0306;0.0214;0.0108;
1182621473712614;-0.0296;0.0555;0.0023;
1182621483814177;-0.0019;0.0395;0.0119;
1182621493915687;0.0141;-0.0105;-0.0073;
1182621503986156;-0.0232;0.0065;-0.0201;
1182621514087302;-0.0125;0.0310;-0.0222;
1182621524188396;-0.0296;0.0310;-0.0414;
1182621534307771;-0.0530;0.0278;-0.0318;
1182621544408864;-0.0583;0.0513;-0.0467;
1182621554509958;-0.0967;0.0811;-0.0467;
1182621564631416;-0.1137;0.0470;-0.0446;
1182621574732510;-0.1158;0.0481;-0.0766;
1182621584833656;-0.1190;0.0577;-0.0574;
1182621594907875;-0.1308;0.0321;-0.0755;
1182621605008969;-0.1595;0.0150;-0.0585;
1182621615110114;-0.1531;-0.0052;-0.0595;
1182621625215687;-0.1382;0.0182;-0.0670;
1182621635316781;-0.1212;0.0374;-0.0553;
1182621645417927;-0.0988;0.0470;-0.0680;
1182621655523604;-0.1084;0.0119;-0.0542;
1182621665624698;-0.1148;-0.0180;-0.0744;
1182621675725844;-0.1084;-0.0158;-0.0595;
1182621685821104;-0.1073;-0.0403;-0.0467;
1182621695922198;-0.0956;-0.0627;-0.0563;
1182621706023344;-0.0871;-0.0670;-0.0308;
1182621716119073;-0.0562;-0.0350;-0.0435;
1182621726220166;-0.0285;-0.0158;-0.0126;
1182621736321312;-0.0061;-0.0009;-0.0009;
1182621746412614;-0.0061;-0.0063;-0.0158;
1182621756513708;0.0205;-0.0169;-0.0073;
1182621766614854;0.0109;-0.0073;-0.0180;
1182621776732666;0.0237;-0.0446;0.0001;
1182621786833760;0.0386;-0.0478;-0.0265;
1182621796934906;0.0312;-0.0999;-0.0105;
1182621807043239;0.0482;-0.1084;-0.0244;
1182621817144333;0.0333;-0.0372;-0.0052;
1182621827245479;0.0386;-0.0233;0.0012;
1182621837336000;0.0312;-0.0148;-0.0318;
1182621847437094;-0.0381;-0.0254;-0.0361;
1182621857538239;-0.0509;-0.0531;-0.0830;
1182621867637823;-0.0956;-0.0542;-0.0798;
1182621877738969;-0.0786;0.0321;-0.1288;
1182621887840114;-0.0455;0.1269;-0.1309;
1182621897951208;-0.0338;0.1684;-0.1639;
1182621908052302;-0.0455;0.1407;-0.1969;
1182621918153448;-0.0594;0.1013;-0.2097;
1182621928270166;-0.0445;0.0449;-0.2246;
1182621938371260;-0.0232;-0.0254;-0.2459;
1182621948472406;-0.0061;-0.0648;-0.2598;
1182621958564333;-0.0072;-0.0903;-0.2363;
1182621968665427;0.0322;-0.0945;-0.2310;
1182621978766573;0.0961;-0.0585;-0.2161;
1182621988866521;0.1919;0.0044;-0.2087;
1182621998967614;0.2579;0.0289;-0.1671;
1182622009068760;0.3367;0.0491;-0.1543;
1182622019167562;0.3463;0.0651;-0.0925;
1182622029268656;0.3676;0.0758;-0.0617;
1182622039369802;0.3346;0.0417;-0.0084;
1182622049459750;0.3091;-0.0297;0.0140;
1182622059560844;0.2547;-0.0764;0.0758;
1182622069661989;0.2228;-0.0414;0.1130;
1182622079749906;0.2249;0.0150;0.1610;
1182622089851052;0.2089;0.0161;0.1704;
1182622099952146;0.1739;0.0300;0.1907;
1182622110077562;0.0929;0.0768;0.2109;
1182622120178656;0.0056;0.0907;0.2301;
1182622130279750;-0.0413;0.0545;0.2173;
1182622140376625;-0.0509;0.0587;0.1928;
1182622150477771;-0.0935;0.0651;0.1747;
1182622160578864;-0.1137;0.0758;0.1429;
1182622170674854;-0.1595;0.0587;0.1599;
1182622180776000;-0.1702;-0.0201;0.1418;
1182622190877041;-0.1904;-0.1371;0.1205;
1182622200972666;-0.2192;-0.2053;0.0843;
1182622211073812;-0.2415;-0.1510;0.0726;
1182622221174906;-0.1787;-0.0489;0.0523;
1182622231310583;-0.0583;0.0193;0.0609;
1182622241411677;0.0130;0.0257;0.0246;
1182622251512823;0.0003;0.0822;-0.0009;
1182622261577614;0.0397;0.1450;-0.0318;
1182622271678760;0.1047;0.1269;-0.0638;
1182622281779854;0.1419;0.0459;-0.0617;
1182622291890791;0.0940;-0.0489;-0.0883;
1182622301991885;0.0397;-0.0723;-0.0979;
1182622312092979;0.0642;-0.0796;-0.1160;
1182622322195896;0.0993;-0.0860;-0.1138;
1182622332296989;0.1153;-0.0627;-0.1138;
1182622342398135;0.1664;-0.0233;-0.1298;
1182622352485010;0.2132;0.0150;-0.1256;
1182622362586156;0.2814;0.0214;-0.1181;
1182622372687302;0.3634;0.0012;-0.0712;
1182622382810062;0.3495;-0.0052;-0.0702;
1182622392911156;0.3549;0.0055;-0.0606;
1182622403012250;0.3197;0.0310;-0.0510;
1182622413089802;0.3027;0.0321;-0.0563;
1182622423190948;0.3165;0.0364;-0.0201;
1182622433292041;0.2792;0.0065;-0.0073;
1182622443407875;0.2632;-0.0574;0.0182;
1182622453508969;0.1855;-0.0807;0.0417;
1182622463610062;0.1025;-0.0574;0.0236;
1182622473727823;0.1079;-0.0126;0.0523;
1182622483828969;0.1047;-0.0148;0.0598;
1182622493930062;0.0716;-0.0744;0.0800;
1182622504015062;0.0663;-0.0467;0.0843;
1182622514116312;0.0024;0.0140;0.0736;
1182622524217562;0.0226;0.0193;0.1035;
1182622534330896;-0.0178;-0.0435;0.1013;
1182622544432146;-0.0551;-0.0116;0.0811;
1182622554533396;-0.0828;0.0598;0.0726;
1182622564644854;-0.1265;0.0449;0.0704;
1182622574746104;-0.0999;0.0289;0.0694;
1182622584847354;-0.0860;0.0598;0.0406;
1182622594924333;-0.1031;0.0832;0.0119;
1182622605025583;-0.0647;0.0417;0.0385;
1182622615126833;-0.0509;0.0268;0.0225;
1182622625234854;-0.0306;0.0385;-0.0180;
1182622635336104;0.0130;0.0342;-0.0254;
1182622645437354;0.0141;0.0161;-0.0350;
1182622655539541;0.0216;-0.0052;-0.0467;
1182622665640844;0.0535;-0.0425;-0.0414;
1182622675742094;0.0695;-0.0744;-0.0723;
1182622685838604;0.0620;-0.0350;-0.0574;
1182622695939854;0.0791;0.0055;-0.0542;
1182622706041104;0.0727;-0.0095;-0.0755;
1182622716134385;0.0716;-0.0233;-0.0862;
1182622726235687;0.0844;0.0108;-0.0766;
1182622736336937;0.0876;0.0790;-0.0819;
1182622746465062;0.1025;0.0651;-0.0521;
1182622756566312;0.1398;-0.0063;-0.0254;
1182622766667562;0.1387;0.0076;-0.0297;
1182622776748083;0.1089;-0.0201;-0.0063;
1182622786849333;0.1164;-0.0659;0.0182;
1182622796950583;0.1281;-0.0755;0.0065;
1182622807054333;0.1142;-0.0680;0.0097;
1182622817155583;0.0929;-0.0881;0.0449;
1182622827256833;0.0855;-0.1137;0.0598;
1182622837363604;0.0759;-0.1031;0.0587;
1182622847464854;0.0716;-0.0744;0.0523;
1182622857566104;0.0535;-0.0148;0.0459;
1182622867668187;0.0557;0.0321;0.0662;
1182622877769437;0.0599;0.0438;0.0651;
1182622887870687;0.0482;0.0321;0.0651;
1182622897968500;0.0418;0.0438;0.0758;
1182622908069750;0.0482;0.0640;0.0747;
1182622918171000;0.0450;0.0513;0.0672;
1182622928270896;0.0312;0.0108;0.0704;
1182622938372146;0.0173;-0.0052;0.0577;
1182622948473396;0.0205;-0.0105;0.0534;
1182622958566937;0.0109;-0.0318;0.0289;
1182622968668239;0.0397;-0.0201;0.0374;
1182622978769489;0.0557;-0.0169;0.0332;
1182622988880479;0.0695;-0.0116;0.0193;
1182622998981729;0.0631;0.0001;0.0097;
1182623009082979;0.0716;0.0289;-0.0020;
1182623019181208;0.0951;0.0374;-0.0105;
1182623029282458;0.0908;0.0214;-0.0031;
1182623039383708;0.1036;0.0044;-0.0254;
1182623049482354;0.1324;0.0417;-0.0563;
1182623059583604;0.1196;0.0811;-0.0499;
1182623069684906;0.1100;0.0630;-0.0446;
1182623079784177;0.1100;-0.0041;-0.0222;
1182623089885427;0.0876;-0.0489;-0.0308;
1182623099986729;0.0802;-0.0222;-0.0361;
1182623110112771;0.0929;-0.0105;-0.0318;
1182623120214021;0.0929;-0.0425;-0.0244;
1182623130315271;0.0897;-0.0446;-0.0190;
1182623140387562;0.1025;0.0577;-0.0158;
1182623150488864;0.1132;0.1013;0.0076;
1182623160590062;0.0940;0.0023;0.0374;
1182623170702875;0.0716;-0.0212;0.0342;
1182623180804229;0.0887;0.0417;0.0374;
1182623190905427;0.0802;0.0683;0.0310;
1182623200986364;0.0748;0.0598;0.0364;
1182623211133864;0.0695;0.0459;0.0619;
1182623221235166;0.0748;0.0491;0.0694;
1182623231336364;0.0642;0.0204;0.0555;
1182623241386781;0.0727;0.0193;0.0502;
1182623251488083;0.0897;0.0385;0.0694;
1182623261589333;0.0599;-0.0105;0.0534;
1182623271723969;0.0557;-0.0457;0.0502;
1182623281825219;0.0610;-0.0137;0.0662;
1182623291926521;0.0897;0.0321;0.0800;
1182623302009333;0.0908;0.0246;0.0747;
1182623312110583;0.0748;0.0374;0.0747;
1182623322211833;0.0812;0.0630;0.0960;
1182623332317979;0.0951;0.0310;0.1099;
1182623342419229;0.0780;-0.0755;0.1152;
1182623352520479;0.0450;-0.1201;0.1109;
1182623362606781;0.0258;-0.0318;0.1130;
1182623372708083;0.0684;0.0182;0.1141;
1182623382809333;0.0535;-0.0340;0.1067;
1182623392913344;0.0248;-0.0702;0.1248;
1182623403014646;0.0056;-0.0585;0.1248;
1182623413115896;0.0130;-0.0254;0.1099;
1182623423220583;0.0130;-0.0105;0.0992;
1182623433321833;0.0141;0.0236;0.0949;
1182623443423083;0.0258;0.0577;0.1003;
1182623453529437;0.0269;0.0470;0.1130;
1182623463630687;0.0067;0.0108;0.1067;
1182623473731937;0.0120;-0.0084;0.1152;
1182623483831156;-0.0072;-0.0201;0.1226;
1182623493932406;-0.0146;-0.0233;0.1184;
1182623504033656;-0.0146;-0.0105;0.1088;
1182623514132146;-0.0168;-0.0553;0.1258;
1182623524233396;-0.0242;-0.0531;0.1386;
1182623534334646;-0.0402;-0.0297;0.1525;
1182623544431469;-0.0530;-0.0169;0.1407;
1182623554532771;-0.0679;0.0140;0.1429;
1182623564634021;-0.1073;0.0257;0.1205;
1182623574740271;-0.1169;0.0609;0.1301;
1182623584841521;-0.1521;0.0012;0.1301;
1182623594942771;-0.1659;0.0065;0.1067;
1182623605049333;-0.1872;0.0832;0.1162;
1182623615150583;-0.1744;0.0822;0.1407;
1182623625251833;-0.1553;-0.0137;0.1067;
1182623635343135;-0.2256;-0.1276;0.0928;
1182623645444437;-0.3300;-0.1244;0.0800;
1182623655545687;-0.4152;-0.0489;0.0726;
1182623665658083;-0.3885;-0.0233;0.0598;
1182623675759333;-0.3608;0.0161;0.0374;
1182623685860583;-0.3214;0.0683;0.0374;
1182623695962771;-0.2628;0.0907;0.0470;
1182623706064021;-0.2064;0.0747;0.0513;
1182623716165271;-0.1648;0.0406;0.0513;
1182623726260271;-0.1574;0.0534;0.0385;
1182623736361521;-0.1457;0.0342;0.0459;
1182623746462771;-0.1297;-0.0041;0.0545;
1182623756555010;-0.1276;-0.0233;0.0438;
1182623766656312;-0.1244;0.0300;0.0300;
1182623776757562;-0.1020;0.0609;0.0683;
1182623786867979;-0.0871;-0.0265;0.0704;
1182623796969229;-0.1297;-0.0531;0.0523;
1182623807070479;-0.1606;-0.0201;0.0523;
1182623817193239;-0.1361;0.0108;0.0651;
1182623827294489;-0.1350;0.0076;0.0609;
1182623837395739;-0.1553;-0.0052;0.0513;
1182623847481521;-0.1691;0.0630;0.0491;
1182623857582771;-0.1680;0.0598;0.0672;
1182623867684021;-0.1712;-0.0041;0.0790;
1182623877789073;-0.2202;0.0268;0.0651;
1182623887890323;-0.2533;0.0875;0.0342;
1182623897991573;-0.2565;0.0917;0.0427;
1182623908079646;-0.2767;0.0353;0.0374;
1182623918180896;-0.3065;0.0609;0.0097;
1182623928282146;-0.3172;0.1045;-0.0276;
1182623938388396;-0.2842;0.0758;-0.0329;
1182623948489646;-0.2724;-0.0137;-0.0308;
1182623958590896;-0.2618;-0.0393;-0.0489;
1182623968692458;-0.2724;-0.0020;-0.0691;
1182623978793708;-0.2224;0.0417;-0.0883;
1182623988894958;-0.1787;0.0300;-0.1043;
1182623998989646;-0.1648;0.0555;-0.1138;
1182624009090896;-0.1435;0.0981;-0.1170;
1182624019192146;-0.1222;0.0225;-0.1043;
1182624029294437;-0.1126;-0.0617;-0.1224;
1182624039395687;-0.1190;-0.0606;-0.1320;
1182624049496937;-0.1308;-0.0446;-0.1522;
1182624059562094;-0.1031;-0.0595;-0.1533;
1182624069663291;-0.0903;-0.0499;-0.1490;
1182624079764541;-0.0924;0.0300;-0.1618;
1182624089865791;-0.0743;0.0875;-0.1820;
1182624099994281;-0.0466;0.0854;-0.1810;
1182624110095531;-0.0562;0.0885;-0.1692;
1182624120196833;-0.0700;0.0960;-0.1660;
1182624130363656;-0.0445;0.1333;-0.1767;
1182624140464906;-0.0349;0.0811;-0.1714;
1182624150566208;-0.0477;0.0214;-0.1831;
1182624160617302;-0.0668;0.0246;-0.1799;
1182624170718500;-0.0541;0.0236;-0.1628;
1182624180819854;-0.0423;0.0182;-0.1671;
1182624190913083;-0.0338;0.0257;-0.1522;
1182624201014333;-0.0274;0.0182;-0.1692;
1182624211115583;-0.0115;0.0012;-0.1746;
1182624221204750;-0.0136;0.0364;-0.1671;
1182624231305531;0.0035;0.0832;-0.1565;
1182624241406364;0.0770;0.0758;-0.1565;
1182624251555739;0.1047;0.0150;-0.1447;
1182624261656573;0.1079;0.0033;-0.1660;
1182624271757406;0.0908;-0.0148;-0.1511;
1182624281838916;0.0866;-0.0860;-0.1043;
1182624291939698;0.0940;-0.1180;-0.1117;
1182624302040531;0.0887;-0.0881;-0.1064;
1182624312078969;0.0887;-0.0393;-0.0925;
1182624322179802;0.1313;-0.0531;-0.0723;
1182624332280583;0.1515;-0.0744;-0.0329;
1182624342421937;0.1313;-0.0595;-0.0425;
1182624352522771;0.1249;0.0513;-0.0691;
1182624362623604;0.1196;0.0917;-0.0542;
1182624372743396;0.1409;0.0470;-0.0180;
1182624382844177;0.1164;0.0651;-0.0212;
1182624392945010;0.0759;0.1397;-0.0638;
1182624403038500;0.0525;0.1993;-0.0467;
1182624413139281;0.0344;0.1067;-0.0350;
1182624423240114;0.0407;-0.0850;-0.0190;
1182624433341208;-0.0040;-0.1212;-0.0382;
1182624443441989;-0.0647;0.0097;-0.0574;
1182624453542823;-0.0530;0.0374;-0.0499;
1182624463649281;-0.0029;0.0417;-0.0574;
1182624473750062;-0.0125;0.1237;-0.0659;
1182624483850896;-0.0061;0.1130;-0.0595;
1182624493950062;0.0056;0.0310;-0.0585;
1182624504050844;-0.0328;-0.0073;-0.0883;
1182624514151677;-0.0232;-0.0638;-0.0925;
1182624524267146;-0.0125;-0.1222;-0.0862;
1182624534367927;0.0003;-0.0892;-0.1138;
1182624544468760;0.0162;-0.0286;-0.1320;
1182624554560271;0.0216;0.0257;-0.1288;
1182624564661104;0.0312;-0.0095;-0.1277;
1182624574761885;0.0493;0.0140;-0.1213;
1182624584861521;0.0834;0.0651;-0.1117;
1182624594962302;0.0983;0.1120;-0.1192;
1182624605063135;0.0983;0.1205;-0.1107;
1182624615166000;0.0748;0.1301;-0.0947;
1182624625266833;0.0482;0.0087;-0.0851;
1182624635367614;0.0525;-0.1680;-0.0680;
1182624645469854;0.0397;-0.0892;-0.1128;
1182624655570635;0.0482;-0.0158;-0.1266;
1182624665671521;0.0759;-0.0892;-0.0925;
1182624675776833;0.0791;-0.1840;-0.0670;
1182624685877614;0.0695;-0.1393;-0.0925;
1182624695978448;0.0780;-0.0542;-0.0947;
1182624706074906;0.0897;-0.1073;-0.0957;
1182624716175687;0.0972;-0.1244;-0.0840;
1182624726276521;0.0855;-0.0457;-0.0787;
1182624736376000;0.1185;-0.0393;-0.0744;
1182624746476781;0.1419;-0.1041;-0.0638;
1182624756577614;0.1270;-0.1755;-0.0340;
1182624766694281;0.1047;-0.1531;-0.0254;
1182624776795062;0.0887;-0.1393;0.0033;
1182624786895896;0.0993;-0.0457;-0.0137;
1182624796981729;0.0983;0.0555;-0.0467;
1182624807082510;0.1228;0.0896;-0.0457;
1182624817183344;0.1196;0.1226;-0.0201;
1182624827297041;0.1057;0.1887;-0.0244;
1182624837397823;0.1025;0.2483;-0.0286;
1182624847498656;0.0919;0.1493;-0.0286;
1182624857615062;0.0759;-0.0521;-0.0063;
1182624867715896;0.0280;-0.1084;-0.0297;
1182624877816677;0.0045;-0.0744;-0.0457;
1182624887903812;0.0301;-0.0734;-0.0542;
1182624898004594;0.0695;0.0023;-0.0393;
1182624908105427;0.0738;0.1248;-0.0350;
1182624918205896;0.1068;0.1525;-0.0446;
1182624928306677;0.1345;0.0939;-0.0617;
1182624938407510;0.1292;0.0246;-0.0648;
1182624948504750;0.1419;-0.0095;-0.0478;
1182624958605531;0.1366;-0.0116;-0.0680;
1182624968706364;0.1377;-0.0734;-0.0734;
1182624978813812;0.1356;-0.0807;-0.0702;
1182624988914594;0.1313;-0.0212;-0.0680;
1182624999015427;0.1462;0.0427;-0.0638;
1182625009114906;0.1728;0.0374;-0.0553;
1182625019215687;0.1622;-0.0020;-0.0489;
1182625029316521;0.1515;0.0502;-0.0510;
1182625039409021;0.1526;0.0822;-0.0435;
1182625049509854;0.1569;-0.0105;-0.0372;
1182625059610635;0.1345;-0.1212;-0.0105;
1182625069718135;0.0983;-0.1638;-0.0233;
1182625079818916;0.1015;-0.0744;-0.0542;
1182625089919750;0.1345;0.0598;-0.0425;
1182625100017354;0.1718;0.0374;-0.0233;
1182625110118135;0.1483;0.0140;-0.0318;
1182625120218969;0.1238;0.0513;-0.0265;
1182625130310479;0.1324;-0.0041;-0.0286;
1182625140411312;0.1345;-0.0542;-0.0063;
1182625150512146;0.1174;0.0214;-0.0063;
1182625160593083;0.1238;0.0481;-0.0137;
1182625170693916;0.1366;0.0087;0.0140;
1182625180794750;0.1047;-0.0542;0.0364;
1182625190924437;0.0812;-0.0574;0.0417;
1182625201025219;0.0908;-0.0158;0.0427;
1182625211126052;0.1036;-0.0435;0.0374;
1182625221236573;0.1057;-0.0286;0.0395;
1182625231337771;0.1079;0.0630;0.0470;
1182625241439073;0.1249;0.0225;0.0566;
1182625251561469;0.1217;0.0289;0.0449;
1182625261662666;0.1100;0.0651;0.0449;
1182625271763969;0.1238;-0.0158;0.0481;
1182625281861833;0.1025;-0.0881;0.0662;
1182625291963083;0.0834;-0.1574;0.0779;
1182625302064333;0.0684;-0.1830;0.0864;
1182625312171885;0.0748;-0.1521;0.1099;
1182625322273135;0.0855;-0.0903;0.1120;
1182625332374385;0.1111;-0.0009;0.1024;
1182625342435271;0.1270;0.1226;0.0779;
1182625352536521;0.1579;0.1865;0.0928;
1182625362637771;0.1791;0.0971;0.1216;
1182625372754854;0.1750;-0.0372;0.1248;
1182625382856052;0.0759;-0.0659;0.1216;
1182625392957302;0.0461;-0.0807;0.1258;
1182625403054021;0.0557;-0.1478;0.1269;
1182625413155271;0.0567;-0.0881;0.1205;
1182625423256521;0.0333;0.0214;0.1226;
1182625433357771;0.0759;0.0246;0.1503;
1182625443459021;0.0866;-0.0308;0.1652;
1182625453560271;0.0589;-0.0105;0.1589;
1182625463665479;0.0567;-0.0606;0.1610;
1182625473766677;0.0557;-0.1403;0.1503;
1182625483867927;0.0077;-0.1063;0.1322;
1182625493969750;0.0056;0.0246;0.1301;
1182625504070948;0.0620;0.0491;0.1290;
1182625514172198;0.0738;0.0342;0.1280;
1182625524275166;0.0269;0.0459;0.1386;
1182625534376364;0.0375;0.0640;0.1365;
1182625544477614;0.0557;0.0662;0.1407;
1182625554578187;0.0471;-0.0222;0.1535;
1182625564679385;-0.0008;-0.0286;0.1450;
1182625574780635;-0.0615;0.0715;0.1386;
1182625584882146;0.0035;0.0779;0.1290;
1182625594983344;0.0557;0.0481;0.1258;
1182625605084594;0.0280;0.0044;0.1205;
1182625615187041;0.0258;-0.0574;0.1439;
1182625625288239;0.0226;-0.1329;0.1312;
1182625635389489;0.0003;-0.2011;0.1130;
1182625645491312;-0.0413;-0.0818;0.0992;
1182625655592510;-0.0402;0.0566;0.1099;
1182625665693760;0.0706;0.0257;0.1194;
1182625675790375;0.0344;-0.0105;0.1269;
1182625685891573;-0.0115;0.0246;0.1173;
1182625695992823;0.0088;0.1024;0.1333;
1182625706095739;0.0407;0.0854;0.1683;
1182625716196937;0.0194;-0.0137;0.1599;
1182625726298187;-0.0562;-0.0105;0.1184;
1182625736398291;-0.1020;0.0822;0.1162;
1182625746499489;-0.0775;0.1450;0.1301;
1182625756600739;-0.0083;0.1535;0.1184;
1182625766704021;-0.0232;0.1024;0.1152;
1182625776805219;-0.0477;0.0289;0.1120;
1182625786906469;-0.0807;-0.0382;0.1109;
1182625797010271;-0.0924;-0.0839;0.1067;
1182625807111469;-0.1169;-0.0595;0.1045;
1182625817212719;-0.1063;0.0012;0.1035;
1182625827317354;-0.0423;-0.0041;0.1205;
1182625837418552;-0.0264;-0.0403;0.1120;
1182625847519802;-0.0509;-0.0807;0.1280;
1182625857625791;-0.0498;-0.0286;0.0875;
1182625867726989;-0.0253;-0.0297;0.0960;
1182625877828239;-0.0360;-0.1158;0.1067;
1182625887930323;-0.0945;-0.0670;0.1045;
1182625898031521;-0.0626;0.0513;0.1088;
1182625908132771;-0.0115;0.0917;0.1120;
1182625918218760;-0.0019;0.0917;0.1141;
1182625928320010;-0.0445;0.0087;0.1216;
1182625938421260;-0.0732;-0.0702;0.1429;
1182625948526573;-0.0967;-0.0308;0.1439;
1182625958627771;-0.0743;-0.1308;0.1567;
1182625968729021;-0.0636;-0.1478;0.1525;
1182625978840166;-0.1158;-0.0052;0.1322;
1182625988941364;-0.0892;0.0715;0.1269;
1182625999042614;-0.0146;0.0395;0.1546;
1182626009135635;-0.0658;0.0822;0.1397;
1182626019236885;-0.0732;-0.0105;0.1450;
1182626029338135;-0.0839;-0.0638;0.1322;
1182626039433812;-0.1542;-0.0222;0.1312;
1182626049535010;-0.1499;-0.0764;0.1322;
1182626059636260;-0.1723;-0.0126;0.1216;
1182626069749073;-0.2394;0.1375;0.1344;
1182626079850271;-0.1627;0.0885;0.1407;
1182626089951521;-0.1148;-0.0084;0.1354;
1182626100036573;-0.2437;0.0619;0.1088;
1182626110137823;-0.2735;0.1269;0.0896;
1182626120239073;-0.1904;0.0854;0.1056;
1182626130326677;-0.2128;0.0193;0.0832;
1182626140427927;-0.2927;0.0513;0.0587;
1182626150529177;-0.2927;0.1386;0.0342;
1182626160659385;-0.1808;0.0119;0.0257;
1182626170760583;-0.1680;-0.0190;0.0119;
1182626180861833;-0.2415;0.0427;0.0087;
1182626190941677;-0.1680;-0.0499;-0.0105;
1182626201042875;-0.1787;-0.0595;-0.0126;
1182626211144177;-0.1989;-0.0063;-0.0116;
1182626221292406;-0.1350;0.0577;-0.0233;
1182626231393916;-0.1158;0.0747;-0.0595;
1182626241495375;-0.1499;0.0225;-0.0361;
1182626251550114;-0.1712;0.0470;-0.0478;
1182626261651625;-0.1606;0.0630;-0.0883;
1182626271753135;-0.1414;0.0321;-0.1224;
1182626281878448;-0.1627;-0.0712;-0.1064;
1182626291979958;-0.1883;-0.0828;-0.1181;
1182626302081469;-0.1989;-0.0052;-0.1224;
1182626312153864;-0.1489;0.0481;-0.1362;
1182626322255375;-0.1201;0.0822;-0.1394;
1182626332356885;-0.1084;0.0715;-0.1458;
1182626342465635;-0.1201;0.0289;-0.1756;
1182626352567146;-0.1084;0.0491;-0.1788;
1182626362668656;-0.1052;0.0502;-0.1639;
1182626372773448;-0.1201;0.0321;-0.1799;
1182626382874958;-0.1308;0.0342;-0.2140;
1182626392976469;-0.1276;0.0577;-0.2321;
1182626403077302;-0.1116;0.0545;-0.2342;
1182626413178812;-0.1137;0.0481;-0.2012;
1182626423280323;-0.0999;0.0577;-0.2087;
1182626433379489;-0.1031;0.0214;-0.2172;
1182626443481000;-0.1063;-0.0116;-0.2374;
1182626453582510;-0.1031;-0.1446;-0.2023;
1182626463687927;-0.0732;-0.1265;-0.2395;
1182626473789489;-0.0573;0.3165;-0.3109;
1182626483905219;0.0130;0.4987;-0.2800;
1182626494006677;0.0674;0.2281;-0.2417;
1182626504108187;0.0365;-0.0073;-0.2129;
1182626514188604;-0.0860;-0.1126;-0.2161;
1182626524290114;-0.0881;-0.1286;-0.2289;
1182626534391625;-0.0786;-0.1798;-0.2332;
1182626544502510;-0.0317;-0.3310;-0.2118;
1182626554604021;0.0589;-0.3182;-0.2150;
1182626564705531;0.0993;-0.1638;-0.2395;
1182626574814021;0.1387;0.0577;-0.2534;
1182626584915479;0.2047;0.2622;-0.2651;
1182626595016989;0.2760;0.0385;-0.2108;
1182626605107094;0.3027;-0.3928;-0.1863;
1182626615208604;0.1865;-0.2884;-0.1916;
1182626625310114;0.0972;-0.0116;-0.2225;
1182626635410427;0.2228;0.1684;-0.1948;
1182626645511937;0.2590;0.2366;-0.1746;
1182626655613448;0.1897;0.1620;-0.1586;
1182626665718448;0.1696;0.2260;-0.1479;
1182626675820010;0.1356;0.2547;-0.1447;
1182626685921469;0.1345;0.0566;-0.1479;
1182626696025948;0.0557;0.0001;-0.1639;
1182626706127458;0.0386;-0.0414;-0.1714;
1182626716228969;0.0439;-0.0617;-0.1501;
1182626726307823;0.0322;0.0342;-0.1714;
1182626736409333;0.0642;0.2015;-0.1948;
1182626746510896;0.0546;0.1855;-0.1682;
1182626756618864;0.0312;-0.0116;-0.1245;
1182626766720375;0.0077;-0.0574;-0.1352;
1182626776821885;0.0194;0.0246;-0.1479;
1182626786931781;0.0652;0.0864;-0.1490;
1182626797033291;0.0759;0.0800;-0.1362;
1182626807134802;0.0759;-0.0084;-0.1288;
1182626817256104;0.0844;-0.0670;-0.1469;
1182626827357614;0.0716;-0.1254;-0.1330;
1182626837459125;0.0791;-0.1659;-0.1522;
1182626847561156;0.1142;-0.1403;-0.1692;
1182626857662666;0.1164;-0.1521;-0.1618;
1182626867764177;0.1281;-0.1446;-0.1362;
1182626877846625;0.1579;-0.0329;-0.1170;
1182626887948083;0.2110;-0.0350;-0.1256;
1182626898049594;0.2089;-0.0659;-0.0968;
1182626908151260;0.2153;-0.0286;-0.0798;
1182626918252771;0.2569;0.0193;-0.0936;
1182626928354281;0.2664;0.1929;-0.1213;
1182626938442198;0.2835;0.2569;-0.0904;
1182626948543708;0.2792;0.1194;-0.0638;
1182626958645219;0.2281;0.0598;-0.0851;
1182626968743187;0.1759;0.0449;-0.0840;
1182626978844750;0.1441;-0.1158;-0.0606;
1182626988946208;0.1324;-0.1893;-0.0435;
1182626999050687;0.1515;-0.1595;-0.0350;
1182627009152250;0.1622;-0.1190;-0.0297;
1182627019253708;0.1611;-0.0786;-0.0254;
1182627029360687;0.2036;-0.0031;-0.0233;
1182627039462198;0.1865;0.0097;-0.0233;
1182627049563708;0.1855;-0.0063;-0.0105;
1182627059616625;0.1855;0.0012;0.0087;
1182627069718031;0.2068;0.0854;-0.0276;
1182627079819594;0.2110;0.1397;-0.0318;
1182627089921052;0.1707;0.0864;-0.0137;
1182627100071052;0.1377;0.0523;0.0108;
1182627110172614;0.1377;0.0055;0.0257;
1182627120274073;0.1270;-0.0807;0.0257;
1182627130386677;0.1185;-0.1276;0.0268;
1182627140488239;0.1409;-0.0913;0.0364;
1182627150589750;0.1601;-0.0148;0.0246;
1182627160670010;0.1675;-0.0116;0.0353;
1182627170771573;0.1483;-0.0382;0.0459;
1182627180873031;0.1643;0.0012;0.0225;
1182627190968760;0.1812;0.0172;0.0374;
1182627201070271;0.1791;-0.0137;0.0395;
1182627211171781;0.1791;-0.0425;0.0619;
1182627221303500;0.1526;-0.0020;0.0598;
1182627231405010;0.1643;0.0406;0.0747;
1182627241506521;0.1622;0.0481;0.0843;
1182627251568135;0.1654;0.0875;0.0800;
1182627261669646;0.1547;0.0949;0.0577;
1182627271771156;0.1558;0.0268;0.0672;
1182627281901469;0.1451;-0.0244;0.0715;
1182627292002979;0.1579;0.0385;0.0555;
1182627302104437;0.1579;0.0374;0.0502;
1182627312178604;0.1313;0.0023;0.0651;
1182627322280114;0.1345;0.0491;0.0672;
1182627332381625;0.1526;0.0523;0.0609;
1182627342478344;0.1462;-0.0020;0.0790;
1182627352579854;0.1526;-0.0190;0.0960;
1182627362681364;0.1611;-0.0350;0.0928;
1182627372798760;0.1558;0.0150;0.0694;
1182627382900271;0.1707;0.0747;0.0768;
1182627393001781;0.1654;0.0332;0.0949;
1182627403101781;0.1547;0.0704;0.0790;
1182627413203344;0.1505;0.0790;0.0811;
1182627423304802;0.1377;0.0790;0.0896;
1182627433405114;0.1249;0.0406;0.1130;
1182627443506625;0.1089;-0.0860;0.1333;
1182627453608135;0.1004;-0.1222;0.1694;
1182627463710948;0.0940;-0.0723;0.1779;
1182627473812458;0.1185;-0.0105;0.1832;
1182627483913969;0.1111;0.0182;0.1800;
1182627494016521;0.1068;0.0417;0.2120;
1182627504117719;0.0855;0.0640;0.2077;
1182627514198656;0.0887;0.0704;0.2003;
1182627524299854;0.0589;0.0214;0.2184;
1182627534401052;0.0152;-0.0254;0.2589;
1182627544518396;-0.0232;-0.0542;0.2684;
1182627554619594;-0.0487;-0.0137;0.2674;
1182627564720791;-0.0541;0.0076;0.2748;
1182627574826729;-0.0434;0.0214;0.2738;
1182627584927927;-0.0402;0.0342;0.2876;
1182627595029125;-0.0328;-0.0116;0.2674;
1182627605123812;-0.0455;0.0033;0.2791;
1182627615225010;-0.0349;0.0630;0.2589;
1182627625326156;0.0035;0.0885;0.2482;
1182627635435166;-0.0189;0.0928;0.2684;
1182627645536364;-0.0253;0.0587;0.2823;
1182627655637562;-0.0413;-0.0148;0.2908;
1182627665741521;-0.0690;-0.0807;0.2876;
1182627675842666;-0.1063;-0.1137;0.3047;
1182627685943916;-0.1041;-0.1457;0.3164;
1182627696040166;-0.0722;-0.0574;0.2887;
1182627706141364;-0.0583;0.0055;0.2748;
1182627716242562;-0.0104;0.0246;0.2802;
1182627726333760;-0.0125;0.0374;0.2738;
1182627736435010;-0.0477;-0.0212;0.2674;
1182627746536156;-0.0764;-0.0126;0.2631;
1182627756638396;-0.0881;0.0033;0.2983;
1182627766739594;-0.1212;-0.0372;0.3068;
1182627776840791;-0.1435;0.0459;0.2663;
1182627786956937;-0.1521;0.0992;0.2652;
1182627797058135;-0.1148;0.0598;0.2684;
1182627807159333;-0.1766;0.0875;0.2429;
1182627817272354;-0.2064;0.0481;0.2077;
1182627827373552;-0.2096;0.0885;0.2067;
1182627837474750;-0.2511;0.1035;0.1674;
1182627847561833;-0.2245;0.0534;0.1461;
1182627857663031;-0.2991;0.0374;0.1683;
1182627867764229;-0.3523;-0.0095;0.1418;
1182627877866729;-0.3608;-0.0659;0.0875;
1182627887967927;-0.3736;-0.0052;0.0768;
1182627898069125;-0.3534;0.0438;0.0811;
1182627908152094;-0.2927;0.1258;0.0481;
1182627918253344;-0.2639;0.1375;0.0246;
1182627928354541;-0.2426;0.0758;0.0225;
1182627938464021;-0.2607;0.0555;-0.0148;
1182627948565219;-0.2628;0.0289;-0.0222;
1182627958666364;-0.2778;-0.0329;-0.0329;
1182627968771312;-0.2799;-0.1031;-0.0350;
1182627978872510;-0.2607;-0.1329;-0.0659;
1182627988973708;-0.2192;-0.0276;-0.0702;
1182627999076729;-0.1819;0.0459;-0.0680;
1182628009177875;-0.1574;0.0491;-0.0766;
1182628019279125;-0.1798;0.0438;-0.0893;
1182628029373135;-0.1798;0.0364;-0.0872;
1182628039474385;-0.1734;0.1003;-0.1043;
1182628049575531;-0.1776;0.0885;-0.1330;
1182628059674750;-0.2053;0.0449;-0.1117;
1182628069775948;-0.2106;-0.0627;-0.0723;
1182628079877146;-0.2096;-0.1670;-0.0851;
1182628089978291;-0.1798;-0.1201;-0.1128;
1182628100083031;-0.1638;-0.0807;-0.0936;
1182628110184229;-0.1467;-0.1105;-0.0776;
1182628120285427;-0.1425;-0.1893;-0.0840;
1182628130411781;-0.1371;-0.2298;-0.1266;
1182628140512979;-0.0999;-0.1329;-0.1224;
1182628150614177;-0.0679;-0.0212;-0.1415;
1182628160709698;0.0056;0.0246;-0.1373;
1182628170810896;0.0280;0.0992;-0.1170;
1182628180912094;0.0290;0.1450;-0.0925;
1182628190991156;0.0024;0.0939;-0.0521;
1182628201092354;-0.0477;0.0129;-0.0435;
1182628211193552;-0.0615;0.0513;-0.0617;
1182628221339698;-0.0466;0.1706;-0.0734;
1182628231440896;-0.0498;0.1823;-0.0723;
1182628241542094;-0.0381;0.0715;-0.0659;
1182628251626573;-0.0338;0.0076;-0.0766;
1182628261727771;-0.0658;-0.0478;-0.0872;
1182628271828969;-0.0828;-0.0871;-0.1000;
1182628281921156;-0.0775;-0.1063;-0.0862;
1182628292022354;-0.0743;-0.1126;-0.0872;
1182628302123552;-0.0445;-0.0148;-0.0840;
1182628312221989;-0.0019;0.1205;-0.0925;
1182628322323187;0.0471;0.1429;-0.0755;
1182628332424385;0.0109;0.0087;-0.0925;
1182628342513344;-0.0104;0.0598;-0.1075;
1182628352614594;-0.0157;0.1961;-0.0979;
1182628362715791;0.0226;0.1535;-0.1192;
1182628372817354;-0.0157;0.0747;-0.1000;
1182628382918552;-0.0647;-0.0073;-0.0744;
1182628393019750;-0.0562;-0.0999;-0.0798;
1182628403118760;-0.0541;-0.0510;-0.1085;
1182628413220010;-0.0189;0.0246;-0.1032;
1182628423321156;0.0003;0.0662;-0.0957;
1182628433422823;-0.0029;0.0225;-0.0723;
1182628443524073;-0.0157;-0.0531;-0.0968;
1182628453625271;-0.0210;-0.0999;-0.0883;
1182628463733656;-0.0317;-0.0871;-0.1192;
1182628473834854;-0.0274;0.0012;-0.1202;
1182628483936052;-0.0061;0.0289;-0.1032;
1182628494046104;0.0077;0.0150;-0.0840;
1182628504147250;-0.0040;0.0214;-0.0936;
1182628514248500;0.0045;0.0055;-0.1000;
1182628524340739;0.0120;-0.0702;-0.0766;
1182628534442094;-0.0029;-0.1340;-0.0670;
1182628544543500;0.0077;-0.1073;-0.0787;
1182628554635323;0.0397;0.0949;-0.0819;
1182628564736677;0.0887;0.1620;-0.1075;
1182628574838083;0.1515;0.1610;-0.1160;
1182628584935739;0.0940;0.0811;-0.0904;
1182628595037146;0.0599;-0.0393;-0.0521;
1182628605138552;0.0162;-0.1020;-0.0521;
1182628615247927;0.0248;-0.1308;-0.0595;
1182628625349333;0.0365;-0.0755;-0.0467;
1182628635450687;0.0631;0.0342;-0.0531;
1182628645544906;0.0695;0.0523;-0.0893;
1182628655646260;0.0844;0.1173;-0.0766;
1182628665747666;0.0578;0.0438;-0.0776;
1182628675848760;0.0546;-0.1212;-0.0766;
1182628685950114;-0.0051;-0.1297;-0.0595;
1182628696051521;0.0109;-0.1020;-0.0680;
1182628706158760;0.0375;-0.0446;-0.0702;
1182628716260166;0.0567;0.0651;-0.0702;
1182628726361521;0.0834;0.1099;-0.0585;
1182628736465010;0.0738;0.1067;-0.0478;
1182628746566364;0.0620;0.0939;-0.0808;
1182628756667771;0.0567;0.0651;-0.0648;
1182628766756885;0.0493;-0.0063;-0.0585;
1182628776858239;0.0439;-0.0457;-0.0723;
1182628786959646;0.0280;-0.0297;-0.0617;
1182628797065323;0.0439;-0.0340;-0.0446;
1182628807166729;0.0269;-0.0244;-0.0425;
1182628817268083;0.0546;0.0385;-0.0510;
1182628827374802;0.0727;0.0630;-0.0222;
1182628837476156;0.0791;0.0236;-0.0095;
1182628847577562;0.0514;-0.0553;-0.0105;
1182628857683760;0.0503;-0.0435;-0.0180;
1182628867785114;0.0514;-0.0201;0.0001;
1182628877886521;0.0578;0.0960;-0.0244;
1182628888007614;0.0407;0.1663;-0.0041;
1182628898109021;0.0322;0.0459;0.0225;
1182628908210375;-0.0051;-0.0265;0.0438;
1182628918278864;-0.0019;-0.0276;0.0140;
1182628928380271;0.0045;-0.0361;0.0310;
1182628938481625;0.0152;0.0001;0.0566;
1182628948585323;0.0269;0.0012;0.0459;
1182628958686729;0.0482;0.0587;0.0257;
1182628968788083;0.0418;0.0364;0.0513;
1182628978884906;0.0109;0.0055;0.0278;
1182628988986260;0.0024;0.0896;0.0044;
1182628999087666;-0.0040;0.0427;0.0246;
1182629009188448;-0.0274;-0.0807;0.0577;
1182629019289854;-0.0242;-0.0871;0.0427;
1182629029391208;-0.0200;-0.0265;0.0481;
1182629039491573;0.0130;0.0161;0.0577;
1182629049592979;0.0184;-0.0041;0.0438;
1182629059694333;0.0173;-0.0478;0.0289;
1182629069807823;0.0088;-0.0382;0.0385;
1182629079909229;0.0109;-0.0052;0.0481;
1182629090010583;0.0003;-0.0988;0.0395;
1182629100118031;-0.0232;-0.1872;0.0449;
1182629110219437;-0.0264;-0.0723;0.0566;
1182629120320791;0.0099;-0.0286;0.0342;
1182629130426729;0.0216;-0.0340;0.0566;
1182629140528031;0.0152;-0.0041;0.0545;
1182629150629489;0.0152;-0.0020;0.0332;
1182629160706000;0.0248;0.0640;0.0246;
1182629170807406;0.0141;0.0747;0.0438;
1182629180908760;-0.0040;0.0332;0.0555;
1182629191006000;-0.0328;0.1226;0.0236;
1182629201107354;0.0013;0.1067;0.0182;
1182629211208760;-0.0168;-0.0595;0.0651;
1182629221362823;-0.0349;-0.1286;0.0683;
1182629231464177;-0.0722;-0.0308;0.0406;
1182629241565531;-0.0274;-0.0233;0.0523;
1182629251648448;-0.0168;-0.1052;0.0193;
1182629261749802;-0.0242;-0.0052;0.0023;
1182629271851208;-0.0210;0.0715;0.0246;
1182629281945635;-0.0029;0.0278;0.0044;
1182629292046989;-0.0455;0.0108;0.0204;
1182629302148396;-0.0423;-0.0680;0.0225;
1182629312227198;-0.0551;-0.0892;0.0129;
1182629322328604;-0.0700;-0.0521;0.0087;
1182629332429958;-0.0296;0.0534;0.0236;
1182629342551469;-0.0019;0.1301;0.0087;
1182629352652875;0.0045;0.0779;-0.0020;
1182629362754229;-0.0051;0.0747;-0.0201;
1182629372843760;-0.0093;0.1865;-0.0606;
1182629382945166;-0.0125;0.1290;-0.0457;
1182629393046521;-0.0498;0.0374;-0.0244;
1182629403141364;-0.0796;-0.0265;-0.0446;
1182629413242771;-0.0455;0.0395;-0.0755;
1182629423344125;0.0003;0.2334;-0.0659;
1182629433446677;0.0397;0.1748;-0.0638;
1182629443548031;-0.0051;-0.0489;-0.0553;
1182629453649437;-0.0306;-0.0563;-0.0787;
1182629463753969;0.0269;0.0822;-0.1192;
1182629473855375;0.0514;0.0140;-0.0968;
1182629483956729;0.0088;-0.1670;-0.0947;
1182629494061364;-0.0136;-0.1158;-0.0936;
1182629504133656;0.0226;-0.0308;-0.0968;
1182629514235010;0.0599;-0.0425;-0.1075;
1182629524336364;0.0535;-0.1222;-0.0915;
1182629534462719;0.0439;-0.1510;-0.0744;
1182629544564125;0.0514;-0.1851;-0.0510;
1182629554665479;0.0407;-0.2053;-0.0723;
1182629564767927;0.0439;-0.1851;-0.0819;
1182629574869333;0.0418;-0.1904;-0.0670;
1182629584970687;0.0397;-0.0935;-0.0798;
1182629595070010;0.0461;-0.0105;-0.0744;
1182629605171416;0.0525;-0.0308;-0.0372;
1182629615272771;0.0439;-0.0850;-0.0116;
1182629625371781;0.0375;-0.0892;-0.0361;
1182629635473187;0.0375;0.0566;-0.0158;
1182629645574541;0.0716;0.0587;0.0129;
1182629655680219;0.0557;0.0630;0.0140;
1182629665781625;0.0599;0.1312;0.0023;
1182629675882979;0.0407;0.0992;0.0129;
1182629685977198;0.0152;0.1333;0.0033;
1182629696078604;-0.0146;0.0726;0.0076;
1182629706179958;-0.0104;-0.0744;0.0332;
1182629716285219;-0.0157;0.0459;0.0268;
1182629726386625;0.0130;0.1301;0.0129;
1182629736487979;0.0280;0.0257;0.0449;
1182629746592927;0.0099;-0.0372;0.0758;
1182629756694281;0.0109;0.0214;0.0364;
1182629766795635;0.0280;0.0470;0.0268;
1182629776913916;0.0024;0.0385;0.0672;
1182629787015271;-0.0157;0.0715;0.0555;
1182629797116677;-0.0210;0.0161;0.0342;
1182629807214281;-0.0083;0.0321;0.0353;
1182629817315635;-0.0168;-0.0222;0.0491;
1182629827416989;-0.0083;-0.1169;0.0587;
1182629837498760;-0.0093;-0.0553;0.0513;
1182629847600114;0.0130;0.0225;0.0459;
1182629857701521;0.0301;0.0044;0.0406;
1182629867803864;0.0077;0.0076;0.0513;
1182629877905219;0.0035;0.0193;0.0385;
1182629888006625;-0.0115;0.0534;0.0278;
1182629898115739;-0.0200;-0.0329;0.0385;
1182629908217146;-0.0253;-0.0489;0.0577;
1182629918318500;-0.0253;-0.0116;0.0417;
1182629928409177;-0.0029;0.0417;0.0523;
1182629938510583;-0.0040;-0.0467;0.0651;
1182629948611937;-0.0136;-0.0648;0.0683;
1182629958713135;-0.0125;-0.0350;0.0502;
1182629968814541;-0.0072;0.0225;0.0523;
1182629978915896;-0.0168;0.0885;0.0385;
1182629989017302;-0.0360;0.0438;0.0374;
1182629999118656;-0.0487;-0.0734;0.0491;
1182630009220062;-0.0668;-0.0361;0.0545;
1182630019323864;-0.0541;0.0204;0.0374;
1182630029425271;-0.0264;-0.0126;0.0577;
1182630039526625;-0.0455;0.0001;0.0651;
1182630049619333;-0.0232;0.0470;0.0481;
1182630059720687;-0.0072;0.0790;0.0268;
1182630069822094;-0.0253;0.0832;0.0438;
1182630079927927;-0.0498;-0.0052;0.0257;
1182630090029281;-0.0754;-0.0031;0.0289;
1182630100130635;-0.0541;-0.0041;0.0193;
1182630110291312;-0.0573;-0.0212;0.0385;
1182630120392614;-0.0391;-0.0148;0.0321;
1182630130494021;-0.0242;0.0566;0.0172;
1182630140541885;-0.0083;0.0246;0.0374;
1182630150643291;-0.0157;-0.0414;0.0193;
1182630160744698;-0.0306;-0.0478;0.0193;
1182630170821729;-0.0210;0.0001;0.0172;
1182630180923083;-0.0349;0.0150;0.0129;
1182630191024437;-0.0466;-0.0126;0.0033;
1182630201146781;-0.0519;-0.0233;0.0129;
1182630211248135;-0.0274;-0.0020;-0.0126;
1182630221349541;-0.0136;0.0385;0.0012;
1182630231475635;-0.0189;0.0087;0.0289;
1182630241576989;-0.0136;-0.0553;0.0374;
1182630251678396;-0.0136;0.0268;0.0001;
1182630261753864;0.0077;0.0417;0.0055;
1182630271855271;-0.0370;0.0204;0.0065;
1182630281956625;-0.0615;0.0204;-0.0063;
1182630292048656;-0.0562;-0.0329;-0.0126;
1182630302150010;-0.0509;-0.0478;-0.0031;
1182630312251364;-0.0434;-0.0308;-0.0244;
1182630322387666;-0.0189;-0.0009;-0.0020;
1182630332489021;-0.0115;-0.0158;0.0140;
1182630342590427;-0.0264;0.0055;0.0044;
1182630352655010;-0.0072;0.0502;-0.0382;
1182630362756416;-0.0178;0.0523;-0.0073;
1182630372857771;-0.0423;0.0502;-0.0222;
1182630382969177;-0.0530;0.0364;-0.0361;
1182630393070531;-0.0455;0.0459;-0.0276;
1182630403171937;-0.0338;0.0193;-0.0244;
1182630413295531;-0.0306;-0.0244;-0.0233;
1182630423396885;-0.0381;0.0278;-0.0201;
1182630433498291;-0.0093;0.0236;-0.0212;
1182630443572510;-0.0104;0.0033;-0.0212;
1182630453673864;-0.0115;0.0055;-0.0574;
1182630463775271;-0.0285;0.0150;-0.0425;
1182630473878760;-0.0455;0.0193;-0.0510;
1182630483980166;-0.0477;0.0097;-0.0680;
1182630494081521;-0.0434;-0.0372;-0.0670;
1182630504181469;-0.0317;-0.0606;-0.0670;
1182630514282979;-0.0136;-0.0414;-0.0659;
1182630524384437;0.0056;-0.0414;-0.0467;
1182630534508864;0.0130;-0.0828;-0.0425;
1182630544610323;-0.0040;-0.0828;-0.0819;
1182630554711781;-0.0008;-0.0521;-0.0872;
1182630564800271;0.0013;-0.0212;-0.0766;
1182630574901729;0.0162;0.0236;-0.0957;
1182630585003239;0.0194;-0.0158;-0.0830;
1182630595093760;0.0109;-0.0553;-0.0893;
1182630605195271;0.0056;0.0076;-0.0989;
1182630615296729;0.0226;0.0491;-0.0904;
1182630625401677;0.0344;0.0502;-0.0766;
1182630635503187;0.0344;-0.0009;-0.0648;
1182630645604646;0.0216;-0.0276;-0.0851;
1182630655707406;0.0258;0.0097;-0.0989;
1182630665808916;0.0258;0.0246;-0.0936;
1182630675910323;0.0045;0.0055;-0.0989;
1182630686008552;-0.0104;-0.0435;-0.1043;
1182630696110010;-0.0051;-0.0393;-0.0957;
1182630706211521;0.0077;-0.0052;-0.1043;
1182630716312614;0.0194;0.0268;-0.0915;
1182630726414125;0.0280;0.0033;-0.0798;
1182630736515583;0.0301;-0.0073;-0.0723;
1182630746637041;0.0354;0.0822;-0.1011;
1182630756738552;0.0312;0.1301;-0.0968;
1182630766840010;0.0258;0.1024;-0.1075;
1182630776916469;-0.0136;-0.0126;-0.1032;
1182630787017979;-0.0083;-0.1371;-0.0883;
1182630797119385;0.0130;-0.0977;-0.1128;
1182630807219073;0.0333;-0.1190;-0.1043;
1182630817320531;0.0439;-0.1712;-0.0670;
1182630827421989;0.0674;0.0012;-0.0680;
1182630837530531;0.1196;0.2675;-0.1117;
1182630847631989;0.2185;0.2707;-0.1170;
1182630857733500;0.2494;0.1578;-0.0670;
1182630867843135;0.1654;0.1013;-0.0531;
1182630877944646;0.1025;-0.0020;-0.0403;
1182630888046104;0.0684;-0.0478;-0.0446;
1182630898133448;0.0684;0.0012;-0.0521;
1182630908234958;0.0716;-0.1265;-0.0382;
1182630918336416;0.0866;-0.0553;-0.0084;
1182630928439802;0.1153;0.0065;-0.0265;
1182630938541312;0.1249;-0.0670;-0.0680;
1182630948642771;0.0770;-0.1244;-0.0318;
1182630958743344;0.0546;-0.2032;-0.0073;
1182630968844854;0.0770;-0.1744;-0.0276;
1182630978946312;0.0993;-0.0988;-0.0308;
1182630989047094;0.1345;-0.0063;-0.0222;
1182630999148552;0.1579;0.0811;-0.0265;
1182631009250062;0.1739;0.0843;-0.0063;
1182631019351469;0.1622;0.1418;0.0044;
1182631029452979;0.1707;0.0854;0.0012;
1182631039554437;0.1228;-0.1861;-0.0180;
1182631049636208;0.0429;-0.1744;0.0087;
1182631059737666;0.0525;0.0055;-0.0041;
1182631069839125;0.1153;0.0481;-0.0148;
1182631079983552;0.0929;0.0385;-0.0169;
1182631090085010;0.0610;0.0438;-0.0063;
1182631100186469;0.0791;0.0694;-0.0020;
1182631110279594;0.0908;0.0470;0.0193;
1182631120381052;0.0908;0.0481;0.0257;
1182631130482562;0.1015;0.0236;0.0055;
1182631140574698;0.0983;0.0300;-0.0126;
1182631150676156;0.0748;0.0395;0.0033;
1182631160777614;0.0684;0.0246;-0.0116;
1182631170874906;0.0450;-0.0340;-0.0116;
1182631180976364;0.0471;-0.0850;0.0023;
1182631191077823;0.0503;-0.0723;-0.0063;
1182631201174385;0.0738;-0.0648;0.0055;
1182631211275844;0.0866;-0.0764;0.0140;
1182631221377302;0.1068;0.0161;0.0172;
1182631231475427;0.1249;0.0342;-0.0052;
1182631241576885;0.1185;0.0257;0.0140;
1182631251678344;0.0961;0.0268;0.0225;
1182631261778239;0.0897;0.0023;0.0119;
1182631271879750;0.0780;-0.0276;0.0108;
1182631281981156;0.0791;-0.0020;0.0193;
1182631292075844;0.0897;0.0033;0.0225;
1182631302177302;0.1036;0.0342;0.0332;
1182631312278760;0.1111;0.0481;0.0577;
1182631322393604;0.1153;-0.0116;0.0630;
1182631332495114;0.0834;-0.0425;0.0481;
1182631342596573;0.0823;0.0150;0.0747;
1182631352691104;0.0802;0.0342;0.0843;
1182631362792614;0.0567;0.0023;0.0768;
1182631372894021;0.0557;-0.0233;0.0907;
1182631383022250;0.0610;0.0257;0.0960;
1182631393123708;0.0738;0.0896;0.0843;
1182631403225166;0.0770;0.0321;0.1216;
1182631413328396;0.0546;-0.0318;0.1418;
1182631423429906;0.0386;-0.0126;0.1290;
1182631433531364;0.0525;0.0214;0.1120;
1182631443598552;0.0439;0.0438;0.1344;
1182631453700062;0.0237;0.0278;0.1269;
1182631463801521;0.0162;0.0236;0.1130;
1182631473908135;0.0056;0.0523;0.1312;
1182631484009646;0.0162;0.0172;0.1365;
1182631494111052;-0.0008;-0.0489;0.1407;
1182631504194594;-0.0349;-0.0372;0.1471;
1182631514296052;-0.0328;-0.0031;0.1461;
1182631524397562;0.0120;-0.0031;0.1130;
1182631534518448;0.0035;0.0161;0.1237;
1182631544619958;0.0003;0.0566;0.1226;
1182631554721416;0.0067;0.0715;0.1067;
1182631564835739;-0.0040;0.0193;0.1056;
1182631574937250;-0.0189;0.0076;0.1141;
1182631585038656;-0.0391;0.0097;0.1056;
1182631595121364;-0.0178;-0.0073;0.1067;
1182631605222875;-0.0189;-0.0031;0.1216;
1182631615324281;0.0035;0.0310;0.1077;
1182631625424073;0.0237;0.0182;0.0768;
1182631635525583;-0.0083;0.0108;0.0896;
1182631645626989;-0.0178;-0.0073;0.0843;
1182631655737302;-0.0189;-0.0457;0.0726;
1182631665838760;-0.0157;-0.0052;0.0651;
1182631675940219;0.0077;0.0055;0.0704;
1182631686040114;0.0109;-0.0009;0.0779;
1182631696141573;0.0162;0.0033;0.1035;
1182631706243031;0.0269;-0.0276;0.0960;
1182631716346260;0.0056;-0.0372;0.0736;
1182631726447719;0.0003;-0.0233;0.0790;
1182631736549177;-0.0125;0.0459;0.0949;
1182631746656000;-0.0008;0.0481;0.0790;
1182631756757458;-0.0264;-0.0265;0.0822;
1182631766858916;-0.0274;-0.1063;0.0939;
1182631776955219;-0.0626;-0.0850;0.0885;
1182631787056677;-0.0551;0.0012;0.0822;
1182631797158135;-0.0040;-0.0084;0.1077;
1182631807272719;0.0067;0.0119;0.1152;
1182631817374229;-0.0061;0.0427;0.0949;
1182631827475635;-0.0178;0.0417;0.1141;
1182631837577510;-0.0530;0.0321;0.1109;
1182631847678969;-0.0647;0.0012;0.0907;
1182631857780427;-0.0956;0.0278;0.0854;
1182631867871885;-0.1031;0.0907;0.1013;
1182631877973344;-0.0796;0.0768;0.0907;
1182631888074802;-0.0945;0.0395;0.1056;
1182631898181364;-0.1340;0.0364;0.0960;
1182631908282823;-0.0977;0.0300;0.0704;
1182631918384281;-0.0871;0.0001;0.0545;
1182631928486364;-0.0999;-0.0052;0.0747;
1182631938587823;-0.0999;-0.0201;0.0523;
1182631948689333;-0.0828;-0.0403;0.0289;
1182631958782094;-0.0732;-0.0881;0.0236;
1182631968883604;-0.0658;-0.1126;0.0310;
1182631978985010;-0.0530;-0.0903;0.0300;
1182631989083552;-0.0232;-0.1116;0.0481;
1182631999185062;-0.0168;-0.1542;0.0438;
1182632009286521;-0.0434;-0.2607;0.0364;
1182632019389698;-0.0509;-0.2341;0.0214;
1182632029491156;-0.0615;-0.0190;0.0055;
1182632039592614;0.0056;-0.0318;0.0065;
1182632049658604;0.0386;-0.1723;0.0246;
1182632059760062;-0.0210;-0.1606;0.0385;
1182632069861521;-0.0541;-0.0839;0.0353;
1182632079993448;-0.0083;-0.0084;0.0406;
1182632090094906;0.0013;0.0087;0.0491;
1182632100196416;0.0024;0.0246;0.0640;
1182632110277979;-0.0221;0.1290;0.0406;
1182632120379437;-0.0178;0.2569;0.0566;
1182632130480896;-0.0232;0.1802;0.0523;
1182632140572823;-0.0892;0.1152;0.0353;
1182632150674333;-0.1265;0.2025;0.0342;
1182632160775739;-0.0924;0.2739;0.0491;
1182632170911000;-0.0690;0.2632;0.0481;
1182632181012458;-0.0924;0.1919;0.0651;
1182632191113916;-0.1158;0.1663;0.0640;
1182632201229594;-0.1031;0.2004;0.0385;
1182632211331052;-0.0839;0.2409;0.0129;
1182632221432510;-0.0945;0.2686;0.0268;
1182632231502771;-0.1052;0.1748;0.0065;
1182632241604229;-0.1265;0.0747;0.0065;
1182632251705687;-0.1585;0.0939;-0.0020;
1182632261833344;-0.1254;0.1045;-0.0158;
1182632271934802;-0.1052;0.0236;-0.0169;
1182632282036260;-0.0988;-0.0680;0.0023;
1182632292118969;-0.0775;-0.1137;-0.0222;
1182632302220479;-0.0647;-0.2362;-0.0276;
1182632312321937;-0.0945;-0.3012;-0.0180;
1182632322428552;-0.1063;-0.2373;-0.0563;
1182632332530062;-0.0807;-0.1521;-0.0872;
1182632342631469;-0.0509;-0.0860;-0.0819;
1182632352719854;-0.0115;-0.0796;-0.0648;
1182632362821364;-0.0061;-0.0860;-0.0595;
1182632372922771;-0.0093;-0.0967;-0.0446;
1182632383033031;-0.0200;-0.0467;-0.0286;
1182632393134489;-0.0189;-0.0212;-0.0212;
1182632403236000;-0.0232;-0.0063;-0.0340;
1182632413346156;-0.0391;0.1162;-0.0031;
1182632423447614;-0.0296;0.0555;-0.0095;
1182632433549073;-0.0615;-0.0393;-0.0158;
1182632443656781;-0.0945;-0.0521;-0.0031;
1182632453758239;-0.0732;-0.0807;0.0012;
1182632463859698;-0.0924;-0.0839;0.0140;
1182632473964750;-0.1063;-0.1020;0.0300;
1182632484066208;-0.1020;-0.0702;0.0310;
1182632494167666;-0.1244;0.0087;0.0108;
1182632504248500;-0.1158;0.0502;0.0119;
1182632514350010;-0.1329;0.0704;0.0246;
1182632524451521;-0.1382;0.0662;0.0119;
1182632534558864;-0.1616;0.0427;0.0065;
1182632544660427;-0.1819;0.0619;0.0012;
1182632554761937;-0.1947;0.0310;0.0119;
1182632564875010;-0.1925;-0.0190;0.0001;
1182632574976573;-0.1861;0.0704;-0.0148;
1182632585078083;-0.1180;0.1130;-0.0105;
1182632595155010;-0.0924;0.0385;-0.0286;
1182632605256573;-0.1350;0.0097;-0.0244;
1182632615358083;-0.1340;0.0225;-0.0606;
1182632625458656;-0.1116;0.0364;-0.0904;
1182632635560219;-0.1041;0.0172;-0.0957;
1182632645661729;-0.0818;-0.0084;-0.1053;
1182632655780427;-0.0668;0.0236;-0.1053;
1182632665881989;-0.0285;0.0268;-0.0968;
1182632675983500;0.0045;-0.0478;-0.1032;
1182632686076260;0.0120;-0.1190;-0.1256;
1182632696177823;0.0130;-0.0617;-0.1362;
1182632706279385;0.0397;-0.0137;-0.1181;
1182632716386885;0.0940;-0.0201;-0.1394;
1182632726488448;0.0983;-0.0031;-0.1511;
1182632736589958;0.0908;0.0044;-0.1320;
1182632746668552;0.0844;0.0065;-0.1192;
1182632756770114;0.0674;0.0140;-0.1170;
1182632766871625;0.0397;0.0672;-0.1107;
1182632776988969;0.0557;0.1226;-0.1085;
1182632787090531;0.0344;0.1003;-0.1298;
1182632797192041;0.0099;0.1482;-0.1192;
1182632807297041;-0.0019;0.1301;-0.1138;
1182632817398552;-0.0232;0.0257;-0.1479;
1182632827500062;-0.0519;-0.0233;-0.1565;
1182632837600635;-0.0477;-0.0414;-0.1437;
1182632847702198;-0.0221;-0.0435;-0.1533;
1182632857803708;0.0216;-0.0871;-0.1458;
1182632867901885;0.0280;-0.1009;-0.1501;
1182632878003448;0.0290;-0.0531;-0.1533;
1182632888104958;0.0631;-0.0414;-0.1788;
1182632898219489;0.0908;-0.0276;-0.1565;
1182632908321052;0.1121;-0.0680;-0.1724;
1182632918422562;0.1238;-0.0233;-0.1724;
1182632928499698;0.1174;0.0129;-0.1735;
1182632938601260;0.1515;0.0140;-0.1714;
1182632948702771;0.1153;0.0353;-0.1671;
1182632958813864;0.1068;0.0246;-0.1490;
1182632968915427;0.1142;0.0076;-0.1352;
1182632979016937;0.0834;-0.0031;-0.1586;
1182632989115010;0.0738;0.0278;-0.1618;
1182632999216573;0.0652;0.0662;-0.1543;
1182633009318083;0.0610;0.0577;-0.1767;
1182633019408344;0.0525;0.0598;-0.1873;
1182633029509906;0.0706;0.0385;-0.1799;
1182633039611416;0.0727;0.0172;-0.1714;
1182633049702094;0.0855;-0.0414;-0.1618;
1182633059803656;0.0940;-0.0510;-0.1607;
1182633069905166;0.1206;-0.0095;-0.1554;
1182633080035427;0.1430;0.0033;-0.1756;
1182633090136937;0.1739;0.0097;-0.1575;
1182633100238500;0.1791;-0.0233;-0.1447;
1182633110345479;0.1908;-0.0382;-0.1522;
1182633120447041;0.1865;-0.0648;-0.1405;
1182633130548552;0.1972;-0.0786;-0.1107;
1182633140660739;0.1983;-0.0585;-0.1138;
1182633150762302;0.2174;-0.0286;-0.0904;
1182633160863760;0.2324;0.0076;-0.0553;
1182633170953760;0.2526;0.0012;-0.0510;
1182633181055323;0.2515;0.0342;-0.0521;
1182633191156833;0.2324;0.0704;-0.0276;
1182633201231260;0.2270;0.0555;-0.0308;
1182633211332823;0.1897;0.0300;-0.0158;
1182633221434333;0.1569;-0.0063;0.0001;
1182633231531885;0.1451;0.0129;0.0257;
1182633241633448;0.1590;0.0332;0.0257;
1182633251734958;0.1654;0.0108;0.0513;
1182633261851052;0.1664;0.0119;0.0758;
1182633271952614;0.1483;0.0300;0.0609;
1182633282054125;0.1292;0.0300;0.0790;
1182633292162823;0.1025;-0.0190;0.0822;
1182633302264385;0.1025;-0.0574;0.0747;
1182633312365948;0.0919;-0.0222;0.0779;
1182633322467927;0.1217;-0.0031;0.0960;
1182633332569489;0.1206;-0.0020;0.0992;
1182633342671000;0.1281;-0.0382;0.1162;
1182633352748448;0.1356;-0.0297;0.1333;
1182633362850010;0.1334;-0.0052;0.1344;
1182633372951521;0.1206;0.0044;0.1141;
1182633383064594;0.0919;0.0204;0.1407;
1182633393166156;0.0972;0.0012;0.1162;
1182633403267666;0.0887;-0.0638;0.1280;
1182633413388760;0.0716;-0.0031;0.1269;
1182633423490271;0.0855;0.1035;0.1248;
1182633433591833;0.1270;0.0854;0.1301;
1182633443669021;0.1047;0.0257;0.1589;
1182633453770583;0.0983;0.0204;0.1642;
1182633463872094;0.0993;0.0129;0.1461;
1182633473990948;0.0876;0.0001;0.1525;
1182633484092458;0.0663;-0.0510;0.1663;
1182633494194021;0.0386;-0.0638;0.1589;
1182633504280114;0.0205;0.0193;0.1439;
1182633514381521;0.0674;0.0108;0.1704;
1182633524482875;0.0525;-0.1457;0.1768;
1182633534601677;-0.0360;-0.1158;0.2003;
1182633544703031;-0.0455;-0.0009;0.1992;
1182633554804437;0.0546;-0.0169;0.1981;
1182633564906364;0.0322;-0.0691;0.1960;
1182633575007719;-0.0402;-0.0180;0.2194;
1182633585109125;-0.0328;0.0289;0.2141;
1182633595200531;-0.0051;0.0204;0.2056;
1182633605301885;-0.0551;-0.0158;0.2120;
1182633615403291;-0.1169;0.0012;0.2237;
1182633625493448;-0.1350;0.0001;0.2152;
1182633635594802;-0.1425;-0.0190;0.2173;
1182633645696208;-0.1680;-0.0020;0.2152;
1182633655810531;-0.1680;0.0012;0.2003;
1182633665911885;-0.1776;0.0683;0.1811;
1182633676013291;-0.1723;0.0928;0.1949;
1182633686119281;-0.1553;0.0257;0.1578;
1182633696220635;-0.2106;0.0438;0.1471;
1182633706322041;-0.2224;0.0790;0.1354;
1182633716422302;-0.1819;0.1003;0.1226;
1182633726523656;-0.1766;0.0640;0.1216;
1182633736625062;-0.1691;0.0001;0.1269;
1182633746731573;-0.1510;-0.0350;0.1237;
1182633756832927;-0.1425;-0.0786;0.0875;
1182633766934281;-0.1254;-0.0169;0.0715;
1182633777020323;-0.1105;0.0044;0.0779;
1182633787121677;-0.1063;-0.0095;0.0555;
1182633797223083;-0.1073;-0.0105;0.0406;
1182633807336989;-0.0924;-0.0233;0.0449;
1182633817438344;-0.0956;-0.0563;0.0438;
1182633827539698;-0.0839;-0.0414;0.0470;
1182633837640114;-0.0573;0.0502;0.0481;
1182633847741469;-0.0328;0.0513;0.0395;
1182633857842875;-0.0530;0.0523;0.0204;
1182633867938969;-0.0743;0.0364;0.0289;
1182633878040323;-0.0913;0.0236;-0.0020;
1182633888141729;-0.1009;0.0204;-0.0137;
1182633898246781;-0.0775;0.0161;-0.0148;
1182633908348135;-0.0754;0.0427;-0.0126;
1182633918449541;-0.0615;0.0150;-0.0137;
1182633928535427;-0.0647;-0.0361;-0.0116;
1182633938636781;-0.0530;-0.0585;-0.0190;
1182633948738187;-0.0679;-0.0638;-0.0318;
1182633958837614;-0.0658;0.0246;-0.0382;
1182633968939021;-0.0519;0.0108;-0.0393;
1182633979040375;-0.0498;-0.0553;-0.0563;
1182633989144385;-0.0668;-0.0425;-0.0670;
1182633999245739;-0.0455;0.0055;-0.0670;
1182634009347146;-0.0349;-0.0126;-0.0680;
1182634019436364;-0.0413;-0.0308;-0.0595;
1182634029537719;-0.0232;0.0044;-0.0489;
1182634039639125;0.0003;0.0033;-0.0467;
1182634049765531;-0.0146;-0.0073;-0.0670;
1182634059866885;-0.0328;0.0278;-0.0510;
1182634069968239;-0.0306;0.0395;-0.0627;
1182634080055583;-0.0328;0.0928;-0.0851;
1182634090156989;-0.0253;0.1525;-0.0798;
1182634100258344;-0.0136;0.1620;-0.0648;
1182634110354125;-0.0242;0.1226;-0.0648;
1182634120455479;-0.0274;0.0917;-0.0414;
1182634130556833;-0.0189;0.1088;-0.0414;
1182634140666469;-0.0253;0.1067;-0.0489;
1182634150767823;-0.0360;0.0896;-0.0489;
1182634160869177;-0.0605;0.0587;-0.0435;
1182634170966000;-0.0541;0.0332;-0.0734;
1182634181067354;-0.0487;-0.0020;-0.0819;
1182634191168708;-0.0445;-0.0542;-0.0702;
1182634201275531;-0.0519;-0.0924;-0.0680;
1182634211376885;-0.0349;-0.1361;-0.0680;
1182634221478291;-0.0072;-0.0734;-0.0744;
1182634231567302;0.0226;-0.0510;-0.0617;
1182634241668708;0.0269;-0.0286;-0.0808;
1182634251770062;0.0429;0.0353;-0.0723;
1182634261869073;0.0642;-0.0212;-0.0723;
1182634271970479;0.0610;-0.0786;-0.0851;
1182634282071833;0.0184;-0.0254;-0.0872;
1182634292185010;0.0375;-0.0105;-0.0691;
1182634302286364;0.0482;-0.0563;-0.0627;
1182634312387771;0.0429;-0.0553;-0.0510;
1182634322510114;0.0578;-0.0254;-0.0372;
1182634332611469;0.0866;-0.0446;-0.0372;
1182634342712823;0.0770;-0.0233;-0.0435;
1182634352795635;0.0599;-0.0009;-0.0190;
1182634362896989;0.0546;-0.0052;-0.0350;
1182634372998396;0.0344;0.0960;-0.0435;
1182634383097354;0.0514;0.1514;-0.0467;
1182634393198708;0.0471;0.0779;-0.0084;
1182634403300114;0.0173;-0.0446;0.0172;
1182634413407719;0.0013;-0.0967;0.0225;
1182634423509073;0.0013;-0.0670;0.0193;
1182634433610479;0.0120;-0.0563;0.0097;
1182634443727927;0.0013;-0.0361;0.0161;
1182634453829281;-0.0178;-0.0105;0.0225;
1182634463930687;-0.0157;-0.0499;-0.0031;
1182634474020010;-0.0306;-0.0446;-0.0084;
1182634484121364;-0.0189;-0.0659;0.0140;
1182634494222771;-0.0360;-0.0818;0.0012;
1182634504313552;-0.0285;0.0619;0.0001;
1182634514414906;0.0258;0.1503;0.0140;
1182634524516260;0.0386;0.0939;0.0257;
1182634534603344;-0.0157;0.0523;0.0023;
1182634544704698;-0.0210;0.0651;0.0087;
1182634554806052;-0.0168;0.0150;-0.0095;
1182634564906208;-0.0189;-0.0233;-0.0201;
1182634575007562;-0.0136;-0.0020;-0.0222;
1182634585108916;0.0152;0.0236;-0.0063;
1182634595224906;0.0152;-0.0254;-0.0009;
1182634605326260;0.0088;-0.0627;0.0001;
1182634615427614;0.0226;-0.0702;0.0119;
1182634625525271;0.0067;-0.0553;0.0182;
1182634635626625;0.0024;0.0182;-0.0020;
1182634645727979;0.0141;0.1152;0.0108;
1182634655845219;0.0386;0.1375;-0.0212;
1182634665946573;0.0226;0.0662;-0.0105;
1182634676047927;-0.0040;-0.0254;0.0076;
1182634686141885;-0.0210;-0.0796;0.0055;
1182634696243239;-0.0093;-0.0670;-0.0009;
1182634706344594;0.0194;0.0119;0.0140;
1182634716447041;0.0322;-0.0105;0.0342;
1182634726548344;-0.0093;-0.0499;0.0278;
1182634736649698;-0.0168;-0.0361;0.0150;
1182634746743031;-0.0104;-0.0574;0.0033;
1182634756844333;-0.0317;-0.1489;-0.0084;
1182634766945739;-0.0328;-0.0308;-0.0052;
1182634777046937;0.0045;0.0928;0.0087;
1182634787148291;0.0322;0.0949;0.0097;
1182634797249646;0.0099;0.0662;0.0087;
1182634807347510;0.0056;0.0108;0.0332;
1182634817448864;-0.0104;0.0065;0.0406;
1182634827550219;-0.0221;0.0353;0.0278;
1182634837670531;-0.0264;-0.0169;0.0395;
1182634847771885;-0.0509;-0.0340;0.0225;
1182634857873239;-0.0583;-0.0308;0.0076;
1182634867965010;-0.0498;-0.0201;0.0161;
1182634878066364;-0.0519;-0.0361;0.0268;
1182634888167719;-0.0434;-0.0744;0.0204;
1182634898273187;-0.0434;-0.0318;0.0257;
1182634908374541;-0.0146;0.0182;0.0332;
1182634918475896;-0.0178;0.0161;0.0385;
1182634928558187;-0.0423;0.0790;0.0193;
1182634938659541;-0.0285;0.1216;0.0214;
1182634948760896;-0.0232;0.0822;-0.0063;
1182634958875427;-0.0445;0.0577;-0.0105;
1182634968976781;-0.0573;0.0342;-0.0105;
1182634979078135;-0.0477;-0.0340;-0.0095;
1182634989175427;-0.0509;-0.0892;0.0055;
1182634999276781;-0.0338;-0.0850;0.0044;
1182635009378135;-0.0125;-0.1084;-0.0009;
1182635019472771;-0.0306;-0.0308;-0.0180;
1182635029574073;-0.0221;-0.0222;0.0001;
1182635039675479;-0.0146;-0.0478;-0.0180;
1182635049794281;-0.0285;0.0917;-0.0531;
1182635059895583;0.0237;0.1770;-0.0766;
1182635069996989;0.0567;0.1695;-0.0478;
1182635080077510;0.0152;0.0949;-0.0158;
1182635090178864;0.0013;0.0161;-0.0105;
1182635100280219;0.0035;-0.0169;-0.0095;
1182635110388239;-0.0072;-0.0244;-0.0084;
1182635120489594;-0.0189;0.0204;-0.0286;
1182635130590948;-0.0274;0.0140;-0.0212;
1182635140699802;-0.0242;-0.0457;-0.0361;
1182635150801104;-0.0296;-0.0734;-0.0403;
1182635160902458;-0.0242;-0.1169;-0.0372;
1182635170992406;-0.0264;-0.1787;-0.0190;
1182635181093760;-0.0115;-0.1553;-0.0276;
1182635191195114;0.0088;-0.0553;-0.0095;
1182635201338916;0.0365;0.0598;-0.0020;
1182635211440271;0.0237;0.0747;0.0044;
1182635221541573;0.0056;0.0395;0.0129;
1182635231603760;-0.0317;0.0140;0.0087;
1182635241705114;-0.0264;0.0875;-0.0190;
1182635251806469;-0.0040;0.1567;-0.0052;
1182635261911364;-0.0115;0.0800;0.0193;
1182635272012719;-0.0391;-0.0393;0.0332;
1182635282114073;-0.0605;-0.0286;0.0342;
1182635292224698;-0.0541;-0.0414;0.0395;
1182635302326052;-0.0391;-0.1009;0.0577;
1182635312427406;-0.0583;-0.0945;0.0385;
1182635322535531;-0.0562;-0.0659;0.0491;
1182635332636885;-0.0370;-0.0318;0.0278;
1182635342738239;-0.0360;-0.0414;0.0012;
1182635352812094;-0.0445;-0.0775;0.0129;
1182635362913448;-0.0423;-0.0478;0.0321;
1182635373014802;-0.0157;-0.0116;0.0204;
1182635383114698;-0.0040;0.0246;0.0321;
1182635393216052;-0.0029;0.0630;0.0364;
1182635403317406;-0.0264;0.0768;0.0395;
1182635413430739;-0.0296;0.1099;0.0246;
1182635423532041;-0.0434;0.0736;0.0214;
1182635433633396;-0.0434;0.0619;-0.0158;
1182635443737771;-0.0455;0.0779;-0.0095;
1182635453839125;-0.0519;0.0395;-0.0041;
1182635463940479;-0.0690;0.0055;-0.0084;
1182635474053969;-0.0615;-0.0041;-0.0222;
1182635484155271;-0.0413;0.0342;-0.0201;
1182635494256625;-0.0264;0.0119;-0.0116;
1182635504347927;-0.0455;0.0012;-0.0286;
1182635514449281;-0.0391;0.0449;-0.0446;
1182635524550635;-0.0391;0.0044;-0.0521;
1182635534665948;-0.0487;-0.0126;-0.0734;
1182635544767302;-0.0402;-0.0212;-0.0819;
1182635554868656;-0.0338;-0.0478;-0.0755;
1182635564938135;-0.0189;-0.0489;-0.0883;
1182635575039489;0.0067;-0.0244;-0.0830;
1182635585140844;0.0024;-0.0393;-0.0680;
1182635595253969;-0.0051;-0.0435;-0.0627;
1182635605355323;-0.0061;-0.0212;-0.0712;
1182635615456677;0.0003;-0.0574;-0.0670;
1182635625556677;-0.0104;-0.0403;-0.0989;
1182635635658031;-0.0178;0.0129;-0.1053;
1182635645759385;-0.0008;-0.0084;-0.0840;
1182635655871104;-0.0072;-0.0510;-0.0617;
1182635665972458;-0.0040;-0.0574;-0.0638;
1182635676073812;0.0035;-0.0350;-0.0606;
1182635686184698;0.0045;-0.0222;-0.0489;
1182635696286052;-0.0072;-0.0020;-0.0478;
1182635706387406;-0.0125;0.0342;-0.0382;
1182635716476052;-0.0072;0.0140;-0.0372;
1182635726577406;-0.0115;0.0236;-0.0585;
1182635736678760;-0.0210;0.0545;-0.0499;
1182635746779437;-0.0157;0.0321;-0.0372;
1182635756880791;-0.0232;-0.0340;-0.0286;
1182635766982146;-0.0104;-0.0393;-0.0318;
1182635777084802;0.0077;-0.0084;-0.0180;
1182635787186156;0.0077;-0.0265;-0.0031;
1182635797287510;-0.0296;0.0204;-0.0265;
1182635807400844;-0.0136;0.0214;-0.0233;
1182635817502198;0.0024;0.0044;-0.0286;
1182635827603552;-0.0040;0.0417;-0.0425;
1182635837697094;0.0109;0.0119;-0.0393;
1182635847798448;0.0024;-0.0126;-0.0329;
1182635857899802;0.0152;0.0033;-0.0446;
1182635867991781;0.0301;0.0023;-0.0233;
1182635878093135;0.0407;-0.0435;-0.0148;
1182635888194489;0.0375;-0.0382;-0.0116;
1182635898298760;0.0269;-0.0041;-0.0340;
1182635908400114;0.0280;-0.0425;-0.0393;
1182635918501469;0.0216;-0.0764;-0.0510;
1182635928596573;0.0099;-0.0723;-0.0499;
1182635938697927;0.0130;-0.0553;-0.0744;
1182635948799281;0.0375;-0.0095;-0.0446;
1182635958901937;0.0450;0.0332;-0.0638;
1182635969003291;0.0759;0.0960;-0.0521;
1182635979104646;0.0993;0.1226;-0.0393;
1182635989207094;0.0983;0.1205;-0.0531;
1182635999308448;0.0663;0.0854;-0.0521;
1182636009409802;0.0312;-0.0126;-0.0425;
1182636019516052;0.0301;0.0491;-0.0798;
1182636029617406;0.0407;0.0885;-0.1011;
1182636039718760;0.0482;-0.0180;-0.0702;
1182636049784281;0.0322;0.0438;-0.0808;
1182636059885635;0.0759;0.1312;-0.0798;
1182636069986989;0.0908;0.0513;-0.0563;
1182636080107927;0.0525;-0.0116;-0.0403;
1182636090209281;0.0354;0.0065;-0.0627;
1182636100310635;0.0354;-0.0222;-0.0531;
1182636110424229;0.0386;-0.0585;-0.0723;
1182636120525583;0.0397;0.0023;-0.0851;
1182636130626937;0.0439;0.0129;-0.0787;
1182636140740635;0.0706;0.1109;-0.0712;
1182636150841937;0.0748;0.0001;-0.0808;
1182636160943344;0.0386;-0.2320;-0.0499;
1182636171010531;0.0248;-0.2032;-0.0169;
1182636181111885;0.0312;-0.1393;-0.0340;
1182636191213239;0.0461;-0.0563;-0.0542;
1182636201343656;0.0397;-0.0723;-0.0190;
1182636211445010;0.0429;-0.0308;-0.0382;
1182636221546364;0.0482;0.0917;-0.0350;
1182636231631885;0.0620;0.0023;-0.0084;
1182636241733239;0.0301;-0.0871;0.0023;
1182636251834594;0.0301;-0.0606;0.0001;
1182636261950531;0.0514;-0.0222;0.0129;
1182636272051885;0.0546;0.0726;0.0342;
1182636282153239;0.0429;0.1056;0.0268;
1182636292246364;0.0269;0.0044;0.0268;
1182636302347719;-0.0093;-0.0244;0.0300;
1182636312449073;0.0216;0.0683;0.0044;
1182636322561000;0.0312;0.0225;0.0182;
1182636332662302;0.0152;-0.0478;0.0342;
1182636342763656;0.0120;-0.0073;0.0225;
1182636352857406;0.0514;0.0587;0.0161;
1182636362958760;0.0631;0.0555;0.0321;
1182636373060114;0.0312;0.0001;0.0513;
1182636383158760;0.0109;-0.0670;0.0182;
1182636393260114;0.0067;-0.0924;0.0246;
1182636403361469;0.0312;-0.0457;-0.0095;
1182636413459385;0.0439;-0.0073;-0.0276;
1182636423560739;0.0407;-0.0020;-0.0180;
1182636433662094;0.0407;0.0012;-0.0095;
1182636443769177;0.0599;-0.0063;-0.0308;
1182636453870531;0.0706;-0.0190;-0.0222;
1182636463971885;0.0589;-0.0595;-0.0137;
1182636474092094;0.0493;-0.0361;-0.0190;
1182636484193448;0.0599;0.0065;-0.0350;
1182636494294802;0.0706;0.0268;-0.0308;
1182636504377562;0.0695;0.0822;-0.0627;
1182636514478864;0.0695;0.0822;-0.0670;
1182636524580166;0.0557;0.0289;-0.0521;
1182636534685062;0.0493;-0.0393;-0.0457;
1182636544786364;0.0642;-0.0467;-0.0563;
1182636554887666;0.0695;-0.0286;-0.0446;
1182636564990687;0.0748;-0.0521;-0.0212;
1182636575091989;0.0482;-0.0116;-0.0446;
1182636585193344;0.0525;0.0087;-0.0372;
1182636595290166;0.0514;-0.0052;-0.0435;
1182636605391469;0.0567;0.0289;-0.0606;
1182636615492823;0.0525;0.0140;-0.0563;
1182636625590479;0.0557;0.0012;-0.0457;
1182636635691833;0.0695;0.0087;-0.0521;
1182636645793135;0.0802;0.0310;-0.0329;
1182636655906989;0.0791;0.0374;-0.0180;
1182636666008291;0.0706;0.0832;-0.0137;
1182636676109646;0.0727;0.0672;-0.0318;
1182636686207562;0.0482;-0.0499;-0.0222;
1182636696308864;0.0386;-0.0691;-0.0329;
1182636706410219;0.0589;-0.0265;-0.0425;
1182636716510375;0.0695;-0.0286;-0.0308;
1182636726611677;0.0599;-0.0850;-0.0222;
1182636736713031;0.0738;-0.0828;-0.0297;
1182636746796260;0.0834;-0.0350;-0.0020;
1182636756897614;0.1228;-0.0489;0.0172;
1182636766998916;0.1174;-0.0126;0.0097;
1182636777110479;0.1206;0.0385;0.0140;
1182636787211781;0.1356;0.0630;0.0204;
1182636797313135;0.1494;0.1301;0.0001;
1182636807433239;0.1281;0.1695;0.0076;
1182636817534594;0.1164;0.1258;0.0289;
1182636827635896;0.0855;0.0470;0.0332;
1182636837722771;0.0929;0.0598;0.0438;
1182636847824073;0.1025;0.0182;0.0534;
1182636857925427;0.0855;0.0001;0.0672;
1182636868029073;0.0684;-0.0297;0.0534;
1182636878130375;0.0663;-0.1073;0.0662;
1182636888231729;0.0716;-0.0627;0.0481;
1182636898334854;0.0855;0.0065;0.0417;
1182636908436156;0.0951;0.0236;0.0449;
1182636918537510;0.1025;-0.0126;0.0587;
1182636928643604;0.1068;-0.0190;0.0587;
1182636938744906;0.1111;0.0033;0.0843;
1182636948846260;0.1089;0.0182;0.0811;
1182636958935583;0.0866;0.0278;0.0854;
1182636969036885;0.0727;-0.0052;0.0800;
1182636979138239;0.0684;0.0214;0.0875;
1182636989250479;0.0823;0.0332;0.0694;
1182636999351781;0.0727;0.0268;0.0736;
1182637009453083;0.0578;-0.0201;0.0885;
1182637019541573;0.0535;-0.0585;0.0875;
1182637029642875;0.0748;-0.0435;0.1003;
1182637039744177;0.0866;-0.0031;0.1258;
1182637049807406;0.0812;0.0065;0.1525;
1182637059908708;0.0578;-0.0063;0.1439;
1182637070010062;0.0514;-0.0084;0.1525;
1182637080187823;0.0450;0.0289;0.1535;
1182637090289177;0.0535;0.0758;0.1386;
1182637100390479;0.0301;0.0257;0.1704;
1182637110464333;0.0045;-0.0744;0.1885;
1182637120565635;-0.0573;-0.0775;0.1875;
1182637130666989;-0.0700;-0.0286;0.2003;
1182637140770635;-0.0445;-0.0180;0.2141;
1182637150871937;-0.0402;-0.0350;0.2173;
1182637160973239;-0.0668;-0.0212;0.2077;
1182637171063239;-0.0658;0.0353;0.2035;
1182637181164541;-0.0423;0.0822;0.1747;
1182637191265844;-0.0413;0.0715;0.1800;
1182637201385427;-0.0743;0.1056;0.1854;
1182637211486729;-0.0722;0.1301;0.1779;
1182637221588083;-0.0722;0.1099;0.1674;
1182637231666000;-0.0913;0.0651;0.1832;
1182637241767302;-0.1116;0.0374;0.1864;
1182637251868656;-0.1276;0.0459;0.1715;
1182637261965635;-0.1063;0.0108;0.1471;
1182637272066989;-0.1201;-0.0201;0.1333;
1182637282168291;-0.1212;0.0076;0.1035;
1182637292266989;-0.0988;0.0119;0.0981;
1182637302368344;-0.0892;-0.0318;0.1056;
1182637312469698;-0.0999;-0.0659;0.0864;
1182637322602927;-0.0764;-0.0297;0.0790;
1182637332704281;-0.0573;0.0257;0.0885;
1182637342805583;-0.0455;0.0236;0.0843;
1182637352890271;-0.0679;-0.0041;0.0736;
1182637362991573;-0.0615;-0.0340;0.0640;
1182637373092927;-0.0583;-0.0137;0.0332;
1182637383193396;-0.0413;-0.0148;0.0289;
1182637393294698;-0.0583;-0.0393;0.0257;
1182637403396052;-0.0466;-0.0489;0.0332;
1182637413484073;-0.0328;-0.0839;0.0236;
1182637423585427;-0.0338;-0.0935;0.0374;
1182637433686729;-0.0328;-0.0839;0.0513;
1182637443800896;-0.0455;-0.0510;0.0534;
1182637453902198;-0.0445;-0.0467;0.0364;
1182637464003552;-0.0551;-0.0222;0.0587;
1182637474107406;-0.0402;0.0534;0.0321;
1182637484208708;-0.0423;0.1184;0.0374;
1182637494310062;-0.0445;0.0683;0.0534;
1182637504415948;-0.0764;-0.0265;0.0598;
1182637514517302;-0.0818;0.0289;0.0598;
1182637524618604;-0.0711;0.0587;0.0768;
1182637534711052;-0.0732;0.0374;0.0971;
1182637544812406;-0.1041;0.0321;0.0758;
1182637554913760;-0.0977;0.0119;0.0715;
1182637565005323;-0.1169;0.0694;0.0598;
1182637575106677;-0.0935;0.1333;0.0364;
1182637585207979;-0.0956;0.1130;0.0385;
1182637595320323;-0.1286;0.0417;0.0662;
1182637605421677;-0.1467;0.0364;0.0555;
1182637615522979;-0.1169;0.0555;0.0598;
1182637625619281;-0.1095;0.0438;0.0672;
1182637635720635;-0.1105;0.0491;0.0587;
1182637645821989;-0.1020;0.0332;0.0342;
1182637655916052;-0.0945;0.0225;0.0395;
1182637666017406;-0.0913;0.0012;0.0289;
1182637676118708;-0.0935;-0.0393;0.0182;
1182637686222562;-0.0988;-0.1137;0.0268;
1182637696323916;-0.0892;-0.1510;0.0278;
1182637706425271;-0.0690;-0.1137;0.0236;
1182637716524906;-0.0658;-0.1009;0.0353;
1182637726626260;-0.0743;-0.0924;0.0470;
1182637736727614;-0.0956;-0.0828;0.0342;
1182637746843448;-0.0903;-0.0734;0.0225;
1182637756944802;-0.0913;-0.0169;0.0161;
1182637767046104;-0.0775;0.0321;-0.0063;
1182637777134489;-0.0892;0.0779;-0.0020;
1182637787235844;-0.0828;0.0427;0.0161;
1182637797337198;-0.0924;0.0055;0.0289;
1182637807437406;-0.0850;0.0332;0.0172;
1182637817538760;-0.0860;0.0161;0.0342;
1182637827640062;-0.0924;-0.0212;0.0406;
1182637837756885;-0.1180;-0.0924;0.0246;
1182637847858239;-0.1276;-0.1265;0.0161;
1182637857959541;-0.1499;-0.0276;-0.0105;
1182637868059906;-0.1158;0.0353;-0.0308;
1182637878161260;-0.1052;-0.0180;-0.0286;
1182637888262562;-0.1254;-0.1169;-0.0137;
1182637898364021;-0.1499;-0.0702;-0.0137;
1182637908465375;-0.1435;0.0150;-0.0201;
1182637918566677;-0.0967;0.0385;-0.0052;
1182637928657614;-0.1073;0.0417;-0.0126;
1182637938758969;-0.1137;0.0587;-0.0318;
1182637948860271;-0.0999;0.1141;-0.0329;
1182637958964385;-0.0967;0.0790;-0.0606;
1182637969065739;-0.1169;0.0321;-0.0734;
1182637979167041;-0.1073;0.0076;-0.0606;
1182637989267719;-0.0775;0.0001;-0.0648;
1182637999369073;-0.0594;0.0278;-0.0659;
1182638009470427;-0.0711;0.0214;-0.0563;
1182638019561052;-0.0711;0.0044;-0.0372;
1182638029662406;-0.0967;0.0236;-0.0691;
1182638039763760;-0.0818;0.0502;-0.0947;
1182638049895219;-0.0860;0.0726;-0.0904;
1182638059996521;-0.0807;0.0864;-0.1128;
1182638070097875;-0.0967;0.0470;-0.1138;
1182638080183448;-0.0860;0.0119;-0.1021;
1182638090284750;-0.0668;0.0332;-0.1149;
1182638100386104;-0.0551;0.0662;-0.1128;
1182638110497250;-0.0636;0.0672;-0.1000;
1182638120598604;-0.0658;0.0300;-0.0947;
1182638130699906;-0.0754;0.0119;-0.1256;
1182638140798448;-0.0615;0.0332;-0.1288;
1182638150899802;-0.0455;0.0790;-0.1597;
1182638161001104;-0.0264;0.0971;-0.1607;
1182638171101989;-0.0455;0.0704;-0.1458;
1182638181203291;-0.0349;0.0374;-0.1469;
1182638191304646;-0.0285;-0.0425;-0.1352;
1182638201414385;-0.0285;-0.0670;-0.1320;
1182638211515739;-0.0093;-0.0318;-0.1277;
1182638221617041;0.0013;-0.0297;-0.1362;
1182638231702771;0.0290;-0.0542;-0.1320;
1182638241804073;0.0120;-0.0755;-0.1298;
1182638251905427;0.0312;-0.0137;-0.1479;
1182638262011885;0.0226;-0.0169;-0.1373;
1182638272113239;0.0109;-0.1020;-0.1107;
1182638282214594;0.0024;-0.0999;-0.1053;
1182638292310844;0.0120;-0.0041;-0.0979;
1182638302412198;0.0290;0.0523;-0.0702;
1182638312513500;0.0312;0.0129;-0.0489;
1182638322621469;-0.0019;-0.0169;-0.0755;
1182638332722823;-0.0264;-0.0126;-0.0659;
1182638342824177;-0.0242;0.0193;-0.0819;
1182638352929177;-0.0210;0.0278;-0.0872;
1182638363030531;-0.0317;-0.0372;-0.0766;
1182638373131833;-0.0242;-0.0137;-0.0659;
1182638383220219;-0.0083;0.0161;-0.0734;
1182638393321573;-0.0051;-0.0031;-0.0585;
1182638403422875;-0.0221;-0.0009;-0.0414;
1182638413520531;-0.0200;-0.0254;-0.0393;
1182638423621885;-0.0178;-0.0009;-0.0787;
1182638433723239;-0.0061;0.0470;-0.0766;
1182638443835427;0.0152;0.0992;-0.1021;
1182638453936781;0.0237;0.0651;-0.1021;
1182638464038083;0.0067;-0.0084;-0.0893;
1182638474138239;0.0141;0.0044;-0.1011;
1182638484239594;0.0450;0.0523;-0.1128;
1182638494340896;0.0557;0.0800;-0.0862;
1182638504434646;0.0738;0.1024;-0.0723;
1182638514535896;0.0770;0.1024;-0.0989;
1182638524637250;0.0823;0.0832;-0.1032;
1182638534727354;0.0620;-0.0297;-0.1011;
1182638544828656;0.0482;-0.0775;-0.1053;
1182638554929958;0.0439;-0.0531;-0.1160;
1182638565063187;0.0802;-0.0190;-0.1224;
1182638575164489;0.0983;0.0172;-0.1309;
1182638585265791;0.1174;-0.0158;-0.1170;
1182638595347666;0.1089;-0.0446;-0.0883;
1182638605448969;0.1185;-0.0574;-0.0734;
1182638615550271;0.1228;-0.0892;-0.1032;
1182638625657823;0.1249;-0.0892;-0.0830;
1182638635759125;0.1196;0.0023;-0.0989;
1182638645860427;0.1483;0.0577;-0.1000;
1182638655963916;0.1334;0.0182;-0.0766;
1182638666065219;0.0887;-0.1041;-0.0691;
1182638676166521;0.0802;-0.3001;-0.0414;
1182638686268708;0.0759;-0.1989;-0.0286;
1182638696370010;0.0951;0.1258;-0.0425;
1182638706471312;0.1622;0.1855;-0.0521;
1182638716565739;0.2132;0.0683;-0.0286;
1182638726667041;0.1206;0.0353;-0.0020;
1182638736768344;0.0780;0.0811;-0.0063;
1182638746837354;0.1036;0.1386;-0.0329;
1182638756938656;0.0844;0.0939;-0.0073;
1182638767039958;0.0716;0.0044;0.0023;
1182638777177562;0.0439;0.1226;0.0055;
1182638787278864;0.0770;0.1844;0.0236;
1182638797380166;0.0876;-0.1446;0.0481;
1182638807490114;-0.0370;-0.2884;0.0225;
1182638817591469;-0.0615;-0.1702;0.0246;
1182638827692771;0.0099;-0.0881;0.0076;
1182638837796833;0.0791;-0.0116;-0.0095;
1182638847898135;0.0599;-0.0585;0.0087;
1182638857999437;0.0450;-0.0403;0.0119;
1182638868090896;0.0812;0.0949;0.0065;
1182638878192198;0.1217;0.1045;0.0161;
1182638888293500;0.1111;0.1056;0.0427;
1182638898394646;0.0759;0.0534;0.0545;
1182638908495948;0.0439;-0.0286;0.0193;
1182638918597250;0.0237;0.0758;0.0300;
1182638928696521;0.0535;0.1184;0.0076;
1182638938797823;0.0461;0.1226;0.0001;
1182638948899125;0.0205;0.1503;0.0097;
1182638958991312;0.0365;0.1194;0.0172;
1182638969092614;0.0162;0.0395;0.0140;
1182638979193916;0.0035;-0.0414;0.0427;
1182638989299541;-0.0104;-0.1105;0.0566;
1182638999400844;-0.0168;-0.0945;0.0278;
1182639009502146;0.0194;-0.0286;0.0012;
1182639019590010;0.0418;-0.0137;0.0140;
1182639029691364;0.0429;-0.0329;0.0012;
1182639039792666;0.0354;-0.0712;0.0055;
1182639049918916;0.0322;-0.1680;0.0161;
1182639060020219;0.0301;-0.1766;0.0140;
1182639070121573;0.0407;-0.1403;0.0257;
1182639080271989;0.0578;-0.0254;0.0470;
1182639090373291;0.0780;0.0747;0.0619;
1182639100474594;0.0844;0.0864;0.0449;
1182639110510010;0.0578;0.0640;0.0502;
1182639120611312;0.0269;0.0236;0.0481;
1182639130712614;0.0184;0.0023;0.0545;
1182639140830583;0.0162;0.0119;0.0513;
1182639150931937;0.0184;0.0161;0.0587;
1182639161033239;0.0194;0.0321;0.0523;
1182639171104437;0.0237;0.0119;0.0587;
1182639181205739;0.0184;0.0108;0.0843;
1182639191306989;0.0130;-0.0393;0.0960;
1182639201446469;-0.0019;-0.1254;0.0843;
1182639211547771;-0.0178;-0.1158;0.0843;
1182639221649073;-0.0008;0.0182;0.0566;
1182639231746989;0.0322;0.1429;0.0598;
1182639241848239;0.0312;0.1216;0.0811;
1182639251949594;-0.0029;0.0704;0.0832;
1182639262037041;-0.0008;0.0672;0.0790;
1182639272138291;-0.0061;0.0545;0.1024;
1182639282239594;-0.0232;0.0587;0.1045;
1182639292341989;-0.0381;-0.0585;0.0917;
1182639302443291;-0.0647;-0.0585;0.0683;
1182639312544594;-0.0924;0.0172;0.0683;
1182639322642979;-0.0296;0.0055;0.0395;
1182639332744281;-0.0210;-0.0180;0.0193;
1182639342845583;-0.0274;0.0214;0.0268;
1182639352942458;0.0013;0.0768;0.0310;
1182639363043760;0.0301;0.0726;0.0364;
1182639373145062;-0.0008;0.1130;0.0470;
1182639383272614;0.0035;0.0917;0.0449;
1182639393373969;-0.0221;-0.0095;0.0278;
1182639403475271;-0.0146;-0.0372;0.0342;
1182639413585948;-0.0061;-0.0467;0.0236;
1182639423687302;0.0035;-0.0340;0.0214;
1182639433788604;-0.0040;-0.1340;0.0268;
1182639443852094;-0.0115;-0.2565;0.0236;
1182639453953448;-0.0178;-0.2788;0.0204;
1182639464054750;-0.0146;-0.2256;0.0321;
1182639474178344;-0.0093;-0.1542;0.0459;
1182639484279698;0.0024;-0.1702;0.0491;
1182639494381000;0.0067;-0.0892;0.0236;
1182639504460687;0.0003;0.0949;0.0342;
1182639514561989;0.0226;0.2004;0.0321;
1182639524663291;0.0312;0.2547;0.0129;
1182639534761677;-0.0008;0.2803;0.0268;
1182639544862979;-0.0008;0.2984;0.0427;
1182639554964281;-0.0210;0.2110;0.0438;
1182639565072041;-0.0881;0.0715;0.0726;
1182639575173344;-0.1776;-0.0467;0.0843;
1182639585274646;-0.1925;-0.1350;0.0502;
1182639595378604;-0.1499;-0.0999;0.0225;
1182639605479906;-0.1095;-0.0276;0.0087;
1182639615581208;-0.0615;-0.0180;-0.0201;
1182639625684125;-0.0509;-0.0595;-0.0095;
1182639635785427;-0.0477;-0.1031;-0.0052;
1182639645886729;-0.0317;-0.0945;-0.0158;
1182639655991208;0.0088;-0.0350;-0.0009;
1182639666092510;0.0823;0.0555;0.0193;
1182639676193812;0.1707;0.1003;0.0427;
1182639686296989;0.1908;0.0662;0.0374;
1182639696398291;0.1844;0.0822;0.0491;
1182639706499594;0.1675;0.1024;0.0470;
1182639716590114;0.1515;0.0683;0.0470;
1182639726691469;0.0887;0.0161;0.0683;
1182639736792771;0.0578;-0.0052;0.0758;
1182639746895739;0.0482;-0.0095;0.0726;
1182639756997041;0.0514;-0.0489;0.1099;
1182639767098291;0.0290;-0.1126;0.1365;
1182639777213916;0.0248;-0.1126;0.1290;
1182639787315219;0.0397;-0.0286;0.1024;
1182639797416521;0.0461;0.0225;0.1141;
1182639807519906;0.0493;0.0353;0.0992;
1182639817621208;0.0386;0.0662;0.0992;
1182639827722510;0.0386;0.0406;0.1045;
1182639837817041;0.0482;-0.0052;0.1141;
1182639847918344;0.0152;-0.0425;0.1205;
1182639858019646;-0.0040;-0.0180;0.1450;
1182639868116729;0.0226;0.0662;0.1557;
1182639878218031;0.0237;0.0949;0.1333;
1182639888319333;0.0248;0.0619;0.1312;
1182639898422458;0.0045;0.0310;0.1482;
1182639908523760;-0.0136;0.0310;0.1375;
1182639918625062;-0.0274;-0.1031;0.1482;
1182639928726000;-0.0562;-0.2671;0.1567;
1182639938827302;-0.1116;-0.2682;0.1450;
1182639948928604;-0.1169;-0.1947;0.1418;
1182639959023656;-0.0647;-0.1041;0.1567;
1182639969124958;-0.0413;-0.1105;0.1694;
1182639979226260;-0.0274;-0.1180;0.1514;
1182639989339646;-0.0381;0.0119;0.1610;
1182639999440896;-0.0146;0.0523;0.1652;
1182640009542198;-0.0253;-0.0372;0.1747;
1182640019622094;-0.0722;-0.0967;0.2045;
1182640029723396;-0.1084;-0.0105;0.2152;
1182640039824698;-0.1531;0.1088;0.1949;
1182640049938344;-0.1180;0.1802;0.2003;
1182640060039594;-0.1020;0.1333;0.2205;
1182640070140896;-0.1616;0.1354;0.2120;
1182640080349906;-0.2501;0.1887;0.1917;
1182640090451208;-0.2650;0.1280;0.1811;
1182640100552510;-0.3278;0.1269;0.1493;
1182640110551573;-0.4077;0.1780;0.1375;
1182640120652927;-0.4312;0.1876;0.1280;
1182640130754177;-0.4301;0.1834;0.1024;
1182640140893396;-0.4395;0.0790;0.0651;
1182640150994698;-0.4566;-0.0190;0.0587;
1182640161096000;-0.4917;-0.0723;0.0459;
1182640171153916;-0.4811;-0.1457;-0.0276;
1182640181255166;-0.4194;-0.1723;-0.0574;
1182640191356521;-0.3758;-0.1073;-0.0893;
1182640201478656;-0.3055;0.0172;-0.1320;
1182640211579958;-0.2362;0.1088;-0.1362;
1182640221681260;-0.1979;0.1727;-0.1383;
1182640231774333;-0.1574;0.2249;-0.1565;
1182640241875635;-0.1190;0.2558;-0.1490;
1182640251976937;-0.1393;0.2590;-0.1138;
1182640262078656;-0.1638;0.1312;-0.1032;
1182640272179958;-0.1979;0.0268;-0.1490;
1182640282281260;-0.1680;0.0438;-0.1586;
1182640292367719;-0.1489;0.0864;-0.1746;
1182640302469073;-0.1308;-0.0095;-0.1778;
1182640312570375;-0.1382;-0.0755;-0.1873;
1182640322665114;-0.1308;-0.1798;-0.1767;
1182640332766469;-0.1116;-0.2490;-0.1810;
1182640342867719;-0.1041;-0.2756;-0.1650;
1182640352970010;-0.0700;-0.3779;-0.1245;
1182640363071364;0.0194;-0.3225;-0.1160;
1182640373172666;0.1057;-0.0372;-0.1682;
1182640383293708;0.1079;0.2355;-0.1554;
1182640393395010;0.1728;0.2366;-0.1192;
1182640403496312;0.1993;0.0992;-0.0798;
1182640413588916;0.1121;0.0481;-0.0467;
1182640423690219;-0.0072;0.0076;-0.0169;
1182640433791521;-0.0551;0.0268;-0.0222;
1182640443908708;-0.0466;0.0587;-0.0063;
1182640454010010;-0.0445;0.0534;0.0076;
1182640464111312;-0.0487;0.0811;0.0119;
1182640474199229;-0.0487;0.0310;0.0065;
1182640484300531;-0.0764;-0.1595;0.0033;
1182640494401833;-0.1052;-0.1861;-0.0254;
1182640504504437;-0.1020;-0.1244;-0.0318;
1182640514605739;-0.0573;-0.0744;-0.0403;
1182640524707094;-0.0541;-0.0702;-0.0340;
1182640534808812;-0.0743;-0.0212;-0.0265;
1182640544910114;-0.0636;0.0342;-0.0148;
1182640555011469;-0.0477;0.0438;-0.0265;
1182640565115375;-0.0605;0.1109;-0.0627;
1182640575216677;-0.0381;0.2313;-0.0617;
1182640585318031;-0.0274;0.2462;-0.0606;
1182640595415791;-0.0583;0.1152;-0.0755;
1182640605517094;-0.0850;0.0278;-0.0808;
1182640615618448;-0.0850;0.0704;-0.0904;
1182640625711521;-0.0519;0.0395;-0.0947;
1182640635812823;-0.0509;-0.0095;-0.0755;
1182640645914177;-0.0615;-0.0585;-0.0787;
1182640656021833;-0.0636;-0.1148;-0.1107;
1182640666123135;-0.0594;-0.0510;-0.1490;
1182640676224489;-0.0317;-0.0467;-0.1586;
1182640686325062;-0.0466;-0.0095;-0.1810;
1182640696426364;-0.0338;0.0470;-0.1948;
1182640706527719;0.0056;0.0502;-0.2001;
1182640716624646;0.0237;-0.0137;-0.1916;
1182640726725948;-0.0104;-0.0137;-0.1895;
1182640736827302;-0.0051;0.0321;-0.1767;
1182640746933083;0.0130;0.0459;-0.1671;
1182640757034437;-0.0040;0.0790;-0.1980;
1182640767135791;-0.0029;0.0129;-0.2097;
1182640777239854;-0.0093;-0.0073;-0.2182;
1182640787341156;-0.0072;-0.0084;-0.2257;
1182640797442510;-0.0136;-0.0913;-0.2289;
1182640807543604;-0.0029;-0.0595;-0.2374;
1182640817644906;0.0120;-0.0574;-0.2395;
1182640827746260;-0.0008;-0.0606;-0.2236;
1182640837850583;-0.0040;0.0108;-0.2129;
1182640847951885;0.0301;0.0406;-0.2055;
1182640858053239;0.0141;0.0204;-0.2257;
1182640868163291;0.0120;0.0150;-0.2257;
1182640878264594;-0.0008;0.0172;-0.2214;
1182640888365948;-0.0072;-0.1531;-0.2289;
1182640898459333;-0.0146;-0.1925;-0.2182;
1182640908560635;0.0258;-0.1148;-0.2118;
1182640918661989;0.0461;-0.0190;-0.2268;
1182640928750687;0.0812;0.0726;-0.2076;
1182640938851989;0.0855;-0.0137;-0.1714;
1182640948953344;0.0770;-0.1095;-0.1586;
1182640959057562;0.0322;-0.0871;-0.1842;
1182640969158864;0.0312;-0.1691;-0.1746;
1182640979260219;0.0983;-0.0563;-0.1660;
1182640989364854;0.1270;0.1972;-0.1916;
1182640999466156;0.2004;0.3133;-0.1905;
1182641009567510;0.2675;0.1759;-0.1458;
1182641019652198;0.2068;0.0012;-0.1213;
1182641029753552;0.0929;-0.0818;-0.0957;
1182641039854906;0.0546;-0.1137;-0.0798;
1182641049977302;0.0834;-0.1616;-0.0862;
1182641060078604;0.0940;-0.1425;-0.1021;
1182641070179906;0.1206;-0.0180;-0.0904;
1182641080263291;0.1505;0.1535;-0.1138;
1182641090364594;0.1759;-0.0691;-0.0979;
1182641100465948;0.1196;-0.2479;-0.0766;
1182641110572250;0.0557;-0.1883;-0.0723;
1182641120673552;0.1089;-0.1212;-0.0766;
1182641130774906;0.1537;-0.0542;-0.0648;
1182641140920271;0.2057;-0.0425;-0.0467;
1182641151021625;0.2025;0.0630;-0.0670;
1182641161122979;0.2174;0.1919;-0.0702;
1182641171185166;0.2494;0.1248;-0.0585;
1182641181286469;0.2004;0.0662;-0.0755;
1182641191387875;0.1196;0.0491;-0.0659;
1182641201524281;0.1260;-0.0542;-0.0638;
1182641211625583;0.1111;-0.0956;-0.0574;
1182641221726989;0.1153;-0.0329;-0.0617;
1182641231786000;0.1345;-0.0775;-0.0435;
1182641241887354;0.1270;-0.0723;-0.0393;
1182641251988656;0.1217;-0.0158;-0.0712;
1182641262100739;0.1377;-0.0489;-0.0563;
1182641272202041;0.1238;-0.0489;-0.0638;
1182641282303344;0.1345;-0.0126;-0.0776;
1182641292410948;0.1462;-0.0297;-0.0787;
1182641302512302;0.1419;-0.0372;-0.0574;
1182641312613656;0.1473;0.0534;-0.0574;
1182641322714437;0.1558;0.0726;-0.0489;
1182641332815739;0.1441;0.0044;-0.0414;
1182641342917094;0.1185;-0.0478;-0.0297;
1182641353014437;0.1238;-0.1084;-0.0563;
1182641363115739;0.1260;-0.0691;-0.0372;
1182641373217094;0.1451;0.0161;-0.0585;
1182641383334594;0.1494;0.0172;-0.0585;
1182641393435948;0.1387;0.0119;-0.0467;
1182641403537302;0.1292;-0.0350;-0.0318;
1182641413621781;0.1292;-0.0574;-0.0265;
1182641423723135;0.1174;-0.1329;0.0065;
1182641433824489;0.1270;-0.1467;0.0193;
1182641443918708;0.1313;0.0012;0.0065;
1182641454020010;0.1739;0.1056;-0.0041;
1182641464121364;0.1887;0.0960;0.0214;
1182641474222146;0.1558;0.0555;0.0204;
1182641484323448;0.1174;0.0065;0.0289;
1182641494424802;0.1217;0.0406;0.0470;
1182641504529229;0.1249;0.1067;0.0683;
1182641514630531;0.1345;0.1940;0.0736;
1182641524731833;0.1398;0.1876;0.0971;
1182641534828031;0.1281;0.1365;0.1141;
1182641544929385;0.1047;0.1791;0.0822;
1182641555030687;0.1142;0.1780;0.0907;
1182641565154333;0.0791;0.0811;0.0917;
1182641575255635;0.0439;0.0012;0.0704;
1182641585356937;0.0109;-0.0393;0.0630;
1182641595439437;0.0280;-0.1084;0.0832;
1182641605540739;0.0386;-0.1787;0.0832;
1182641615642041;0.0418;-0.1638;0.1056;
1182641625746833;0.0855;-0.1084;0.0992;
1182641635848135;0.1249;-0.0244;0.0896;
1182641645949437;0.1526;-0.0807;0.0768;
1182641656063916;0.1302;-0.0446;0.1013;
1182641666165219;0.1281;0.0843;0.0811;
1182641676266521;0.1823;0.0587;0.0822;
1182641686365687;0.1622;0.0470;0.0907;
1182641696466989;0.1036;0.0481;0.1056;
1182641706568291;0.1015;0.0470;0.0981;
1182641716655896;0.0940;0.0012;0.1184;
1182641726757198;0.0951;-0.0744;0.1333;
1182641736858500;0.0780;-0.0744;0.1120;
1182641746955844;0.0951;-0.0425;0.1226;
1182641757057198;0.0908;0.0001;0.1269;
1182641767158500;0.0951;0.0140;0.1130;
1182641777282406;0.0908;0.0736;0.1173;
1182641787383708;0.0951;0.0406;0.1439;
1182641797485010;0.0567;-0.0233;0.1578;
1182641807595219;0.0482;0.0427;0.1800;
1182641817696573;0.0610;0.0704;0.1960;
1182641827797875;0.0727;0.0800;0.1885;
1182641837882875;0.0493;0.1141;0.1663;
1182641847984177;0.0439;0.1088;0.1885;
1182641858085479;0.0248;0.0481;0.1875;
1182641868179750;-0.0146;-0.0446;0.1832;
1182641878281052;-0.0700;-0.1073;0.1811;
1182641888382354;-0.0945;-0.0999;0.1843;
1182641898492354;-0.0967;0.0001;0.1822;
1182641908593656;-0.0605;0.0193;0.2045;
1182641918694958;-0.0178;-0.0478;0.2035;
1182641928784906;-0.0615;-0.0158;0.1949;
1182641938886208;-0.0370;0.0715;0.1758;
1182641948987510;-0.0146;0.0289;0.1811;
1182641959086677;-0.0349;-0.0892;0.1822;
1182641969188031;-0.0945;-0.1297;0.1864;
1182641979289333;-0.1233;-0.0382;0.1800;
1182641989395062;-0.0711;-0.0457;0.1800;
1182641999496364;-0.0455;-0.0340;0.1811;
1182642009597666;-0.0732;-0.0553;0.2024;
1182642019686156;-0.0605;-0.1084;0.2184;
1182642029787510;-0.0892;-0.0553;0.1811;
1182642039888812;-0.0679;-0.0201;0.1854;
1182642050026260;-0.0647;-0.0116;0.1822;
1182642060127562;-0.0775;0.1216;0.1663;
1182642070228864;-0.0466;0.1344;0.1704;
1182642080321000;-0.0477;0.0342;0.1811;
1182642090422302;-0.0999;-0.0446;0.1896;
1182642100523656;-0.1435;-0.0702;0.2088;
1182642110622927;-0.1521;-0.1542;0.1992;
1182642120724229;-0.1318;-0.1244;0.1854;
1182642130825531;-0.1585;-0.1915;0.1726;
1182642140910114;-0.1308;0.0278;0.1312;
1182642151011416;-0.0956;0.3570;0.0864;
1182642161112771;0.0194;0.3911;0.0928;
1182642171209906;0.0077;0.2260;0.1365;
1182642181311208;-0.0977;0.1482;0.1450;
1182642191412562;-0.1830;0.1642;0.1450;
1182642201547979;-0.2362;0.0885;0.1631;
1182642211649281;-0.2511;0.0097;0.1429;
1182642221750583;-0.2799;0.0204;0.0992;
1182642231830583;-0.2383;0.1684;0.0609;
1182642241931885;-0.1840;0.0598;0.0545;
1182642252033187;-0.1766;-0.4237;0.0087;
1182642262124646;-0.2799;-0.3417;-0.0276;
1182642272225948;-0.3459;-0.1904;-0.0254;
1182642282327250;-0.1947;-0.1510;-0.0233;
1182642292445166;-0.1095;-0.0510;-0.0329;
1182642302546469;-0.1009;0.0672;-0.0318;
1182642312647771;-0.0328;0.1652;-0.0254;
1182642322736312;-0.0051;0.1461;-0.0574;
1182642332837614;-0.0658;0.1173;-0.0425;
1182642342938916;-0.1308;0.1780;-0.0585;
1182642353033344;-0.1052;0.1162;-0.0808;
1182642363134698;-0.1212;-0.0435;-0.0893;
1182642373236000;-0.1329;-0.0499;-0.1000;
1182642383345739;-0.1073;0.0502;-0.1128;
1182642393447041;-0.0818;-0.0126;-0.1053;
1182642403548344;-0.0892;-0.1244;-0.0968;
1182642413652771;-0.0913;-0.1606;-0.1170;
1182642423754073;-0.0647;-0.1180;-0.1426;
1182642433855375;-0.0285;-0.0372;-0.1362;
1182642443963916;0.0354;0.0182;-0.1628;
1182642454065219;0.0866;0.0864;-0.1682;
1182642464166521;0.1153;0.1450;-0.1309;
1182642474265687;0.1398;0.1365;-0.1266;
1182642484366989;0.1068;-0.0105;-0.0915;
1182642494468291;0.0365;-0.1510;-0.0648;
1182642504563083;0.0237;-0.0860;-0.0648;
1182642514664385;0.0525;0.0097;-0.1021;
1182642524765739;0.0961;0.1003;-0.0925;
1182642534867562;0.0855;0.0651;-0.0798;
1182642544968864;0.0620;-0.0222;-0.0798;
1182642555070219;0.0141;-0.0457;-0.0787;
1182642565162875;-0.0061;-0.1105;-0.0574;
1182642575264229;-0.0210;-0.0913;-0.0521;
1182642585365531;-0.0083;-0.0499;-0.0361;
1182642595482666;0.0152;0.0172;-0.0244;
1182642605583969;0.0205;0.0715;-0.0318;
1182642615685323;0.0226;0.1045;-0.0489;
1182642625775896;-0.0019;0.0843;-0.0244;
1182642635877198;-0.0083;0.0374;-0.0435;
1182642645978552;-0.0083;0.0939;-0.0478;
1182642656092354;-0.0019;0.0140;-0.0329;
1182642666193708;-0.0306;-0.0595;-0.0126;
1182642676295010;-0.0445;-0.0585;-0.0041;
1182642686390896;-0.0381;-0.0967;-0.0031;
1182642696492198;-0.0338;-0.0308;-0.0020;
1182642706593552;-0.0274;0.0012;-0.0201;
1182642716702041;-0.0072;0.0236;-0.0126;
1182642726803344;-0.0296;0.0609;-0.0169;
1182642736904698;-0.0168;0.0577;-0.0329;
1182642747008031;-0.0264;0.0470;-0.0265;
1182642757109385;-0.0381;0.0044;-0.0158;
1182642767210687;-0.0530;0.0150;-0.0116;
1182642777299906;-0.0434;0.0321;0.0033;
1182642787401208;-0.0338;0.0001;0.0065;
1182642797502562;-0.0349;0.0811;-0.0137;
1182642807610896;-0.0072;0.1770;-0.0467;
1182642817712198;-0.0040;0.1280;-0.0190;
1182642827813552;-0.0370;-0.0382;-0.0222;
1182642837913500;-0.0498;-0.0807;-0.0414;
1182642848014802;-0.0509;-0.0105;-0.0489;
1182642858116104;-0.0285;-0.0446;-0.0425;
1182642868220062;-0.0338;-0.0606;-0.0318;
1182642878321364;-0.0253;-0.0744;-0.0169;
1182642888422719;-0.0125;-0.1073;-0.0158;
1182642898511416;-0.0296;-0.1957;-0.0403;
1182642908612719;-0.0264;-0.2032;-0.0489;
1182642918714073;-0.0264;-0.0574;-0.0499;
1182642928816937;0.0173;0.0438;-0.0744;
1182642938918239;0.0418;0.1109;-0.0691;
1182642949019594;0.0429;0.0758;-0.0478;
1182642959120375;0.0024;0.0406;-0.0393;
1182642969221677;-0.0221;0.0587;-0.0233;
1182642979323031;-0.0061;0.0204;-0.0201;
1182642989423604;-0.0136;0.0225;-0.0222;
1182642999524906;-0.0019;0.1013;-0.0595;
1182643009626208;-0.0019;0.0992;-0.0446;
1182643019718760;-0.0157;0.0523;-0.0606;
1182643029820114;-0.0253;0.0268;-0.0798;
1182643039921469;-0.0328;0.0204;-0.0766;
1182643050046885;-0.0338;-0.0041;-0.0691;
1182643060148187;-0.0338;-0.0052;-0.0702;
1182643070249541;-0.0157;0.0140;-0.0617;
1182643080327666;0.0045;0.0438;-0.0467;
1182643090428969;0.0120;0.0715;-0.0808;
1182643100530323;0.0141;0.1194;-0.1000;
1182643110652614;0.0056;0.1130;-0.0904;
1182643120753916;0.0056;0.0438;-0.1053;
1182643130855219;-0.0008;0.0481;-0.1224;
1182643140943969;-0.0061;-0.0361;-0.1245;
1182643151045271;-0.0178;-0.1244;-0.1138;
1182643161146625;-0.0019;-0.1148;-0.1064;
1182643171239698;0.0237;-0.0967;-0.1160;
1182643181341000;0.0578;-0.0839;-0.1096;
1182643191442354;0.0620;-0.0435;-0.1447;
1182643201571833;0.0929;-0.0063;-0.1352;
1182643211673135;0.1047;0.0001;-0.1320;
1182643221774489;0.1228;0.0044;-0.1341;
1182643231848552;0.1164;-0.0158;-0.1277;
1182643241949854;0.1079;-0.1031;-0.0840;
1182643252051208;0.0876;-0.0201;-0.0851;
1182643262176677;0.1047;0.0736;-0.0904;
1182643272277979;0.1015;0.0278;-0.0883;
1182643282379333;0.0770;-0.0201;-0.0585;
1182643292463916;0.0620;-0.0116;-0.0712;
1182643302565219;0.0642;0.0076;-0.0712;
1182643312666573;0.0567;-0.0031;-0.0872;
1182643322770479;0.0578;0.0087;-0.0723;
1182643332871781;0.0567;0.0332;-0.0691;
1182643342973083;0.0493;0.0577;-0.0670;
1182643353086312;0.0493;0.0726;-0.0585;
1182643363187614;0.0407;-0.0435;-0.0382;
1182643373288969;0.0386;-0.0659;-0.0350;
1182643383372562;0.0610;0.0491;-0.0723;
1182643393473916;0.0876;0.0896;-0.0755;
1182643403575271;0.0727;0.0119;-0.0670;
1182643413680896;0.0535;-0.0297;-0.0872;
1182643423782198;0.0631;0.0491;-0.0893;
1182643433883552;0.0823;0.0523;-0.0862;
1182643443992406;0.0727;0.0268;-0.0808;
1182643454093708;0.0674;0.0150;-0.0606;
1182643464195062;0.0876;0.0001;-0.0531;
1182643474301833;0.0834;-0.0446;-0.0627;
1182643484403135;0.0727;-0.0318;-0.0904;
1182643494504489;0.0780;0.0129;-0.0925;
1182643504602302;0.0983;0.0001;-0.0936;
1182643514703656;0.0929;-0.0201;-0.0989;
1182643524804958;0.0855;-0.0467;-0.0979;
1182643534915531;0.0844;-0.0956;-0.0979;
1182643545016885;0.0866;-0.2021;-0.0627;
1182643555118239;0.0940;-0.1425;-0.0318;
1182643565202562;0.1356;0.0928;-0.0627;
1182643575303864;0.1728;0.1237;-0.0755;
1182643585405219;0.2302;0.0395;-0.0574;
1182643595507719;0.1812;0.0502;-0.0297;
1182643605609073;0.1494;0.1450;-0.0531;
1182643615710375;0.1643;0.1706;-0.0510;
1182643625813969;0.1228;0.0289;-0.0265;
1182643635915323;0.0738;0.0119;-0.0126;
1182643646016625;0.0983;0.0310;-0.0041;
1182643656133552;0.1196;0.0236;0.0065;
1182643666234906;0.1089;-0.1116;0.0300;
1182643676336208;0.0791;-0.0574;0.0033;
1182643686422302;0.1111;0.0683;0.0023;
1182643696523656;0.1377;0.0161;-0.0052;
1182643706624958;0.0961;-0.1084;0.0044;
1182643716723135;0.0834;-0.1478;0.0172;
1182643726824489;0.1004;0.0001;0.0246;
1182643736925791;0.1281;0.1013;0.0172;
1182643747022719;0.1759;0.0033;0.0513;
1182643757124073;0.1547;0.0278;0.0630;
1182643767225427;0.1345;0.0885;0.0545;
1182643777341364;0.1526;0.0715;0.0385;
1182643787442719;0.1142;0.0587;0.0555;
1182643797544073;0.0972;0.0065;0.0427;
1182643807652198;0.0993;0.0310;0.0438;
1182643817753552;0.1100;0.0545;0.0502;
1182643827854854;0.0983;-0.0286;0.0587;
1182643837951521;0.0748;-0.0734;0.0704;
1182643848052875;0.0887;-0.0839;0.0896;
1182643858154177;0.1100;-0.0977;0.0917;
1182643868252406;0.0993;-0.1414;0.0726;
1182643878353760;0.0961;-0.1489;0.0960;
1182643888455062;0.0929;-0.1084;0.0939;
1182643898557510;0.1121;-0.0382;0.0683;
1182643908658864;0.1025;-0.0435;0.0832;
1182643918760166;0.0780;-0.1095;0.1056;
1182643928856156;0.0578;-0.1148;0.1141;
1182643938957510;0.0716;-0.1233;0.1290;
1182643949058812;0.0791;-0.0425;0.1439;
1182643959153187;0.1036;0.0534;0.1461;
1182643969254541;0.1100;0.1077;0.1290;
1182643979355896;0.0951;0.1450;0.1354;
1182643989452823;0.0812;0.0555;0.1354;
1182643999554177;0.0514;-0.0297;0.1354;
1182644009655531;-0.0093;-0.0414;0.1386;
1182644019757198;-0.0455;-0.0446;0.1546;
1182644029858552;-0.0413;-0.0169;0.1493;
1182644039959854;-0.0168;-0.0956;0.1652;
1182644050070844;-0.0061;-0.0999;0.1599;
1182644060172198;-0.0253;-0.0340;0.1386;
1182644070273552;0.0162;-0.0425;0.1344;
1182644080363448;0.0269;-0.0435;0.1429;
1182644090464802;0.0099;0.0598;0.1184;
1182644100566156;0.0333;0.1471;0.1141;
1182644110639281;0.0546;0.2398;0.1248;
1182644120740583;0.0301;0.2185;0.1248;
1182644130841937;0.0184;0.1983;0.1216;
1182644140969281;-0.0104;0.1535;0.1418;
1182644151070635;-0.0317;-0.0052;0.1482;
1182644161171937;-0.1095;-0.0233;0.1024;
1182644171279073;-0.1702;0.0758;0.0843;
1182644181380427;-0.0988;0.0651;0.0534;
1182644191481729;-0.0232;0.0300;0.0246;
1182644201577302;-0.0423;-0.0744;0.0417;
1182644211678656;-0.0487;-0.1680;0.0459;
1182644221779958;-0.0509;-0.1222;0.0257;
1182644231905166;-0.0008;-0.1393;0.0353;
1182644242006521;0.0130;-0.1350;0.0566;
1182644252107823;0.0407;-0.0403;0.0332;
1182644262194646;0.1004;-0.0265;0.0257;
1182644272295948;0.1366;-0.0680;0.0300;
1182644282397302;0.0993;-0.0712;0.0076;
1182644292485531;0.0620;-0.0871;0.0268;
1182644302586885;0.0418;-0.1553;0.0481;
1182644312688187;0.0386;-0.1350;0.0449;
1182644322811573;0.0397;-0.0169;0.0385;
1182644332912927;0.0535;0.1173;0.0491;
1182644343014281;0.0929;0.1631;0.0640;
1182644353104385;0.0780;0.1876;0.0609;
1182644363205739;0.0557;0.2526;0.0609;
1182644373307041;0.0482;0.1812;0.0726;
1182644383416052;0.0248;0.1194;0.0694;
1182644393517406;-0.0594;0.0949;0.0555;
1182644403618708;-0.0626;0.0672;0.0726;
1182644413698187;-0.0562;0.0736;0.0640;
1182644423799541;-0.0583;-0.1073;0.0885;
1182644433900844;-0.0850;-0.2064;0.0928;
1182644444026364;-0.0988;-0.0850;0.0609;
1182644454127719;-0.0658;0.0172;0.0332;
1182644464229021;-0.0136;-0.0542;0.0779;
1182644474318864;-0.0402;-0.0627;0.0609;
1182644484420219;-0.0200;0.1056;0.0278;
1182644494521521;0.0077;0.2100;0.0342;
1182644504624437;-0.0040;0.2334;0.0651;
1182644514725739;-0.0264;0.1450;0.0704;
1182644524827094;-0.0349;0.1162;0.0747;
1182644534916052;-0.0402;0.1652;0.0640;
1182644545017406;-0.0509;0.0214;0.0459;
1182644555118708;-0.0764;-0.0839;0.0470;
1182644565222875;-0.1041;-0.0988;0.0555;
1182644575324229;-0.0722;-0.1350;0.0395;
1182644585425531;-0.0413;-0.2106;0.0204;
1182644595533239;-0.0519;-0.1595;0.0119;
1182644605634594;-0.0562;-0.1041;0.0353;
1182644615735948;-0.0157;-0.1893;0.0779;
1182644625832510;0.0184;-0.0435;0.0715;
1182644635933864;0.0461;0.1290;0.0630;
1182644646035219;0.1142;0.1887;0.0449;
1182644656148396;0.1313;0.1802;0.0832;
1182644666249698;0.0461;0.1301;0.1024;
1182644676351052;-0.0051;0.1056;0.1024;
1182644686455479;-0.0264;0.1067;0.1067;
1182644696556781;-0.0530;-0.0734;0.1162;
1182644706658135;-0.0924;-0.0903;0.1024;
1182644716752771;-0.1148;0.0406;0.1088;
1182644726854073;-0.0732;-0.0020;0.1205;
1182644736955427;-0.0349;-0.1531;0.1120;
1182644747072927;-0.1073;-0.1297;0.0822;
1182644757174229;-0.1276;-0.0977;0.0896;
1182644767275583;-0.0796;-0.0201;0.0672;
1182644777373708;-0.0605;0.0470;0.0630;
1182644787475010;-0.0530;0.1344;0.0609;
1182644797576364;-0.0434;0.2228;0.0619;
1182644807673187;-0.0370;0.0992;0.0630;
1182644817774489;-0.0722;-0.0446;0.0790;
1182644827875844;-0.1233;-0.0935;0.0768;
1182644837983916;-0.1553;-0.1371;0.0406;
1182644848085219;-0.1276;-0.0818;0.0161;
1182644858186573;-0.1137;0.0246;-0.0084;
1182644868282666;-0.0754;0.1557;-0.0446;
1182644878384021;-0.0519;0.2334;-0.0393;
1182644888485323;-0.0573;0.1301;-0.0031;
1182644898584750;-0.0881;-0.0659;0.0012;
1182644908686052;-0.1233;-0.1318;-0.0105;
1182644918787406;-0.1776;-0.0648;-0.0212;
1182644928883500;-0.1499;0.0225;-0.0425;
1182644938984750;-0.0722;0.0949;-0.0723;
1182644949086156;-0.0509;0.1173;-0.0712;
1182644959177094;-0.0636;0.0342;-0.0915;
1182644969278396;-0.0903;-0.1467;-0.1043;
1182644979379750;-0.1201;-0.2117;-0.1085;
1182644989489437;-0.1297;-0.1595;-0.1000;
1182644999590739;-0.0860;-0.1318;-0.1053;
1182645009692094;-0.0423;-0.0712;-0.0915;
1182645019779281;-0.0210;0.0449;-0.0936;
1182645029880635;-0.0093;0.1599;-0.1128;
1182645039981937;0.0173;0.1663;-0.1160;
1182645050119281;0.0130;0.0449;-0.1021;
1182645060220635;-0.0445;-0.0265;-0.1149;
1182645070321885;-0.0690;0.0065;-0.1234;
1182645080394958;-0.0541;-0.0116;-0.1213;
1182645090496260;-0.0562;-0.0180;-0.1160;
1182645100597614;-0.0455;-0.0372;-0.1117;
1182645110709177;-0.0370;-0.1212;-0.0957;
1182645120810479;-0.0285;-0.1329;-0.1075;
1182645130911781;-0.0423;-0.1989;-0.1053;
1182645141007406;-0.0264;-0.1947;-0.1202;
1182645151108708;-0.0200;0.0395;-0.1682;
1182645161210062;0.0141;0.1887;-0.1852;
1182645171315323;0.1047;0.0981;-0.1426;
1182645181416677;0.1622;-0.0286;-0.0840;
1182645191517979;0.1025;0.0449;-0.0968;
1182645201610010;0.0535;0.1535;-0.0957;
1182645211711364;0.0940;0.2015;-0.0968;
1182645221812666;0.0951;0.1716;-0.0904;
1182645231938031;0.0418;0.1663;-0.1160;
1182645242039385;0.0322;0.1631;-0.1053;
1182645252140687;0.0365;-0.0489;-0.1373;
1182645262227041;-0.0093;-0.2032;-0.1490;
1182645272328344;-0.0051;-0.1393;-0.1415;
1182645282429646;0.0205;-0.1212;-0.1181;
1182645292530531;0.0290;-0.1830;-0.1352;
1182645302631885;0.0365;-0.2352;-0.1266;
1182645312733187;0.0620;-0.1425;-0.1352;
1182645322828396;0.0770;-0.0020;-0.1533;
1182645332929698;0.1622;0.0459;-0.1554;
1182645343031052;0.2355;-0.0052;-0.1405;
1182645353156260;0.2462;-0.0084;-0.1341;
1182645363257562;0.2238;0.0268;-0.1245;
1182645373358916;0.2025;0.0651;-0.1011;
1182645383441104;0.1569;0.0843;-0.0862;
1182645393542406;0.1249;0.0204;-0.0638;
1182645403643760;0.1047;-0.0063;-0.0542;
1182645413796260;0.1015;0.0129;-0.0563;
1182645423897614;0.0993;0.0001;-0.0691;
1182645433998916;0.0876;-0.0212;-0.0521;
1182645444052354;0.0844;-0.0201;-0.0595;
1182645454153656;0.1015;0.0971;-0.0648;
1182645464255010;0.0908;0.0502;-0.0446;
1182645474360739;0.0599;-0.0361;-0.0222;
1182645484462041;0.0525;-0.0627;-0.0126;
1182645494563396;0.0823;-0.0169;0.0012;
1182645504654125;0.0961;0.0545;0.0065;
1182645514755427;0.0929;-0.1063;0.0417;
1182645524856781;0.0791;0.0044;0.0129;
1182645534969854;0.0897;0.1791;0.0001;
1182645545071156;0.1111;0.1312;-0.0041;
1182645555172458;0.0631;0.0523;0.0268;
1182645565267771;0.0471;0.0119;0.0523;
1182645575369073;0.0375;-0.0531;0.0598;
1182645585470427;0.0514;-0.0617;0.0619;
1182645595575271;0.0578;-0.0563;0.0822;
1182645605676573;0.0674;-0.0903;0.0928;
1182645615777875;0.0674;0.0364;0.0736;
1182645625868969;0.0908;0.0332;0.0917;
1182645635970323;0.0631;-0.1840;0.0928;
1182645646071677;0.0226;-0.1020;0.0790;
1182645656188916;0.0375;-0.0563;0.0907;
1182645666290219;0.0482;-0.0020;0.1141;
1182645676391573;0.0429;0.0246;0.1162;
1182645686489437;0.0546;0.0044;0.1269;
1182645696590739;0.0610;0.0981;0.1450;
1182645706692094;0.0770;0.1834;0.1269;
1182645716790375;0.0695;0.1951;0.1003;
1182645726891677;0.0525;0.1759;0.1162;
1182645736993031;0.0386;0.0672;0.1045;
1182645747097094;0.0088;-0.0585;0.1141;
1182645757198448;-0.0221;-0.0403;0.1056;
1182645767299750;-0.0391;-0.1148;0.1130;
1182645777403500;-0.0051;-0.1787;0.1141;
1182645787504802;0.0003;-0.0670;0.1162;
1182645797606104;0.0269;0.0119;0.1205;
1182645807700271;0.0599;-0.0063;0.0854;
1182645817801573;0.0354;-0.0913;0.1077;
1182645827902927;0.0194;-0.0680;0.1109;
1182645838010271;0.0461;0.0502;0.0811;
1182645848111573;0.0375;0.0854;0.0832;
1182645858212927;0.0120;0.0896;0.1035;
1182645868311729;-0.0051;0.0640;0.0992;
1182645878413031;0.0120;0.0598;0.1109;
1182645888514385;-0.0115;0.0246;0.1152;
1182645898615896;-0.0146;-0.0510;0.1194;
1182645908717198;-0.0434;-0.0638;0.0907;
1182645918818552;-0.0487;-0.0158;0.1003;
1182645928911625;-0.0370;0.0502;0.0854;
1182645939012927;-0.0146;0.0055;0.0779;
1182645949114281;-0.0487;-0.0350;0.0885;
1182645959209281;-0.0754;-0.0521;0.1099;
1182645969310583;-0.0754;-0.0638;0.1035;
1182645979411989;-0.0700;0.0087;0.0949;
1182645989534229;-0.0700;0.0523;0.1003;
1182645999635531;-0.0647;0.0268;0.0928;
1182646009736833;-0.0573;0.0129;0.0843;
1182646019815010;-0.0732;0.0672;0.0630;
1182646029916364;-0.0658;0.1067;0.0417;
1182646040017666;-0.0764;0.0119;0.0619;
1182646050126833;-0.0871;0.0076;0.0683;
1182646060228135;-0.1095;0.0129;0.0640;
1182646070329489;-0.0903;-0.0627;0.0587;
1182646080449333;-0.0732;-0.1254;0.0694;
1182646090550687;-0.0700;-0.1244;0.0726;
1182646100651989;-0.0509;0.0012;0.0395;
1182646110761833;-0.0381;0.0555;0.0427;
1182646120863187;-0.0306;-0.0190;0.0385;
1182646130964489;-0.0690;-0.0403;0.0310;
1182646141031833;-0.0711;0.0065;0.0385;
1182646151133135;-0.0743;-0.0073;0.0651;
1182646161234489;-0.0828;-0.0627;0.0587;
1182646171363656;-0.0519;0.0065;0.0726;
1182646181464958;-0.0466;0.0406;0.0758;
1182646191566312;-0.0477;0.0715;0.0704;
1182646201644802;-0.0615;0.0577;0.0694;
1182646211746156;-0.0796;0.0193;0.0779;
1182646221847458;-0.0786;0.0587;0.0534;
1182646231945583;-0.1073;-0.0467;0.0587;
1182646242046885;-0.1126;-0.0425;0.0694;
1182646252148239;-0.1222;-0.0222;0.0736;
1182646262256260;-0.1638;-0.1659;0.0683;
1182646272357614;-0.1254;-0.1148;0.0704;
1182646282458969;-0.0807;-0.0073;0.0598;
1182646292583187;-0.1126;-0.0095;0.0406;
1182646302684489;-0.1350;-0.0041;0.0534;
1182646312785844;-0.1585;-0.0148;0.0289;
1182646322864750;-0.1585;-0.0276;0.0108;
1182646332966052;-0.1489;0.0662;-0.0009;
1182646343067406;-0.1435;0.1099;0.0161;
1182646353171729;-0.1957;-0.0137;0.0140;
1182646363273031;-0.1393;0.0736;0.0129;
1182646373374333;-0.0786;0.1375;0.0119;
1182646383466364;-0.1020;0.0459;0.0033;
1182646393567719;-0.0871;0.0768;-0.0297;
1182646403669073;-0.0935;0.0992;-0.0308;
1182646413773812;-0.0977;0.0225;-0.0414;
1182646423875114;-0.1148;-0.0807;-0.0318;
1182646433976469;-0.0945;-0.1158;-0.0329;
1182646444094229;-0.0700;-0.0680;-0.0457;
1182646454195531;-0.0391;0.0108;-0.0467;
1182646464296885;-0.0253;0.0768;-0.0467;
1182646474402250;0.0088;0.1706;-0.0489;
1182646484503604;-0.0008;0.2387;-0.0617;
1182646494604906;-0.0732;0.1322;-0.0478;
1182646504689073;-0.0924;0.0406;-0.0414;
1182646514790375;-0.0615;0.1056;-0.0787;
1182646524891729;-0.0775;0.0981;-0.0617;
1182646535008708;-0.0658;0.0928;-0.0478;
1182646545110010;-0.0924;-0.0585;-0.0478;
1182646555211312;-0.0786;-0.1648;-0.0435;
1182646565295583;-0.0519;-0.1126;-0.0457;
1182646575396885;-0.0583;-0.1478;-0.0521;
1182646585498239;-0.0722;-0.1712;-0.0744;
1182646595597771;-0.0498;-0.0881;-0.0712;
1182646605699073;-0.0317;-0.0265;-0.0776;
1182646615800427;-0.0221;0.0364;-0.1021;
1182646625904489;-0.0381;0.0907;-0.0723;
1182646636005791;-0.0626;0.0758;-0.0382;
1182646646107146;-0.0732;0.0470;-0.0521;
1182646656228604;-0.0530;0.1280;-0.0521;
1182646666329906;-0.0306;0.1652;-0.0361;
1182646676431208;-0.0573;0.0300;-0.0318;
1182646686521156;-0.0583;-0.0372;-0.0393;
1182646696622458;-0.0487;-0.0137;-0.0553;
1182646706723812;-0.0487;-0.0063;-0.0670;
1182646716822458;-0.0679;-0.0190;-0.0595;
1182646726923760;-0.0881;-0.1009;-0.0382;
1182646737025114;-0.0850;-0.0755;-0.0329;
1182646747137823;-0.0562;-0.0531;-0.0414;
1182646757239177;-0.0509;-0.0999;-0.0286;
1182646767340479;-0.0519;-0.1105;-0.0169;
1182646777419750;-0.0477;-0.0627;-0.0435;
1182646787521104;-0.0413;-0.0073;-0.0361;
1182646797622406;-0.0338;0.0257;-0.0542;
1182646807742666;-0.0306;0.0875;-0.0798;
1182646817843969;-0.0594;0.0960;-0.0585;
1182646827945271;-0.0551;0.0417;-0.0382;
1182646838049541;-0.0754;-0.0723;-0.0350;
1182646848150844;-0.0615;-0.0999;-0.0414;
1182646858252146;-0.0210;0.0278;-0.0489;
1182646868342823;-0.0115;0.0854;-0.0595;
1182646878444125;0.0035;0.0800;-0.0766;
1182646888545479;-0.0083;0.1077;-0.0766;
1182646898647823;-0.0061;0.0939;-0.1064;
1182646908749125;-0.0221;-0.0052;-0.1043;
1182646918850479;-0.0487;-0.0881;-0.0904;
