Sensor: bmi160 Gyroscope Non-wakeup
Vendor: BOSCH
TimestampGyro [ns]; GyroX [rad/s]; GyroY [rad/s]; GyroZ [rad/s]
5256053171216599;0.0501;0.0040;-0.0081;
5256053181351807;0.0501;0.0029;-0.0081;
5256053191459099;0.0533;-0.0013;-0.0103;
5256053201558266;0.0597;-0.0003;-0.0081;
5256053211642953;0.0597;0.0008;-0.0081;
5256053221721651;0.0533;-0.0013;-0.0103;
5256053231865713;0.0522;0.0008;-0.0103;
5256053241981703;0.0554;0.0019;-0.0071;
5256053252061078;0.0597;0.0019;-0.0071;
5256053262183370;0.0703;0.0019;-0.0071;
5256053272264932;0.0842;0.0019;-0.0071;
5256053282375870;0.1087;-0.0035;-0.0071;
5256053292477641;0.1449;-0.0045;-0.0060;
5256053302597432;0.1873;-0.0067;-0.0007;
5256053312683995;0.2395;-0.0109;0.0047;
5256053322803161;0.3013;-0.0130;0.0100;
5256053332919411;0.3642;-0.0184;0.0174;
5256053343006495;0.4228;-0.0269;0.0260;
5256053353110713;0.4856;-0.0365;0.0356;
5256053363212901;0.5591;-0.0461;0.0441;
5256053373308057;0.6710;-0.0567;0.0558;
5256053383421703;0.8232;-0.0663;0.0750;
5256053393527849;0.9744;-0.0791;0.0931;
5256053403631859;1.1353;-0.0929;0.1144;
5256053413734203;1.3036;-0.1047;0.1399;
5256053423844568;1.4622;-0.1185;0.1623;
5256053433943109;1.6038;-0.1281;0.1847;
5256053444049255;1.7061;-0.1345;0.2081;
5256053454156963;1.7530;-0.1366;0.2262;
5256053464260297;1.7487;-0.1377;0.2390;
5256053474363786;1.6923;-0.1356;0.2443;
5256053484473786;1.5900;-0.1270;0.2433;
5256053494576338;1.4419;-0.1164;0.2273;
5256053504675557;1.2620;-0.1089;0.2103;
5256053514778995;1.0607;-0.0961;0.1953;
5256053524884099;0.8722;-0.0770;0.1804;
5256053534991963;0.6699;-0.0599;0.1549;
5256053545099984;0.4760;-0.0439;0.1282;
5256053555197849;0.2779;-0.0248;0.1005;
5256053565305870;0.0575;-0.0120;0.0718;
5256053575411443;-0.1033;-0.0035;0.0505;
5256053585512068;-0.0703;0.0178;0.0430;
5256053595613474;-0.0586;0.0210;0.0430;
5256053605719568;-0.0533;0.0040;0.0345;
5256053615827693;-0.0543;-0.0109;0.0228;
5256053625935818;-0.0490;-0.0226;0.0121;
5256053636031495;-0.0437;-0.0301;0.0153;
5256053646136911;-0.0330;-0.0205;0.0228;
5256053656244099;0.0043;-0.0003;0.0281;
5256053666348838;0.0597;0.0061;0.0292;
5256053676451078;0.0895;0.0029;0.0302;
5256053686562068;0.1001;-0.0013;0.0366;
5256053696662484;0.1150;-0.0141;0.0430;
5256053706766651;0.1385;-0.0269;0.0451;
5256053716853943;0.1895;-0.0280;0.0515;
5256053726982172;0.2587;-0.0216;0.0643;
5256053737082536;0.3120;-0.0205;0.0782;
5256053747187588;0.3344;-0.0237;0.0877;
5256053757289776;0.3322;-0.0248;0.0931;
5256053767395088;0.3248;-0.0344;0.0963;
5256053777497797;0.3280;-0.0429;0.1005;
5256053787608734;0.3610;-0.0450;0.1122;
5256053797717068;0.4142;-0.0450;0.1272;
5256053807824099;0.4632;-0.0503;0.1399;
5256053817915245;0.5186;-0.0535;0.1527;
5256053828032120;0.6007;-0.0546;0.1698;
5256053838137276;0.6305;-0.0684;0.1815;
5256053848235193;0.6007;-0.0897;0.1847;
5256053858331391;0.4355;-0.1260;0.1762;
5256053868446651;0.3397;-0.1142;0.1858;
5256053878543005;0.4505;-0.0631;0.2198;
5256053888654203;0.5559;-0.0450;0.2433;
5256053898777797;0.5804;-0.0322;0.2550;
5256053908859880;0.5644;-0.0216;0.2582;
5256053918966443;0.4696;-0.0493;0.2550;
5256053929068318;0.3514;-0.0876;0.2593;
5256053939178995;0.3067;-0.0972;0.2656;
5256053949275557;0.2896;-0.0961;0.2582;
5256053959385297;0.1948;-0.1036;0.2422;
5256053969503630;0.0522;-0.1036;0.2252;
5256053979583630;-0.0522;-0.0855;0.2145;
5256053989695349;-0.1118;-0.0706;0.1985;
5256053999804880;-0.1289;-0.0663;0.1794;
5256054009903057;-0.1236;-0.0514;0.1634;
5256054020006391;-0.1193;-0.0354;0.1506;
5256054030111911;-0.1097;-0.0290;0.1293;
5256054040206599;-0.1012;-0.0226;0.1080;
5256054050319307;-0.0895;-0.0056;0.0909;
5256054060442745;-0.0554;0.0104;0.0728;
5256054070529620;0.0064;0.0029;0.0483;
5256054080633370;0.0937;-0.0226;0.0260;
5256054090739463;0.1959;-0.0525;0.0174;
5256054100887484;0.2928;-0.0439;-0.0007;
5256054110947484;0.3471;0.0072;-0.0156;
5256054121054359;0.4100;0.0413;-0.0230;
5256054131151130;0.4963;0.0253;-0.0177;
5256054141264620;0.6081;0.0104;-0.0198;
5256054151364776;0.6561;0.0189;-0.0177;
5256054161466234;0.6294;0.0061;0.0047;
5256054171568891;0.5229;-0.0525;-0.0007;
5256054181695141;0.4462;-0.0557;-0.0284;
5256054191789047;0.3098;0.0210;-0.0241;
5256054201874203;0.1534;0.0530;-0.0209;
5256054211993370;0.0490;0.0168;-0.0379;
5256054222119932;-0.0170;0.0317;-0.0571;
5256054232224724;-0.1129;0.0455;-0.0731;
5256054242329568;-0.1630;0.0306;-0.0901;
5256054252412953;-0.2759;0.0349;-0.0784;
5256054262516234;-0.3963;0.0232;-0.0742;
5256054272621026;-0.4814;-0.0109;-0.0859;
5256054282725818;-0.6007;-0.0290;-0.0955;
5256054292827953;-0.6411;-0.0035;-0.0838;
5256054302932797;-0.5740;0.0274;-0.0593;
5256054313037641;-0.4590;0.0338;-0.0369;
5256054323130974;-0.3313;0.0615;-0.0113;
5256054333235818;-0.2258;0.0924;0.0004;
5256054343340661;-0.1992;0.0977;0.0185;
5256054353461026;-0.2130;0.0945;0.0537;
5256054363565818;-0.1747;0.0913;0.0664;
5256054373670661;-0.1502;0.0594;0.0537;
5256054383776859;-0.1971;0.0338;0.0505;
5256054393881651;-0.2344;0.0445;0.0707;
5256054403986443;-0.2365;0.0029;0.0451;
5256054414091755;-0.2599;-0.0173;-0.0134;
5256054424196547;-0.2834;0.0178;-0.0198;
5256054434301338;-0.2652;0.0168;0.0111;
5256054444408109;-0.2684;0.0296;-0.0039;
5256054454512901;-0.2780;0.1435;-0.0561;
5256054464617745;-0.2897;0.1340;-0.0976;
5256054474722224;-0.2876;0.0328;-0.1370;
5256054484827068;-0.2748;0.1286;-0.1530;
5256054494931911;-0.2716;0.2053;-0.1690;
5256054505031963;-0.2812;0.1148;-0.2148;
5256054515136755;-0.3036;0.0818;-0.2616;
5256054525241599;-0.2780;0.1840;-0.2872;
5256054535347588;-0.2823;0.2510;-0.3202;
5256054545452380;-0.2706;0.2169;-0.3521;
5256054555557224;-0.2237;0.1968;-0.3542;
5256054565661026;-0.1353;0.2128;-0.3734;
5256054575765818;-0.0149;0.2531;-0.3680;
5256054585870661;0.0170;0.2254;-0.3670;
5256054595974568;0.0192;0.1574;-0.3819;
5256054606079359;0.0224;0.1350;-0.3574;
5256054616184203;0.0138;0.1158;-0.3478;
5256054626288005;-0.0277;0.0807;-0.3467;
5256054636392797;-0.0692;0.0903;-0.3256;
5256054646497641;-0.1417;0.0732;-0.3309;
5256054656594099;-0.2397;0.0977;-0.3309;
5256054666698943;-0.2929;0.1329;-0.3393;
5256054676803786;-0.3877;0.0850;-0.3574;
5256054686916755;-0.4451;0.1340;-0.3467;
5256054697021547;-0.4686;0.1297;-0.3393;
5256054707126391;-0.4856;0.0807;-0.3638;
5256054717238578;-0.5005;0.1212;-0.3393;
5256054727343370;-0.5229;0.0913;-0.3403;
5256054737448161;-0.5549;0.0551;-0.3499;
5256054747549151;-0.5719;0.0988;-0.3288;
5256054757653943;-0.5623;0.0945;-0.3320;
5256054767758786;-0.5453;0.0764;-0.3277;
5256054777853630;-0.5399;0.0775;-0.2861;
5256054787958474;-0.5080;0.0786;-0.2819;
5256054798063266;-0.4845;0.0786;-0.2798;
5256054808189828;-0.4835;0.0466;-0.2702;
5256054818294620;-0.4515;0.0115;-0.2893;
5256054828399463;-0.4080;0.0168;-0.3053;
5256054838481286;-0.3281;0.0668;-0.2489;
5256054848586078;-0.2695;0.0583;-0.2403;
5256054858690870;-0.2759;0.0083;-0.3021;
5256054868818005;-0.2684;0.0679;-0.3032;
5256054878922849;-0.2631;0.1084;-0.2989;
5256054889027588;-0.2248;0.0157;-0.3330;
5256054899108734;-0.2173;-0.0077;-0.3309;
5256054909213526;-0.2248;0.0317;-0.3425;
5256054919318318;-0.2024;0.0157;-0.3723;
5256054929434463;-0.1491;0.0349;-0.3595;
5256054939539255;-0.0618;0.0690;-0.3723;
5256054949644047;0.0660;0.0296;-0.3787;
5256054959730661;0.1672;0.0104;-0.3542;
5256054969835505;0.2768;-0.0045;-0.3680;
5256054979940349;0.3738;-0.0077;-0.3734;
5256054990042536;0.4686;-0.0184;-0.3542;
5256055000147380;0.5911;-0.0844;-0.3499;
5256055010252224;0.6326;-0.0461;-0.3266;
5256055020377068;0.7530;-0.0141;-0.3021;
5256055030481807;0.8541;-0.0503;-0.2989;
5256055040586703;0.9254;-0.0344;-0.2670;
5256055050664359;1.0596;0.0029;-0.2425;
5256055060769151;1.1204;-0.0429;-0.1988;
5256055070873995;1.1576;-0.0439;-0.1711;
5256055080998838;1.1683;-0.0056;-0.1519;
5256055091103682;1.1513;-0.0354;-0.1083;
5256055101208422;1.1214;-0.0099;-0.0859;
5256055111308786;1.0362;-0.0354;-0.0475;
5256055121413630;0.9467;-0.0546;-0.0433;
5256055131518422;0.8114;-0.0258;-0.0252;
5256055141618682;0.7040;-0.0312;-0.0166;
5256055151723474;0.5612;-0.0439;0.0004;
5256055161828266;0.4526;-0.0003;0.0079;
5256055171947224;0.3152;0.0274;0.0100;
5256055182052016;0.2108;-0.0003;0.0313;
5256055192156859;0.0778;0.0104;-0.0007;
5256055202230870;0.0714;0.0647;0.0089;
5256055212335713;0.1161;0.0828;0.0089;
5256055222440505;0.1065;0.0924;0.0249;
5256055232554984;0.0852;0.0690;0.0089;
5256055242659828;0.0724;0.0477;0.0377;
5256055252764672;0.0479;0.0370;0.0313;
5256055262904203;0.0639;0.0146;0.0302;
5256055273009099;0.0660;0.0402;-0.0028;
5256055283114047;0.0937;0.0807;0.0121;
5256055293181651;0.1023;0.0881;-0.0060;
5256055303286599;0.1044;0.1499;0.0142;
5256055313391495;0.1332;0.1105;-0.0028;
5256055323495245;0.0788;0.0413;-0.0113;
5256055333600193;0.0884;0.0690;-0.0326;
5256055343705088;0.0937;0.1116;-0.0390;
5256055353808161;0.1204;0.0210;-0.0230;
5256055363913109;0.0852;-0.0269;-0.0390;
5256055374018005;0.1204;0.0093;-0.0390;
5256055384131807;0.1044;-0.0067;-0.0603;
5256055394236703;0.1023;-0.0844;-0.0614;
5256055404341651;0.1459;0.1169;-0.0529;
5256055414439099;0.3951;0.6110;-0.0411;
5256055424544047;0.8530;0.8177;-0.0518;
5256055434648943;1.0873;0.5951;0.0004;
5256055444752641;0.8413;0.3234;0.0292;
5256055454857536;0.3365;0.1244;0.0079;
5256055464962484;-0.0053;-0.1537;-0.0145;
5256055475071703;-0.2109;-0.3305;-0.0688;
5256055485176599;-0.2929;-0.3582;-0.0891;
5256055495281547;-0.3057;-0.3124;-0.1455;
5256055505381495;-0.2077;-0.1835;-0.1200;
5256055515486391;-0.0746;-0.0812;-0.1264;
5256055525591338;0.1108;-0.0301;-0.1178;
5256055535696495;0.2214;-0.0088;-0.0997;
5256055545801443;0.1820;-0.0269;-0.0646;
5256055555906338;0.2619;0.0328;-0.0529;
5256055566006807;0.3184;0.0466;-0.0912;
5256055576111703;0.3237;-0.0088;-0.0923;
5256055586216651;0.1863;-0.0439;-0.0923;
5256055596323891;0.1289;-0.0429;-0.0891;
5256055606428838;0.1672;-0.1142;-0.1072;
5256055616533734;0.1459;-0.1228;-0.1381;
5256055626632328;0.1692;-0.0961;-0.1093;
5256055636737276;0.1937;-0.0983;-0.1115;
5256055646842172;0.1873;-0.0780;-0.1019;
5256055656948682;0.2118;-0.0546;-0.0944;
5256055667053578;0.2129;-0.0876;-0.1136;
5256055677158526;0.1651;-0.5200;-0.0699;
5256055687266651;-0.0607;-1.0812;-0.0678;
5256055697371599;-0.0277;-0.8086;-0.1455;
5256055707476495;0.1842;-0.0642;-0.1967;
5256055717595766;0.4739;0.1691;-0.1860;
5256055727700661;0.9851;0.1233;-0.1615;
5256055737805609;1.2003;0.2585;-0.1061;
5256055747901391;1.0032;0.2702;-0.0656;
5256055758006286;0.8370;0.0434;0.0228;
5256055768111234;0.5719;-0.0269;0.0345;
5256055778209828;0.3919;-0.0130;0.0324;
5256055788314724;0.3035;-0.0940;0.0419;
5256055798419672;0.2470;-0.1121;0.0632;
5256055808526182;0.2704;-0.0493;0.0728;
5256055818631130;0.2758;-0.0589;0.0632;
5256055828736026;0.2470;-0.1068;0.1048;
5256055838835557;0.2598;-0.0130;0.0973;
5256055848940453;0.2875;0.0892;0.0888;
5256055859045453;0.2811;-0.0173;0.0931;
5256055869154203;0.2630;0.0040;0.1240;
5256055879259099;0.2896;0.1222;0.1463;
5256055889364047;0.3013;0.1222;0.1442;
5256055899460870;0.2662;0.1190;0.1591;
5256055909565951;0.2513;0.0498;0.1804;
5256055919670898;0.2236;0.0040;0.1975;
5256055929773971;0.2236;0.0360;0.1772;
5256055939878919;0.2438;0.0583;0.2081;
5256055949983815;0.2438;0.0455;0.2252;
5256055960081003;0.2289;0.0551;0.2358;
5256055970185898;0.2097;0.1031;0.2550;
5256055980290846;0.1767;0.0700;0.2614;
5256055990401784;0.1342;0.0264;0.2815;
5256056000506732;0.1140;0.0594;0.2762;
5256056010611628;0.1385;0.1329;0.2975;
5256056020736628;0.1417;0.1371;0.3156;
5256056030841523;0.0948;-0.0162;0.3102;
5256056040946419;0.0650;0.0125;0.3092;
5256056051033138;0.0628;0.1105;0.3081;
5256056061138086;0.0692;-0.1047;0.3198;
5256056071242982;0.0053;-0.2272;0.3507;
5256056081396784;-0.0181;0.0125;0.3262;
5256056091501680;0.0447;0.1595;0.2953;
5256056101606628;0.1449;0.0956;0.2985;
5256056111644596;0.1756;0.0306;0.3262;
5256056121749492;0.1033;0.0189;0.3166;
5256056131854440;0.0703;-0.0120;0.3102;
5256056141970742;0.0117;0.0093;0.2667;
5256056152075690;0.0107;0.0189;0.2571;
5256056162180586;0.0426;0.0306;0.2593;
5256056172279076;0.0266;0.0146;0.2443;
5256056182383971;-0.0043;0.0360;0.2358;
5256056192488919;0.0181;0.0818;0.2603;
5256056202593034;-0.0245;0.0115;0.2262;
5256056212697982;-0.0607;-0.0120;0.2145;
5256056222802878;-0.1023;0.0530;0.2230;
5256056232928659;-0.1534;0.0445;0.1847;
5256056243033555;-0.2056;-0.0706;0.1751;
5256056253138503;-0.2716;-0.0525;0.1698;
5256056263236315;-0.3153;0.0210;0.1559;
5256056273340794;-0.3792;-0.0578;0.1389;
5256056283445273;-0.4122;-0.0834;0.1421;
5256056293542148;-0.3920;0.2158;0.1442;
5256056303646628;-0.3632;0.2670;0.1240;
5256056313751107;-0.4430;-0.2197;0.1016;
5256056323852669;-0.4526;-0.1270;0.1176;
5256056333957148;-0.5804;0.0999;0.0888;
5256056344061628;-0.6049;0.0093;0.0707;
5256056354157148;-0.5911;-0.1068;0.0643;
5256056364261628;-0.6486;-0.0503;-0.0177;
5256056374366107;-0.6134;0.1158;-0.0284;
5256056384488138;-0.6624;0.0466;-0.0316;
5256056394592617;-0.6720;-0.0738;-0.0529;
5256056404697096;-0.6411;0.0700;-0.0763;
5256056414794961;-0.6774;0.0242;-0.1019;
5256056424899440;-0.6571;-0.0322;-0.1221;
5256056435003919;-0.6124;0.0658;-0.1402;
5256056445109232;-0.6848;-0.0397;-0.1828;
5256056455213711;-0.6539;-0.1089;-0.1850;
5256056465318190;-0.6390;-0.0802;-0.1850;
5256056475410169;-0.5868;-0.1228;-0.1956;
5256056485514648;-0.4526;-0.0493;-0.1924;
5256056495619128;-0.3057;0.0935;-0.1935;
5256056505746055;-0.2226;0.0924;-0.1967;
5256056515850534;-0.1939;0.0700;-0.1498;
5256056525955013;-0.1715;0.0807;-0.1487;
5256056536045794;-0.2130;-0.0109;-0.1626;
5256056546150273;-0.2141;-0.0280;-0.1732;
5256056556254753;-0.1204;0.0551;-0.1658;
5256056566367357;-0.0682;0.0306;-0.1796;
5256056576471836;-0.0234;0.0051;-0.1477;
5256056586576315;-0.0096;-0.0003;-0.1509;
5256056596687253;-0.0352;-0.0599;-0.1573;
5256056606791732;-0.0298;-0.0578;-0.1732;
5256056616896211;-0.0053;-0.0290;-0.1754;
5256056626988815;0.0597;-0.0450;-0.1647;
5256056637093294;0.1310;-0.0003;-0.1541;
5256056647197773;0.1427;-0.0077;-0.1466;
5256056657302253;0.1065;-0.0482;-0.1360;
5256056667406732;0.0927;0.0072;-0.1040;
5256056677511211;0.0831;0.0328;-0.1115;
5256056687623190;0.0724;-0.0216;-0.1136;
5256056697727669;0.0511;0.0434;-0.0891;
5256056707832148;0.0170;0.0679;-0.0603;
5256056717933815;-0.0426;-0.0738;-0.0912;
5256056728038294;-0.0820;-0.0450;-0.1146;
5256056738142773;-0.1044;0.0210;-0.1178;
5256056748256732;-0.0969;-0.0130;-0.1519;
5256056758361211;-0.0778;0.0019;-0.1551;
5256056768465690;-0.1023;-0.0354;-0.1732;
5256056778563086;-0.0852;-0.0674;-0.1551;
5256056788667565;-0.0937;-0.0429;-0.1349;
5256056798772044;-0.0703;0.0104;-0.1594;
5256056808894336;-0.0224;0.0349;-0.1541;
5256056818998815;-0.0341;-0.0397;-0.1509;
5256056829103294;-0.0373;-0.0897;-0.1668;
5256056839191940;-0.0053;-0.0258;-0.1573;
5256056849296419;0.0213;-0.0322;-0.1477;
5256056859400898;0.0820;-0.0333;-0.1381;
5256056869508503;0.1310;-0.0258;-0.1381;
5256056879612982;0.1257;-0.0503;-0.1573;
5256056889717461;0.1916;0.0221;-0.1317;
5256056899834961;0.2204;0.0530;-0.1370;
5256056909939440;0.2736;-0.0045;-0.1328;
5256056920043867;0.3152;-0.0067;-0.1232;
5256056930136628;0.3258;-0.0077;-0.1093;
5256056940241107;0.3248;-0.0386;-0.1136;
5256056950345586;0.3205;-0.0684;-0.0965;
5256056960428815;0.3802;0.0423;-0.0614;
5256056970533294;0.4579;0.0881;-0.0188;
5256056980637773;0.4750;0.0093;-0.0124;
5256056990768711;0.4345;-0.0674;-0.0124;
5256057000873190;0.3461;-0.0599;0.0473;
5256057010977669;0.3035;0.0104;0.0867;
5256057021048711;0.2662;0.0093;0.0611;
5256057031153190;0.2268;-0.0652;0.0846;
5256057041257669;0.1534;-0.0471;0.1059;
5256057051405169;0.1033;-0.0045;0.1122;
5256057061509648;0.0810;0.0008;0.1091;
5256057071614128;0.0778;-0.0333;0.1037;
5256057081712461;0.0788;-0.0716;0.1389;
5256057091816940;0.0724;-0.0099;0.1485;
5256057101921419;0.0767;0.1041;0.1133;
5256057112031836;0.0948;0.0754;0.1005;
5256057122136315;0.0927;0.0178;0.0920;
5256057132240794;0.0810;0.0391;0.1282;
5256057142326003;0.0863;0.1148;0.1229;
5256057152430482;0.0895;0.0977;0.1122;
5256057162534961;0.0692;-0.0173;0.1229;
5256057172654753;0.0767;-0.0077;0.1570;
5256057182759232;0.0522;-0.0226;0.1655;
5256057192863711;0.0224;-0.0812;0.1676;
5256057202954544;0.0373;-0.0578;0.2007;
5256057213059023;0.0362;-0.0312;0.2017;
5256057223163503;0.0330;0.0061;0.2113;
5256057233260065;0.0458;0.0445;0.2145;
5256057243364544;0.0469;-0.0067;0.2198;
5256057253469023;0.0138;-0.0333;0.2422;
5256057263586471;0.0213;0.1595;0.2230;
5256057273691003;-0.0266;0.1116;0.2028;
5256057283795534;-0.0330;-0.1292;0.1943;
5256057293908086;-0.0746;-0.0631;0.1612;
5256057304012617;-0.1811;0.0818;0.1506;
5256057314117148;-0.2226;0.0178;0.1367;
5256057324208294;-0.1971;-0.0929;0.0803;
5256057334312826;-0.2099;-0.0674;0.0579;
5256057344417357;-0.1917;-0.0162;0.0526;
5256057354525638;-0.1214;-0.0365;0.0377;
5256057364630169;-0.0852;-0.0567;0.0526;
5256057374734701;-0.0724;0.0115;0.0941;
5256057384842044;-0.0586;0.0306;0.0963;
5256057394946576;-0.0309;-0.0642;0.1005;
5256057405051107;-0.0597;-0.0429;0.0941;
5256057415154648;-0.0937;-0.0024;0.0739;
5256057425259180;-0.0245;0.0445;0.1059;
5256057435363711;-0.0021;0.0402;0.1059;
5256057445464336;0.0011;-0.0684;0.0867;
5256057455568867;-0.0415;-0.0439;0.0643;
5256057465673398;-0.0618;0.0509;0.0345;
5256057475791888;-0.0032;0.0615;0.0270;
5256057485896419;0.0245;-0.0162;0.0451;
5256057496000951;0.0011;-0.0173;0.0345;
5256057506104128;-0.0149;0.0264;0.0121;
5256057516208659;-0.0021;0.0253;0.0228;
5256057526313190;0.0064;0.0285;0.0100;
5256057536411523;0.0085;0.0157;0.0292;
5256057546516055;-0.0043;0.0349;0.0409;
5256057556620586;-0.0245;0.0253;0.0611;
5256057566734648;-0.0298;-0.0109;0.0345;
5256057576839180;-0.0352;-0.0099;0.0632;
5256057586943711;-0.0181;-0.0301;0.0526;
5256057597037044;-0.0415;-0.0205;0.0526;
5256057607141576;-0.0565;0.0093;0.0398;
5256057617246107;-0.0362;0.0700;0.0409;
5256057627358294;-0.0213;0.0775;0.0686;
5256057637462826;-0.0288;-0.0152;0.0334;
5256057647567357;-0.0873;-0.0429;0.0164;
5256057657678086;-0.1236;0.0519;-0.0092;
5256057667782617;-0.1033;0.0722;0.0068;
5256057677887148;-0.0863;-0.0290;0.0121;
5256057687984440;-0.0820;-0.0109;0.0387;
5256057698088971;-0.1065;0.0445;0.0398;
5256057708193503;-0.1108;0.0924;0.0387;
5256057718269857;-0.1055;0.0413;0.0068;
5256057728374388;-0.0746;-0.0546;0.0281;
5256057738478919;-0.0767;-0.0194;0.0547;
5256057748607305;-0.0660;0.0839;0.0643;
5256057758711836;-0.0927;0.1286;0.0505;
5256057768816367;-0.0458;0.1190;0.0632;
5256057778924336;-0.0767;-0.0162;0.0441;
5256057789028867;-0.0937;-0.0088;0.0547;
5256057799133398;-0.1193;0.0562;0.0238;
5256057809223398;-0.1150;0.0317;0.0079;
5256057819327930;-0.0905;0.0583;0.0079;
5256057829432461;-0.0905;0.0210;0.0100;
5256057839542878;-0.1087;-0.0567;0.0153;
5256057849647409;-0.1289;-0.1164;0.0121;
5256057859751940;-0.1619;-0.1345;0.0164;
5256057869886211;-0.1715;-0.0589;0.0004;
5256057879990742;-0.1417;-0.0407;-0.0443;
5256057890095273;-0.0234;0.1435;-0.0422;
5256057900180794;-0.0149;0.0860;-0.0262;
5256057910285326;-0.0682;-0.2687;-0.0305;
5256057920389857;-0.1055;-0.2762;-0.0571;
5256057930489857;-0.1172;0.0178;-0.0763;
5256057940594388;-0.0565;0.1712;-0.0859;
5256057950698919;0.0032;0.0477;-0.0806;
5256057960834648;0.0064;-0.1068;-0.0901;
5256057970939180;-0.0501;-0.1164;-0.1125;
5256057981043711;-0.1257;-0.2612;-0.1232;
5256057991102148;-0.2035;-0.4869;-0.1040;
5256058001206732;-0.0959;-0.1856;-0.0454;
5256058011311263;-0.0192;0.2840;-0.0752;
5256058021429648;-0.0149;0.3096;-0.1413;
5256058031534180;0.1948;0.1446;-0.1274;
5256058041638711;0.2406;0.1553;-0.1051;
5256058051746628;0.1097;0.1989;-0.0901;
5256058061851159;0.0138;0.2553;-0.1328;
5256058071955690;0.1118;0.4108;-0.1221;
5256058082040378;0.0181;0.2648;-0.0891;
5256058092144909;-0.0234;0.0391;-0.0710;
5256058102249440;-0.0341;-0.0961;-0.0880;
5256058112370794;-0.0266;-0.0077;-0.0774;
5256058122475326;-0.0320;0.0818;-0.0507;
5256058132579857;-0.0064;-0.0301;-0.0422;
5256058142682305;0.1905;0.4246;0.0164;
5256058152786836;0.3812;0.6036;0.0622;
5256058162891367;-0.1374;-0.3582;0.0718;
5256058173012878;-0.2205;-0.4518;0.0696;
5256058183117409;-0.1683;0.0008;0.0217;
5256058193221940;-0.3696;-0.0652;-0.0422;
5256058203304648;-0.3324;-0.2314;-0.0262;
5256058213409180;-0.1268;-0.1537;-0.0976;
5256058223513711;-0.0245;0.0019;-0.1157;
5256058233610586;-0.0107;0.1137;-0.1189;
5256058243715117;-0.0213;0.0253;-0.0987;
5256058253819648;-0.0170;0.0264;-0.0571;
5256058263943919;-0.0107;0.1233;0.0025;
5256058274048555;-0.0511;0.0381;0.0238;
5256058284153138;-0.0288;0.0818;0.0515;
5256058294259336;-0.0607;0.1105;0.0590;
5256058304363971;-0.0969;-0.0056;0.0909;
5256058314468555;-0.0628;0.0541;0.0877;
5256058324571107;-0.0714;0.0935;0.1112;
5256058334675742;-0.1182;-0.0312;0.1293;
5256058344780326;-0.1204;-0.0269;0.1304;
5256058354876940;-0.1108;0.0317;0.1474;
5256058364981576;-0.1502;0.0125;0.1399;
5256058375086159;-0.1140;0.0924;0.1154;
5256058385198398;-0.1395;0.0913;0.0846;
5256058395302982;-0.1630;0.0391;0.0664;
5256058405407617;-0.1150;0.1755;0.0505;
5256058415507773;-0.1310;0.1616;0.0675;
5256058425612409;-0.2013;-0.0162;0.0579;
5256058435716992;-0.1875;-0.0546;0.0313;
5256058445825794;-0.1694;-0.0450;0.0079;
5256058455930430;-0.1204;-0.0663;0.0015;
5256058466035013;-0.0511;-0.0205;-0.0028;
5256058476139753;-0.0309;0.0040;-0.0007;
5256058486244388;-0.0128;0.0253;-0.0007;
5256058496348971;0.0085;0.0818;0.0206;
5256058506457721;-0.0085;0.0732;0.0132;
5256058516562357;-0.0245;0.0370;-0.0039;
5256058526666940;-0.0469;-0.0056;-0.0049;
5256058536765482;-0.0873;-0.0748;-0.0177;
5256058546870117;-0.1033;-0.1515;-0.0209;
5256058556974701;-0.1289;-0.2378;-0.0241;
5256058567086888;-0.1417;-0.2421;-0.0720;
5256058577191523;-0.1150;-0.2165;-0.0688;
5256058587296107;-0.0873;-0.1079;-0.0678;
5256058597391576;-0.0628;-0.0514;-0.0635;
5256058607496211;-0.0415;-0.0184;-0.0752;
5256058617600794;-0.0383;0.0104;-0.1051;
5256058627700898;-0.0586;-0.0258;-0.0923;
5256058637805534;-0.1001;-0.1377;-0.0848;
5256058647910117;-0.1065;-0.1888;-0.1093;
5256058658021628;-0.0991;-0.1941;-0.1402;
5256058668126263;-0.0746;-0.1622;-0.1264;
5256058678230846;-0.0788;-0.2325;-0.1104;
5256058688335378;-0.0565;-0.1451;-0.0774;
5256058698439961;-0.0224;-0.0599;-0.0667;
5256058708544596;-0.0884;-0.2591;-0.0507;
5256058718632357;-0.1342;-0.5754;0.0206;
5256058728736992;-0.2546;-0.6031;0.0164;
5256058738841576;-0.1268;0.1041;-0.0081;
5256058748956315;-0.0842;0.5024;-0.0529;
5256058759060951;0.5282;0.6121;-0.0880;
5256058769165534;0.6028;0.6600;-0.0358;
5256058779261523;0.3248;0.5269;0.0334;
5256058789366159;0.0831;0.4800;0.0366;
5256058799470742;0.0362;0.4566;0.0100;
5256058809588086;0.0437;0.3202;0.0206;
5256058819692721;0.0341;0.1553;0.0664;
5256058829797305;0.0021;0.0913;0.1186;
5256058839902669;-0.0469;0.0977;0.1367;
5256058850007305;-0.0820;0.0221;0.1655;
5256058860111888;-0.0383;0.1126;0.1911;
5256058870220690;0.0842;0.9007;0.2550;
5256058880325326;0.0330;0.1531;0.3592;
5256058890429909;-0.3079;-1.2058;0.3241;
5256058900547669;-0.5527;-0.7138;0.1581;
5256058910652253;-0.7487;0.1052;0.0728;
5256058920756836;-0.6358;-0.0652;0.0377;
5256058930862878;-0.0511;-0.2133;-0.0198;
5256058940967461;-0.1023;0.1201;-0.0699;
5256058951072096;-0.1055;0.3959;-0.0731;
5256058961157773;0.0053;0.2819;-0.0422;
5256058971262409;0.0107;0.2414;0.0121;
5256058981366992;-0.0628;0.4449;0.0111;
5256058991500690;-0.0735;0.2915;0.0526;
5256059001605326;-0.1150;0.0519;0.0409;
5256059011709909;-0.1459;0.3000;0.0366;
5256059021799440;-0.1640;0.4140;0.0707;
5256059031904076;-0.1843;0.0487;0.0430;
5256059042008659;-0.1449;-0.0237;0.0025;
5256059052108971;-0.2216;-0.0045;0.0132;
5256059062213607;-0.3004;-0.1952;-0.0252;
5256059072318190;-0.2652;-0.1505;-0.0667;
5256059082429128;-0.2855;-0.1057;-0.0838;
5256059092533763;-0.2322;-0.1931;-0.1434;
5256059102638346;-0.1268;-0.0429;-0.1594;
5256059112740378;-0.1438;-0.1132;-0.1711;
5256059122844961;-0.1204;-0.3582;-0.2350;
5256059132949596;-0.0788;-0.1057;-0.2563;
5256059143046628;-0.0490;0.0093;-0.2659;
5256059153151263;0.0511;-0.2421;-0.2851;
5256059163255846;0.0810;-0.2612;-0.3393;
5256059173345221;0.0490;-0.1675;-0.3425;
5256059183449857;0.0927;-0.0748;-0.3638;
5256059193554440;0.1598;-0.0045;-0.3585;
5256059203669544;0.1991;-0.1398;-0.3425;
5256059213774180;0.2417;-0.1153;-0.3181;
5256059223878763;0.2278;0.0668;-0.2904;
5256059233981211;0.1735;0.0168;-0.2691;
5256059244085846;0.1724;-0.0429;-0.2499;
5256059254190430;0.1598;0.0008;-0.2478;
5256059264297721;0.1395;0.0008;-0.2340;
5256059274402305;0.1332;0.0445;-0.2180;
5256059284506888;0.1023;0.0445;-0.1945;
5256059294616107;0.0831;0.0626;-0.1945;
5256059304720690;0.0778;0.0818;-0.1924;
5256059314825273;0.0447;0.0093;-0.2212;
5256059324930221;0.0298;-0.0354;-0.2350;
5256059335034805;0.0501;0.0423;-0.2457;
5256059345139388;0.0714;0.0466;-0.1935;
5256059355238503;0.0469;0.0402;-0.2425;
5256059365343086;0.0288;-0.0035;-0.2606;
5256059375447669;0.0032;-0.1036;-0.2563;
5256059385553815;0.0533;-0.1281;-0.2627;
5256059395658398;0.1023;0.0157;-0.2659;
5256059405762982;0.1746;0.0381;-0.2521;
5256059415869388;0.2385;-0.0418;-0.2425;
5256059425973971;0.3024;-0.0312;-0.2212;
5256059436078555;0.3035;0.0061;-0.1807;
5256059446175482;0.2811;-0.0194;-0.2105;
5256059456280065;0.2949;-0.0333;-0.1583;
5256059466384648;0.2811;-0.0184;-0.1487;
5256059476507669;0.3258;0.0338;-0.1221;
5256059486612253;0.2907;-0.0375;-0.0997;
5256059496716836;0.2342;-0.1036;-0.1178;
5256059506817878;0.2118;-0.0226;-0.0859;
5256059516922461;0.1916;0.0210;-0.0806;
5256059527027044;0.1980;-0.0375;-0.0624;
5256059537135898;0.1619;-0.0365;-0.0529;
5256059547240482;0.1459;-0.0205;-0.0433;
5256059557345065;0.1438;-0.0652;-0.0358;
5256059567442565;0.1385;-0.0226;-0.0369;
5256059577547148;0.1523;0.0711;-0.0390;
5256059587651732;0.1545;0.0626;-0.0379;
5256059597749232;0.1257;-0.0099;-0.0081;
5256059607853815;0.0980;-0.0322;-0.0166;
5256059617958398;0.1108;0.0072;-0.0124;
5256059628066003;0.1278;0.0072;-0.0411;
5256059638170586;0.1682;0.0754;-0.0241;
5256059648275169;0.1767;0.0828;-0.0145;
5256059658387305;0.1491;-0.0216;0.0206;
5256059668491888;0.1374;-0.0088;0.0153;
5256059678596471;0.1491;0.0583;0.0142;
5256059688689023;0.1619;0.0317;0.0260;
5256059698793607;0.1566;-0.0386;0.0185;
5256059708898190;0.1289;-0.0599;0.0164;
5256059719001315;0.1321;0.0029;0.0238;
5256059729105898;0.1417;0.0658;0.0206;
5256059739210534;0.1566;0.0178;0.0142;
5256059749314648;0.1640;0.0093;-0.0017;
5256059759419232;0.1609;0.0360;-0.0017;
5256059769523815;0.1406;-0.0557;-0.0007;
5256059779615951;0.1300;-0.1132;0.0260;
5256059789720534;0.1555;-0.0290;0.0174;
5256059799825117;0.1905;0.0956;0.0345;
5256059809950898;0.2023;0.0796;0.0473;
5256059820055482;0.2406;0.0104;0.0494;
5256059830160065;0.2896;0.1382;0.0696;
5256059840267565;0.2619;0.0945;0.0579;
5256059850372148;0.1831;-0.2644;0.0973;
5256059860476732;0.1044;-0.2772;0.1229;
5256059870574805;0.1097;-0.0802;0.0909;
5256059880679388;0.1545;-0.0695;0.0611;
5256059890783971;0.1427;-0.0929;0.0835;
5256059900933190;0.1587;0.0850;0.1080;
5256059911037773;0.2033;0.1691;0.1122;
5256059921142357;0.2055;-0.0099;0.0909;
5256059931204023;0.1577;-0.1238;0.1272;
5256059941308607;0.1023;-0.1366;0.1506;
5256059951413190;0.1118;-0.1313;0.1186;
5256059961553607;0.0969;-0.1611;0.1240;
5256059971658190;0.1140;-0.0770;0.0973;
5256059981762773;0.1651;0.2744;0.1218;
5256059991833190;0.1767;0.1968;0.1421;
5256060001937773;0.1523;-0.1047;0.1687;
5256060012042357;0.1459;0.1041;0.1602;
5256060022125065;0.1321;0.1744;0.2060;
5256060032229648;-0.0202;-0.2165;0.2113;
5256060042334232;-0.0234;-0.1718;0.2198;
5256060052444128;-0.0298;0.0647;0.1847;
5256060062548711;0.0053;0.0530;0.1847;
5256060072653294;0.0628;-0.0258;0.1687;
5256060082787878;0.0756;0.0583;0.2039;
5256060092892461;0.0756;0.1915;0.1943;
5256060102997044;0.0916;0.0924;0.1847;
5256060113093555;0.0714;-0.0141;0.2017;
5256060123198138;0.0607;0.0487;0.2124;
5256060133302721;0.0266;0.0104;0.2198;
5256060143390482;-0.0085;-0.0482;0.2060;
5256060153495065;-0.0096;0.0083;0.2017;
5256060163599648;-0.0320;-0.0471;0.2486;
5256060173714440;-0.0884;-0.1611;0.2252;
5256060183819023;-0.0788;-0.0855;0.2081;
5256060193923607;-0.0927;-0.0493;0.2060;
5256060204033086;-0.0746;-0.0365;0.2166;
5256060214137669;-0.0575;-0.0205;0.2188;
5256060224242253;-0.0905;-0.1132;0.1900;
5256060234347357;-0.0788;-0.1100;0.2039;
5256060244451940;-0.1001;-0.0375;0.1889;
5256060254556523;-0.1023;-0.0248;0.1868;
5256060264630482;-0.1023;-0.0397;0.1644;
5256060274735117;-0.0799;0.0136;0.1858;
5256060284839701;-0.0852;0.0370;0.1794;
5256060294979232;-0.0383;0.0402;0.1975;
5256060305083815;-0.0192;0.0455;0.2124;
5256060315188398;-0.0266;0.0370;0.2071;
5256060325285794;-0.0522;-0.0077;0.2039;
5256060335390378;-0.0724;-0.0333;0.2188;
5256060345494961;-0.1055;-0.0194;0.1943;
5256060355603086;-0.0980;0.0360;0.1698;
5256060365707669;-0.0607;0.0636;0.1868;
5256060375812253;-0.0511;0.0509;0.1996;
5256060385914336;-0.0778;0.0370;0.1900;
5256060396018919;-0.0948;0.0136;0.2028;
5256060406123503;-0.1300;-0.0333;0.2060;
5256060416232565;-0.1087;-0.0130;0.1921;
5256060426337148;-0.1491;-0.0684;0.1772;
5256060436441732;-0.1534;-0.1089;0.1772;
5256060446539961;-0.1619;-0.1142;0.1879;
5256060456644544;-0.1822;-0.1345;0.1740;
5256060466749180;-0.1736;-0.1121;0.1527;
5256060476862565;-0.1811;-0.0780;0.1442;
5256060486967148;-0.1342;-0.0493;0.1346;
5256060497071732;-0.1140;-0.0546;0.1389;
5256060507162773;-0.1289;-0.0525;0.1399;
5256060517267357;-0.1087;0.0668;0.1399;
5256060527371940;-0.0714;0.1393;0.1346;
5256060537484023;-0.0447;0.1350;0.1538;
5256060547588607;-0.0948;0.0892;0.1272;
5256060557693190;-0.0842;0.2190;0.1165;
5256060567798711;-0.0884;0.2064;0.1730;
5256060577903294;-0.1182;-0.0407;0.1463;
5256060588007878;-0.1257;-0.0024;0.1730;
5256060598114232;-0.1598;0.1201;0.1634;
5256060608218815;-0.2184;0.0626;0.1559;
5256060618323398;-0.2045;0.0061;0.1804;
5256060628432148;-0.2407;-0.0130;0.1666;
5256060638536732;-0.3015;-0.0130;0.1474;
5256060648641315;-0.3196;-0.0045;0.1059;
5256060658757669;-0.2834;-0.0152;0.0931;
5256060668862253;-0.2450;-0.0258;0.0750;
5256060678966836;-0.2397;0.0146;0.0771;
5256060689052357;-0.2663;-0.0109;0.0601;
5256060699156940;-0.2365;0.1095;0.0387;
5256060709261523;-0.2035;0.2361;0.0334;
5256060719366211;-0.1875;0.0125;0.0302;
5256060729470794;-0.1694;-0.0184;0.0494;
5256060739575378;-0.2205;0.0466;0.0622;
5256060749674648;-0.2578;0.0029;0.0547;
5256060759779232;-0.2610;-0.0312;0.0409;
5256060769883815;-0.2844;-0.0929;0.0569;
5256060779983398;-0.2780;-0.0418;0.0302;
5256060790087982;-0.2908;0.0786;0.0089;
5256060800192565;-0.3036;0.0328;0.0313;
5256060810295742;-0.2439;0.0115;-0.0518;
5256060820400326;-0.2248;0.1308;-0.0326;
5256060830504909;-0.2397;0.1052;-0.0326;
5256060840608294;-0.2194;-0.0130;-0.0326;
5256060850712878;-0.2599;-0.0450;-0.0220;
5256060860817461;-0.3686;-0.1079;-0.0539;
5256060870951523;-0.4080;-0.0439;-0.0806;
5256060881056107;-0.4686;0.0722;-0.1072;
5256060891160690;-0.4686;0.0349;-0.1402;
5256060901252565;-0.3845;0.0328;-0.1871;
5256060911357096;-0.3792;-0.0397;-0.2020;
5256060921461732;-0.4037;-0.1079;-0.2361;
5256060931554232;-0.4112;0.0519;-0.2904;
5256060941658815;-0.4197;0.1020;-0.3202;
5256060951763398;-0.2823;0.0594;-0.3298;
5256060961865378;-0.2386;0.0668;-0.3192;
5256060971969961;-0.2461;0.0381;-0.3414;
5256060982074544;-0.2152;0.0786;-0.3361;
5256060992183971;-0.2194;0.0700;-0.3414;
5256061002288555;-0.2375;-0.0620;-0.3670;
5256061012393138;-0.2194;-0.0216;-0.4000;
5256061022516003;-0.2194;0.0530;-0.4149;
5256061032620586;-0.1704;0.0434;-0.4330;
5256061042725169;-0.0650;0.1190;-0.4735;
5256061052827201;-0.0341;0.0967;-0.4714;
5256061062931784;-0.0586;-0.1345;-0.4277;
5256061073036367;-0.1044;-0.2229;-0.4596;
5256061083152669;-0.0064;0.0306;-0.4895;
5256061093257253;0.0905;0.2244;-0.4810;
5256061103361836;0.1937;0.1350;-0.4522;
5256061113443971;0.3770;0.0892;-0.4330;
5256061123548555;0.4462;0.1989;-0.4075;
5256061133653138;0.3450;0.0647;-0.3830;
5256061143753815;0.3418;-0.0365;-0.3627;
5256061153858398;0.4260;0.1105;-0.3531;
5256061163962982;0.5122;0.0818;-0.3425;
5256061174071107;0.5804;-0.0162;-0.2808;
5256061184175690;0.6252;0.0786;-0.2148;
5256061194280273;0.6092;0.2032;-0.1690;
5256061204382773;0.4611;-0.1846;-0.1125;
5256061214487357;0.3546;-0.2857;-0.0795;
5256061224591940;0.2811;-0.0663;-0.0593;
5256061234699440;0.1895;-0.0610;-0.0593;
5256061244804023;0.1438;-0.1494;-0.0507;
5256061254908607;0.1427;-0.0738;-0.0443;
5256061265012305;0.1385;0.0487;-0.0699;
5256061275117096;0.1491;0.0807;-0.0848;
5256061285221940;0.1703;0.0743;-0.0358;
5256061295326888;0.1672;0.1244;-0.0561;
5256061305431784;0.1820;0.2137;-0.0635;
5256061315536576;0.1842;0.2776;-0.0348;
5256061325640430;0.2012;0.2787;-0.0081;
5256061335745326;0.1662;0.3096;0.0121;
5256061345850117;0.1427;0.2925;0.0206;
5256061355952201;0.1257;0.1989;0.0217;
5256061366057044;0.1055;0.1329;0.0153;
5256061376161836;0.0586;0.1169;0.0441;
5256061386274805;-0.0149;0.0743;0.0356;
5256061396379648;-0.0714;-0.0088;0.0324;
5256061406484388;-0.1150;-0.0482;-0.0092;
5256061416580482;-0.1044;-0.0482;-0.0039;
5256061426685326;-0.1087;-0.0684;-0.0209;
5256061436790065;-0.0810;-0.0652;-0.0433;
5256061446893659;-0.0309;-0.0375;-0.0571;
5256061456998503;0.0032;-0.0674;-0.0795;
5256061467103294;0.0309;-0.1579;-0.1029;
5256061477218086;0.0842;-0.0706;-0.1072;
5256061487322930;0.1150;0.0242;-0.0667;
5256061497427669;0.0948;-0.1185;-0.0688;
5256061507521940;0.0714;-0.1824;-0.0593;
5256061517626784;0.0618;-0.2005;-0.0593;
5256061527731576;0.0682;-0.1984;-0.0688;
5256061537841836;0.0650;-0.1643;-0.0337;
5256061547946680;0.0778;-0.0439;-0.0284;
5256061558051471;0.0650;0.1116;-0.0561;
5256061568160169;0.0884;0.1318;-0.0742;
5256061578265013;0.1852;0.0786;-0.0614;
5256061588369753;0.2704;0.1212;-0.0710;
5256061598466628;0.2406;0.1180;-0.0571;
5256061608571419;0.1980;0.1222;-0.0316;
5256061618676263;0.1363;-0.0258;-0.0284;
5256061628781367;0.0948;-0.1366;-0.0081;
5256061638886211;0.0884;-0.1366;0.0036;
5256061648991055;0.0927;-0.1537;0.0249;
5256061659073815;0.0724;-0.0951;0.0345;
5256061669178659;-0.0075;-0.2889;0.0302;
5256061679283451;-0.0405;-0.3475;-0.0379;
5256061689407982;0.0128;-0.1409;-0.0976;
5256061699512826;0.0522;-0.1451;-0.1253;
5256061709617617;0.0873;-0.1782;-0.1328;
5256061719742669;0.1012;-0.1079;-0.1658;
5256061729847513;0.1534;-0.0226;-0.1605;
5256061739952253;0.2523;0.1563;-0.1189;
5256061750027305;0.3418;0.1031;-0.0848;
5256061760132148;0.4558;0.1201;-0.0326;
5256061770236940;0.4483;0.2989;0.0419;
5256061780366367;0.3333;0.1840;0.0398;
5256061790471211;0.2896;0.0253;0.0419;
5256061800576003;0.1842;0.0232;0.0419;
5256061810661315;0.1374;0.0605;0.0462;
5256061820766107;0.1438;0.0924;0.0324;
5256061830870951;0.1651;0.0498;0.0249;
5256061840982669;0.1459;-0.0077;0.0206;
5256061851087513;0.1363;-0.0173;0.0526;
5256061861192253;0.1300;-0.0322;0.0686;
5256061871316055;0.0842;-0.0546;0.0728;
5256061881420898;0.0607;-0.1047;0.0430;
5256061891525690;0.0202;-0.2272;0.0196;
5256061901601576;0.0660;-0.1462;-0.0071;
5256061911706419;0.1012;-0.0301;-0.0209;
5256061921811211;0.1449;-0.0812;-0.0081;
5256061931946159;0.1502;-0.1004;-0.0028;
5256061942051003;0.1438;-0.1196;-0.0060;
5256061952155794;0.1662;-0.1238;0.0228;
5256061962222513;0.1395;-0.1398;0.0473;
5256061972327357;0.1374;-0.1483;0.0494;
5256061982432148;0.0778;-0.2964;0.1091;
5256061992553294;0.0767;-0.2623;0.1527;
5256062002658138;0.0703;0.2286;0.0888;
5256062012762878;-0.1065;0.5620;0.0398;
5256062022894232;0.4632;0.4917;0.0430;
5256062032999076;0.7029;0.4438;0.0952;
5256062043103919;0.4302;0.4236;0.1336;
5256062053191784;0.2459;0.4481;0.1389;
5256062063296628;0.1852;0.4310;0.2092;
5256062073401471;0.2065;0.4012;0.2518;
5256062083486471;0.1884;0.4182;0.2550;
5256062093591315;0.2055;0.5248;0.2857;
5256062103696107;0.1417;0.4683;0.3294;
5256062113788815;-0.1651;-0.2794;0.3795;
5256062123893659;-0.4803;-0.6808;0.3017;
5256062133998398;-0.6752;-0.3869;0.2252;
5256062144118555;-0.8265;-0.2623;0.1154;
5256062154223346;-0.7679;-0.3869;0.0366;
5256062164328138;-0.5229;-0.2261;-0.0177;
5256062174431419;-0.2770;0.0242;-0.0593;
5256062184536263;-0.0916;-0.0269;-0.0848;
5256062194641055;-0.0756;-0.2996;-0.0603;
5256062204741680;-0.1246;-0.4220;-0.0699;
5256062214846576;-0.0628;-0.1931;-0.0624;
5256062224951367;-0.1395;-0.2953;0.0164;
5256062235067044;-0.0021;-0.0333;0.0153;
5256062245171888;0.1023;0.7080;-0.0273;
5256062255276680;0.1884;0.5407;-0.0103;
5256062265351055;0.6401;0.1659;0.0334;
5256062275455898;0.5304;0.1606;0.1410;
5256062285560690;0.1023;-0.0695;0.2049;
5256062295696003;-0.0394;-0.1174;0.2071;
5256062305800846;-0.0064;0.0146;0.1858;
5256062315905638;0.0383;0.0903;0.1826;
5256062326006523;0.0650;0.1382;0.2188;
5256062336111315;0.1406;0.3479;0.2401;
5256062346216159;0.0565;0.2075;0.2667;
5256062356310742;-0.2834;-0.6606;0.2401;
5256062366415638;-0.3590;-0.6031;0.1740;
5256062376520430;-0.4410;-0.1441;0.0760;
5256062386639336;-0.5357;-0.0961;0.0334;
5256062396744180;-0.4473;-0.1590;0.0249;
5256062406848971;-0.2301;-0.0855;-0.0497;
5256062416944909;-0.0415;0.2075;-0.0912;
5256062427049753;-0.0266;0.2925;-0.0710;
5256062437154544;0.0533;0.1116;-0.0145;
5256062447256315;0.1895;0.2043;0.0036;
5256062457361159;0.1204;0.1318;0.0356;
5256062467465951;0.0107;-0.0908;0.0483;
5256062477582253;0.0479;-0.0333;0.0877;
5256062487687096;-0.0511;-0.0301;0.0579;
5256062497791836;-0.0554;-0.1036;0.0292;
5256062507886055;0.0138;0.1126;0.0547;
5256062517990846;-0.0266;0.1521;0.0505;
5256062528095690;-0.0213;0.0306;-0.0156;
5256062538198503;0.0064;0.1095;-0.0273;
5256062548303346;-0.0394;0.0903;-0.0454;
5256062558408138;-0.0362;-0.0993;-0.0593;
5256062568514336;-0.0075;-0.0248;-0.0816;
5256062578619128;0.0107;0.0583;-0.1125;
5256062588723971;-0.0000;-0.0855;-0.1115;
5256062598827148;-0.0053;0.0115;-0.0880;
5256062608931940;0.0256;0.1190;-0.0869;
5256062619036784;0.0373;-0.0120;-0.0955;
5256062629141628;0.0511;-0.0652;-0.1232;
5256062639246419;0.0714;-0.0056;-0.1168;
5256062649351263;0.1118;0.0051;-0.1083;
5256062659459909;0.1756;-0.0162;-0.1115;
5256062669564753;0.2246;-0.0258;-0.1051;
5256062679669596;0.2342;-0.0525;-0.0880;
5256062689762513;0.2459;-0.0333;-0.0624;
5256062699867357;0.2172;0.0136;-0.0337;
5256062709972148;0.1969;-0.0045;0.0196;
5256062720101628;0.1619;-0.0802;0.0398;
5256062730206471;0.1278;-0.0972;0.0558;
5256062740311263;0.0778;-0.0301;0.0260;
5256062750385326;0.0714;-0.0290;0.0409;
5256062760490221;0.0714;-0.0993;0.0356;
5256062770595013;0.0618;-0.0407;0.0249;
5256062780723867;0.0959;0.0722;0.0196;
5256062790828659;0.0767;-0.0216;0.0569;
5256062800933503;0.0565;-0.0834;0.0643;
5256062811023086;0.0660;0.0732;0.0920;
5256062821127930;0.0650;0.1158;0.1080;
5256062831232669;0.0948;0.0818;0.0941;
5256062841385742;0.1012;0.1201;0.1059;
5256062851490586;0.0735;0.0999;0.1346;
5256062861595378;0.0618;0.0306;0.1538;
5256062871643555;0.0639;0.0636;0.1538;
5256062881748398;0.0511;0.0178;0.1463;
5256062891853190;0.0447;-0.0727;0.1708;
5256062901977513;0.0298;-0.1430;0.1794;
5256062912082357;-0.0011;-0.1835;0.1921;
5256062922187201;-0.1236;-0.3816;0.2017;
5256062932288034;-0.1917;-0.3177;0.2326;
5256062942392878;-0.2503;0.1904;0.1314;
5256062952497669;-0.4272;0.3778;0.0760;
5256062962594336;-0.1374;0.0903;0.0569;
5256062972699180;0.1672;-0.0748;0.0835;
5256062982803919;0.0575;-0.0045;0.0846;
5256062992911315;-0.0575;0.0253;0.0973;
5256063003016159;-0.0277;-0.0035;0.0909;
5256063013120898;-0.0043;0.0668;0.1154;
5256063023212826;-0.0202;0.1169;0.1421;
5256063033317721;0.0288;0.2595;0.1581;
5256063043422513;-0.0703;0.0658;0.1751;
5256063053534961;-0.2120;-0.4571;0.1367;
5256063063639805;-0.1715;-0.3880;0.0782;
5256063073744596;-0.2067;-0.1036;0.0398;
5256063083840951;-0.2194;-0.0333;0.0153;
5256063093945846;-0.1598;-0.1473;-0.0017;
5256063104050638;-0.0373;-0.1121;-0.0252;
5256063114152357;-0.0277;0.1148;-0.0305;
5256063124257201;-0.0543;-0.0216;0.0047;
5256063134361992;-0.0085;-0.1846;-0.0220;
5256063144476003;0.0234;0.0200;-0.0209;
5256063154580794;-0.0501;0.0668;-0.0326;
5256063164685638;-0.0341;0.0498;-0.0433;
5256063174789336;0.0085;0.1755;-0.0433;
5256063184894180;-0.0138;0.1883;-0.0465;
5256063194998971;0.0320;0.0871;-0.0763;
5256063205116263;0.1055;0.0722;-0.0475;
5256063215221107;0.0895;0.1265;-0.0401;
5256063225325951;0.0607;0.1595;-0.0401;
5256063235418919;0.0778;0.1670;-0.0465;
5256063245523711;0.1044;0.1105;-0.0316;
5256063255628555;0.0714;0.0647;-0.0443;
5256063265722982;0.0256;0.0498;-0.0220;
5256063275827826;-0.0043;-0.0407;-0.0348;
5256063285932617;0.0096;-0.0802;-0.0571;
5256063296045482;-0.0075;-0.1260;-0.0774;
5256063306150326;0.0011;-0.2154;-0.0720;
5256063316255117;-0.0085;-0.1931;-0.0838;
5256063326361836;-0.0075;-0.2357;-0.0923;
5256063336466680;0.0160;-0.2996;-0.1125;
5256063346571471;0.0511;-0.1760;-0.0976;
5256063356669388;0.0607;-0.0557;-0.1029;
5256063366774232;0.1001;-0.1025;-0.0880;
5256063376879076;0.1767;-0.1856;-0.0678;
5256063386987982;0.1310;-0.3209;-0.0774;
5256063397092826;-0.0085;-0.2144;-0.0358;
5256063407197617;0.0053;0.2968;-0.0656;
5256063417305065;-0.0352;0.5216;-0.0614;
5256063427409909;0.2534;0.3032;-0.0465;
5256063437514701;0.6070;0.2106;-0.0092;
5256063447618138;0.5857;0.2595;0.0590;
5256063457722982;0.3620;0.2053;0.1069;
5256063467827773;0.2395;0.0711;0.1208;
5256063477932773;0.2278;0.1063;0.1336;
5256063488037617;0.1756;0.1893;0.1623;
5256063498142409;0.1662;0.3213;0.1900;
5256063508242044;0.0650;0.0200;0.2156;
5256063518346888;-0.1342;-0.5839;0.1751;
5256063528451680;-0.2620;-0.4592;0.1495;
5256063538552982;-0.4750;-0.2346;0.0526;
5256063548657826;-0.5090;-0.2410;0.0174;
5256063558762617;-0.3569;-0.1675;-0.0369;
5256063568875065;-0.2610;0.0136;-0.1019;
5256063578979857;-0.2386;0.2201;-0.1125;
5256063589084648;-0.0075;0.1840;-0.1029;
5256063599183711;0.2385;0.0626;-0.0869;
5256063609288555;0.3067;0.0903;0.0079;
5256063619393294;0.2385;0.0306;0.0718;
5256063629499544;0.1735;-0.1132;0.1197;
5256063639604336;0.0991;-0.0280;0.1069;
5256063649709128;0.0160;0.0253;0.0920;
5256063659790690;0.0149;0.0072;0.0664;
5256063669895482;0.0160;0.0328;0.0590;
5256063680000326;0.0043;0.0530;0.0707;
5256063690113763;0.0160;0.0658;0.0345;
5256063700218607;0.0490;0.0743;0.0451;
5256063710323451;0.0075;-0.1249;0.0334;
5256063720447669;-0.0149;-0.1547;0.0611;
5256063730552513;-0.0501;-0.0546;0.0590;
5256063740657305;-0.0639;-0.0706;0.0569;
5256063750771315;-0.0852;0.0178;0.0142;
5256063760876107;-0.0831;0.2350;-0.0177;
5256063770980951;0.0245;0.3011;0.0153;
5256063781086836;0.1863;0.2075;0.0366;
5256063791191680;0.1948;0.1180;0.0036;
5256063801296419;0.1278;-0.0748;0.0153;
5256063811397826;0.1076;-0.1824;0.0398;
5256063821502669;0.0373;-0.1398;0.0611;
5256063831607461;-0.0000;-0.2027;0.0973;
5256063841705794;0.0192;-0.3188;0.0846;
5256063851810638;0.0160;-0.2889;0.0984;
5256063861915430;-0.1065;-0.4401;0.0973;
5256063872048711;-0.2663;-0.7128;0.1133;
5256063882153503;-0.3430;-0.4752;0.0547;
5256063892258294;-0.4027;0.0594;-0.0720;
5256063902334076;-0.7232;0.2414;-0.1668;
5256063912438919;-0.3579;0.1052;-0.1658;
5256063922543763;0.1873;0.0413;-0.1477;
5256063932647513;0.1682;0.0477;-0.1178;
5256063942752357;0.0799;0.2755;-0.1051;
5256063952857148;0.0980;0.5823;-0.0656;
5256063962947148;0.3738;0.6121;-0.0401;
5256063973051992;0.5921;0.6451;-0.0060;
5256063983156784;0.4771;0.8113;0.0856;
5256063993248034;0.1118;0.1169;0.1101;
5256064003352930;-0.0383;-0.4166;0.0728;
5256064013457721;-0.0682;-0.1483;0.0366;
5256064023581836;-0.2024;-0.0205;0.0111;
5256064033686680;-0.3398;-0.1931;-0.0145;
5256064043791471;-0.2525;-0.1270;-0.0294;
5256064053895378;-0.1832;0.0892;-0.0838;
5256064064000221;-0.1992;0.0413;-0.1200;
5256064074104961;-0.1822;-0.1366;-0.1146;
5256064084208190;-0.1055;-0.1505;-0.1264;
5256064094312982;-0.0479;-0.0461;-0.1551;
5256064104417773;-0.0447;-0.0823;-0.1264;
5256064114520430;-0.0149;0.0189;-0.1189;
5256064124625273;0.0085;0.1041;-0.1051;
5256064134730065;-0.0117;-0.1377;-0.1115;
5256064144832201;0.1289;-0.1441;-0.0593;
5256064154937044;0.1609;-0.1366;-0.0103;
5256064165041888;0.0458;-0.4816;0.0377;
5256064175144648;-0.0447;-0.4891;0.0377;
5256064185249492;-0.0234;0.2776;-0.0433;
5256064195354232;-0.2844;0.6015;-0.0997;
5256064205472409;0.1087;0.2425;-0.0614;
5256064215577253;0.4611;0.1201;-0.0401;
5256064225682096;0.1969;0.0754;0.0217;
5256064235777878;0.0256;0.1371;0.0068;
5256064245882669;0.0863;0.3170;0.0036;
5256064255987513;0.1225;0.3746;0.0441;
5256064266092982;0.1842;0.4672;0.0824;
5256064276197773;0.2236;0.5791;0.1421;
5256064286302513;0.0192;0.1553;0.1708;
5256064296406523;-0.1715;-0.6009;0.1634;
5256064306511315;-0.1513;-0.3869;0.0803;
5256064316616055;-0.2162;-0.0226;0.0409;
5256064326726836;-0.4218;-0.2240;0.0068;
5256064336831628;-0.3185;-0.2325;-0.0688;
5256064346936367;-0.0852;0.0338;-0.0731;
5256064357026419;0.0053;0.1723;-0.0838;
5256064367131211;-0.0021;-0.0269;-0.0880;
5256064377235951;0.0213;-0.1696;-0.0582;
5256064387344805;0.0256;-0.0194;-0.0284;
5256064397449596;-0.0138;-0.0493;-0.0103;
5256064407554284;-0.0511;-0.2229;0.0100;
5256064417651523;-0.0778;-0.1164;0.0228;
5256064427756263;-0.0948;-0.0684;0.0217;
5256064437861055;-0.0554;-0.0162;-0.0103;
5256064447973711;-0.0117;0.2222;-0.0092;
5256064458078503;0.0011;0.2435;-0.0113;
5256064468183242;0.0341;0.0029;-0.0017;
5256064478281159;0.1385;0.0381;0.0196;
5256064488385951;0.1374;0.1350;0.0473;
5256064498490690;0.0277;0.0562;0.0377;
5256064508603294;0.0415;0.0999;0.0462;
5256064518708086;0.0373;0.1435;0.0814;
5256064528812826;-0.0224;0.0146;0.0824;
5256064538925586;-0.0011;0.0178;0.0941;
5256064549030378;-0.0277;-0.0003;0.0888;
5256064559135117;-0.0352;-0.0706;0.0569;
5256064569232669;-0.0426;-0.0056;0.0281;
5256064579337409;-0.0213;0.0647;0.0601;
5256064589442201;0.0064;0.1276;0.0537;
5256064599539544;0.0128;0.0775;0.0451;
5256064609644336;-0.0202;-0.0599;0.0718;
5256064619749076;-0.0394;-0.1515;0.0792;
5256064629861523;-0.0660;-0.2069;0.1016;
5256064639966315;-0.0714;-0.1505;0.1005;
5256064650071055;-0.1076;-0.1068;0.1325;
5256064660167773;-0.0831;-0.1089;0.1687;
5256064670272513;-0.0458;-0.0099;0.1634;
5256064680377305;-0.0991;0.0455;0.1272;
5256064690476628;-0.0948;-0.0397;0.1261;
5256064700581419;-0.0788;-0.0684;0.1069;
5256064710686159;-0.0831;0.0136;0.1154;
5256064720836836;-0.0778;0.0466;0.1538;
5256064730941576;-0.0639;0.0072;0.1549;
5256064741046367;-0.0490;-0.0248;0.2071;
5256064751091263;-0.0415;0.0221;0.1985;
5256064761196003;-0.0639;0.1435;0.2188;
5256064771300794;-0.1406;0.1190;0.1985;
5256064781438607;-0.1545;0.0402;0.1953;
5256064791543346;-0.1193;0.0061;0.1815;
5256064801648138;-0.1023;0.0924;0.1570;
5256064811737721;-0.1363;0.1031;0.1740;
5256064821842513;-0.1353;0.0061;0.1666;
5256064831947305;-0.1161;0.0157;0.1431;
5256064842071628;-0.1001;0.1041;0.1314;
5256064852176419;-0.1087;0.1116;0.1612;
5256064862281159;-0.1278;0.0818;0.1783;
5256064872368919;-0.1640;0.0317;0.1602;
5256064882473711;-0.1971;-0.0312;0.1495;
5256064892578451;-0.2173;-0.0866;0.1410;
5256064902694232;-0.2578;-0.0897;0.1154;
5256064912799023;-0.3132;-0.0919;0.1059;
5256064922903763;-0.3419;-0.1196;0.0899;
5256064932987044;-0.3515;-0.1121;0.0398;
5256064943091836;-0.3526;0.0083;-0.0017;
5256064953196576;-0.3387;0.1297;0.0025;
5256064963303294;-0.2120;0.1776;0.0345;
5256064973408086;-0.1161;0.0008;0.0121;
5256064983512826;-0.1385;-0.0610;0.0057;
5256064993625794;-0.1609;-0.0024;0.0281;
5256065003730586;-0.1939;-0.0674;-0.0028;
5256065013835326;-0.2205;-0.1494;0.0004;
5256065023945169;-0.2589;-0.1686;-0.0273;
5256065034049961;-0.2887;-0.1036;-0.0379;
5256065044154701;-0.3494;-0.0141;-0.0688;
5256065054251055;-0.3750;-0.0077;-0.0891;
5256065064355846;-0.2620;-0.0322;-0.1136;
5256065074460586;-0.1768;-0.0035;-0.1349;
5256065084562565;-0.1587;0.0945;-0.1391;
5256065094667357;-0.1012;0.0647;-0.1498;
5256065104772096;0.0011;0.0583;-0.1594;
5256065114897565;-0.0170;0.1190;-0.1391;
5256065125002357;-0.0948;0.0083;-0.1157;
5256065135107096;-0.1193;-0.1142;-0.1029;
5256065145191471;-0.1545;-0.0972;-0.1445;
5256065155296263;-0.1289;-0.0013;-0.1519;
5256065165401003;-0.1449;-0.0514;-0.1360;
5256065175510638;-0.1300;-0.1537;-0.2105;
5256065185615430;-0.1374;-0.0290;-0.2254;
5256065195720169;-0.1193;0.0828;-0.2489;
5256065205833815;-0.0309;0.0935;-0.2744;
5256065215938607;0.0660;0.0839;-0.2414;
5256065226043346;0.0533;-0.0429;-0.2212;
5256065236145690;0.0352;-0.0855;-0.2116;
5256065246250482;-0.0075;0.0274;-0.2190;
5256065256355221;-0.0522;0.0850;-0.2105;
5256065266453711;-0.0575;-0.0088;-0.2020;
5256065276558398;-0.0501;-0.0887;-0.2148;
5256065286663086;-0.0437;-0.0450;-0.2137;
5256065296762044;-0.0863;-0.0652;-0.2542;
5256065306866732;-0.0959;-0.0322;-0.2840;
5256065316971419;-0.0628;0.0530;-0.2702;
5256065327074336;-0.0511;0.0189;-0.2691;
5256065337179023;0.0064;0.0924;-0.2563;
5256065347283711;0.0053;0.1457;-0.2616;
5256065357390586;-0.0234;0.0317;-0.2521;
5256065367495273;-0.0138;0.0157;-0.2478;
5256065377599961;-0.0192;0.0573;-0.2659;
5256065387711055;-0.0256;0.0690;-0.2489;
5256065397815742;-0.0543;-0.0482;-0.2542;
5256065407920430;-0.0607;-0.1324;-0.2638;
5256065418014544;-0.0714;-0.1643;-0.2861;
5256065428119232;-0.0724;-0.2943;-0.2989;
5256065438223919;-0.0714;-0.2857;-0.3011;
5256065448329023;-0.0320;-0.1345;-0.3096;
5256065458433711;-0.0096;-0.0663;-0.3234;
5256065468538398;-0.0202;-0.0940;-0.3574;
5256065478645169;0.0320;-0.0823;-0.3755;
5256065488749857;0.1502;0.0487;-0.3734;
5256065498854544;0.2321;0.0423;-0.3851;
5256065508958711;0.3056;0.0828;-0.3819;
5256065519063398;0.3493;0.1659;-0.3510;
5256065529168086;0.3397;0.0818;-0.3298;
5256065539253919;0.3780;0.0881;-0.3011;
5256065549358607;0.4537;0.2180;-0.2393;
5256065559463294;0.4515;0.1382;-0.2063;
5256065569584336;0.4164;-0.0269;-0.1594;
5256065579689023;0.4345;0.0125;-0.0965;
5256065589793711;0.4728;0.1190;-0.0923;
5256065599899961;0.4430;0.0743;-0.0997;
5256065610004648;0.3322;-0.1100;-0.0646;
5256065620109336;0.2907;-0.1164;-0.0859;
5256065630209544;0.3407;0.0903;-0.0933;
5256065640314232;0.3684;0.1957;-0.0710;
5256065650418919;0.3865;0.0956;-0.0348;
5256065660550534;0.4164;0.1776;0.0281;
5256065670655169;0.3652;0.2222;0.0281;
5256065680759857;0.3237;0.1435;0.0249;
5256065690855794;0.2694;0.0583;0.0877;
5256065700960482;0.2033;-0.1334;0.1304;
5256065711065169;0.1852;-0.1345;0.1346;
5256065721177357;0.2023;0.0019;0.1644;
5256065731281992;0.1714;-0.0887;0.1921;
5256065741386732;0.1374;-0.1505;0.1826;
5256065751531003;0.1363;-0.0887;0.2039;
5256065761635690;0.0554;-0.0024;0.1549;
5256065771740378;-0.0735;-0.4220;0.2049;
5256065781785690;-0.1278;-0.4007;0.1762;
5256065791890378;-0.1907;0.1148;0.1154;
5256065801995065;-0.4389;0.2553;0.0302;
5256065812094232;-0.0724;0.0690;0.0228;
5256065822198919;0.1342;-0.0716;0.0686;
5256065832303607;0.0288;0.0328;0.0899;
5256065842427461;-0.0075;0.1265;0.0611;
5256065852532148;-0.0075;0.2712;0.0696;
5256065862636836;0.0895;0.3501;0.1091;
5256065872740065;0.1513;0.1989;0.1293;
5256065882844753;0.1044;0.1521;0.1463;
5256065892949440;-0.0202;-0.2421;0.1826;
5256065903058607;-0.0479;-0.4028;0.1538;
5256065913163294;-0.0533;-0.1984;0.1133;
5256065923267982;-0.0628;-0.0823;0.1165;
5256065933348190;-0.0415;-0.0940;0.1176;
5256065943452878;0.0341;-0.0823;0.1091;
5256065953557565;0.0096;-0.0120;0.0899;
5256065963668607;-0.0394;-0.1206;0.0718;
5256065973773294;0.0149;-0.1483;0.0387;
5256065983877982;0.0714;-0.0226;0.0483;
5256065993976107;0.0565;0.0562;0.0782;
5256066004080794;0.0639;-0.0248;0.0824;
5256066014185482;0.0160;-0.0386;0.0750;
5256066024296003;0.0352;0.0977;0.0803;
5256066034400690;0.0799;0.2510;0.1016;
5256066044505378;0.0927;0.0754;0.1218;
5256066054613919;0.0437;-0.1931;0.1602;
5256066064718607;0.0714;-0.0652;0.1975;
5256066074823294;-0.0043;-0.0684;0.1666;
5256066084929336;0.0107;-0.1952;0.1442;
5256066095034023;-0.0107;-0.1718;0.1751;
5256066105138711;-0.0224;-0.1324;0.1655;
5256066115233607;0.0107;0.0072;0.1868;
5256066125338294;-0.0842;-0.1398;0.2017;
5256066135442982;-0.1427;-0.2847;0.1783;
5256066145553711;-0.1108;0.0487;0.1538;
5256066155658398;-0.2684;0.1606;0.1421;
5256066165763086;-0.2269;0.1361;0.1261;
5256066175861055;0.0043;0.1414;0.0782;
5256066185965742;0.0288;0.1499;0.0718;
5256066196070430;0.0234;0.2766;0.1165;
5256066206189648;0.0341;0.3096;0.1282;
5256066216294336;-0.0000;0.1691;0.1655;
5256066226399023;-0.0266;0.1063;0.1804;
5256066236501940;-0.0224;0.1308;0.2113;
5256066246606628;-0.0277;0.0562;0.2379;
5256066256711315;-0.0724;-0.1089;0.2284;
5256066266815169;-0.0778;-0.1036;0.2145;
5256066276919857;-0.1044;-0.0365;0.2071;
5256066287024492;-0.1129;-0.0141;0.1932;
5256066297121732;-0.1097;0.0434;0.1879;
5256066307226419;-0.0895;0.1201;0.1708;
5256066317331055;-0.0362;0.1840;0.1740;
5256066327441211;-0.0415;0.2340;0.2071;
5256066337545898;-0.0213;0.2393;0.2103;
5256066347650534;-0.0266;0.3149;0.2166;
5256066357742721;-0.0298;0.2553;0.2731;
5256066367847409;-0.0703;0.0232;0.2762;
5256066377952044;-0.0895;-0.0354;0.2614;
5256066388065169;-0.1683;0.0668;0.2603;
5256066398169857;-0.2961;0.0935;0.2571;
5256066408274492;-0.3515;0.0828;0.2433;
5256066418362305;-0.3377;0.0434;0.2156;
5256066428466992;-0.2855;0.0498;0.2092;
5256066438571628;-0.3079;-0.0056;0.2007;
5256066448687044;-0.3110;-0.0578;0.1581;
5256066458791680;-0.3579;0.0253;0.1112;
5256066468896367;-0.3952;0.1808;0.1027;
5256066479010221;-0.2823;0.3021;0.0569;
5256066489114909;-0.1108;0.2329;0.0473;
5256066499219544;-0.1289;0.1286;0.0526;
5256066509308190;-0.1981;0.0455;0.0217;
5256066519412878;-0.2120;-0.1079;-0.0049;
5256066529517513;-0.2280;-0.1398;-0.0103;
5256066539615169;-0.3121;0.0253;-0.0752;
5256066549719857;-0.3984;0.1936;-0.0742;
5256066559824492;-0.2258;0.1521;-0.0710;
5256066569939753;-0.0107;-0.0045;-0.1296;
5256066580044388;-0.0256;-0.1079;-0.1328;
5256066590149076;-0.0937;-0.1718;-0.1360;
5256066600254128;-0.1417;-0.1345;-0.1498;
5256066610358815;-0.1619;-0.0663;-0.1636;
5256066620463451;-0.1140;-0.0993;-0.1381;
5256066630557565;-0.1395;-0.1718;-0.1636;
5256066640662201;-0.1577;-0.0535;-0.1754;
5256066650766888;-0.2354;-0.0791;-0.1818;
5256066660969284;-0.1534;-0.1345;-0.2308;
5256066671073919;-0.0873;-0.0439;-0.2616;
5256066681178607;-0.1097;-0.0674;-0.2766;
5256066691196211;-0.0490;-0.0344;-0.2702;
5256066701300846;-0.0767;0.0338;-0.2957;
5256066711405534;-0.0799;0.0360;-0.3085;
5256066721563086;-0.0394;0.0146;-0.3053;
5256066731667773;-0.0170;0.0317;-0.2979;
5256066741772409;-0.0085;0.2254;-0.2744;
5256066751821003;-0.0703;-0.0887;-0.2819;
5256066761925690;-0.0714;-0.2730;-0.3266;
5256066772030326;-0.0831;-0.0823;-0.3320;
5256066782155690;-0.0884;-0.0535;-0.3680;
5256066792260378;-0.0682;-0.1590;-0.3691;
5256066802365013;-0.0937;-0.1302;-0.4011;
5256066812445898;-0.0863;0.0487;-0.4213;
5256066822550586;-0.0202;0.1968;-0.4106;
5256066832655221;0.1278;0.0605;-0.4138;
5256066842778451;0.3290;0.0274;-0.4224;
5256066852883138;0.3386;0.0391;-0.3744;
5256066862987773;0.2949;-0.0684;-0.3616;
5256066873093398;0.3620;0.0019;-0.3521;
5256066883198086;0.3567;0.0115;-0.3298;
5256066893302721;0.3865;-0.0972;-0.2787;
5256066903406628;0.4483;-0.0099;-0.2393;
5256066913511315;0.3791;-0.0013;-0.2276;
5256066923615951;0.3109;-0.1526;-0.2190;
5256066933706732;0.3152;-0.1686;-0.2116;
5256066943811419;0.2640;-0.2144;-0.1892;
5256066953916055;0.2193;-0.3081;-0.1775;
5256066964017253;0.2118;-0.2091;-0.1381;
5256066974121940;0.1767;-0.1132;-0.1466;
5256066984226576;0.1662;-0.0620;-0.1786;
5256066994339648;0.1831;0.1563;-0.1690;
5256067004444336;0.2608;0.2563;-0.1391;
5256067014548971;0.3983;0.0296;-0.1370;
5256067024652773;0.5261;-0.0535;-0.0944;
5256067034757461;0.3940;-0.0248;-0.0486;
5256067044862096;0.2640;-0.0035;-0.0134;
5256067054969648;0.3013;-0.0194;-0.0028;
5256067065074336;0.2193;-0.3326;-0.0294;
5256067075178971;0.1118;-0.6052;0.0302;
5256067085284336;0.1321;-0.4209;0.1208;
5256067095389023;-0.1470;0.3660;0.0441;
5256067105493659;-0.8297;0.6643;-0.1125;
5256067115591471;0.1140;0.2798;-0.2382;
5256067125696159;0.6933;-0.0993;-0.1871;
5256067135800794;0.4643;-0.0961;-0.0976;
5256067145912565;0.0948;0.1126;-0.0678;
5256067156017253;0.0767;0.1265;-0.1115;
5256067166121888;0.2427;0.3565;-0.1434;
5256067176218971;0.3748;1.0061;-0.1104;
5256067186323659;0.6411;0.6973;-0.0422;
5256067196428294;0.8764;-0.2996;0.1314;
5256067206544232;0.2672;-1.0205;0.1868;
5256067216648919;-0.2290;-0.5945;0.1059;
5256067226753555;-0.1406;0.0562;-0.0273;
5256067236849961;-0.1129;-0.0535;-0.0486;
5256067246954648;-0.0586;-0.1494;-0.0571;
5256067257059284;0.1545;0.1648;-0.0933;
5256067267169961;0.1523;0.1659;-0.0784;
5256067277274596;0.2790;-0.0897;-0.0688;
5256067287379180;0.3365;0.0605;-0.0348;
5256067297474128;0.3748;0.3522;0.0377;
5256067307578763;0.5112;0.1276;0.0696;
5256067317683346;0.5985;0.0445;0.1091;
5256067327789753;0.4856;0.2787;0.1229;
5256067337894388;0.3461;0.0839;0.1858;
5256067347998971;0.3205;-0.1111;0.2326;
5256067358094961;0.2619;0.0860;0.2497;
5256067368199596;0.2395;0.2043;0.2379;
5256067378304180;0.2310;0.0487;0.2369;
5256067388418919;0.1937;-0.1079;0.2879;
5256067398523555;0.1118;-0.1025;0.2953;
5256067408628138;-0.0213;-0.1036;0.2751;
5256067418757461;-0.1268;-0.0695;0.2401;
5256067428862096;-0.1651;0.0232;0.2124;
5256067438966680;-0.1044;0.0530;0.1985;
5256067449050638;0.0075;0.0232;0.2092;
5256067459155273;0.0618;-0.0344;0.2198;
5256067469259857;0.0437;-0.0290;0.2390;
5256067479362044;0.0224;-0.0280;0.2081;
5256067489466680;0.0607;0.0349;0.1921;
5256067499571263;0.0756;0.0775;0.2475;
5256067509673294;0.0746;0.0445;0.2593;
5256067519777930;0.0650;0.0466;0.2518;
5256067529882513;0.0149;-0.0269;0.2401;
5256067539977773;0.0213;-0.0557;0.2720;
5256067550082409;0.0192;0.0743;0.2593;
5256067560186992;0.0021;0.0519;0.2772;
5256067570286940;0.0011;-0.0557;0.2740;
5256067580391576;0.0245;-0.1025;0.2836;
5256067590496159;0.0107;-0.0386;0.3124;
5256067600604388;-0.0437;-0.0450;0.3188;
5256067610708971;-0.0767;-0.0759;0.2932;
5256067620813607;-0.0735;0.0146;0.2614;
5256067630920326;-0.1023;0.0253;0.2996;
5256067641024961;-0.1140;0.0125;0.2985;
5256067651129544;-0.1342;0.0754;0.2857;
5256067661249076;-0.1385;0.1286;0.2975;
5256067671353763;-0.0298;0.1073;0.2953;
5256067681458346;0.0128;0.0999;0.2731;
5256067691550951;-0.0330;0.1222;0.2943;
5256067701655586;-0.0383;0.0178;0.3305;
5256067711760169;-0.0522;-0.1004;0.3145;
5256067721879232;-0.0927;-0.2463;0.3252;
5256067731983867;-0.1321;-0.2261;0.3859;
5256067742088451;-0.2333;-0.0450;0.3731;
5256067752208398;-0.4483;0.0242;0.3071;
5256067762313034;-0.5005;0.0115;0.2836;
5256067772417617;-0.3526;-0.1387;0.2603;
5256067782514023;-0.2365;-0.1792;0.2337;
5256067792618659;-0.2599;-0.0386;0.2379;
5256067802723242;-0.3707;-0.1047;0.2060;
5256067812807305;-0.3089;-0.0407;0.1644;
5256067822911940;-0.3281;0.2021;0.1858;
5256067833016523;-0.3547;0.4289;0.1943;
5256067843118815;-0.1672;0.1585;0.2177;
5256067853223451;-0.1885;-0.1814;0.1889;
5256067863328034;-0.2429;0.0647;0.1889;
5256067873452148;-0.3462;0.2064;0.1357;
5256067883556784;-0.3025;-0.0067;0.1314;
5256067893661367;-0.2258;-0.1377;0.1538;
5256067903751003;-0.2876;-0.0759;0.0984;
5256067913855638;-0.4027;0.0754;0.0292;
5256067923960221;-0.5261;0.1105;0.0217;
5256067934064232;-0.3771;0.0413;0.0015;
5256067944168867;-0.2333;0.0189;0.0004;
5256067954273451;-0.2578;0.0370;-0.0017;
5256067964397044;-0.2503;0.0679;-0.0188;
5256067974501628;-0.2354;-0.0067;-0.0624;
5256067984606263;-0.2429;-0.0876;-0.1232;
5256067994699753;-0.2205;0.1595;-0.0806;
5256068004804388;-0.2099;0.2340;-0.0955;
5256068014908971;-0.1300;0.0519;-0.1349;
5256068025022461;-0.1172;0.0956;-0.1370;
5256068035127096;-0.1491;0.1286;-0.1455;
5256068045231680;-0.1694;-0.0418;-0.1509;
5256068055323138;-0.1747;-0.1696;-0.1615;
5256068065427721;-0.1854;-0.1728;-0.1647;
5256068075532357;-0.2013;-0.2048;-0.1839;
5256068085640169;-0.2258;-0.1430;-0.2190;
5256068095744805;-0.2141;0.0871;-0.2510;
5256068105849388;-0.1651;0.1414;-0.2670;
5256068115953398;-0.0000;0.0956;-0.2808;
5256068126058034;0.1353;0.0764;-0.2627;
5256068136162617;0.0884;-0.0045;-0.2510;
5256068146262148;0.0064;-0.0812;-0.2478;
5256068156366784;-0.0064;0.0051;-0.2382;
5256068166471367;-0.0298;0.0722;-0.2371;
5256068176585690;-0.0160;0.0125;-0.2137;
5256068186690326;0.0213;0.0754;-0.2371;
5256068196794909;-0.0170;-0.0067;-0.2063;
5256068206912461;-0.1236;-0.2975;-0.2510;
5256068217017044;-0.0778;-0.1814;-0.2712;
5256068227121680;-0.0650;-0.0269;-0.2840;
5256068237211471;-0.0724;-0.1473;-0.2766;
5256068247316055;-0.0447;-0.2176;-0.2755;
5256068257420690;-0.0394;-0.1366;-0.2979;
5256068267534388;-0.0352;-0.0940;-0.3021;
5256068277639076;-0.0565;-0.1814;-0.2723;
5256068287743763;-0.0501;0.0008;-0.3256;
5256068297836055;-0.0618;0.0498;-0.2989;
5256068307940742;-0.0021;-0.0205;-0.3096;
5256068318045430;0.0991;0.1233;-0.3277;
5256068328160065;0.1289;0.1638;-0.3234;
5256068338264753;0.1587;0.0722;-0.3085;
5256068348369440;0.2182;0.1691;-0.3032;
5256068358462669;0.2779;0.3202;-0.2691;
5256068368567357;0.3258;0.2989;-0.2499;
5256068378671992;0.4110;0.2553;-0.2073;
5256068388780794;0.3919;0.2872;-0.1530;
5256068398885482;0.2896;0.1531;-0.1051;
5256068408990169;0.2427;0.0573;-0.1051;
5256068419079076;0.2161;0.0253;-0.1040;
5256068429183763;0.1788;0.0232;-0.1051;
5256068439288451;0.1682;0.0221;-0.1115;
5256068449399336;0.1788;-0.0226;-0.0742;
5256068459504023;0.2097;0.0285;-0.0678;
5256068469608711;0.2214;0.0423;-0.0763;
5256068479717253;0.1767;0.0189;-0.0614;
5256068489821940;0.1640;0.0381;-0.0507;
5256068499926628;0.1353;-0.0375;-0.0443;
5256068510035169;0.1449;-0.0354;-0.0529;
5256068520139857;0.1651;0.0487;-0.0603;
5256068530244544;0.1630;-0.0322;-0.0017;
5256068540340742;0.1289;-0.2122;0.0238;
5256068550445430;0.1300;-0.1856;0.0601;
5256068560550117;0.1161;-0.1142;0.0771;
5256068570649648;0.1140;-0.1281;0.0771;
5256068580754336;0.0927;-0.0748;0.0814;
5256068590858971;0.0639;-0.0993;0.0952;
5256068600974440;0.0628;-0.0823;0.0771;
5256068611079128;0.0810;0.0338;0.0643;
5256068621183815;0.0660;-0.0109;0.0558;
5256068631307930;0.1076;-0.0642;0.0877;
5256068641412617;0.0969;0.0083;0.0995;
5256068651517305;0.0692;0.0434;0.0739;
5256068661602773;0.0724;0.0413;0.1091;
5256068671707461;0.0639;0.0370;0.1016;
5256068681812148;0.0639;0.0722;0.1059;
5256068691944128;0.0437;0.1063;0.1059;
5256068702048763;0.0447;0.0413;0.0601;
5256068712153503;0.0554;-0.0844;0.0558;
5256068722216680;0.0639;0.0232;0.0579;
5256068732321419;0.0394;0.1734;0.0441;
5256068742426107;0.0213;0.0498;0.0249;
5256068752550846;0.1097;-0.0216;0.0260;
5256068762655534;0.0937;0.0317;0.0622;
5256068772760221;0.0586;-0.0557;0.0728;
5256068782860898;0.0362;-0.1196;0.0654;
5256068792965586;-0.0096;-0.1324;0.0611;
5256068803070273;-0.0362;-0.0162;0.0238;
5256068813175378;-0.0170;0.1244;-0.0049;
5256068823280065;0.0575;0.0296;0.0068;
5256068833384753;0.0980;-0.0876;0.0238;
5256068843488919;0.0565;-0.0716;0.0174;
5256068853593607;0.0660;0.0285;0.0238;
5256068863698294;0.0820;0.0775;0.0153;
5256068873785378;0.1087;0.0541;0.0419;
5256068883890065;0.0586;-0.0258;0.0611;
5256068893994753;0.0458;-0.0514;0.0750;
5256068904115065;0.0234;-0.0684;0.0377;
5256068914219753;-0.0234;-0.0610;0.0281;
5256068924324440;-0.0522;0.0125;0.0111;
5256068934426940;-0.0469;-0.0173;0.0334;
5256068944531628;-0.0735;-0.1856;0.0515;
5256068954636315;-0.0447;-0.0642;0.0142;
5256068964753190;-0.1087;0.0658;-0.0220;
5256068974857878;-0.1555;0.0136;-0.0411;
5256068984962513;-0.0362;0.0029;-0.0443;
5256068995057044;0.0064;0.0434;-0.0028;
5256069005161732;-0.0107;0.0189;0.0015;
5256069015266419;0.0256;0.0999;-0.0411;
5256069025377878;0.0181;0.1148;-0.0369;
5256069035482565;0.0181;-0.0152;-0.0177;
5256069045587253;0.0128;-0.0216;-0.0049;
5256069055688398;0.0075;0.0146;0.0121;
5256069065793086;-0.0256;-0.1228;0.0036;
5256069075897773;-0.0149;-0.0983;0.0142;
5256069086004023;-0.0160;0.0157;-0.0113;
5256069096108711;0.0138;0.0349;-0.0124;
5256069106213398;0.0117;0.0008;-0.0060;
5256069116304388;-0.0032;-0.0344;-0.0145;
5256069126409076;0.0138;0.0168;0.0004;
5256069136513763;0.0021;0.0019;0.0153;
5256069146621836;0.0085;-0.0035;0.0111;
5256069156726523;0.0192;0.0913;0.0206;
5256069166831211;0.0096;0.0594;0.0601;
5256069176941055;-0.0117;-0.0258;0.0920;
5256069187045742;-0.0277;-0.0759;0.1037;
5256069197150430;-0.0298;-0.0759;0.1218;
5256069207247148;-0.0575;0.0104;0.0963;
5256069217351836;-0.0437;0.1457;0.0867;
5256069227456471;-0.0320;0.1893;0.0792;
5256069237569961;-0.0064;0.0818;0.1261;
5256069247674648;-0.0394;0.0232;0.1197;
5256069257779336;-0.0490;0.0413;0.1154;
5256069267886419;-0.0415;0.0935;0.1272;
5256069277991003;-0.0298;0.1883;0.1421;
5256069288095586;-0.0405;0.2053;0.1261;
5256069298192253;-0.0597;-0.1089;0.1783;
5256069308296836;-0.0330;-0.0557;0.1676;
5256069318401419;-0.0618;0.1957;0.1485;
5256069328508815;-0.2471;-0.1047;0.1399;
5256069338613398;-0.2322;-0.3465;0.1410;
5256069348717982;-0.0746;-0.1739;0.1208;
5256069358818555;-0.1214;-0.0173;0.1112;
5256069368923138;-0.2663;-0.0056;0.0888;
5256069379027721;-0.2770;-0.0344;0.0771;
5256069389132253;-0.1598;-0.0908;0.0292;
5256069399236836;-0.1023;-0.2091;0.0142;
5256069409341419;-0.0202;0.5067;0.0111;
5256069419455065;-0.2897;-0.0099;0.0483;
5256069429559648;-0.1768;-0.5722;-0.0177;
5256069439664232;0.1491;0.3149;-0.0230;
5256069449763607;-0.1481;0.3671;0.0036;
5256069459868190;-0.1939;-0.1632;0.0238;
5256069469972773;0.0373;-0.1164;0.0206;
5256069480075169;-0.0202;0.1244;-0.0571;
5256069490179753;-0.1087;0.1286;-0.0731;
5256069500284388;-0.0607;-0.0706;-0.0891;
5256069510381211;-0.0021;0.0583;-0.1104;
5256069520485794;-0.0000;0.3043;-0.1019;
5256069530590378;-0.0490;-0.0993;-0.1019;
5256069540728607;0.0586;-0.2399;-0.1125;
5256069550833190;0.0863;0.1063;-0.1029;
5256069560937773;-0.0959;-0.0578;-0.1040;
5256069571007409;-0.0202;-0.1313;-0.1413;
5256069581111992;-0.0309;0.1819;-0.1636;
5256069591216628;-0.0234;0.0487;-0.1988;
5256069601346784;0.0703;-0.1270;-0.2297;
5256069611451367;0.1609;0.0988;-0.2350;
5256069621555951;0.0639;-0.0258;-0.2180;
5256069631638086;0.0820;-0.2059;-0.2244;
5256069641742669;0.1799;0.0381;-0.2425;
5256069651847253;0.0969;0.0732;-0.2084;
5256069661968294;0.1033;-0.0461;-0.1818;
5256069672072878;0.2001;0.0349;-0.1658;
5256069682177461;0.1246;-0.0759;-0.1743;
5256069692262878;0.1012;-0.1494;-0.1903;
5256069702367461;0.1044;-0.0375;-0.1881;
5256069712472044;0.1108;0.0711;-0.2105;
5256069722588919;0.1682;0.1712;-0.1913;
5256069732693503;0.2161;0.1414;-0.1924;
5256069742798086;0.2758;0.0732;-0.1690;
5256069752911628;0.2417;0.0146;-0.1455;
5256069763016211;0.1417;-0.0663;-0.1040;
5256069773120794;0.0714;-0.1174;-0.0699;
5256069783208815;0.0746;-0.1270;-0.1178;
5256069793313398;0.0937;-0.1249;-0.1061;
5256069803417982;0.0895;-0.0897;-0.0965;
5256069813526732;0.1065;0.0029;-0.1061;
5256069823631315;0.0863;-0.0216;-0.1146;
5256069833735898;0.0650;-0.1973;-0.1306;
5256069843828815;0.0927;-0.1686;-0.1402;
5256069853933398;0.1118;-0.0067;-0.1242;
5256069864037982;0.1140;0.1148;-0.1232;
5256069874152305;0.1438;0.1350;-0.1051;
5256069884256888;0.0905;-0.0961;-0.1189;
5256069894361471;0.1545;-0.0493;-0.0656;
5256069904472565;0.1820;0.1702;-0.0550;
5256069914577148;0.1033;0.0370;-0.0656;
5256069924681732;0.0714;-0.1526;-0.0593;
5256069934790586;0.1140;-0.1196;-0.0262;
5256069944895169;0.0916;-0.0290;-0.0348;
5256069954999753;0.0852;-0.0620;-0.0635;
5256069965115898;0.0618;-0.1249;-0.0411;
5256069975220482;0.0714;-0.1739;-0.0497;
5256069985325065;0.1118;-0.0333;-0.0816;
5256069995409544;0.2257;0.3032;-0.0795;
5256070005514128;0.1630;0.0328;-0.0646;
5256070015618711;0.1332;-0.0770;-0.0646;
5256070025736628;0.2044;0.2403;-0.0624;
5256070035841211;0.1534;0.0839;-0.0678;
5256070045945794;0.0895;-0.1899;-0.0166;
5256070056042565;0.0980;-0.1856;0.0057;
5256070066147148;0.1118;0.0115;-0.0039;
5256070076251732;0.1481;0.0732;-0.0060;
5256070086353503;0.1310;-0.0620;-0.0124;
5256070096458086;0.1799;-0.0280;0.0079;
5256070106562669;0.2289;0.1382;0.0025;
5256070116662044;0.1193;-0.0109;-0.0166;
5256070126766628;0.0735;-0.1238;-0.0326;
5256070136871211;0.1374;0.0360;-0.0220;
5256070146982044;0.1150;0.0317;-0.0273;
5256070157086628;0.1566;0.0636;0.0047;
5256070167191211;0.1417;0.0903;0.0398;
5256070177290898;0.0799;-0.0951;0.0696;
5256070187395482;0.1172;-0.0056;0.0675;
5256070197500065;0.1385;0.1148;0.0686;
5256070207594336;0.1012;0.0370;0.0569;
5256070217698919;0.1065;0.0839;0.0569;
5256070227803503;0.1065;0.0945;0.0419;
5256070237924544;0.1321;0.0722;0.0334;
5256070248029128;0.1353;0.0903;0.0579;
5256070258133711;0.0788;-0.0045;0.0899;
5256070268237253;0.0692;-0.0940;0.1005;
5256070278341836;0.0969;-0.0397;0.1495;
5256070288446367;0.1001;0.0818;0.1133;
5256070298548294;0.1076;0.0881;0.1272;
5256070308652878;0.0916;0.0381;0.1453;
5256070318757409;0.0916;0.0242;0.1549;
5256070328863607;0.0575;-0.0045;0.1623;
5256070338968138;0.0565;-0.0386;0.1581;
5256070349072721;0.0096;-0.0407;0.1559;
5256070359164701;0.0256;0.0370;0.1612;
5256070369269284;0.0628;0.2075;0.1549;
5256070379373867;0.0682;0.1222;0.2134;
5256070389487982;0.0575;0.0999;0.2305;
5256070399592565;0.0341;0.0786;0.2230;
5256070409697096;0.0043;0.0796;0.2390;
5256070419825169;-0.1044;-0.1185;0.2561;
5256070429929701;-0.2141;-0.3071;0.2475;
5256070440034284;-0.2194;-0.1505;0.1996;
5256070450109648;-0.2258;0.0700;0.1687;
5256070460214232;-0.3206;0.1254;0.1581;
5256070470318763;-0.2141;0.0328;0.1783;
5256070480436836;-0.0692;-0.0162;0.1538;
5256070490541419;-0.0650;0.1904;0.0920;
5256070500645951;-0.1044;0.1158;0.0750;
5256070510754648;-0.0234;0.1947;0.0675;
5256070520859180;-0.1001;0.0008;0.0803;
5256070530963763;-0.0511;0.0786;0.0515;
5256070541076471;-0.0810;0.1063;0.0686;
5256070551181055;-0.1449;-0.1899;0.0973;
5256070561285586;-0.0788;-0.2080;0.0718;
5256070571388086;-0.0991;-0.3102;0.0441;
5256070581492617;-0.0852;-0.2719;0.0345;
5256070591597201;-0.0916;-0.0375;-0.0220;
5256070601677773;-0.0937;-0.0844;-0.0550;
5256070611782357;-0.0064;0.0839;-0.0976;
5256070621886888;0.0991;0.1787;-0.0838;
5256070632031732;0.1959;0.0551;-0.0720;
5256070642136315;0.2332;-0.0130;-0.0550;
5256070652240846;0.2044;0.0200;-0.0230;
5256070662334961;0.1523;0.0626;0.0153;
5256070672439544;0.0980;0.0626;0.0249;
5256070682544076;0.0927;0.0839;0.0398;
5256070692642148;0.0959;0.1105;0.0494;
5256070702746732;0.0628;-0.0280;0.0515;
5256070712851263;0.0149;-0.1643;0.0142;
5256070722981107;-0.0170;-0.2336;0.0015;
5256070733085690;0.0021;-0.1824;-0.0017;
5256070743190221;-0.0714;-0.2101;-0.0188;
5256070753261107;0.0032;-0.0876;0.0047;
5256070763365690;0.0256;0.0775;0.0079;
5256070773470221;-0.0181;0.0466;-0.0113;
5256070783576107;0.0501;0.0988;-0.0134;
5256070793680690;0.0650;0.1553;-0.0305;
5256070803785221;0.0394;0.0796;-0.0188;
5256070813887982;0.0565;0.0988;-0.0166;
5256070823992565;0.0607;0.1585;-0.0166;
5256070834097096;0.0234;0.0402;0.0036;
5256070844216107;-0.0064;-0.0418;0.0356;
5256070854320690;0.0692;0.1521;0.0345;
5256070864425221;0.0298;0.1222;0.0494;
5256070874547461;-0.0501;-0.1643;0.0483;
5256070884651992;-0.0490;-0.1877;0.0356;
5256070894756576;-0.0298;-0.1547;0.0238;
5256070904842253;-0.0799;-0.1963;-0.0198;
5256070914946836;-0.0905;-0.1505;-0.0497;
5256070925051367;-0.0522;-0.0706;-0.0742;
5256070935154753;-0.0746;-0.0354;-0.0869;
5256070945259336;-0.0842;0.0360;-0.0806;
5256070955363867;-0.0682;0.0732;-0.0593;
5256070965474701;-0.0628;0.0903;-0.0944;
5256070975579232;0.0170;0.1265;-0.1519;
5256070985683815;0.0138;0.1521;-0.1509;
5256070995781003;0.0266;0.2254;-0.1317;
5256071005885586;0.0298;0.2222;-0.1274;
5256071015990117;0.0522;0.1425;-0.1008;
5256071026091471;0.0660;0.0935;-0.0710;
5256071036196055;0.0138;-0.0642;-0.0582;
5256071046300586;-0.0224;-0.2538;-0.0241;
5256071056398711;-0.0234;-0.2357;-0.0475;
5256071066503242;-0.0415;-0.2655;-0.0465;
5256071076607826;-0.0671;-0.3358;-0.0763;
5256071086712773;0.0032;-0.2101;-0.1253;
5256071096817357;-0.0181;-0.1281;-0.1413;
5256071106921888;-0.0618;-0.1739;-0.1903;
5256071117026628;-0.0096;-0.0727;-0.2126;
5256071127131211;0.0458;0.0775;-0.2286;
5256071137235742;0.0202;0.0828;-0.2084;
5256071147338815;0.0064;0.0732;-0.1903;
5256071157443398;0.0032;0.1158;-0.1328;
5256071167547930;0.0405;0.1297;-0.1296;
5256071177651940;0.1065;0.1915;-0.1210;
5256071187756523;0.1703;0.2371;-0.1242;
5256071197861055;0.1905;0.1766;-0.0614;
5256071207971315;0.0383;-0.0152;-0.0220;
5256071218075846;-0.0170;-0.2133;-0.0060;
5256071228180430;0.0767;-0.2176;0.0206;
5256071238279805;0.1385;-0.1931;0.0057;
5256071248384388;0.1023;-0.1569;-0.0166;
5256071258488919;0.0138;-0.1025;0.0238;
5256071268599023;0.0043;-0.1590;0.0238;
5256071278703659;0.0426;-0.0834;0.0217;
5256071288808346;0.0479;0.0210;-0.0550;
5256071298922982;0.0682;0.0828;-0.0656;
5256071309027617;0.1140;0.1308;-0.0379;
5256071319132305;0.0969;0.1435;-0.0305;
5256071329220690;0.0937;0.1542;-0.0049;
5256071339325326;0.0778;0.0999;0.0494;
5256071349430013;0.0735;0.1318;0.0590;
5256071359531211;0.1246;0.2106;0.0707;
5256071369635846;0.1023;0.0796;0.0984;
5256071379740482;0.0064;-0.1835;0.1229;
5256071389847721;-0.0064;-0.1963;0.1176;
5256071399952357;-0.0064;-0.1686;0.1197;
5256071410056992;-0.0224;-0.1686;0.0963;
5256071420181523;0.0064;-0.1846;0.0888;
5256071430286159;-0.0170;-0.1313;0.0558;
5256071440390794;-0.0053;-0.0077;0.0718;
5256071450471211;0.0149;0.0178;0.0707;
5256071460575846;0.0383;-0.0109;0.0451;
5256071470680482;0.0330;0.0200;0.0430;
5256071480800221;0.0511;0.0530;0.0409;
5256071490904857;0.0447;0.0690;0.0111;
5256071501009492;0.0660;0.1361;0.0111;
5256071511096211;0.0692;0.1382;-0.0007;
5256071521200846;0.1076;0.1031;-0.0156;
5256071531305482;0.1204;0.1169;-0.0092;
5256071541385169;0.1065;0.0945;-0.0007;
5256071551489805;0.0469;-0.0684;0.0228;
5256071561594440;0.0330;-0.1792;0.0249;
5256071571749544;0.0490;-0.2250;0.0100;
5256071581854180;0.0224;-0.2676;-0.0433;
5256071591958815;0.0511;-0.1483;-0.1349;
5256071602068294;0.0724;0.0317;-0.1242;
5256071612172930;0.1087;0.0296;-0.1200;
5256071622277565;0.1246;-0.0866;-0.1242;
5256071632373398;0.1724;-0.0109;-0.1668;
5256071642478034;0.2662;0.1350;-0.1743;
5256071652582669;0.2225;0.0988;-0.1796;
5256071662686523;0.2427;0.0317;-0.1668;
5256071672791159;0.3770;0.1616;-0.1487;
5256071682895794;0.2438;0.0636;-0.1210;
5256071693012982;0.1555;-0.0471;-0.1168;
5256071703117617;0.2875;0.0338;-0.1530;
5256071713222253;0.2449;0.0040;-0.1541;
5256071723305378;0.1342;-0.0567;-0.1402;
5256071733410013;0.1863;-0.0067;-0.1125;
5256071743514648;0.1598;-0.0908;-0.1200;
5256071753609596;0.1449;-0.1728;-0.1040;
5256071763714232;0.1640;-0.1132;-0.1242;
5256071773818867;0.1767;-0.0365;-0.1413;
5256071783939023;0.1481;-0.0759;-0.1381;
5256071794043659;0.1778;-0.0823;-0.1061;
5256071804148294;0.2342;0.0306;-0.1381;
5256071814244544;0.2768;0.0498;-0.1083;
5256071824349180;0.2427;0.0296;-0.1051;
5256071834453815;0.3620;0.2032;-0.1210;
5256071844556107;0.4526;0.3650;-0.1093;
5256071854660742;0.2726;0.1851;-0.0965;
5256071864765378;0.1342;-0.0897;-0.0262;
5256071874871419;0.2065;-0.1324;0.0206;
5256071884976055;0.1873;-0.1984;0.0121;
5256071895080690;0.1937;-0.2037;0.0164;
5256071905182148;0.2896;-0.0461;-0.0092;
5256071915286784;0.3876;0.0381;0.0057;
5256071925391419;0.2417;0.0445;0.0249;
5256071935497253;0.1630;-0.0056;0.0004;
5256071945601888;0.1746;-0.1441;-0.0220;
5256071955706576;0.2161;-0.1377;-0.0252;
5256071965822461;0.2278;-0.0738;-0.0166;
5256071975927096;0.2300;0.0051;-0.0284;
5256071986031732;0.3184;0.0967;0.0324;
5256071996129128;0.2960;0.1137;0.0654;
5256072006233763;0.2800;0.0903;0.0675;
5256072016338398;0.2768;0.0700;0.0728;
5256072026454232;0.2268;-0.0312;0.1037;
5256072036558867;0.2150;-0.1111;0.1304;
5256072046663503;0.2406;-0.1100;0.1208;
5256072056756419;0.2236;-0.1185;0.1261;
5256072066861055;0.2161;-0.0940;0.1080;
5256072076965690;0.2278;-0.0972;0.1272;
5256072087065065;0.2300;-0.1079;0.1655;
5256072097169701;0.2459;-0.0482;0.2188;
5256072107274336;0.2736;0.0647;0.2252;
5256072117383919;0.2811;0.1041;0.2262;
5256072127488555;0.2885;0.1276;0.2284;
5256072137593242;0.2374;0.1031;0.2911;
5256072147695586;0.1863;0.0296;0.3145;
5256072157800221;0.1852;0.0413;0.3071;
5256072167904857;0.1332;0.0136;0.3113;
5256072178005898;0.0671;-0.0493;0.3465;
5256072188110534;-0.0224;-0.1174;0.3933;
5256072198215221;-0.0213;-0.0290;0.3997;
5256072208322148;-0.0138;0.1382;0.3944;
5256072218426784;-0.0618;0.0274;0.4157;
5256072228531419;-0.1822;-0.0674;0.4136;
5256072238641628;-0.1566;0.0626;0.3507;
5256072248746263;-0.1459;0.1638;0.3582;
5256072258850898;-0.1960;0.1286;0.3454;
5256072268970065;-0.2099;0.1190;0.2964;
5256072279074857;-0.2301;0.1063;0.2964;
5256072289179544;-0.2439;0.0391;0.2656;
5256072299287461;-0.2269;-0.0162;0.2486;
5256072309392201;-0.1981;-0.0312;0.2390;
5256072319496940;-0.1726;-0.1206;0.2379;
5256072329583086;-0.1960;-0.3007;0.2113;
5256072339687826;-0.2130;-0.6233;0.2284;
5256072349792565;-0.1449;-0.4390;0.1911;
5256072359892357;-0.0543;-0.0674;0.1708;
5256072369997096;0.1044;0.1915;0.1314;
5256072380101836;0.1682;0.2096;0.0601;
5256072390198086;0.1884;0.1968;0.0526;
5256072400302826;0.2044;0.2499;0.0835;
5256072410407565;0.1513;0.1925;0.1176;
5256072420525065;0.0447;0.0115;0.1154;
5256072430629805;0.0107;-0.0269;0.0931;
5256072440734544;-0.0021;0.0157;0.1208;
5256072450846732;-0.0064;0.0328;0.1772;
5256072460951471;0.0170;0.1052;0.2028;
5256072471056211;0.0692;0.5162;0.1900;
5256072481150742;0.0298;0.4363;0.2007;
5256072491255482;-0.1609;-0.2591;0.2656;
5256072501360221;-0.2450;-0.3656;0.2198;
5256072511501315;-0.3057;-0.0418;0.1655;
5256072521606055;-0.3462;-0.0237;0.1804;
5256072531710794;-0.3803;-0.1952;0.1730;
5256072541767669;-0.4451;-0.1750;0.1730;
5256072551872409;-0.4090;0.0913;0.1687;
5256072561977148;-0.3558;0.2000;0.1304;
5256072572082669;-0.4186;0.0615;0.1122;
5256072582187409;-0.4760;0.1361;0.1016;
5256072592292148;-0.3995;0.2531;0.0941;
5256072602420169;-0.3845;0.1020;0.0526;
5256072612524909;-0.3622;0.0796;0.0270;
5256072622629648;-0.3142;0.1521;0.0100;
5256072632731107;-0.2397;0.1095;-0.0049;
5256072642835846;-0.2344;0.0658;-0.0273;
5256072652940586;-0.2162;0.0551;-0.0507;
5256072663016315;-0.2077;0.0381;-0.0358;
5256072673121055;-0.1822;0.0935;-0.0646;
5256072683225794;-0.1427;0.1531;-0.0731;
5256072693339388;-0.1332;0.1329;-0.0550;
5256072703444128;-0.1161;0.1574;-0.0816;
5256072713548867;-0.1150;0.0967;-0.0710;
5256072723675690;-0.1342;-0.0642;-0.1178;
5256072733780430;-0.1182;-0.0866;-0.1349;
5256072743885169;-0.1374;-0.0269;-0.1210;
5256072753970794;-0.0852;0.0061;-0.1679;
5256072764075534;-0.0575;0.0455;-0.1945;
5256072774180273;-0.0405;0.1084;-0.1935;
5256072784290690;0.0117;0.1979;-0.1892;
5256072794395430;0.0383;0.2201;-0.1594;
5256072804500169;0.0352;0.1702;-0.1807;
5256072814604961;0.0810;0.1606;-0.1818;
5256072824709701;0.0724;0.1702;-0.1519;
5256072834814440;0.0788;0.1233;-0.1253;
5256072844918503;0.0682;0.0956;-0.1146;
5256072855023242;0.0650;0.0487;-0.1210;
5256072865127982;0.0309;-0.0226;-0.1029;
5256072875248086;-0.0117;-0.0748;-0.0656;
5256072885352826;-0.0075;-0.0077;-0.0848;
5256072895457565;0.0565;0.0988;-0.0944;
5256072905541107;0.0842;0.1499;-0.0912;
5256072915645846;0.1087;0.2254;-0.0955;
5256072925750586;0.0703;0.2361;-0.0763;
5256072935857878;0.0053;0.0956;-0.0667;
5256072945962617;-0.0266;-0.0109;-0.0869;
5256072956067357;-0.0458;-0.0375;-0.0688;
5256072966187878;-0.0628;-0.0897;-0.0795;
5256072976292617;-0.0096;-0.0652;-0.1019;
5256072986397357;0.0394;0.0360;-0.0912;
5256072996491836;0.0852;0.1073;-0.0965;
5256073006604753;0.1214;0.1680;-0.1051;
5256073016709544;0.1884;0.2361;-0.0944;
5256073026814284;0.2449;0.2819;-0.0763;
5256073036907357;0.2236;0.2096;-0.0667;
5256073047012096;0.1502;-0.0344;-0.0209;
5256073057116836;0.0575;-0.1792;-0.0209;
5256073067231628;0.0138;-0.1963;-0.0454;
5256073077336367;-0.0181;-0.2421;-0.0497;
5256073087441107;-0.0170;-0.2240;-0.0550;
5256073097547148;0.0053;-0.0951;-0.0667;
5256073107651888;0.0266;-0.0589;-0.0763;
5256073117756628;0.0373;-0.1302;-0.0667;
5256073127857461;0.0245;-0.1558;-0.0678;
5256073137962201;0.0522;-0.1100;-0.0593;
5256073148066940;0.0852;-0.1142;-0.0859;
5256073158165169;0.0778;-0.1601;-0.1104;
5256073168269909;0.0820;-0.1601;-0.1125;
5256073178374648;0.0991;-0.1324;-0.1083;
5256073188484128;0.1108;-0.1334;-0.1104;
5256073198588867;0.1257;-0.1760;-0.1253;
5256073208693607;0.1268;-0.1494;-0.1093;
5256073218743190;0.1246;-0.0866;-0.0891;
5256073228847930;0.1278;-0.1196;-0.0880;
5256073238952669;0.1236;-0.1462;-0.0688;
5256073249107565;0.1193;-0.1292;-0.0507;
5256073259212305;0.1246;-0.1654;-0.0422;
5256073269317044;0.1204;-0.2154;-0.0337;
5256073279408398;0.0991;-0.1888;-0.0465;
5256073289513138;0.1097;-0.1313;-0.0305;
5256073299617878;0.1310;-0.0503;-0.0113;
5256073309726315;0.1619;-0.0130;-0.0166;
5256073319831055;0.1534;-0.0631;-0.0071;
5256073329935794;0.1756;-0.0535;-0.0230;
5256073340071107;0.1746;-0.0109;-0.0379;
5256073350175846;0.1545;-0.0418;-0.0433;
5256073360280586;0.1598;-0.0620;-0.0475;
5256073370343919;0.1672;-0.0663;-0.0316;
5256073380477878;0.1640;-0.0684;-0.0305;
5256073390582617;0.1523;-0.0514;-0.0252;
5256073400687357;0.1502;-0.0493;-0.0273;
5256073410784753;0.1662;-0.0205;0.0015;
5256073420889492;0.1724;0.0125;-0.0071;
5256073430994232;0.2268;0.0093;-0.0337;
5256073441067253;0.2363;0.0519;-0.0081;
5256073451172044;0.2395;0.0828;-0.0092;
5256073461276732;0.2289;0.0498;-0.0294;
5256073471420430;0.2225;0.0349;-0.0241;
5256073481525169;0.1831;0.0221;-0.0017;
5256073491629909;0.1863;0.0115;-0.0134;
5256073501729909;0.1523;-0.0610;-0.0177;
5256073511834701;0.1342;-0.1121;-0.0348;
5256073521939440;0.1438;-0.0674;-0.0635;
5256073532028294;0.1959;-0.0439;-0.1029;
5256073542158555;0.2470;-0.0088;-0.0987;
5256073552263294;0.2662;0.0658;-0.0912;
5256073562368034;0.3152;0.1063;-0.0912;
5256073572468919;0.3557;0.1137;-0.0891;
5256073582573659;0.3908;0.0871;-0.0667;
5256073592678398;0.4089;0.0594;-0.0529;
5256073602768503;0.4057;-0.0013;-0.0379;
5256073612873242;0.4025;-0.0578;-0.0145;
5256073622977982;0.4142;-0.0620;0.0100;
5256073633094961;0.4174;-0.0546;0.0142;
5256073643199701;0.4334;-0.0493;0.0068;
5256073653304440;0.4590;-0.0216;0.0430;
5256073663394805;0.4888;0.0221;0.0728;
5256073673499544;0.5101;0.0136;0.0686;
5256073683604284;0.5304;0.0583;0.0941;
5256073693709753;0.5634;0.1020;0.1495;
5256073703814492;0.5421;0.0466;0.1889;
5256073713919232;0.4643;0.0200;0.1783;
5256073724029440;0.4430;0.0285;0.1868;
5256073734134180;0.3844;-0.0194;0.2198;
5256073744238919;0.2694;-0.0557;0.2390;
5256073754338398;0.2342;-0.0535;0.2411;
5256073764443138;0.2193;-0.0269;0.2561;
5256073774547878;0.1831;-0.0120;0.2550;
5256073784661523;0.1140;-0.0109;0.2475;
5256073794766263;0.1374;0.0200;0.2401;
5256073804871003;0.0501;0.0061;0.2688;
5256073814966523;0.0128;0.0146;0.2900;
5256073825071263;-0.0043;0.0274;0.2772;
5256073835176003;-0.0767;0.0019;0.2624;
5256073845280586;-0.0756;-0.0503;0.2443;
5256073855385326;-0.1087;-0.0844;0.2635;
5256073865490065;-0.1182;-0.0397;0.2486;
5256073875628086;-0.0948;-0.0194;0.2294;
5256073885732826;-0.1204;-0.0120;0.1975;
5256073895837565;-0.1118;0.0093;0.1932;
5256073905906419;-0.1172;0.0189;0.2092;
5256073916011159;-0.1225;0.0285;0.1826;
5256073926115898;-0.1108;0.0136;0.1698;
5256073936221732;-0.1225;-0.0184;0.1463;
5256073946326471;-0.0895;-0.0067;0.1325;
5256073956431211;-0.0618;-0.0173;0.1421;
5256073966542773;-0.0682;-0.0130;0.1357;
5256073976647513;-0.0213;0.0466;0.1186;
5256073986752253;0.0117;0.0732;0.1112;
5256073996854232;0.0043;0.0775;0.1463;
5256074006958971;0.0064;0.1116;0.1272;
5256074017063711;-0.0053;0.0700;0.1389;
5256074027162148;-0.0735;0.0051;0.1080;
5256074037266888;-0.0842;-0.0109;0.1005;
5256074047371628;-0.1033;-0.0120;0.1016;
5256074057477982;-0.0863;-0.0003;0.1027;
5256074067582721;-0.0724;0.0189;0.0984;
5256074077687461;-0.0277;0.0573;0.0920;
5256074087787357;0.0224;0.1403;0.0888;
5256074097892096;0.0607;0.2318;0.0995;
5256074107996836;0.0948;0.2638;0.1122;
5256074118102565;0.0799;0.2521;0.1293;
5256074128207305;0.0639;0.1925;0.1346;
5256074138312044;0.0138;0.1521;0.1506;
5256074148406003;0.0032;0.1393;0.1463;
5256074158510742;-0.0288;0.0828;0.1847;
5256074168615482;-0.1374;0.0636;0.1858;
5256074178756732;-0.1044;0.0711;0.1581;
5256074188861471;-0.1736;0.0381;0.1772;
5256074198966211;-0.2013;-0.0141;0.1815;
5256074209028086;-0.2738;-0.0546;0.1794;
5256074219168451;-0.2940;-0.0397;0.1570;
5256074229273242;-0.2951;-0.0280;0.1186;
5256074239377982;-0.3015;-0.0056;0.1304;
5256074249457461;-0.3025;0.0093;0.1240;
5256074259562201;-0.3313;0.0487;0.1016;
5256074269657721;-0.2929;0.0690;0.0941;
5256074279762461;-0.2812;0.0317;0.0579;
5256074289867201;-0.2983;0.0285;0.0696;
5256074300000169;-0.3100;0.0605;0.0590;
5256074310104909;-0.3153;0.0381;0.0377;
5256074320209648;-0.3419;0.0136;0.0345;
5256074330283503;-0.2993;-0.0088;0.0036;
5256074340388242;-0.2770;-0.0109;0.0174;
5256074350492982;-0.2312;0.0370;-0.0060;
5256074360595586;-0.1491;0.0626;-0.0454;
5256074370700326;-0.0927;0.0935;-0.0294;
5256074380805065;-0.0320;0.1063;-0.0230;
5256074390899909;-0.0160;0.0413;-0.0497;
5256074401004648;0.0352;0.0125;-0.0454;
5256074411109388;0.0373;-0.0099;-0.0624;
5256074421233346;0.0597;-0.1057;-0.0944;
5256074431338086;0.0565;-0.1111;-0.0869;
5256074441442878;0.1225;-0.0652;-0.0869;
5256074451546211;0.1980;-0.0876;-0.0784;
5256074461650951;0.1863;-0.1004;-0.0507;
5256074471755638;0.2758;-0.0418;-0.0411;
5256074481871003;0.3471;-0.0397;-0.0582;
5256074491975742;0.3120;-0.0397;-0.0720;
5256074502080482;0.2619;-0.0248;-0.0379;
5256074512176263;0.2246;-0.0077;-0.0124;
5256074522281055;0.1948;-0.0120;-0.0454;
5256074532385794;0.1799;-0.0961;-0.0710;
5256074542476055;0.1353;-0.0642;-0.0209;
5256074552580794;0.1651;-0.0184;0.0526;
5256074562685534;0.1746;-0.0439;0.0569;
5256074572801107;0.1449;-0.0620;-0.0017;
5256074582905846;0.1332;-0.0748;-0.0561;
5256074593010586;0.0639;-0.1057;-0.0284;
5256074603139701;0.0107;-0.1430;0.0302;
5256074613244440;0.0085;-0.1238;0.0675;
5256074623349180;0.0660;-0.0642;0.0441;
5256074633434805;0.1427;-0.0216;-0.0028;
5256074643539544;0.1640;-0.0375;-0.0390;
5256074653644284;0.1353;-0.0748;-0.0401;
5256074663753919;0.1012;-0.0663;-0.0369;
5256074673858659;0.0586;-0.0344;-0.0443;
5256074683963398;0.0032;0.0008;-0.0529;
5256074694060378;-0.0288;0.0434;-0.0433;
5256074704165117;-0.0256;0.0722;-0.0007;
5256074714269857;0.0032;0.0562;0.0334;
5256074724401315;0.0064;0.0274;0.0505;
5256074734506055;-0.0107;0.0253;0.0483;
5256074744610794;-0.0234;0.0679;0.0505;
5256074754688711;-0.0288;0.1425;0.0686;
5256074764793451;-0.0181;0.1861;0.0846;
5256074774898190;0.0032;0.1680;0.0963;
5256074785013294;0.0170;0.1265;0.1048;
5256074795118034;0.0586;0.0391;0.1250;
5256074805222773;0.1087;0.0136;0.1421;
5256074815325065;0.1587;0.0146;0.1527;
5256074825429805;0.2033;-0.0226;0.1740;
5256074835534544;0.2300;-0.0770;0.2039;
5256074845632461;0.1799;-0.0663;0.2188;
5256074855737201;0.0916;-0.0205;0.2134;
5256074865841940;-0.0011;0.0168;0.2028;
5256074875948294;-0.0554;0.0594;0.1996;
5256074886053034;-0.0224;0.0860;0.1847;
5256074896157773;-0.0554;0.0977;0.1612;
5256074906279857;-0.1023;0.1180;0.1506;
5256074916384596;-0.1257;0.0871;0.1517;
5256074926489336;-0.0618;0.0391;0.1506;
5256074936574961;-0.0320;0.0104;0.1495;
5256074946679701;-0.0628;-0.0045;0.1421;
5256074956784440;-0.1449;0.0029;0.1314;
5256074966897773;-0.2908;0.0349;0.1218;
5256074977002513;-0.4208;0.0519;0.1186;
5256074987107253;-0.4739;0.0381;0.1250;
5256074997194648;-0.4888;0.0285;0.1325;
5256075007299388;-0.4739;0.0200;0.1346;
5256075017404128;-0.4027;-0.0003;0.1357;
5256075027518555;-0.2748;-0.0045;0.1453;
5256075037623294;-0.1172;-0.0056;0.1644;
5256075047728034;-0.0043;-0.0120;0.1815;
5256075057828971;-0.0170;-0.0013;0.1858;
5256075067933711;0.0128;0.0146;0.1676;
5256075078038451;0.0788;0.0264;0.1474;
5256075088158711;0.1012;0.0349;0.1378;
5256075098263451;0.1044;0.0370;0.1336;
5256075108368190;0.0810;0.0285;0.1229;
5256075118455169;0.0309;0.0157;0.1059;
5256075128559909;-0.0192;0.0093;0.0931;
5256075138664648;-0.0277;0.0104;0.0877;
5256075148766732;-0.0138;0.0178;0.0867;
5256075158871471;-0.0213;0.0232;0.0824;
5256075168976211;-0.0256;0.0210;0.0771;
5256075179076940;-0.0245;0.0189;0.0718;
5256075189181680;-0.0256;0.0115;0.0632;
5256075199286419;-0.0341;0.0051;0.0483;
5256075209404336;-0.0607;0.0029;0.0345;
5256075219509076;-0.0852;-0.0003;0.0238;
5256075229613815;-0.0873;-0.0024;0.0142;
5256075239707565;-0.0575;-0.0024;0.0100;
5256075249812305;-0.0213;-0.0056;0.0089;
5256075259917044;0.0021;-0.0077;0.0089;
5256075270048190;-0.0021;-0.0035;0.0057;
5256075280152982;-0.0064;-0.0035;0.0025;
5256075290257721;-0.0298;-0.0035;-0.0007;
5256075300358138;-0.0735;-0.0003;-0.0039;
5256075310462930;-0.1214;-0.0003;-0.0081;
5256075320567721;-0.1577;-0.0013;-0.0134;
5256075330640482;-0.1736;-0.0013;-0.0166;
5256075340745273;-0.1747;-0.0024;-0.0209;
5256075350850065;-0.1672;-0.0035;-0.0262;
5256075360960482;-0.1587;-0.0045;-0.0316;
5256075371065273;-0.1545;-0.0077;-0.0337;
5256075381170013;-0.1555;-0.0120;-0.0358;
5256075391274492;-0.1481;-0.0130;-0.0390;
5256075401379284;-0.1342;-0.0162;-0.0422;
5256075411484076;-0.1076;-0.0205;-0.0443;
5256075421597096;-0.0660;-0.0237;-0.0401;
5256075431701888;-0.0138;-0.0280;-0.0358;
5256075441806680;0.0256;-0.0333;-0.0337;
5256075451935638;0.0181;-0.0418;-0.0326;
5256075462040430;0.0224;-0.0482;-0.0305;
5256075472145273;0.0298;-0.0407;-0.0252;
5256075482212930;0.0597;-0.0290;-0.0177;
5256075492317721;0.1395;-0.0173;-0.0113;
5256075502422513;0.2363;-0.0003;0.0004;
5256075512553346;0.3098;0.0157;0.0174;
5256075522658190;0.3961;-0.0120;0.0451;
5256075532762930;0.4419;-0.0141;0.0590;
5256075542881680;0.4441;-0.0045;0.0686;
5256075552986523;0.4292;-0.0130;0.0760;
5256075563091263;0.4441;-0.0056;0.0803;
5256075573169753;0.4696;0.0072;0.0664;
5256075583274544;0.4537;0.0093;0.0515;
5256075593379336;0.3961;0.0019;0.0451;
5256075603482253;0.3312;-0.0035;0.0409;
5256075613586992;0.3098;-0.0258;0.0441;
5256075623691836;0.2449;-0.0099;0.0281;
5256075633788659;0.1820;0.0072;0.0089;
5256075643893503;0.1449;0.0136;0.0047;
5256075653998294;0.0873;0.0136;-0.0049;
5256075664109648;0.0224;0.0019;-0.0166;
5256075674214388;-0.0138;0.0040;-0.0273;
5256075684319232;-0.0011;0.0029;-0.0305;
5256075694418711;-0.0011;-0.0024;-0.0294;
5256075704523503;0.0053;0.0040;-0.0305;
5256075714628242;0.0043;0.0115;-0.0369;
5256075724753190;-0.0021;0.0061;-0.0422;
5256075734857982;-0.0000;0.0008;-0.0422;
5256075744962773;-0.0000;0.0029;-0.0348;
5256075755041159;-0.0128;0.0019;-0.0379;
5256075765146003;-0.0383;-0.0003;-0.0401;
5256075775250794;-0.0628;0.0040;-0.0411;
5256075785360586;-0.0948;0.0093;-0.0379;
5256075795465326;-0.1321;0.0061;-0.0422;
5256075805570169;-0.1619;0.0008;-0.0454;
5256075815669076;-0.1875;0.0008;-0.0475;
5256075825773919;-0.2056;0.0019;-0.0454;
5256075835878659;-0.2130;0.0061;-0.0443;
5256075845991628;-0.2013;0.0093;-0.0433;
5256075856096367;-0.1736;0.0083;-0.0433;
5256075866201211;-0.1363;0.0029;-0.0401;
5256075876296784;-0.1001;0.0019;-0.0348;
5256075886401628;-0.0575;-0.0024;-0.0305;
5256075896506367;-0.0021;-0.0045;-0.0262;
5256075906610534;0.0234;-0.0067;-0.0209;
5256075916715326;0.0096;-0.0077;-0.0198;
5256075926820117;0.0075;-0.0067;-0.0220;
5256075936929023;0.0032;-0.0035;-0.0177;
5256075947033763;0.0053;-0.0013;-0.0103;
5256075957138607;0.0075;-0.0003;-0.0081;
5256075967245951;0.0043;-0.0013;-0.0103;
5256075977350742;0.0021;-0.0045;-0.0103;
5256075987455482;0.0032;-0.0045;-0.0081;
5256075997560273;0.0011;-0.0035;-0.0039;
5256076007674909;0.0032;-0.0024;-0.0017;
5256076017779701;0.0011;-0.0013;-0.0007;
5256076027884544;-0.0011;-0.0024;0.0004;
5256076037974336;-0.0021;-0.0013;0.0047;
5256076048079128;-0.0032;-0.0003;0.0079;
5256076058183867;-0.0021;-0.0024;0.0100;
5256076068294753;-0.0032;-0.0013;0.0111;
5256076078399544;-0.0043;-0.0013;0.0100;
5256076088504336;-0.0011;-0.0013;0.0089;
5256076098594753;0.0032;-0.0035;0.0121;
5256076108699544;0.0021;-0.0035;0.0132;
5256076118804284;-0.0000;-0.0024;0.0111;
5256076128922253;-0.0032;-0.0013;0.0111;
5256076139027044;-0.0011;0.0019;0.0121;
5256076149131784;-0.0011;0.0008;0.0121;
5256076159232669;-0.0021;-0.0024;0.0121;
5256076169337461;-0.0011;-0.0035;0.0100;
5256076179442201;0.0011;-0.0035;0.0068;
5256076189536940;-0.0000;-0.0045;0.0057;
5256076199641732;-0.0011;-0.0035;0.0025;
5256076209746523;-0.0021;-0.0024;0.0025;
5256076219818294;-0.0000;-0.0013;0.0015;
5256076229923086;0.0011;-0.0035;-0.0007;
5256076240027826;0.0043;-0.0045;-0.0049;
5256076250181419;0.0053;-0.0035;-0.0092;
5256076260286159;0.0064;-0.0045;-0.0134;
5256076270369388;0.0075;-0.0067;-0.0177;
5256076280474180;0.0085;-0.0067;-0.0220;
5256076290578971;0.0064;-0.0035;-0.0252;
5256076300711940;0.0043;-0.0024;-0.0252;
5256076310816732;0.0053;-0.0013;-0.0262;
5256076320921471;0.0064;-0.0035;-0.0273;
5256076330997044;0.0075;-0.0045;-0.0294;
5256076341101784;0.0075;-0.0067;-0.0284;
5256076351206576;0.0075;-0.0067;-0.0294;
5256076361371992;0.0064;-0.0067;-0.0284;
5256076371476784;0.0107;-0.0056;-0.0262;
5256076381581576;0.0234;-0.0045;-0.0252;
5256076391640221;0.0160;-0.0088;-0.0294;
5256076401745013;0.0138;-0.0099;-0.0305;
5256076411849805;0.0085;-0.0099;-0.0294;
5256076421958555;0.0043;-0.0088;-0.0294;
5256076432063346;-0.0043;-0.0067;-0.0294;
5256076442168138;-0.0053;-0.0013;-0.0284;
5256076452257721;-0.0011;-0.0003;-0.0305;
5256076462362513;0.0021;-0.0035;-0.0294;
5256076472467357;0.0085;-0.0045;-0.0262;
5256076482574180;0.0128;-0.0077;-0.0241;
5256076492679023;0.0128;-0.0109;-0.0198;
5256076502783763;0.0107;-0.0099;-0.0188;
5256076512907409;0.0064;-0.0056;-0.0156;
5256076523012201;0.0032;-0.0024;-0.0134;
5256076533116992;0.0021;0.0008;-0.0092;
5256076543201576;0.0043;0.0040;-0.0092;
