Sensor: bmi160 Accelerometer Non-wakeup
Vendor: BOSCH
TimestampAcc [ns]; AccX [m/s^2]; AccY [m/s^2]; AccZ [m/s^2]
583772551769774;-9.4693;-0.9975;-2.1338;
583772561915920;-9.4573;-1.0502;-2.1410;
583772572003993;-9.4525;-1.0813;-2.1864;
583772582152014;-9.4525;-1.0908;-2.2199;
583772592272691;-9.4382;-1.0693;-2.1912;
583772602386389;-9.4430;-1.0478;-2.1745;
583772612479982;-9.4717;-1.0095;-2.1793;
583772622595139;-9.4502;-0.9640;-2.1769;
583772632660764;-9.4334;-0.9305;-2.2247;
583772642805295;-9.4478;-0.9162;-2.2343;
583772652900972;-9.4645;-0.9305;-2.2104;
583772663010035;-9.4980;-0.9425;-2.2510;
583772673072951;-9.4478;-0.9568;-2.2295;
583772683200399;-9.4478;-0.9568;-2.1745;
583772693309774;-9.4525;-0.9592;-2.1266;
583772703409670;-9.4980;-0.9879;-2.0859;
583772713522066;-9.4813;-1.0047;-2.0740;
583772723621024;-9.4597;-1.0406;-2.1218;
583772733723316;-9.4717;-1.0310;-2.1410;
583772743826649;-9.4837;-1.0095;-2.1170;
583772753937066;-9.4813;-0.9784;-2.1410;
583772764034357;-9.4669;-0.9520;-2.1625;
583772774150764;-9.4669;-0.9544;-2.1147;
583772784243420;-9.4573;-0.9592;-2.1218;
583772794356962;-9.4717;-0.9855;-2.1362;
583772804444253;-9.4669;-1.0023;-2.1218;
583772814555399;-9.4860;-1.0502;-2.1051;
583772824660920;-9.4693;-1.0789;-2.0740;
583772834762691;-9.4860;-1.0836;-2.0716;
583772844866337;-9.4597;-1.0860;-2.0788;
583772854976441;-9.4597;-1.0789;-2.0931;
583772865078420;-9.4741;-1.0597;-2.1003;
583772875188889;-9.4621;-1.0693;-2.1170;
583772885288420;-9.4549;-1.1004;-2.0907;
583772895396024;-9.4741;-1.1291;-2.0979;
583772905497066;-9.4525;-1.1390;-2.0764;
583772915602743;-9.4621;-1.1243;-2.0812;
583772925712326;-9.4717;-1.1291;-2.0812;
583772935833107;-9.4717;-1.1533;-2.0644;
583772945921753;-9.4525;-1.1315;-2.0692;
583772956025087;-9.4837;-1.1291;-2.0859;
583772966123837;-9.4669;-1.1171;-2.1099;
583772976228472;-9.4502;-1.1100;-2.1505;
583772986334305;-9.4478;-1.0956;-2.1601;
583772996440087;-9.4430;-1.0645;-2.1577;
583773006538524;-9.4597;-1.0190;-2.1840;
583773016641649;-9.4597;-0.9975;-2.1577;
583773026762795;-9.4693;-0.9999;-2.1314;
583773036856857;-9.4765;-1.0023;-2.1553;
583773046968837;-9.4717;-0.9903;-2.1410;
583773057064774;-9.4621;-0.9616;-2.1864;
583773067167535;-9.4741;-0.9401;-2.2343;
583773077265764;-9.4717;-0.9114;-2.2295;
583773087374566;-9.4621;-0.9162;-2.2343;
583773097484357;-9.4693;-0.9018;-2.2463;
583773107608889;-9.4669;-0.8922;-2.2319;
583773117693316;-9.4549;-0.8898;-2.2367;
583773127797691;-9.4789;-0.9138;-2.2199;
583773137913941;-9.4573;-0.9257;-2.1960;
583773148024305;-9.4669;-0.9449;-2.2032;
583773158121649;-9.4454;-0.9281;-2.1936;
583773168218212;-9.4525;-0.9114;-2.2415;
583773178320555;-9.4597;-0.9042;-2.2223;
583773188414357;-9.4430;-0.8922;-2.2343;
583773198533732;-9.4621;-0.8922;-2.2439;
583773208633941;-9.4454;-0.8898;-2.2008;
583773218738941;-9.4430;-0.9233;-2.2056;
583773228848524;-9.4502;-0.9520;-2.2295;
583773238938107;-9.4549;-0.9712;-2.2128;
583773249051076;-9.4597;-1.0286;-2.1888;
583773259155816;-9.4502;-1.1100;-2.1434;
583773269242847;-9.4597;-1.1124;-2.1697;
583773279377639;-9.4525;-1.0262;-2.1625;
583773289468628;-9.4358;-1.0119;-2.1194;
583773299572743;-9.4430;-1.0669;-2.0282;
583773309680920;-9.4358;-1.1462;-1.9899;
583773319784045;-9.4693;-1.2251;-2.0282;
583773329893732;-9.4884;-1.3041;-2.0617;
583773339988837;-9.4597;-1.3759;-2.0210;
583773350097066;-9.4693;-1.4264;-1.9229;
583773360208160;-9.4789;-1.4647;-1.8009;
583773370295660;-9.4884;-1.5317;-1.6977;
583773380415764;-9.4765;-1.6083;-1.6355;
583773390514566;-9.4956;-1.7139;-1.6379;
583773400630295;-9.4956;-1.8598;-1.6570;
583773410752066;-9.4765;-1.9726;-1.6810;
583773420814045;-9.4717;-1.9678;-1.6475;
583773430926962;-9.5004;-1.9364;-1.5302;
583773441030660;-9.5052;-1.9196;-1.4198;
583773451114097;-9.5028;-1.9798;-1.3098;
583773461239045;-9.5052;-2.1138;-1.2882;
583773471385139;-9.4860;-2.2409;-1.3528;
583773481449305;-9.4837;-2.3390;-1.4174;
583773491544774;-9.5148;-2.3749;-1.4007;
583773501670868;-9.5315;-2.4036;-1.3385;
583773511755191;-9.4932;-2.3557;-1.2739;
583773521878993;-9.4478;-2.2935;-1.2568;
583773531963576;-9.4645;-2.1975;-1.3146;
583773542072066;-9.5052;-2.1544;-1.3504;
583773552172274;-9.4980;-2.1497;-1.4079;
583773562294982;-9.4597;-2.1377;-1.4940;
583773572409357;-9.4621;-2.0659;-1.5589;
583773582521805;-9.4406;-2.0037;-1.6140;
583773592605243;-9.4454;-1.9702;-1.6403;
583773602722847;-9.4693;-1.9415;-1.6379;
583773612814045;-9.4525;-1.8598;-1.6140;
583773622932535;-9.4286;-1.7521;-1.6475;
583773633029566;-9.4310;-1.6875;-1.7480;
583773643124357;-9.4286;-1.6298;-1.8033;
583773653233212;-9.4023;-1.5820;-1.8129;
583773663334670;-9.4573;-1.5485;-1.7985;
583773673458368;-9.4789;-1.5700;-1.7815;
583773683566232;-9.4286;-1.6059;-1.7647;
583773693674045;-9.4430;-1.6155;-1.7312;
583773703752014;-9.4525;-1.6155;-1.6834;
583773713859878;-9.4693;-1.5724;-1.6618;
583773723967691;-9.4310;-1.5341;-1.6331;
583773734077170;-9.4549;-1.4838;-1.6642;
583773744185035;-9.4741;-1.4551;-1.6618;
583773754292847;-9.4789;-1.4910;-1.6044;
583773764388993;-9.4837;-1.5724;-1.5565;
583773774496857;-9.4789;-1.6705;-1.4892;
583773784604670;-9.4717;-1.7067;-1.4007;
583773794707535;-9.4813;-1.7617;-1.3193;
583773804815399;-9.5076;-1.7617;-1.2978;
583773814923212;-9.4717;-1.7234;-1.3169;
583773825018785;-9.4430;-1.6923;-1.3361;
583773835126649;-9.4382;-1.6202;-1.4055;
583773845234462;-9.4334;-1.5293;-1.4486;
583773855327951;-9.4430;-1.4192;-1.4964;
583773865435816;-9.4238;-1.3161;-1.5203;
583773875543628;-9.4382;-1.2179;-1.5757;
583773885644618;-9.3736;-1.0262;-1.7025;
583773895752482;-9.3760;-0.9066;-1.7192;
583773905860295;-9.4047;-0.8922;-1.9373;
583773915967326;-9.3233;-0.7484;-2.2463;
583773926075191;-9.2827;-0.5088;-2.3303;
583773936183003;-9.3449;-0.3939;-2.3351;
583773946318680;-9.3616;-0.2429;-2.3085;
583773956426545;-9.3257;0.0206;-2.3399;
583773966534357;-9.3114;0.1307;-2.5193;
583773976582118;-9.2874;0.1259;-2.8235;
583773986689982;-9.2201;0.1546;-3.1181;
583773996797795;-9.1747;0.1977;-3.2859;
583774006893472;-9.2178;0.2459;-3.3601;
583774017001337;-9.2201;0.2770;-3.3266;
583774027109149;-9.1484;0.3200;-3.3003;
583774037204097;-9.0861;0.3248;-3.4107;
583774047311962;-9.0742;0.3033;-3.5279;
583774057419774;-9.0790;0.2124;-3.6117;
583774067549201;-9.0742;0.1283;-3.6260;
583774077657066;-9.0790;0.0135;-3.6212;
583774087764878;-9.0718;-0.2955;-3.5638;
583774097838368;-8.7123;0.4253;-4.9986;
583774107946232;-8.8442;0.9141;-5.0515;
583774118054045;-9.5267;-0.5566;-3.7340;
583774128148576;-8.8729;-0.1328;-3.6933;
583774138256441;-8.3339;0.7513;-4.6537;
583774148364253;-8.6644;0.5094;-5.3390;
583774158477430;-8.7461;0.6601;-4.6944;
583774168585295;-8.8801;0.5907;-4.5174;
583774178693107;-8.8537;1.0077;-5.4562;
583774188761597;-8.7027;1.1489;-6.6012;
583774198869462;-8.4682;1.6615;-6.8504;
583774208977274;-8.4033;2.5884;-7.1788;
583774219093837;-8.6596;2.4712;-7.0875;
583774229201701;-8.6477;2.3803;-6.2444;
583774239309514;-8.4177;2.1407;-5.6049;
583774249401337;-8.5017;1.6041;-5.6169;
583774259509201;-8.5041;1.1465;-5.9282;
583774269617014;-8.3172;0.7753;-6.2492;
583774279720451;-8.0895;0.4660;-6.6541;
583774289828316;-8.5041;0.1116;-7.1548;
583774299936128;-9.2393;-0.0081;-7.0588;
583774310023993;-8.7051;0.4229;-6.1798;
583774320131857;-7.6176;0.8758;-5.3605;
583774330239670;-7.3229;0.9332;-5.3940;
583774340348785;-7.6223;0.5788;-5.6599;
583774350456649;-8.4583;0.0374;-5.7987;
583774360564462;-9.9150;-0.1376;-5.7461;
583774370669670;-10.4755;0.0422;-5.2478;
583774380777535;-9.2536;0.2602;-4.8503;
583774390885347;-7.6992;0.1283;-5.1712;
583774401030451;-6.8198;0.2961;-5.6145;
583774411138316;-7.6056;0.2411;-5.6456;
583774421246128;-8.8346;0.1355;-5.3414;
583774431301493;-9.6275;-0.1807;-5.1640;
583774441409357;-10.1210;-0.3891;-5.3844;
583774451517170;-9.0742;0.3057;-5.1736;
583774461572951;-7.1698;0.4878;-4.6777;
583774471680816;-7.4644;0.1020;-5.0707;
583774481788628;-9.3090;0.0422;-5.0755;
583774491896701;-9.8527;0.5907;-3.3362;
583774502004566;-7.9986;1.0196;-2.2702;
583774512112378;-8.5208;0.5022;-4.0047;
583774522229253;-10.1976;0.1810;-5.1353;
583774532337118;-9.9485;0.2674;-4.3735;
583774542444930;-8.1541;-0.0849;-4.3759;
583774552534618;-7.9316;-1.1171;-6.5940;
583774562642482;-9.7591;-0.9425;-6.9583;
583774572750295;-7.0762;0.7585;-1.9804;
583774582884410;-8.7580;0.8327;0.5850;
583774592992274;-12.3033;-0.8560;-0.2390;
583774603100087;-10.6648;-0.7914;-0.4113;
583774613175503;-9.2249;-1.0741;-2.1075;
583774623283368;-8.4559;-1.5389;-4.4189;
583774633391180;-6.6260;-0.8922;-4.3519;
583774643485243;-7.6439;-0.3676;-4.3639;
583774653593107;-10.4611;-0.0296;-4.5269;
583774663700920;-11.1245;0.6577;-3.0416;
583774673811389;-9.8767;1.2517;-1.3624;
583774683916597;-7.9484;1.5706;-0.9263;
583774694021805;-7.8380;0.7295;-1.2473;
583774704114930;-8.7218;0.2626;-3.1253;
583774714220139;-11.7523;0.1116;-5.4969;
583774724325347;-11.5271;1.4841;-4.4070;
583774734438941;-8.2549;2.1024;-1.6475;
583774744544201;-7.3540;2.1742;-1.3911;
583774754649410;-6.2880;2.4377;-2.9076;
583774764733472;-8.9614;2.2866;-6.2659;
583774774838680;-11.4338;3.0580;-5.8083;
583774784943889;-10.6457;3.9948;-2.0234;
583774795048680;-10.2646;4.2751;-2.2175;
583774805153889;-9.8671;4.3349;-3.4657;
583774815259097;-6.9470;4.3421;-2.5600;
583774825364201;-8.9231;2.6414;-4.4767;
583774835469410;-12.4205;2.6076;-5.3653;
583774845574618;-10.0804;4.6343;-2.1721;
583774855679201;-8.8777;4.4569;-2.6130;
583774865784410;-9.2321;3.6401;-4.4743;
583774875889618;-6.4558;4.1432;-2.5911;
583774885996180;-5.9575;3.4223;-2.1194;
583774896101389;-9.2608;1.8102;-3.9664;
583774906206597;-12.4134;2.1790;-4.4309;
583774916304097;-10.6217;3.4343;-3.1926;
583774926409305;-9.2779;2.2196;-3.5423;
583774936514514;-9.1244;1.0819;-3.6452;
583774946614410;-6.3410;1.8389;0.1181;
583774956719618;-6.6595;1.6208;0.9111;
583774966824826;-11.3737;0.5357;-4.1148;
583774976925972;-11.7165;0.8710;-5.4634;
583774987031180;-9.2489;1.9490;-3.5686;
583774997136389;-9.0239;1.6017;-3.8847;
583775007237274;-8.5831;0.9212;-3.7149;
583775017342482;-7.4836;1.1680;-1.3528;
583775027447743;-9.3927;1.4387;-1.2544;
583775037557430;-10.6840;1.6113;-2.6225;
583775047662639;-9.6156;1.9633;-2.5409;
583775057767847;-8.8537;1.5754;-3.0320;
583775067863576;-9.4645;0.9404;-4.8957;
583775077968785;-9.4860;0.8088;-4.2179;
583775088073993;-7.9890;1.7548;-2.5863;
583775098178889;-8.5352;2.1263;-2.6154;
583775108284097;-9.1914;2.1024;-2.2128;
583775118389305;-8.5878;1.2855;-3.4442;
583775128497535;-10.3726;0.7442;-6.2300;
583775138602743;-10.4970;0.3966;-5.7293;
583775148707951;-9.3951;1.0026;-3.9039;
583775158812222;-7.6199;2.0614;-2.0258;
583775168917430;-6.7840;2.4377;-1.8655;
583775179022639;-8.0273;2.0856;-3.0368;
583775189124878;-10.3316;1.3860;-4.3687;
583775199230087;-9.8216;0.9715;-5.6695;
583775209335295;-9.7232;0.2841;-5.8229;
583775219444357;-8.8801;1.0316;-4.7303;
583775229549566;-6.7481;1.8126;-3.2955;
583775239654774;-7.8571;1.0412;-4.2371;
583775249753785;-8.4512;0.3775;-5.2744;
583775259858993;-8.7963;-0.8946;-6.7738;
583775269964201;-5.8881;-2.1999;-7.9717;
583775280079201;-11.9465;-1.9172;-8.5729;
583775290184410;-11.9967;-0.1902;-4.2179;
583775300289618;-5.9910;0.2865;-3.1110;
583775310373368;-7.5242;-1.4192;-7.5595;
583775320478576;-8.1326;-1.3280;-5.0468;
583775330583785;-5.1766;0.8806;0.5228;
583775340716441;-7.1818;1.0890;-1.1994;
583775350821701;-12.3775;-0.2142;-5.6097;
583775360926910;-12.5907;-0.7292;-4.6059;
583775371021910;-7.6223;-0.6479;-2.2869;
583775381127118;-5.3204;-1.5293;-1.5781;
583775391232378;-6.9087;-1.5126;-0.9455;
583775401324045;-10.5305;-0.1687;-2.9985;
583775411429253;-13.6376;-1.0095;-6.4840;
583775421534514;-14.6148;-1.2203;-5.1975;
583775431616389;-7.4596;0.6577;0.3553;
583775441721597;-5.0282;0.2554;-0.6628;
583775451826805;-7.5984;-0.9712;-3.6117;
583775461964774;-8.2190;-0.5064;-3.0942;
583775472069982;-10.9570;1.3980;-3.3601;
583775482175191;-11.3952;4.0786;-3.4178;
583775492279201;-9.0431;4.4979;-3.3482;
583775502384410;-10.9020;3.5420;-4.5413;
583775512489618;-11.5726;3.9661;-3.6045;
583775522587743;-9.1555;3.7911;-1.7264;
583775532692951;-6.8438;2.9838;-2.0139;
583775542798160;-10.4779;1.4387;-3.5734;
583775552893055;-13.3190;2.1550;-1.1468;
583775562998264;-8.2310;2.2172;1.1937;
583775573103472;-7.4501;1.0747;-1.1707;
583775583199618;-9.3784;0.0398;-1.9899;
583775593304826;-11.7667;-1.2682;-1.7623;
583775603410035;-12.0876;-1.1725;-1.0534;
583775613517535;-9.6993;-1.0406;-0.8234;
583775623622743;-8.5711;-0.7101;-1.1204;
583775633727951;-10.1665;-1.2395;-0.7516;
583775643825347;-9.5291;-1.6780;-0.5001;
583775653930555;-9.0000;-1.3089;-1.4892;
583775664035764;-10.2622;-0.9138;-2.6082;
583775674169305;-9.2922;-1.0645;-1.9828;
583775684274514;-10.4970;-0.8010;-1.6666;
583775694379722;-10.4300;0.1427;-1.5302;
583775704460347;-8.8418;0.9978;-2.6824;
583775714565555;-8.0178;1.6735;-3.6766;
583775724670764;-7.8452;1.4315;-2.9937;
583775734782170;-9.1771;0.7609;-3.3338;
583775744887430;-11.6013;1.7955;-3.7723;
583775754992639;-9.4382;1.9968;-2.3638;
583775765085347;-8.5663;2.7108;-3.9736;
583775775190555;-9.5797;2.2172;-4.9173;
583775785295764;-10.2287;0.9691;-2.0716;
583775795402691;-8.3937;0.7729;0.0006;
583775805507899;-8.3794;1.6137;-2.4165;
583775815613107;-9.9030;1.0196;-3.9664;
583775825716441;-10.6672;-0.5112;-2.7517;
583775835821649;-10.3220;-1.5676;-1.1707;
583775845926857;-8.5974;-1.1390;-1.8607;
583775856025972;-9.2321;-1.0669;-1.8655;
583775866131180;-8.5113;-1.3017;-1.1348;
583775876236389;-10.2790;0.4878;-4.1363;
583775886339514;-10.5616;-1.3591;-2.6871;
583775896444722;-8.1733;-1.0071;-1.1515;
583775906549930;-5.9791;-0.9305;-2.7757;
583775916657014;-11.5319;-1.1052;-4.5078;
583775926762222;-14.9862;-1.5724;-1.9134;
583775936867430;-6.3096;-1.0980;0.8318;
583775946976493;-5.5361;0.2554;-4.0932;
583775957081701;-12.3655;0.2578;-5.3629;
583775967186910;-10.7725;-1.5054;-0.0784;
583775977292639;-7.7901;-0.1807;-1.4294;
583775987397847;-8.5639;1.0723;-4.9388;
583775997503055;-10.6385;0.1331;-3.3601;
583776007600139;-7.8356;-0.9592;-2.2080;
583776017705347;-8.0034;-0.0993;-4.4046;
583776027810555;-10.8972;1.3382;-4.9340;
583776037911597;-9.0120;0.3248;-3.1062;
583776048016805;-7.7590;-0.0248;-3.3817;
583776058154930;-9.5629;0.3966;-3.6069;
583776068260139;-10.5975;1.0723;-2.0740;
583776078365399;-8.8322;0.5764;-2.3997;
583776088424514;-8.8729;0.5907;-4.1698;
583776098529722;-10.7510;1.0196;-3.4178;
583776108634930;-10.8586;1.6950;-1.9301;
583776118741805;-6.8079;0.7008;-1.8129;
583776128847014;-7.0929;-0.0993;-3.7125;
583776138952222;-10.4635;0.5166;-4.7450;
583776149056285;-9.4597;1.3645;-3.8034;
583776159161493;-9.3544;1.7094;-3.9497;
583776169266701;-7.7495;0.4588;-4.0406;
583776179372118;-9.6969;0.0135;-5.5762;
583776189477326;-14.4257;1.9513;-3.0727;
583776199582535;-10.1856;2.7132;1.0905;
583776209692535;-6.1804;0.5572;-1.3098;
583776219797743;-11.8050;-0.6359;-3.7316;
583776229902951;-11.2540;1.5730;-0.3921;
583776239995972;-6.1373;1.3454;-0.9837;
583776250101180;-9.0598;-0.5279;-5.6097;
583776260206389;-12.5046;1.8293;-4.4644;
583776270315868;-9.0574;3.5731;-0.7564;
583776280421076;-5.5696;1.2541;-2.9076;
583776290526285;-8.7413;1.6759;-6.5246;
583776300659670;-12.3990;2.7921;-4.1794;
583776310764930;-7.4883;3.4678;-1.4821;
583776320870139;-6.4104;1.4387;-5.2525;
583776330928264;-13.3956;1.8508;-6.2444;
583776341033472;-12.1259;5.0369;-0.6843;
583776351138732;-8.5017;3.1756;-0.7732;
583776361246805;-9.3353;0.1881;-1.9421;
583776371352014;-12.5381;0.9069;0.2258;
583776381457222;-9.6538;1.4387;2.3578;
583776391552066;-7.6848;-0.9736;0.8605;
583776401657326;-8.7389;-2.9210;-0.7083;
583776411762535;-9.4214;-2.5642;-0.9215;
583776421889826;-9.9604;-2.2600;-1.3481;
583776431995035;-10.2239;-1.1844;-1.6546;
583776442100243;-8.4153;-1.1291;-1.1707;
583776452186180;-9.3497;-1.8048;-0.5001;
583776462291389;-11.5606;-0.2333;-0.7202;
583776472396597;-10.6122;-0.0176;-0.1023;
583776482509774;-7.0499;-0.6168;0.6978;
583776492614982;-9.6538;-0.6383;-0.5216;
583776502720191;-11.7763;0.6649;-0.7708;
583776512833524;-9.6921;0.4301;0.3096;
583776522938732;-8.2095;0.8016;-0.0592;
583776533043941;-6.7409;-0.1878;-1.2835;
583776543137639;-7.4788;-1.2395;-2.1410;
583776553242847;-11.7260;-1.2060;-3.6523;
583776563348055;-16.0331;-1.1363;-1.9732;
583776573453576;-8.8274;0.0900;-0.0257;
583776583558785;-8.5448;-0.7292;-2.4978;
583776593663993;-12.7657;-0.0873;-3.1158;
583776603766857;-10.0561;-0.9473;-1.4294;
583776613872066;-10.4922;-0.4681;-1.9971;
583776623977274;-7.6872;0.7872;-2.4930;
583776634075139;-6.3242;-0.9353;-2.7996;
583776644180347;-11.0360;-0.5853;-4.5413;
583776654285555;-10.7988;0.4038;-4.1435;
583776664391805;-8.2023;0.7729;-4.2897;
583776674497014;-8.6764;1.3860;-5.0539;
583776684602222;-8.6189;1.1680;-4.3854;
583776694713472;-8.5663;0.1235;-3.7627;
583776704818680;-9.5315;0.4158;-3.5758;
583776714923889;-9.2850;0.6170;-3.0153;
583776725031180;-10.0537;-0.0033;-3.0272;
583776735136389;-11.1583;0.7872;-2.7159;
583776745241597;-9.5342;-0.2740;-2.4093;
583776755343993;-8.8753;-1.0167;-1.4127;
583776765449201;-7.4620;-1.1315;-0.3395;
583776775554410;-9.9987;-1.9125;-2.8020;
583776785653785;-12.5524;-1.6851;-3.1687;
583776795758993;-6.8656;-1.0932;-0.4762;
583776805864201;-4.7336;-1.9196;-2.9435;
583776815966597;-11.8600;-1.6923;-5.8110;
583776826071805;-12.6386;-0.1352;-1.2835;
583776836177014;-6.0655;-1.1773;0.4774;
583776846273680;-8.1876;-1.0334;-3.4490;
583776856378889;-11.2564;0.8231;-5.1784;
583776866484097;-13.6185;0.9236;-2.5768;
583776876588472;-7.8236;-0.1950;0.4199;
583776886693680;-4.3837;-1.6899;-3.4394;
583776896798889;-12.8830;-1.1171;-6.3715;
583776906926024;-13.3023;0.6314;-2.3037;
583776917031285;-8.8035;-1.2610;-0.9168;
583776927136493;-4.7743;-1.5867;-3.3817;
583776937230764;-9.2850;-1.2682;-5.9450;
583776947335972;-13.1106;-1.2538;-3.8010;
583776957441180;-10.3029;-1.1004;-0.2557;
583776967529514;-6.8079;-1.7450;-0.9502;
583776977634722;-7.1387;-1.6322;-2.5911;
583776987739982;-10.8781;-1.1363;-3.4490;
583776997843264;-11.4721;-0.8970;-2.6177;
583777007948472;-6.5324;-1.3256;-3.7627;
583777018053680;-7.6176;-1.7378;-5.2478;
583777028176285;-11.1679;-0.6072;-4.8861;
583777038281493;-10.0298;-0.4968;-3.4848;
583777048376337;-6.1923;-1.1605;-4.1291;
583777058481597;-8.1948;-1.6178;-4.4094;
583777068586805;-11.9560;-0.3508;-2.4930;
583777078687535;-10.7701;0.1331;-1.1803;
583777088792743;-6.3506;-0.1424;-1.7073;
583777098897951;-7.5984;-0.7962;-3.8345;
583777108999722;-12.3224;0.7175;-3.9832;
583777119104930;-10.1450;1.3980;-2.8427;
583777129210139;-6.8270;0.4301;-3.9377;
583777139307847;-8.2047;0.0709;-5.4443;
583777149413055;-11.7547;1.3190;-4.9412;
583777159518264;-7.0977;2.0207;-1.5972;
583777169623576;-6.5901;-0.4801;-3.1878;
583777179728785;-11.8146;-0.1998;-5.1664;
583777189833993;-10.1091;1.6208;-4.6896;
583777199933993;-9.4621;0.6697;-3.7866;
583777210039201;-8.1039;0.3966;-2.2965;
583777220144462;-8.1589;1.1130;-3.4298;
583777230245347;-9.8504;1.1034;-4.6011;
583777240350555;-9.2154;0.8447;-4.6920;
583777250455764;-10.5042;0.3870;-3.4513;
583777260557482;-9.9509;1.7501;-2.7374;
583777270662743;-8.6405;0.7944;-3.0799;
583777280767951;-9.6754;-0.0993;-2.4691;
583777290870347;-9.2417;0.0781;-2.2822;
583777300975555;-8.1685;-0.3123;-3.8225;
583777311080816;-10.7725;-0.8369;-4.1148;
583777321194201;-10.7773;-0.4777;-1.2473;
583777331299410;-7.5314;-0.5279;-1.6283;
583777341404618;-8.5735;-1.1653;-3.6476;
583777351497743;-11.3019;-1.3352;-3.2883;
583777361602951;-10.1330;-0.9233;-1.8607;
583777371708160;-8.1613;-1.1797;-2.2654;
583777381843264;-8.3794;-1.4599;-3.6766;
583777391948472;-10.0131;-0.3772;-3.9401;
583777402053680;-9.6993;-0.4274;-3.5303;
583777412120972;-9.0598;-0.2859;-4.1530;
583777422226180;-8.7867;0.1403;-3.2716;
583777432331389;-6.8079;0.2530;-3.9425;
583777442479930;-9.4717;0.3535;-6.0793;
583777452585139;-10.7581;0.7585;-3.5207;
583777462690347;-8.3770;0.9882;-3.4083;
583777472765191;-9.3999;0.4397;-4.7279;
583777482870399;-9.6538;1.0699;-3.2501;
583777492975607;-8.9566;1.8820;-2.9483;
583777503069826;-7.1097;1.1225;-5.0396;
583777513175035;-11.3833;1.0747;-3.8871;
583777523280243;-8.7772;1.4171;-2.5002;
583777533395816;-9.3712;0.9954;-3.7149;
583777543501024;-9.2154;0.8447;-2.9291;
583777553606232;-7.5362;1.8532;-3.7029;
583777563703472;-10.3534;1.5993;-4.5389;
583777573808680;-10.2335;0.7128;-3.3266;
583777583913889;-8.8944;0.8949;-2.9028;
583777594016180;-10.0537;0.5189;-1.9277;
583777604121389;-8.2047;0.6051;-2.8618;
583777614226597;-8.0154;1.3023;-4.9101;
583777624335035;-9.2489;0.7801;-4.4719;
583777634440243;-9.3114;1.1632;-4.8933;
583777644545451;-9.0431;0.8064;-4.3783;
583777654648680;-11.6973;0.5931;-2.3949;
583777664753889;-7.6391;0.2028;-0.6987;
583777674859097;-7.1698;1.1225;-4.2873;
583777684968472;-10.2718;0.7992;-5.5475;
583777695073680;-10.1976;0.3583;-3.6069;
583777705178889;-9.9293;0.6194;-2.3085;
583777715275139;-6.6906;0.6505;-2.0764;
583777725380347;-8.0489;1.2350;-5.3988;
583777735485555;-10.6528;1.0026;-4.7231;
583777745575347;-8.9925;0.6434;-2.7829;
583777755680555;-9.8192;0.9141;-4.0956;
583777765785764;-9.8599;0.7175;-3.6260;
583777775893055;-7.3038;0.3751;-2.7852;
583777785998264;-8.7676;0.7008;-4.0549;
583777796103472;-11.1631;0.3799;-4.7713;
583777806215764;-10.1809;0.3655;-4.0525;
583777816320972;-6.5949;0.5955;-1.6905;
583777826426180;-7.5793;0.4038;-4.7450;
583777836518993;-10.7390;0.9236;-5.6551;
583777846624201;-10.1856;0.1666;-3.8465;
583777856729410;-6.6882;0.1044;-2.1458;
583777866840139;-9.8504;-0.1352;-3.1735;
583777876945347;-12.9906;0.1762;-3.1376;
583777887050555;-9.6873;-0.9353;0.2617;
583777897157535;-6.6236;-1.8359;-2.0692;
583777907262743;-9.9532;-0.7412;-4.2682;
583777917367951;-9.5916;-1.0286;-3.0392;
583777927490972;-7.8500;-0.3218;-3.5877;
583777937596180;-7.6705;-0.1184;-5.0252;
583777947701389;-14.1359;-0.5925;-3.7388;
583777957784201;-8.8657;-0.6144;-0.9526;
583777967889410;-7.2703;-0.1280;-3.0703;
583777977994618;-7.9579;0.4588;-4.9196;
583777988110868;-10.4946;-0.1735;-4.9842;
583777998216076;-11.1847;0.7968;-3.7890;
583778008321285;-8.8513;1.3047;-1.7001;
583778018414514;-9.0814;0.8255;-2.4188;
583778028519722;-9.9676;1.4578;-1.8846;
583778038624930;-8.8322;1.1632;-2.2487;
583778048728524;-8.2549;1.5395;-5.1042;
583778058833212;-12.1666;0.7537;-4.9220;
583778068937951;-7.9098;2.2579;-2.8908;
583778079043889;-3.4376;1.4841;-4.3783;
583778089148576;-9.7974;1.6448;-6.5294;
583778099253316;-12.1331;2.2101;-5.5905;
583778109353160;-8.6692;1.3167;-3.4920;
583778119457847;-3.7585;0.9404;-2.9626;
583778129562587;-9.2441;0.4397;-5.7293;
583778139665451;-12.4878;1.8963;-4.9460;
583778149770139;-9.2922;0.9715;-4.2873;
583778159874878;-8.8250;0.9308;-3.0440;
583778169993264;-7.7088;0.5070;-3.3553;
583778180097951;-10.8876;0.5572;-4.3232;
583778190202691;-11.1221;0.0948;-4.2108;
583778200281910;-15.1899;1.0340;-3.3242;
583778210386597;-9.3736;0.0829;0.9996;
583778220491337;-2.9800;-0.3915;-2.9722;
583778230603680;-2.7906;-2.3342;-7.1812;
583778240708368;-10.0226;-0.5877;-9.7202;
583778250813107;-13.2541;0.8231;-6.8647;
583778260915660;-9.8097;0.1594;-2.6058;
583778271020347;-5.3372;-1.4432;-2.9650;
583778281125035;-8.9853;-0.4896;-5.4658;
583778291232691;-9.4980;0.6697;-4.1913;
583778301337430;-10.3917;1.4100;-3.3793;
583778311442170;-3.3248;-0.6144;-4.7833;
583778321533160;-14.0495;-0.1017;-4.6178;
583778331637847;-7.9723;0.5046;-0.7277;
583778341742587;-8.4730;0.4636;-4.6705;
583778351870660;-13.2733;1.0125;-4.2969;
583778361975347;-8.0489;1.7764;-4.4692;
583778372080035;-6.6715;1.1010;-5.2430;
583778382194097;-8.6764;1.4052;-5.3079;
583778392298785;-9.4334;2.4138;-4.9340;
583778402403472;-11.6635;2.1503;-4.4791;
583778412482222;-9.0311;2.9551;-1.7527;
583778422586910;-5.9743;2.3635;-3.6236;
583778432691649;-11.4769;3.0269;-5.5546;
583778442822014;-10.7677;3.8414;-3.1711;
583778452926701;-7.2990;2.6773;-4.8933;
583778463031441;-8.1589;1.2398;-4.3639;
583778473119201;-8.8729;1.9848;-2.3061;
583778483223889;-7.3974;0.4926;-4.0789;
583778493328628;-11.5774;0.1570;-4.3400;
583778503436805;-8.9016;0.0900;-3.7460;
583778513541493;-9.5533;-0.2572;-3.4370;
583778523646232;-9.9867;-1.3854;0.1038;
583778533747430;-6.5515;0.0829;-0.1669;
583778543852118;-9.1460;-1.9415;-3.4490;
583778553956857;-11.5367;0.2339;-3.9425;
583778564060191;-9.9676;-1.4480;-1.4557;
583778574164878;-6.7265;-0.3580;-2.2247;
583778584269618;-8.1565;-1.1148;-2.7661;
583778594375347;-7.3828;-1.1916;-3.5638;
583778604480035;-11.3426;-0.4609;-6.5916;
583778614584774;-15.4319;-0.1567;-3.5351;
583778624689722;-5.2917;1.2951;-2.3228;
583778634794410;-1.8494;-2.4443;-5.5304;
583778644899149;-8.5232;-0.8417;-6.7977;
583778655010868;-16.7949;0.8399;-5.3438;
583778665115555;-9.2201;0.2435;-1.3193;
583778675220295;-4.1058;0.9284;-0.6341;
583778685317118;-10.5879;-1.5891;-3.1038;
583778695421805;-13.8147;0.9715;-3.4083;
583778705526545;-8.2478;0.3176;-0.5743;
583778715634930;-4.1874;-0.2237;-3.1998;
583778725739618;-10.2622;-0.1089;-4.4644;
583778735844357;-10.7486;-0.5016;-2.8980;
583778745937118;-10.1498;1.3908;-2.9004;
583778756041805;-8.5328;-1.1916;-1.9756;
583778766146545;-16.0522;0.7657;-1.5661;
583778776256701;-20.4885;1.0149;1.7088;
583778786361389;-7.6896;1.1489;4.2503;
583778796466128;-3.5740;0.3966;0.1301;
583778806567118;-6.0846;-0.5734;-5.4251;
583778816671857;-10.8733;0.1570;-8.7236;
583778826776493;-12.1929;1.6854;-6.9583;
583778836885607;-5.9671;0.2889;-2.8140;
583778846990295;-5.4520;0.5309;-4.3184;
583778857095035;-8.2621;-0.8779;-5.1018;
583778867175868;-10.8682;1.0866;-3.6909;
583778877280555;-9.9604;0.2411;-3.2237;
583778887385295;-4.4028;0.2028;-3.8369;
583778897511597;-9.2154;0.4397;-5.9498;
583778907616337;-12.6194;1.4124;-1.9708;
583778917721024;-5.9839;1.4913;0.1875;
583778927829410;-5.5768;-0.1759;-5.1018;
583778937934097;-10.1904;0.7418;-6.3763;
583778948038837;-12.6171;0.9476;-3.5542;
583778958137951;-7.2918;0.2674;-3.5399;
583778968242639;-7.4022;-0.1783;-5.1305;
583778978347378;-10.3558;-0.2405;-3.5064;
583778988439305;-10.2407;0.1403;-3.2405;
583778998543993;-8.8370;-0.4418;-3.5877;
583779008648732;-7.3062;0.1929;-3.3242;
583779018768889;-7.5458;-0.4968;-6.4217;
583779028873576;-11.8289;0.1307;-11.7135;
583779038978316;-13.8676;0.6386;-7.8398;
583779049080347;-10.8781;1.2135;-1.1635;
583779059184930;-7.2799;-0.0296;0.7002;
583779069289566;-8.7509;0.0135;-1.5132;
583779079400764;-14.5884;-0.0153;-1.6834;
583779089505347;-8.6859;-0.7077;0.7959;
583779099609930;-3.6051;-0.5088;-2.2080;
583779109713576;-7.6968;-0.3242;-4.6274;
583779119818160;-9.6060;-1.2586;-4.8048;
583779129922795;-9.7831;0.1140;-4.8885;
583779140017222;-8.7003;0.5572;-2.6321;
583779150121805;-7.6223;-0.0849;-2.0234;
583779160226441;-6.8318;0.8303;-3.2477;
583779170341805;-10.3244;0.3990;-3.0966;
583779180446389;-10.5712;0.0781;-2.1170;
583779190550972;-8.3363;0.8973;-3.3314;
583779200656857;-8.6931;0.7968;-3.0440;
583779210761441;-9.4549;0.3727;-3.8656;
583779220866024;-13.2709;1.2879;-3.6069;
583779230952222;-11.0719;0.6912;-1.0223;
583779241056857;-8.3602;0.7872;-2.0812;
583779251161441;-8.4033;1.1058;-3.1783;
583779261286910;-12.0206;0.5285;-4.6035;
583779271391493;-11.2995;0.8686;-2.5313;
583779281496076;-8.2143;1.6591;-2.7326;
583779291577222;-8.3770;0.6984;-2.6895;
583779301681805;-6.2761;0.4134;-3.9377;
583779311786389;-8.6094;0.6721;-4.6490;
583779321920451;-11.8409;1.2879;-4.1148;
583779332025035;-9.2154;1.3310;-1.0415;
583779342129670;-7.1411;0.6362;-1.7336;
583779352212014;-8.2980;0.5644;-2.8283;
583779362316597;-7.0187;0.3176;-3.9712;
583779372421232;-12.5907;0.3942;-5.0539;
583779382524774;-10.6170;1.0603;-1.9828;
583779392629357;-6.3912;-0.3147;-2.7087;
583779402733993;-6.5468;-0.2979;-5.4682;
583779412835972;-11.1197;-0.2453;-5.9809;
583779422940555;-10.1139;0.5189;-5.4132;
583779433045139;-8.3818;-0.0224;-4.0932;
583779443174201;-8.3100;-0.5997;-4.5293;
583779453278785;-9.7591;-0.5471;-5.1592;
583779463383368;-11.2828;-0.0921;-4.5796;
583779473476389;-10.0995;0.1810;-1.9301;
583779483580972;-9.1077;0.0446;-2.6943;
583779493685607;-10.4683;-0.1208;-2.8765;
583779503794305;-9.4645;-0.1304;-2.4978;
583779513898889;-8.5113;-0.2524;-1.6762;
583779524003472;-8.8992;0.1475;-3.1134;
583779534091910;-9.3520;-0.1448;-3.6885;
583779544196493;-8.3291;-0.1735;-3.5734;
583779554301076;-6.9470;0.1594;-5.3509;
583779564418160;-7.7016;-0.0296;-6.3978;
583779574522743;-10.4827;0.2001;-4.2634;
583779584627326;-9.9365;-0.5231;-2.6704;
583779594729305;-7.7375;-0.0993;-2.7589;
583779604833889;-7.7136;-0.3915;-4.5796;
583779614938472;-10.2742;0.2124;-4.2251;
583779625042430;-12.5548;0.0733;-2.7852;
583779635147014;-12.9404;0.5764;-0.9837;
583779645251649;-6.5324;0.2219;0.4008;
583779655355451;-5.8475;-0.0511;-2.8956;
583779665460035;-10.9546;-0.8106;-6.0550;
583779675564618;-10.1186;0.3751;-4.3519;
583779685676857;-7.7495;0.1379;-4.5317;
583779695781441;-7.7255;-0.7675;-4.9627;
583779705886024;-9.1651;-0.1807;-3.9377;
583779715988680;-10.4324;-0.0464;-3.1134;
583779726093264;-10.4827;0.0924;-3.0870;
583779736197899;-8.1829;0.3823;-2.4906;
583779746300555;-7.3684;0.2626;-2.0043;
583779756405139;-10.0179;0.2100;-3.2740;
583779766509774;-11.3163;-0.0009;-2.5241;
583779776616597;-10.2096;0.6673;-1.7264;
583779786721180;-6.9661;0.6482;-1.8224;
583779796825764;-6.6595;-0.0009;-3.7460;
583779806927118;-10.5162;0.2841;-5.7700;
583779817031701;-10.7940;-0.5375;-4.8359;
583779827136337;-8.6596;0.7343;-1.9134;
583779837238941;-9.0000;0.5118;-3.4250;
583779847343524;-10.9211;-0.2907;-5.4945;
583779857448160;-12.2100;0.4660;-1.1204;
583779867575555;-8.5184;0.3775;-0.4881;
583779877680139;-7.9866;-0.1328;-3.1878;
583779887784722;-10.5042;0.5740;-3.1878;
583779897873576;-10.0346;0.0230;-2.2175;
583779907978160;-8.1230;0.4253;-2.3901;
583779918082743;-7.8547;-0.1184;-5.0779;
583779928184930;-8.6213;0.5429;-5.0515;
583779938289514;-8.4897;0.1451;-2.7972;
583779948394097;-9.5004;-0.6359;-3.4920;
583779958498785;-9.0096;-0.0559;-2.9818;
583779968603368;-8.1039;0.0254;-4.4046;
583779978707951;-9.1962;0.6075;-4.3448;
583779988819149;-9.8815;-0.1759;-3.8465;
583779998923732;-8.3554;0.5859;-1.6259;
583780009028316;-9.2560;0.0996;-3.2812;
583780019133680;-10.3439;0.3296;-2.9961;
583780029238264;-10.3029;0.2698;-3.5830;
583780039342847;-10.0561;0.7968;-1.6427;
583780049432014;-9.2898;0.6888;-2.6345;
583780059536597;-8.5639;0.4277;-3.0200;
583780069641180;-7.9146;0.4493;-4.9173;
583780079749618;-10.5712;0.8686;-4.8909;
583780089854201;-11.5343;1.6041;-4.4958;
583780099958785;-7.3397;2.5693;-1.8631;
583780110066389;-6.6500;1.6591;-3.8177;
583780120170972;-9.8145;1.2182;-3.9350;
583780130275555;-10.9857;1.3286;-3.5183;
583780140371285;-8.6405;1.5945;-2.4835;
583780150475868;-7.7877;1.1345;-2.5050;
583780160580399;-10.0298;0.9117;-4.2419;
583780170692639;-10.8852;1.4411;-1.8081;
583780180797222;-8.0513;1.0220;-1.1037;
583780190901805;-8.9758;0.2889;-2.6776;
583780201028889;-11.0312;0.0589;-3.8034;
583780211133472;-9.9341;1.0460;-3.0296;
583780221238003;-7.8547;1.2903;-3.7125;
583780231324253;-7.4859;0.6577;-4.6418;
583780241428837;-9.5267;0.5979;-5.9737;
583780251533420;-11.8050;0.5955;-4.5221;
583780261648993;-10.0537;0.5381;-1.4270;
583780271753576;-8.0106;0.1427;-1.4270;
583780281858107;-9.1149;0.0517;-2.7757;
583780291934514;-9.1220;-0.4633;-2.8235;
583780302039097;-9.4956;-0.2548;-2.9028;
583780312143680;-8.1565;-0.1232;-3.1567;
583780322270660;-9.0790;-0.3003;-4.3974;
583780332375243;-11.0599;-0.1854;-4.2203;
583780342479774;-9.1029;-0.2477;-2.2534;
583780352593576;-8.0967;0.2650;-3.0942;
583780362698160;-10.2957;0.1187;-3.3936;
583780372802691;-9.6515;-0.0607;-3.3171;
583780382885451;-8.5280;-0.1783;-3.8465;
583780392990035;-10.0059;-0.3963;-3.8991;
583780403094566;-9.2632;-0.1161;-3.3793;
583780413195243;-8.9160;0.4253;-3.3410;
583780423299826;-9.8791;0.6458;-2.9913;
583780433404410;-8.7389;0.5309;-2.4954;
583780443506493;-7.4022;0.1379;-2.5887;
583780453611076;-7.4644;0.0422;-4.0023;
583780463715660;-9.8791;0.1666;-5.1855;
583780473839201;-11.2588;0.4950;-3.6045;
583780483943785;-9.1651;1.1584;-2.5986;
583780494048368;-10.2144;1.1465;-2.5289;
583780504148785;-10.0131;-0.0320;-0.9885;
583780514253368;-8.5519;0.3918;-2.3542;
583780524357951;-10.4324;0.1666;-3.7244;
583780534453680;-11.5271;0.8160;-2.7948;
583780544558264;-11.0432;0.7729;-2.2965;
583780554662847;-8.7389;0.3703;-1.3792;
583780564769514;-7.2153;0.1044;-2.6441;
583780574874097;-8.8155;0.2411;-5.6001;
583780584978680;-12.6386;1.0053;-4.6968;
583780595086024;-9.0191;0.8997;-2.1625;
583780605190607;-6.3625;0.2411;-1.8870;
583780615295139;-7.2535;-0.3266;-3.4753;
583780625401389;-9.0646;-0.3051;-4.3759;
583780635505972;-10.0179;0.7848;-3.9473;
583780645610555;-8.6022;0.7056;-3.3577;
583780655719514;-8.9207;0.4950;-3.5303;
583780665824097;-9.5004;0.4158;-3.0296;
583780675928680;-9.2034;0.2001;-2.9172;
583780686036180;-8.0513;-0.1328;-3.9473;
583780696140764;-10.3941;0.5142;-4.9627;
583780706245295;-10.6313;0.4253;-3.2596;
583780716341701;-8.5926;0.2483;-3.6957;
583780726446285;-9.9724;0.6362;-4.4791;
583780736550868;-11.8217;0.7343;-2.6297;
583780746625868;-9.9628;0.4277;-1.7910;
583780756730451;-7.4859;0.0350;-1.6307;
583780766834982;-8.1470;-0.1256;-3.3458;
583780776970555;-10.3774;-0.4178;-3.4968;
583780787075139;-9.4860;0.1929;-2.9794;
583780797179722;-7.9340;0.1810;-3.0224;
583780807296180;-7.9316;-0.3194;-3.7005;
583780817400764;-10.3750;0.1929;-3.1591;
583780827505347;-9.5797;-0.5734;-2.2606;
583780837596180;-8.2214;0.0230;-3.6045;
583780847700764;-7.8141;0.0350;-3.7771;
583780857805347;-9.7926;-0.0535;-3.6571;
583780867919097;-10.4659;0.1570;-3.1496;
583780878023680;-8.1876;0.4110;-2.7422;
583780888128264;-9.5629;0.8136;-3.6260;
583780898224618;-9.1795;0.6697;-3.0129;
583780908329201;-6.7098;0.7080;-3.4777;
583780918433732;-7.3014;0.7968;-5.2525;
583780928560035;-9.0239;1.3214;-5.5089;
583780938664618;-9.6347;0.1786;-3.2812;
583780948769201;-10.3630;1.4626;-2.8451;
583780958853941;-12.5501;0.7848;-2.4045;
583780968958524;-16.0403;1.5272;1.5721;
583780979063107;-10.7486;1.2039;3.5530;
583780989173576;-6.3266;0.0278;-1.4486;
583780999278160;-6.9972;-0.0778;-5.5953;
583781009382743;-9.6634;-0.2859;-5.9043;
583781019488680;-9.9269;0.1068;-3.8034;
583781029593264;-8.6189;0.5883;-3.4537;
583781039697847;-8.6883;0.4158;-4.2251;
583781049798576;-9.4262;0.3033;-3.3912;
583781059903264;-9.5988;-0.4155;-2.4500;
583781070007951;-8.6548;-0.3508;-2.5361;
583781080109618;-6.4271;-0.1017;-2.0163;
583781090214305;-7.0642;-0.6502;-3.4490;
583781100318993;-9.3640;-0.0945;-3.8967;
583781110426180;-9.2632;0.4181;-4.2514;
583781120530868;-8.0178;0.5381;-3.6790;
583781130635555;-7.6271;0.4397;-5.5690;
583781140801285;-12.0087;0.3488;-7.9908;
583781150905972;-12.1881;1.4243;-4.8814;
583781161010660;-9.9269;1.1010;-0.7756;
583781171041128;-8.1661;0.6338;-0.5360;
583781181145816;-9.0718;0.4540;-2.4523;
583781191250451;-10.7198;0.3176;-2.8908;
583781201349670;-10.4013;0.9404;-2.1793;
583781211454357;-7.3445;0.6458;-1.8751;
583781221559045;-6.0030;0.2387;-3.5949;
583781231654097;-9.6227;0.2411;-5.1209;
583781241758785;-11.1078;1.0364;-3.3840;
583781251863472;-9.8384;0.6003;-0.8258;
583781261993264;-8.6453;0.9165;-0.6413;
583781272097951;-6.4415;0.4445;-1.5350;
583781282202639;-9.0287;0.4854;-4.3687;
583781292339201;-11.4482;-0.1328;-3.7029;
583781302443889;-9.1914;0.6362;-2.4643;
583781312548576;-8.1829;0.0302;-3.3147;
583781322637587;-10.0442;0.8255;-3.3793;
583781332742274;-8.6285;0.6218;-3.5016;
583781342846962;-9.2632;1.0603;-3.4250;
583781352937118;-11.8385;0.6673;-2.7278;
583781363041805;-9.9963;0.6362;-1.0774;
583781373146493;-6.6428;0.4110;-2.1721;
583781383245347;-6.8007;0.2578;-3.3984;
583781393350035;-11.4841;-0.0320;-4.9914;
583781403454722;-10.7055;0.2363;-3.4992;
583781413555868;-8.1159;0.8758;-2.5986;
583781423660555;-9.1484;0.0685;-3.3840;
583781433765243;-10.6624;-0.3147;-3.0176;
583781443878941;-9.5052;-0.2237;-2.3471;
583781453983628;-8.8466;-0.1926;-2.7709;
583781464088316;-9.6921;0.0206;-3.8273;
583781474192951;-8.6931;0.3129;-3.7101;
583781484297639;-9.0287;0.6529;-3.8201;
583781494402326;-12.7849;0.1092;-2.3061;
583781504504722;-10.2407;0.2961;0.0556;
583781514609410;-6.2713;-0.3437;-1.7910;
583781524714097;-7.3062;0.3775;-6.0817;
583781534812326;-11.6133;0.1522;-5.1449;
583781544917014;-10.0633;0.0900;-2.8884;
583781555021701;-7.1121;0.6362;-2.5504;
583781565147847;-8.2262;-0.0296;-4.9555;
583781575252535;-10.1067;0.0900;-4.6872;
583781585357222;-8.8035;-0.3123;-2.8331;
583781595448264;-9.2632;0.4759;-3.4274;
583781605552951;-8.7580;0.0015;-3.4131;
583781615657639;-8.6692;0.3344;-5.0755;
583781625757222;-9.8647;0.7705;-2.7517;
583781635861910;-10.6433;-0.1759;-1.3672;
583781645966597;-11.5415;0.6649;-1.7384;
583781656075764;-7.7901;0.1427;-1.7743;
583781666180451;-7.5314;0.7848;-4.3017;
583781676285139;-12.2073;0.1307;-5.2669;
583781686394514;-12.1834;0.7585;-2.3037;
583781696499201;-8.1350;1.0436;-0.8545;
583781706603889;-8.7700;-0.1089;-3.2764;
583781716702118;-10.7366;0.6864;-3.5112;
583781726806805;-10.5305;0.4612;-1.0654;
583781736911493;-7.8045;-0.1831;-2.9506;
583781747011389;-9.0431;0.3248;-4.8120;
583781757116076;-9.2393;1.1465;-2.7015;
583781767220764;-7.6705;0.0924;-3.3601;
583781777326857;-7.7207;0.8997;-3.4107;
583781787431545;-7.3950;0.4205;-3.0655;
583781797536232;-5.8522;-0.0706;-6.4935;
583781807645868;-8.6070;0.6769;-7.3678;
583781817750555;-11.0767;0.9284;-5.2047;
583781827855243;-6.6284;0.7466;-2.8403;
583781837964201;-6.3242;0.9906;-3.2046;
583781848068889;-10.8562;0.1642;-5.1257;
583781858173576;-15.9661;0.6553;-1.7575;
583781868258524;-18.3760;0.8279;4.0490;
583781878363264;-11.3306;0.4854;2.9614;
583781888467951;-7.9388;1.9155;-0.4738;
583781898583472;-7.3899;-0.0033;-3.1134;
583781908688160;-10.7797;0.5716;-5.1568;
583781918792847;-11.4745;0.9691;-2.0043;
583781928913472;-8.2047;0.4062;-2.6249;
583781939018160;-6.7840;0.7008;-1.9947;
583781949122847;-7.0618;-1.1004;-5.9306;
583781959214201;-9.1819;-0.1831;-4.6250;
583781969318889;-8.0752;0.0446;-2.6512;
583781979423576;-6.2713;-0.3099;-4.6202;
583781989537639;-7.3181;-0.0320;-1.6116;
583781999642326;-8.0417;-0.4298;-3.3314;
583782009747014;-6.0150;-0.4155;-3.4777;
583782019838107;-9.4932;0.0230;-12.5231;
583782029942795;-14.6868;1.3669;-9.0135;
583782040047482;-10.6337;1.1728;0.6787;
583782050150347;-8.5208;0.7801;0.4152;
583782060254930;-9.6036;0.7777;-1.7862;
583782070359514;-10.1019;0.0924;-3.6619;
583782080458993;-10.6505;0.1116;-1.9612;
583782090563576;-8.8513;-0.0488;-3.6236;
583782100668160;-9.5148;0.3392;-2.3638;
583782110801024;-13.7740;-0.8201;-2.0474;
583782120905607;-11.5319;0.4684;2.3578;
583782131010191;-1.1713;-0.3027;0.6954;
583782141094826;-5.6366;-0.7364;-5.9163;
583782151199410;-13.6089;-0.0488;-6.6159;
583782161303993;-11.6061;0.8064;-0.6461;
583782171414410;-5.2436;-0.1519;-0.6532;
583782181518993;-6.7840;-0.1639;-4.9603;
583782191623576;-12.3918;-0.3338;-4.0789;
583782201710139;-11.8672;0.5453;-1.7910;
583782211814722;-4.2329;0.3033;-1.4198;
583782221919305;-5.5337;-0.0754;-7.1402;
583782232050972;-13.4818;0.2483;-4.9125;
583782242155555;-15.2545;1.0555;-1.3050;
583782252260139;-10.0370;1.2517;0.3287;
583782262348680;-5.9527;0.2195;-2.1003;
583782272453264;-8.6859;-0.0176;-4.9460;
583782282557847;-12.4277;1.1752;-5.3246;
583782292682118;-10.4420;1.4530;-2.3252;
583782302786701;-7.7327;1.8532;-1.5036;
583782312891285;-7.5864;-0.2572;-3.9999;
583782322996701;-10.7916;0.3200;-2.4835;
583782333101285;-6.3888;0.2148;-3.1663;
583782343205868;-6.4630;0.4134;-6.5366;
583782353288472;-13.0002;0.1642;-6.1654;
583782363393055;-10.7725;0.5046;0.9637;
583782373497639;-7.4836;0.2818;0.2258;
583782383602743;-8.1876;-0.5518;-3.8489;
583782393707326;-10.5233;-0.2812;-4.5197;
583782403811910;-10.9499;0.1690;-4.2347;
583782413913055;-10.1976;1.7548;-2.7302;
583782424017639;-8.5089;0.7537;-2.7278;
583782434122222;-8.5735;0.1331;-2.0545;
583782444236389;-11.5176;0.5835;-3.1424;
583782454340972;-11.4290;0.1786;-2.3590;
583782464445555;-8.1829;0.2578;-2.0812;
583782474557118;-8.0752;-0.1232;-3.0823;
583782484661701;-8.0417;-0.0464;-3.2524;
583782494766285;-10.4635;0.4181;-4.3113;
583782504866389;-12.7681;-0.1854;-3.0823;
583782514970972;-5.1144;0.2506;-1.6810;
583782525075555;-6.0583;-0.4753;-5.4993;
583782535186962;-12.5070;0.4950;-6.3377;
583782545291545;-13.9705;1.8556;-1.1468;
583782555396128;-8.3219;0.0015;0.4343;
583782565511962;-6.1923;-0.2046;-1.4127;
583782575616545;-8.8490;0.0996;-3.7819;
583782585721128;-10.7892;0.3224;-4.7474;
583782595808055;-11.4864;0.5046;-3.4729;
583782605912639;-9.9796;1.0412;-3.3912;
583782616017222;-9.7017;0.0135;-2.4165;
583782626122326;-8.4730;0.1235;-2.0617;
583782636226910;-9.7113;-0.0129;-2.7589;
583782646331493;-8.4607;-0.1400;-4.0837;
583782656436076;-8.0824;0.1379;-5.0372;
583782666540660;-10.8275;0.6170;-4.2084;
583782676645243;-12.3177;0.8758;-1.4701;
583782686743055;-6.8079;0.5692;0.5970;
583782696847639;-7.8212;-0.1328;-3.9230;
583782706952222;-17.2427;0.7056;-3.3075;
583782717059930;-4.0484;0.5189;0.6667;
583782727164514;-0.9846;-0.1137;-5.0970;
583782737269097;-11.7500;-0.2620;-10.2616;
583782747377743;-14.4712;1.1512;-5.0515;
583782757482326;-8.0513;0.7920;-0.1214;
583782767586910;-5.2173;-0.2644;-2.6345;
583782777684618;-9.1484;0.0135;-5.1616;
583782787789201;-13.4267;1.5514;-2.8259;
583782797893785;-11.6037;0.8016;1.0546;
583782808002326;-5.9192;0.1881;0.6114;
583782818106910;-7.5673;-0.0392;-4.5676;
583782828211493;-11.1631;0.4926;-4.9005;
583782838322326;-5.9839;0.6888;-3.5734;
583782848426910;-10.4539;0.9188;-8.0865;
583782858531493;-16.4880;1.8221;-2.2534;
583782868638941;-7.7782;0.9978;4.8802;
583782878743524;-4.9178;0.5189;-1.1372;
583782888848107;-5.7203;-1.4097;-6.9009;
583782898939618;-16.2966;0.9547;-5.4969;
583782909044201;-13.4530;0.9739;1.1073;
583782919148785;-6.5180;1.5969;0.0604;
583782929262639;-7.6080;-0.0849;-3.7866;
583782939367222;-10.4731;0.5548;-2.7685;
583782949471805;-10.9810;0.6817;-1.6570;
583782959572222;-9.7208;0.3655;-4.0430;
583782969676805;-6.7935;0.9643;-3.0224;
583782979781389;-8.3865;0.2148;-3.1376;
583782989881597;-9.2560;0.2148;-5.5184;
583782999986180;-10.6098;0.6482;-5.2310;
583783010090764;-11.1269;-0.0921;-2.9937;
583783020184930;-10.6122;0.8806;-0.2701;
583783030289514;-4.2664;0.2243;-0.9024;
583783040394097;-8.2214;0.4878;-5.9952;
583783050505243;-10.8251;0.3057;-5.4323;
583783060609826;-9.6515;1.0866;-2.6417;
583783070714410;-9.3473;0.5716;-3.3601;
583783080832014;-7.0499;0.6936;-2.8307;
583783090936597;-8.5831;0.5572;-4.3950;
583783101041232;-13.9466;-0.0200;-3.4561;
583783111108160;-9.3736;-0.2070;-0.4208;
583783121212743;-7.1001;0.6769;-1.2257;
583783131317326;-8.1302;-0.4442;-3.7149;
583783141440920;-11.3665;-0.0778;-4.5389;
583783151545503;-11.8983;0.7319;-3.0081;
583783161650087;-11.1464;1.3430;0.0054;
583783171775451;-8.0560;0.7896;0.1947;
583783181880035;-7.1363;-0.5423;-0.9960;
583783191984618;-8.9471;-0.2931;-4.2682;
583783202068055;-9.4956;-0.3461;-5.0420;
583783212172639;-8.4272;1.0002;-3.3338;
583783222277274;-9.0431;0.3392;-2.1721;
583783232417743;-8.8633;0.3081;-4.9627;
583783242522326;-9.9006;0.8088;-4.5030;
583783252626910;-7.9508;0.2459;-2.3276;
583783262712326;-8.3195;0.9212;-3.9350;
583783272816910;-8.9925;0.1762;-4.4046;
583783282921545;-8.4559;1.3454;-2.6991;
583783293046076;-9.7567;-0.1663;-2.9913;
583783303150660;-10.5473;0.3296;-3.4896;
583783313255243;-11.4000;0.3129;-1.9708;
583783323341701;-11.0121;1.0866;-0.5240;
583783333446285;-8.4802;0.1953;-1.3409;
583783343550868;-9.3090;0.1092;-3.4729;
583783353658889;-8.5974;0.0374;-3.3194;
583783363763472;-9.4406;-0.1448;-3.9230;
583783373868055;-9.2010;0.4086;-3.9377;
583783383974930;-9.4478;0.4445;-3.6452;
583783394079514;-9.1795;0.0470;-1.2954;
583783404184097;-7.2488;0.3942;-1.5589;
583783414280972;-5.8355;-0.5423;-2.1482;
583783424385555;-9.3209;-0.9449;-4.0932;
583783434490139;-14.9049;-0.1256;-3.4657;
583783444600451;-8.0704;0.1762;-0.6700;
583783454705035;-4.0220;1.1536;-3.8393;
583783464809618;-6.8991;-0.2788;-8.2400;
583783474915868;-11.1727;-0.5734;-6.2922;
583783485020451;-6.8007;0.9428;-1.6977;
583783495125035;-2.5199;0.2626;-4.7402;
583783505232118;-8.9686;-0.0730;-9.3347;
583783515336701;-45.8952;1.5057;4.7509;
583783525441285;-18.4765;2.6076;23.5053;
583783535545451;11.8170;1.7261;4.8347;
583783545650035;-3.3368;-3.7164;-10.0747;
583783555754618;-16.5841;-2.7389;-10.2329;
583783565823368;-9.5868;0.3583;-6.2061;
583783575928003;-5.2173;1.6328;-5.1353;
583783586032535;-6.8055;2.0880;-6.2707;
583783596163368;-8.9255;0.1451;-3.6909;
583783606267951;-5.2822;-0.5614;-3.4490;
583783616372535;-5.8857;-0.2142;-5.0898;
583783626472639;-10.2861;-0.2764;-0.9311;
583783636577274;-7.6944;-0.8803;5.5487;
583783646681857;-4.7862;0.3248;-14.5280;
583783656791701;-21.2049;-0.0176;-24.7950;
583783666896337;-12.3248;3.6930;4.2479;
583783677000868;-5.4066;3.4774;9.0652;
583783687104201;-8.5184;1.3860;-5.3438;
583783697208785;-8.0465;-0.4585;-4.6681;
583783707313420;-9.6634;-1.1219;-0.8880;
583783717422535;-10.1833;0.2698;-0.9670;
583783727527118;-9.0526;0.5261;-3.2142;
583783737631701;-11.0073;-0.1232;-1.5227;
583783747731701;-6.9254;-0.2883;2.7242;
583783757836285;-7.3950;0.2770;-0.7178;
583783767940868;-9.8216;-0.6933;-5.6958;
583783778051910;-9.6993;1.0555;-5.2430;
583783788156493;-9.6323;0.9763;-4.8766;
583783798261076;-7.7447;1.0244;-3.3266;
583783808363368;-7.1387;0.3918;-4.3615;
583783818467951;-13.5081;0.5716;-5.2286;
583783828572587;-12.7415;1.0149;2.1924;
583783838681285;-4.6543;0.6745;3.2345;
583783848785868;-8.6859;-0.4705;-5.8349;
583783858890451;-12.0470;0.0254;-4.3783;
583783868994097;-9.0239;1.5105;-1.1731;
583783879098680;-5.8594;0.2794;-4.2179;
583783889203264;-7.6992;0.9069;-6.0335;
583783899312847;-11.6683;1.1417;-4.9005;
583783909417430;-9.9389;1.4411;-2.7326;
583783919522066;-8.6381;1.1106;-3.0727;
583783929616389;-8.3172;0.5405;-3.1735;
583783939720972;-11.3521;-0.2094;-2.6321;
583783949825555;-11.9151;1.0220;-2.7350;
583783959929410;-13.5730;1.1871;-1.9062;
583783970033993;-9.9604;1.0651;0.9517;
583783980138576;-9.7854;-0.0826;-0.4352;
583783990239201;-9.6371;0.0924;-2.2247;
583784000343785;-7.8619;0.1905;-2.9387;
583784010448368;-10.7868;0.5357;-3.3410;
583784020560555;-10.6672;0.9452;-2.1625;
583784030665139;-9.0096;0.3296;-3.2931;
583784040769722;-8.7485;0.2674;-2.7159;
583784050875555;-7.7734;-0.2094;-3.8273;
583784060980139;-6.5157;-0.0826;-5.4084;
583784071084774;-9.0096;0.5118;-6.9631;
583784081186597;-10.1880;1.0603;-5.8158;
583784091291232;-9.3784;0.8351;-4.3663;
583784101395816;-9.0263;0.8064;-4.0884;
583784111493368;-7.2655;0.5357;-3.2309;
583784121597951;-11.2182;0.7609;-3.8321;
583784131702535;-11.4960;0.7442;-1.2162;
583784141825243;-6.1373;-0.1735;-2.0955;
583784151929826;-8.1063;0.2001;-5.1497;
583784162034410;-12.5333;-0.4944;-5.1497;
583784172141285;-11.4314;0.9882;-2.0019;
583784182245868;-7.8332;0.1642;-0.3562;
583784192350503;-9.9867;0.2650;-1.5203;
583784202458264;-9.2898;-0.1974;-0.5001;
583784212562847;-11.5176;1.7955;-1.5060;
583784222667430;-6.3144;-0.4513;-1.7862;
583784232758889;-8.5878;0.5764;-4.0884;
583784242863524;-10.8948;0.0206;-2.7805;
583784252968107;-8.7365;0.8399;-2.4117;
583784263079930;-6.5779;0.2794;-3.4394;
583784273184514;-8.9064;0.1092;-4.5221;
583784283289097;-11.0097;0.5381;-3.1974;
583784293382014;-10.1952;1.0053;-3.7364;
583784303486597;-8.7915;0.9093;-2.0234;
583784313591180;-7.7973;0.6936;-1.5924;
583784323702274;-11.0910;0.5094;-3.7196;
583784333806910;-13.6759;1.2541;-1.5470;
583784343911545;-8.0010;0.7056;-0.5958;
583784354020764;-6.6715;0.5261;-2.5050;
583784364125399;-7.9265;0.1499;-7.2601;
583784374230035;-9.4813;0.3416;-4.0741;
583784384329930;-8.5854;0.5907;-2.5481;
583784394434566;-10.9570;0.2459;-2.9626;
583784404539201;-9.3592;0.6434;-3.5088;
583784414633785;-8.6166;0.3009;-1.9014;
583784424738420;-9.5701;0.4974;-1.3098;
583784434843055;-11.2182;0.3344;-1.5251;
583784444962951;-9.0909;0.5477;-1.3265;
583784455067587;-7.5577;0.2483;-3.4011;
583784465172222;-10.7701;0.2411;-5.2645;
583784475272430;-9.9652;1.2159;-2.5696;
583784485377066;-8.0154;0.6984;-1.6259;
583784495481701;-7.5960;-0.1472;-2.1625;
583784505578264;-9.7376;-0.0224;-3.7531;
583784515682899;-11.3067;0.2937;-3.1253;
583784525787535;-10.5305;0.5166;-2.2558;
583784535918785;-8.8777;0.0613;-1.2425;
583784546023420;-10.1091;0.5022;-1.6403;
583784556128055;-12.1905;0.4205;-1.8966;
583784566199930;-4.3334;0.1475;-3.0751;
583784576304566;-4.0436;0.4014;-6.2898;
583784586409201;-12.7032;-0.5183;-7.4853;
583784596526285;-12.9715;0.9835;-2.4715;
583784606630920;-9.2249;0.5883;0.3840;
583784616735555;-7.5888;0.2818;-1.8368;
583784626836597;-9.3281;0.0661;-3.5590;
583784636941232;-10.7749;-0.2189;-1.8727;
583784647045868;-7.9866;0.2602;-2.8932;
583784657142222;-9.1268;0.5189;-4.5820;
583784667246857;-10.7605;0.8160;-3.8297;
583784677351493;-9.0933;1.4985;-2.3495;
583784687467691;-10.2000;0.1427;-2.2032;
583784697572326;-9.7376;-0.0754;-0.4618;
583784707676962;-8.8155;0.1068;-1.1635;
583784717783785;-10.3125;-0.1543;-3.2572;
583784727888420;-9.9796;0.5022;-4.4261;
583784737993055;-8.7844;0.5429;-4.3663;
583784748112170;-8.7290;0.4469;-2.4188;
583784758216805;-8.5041;0.4301;-2.4787;
583784768321441;-10.1545;0.1834;-2.8140;
583784778401076;-8.6883;0.8590;-2.5146;
583784788505712;-9.2946;0.5931;-3.2859;
583784798610347;-9.8982;0.0446;-2.7087;
583784808723576;-8.4634;0.6505;-3.1352;
583784818828212;-8.0632;0.1307;-2.8789;
583784828932847;-10.4252;-0.0176;-3.7651;
583784839040139;-12.5788;1.1536;-4.8622;
583784849144774;-10.1258;1.0436;-1.5517;
583784859249462;-8.0010;0.6888;-0.5719;
583784869377639;-8.3937;-0.5040;-2.0450;
583784879482274;-11.1942;0.8710;-2.8164;
583784889586910;-10.5999;0.3200;-2.1793;
583784899669305;-7.6872;0.7295;-1.8511;
583784909773941;-6.7289;0.3559;-3.8441;
583784919878576;-8.0847;-0.0655;-5.2597;
583784929978941;-8.2980;0.1977;-4.5054;
583784940083576;-8.1613;0.4110;-4.7545;
583784950188212;-9.5964;0.8877;-5.4203;
583784960280451;-11.0886;0.5142;-2.5528;
583784970385087;-9.4310;0.3679;-0.3586;
583784980489722;-8.8825;0.3320;-0.7995;
583784990599774;-7.9747;0.5931;-2.9506;
583785000704410;-6.2282;-0.0535;-4.4743;
583785010809045;-6.1636;0.4684;-5.2863;
583785020920139;0.2204;0.0326;-7.1524;
583785031024774;-23.0901;-0.0535;-5.9186;
583785041129462;-33.5489;1.1417;10.0307;
583785051226753;-4.6687;2.9791;14.0432;
583785061331441;3.6030;-0.3772;-1.9038;
583785071436076;-10.1139;-3.5871;-7.5643;
583785081538993;-13.4411;-1.3496;-7.1186;
583785091643576;-6.4893;0.9476;-3.5782;
583785101748264;-5.9647;2.7514;-5.7915;
583785111866337;-8.0871;0.8088;-5.1185;
583785121970972;-10.9379;-0.1759;-2.3157;
583785132075607;-9.7065;0.0781;0.7313;
583785142187326;-7.2009;0.0781;4.2742;
583785152291962;0.7929;-1.2156;-4.6011;
583785162396597;-15.8462;-0.6837;-24.4956;
583785172499618;-18.4047;1.5395;-8.7718;
583785182604253;-5.6318;2.3731;8.0231;
583785192708941;-4.7094;1.3645;-0.1238;
583785202825660;-12.2722;1.2039;-5.1449;
583785212930295;-16.1599;0.8877;1.5123;
583785223034930;-9.1771;0.6003;5.7763;
583785233106076;-5.0115;-0.6814;-1.0008;
583785243210712;-8.2693;-1.2730;-6.4409;
583785253315347;-7.6633;-0.6933;-4.0621;
583785263433264;-7.1507;-0.3843;-5.2095;
583785273537899;-10.9834;0.7295;-7.2314;
583785283642535;-11.8433;1.0771;-0.5480;
583785293748889;-8.4057;0.6362;0.0006;
583785303853524;-10.3798;0.0398;-1.9995;
583785313958160;-12.2172;0.7295;-0.4929;
583785324064357;-7.4859;0.4950;-0.1860;
583785334168993;-9.0718;-0.1831;-5.0396;
583785344273680;-12.4349;0.1451;-4.5748;
583785354378680;-7.3158;0.9595;-1.2544;
583785364483368;-6.4845;-0.2237;-4.4524;
583785374588003;-12.8925;0.7561;-5.3797;
583785384690972;-12.5836;0.9667;0.1875;
583785394795660;-6.9230;0.9715;0.5252;
583785404900295;-5.9886;0.0637;-4.3041;
583785415010764;-9.4717;-0.0730;-6.1798;
583785425115451;-10.4276;1.1728;-5.5137;
583785435220087;-8.0919;1.2709;-3.4729;
583785445319930;-10.6528;0.5333;-4.1578;
583785455424618;-10.8634;0.9332;-2.5672;
583785465529253;-10.4228;1.4052;-0.4137;
583785475635191;-11.8696;0.8112;-2.5122;
583785485739878;-9.9915;0.6649;-1.2497;
583785495844514;-8.0465;0.3176;-1.6762;
583785505942014;-8.7123;0.5261;-3.3601;
583785516046701;-9.0790;0.3296;-4.5867;
583785526151337;-7.9316;1.1489;-3.0392;
583785536255035;-5.8020;0.5237;-2.9172;
583785546359722;-9.5195;0.4711;-5.0587;
583785556464357;-11.0934;0.7681;-2.3447;
583785566555972;-5.4568;0.9332;-2.6847;
583785576660660;-5.7275;0.1499;-6.6012;
583785586765243;-11.9318;0.1642;-7.8972;
583785596880868;-13.7213;1.5514;-1.9875;
583785606985555;-9.7280;1.4841;0.7050;
583785617090191;-6.6595;0.6864;-0.7588;
583785627204722;-10.4492;0.2195;-3.0679;
583785637309410;-13.2159;0.8973;-2.0644;
583785647414045;-7.9747;-0.0129;1.1554;
583785657506389;-7.6801;0.3344;-2.2295;
583785667611024;-7.4357;-0.2022;-3.3171;
583785677715712;-8.9518;-0.0849;-4.7207;
583785687824930;-9.9150;0.1834;-4.9747;
583785697929618;-8.0321;0.8853;-2.1075;
583785708034253;-8.7051;0.6123;-2.5289;
583785718139722;-12.5118;0.4783;-2.6249;
583785728244410;-9.4549;0.2435;-1.3720;
583785738349045;-8.1350;0.8734;-1.9899;
583785748477118;-11.5941;0.2937;-2.6584;
583785758581805;-10.4946;-0.1424;-2.5552;
583785768686441;-9.0742;0.2387;-1.4868;
583785778770451;-6.4941;0.1355;-2.6752;
583785788875139;-10.0657;-0.0009;-5.3198;
583785798979774;-12.5955;0.7657;-3.3123;
583785809096076;-8.7867;0.1475;0.5109;
583785819200764;-6.6667;-0.1998;-1.2858;
583785829305399;-7.9412;-0.2835;-4.0813;
583785839400972;-12.0541;0.4974;-5.0707;
583785849505660;-9.8910;0.8375;-2.3566;
583785859610295;-9.4334;0.2219;-1.1539;
583785869712118;-12.4301;0.2028;-2.8307;
583785879816805;-9.6012;0.6769;-1.0678;
583785889921441;-7.6415;0.1427;-2.6847;
583785900023576;-11.3761;-0.0248;-3.7962;
583785910128264;-11.8409;0.5931;-1.6594;
583785920232899;-10.6816;0.1738;-1.0965;
583785930338264;-7.8739;0.0805;-1.2449;
583785940442951;-8.1661;-0.2213;-2.5600;
583785950547587;-8.4416;0.2100;-4.2658;
583785960667274;-9.1101;-0.2189;-3.9640;
583785970771910;-9.7161;0.3679;-4.3472;
583785980876597;-6.9876;-0.1496;-3.4394;
583785990952430;-5.3707;-0.1017;-7.0588;
583786001057066;-12.4684;1.0077;-7.3152;
583786011161753;-12.4660;0.9882;0.4606;
583786021286285;-6.0655;0.0350;-0.1190;
583786031390972;-7.5649;0.1379;-4.5604;
583786041495607;-13.5491;0.3392;-4.1937;
583786051579618;-13.0843;1.7022;-0.2797;
583786061684305;-6.4343;0.4902;0.4152;
583786071788889;-7.3229;-0.2070;-2.5552;
583786081927118;-8.5543;0.0398;-2.9674;
583786092031805;-6.0607;0.4062;-4.6992;
583786102136389;-11.7978;0.1331;-6.4911;
583786112223472;-13.0675;0.9715;-0.2557;
583786122328160;-8.1589;0.5453;1.9699;
583786132432795;-7.2200;0.1020;-3.1998;
583786142553160;-9.2584;0.0541;-3.0320;
583786152657847;-10.7031;1.3358;-3.0535;
583786162762482;-8.2382;-0.1543;-3.8632;
583786172847847;-8.3483;1.2903;-3.4298;
583786182952535;-11.5247;0.4205;-2.6967;
583786193057170;-10.3220;1.0125;-1.9971;
583786203153785;-8.6812;0.7128;-1.2425;
583786213258472;-8.7123;-0.3147;-1.6690;
583786223363107;-8.5663;0.8255;-3.0918;
583786233479201;-9.5243;0.1570;-4.4982;
583786243583889;-11.0910;0.4325;-4.0813;
583786253688524;-11.7332;1.7501;-0.8737;
583786263792951;-10.8251;0.4735;-0.2055;
583786273897639;-12.4684;0.1092;-1.7985;
583786284002274;-11.5511;0.6051;0.7146;
583786294114357;-2.8890;0.1690;-1.7169;
583786304219045;-4.1154;-0.2979;-9.0015;
583786314323680;-9.8121;0.1164;-10.2090;
583786324419201;-8.9925;1.0842;-4.3280;
583786334523785;-7.4477;-0.3413;-0.2198;
583786344628420;-8.2430;-0.6766;-2.9746;
583786354732430;-12.4301;0.3727;-3.1400;
583786364837066;-10.3534;0.2913;0.6066;
583786374941649;-9.2827;0.2961;-0.8617;
583786385058941;-8.9064;0.0422;-5.3031;
583786395163576;-7.7279;0.6458;-6.1463;
583786405268160;-8.0393;1.5969;-5.4826;
583786415372326;-9.8240;0.1068;-2.2391;
583786425476910;-6.4128;0.4998;1.1578;
583786435581545;-0.7044;-0.9975;-2.1314;
583786445680868;-12.1738;-0.5925;-5.9282;
583786455785503;-34.2030;1.5897;2.7338;
583786465890087;-12.4277;2.4209;14.1509;
583786475998524;5.2654;1.3645;-0.1836;
583786486103160;-6.6045;-3.0314;-9.3227;
583786496207743;-12.6027;-0.4226;-7.9211;
583786506294514;-8.6118;1.3980;-6.1271;
583786516399149;-8.0130;1.6256;-5.1209;
583786526503732;-9.2803;0.6338;-1.0439;
583786536616701;-10.6050;0.3440;0.1540;
583786546721337;-8.8944;-0.0057;1.5769;
583786556825920;-5.8929;0.1068;4.0681;
583786566927430;-4.8054;-0.5830;-10.2688;
583786577032066;-16.1025;-0.9305;-19.6185;
583786587136649;-11.7476;1.8580;-2.7589;
583786597241441;-6.5949;2.3803;2.4081;
583786607346076;-12.8399;1.0795;-2.6369;
583786617450660;-10.2072;1.0962;1.8835;
583786627574201;-10.5329;0.8877;2.7676;
583786637678837;-11.1727;-0.5997;-0.0329;
583786647783420;-8.0489;-0.8755;-2.1840;
583786657867014;-12.0685;-0.2859;-3.6766;
583786667971597;-10.2814;0.3033;-0.7202;
583786678076232;-3.9455;-0.0631;-3.0129;
583786688202014;-7.1387;-0.5136;-6.9344;
583786698306649;-8.4754;-0.0057;-4.9149;
583786708411232;-9.9676;1.0412;-4.8455;
583786718505868;-13.1010;0.3966;-3.3242;
583786728610503;-10.3173;1.0412;-0.2079;
583786738715087;-5.8044;-0.3628;1.1384;
583786748810660;-6.9087;0.3775;-4.0143;
583786758915295;-11.6731;0.0470;-5.1975;
583786769019878;-11.5798;1.2159;-3.6188;
583786779127222;-10.5162;0.3200;-3.0655;
583786789231857;-9.5486;0.6936;-1.2882;
583786799336441;-8.7652;0.4301;-0.7107;
583786809447535;-8.7461;0.6027;-1.0893;
583786819552170;-9.3975;-0.1448;-1.8081;
583786829656753;-10.8323;0.7104;-4.2921;
583786839766493;-10.1402;0.6458;-3.3194;
583786849871128;-8.2310;0.8471;-2.2152;
583786859975712;-9.4406;0.4301;-2.9148;
583786870077639;-11.7906;1.1776;-2.0426;
583786880182274;-8.4464;0.5429;-0.9670;
583786890286857;-9.4789;0.4950;-2.8499;
583786900386597;-9.7208;0.4783;-3.5255;
583786910491180;-7.0307;1.3190;-3.9520;
583786920595816;-8.3315;0.4854;-4.2009;
583786930718055;-8.9303;1.2326;-3.2118;
583786940822639;-7.6729;0.2865;-3.9784;
583786950927274;-11.3234;0.9212;-4.7016;
583786961016701;-13.3597;1.8867;-1.0678;
583786971121337;-8.8226;1.2374;0.9230;
583786981225972;-9.7735;0.5022;-2.1194;
583786991322951;-11.5989;1.2015;-1.6810;
583787001427587;-7.8763;0.5644;-2.3303;
583787011532170;-8.7772;1.6256;-5.4467;
583787021655868;-9.5940;0.7319;-4.0430;
583787031760451;-7.6657;1.6256;-1.8727;
583787041865087;-9.1555;0.2794;-2.8813;
583787051946701;-9.4884;0.2052;-2.3037;
583787062051337;-8.1135;1.1082;-2.7685;
583787072155920;-8.7171;0.5931;-3.8154;
583787082284253;-10.6624;0.8495;-4.2802;
583787092388837;-11.7141;0.7466;-2.0186;
583787102493472;-8.1876;0.8255;-2.7972;
583787112582639;-8.1924;0.9930;-3.8177;
583787122687274;-12.4660;0.6147;-2.1386;
583787132791857;-11.9632;0.9500;-0.7971;
583787142915451;-7.6008;0.4181;0.2880;
583787153020087;-7.2105;-0.0945;-2.1984;
583787163124670;-9.2082;-0.3147;-4.9292;
583787173230972;-15.6425;0.6386;-3.0966;
583787183335607;-11.7093;0.0446;1.3445;
583787193440191;-5.4449;0.2124;0.4271;
583787203522535;-5.2316;-0.7388;-5.7700;
583787213627170;-10.3173;0.4974;-7.7847;
583787223731753;-10.3869;0.1762;-3.8656;
583787233859097;-6.6380;-0.3532;-3.3888;
583787243963732;-9.9987;-0.0706;-4.9196;
583787254068316;-12.5907;-0.3027;-2.1817;
583787264157639;-7.9508;-0.4250;0.3311;
583787274262274;-5.6988;-0.3365;-1.8105;
583787284366857;-7.1145;-0.9042;-5.4562;
583787294469357;-13.5538;-0.2046;-5.6910;
583787304573993;-13.5802;0.5620;-2.9411;
583787314678576;-9.6275;0.2626;0.8198;
583787324779774;-9.1555;0.2171;1.2320;
583787334884410;-9.4908;-0.9042;-0.7059;
583787344989097;-9.6251;0.0087;-1.6714;
583787355113941;-7.4644;-0.5279;-2.5265;
583787365218576;-8.0680;-0.6694;-5.3438;
583787375323264;-11.0623;0.1570;-4.3902;
583787385407014;-10.5640;-0.0176;-1.3624;
583787395511649;-7.7997;1.0196;0.2139;
583787405616337;-5.0163;-0.6096;-3.9087;
583787415734930;-7.9217;0.2818;-7.6624;
583787425839566;-10.9427;0.1905;-4.5102;
583787435944201;-10.6528;1.3167;-3.3984;
583787446041285;-8.9279;1.3525;-2.5504;
583787456145920;-9.4765;1.1369;-1.3600;
583787466250555;-10.7725;0.9308;-0.4810;
583787476357743;-12.1977;1.0603;-0.3467;
583787486462378;-9.0766;0.2961;-0.4208;
583787496567014;-6.0990;0.7872;-1.8942;
583787506665243;-6.2641;0.1211;-6.0383;
583787516769878;-4.9923;0.7247;-6.8842;
583787526874514;-5.4066;0.1475;-5.4562;
583787536982639;-20.3139;0.6960;-2.6034;
583787547087274;-31.5296;2.8184;7.4722;
583787557191962;-8.5472;3.8294;11.5397;
583787567295035;3.2913;-1.0956;1.0762;
583787577399670;-7.6104;-3.0625;-7.5380;
583787587504305;-15.3383;-1.1964;-9.4208;
583787597617430;-8.6955;2.4999;-3.8512;
583787607722066;-2.4601;1.8891;-4.7713;
583787617826701;-5.7538;0.1379;-8.3429;
583787627943785;-9.8599;-0.0488;-2.4523;
583787638048420;-6.3697;-0.0033;1.2511;
583787648153055;-3.5596;-0.2094;-3.9039;
583787658235035;-6.8510;-0.0993;-18.2602;
583787668339670;-16.5817;0.2315;-15.0431;
583787678444305;-10.9618;1.5320;3.2656;
583787688561389;-6.6978;1.9370;4.8610;
583787698666024;-11.6877;1.9250;0.6906;
583787708770712;-13.3358;2.1359;-1.3863;
583787718866180;-11.9728;0.7705;3.6730;
583787728970816;-6.3191;-0.5782;4.0681;
583787739075451;-4.4363;-0.2405;-3.4825;
583787749185347;-9.3520;-0.8010;-5.1855;
583787759289982;-9.9485;0.1738;-0.8976;
583787769394618;-12.4517;0.7609;-0.8163;
583787779493055;-11.8576;0.1522;-0.0975;
583787789597691;-4.1130;-0.3099;-0.5862;
583787799702326;-6.6117;-0.5423;-5.3246;
583787809806597;-10.1545;0.0876;-7.0995;
583787819911232;-7.4357;0.4612;-4.9531;
583787830015920;-12.1235;0.5524;-3.5925;
583787840110555;-11.1990;-0.1783;-1.4557;
583787850215191;-10.3244;0.3775;1.6319;
583787860319878;-12.4998;0.5955;0.8943;
583787870430972;-13.0627;0.4854;-0.3395;
583787880535607;-6.6428;0.7271;-1.7575;
583787890640243;-4.5658;-0.1950;-6.1415;
583787900810660;-15.9924;0.9667;-6.5390;
583787910915295;-8.0632;0.2076;0.2809;
583787921019930;-6.4774;1.0268;-1.4486;
583787931057535;-10.6505;-0.6096;-2.9674;
583787941162170;-8.8513;-0.0655;-2.1123;
583787951266857;-8.4849;0.2148;-4.2371;
583787961420243;-9.9939;-0.7460;-3.1181;
583787971524878;-9.0431;-0.1184;-3.1205;
583787981629514;-11.8600;0.3655;-5.6934;
583787991690503;-11.5367;-0.0057;-0.8163;
583788001795139;-8.4320;0.7295;-0.2151;
583788011899774;-8.1494;1.0125;-1.7862;
583788022010139;-6.6404;-0.2381;-3.2812;
583788032114774;-10.5784;0.1235;-5.5618;
583788042219410;-11.9342;0.1259;-2.4332;
583788052331753;-8.3076;-0.0921;-1.9205;
583788062436389;-7.3469;-0.1783;-1.8129;
583788072541024;-9.8886;-0.0248;-2.9459;
583788082633524;-12.2578;-0.5758;-3.5566;
583788092738160;-10.7031;0.4902;-1.3361;
583788102842847;-8.6955;-0.1113;-3.5327;
583788112952847;-7.1961;0.5405;-3.5064;
583788123057482;-7.5888;0.0900;-3.1878;
583788133162170;-11.5558;-0.2596;-3.6452;
583788143252222;-9.8695;0.0135;-2.5744;
583788153356857;-8.7003;0.4229;-1.6522;
583788163461493;-9.5868;-0.2285;-1.8846;
583788173589826;-11.3474;0.2650;-1.2066;
583788183694462;-10.6505;-0.1448;-1.1707;
583788193799097;-10.2048;0.2961;-2.0306;
583788203885868;-7.0786;0.4493;-3.5447;
583788213990503;-8.5400;0.6649;-5.4873;
583788224095139;-11.0695;0.5524;-2.0764;
583788234211910;-7.5912;0.5668;-2.3638;
583788244316545;-8.5280;0.0494;-4.2371;
583788254421180;-10.6552;0.2076;-2.6225;
583788264515139;-9.7974;-0.0511;-1.4653;
583788274619774;-9.0048;0.7561;-1.8081;
583788284724410;-8.8059;-0.1902;-3.1424;
583788294837743;-8.8753;0.9380;-3.5830;
583788304942378;-9.3473;0.5381;-5.4443;
583788315047014;-9.0287;1.0220;-2.8068;
583788325146285;-8.4440;0.2148;-0.6078;
583788335251024;-11.3641;0.4998;-2.8140;
583788345355712;-12.5309;0.5596;-0.6293;
583788355468472;-7.9962;0.9212;0.6643;
583788365573212;-7.8045;-0.5471;-1.8990;
583788375677899;-9.6849;0.0948;-3.8512;
583788385765035;-10.4850;0.1642;-3.2118;
583788395869722;-9.8767;0.7920;-2.6010;
583788405974462;-7.9050;0.5070;-3.0799;
583788416085347;-7.8715;0.6410;-2.5241;
583788426190035;-9.7256;0.0135;-2.1625;
583788436294774;-8.2597;0.5859;-2.7087;
583788446403785;-8.4224;-0.2596;-3.8752;
583788456508472;-7.6534;0.3679;-4.2634;
583788466613212;-7.1049;-0.5471;-4.8024;
583788476711389;-6.9206;0.1905;-4.0502;
583788486816076;-7.5338;0.0709;-3.5399;
583788496920816;-22.8386;1.5658;-1.2715;
583788507029097;-23.6172;2.6797;6.7343;
583788517133785;-3.9431;2.0976;8.4999;
583788527238472;0.5174;-0.9712;-1.2787;
583788537339930;-9.0263;-2.6838;-9.6628;
583788547444618;-14.4616;0.0589;-7.3487;
583788557549305;-9.8073;2.1885;-0.5910;
583788567650868;-9.2297;1.2039;-0.2366;
583788577755607;-7.1602;-0.0105;-1.6810;
583788587860295;-6.1684;-0.1783;-0.4714;
583788597969514;-8.2143;0.2506;-2.8741;
583788608074253;-4.9537;-0.3748;-7.2529;
583788618178941;-9.4095;0.7319;-14.6934;
583788628311493;-13.2206;1.1489;-8.2639;
583788638416180;-12.3368;1.9801;0.9589;
583788648520868;-10.6241;1.9394;4.3412;
583788658593160;-8.8944;1.2087;2.5950;
583788668697899;-10.6265;-0.0969;-1.9493;
583788678802587;-10.1833;-0.0105;-1.9277;
583788688919097;-8.2956;-0.1950;-1.7312;
583788699023837;-11.4577;0.7247;-4.7617;
583788709128524;-9.5486;0.5118;-0.0257;
583788719230555;-5.7108;0.1379;-0.6628;
583788729335243;-11.2301;0.0637;-3.5662;
583788739439982;-11.0504;0.2124;-2.4069;
583788749545972;-7.9531;0.5883;-1.9564;
583788759650660;-7.1626;-0.2524;-4.1698;
583788769755399;-11.0025;0.1451;-5.2816;
583788779861180;-10.6648;0.1092;-2.0043;
583788789965920;-9.0479;0.3679;-2.6321;
583788800070607;-10.5855;0.7104;-2.4523;
583788810162951;-7.2799;-0.1304;-2.0716;
583788820267691;-8.7389;0.2794;-3.9230;
583788830372378;-9.9197;0.1355;-3.0535;
583788840483055;-11.0527;0.8638;-3.3171;
583788850587743;-8.8059;0.3846;-2.3901;
583788860692430;-8.5902;0.2602;-2.6345;
583788870790660;-11.7835;0.5189;-1.7815;
583788880895399;-8.6405;0.0900;-1.1109;
583788891000087;-7.3469;0.5979;-3.6838;
583788901104462;-10.4228;0.4759;-3.9326;
583788911209201;-10.4755;0.8447;-2.1577;
583788921313941;-11.1559;0.4831;-1.5924;
583788931420555;-8.7171;0.5548;-1.1396;
583788941525243;-8.5735;0.0302;-1.8009;
583788951629982;-8.7437;0.2985;-3.4011;
583788961724305;-8.8944;-0.4729;-2.7494;
583788971828993;-9.8623;-0.2812;-2.5959;
583788981933732;-7.4979;-0.0873;-2.6249;
583788992054982;-10.4755;0.8686;-4.5867;
583789002159722;-11.6707;0.5166;-1.8368;
583789012264410;-9.7998;0.5022;0.8414;
583789022363055;-7.8356;0.0111;-1.9851;
583789032467795;-10.6696;0.3535;-4.2897;
583789042572482;-13.8365;0.5118;-2.9650;
583789052677535;-9.8169;0.9021;-0.1959;
583789062782274;-6.6188;0.2961;-1.8224;
583789072886962;-8.5017;-0.0057;-3.4418;
583789083020347;-8.9255;0.1762;-3.6308;
583789093125035;-9.2154;0.9906;-3.9377;
583789103229774;-5.9958;-0.4155;-3.4011;
583789113315191;-7.1913;0.3081;-4.2562;
583789123419930;-10.5760;0.1810;-5.0898;
583789133524618;-14.4257;1.2135;-2.4787;
583789143619826;-9.7519;0.5979;1.2990;
583789153724514;-6.5276;0.1594;-1.5326;
583789163829253;-10.8682;-0.0969;-5.1497;
583789173947639;-13.1752;1.3047;-1.5132;
583789184052326;-9.0311;1.0340;0.2545;
583789194157066;-9.3401;0.6075;-2.4332;
583789204249930;-9.3018;0.2722;-1.0822;
583789214354618;-8.1924;0.2435;-0.4594;
583789224459357;-8.8226;-0.3772;-2.9315;
583789234566389;-8.2621;0.0541;-4.0525;
583789244671076;-8.6740;0.2674;-5.2792;
583789254775816;-9.0287;-0.2189;-5.1592;
583789264877639;-10.4252;0.8399;-2.8331;
583789274982326;-9.1627;0.5094;-1.6211;
583789285087066;-9.2465;0.7247;-2.6393;
583789295199097;-11.5295;0.9332;-3.0511;
583789305303837;-9.9437;0.4373;-0.6245;
583789315408524;-8.2119;0.5907;-1.0822;
583789325505764;-7.5769;-0.1328;-3.8584;
583789335610451;-12.5979;0.5070;-3.9544;
583789345715087;-10.6361;0.4469;-0.8043;
583789355821076;-7.1363;0.0541;-0.7923;
583789365925764;-10.0370;-0.1256;-2.5887;
583789376030399;-6.2521;-0.2764;-1.5036;
583789386139201;-3.2363;0.5596;-6.3954;
583789396243837;-4.7815;-0.6311;-8.4147;
583789406348524;-9.3999;0.6170;-6.8767;
583789416450191;-31.2781;1.4483;2.2116;
583789426554826;-17.7194;3.5970;13.1327;
583789436659514;1.2721;2.6462;4.8467;
583789446760555;-3.9981;-3.5991;-5.9976;
583789456865191;-17.0513;-2.3198;-7.7560;
583789466969878;-14.6270;0.0757;-1.7097;
583789477072118;-5.2292;3.0724;0.4319;
583789487176805;-6.8752;0.3511;-3.8967;
583789497281441;-9.2154;-0.1472;-2.9004;
583789507391493;-6.1493;0.4636;0.7983;
583789517496128;-2.4218;-0.2429;-0.6963;
583789527600816;-5.9073;-1.4408;-15.5557;
583789537702847;-18.2560;-0.4633;-18.7059;
583789547807535;-12.0374;2.4066;1.3732;
583789557912170;-6.3625;1.8867;3.2656;
583789568017014;-7.2870;1.5467;-1.6355;
583789578121701;-9.0861;0.7343;-4.0190;
583789588226337;-16.7181;1.9633;-2.5911;
583789598328368;-12.4878;1.4602;3.1986;
583789608433003;-5.4664;0.0900;1.0475;
583789618537691;-7.2583;-0.5447;-2.5839;
583789628669097;-9.1962;-0.0153;-3.0846;
583789638773732;-9.6826;0.2243;-1.9899;
583789648878420;-8.7772;0.2770;-2.7685;
583789658955764;-8.0201;0.1810;-2.8693;
583789669060399;-9.3760;0.9787;-4.3831;
583789679165087;-10.4420;0.8758;-3.6021;
583789689281597;-8.9734;1.3573;-1.0606;
583789699386232;-6.4199;0.8542;-2.3157;
583789709490920;-8.6572;0.5381;-4.9460;
583789719592222;-10.6720;0.7394;-5.1616;
583789729696857;-10.7749;0.9667;-3.1663;
583789739801545;-10.0322;1.3502;-1.2811;
583789749909410;-7.1411;0.3129;-1.2066;
583789760014097;-12.7920;0.6386;-2.4595;
583789770118732;-13.9633;1.5969;0.4798;
583789780216180;-5.1646;0.9332;-0.0664;
583789790320816;-7.6247;-0.1280;-4.5724;
583789800425503;-11.6973;0.9476;-3.7531;
583789810525972;-7.6391;1.1584;-0.8833;
583789820630607;-8.4416;0.0063;-3.7101;
583789830735295;-10.4420;0.2028;-4.6035;
583789840847639;-8.4416;0.2148;-1.5900;
583789850952274;-10.5879;-0.1280;-2.3276;
583789861056962;-15.8701;0.5357;-0.5527;
583789871187378;-8.7796;1.0364;1.2679;
583789881292014;-5.0617;-0.0129;-4.7327;
583789891396753;-9.3544;0.1427;-5.6001;
583789901480243;-6.9661;0.5883;-1.8464;
583789911584878;-9.7184;0.2171;-3.8560;
583789921689566;-12.3703;-0.0921;-3.5088;
583789931789305;-11.1488;0.6003;-0.5958;
583789941893941;-8.2884;-0.3676;0.2450;
583789951998628;-7.5362;-0.4035;-2.1051;
583789962100139;-8.1230;-0.7436;-4.1028;
583789972204774;-7.5960;0.2722;-6.9559;
583789982309462;-10.9427;0.7152;-7.4183;
583789992429097;-12.9404;1.2832;-0.6413;
583790002533732;-7.8452;0.3320;2.9255;
583790012638420;-3.4926;-0.3508;-0.4714;
583790022732222;-6.9470;-0.3508;-6.5294;
583790032836910;-13.7381;-0.2859;-5.9474;
583790042941545;-11.3019;0.3535;0.1756;
583790053046805;-8.6788;-0.5973;-1.6570;
583790063151493;-11.2134;1.0053;-1.1157;
583790073256128;-10.7581;0.5405;-0.6748;
583790083362014;-11.2086;1.1489;0.0676;
583790093466649;-7.5458;0.3057;-0.1310;
583790103571337;-6.2904;-0.0009;-3.7675;
583790113674826;-8.4057;-0.0129;-6.2611;
583790123779462;-10.9475;1.0699;-3.4633;
583790133884149;-8.8131;0.8231;1.0522;
583790143982951;-7.3780;-0.0873;-1.7599;
583790154087587;-9.2321;-0.0802;-5.2143;
583790164192274;-10.6983;0.9547;-2.4547;
583790174314618;-11.8170;0.8112;-3.1926;
583790184419253;-10.1234;1.3860;-2.9339;
583790194523941;-6.1971;1.4339;-1.7192;
583790204625555;-9.6706;0.5931;-3.1783;
583790214730191;-12.7920;1.1010;-2.3997;
583790224834878;-11.5702;1.1201;-0.1765;
583790234943576;-9.7113;0.3823;0.1851;
583790245048212;-8.0752;0.0733;-1.3074;
583790255152899;-8.7724;-0.5710;-3.1472;
583790265238160;-10.6433;-0.1304;-2.8522;
583790275342847;-11.5199;0.7609;-2.7278;
583790285447482;-10.9738;0.7920;-2.1793;
583790295556910;-8.9064;0.8614;-2.4858;
583790305661545;-8.1589;0.4253;-1.3169;
583790315766232;-8.6572;0.2961;-3.3625;
583790325865139;-12.0948;0.0517;-5.0827;
583790335969774;-8.9901;-0.0033;-2.5720;
583790346074410;-5.6222;0.2746;-4.2251;
583790356188576;-11.4673;-0.7723;-5.1233;
583790366293212;-10.9499;0.7080;-2.2606;
583790376397899;-8.1302;0.8327;-2.1649;
583790386487066;-10.3511;0.6266;-2.0498;
583790396591753;-9.3975;0.5620;-2.7230;
583790406696389;-8.0321;0.3488;-3.1253;
583790416813472;-7.0283;0.3416;-4.3400;
583790426918107;-8.5113;0.6314;-4.5221;
583790437022743;-10.3463;-0.3556;-4.6083;
583790447124410;-11.6324;0.3105;-1.6929;
583790457229045;-9.2106;0.9523;2.0800;
583790467333680;-9.8862;-0.1304;-3.0870;
583790477435191;-13.1919;0.5524;-1.7336;
583790487539826;-9.9221;0.9715;1.3780;
583790497644514;-6.5157;0.1738;-1.9756;
583790507776753;-8.5089;-0.2716;-5.4443;
583790517881441;-12.3655;1.0292;-4.7952;
583790527986076;-8.9662;0.9308;-0.9024;
583790538063264;-6.5180;0.5477;-0.9335;
583790548167899;-7.6534;-0.3843;-3.1277;
583790558272587;-7.8643;-0.2357;-4.2897;
583790568376389;-7.2679;0.5716;-5.5161;
583790578481076;-11.7763;0.7199;-4.9795;
583790588585712;-13.4578;1.4865;-1.6211;
583790598696024;-8.8681;1.5802;1.0881;
583790608800660;-10.1282;0.8231;-1.9349;
583790618905295;-13.3143;0.3559;-1.9732;
583790629013680;-10.4922;0.5955;-0.8163;
583790639118316;-5.3898;0.1164;-1.3959;
583790649222951;-7.1507;-0.5183;-3.9592;
583790659323680;-11.4577;0.8758;-4.0956;
583790669428316;-13.1225;0.8949;-2.0498;
583790679532951;-10.4157;0.6218;2.2454;
583790689643889;-4.7527;0.3057;0.1158;
583790699748524;-6.4128;-0.6622;-6.4265;
583790709853160;-10.6217;0.3129;-7.4686;
583790719954930;-10.5305;0.9021;-4.7809;
583790730059566;-10.0561;1.0747;-3.7986;
583790740164201;-12.1499;0.4660;-3.0368;
583790750268889;-11.6300;0.9882;2.0177;
583790760373524;-8.5232;0.9404;1.8858;
583790770478160;-8.4945;0.0661;-2.2774;
583790780589201;-10.8012;-0.2596;-3.4657;
583790790693837;-8.8920;0.5501;-3.0176;
583790800798472;-6.0918;0.0565;-3.9903;
583790810891076;-8.3195;0.0972;-5.4108;
583790820995712;-10.8084;0.9332;-3.7531;
583790831100347;-9.3329;0.1977;-1.4390;
583790841252430;-9.4502;0.1881;-1.3098;
583790851357066;-9.3473;0.1044;-2.7637;
583790861461701;-11.6468;0.5261;-3.9544;
583790871513003;-12.6745;0.6936;-1.3193;
583790881617639;-8.6285;0.8160;0.1947;
583790891722274;-3.3344;0.0541;-2.9961;
583790901853993;-4.8939;-0.3915;-7.0325;
583790911958628;-12.6697;0.4564;-6.0936;
583790922063264;-10.8036;0.2459;-1.2042;
583790932171389;-8.4368;0.1714;-0.0951;
583790942276024;-7.9316;-0.1543;-1.6451;
583790952380660;-9.5028;0.0398;-2.3925;
583790962463941;-10.4898;0.9045;-3.2237;
583790972568576;-8.7796;0.3775;-2.6560;
583790982673264;-6.7385;1.1943;-3.4346;
583790992802743;-6.4893;0.3894;-4.8957;
583791002907378;-3.2028;-0.0344;-5.4610;
583791013012014;-21.7511;0.7271;-2.1649;
583791023090243;-23.1715;2.0231;8.1670;
583791033194878;-2.2612;1.4770;7.7094;
583791043299566;0.8719;-1.8885;-4.5867;
583791053402847;-11.7787;-2.2146;-9.3945;
583791063507482;-14.0255;0.8375;-6.2276;
583791073612118;-7.4453;1.9657;-0.2079;
583791083718785;-5.6462;0.8997;-2.2175;
583791093823420;-8.5878;-0.4537;-4.7450;
583791103928055;-9.8623;0.8566;-0.9861;
583791114037118;-10.5520;0.0805;1.8787;
583791124141753;-6.3960;-0.1424;-2.0859;
583791134246389;-11.2923;-0.3389;-12.9853;
583791144355555;-14.6414;0.3488;-4.4934;
583791154460191;-9.6012;2.2196;4.0537;
583791164564826;-8.5208;1.1728;-0.9144;
583791174675451;-9.4813;1.1800;-2.7709;
583791184780087;-12.9930;0.0159;0.1062;
583791194884722;-9.5148;0.3655;1.3612;
583791204975139;-6.7863;-0.1161;-2.1960;
583791215079774;-9.1101;-0.8584;-4.4767;
583791225184410;-7.0187;-0.4872;-3.3505;
583791235303680;-8.4057;-0.6311;-5.3916;
583791245408316;-9.5486;0.1140;-5.7461;
583791255512951;-10.3989;0.7848;-3.3697;
583791265598368;-13.3502;0.9117;-1.6331;
583791275703003;-12.0661;0.9739;1.4979;
583791285807691;-10.0971;0.8327;0.7816;
583791295918785;-7.9890;0.1618;-1.8511;
583791306023420;-11.1631;0.2171;-4.1124;
583791316128055;-10.6911;0.2100;-3.4585;
583791326234097;-6.4391;0.4110;-3.2333;
583791336338837;-6.9876;-0.3461;-3.9855;
583791346443524;-10.3965;0.1427;-3.0942;
583791356547951;-11.5941;0.3703;-2.9794;
583791366652691;-8.7532;0.4301;-1.5132;
583791376757378;-7.2105;-0.2381;-1.9732;
583791386894149;-8.2693;0.4301;-5.2645;
583791396998889;-9.6873;1.0220;-6.0335;
583791407103576;-11.5295;0.8782;-4.3854;
583791417197639;-8.4488;0.9500;-2.6058;
583791427302378;-11.5128;0.6625;-2.8379;
583791437407066;-13.9250;0.8758;0.9278;
583791447483524;-9.3185;0.1690;3.0957;
583791457588264;-6.3577;-0.1232;-1.7192;
583791467692951;-10.2694;0.0302;-4.4381;
583791477796857;-10.4204;0.5381;-2.3566;
583791487901597;-6.6835;0.5548;-2.0812;
583791498006337;-5.1933;0.0900;-4.9962;
583791508127326;-8.2549;0.3966;-6.0120;
583791518232066;-11.8983;0.6099;-4.0693;
583791528336753;-10.5784;0.5788;-1.7815;
583791538426805;-7.4812;0.4878;-0.0042;
583791548531545;-8.5998;0.5788;-4.8311;
583791558636285;-13.6878;1.5682;-3.6500;
583791568741285;-10.5257;1.3358;0.2809;
583791578846024;-5.9240;1.2182;-0.1573;
583791588950764;-4.5419;0.0182;-3.8536;
583791599053368;-5.5023;0.4110;-6.7427;
583791609158107;-8.3961;-0.1783;-4.8407;
583791619262847;-19.5544;0.3488;-0.6508;
583791629366024;-25.6582;1.2350;6.3200;
583791639470764;-5.1814;1.6831;8.9504;
583791649575503;0.1032;-1.4264;-1.8655;
583791659683055;-13.4626;-1.0717;-8.2472;
583791669787795;-12.4540;0.3751;-3.8584;
583791679892482;-6.9637;2.1766;-1.9660;
583791689996180;-5.2125;1.4171;-5.0276;
583791700100920;-8.1398;-0.2835;-5.8828;
583791710205607;-7.2751;0.0733;-0.8569;
583791720315243;-8.3722;-0.1687;-1.0463;
583791730419982;-7.7327;-1.4145;-3.1543;
583791740524670;-10.9235;0.0972;-12.7170;
583791750648107;-16.0786;1.4267;-8.4027;
583791760752795;-9.9102;1.5826;3.1149;
583791770857535;-6.5372;1.1943;1.8188;
583791780946910;-9.8288;1.1919;-2.7350;
583791791051649;-8.2382;0.4636;-2.1960;
583791801156389;-10.2742;0.5740;-2.0402;
583791811274045;-9.0407;-0.3413;-1.3361;
583791821378785;-9.9915;-0.2620;-1.7767;
583791831483524;-8.9877;-0.6814;0.2115;
583791841565868;-7.6558;-0.4609;-2.4667;
583791851670607;-13.8676;0.1427;-5.2214;
583791861775295;-11.3234;0.2794;-0.9383;
583791871895035;-4.5562;0.7609;-0.6173;
583791881999774;-8.5400;0.3488;-4.9914;
583791892104462;-10.2885;0.0900;-4.5843;
583791902193368;-8.1733;0.9882;-1.8775;
583791912298107;-9.9150;0.4807;-2.7230;
583791922402795;-10.5879;0.1786;-2.0498;
583791932538160;-7.0570;-0.0631;-1.3768;
583791942642899;-7.3493;-0.3604;-4.5963;
583791952747587;-11.1870;0.6553;-4.6537;
583791962864670;-10.8299;0.6003;-3.5518;
583791972969410;-11.2612;1.3167;-1.5661;
583791983074097;-9.4837;0.3631;-0.7612;
583791993136441;-8.3602;0.7657;-0.8833;
583792003241180;-10.4874;0.3248;-3.2189;
583792013345868;-9.8456;0.2841;-1.2018;
583792023467951;-8.4224;-0.0969;-3.0009;
583792033572691;-8.2813;0.0422;-3.9784;
583792043677378;-10.2191;0.0661;-3.6452;
583792053770764;-11.1102;0.3464;-1.9588;
583792063875503;-9.2225;0.5022;-0.2533;
583792073980191;-8.2071;0.1929;-1.5733;
583792084084618;-5.4688;0.1618;-3.2237;
583792094189357;-7.8691;0.3607;-6.4002;
583792104294045;-12.4014;0.7825;-4.6131;
583792114410035;-11.6973;0.6864;-2.2295;
583792124514774;-8.6836;0.6649;-0.7469;
583792134619462;-7.9651;0.1714;-1.1085;
583792144714722;-10.5616;-0.0440;-2.9794;
583792154819462;-11.1006;0.6434;-1.9516;
583792164924201;-9.2297;0.6793;-1.2858;
583792175039305;-9.0000;0.6314;-1.7121;
583792185144045;-4.4267;0.3009;-4.1291;
583792195248732;-5.4114;0.3248;-5.9665;
583792205346180;-5.4712;-0.0464;-4.7809;
583792215450920;-14.9719;-0.3242;-5.7413;
583792225555607;-34.4040;0.7537;3.7735;
583792235660035;-3.5955;0.7753;14.1796;
583792245764774;5.7996;-0.0535;-3.6284;
583792255869462;-12.8064;-1.5652;-11.7661;
583792265971180;-14.7347;-0.9951;-4.1100;
583792276075920;-7.5482;0.9523;1.0235;
583792286180607;-6.8728;2.3563;-5.6097;
583792296287222;-10.6768;-0.0607;-5.0133;
583792306391962;-9.4956;0.1953;2.0417;
583792316496701;-8.5974;-0.4920;1.7423;
583792326592222;-4.9705;-0.8369;-2.2223;
583792336696962;-6.9087;-1.1339;-15.2635;
583792346801649;-18.0141;1.1034;-12.6763;
583792356906805;-11.9513;1.2517;3.6443;
583792367011493;-6.7600;1.3789;4.7270;
583792377116232;-8.5376;1.0747;-1.1109;
583792387253837;-8.3076;0.1451;-2.7972;
583792397358524;-9.2584;-0.3796;-2.3949;
583792407463264;-9.9221;0.0494;-3.2261;
583792417530868;-7.7614;0.0589;-4.3424;
583792427635607;-7.4094;-0.3099;-2.8594;
583792437740295;-7.7662;0.0924;-3.4035;
583792447856441;-12.6003;0.3918;-3.3864;
583792457961128;-13.5320;1.0196;0.1564;
583792468065816;-7.5553;0.9882;2.8968;
583792478164930;-8.6381;0.3057;-3.2596;
583792488269670;-10.2359;0.2985;-4.8694;
583792498374357;-9.8025;1.1752;-1.0463;
583792508508160;-8.4826;0.3200;-2.5217;
583792518612847;-8.5256;0.4086;-3.6452;
583792528717587;-10.8060;0.5094;-2.0378;
583792538790660;-11.2899;0.8495;-1.9469;
583792548895399;-10.4252;0.7729;-0.6413;
583792559000087;-6.4080;0.5237;-0.3538;
583792569107222;-7.7423;0.5309;-4.7136;
583792579211910;-13.2855;0.9452;-4.6011;
583792589316649;-8.7915;1.0460;-2.5768;
583792599422430;-7.2775;0.8399;-4.0238;
583792609527118;-8.0536;0.2985;-3.3577;
583792619631857;-10.4037;0.7633;-3.8871;
583792629741076;-10.3511;0.3894;-2.2750;
583792639845764;-7.0283;0.7537;-2.5792;
583792649950503;-8.7796;0.5692;-3.7651;
583792660047847;-10.9618;0.9452;-2.3566;
583792670152587;-9.5219;1.0460;-1.7432;
583792680257274;-6.9709;0.6697;-1.1994;
583792690360191;-8.1446;0.3775;-3.8967;
583792700464878;-11.6157;1.3071;-3.8584;
583792710569566;-10.0418;0.6553;-1.7647;
583792720667847;-9.0215;1.2975;-2.2152;
583792730772535;-9.3138;-0.1807;-0.1621;
583792740877274;-11.5989;0.8734;-2.7613;
583792750979566;-13.9920;0.9165;-0.5336;
583792761084253;-10.9068;1.4148;2.2334;
583792771188993;-4.5467;0.1475;-0.0209;
583792781321180;-9.1531;0.1834;-5.7724;
583792791425920;-11.3378;0.9428;-4.6585;
583792801530660;-10.3029;1.2565;-1.4964;
583792811604618;-5.5696;0.8327;-3.7627;
583792821709305;-5.9432;-0.6909;-5.2286;
583792831813993;-12.4684;0.1690;-4.7976;
583792841922430;-12.0757;1.0699;-3.0870;
583792852027170;-9.5004;1.1943;-0.7178;
583792862131857;-6.7361;-0.8608;-2.7350;
583792872252951;-10.1330;0.4110;-3.5231;
583792882357639;-11.3737;0.8040;-2.8642;
583792892462378;-9.8982;0.4397;-2.2678;
583792902577326;-9.1173;0.4229;-1.7312;
583792912682014;-10.1186;0.1881;-2.7278;
583792922786753;-12.8542;0.2937;-1.4294;
583792932894826;-8.2884;0.0876;0.6165;
583792942999514;-6.9972;-0.1065;-2.7063;
583792953104253;-12.0446;0.0422;-3.5877;
583792963197639;-10.5784;0.6147;-1.6259;
583792973302326;-7.3875;0.2195;-1.5852;
583792983407066;-6.4510;0.2100;-3.7938;
583792993532014;-8.0178;0.5596;-4.3065;
583793003636701;-8.7242;-0.0009;-5.4897;
583793013741441;-11.2182;0.7633;-4.0334;
583793023825347;-7.7949;0.4711;-1.9828;
583793033930035;-9.0503;0.0039;-4.1315;
583793044034774;-11.4242;0.7418;-2.0498;
583793054152014;-10.4492;1.3717;-0.3945;
583793064256701;-7.8500;0.2865;-0.6413;
583793074361441;-10.8227;0.2674;-3.3577;
583793084457639;-7.9699;0.6338;-2.5696;
583793094562326;-8.0895;0.6793;-2.8403;
583793104667066;-11.8552;0.1427;-3.2453;
583793114769930;-9.8097;0.1977;-1.1659;
583793124874618;-6.8270;0.3966;-1.4246;
583793134979305;-11.0025;0.0374;-3.5782;
583793145086701;-11.8241;0.5453;-1.3146;
583793155191389;-10.1354;1.0747;-0.7397;
583793165296128;-5.3970;0.6410;-1.6140;
583793175415868;-8.9853;0.7343;-4.2395;
583793185520555;-10.1330;0.7896;-4.2467;
583793195625295;-9.1914;0.8207;-2.3590;
583793205727639;-7.4261;0.3679;-2.7374;
583793215832326;-10.2790;0.3966;-3.9182;
583793225937066;-11.4048;0.9643;-2.6010;
583793236046597;-9.8121;1.0819;-1.0702;
583793246151285;-10.1928;0.6864;-1.9014;
583793256256024;-9.7376;1.1489;-0.6030;
583793266355972;-8.6022;0.4807;-2.5911;
583793276460712;-11.0001;1.0651;-3.3075;
583793286565399;-7.7423;0.9858;-1.8488;
583793296646441;-7.4501;0.2387;-4.2610;
583793306751128;-10.2048;-0.1663;-4.7351;
583793316855868;-8.9016;0.4711;-1.6786;
583793326970191;-6.2067;-0.0873;-3.3051;
583793337074930;-11.4769;0.0494;-4.9388;
583793347179670;-13.6017;0.8327;-0.1741;
583793357278264;-8.7413;0.3416;0.1732;
583793367383003;-9.1005;0.1570;-1.9014;
583793377487743;-10.7701;0.1714;-2.4763;
583793387604201;-10.4468;0.4902;-2.0931;
583793397708941;-6.4869;0.4540;-2.6177;
583793407813680;-8.3985;-0.5830;-4.5796;
583793417877743;-8.3459;-0.0416;-3.2070;
583793427982430;-12.1451;-0.0682;-4.2108;
583793438087118;-29.2298;1.0938;2.4176;
583793448191857;-12.7920;2.1837;10.4186;
583793458328368;5.3396;-0.7196;1.2799;
583793468433107;-3.2195;-3.1319;-9.0951;
583793478537847;-10.8419;-0.3338;-13.0932;
583793488660451;-8.0919;1.8843;-8.2591;
583793498765191;-5.7132;0.9811;-6.5270;
583793508869930;-8.5711;0.4636;-6.6709;
583793518953264;-10.3774;0.9667;0.9230;
583793529058003;-6.7217;0.7513;0.8294;
583793539162743;-3.8231;0.2291;-0.9936;
583793549276180;-9.4717;0.1283;-12.1062;
583793559380920;-18.6538;1.6280;-10.5873;
583793569485660;-13.1273;3.1923;4.3149;
583793579573368;-5.7562;2.4090;5.1894;
583793589678107;-7.7614;0.2650;-0.8521;
583793599782847;-16.4498;0.0661;0.2306;
583793609888055;-13.6113;0.3846;4.9857;
583793619992795;-2.8507;-0.9090;2.7099;
583793630097535;-6.4989;-0.9712;-6.9823;
583793640204722;-13.8604;-0.4777;-4.7928;
583793650309462;-7.1530;1.6519;2.2837;
583793660414201;-5.2869;-0.7220;-4.0382;
583793670525868;-10.8781;-0.2883;-8.2304;
583793680630607;-13.5416;0.9165;-3.4968;
583793690735295;-8.8226;0.3392;-0.4328;
583793700835660;-8.5424;0.0470;-2.3351;
583793710940399;-8.4535;0.0541;-4.3543;
583793721045139;-10.3391;0.5261;-6.7834;
583793731123941;-12.9547;1.1895;-3.2501;
583793741228680;-9.5366;0.4807;0.7050;
583793751333472;-5.7371;0.5309;-2.2510;
583793761454670;-8.3148;-0.5016;-2.9650;
583793771559357;-12.1187;0.1642;-2.3399;
583793781664149;-6.6308;0.0852;-1.8655;
583793791769410;-5.8546;-0.2261;-4.8431;
583793801874149;-15.7672;0.2315;-6.4217;
583793811978889;-12.4854;0.8949;0.9494;
583793822084410;-5.7538;0.1570;-0.6796;
583793832189149;-8.5256;-0.0320;-3.7268;
583793842293889;-12.9284;0.3464;-1.0989;
583793852398472;-10.0828;0.4807;-0.2892;
583793862503212;-7.5960;0.4158;-0.7636;
583793872607951;-9.9580;-0.4178;-2.9674;
583793882724722;-8.7075;0.0924;-2.3925;
583793892829462;-7.7495;0.0470;-1.9923;
583793902934201;-10.5879;-0.0802;-2.7374;
583793913061285;-5.1335;0.1211;-3.8871;
583793923166024;-10.0107;0.0709;-7.4037;
583793933270764;-15.0604;0.8471;-1.9445;
583793943362951;-3.6123;1.2159;1.0905;
583793953467691;-7.9795;0.7801;-4.5843;
583793963572430;-14.3154;0.2291;-4.2730;
583793973659930;-17.4153;1.8197;0.8533;
583793983764670;-4.6424;1.1321;1.5003;
583793993869410;-5.1287;-0.8922;-4.7569;
583794003979826;-14.5669;-0.0897;-5.4969;
583794014084566;-12.8519;1.1560;-1.2595;
583794024189305;-7.6080;0.6840;-0.9407;
583794034310139;-6.4798;-0.1854;-1.9828;
583794044414878;-10.5808;0.1187;-3.1831;
583794054519618;-8.5184;-0.2429;-1.2042;
583794064608472;-6.3601;0.3535;-3.4322;
583794074713212;-8.3937;0.3033;-4.7809;
583794084817951;-7.9866;0.5979;-7.0995;
583794094928055;-11.6611;0.4205;-6.1391;
583794105032795;-10.3487;0.9428;0.1253;
583794115137535;-8.5256;0.9045;-1.5709;
583794125235555;-11.2540;0.8231;-3.6643;
583794135340295;-11.1679;0.5142;0.3383;
583794145445035;-10.1474;0.8255;0.3263;
583794155570451;-7.9531;-0.2285;-1.6307;
583794165675191;-8.3195;0.7872;-3.1878;
583794175779930;-10.5688;-0.0057;-2.6058;
583794185883212;-8.6237;0.8303;-2.6752;
583794195987951;-6.6906;-0.8707;-3.0751;
583794206092691;-9.0191;0.1116;-4.1339;
583794216177639;-10.5712;0.2028;-3.6523;
583794226282378;-11.5415;1.1776;-2.8884;
583794236387118;-10.1402;1.0603;-0.7107;
583794246500972;-9.2683;0.6840;-0.9048;
583794256605712;-9.3975;0.7801;-1.5781;
583794266710399;-10.4468;0.6290;-2.7159;
583794276805191;-9.3305;0.5955;-1.8081;
583794286909930;-6.5755;0.3153;-3.2524;
583794297014670;-10.2072;-0.2357;-4.9436;
583794307134982;-11.2229;0.5931;-2.1721;
583794317239722;-8.1135;0.5237;-2.2343;
583794327344462;-7.9217;0.3416;-2.8765;
583794337441701;-10.6528;0.5022;-2.5122;
583794347546441;-13.5272;1.1417;-1.8870;
583794357651180;-7.9986;0.8638;-0.6317;
583794367747326;-9.7950;0.8997;-2.7446;
583794377852066;-10.5520;0.6649;-2.3877;
583794387956805;-7.0499;0.4564;-2.4547;
583794398067535;-8.7242;0.0039;-3.7101;
583794408172274;-9.1890;0.0805;-3.9326;
583794418277014;-8.4296;0.7848;-4.4862;
583794428345868;-10.2072;0.5740;-3.1711;
583794438450607;-9.9150;1.1441;-0.5982;
583794448555347;-10.0851;0.6314;-0.9239;
583794458692118;-9.0885;0.7199;-1.9923;
583794468796857;-10.4037;0.3775;-3.6981;
583794478901597;-9.1795;1.1584;-1.6690;
583794489006285;-6.5444;0.0900;-4.0789;
583794499111024;-10.3965;0.2961;-5.2502;
583794509215764;-11.6013;1.2613;-2.0043;
583794519323680;-10.1593;1.5296;-0.8234;
583794529428420;-7.6199;0.2626;-0.1693;
583794539533160;-7.7877;0.0111;-1.1037;
583794549632430;-10.1665;-0.1352;-2.8717;
583794559737170;-8.7389;1.0172;-3.5949;
583794569841910;-10.5425;0.9476;-4.5724;
583794579946180;-8.0489;0.6840;-2.1458;
583794590050920;-7.9050;0.2674;-3.1158;
583794600155660;-10.6792;0.4783;-3.5231;
583794610257691;-11.7858;1.0938;-0.6987;
583794620362430;-9.9532;0.3607;-1.3361;
583794630467118;-9.4908;0.3799;-0.8545;
583794640581180;-9.3712;0.3153;-0.8067;
583794650685920;-9.4717;0.7609;-1.4844;
583794660790660;-6.8584;0.1307;-3.4920;
583794670884514;-10.6840;0.7418;-3.5853;
583794680989253;-8.9279;0.0757;-3.3218;
583794691093993;-10.2407;0.2722;-3.0535;
583794701226753;-12.1068;0.5572;-1.7743;
583794711331493;-12.2889;0.5716;-1.2401;
583794721436232;-8.9590;0.1235;-0.2366;
583794731509618;-5.0450;-0.0897;-3.0464;
583794741614305;-8.2549;0.0852;-5.4060;
583794751719045;-10.2144;0.5788;-5.5786;
583794761854826;-8.6524;0.9165;-3.8321;
583794771959566;-6.9900;0.0159;-2.3830;
583794782064253;-7.2775;0.3272;-3.3553;
583794792155035;-10.2933;0.0111;-3.5614;
583794802259774;-7.0810;0.2770;-2.5074;
583794812364514;-9.7328;0.5883;-4.9436;
583794822455139;-12.1020;0.9284;-4.1530;
583794832559878;-12.1331;0.6601;-0.5240;
583794842664618;-12.1451;1.0077;3.1268;
583794852772639;-10.2885;0.6194;2.3435;
583794862877378;-9.2755;0.3942;-0.3969;
583794872982118;-8.4081;-0.4585;-1.4653;
583794883090607;-5.9240;-0.9329;-2.8693;
583794893195347;-9.4860;-0.6311;-4.8191;
583794903300087;-11.9800;0.6673;-3.7962;
583794913403993;-9.7807;1.1417;-1.8870;
583794923508732;-6.4247;0.7247;-1.2329;
583794933613472;-8.8992;0.2339;-3.8895;
583794943729410;-13.2398;0.4807;-3.6380;
583794953834149;-11.3186;1.1943;-1.2763;
583794963938889;-8.9207;0.7418;-2.4739;
583794974032691;-9.1579;0.4062;-3.3864;
583794984137430;-7.9146;0.3200;-3.5255;
583794994242170;-9.4597;-0.1208;-2.4476;
583795004353680;-7.6681;0.5907;-4.0813;
583795014458420;-10.1976;0.3224;-5.2645;
583795024563160;-12.2459;0.9500;-1.5179;
583795034664097;-8.7867;0.7175;0.6954;
583795044768837;-8.3865;0.5285;-1.4605;
583795054873576;-8.2095;-0.1711;-3.3458;
583795064969097;-8.5400;0.6075;-5.1951;
583795075073837;-6.3314;0.3129;-5.2744;
583795085178576;-7.3804;0.4831;-6.3787;
583795095295347;-6.8632;0.3775;-3.9568;
583795105400087;-10.1043;0.7896;-4.1243;
583795115504826;-23.0279;1.1608;0.8294;
583795125607847;-14.3178;1.4818;9.6808;
583795135712587;-4.5347;-0.1113;3.3975;
583795145817326;-6.6906;-1.9774;-4.3376;
583795155938785;-10.2622;-1.2658;-6.3209;
583795166043524;-10.0298;1.0771;-4.6442;
583795176148212;-5.6079;1.5033;-4.1507;
583795186289722;-7.1240;0.1355;-4.1267;
583795196394462;-9.4549;-0.1759;-3.8489;
583795206499201;-15.1250;1.3071;-1.6355;
583795216545243;-7.8476;0.7008;2.5926;
583795226649930;-3.8088;-0.1663;-5.5690;
583795236754722;-9.9221;-0.9616;-10.4103;
583795246859930;-11.0671;1.6017;-6.8767;
583795256964670;-12.0589;1.8269;-2.2654;
583795267069410;-8.8944;1.7548;-0.7780;
583795277180347;-6.8510;0.7295;-0.8115;
583795287285087;-12.4421;0.7729;0.0748;
583795297389826;-10.8108;0.0230;1.2535;
583795307471857;-8.1876;0.5189;-1.8488;
583795317576649;-7.0786;-0.3485;-4.1124;
583795327681389;-10.4013;0.5596;-4.0669;
583795337801493;-14.0519;0.7128;-2.4284;
583795347906232;-8.8896;1.4746;-0.4666;
583795358010920;-4.7094;0.9188;-0.8785;
583795368117118;-9.3808;0.4445;-4.6298;
583795378221857;-10.9140;1.2422;-3.4609;
583795388326545;-5.5095;1.1201;-2.4188;
583795398430347;-10.7845;0.3559;-4.3113;
583795408535087;-15.3096;1.5296;-3.6212;
583795418639774;-9.3233;1.3621;1.5482;
583795428740607;-5.8594;-0.0535;-0.6963;
583795438845347;-8.7700;0.8949;-2.5193;
583795448950035;-10.3846;0.2961;-4.5461;
583795459052535;-11.7835;1.5009;-4.4692;
583795469157274;-10.9786;0.9595;-1.1444;
583795479261962;-7.3062;0.4540;-0.3371;
583795489365555;-6.5635;0.6314;-3.1878;
583795499470295;-10.2838;0.1211;-3.3458;
583795509574982;-10.6887;0.2650;-4.5461;
583795519683264;-8.8777;0.5883;-3.4250;
583795529788003;-7.7901;0.5453;-3.2812;
583795539892691;-15.8988;0.7777;-1.8751;
583795550003889;-8.2813;0.8853;1.0977;
583795560108628;-10.3534;0.5548;-1.1061;
583795570213316;-11.9584;0.0589;-0.7564;
583795580314514;-3.8686;0.4205;-1.5996;
583795590419253;-6.1516;-0.2955;-6.6159;
583795600523941;-9.5414;0.2483;-7.4303;
583795610640764;-10.8706;1.1297;-3.4226;
583795620745451;-9.1388;0.6817;-0.8545;
583795630850191;-8.6070;0.0948;-1.4462;
583795640938055;-10.6744;0.5022;-1.0845;
583795651042795;-9.7089;0.3942;-2.1601;
583795661147482;-10.3053;0.1379;-2.7852;
583795671232795;-4.1656;0.2841;-4.4357;
583795681337535;-3.2746;0.0709;-7.6866;
583795691442274;-5.6629;-0.2955;-9.2554;
583795701564618;-35.5828;1.7979;-0.6556;
583795711669357;-28.0992;1.4171;18.5178;
583795721774045;7.0259;1.2063;11.6309;
583795731906910;3.0544;-2.5164;-6.1678;
583795742011597;-15.0317;-2.9809;-11.6845;
583795752116337;-14.8424;-1.1749;-6.0694;
583795762188368;-6.0559;2.6725;-2.5481;
583795772293107;-4.1154;1.2565;-7.7178;
583795782397795;-9.1484;-1.1124;-5.5618;
583795792529722;-11.7045;-0.0993;-0.3730;
583795802634462;-8.5711;-0.2357;3.8189;
583795812739149;-0.5222;-0.7484;-7.5380;
583795822816389;-15.3120;-0.3628;-21.0245;
583795832921128;-19.3675;1.6184;-2.9961;
583795843025816;-7.1507;0.7271;7.4961;
583795853135972;-6.3338;0.9643;0.0389;
583795863240712;-9.9987;0.3535;-3.1181;
583795873345399;-12.1881;0.5046;-1.5685;
583795883458160;-7.8093;-0.0033;0.9829;
583795893562899;-7.1483;-0.9425;-3.6595;
583795903667587;-8.8920;-0.5351;-4.7928;
583795913777535;-7.5817;-0.0897;-1.7336;
583795923882274;-10.0585;-0.0754;-3.0727;
583795933986962;-8.7676;0.4229;-3.8895;
583795944070451;-10.7318;0.0087;-3.4035;
583795954175191;-10.9259;1.2999;-1.9612;
583795964279878;-9.0957;0.4711;-1.8990;
583795974392847;-8.9064;0.7537;-2.6967;
583795984497587;-5.4616;-0.2716;-3.6667;
583795994602274;-9.9700;1.5224;-4.6155;
583796004712639;-13.3023;1.6448;-2.6225;
583796014817378;-10.8876;1.7142;0.1684;
583796024922066;-9.9317;0.8231;0.6114;
583796035034774;-10.9355;0.5309;-0.1358;
583796045139514;-7.8165;0.3296;-1.2425;
583796055244201;-7.8667;0.1546;-3.6742;
583796065352014;-13.0651;0.1379;-5.9617;
583796075456753;-11.5702;1.5754;-1.1324;
583796085561441;-7.0068;0.4301;-3.1591;
583796095662847;-11.3641;0.5453;-2.8499;
583796105767587;-7.8212;0.7848;-0.8521;
583796115872274;-10.8829;0.5213;-2.2582;
583796125967951;-11.7452;-0.0993;-2.7374;
583796136072691;-7.8715;1.0364;-1.9899;
583796146177378;-9.6538;0.1140;-4.9484;
583796156298003;-12.4588;1.0675;-2.1984;
583796166402743;-8.2262;0.7394;-0.9479;
583796176507430;-7.4788;0.2339;-3.0153;
583796186587951;-10.7557;0.0398;-4.6896;
583796196692639;-12.6984;0.9835;-3.2046;
583796206797378;-10.2263;0.2698;-1.3552;
583796216917847;-6.2785;0.4660;-0.8234;
583796227022535;-5.2364;-0.1854;-3.7316;
583796237127274;-13.1680;0.7008;-6.9679;
583796247223993;-10.7342;0.3870;-1.7719;
583796257328732;-5.5576;0.0541;-2.6345;
583796267433420;-10.1115;0.4038;-4.6346;
583796277539618;-9.4167;0.5764;-1.2042;
583796287644357;-8.7317;0.2746;-3.7149;
583796297749045;-9.7256;-0.1687;-3.5183;
583796307867430;-4.3023;0.3894;-2.2056;
583796317972118;-1.2144;-0.8898;-6.8767;
583796328076857;-21.7774;0.3392;-5.3773;
583796338171285;-37.3529;2.0447;10.6654;
583796348276024;-7.9484;3.4223;16.0457;
583796358380712;9.7642;-1.1052;-0.3634;
583796368489097;-6.4319;-4.3968;-10.2999;
583796378593837;-14.3659;-2.1066;-11.0928;
583796388698524;-8.5376;1.0627;-4.9507;
583796398796910;-8.4033;4.0235;-3.6571;
583796408901649;-9.2441;0.0972;-5.5594;
583796419006337;-8.7700;0.4421;0.1277;
583796429107274;-7.6008;0.0900;3.9867;
583796439212014;-5.1550;-0.4035;-2.0426;
583796449316701;-6.2426;-1.0358;-16.8183;
583796459421389;-16.8859;1.2709;-16.2793;
583796469526128;-12.5477;1.7094;1.2775;
583796479630816;-4.0890;1.1225;3.2560;
583796489734097;-8.5328;1.5993;-2.6656;
583796499838837;-13.5586;1.0388;-0.2916;
583796509943524;-10.4994;0.4469;3.4382;
583796520052847;-7.8811;0.4229;0.6834;
583796530157587;-9.3520;-0.9568;-3.1998;
583796540262274;-6.5348;-0.8225;-3.5638;
583796550364618;-6.5324;0.4564;-4.2179;
583796560469357;-12.5859;0.2315;-6.2300;
583796570574045;-9.6443;1.2541;-1.1157;
583796580758472;-6.7122;1.5491;-1.8655;
583796590863212;-10.9594;1.0842;-4.8909;
583796600967899;-11.4362;1.2613;-1.3816;
583796610986232;-8.2119;1.1393;0.1110;
583796621090920;-9.2755;0.5333;-1.8894;
583796631195712;-9.1555;0.4110;-3.5064;
583796641318264;-10.8562;0.4038;-3.1014;
583796651423003;-9.3999;0.1881;-1.8655;
583796661527691;-10.3678;0.2961;-0.5934;
583796671634253;-9.5267;0.2148;-1.9445;
583796681738993;-7.3493;-0.1615;-3.1663;
583796691843680;-9.6203;1.2039;-4.9149;
583796701980347;-10.7222;0.8399;-4.0789;
583796712085035;-9.4573;0.6745;-2.0306;
583796722189774;-7.1770;0.0039;-3.1352;
583796732248472;-9.1651;0.3799;-3.3529;
583796742353212;-10.7198;0.8806;-3.8393;
583796752457899;-8.8561;-0.0778;-1.6905;
583796762560243;-8.8968;0.1475;-2.6010;
583796772664982;-9.9030;0.1331;-1.6475;
583796782769670;-7.6367;0.4181;-3.7627;
583796792890920;-9.1484;0.0781;-4.7183;
583796802995660;-10.2885;0.6840;-1.2497;
583796813100347;-7.2177;-0.0344;-2.0764;
583796823197118;-5.7634;-0.2070;-2.8451;
583796833301857;-8.9877;0.3416;-3.6838;
583796843406545;-12.7199;0.4950;-3.0320;
583796853515035;-13.9777;0.9835;0.4582;
583796863619774;-8.4535;1.2278;1.5745;
583796873724462;-5.2822;-0.0511;-1.2425;
583796883822274;-6.1804;-0.9855;-5.6169;
583796893927014;-12.9930;0.8662;-7.4327;
583796904031701;-12.6864;0.8949;-0.6748;
583796914136180;-8.2238;1.4650;1.4163;
583796924240920;-6.7026;-0.2118;-1.4486;
583796934345607;-9.2082;-0.7388;-2.7613;
583796944467014;-14.7108;0.8016;0.0317;
583796954571753;-5.1933;0.0589;-0.8426;
583796964676441;-6.5683;-0.2429;-6.6517;
583796974762430;-12.8830;0.1020;-6.7857;
583796984867170;-10.1713;1.5368;-2.1984;
583796994971857;-9.6275;1.0819;-2.5672;
583797005081701;-8.4320;0.6482;-1.0965;
583797015186441;-10.2574;0.2506;-1.6905;
583797025291128;-8.9566;-0.1424;-2.1123;
583797035379097;-7.5482;0.1307;-3.4513;
583797045483837;-9.8025;0.2171;-3.7005;
583797055588524;-7.7112;0.4397;-3.6500;
583797065718472;-10.9283;0.3894;-4.0741;
583797075823212;-10.3367;0.2722;-0.5647;
583797085927899;-9.2970;0.7199;-2.9124;
583797096022430;-10.1330;0.3942;-2.8499;
583797106127118;-7.8930;0.8662;-1.6044;
583797116231857;-7.7064;-0.1543;-3.0057;
583797126337430;-8.6788;-0.0535;-3.3888;
583797136442170;-9.7807;0.3870;-3.9278;
583797146546857;-10.7127;0.9308;-1.5108;
583797156663837;-7.3756;0.2985;-0.4017;
583797166768576;-7.4357;-0.3266;-2.9411;
583797176873264;-8.3435;0.6266;-2.7302;
583797186959722;-7.6657;0.4878;-4.8861;
583797197064462;-10.0657;0.5955;-5.9354;
583797207169149;-10.4372;1.4722;-3.2477;
583797217275607;-6.3841;0.4612;-0.8737;
583797227380347;-7.1913;1.0484;-2.3252;
583797237485035;-10.0804;-0.1041;-2.5887;
583797247589618;-13.9872;1.5634;-0.9574;
583797257694357;-13.2903;1.1776;2.0082;
583797267799045;-12.2818;0.2554;1.2775;
583797277918264;-7.0786;0.3416;0.7959;
583797288023003;-4.8556;-0.1280;-3.4537;
583797298127691;-9.7328;-0.2955;-7.0277;
583797308240555;-10.9786;0.4998;-4.1172;
583797318345295;-8.1278;1.8772;-1.4007;
583797328449982;-7.6729;0.1331;-2.6106;
583797338531180;-8.1278;0.3320;-2.3686;
583797348635868;-10.5592;0.3248;-2.1793;
583797358740607;-7.7112;-0.1950;-1.6905;
583797368855607;-7.7997;0.2889;-5.7269;
583797378960347;-6.9972;0.1834;-7.5260;
583797389065035;-11.2397;1.1608;-7.4925;
583797399166389;-12.5955;1.8003;-2.6465;
583797409271128;-9.8839;1.1895;1.6343;
583797419375816;-7.7782;-0.1711;1.0187;
583797429464722;-8.7123;0.0182;-1.7985;
583797439569462;-10.9499;-0.1184;-2.5074;
583797449674149;-9.6347;0.3870;-2.1888;
583797459780347;-5.8355;-0.3772;-2.4787;
583797469885035;-8.6548;-0.2118;-5.2549;
583797479989774;-8.6046;-0.6096;-3.4944;
583797490095243;-9.6778;0.7681;-3.8895;
583797500199930;-8.3291;0.7104;-2.2271;
583797510304670;-7.3421;0.0996;-2.5481;
583797520403680;-11.4410;0.0924;-3.3410;
583797530508368;-4.8796;0.2770;-1.7408;
583797540613055;-10.5520;0.3846;-3.8943;
583797550764930;-20.0216;0.9165;-0.9526;
583797560869618;-6.8270;0.5812;3.3473;
583797570974357;-1.6648;0.4277;-1.6020;
583797581029201;-6.6835;-0.7484;-6.1582;
583797591133889;-8.3937;-0.1591;-6.9990;
583797601238628;-3.3511;1.1130;-5.6982;
583797611375972;-1.5284;0.7343;-7.2147;
583797621480660;-44.9851;1.7453;0.9733;
583797631585399;-22.3403;5.6022;17.3489;
583797641677847;14.7586;4.1862;6.3990;
583797651782535;1.9044;-4.7225;-3.2788;
583797661887274;-18.5363;-3.8865;-16.9666;
583797672024305;-18.1292;0.2411;-9.2411;
583797682129045;-2.8460;4.6152;1.6774;
583797692233732;-3.0374;3.4510;-3.2907;
583797702322743;-11.2277;-2.2576;-3.3864;
583797712427482;-13.5009;0.0805;3.2512;
583797722532170;-7.8404;-0.1663;6.3966;
583797732610660;3.7011;-1.5652;-8.6710;
583797742715399;-20.6827;-2.1425;-25.1282;
583797752820087;-20.4455;0.6003;0.2139;
583797762934722;-3.2698;3.4726;9.6449;
583797773039410;-3.8782;-0.0993;-3.8919;
583797783144149;-10.2550;-0.7938;-3.9063;
583797793263680;-11.8217;-0.6096;0.1229;
583797803368368;-9.1723;0.4397;-0.1382;
583797813473107;-7.8284;-0.5279;-2.8379;
583797823552222;-9.8480;-0.9281;-3.3099;
583797833656910;-10.3005;-0.6933;-1.3481;
583797843761649;-8.7027;-0.6215;-2.5241;
583797853870555;-10.9570;-0.2883;-3.6356;
583797863975243;-11.2516;-0.4394;-0.5791;
583797874079982;-9.0335;-0.2764;-2.0450;
583797884188785;-8.2334;-0.0873;-3.3314;
583797894293472;-9.5797;-0.0224;-3.2070;
583797904398212;-10.6337;0.5501;-1.5565;
583797914506389;-10.0804;-0.1950;-0.4496;
583797924611076;-6.7193;-0.3772;-1.8320;
583797934715764;-7.4381;-0.5471;-4.9101;
583797944798941;-10.6816;0.3751;-4.6825;
583797954903680;-8.5041;0.2530;-3.8871;
583797965008368;-8.6405;0.4325;-3.1735;
583797975121180;-11.1440;0.9619;-4.3113;
583797985225868;-12.0996;0.8830;-1.7527;
583797995330607;-9.9915;0.7152;-1.7312;
583798005463160;-7.0331;0.8877;-0.8569;
583798015567899;-7.0786;-0.2740;-2.4763;
583798025672587;-10.4779;0.5070;-4.9531;
583798035758472;-11.6372;0.6817;-3.4202;
583798045863160;-10.5927;0.9643;0.1229;
583798055967899;-8.7772;0.5046;-0.4810;
583798066075972;-9.6108;0.6553;-1.1037;
583798076180660;-9.2178;0.1044;-1.3026;
583798086285399;-6.5925;1.0579;-4.4046;
583798096389305;-10.1330;0.4588;-6.3763;
583798106493993;-12.3847;1.4459;-3.6260;
583798116598732;-11.2086;1.3669;-0.8641;
583798126693785;-9.3903;1.0101;0.0389;
583798136798472;-8.8059;0.7633;-1.2449;
583798146903160;-7.8308;0.0661;-1.9899;
583798157026753;-7.8021;0.6362;-4.1746;
583798167131441;-9.7304;0.6410;-6.1008;
583798177236180;-10.7222;1.4602;-3.6523;
583798187349670;-11.1269;1.8461;-3.5518;
583798197454357;-8.9016;1.1417;-0.4472;
583798207559097;-8.6237;1.4626;-1.5781;
583798217649826;-11.3210;-0.2692;-2.2510;
583798227754566;-7.9938;0.3224;-2.8956;
583798237859253;-12.3535;0.9667;-3.8704;
583798247959826;-15.4247;1.1441;-2.1434;
583798258064514;-9.4190;1.2135;1.6848;
583798268169253;-6.8438;0.4540;0.5946;
583798278266389;-8.3387;-0.3389;-3.8201;
583798288371076;-12.8112;1.0412;-4.5891;
583798298475816;-16.9792;1.4650;-2.0186;
583798308577326;-11.9031;1.2879;1.4644;
583798318682014;-0.5462;0.1283;0.0102;
583798328786753;0.0287;-0.9353;-7.8829;
583798338893524;-5.1861;0.2100;-11.8211;
583798348998212;-5.6486;0.2387;-10.6666;
583798359102899;-13.1991;0.7223;-8.1655;
583798369203055;-14.0928;1.7692;-1.0965;
583798379307743;-10.1426;1.6232;3.5988;
583798389412430;-8.3554;1.7309;2.8848;
583798399525660;-10.5999;1.3262;-1.6116;
583798409630347;-10.3965;-0.5853;-4.3807;
583798419735035;-12.2411;0.4421;-5.7891;
583798429840607;-13.0122;1.4626;-1.4653;
583798439945295;-10.1952;1.6376;4.1569;
583798450049982;-6.8776;0.0805;4.7103;
583798460139514;-9.7926;-0.9592;3.2297;
583798470244201;-7.4213;-1.3424;-0.4376;
583798480348941;-6.4989;-0.8922;-6.5079;
583798490457326;-8.5328;-0.6215;-9.1837;
583798500562014;-11.9489;0.5979;-5.8899;
583798510666701;-14.6845;1.2879;-1.3146;
583798520800868;-13.1752;1.0842;0.2665;
583798530905555;-9.7448;1.4148;0.1851;
583798541010243;-8.9566;0.8327;-0.9766;
583798551091649;-8.8466;0.2698;-3.5471;
583798561196389;-9.8097;0.0781;-3.3577;
583798571301076;-8.0991;0.3655;-5.4921;
583798581440451;-6.1971;0.8088;-6.8551;
583798591545139;-7.7734;-0.2692;-4.3208;
583798601649826;-5.6509;-0.5231;-1.8248;
583798611719410;-3.6556;-0.9473;-5.4754;
583798621824045;-6.7696;-0.6479;-10.1276;
583798631928785;-9.5892;0.2052;-7.2458;
583798642025139;-18.0021;0.1020;-1.7791;
583798652129826;-27.2776;0.9021;7.2876;
583798662234514;-8.0680;2.0518;14.9414;
583798672359097;3.3730;1.0220;-2.3997;
583798682463785;-7.0355;-1.7402;-13.2894;
583798692568472;-12.3918;-1.4886;-7.1524;
583798702669097;-9.1843;0.0948;2.4993;
583798712773785;-9.3520;0.6051;1.5529;
583798722878524;-8.7987;-0.8584;-1.0199;
583798732990607;-5.7060;-0.9449;0.9015;
583798743095295;-10.6337;-1.0836;-0.6269;
583798753199982;-10.1019;-1.4910;-2.9554;
583798763295607;-8.9901;0.0637;-11.2032;
583798773400295;-12.9141;1.0986;-11.8738;
583798783505035;-9.0455;1.5176;1.5960;
583798793631493;-9.7208;-0.0416;3.3473;
583798803736180;-10.4109;0.4181;-0.9837;
583798813840868;-10.7318;0.4038;-2.0258;
583798823920139;-11.8050;0.3416;-0.4786;
583798834024826;-8.0656;-1.0884;-1.2018;
583798844129514;-7.6199;-0.0153;-4.0023;
583798854241701;-6.2785;-0.6550;-4.5245;
583798864346389;-7.0786;-0.2548;-6.7594;
583798874451076;-9.4478;0.3224;-7.8541;
583798884552535;-10.9283;0.0087;-3.4442;
583798894657222;-13.7716;-0.0248;1.3899;
583798904761962;-12.2889;0.5907;1.5529;
583798914876493;-10.4372;0.0087;1.0642;
583798924981180;-7.0355;-0.1208;-1.2305;
583798935085868;-9.6299;-0.5710;-4.4934;
583798945187222;-11.1559;0.4588;-5.2430;
583798955291910;-7.8787;0.2818;-1.2138;
583798965396597;-6.8632;0.6769;-3.7651;
583798975495972;-9.0024;0.1642;-3.9736;
583798985600660;-9.1651;-0.0607;-0.3993;
583798995705347;-8.1111;-0.2477;-1.2449;
583799005805451;-8.1206;-0.0849;-4.4719;
583799015910139;-7.5745;0.2363;-6.5533;
583799026014826;-9.9891;0.1427;-6.4265;
583799036130868;-12.4397;0.8877;-2.1123;
583799046235555;-9.8264;1.2589;-0.5192;
583799056340243;-13.2039;1.1536;0.2019;
583799066427222;-13.5248;1.5873;1.5362;
583799076531910;-8.2980;0.6242;1.0307;
583799086636649;-7.6152;-0.0176;-2.2989;
583799096748160;-11.9342;-0.3075;-3.3505;
583799106852847;-9.2441;0.8327;-2.1482;
583799116957535;-8.0465;0.1307;-3.0392;
583799127056441;-9.1603;0.5788;-2.7063;
583799137161128;-10.9810;0.9835;-1.8607;
583799147265816;-8.1948;0.4636;-1.7985;
583799157388160;-6.7074;0.4086;-4.2897;
583799167492847;-8.0273;0.4612;-6.9177;
583799177597535;-9.6706;1.1393;-7.1402;
583799187699097;-12.7032;1.7189;-3.4585;
583799197803785;-12.6242;1.5802;0.0748;
583799207908472;-10.6289;1.9011;-0.2581;
583799218008785;-11.6782;1.2903;-0.3203;
583799228113472;-10.3917;-0.3437;0.2521;
583799238218160;-8.4009;0.0254;-1.7288;
583799248325764;-7.2344;-0.0682;-3.6141;
583799258430451;-9.9102;0.9500;-4.9627;
583799268535139;-9.6993;1.5419;-4.0837;
583799278627743;-4.9753;0.8853;-2.4308;
583799288732430;-5.4138;0.2148;-3.7531;
583799298837118;-10.8538;-0.0921;-5.8397;
583799308943576;-13.0938;1.7046;-3.5495;
583799319048264;-11.9246;1.2135;-1.1803;
583799329152951;-10.0732;1.3860;-0.4304;
583799339257535;-7.3134;0.8638;-2.3375;
583799349362222;-8.1374;-0.0224;-3.3266;
583799359466910;-9.1699;0.9787;-3.9688;
583799369574722;-10.5257;0.9165;-3.5279;
583799379679410;-8.0489;1.2565;-2.1362;
583799389784097;-8.1613;-0.1232;-0.5767;
583799399876128;-10.4587;0.9045;-1.1133;
583799409980816;-9.8456;-0.0535;-0.5886;
583799420085503;-7.1865;0.4783;-3.3194;
583799430201805;-7.2200;-0.2931;-5.8181;
583799440306493;-11.7763;0.5501;-6.4457;
583799450411180;-9.0048;0.9332;-1.2811;
583799460510191;-6.2354;1.1154;-1.9971;
583799470614878;-9.6849;0.9141;-3.1400;
583799480719566;-12.1690;0.7199;-0.5288;
583799490835243;-9.7256;-0.3556;0.5372;
583799500939930;-9.1316;0.4349;-0.2270;
583799511044670;-10.5927;-0.4585;-3.1615;
583799521154357;-11.7069;0.7801;-2.5863;
583799531259045;-10.0947;-0.0535;-1.4964;
583799541363785;-10.8443;0.7609;-0.8545;
583799551452430;-7.7590;-0.1448;-1.1324;
583799561557118;-8.4607;0.7537;-4.2586;
583799571661805;-8.5878;0.6027;-3.2692;
583799581761180;-7.4357;0.1738;-1.9708;
583799591865868;-7.6729;-0.3796;-4.7952;
583799601970555;-9.2178;0.4038;-5.8971;
583799612077066;-8.5926;-0.0945;-3.9182;
583799622181805;-7.2057;0.2650;-3.4848;
583799632286493;-10.1976;-0.0392;-4.6944;
583799642385555;-13.3143;1.2685;-1.6092;
583799652490243;-9.1316;0.2363;-0.0257;
583799662594982;-10.2790;1.6089;-2.7972;
583799672701857;-7.6223;-0.0778;-1.8416;
583799682806545;-4.9971;0.4181;-1.2305;
583799692911285;-3.9045;-0.9903;-4.4910;
583799703020451;-29.2825;0.7032;-4.1483;
583799713125139;-28.8204;1.8772;12.4980;
583799723229826;4.6208;1.5658;12.1484;
583799733347222;3.5886;-1.5867;-7.4109;
583799743451910;-11.8720;-3.1319;-13.1148;
583799753556597;-12.0829;-0.8803;-7.1979;
583799763660451;-7.1842;2.0761;-2.2606;
583799773765139;-6.3168;1.7166;-4.7207;
583799783869826;-9.4167;-0.0511;-5.3438;
583799793972743;-10.0490;0.1618;0.7648;
583799804077430;-10.5425;-0.7555;2.8609;
583799814182118;-1.9881;-0.2644;-4.6466;
583799824283107;-10.4109;0.2674;-20.7491;
583799834387795;-17.8585;1.1608;-7.8829;
583799844492482;-10.8805;1.3621;8.7849;
583799854605139;-7.1626;0.9930;4.0896;
583799864709826;-11.0121;1.5009;-3.1038;
583799874814514;-11.8911;0.3320;-0.4881;
583799884916285;-7.1121;-0.4418;2.9495;
583799895020972;-4.7910;-1.1868;-2.8741;
583799905125660;-10.6265;-0.7388;-8.0961;
583799915248993;-11.0480;0.4854;-2.5193;
583799925353680;-8.9662;-0.0583;-1.2954;
583799935458420;-10.9618;-0.1735;-2.1314;
583799945543055;-9.5653;0.1522;-0.3610;
583799955647743;-9.0024;0.2674;-2.7852;
583799965752430;-10.7533;0.5189;-4.2419;
583799975853055;-7.8619;0.4636;-1.9493;
583799985957743;-7.0570;0.0661;-3.3266;
583799996062430;-10.4611;0.4421;-5.8780;
583800006171389;-13.2709;1.0220;-1.6187;
583800016276076;-8.9949;0.7080;0.7385;
583800026380764;-6.2163;-0.0655;-2.3590;
583800036486285;-10.2359;-0.4011;-4.5796;
583800046590972;-10.2622;0.3679;-3.7125;
583800056695660;-10.5855;1.1010;-2.5816;
583800066810347;-11.4242;1.0627;-2.8235;
583800076915035;-9.7304;1.0002;-1.1659;
583800087019722;-10.3244;0.3488;-1.3935;
583800097102326;-10.8491;0.6290;-1.4390;
583800107207014;-7.6104;0.0565;-1.9253;
583800117311701;-4.5251;0.1570;-5.0803;
583800127416597;-7.6944;-0.2740;-7.2362;
583800137521285;-10.6792;0.7633;-4.3304;
583800147626024;-8.2597;0.2483;-1.5156;
583800157735139;-7.5147;0.9858;-2.6154;
583800167839826;-9.1555;0.3009;-3.0535;
583800177944514;-9.7184;0.8877;-1.8009;
583800188035607;-11.6997;0.3129;-1.8703;
583800198140295;-10.7198;1.0244;-2.0955;
583800208245035;-12.6577;1.0340;-2.0788;
583800218384618;-11.6228;0.9715;-0.0640;
583800228489357;-9.1292;0.4974;1.8260;
583800238594045;-8.5591;0.3248;-0.9000;
583800248687430;-7.1674;0.2889;-2.0812;
583800258792118;-8.6477;0.3942;-4.9603;
583800268896805;-10.6744;0.5979;-2.6369;
583800278991285;-9.6515;0.4421;-0.7875;
583800289095972;-9.9389;0.5596;-2.7972;
583800299200660;-9.5342;0.6601;-4.1746;
583800309314097;-6.7792;0.6027;-3.8034;
583800319418785;-6.7983;0.5166;-5.4012;
583800329523472;-11.4888;0.3655;-6.3906;
583800339621701;-11.5798;2.0016;-2.7781;
583800349726389;-7.8739;0.4878;-1.2353;
583800359831076;-12.0326;1.0771;-1.6953;
583800369939305;-10.7390;0.5859;1.2176;
583800380043993;-7.4189;0.1235;-0.0377;
583800390148680;-7.5625;-0.7460;-4.2060;
583800400241180;-10.5975;0.6003;-7.0086;
583800410345868;-10.9857;0.5764;-2.7111;
583800420450555;-7.0522;0.6314;-1.7169;
583800430559305;-7.0522;0.0900;-3.6957;
583800440663993;-8.5711;0.8997;-3.0655;
583800450768680;-9.4693;0.3751;-3.7196;
583800460868576;-9.2803;0.8638;-2.0210;
583800470973264;-7.3373;0.0374;-1.5470;
583800481078003;-9.7639;0.1403;-3.2907;
583800491191545;-12.5189;0.8853;-2.4691;
583800501296285;-12.3727;0.1475;-0.8450;
583800511400972;-10.5640;0.8279;0.8414;
583800521501337;-6.7983;0.0039;-0.7107;
583800531606024;-8.3052;-0.6120;-4.3926;
583800541710712;-11.0504;1.0292;-2.2487;
583800551838368;-10.7916;1.0316;-1.4892;
583800561943055;-10.6241;0.2363;-1.4079;
583800572047743;-9.7519;0.8471;0.6452;
583800582121597;-8.0728;-0.3508;-1.6283;
583800592226285;-9.6323;-0.1926;-3.8465;
583800602331024;-9.5390;0.6673;-5.4036;
583800612460451;-7.4740;0.5309;-5.4251;
583800622565139;-5.3085;0.3751;-5.9593;
583800632669826;-9.0814;0.8830;-6.4289;
583800642777326;-9.0742;1.0603;-3.0176;
583800652882014;-9.4167;2.2555;-2.0067;
583800662986701;-11.4912;1.1417;-0.9670;
583800673096805;-9.9772;0.9500;0.8967;
583800683201493;-7.8763;0.1642;-1.3672;
583800693306180;-8.6955;-0.1831;-5.0707;
583800703396805;-7.5960;1.4961;-4.9364;
583800713501493;-7.5123;0.9691;-3.8919;
583800723606180;-26.4918;1.6424;-1.2544;
583800733714618;-22.6711;3.2545;12.2465;
583800743819305;5.3157;1.0819;9.0006;
583800753924045;0.4241;-2.8469;-7.8900;
583800764037587;-12.4708;-2.1808;-11.0450;
583800774142274;-10.1091;0.0206;-5.4706;
583800784246962;-6.0150;3.4582;-2.0258;
583800794334930;-7.9795;2.2053;-7.5236;
583800804439618;-11.7165;0.7801;-5.4347;
583800814544357;-10.1282;0.8016;1.9603;
583800824650972;-3.4400;0.4998;1.0427;
583800834755660;0.3401;-0.7579;-8.3859;
583800844860347;-9.6060;0.8973;-20.6653;
583800854962847;-17.3818;2.8089;-6.4481;
583800865067535;-15.2904;2.3611;8.0638;
583800875172222;-9.4119;0.8471;9.5300;
583800885275764;-11.9824;1.4913;2.1446;
583800895380451;-17.0513;-0.7579;-0.8976;
583800905485139;-9.0766;-1.5628;2.3028;
583800915582847;-3.7226;-1.0573;-1.3576;
583800925687535;-8.7652;-1.7115;-7.6816;
583800935792274;-11.1607;-0.6072;-3.9135;
583800945913264;-4.6137;0.3535;-1.6475;
583800956017951;-7.0522;1.7285;-3.5255;
583800966122639;-7.6944;-0.0176;-1.0965;
583800976214410;-4.5993;-0.6191;-4.0214;
583800986319097;-8.2789;-0.3772;-9.7418;
583800996423837;-14.0303;0.6840;-7.7680;
583801006543889;-10.7222;1.2302;-3.0464;
583801016648576;-7.1240;0.4684;-3.6117;
583801026753316;-7.3998;0.8925;-2.0859;
583801036839201;-12.3200;1.6519;-1.8392;
583801046943889;-13.3717;1.2736;0.1612;
583801057048576;-11.8672;0.9571;3.4430;
583801067134618;-11.2277;0.7944;2.4057;
583801077239305;-8.7123;-1.5532;0.9039;
583801087343993;-8.6907;-1.3113;-1.6403;
583801097463160;-12.0206;-0.1615;-3.3099;
583801107567847;-11.8146;0.5524;-1.6546;
583801117672535;-5.9767;-0.0105;-2.8765;
583801127779514;-6.9374;-0.1113;-5.4419;
583801137884201;-13.3669;0.5285;-3.7196;
583801147988941;-5.9743;0.7008;-1.6475;
583801158110347;-5.8116;-0.0559;-5.0061;
583801168215035;-7.9531;0.4540;-5.2983;
583801178319722;-5.6103;0.4807;-5.3940;
583801188404514;-7.5841;0.3942;-8.0052;
583801198509201;-12.0972;1.6519;-4.9723;
583801208613941;-10.3415;0.7992;-1.0726;
583801218738993;-10.2359;0.7032;-1.5541;
583801228843680;-13.8485;0.6577;0.2761;
583801238948368;-12.7657;0.6745;3.6538;
583801249038055;-7.0522;0.2913;-0.2509;
583801259142743;-9.2874;-0.2333;-4.1339;
583801269247482;-8.2860;-0.5375;-1.7599;
583801279360764;-7.1267;-0.5375;-0.9287;
583801289465451;-7.8428;0.5333;-3.0559;
583801299570139;-9.5315;1.1991;-3.5136;
583801309683055;-9.5124;0.7152;-1.6403;
583801319787743;-9.2034;0.8088;-2.8044;
583801329892430;-9.7567;0.9236;-1.0487;
583801339983472;-8.7676;1.0675;-3.9592;
583801350088160;-9.3377;1.3956;-5.5666;
583801360192847;-11.5941;1.7859;-3.1110;
583801370295764;-9.9054;1.9394;-0.2031;
583801380400451;-7.4453;1.2015;-0.7612;
583801390505139;-10.0995;0.4038;-3.7436;
583801400627847;-9.8767;0.5716;-2.4763;
583801410732535;-8.5256;0.9212;-1.1922;
583801420837222;-7.5864;0.0111;-3.9855;
583801430932430;-9.4789;0.6960;-4.1028;
583801441037118;-10.6744;1.5945;-4.3113;
583801451141805;-12.7753;1.2589;-3.3721;
583801461236649;-11.7284;1.9705;0.5492;
583801471341389;-8.5280;1.2015;0.3601;
583801481446076;-7.9508;0.0254;-2.2798;
583801491544097;-12.2507;-0.2189;-4.6466;
583801501648785;-11.3186;1.1824;-2.4236;
583801511753472;-8.1781;0.2841;-2.1529;
583801521925243;-8.4224;0.3583;-1.5733;
583801532029930;-11.4048;0.0589;-2.3351;
583801542134618;-6.2904;0.7705;-2.9602;
583801552178889;-6.2952;-0.3987;-4.6992;
583801562283576;-10.6983;1.1991;-5.3988;
583801572388264;-10.4396;0.9595;-3.8058;
583801582490607;-7.2918;1.0436;-4.1076;
583801592595295;-10.1856;0.8112;-4.0286;
583801602699982;-10.6648;1.7189;-3.2429;
583801612826285;-9.7543;0.8662;-2.3566;
583801622930972;-9.2441;0.5381;-1.1492;
583801633035660;-10.1115;0.5620;-2.1673;
583801643140972;-10.4444;1.1991;-3.0846;
583801653245660;-11.5726;0.8016;-0.7804;
583801663350347;-9.6969;0.6888;0.8366;
583801673458472;-7.8619;0.3033;-0.4570;
583801683563160;-9.7687;-0.4968;-3.7220;
583801693667847;-11.6133;0.2363;-2.7589;
583801703760555;-8.4009;0.7008;-2.7446;
583801713865243;-7.9340;0.2961;-2.9052;
583801723969930;-7.4189;-0.1759;-4.7255;
583801734103264;-10.4228;0.8566;-3.6718;
583801744207951;-9.9724;1.4674;-3.5064;
583801754312639;-8.2597;0.4421;-1.8464;
583801764385607;-8.5878;0.7418;-1.8727;
583801774490295;-7.5362;0.3200;-3.6308;
583801784594982;-9.2082;1.0244;-4.5461;
583801794708680;-12.6984;0.6505;-4.0502;
583801804813368;-9.8958;0.6314;-1.1779;
583801814918055;-9.5821;0.6529;-1.9325;
583801825007222;-11.0719;0.1977;-0.7780;
583801835111910;-11.2540;1.1656;0.1947;
583801845216597;-9.1914;0.4134;-1.7551;
583801855317847;-8.9136;0.3344;-2.0859;
583801865422535;-6.9733;0.0494;-2.0330;
583801875527222;-6.7576;0.4158;-4.4166;
583801885641597;-8.5950;0.9236;-5.5857;
583801895746285;-8.5687;0.7848;-3.8560;
583801905850972;-4.6137;0.4181;-3.7029;
583801915970451;-10.4587;0.5764;-5.3246;
583801926075139;-10.0370;0.8949;-1.2305;
583801936179826;-13.1201;1.2855;-2.4811;
583801946303264;-27.9625;1.4674;3.1603;
583801956407951;-16.3493;3.2091;11.7649;
583801966512639;0.1247;-0.5112;3.4262;
583801976588889;-2.2875;-2.2122;-6.6446;
583801986693576;-11.9824;-1.2610;-9.2435;
583801996798264;-13.1201;-0.0535;-5.1233;
583802006883160;-1.0636;1.8700;-1.5637;
583802016987847;-7.5099;0.6912;-4.9986;
583802027092535;-10.1043;-0.2070;-3.8584;
583802037197639;-9.8216;0.5453;-2.9219;
583802047302326;-6.0966;-0.2883;-2.4715;
583802057407014;-5.1239;0.1164;-10.7934;
583802067551337;-12.8949;0.8399;-13.3950;
583802077656024;-12.7561;1.6591;-3.4107;
583802087760712;-10.1976;1.3717;2.3698;
583802097827326;-11.4984;1.4243;3.8142;
583802107932014;-11.9680;1.6256;2.7147;
583802118036701;-9.5940;-0.9114;0.5444;
583802128155451;-7.5003;-0.9927;-0.1286;
583802138260139;-7.1913;-1.0741;-4.3591;
583802148364826;-9.6227;-0.1831;-3.9377;
583802158480243;-7.6753;0.1905;-1.2739;
583802168584930;-7.2440;-0.2931;-3.2046;
583802178689618;-8.8466;0.4062;-4.3256;
583802188777691;-11.2421;0.4469;-3.5088;
583802198882378;-11.7356;0.5764;-0.1190;
583802208987066;-9.3138;-0.0176;-1.8990;
583802219087326;-11.0839;0.0565;-2.4930;
583802229192014;-10.4803;0.2626;-2.2774;
583802239296701;-12.0709;0.6769;-2.1745;
583802249412118;-11.5798;0.3368;-0.0090;
583802259516805;-9.5100;0.2626;-0.6150;
583802269621493;-6.2593;-0.2883;-2.2152;
583802279726805;-6.2330;-0.1017;-4.0430;
583802289831493;-28.0059;0.2650;-3.1205;
583802299936180;2.1488;1.5826;4.3989;
583802310033107;19.6119;-1.7091;-9.8856;
583802320137795;-24.1179;-1.1964;-21.9805;
583802330242482;-26.7003;2.2747;0.7504;
583802340335607;-8.4897;2.2292;7.3430;
583802350440295;-1.6935;0.5453;2.1589;
583802360544930;-10.6023;0.1905;-4.8718;
583802370675451;-13.3238;-0.0057;-3.6595;
583802380780139;-8.5974;0.8662;-1.0654;
583802390884774;-7.6729;-0.1950;-3.8871;
583802400958472;-9.3832;0.5070;-2.6058;
