Sensor: bmi160 Accelerometer Non-wakeup
Vendor: BOSCH
TimestampAcc [ns]; AccX [m/s^2]; AccY [m/s^2]; AccZ [m/s^2]
912058030642392;-9.5940;1.0388;-1.9397;
912058040755465;-9.5581;0.9978;-1.8870;
912058050858069;-9.5342;0.9787;-1.8272;
912058060781611;-9.5701;1.0172;-1.8894;
912058071089007;-9.5581;1.0675;-1.9612;
912058081012548;-9.5701;1.1082;-1.8990;
912058091312236;-9.5868;1.1512;-1.8607;
912058101405778;-9.5605;1.1321;-1.8368;
912058111524319;-9.5438;1.1369;-1.7743;
912058121619944;-9.5291;1.1560;-1.7527;
912058131729892;-9.5605;1.1656;-1.7599;
912058141827080;-9.5677;1.1489;-1.7815;
912058151941298;-9.5773;1.2039;-1.7671;
912058162044788;-9.5677;1.2182;-1.7432;
912058172170569;-9.5653;1.2613;-1.7192;
912058182252392;-9.5438;1.2760;-1.7264;
912058192363850;-9.5342;1.2903;-1.7169;
912058202472653;-9.5243;1.2903;-1.7312;
912058212589944;-9.5653;1.2784;-1.7527;
912058222679319;-9.5916;1.2470;-1.7503;
912058232797705;-9.5725;1.2374;-1.7456;
912058242893017;-9.5486;1.2278;-1.7599;
912058253000934;-9.5581;1.1847;-1.7838;
912058263106559;-9.5390;1.1512;-1.7767;
912058273220830;-9.5821;1.1393;-1.8153;
912058283317392;-9.5677;1.1106;-1.8583;
912058293422861;-9.5462;1.0842;-1.8416;
912058303529163;-9.5605;1.0890;-1.8870;
912058313640725;-9.5605;1.0747;-1.8727;
912058323742028;-9.5486;1.0268;-1.8727;
912058333847496;-9.5725;0.9930;-1.8679;
912058343954528;-9.5725;0.9428;-1.8631;
912058354059996;-9.5653;0.9595;-1.8823;
912058364167340;-9.5533;0.9858;-1.9038;
912058374266923;-9.5725;0.9882;-1.9540;
912058384384580;-9.5291;0.9547;-2.0115;
912058394488955;-9.5243;0.8949;-2.0692;
912058404609267;-9.5219;0.8518;-2.0931;
912058414708746;-9.5462;0.7825;-2.0979;
912058424810725;-9.5462;0.7295;-2.0644;
912058434922913;-9.5486;0.6912;-2.0234;
912058445021350;-9.5892;0.7032;-2.0521;
912058455124215;-9.5821;0.7657;-2.0859;
912058465237236;-9.5243;0.7920;-2.1147;
912058475349059;-9.5243;0.7825;-2.1840;
912058485445205;-9.5291;0.7801;-2.2319;
912058495555517;-9.5124;0.7848;-2.2367;
912058505661663;-9.5438;0.7537;-2.1625;
912058515770725;-9.5701;0.6817;-2.1505;
912058525873278;-9.5725;0.6338;-2.1482;
912058535977913;-9.5557;0.6386;-2.1888;
912058546083538;-9.5533;0.6577;-2.2558;
912058556190725;-9.5124;0.6673;-2.2487;
912058566298278;-9.5315;0.6338;-2.2463;
912058576414528;-9.5291;0.5429;-2.2415;
912058586515205;-9.5414;0.4950;-2.1553;
912058596618121;-9.5438;0.4612;-2.1314;
912058606728538;-9.5629;0.4902;-2.1194;
912058616836038;-9.5510;0.5883;-2.1410;
912058626940205;-9.5821;0.6290;-2.2175;
912058637041975;-9.5916;0.5931;-2.2199;
912058647150361;-9.5629;0.4831;-2.2510;
912058657255309;-9.5605;0.3751;-2.2893;
912058667363121;-9.5773;0.3344;-2.2702;
912058677476038;-9.5629;0.2913;-2.2989;
912058687581871;-9.5677;0.2722;-2.3204;
912058697683225;-9.5605;0.3320;-2.3710;
912058707797392;-9.5243;0.4759;-2.4547;
912058717896038;-9.5315;0.5668;-2.5170;
912058728001611;-9.5028;0.5524;-2.4236;
912058738104528;-9.5172;0.4612;-2.3276;
912058748216142;-9.5510;0.3751;-2.2750;
912058758324892;-9.5557;0.2794;-2.2128;
912058768419736;-9.6036;0.1857;-2.1888;
912058778530309;-9.6251;0.1116;-2.2223;
912058788633486;-9.6251;0.0494;-2.3375;
912058798762705;-9.5964;-0.0176;-2.3997;
912058808842965;-9.5629;-0.0511;-2.3662;
912058818953694;-9.5510;-0.0416;-2.3590;
912058829060934;-9.5462;-0.0153;-2.3614;
912058839156298;-9.5629;0.0805;-2.3925;
912058849263173;-9.5821;0.2554;-2.4332;
912058859381871;-9.5821;0.4325;-2.5911;
912058869485882;-9.5510;0.5453;-2.5935;
912058879610361;-9.4860;0.6051;-2.4739;
912058889706611;-9.4430;0.6123;-2.4188;
912058899794007;-9.4693;0.6625;-2.4595;
912058909928121;-9.4765;0.8303;-2.4188;
912058920036923;-9.5315;0.9595;-2.4835;
912058930130621;-9.5557;1.1584;-2.4763;
912058940236246;-9.4813;1.1824;-2.4595;
912058950328955;-9.4573;0.6673;-2.1458;
912058960482028;-9.4932;0.8088;-2.4141;
912058970576194;-9.4645;0.8447;-2.4619;
912058980656871;-9.4214;0.8949;-2.4212;
912058990746871;-9.4190;1.0196;-2.5361;
912059000882444;-9.4597;1.0555;-2.6776;
912059010979736;-9.4789;1.0388;-2.4906;
912059021084736;-9.4382;0.9882;-2.1147;
912059031219111;-9.3712;1.1130;-1.9708;
912059041289111;-9.4119;1.2135;-2.1218;
912059051398746;-9.4502;1.1584;-2.2941;
912059061496819;-9.4813;1.0244;-2.2654;
912059071618590;-9.5052;0.8830;-2.2128;
912059081706298;-9.5291;0.8423;-2.2917;
912059091814215;-9.5438;0.8183;-2.3853;
912059101956611;-9.7280;0.6075;-2.1745;
912059112046246;-9.6275;0.2602;-1.7527;
912059122141871;-9.3808;0.2291;-1.7743;
912059132244423;-9.1962;0.4421;-2.2558;
912059142368278;-9.0550;0.5883;-2.6369;
912059152473069;-9.0861;0.5883;-2.8068;
912059162561350;-9.3808;0.3823;-2.8427;
912059172631142;-10.0250;0.0302;-2.5792;
912059182700882;-10.3220;-0.3437;-2.0306;
912059192897132;-10.1426;-0.8297;-1.5036;
912059202966871;-9.8432;-1.0789;-1.3744;
912059213036611;-9.3042;-0.8177;-1.6570;
912059223208173;-8.7796;-0.6168;-1.9205;
912059233277913;-8.7796;-0.0344;-2.9219;
912059243347653;-9.1531;0.4540;-3.9712;
912059253532392;-9.3544;0.2411;-3.8632;
912059263602132;-9.5486;0.1451;-3.2022;
912059273671871;-9.6395;0.1929;-2.6130;
912059283855465;-9.6156;0.0446;-1.9493;
912059293925205;-9.1938;1.9585;-4.3831;
912059303994944;-7.9962;5.3674;-8.3836;
912059314169007;-7.1073;6.0188;-7.8015;
912059324238746;-8.8155;2.6509;-4.0286;
912059334308538;-11.3976;0.0206;-1.0869;
912059344441246;-11.4048;0.6553;-0.6939;
912059354510986;-8.5567;2.4066;-0.4376;
912059364580778;-7.1913;2.9719;-2.0979;
912059374803642;-8.3459;2.3970;-3.6694;
912059384873382;-9.6706;2.2340;-3.5734;
912059394943121;-10.0899;2.7036;-3.0440;
912059405134163;-9.5366;2.9169;-3.5590;
912059415203903;-9.6467;2.6701;-5.1138;
912059425273642;-9.5291;2.0303;-4.6370;
912059435343382;-8.8490;1.6735;-2.8379;
912059445557132;-8.6142;2.1574;-2.6201;
912059455626871;-8.6142;2.0207;-2.1242;
912059465696611;-9.1316;2.0160;-1.9851;
912059475873173;-9.4310;1.9346;-2.5409;
912059485942913;-9.0550;2.0064;-3.3840;
912059496012653;-8.9423;2.4209;-4.4070;
912059506186715;-8.7939;2.4185;-3.8321;
912059516256455;-8.3626;1.9729;-2.9339;
912059526326194;-9.3209;2.1048;-4.2897;
912059536497705;-11.3067;2.2651;-5.4275;
912059546567496;-11.9584;1.3478;-3.5231;
912059556637236;-9.4119;0.8351;-1.2978;
912059566833173;-8.2717;2.2364;-2.9100;
912059576902913;-8.1589;2.2914;-2.2319;
912059586972653;-7.5984;1.3167;0.5946;
912059597146819;-7.6801;1.2182;-0.1310;
912059607216559;-8.9877;1.2589;-3.0272;
912059617286298;-10.2000;1.0460;-4.2347;
912059627462132;-10.8443;1.2736;-4.5987;
912059637531871;-9.5219;1.9274;-3.2788;
912059647601611;-7.9412;1.9274;-2.4811;
912059657765830;-7.9388;1.5802;-2.7398;
912059667835621;-8.8131;1.0938;-1.7527;
912059677905361;-10.0442;1.4148;-1.5852;
912059688103382;-10.7151;2.4879;-3.9425;
912059698173121;-10.0971;2.7251;-5.8540;
912059708242861;-7.4524;1.6065;-5.1090;
912059718425100;-7.2416;0.7490;-4.4166;
912059728494840;-8.8442;0.7753;-2.6345;
912059738564632;-9.1938;1.0675;-0.5360;
912059748735569;-9.7926;1.3143;-1.2281;
912059758805309;-10.5736;1.7812;-2.5863;
912059768875048;-11.6587;1.8150;-2.6225;
912059779053330;-12.0254;1.5802;-2.7829;
912059789123121;-9.5701;1.2206;-3.5160;
912059799192861;-8.8250;0.6386;-3.4753;
912059809371559;-7.9962;0.4134;-2.6489;
912059819441350;-6.5874;0.8734;-3.5112;
912059829511090;-7.8117;1.0484;-5.4251;
912059839680986;-9.4071;0.3224;-4.5987;
912059849750778;-9.8647;-0.0802;-1.5924;
912059859820517;-9.6969;0.5094;-1.1228;
912059870002080;-10.4516;1.9872;-3.3888;
912059880071871;-10.2287;2.1215;-3.5255;
912059890141611;-10.3869;1.5897;-3.1639;
912059900322965;-12.7343;0.5883;-1.9373;
912059910392705;-10.5712;0.2818;1.1506;
912059920462496;-5.5600;0.5118;-0.0999;
912059930646871;3.2961;1.2159;-6.6446;
912059940716611;-15.0987;-1.0645;-11.6940;
912059950786350;-14.5430;-2.9641;-3.6766;
912059960970986;-7.4764;-0.8632;-5.9115;
912059971040725;-7.3875;0.1810;-11.9961;
912059981110517;-5.3252;-2.2409;-5.7221;
912059991282809;-2.4386;-1.9364;-0.4041;
912060001352548;-4.4868;0.1977;-4.1794;
912060011422288;-11.3569;1.0531;-9.0233;
912060021618746;-16.9816;0.7992;-6.7929;
912060031688486;-14.3635;1.0244;-1.8751;
912060041758225;-10.9092;3.0891;-2.3447;
912060051929528;-8.0273;2.8810;-1.5374;
912060061999267;-6.0126;1.9705;-1.3504;
912060072069007;-8.3626;2.1670;-5.2959;
912060082243017;-10.0394;1.3645;-6.8961;
912060092312809;-8.1254;0.7968;-5.8373;
912060102382548;-9.2201;0.2195;-7.0469;
912060112580100;-11.3665;-0.4729;-6.5127;
912060122649840;-8.2980;-0.7053;-1.9516;
912060132719580;-7.4189;0.8997;-0.7899;
912060142875205;-8.7461;0.9117;-0.9048;
912060152944996;-7.5601;0.7199;-1.9253;
912060163014736;-8.4033;0.5788;-3.3673;
912060173200205;-8.5232;-0.4298;-1.7961;
912060183269996;-10.0828;-0.3532;-1.7360;
912060193339736;-9.9485;0.8830;-2.1553;
912060203525257;-9.9245;1.9107;0.1253;
912060213594996;-10.3391;3.4175;2.9471;
912060223664736;-9.1651;4.9624;2.2310;
912060233842757;-11.4697;5.8418;-1.5302;
912060243912496;-10.8829;4.4474;-1.1683;
912060253982236;-10.3750;3.1469;-1.0702;
912060264156975;-10.2263;3.3359;-3.5901;
912060274226767;-10.0804;2.6940;-2.1529;
912060284296507;-9.4095;0.9500;0.5731;
912060294476246;-10.0322;0.9452;0.1851;
912060304546038;-10.5999;-0.1639;-0.3347;
912060314615778;-11.5893;-0.7795;-0.2174;
912060324800153;-10.8419;-1.1438;0.6404;
912060334869892;-10.4731;-0.0897;-1.4222;
912060344939632;-10.5903;-0.0607;-2.6010;
912060355109528;-9.5916;-1.7378;0.9541;
912060365208590;-7.0642;-1.9941;1.9098;
912060375307705;-7.9340;-1.4767;-2.0426;
912060385435778;-11.2851;-1.3591;-4.9005;
912060395534840;-10.4252;-1.0932;-3.2429;
912060405633955;-9.0933;0.1786;-2.4212;
912060415758903;-8.1063;0.4831;-1.5517;
912060425857965;-9.8025;1.3334;-5.0252;
912060435957080;-12.2937;1.2230;-5.1114;
912060446095361;-9.5414;0.9547;-1.9660;
912060456194423;-6.7313;1.9466;-3.4920;
912060466293538;-8.5663;0.8925;-5.1138;
912060476396923;-9.7065;-0.3051;-3.9278;
912060486495986;-8.2023;0.1427;-3.3912;
912060496595100;-7.2823;0.8758;-4.0789;
912060506712757;-10.6624;0.3631;-7.4973;
912060516811871;-11.9560;-0.2548;-6.7953;
912060526910934;-7.6848;-0.7412;-2.7494;
912060537032861;-7.0355;-0.0296;-4.6274;
912060547131975;-9.1986;-0.7125;-5.0348;
912060557231038;-10.0708;-0.7077;-1.4916;
912060567351507;-7.5075;-0.1783;-1.5203;
912060577450569;-7.8452;-0.3437;-5.0827;
912060587549684;-11.7930;-0.9760;-4.6633;
912060597671142;-9.0694;-0.4753;-5.2047;
912060607770153;-7.5888;0.2100;-7.6409;
912060617869267;-9.4214;-0.5112;-7.2458;
912060627988590;-10.1043;-0.2261;-5.6910;
912060638087705;-6.9063;0.4759;-3.4513;
912060648186767;-7.9747;0.7175;-3.2812;
912060658330257;-8.4129;0.6529;-2.2893;
912060668429371;-8.3195;1.3478;-2.9602;
912060678528434;-10.3726;1.6687;-3.9401;
912060688623173;-12.2483;2.3010;-3.6332;
912060698722288;-6.3242;2.6486;-2.4595;
912060708821350;-6.6667;3.6042;-3.7460;
912060718944736;-11.0432;3.5372;-3.4370;
912060729043798;-9.9628;2.9456;-1.8990;
912060739142861;-6.1612;3.2067;-3.0296;
912060749260934;-9.6610;3.4199;-5.9569;
912060759359996;-13.4913;3.1780;-3.3458;
912060769459111;-8.5304;3.3646;-0.7756;
912060779585257;-9.7591;3.3814;-1.7097;
912060789684319;-13.0914;1.8915;-0.3634;
912060799783434;-9.0096;0.3129;1.8260;
912060809919007;-7.1626;-0.7125;-1.9038;
912060820018069;-12.0302;-0.6550;-4.0597;
912060830117184;-11.4721;-0.2429;-3.6021;
912060840242548;-8.0895;-0.8512;-2.4141;
912060850341611;-10.0923;0.0900;-1.9612;
912060860440673;-7.3875;-0.2644;-2.0282;
912060870590309;-8.9877;0.2602;-4.0932;
912060880689371;-10.0155;0.1546;-3.7316;
912060890788434;-8.0225;-0.2357;-3.1615;
912060900847548;-11.1942;0.6840;-4.1794;
912060910946663;-9.9724;0.6553;-2.2989;
912060921045725;-9.5749;0.5309;-2.8693;
912060931220569;-8.9136;-0.2764;-2.0836;
912060941319580;-6.7241;-0.4011;-3.5183;
912060951418642;-10.2455;-1.0047;-4.8503;
912060961496559;-9.9341;-2.6527;-2.8499;
912060971595621;-7.5434;-3.5270;-3.2453;
912060981694684;-8.9638;-2.1616;-5.1185;
912060991806090;-9.0622;-2.8804;-4.0693;
912061001905153;-10.2550;-1.9220;-4.9795;
912061012004267;-8.2167;-1.6107;-3.6308;
912061022132653;-6.8007;-0.9281;-5.3749;
912061032231715;-11.2732;0.0302;-5.8083;
912061042330830;-8.5424;-1.0908;-3.2285;
912061052453173;-7.6944;-0.1065;-4.5030;
912061062552236;-8.3100;0.3440;-3.7053;
912061072651350;-8.5232;0.4878;-4.9340;
912061082782340;-10.9211;2.1072;-6.0168;
912061092881403;-8.2932;2.7060;-4.1937;
912061102980517;-9.8049;2.7610;-4.9196;
912061113120621;-10.0899;2.4162;-2.6776;
912061123219736;-9.1460;2.2890;-2.6512;
912061133318798;-10.0490;2.1120;-1.8488;
912061143416923;-10.0585;2.4233;-1.7551;
912061153515986;-8.8442;2.4520;-2.0426;
912061163615100;-6.7816;1.9681;-3.6165;
912061173738486;-9.3520;2.3659;-6.1439;
912061183837600;-13.5153;-0.3652;-3.4346;
912061193936663;-9.1603;-0.4250;-1.9421;
912061204057861;-6.0509;-0.9329;-3.0535;
912061214156975;-9.4047;-1.8766;-2.8765;
912061224256038;-11.7882;-3.7905;-3.1998;
912061234378330;-9.7974;-2.8086;-2.4906;
912061244477444;-9.3951;-2.0827;-3.5901;
912061254576507;-12.6338;-2.0157;-1.8129;
912061264698330;-11.9728;-2.4132;0.0556;
912061274797392;-7.3875;-1.4791;-0.2246;
912061284896507;-6.5973;-1.2682;-0.8976;
912061295018694;-7.6247;-1.2778;-3.8919;
912061305117757;-7.1794;-0.8994;-5.8059;
912061315216871;-9.5028;-1.1390;-5.8828;
912061325334580;-9.1579;-1.4288;-3.9159;
912061335433642;-10.6911;-0.6048;-4.2778;
912061345532757;-10.6816;-0.1448;-2.3180;
912061355646975;-9.5916;0.6960;-1.6953;
912061365751975;-8.8657;0.5213;-0.6389;
912061375856923;-8.1517;0.7175;-2.9937;
912061385970830;-8.4200;1.0364;-4.1411;
912061396075830;-12.7367;0.0733;-4.9842;
912061406180830;-10.8948;-0.2022;-2.1505;
912061416284996;-6.8510;0.1211;-2.2941;
912061426389996;-8.1446;-0.3867;-2.2534;
912061436494944;-10.0035;-0.3170;-4.5006;
912061446605830;-10.7414;-0.7675;-4.3591;
912061456710830;-7.7686;-0.5686;-3.3266;
912061466815778;-6.5874;-0.7627;-3.3936;
912061476938278;-9.3209;-0.5279;-5.6288;
912061487043225;-9.5653;0.0470;-5.3007;
912061497148173;-12.0541;0.0063;-3.3888;
912061507241350;-8.1805;0.2961;-2.8187;
912061517346350;-8.5496;0.3966;-3.0033;
912061527451298;-8.3052;0.9619;-3.1301;
912061537563850;-8.7987;1.0914;-6.3523;
912061547668850;-9.9532;1.4411;-6.0479;
912061557773798;-9.7854;0.8088;-4.5245;
912061567888590;-10.6863;-0.5231;-2.4284;
912061577993590;-8.5304;-0.1711;-1.2835;
912061588098538;-8.0752;-0.2859;-3.5495;
912061598225153;-13.4267;-0.5447;-4.0047;
912061608330100;-10.1474;-1.2084;-0.4738;
912061618435048;-6.9996;-1.0214;-0.4810;
912061628524475;-7.9146;-1.6732;-3.4609;
912061638629475;-7.8165;-0.5136;-4.4839;
912061648734423;-9.6802;-2.1688;-6.1152;
912061658851455;-10.8996;-0.7125;-5.9043;
912061668956455;-7.9843;-1.4886;-3.1205;
912061679061403;-7.2559;-0.4155;-3.5614;
912061689160413;-10.4707;-1.0525;-3.4585;
912061699265413;-10.8996;-0.3266;-2.0644;
912061709370361;-10.2000;0.0015;-2.9530;
912061719485934;-8.5232;-0.3724;-2.4523;
912061729590882;-7.9771;0.3751;-3.0081;
912061739695882;-10.0466;-0.6933;-4.4381;
912061749794996;-11.2110;0.2124;-3.3960;
912061759899996;-7.9193;0.3248;-2.0330;
912061770004944;-9.0742;0.3990;-3.9903;
912061780115725;-10.2885;0.9930;-4.0908;
912061790220725;-8.5783;1.1177;-4.0884;
912061800325725;-10.8538;1.9250;-5.1138;
912061810453798;-8.3746;1.3190;-3.9903;
912061820558798;-7.7853;1.1584;-3.0392;
912061830663746;-9.9532;0.8925;-4.4046;
912061840743434;-9.4023;0.7609;-3.3242;
912061850848382;-8.4440;1.0531;-3.1974;
912061860953382;-8.4607;0.3344;-3.7340;
912061871084996;-8.8179;0.6649;-3.6861;
912061881189996;-9.4597;0.6721;-4.2586;
912061891294944;-10.0851;-0.1256;-2.8211;
912061901396975;-7.6008;-0.2142;-2.9818;
912061911501923;-9.6826;0.0829;-4.3208;
912061921606923;-11.0264;-0.3218;-2.6943;
912061931726871;-11.1894;-0.3413;-1.7097;
912061941831871;-9.7113;-1.2682;-0.8880;
912061951936819;-6.8198;0.4759;-3.8919;
912061962060413;-7.5290;0.4445;-4.8072;
912061972165413;-9.9628;-0.3963;-5.2478;
912061982270361;-11.1488;-0.4513;-4.8718;
912061992372809;-8.9088;-0.5806;-2.8669;
912062002477809;-8.8370;-0.2477;-2.7805;
912062012582757;-11.7643;-0.8731;-2.4643;
912062022669059;-10.4300;-1.0382;-2.7446;
912062032774059;-8.9375;-0.7029;-3.4226;
912062042879007;-9.0838;-1.1052;-3.0679;
912062052987496;-9.3377;-1.0454;-3.6117;
912062063092496;-10.2168;-1.1701;-3.6260;
912062073197496;-9.7352;-0.6335;-2.7374;
912062083307913;-9.6634;-1.8000;-2.9794;
912062093412913;-9.3784;-1.3280;-2.4500;
912062103517861;-7.4668;-1.8024;-2.9291;
912062113627809;-8.8585;-1.3735;-5.1425;
912062123732809;-11.3474;-0.8201;-4.8933;
912062133837757;-8.7628;-1.7785;-1.3193;
912062143945673;-9.2010;-1.0430;-1.8200;
912062154050673;-11.3210;-0.2883;-2.1482;
912062164155621;-9.7376;-0.9592;-1.8296;
912062174267028;-4.5156;-0.3843;-2.9770;
912062184372028;-5.0474;-0.3365;-6.8432;
912062194476975;-13.0843;-0.5542;-7.9597;
912062204593746;-12.5333;0.1738;-4.6872;
912062214698746;-10.4109;-0.2764;-0.4280;
912062224803694;-6.3864;-0.5710;0.6595;
912062234905934;-10.1665;1.0172;-3.0679;
912062245010934;-11.5869;0.2602;-3.1902;
912062255115934;-8.2238;0.5955;-4.0908;
912062265248538;-8.6883;0.2794;-3.9927;
912062275353486;-9.2130;0.5189;-4.2658;
912062285458486;-11.7500;-0.1639;-3.6141;
912062295565934;-8.3028;0.8614;-2.6847;
912062305670934;-7.1315;-0.1041;-3.7531;
912062315775882;-10.2072;-0.0392;-3.9544;
912062325877184;-9.6538;0.0159;-4.5269;
912062335982184;-8.0393;-0.3413;-3.5136;
912062346087132;-9.1938;0.0852;-4.2682;
912062356186871;-10.5544;0.0254;-2.4595;
912062366293069;-9.3401;-0.3963;-1.9588;
912062376399215;-10.2790;0.0565;-1.7527;
912062386504423;-7.7830;-0.5925;-1.7001;
912062396610621;-7.0235;0.0350;-3.9616;
912062406716767;-11.4864;0.3248;-6.2659;
912062416830725;-11.3043;-1.0645;-1.3122;
912062426936923;-6.4487;-2.1544;0.6332;
912062437043069;-7.9579;-1.5054;-2.3925;
912062447146142;-11.8433;-0.4418;-5.5810;
912062457252288;-12.0900;0.2865;-4.1124;
912062467358486;-7.3277;-0.4633;-2.9698;
912062477471767;-7.7710;0.2698;-3.3482;
912062487577965;-10.3582;-0.4442;-3.6571;
912062497684111;-11.0575;-0.0033;-3.0057;
912062507789059;-7.9986;-0.1783;-2.6800;
912062517895257;-8.0991;-0.0248;-2.9746;
912062528001403;-9.9939;0.3607;-3.1352;
912062538103746;-9.3712;1.4865;-3.5590;
912062548209944;-9.4071;1.7740;-4.3424;
912062558316090;-9.0646;1.8461;-2.4643;
912062568415205;-9.3927;2.9049;-3.4059;
912062578521403;-9.8145;2.0279;-2.6393;
912062588627548;-7.1578;1.9035;-3.5351;
912062598717653;-7.1602;1.8245;-4.1913;
912062608823798;-9.6299;0.7513;-5.3509;
912062618929996;-10.5473;1.2182;-3.7627;
912062629054163;-8.6477;1.0125;-2.7637;
912062639160309;-8.2430;0.9858;-3.2046;
912062649266507;-8.5783;1.5296;-3.1926;
912062659394475;-10.4635;0.9571;-3.3721;
912062669500673;-9.2249;1.0555;-2.2199;
912062679606819;-8.5591;-0.0200;-3.6069;
912062689699423;-11.0432;0.1666;-2.8884;
912062699805621;-9.9772;-0.3218;-2.5839;
912062709911767;-8.5424;-0.8874;-1.9349;
912062720029684;-9.2922;-1.2682;-1.6451;
912062730135882;-9.6275;-0.6814;-3.3386;
912062740242028;-8.9064;-1.0789;-3.3984;
912062750327757;-8.4129;-1.0741;-3.2142;
912062760433903;-9.3975;-0.7914;-3.4848;
912062770540100;-9.2827;-0.2237;-3.4394;
912062780652184;-7.9579;-0.6837;-3.1854;
912062790758382;-7.7279;-0.6096;-2.7494;
912062800864528;-8.8585;-0.6646;-3.8034;
912062810976142;-10.4874;-0.3413;-3.4131;
912062821082288;-8.9279;-0.6168;-2.8187;
912062831188486;-7.6657;-0.1376;-2.9578;
912062841286663;-9.4908;0.4325;-2.9435;
912062851392861;-10.8467;0.4373;-3.7292;
912062861499007;-9.4238;0.3846;-2.6154;
912062871641559;-10.2383;-0.0368;-1.9660;
912062881747705;-9.6371;-0.0754;-2.0979;
912062891853903;-8.2478;-0.3123;-2.9698;
912062901932392;-10.7151;-1.3519;-3.6766;
912062912038590;-9.4525;-0.6981;-3.2381;
912062922144736;-9.6754;-0.3652;-3.9640;
912062932244267;-9.5916;-0.8755;-4.1195;
912062942350465;-9.2273;-0.1137;-3.8824;
912062952456611;-10.8132;0.3009;-2.3228;
912062962604684;-8.7844;-0.0511;-2.1482;
912062972710882;-7.5051;0.0326;-2.5170;
912062982817028;-10.4874;-0.3338;-2.2104;
912062992906767;-10.4037;-0.2979;-2.7374;
912063003012913;-8.4583;-0.1998;-3.0990;
912063013119111;-7.2129;-0.0440;-2.8259;
912063023221663;-9.5219;-0.4944;-4.4213;
912063033327861;-10.8781;0.1881;-4.0717;
912063043434007;-9.0598;0.1786;-3.5423;
912063053531246;-9.1771;0.4277;-3.7005;
912063063637444;-17.9806;-0.2644;-3.0129;
912063073743590;-12.2483;1.4626;-0.5551;
912063083846455;3.9670;0.4253;-1.3146;
912063093952653;-0.8695;-2.0635;-8.3596;
912063104058798;-16.7085;-1.6705;-11.1984;
912063114168538;-21.3416;0.5142;-6.8599;
912063124274736;-11.0073;4.3899;1.9914;
912063134380882;-4.0627;2.1407;3.3090;
912063144488538;-8.3554;-0.6191;0.5970;
912063154594736;-12.9858;-0.3338;-1.7961;
912063164700882;-11.6707;1.1393;-3.9760;
912063174802757;-7.1240;-1.0238;-3.1807;
912063184908955;-6.4271;-0.9185;-3.6045;
912063195015100;-8.4057;-1.9774;-5.2406;
912063205128746;-8.8418;-0.3338;-4.8814;
912063215234944;-8.2597;-0.8827;-4.5341;
912063225341090;-7.1674;-0.4992;-4.8024;
912063235454163;-8.2502;-0.4896;-4.6418;
912063245560361;-9.0981;-0.4801;-3.6308;
912063255666507;-9.8121;0.3488;-3.5614;
912063265780934;-7.6080;1.2760;-5.0755;
912063275887080;-10.2526;0.7705;-7.2458;
912063285993278;-15.2258;0.7343;-2.6967;
912063296092705;-10.0418;1.9131;6.5931;
912063306198903;-1.4348;0.3583;1.8141;
912063316305048;-7.1554;-1.8742;-7.0110;
912063326420205;-14.3417;-1.0932;-7.8206;
912063336526403;-11.9656;1.1441;-5.3557;
912063346632548;-6.1493;0.3990;-2.7135;
912063356733330;-6.4439;0.8830;-4.5437;
912063366839788;-11.2780;1.1058;-4.2778;
912063376946246;-12.3248;0.7920;-1.7384;
912063387056246;-10.2814;-0.2213;-0.9048;
912063397162705;-8.0130;-1.0789;-0.2246;
912063407269163;-8.4969;-1.8263;-0.6413;
912063417378538;-9.8049;-1.9893;-2.2319;
912063427484996;-9.6132;-2.2385;-1.7216;
912063437591455;-8.1781;-1.8909;-2.4260;
912063447677080;-9.5605;-1.6851;-3.5901;
912063457783538;-8.6285;-1.7378;-3.1352;
912063467889996;-10.7127;-1.2634;-3.4202;
912063478008538;-9.4310;-1.4671;-2.0931;
912063488114996;-8.2741;-1.0478;-2.2654;
912063498221455;-8.7580;-1.7402;-2.4978;
912063508321350;-9.7950;-1.2802;-4.2491;
912063518427809;-9.7137;-0.7196;-3.6428;
912063528534267;-8.8657;-0.7723;-3.3314;
912063538642080;-9.5725;-0.6598;-3.2046;
912063548748538;-9.1077;-0.6790;-2.3013;
912063558854996;-10.3606;-0.7651;-3.2166;
912063568967965;-10.2263;-0.5112;-3.1711;
912063579074423;-8.3722;-0.5973;-2.8570;
912063589180882;-8.2549;-0.5351;-3.6523;
912063599292184;-9.9485;-0.7484;-3.9712;
912063609398642;-9.9293;0.1594;-4.0190;
912063619505100;-9.7113;0.3224;-3.1253;
912063629593017;-8.7218;0.7128;-2.4428;
912063639699475;-8.4945;-0.0897;-2.7972;
912063649805934;-8.6883;0.1977;-2.8164;
912063659904892;-9.1436;-0.0224;-3.4370;
912063670011350;-10.7916;0.6003;-3.8058;
912063680117809;-8.9279;0.0900;-2.5457;
912063690234684;-8.1805;0.6864;-3.2931;
912063700341142;-9.6873;0.5285;-2.9291;
912063710447600;-9.6036;0.4445;-2.4404;
912063720593121;-8.7194;0.3033;-3.3171;
912063730699580;-9.6802;0.4014;-3.3147;
912063740806038;-8.2884;0.4950;-3.2333;
912063750860673;-10.0107;0.2028;-3.8273;
912063760967132;-9.6538;0.7056;-3.1014;
912063771073590;-9.7041;0.7968;-3.0248;
912063781224163;-11.4529;1.0866;-2.5528;
912063791330621;-10.3534;0.9332;-1.4366;
912063801437080;-7.4477;0.5309;-1.2811;
912063811506663;-7.7279;-0.0607;-2.2056;
912063821613121;-10.2957;0.2411;-3.9449;
912063831719580;-9.9987;0.0159;-3.2333;
912063841822184;-7.8787;0.2602;-3.1998;
912063851928642;-8.3794;0.4301;-4.0525;
912063862035100;-11.0671;1.1584;-3.2716;
912063872144996;-9.1029;0.2841;-2.2175;
912063882251455;-7.6872;0.0517;-2.8379;
912063892357913;-9.3162;0.2363;-3.1181;
912063902467080;-10.1210;0.0541;-3.0679;
912063912573538;-10.5018;-0.0607;-2.3686;
912063922679996;-8.9782;-0.0320;-2.0716;
912063932811350;-9.7831;0.1738;-2.5696;
912063942917809;-11.4506;0.3799;-2.8020;
912063953024267;-8.4754;-0.4777;-1.5829;
912063963116923;-6.3144;-0.7244;-3.0176;
912063973223382;-10.9570;-0.5040;-4.6107;
912063983329840;-11.4769;-0.3266;-4.1626;
912063993414684;-7.7973;-0.5686;-2.9722;
912064003521142;-7.5147;-0.5231;-4.0071;
912064013627600;-10.4874;-0.3194;-4.1674;
912064023751090;-10.5042;-0.5949;-3.1639;
912064033857548;-8.8705;-0.5447;-2.7039;
912064043964007;-8.3267;-0.2620;-3.4992;
912064054066455;-9.0311;-0.1448;-4.0190;
912064064172913;-9.0048;-0.7005;-3.3434;
912064074279371;-8.2789;-0.2692;-4.1626;
912064084384475;-10.2048;0.0924;-4.3998;
912064094490934;-11.4338;0.5692;-4.3591;
912064104597392;-7.7112;-0.0993;-2.7613;
912064114704163;-6.7624;-0.1256;-2.8331;
912064124810621;-9.4478;-0.4442;-3.7579;
912064134917080;-11.9465;-0.1519;-3.8154;
912064145038486;-8.8944;0.1499;-2.2678;
912064155144944;-8.0584;-0.1783;-2.5744;
912064165251403;-11.7978;0.0829;-2.3399;
912064175353538;-10.2287;0.0063;-1.5996;
912064185459996;-8.4248;-0.2333;-1.8846;
912064195566455;-7.2057;-1.0406;-3.5710;
912064205668642;-9.0694;-0.3963;-4.6896;
912064215775100;-10.5616;0.0972;-4.6298;
912064225881559;-10.0107;0.0015;-3.8058;
912064235992080;-9.4334;0.7032;-2.8140;
912064246098538;-9.4214;0.3081;-1.9851;
912064256204996;-8.2956;0.7271;-1.5972;
912064266319475;-8.4754;0.9212;-2.9100;
912064276425934;-11.5176;0.2746;-3.5447;
912064286532392;-9.2225;0.7295;-2.7111;
912064296625673;-7.2894;1.1393;-2.5433;
912064306732132;-10.8060;1.6926;-3.6814;
912064316838590;-11.5917;1.3358;-2.6249;
912064326949423;-8.0776;1.3190;-2.2510;
912064337055882;-7.1770;0.3105;-3.2931;
912064347162340;-9.1220;1.2832;-5.2095;
912064357272705;-9.9413;0.4062;-4.1004;
912064367379163;-7.2942;-0.2716;-2.8669;
912064377485621;-8.1829;-0.9903;-3.0200;
912064387588434;-12.5548;-1.2299;-3.7962;
912064397694892;-9.9461;-1.7928;-1.9660;
912064407801350;-7.1387;-1.6226;-1.2858;
912064417895205;-8.8681;-1.9941;-2.8211;
912064428001663;-10.0035;-1.5987;-3.7149;
912064438108121;-8.6381;-1.1438;-4.1483;
912064448211663;-10.1809;-1.0597;-4.5365;
912064458318121;-12.1355;-0.1519;-2.4930;
912064468424580;-7.2870;-0.2309;-1.9684;
912064478533121;-7.4979;-0.5495;-3.8177;
912064488639580;-10.4468;0.3057;-5.3940;
912064498746038;-10.4635;1.0268;-4.4767;
912064508851507;-9.6562;0.6960;-2.7350;
912064518957965;-9.2946;0.3703;-2.3109;
912064529064423;-11.9055;0.8016;-1.8727;
912064539172600;-7.5960;0.8016;-0.5743;
912064549279059;-5.0880;0.7705;-2.6441;
912064559385517;-10.0131;0.9332;-6.4050;
912064569496350;-11.9991;1.3932;-5.7078;
912064579602809;-7.7877;1.1369;-3.7101;
912064589709267;-8.1350;0.9141;-2.9889;
912064599828850;-7.9699;0.6577;-2.3204;
912064609935309;-7.9699;0.7466;-3.4872;
912064620041767;-10.4803;0.8638;-4.9555;
912064630122705;-13.6543;0.1403;-3.4202;
912064640229163;-0.8671;1.2230;-1.4868;
912064650335621;-4.0747;-0.3170;-4.5245;
912064660491455;-17.4224;1.2760;-6.4720;
912064670597913;-13.2135;1.9226;-2.3830;
912064680704371;-7.0666;1.3047;0.7911;
912064690757132;-8.8729;0.5094;0.1014;
912064700863590;-12.1164;1.1512;-0.1717;
912064710970048;-9.7687;1.2398;-1.0582;
912064721096975;-8.2286;0.0302;-2.7900;
912064731203434;-10.6600;0.8806;-2.5050;
912064741309892;-10.4228;0.4445;-2.1625;
912064751417392;-8.1876;-0.1615;-2.2271;
912064761523850;-8.4969;0.2028;-2.5552;
912064771630309;-9.7543;-0.6239;-2.8499;
912064781729059;-8.5496;0.0613;-4.0645;
912064791835517;-11.2445;0.3368;-4.8694;
912064801941975;-12.4854;0.3272;0.8629;
912064812063434;-3.5931;-0.4681;1.6774;
912064822169892;-6.1181;-1.0286;-3.0081;
912064832276350;-12.6697;-0.3963;-5.6599;
912064842365309;-11.4482;0.7394;-5.8851;
912064852471767;-7.6271;0.0135;-3.2668;
912064862578225;-10.0780;0.1642;-3.3888;
912064872682080;-8.0919;0.5644;-2.3085;
912064882788538;-9.8958;-0.3508;-3.1759;
912064892894996;-10.9403;-0.6981;-4.5006;
912064903012496;-8.1398;0.0876;-3.4681;
912064913118955;-9.1819;-0.6479;-3.9855;
912064923225413;-10.4348;1.0340;-2.8451;
912064933323017;-8.9112;0.4014;-3.4346;
912064943429475;-9.6849;0.7848;-1.7862;
912064953535934;-9.0742;0.4660;-1.4916;
912064963656923;-10.0561;0.3823;-3.4681;
912064973763382;-9.2249;0.0589;-1.4127;
912064983869840;-6.4391;0.6338;-3.3793;
912064993978173;-9.2922;0.7729;-5.0372;
912065004084632;-11.1583;0.3344;-3.3529;
912065014191090;-8.0536;-0.0655;-2.7972;
912065024291038;-8.2645;-0.0921;-3.1110;
912065034397496;-11.1535;0.0972;-3.6045;
912065044503955;-9.3975;0.8160;-2.5792;
912065054600100;-9.7759;0.5094;-4.3304;
912065064706559;-10.6409;1.4865;-1.8751;
912065074813017;-6.3096;0.1140;-1.0941;
912065084921663;-8.3674;0.4854;-2.6704;
912065095028121;-11.1440;0.0972;-4.5365;
912065105134580;-9.0526;0.7705;-3.6452;
912065115240309;-8.1613;0.5596;-4.0238;
912065125346767;-10.2359;0.0422;-3.3793;
912065135453225;-10.3391;0.7777;-2.6489;
912065145570309;-9.0263;-0.4131;-1.3169;
912065155676767;-7.2081;-0.8441;-2.5074;
912065165783225;-8.7123;-0.8803;-3.4442;
912065175890517;-11.1126;-0.1280;-4.7498;
912065185996975;-10.7246;0.5859;-4.1172;
912065196103434;-8.3148;0.7319;-3.3577;
912065206196090;-7.0140;0.4445;-2.5193;
912065216302548;-9.3305;0.1355;-3.1424;
912065226409007;-10.7079;0.2626;-3.1301;
912065236518434;-8.8322;-0.4801;-2.7087;
912065246624892;-7.1025;-0.2166;-3.3171;
912065256731350;-9.6969;0.4493;-3.3984;
912065266828955;-8.6883;0.4759;-3.5782;
912065276935413;-11.0240;-0.0129;-2.6967;
912065287041871;-10.1115;-0.3987;-2.3133;
912065297158850;-10.2790;-0.1926;-2.0859;
912065307265309;-9.3832;0.0805;-1.2619;
912065317371767;-9.4262;0.3607;-2.8642;
912065327481767;-8.0991;0.4636;-2.6034;
912065337588225;-8.5639;0.7729;-3.7436;
912065347694684;-11.4912;0.4759;-3.2189;
912065357799163;-9.6538;0.3296;-2.6776;
912065367905517;-7.1267;-0.3628;-2.2223;
912065378011871;-9.4286;0.1355;-3.3266;
912065388113121;-11.0695;-0.2453;-2.5552;
912065398219475;-7.5793;-0.5830;-1.5278;
912065408325830;-7.7901;-1.3567;-2.5026;
912065418436455;-9.3185;-1.3113;-2.8211;
912065428542809;-14.1909;-0.5853;-4.0238;
912065438649163;-12.7896;0.6218;-2.8642;
912065448747288;-7.3780;0.4660;-1.1109;
912065458853642;-8.5352;0.1762;-1.3648;
912065468959996;-10.9738;-0.2261;-2.6465;
912065479091715;-7.3134;-0.7029;-3.1950;
912065489198069;-5.3037;-0.6502;-4.7136;
912065499304423;-8.8274;-0.9497;-6.5749;
912065509394892;-10.8491;-0.6479;-4.1746;
912065519501246;-10.4157;-1.2467;-2.3973;
912065529607600;-8.8226;-1.7952;-1.4270;
912065539702288;-11.6181;-0.4920;-0.8737;
912065549808642;-13.8820;-0.8755;0.2210;
912065559914996;-11.2780;0.2698;0.1373;
912065570031038;-5.0761;0.2865;-2.2223;
912065580137392;-7.3301;0.3488;-5.6815;
912065590243746;-11.4482;0.2674;-5.5929;
912065600352340;-10.5138;0.3296;-5.3892;
912065610458694;-8.2765;0.2435;-3.7460;
912065620565048;-10.8395;-0.2046;-1.4725;
912065630655413;-14.6148;-0.5303;1.6367;
912065640761767;-8.6859;-0.8249;2.6070;
912065650868121;-5.1383;-1.5461;0.0508;
912065661004788;-7.9193;-1.5006;-4.0837;
912065671111142;-11.3306;-1.6899;-6.5581;
912065681217496;-11.4242;-0.1184;-6.5294;
912065691301975;-6.7768;1.0819;-6.2946;
912065701408330;-7.0690;0.6553;-4.6777;
912065711514684;-12.5213;0.5572;-2.8522;
912065721669059;-11.9294;-1.0143;-0.7588;
912065731775413;-9.4406;-0.3123;0.4510;
912065741881767;-10.8395;-0.0559;-0.6221;
912065751934788;-3.9933;-1.3041;-1.6977;
912065762041142;-5.4114;-0.3676;-5.8780;
912065772147496;-12.5692;-1.6442;-8.4506;
912065782278434;-13.5706;-0.4370;-5.4275;
912065792384788;-8.4535;-0.2692;-1.2811;
912065802491142;-8.6357;-0.1567;-0.6173;
912065812608434;-9.7280;-0.4083;-0.1478;
912065822714788;-9.9365;-0.2596;-1.5733;
912065832821142;-10.8781;-0.0511;-2.0019;
912065842904892;-9.0933;-0.6933;-2.6177;
912065853011246;-7.6319;0.1451;-4.0214;
912065863117600;-9.6562;0.2770;-4.2132;
912065873231090;-10.3846;-0.0248;-2.9674;
912065883337444;-9.0766;-0.1065;-2.1218;
912065893443798;-8.6668;-0.3556;-1.1994;
912065903543538;-9.7663;-0.0993;-1.6929;
912065913649892;-10.9977;0.0565;-2.3133;
912065923756246;-10.6600;1.1249;-3.0894;
912065933856767;-9.2803;0.8327;-2.1362;
912065943963121;-10.6361;1.0268;-1.7001;
912065954069475;-14.8113;0.3105;-1.6020;
912065964187809;-10.1856;1.3119;0.4774;
912065974294163;13.4459;0.8495;-4.8598;
912065984400517;-6.1062;-0.4466;-14.6815;
912065994508850;-25.7827;1.1058;-8.5394;
912066004615205;-14.5406;1.9250;1.5721;
912066014721559;-2.4290;0.5835;2.5448;
912066024837757;-3.6194;-1.5532;-0.5958;
912066034944111;-15.8701;0.2985;-2.3734;
912066045050465;-15.3861;0.8136;-1.3361;
912066055137496;-4.6400;1.3884;-2.5792;
912066065243850;-4.9131;0.8877;-4.4333;
912066075350205;-13.4626;0.9045;-4.8383;
912066085461142;-6.9900;0.9811;-4.7279;
912066095567496;-7.1530;1.2613;-7.3343;
912066105673850;-19.1566;1.3238;-4.4958;
912066115786923;-11.1030;-0.6909;12.3733;
912066125893278;2.8077;-2.0013;4.9834;
912066135999632;-8.8537;-1.8359;-8.8316;
912066146112184;-17.2618;-1.5556;-5.5857;
912066156218538;-13.7572;0.8806;-4.5796;
912066166324892;-4.1632;0.6721;-2.6297;
912066176422184;-2.6853;0.6936;-3.2381;
912066186528538;-14.5358;0.6745;-5.7867;
912066196634892;-13.9681;0.7490;-1.5012;
912066206741767;-4.0914;0.1953;-2.4260;
912066216848121;-8.6429;0.0015;-4.3448;
912066226954475;-12.2124;-0.1065;0.0245;
912066237053173;-7.5577;-0.6359;-3.2142;
912066247159528;-9.8647;-0.6287;-3.5686;
912066257265882;-10.3702;-0.6933;-2.9219;
912066267378173;-9.1220;-0.4944;-4.0406;
912066277484528;-9.2536;-0.2931;-3.1950;
912066287590882;-8.2741;0.3129;-3.6814;
912066297693225;-9.1843;0.0996;-4.0502;
912066307799580;-10.8395;-0.0440;-3.8991;
912066317905934;-9.7400;-0.2381;-2.1793;
912066328012288;-7.7255;-0.2979;-2.9267;
912066338118642;-10.7462;-0.1591;-2.6393;
912066348223642;-9.1531;-0.6191;-1.1133;
912066358329996;-7.0786;-0.6622;-2.5313;
912066368436350;-9.4765;-1.3232;-3.3386;
912066378556975;-11.8050;-0.3772;-2.9195;
912066388663330;-10.1976;-0.1639;-3.5303;
912066398769684;-7.1507;0.0996;-2.3758;
912066408884996;-10.0899;0.2985;-1.7961;
912066418991350;-10.3965;0.1068;-2.0498;
912066429097705;-9.1938;-0.4777;-2.0521;
912066439185725;-8.1159;0.2626;-2.2678;
912066449292080;-10.7127;-0.5255;-3.2453;
912066459398434;-10.9714;0.7896;-2.6608;
912066469509163;-6.1421;-0.4657;-1.8033;
912066479615517;-7.4309;-0.2309;-3.9063;
912066489721871;-11.8337;-0.1543;-3.8847;
912066499819371;-12.0254;1.2637;-2.4452;
912066509925725;-7.2057;0.4564;-2.5337;
912066520032080;-7.6657;0.8782;-2.1314;
912066530141975;-10.4037;1.0412;-2.7805;
912066540248330;-10.4492;0.8638;-3.1158;
912066550354684;-8.8753;0.5477;-2.5504;
912066560528434;-9.2779;0.8806;-2.8860;
912066570634788;-10.7103;0.6936;-2.6393;
912066580741142;-7.3301;0.3320;-1.5012;
912066590762965;-8.5017;0.5979;-3.9135;
912066600869319;-12.2148;0.2506;-3.3793;
912066610975673;-10.5520;1.0125;-1.9325;
912066621103434;-7.9627;0.2506;-1.8296;
912066631209788;-7.0881;0.5644;-3.0990;
912066641316142;-9.5749;0.6434;-3.7555;
912066651436715;-10.4013;0.7271;-3.4202;
912066661543069;-8.8250;0.3296;-2.6728;
912066671649423;-9.0024;0.0278;-2.9483;
912066681749840;-9.8671;0.5572;-1.9612;
912066691856194;-8.7628;-0.2118;-2.3590;
912066701962548;-8.1470;-0.3147;-2.7637;
912066712075413;-10.2311;-0.4729;-3.3697;
912066722181767;-11.2182;-0.5040;-2.4332;
912066732288121;-9.3281;-0.0873;-2.8594;
912066742393746;-8.8729;0.1331;-1.9038;
912066752500100;-8.9710;0.1666;-2.9602;
912066762606455;-10.2407;0.1403;-2.9818;
912066772702913;-9.5821;-0.5471;-2.0955;
912066782809267;-10.6289;-0.1161;-1.8440;
912066792915621;-11.9584;0.0446;-1.9493;
912066803018850;-5.2822;0.0876;-2.9818;
912066813125205;-6.6858;-0.6718;-3.4801;
912066823231559;-11.7954;-0.6502;-5.2621;
912066833341871;-12.6051;-0.5590;-3.1253;
912066843448225;-6.6547;-0.1448;-2.6321;
912066853554580;-6.3625;0.1977;-2.8522;
912066863654163;-12.2148;-0.1783;-3.9063;
912066873760517;-12.1259;0.0924;-2.8546;
912066883866871;-6.3048;0.0350;-1.6187;
912066893983017;-8.5113;-0.3580;-2.4882;
912066904089371;-11.1512;0.1379;-3.4083;
912066914195725;-10.5281;0.3081;-3.3003;
912066924306923;-8.6070;0.4158;-3.6790;
912066934413278;-9.7902;-0.4609;-1.6570;
912066944519632;-9.7496;0.0661;-1.8607;
912066954617913;-8.6668;-0.5351;-3.0057;
912066964724267;-7.6056;0.8351;-3.6571;
912066974830621;-10.6696;-0.7412;-3.0176;
912066984933850;-9.0503;0.2001;-2.5504;
912066995040205;-7.3588;-0.3338;-2.7709;
912067005146559;-9.6682;0.5285;-3.9688;
912067015265100;-17.5902;-0.2812;-2.2606;
912067025371455;-2.9417;1.2760;-0.1143;
912067035477809;-1.6504;-0.8632;-3.2309;
912067045579423;-14.0088;0.2626;-6.6948;
912067055685778;-15.2928;0.3775;-3.9135;
912067065792132;-6.7026;0.3751;-2.0258;
912067075904840;-4.5682;0.1857;-1.5132;
912067086011194;-11.5702;0.2459;-2.0091;
912067096117548;-14.5214;0.6266;-2.3734;
912067106212913;-9.4693;0.1355;-0.0855;
912067116319267;-6.4678;0.1786;-1.4198;
912067126425621;-8.8585;0.5261;-2.9985;
912067136522184;-8.6931;0.3799;-3.3123;
912067146628538;-6.0966;-0.1328;-5.6791;
912067156734892;-8.6668;-0.4250;-6.8599;
912067166865205;-12.2746;0.1929;-3.6885;
912067176971559;-9.7184;0.4038;-1.4653;
912067187077913;-7.4836;0.5764;-1.4174;
912067197168434;-11.4482;-0.1615;-0.7660;
912067207274788;-12.3559;0.2554;-0.4472;
912067217381142;-7.4931;0.2411;-0.9550;
912067227498590;-7.2655;-0.1256;-4.5891;
912067237604944;-10.9929;0.9404;-4.8790;
912067247711298;-9.1460;0.5788;-3.4944;
912067257811663;-6.4558;0.9404;-3.6957;
912067267918017;-10.4204;-0.6120;-3.1229;
912067278024371;-12.0996;-0.0802;-0.8402;
912067288125517;-7.2703;-0.6359;-0.6102;
912067298231871;-7.7542;-0.6598;-2.2702;
912067308338225;-11.5846;-0.4274;-2.8164;
912067318453121;-9.6108;0.1020;-3.3458;
912067328559475;-8.5041;0.2722;-3.5064;
912067338665830;-11.3785;0.5285;-4.4333;
912067348765673;-10.9618;0.7729;-1.4653;
912067358872028;-7.2272;-0.0559;-1.1970;
912067368978382;-9.7854;-0.5949;-2.3423;
912067379092705;-13.1369;0.0805;-1.7097;
912067389199059;-7.4596;0.0326;-1.7169;
912067399305413;-7.1674;-0.1543;-3.5016;
912067409420934;-2.8050;-0.8755;-4.8024;
912067419527288;-3.5118;-0.6574;-8.0794;
912067429633642;-12.0015;-1.2538;-8.0554;
912067439715621;-20.8983;0.7992;-3.1998;
912067449821975;-19.1542;0.9882;4.5329;
912067459928330;-3.1430;0.2339;6.5931;
912067470036038;-4.2090;-0.7795;-1.1396;
912067480142392;-14.7395;-0.3700;-4.1483;
912067490248746;-12.2818;0.5046;-3.4896;
912067500357496;-4.4004;0.1116;-5.6312;
912067510463850;-7.5769;0.6529;-5.8732;
912067520570205;-10.7653;-0.3338;-3.1062;
912067530687809;-12.4062;-0.7890;-1.6977;
912067540794163;-9.0503;-1.8503;4.4611;
912067550900517;-2.7954;-2.0468;0.7983;
912067561003434;-8.4033;-1.3352;-6.4863;
912067571109788;-18.4191;-2.5164;-8.6686;
912067581216142;-0.7451;2.9216;-8.6853;
912067591309163;-5.5816;1.0149;-7.0804;
912067601415517;-15.4846;2.1837;-4.9196;
912067611521871;-13.6854;2.5047;-0.2773;
912067621645830;-8.5113;1.7979;3.2584;
912067631752184;-7.3205;0.1211;2.0680;
912067641858538;-10.4779;-0.1017;-0.3969;
912067651975830;-12.2483;-0.0272;-1.7743;
912067662082184;-8.8825;0.4325;-3.4059;
912067672188538;-5.9312;0.5237;-3.6838;
912067682281455;-8.2621;-0.1017;-3.6790;
912067692387809;-12.3272;0.4205;-3.5207;
912067702494163;-11.7978;0.0135;-2.0115;
912067712629475;-8.0393;0.5596;-2.2271;
912067722735830;-8.4921;0.3105;-2.1864;
912067732842184;-10.6481;1.2302;-2.9363;
912067742909684;-9.4860;0.3942;-2.7111;
912067753016038;-7.4405;0.4014;-3.0559;
912067763122392;-10.0995;0.1594;-3.7723;
912067773257236;-11.3330;0.1475;-2.4236;
912067783363590;-8.2406;-0.4083;-1.5972;
912067793469944;-9.1364;-0.3820;-2.0955;
912067803558850;-12.1044;-0.4777;-1.9899;
912067813665205;-9.7902;-0.3290;-1.8559;
912067823771559;-7.9771;0.0446;-3.2955;
912067833875205;-9.6323;-0.2644;-3.8058;
912067843981559;-7.8500;-0.0607;-3.8943;
912067854087913;-10.3606;-0.9257;-4.0190;
912067864191350;-11.6758;-0.2261;-2.7494;
912067874297705;-9.2273;-0.5949;-0.9431;
912067884404059;-5.8857;-0.7795;-1.5685;
912067894536663;-9.8719;-1.2275;-3.9425;
912067904643017;-14.7921;-0.8225;-3.7555;
912067914749371;-9.6227;-0.2094;-1.7551;
912067924849684;-7.1363;-0.5830;-1.4892;
912067934956038;-10.1210;0.3368;-2.7135;
912067945062392;-12.0829;-0.2309;-3.6045;
912067955161975;-7.0307;-0.3915;-2.1482;
912067965268330;-7.7853;-0.5112;-3.0176;
912067975374684;-9.9748;-1.2802;-3.3793;
912067985477444;-7.8428;-0.5136;-3.4633;
912067995583798;-7.8380;-1.3759;-4.4357;
912068005690153;-12.4878;-0.4178;-3.8082;
912068015798642;-10.0059;-0.1424;-2.5792;
912068025904996;-7.7973;0.1499;-2.6106;
912068036011350;-11.3139;0.3153;-2.2056;
912068046114163;-11.2277;0.3703;-2.5361;
912068056220517;-8.6118;0.3799;-2.0521;
912068066326871;-9.6969;0.5907;-2.6393;
912068076449684;-9.5462;-0.0511;-2.2319;
912068086556038;-7.6920;-0.3820;-1.2353;
912068096662392;-8.4033;-1.1414;-3.1615;
912068106748642;-13.9035;-0.1017;-3.0607;
912068116854996;-10.1450;-0.1831;-1.1157;
912068126961350;-4.9418;-0.0440;-2.3204;
912068137072288;-8.4634;-0.4490;-4.1435;
912068147178642;-11.7260;0.5333;-4.4719;
912068157284996;-9.2827;-0.1352;-4.4910;
912068167401455;-7.9026;0.0159;-2.7254;
912068177507809;-8.7218;0.2243;-3.0535;
912068187614163;-9.2827;-0.5327;-2.6656;
912068197734267;-10.5401;-0.2237;-1.6355;
912068207840621;-12.1786;-0.4681;-1.3169;
912068217946975;-10.8227;-0.0488;-0.1478;
912068228036455;-7.0977;0.1642;-1.5996;
912068238142809;-9.9102;0.3511;-3.3529;
912068248249163;-8.4778;0.2626;-2.8618;
912068258348955;-7.6511;-0.0730;-4.2849;
912068268455309;-9.8767;-0.4825;-3.8154;
912068278561663;-13.5009;0.3703;-3.1591;
912068288669059;-8.6333;-0.3748;-0.1911;
912068298775413;-6.5755;-0.5710;-0.2821;
912068308881767;-10.6768;-0.9209;-2.5863;
912068318989580;-12.3416;0.1044;-2.6034;
912068329095934;-7.3445;0.0206;-3.2524;
912068339202288;-8.9016;0.5931;-4.4237;
912068349294996;-10.8538;0.3440;-3.2979;
912068359401350;-10.1067;0.6434;-2.7039;
912068369507705;-8.4826;-0.1926;-0.3658;
912068379636350;-7.0164;-0.3266;-1.6211;
912068389742705;-9.0981;-0.1974;-3.1687;
912068399849059;-11.2110;-0.4322;-3.3386;
912068409969684;-11.6204;0.2794;-3.9206;
912068420076038;-9.4454;0.2387;-2.0883;
912068430182392;-6.0365;0.2028;-1.6810;
912068440295986;-9.6156;0.0805;-4.5843;
912068450402340;-12.5668;0.6147;-3.4083;
912068460508694;-6.4199;0.3033;-2.7852;
912068470575205;-6.9517;-0.0105;-3.2070;
912068480681559;-11.1006;-0.1376;-3.3769;
912068490787913;-12.8088;-0.2692;-2.4787;
912068500908121;-9.1484;-0.7340;1.4572;
912068511014475;-7.0857;-0.0511;-1.4653;
912068521120830;-9.1675;-0.2309;-3.3218;
912068531253850;-9.4119;0.4660;-3.8512;
912068541360205;-9.8982;0.7343;-4.9699;
912068551466559;-10.8610;0.6482;-3.1038;
912068561533486;-9.6323;0.3535;-1.3600;
912068571639840;-10.0370;-0.3123;-0.5958;
912068581746194;-10.0756;-0.0826;0.0413;
912068591859007;-7.7423;-0.6215;-1.7480;
912068601965361;-6.5228;-0.4920;-2.6465;
912068612071715;-9.3927;-0.3242;-5.8059;
912068622173434;-11.8720;-0.1256;-5.5690;
912068632279788;-6.9398;0.4684;-3.3194;
912068642386142;-8.9901;0.6051;-3.3434;
912068652498017;-12.8710;-0.0153;-1.3361;
912068662604371;-10.7486;0.9380;-0.0927;
912068672710725;-7.8404;0.1881;-0.4256;
912068682829267;-8.9686;0.0494;-3.0488;
912068692935621;-9.5701;0.7968;-3.6619;
912068703041975;-9.6658;0.0948;-3.4968;
912068713182496;-11.7930;0.3966;-3.3697;
912068723288850;-9.9867;-0.4274;-0.8665;
912068733395205;-5.9982;-0.1854;-1.0128;
912068743460100;-7.7734;-0.3820;-3.5255;
912068753566455;-10.0394;-0.2812;-3.8847;
912068763672809;-10.0418;0.1307;-4.0813;
912068773788538;-8.7027;-0.2764;-3.7053;
912068783894892;-6.9326;0.2961;-3.7292;
912068794001246;-9.8025;0.1475;-3.5518;
912068804107340;-11.6324;-0.4250;-2.4691;
912068814213694;-11.2588;-0.1208;-1.1300;
912068824320048;-7.6753;-0.9832;-0.7780;
912068834429580;-9.4549;-0.2166;-1.9349;
912068844535934;-10.8467;0.3368;-3.7149;
912068854642288;-10.5497;0.3248;-2.5074;
912068864716142;-7.4692;0.3416;-1.6331;
912068874822496;-7.4357;-0.9927;-1.6427;
912068884928850;-10.2263;-0.0559;-3.7268;
912068895074319;-10.0708;-0.7029;-2.7852;
912068905180673;-9.1579;-1.0597;-2.2750;
912068915287028;-10.0828;-0.4298;-2.4978;
912068925374684;-9.2513;-0.8106;-2.5481;
912068935481038;-6.3314;0.2219;-3.9254;
912068945587392;-8.7147;0.2028;-4.6705;
912068955703590;-10.7701;0.2602;-4.5006;
912068965809944;-9.5172;0.2171;-2.6154;
912068975916298;-8.6261;0.3129;-1.3481;
912068986018330;-8.1900;0.1164;-1.0965;
912068996124684;-10.5066;-0.4992;-2.0306;
912069006231038;-8.9782;0.0948;-1.4557;
912069016338330;-7.3660;0.4783;-2.8908;
912069026444684;-6.5949;-0.6335;-3.9760;
912069036551038;-16.7734;0.9404;-4.5532;
912069046645048;-21.5378;1.3932;0.3817;
912069056751403;-3.5692;0.7537;5.8600;
912069066857757;-1.7557;-1.1171;0.6356;
912069076982496;-12.4807;0.2937;-4.4910;
912069087088850;-14.8929;0.2722;-4.9220;
912069097195205;-8.5567;0.6170;-2.5959;
912069107297705;-5.2101;-0.6383;-2.4165;
912069117404059;-9.5100;-0.1137;-4.2730;
912069127510413;-10.1234;-0.1543;-2.5816;
912069137609059;-8.5687;-0.4394;-3.2883;
912069147715413;-5.7419;-0.4801;-2.6058;
912069157821767;-6.5850;0.5309;-8.3716;
912069167919580;-13.6304;0.5501;-7.7656;
912069178025934;-10.6935;1.6639;-2.6177;
912069188132288;-5.1814;1.1273;-1.1827;
912069198301350;-7.4333;0.1594;-0.5647;
912069208407705;-14.1239;0.2435;-3.2883;
912069218514059;-13.5754;0.1810;-0.2677;
912069228575205;-6.0437;0.4062;0.1684;
912069238681559;-7.9866;0.1427;-2.1434;
912069248787913;-12.4014;0.0278;-2.3447;
912069258887028;-10.3173;0.5668;-0.6963;
912069268993382;-7.9890;-0.2788;-1.4749;
912069279099736;-7.1842;-1.1677;-2.5361;
912069289203850;-8.5519;-0.1376;-2.8980;
912069299310205;-8.1589;-0.8512;-3.5279;
912069309416559;-10.7342;-0.3266;-3.2692;
912069319543330;-8.9949;-0.8608;-1.9708;
912069329649684;-8.6405;0.1714;-3.3625;
912069339756038;-10.5066;0.0613;-3.1591;
912069349835621;-9.1986;0.8327;-2.3109;
912069359942080;-10.5449;0.4974;-2.2367;
912069370048538;-9.7232;0.6601;-1.5326;
912069380156767;-8.2143;0.3009;-1.8392;
912069390263225;-11.1583;0.3870;-2.5863;
912069400369684;-12.1499;0.3440;-1.0774;
912069410510100;-8.3076;-0.2357;-0.9263;
912069420616559;-7.9265;-1.0597;-1.4294;
912069430723017;-11.6635;0.4349;-3.4418;
912069440805621;-10.0011;0.3416;-3.9401;
912069450912080;-9.7591;0.6170;-3.2213;
912069461018538;-9.8695;0.0326;-2.2271;
912069471191246;-8.6166;-0.1448;-1.9516;
912069481297705;-6.8342;0.0829;-3.5183;
912069491404163;-9.9556;-0.1998;-3.4370;
912069501459892;-12.0015;0.2746;-3.8632;
912069511566350;-9.4095;-0.0559;-2.6728;
912069521672809;-7.2655;-0.0511;-1.5733;
912069531738642;-8.3028;0.2818;-2.9100;
912069541845100;-11.1293;0.0613;-4.1004;
912069551951559;-11.3330;0.8447;-2.5600;
912069562095621;-7.8045;-0.5207;-1.8200;
912069572202080;-8.1039;0.0637;-2.2702;
912069582308538;-9.5797;-0.4872;-2.7278;
912069592422809;-12.6697;-0.1184;-2.6489;
912069602529267;-10.4157;0.1690;-1.2619;
912069612635725;-5.1933;-0.7053;-1.4390;
912069622740830;-8.5041;-0.1711;-3.7531;
912069632847288;-13.5682;0.1068;-4.8766;
912069642953746;-11.4338;0.5333;-1.7240;
912069653039996;-6.1325;-0.1902;-0.6030;
912069663146455;-8.2693;-0.3437;-1.8272;
912069673252913;-11.8863;-0.3147;-2.7230;
912069683359059;-10.3220;-0.0655;-2.4452;
912069693465517;-11.7882;0.1546;-1.2835;
912069703571975;-8.7051;0.0470;-1.7599;
912069713687080;-9.2058;0.1905;-2.1912;
912069723793538;-10.0490;-0.2477;-2.9985;
912069733899996;-10.4492;0.6218;-3.3888;
912069744005934;-10.7438;0.0206;-2.6871;
912069754112392;-9.4525;0.3727;-2.3877;
912069764218850;-5.3635;-0.5399;-2.5385;
912069774321142;-7.8404;-0.0730;-4.3089;
912069784427600;-13.7955;1.1919;-4.9771;
912069794534059;-9.9844;-1.1509;-2.5672;
912069804642600;-6.2833;0.3368;-2.1338;
912069814749059;-9.1699;-0.8489;-3.1591;
912069824855517;-12.2100;1.0555;-3.4561;
912069834962600;-11.2636;0.6410;-3.1376;
912069845069059;-8.1757;1.0962;-0.1836;
912069855175517;-8.0297;-0.4059;-2.2319;
912069865276038;-10.0250;0.4086;-2.7757;
912069875382496;-9.2994;0.0924;-2.6919;
912069885488955;-9.1436;0.0541;-1.9445;
912069895611663;-9.8480;0.0996;-2.7446;
912069905718121;-8.1039;-0.5758;-1.8775;
912069915824580;-7.6582;-0.0849;-3.6981;
912069925925413;-10.7821;0.8542;-5.1353;
912069936031871;-10.6863;0.6960;-3.0607;
912069946138330;-10.1186;0.7394;-1.5829;
912069956236871;-7.9122;0.0326;-0.8498;
912069966343330;-7.0235;0.6051;-2.3157;
912069976449788;-11.3234;-0.0153;-3.2955;
912069986557913;-14.3034;0.7394;-1.7384;
912069996664371;-6.8103;-0.2309;-0.1911;
912070006770830;-6.1684;-0.0176;-1.7599;
912070016881038;-12.3894;-0.1759;-3.7938;
912070026987496;-12.0518;0.7128;-3.1400;
912070037093955;-6.5587;0.1379;-2.0788;
912070047189475;-8.0225;-0.3628;-2.2032;
912070057295934;-8.7485;-0.6191;-3.2166;
912070067402392;-10.4181;-0.2883;-4.3854;
912070077516090;-11.4171;-0.1208;-1.8033;
912070087622548;-8.6931;-0.2237;-1.1228;
912070097729007;-6.5925;-0.8898;-2.6177;
912070107837288;-9.0407;-0.3461;-3.2620;
912070117943746;-11.9079;-0.3748;-4.6322;
912070128050205;-12.8231;0.0733;-2.2439;
912070138146455;-11.0049;0.3129;-0.0329;
912070148252913;-6.2115;-0.7292;0.9613;
912070158359371;-7.1674;-0.1974;-1.7288;
912070168458173;-12.2842;-1.0382;-3.5088;
912070178564632;-10.1306;0.4950;-3.0392;
912070188671090;-6.3314;-1.1605;-3.1424;
912070198793121;-9.1364;-0.2788;-3.4920;
912070208899580;-11.6276;-0.3485;-3.9111;
912070219006038;-10.7773;0.7104;-1.6618;
912070229106975;-8.0345;-0.1424;-1.1300;
912070239213434;-8.5041;-0.3604;-1.9971;
912070249319892;-9.3808;0.0876;-3.4250;
912070259417184;-10.4444;0.0661;-3.5207;
912070269523642;-10.7031;0.8949;-2.4452;
912070279630100;-8.8872;0.1140;-1.9325;
912070289738746;-7.0140;0.0781;-1.4294;
912070299845205;-9.9030;-0.3915;-2.2941;
912070309951663;-11.6877;0.2913;-3.4585;
912070320073486;-10.9618;0.5094;-2.7685;
912070330179944;-9.5342;0.0159;-0.7277;
912070340286403;-8.8035;0.1594;-1.7097;
912070350384423;-7.3062;-0.2716;-1.9947;
912070360490986;-10.2407;0.6649;-4.4237;
912070370597496;-12.6051;0.5620;-2.3252;
912070380700621;-7.1363;0.0924;-2.3853;
912070390807184;-6.6619;-0.6120;-2.2893;
912070400913694;-8.3698;0.0326;-4.1076;
912070411005413;-10.4468;-0.2883;-4.4118;
912070421111975;-11.1679;-0.2644;-3.3242;
912070431218486;-9.7400;0.2578;-1.7480;
912070441324319;-5.9456;-0.4178;-1.1061;
912070451430882;-9.1890;0.1834;-2.9841;
912070461537392;-12.9882;0.2219;-2.2367;
912070471654892;-9.2755;0.5189;-1.7961;
912070481761455;-4.8317;-0.5327;-2.1314;
912070491867965;-12.9811;-0.5160;-3.9039;
912070501994580;-14.7586;0.0182;-1.1037;
912070512101142;-3.0637;0.4110;-1.2978;
912070522207653;-12.9452;-0.4729;-0.9909;
912070532311350;-11.5032;-0.4202;-1.4174;
912070542417913;-4.1608;0.1283;-2.1864;
912070552524423;-7.7662;-0.7890;-5.0874;
912070562651819;-12.3583;0.5405;-4.4094;
912070572758382;-8.9207;-0.5614;-3.3171;
912070582864892;-7.0427;-0.0535;-2.4141;
912070592935621;-7.5003;-0.6263;-2.9363;
912070603042184;-9.9580;-0.1926;-3.8249;
912070613148694;-12.4421;0.4926;-5.1975;
912070623253746;-10.0322;0.4038;0.8557;
912070633360309;-3.8901;0.2674;-1.7719;
912070643466819;-10.0609;-0.1448;-4.9986;
912070653574423;-14.5573;1.1536;-1.3528;
912070663680986;-9.6227;0.2100;-0.1214;
912070673787496;-5.6773;-0.0607;-0.0257;
912070683894423;-9.5964;-0.4705;-2.2223;
912070694000986;-12.6506;0.3488;-4.1507;
912070704107496;-10.2335;-0.0392;-1.2619;
912070714218955;-8.2669;0.2148;-1.5996;
912070724325517;-9.1268;-0.5375;-1.4988;
912070734432028;-8.8131;0.4014;-1.5924;
912070744537600;-9.4190;-0.3987;-3.8560;
912070754644163;-11.3354;0.7585;-3.3793;
912070764750673;-8.1999;0.1092;-1.5637;
912070774856923;-6.8055;-0.1519;-2.4476;
912070784963486;-8.9566;-0.0559;-4.1100;
912070795069996;-11.5965;0.5788;-3.8225;
912070805173746;-10.9690;0.1187;-2.7182;
912070815280309;-11.3450;0.1594;-0.9936;
912070825386819;-9.8097;-0.2477;-0.1119;
912070835497600;-8.2430;0.1786;-1.8248;
912070845604163;-11.1823;0.5931;-2.2343;
912070855710673;-7.4883;-0.1831;-1.7264;
912070865806455;-7.1650;0.1929;-4.6490;
912070875913017;-11.3426;-0.6526;-4.9579;
912070886019528;-11.7380;0.5381;-3.5710;
912070896147184;-7.8500;-0.3915;-1.7480;
912070906253746;-8.1829;0.2794;-1.3146;
912070916360257;-8.9901;-1.1509;-1.4246;
912070926464059;-8.7123;0.0900;-3.6476;
912070936570621;-11.2971;0.3775;-5.0468;
912070946677132;-11.6731;0.7295;-2.9124;
912070956781663;-7.0810;0.7442;-1.0415;
912070966888225;-9.3425;-0.2477;-1.1587;
912070976994736;-10.0394;0.1953;-1.5012;
912070987100100;-10.2407;0.1690;-3.3505;
912070997206663;-8.2932;-0.6694;-1.6905;
912071007313173;-8.0560;0.1522;-3.7292;
912071017412913;-8.7724;-1.1052;-1.9923;
912071027519475;-12.0852;0.6817;-3.1110;
912071037625986;-12.1499;0.5094;-1.4414;
912071047730830;-6.3506;-0.1424;-0.4041;
912071057837392;-6.2330;0.1259;-3.2716;
912071067943903;-10.5162;-0.5231;-4.6418;
912071078080100;-12.3296;0.9308;-4.6131;
912071088186663;-12.0230;0.0589;-1.6068;
912071098293173;-7.5434;0.4325;-0.2318;
912071108364788;-6.3793;-0.1448;-1.9253;
912071118471350;-12.6338;1.4794;-2.5720;
912071128577861;-13.8652;-0.9401;-1.1133;
912071138679892;-8.1924;-0.4035;-0.5025;
912071148786455;-5.6294;-0.1543;-2.5385;
912071158892965;-10.4133;-0.7603;-4.8096;
912071169004788;-11.4362;0.0589;-4.3400;
912071179111350;-9.6634;-0.3123;-2.9028;
912071189217861;-11.3665;-0.0296;-1.7121;
912071199382392;-12.6218;-0.3218;-0.3323;
912071209488955;-9.6778;-0.3003;0.0700;
912071219595465;-0.7570;0.1451;-2.7446;
912071229641767;-0.0502;-0.1663;-8.3094;
912071239748330;-10.0899;-0.2788;-11.0282;
912071249854840;-20.2971;0.3799;-6.7546;
912071259964892;-15.4917;1.3741;2.2406;
912071270071455;-6.7696;-0.6024;4.5185;
912071280177965;-1.3893;0.3033;0.6954;
912071290281975;-9.4908;-1.0836;-2.6512;
912071300388538;-16.4234;0.7370;-4.5867;
912071310495048;-10.9953;0.6242;-5.8301;
912071320604371;-9.7017;1.2999;-3.5590;
912071330710934;-9.8719;-0.1998;2.3578;
912071340817444;-1.2888;-0.8106;3.2154;
912071350929996;-4.3717;-2.4730;-1.0774;
912071361036559;-12.8997;-1.9917;-8.6423;
912071371143069;-15.2809;-0.0682;-9.2865;
912071381232809;-8.9064;1.4387;-3.9520;
912071391339371;-3.8231;0.6817;-0.0209;
912071401445882;-5.4497;-0.1711;-0.1959;
912071411564319;-14.3010;0.6386;-3.9855;
912071421670882;-13.5586;0.9643;-2.1601;
912071431777392;-7.1507;0.7295;-1.8631;
912071441901767;-9.8432;0.2554;-2.3109;
912071452008330;-12.7872;0.3799;1.5170;
912071462114840;-8.0201;-0.2022;0.8366;
912071472207913;-8.9901;-0.9688;-1.7647;
912071482314475;-10.0657;0.1618;-2.6106;
912071492420986;-9.7663;-0.1807;-2.6943;
912071502541142;-9.6849;0.6362;-2.1458;
912071512647705;-8.7003;0.2459;-1.6092;
912071522754215;-9.5124;0.4831;-2.7254;
912071532833225;-10.9881;0.2770;-3.1615;
912071542939788;-9.5557;0.6362;-3.2309;
912071553046298;-9.0694;0.5022;-3.3434;
912071563159163;-10.7342;0.9308;-2.9650;
912071573265725;-8.0489;0.5333;-1.5132;
912071583372236;-7.4644;-0.0320;-3.2285;
912071593478642;-11.9175;0.0900;-3.2166;
912071603585205;-11.7763;1.6352;-1.5972;
912071613691715;-8.6740;-0.1328;-0.1214;
912071623807913;-9.3209;0.1834;-0.9215;
912071633914475;-8.9471;0.0350;-3.1158;
912071644020986;-9.1890;0.0398;-4.7593;
912071654118955;-10.1665;1.2039;-3.9616;
912071664225517;-8.0225;0.1331;-3.0535;
912071674332028;-6.9470;0.2459;-3.1831;
912071684441246;-10.9810;-0.2812;-3.2261;
912071694547809;-11.8217;0.0805;-2.0859;
912071704654319;-7.1240;0.1140;-0.1549;
912071714756923;-7.8619;0.1953;-1.7192;
912071724863486;-14.7060;-0.2022;-2.6441;
912071734969996;-9.8145;0.0661;-2.4476;
912071745078121;-8.1876;0.6936;-2.3133;
912071755184684;-7.9531;0.0757;-1.7192;
912071765291194;-3.7848;-0.0778;-3.2692;
912071775409371;-8.0752;-0.7747;-4.6178;
912071785515934;-13.6352;0.2770;-4.4357;
912071795622444;-9.9509;-0.2118;-2.5146;
912071805723121;-8.0608;0.3105;-0.1621;
912071815829684;-11.3426;-0.1424;-0.9215;
912071825936194;-11.5152;-0.0802;-1.0391;
912071836044684;-6.9182;1.3645;-4.2682;
912071846151246;-13.5826;-0.4035;-4.0358;
912071856257757;-7.7183;1.5778;0.8749;
912071866354163;-5.5576;-1.6322;-2.6225;
912071876460725;-12.6458;0.2506;-0.3108;
912071886567236;-10.3558;-0.9688;-1.5470;
912071896687496;-5.1191;-0.5997;-1.8775;
912071906794059;-4.2305;-0.9209;-4.0238;
912071916900569;-8.6381;0.1546;-7.6938;
912071926995309;-11.4242;-0.4537;-7.1572;
912071937101871;-12.9571;1.2975;-4.9484;
912071947208382;-10.7988;0.8351;-0.4017;
912071957317080;-10.2168;0.9284;2.2573;
912071967423642;-13.2039;0.2602;1.7160;
912071977530153;-13.8389;1.0579;1.3445;
912071987633590;-6.0150;-0.0248;0.8055;
912071997740153;-5.5023;-0.3027;-3.1110;
912072007846663;-10.5497;-0.3338;-5.3198;
912072017953746;-10.5377;-0.3891;-3.5518;
912072028060309;-7.9962;-0.9042;-2.4811;
912072038166819;-8.3219;-1.0334;-3.7795;
912072048265465;-10.7246;-0.5255;-2.9889;
912072058372028;-11.2971;-0.1065;-1.9708;
912072068478538;-11.2923;0.3153;-3.8489;
912072078595309;-8.0991;1.1106;-2.5911;
912072088701871;-7.7877;0.6984;-3.9975;
912072098808382;-10.4803;0.4540;-4.1459;
912072108907392;-9.5988;-0.2453;-2.8813;
912072119013955;-7.5721;-0.5495;-2.5146;
912072129120465;-8.6716;-1.1533;-2.2726;
912072139227496;-10.4539;-0.0416;-0.9814;
912072149334059;-9.0718;-1.4815;-1.7001;
912072159440569;-9.4813;0.8758;-2.5672;
912072169556142;-9.5653;-0.5447;-3.5518;
912072179662705;-11.2660;0.8686;-3.1807;
912072189769215;-9.6682;0.6410;-2.1458;
912072199866975;-9.8336;-0.1113;-1.6953;
912072209973538;-9.4023;-0.4250;-1.8846;
912072220080048;-8.2813;0.0039;-2.1170;
912072230180830;-7.9603;-1.0478;-1.9660;
912072240287392;-9.4884;-0.3748;-1.1300;
912072250393903;-10.5138;-0.6455;-2.7613;
912072260545517;-8.4559;-0.4131;-2.9937;
912072270652080;-7.6080;0.5596;-2.1386;
912072280758590;-8.3028;-0.2764;-4.0167;
912072290804059;-11.5152;0.7008;-4.3831;
912072300910621;-13.0026;0.4807;-2.7278;
912072311017132;-10.7198;0.8518;-1.6499;
912072321200830;-7.6848;0.2435;0.0823;
912072331307392;-9.2345;1.1680;0.3984;
912072341413903;-11.6013;0.1068;-1.8440;
912072351476975;-9.6132;0.8806;-2.8307;
912072361583538;-8.1278;0.8853;-2.0234;
912072371690048;-10.0394;-0.4035;-2.1338;
912072381793121;-9.0479;0.1355;-3.4131;
912072391899684;-8.4921;-0.8441;-3.4537;
912072402006194;-9.2345;-0.1424;-3.7603;
912072412112600;-10.1521;0.1427;-4.0980;
912072422219163;-9.0359;0.3296;-2.6177;
912072432325673;-10.8467;-0.4322;-2.2726;
912072442410100;-10.0035;0.4854;-1.5781;
912072452516663;-6.1349;0.3966;-0.9861;
912072462623173;-8.5137;-0.2405;-2.1099;
912072472745934;-10.5808;-0.4466;-3.9449;
912072482852496;-11.5726;-0.8369;-3.3458;
912072492959007;-10.2096;-0.2213;-1.3289;
912072503060517;-7.7160;0.0972;-0.3275;
912072513167080;-8.7867;-0.7651;-1.1563;
912072523273590;-13.5897;-0.7460;-2.1386;
912072533381090;-9.4119;-0.0488;-1.3576;
912072543487653;-6.6715;0.0900;-1.8990;
912072553594163;-8.0010;0.0446;-2.9865;
912072563702184;-10.0875;-0.9305;-3.3888;
912072573808746;-8.5711;-1.0023;-3.1735;
912072583915257;-7.6801;-0.7244;-3.0176;
912072594017600;-8.1350;-0.8656;-4.1698;
912072604124163;-10.1952;-0.5806;-3.2453;
912072614230673;-11.6324;-0.0778;-1.4462;
912072624341663;-10.9211;-0.4801;-0.7851;
912072634448225;-6.8752;0.3990;-0.9574;
912072644554736;-9.2465;0.5596;-2.2128;
912072654659007;-12.8758;0.2554;-2.4595;
912072664765569;-12.1929;-0.4848;-1.2858;
912072674872080;-7.9508;-0.1687;-0.2174;
912072684980621;-6.6165;-0.3867;-1.0199;
912072695087184;-11.7547;-0.5327;-3.1615;
912072705193694;-9.4789;-0.7747;-2.4835;
912072715306455;-7.2105;-0.2333;-2.3085;
912072725413017;-9.7184;-0.4657;-3.5064;
912072735519528;-23.7105;0.8207;-1.1922;
912072745616090;-1.5093;-0.1208;1.6128;
912072755722653;7.4022;-0.0248;-4.2275;
912072765829163;-20.6994;-1.5772;-9.1071;
912072775938850;-22.6711;0.8471;-3.2788;
912072786045413;-3.5931;1.7166;0.2186;
912072796151923;0.0598;-0.9616;-0.6556;
912072806260725;-11.9007;0.3703;-2.9195;
912072816367288;-14.8185;0.4588;-2.9076;
912072826473798;-7.8858;0.4735;-2.7876;
912072836572288;-3.2100;0.1379;-2.8283;
912072846678850;-9.4597;0.5692;-9.8064;
912072856785361;-18.8764;0.6793;-1.5685;
912072866883225;-4.0340;1.1177;3.7902;
912072876989788;-2.3955;-1.0430;-6.8889;
912072887096298;-13.5754;0.2100;-4.6681;
912072897227496;-15.0102;2.1335;-1.6642;
912072907334059;-7.9122;0.4349;-0.1765;
912072917440569;-3.6099;0.5357;-0.4690;
912072927539580;-11.8935;0.3392;-3.2620;
912072937646142;-14.4808;0.8255;-0.9024;
912072947752653;-6.1708;0.0494;-0.7588;
912072957852496;-6.0799;-0.1328;-2.8403;
912072967959059;-10.9044;-0.4155;-3.9832;
912072978065569;-11.3306;0.5524;-2.7302;
912072988175725;-10.3196;0.5740;-1.3839;
912072998282288;-9.1053;0.3392;0.1708;
912073008388798;-6.3960;0.4301;-1.6738;
912073018496507;-10.4946;0.5309;-4.0789;
912073028603069;-11.2493;0.3535;-2.2056;
912073038709580;-7.3828;0.1570;-3.3721;
912073048806507;-8.1159;0.0087;-3.9640;
912073058913069;-11.7811;-0.2429;-3.1376;
912073069019580;-10.7031;0.3942;-1.3839;
912073079144475;-9.2058;0.7394;-0.5001;
912073089251038;-10.6098;0.0900;-1.0247;
912073099357548;-8.5232;0.1140;-1.4581;
912073109443955;-10.4013;0.9236;-4.2060;
912073119550517;-10.8562;0.0470;-1.2138;
912073129657028;-8.1876;-0.4848;-2.4667;
912073139761663;-11.2540;-0.5303;-3.6141;
912073149868225;-7.4261;-0.6837;-1.7838;
912073159974736;-8.6859;-0.7531;-2.4691;
912073170092757;-13.6065;0.0111;-3.1543;
912073180199319;-13.0699;-0.0754;-0.2318;
912073190305830;-7.0164;-0.0176;0.2163;
912073200418121;-4.4797;0.5716;-3.7603;
912073210524684;-3.9045;-0.6622;-6.8432;
912073220631194;-8.4105;-1.4623;-8.7021;
912073230718642;-14.6390;-0.7747;-5.7102;
912073240825205;-10.3606;-0.2955;1.5745;
912073250931715;-9.1675;1.2015;1.0666;
912073261057600;-10.5712;0.5237;0.0221;
912073271164163;-12.6027;1.5320;0.2880;
912073281270673;-8.4272;0.9260;-2.0668;
912073291349163;-7.6558;1.3406;-5.5089;
912073301455725;-11.5511;0.4110;-5.5256;
912073311562236;-11.6901;0.0446;-0.7540;
912073321711975;-8.2932;-0.2931;4.1737;
912073331818538;-7.8691;0.2602;0.0846;
912073341925048;-7.2296;-1.1171;-5.2238;
912073352022184;-9.6084;-1.7139;-5.0635;
912073362128746;-12.9978;-0.1926;-3.6500;
912073372235257;-8.8059;-0.2955;-0.3203;
912073382338903;-8.4945;0.7992;-3.3577;
912073392445465;-12.0350;0.8997;-2.6704;
912073402551975;-9.2707;-0.3987;0.8462;
912073412648955;-8.2932;0.3918;-1.6546;
912073422755517;-9.8862;-1.1195;-2.6776;
912073432862028;-9.1173;-0.6048;-0.9742;
912073442969267;-10.0202;-1.2443;-1.3696;
912073453075830;-11.3617;-0.1232;0.7600;
912073463182340;-8.2454;-1.1701;1.6726;
912073473286611;-8.0393;-0.4825;-1.4964;
912073483393173;-13.6591;-1.0334;-2.6704;
912073493499684;-11.8098;-0.8393;0.1660;
912073503595517;-8.5591;-0.0706;0.1421;
912073513702080;-10.1210;-1.2347;-0.3778;
912073523808590;-9.2321;-1.4384;0.1158;
912073533918434;-8.5472;-0.9353;-1.3935;
912073544024996;-11.0384;-0.7747;-1.7264;
912073554131507;-12.1690;-0.5877;-1.0199;
912073564239580;-6.1062;-0.7699;0.2282;
912073574346142;-7.2703;-1.1533;-3.0081;
912073584452653;-11.1775;-0.4537;-3.6766;
912073594563590;-9.6443;-0.3099;-2.7182;
912073604670153;-11.5750;-0.3915;-3.1496;
912073614776663;-10.5090;-0.1663;-1.5398;
912073624887340;-5.6988;0.1044;-1.0080;
912073634993903;-9.8791;0.8231;-4.0549;
912073645100413;-13.1991;1.8843;-2.4428;
912073655209475;-6.6069;0.7223;-2.7733;
912073665316038;-8.9830;2.3273;-2.0115;
912073675422548;-11.9776;1.4794;-1.9038;
912073685525205;-13.7309;1.5610;-1.7886;
912073695631767;-7.7997;1.1536;0.6930;
912073705738278;-5.9575;1.1465;-1.7527;
912073715856455;-8.4897;-0.0368;-3.4442;
912073725963017;-10.8323;1.5248;-4.8861;
912073736069528;-12.6553;0.9858;-4.4022;
912073746157496;-8.7652;2.2699;-1.7025;
912073756264059;-4.1536;1.4124;-1.4055;
912073766370569;-9.8264;1.9298;-3.4059;
912073776488746;-12.7992;0.8160;-3.4753;
912073786595309;-11.4075;1.3047;-1.8440;
912073796701819;-7.3110;1.0316;-1.8655;
912073806811871;-7.2129;-0.1950;-2.0354;
912073816918434;-8.5472;0.1881;-2.7876;
912073827024944;-12.4708;0.4421;-3.2453;
912073837124267;-21.7080;0.7490;0.0652;
912073847230830;-8.0225;-0.5877;6.4110;
912073857337340;19.5832;0.3320;-1.5374;
912073867439163;-8.4320;-0.0200;-16.2912;
912073877545725;-39.5354;-0.7986;-8.5442;
912073887652236;-15.3742;-2.7583;16.0935;
912073897772392;8.4251;-1.9654;8.6172;
912073907878955;-4.4892;4.3947;-12.9829;
912073917985465;-16.5171;-0.2835;-6.7164;
912073928069996;-13.9801;-3.6398;4.3507;
912073938176559;-6.3072;-2.3127;-0.4786;
912073948283069;-5.9551;1.2422;-5.2047;
912073958394580;-11.0862;0.1929;-9.1262;
912073968501142;-15.8533;-0.1161;1.6920;
912073978607653;-5.8403;-4.1309;17.8807;
912073988709267;-4.4148;-3.9464;-0.1525;
912073998815778;-13.7692;3.3503;-22.2105;
912074008922340;-9.5438;1.0771;-7.5978;
912074019031142;-7.2368;-3.1343;5.5798;
912074029137705;-11.0121;-1.4336;1.5194;
912074039244215;-10.5042;0.9882;-1.2066;
912074049345621;-10.6074;-0.1687;1.2823;
912074059452184;-9.5988;-0.1807;1.8117;
912074069558694;-9.2656;0.0063;-4.6394;
912074079656350;-12.8279;0.3296;-3.0918;
912074089762913;-7.8547;-1.8263;3.3712;
912074099869423;-9.4717;-0.6191;-3.1134;
912074109980673;-12.5931;-0.3700;-2.4954;
912074120087236;-9.4143;-0.6550;4.2359;
912074130193746;-6.3625;-0.1998;-2.6249;
912074140296246;-10.8132;0.5142;-4.9723;
912074150402809;-9.9078;-1.2251;0.6523;
912074160509319;-9.0287;-0.6981;-2.1577;
912074170626350;-10.7749;0.0374;-3.6093;
912074180732913;-10.4683;0.6458;-1.5203;
912074190839423;-8.2908;-0.2285;-0.2390;
912074200971455;-8.7963;-0.5040;-1.6140;
912074211078017;-11.0886;0.2578;-2.7924;
912074221184528;-13.6041;1.2855;-3.1472;
912074231254788;-8.2382;1.4195;-0.6820;
912074241361350;-6.6236;1.2302;0.9182;
912074251467861;-10.0083;0.5381;-1.9086;
912074261593642;-10.9714;0.6003;-2.6417;
912074271700205;-9.8025;0.1044;-2.3495;
912074281806715;-11.5750;0.9523;-1.5972;
912074291897600;-7.9388;-0.0849;1.2751;
912074302004163;-9.2850;0.4588;-1.9971;
912074312110673;-10.4181;0.2001;-3.7029;
912074322224840;-8.2430;0.4636;-2.7254;
912074332331403;-7.1483;0.3248;-2.5744;
912074342437913;-11.1126;1.1082;-3.1543;
912074352538746;-14.2579;0.9308;-0.5527;
912074362645048;-10.0322;0.4110;2.5376;
912074372751350;-6.2976;0.7032;-1.0319;
912074382857496;-10.1474;0.3990;-2.5265;
912074392963798;-9.0072;-0.5638;-0.3251;
912074403070100;-10.9499;-0.3508;-2.9435;
912074413184423;-11.9704;0.0422;-2.7996;
912074423290725;-9.2707;0.8495;-1.1515;
912074433397028;-6.5925;0.2985;-1.3935;
912074443500673;-10.7055;0.4660;-1.5108;
912074453606975;-11.7045;-0.5949;-0.6006;
912074463713278;-7.8212;0.1140;-2.1386;
912074473836767;-8.0249;-0.2979;-3.3147;
912074483943069;-11.8098;0.0135;-3.9063;
912074494049371;-10.5377;0.0829;-1.0080;
912074504142705;-7.7183;-0.0009;-0.3610;
912074514249007;-10.1809;-0.0682;-2.0859;
912074524355309;-11.9536;0.2124;-1.9540;
912074534455830;-8.0967;-0.1161;-0.9790;
912074544562132;-11.9318;0.7247;-2.0115;
912074554668434;-10.4468;0.4445;0.6811;
912074564788121;-6.6643;0.0757;-0.6389;
912074574894423;-12.4469;-0.5399;-2.9650;
912074585000725;-12.1786;0.1379;-0.7588;
912074595100309;-5.0115;-0.4705;-0.0520;
912074605206611;-6.0485;-0.6455;-3.7938;
912074615312913;-11.8385;-0.4968;-4.3639;
912074625417705;-12.3583;0.2889;-2.4595;
912074635524007;-8.1709;-0.4633;-0.6772;
912074645630309;-7.8787;0.4253;-2.9219;
912074655737080;-11.2851;0.4854;-1.3816;
912074665843382;-9.4908;0.6673;-0.4089;
912074675949684;-10.1593;-0.4442;-1.9875;
912074686059788;-11.4410;0.2171;-0.8904;
912074696166090;-8.8657;-0.2381;-0.5480;
912074706272392;-7.1216;0.2913;-2.1482;
912074716392496;-11.8098;-0.5016;-2.0402;
912074726498798;-16.2344;0.1283;-0.2940;
912074736605100;-1.9810;-1.2156;0.6188;
912074746694892;-0.8838;0.1905;-5.3916;
912074756801194;-14.3178;-0.6814;-6.9942;
912074766907496;-16.4306;0.2291;-0.9431;
912074777021455;-6.7863;-0.6598;2.2286;
912074787127757;-6.7672;0.0326;-2.8884;
912074797234059;-11.8648;-0.4681;-0.7899;
912074807341767;-11.5319;-0.3508;-0.1334;
912074817448069;-8.4009;-0.5830;-1.2691;
912074827554371;-10.6170;0.0159;-1.8631;
912074837656038;-10.4061;-0.3987;-0.6030;
912074847762340;-8.8561;-0.1687;-2.2726;
912074857868642;-12.1187;0.4469;-3.4274;
912074867972184;-8.6836;0.3511;1.9074;
912074878078486;-2.9154;0.1379;0.2091;
912074888184788;-10.9570;-1.5939;-5.4467;
912074898293590;-17.4870;-0.5279;-2.1840;
912074908399892;-8.5424;-0.0153;1.7925;
912074918506194;-3.8686;-0.1926;-2.1410;
912074928614371;-9.6180;-0.5638;-4.4405;
912074938720673;-14.4640;-0.0631;-2.1051;
912074948826975;-8.5232;-0.3290;0.4223;
912074958936350;-6.9278;-0.1759;-3.7866;
912074969042653;-11.8481;0.6218;-3.6838;
912074979148955;-9.9365;0.5835;0.7887;
912074989245621;-10.6505;0.5333;-1.5203;
912074999351923;-11.0456;0.2698;-0.0353;
912075009458225;-6.0607;-0.1567;1.6750;
912075019575830;-9.3185;0.0446;-4.3591;
912075029682132;-9.8695;-0.7053;-3.6500;
912075039788434;-13.7285;0.7418;-1.8153;
912075049881455;-7.6176;0.8207;-0.5456;
912075059987757;-5.5505;-0.1017;-2.3710;
912075070094059;-11.6587;0.3224;-3.6957;
912075080220153;-14.0231;0.7968;-1.8057;
912075090326455;-7.5003;1.1106;0.0700;
912075100432757;-6.2976;0.4807;-1.4055;
912075110583850;-13.0244;-0.0607;-1.6522;
912075120690153;-9.7807;-0.1256;0.0221;
912075130796455;-8.1302;-0.1208;-2.5098;
912075140833590;-7.9217;0.4397;-1.8631;
912075150939892;-13.1608;1.5419;-2.9459;
912075161046194;-12.2124;0.0182;-0.0353;
912075171203642;-4.6089;0.2148;1.1937;
912075181309944;-7.5817;-0.2764;-3.7555;
912075191416246;-14.4162;0.2028;-4.0669;
912075201488225;-12.3535;0.2459;0.2689;
912075211594528;-7.5984;0.8662;-0.7131;
912075221700830;-8.3148;-0.2022;-1.6068;
912075231809371;-9.5845;-0.0511;-0.9790;
912075241915673;-8.9279;-0.4872;-3.2046;
912075252021975;-9.0239;-0.4825;-3.0081;
912075262139059;-10.5233;-0.0320;-2.6225;
912075272245361;-7.9747;-0.5782;-1.7456;
912075282351663;-8.9160;-0.2333;-2.3590;
912075292449580;-12.3200;-0.2979;-3.0129;
912075302555882;-11.2373;0.1977;-0.8545;
912075312662184;-7.0738;0.1164;0.1828;
912075322794163;-7.2224;-0.3242;-2.1793;
912075332900465;-11.4171;-0.1041;-3.1687;
912075343006767;-10.6098;-0.3365;-1.6379;
912075353083121;-9.9485;0.1594;-2.3925;
912075363189632;-11.7117;0.3631;-1.3098;
912075373296090;-9.7448;0.8040;1.0522;
912075383403434;-6.4176;-0.8082;-0.8689;
912075393509892;-11.0025;0.1068;-2.4667;
912075403616403;-11.6516;-0.0826;-0.8186;
912075413753590;-7.3804;-0.0754;-2.7852;
912075423860048;-8.7556;-0.4992;-3.7723;
912075433966559;-10.8515;-0.3700;-1.3624;
912075444054684;-9.8791;-0.0607;-1.4486;
912075454161142;-9.1938;-0.9233;-0.8186;
912075464267653;-8.8370;-0.1352;-0.6987;
912075474372913;-11.5917;-0.0392;-3.1181;
912075484479371;-13.5610;0.5070;-0.2868;
912075494585882;-5.1670;-0.1400;-0.5049;
912075504682340;-6.1277;-0.4298;-4.0023;
912075514788798;-11.3043;-0.2620;-3.2668;
912075524895309;-10.4850;0.8734;-3.5136;
912075534993746;-9.8910;0.5429;-3.1110;
912075545100205;-10.7151;0.7609;-0.4570;
912075555206715;-7.9603;1.1321;0.1038;
912075565324996;-6.7337;-0.5136;-1.6834;
912075575431455;-10.2814;-0.3099;-2.4045;
912075585537965;-11.6611;0.3368;-2.8741;
912075595644007;-12.0996;1.2446;-0.8450;
912075605750465;-6.8800;0.3248;0.3167;
912075615856975;-7.0235;0.4205;-3.4418;
912075625969944;-13.5491;0.4014;-3.3673;
912075636076455;-10.9307;0.8327;1.0379;
912075646182913;-7.6343;0.8040;-0.9646;
912075656271975;-11.2564;-0.0416;-1.7240;
912075666378382;-8.9136;0.2818;0.5252;
912075676484840;-7.5242;0.2459;-1.9516;
912075686591298;-10.0875;-0.5303;-2.8765;
912075696715621;-11.0264;-0.2931;-1.5446;
912075706822080;-11.1150;0.0254;-1.1300;
912075716928590;-6.2067;0.3990;-0.3060;
912075727037080;-3.8638;-1.0789;-2.8717;
912075737143590;-12.3033;-0.2261;-7.1836;
912075747250048;-14.4162;-0.3700;-1.4174;
912075757350725;-7.4668;-0.5136;2.1159;
912075767457184;-7.8739;0.1499;-2.6584;
912075777563694;-9.2369;0.7056;-3.2213;
912075787671975;-7.9555;-1.0549;-1.2090;
912075797778434;-6.8007;-0.6646;-2.9770;
912075807884944;-12.2219;-0.6574;-2.9148;
912075817991455;-27.7520;0.7343;2.0584;
912075828097913;-16.4378;2.5334;10.0187;
912075838204423;6.1564;0.8566;6.4899;
912075848294163;-3.4735;0.4807;-9.9670;
912075858400673;-17.7051;-0.9353;-9.7346;
912075868507132;-11.0815;-2.6862;1.9481;
912075878631975;-7.9986;-0.2764;-0.7226;
912075888738434;-11.3928;-0.0344;-3.9975;
912075898844944;-7.5841;-0.6933;0.4869;
912075908956350;-3.8399;-0.8850;-2.7852;
912075919062809;-9.2489;-1.6298;-5.2959;
912075929169319;-11.2875;-1.6851;-1.9062;
912075939262496;-11.6659;-0.6479;0.1134;
912075949368955;-5.3468;-0.8898;-0.5168;
912075959475465;-7.1626;0.6147;-10.7599;
912075969574996;-15.6879;-0.6742;-9.3180;
912075979681507;-11.3952;0.2818;4.1067;
912075989787965;-9.5557;1.5443;5.2684;
912075999899892;-13.3119;1.0699;-2.4212;
912076010006350;-9.1555;0.9404;0.6787;
912076020112861;-3.0613;0.0302;-0.4714;
912076030204788;-9.5725;-0.3987;-5.7939;
912076040311298;-13.1058;-0.8297;-4.3878;
912076050417757;-9.3975;-0.5471;1.6487;
912076060591507;-6.7385;-0.0849;-0.5719;
912076070697965;-7.2655;-1.1219;-2.8475;
912076080804475;-11.0647;-0.4155;-1.9205;
912076090848434;-11.1583;-0.3290;-1.0510;
912076100954944;-8.9183;-0.0993;-2.3303;
912076111061403;-9.6036;-0.7627;-1.0726;
912076121245100;-9.6730;-0.0464;-0.2318;
912076131351559;-9.9915;0.0709;-3.6667;
912076141458069;-10.8515;-0.0682;-2.5265;
912076151493538;-9.1675;0.8901;0.2354;
912076161599996;-8.4826;0.4540;-0.0832;
912076171706507;-13.2661;0.5859;-1.1468;
912076181812392;-11.4793;1.0412;0.2210;
912076191918903;-6.7337;0.1690;0.0990;
912076202025361;-8.1829;0.7920;-1.6714;
912076212150309;-12.3320;-0.4609;-1.6307;
912076222256767;-9.6802;0.2578;-2.5959;
912076232363278;-6.5492;-0.1807;-2.6560;
912076242451767;-7.7112;-0.3604;-3.1181;
912076252558225;-9.9413;-0.5758;-4.3543;
912076262664736;-11.7212;-0.3772;-3.1472;
912076272777184;-9.5510;-0.4059;-0.4762;
912076282883694;-6.6763;-0.2070;-0.9335;
912076292990153;-10.8781;0.0350;-3.0464;
912076303090413;-12.9069;-0.0802;-1.1444;
912076313196871;-8.4754;-0.2285;-0.5647;
912076323303382;-7.9986;0.3320;-2.7541;
912076333430517;-10.6552;0.0254;-1.7910;
912076343536975;-10.3029;-0.4202;-1.6283;
912076353643486;-11.8481;-0.3580;-1.9014;
912076363732600;-10.5879;-0.2883;-0.1286;
912076373839111;-8.1494;0.0565;-0.7397;
912076383945621;-8.0752;-0.8417;-1.3528;
912076394053017;-8.9207;-0.5375;-2.1745;
912076404159528;-9.4741;-0.7962;-2.4236;
912076414266038;-10.8395;-0.7579;-2.4165;
912076424374788;-9.4837;0.1307;-1.7623;
912076434481298;-7.4405;-0.1352;-2.3830;
912076444587809;-9.9221;-0.0464;-1.6977;
912076454692288;-11.0288;0.3942;-2.0258;
912076464798798;-9.7472;-0.0631;-2.0067;
912076474905309;-11.2708;0.4062;-0.6508;
912076485011142;-11.0767;0.0829;0.1756;
912076495117653;-10.2550;0.4014;-0.5240;
912076505224163;-7.3397;0.0302;-2.2606;
912076515329059;-8.9375;0.4421;-2.5600;
912076525435569;-10.0298;0.2243;-2.1505;
912076535542080;-9.1244;0.4540;-1.8894;
912076545649059;-11.9800;0.2052;-2.4308;
912076555755569;-8.1135;0.3559;-0.9120;
912076565862080;-7.4979;0.7295;-1.6475;
912076575967600;-10.7916;0.2746;-1.8105;
912076586074111;-11.7882;0.7343;-1.0726;
912076596180621;-9.2393;0.4373;-1.3050;
912076606290100;-7.7734;0.2722;-1.1324;
912076616396611;-10.0418;-0.1113;-1.5422;
912076626503121;-8.8226;0.4421;-2.6871;
912076636610934;-9.5629;0.3368;-4.0119;
912076646717444;-11.6492;0.9954;-2.0617;
912076656823955;-11.6853;0.5118;0.2761;
912076666929840;-9.7400;1.7429;-0.0951;
912076677036350;-8.2262;-0.4394;-0.4280;
912076687142861;-8.1805;0.4950;-0.9526;
912076697243121;-10.4827;0.1355;-2.8020;
912076707349632;-10.6289;0.3105;-1.8464;
912076717456142;-7.9241;-0.3170;-1.6738;
912076727555517;-9.5100;-0.0682;-2.7589;
912076737662028;-11.1078;-0.6574;-1.8823;
912076747768538;-10.2718;0.0302;-1.1850;
912076757881663;-8.0608;-0.6287;-1.5829;
912076767988173;-7.9364;-0.1711;-2.7972;
912076778094684;-10.1593;-0.5471;-1.7192;
912076788198590;-12.1546;-0.0488;-1.7743;
912076798305100;-10.7342;0.4878;-0.9502;
912076808411611;-7.2248;-0.4131;-1.1420;
912076818513434;-9.1890;0.2674;-2.1817;
912076828619944;-9.8575;0.0709;-2.8594;
912076838726455;-10.1856;-0.1998;-2.2750;
912076848834475;-8.1709;-0.1496;-1.3816;
912076858940986;-10.4683;-0.8489;-2.5146;
912076869047496;-10.7916;-0.3508;-1.1587;
912076879168434;-8.8657;-0.8489;-1.2138;
912076889274944;-9.2058;-0.2429;-2.0306;
912076899381455;-10.0851;-0.3389;-2.2606;
912076909484371;-11.1293;-0.2189;-1.6092;
912076919590882;-10.9953;0.7992;-0.4810;
912076929697392;-7.7997;-0.0583;-0.6820;
912076939793850;-7.2942;-0.2716;-1.4868;
912076949900361;-10.1952;-0.0706;-3.1400;
912076960006871;-12.0398;-0.1902;-2.8908;
912076970115205;-10.3173;0.7032;-1.1444;
912076980221715;-7.5099;0.0206;-0.5910;
912076990328225;-10.8706;0.1738;-1.1420;
912077000443330;-11.3569;-0.2620;-0.6006;
912077010549840;-7.1121;-0.2812;-1.0104;
912077020656350;-7.5936;0.0446;-3.0176;
912077030772496;-10.9331;-0.0153;-3.9760;
912077040879007;-10.1569;0.6123;-2.0545;
912077050985517;-9.5243;1.1082;-1.8368;
912077061086246;-7.7973;0.9284;-2.1314;
912077071192757;-9.6251;1.1130;-1.9588;
912077081299267;-12.7391;0.6386;-1.4533;
912077091401038;-9.8145;1.1847;-0.4448;
912077101507548;-8.7461;1.0603;-0.6293;
912077111614059;-9.7113;0.8782;-0.9694;
912077121739788;-11.3952;0.0470;-1.0654;
912077131846298;-12.0996;0.0230;-1.0199;
912077141952809;-8.3148;-0.5447;-0.4738;
912077152050153;-6.6500;-0.2979;-2.2822;
912077162156663;-8.7341;-0.1472;-4.3041;
912077172263173;-12.5142;-0.4035;-3.6861;
912077182368642;-10.5616;0.0924;-0.6843;
912077192475153;-6.1612;0.0517;-0.6293;
912077202581663;-7.9292;-0.3580;-2.3853;
912077212698434;-14.9791;-0.2285;-1.1994;
912077222804944;-13.2326;-0.4801;1.1073;
912077232911455;-7.5553;0.5381;-0.5551;
912077242993538;-6.2186;0.2363;-1.7647;
912077253100048;-11.4721;-0.6120;-2.4763;
912077263206559;-11.0504;-0.6574;-2.6991;
912077273319580;-7.7303;-0.8922;-2.9459;
912077283426090;-7.0929;-1.3448;-3.4633;
912077293532600;-10.1019;-0.6096;-4.4524;
912077303630517;-12.4660;-0.9449;-3.2118;
912077313737028;-11.3785;0.5070;-0.2079;
912077323843538;-9.0024;0.1714;0.8486;
912077333948173;-5.6198;-0.6072;-0.8330;
912077344054684;-8.5759;-1.3615;-2.6728;
912077354161194;-11.2684;-1.1916;-1.6881;
912077364273017;-8.6022;-0.4705;-2.2128;
912077374379528;-8.4873;-0.6120;-4.5150;
912077384485986;-11.9632;-0.2429;-3.3840;
912077394608017;-12.3105;-0.0631;0.0078;
912077404714528;-8.1852;0.3368;-0.0042;
912077414820986;-7.9603;-0.2955;-2.1290;
912077424915100;-11.3091;-0.3532;-1.7288;
912077435021611;-11.8887;0.8590;-1.0463;
912077445128069;-11.5798;0.3248;-0.6030;
912077455225205;-9.8073;0.9188;-0.0975;
912077465331715;-5.3468;-0.0081;-0.2988;
912077475438173;-8.9471;0.1953;-3.5686;
912077485550517;-11.3258;0.4684;-3.3745;
912077495657028;-11.4434;0.3751;-0.8091;
912077505763486;-7.6848;0.7008;-0.9000;
912077515869371;-8.4826;0.6170;-2.1218;
912077525975882;-12.0757;0.4759;-1.2667;
912077536082340;-9.9724;0.3057;-0.1501;
912077546186246;-7.8954;-0.4657;-1.8009;
912077556292757;-7.0116;-0.3772;-3.0344;
912077566399215;-9.0168;-0.0440;-2.8908;
912077576510934;-11.2421;0.2554;-3.2357;
912077586617444;-12.9141;1.2446;-2.4691;
912077596723903;-9.8599;1.4339;-0.3012;
912077606826923;-7.2751;0.8423;-0.8330;
912077616933434;-10.2503;0.8136;-2.5911;
912077627039892;-11.5965;0.8231;-1.3792;
912077637146871;-8.8537;1.2254;-0.5073;
912077647253382;-7.5434;0.4038;-2.5361;
912077657359840;-12.1307;0.5572;-2.2343;
912077667468590;-12.9906;0.4301;0.4654;
912077677575100;-9.5267;0.2746;0.2019;
912077687681559;-4.9370;0.0398;-2.0545;
912077697786455;-7.3373;-0.9377;-4.1195;
912077707892965;-12.1211;-0.6742;-4.2371;
912077717999423;-11.4721;-0.0607;-1.9038;
912077728101038;-8.9160;0.1331;-1.4868;
912077738207548;-7.5362;-0.1663;-1.4342;
912077748314007;-8.6118;-0.6550;-1.0223;
912077758427600;-10.0514;0.2889;-2.6895;
912077768534111;-9.6084;-0.4657;-2.6417;
912077778640569;-10.7031;-0.2955;-2.0139;
912077788739371;-9.7998;0.2818;-1.6116;
912077798845882;-9.2755;-0.0344;-0.8067;
912077808952340;-11.6372;0.3033;-0.9455;
912077819062184;-8.6405;0.1355;-0.6365;
912077829168694;-6.9302;-0.6144;-2.5528;
912077839275153;-9.7902;-0.9592;-3.8967;
912077849379475;-11.0121;-0.1496;-2.9315;
912077859485986;-9.8958;-0.6526;-1.3935;
912077869592444;-9.8192;0.5357;-1.5924;
912077879693746;-8.3172;-0.1472;-1.7121;
912077889800257;-8.1924;-0.2572;-1.6690;
912077899906715;-10.3439;0.0087;-1.3433;
912077910033746;-10.6122;-0.1759;-1.4366;
912077920140257;-9.4573;-0.1400;-0.9168;
912077930246715;-8.3387;-0.0969;-1.0534;
912077940337444;-9.5390;-0.0057;-2.1027;
912077950443955;-9.6826;0.0829;-1.7719;
912077960550413;-9.5172;0.0063;-1.5996;
912077970642392;-8.9877;0.3081;-2.6776;
912077980748903;-8.6333;-0.1496;-2.5050;
912077990855361;-10.9905;-0.0849;-2.0788;
912078001031350;-11.1341;0.3344;-0.9407;
912078011137839;-9.3544;0.4540;0.0532;
912078021244297;-9.2154;0.7223;-1.5350;
912078031291381;-8.6477;0.4062;-1.8272;
912078041397891;-8.8107;1.0149;-1.4294;
912078051504349;-9.5124;0.1259;-1.2114;
912078061627891;-3.2506;0.7080;-3.5590;
912078071734401;5.0809;-1.1653;-7.4375;
912078081840860;-26.4775;-0.6550;-9.0927;
912078091925183;-56.2295;2.1981;14.7640;
912078102031693;10.6337;2.6629;24.6933;
912078112138151;37.3699;-1.5485;-8.4147;
912078122252318;-20.7186;0.6218;-25.9977;
912078132358828;-36.9721;-1.1291;-8.5107;
912078142465287;-8.2765;-1.8024;17.0973;
912078152577578;1.4348;-0.3939;-0.8593;
912078162684089;-8.4177;2.0088;-12.2067;
912078172790547;-12.6458;-0.7651;1.8619;
912078182898203;-8.9327;-0.7125;0.1780;
912078193004714;-9.3808;0.7271;-7.4399;
912078203111172;-11.1317;-0.4753;-1.2281;
912078213216901;-8.7242;0.1164;1.2559;
912078223323412;-8.5232;0.3320;-2.6249;
912078233429870;-11.9414;-0.5518;-1.1013;
912078243536849;-9.9748;-1.3328;6.3200;
912078253643360;-0.7810;-1.4671;5.2445;
912078263749818;-5.8403;-0.7914;-18.4831;
912078273854766;-24.1059;1.2470;-26.5893;
912078283961276;-14.6725;-0.2716;10.8212;
912078294067735;5.7108;-1.7904;26.5211;
912078304176641;-10.0804;-0.1926;-17.3163;
912078314283151;-22.2589;1.4100;-12.5901;
912078324389610;-8.4897;-0.6694;11.4129;
912078334493099;-2.8507;0.4038;-0.4400;
912078344610495;-8.9638;0.5118;-9.6389;
912078354717006;-13.0627;-0.1950;-3.1325;
912078364823464;-9.0239;0.0159;2.9016;
912078374923308;-5.0306;0.4134;-2.8259;
912078385029818;-11.5678;-0.1615;-6.1606;
912078395136276;-14.3058;0.1666;2.7915;
912078405241745;-8.6836;-0.1567;1.4019;
912078415348256;-11.7739;-0.1137;-5.0659;
912078425454714;-10.2933;-0.8273;3.7280;
912078435559766;-7.4907;-0.3075;0.5659;
912078445666276;-10.2048;-0.8779;-5.0420;
912078455772735;-8.8059;-0.5542;-0.8856;
912078465882891;-10.2383;0.7295;-3.8680;
912078475989401;-11.7643;-0.2524;-4.0238;
912078486095860;-6.0846;0.3751;0.0485;
912078496206849;-6.7193;0.2171;-4.4405;
912078506313360;-12.1259;0.5189;-5.3725;
912078516419818;-11.8505;0.4062;0.1828;
912078526529141;-8.1254;1.2685;-0.9335;
912078536635651;-11.0240;0.5596;-2.1410;
912078546742110;-11.0695;0.4325;2.2741;
912078556841485;-7.3253;-0.2237;0.6906;
912078566947995;-8.1781;0.1762;-3.8680;
912078577054453;-8.2884;-0.3652;-2.1434;
912078587153412;-8.4802;0.2387;-4.8311;
912078597259922;-10.7510;0.8088;-6.0096;
912078607366381;-11.7117;0.6290;-2.4356;
912078617480495;-11.1221;1.5802;-1.8464;
912078627587006;-10.9068;1.3693;-0.4642;
912078637693464;-8.4464;0.8614;1.5864;
912078647796016;-9.8671;1.0866;-2.0067;
912078657902526;-11.1535;1.0002;-1.9875;
912078668008985;-8.6166;0.5118;-0.5934;
912078678133151;-7.1121;0.2794;-1.9540;
912078688239662;-9.0814;-0.1232;-2.6249;
912078698346120;-11.6396;-0.3508;-1.7551;
912078708438203;-10.9475;-0.8827;-0.2701;
912078718544714;-7.8500;-0.2572;-1.9660;
912078728651172;-9.7113;-0.5088;-2.8331;
912078738750235;-10.1091;-0.7507;-0.9646;
912078748856745;-7.8906;-0.5303;-0.9984;
912078758963203;-9.2707;-0.8560;-2.6728;
912078769075183;-10.7486;-1.2108;-1.1803;
912078779181693;-13.3071;-0.5877;-0.3108;
912078789288151;-6.9852;-0.9616;0.4199;
912078799394662;-6.0727;0.2937;-3.1205;
912078809501172;-12.2937;0.4807;-4.8383;
912078819607631;-12.8877;0.6793;-2.7230;
912078829704558;-9.1484;1.1273;-1.3217;
912078839811068;-6.8943;0.8040;-2.1218;
912078849917526;-10.8419;0.5070;-1.4342;
912078860019037;-11.8026;0.1451;-0.3802;
912078870125547;-10.4779;0.3153;-0.6485;
912078880232006;-7.6705;-0.1496;-0.4424;
912078890355391;-7.8835;-0.2764;-2.2965;
912078900461901;-10.2814;-0.4155;-3.0488;
912078910568360;-8.9231;-0.3365;-1.7623;
912078920652787;-8.4754;-0.2859;-3.6790;
912078930759297;-13.1991;0.2076;-3.2740;
912078940865756;-10.3053;-0.2213;1.0235;
912078951038308;-6.5539;0.0230;0.3311;
912078961144818;-9.8647;0.1786;-2.3061;
912078971251276;-10.5951;-0.1065;-2.0043;
912078981297370;-10.3316;0.4062;-1.4773;
912078991403881;-9.4645;-0.3508;-1.3098;
912079001510339;-8.0800;0.9356;-2.1505;
912079011609766;-10.6696;0.7466;-2.3542;
912079021716276;-10.7031;0.1618;-1.0223;
912079031822735;-7.5721;0.1857;-0.8450;
912079041937162;-9.2850;-0.1854;-2.5002;
912079052043672;-10.6505;0.1666;-2.0210;
912079062150131;-9.4741;-0.3748;-1.6044;
912079072262787;-10.9403;0.2794;-1.7240;
912079082369297;-9.2970;-0.0057;-0.8498;
912079092475756;-11.0216;-0.3485;-0.8306;
912079102578985;-10.9092;0.1427;-0.6221;
912079112685495;-7.8356;-1.1339;0.1325;
912079122791953;-8.6333;-0.6550;-2.1529;
912079132895599;-9.8408;-0.2357;-3.2859;
912079143002110;-9.7113;-0.4035;-3.3649;
912079153108568;-10.4085;-0.2788;-2.9961;
912079163239349;-9.9509;-0.1232;-1.0247;
912079173345860;-7.6439;-0.7723;-1.0463;
912079183452318;-10.2479;-0.0802;-2.6632;
912079193539349;-11.1150;-0.7699;-0.3610;
912079203645860;-9.0981;-0.7507;-0.7493;
912079213752318;-8.1517;-0.8201;-2.3734;
912079223872474;-9.0359;-1.0717;-2.5792;
912079233978985;-11.0216;-0.6933;-2.1936;
912079244085443;-9.4549;-0.4011;-1.1515;
912079254186433;-9.5486;-0.7507;-1.3552;
912079264292943;-11.4553;-0.3266;-1.7192;
912079274399401;-8.3626;-0.7029;-1.8535;
912079284495808;-6.9422;-0.1878;-3.4896;
912079294602318;-10.7438;-0.1041;-3.6045;
912079304708776;-10.9451;0.2602;-1.7145;
912079314824818;-8.9853;0.4469;-1.5374;
912079324931328;-9.8958;0.1594;-2.2056;
912079335037787;-9.3114;0.8231;-2.0474;
912079345144089;-9.7591;1.0914;-1.4486;
912079355250547;-10.7318;0.7466;-1.6355;
912079365357006;-9.3544;0.7175;-1.2162;
912079375463933;-8.7556;0.3511;-0.4400;
912079385570391;-8.9877;-0.4011;-1.4629;
912079395676849;-7.3110;0.2554;-2.9052;
912079405775078;-10.1115;0.6027;-4.0573;
912079415881537;-12.6314;1.0436;-2.6130;
912079425987995;-10.9116;0.7271;0.7385;
912079436106537;-8.6285;-0.0993;0.7169;
912079446212995;-8.0441;-0.1113;-1.9205;
912079456319453;-8.9830;0.4397;-2.3949;
912079466445912;-11.6300;0.2578;-2.5552;
912079476552370;-10.4492;0.8136;-1.4533;
912079486658828;-9.6610;0.8327;-1.4629;
912079496747474;-10.2359;0.3176;-1.2667;
912079506853933;-20.1198;-0.4346;0.9159;
912079516960391;-17.2810;2.2196;5.2397;
912079527063151;25.2990;1.5200;-0.6532;
912079537169610;-1.9140;-1.7282;-16.4420;
912079547276068;-35.4461;-0.2979;-13.3759;
912079557382891;-15.6544;-0.8082;10.0044;
912079567489349;1.7130;-1.2419;5.5175;
912079577595808;-4.9923;2.7921;-8.9106;
912079587694453;-14.2675;0.0661;-3.0559;
912079597800912;-12.3320;-1.7952;3.8934;
912079607907370;-9.4669;-0.0176;-1.0319;
912079618018308;-8.4658;0.5046;-4.3472;
912079628124766;-7.7207;-0.5088;-1.3457;
912079638231224;-9.4023;0.3775;-3.2022;
912079648332787;-12.0183;-0.1974;-3.1205;
912079658439245;-9.3497;-0.0631;-0.2988;
912079668545703;-6.7983;-0.2070;-3.2381;
912079678665599;-10.5568;-0.0105;-4.4142;
912079688772058;-10.6385;0.1762;-1.8703;
912079698878516;-8.9471;0.1953;-1.5156;
912079708975495;-10.0466;0.1044;-2.1960;
912079719081953;-12.6625;-0.2142;-1.5302;
912079729188412;-11.4314;1.9992;-1.2185;
912079739297266;-4.9322;-0.3147;3.8767;
912079749403724;-4.5538;-0.0969;-1.2667;
912079759510183;-14.0833;-1.3472;-5.6719;
912079769607578;-16.7686;-1.1414;-1.2401;
912079779714037;-8.6716;0.6170;0.9326;
912079789820495;-4.9178;0.5835;-0.5360;
912079799940391;-7.3421;-0.4011;-2.8932;
912079810046849;-12.0733;-1.0478;-3.7890;
912079820153308;-9.7615;-0.4466;-2.4571;
912079830277214;-9.4095;-0.2070;-3.0009;
912079840383672;-8.7461;-0.2333;-2.1625;
912079850490131;-6.9182;-0.4801;-1.3409;
912079860595599;-9.0072;-0.7388;-3.7651;
912079870702058;-13.5105;0.4253;-2.5986;
912079880808516;-10.2215;-0.3580;1.0522;
912079890877995;-6.7744;0.6817;-0.9718;
912079900984453;-10.4061;-0.1543;-1.0941;
912079911090912;-12.6697;-0.8874;-0.2821;
912079921207370;-7.8404;-0.0655;-0.8282;
912079931313828;-9.2850;-0.1448;-2.6201;
912079941420287;-11.5654;0.5812;-2.5839;
912079951529245;-8.8202;-0.6909;-1.2882;
912079961635703;-11.0432;0.6266;-2.0979;
912079971742162;-10.3149;0.1451;-1.6546;
912079981836433;-6.0221;0.2770;-2.6010;
912079991942891;-9.1029;0.0829;-3.9951;
912080002049349;-13.1417;-0.4777;-2.5624;
912080012232787;-10.1976;-1.0262;-0.0951;
912080022339245;-7.2272;-0.1974;-0.3491;
912080032445703;-8.7075;-0.0009;-2.6967;
912080042487995;-10.5090;-0.7412;-2.0812;
912080052594453;-11.6013;-0.7507;-0.9120;
912080062700912;-11.2421;0.0900;-0.1190;
912080072818828;-9.2707;0.1834;0.9781;
912080082925287;-7.6223;-0.0993;-0.0927;
912080093031745;-8.9686;-0.9185;-1.9828;
912080103126068;-10.2646;-0.3389;-2.9865;
912080113232526;-9.6538;-0.4992;-2.6560;
912080123338985;-7.4357;-0.4346;-2.8020;
912080133445808;-9.5342;-0.1232;-3.8824;
912080143552266;-12.3057;0.1714;-2.9794;
912080153658724;-10.4013;0.8542;-0.9718;
912080163783516;-8.7700;0.5548;-0.6173;
912080173889974;-9.5510;0.5955;-0.8928;
912080183996433;-9.2297;0.2411;-0.9718;
912080194084662;-11.8289;0.2554;-2.1769;
912080204191120;-9.1196;0.5429;-0.7756;
912080214297578;-10.2885;-0.4107;-1.0989;
912080224406224;-7.4836;0.6601;-1.9971;
912080234512683;-9.3903;-0.4155;-1.9875;
912080244619141;-11.7787;-0.2812;-2.9339;
912080254723828;-8.5496;-0.1161;-1.2619;
912080264830287;-8.7580;-0.0682;-2.0163;
912080274936745;-10.0514;-0.0057;-1.7886;
912080285049662;-8.7051;-0.1232;-2.1051;
912080295156120;-9.6538;0.0015;-2.9722;
912080305262578;-9.7519;-0.1759;-1.9899;
912080315365183;-10.8371;0.0326;-1.5757;
912080325471641;-8.1422;-0.2596;-0.9885;
912080335578099;-11.2636;0.5764;-1.9325;
912080345680703;-12.3751;0.4205;-0.9311;
912080355787162;-7.0283;-0.0105;0.3482;
912080365893620;-6.8198;0.6817;-2.1147;
912080376006224;-10.5353;-0.3027;-3.4346;
912080386112683;-12.0637;-0.5901;-2.7565;
912080396219141;-10.0226;-0.2189;-1.7145;
912080406332058;-9.5821;0.0494;-1.7432;
912080416438464;-7.6080;-0.7436;-1.9349;
912080426544922;-9.6156;0.5668;-3.7579;
912080436651381;-10.6887;-0.6311;-0.1549;
912080446749662;-8.7461;-0.9066;-1.2643;
912080456856120;-9.7519;0.5381;-3.0057;
912080466962578;-10.0107;-0.3389;-0.4400;
912080477082683;-8.7027;-0.2213;-0.8450;
912080487189141;-9.3520;-0.9257;-1.3337;
912080497295599;-10.8395;0.0589;-2.4619;
912080507394245;-9.6658;0.0159;-1.3169;
912080517500703;-9.8360;-0.9353;-0.7516;
912080527607162;-10.0561;0.5955;-2.3949;
912080537710183;-10.2120;0.5788;-2.4236;
912080547816641;-8.3100;0.1881;-0.5168;
912080557923099;-8.6213;-0.5112;-1.9780;
912080568024766;-10.6098;0.0781;-2.3204;
912080578131224;-9.9102;-0.2070;-2.1936;
912080588237683;-9.2970;0.1331;-2.4715;
912080598328308;-10.9642;-0.1854;-1.5924;
912080608434766;-10.3989;-0.0730;-0.0975;
912080618541224;-7.6920;-0.3580;-0.9287;
912080628657891;-9.7280;-0.4681;-2.3877;
912080638764349;-11.5152;-0.3652;-2.2008;
912080648870808;-9.7280;0.0541;-1.3959;
912080659008203;-9.4286;0.1642;-1.2497;
912080669114662;-10.1282;0.0924;-0.7202;
912080679221120;-7.3660;0.0302;-0.1119;
912080689300599;-10.0657;-0.7196;-1.3816;
912080699407058;-10.3149;-0.5064;-1.7312;
912080709513516;-8.7437;-0.6263;-2.6560;
912080719642943;-9.4023;-0.2764;-2.4811;
912080729749401;-10.6744;-0.1065;-2.2702;
912080739855860;-9.8599;0.2578;-2.3710;
912080749932474;-8.6285;0.2554;-1.9421;
912080760038933;-9.5653;-0.1687;-0.8234;
912080770145391;-9.8695;-0.4490;-0.8689;
912080780248724;-10.3029;0.1235;-1.5685;
912080790355183;-9.8312;0.0661;-0.5432;
912080800461641;-10.1833;-0.1998;-1.1085;
912080810567162;-9.8288;0.1690;-1.0463;
912080820673620;-8.6285;-0.4537;-0.7178;
912080830780078;-10.1258;-0.7675;-0.9742;
912080840906537;-10.9235;-0.3365;-1.9493;
912080851012995;-9.9604;-0.3314;-1.6905;
912080861119453;-9.2922;-0.1113;-1.6546;
912080871219349;-10.7605;0.3511;-1.3816;
912080881325808;-6.2210;-0.2189;-0.7828;
912080891432266;-7.7997;-0.7986;-2.7254;
912080901530964;-16.7228;-0.0583;-2.3013;
912080911637422;-6.9087;-0.0730;-0.1597;
912080921743881;-5.7443;-0.0176;-2.0668;
912080931874558;-12.4493;0.2818;-1.9086;
912080941981016;-13.7692;0.2124;-1.5948;
912080952087474;-8.9064;0.1929;0.1062;
912080962191537;-5.0833;1.0986;-0.9120;
912080972297995;-9.6203;0.0254;-2.5768;
912080982404453;-11.9270;0.3823;-2.4954;
912080992515131;-9.1938;0.9667;-2.3276;
912081002621589;-8.9686;-0.3365;-1.9971;
912081012728047;-12.1570;0.2913;-1.4773;
912081022807266;-10.8084;0.6338;-0.9383;
912081032913724;-7.1097;-0.0153;-0.3467;
912081043020183;-8.1374;0.6817;-1.6570;
912081053170287;-10.2287;-0.1496;-2.6512;
912081063276745;-9.1819;0.0685;-2.7948;
912081073383203;-8.4344;0.7008;-2.7972;
912081083455287;-11.3856;0.2674;-2.3061;
912081093561745;-8.8944;0.7896;-1.4198;
912081103668203;-10.6289;-0.0631;-0.6915;
912081113780495;-8.8896;1.0002;0.0006;
912081123886953;-8.8418;0.2171;-2.0812;
912081133993412;-12.0948;0.2722;-2.3734;
912081144090912;-8.8250;-0.4537;1.6920;
912081154197370;-8.6716;0.4158;-3.6885;
912081164303828;-12.3129;0.0398;-0.8115;
912081174429974;-9.8456;-0.8608;0.7241;
912081184536433;-8.0752;0.4469;-3.2931;
912081194642891;-8.5424;0.1714;-1.7575;
912081204747683;-11.1512;-0.3461;-2.1314;
912081214854141;-10.3367;0.2076;-1.6834;
912081224960599;-8.8561;0.0159;-1.1539;
912081235054141;-9.4095;-0.1280;-1.7910;
912081245160599;-10.1880;-0.1400;-0.9144;
912081255267058;-8.9758;-0.2500;-1.0295;
912081265373933;-9.4908;-0.6981;-1.5637;
912081275480391;-9.9509;-0.0296;-1.6929;
912081285586849;-9.8312;-1.4073;-1.0606;
912081295690495;-9.4669;0.2028;-2.1697;
912081305796953;-9.0957;-0.4992;-1.2619;
912081315903412;-10.8757;-0.9281;-0.8402;
912081326018724;-11.8672;0.0829;-0.1478;
912081336125183;-7.6968;-0.9401;0.5539;
912081346231641;-8.5184;0.1977;-1.1204;
912081356329453;-10.3244;-0.8465;-1.6690;
912081366435912;-9.5462;-0.8369;-2.1242;
912081376542370;-8.8848;0.1714;-3.3147;
912081386654766;-10.0514;0.0398;-2.1003;
912081396761224;-10.1139;-0.1328;-0.1454;
912081406867683;-8.7772;-0.4250;-0.9048;
912081416976901;-8.6142;0.4253;-2.3877;
912081427083360;-11.1727;0.0111;-2.0521;
912081437189818;-10.4157;0.2530;-1.3385;
912081447290703;-6.8656;0.8136;-2.1170;
912081457397162;-11.3785;-0.2620;-1.4892;
912081467503620;-13.0436;0.4974;0.2761;
912081477619141;-8.6931;-0.4657;-0.4208;
912081487725599;-8.7820;0.7032;-0.5025;
912081497832058;-9.0670;-0.1304;-1.4151;
912081507932995;-12.0709;0.2578;-2.2750;
912081518039453;-9.8360;-0.0754;-1.0845;
912081528145912;-8.4730;-0.3963;-0.6796;
912081538245078;-10.6672;-0.1041;-0.8856;
912081548351537;-9.0933;-0.2500;-2.1697;
912081558457995;-9.2201;0.4181;-2.1649;
912081568571901;-8.1948;-0.3218;-2.3566;
912081578678360;-10.2191;0.3344;-1.6786;
912081588784818;-9.7113;-0.1687;-2.0859;
912081598904245;-9.2656;0.1475;-1.2473;
912081609010703;-10.1928;-0.2740;-2.0258;
912081619117162;-10.5473;0.7442;-0.3371;
912081629208933;-8.9877;-0.1089;-1.0008;
912081639315391;-9.7926;0.9715;-1.0845;
912081649421849;-11.0647;-0.6670;-0.4472;
912081659518828;-8.1733;0.0829;-0.6485;
912081669625287;-9.4095;-0.3218;-1.5227;
912081679731745;-11.1054;-0.8393;-1.3863;
912081689844974;-9.3664;-0.5590;-1.3935;
912081699951433;-8.4033;-0.6024;-3.0344;
912081710057891;-9.6108;-0.1400;-1.8679;
912081720182370;-9.9604;-0.9855;-1.8846;
912081730288828;-10.8084;0.3727;-2.0450;
912081740395287;-11.3785;-0.5542;-1.8655;
912081750507370;-9.2321;1.0149;1.0235;
912081760613828;-8.8083;-0.0631;-1.2835;
912081770720287;-10.2335;0.3942;-2.0330;
912081780806589;-9.0215;0.2506;-1.3433;
912081790913047;-10.4898;-0.1783;-2.3399;
912081801019506;-10.2096;0.2339;-2.6752;
912081811156381;-9.8504;-0.5016;-1.0869;
912081821262839;-6.5925;0.1834;-2.0668;
912081831369297;-10.4420;-0.5183;-2.6010;
912081841449558;-11.6468;0.8183;-2.5528;
912081851556016;-8.5902;-0.0873;-1.4438;
912081861662474;-9.6586;0.8830;-0.6963;
912081871762370;-8.6501;0.3081;-0.6748;
912081881868828;-10.6265;0.4711;-1.5302;
912081891975287;-10.9427;0.4086;-0.8426;
912081902095547;-8.7604;0.6482;-1.1827;
912081912202006;-8.3794;-0.0272;-0.8641;
912081922308464;-7.6872;-0.0631;-2.1936;
912081932403203;-10.0995;-0.2309;-3.4011;
912081942509662;-11.2421;0.5524;-2.6058;
912081952616120;-10.3750;0.3224;-1.0439;
912081962739453;-10.0370;0.4445;-1.0654;
912081972845912;-8.5137;0.3751;-0.3682;
912081982952370;-9.7759;0.1451;-1.3983;
912081993027162;-9.1484;-0.1256;-1.7264;
912082003133620;-11.6949;-0.4729;-1.9134;
912082013240078;-8.8490;0.3990;-1.0319;
912082023361224;-9.3520;0.2148;-1.6211;
912082033467683;-10.4204;-0.1376;-2.3997;
912082043574141;-8.3818;0.7271;-2.9172;
912082053675078;-9.3520;0.8662;-3.5973;
912082063781537;-14.5573;1.2254;-2.2439;
912082073887995;-10.2526;0.8351;1.0116;
912082083998308;-8.0393;0.2506;-0.3084;
912082094104766;-10.2072;-0.0921;-1.3002;
912082104211224;-10.3798;-0.1950;-1.4222;
912082114319037;-12.8064;-0.5590;-1.7216;
912082124425495;-10.7653;0.1929;-0.9885;
912082134531953;-6.8342;0.0541;-0.5121;
912082144651745;-9.0335;-0.3987;-1.9325;
912082154758203;-12.0183;-1.1677;-1.7719;
912082164864662;-10.4133;-0.6622;-1.5948;
912082174969349;-7.1507;-1.1701;-1.7240;
912082185075808;-7.1240;-0.9975;-3.1086;
912082195182266;-8.4969;-1.2945;-3.4202;
912082205282735;-9.2106;-1.0908;-3.2333;
912082215389193;-9.1436;-0.7914;-2.2893;
912082225495651;-7.1315;-0.7723;-2.2893;
912082235600183;-9.3473;-0.3748;-3.2572;
912082245706641;-11.9031;0.0733;-0.8282;
912082255813099;-10.4468;1.3190;-1.0223;
912082265918464;-8.7604;0.7104;-0.8617;
912082276024922;-11.1126;0.5931;-1.0798;
912082286131381;-12.2073;1.3597;-0.9120;
912082296232787;-8.7891;0.9380;-0.4738;
912082306339245;-9.5964;0.5381;-2.3399;
912082316445703;-13.2422;0.7343;-1.2162;
912082326558724;-12.3607;0.8542;0.2067;
912082336665183;-13.2135;0.6194;-0.2940;
912082346771641;-13.0627;0.3727;1.5266;
912082356878516;-8.4873;0.0470;0.9302;
912082366985026;-3.0039;-0.8874;-2.6225;
912082377091485;-9.9365;-0.6981;-5.5857;
912082387197058;-14.3970;-0.7316;-3.3362;
912082397303568;-11.1365;0.2530;-2.6154;
912082407410026;-1.8876;-1.1797;-3.5901;
912082417516328;-4.1465;-0.9688;-5.1377;
912082427622839;-7.3181;-0.8898;-6.7307;
912082437729297;-5.6438;-1.0023;-6.4457;
912082447836224;-13.8700;-0.0009;-4.1530;
912082457942735;-17.6142;0.9284;1.5793;
912082468049193;-4.2592;0.7080;4.3388;
912082478223412;-2.5367;0.7561;-2.6201;
912082488329922;-13.4411;1.3190;-4.4548;
912082498436381;-17.3243;-0.3604;1.1432;
912082508475808;-10.6217;0.6745;1.3875;
912082518582318;-5.2702;0.2985;0.9182;
912082528688776;-10.5592;0.6745;-0.6078;
912082538790599;-10.6505;0.5788;-0.8641;
912082548897110;-10.1234;-0.2381;-3.1711;
912082559003568;-9.7711;-0.0081;-2.3590;
912082569114141;-10.3846;-0.2213;-1.1994;
912082579220651;-7.7686;0.4445;-1.6355;
912082589327110;-8.1302;-0.0176;-3.8082;
912082599407474;-11.7428;0.9523;-4.0884;
912082609513985;-10.0514;0.1235;-1.5302;
912082619620443;-10.4420;0.4110;-2.0764;
912082629739818;-10.7390;0.7848;-0.4041;
912082639846328;-9.4167;1.0938;-0.6030;
912082649952787;-8.2454;-0.2022;-1.1085;
912082660077058;-10.2191;0.1092;-2.4763;
912082670183568;-10.0708;-0.0993;-2.1410;
912082680290026;-9.6730;-0.7771;-1.5084;
912082690409141;-7.7877;0.5142;-4.1698;
912082700515651;-12.6194;0.6649;-7.1115;
912082710622110;-13.2781;0.2387;1.5840;
912082720697370;-6.5949;-0.4753;5.0097;
912082730803881;-11.0671;0.1355;-3.4609;
912082740910339;-12.2148;0.2076;-0.8521;
912082751020391;-8.5184;-1.6298;2.2334;
912082761126901;-9.1053;-0.0897;-1.5733;
912082771233360;-9.4645;-0.8249;-0.6652;
912082781339558;-11.4123;-1.7617;0.8943;
912082791446068;-7.8500;-1.9606;3.3760;
912082801552526;-5.2268;-2.7655;1.3828;
912082811675808;-10.4276;-2.5810;-2.9459;
912082821782318;-12.8542;-2.0085;-3.8871;
912082831888776;-8.0106;-2.0300;-4.4094;
912082841986224;-6.8175;-0.7101;-4.1889;
912082852092735;-9.2632;-1.0478;-3.1926;
912082862199193;-9.9676;-0.7101;-2.8283;
912082872299818;-9.9197;0.3057;-5.8373;
912082882406328;-12.3081;1.5491;-4.5891;
912082892512787;-11.1535;3.1540;-1.6690;
912082902623568;-7.3780;2.1072;-1.5924;
912082912730078;-9.6945;2.7921;-2.3228;
912082922836537;-11.7643;3.3503;-2.8379;
912082932941016;-10.8419;2.5789;-2.6608;
912082943047526;-8.6716;1.8197;-1.4294;
912082953153985;-7.7088;1.3095;-2.6010;
912082963267266;-12.1092;0.8662;-3.7723;
912082973373776;-8.2860;0.2554;-1.4964;
912082983480235;-7.0427;0.2602;-2.9913;
912082993583412;-10.2790;-0.3628;-4.0813;
912083003689922;-10.6672;-0.2094;-2.4739;
912083013796381;-6.2761;0.6817;-2.2367;
912083023906901;-9.4621;-0.1304;-3.3410;
912083034013412;-11.3354;1.2999;-2.3638;
912083044119870;-8.0345;0.8303;-2.4021;
912083054236016;-9.7567;0.7681;-2.3037;
912083064342526;-9.7974;0.8423;-1.3744;
912083074448985;-10.1474;0.3488;-2.5361;
912083084542995;-11.6468;1.2760;-1.9780;
912083094649506;-7.4907;1.0603;-0.9550;
912083104755964;-9.0048;1.2159;-3.3242;
912083114860078;-10.5879;1.0340;-2.7206;
912083124966589;-7.5434;1.0651;-3.8608;
912083135073047;-9.3114;1.5897;-5.0731;
912083145183724;-10.8443;0.5501;-3.0846;
912083155290235;-6.3864;1.2784;-3.1519;
912083165396693;-8.2454;0.4759;-3.9544;
912083175509141;-11.5199;0.6194;-3.5447;
912083185615651;-9.8647;0.3655;-2.5672;
912083195722110;-8.3315;0.0517;-1.9828;
912083205827891;-9.5052;0.4974;-1.7456;
912083215934401;-8.8681;0.2841;-2.6417;
912083226040860;-10.2909;0.8447;-3.5686;
912083236149349;-9.1938;0.6290;-2.7135;
912083246255860;-8.5783;0.4998;-3.6595;
912083256362318;-10.0394;0.4325;-3.1759;
912083266459245;-9.8049;-0.2094;-3.0703;
912083276565756;-8.6094;0.1259;-3.5064;
912083286672214;-9.3712;-0.3580;-3.4561;
912083296788933;-10.1282;-0.5782;-2.7781;
912083306895443;-8.3913;-0.6239;-2.4428;
912083317001901;-10.4204;-1.3137;-1.9780;
912083327106849;-10.6576;-1.1004;-1.7025;
912083337213360;-7.0834;-1.2203;-2.1649;
912083347319818;-8.7242;-1.3998;-2.2822;
912083357423724;-11.1799;-2.0755;-2.8837;
912083367530235;-11.1488;-1.4527;-2.8068;
912083377636693;-8.4945;-1.3902;-1.5589;
912083387744453;-8.0847;-1.4575;-2.6273;
912083397850964;-9.7831;-1.0262;-3.1974;
912083407957422;-11.9776;-0.7053;-3.0488;
912083418076068;-9.3760;-0.4274;-1.1228;
912083428182578;-7.6343;-0.9449;-1.7743;
912083438289037;-8.4153;-0.9185;-2.8908;
912083448373099;-10.2670;-0.8130;-2.9913;
912083458479610;-10.3149;-1.5580;-3.3745;
912083468586068;-9.3353;-0.4059;-2.2367;
912083478710183;-7.6633;-0.9903;-2.4930;
912083488816693;-10.2311;-0.4059;-3.4968;
912083498923151;-11.2014;-0.7316;-2.0764;
912083509023568;-8.8011;-0.4848;-1.8966;
912083519130078;-8.3889;-0.2261;-2.0402;
912083529236537;-9.5028;-0.3290;-2.9506;
912083539337891;-9.6251;0.5907;-3.5375;
912083549444401;-7.4094;-0.1424;-3.0942;
912083559550860;-9.7615;0.0517;-4.0502;
912083569661328;-11.2588;0.2339;-3.0679;
912083579767839;-9.6730;0.3535;-1.7719;
912083589874297;-9.5677;1.0101;-2.2510;
912083599975287;-7.6848;0.7056;-2.9841;
912083610081797;-8.3195;0.9117;-4.4261;
912083620188256;-11.0575;0.2818;-4.9962;
912083630284974;-10.6361;0.8064;-3.4920;
912083640391485;-7.5506;1.1106;-2.9076;
912083650497943;-7.1770;1.0002;-3.8967;
912083660597995;-9.3353;0.8638;-4.6777;
912083670704506;-11.9776;0.6745;-4.6490;
912083680810964;-8.7915;0.3105;-2.4021;
912083690945391;-7.4859;0.3224;-3.4155;
912083701051901;-9.2130;1.1034;-4.9579;
912083711158360;-10.1761;0.6553;-4.1650;
912083721265287;-9.1436;-0.0655;-3.1807;
912083731371797;-8.9064;-0.1974;-3.9808;
912083741478256;-10.1904;0.4421;-3.9616;
912083751602787;-9.2755;0.3296;-3.2429;
912083761709297;-8.3243;0.4158;-3.8106;
912083771815756;-7.4142;-0.1519;-4.7665;
912083781882683;-9.5605;-0.0535;-5.1832;
912083791989193;-10.5066;-0.4107;-3.8871;
912083802095651;-9.5821;0.1977;-3.0176;
912083812229141;-8.7147;-0.4083;-2.2247;
912083822335651;-8.7796;-0.7986;-2.0764;
912083832442110;-8.4440;-0.9736;-3.4250;
912083842531537;-8.5711;-0.7699;-4.1267;
912083852638047;-9.7424;-0.6287;-4.8311;
912083862744506;-9.3425;-0.4394;-4.1937;
912083872842995;-8.6381;-0.2812;-3.3960;
912083882949506;-9.4071;-0.2285;-3.3434;
912083893055964;-8.4849;-0.3242;-3.2812;
912083903168151;-11.0073;-0.5088;-3.7627;
912083913274662;-10.4563;-0.4202;-2.7541;
912083923381120;-7.3708;-0.5973;-2.3327;
912083933499766;-7.8452;-0.3413;-4.4213;
912083943606276;-9.2034;0.5644;-6.5653;
912083953712735;-8.8920;-0.4346;-4.2730;
912083963814558;-9.8527;0.2746;-3.7460;
912083973921068;-9.6203;-0.9688;-2.5265;
912083984027526;-9.5773;-0.8536;-1.8176;
912083994139766;-8.9088;-1.2443;-2.0282;
912084004246276;-10.3941;-1.4432;-2.8499;
912084014352735;-10.5808;-0.9855;-2.4260;
912084024451433;-9.1436;-0.0583;-2.5672;
912084034557943;-8.9638;-0.6933;-2.6369;
912084044664401;-8.9758;0.4469;-3.3912;
912084054766328;-6.4463;-0.5662;-3.2118;
912084064872839;-9.4908;0.0422;-5.1185;
912084074979297;-10.9427;-0.2118;-4.9962;
912084085084974;-8.8418;0.5883;-2.5217;
912084095191485;-8.5998;0.0135;-2.1338;
912084105297943;-7.9170;-0.0655;-2.2391;
912084115402318;-10.1186;0.1570;-3.6404;
912084125508828;-10.3340;0.8255;-3.9975;
912084135615287;-8.8848;1.1393;-3.4394;
912084145739662;-7.6056;0.6458;-3.2094;
912084155846172;-10.4085;0.3488;-2.8765;
912084165952631;-9.7663;0.4588;-2.3590;
912084176062162;-9.4095;0.5620;-3.3362;
912084186168672;-9.2393;0.6864;-3.1253;
912084196275131;-10.7581;0.9308;-3.6619;
912084206367266;-12.9093;1.5730;-2.7733;
912084216473776;-6.2019;1.1249;-1.3744;
912084226580235;2.5370;0.7032;-5.9904;
912084236698151;-6.2402;0.0422;-10.7025;
912084246804662;-22.8123;-0.1735;-6.8575;
912084256911120;-18.3999;1.9896;2.6477;
912084267012891;-1.3941;1.5200;4.2239;
912084277119401;0.7259;-0.3987;-0.9837;
912084287225860;-13.7979;1.0149;-7.2697;
912084297331641;-15.4391;-0.5183;-5.2430;
912084307438151;-11.7667;1.0101;-4.1411;
912084317544610;-4.7046;0.6793;-1.9158;
912084327648203;-2.2540;1.0866;-3.6861;
912084337754714;-8.8202;0.4014;-6.3476;
912084347861172;-14.4042;-0.1998;-6.2180;
912084357967318;-12.9236;0.0852;-3.5088;
912084368073828;-1.9331;-0.3075;-1.3074;
912084378180339;-1.2458;0.0541;-4.7474;
912084388286016;-10.3077;-0.1926;-8.8268;
912084398392526;-13.6950;0.4878;-7.2458;
912084408499037;-8.3530;-0.3963;-3.3912;
912084418613933;-8.6070;-0.4777;-1.6235;
912084428720443;-12.2387;-1.3878;-0.5886;
912084438826953;-17.7841;-1.4049;-0.1286;
912084448920183;-8.1975;-0.0921;1.1626;
912084459026693;2.5178;0.2148;-3.9927;
912084469133203;-8.9877;-0.9209;-8.5633;
912084479266849;-20.1054;0.1475;-8.4769;
912084489373360;-12.6482;0.2171;-4.0071;
912084499479870;-6.1708;0.4926;-0.3084;
912084509564974;-10.5209;-1.1868;3.0646;
912084519671485;-9.1077;-1.1629;0.7648;
912084529777995;-8.5735;0.1738;-6.9177;
912084539881224;-12.0900;1.5993;-9.1789;
912084549987735;-5.7012;0.9404;-5.5953;
912084560094245;-3.5429;0.8614;-5.1281;
912084570193308;-4.2473;-1.6657;-4.5197;
912084580299818;-11.1440;-0.5016;-8.4051;
912084590406328;-27.1624;-0.3652;-3.1134;
912084600571953;-22.6110;0.1307;8.4353;
912084610678464;3.1214;0.5046;8.2795;
912084620784974;2.1775;-1.2251;1.0499;
912084630848933;-17.1302;-1.3280;-7.7704;
912084640955443;-17.3937;0.1355;-4.9747;
912084651061953;-5.1790;0.4086;-0.9861;
912084661210078;-1.3558;-2.1497;-3.3051;
912084671316589;-7.7590;-1.0525;-8.6040;
912084681423099;-11.4482;-0.8707;-9.0808;
912084691487787;-8.7051;-0.5255;-9.5501;
912084701594297;-9.7639;0.8830;-8.4939;
912084711700808;-12.1020;0.2148;0.0245;
912084721801433;-10.3053;-0.5160;2.4368;
912084731907943;-8.2334;-0.2118;-0.5671;
912084742014453;-12.9811;0.1403;-2.4476;
912084752108620;-11.0910;0.5237;-2.6752;
912084762215131;-4.7623;-0.0607;-5.2478;
912084772321641;-7.3229;0.2841;-5.2669;
912084782435235;-10.8515;0.0829;-5.1377;
912084792541745;-11.0001;-0.1208;-2.6249;
912084802648256;-8.4897;-0.1807;-0.3706;
912084812750235;-7.9795;-1.4288;0.7839;
912084822856745;-8.0178;-1.2179;-1.4318;
912084832963256;-6.5276;-0.3772;-7.2147;
912084843068620;-9.4047;1.8843;-14.6695;
912084853175131;-13.9729;1.9968;-10.0989;
912084863281641;-8.8274;3.2091;-0.2892;
912084873383828;-5.9001;0.9356;0.9565;
912084883490339;-10.5425;0.0565;-0.5025;
912084893596849;-15.3144;0.3296;0.5898;
912084903705183;-12.5596;-0.1615;2.2286;
912084913811693;-5.8235;-0.9616;-0.9936;
912084923918203;-6.1349;-0.4585;-4.4309;
912084934041016;-9.2034;0.1666;-4.2323;
912084944147526;-12.4926;1.6137;-4.8622;
912084954254037;-10.4850;1.4937;-3.3817;
912084964358412;-7.8619;1.1369;-3.5901;
912084974464922;-8.0895;1.3214;-2.6010;
912084984571433;-9.5701;1.2637;-4.1650;
912084994676537;-9.9939;0.3703;-3.0559;
912085004783047;-8.3339;0.3416;-2.7350;
912085014889558;-8.9016;-0.7364;-2.2008;
912085025002995;-8.9614;0.0182;-1.5924;
912085035109506;-8.7628;-0.2979;-2.7206;
912085045216016;-8.9040;0.3272;-2.8765;
912085055303412;-8.3937;0.2746;-3.3386;
912085065409922;-9.9748;0.0996;-3.8584;
912085075516433;-9.3999;0.3320;-4.2969;
912085085623828;-8.5687;0.8207;-4.1650;
912085095730339;-8.3076;0.0733;-3.1229;
912085105836849;-8.5089;0.7585;-4.4261;
912085115953985;-9.4406;0.6888;-3.2142;
912085126060495;-8.2286;0.7394;-3.9377;
912085136167006;-8.9303;0.7513;-4.9077;
912085146283203;-9.6658;0.9835;-4.7207;
912085156389714;-12.4660;1.9490;-3.7220;
912085166496224;-9.8384;1.9226;-2.1170;
912085176590287;-6.5683;0.9787;-0.3682;
912085186696797;-8.3483;0.1786;-2.7589;
912085196803308;-10.6409;0.3009;-4.1602;
912085206920651;-9.8240;0.7490;-3.8536;
912085217027162;-8.5519;1.0077;-3.5901;
912085227133672;-7.6415;0.6673;-3.8512;
912085237232058;-9.3233;1.1465;-4.2036;
912085247338568;-8.4272;1.3621;-3.7316;
912085257445078;-9.2970;0.7247;-3.7101;
912085267556745;-8.8944;0.7418;-4.1554;
912085277663256;-9.0048;1.2111;-3.2836;
912085287769766;-10.1785;0.6529;-3.2453;
912085297870235;-7.8093;0.3966;-3.1519;
912085307976745;-7.5458;0.1594;-3.9832;
912085318083256;-11.4888;-0.7938;-3.6766;
912085328191120;-10.8586;-0.6790;-2.7159;
912085338297631;-7.7901;0.0135;-2.0883;
912085348404141;-8.7171;-0.7771;-2.1553;
912085358474037;-11.6348;-0.5806;-2.1697;
912085368580495;-10.5975;-0.5542;-2.6632;
912085378686901;-6.4176;-0.3413;-1.7623;
912085388811485;-6.6835;-1.2969;-3.7053;
912085398917943;-10.8586;-0.5255;-5.0324;
912085409024349;-9.3688;-0.0440;-5.0515;
912085419151849;-8.8490;-0.3867;-3.3099;
912085429258308;-9.6443;-0.2357;-3.7125;
912085439364714;-9.3568;-0.1519;-3.5207;
912085449454401;-8.9758;-0.7268;-2.5409;
912085459560860;-9.4406;-0.6502;-2.4954;
912085469667266;-8.4392;-1.0980;-2.5911;
912085479798933;-6.0532;-0.1950;-3.6428;
912085489905391;-9.4382;-1.3304;-4.2203;
912085500011797;-9.5148;-1.1940;-4.2009;
912085510095078;-6.8608;-0.2620;-3.9975;
912085520201537;-8.9710;-0.5806;-4.4046;
912085530307943;-9.0479;0.0996;-4.1913;
912085540430495;-9.3401;0.0805;-3.1878;
912085550536953;-11.3498;0.0589;-3.1591;
912085560643360;-10.3391;0.5620;-2.6177;
912085570726953;-8.3148;0.1857;-0.9861;
912085580833412;-8.4224;0.1762;-2.5768;
912085590939818;-12.7825;0.4277;-2.4643;
912085601061641;-11.6276;0.7968;-2.6393;
912085611168099;-9.5486;0.3320;-0.8952;
912085621274506;-10.0155;0.8877;-1.1611;
912085631357891;-7.9484;1.1800;-3.2644;
912085641464349;-9.1053;1.6807;-4.2009;
912085651570756;-9.5892;0.2770;-4.5293;
912085661724870;-7.9747;0.5501;-5.2406;
912085671831328;-8.3794;-0.4681;-4.0119;
912085681937735;-9.3257;0.4902;-4.0884;
912085692013568;-8.8226;-0.5303;-2.4763;
912085702120026;-10.7557;-0.0778;-2.8164;
912085712226433;-11.0432;-0.5758;-0.6437;
912085722341641;-7.1913;-0.1496;-0.5025;
912085732448099;-9.7280;-0.3485;-2.9411;
912085742554506;-10.9690;0.4158;-2.7470;
912085752681224;-9.0885;0.0565;-1.5108;
912085762787683;-6.3697;-0.8321;-2.4858;
912085772894089;-8.5807;-0.7771;-5.8325;
912085782966901;-11.0121;-0.3652;-5.8059;
912085793073360;-9.3018;-0.3652;-4.2778;
912085803179766;-6.8294;-0.6574;-5.1209;
912085813296745;-9.3473;-0.5399;-5.1066;
912085823403203;-12.2818;0.7271;-4.9340;
912085833509610;-10.4731;0.1116;-3.2046;
912085843617474;-10.3316;0.4397;-1.2209;
912085853723933;-10.7198;-0.2596;-1.3624;
912085863830339;-8.8872;-0.9185;-1.0893;
912085873931224;-8.4535;-1.3807;-1.9828;
912085884037683;-11.4338;-1.5461;-1.7527;
912085894144089;-10.1593;-0.8201;-1.4174;
912085904266641;-8.5400;-1.4456;-3.3745;
912085914373099;-7.8906;-0.3389;-4.5987;
912085924479506;-10.4013;-0.0969;-5.5427;
912085934574401;-14.5382;0.0278;-4.2538;
912085944680860;-7.1985;0.2243;-0.6365;
912085954787266;7.7375;-0.4226;-4.5772;
912085964899141;-0.3616;-1.4599;-13.1124;
912085975005599;-17.8152;-1.7904;-12.0200;
912085985112006;-17.9614;2.4042;-2.5576;
912085995210703;-9.1651;2.8881;3.1268;
912086005317162;-4.4916;0.7585;1.9771;
912086015423568;-8.7051;-0.0754;0.2378;
912086025533203;-13.6065;-0.0802;-2.5624;
912086035639662;-11.7045;1.2087;-3.3075;
912086045746068;-6.5659;0.9380;-4.6801;
912086055848828;-7.3158;1.4985;-4.5102;
912086065955287;-10.2957;1.8197;-5.0707;
912086076061693;-12.0805;2.0761;-4.4524;
912086086167474;-9.8695;1.0316;-3.2764;
912086096273933;-10.3487;1.7716;-1.9540;
912086106380339;-9.5414;0.6003;-2.1362;
912086116484349;-9.8216;1.1871;-2.2223;
912086126590808;-8.9447;0.8471;-1.8942;
912086136697214;-8.2406;0.3153;-3.9688;
912086146819870;-10.5592;-0.1974;-4.9149;
912086156926328;-12.6194;-1.5939;2.5208;
912086167032735;-5.5672;-2.0994;6.7223;
912086177124766;-3.2291;-2.7317;-1.0989;
912086187231224;-10.7318;-2.0731;-7.0205;
912086197337631;-13.1824;-1.3304;-6.8288;
912086207445912;-7.6920;-0.9808;-6.0455;
912086217552370;-3.2195;-1.1773;-4.3878;
912086227658776;-7.1794;-0.6048;-6.8360;
912086237760183;-12.0541;-0.3389;-5.3533;
912086247866641;-11.5917;-0.5255;-4.3472;
912086257973047;-11.2899;0.1379;-2.0306;
912086268083099;-10.7246;0.0350;0.6834;
912086278189558;-6.8031;-0.0272;-0.2964;
912086288295964;-7.2344;0.0852;-3.6284;
912086298405703;-13.1824;-0.6646;-4.8120;
912086308512162;-12.2483;0.0302;-3.9544;
912086318618568;-9.5219;-0.7292;-1.6738;
912086328721224;-8.5328;-0.1472;-1.2978;
912086338827683;-10.1091;-0.3123;-2.5409;
912086348934089;-7.3780;-0.8560;-2.9698;
912086359027891;-9.3616;-1.0549;-4.5628;
912086369134349;-8.2310;-1.7043;-4.5389;
912086379240808;-10.2335;-1.6418;-4.2060;
912086389361641;-11.0336;-1.7665;-2.9770;
912086399468099;-6.4654;-1.2299;-1.3074;
912086409574558;-5.7634;-1.1964;-2.9794;
912086419686953;-6.7026;-1.9415;-4.7351;
912086429793412;-5.9527;-0.8441;-6.6470;
912086439899870;-8.1517;-0.6933;-6.9727;
912086449995651;-8.1398;-0.8010;-4.8503;
912086460102110;-7.8308;-0.3194;-4.1267;
912086470208568;-8.6716;0.2889;-3.0942;
912086480356120;-8.3435;0.0015;-1.4079;
912086490462578;-6.6452;0.4516;-2.7135;
912086500569037;-7.4213;0.8949;-5.1042;
912086510641953;-10.5568;0.7896;-5.1640;
912086520748412;-12.8423;1.1345;-2.6871;
912086530854870;-11.4482;1.5826;-0.7445;
912086540961224;-9.0933;0.5118;1.6199;
912086551067683;-8.6644;0.7394;0.3912;
912086561174141;-9.7017;-0.3075;-1.5374;
912086571272214;-10.2670;0.0182;-3.1807;
912086581378672;-12.1834;0.8136;-4.8503;
912086591485131;-11.0575;1.3238;-1.7862;
912086601626016;-8.3889;1.3167;0.0846;
912086611732474;-8.0919;-0.4609;0.5396;
912086621838933;-7.6825;-0.9760;0.9470;
912086631908724;-9.1819;-1.3280;-1.5517;
912086642015183;-12.2698;-1.0334;-2.7709;
912086652121641;-9.4597;-1.0717;-2.0450;
912086662222735;-6.2593;0.2578;-3.2309;
912086672329193;-8.4512;-0.8779;-2.9650;
912086682435651;-11.2660;-0.7436;-2.1434;
912086692552266;-7.7734;-0.7244;-1.1707;
912086702658724;-5.3109;-0.6814;-3.5590;
912086712765183;-8.4464;-0.6694;-6.1128;
912086722879245;-11.0647;0.0326;-7.3391;
912086732985703;-10.0828;0.7992;-5.1018;
912086743092162;-6.9661;0.9835;-4.2514;
912086753191901;-9.9365;1.3119;-3.6981;
912086763298360;-11.9079;1.2422;-2.8140;
912086773404818;-8.8107;1.2736;-2.4236;
912086783520808;-10.0059;0.8734;-2.2487;
912086793627266;-11.4024;0.2411;-2.0593;
912086803733724;-10.5233;-0.2668;-1.9038;
912086813833203;-9.0957;0.3870;-2.2510;
912086823939662;-8.3794;0.6099;-4.2227;
912086834046120;-9.0766;0.2243;-5.2382;
912086844156641;-8.6836;-0.1089;-4.4357;
912086854263099;-8.0656;-0.7412;-5.3175;
912086864369558;-7.4596;-0.5136;-5.2334;
912086874483151;-9.7089;-0.9257;-4.3663;
912086884589610;-8.2406;-1.2132;-2.6345;
912086894696068;-5.8666;-0.9999;-3.2596;
912086904802891;-8.9614;-1.3807;-4.2347;
912086914909349;-13.3956;-0.7603;-2.5552;
912086925015808;-10.6624;-0.7986;-0.6126;
912086935116016;-6.9422;-0.1137;-0.4089;
912086945222474;-9.1699;-0.2716;-1.2691;
912086955328933;-10.6337;-0.8010;-2.2845;
912086965437995;-8.7123;0.3153;-4.2203;
912086975544453;-6.6858;0.6625;-5.8828;
912086985650912;-11.7547;1.1010;-6.0742;
912086995755808;-13.1465;0.4205;-2.8789;
912087005862266;-8.4153;0.0805;-0.7851;
912087015968724;-3.4208;0.1929;-1.0104;
912087026070808;-8.6596;-0.9233;-3.7507;
912087036177266;-12.4445;-1.1148;-3.5447;
912087046283724;-8.5902;-0.0200;-3.4777;
912087056382995;-9.3138;-0.1137;-1.7336;
912087066489453;-13.7285;0.0494;-0.4161;
912087076595912;-10.1498;0.4493;0.8462;
912087086705703;-7.4524;0.2076;0.8533;
912087096812162;-8.1087;0.9117;-3.3194;
912087106918620;-11.8528;0.4950;-5.5594;
912087117024818;-10.0346;1.4387;-4.9699;
912087127131276;-7.3899;1.5826;-5.3821;
912087137237735;-13.3047;0.8638;-2.9315;
912087147364141;-20.7544;1.2374;1.0666;
912087157470599;4.7288;0.0829;1.2918;
912087167577058;2.4099;-1.0071;-6.4170;
912087177665078;-18.7065;-1.3687;-10.0484;
912087187771537;-20.7688;0.3583;-3.5064;
912087197877995;-5.7900;0.1786;1.4237;
912087207989662;-0.1125;-0.2812;0.6571;
912087218096120;-11.6181;-1.1940;-1.3720;
912087228202578;-14.2149;-0.7579;-3.0655;
912087238312995;-7.7638;0.4588;-5.2935;
912087248419453;-0.8121;-0.2955;-6.0072;
912087258525912;-5.5840;0.5548;-10.0651;
912087268626016;-13.3071;0.0757;-7.8829;
912087278732474;-11.2277;0.6721;-3.8201;
912087288838933;-4.6496;-0.0224;-1.3122;
912087298941849;-7.9340;0.5477;-1.7961;
912087309048308;-11.4625;0.1379;-4.9962;
912087319154766;-14.8543;0.7920;-5.8011;
912087329263412;-9.1771;-0.2405;3.6730;
912087339369870;-1.9786;-0.6024;0.7720;
912087349476328;-12.8184;-0.2788;-5.2214;
912087359575078;-14.2220;0.3918;-3.0751;
912087369681589;-9.9532;0.7104;-1.5350;
912087379788047;-4.6496;0.6003;-1.2138;
912087389890183;-8.6166;-0.6120;-4.5820;
912087399996693;-12.3392;0.5477;-5.0085;
912087410103151;-10.9235;0.7657;-2.4141;
912087420217891;-6.0583;-1.1124;0.2928;
912087430324401;-5.1933;-0.2979;-1.2257;
912087440430860;-10.0155;-1.2682;-4.3974;
912087450600235;-10.7414;-1.3663;-3.3003;
912087460706745;-10.0585;-0.9951;-2.4284;
912087470813203;-6.3721;-0.4202;-2.4667;
912087480837995;-8.6740;0.1714;-4.0047;
912087490944506;-12.7825;-0.0706;-3.0799;
912087501050964;-5.7826;0.2243;-0.8474;
912087511211849;-4.2138;-0.9760;-3.9377;
912087521318360;-15.3407;-0.1424;-7.4566;
912087531424818;-13.2757;0.5524;-1.6666;
912087541490183;-3.7107;1.2422;-1.6881;
912087551596693;-8.4706;0.5118;-2.5816;
912087561703151;-10.9044;0.3105;-3.7819;
912087571820287;-3.7920;0.8423;-3.9111;
912087581926797;-19.8347;-0.0105;-3.6643;
912087592033256;-21.6745;0.1929;1.2823;
912087602158203;5.9889;1.0914;3.8671;
912087612264714;7.6896;-0.9999;-4.9986;
912087622371172;-22.8745;-0.7364;-14.2286;
912087632457683;-29.9869;0.5644;-0.7301;
912087642564193;2.0937;2.3417;3.5821;
912087652670651;1.7512;-0.6263;-2.3303;
912087662775912;-12.8997;-0.4370;-0.3682;
912087672882422;-14.0327;-0.9018;-4.0502;
912087682988881;-4.2951;0.1044;-7.5858;
912087693099349;-3.1860;-0.1615;-6.5438;
912087703205860;-9.5342;-0.4657;-6.1606;
912087713312318;-15.5707;-0.3748;-3.6909;
912087723422266;-13.3884;-1.3567;1.1865;
912087733528776;-10.5736;1.0842;4.7103;
912087743635235;-10.7486;1.4770;-3.6284;
