Sensor: bmi160 Gyroscope Non-wakeup
Vendor: BOSCH
TimestampGyro [ns]; GyroX [rad/s]; GyroY [rad/s]; GyroZ [rad/s]
596376216580743;-0.0842;0.0553;-0.0699;
596376226662097;-0.0842;0.0467;-0.0720;
596376236783295;-0.0863;0.0361;-0.0720;
596376246924909;-0.0852;0.0308;-0.0678;
596376256979805;-0.0863;0.0425;-0.0593;
596376267086316;-0.0947;0.0254;-0.0571;
596376277173243;-0.0905;-0.0246;-0.0624;
596376287310170;-0.0810;-0.0310;-0.0582;
596376297401889;-0.0799;0.0116;-0.0454;
596376307505222;-0.0925;0.0318;-0.0379;
596376317627826;-0.1043;0.0190;-0.0379;
596376327725170;-0.1107;0.0148;-0.0358;
596376337811576;-0.1181;0.0158;-0.0337;
596376347921472;-0.1202;-0.0044;-0.0369;
596376358053764;-0.1064;-0.0140;-0.0305;
596376368135743;-0.1011;0.0137;-0.0177;
596376378257566;-0.1107;0.0254;-0.0166;
596376388381836;-0.1170;-0.0012;-0.0241;
596376398456576;-0.1075;-0.0140;-0.0209;
596376408537878;-0.1000;0.0190;-0.0017;
596376418673711;-0.1107;0.0467;-0.0049;
596376428763711;-0.1234;0.0350;-0.0198;
596376438882149;-0.1192;0.0244;-0.0230;
596376448981836;-0.1192;0.0382;-0.0092;
596376459069336;-0.1394;0.0116;-0.0071;
596376469200274;-0.1799;-0.0630;-0.0198;
596376479289961;-0.1842;-0.0811;-0.0103;
596376489419284;-0.1075;-0.0268;0.0238;
596376499497774;-0.1213;0.0041;0.0377;
596376509610743;-0.1213;0.0105;0.0324;
596376519734701;-0.1437;0.0489;0.0281;
596376529825014;-0.1543;0.0947;0.0313;
596376539935118;-0.1522;0.0766;0.0260;
596376550026211;-0.1703;0.0063;0.0121;
596376560131836;-0.1543;-0.0310;0.0004;
596376570227045;-0.1277;-0.0246;0.0025;
596376580356628;-0.1479;-0.0023;0.0164;
596376590443607;-0.1511;-0.0044;0.0206;
596376600551107;-0.1511;-0.0406;0.0132;
596376610657566;-0.1426;-0.0395;0.0132;
596376620765691;-0.1362;0.0052;0.0196;
596376630860378;-0.1426;0.0254;0.0153;
596376640971628;-0.1447;0.0073;0.0036;
596376651072670;-0.1447;-0.0076;-0.0017;
596376661178920;-0.1383;-0.0055;-0.0007;
596376671283920;-0.1394;0.0137;0.0047;
596376681390847;-0.1458;0.0361;0.0057;
596376691494753;-0.1565;0.0478;0.0047;
596376701592774;-0.1714;0.0308;0.0057;
596376711703086;-0.1831;0.0009;0.0100;
596376721815639;-0.1586;-0.0108;0.0228;
596376731913711;-0.1511;-0.0076;0.0366;
596376742019180;-0.1575;0.0041;0.0515;
596376752126211;-0.1660;0.0158;0.0547;
596376762230066;-0.1756;-0.0161;0.0515;
596376772333607;-0.1692;-0.0502;0.0547;
596376782447045;-0.1597;-0.0353;0.0739;
596376792543191;-0.1714;-0.0108;0.0824;
596376802654753;-0.1916;-0.0310;0.0750;
596376812760378;-0.1842;-0.0640;0.0792;
596376822866524;-0.1682;-0.0555;0.1027;
596376832968711;-0.1575;-0.0172;0.1165;
596376843079753;-0.1458;0.0254;0.1154;
596376853178399;-0.1842;0.0265;0.0995;
596376863284857;-0.2214;0.0020;0.0931;
596376873382357;-0.1895;0.0063;0.1037;
596376883492461;-0.1980;0.0073;0.1091;
596376893591941;-0.1991;-0.0055;0.1016;
596376903701732;-0.2001;0.0084;0.1048;
596376913805170;-0.2150;-0.0012;0.0973;
596376923919597;-0.2150;-0.0459;0.0856;
596376934015691;-0.1905;-0.0310;0.0963;
596376944119441;-0.1916;0.0126;0.1069;
596376954222045;-0.2012;0.0340;0.0973;
596376964332045;-0.2055;0.0499;0.0867;
596376974435899;-0.2097;0.0542;0.0792;
596376984541941;-0.2097;0.0318;0.0760;
596376994648399;-0.2129;-0.0236;0.0739;
596377004750586;-0.1948;-0.0470;0.0750;
596377014856524;-0.1991;-0.0204;0.0803;
596377024946107;-0.2118;-0.0193;0.0664;
596377035075691;-0.2065;-0.0545;0.0558;
596377045171524;-0.1820;-0.0268;0.0643;
596377055275170;-0.1490;0.0265;0.0696;
596377065379753;-0.0692;0.0403;0.0505;
596377075479128;-0.0096;0.0286;0.0302;
596377085584441;0.0128;-0.0033;0.0228;
596377095697461;0.0628;-0.0161;0.0249;
596377105795378;0.1672;-0.0076;0.0281;
596377115957930;0.2386;-0.0182;0.0228;
596377126015586;0.2897;-0.0119;0.0196;
596377136112566;0.3505;0.0244;0.0164;
596377146213711;0.3867;0.0425;0.0079;
596377156348816;0.3995;0.0446;-0.0113;
596377166448034;0.3792;0.0372;-0.0230;
596377176526524;0.3249;0.0361;-0.0284;
596377186635847;0.2407;0.0233;-0.0401;
596377196723659;0.0192;-0.0385;-0.0507;
596377206841003;-0.0746;-0.0225;-0.0646;
596377216943920;0.0021;0.0244;-0.0816;
596377227053503;0.0085;-0.0268;-0.0987;
596377237159076;0.0394;-0.0300;-0.1051;
596377247258607;0.1683;0.0574;-0.0848;
596377257359961;0.2695;0.1117;-0.0806;
596377267471211;0.2429;0.1085;-0.0987;
596377277579961;0.1449;0.0936;-0.1178;
596377287684441;0.0320;0.0862;-0.1317;
596377297780586;-0.1021;0.0329;-0.1434;
596377307897045;-0.1543;0.0137;-0.1530;
596377318034180;-0.1138;0.0425;-0.1594;
596377328121472;-0.1149;0.0308;-0.1679;
596377338212566;-0.1479;-0.0033;-0.1807;
596377348329441;-0.1320;0.0009;-0.1827;
596377358442670;-0.0895;0.0244;-0.1955;
596377368542149;-0.0341;0.0276;-0.1944;
596377378640430;0.0756;0.0521;-0.1838;
596377388714805;0.2439;0.0925;-0.1818;
596377398846211;0.3696;0.0862;-0.1827;
596377408972149;0.4335;0.0521;-0.1743;
596377419048659;0.5378;0.0585;-0.1445;
596377429144180;0.6912;0.0830;-0.1232;
596377439263764;0.7434;0.0286;-0.1072;
596377449350743;0.6955;-0.0715;-0.1115;
596377459480430;0.7359;-0.0704;-0.0965;
596377469600639;0.8457;-0.0246;-0.0816;
596377479690066;0.8947;-0.0459;-0.0731;
596377489777670;0.9405;-0.0406;-0.0454;
596377499886003;1.0630;0.0723;-0.0134;
596377510012878;1.0608;0.1842;-0.0273;
596377520102878;0.7349;0.1778;-0.0838;
596377530195274;0.3494;0.1096;-0.1880;
596377540298920;0.0682;-0.0129;-0.2519;
596377550423711;-0.0341;-0.1375;-0.2541;
596377560534128;0.0096;-0.1013;-0.1965;
596377570626211;-0.0202;0.0201;-0.1605;
596377580748503;-0.0957;0.0627;-0.1944;
596377590832982;-0.0915;0.1107;-0.2317;
596377600945899;-0.0597;0.2001;-0.2519;
596377611048191;-0.1756;0.2001;-0.2839;
596377621156732;-0.2683;0.1234;-0.3286;
596377631248711;-0.1959;0.1085;-0.3435;
596377641367722;-0.0628;0.1362;-0.3531;
596377651465899;-0.0394;0.0851;-0.3553;
596377661568607;-0.0192;0.0233;-0.3627;
596377671673920;0.0916;0.0744;-0.3787;
596377681785274;0.0756;0.0744;-0.4149;
596377691883295;0.1332;0.0457;-0.4469;
596377701978868;0.2035;0.0403;-0.4320;
596377712126784;0.2748;0.0755;-0.4256;
596377722211420;0.3600;0.1107;-0.4330;
596377732306680;0.3920;0.0776;-0.4224;
596377742416264;0.4911;0.0691;-0.3893;
596377752518295;0.7029;0.1085;-0.3499;
596377762641993;0.9245;0.1160;-0.3286;
596377772739128;1.0971;0.0798;-0.2892;
596377782852045;1.2972;0.0531;-0.2264;
596377792940066;1.5113;0.0766;-0.1583;
596377803051107;1.7508;0.0638;-0.1072;
596377813151941;2.0118;0.0329;-0.0507;
596377823259441;2.2781;0.0542;0.0206;
596377833359128;2.5677;0.0744;0.0877;
596377843461576;2.8383;0.0680;0.1751;
596377853572982;3.0555;0.0542;0.3061;
596377863671003;3.1908;0.0403;0.3764;
596377873774961;3.1886;0.1064;0.3892;
596377883885378;3.1173;0.1405;0.4041;
596377893994441;2.9980;0.1138;0.4562;
596377904090795;2.8074;0.1341;0.5233;
596377914197045;2.5720;0.2044;0.5286;
596377924292618;2.3197;0.2353;0.5222;
596377934408920;2.0619;0.2055;0.5297;
596377944509389;1.7243;0.1767;0.5403;
596377954613920;1.2983;0.2118;0.4945;
596377964727253;0.8521;0.2129;0.4647;
596377974824128;0.4506;0.1330;0.4700;
596377984931836;0.2983;0.0606;0.4359;
596377995046993;0.0064;0.1096;0.3722;
596378005159909;-0.2672;0.1021;0.3445;
596378015264493;-0.4036;0.0542;0.3466;
596378025339232;-0.5921;0.0510;0.2859;
596378035462878;-0.7486;0.0105;0.2209;
596378045564701;-0.8338;0.0148;0.1762;
596378055664753;-0.9094;0.0169;0.1527;
596378065769441;-0.9904;-0.0140;0.1559;
596378075905847;-1.0234;0.0190;0.1378;
596378085984961;-1.0032;0.0553;0.1048;
596378096087670;-1.0011;0.0574;0.0590;
596378106190586;-0.9744;0.0276;0.0601;
596378116268295;-0.9382;-0.0172;0.0547;
596378126404128;-0.9425;-0.0119;0.0462;
596378136508711;-0.8466;-0.0129;0.0569;
596378146627097;-0.7262;-0.0907;0.0494;
596378156724441;-0.7017;-0.1130;0.0419;
596378166834597;-0.6316;-0.0800;0.0622;
596378176917514;-0.5538;-0.0672;0.0611;
596378187027930;-0.5719;-0.0545;0.0515;
596378197108868;-0.5282;0.0041;0.0558;
596378207236420;-0.5133;0.0222;0.0398;
596378217344336;-0.5495;-0.0310;0.0664;
596378227445586;-0.5325;-0.0395;0.0601;
596378237569545;-0.6039;-0.0193;0.0387;
596378247661055;-0.6070;0.0340;0.0558;
596378257750066;-0.6262;0.0297;0.0611;
596378267862514;-0.7230;-0.1024;0.0462;
596378277963503;-0.6880;-0.0885;0.0217;
596378288085118;-0.6816;0.0766;0.0217;
596378298192774;-0.7209;0.0574;0.0398;
596378308300378;-0.7667;-0.0342;0.0174;
596378318411159;-0.7742;-0.0161;-0.0071;
596378328518764;-0.8040;0.0084;0.0036;
596378338626420;-0.9201;0.0446;0.0142;
596378348714024;-0.9148;0.0041;-0.0103;
596378358821628;-1.0085;0.0414;-0.0379;
596378368929284;-1.1268;0.0553;-0.0678;
596378379020743;-1.2343;0.0425;-0.1562;
596378389128347;-1.2674;0.0318;-0.2083;
596378399236055;-1.3237;-0.0044;-0.2445;
596378409329180;-1.2993;0.0340;-0.2306;
596378419436784;-1.2993;0.0627;-0.2498;
596378429544441;-1.3098;0.0137;-0.2732;
596378439639701;-1.2120;0.0276;-0.3126;
596378449747305;-1.0639;0.0766;-0.3180;
596378459854961;-0.9521;0.0276;-0.3361;
596378469979909;-0.7774;0.0041;-0.3137;
596378480087514;-0.5208;0.0329;-0.3041;
596378490195170;-0.3450;0.0286;-0.2828;
596378500283711;-0.2672;0.0031;-0.2881;
596378510391316;-0.1618;0.0393;-0.2541;
596378520498972;0.0224;0.0265;-0.2519;
596378530595951;0.1278;0.0297;-0.2189;
596378540703555;0.2503;0.0606;-0.1869;
596378550811211;0.3494;0.0744;-0.1232;
596378560915014;0.4591;0.0382;-0.0976;
596378571022618;0.5028;0.0382;-0.0582;
596378581130274;0.5410;0.0723;-0.0529;
596378591227618;0.5580;0.0244;0.0100;
596378601335222;0.5602;0.0137;0.0228;
596378611442878;0.5900;0.0478;0.1122;
596378621544805;0.4687;0.0265;0.1240;
596378631652409;0.3387;-0.0800;0.1581;
596378641760066;0.2642;-0.0651;0.1314;
596378651861941;0.1044;-0.0001;0.1506;
596378661969545;-0.0820;-0.0321;0.1666;
596378672077201;-0.1490;-0.0481;0.2007;
596378682178555;-0.2427;-0.0875;0.2198;
596378692286159;-0.3344;-0.1397;0.1868;
596378702393816;-0.3919;-0.0491;0.2156;
596378712487305;-0.4803;-0.0374;0.2113;
596378722594909;-0.4984;-0.0609;0.2316;
596378732702566;-0.5740;-0.1003;0.2113;
596378742808034;-0.6209;-0.1194;0.2028;
596378752915639;-0.6731;-0.1120;0.1698;
596378763023295;-0.6987;-0.1173;0.1655;
596378773131420;-0.6827;-0.0640;0.1570;
596378783239076;-0.6859;-0.0609;0.1304;
596378793346680;-0.6976;-0.0811;0.1069;
596378803449180;-0.6688;-0.0577;0.0537;
596378813556784;-0.6358;-0.0161;0.0537;
596378823664441;-0.5857;0.0254;-0.0049;
596378833742097;-0.5293;0.0510;-0.0305;
596378843849701;-0.4824;0.0478;-0.0166;
596378853957357;-0.4398;0.0063;-0.0188;
596378864062722;-0.3589;-0.0119;-0.0198;
596378874170326;-0.3269;-0.0033;-0.0475;
596378884277982;-0.3322;-0.0087;-0.0230;
596378894379284;-0.3120;-0.0236;-0.0348;
596378904486889;-0.3695;-0.1152;-0.0166;
596378914594545;-0.3226;-0.0971;-0.0188;
596378924692305;-0.3834;-0.1237;-0.0475;
596378934799909;-0.3407;-0.0523;-0.0262;
596378944907566;-0.3397;0.0318;-0.0007;
596378955008451;-0.3535;0.0137;-0.0007;
596378965116055;-0.3652;-0.0044;0.0174;
596378975223711;-0.3663;0.0031;0.0057;
596378985325951;-0.3887;0.0233;0.0015;
596378995433555;-0.3908;0.1000;0.0004;
596379005541211;-0.4004;0.2140;0.0004;
596379015651680;-0.4036;0.1959;0.0068;
596379025759336;-0.3983;0.1011;-0.0103;
596379035866941;-0.4025;0.0531;-0.0561;
596379045951368;-0.4142;0.0393;-0.0731;
596379056058972;-0.4366;0.0680;-0.0603;
596379066166628;-0.4249;0.0840;-0.0848;
596379076251107;-0.4632;0.0297;-0.0742;
596379086358711;-0.4739;0.0031;-0.0976;
596379096466316;-0.4238;0.0105;-0.1200;
596379106585326;-0.3940;0.0350;-0.1605;
596379116692930;-0.3695;0.0755;-0.1530;
596379126800586;-0.3620;0.1032;-0.1551;
596379136899076;-0.3663;0.1096;-0.1519;
596379147006680;-0.3482;0.0798;-0.1754;
596379157114389;-0.3024;0.0617;-0.1658;
596379167196993;-0.2992;0.0574;-0.1626;
596379177304649;-0.3035;0.0702;-0.1636;
596379187412253;-0.2768;0.0851;-0.1700;
596379197542305;-0.2374;0.0883;-0.1647;
596379207649909;-0.2417;0.1298;-0.1519;
596379217757566;-0.2822;0.0329;-0.1455;
596379227831368;-0.3013;-0.0672;-0.1615;
596379237938972;-0.3024;-0.0534;-0.1838;
596379248046628;-0.3418;0.0052;-0.2594;
596379258145222;-0.3322;0.0286;-0.2754;
596379268252878;-0.2736;0.1032;-0.2157;
596379278360482;-0.2683;0.0425;-0.2083;
596379288463659;-0.2182;0.0158;-0.2328;
596379298569024;-0.1522;0.0915;-0.2232;
596379308674441;-0.2012;0.0521;-0.2072;
596379318799076;-0.1842;-0.0055;-0.1573;
596379328904441;-0.1543;-0.0225;-0.1423;
596379339009857;-0.1437;-0.0204;-0.1242;
596379349099597;-0.1607;-0.0268;-0.1093;
596379359204961;-0.1181;0.0105;-0.0901;
596379369310378;-0.0671;0.0201;-0.0827;
596379379436368;-0.0650;0.0201;-0.0763;
596379389541732;-0.0107;0.0095;-0.0401;
596379399647149;0.0213;-0.0012;-0.0166;
596379409713034;0.1023;0.0393;0.0185;
596379419818399;0.0799;-0.0097;0.0505;
596379429923816;0.0426;-0.0129;0.0292;
596379440038243;0.0905;0.0308;0.0153;
596379450143607;0.1374;0.0489;0.0451;
596379460249024;0.0778;0.0222;0.0632;
596379470352201;0.0501;0.0318;0.0526;
596379480457566;0.0149;0.0073;0.0185;
596379490562982;0.0107;0.0414;0.0537;
596379500692514;0.0128;0.0979;0.0515;
596379510797878;-0.0256;0.0574;0.0590;
596379520903295;-0.0511;0.0403;0.0494;
596379531000118;0.0075;0.1160;0.0462;
596379541105482;0.0586;0.1085;0.0728;
596379551210899;-0.0682;-0.0087;0.0984;
596379561307618;-0.1192;-0.0044;0.0909;
596379571412982;-0.0756;0.0393;0.0877;
596379581518399;-0.0756;0.0691;0.0899;
596379591632045;-0.1138;0.0606;0.0941;
596379601737409;-0.1117;0.0702;0.0952;
596379611842826;-0.0799;0.1160;0.1016;
596379621943555;-0.1373;0.1032;0.0814;
596379632048920;-0.1714;0.0265;0.0675;
596379642154336;-0.1405;0.0915;0.0675;
596379652249284;-0.1170;0.1043;0.0611;
596379662354649;-0.1554;0.1000;0.0462;
596379672460066;-0.1884;0.1202;0.0537;
596379682568868;-0.1937;0.0776;0.0792;
596379692674232;-0.2385;0.0169;0.0973;
596379702779649;-0.2651;0.0116;0.0579;
596379712883034;-0.2363;-0.0268;0.0888;
596379722988399;-0.1948;0.0222;0.1240;
596379733093816;-0.1192;0.1309;0.1101;
596379743193868;-0.1671;0.1660;0.1091;
596379753299232;-0.2332;0.1011;0.1336;
596379763404649;-0.3312;0.0126;0.1687;
596379773523139;-0.3237;0.0212;0.1655;
596379783628503;-0.3237;0.0105;0.1431;
596379793733920;-0.4387;-0.0523;0.1474;
596379803831889;-0.4909;-0.0257;0.1804;
596379813937253;-0.5399;-0.0065;0.1421;
596379824042670;-0.5644;-0.0395;0.1112;
596379834125430;-0.6486;-0.0704;0.0814;
596379844230795;-0.6592;-0.0374;0.0622;
596379854336211;-0.6252;-0.0065;0.0526;
596379864450326;-0.5911;0.0403;0.0281;
596379874555691;-0.5442;0.0659;0.0238;
596379884661107;-0.5122;0.0691;0.0228;
596379894769389;-0.4547;0.0979;-0.0262;
596379904874753;-0.4281;0.0606;-0.0465;
596379914980170;-0.4995;0.0063;-0.0401;
596379925100639;-0.5059;-0.0182;-0.0848;
596379935206003;-0.3620;0.0947;-0.0880;
596379945311420;-0.2747;0.1980;-0.0955;
596379955405743;-0.2619;0.1937;-0.0710;
596379965511107;-0.2928;0.1266;-0.0614;
596379975616524;-0.3354;0.0723;-0.0667;
596379985725795;-0.3695;0.0521;-0.0827;
596379995831159;-0.3461;0.0340;-0.1051;
596380005936576;-0.3098;0.0734;-0.1115;
596380016043191;-0.3226;0.0968;-0.1051;
596380026148555;-0.3684;0.0638;-0.1051;
596380036253972;-0.3493;0.0585;-0.1445;
596380046344076;-0.3770;0.0542;-0.1754;
596380056449441;-0.4025;0.0638;-0.1965;
596380066554857;-0.5304;-0.0406;-0.1807;
596380076662722;-0.5240;0.0190;-0.2296;
596380086768086;-0.3812;0.1778;-0.2849;
596380096873503;-0.4451;0.0904;-0.3084;
596380106975430;-0.6497;0.0052;-0.3276;
596380117080795;-0.7347;-0.0055;-0.3659;
596380127186211;-0.5410;0.0766;-0.3744;
596380137286993;-0.4174;0.0521;-0.3734;
596380147392357;-0.3908;0.0489;-0.3851;
596380157497774;-0.3812;0.0798;-0.3435;
596380167605430;-0.3578;0.0126;-0.3510;
596380177710795;-0.3375;-0.0619;-0.3712;
596380187816211;-0.1916;0.0425;-0.3680;
596380197945639;-0.0043;0.1000;-0.3446;
596380208051003;0.0916;0.0478;-0.3318;
596380218156368;0.1161;0.0340;-0.3403;
596380228228191;0.1843;0.0670;-0.2967;
596380238333607;0.1449;0.0499;-0.2828;
596380248439024;0.1097;0.0606;-0.2647;
596380258547514;0.0703;0.0020;-0.2604;
596380268652878;0.0682;-0.0129;-0.2477;
596380278758295;0.0575;-0.0395;-0.2029;
596380288862045;0.1129;-0.0353;-0.1519;
596380298967149;0.2514;0.0403;-0.1221;
596380309072253;0.3036;0.0542;-0.0976;
596380319156941;0.2461;0.0190;-0.0443;
596380329262097;0.2546;0.0425;-0.0028;
596380339367201;0.2652;0.0393;0.0292;
596380349498607;0.2205;-0.0119;0.0537;
596380359603711;0.2333;0.0265;0.0728;
596380369708868;0.3142;0.0478;0.1048;
596380379826055;0.1736;-0.0172;0.1027;
596380389931159;0.0383;-0.0246;0.0984;
596380400036316;-0.0234;-0.0406;0.0899;
596380410134232;-0.0213;-0.0470;0.1016;
596380420239336;-0.0607;-0.0385;0.1016;
596380430344493;-0.1032;-0.0587;0.1037;
596380440437045;-0.1075;-0.0321;0.0995;
596380450542201;-0.1831;-0.0395;0.0973;
596380460647305;-0.3599;-0.1067;0.0451;
596380470740118;-0.3940;-0.0885;0.0249;
596380480845222;-0.3482;-0.0438;-0.0124;
596380490950326;-0.3098;-0.0534;-0.0624;
596380501082618;-0.3141;-0.0289;-0.0944;
596380511187722;-0.3162;0.0340;-0.1221;
596380521292826;-0.3216;-0.0097;-0.1285;
596380531393503;-0.2747;-0.0640;-0.1306;
596380541498607;-0.1447;-0.0342;-0.1690;
596380551603764;-0.0947;-0.0822;-0.2008;
596380561698191;-0.0692;-0.0491;-0.1859;
596380571803295;-0.0096;0.0158;-0.1668;
596380581908451;0.0692;0.0233;-0.1530;
596380592013086;0.1129;0.0276;-0.1296;
596380602118191;0.1587;0.0095;-0.1306;
596380612223347;0.2312;0.0095;-0.0795;
596380622334336;0.2312;0.0233;-0.0262;
596380632439441;0.2386;-0.0236;-0.0177;
596380642544597;0.2865;-0.0534;-0.0156;
596380652647982;0.3047;-0.0257;0.0004;
596380662753086;0.1875;-0.0119;0.0302;
596380672858243;0.0714;-0.0395;0.0462;
596380682969024;0.0298;-0.0076;0.0387;
596380693074128;-0.0128;-0.0172;0.0206;
596380703179284;-0.0735;-0.0065;0.0174;
596380713270066;-0.1266;0.0819;0.0441;
596380723375170;-0.2417;0.0393;0.0803;
596380733480326;-0.3610;0.0116;0.0419;
596380743595274;-0.3663;0.0318;0.0185;
596380753700430;-0.5453;-0.1951;0.0292;
596380763805534;-0.4590;-0.2355;0.0100;
596380773922982;-0.1415;0.0563;-0.0369;
596380784028086;-0.1405;0.2406;-0.0614;
596380794133243;-0.2481;0.2385;-0.1040;
596380804232774;-0.3077;0.1511;-0.0571;
596380814337878;-0.3312;0.0893;-0.0390;
596380824443034;-0.2172;0.0361;-0.0571;
596380834560378;-0.1756;-0.0470;-0.0678;
596380844665482;-0.1117;-0.0854;-0.0603;
596380854770586;-0.0458;-0.0182;-0.0411;
596380864854857;-0.0021;-0.0822;-0.0284;
596380874959961;-0.0362;-0.1663;0.0164;
596380885065118;-0.0043;-0.0896;0.0111;
596380895165586;0.0778;-0.0406;-0.0017;
596380905270691;-0.0011;-0.0949;0.0462;
596380915375847;0.0330;0.1043;0.0569;
596380925504180;0.0969;0.2268;0.0345;
596380935609336;-0.1479;-0.0555;-0.0039;
596380945714441;-0.2172;-0.1301;0.0185;
596380955813191;-0.1085;-0.0182;0.0228;
596380965918295;-0.0373;-0.0033;0.0228;
596380976023451;-0.0842;-0.0001;-0.0081;
596380986105014;-0.0925;-0.0001;-0.0124;
596380996210118;-0.0703;0.0350;0.0260;
596381006315222;-0.0682;0.0095;0.0696;
596381016419128;-0.1053;-0.0587;0.0803;
596381026524232;-0.0884;-0.0438;0.0899;
596381036629336;0.1076;0.0393;0.2113;
596381046736003;-0.1352;0.1085;0.1549;
596381056841107;-0.3248;0.0244;0.1144;
596381066946264;-0.3013;-0.0949;0.1069;
596381077053711;-0.2779;-0.0715;0.0632;
596381087158816;-0.3450;0.0595;0.0494;
596381097263920;-0.5346;0.0915;-0.0039;
596381107372253;-0.5889;0.0126;0.0036;
596381117477409;-0.6337;0.0063;-0.0337;
596381127582514;-0.6731;0.0041;-0.1370;
596381137676055;-0.6923;-0.0811;-0.1690;
596381147781159;-0.7347;-0.0470;-0.1955;
596381157886264;-0.6614;0.0457;-0.2338;
596381168009701;-0.6688;0.0680;-0.2604;
596381178114805;-0.6049;0.1043;-0.2849;
596381188219909;-0.5431;0.1032;-0.2658;
596381198328086;-0.4579;0.0457;-0.2573;
596381208433191;-0.3535;0.0286;-0.2775;
596381218538347;-0.2417;0.0190;-0.3318;
596381228602409;-0.1831;-0.0150;-0.3542;
596381238707514;-0.0607;0.0063;-0.2956;
596381248812618;-0.0522;-0.0214;-0.2711;
596381258933607;-0.0756;-0.1130;-0.3116;
596381269038711;0.1342;0.0244;-0.3798;
596381279143868;0.1822;0.1937;-0.3403;
596381289271316;0.1459;0.2597;-0.3020;
596381299376472;0.2322;0.2300;-0.2679;
596381309481628;0.3121;0.2278;-0.2551;
596381319573191;0.3590;0.2023;-0.2072;
596381329678347;0.3782;0.0776;-0.1530;
596381339783503;0.4676;-0.0108;-0.0933;
596381349896941;0.5836;-0.0811;-0.0422;
596381360002097;0.6710;-0.0800;-0.0156;
596381370107253;0.6443;0.0148;-0.0305;
596381380214545;0.4996;0.0627;0.0164;
596381390319701;0.3835;0.0425;0.0952;
596381400424857;0.3142;0.0350;0.1122;
596381410539805;0.2535;0.0126;0.0803;
596381420644961;0.1161;0.0201;0.0643;
596381430750118;0.0128;-0.0172;0.0995;
596381440828555;-0.1309;-0.1759;0.1186;
596381450933659;-0.1969;-0.1780;0.1048;
596381461038816;-0.2513;-0.1290;0.0601;
596381471144128;-0.3226;-0.1738;0.0462;
596381481249232;-0.3759;-0.1418;0.0664;
596381491354389;-0.3951;-0.1354;0.0728;
596381501491732;-0.3919;-0.1258;0.0228;
596381511596889;-0.2768;-0.0257;-0.0390;
596381521702045;-0.2640;0.0212;-0.0454;
596381531781941;-0.3162;-0.0076;-0.0188;
596381541887097;-0.2459;-0.0587;-0.0060;
596381551992253;-0.1543;-0.0768;-0.0305;
596381562090170;-0.0895;-0.0672;-0.0305;
596381572195326;-0.0597;-0.0278;-0.0071;
596381582300482;-0.0117;-0.0193;-0.0166;
596381592402982;0.0543;-0.0523;0.0089;
596381602508139;0.0735;-0.0385;0.0217;
596381612613295;0.1172;-0.0204;0.0483;
596381622723399;0.1534;0.0308;0.0814;
596381632828555;0.1555;0.0276;0.1080;
596381642933711;0.1534;-0.0427;0.1304;
596381653045066;0.1161;-0.0236;0.1165;
596381663150222;0.1470;0.0648;0.0877;
596381673255378;0.0756;0.0947;0.1133;
596381683361836;-0.0075;0.0414;0.1293;
596381693466993;-0.0213;0.0414;0.1304;
596381703572149;-0.0607;0.0521;0.1122;
596381713671211;-0.1085;0.0329;0.1005;
596381723776368;-0.1682;0.0201;0.1144;
596381733881524;-0.1597;0.0084;0.1293;
596381743983920;-0.1895;0.0382;0.1165;
596381754089076;-0.2246;0.0702;0.0952;
596381764194232;-0.2577;0.0563;0.1005;
596381774279389;-0.2811;0.0521;0.1048;
596381784384441;-0.3035;0.0361;0.1101;
596381794489545;-0.3248;-0.0278;0.1080;
596381804594701;-0.3216;0.0116;0.0260;
596381814722826;-0.3077;0.0744;-0.0007;
596381824827982;-0.4334;0.0798;0.0089;
596381834933139;-0.4973;0.0254;-0.0294;
596381845043503;-0.3844;0.0318;-0.0486;
596381855148659;-0.4100;0.0734;-0.0763;
596381865253816;-0.4164;0.0489;-0.0987;
596381875350586;-0.4025;0.0212;-0.0848;
596381885455743;-0.3365;0.0531;-0.0838;
596381895560899;-0.2342;0.0648;-0.0774;
596381905664649;-0.2459;0.0308;-0.0816;
596381915769857;-0.1959;-0.0023;-0.0784;
596381925874961;-0.1543;0.0297;-0.0699;
596381935974961;-0.1330;0.0691;-0.1221;
596381946080118;-0.0394;0.0617;-0.0838;
596381956185274;-0.0479;0.0574;-0.0358;
596381966289545;0.0011;0.0691;-0.0220;
596381976394701;-0.0117;0.0254;-0.0220;
596381986499857;0.0064;-0.0427;-0.0284;
596381996605170;0.0799;-0.0257;-0.0198;
596382006710326;0.0213;-0.0310;-0.0103;
596382016815482;-0.0224;-0.0758;0.0292;
596382026930482;-0.0011;-0.0502;0.0771;
596382037035639;-0.0149;-0.0236;0.0569;
596382047140795;-0.1149;-0.0289;0.1059;
596382057238711;-0.1586;-0.0140;0.0856;
596382067343868;-0.1362;0.0457;0.0782;
596382077449024;-0.1916;0.0542;0.0824;
596382087554076;-0.1905;-0.0023;0.0952;
596382097659232;-0.2310;-0.0459;0.0750;
596382107764389;-0.2342;0.0073;0.0632;
596382117882774;-0.2683;0.0446;0.0451;
596382127987930;-0.2885;-0.0055;0.0409;
596382138093086;-0.2971;-0.0129;0.0111;
596382148174024;-0.1980;0.0680;0.0164;
596382158279180;-0.2917;0.0915;0.0292;
596382168384336;-0.3759;-0.0182;0.0057;
596382178498503;-0.2608;0.0126;0.0249;
596382188603659;-0.1937;0.1075;-0.0049;
596382198708816;-0.2694;0.0393;0.0089;
596382208777826;-0.2875;-0.0332;0.0664;
596382218882930;-0.2726;-0.0332;0.0579;
596382228988086;-0.2118;-0.0065;0.0196;
596382239112253;-0.2758;-0.0449;0.0196;
596382249217409;-0.3088;-0.0758;-0.0273;
596382259322566;-0.2193;0.0265;-0.0284;
596382269466211;-0.2704;0.1138;-0.0337;
596382279571368;-0.3312;0.0116;-0.0624;
596382289676524;-0.2949;-0.0364;-0.0869;
596382299743816;-0.2023;0.0435;-0.0976;
596382309848659;-0.2758;-0.0172;-0.0848;
596382319953503;-0.2395;-0.0832;-0.0923;
596382330080066;-0.1756;-0.0577;-0.1083;
596382340184909;-0.1394;0.0670;-0.1040;
596382350289701;-0.1671;0.0052;-0.0742;
596382360414753;-0.1479;-0.1077;-0.0593;
596382370519597;-0.0831;-0.0087;-0.0550;
596382380624389;-0.0447;0.1160;-0.0518;
596382390693191;-0.0660;0.1053;-0.0443;
596382400798034;-0.1277;0.0659;-0.0944;
596382410902826;-0.0852;0.1064;-0.1093;
596382421012566;-0.1277;0.1277;-0.0827;
596382431117409;-0.1597;0.0606;-0.0305;
596382441222253;-0.1501;0.0095;-0.0486;
596382451322982;-0.1096;0.0254;-0.0880;
596382461427826;-0.1202;0.0105;-0.0944;
596382471532670;-0.1575;0.0180;-0.0752;
596382481646993;-0.1554;-0.0023;-0.0475;
596382491751836;-0.1437;-0.0033;-0.0678;
596382501856576;-0.1277;0.0680;-0.0656;
596382511953503;-0.1671;0.0297;-0.0561;
596382522058399;-0.1767;0.0265;-0.0156;
596382532163191;-0.1469;0.0691;-0.0454;
596382542277461;-0.2140;-0.0747;-0.0507;
596382552382305;-0.2545;-0.1397;-0.0891;
596382562487097;-0.2172;0.0595;-0.1487;
596382572591628;-0.2374;0.2533;-0.1402;
596382582696472;-0.2076;0.3268;-0.1413;
596382592801264;-0.2353;0.1927;-0.1583;
596382602902305;-0.2843;0.0553;-0.1360;
596382613007149;-0.1810;0.0489;-0.1370;
596382623111941;-0.1469;-0.0097;-0.1242;
596382633219597;-0.1149;-0.0811;-0.0838;
596382643324441;-0.0607;-0.0736;-0.0976;
596382653429232;0.0756;-0.0310;-0.1029;
596382663545743;0.0980;-0.0246;-0.0944;
596382673650586;0.0064;-0.0598;-0.0539;
596382683755378;-0.0671;-0.0534;-0.0497;
596382693853711;-0.0288;0.0521;-0.0646;
596382703958503;-0.0405;0.1021;-0.1178;
596382714063347;-0.0330;0.1756;-0.0987;
596382724166368;-0.1117;0.1980;-0.0379;
596382734271211;-0.2001;-0.0065;-0.0678;
596382744376003;-0.2630;-0.2015;-0.1338;
596382754490586;-0.2161;-0.1312;-0.1987;
596382764595430;-0.1107;-0.0513;-0.2093;
596382774700222;-0.1234;-0.0502;-0.1636;
596382784810847;-0.0586;0.0489;-0.1509;
596382794915691;-0.0341;0.1202;-0.1296;
596382805020482;-0.0266;0.1341;-0.1242;
596382815127618;0.0149;0.1107;-0.0742;
596382825232461;0.0128;0.0883;-0.0624;
596382835337201;0.0756;0.0712;-0.0443;
596382845433034;0.0320;-0.0033;-0.0294;
596382855537826;0.0043;-0.0427;-0.0497;
596382865642670;0.0714;0.0105;-0.0614;
596382875746472;-0.0117;-0.0119;-0.0486;
596382885851316;-0.1479;-0.0758;-0.0124;
596382895956107;-0.1415;-0.0300;-0.0529;
596382906054076;-0.1192;0.0126;-0.0997;
596382916158868;-0.1586;0.0808;-0.1178;
596382926263711;-0.1735;0.1565;-0.1466;
596382936367409;-0.1682;0.1415;-0.1317;
596382946472253;-0.1000;0.1479;-0.1285;
596382956577045;-0.1138;0.0744;-0.1264;
596382966707826;-0.0957;-0.0044;-0.1019;
596382976812670;-0.0362;0.0041;-0.0944;
596382986917461;0.0128;-0.0140;-0.0933;
596382996980899;0.0011;-0.0747;-0.0742;
596383007085795;-0.0011;-0.1290;-0.0582;
596383017190586;0.0565;-0.1088;-0.0731;
596383027304336;0.2599;0.0190;-0.0571;
596383037409180;0.2578;-0.0055;-0.0486;
596383047514024;0.0277;-0.1258;-0.0220;
596383057621941;0.0053;-0.0651;-0.0316;
596383067726784;0.0682;-0.0257;-0.0582;
596383077831576;0.0320;-0.0236;-0.0614;
596383087951993;-0.0778;-0.0055;-0.1008;
596383098056784;-0.0607;-0.0076;-0.0944;
596383108161628;-0.0682;0.0169;-0.0678;
596383118273139;-0.0756;0.0787;-0.0731;
596383128377930;-0.0373;0.0478;-0.0838;
596383138482774;-0.0021;-0.0044;-0.0507;
596383148556784;0.0426;-0.0449;-0.0028;
596383158661628;0.1118;-0.0459;-0.0166;
596383168766368;0.1662;-0.0395;-0.0475;
596383178900118;0.2003;-0.0289;-0.0518;
596383189004909;0.2035;0.0190;-0.0071;
596383199109753;0.1843;0.0904;0.0164;
596383209193503;0.1427;0.0585;0.0238;
596383219298347;0.0501;-0.0385;-0.0049;
596383229403139;0.1225;0.0382;0.0079;
596383239541107;0.0565;0.0947;-0.0007;
596383249645951;0.0128;0.0457;0.0036;
596383259750743;-0.0053;0.0585;0.0036;
596383269846941;-0.0352;-0.0374;-0.0113;
596383279951784;-0.0692;-0.0491;-0.0284;
596383290056576;-0.0714;-0.0609;-0.0092;
596383300195743;-0.0383;-0.1226;0.0100;
596383310301211;-0.0021;-0.0395;0.0228;
596383320406628;0.0160;0.0478;-0.0486;
596383330487201;-0.0213;-0.0033;-0.0486;
596383340592618;-0.0426;0.0212;-0.0571;
596383350698034;0.0426;0.0925;-0.0358;
596383360777514;-0.0107;0.0904;-0.0486;
596383370882930;0.0149;0.0116;-0.0411;
596383380988347;-0.0352;-0.0555;-0.0284;
596383391085847;-0.0064;-0.0364;-0.0667;
596383401191264;0.0096;-0.0310;-0.0646;
596383411296680;0.0021;-0.0332;-0.0326;
596383421408451;-0.0202;0.0041;-0.0422;
596383431513868;0.0075;0.0169;-0.0433;
596383441619284;-0.0565;0.0073;-0.0550;
596383451721472;-0.0085;0.0233;-0.0720;
596383461826889;-0.0383;0.0031;-0.0422;
596383471932305;-0.0064;0.0095;-0.0337;
596383482038659;0.0373;-0.0129;-0.0134;
596383492144076;0.0128;-0.0545;0.0015;
596383502249493;-0.0064;-0.0417;-0.0688;
596383512358451;0.0234;0.0212;-0.0816;
596383522463868;-0.0107;0.0340;-0.0401;
596383532569284;-0.0288;-0.0204;-0.0273;
596383542668972;-0.0234;-0.0481;-0.0411;
596383552774389;0.0032;0.0297;-0.0305;
596383562879805;0.0309;0.1053;-0.0241;
596383572984701;-0.0128;0.0691;-0.0188;
596383583090118;-0.0245;0.0105;-0.0401;
596383593195534;-0.0224;0.0073;-0.0379;
596383603303243;-0.0224;0.0244;0.0153;
596383613408659;-0.0075;-0.0268;0.0313;
596383623514076;-0.0011;-0.0555;0.0494;
596383633632201;0.0224;0.0009;0.0409;
596383643737618;0.0735;0.0063;0.0579;
596383653843034;-0.0469;-0.0353;0.0366;
596383663923555;-0.0298;0.0116;0.0356;
596383674028972;-0.0266;0.0542;0.0611;
596383684134389;-0.0756;0.0435;0.0494;
596383694245430;-0.1032;0.0180;0.0377;
596383704350847;-0.1352;-0.0598;0.0324;
596383714456264;-0.1554;-0.0438;0.0526;
596383724581784;-0.2257;-0.0992;0.0707;
596383734687201;-0.2545;-0.1205;0.0142;
596383744792618;-0.2758;-0.1003;-0.0305;
596383754879597;-0.3067;-0.0949;-0.0422;
596383764985014;-0.3173;-0.0481;-0.0092;
596383775090430;-0.3748;-0.0055;-0.0103;
596383785202878;-0.3599;-0.0055;-0.0646;
596383795308295;-0.2747;0.0457;-0.0635;
596383805413711;-0.3216;0.0563;-0.0624;
596383815500639;-0.3429;-0.0502;-0.0667;
596383825606055;-0.3098;-0.0055;-0.1125;
596383835711472;-0.2555;0.0819;-0.1530;
596383845822461;-0.2949;-0.0119;-0.1487;
596383855927878;-0.2736;-0.0449;-0.1445;
596383866033295;-0.2438;-0.0502;-0.1562;
596383876131472;-0.1937;-0.0726;-0.1880;
596383886236889;-0.1096;0.0116;-0.2114;
596383896342305;-0.0565;0.0851;-0.2008;
596383906442618;0.0128;0.0553;-0.1818;
596383916548034;0.0799;0.0382;-0.1658;
596383926653451;0.1300;0.0776;-0.1445;
596383936759909;0.2386;0.1341;-0.1189;
596383946865326;0.2301;0.0340;-0.0976;
596383956970743;0.1885;-0.0353;-0.0944;
596383967082930;0.2599;-0.0108;-0.0561;
596383977188347;0.2663;-0.0459;-0.0656;
596383987293764;0.3079;-0.0747;-0.0614;
596383997413243;0.3558;-0.0001;0.0121;
596384007518659;0.2599;0.0382;0.0473;
596384017624076;0.1864;0.0265;0.0142;
596384027719961;0.1992;0.0659;0.0015;
596384037825378;0.1236;0.1437;-0.0017;
596384047930795;-0.0096;0.1437;-0.0124;
596384058026368;0.0064;0.0563;0.0025;
596384068131784;-0.0053;-0.0321;0.0473;
596384078237201;-0.0085;-0.1109;0.0515;
596384088381368;-0.0117;-0.1897;0.0356;
596384098486784;-0.0138;-0.1461;0.0345;
596384108592201;-0.0628;-0.0928;0.0206;
596384118654389;-0.1192;-0.1610;0.0281;
596384128759805;-0.1170;-0.1354;0.0079;
596384138865222;-0.1362;-0.0385;-0.0166;
596384148993034;-0.2023;-0.0364;-0.0710;
596384159098451;-0.1383;0.0105;-0.0688;
596384169203868;-0.0352;0.0936;-0.0443;
596384179263139;-0.0501;0.1181;-0.0390;
596384189368555;-0.0138;0.0883;-0.1200;
596384199473972;0.0149;0.0158;-0.1498;
596384209620326;-0.0245;-0.0459;-0.1051;
596384219725743;-0.0277;-0.0939;-0.0933;
596384229831159;-0.0021;-0.1684;-0.1093;
596384239906628;0.0330;-0.0630;-0.1583;
596384250012045;0.0181;0.0798;-0.1690;
596384260117461;0.0181;0.0776;-0.1306;
596384270224909;0.0895;0.0893;-0.1136;
596384280330326;0.1427;0.0808;-0.1093;
596384290435743;0.1459;0.0073;-0.1168;
596384300566420;0.1545;0.0318;-0.1573;
596384310671316;0.1694;0.0499;-0.1711;
596384320776264;0.1182;0.0158;-0.1370;
596384330853607;0.1214;-0.0246;-0.1274;
596384340958555;0.1087;-0.0268;-0.1423;
596384351063451;0.0703;-0.0577;-0.1615;
596384361175430;0.0426;-0.1301;-0.1955;
596384371280326;0.0415;-0.1407;-0.1827;
596384381385222;0.0117;-0.1248;-0.2200;
596384391485326;0.0447;-0.0854;-0.2264;
596384401590222;0.0575;-0.0566;-0.2072;
596384411695118;0.0905;0.0105;-0.2253;
596384421797670;0.1491;0.0968;-0.2445;
596384431902618;0.1854;0.0712;-0.2242;
596384442007514;0.1981;0.0372;-0.1987;
596384452119389;0.2493;0.0329;-0.1711;
596384462224284;0.2844;0.0031;-0.1668;
596384472329180;0.2706;-0.0310;-0.2253;
596384482438659;0.3270;-0.0640;-0.1880;
596384492543555;0.2674;-0.1269;-0.1391;
596384502648451;0.2940;-0.1439;-0.1583;
596384512748451;0.3739;-0.0662;-0.1562;
596384522853347;0.3142;-0.0374;-0.1711;
596384532958243;0.3153;-0.0268;-0.1605;
596384543061368;0.2972;0.0435;-0.1029;
596384553166264;0.3036;0.0957;-0.1178;
596384563271159;0.3430;0.1426;-0.1285;
596384573386680;0.3387;0.1639;-0.1455;
596384583491576;0.3462;0.0766;-0.1168;
596384593596472;0.3643;0.0457;-0.0284;
596384603706784;0.3206;0.0031;-0.0113;
596384613811680;0.3931;-0.1067;-0.0209;
596384623916576;0.4325;-0.1482;-0.0166;
596384634016368;0.4240;-0.0992;-0.0337;
596384644121316;0.4314;-0.0257;-0.0252;
596384654226211;0.3952;0.0212;0.0185;
596384664323555;0.3505;0.0308;0.0270;
596384674428451;0.3483;0.0574;0.0121;
596384684533347;0.3600;0.1149;0.0121;
596384694652409;0.3036;0.1053;0.0441;
596384704757305;0.2887;0.0744;0.0547;
596384714862201;0.2897;0.0180;0.0590;
596384724967305;0.2706;-0.0417;0.0728;
596384735072201;0.2482;-0.0630;0.0995;
596384745177097;0.2354;-0.0779;0.0856;
596384755266576;0.2333;-0.0854;0.0952;
596384765371420;0.2280;-0.0097;0.0888;
596384775476368;0.2503;0.0467;0.1218;
596384785602045;0.2493;0.0212;0.1144;
596384795706941;0.2450;0.0478;0.0899;
596384805811836;0.2674;0.1586;0.0664;
596384815908451;0.2919;0.1490;0.0909;
596384826013347;0.2567;0.0063;0.0973;
596384836118243;0.2493;-0.0321;0.1101;
596384846215118;0.2503;0.0201;0.1037;
596384856320014;0.2344;-0.0577;0.1027;
596384866424909;0.2258;-0.1205;0.1037;
596384876546628;0.2429;-0.0736;0.1176;
596384886651576;0.2546;-0.0427;0.1336;
596384896756472;0.2610;-0.0225;0.1144;
596384906839701;0.2780;0.0670;0.0909;
596384916944545;0.3164;0.1394;0.1122;
596384927049493;0.3121;0.0787;0.1261;
596384937157722;0.3377;0.0947;0.1612;
596384947262566;0.3515;0.0808;0.1932;
596384957367461;0.3441;-0.0278;0.1985;
596384967468555;0.2897;-0.0310;0.1421;
596384977573503;0.2823;-0.0055;0.1485;
596384987678347;0.2695;-0.0502;0.1708;
596384997802878;0.2706;-0.0779;0.1676;
596385007907774;0.2589;-0.0427;0.1442;
596385018012722;0.2567;0.0329;0.1495;
596385028114701;0.2610;-0.0033;0.1762;
596385038219597;0.2631;-0.0374;0.1783;
596385048324493;0.2354;0.0531;0.1666;
596385058412930;0.2301;0.0808;0.1304;
596385068517826;0.2205;0.0350;0.1410;
596385078622722;0.2184;0.0286;0.1783;
596385088731003;0.2439;-0.0065;0.1698;
596385098835951;0.1949;-0.0587;0.1644;
596385108940847;0.1534;-0.0790;0.1485;
596385119038295;0.1470;-0.0949;0.1304;
596385129143191;0.1363;-0.0545;0.1282;
596385139248086;0.0842;0.0372;0.1240;
596385149350482;0.0650;0.0052;0.1293;
596385159455378;0.0937;-0.0481;0.1154;
596385169560274;0.1502;-0.0214;0.0867;
596385179663503;0.1342;-0.0214;0.0963;
596385189768399;0.0884;0.0116;0.1005;
596385199873347;0.0756;0.0276;0.0995;
596385209982826;0.0618;-0.0758;0.0899;
596385220087722;0.0746;-0.0822;0.0771;
596385230192618;0.1129;0.0521;0.0835;
596385240300586;0.0692;0.1469;0.0867;
596385250405482;0.1097;0.1565;0.0696;
596385260510378;0.1800;0.1085;0.0984;
596385270637045;0.1917;0.1096;0.0846;
596385280741993;0.1885;0.1170;0.0686;
596385290846836;0.2024;0.1245;0.0750;
596385300923555;0.2088;0.1554;0.1101;
596385311028243;0.2141;0.1447;0.1272;
596385321132878;0.2013;0.0531;0.1176;
596385331256784;0.1715;-0.0683;0.1048;
596385341361472;0.1225;-0.0364;0.0856;
596385351466159;0.1854;0.0595;0.1261;
596385361569597;0.1885;0.0542;0.1357;
596385371674284;0.0969;-0.0374;0.1186;
596385381778972;0.1459;-0.0342;0.1272;
596385391877722;0.1630;0.0478;0.1410;
596385401982409;0.1662;0.1149;0.1815;
596385412087097;0.1193;0.0787;0.1762;
596385422197722;0.1204;-0.0129;0.1772;
596385432302409;0.1225;-0.0939;0.2028;
596385442407097;0.0170;-0.1035;0.1517;
596385452504909;-0.0075;-0.0449;0.0803;
596385462609597;0.0160;0.0254;0.0877;
596385472714284;-0.0957;0.0063;0.1240;
596385482819597;-0.1554;-0.0332;0.1176;
596385492924284;-0.1085;0.0095;0.0718;
596385503028972;-0.0947;0.0318;0.0451;
596385513138868;-0.1170;0.0180;0.0334;
596385523243555;-0.1522;-0.0055;0.0601;
596385533348243;-0.1671;-0.0459;0.0569;
596385543466264;-0.0979;-0.0087;0.0142;
596385553570951;-0.0447;0.0190;0.0036;
596385563675639;-0.0565;0.0446;0.0313;
596385573785326;-0.0256;0.0638;0.0260;
596385583890014;0.0043;0.0180;0.0228;
596385593994701;0.0138;-0.0278;0.0100;
596385604094545;0.0682;0.0116;-0.0166;
596385614199232;0.0863;-0.0108;-0.0103;
596385624303920;0.0735;-0.0204;-0.0071;
596385634424180;0.1033;-0.0012;-0.0177;
596385644528868;0.1044;-0.0225;-0.0326;
596385654633503;0.1055;-0.0236;-0.0411;
596385664727461;0.0831;-0.0225;-0.0145;
596385674832149;0.0810;0.0031;-0.0177;
596385684936784;0.1023;0.0382;-0.0071;
596385695043555;0.0852;0.0563;-0.0156;
596385705148243;0.1161;0.0169;-0.0113;
596385715252930;0.0586;0.0265;0.0270;
596385725340534;0.0660;-0.0033;0.0185;
596385735445222;0.1001;-0.0545;0.0324;
596385745549909;0.1438;-0.0374;0.0515;
596385755662878;0.1300;-0.0278;0.0515;
596385765767566;0.1193;-0.0449;0.0398;
596385775872253;0.1087;-0.0129;0.0281;
596385785990014;0.0980;-0.0374;0.0558;
596385796094701;0.1023;-0.0087;0.0686;
596385806199389;0.0937;0.0031;0.0643;
596385816291993;0.0565;-0.0406;0.0696;
596385826396680;0.0628;-0.0172;0.0622;
596385836501368;0.0586;0.0041;0.0803;
596385846603972;0.0224;-0.0257;0.0643;
596385856708659;0.0277;-0.0342;0.0675;
596385866813347;0.0309;-0.0353;0.0931;
596385876929076;0.0426;-0.0161;0.1122;
596385887033711;0.0746;-0.0364;0.1133;
596385897138399;0.0650;-0.0640;0.1453;
596385907235951;0.0799;-0.0619;0.1495;
596385917340586;0.1118;-0.0172;0.1506;
596385927445326;0.0788;-0.0076;0.1144;
596385937547045;0.0586;-0.0076;0.1272;
596385947651732;0.0607;0.0116;0.1367;
596385957756420;0.0447;0.0158;0.1549;
596385967861576;0.0373;0.0137;0.1431;
596385977966264;0.0117;-0.0204;0.1442;
596385988070899;-0.0607;-0.0683;0.1367;
596385998171055;-0.0447;-0.0566;0.1080;
596386008275743;-0.0192;-0.0204;0.1282;
596386018380430;-0.0968;-0.0449;0.1282;
596386028488503;-0.1501;-0.0470;0.1165;
596386038593191;-0.1671;-0.0204;0.0899;
596386048697878;-0.1746;-0.0257;0.0782;
596386058858139;-0.2140;-0.0300;0.0547;
596386068962826;-0.1565;-0.0374;0.0569;
596386079067461;-0.1895;-0.0246;0.0696;
596386089120534;-0.1202;-0.0161;0.0292;
596386099225170;-0.0469;0.0382;0.0015;
596386109329857;-0.0873;0.0244;0.0185;
596386119476055;-0.0543;-0.0182;0.0313;
596386129580743;0.0170;0.0329;0.0089;
596386139685378;0.0149;0.0095;-0.0007;
596386149767201;-0.0330;-0.0236;0.0057;
596386159871889;0.0383;0.0073;0.0111;
596386169976524;0.0543;0.0126;0.0494;
596386180085014;0.0192;0.0180;0.0664;
596386190189701;0.0309;0.0201;0.0292;
596386200294336;0.0405;0.0020;0.0473;
596386210387201;-0.0160;-0.0353;0.0675;
596386220491889;0.0490;-0.0662;0.0920;
596386230596576;0.0873;-0.0012;0.0899;
596386240710222;0.0852;0.0467;0.0579;
596386250814909;0.0895;0.0361;0.0664;
596386260919597;0.0437;0.0691;0.0835;
596386271016576;0.0117;0.0819;0.0792;
596386281121264;0.0021;0.0712;0.0622;
596386291225951;-0.0352;0.0137;0.0515;
596386301343086;-0.0149;-0.0012;0.0494;
596386311448243;-0.0320;-0.0289;0.0419;
596386321553347;-0.0597;-0.0470;0.0611;
596386331648659;-0.0735;-0.0108;0.0579;
596386341753764;-0.0628;-0.0193;0.0579;
596386351858920;-0.1213;-0.0481;0.0622;
596386361963086;-0.1043;-0.0566;0.0622;
596386372068243;-0.0575;-0.0353;0.0611;
596386382173399;-0.0543;0.0031;0.0664;
596386392275326;-0.0522;0.0084;0.0632;
596386402380482;-0.0224;0.0020;0.0643;
596386412485639;-0.0437;-0.0097;0.0313;
596386422590066;-0.0075;0.0755;0.0313;
596386432695222;-0.0138;0.0819;0.0324;
596386442800378;-0.0831;-0.0129;0.0356;
596386452905586;-0.0138;-0.0236;0.0111;
596386463010743;0.0128;0.0031;0.0015;
596386473115899;-0.0352;0.0105;-0.0188;
596386483228086;-0.0170;-0.0236;0.0164;
596386493333243;-0.0405;-0.0619;0.0387;
596386503438399;0.0149;-0.0182;0.0153;
596386513537982;0.0149;-0.0023;0.0185;
596386523643139;0.0021;-0.0374;0.0707;
596386533748295;-0.0053;-0.0843;0.0984;
596386543852982;0.0405;-0.0374;0.0803;
596386553958139;0.0437;0.0254;0.0675;
596386564063295;-0.0053;0.0041;0.0686;
596386574164701;-0.0107;0.0233;0.0537;
596386584269805;-0.0043;0.0862;0.0867;
596386594374961;-0.0660;0.0563;0.1080;
596386604485066;-0.0703;0.0009;0.0835;
596386614590222;-0.0650;-0.0300;0.0547;
596386624695378;-0.0628;0.0222;0.0632;
596386634786368;-0.1682;-0.0395;0.0419;
596386644891472;-0.2087;-0.0992;0.0537;
596386654996628;-0.1426;-0.0055;0.0579;
596386665103711;-0.1650;0.0276;0.0579;
596386675208816;-0.2023;-0.0033;0.0718;
596386685313972;-0.1735;0.0467;0.0664;
596386695417045;-0.1746;0.0244;0.0601;
596386705522149;-0.2001;-0.0289;0.0632;
596386715627305;-0.1501;-0.0055;0.0941;
596386725753503;-0.1469;-0.0278;0.0686;
596386735858659;-0.1256;-0.0417;0.0174;
596386745963816;-0.1075;0.0872;0.0142;
596386756065170;-0.1383;0.1426;0.0292;
596386766170326;-0.1799;0.1330;0.0462;
596386776275482;-0.1479;0.1469;0.0100;
596386786384336;-0.1352;0.1192;-0.0188;
596386796489493;-0.1905;-0.0023;0.0206;
596386806594649;-0.1597;-0.0310;-0.0007;
596386816689128;-0.0352;0.0297;0.0057;
596386826794284;-0.0735;0.0787;0.0004;
596386836899441;-0.1437;-0.0055;0.0270;
596386847001941;-0.1352;-0.0129;0.0462;
596386857107097;-0.0788;0.0403;0.0430;
596386867212253;-0.1202;0.0041;0.0292;
596386877303659;-0.1064;-0.0204;0.0419;
596386887408764;-0.0383;0.1277;0.0313;
596386897513920;-0.0692;0.1820;0.0047;
596386907624597;-0.1032;0.1245;0.0228;
596386917729701;-0.1085;0.1053;0.0260;
596386927834805;-0.1320;0.0819;0.0111;
596386937939701;-0.1511;0.0126;-0.0411;
596386948044805;-0.1362;-0.0310;-0.0507;
596386958149961;-0.1075;-0.0214;-0.0497;
596386968268607;-0.0469;0.0744;-0.0422;
596386978373764;-0.0820;0.0968;-0.0092;
596386988478868;-0.0915;0.0904;-0.0039;
596386998560743;-0.0895;0.0712;0.0174;
596387008665847;-0.0989;0.0297;0.0057;
596387018771003;-0.0692;-0.0236;0.0153;
596387028887722;-0.0298;-0.0172;0.0409;
596387038992878;-0.0234;-0.0065;0.0196;
596387049098034;-0.0298;-0.0332;0.0132;
596387059195691;-0.0682;-0.0119;0.0079;
596387069300847;-0.0915;0.0190;0.0015;
596387079406003;-0.1405;-0.0321;0.0057;
596387089546211;-0.0957;0.0254;0.0121;
596387099651368;-0.0671;0.0936;0.0111;
596387109756524;-0.1458;0.0009;-0.0198;
596387119858399;-0.1756;-0.0736;-0.0305;
596387129963555;-0.1043;-0.0406;-0.0337;
596387140068711;-0.0788;-0.0672;-0.0230;
596387150158607;-0.0543;-0.0662;0.0004;
596387160263764;-0.0650;-0.0353;0.0004;
596387170368920;-0.0714;-0.0342;0.0238;
596387180479961;-0.0714;0.0190;0.0324;
596387190585118;-0.0915;-0.0012;0.0569;
596387200690222;-0.0778;-0.0140;0.0824;
596387210776889;-0.0842;0.0297;0.0867;
596387220881993;-0.1075;0.0031;0.0643;
596387230987149;-0.1032;0.0638;0.0579;
596387241101628;-0.1309;0.1202;0.0675;
596387251206784;-0.1586;0.0798;0.0824;
596387261311941;-0.2055;0.0222;0.1133;
596387271417566;-0.2491;0.0286;0.0686;
596387281522722;-0.2300;0.0073;0.0505;
596387291627878;-0.2896;-0.0609;0.0814;
596387301748920;-0.2896;-0.0129;0.0750;
596387311854076;-0.2992;-0.0044;0.0462;
596387321959180;-0.3088;-0.0204;0.0356;
596387332051107;-0.3162;-0.0076;0.0664;
596387342156264;-0.3610;0.0084;0.0611;
596387352261368;-0.3035;0.0276;0.0419;
596387362358920;-0.3237;-0.0321;0.0430;
596387372464076;-0.3194;-0.0555;0.0228;
596387382569180;-0.2555;0.0009;0.0015;
596387392671420;-0.2651;-0.0033;-0.0124;
596387402776576;-0.2907;-0.0001;0.0004;
596387412881680;-0.2502;0.0776;-0.0166;
596387422989441;-0.2470;0.0979;-0.0561;
596387433094597;-0.2332;0.0659;-0.0752;
596387443199701;-0.2182;0.0680;-0.1019;
596387453297305;-0.2332;0.0297;-0.1051;
596387463402409;-0.2204;0.0553;-0.0869;
596387473507514;-0.1746;0.1213;-0.1061;
596387483626524;-0.1778;0.1032;-0.1061;
596387493731680;-0.1852;0.0457;-0.0859;
596387503836784;-0.1426;0.0233;-0.0827;
596387513947670;-0.1202;-0.0246;-0.0635;
596387524052774;-0.1607;-0.1056;-0.0699;
596387534157930;-0.1458;-0.1482;-0.0838;
596387544258086;-0.1543;-0.1258;-0.0869;
596387554363243;-0.1501;-0.0289;-0.1104;
596387564468347;-0.2204;-0.0076;-0.1413;
596387574560274;-0.2193;0.0585;-0.1530;
596387584665430;-0.1756;0.1543;-0.1594;
596387594770534;-0.1852;0.1426;-0.2029;
596387604879493;-0.2214;0.1032;-0.2168;
596387614984649;-0.2353;0.0308;-0.2168;
596387625089753;-0.2140;-0.0172;-0.1987;
596387635214128;-0.2278;-0.0385;-0.1976;
596387645319284;-0.2225;-0.0523;-0.2051;
596387655424389;-0.2097;-0.0960;-0.2189;
596387665515795;-0.2236;-0.1226;-0.1987;
596387675620951;-0.2044;-0.0907;-0.1869;
596387685726055;-0.1788;-0.0630;-0.1594;
596387695831316;-0.1756;0.0435;-0.1455;
596387705936472;-0.1415;0.0947;-0.1498;
596387716041576;-0.1192;0.1000;-0.1349;
596387726142253;-0.0415;0.1618;-0.1668;
596387736247409;0.0021;0.1831;-0.1626;
596387746352514;0.0011;0.1362;-0.1370;
596387756457878;0.0043;0.0915;-0.1285;
596387766562982;0.0234;-0.0129;-0.1285;
596387776668139;-0.0330;-0.0768;-0.1445;
596387786772461;0.0096;-0.0257;-0.1519;
596387796877618;0.0245;-0.0395;-0.1264;
596387806982722;0.0053;0.0052;-0.1285;
596387817086420;0.1065;0.1107;-0.1498;
596387827191576;0.1683;0.0936;-0.1349;
596387837296680;0.1726;0.1000;-0.1040;
596387847396576;0.2280;0.0702;-0.0454;
596387857501732;0.2141;-0.0246;-0.0252;
596387867606836;0.2290;0.0095;-0.0220;
596387877716211;0.2972;0.0095;0.0153;
596387887821368;0.1875;-0.0768;0.0132;
596387897926472;0.1246;-0.0662;0.0004;
596387908026836;0.0852;0.0041;0.0132;
596387918131993;-0.0170;-0.0246;0.0292;
596387928237097;-0.0671;-0.0342;0.0153;
596387938414753;-0.0618;-0.0023;-0.0134;
596387948519909;-0.0968;0.0212;-0.0188;
596387958625014;-0.1639;0.0372;-0.0166;
596387968637930;-0.2278;-0.0385;-0.0017;
596387978743034;-0.2502;-0.0587;-0.0198;
596387988848139;-0.2545;-0.0161;-0.0326;
596387998975795;-0.2790;0.0073;-0.0326;
596388009080951;-0.2832;-0.0768;-0.0220;
596388019186055;-0.2917;-0.0566;-0.0316;
596388029280795;-0.2939;0.0393;-0.0497;
596388039385951;-0.3258;0.0233;-0.0539;
596388049491055;-0.3024;0.0244;-0.0475;
596388059606836;-0.2917;0.0808;-0.0667;
596388069711993;-0.2779;0.0893;-0.0848;
596388079817097;-0.2864;0.0830;-0.0763;
596388089939128;-0.2651;0.0617;-0.0859;
596388100044232;-0.2395;0.0499;-0.1168;
596388110149389;-0.2289;0.0201;-0.1360;
596388120236836;-0.2491;-0.0214;-0.1317;
596388130341993;-0.1735;-0.0140;-0.1349;
596388140447097;-0.1170;0.0020;-0.1519;
596388150541368;-0.1362;-0.0353;-0.1381;
596388160646472;-0.0820;0.0020;-0.1360;
596388170751576;0.0202;0.0467;-0.1338;
596388180850534;0.0202;0.0190;-0.1189;
596388190955639;0.0447;-0.0214;-0.0880;
596388201060743;0.1140;-0.0236;-0.0806;
596388211171993;0.1640;-0.0257;-0.0656;
596388221277097;0.1481;-0.0630;-0.0614;
596388231382201;0.1768;-0.0545;-0.0561;
596388241494336;0.1193;-0.0395;-0.0529;
596388251599493;0.0842;-0.0097;-0.0539;
596388261704597;0.0650;-0.0236;-0.0369;
596388271808607;0.0501;-0.0097;-0.0422;
596388281913764;0.0490;0.0201;-0.0582;
596388292018868;0.0053;0.0126;-0.0731;
596388302117878;-0.0426;-0.0097;-0.0752;
596388312222774;-0.0245;0.0084;-0.0475;
596388322327566;-0.0352;0.0041;-0.0326;
596388332445118;-0.0586;-0.0545;-0.0294;
596388342549961;-0.0618;-0.0342;-0.0582;
596388352654753;-0.0298;0.0126;-0.0593;
596388362754805;-0.0735;-0.0268;-0.0518;
596388372859649;-0.0415;-0.0449;-0.0518;
596388382964441;-0.0362;-0.0172;-0.0539;
596388393068972;-0.0607;-0.0012;-0.0678;
596388403173816;-0.0565;0.0361;-0.0518;
596388413278607;-0.0650;0.0904;-0.0827;
596388423387618;-0.0234;0.1320;-0.1115;
596388433492461;0.0107;0.0904;-0.1051;
596388443597201;-0.0149;0.0222;-0.1104;
596388453695899;-0.0224;0.0361;-0.1072;
596388463800795;-0.0085;0.0883;-0.1434;
596388473905586;-0.0011;0.0435;-0.1636;
596388484020743;0.0075;-0.0193;-0.1530;
596388494125586;0.0597;0.0222;-0.1285;
596388504230326;0.0778;0.0254;-0.1253;
596388514332201;0.0490;-0.0119;-0.1115;
596388524437045;0.0735;0.0350;-0.1274;
596388534541836;0.1289;0.1383;-0.1306;
596388544656264;0.1268;0.1383;-0.1019;
596388554761107;0.0927;0.0957;-0.0710;
596388564865899;0.1502;0.1320;-0.0667;
596388574966472;0.2482;0.1256;-0.0593;
596388585071316;0.2514;0.0989;-0.0539;
596388595176107;0.2929;0.1075;-0.0816;
596388605282201;0.2738;0.0989;-0.0603;
596388615387045;0.1459;0.0276;-0.0188;
596388625491836;0.2045;-0.0225;0.0004;
596388635574336;0.1779;-0.0289;-0.0028;
596388645679180;0.1438;-0.0182;-0.0337;
596388655784024;0.1097;-0.0236;-0.0539;
596388665909545;0.0181;-0.0097;-0.0348;
596388676014389;0.0522;0.0201;-0.0220;
596388686119180;0.0501;-0.0087;-0.0049;
596388696216784;0.0309;-0.0161;-0.0209;
596388706321628;-0.0043;0.0158;-0.0220;
596388716426368;-0.0405;-0.0182;0.0015;
596388726559076;-0.0575;-0.0832;0.0036;
596388736663920;-0.0298;-0.1130;-0.0017;
596388746768659;-0.0320;-0.1418;-0.0156;
596388756842409;0.0075;-0.1951;0.0047;
596388766947201;-0.0117;-0.1461;0.0025;
596388777052045;-0.0895;0.0105;-0.0593;
596388787161055;-0.1160;0.1842;-0.0880;
596388797265847;-0.1895;-0.0161;-0.0614;
596388807370691;-0.3067;-0.3410;-0.0348;
596388817478295;-0.0469;-0.2558;-0.0582;
596388827583139;0.3441;-0.0395;-0.0742;
596388837687930;0.2194;-0.0427;-0.0784;
596388847794701;-0.1288;-0.1077;-0.0582;
596388857899493;-0.0873;-0.0768;-0.0486;
596388868004284;-0.0085;-0.0310;-0.0561;
596388878095430;-0.0181;0.0137;-0.0827;
596388888200222;0.0138;0.0680;-0.1029;
596388898305066;0.0597;0.1096;-0.0720;
596388908419805;0.0373;0.0766;-0.0497;
596388918524649;0.0778;0.0286;-0.0518;
596388928629441;0.1161;-0.0108;-0.0507;
596388938744857;0.1981;-0.0683;-0.0369;
596388948849701;0.2439;-0.1194;-0.0220;
596388958954545;0.2855;-0.1130;-0.0113;
596388969058086;0.2897;-0.0928;-0.0028;
596388979162930;0.2759;-0.1152;-0.0007;
596388989267722;0.2258;-0.2036;-0.0017;
596388999365170;0.2418;-0.2664;-0.0103;
596389009470014;0.3398;-0.1130;-0.0305;
596389019574857;0.3558;0.1618;-0.0358;
596389029695170;0.2397;0.2204;-0.0230;
596389039800014;0.2173;0.0979;-0.0039;
596389049904805;0.3089;0.0340;0.0111;
596389059999961;0.3110;0.0393;0.0079;
596389070104753;0.2780;-0.0449;0.0196;
596389080209545;0.2695;-0.1780;0.0505;
596389090299961;0.2535;-0.2419;0.0537;
596389100404805;0.2706;-0.2409;0.0505;
596389110509597;0.2269;-0.2249;0.0441;
596389120636368;0.1896;-0.1897;0.0441;
596389130741211;0.1726;-0.1333;0.0324;
596389140845951;0.1928;-0.0694;0.0238;
596389150939545;0.2024;-0.0236;0.0196;
596389161044441;0.2429;0.0393;0.0025;
596389171149180;0.2993;0.1160;0.0174;
596389181258555;0.3047;0.1000;0.0537;
596389191363399;0.2887;0.0308;0.0632;
596389201468191;0.3089;-0.0065;0.0782;
596389211572461;0.2908;-0.0790;0.1176;
596389221677305;0.2503;-0.1450;0.1133;
596389231782097;0.2897;-0.1290;0.0782;
596389241892722;0.2748;-0.0843;0.0952;
596389251997566;0.2120;-0.0545;0.1208;
596389262102357;0.1683;-0.0577;0.1176;
596389272221889;0.1374;-0.0332;0.1293;
596389282326784;0.1204;0.0659;0.1133;
596389292431576;0.0767;0.1064;0.1080;
596389302511316;-0.0330;0.0734;0.1229;
596389312616264;-0.1064;0.0531;0.0931;
596389322721264;-0.1703;0.0169;0.1122;
596389332842774;-0.2342;0.0158;0.1336;
596389342947722;-0.2640;0.0126;0.0782;
596389353052670;-0.2065;-0.0545;0.0473;
596389363148607;-0.2129;-0.0427;0.0526;
596389373253555;-0.1607;0.0585;0.0462;
596389383358503;-0.1352;0.0893;0.0654;
596389393459493;-0.1298;0.0617;0.0792;
596389403564441;-0.0925;0.0670;0.0675;
596389413669389;-0.0660;0.0915;0.0664;
596389423780378;-0.0224;0.0329;0.0696;
596389433885378;-0.0469;-0.0353;0.0739;
596389443990274;0.0160;-0.0204;0.0686;
596389454093711;0.0256;0.0031;0.1005;
596389464198659;0.0000;0.0041;0.0973;
596389474303607;0.0309;0.0116;0.1027;
596389484410482;0.0096;0.0361;0.1165;
596389494515430;0.0096;0.0883;0.0909;
596389504620378;0.0085;0.1043;0.1005;
596389514724024;-0.0192;0.0915;0.1133;
596389524828972;-0.0533;0.0531;0.1016;
596389534933920;-0.0682;0.0585;0.1037;
596389545042670;-0.1032;0.0574;0.1250;
596389555147618;-0.1458;0.0009;0.1410;
596389565252566;-0.1447;-0.0353;0.1272;
596389575357253;-0.1969;-0.0225;0.1048;
596389585462201;-0.2033;-0.0065;0.0984;
596389595567149;-0.2278;0.0020;0.0664;
596389605665378;-0.2577;0.0148;0.0526;
596389615770378;-0.2939;0.0553;0.0611;
596389625875326;-0.3525;-0.0076;0.0483;
596389636005014;-0.3482;-0.0427;0.0494;
596389646109961;-0.4057;-0.0481;0.0260;
596389656214909;-0.3557;-0.0513;0.0100;
596389666304336;-0.3631;-0.0907;0.0121;
596389676409336;-0.3684;-0.1216;0.0228;
596389686514232;-0.3301;-0.0864;0.0270;
596389696611003;-0.2949;0.0084;0.0313;
596389706716003;-0.2481;0.1000;-0.0017;
596389716820951;-0.2065;0.0883;-0.0337;
596389726941993;-0.2065;-0.0097;-0.0071;
596389737046941;-0.2374;0.0041;0.0164;
596389747151941;-0.1735;0.1149;-0.0007;
596389757257878;-0.1298;0.1202;-0.0103;
596389767362826;-0.1053;0.0808;-0.0220;
596389777467774;-0.0884;0.0712;-0.0081;
596389787559649;-0.0873;0.0680;0.0089;
596389797664649;-0.0947;0.0212;0.0089;
596389807769597;-0.0479;-0.0459;-0.0209;
596389817874441;-0.0213;-0.0342;-0.0454;
596389827979389;-0.0469;-0.0129;-0.0433;
596389838084336;-0.0501;0.0265;-0.0699;
596389848181628;-0.0138;0.0297;-0.0806;
596389858286576;-0.0192;0.0457;-0.0848;
596389868391524;0.0256;0.0137;-0.0614;
596389878508139;-0.0245;-0.0140;-0.0539;
596389888613086;0.0138;0.0116;-0.0752;
596389898718034;0.0628;0.0680;-0.1232;
596389908838868;0.0799;0.0041;-0.1157;
596389918943816;0.0714;-0.0023;-0.1115;
596389929048764;0.1427;0.0680;-0.1146;
596389939125795;0.1747;0.1011;-0.1136;
596389949230743;0.2003;0.0606;-0.0880;
596389959335691;0.1864;0.0425;-0.0827;
596389969462305;0.2258;0.0787;-0.0720;
596389979567305;0.2599;0.0893;-0.0571;
596389989672201;0.2908;0.0925;-0.0411;
596389999759753;0.3153;0.0553;-0.0326;
596390009864753;0.3377;-0.0246;-0.0273;
596390019969701;0.3142;-0.0417;0.0121;
596390030074649;0.2791;0.0190;0.0430;
596390040179597;0.2439;0.0393;0.0569;
596390050284545;0.2024;-0.0459;0.0707;
596390060398816;0.1491;-0.0971;0.0750;
596390070503816;0.1395;-0.0854;0.0483;
596390080608764;0.0991;-0.0960;0.0792;
596390090707982;0.0692;-0.0885;0.0963;
596390100812982;0.0213;-0.0150;0.0973;
596390110917878;-0.0107;0.0457;0.0654;
596390121032357;-0.0266;0.0372;0.0675;
596390131137305;-0.0607;0.0659;0.0441;
596390141242253;-0.0724;0.0393;0.0601;
596390151352982;-0.1373;-0.0044;0.0707;
596390161457930;-0.1383;-0.0353;0.0728;
596390171562930;-0.1011;-0.0374;0.0441;
596390181659857;-0.1138;-0.0545;0.0590;
596390191764805;-0.1298;-0.0044;0.0622;
596390201869753;-0.1341;-0.0087;0.0696;
596390211975170;-0.1192;-0.0119;0.0462;
596390222080118;-0.1149;0.0286;0.0462;
596390232185066;-0.1128;0.0702;0.0579;
596390242294493;-0.1245;0.0340;0.0601;
596390252399441;-0.1511;-0.0001;0.0419;
596390262504441;-0.1043;0.0393;0.0430;
596390272619753;-0.1373;0.0542;0.0419;
596390282724701;-0.1479;0.0148;0.0398;
596390292829649;-0.1245;-0.0097;0.0345;
596390302914753;-0.1096;0.0276;0.0238;
596390313019857;-0.1085;0.0073;0.0409;
596390323124909;-0.1245;-0.0119;0.0473;
596390333235274;-0.0979;0.0244;0.0324;
596390343340378;-0.1043;0.0414;-0.0039;
596390353445430;-0.0778;0.0116;0.0047;
596390363560482;-0.0724;0.0063;0.0270;
596390373665586;-0.0756;0.0350;0.0121;
596390383770639;-0.0383;0.0020;0.0004;
596390393857514;-0.0575;-0.0598;0.0004;
596390403962566;-0.0298;-0.0555;-0.0113;
596390414067618;-0.0224;0.0308;-0.0390;
596390424182045;-0.0362;0.0819;-0.0379;
596390434287149;-0.0501;0.0489;-0.0294;
596390444392201;-0.0320;0.0020;-0.0166;
596390454490118;-0.0288;-0.0033;-0.0454;
596390464595170;-0.0160;0.0340;-0.0529;
596390474700222;-0.0447;-0.0193;-0.0060;
596390484813191;-0.0660;-0.0577;0.0025;
596390494918295;-0.0117;0.0073;-0.0710;
596390505023347;-0.0597;-0.0172;-0.0752;
596390515124649;-0.0405;-0.0161;-0.0316;
596390525229753;-0.0458;0.0574;-0.0262;
596390535334805;-0.0799;0.0553;-0.0411;
596390545440326;-0.0639;0.0308;-0.0454;
596390555545430;-0.0915;0.0148;-0.0284;
596390565650482;-0.0895;0.0361;-0.0401;
596390575754336;-0.0957;-0.0012;-0.0422;
596390585859441;-0.0947;-0.0012;-0.0273;
596390595964493;-0.0820;0.0190;-0.0390;
596390606069336;-0.0915;0.0073;-0.0252;
596390616174441;-0.0915;0.0052;-0.0166;
596390626279493;-0.1383;0.0052;-0.0103;
596390636397878;-0.0810;0.0446;-0.0209;
596390646502930;-0.0915;0.0297;-0.0092;
596390656607982;-0.0968;-0.0332;0.0249;
596390666697149;-0.0138;0.0521;-0.0081;
596390676802253;-0.0458;0.0521;0.0079;
596390686907305;-0.0810;0.0201;0.0132;
596390697015691;-0.0490;0.0435;0.0164;
596390707120795;-0.0852;0.0276;0.0494;
596390717225847;-0.0884;0.0478;0.0366;
596390727339909;-0.0979;0.0478;0.0324;
596390737445014;-0.0756;0.0606;0.0079;
596390747550066;-0.0533;0.0968;-0.0017;
596390757658399;-0.0735;0.0787;0.0313;
596390767763503;-0.0799;0.0702;0.0292;
596390777868555;-0.0756;0.0712;0.0366;
596390787959336;-0.0810;0.0638;0.0473;
596390798064441;-0.0692;0.0286;0.0249;
596390808169493;-0.0575;-0.0076;0.0185;
596390818283034;-0.0597;-0.0353;0.0206;
596390828388034;-0.0586;-0.0598;0.0153;
596390838493139;-0.0724;-0.0928;0.0451;
596390848574284;-0.0799;-0.0427;0.0334;
596390858679336;-0.1107;0.0126;0.0174;
596390868784389;-0.1565;0.0084;0.0079;
596390878914128;-0.1320;0.0286;-0.0103;
596390889019180;-0.1831;0.0542;0.0292;
596390899124284;-0.2449;0.1000;0.0611;
596390909234753;-0.2374;0.1107;0.0164;
596390919339805;-0.2023;0.0510;0.0047;
596390929444909;-0.2225;0.0020;0.0228;
596390939552722;-0.2587;-0.0087;0.0302;
596390949657774;-0.2907;-0.0140;0.0494;
596390959762878;-0.3216;-0.0577;0.0419;
596390969858711;-0.3248;-0.0364;0.0111;
596390979963816;-0.3493;-0.0023;0.0430;
596390990068868;-0.4292;0.0233;0.0654;
596391000159909;-0.4547;0.0755;0.0558;
596391010264961;-0.4494;0.0893;0.0132;
596391020370014;-0.4483;0.0126;0.0025;
596391030484857;-0.4643;-0.0108;0.0206;
596391040589961;-0.4931;0.0446;0.0356;
596391050695014;-0.5431;0.0126;0.0174;
596391060791003;-0.5612;-0.0278;-0.0103;
596391070896107;-0.5708;-0.0097;-0.0358;
596391081001159;-0.6007;-0.0001;-0.0646;
596391091108816;-0.6113;-0.0001;-0.0667;
596391101213920;-0.5900;0.0126;-0.0720;
596391111318972;-0.5495;0.0340;-0.1029;
596391121444753;-0.5261;0.0265;-0.1051;
596391131549857;-0.4952;0.0233;-0.1072;
596391141654909;-0.3663;0.0585;-0.1690;
596391151735066;-0.2608;0.0712;-0.1796;
596391161840170;-0.2129;0.0308;-0.1786;
596391171945222;-0.1309;0.0052;-0.1700;
596391182051941;-0.1362;-0.0065;-0.1519;
596391192157045;-0.0810;-0.0119;-0.1722;
596391202262097;0.0554;0.0329;-0.2125;
596391212359493;0.0948;0.0190;-0.2274;
596391222464545;0.0660;-0.0289;-0.2114;
596391232569597;0.1513;0.0116;-0.1987;
596391242678659;0.1854;0.0020;-0.2125;
596391252783711;0.1523;-0.0076;-0.2232;
596391262888764;0.2130;0.0574;-0.2232;
596391273007670;0.2045;0.0521;-0.2104;
596391283112722;0.1577;0.0137;-0.1933;
596391293217826;0.1822;0.0819;-0.2061;
596391303320066;0.2162;0.1426;-0.2285;
596391313425170;0.2109;0.0883;-0.2072;
596391323530274;0.1694;0.0659;-0.1912;
596391333642826;0.2077;0.0734;-0.1827;
596391343747930;0.3313;0.0862;-0.1880;
596391353853034;0.3419;0.1000;-0.1891;
596391363945743;0.3334;0.0755;-0.1923;
596391374050847;0.3302;0.0222;-0.1434;
596391384155951;0.4069;0.0063;-0.1285;
596391394256159;0.4495;0.0510;-0.1562;
596391404361211;0.4517;0.0297;-0.1370;
596391414466316;0.4943;-0.0087;-0.1274;
596391424579649;0.5410;0.0031;-0.1200;
596391434684753;0.5346;0.0201;-0.1083;
596391444789857;0.5453;-0.0001;-0.0699;
596391454893086;0.5410;-0.0087;-0.0614;
596391464998191;0.5378;0.0222;-0.0784;
596391475103295;0.5772;0.0020;-0.0731;
596391485202461;0.5740;-0.0342;-0.0518;
596391495307566;0.5549;-0.0129;-0.0252;
596391505412670;0.6156;0.0222;-0.0145;
596391515507253;0.7114;0.0020;-0.0166;
596391525612357;0.7168;-0.0172;-0.0028;
596391535717409;0.6774;0.0084;0.0228;
596391545841003;0.7274;-0.0108;0.0409;
596391555946107;0.7189;-0.0182;0.0494;
596391566051211;0.6859;0.0105;0.0601;
596391576143451;0.7594;0.0137;0.0941;
596391586248503;0.7956;-0.0342;0.1080;
596391596353607;0.7477;-0.0236;0.1101;
596391606473711;0.6784;0.0031;0.1304;
596391616578816;0.6507;-0.0065;0.1506;
596391626683920;0.5687;0.0041;0.1538;
596391636772878;0.5378;-0.0065;0.1559;
596391646877982;0.5325;0.0020;0.1751;
596391656983086;0.4495;0.0372;0.1570;
596391667093920;0.3409;0.0467;0.1591;
596391677199024;0.3164;0.0148;0.1921;
596391687304128;0.2780;-0.0236;0.2081;
596391697397461;0.1534;-0.0012;0.1921;
596391707502514;0.1193;0.0585;0.1836;
596391717607618;0.1385;0.0670;0.1868;
596391727748711;0.1300;0.0372;0.2071;
596391737853868;0.1523;0.0212;0.2497;
596391747958920;0.1513;-0.0033;0.2443;
596391758026003;0.1182;-0.0598;0.2422;
596391768131107;0.0799;-0.0683;0.2156;
596391778236264;0.0266;-0.0395;0.2422;
596391788411732;-0.0160;0.0041;0.2603;
596391798516836;-0.0447;0.0350;0.2497;
596391808621941;-0.0756;0.0915;0.2252;
596391818658659;-0.0447;0.1373;0.1943;
596391828763764;-0.0160;0.1053;0.2103;
596391838868816;-0.0415;0.0787;0.2220;
596391849043711;-0.0469;0.0979;0.2166;
596391859148816;-0.0245;0.1053;0.2039;
596391869253920;-0.0458;0.0286;0.1847;
596391879310170;-0.0778;0.0148;0.1879;
596391889415274;-0.0746;0.0936;0.1911;
596391899520378;-0.1224;0.0403;0.1921;
596391909610118;-0.1245;-0.0225;0.1858;
596391919715222;-0.1064;0.0680;0.1517;
596391929820274;-0.1245;0.0702;0.1389;
596391939928503;-0.1458;-0.0257;0.1282;
596391950033607;-0.1085;0.0052;0.1133;
596391960138711;-0.0863;0.0893;0.1101;
596391970231211;-0.0618;0.0893;0.1218;
596391980336264;-0.0405;0.0446;0.1389;
596391990441368;0.0394;0.0744;0.1367;
596392000558816;0.0788;0.0712;0.1229;
596392010663920;0.0884;-0.0001;0.1367;
596392020769024;0.1001;0.0169;0.1282;
596392030891159;0.1118;0.1043;0.1091;
596392040996264;0.0991;0.0840;0.1261;
596392051101368;0.1012;0.0222;0.1612;
596392061196836;0.0991;0.0585;0.1698;
596392071301941;0.0746;0.0510;0.1431;
596392081407045;0.0650;0.0254;0.1282;
596392091504857;0.0703;0.0116;0.1517;
596392101609961;0.0969;0.0446;0.1570;
596392111715066;0.0714;0.0180;0.1634;
596392121833607;0.0543;-0.0268;0.1868;
596392131938711;0.0692;0.0041;0.1762;
596392142043816;0.0831;0.0233;0.1612;
596392152140378;0.0586;-0.0257;0.1815;
596392162245482;0.0671;-0.0364;0.2039;
596392172350586;0.0863;0.0425;0.2071;
596392182447930;0.0288;0.0872;0.2156;
596392192552982;-0.0330;0.0446;0.2326;
596392202658086;-0.0671;0.0244;0.2294;
596392212765066;-0.1213;0.0531;0.2305;
596392222870170;-0.1756;0.0340;0.2624;
596392232975274;-0.1799;0.0073;0.2848;
596392243094128;-0.1703;0.0041;0.2965;
596392253199232;-0.1479;-0.0332;0.3157;
596392263304336;-0.1149;-0.0747;0.3381;
596392273414389;-0.0957;-0.0854;0.3413;
596392283519493;-0.0842;-0.0885;0.3434;
596392293624597;-0.0831;-0.0960;0.3370;
596392303720274;-0.1149;-0.1013;0.3498;
596392313825378;-0.1341;-0.0214;0.3359;
596392323930430;-0.1682;0.0883;0.3029;
596392334022357;-0.2225;0.0840;0.2635;
596392344127461;-0.1746;0.0318;0.2486;
596392354232514;-0.0149;-0.0193;0.2624;
596392364344024;0.0522;-0.0427;0.2901;
596392374449128;0.1236;-0.0417;0.2901;
596392384554180;0.2120;-0.0640;0.2720;
596392394659232;0.2173;-0.0726;0.2497;
596392404764336;0.2301;-0.0342;0.2390;
596392414869389;0.2386;-0.0257;0.2422;
596392424971107;0.2493;-0.0640;0.2422;
596392435076211;0.2908;-0.0683;0.2262;
596392445181264;0.2770;-0.0609;0.2060;
596392455285118;0.2333;-0.0555;0.1985;
596392465390170;0.1726;-0.0193;0.1996;
596392475495222;0.1129;-0.0385;0.1921;
596392485599961;0.0959;-0.0598;0.1570;
596392495705066;0.0597;-0.0438;0.1314;
596392505810118;0.0266;-0.0353;0.1165;
596392515987982;0.0320;-0.0246;0.1229;
596392526093086;0.0352;-0.0001;0.1367;
596392536198139;0.0330;0.0052;0.1197;
596392546227826;0.0107;-0.0140;0.0963;
596392556332878;0.0053;-0.0204;0.0846;
596392566437930;0.0245;-0.0364;0.0899;
596392576541628;0.0341;-0.0246;0.0931;
596392586646680;0.0117;-0.0097;0.1016;
596392596751732;-0.0053;-0.0097;0.0931;
596392606858086;-0.0224;-0.0321;0.0760;
596392616963191;-0.0437;-0.0172;0.0558;
596392627068243;-0.0756;-0.0076;0.0473;
596392637196732;-0.1160;-0.0150;0.0494;
596392647301784;-0.1607;0.0158;0.0441;
596392657406889;-0.1852;0.0521;0.0238;
596392667492670;-0.2172;0.0744;-0.0156;
596392677597774;-0.2662;0.0574;-0.0305;
596392687702826;-0.2651;0.0148;-0.0379;
596392697804441;-0.2001;-0.0055;-0.0145;
596392707909545;-0.1671;0.0105;-0.0017;
596392718014597;-0.2023;0.0361;-0.0241;
596392728130326;-0.3120;0.0244;-0.0539;
596392738235430;-0.4377;-0.0033;-0.0795;
596392748340482;-0.5218;-0.0119;-0.0869;
596392758425795;-0.5463;0.0009;-0.0806;
596392768530899;-0.5676;0.0073;-0.0593;
596392778636003;-0.5996;0.0276;-0.0379;
596392788762357;-0.6326;0.0702;-0.0433;
596392798867461;-0.6965;0.0297;-0.0475;
596392808972514;-0.7774;-0.0523;-0.0358;
596392819058555;-0.7411;-0.0182;-0.0198;
596392829163659;-0.5964;0.0361;0.0047;
596392839268711;-0.5154;-0.0129;0.0281;
596392849366836;-0.4675;-0.0491;0.0494;
596392859471941;-0.3407;0.0169;0.0558;
596392869576993;-0.2108;0.0606;0.0451;
596392879694232;-0.1533;0.0190;0.0387;
596392889799336;-0.0989;0.0041;0.0409;
596392899904441;-0.0160;0.0361;0.0441;
596392910020795;-0.0224;0.0020;0.0494;
596392920125899;0.0256;-0.0065;0.0505;
596392930230951;0.1395;0.0521;0.0462;
596392940341003;0.2120;0.0457;0.0292;
596392950446107;0.2237;0.0009;0.0228;
596392960551159;0.3110;0.0425;0.0334;
596392970640170;0.4453;0.0830;0.0366;
596392980745274;0.4612;0.0169;0.0430;
596392990850326;0.3973;-0.0332;0.0398;
596393000956732;0.3707;0.0233;0.0281;
596393011061836;0.3537;0.0617;0.0121;
596393021166889;0.2354;0.0297;0.0004;
596393031258555;0.0873;0.0382;-0.0284;
596393041363607;-0.0138;0.0670;-0.0582;
596393051468659;-0.0639;0.0318;-0.0752;
596393061586732;-0.1437;-0.0246;-0.0784;
596393071691836;-0.1224;-0.0097;-0.0838;
596393081796889;-0.0011;0.0308;-0.0869;
596393091902253;0.0330;0.0084;-0.0806;
596393102007357;0.0224;0.0009;-0.0731;
596393112112409;0.0522;0.0340;-0.0731;
596393122224180;0.0490;0.0233;-0.0742;
596393132329284;0.0075;-0.0289;-0.0774;
596393142434336;0.0245;-0.0385;-0.0774;
596393152533191;0.0543;-0.0044;-0.0827;
596393162638295;0.0682;-0.0023;-0.0869;
596393172743347;0.0405;-0.0161;-0.0848;
596393182846368;0.0543;0.0222;-0.0795;
596393192951420;0.0810;0.0553;-0.0784;
596393203056472;0.0320;0.0361;-0.0848;
596393213160586;0.0021;0.0126;-0.0933;
596393223265639;0.0128;-0.0044;-0.0965;
596393233370795;0.0107;-0.0225;-0.0976;
596393243476316;0.0213;-0.0150;-0.0944;
596393253581420;0.0320;0.0095;-0.0891;
596393263686472;0.0320;0.0340;-0.0827;
596393273810378;0.0213;0.0382;-0.0869;
596393283915430;-0.0021;0.0031;-0.0965;
596393294020534;-0.0288;-0.0214;-0.0987;
596393304113711;-0.0256;-0.0087;-0.0933;
596393314218711;-0.0138;-0.0087;-0.0880;
596393324323711;-0.0405;-0.0481;-0.0763;
596393334423086;-0.0266;-0.0438;-0.0742;
596393344528086;0.0373;0.0137;-0.0816;
596393354633086;0.0053;0.0201;-0.0869;
596393364740899;-0.0021;-0.0161;-0.0859;
596393374845899;0.0298;0.0095;-0.0816;
596393384950951;0.0362;0.0659;-0.0827;
596393395048659;0.0107;0.0467;-0.0859;
596393405153607;0.0107;0.0020;-0.0869;
596393415258607;0.0288;0.0041;-0.0901;
596393425364753;0.0107;0.0041;-0.0869;
596393435469805;0.0149;-0.0172;-0.0806;
596393445574805;0.0320;-0.0193;-0.0752;
596393455685743;0.0266;-0.0076;-0.0806;
596393465790795;0.0170;0.0041;-0.0944;
596393475895795;0.0138;0.0212;-0.1051;
596393485991211;0.0192;0.0425;-0.1029;
596393496096211;0.0234;0.0499;-0.0955;
596393506201159;0.0234;0.0372;-0.0880;
596393516341628;0.0213;0.0286;-0.0933;
596393526446628;0.0011;0.0095;-0.0987;
596393536551628;-0.0405;-0.0289;-0.0976;
596393546623972;-0.0394;-0.0289;-0.0923;
596393556728972;0.0277;0.0095;-0.0880;
596393566833920;0.0309;0.0148;-0.0869;
596393576938139;0.0192;-0.0097;-0.0869;
596393587043139;0.0245;-0.0161;-0.0912;
596393597148139;0.0202;-0.0129;-0.0944;
596393607262670;0.0224;-0.0012;-0.0955;
596393617367670;0.0181;0.0095;-0.1019;
596393627472670;0.0128;0.0052;-0.1051;
596393637588295;0.0043;-0.0033;-0.0827;
596393647693295;-0.0075;-0.0150;-0.0891;
596393657798295;0.0000;-0.0044;-0.0880;
596393667879597;0.0032;0.0031;-0.0869;
596393677984545;-0.0298;-0.0108;-0.0912;
596393688089545;-0.0586;-0.0087;-0.0976;
596393698203139;-0.0607;0.0116;-0.0997;
596393708308086;-0.0597;0.0201;-0.0987;
596393718413086;-0.0511;0.0276;-0.0997;
596393728509336;-0.0415;0.0276;-0.1029;
596393738614284;-0.0479;0.0148;-0.1061;
596393748719284;-0.0586;0.0009;-0.1061;
596393758842253;-0.0543;-0.0055;-0.1040;
596393768947253;-0.0288;-0.0033;-0.0976;
596393779052253;0.0117;0.0084;-0.0891;
596393789137149;0.0234;0.0084;-0.0859;
596393799242149;0.0149;-0.0087;-0.0827;
596393809347149;0.0224;-0.0236;-0.0806;
596393819493555;0.0256;-0.0150;-0.0763;
596393829598555;0.0224;0.0009;-0.0742;
596393839703555;0.0117;0.0126;-0.0752;
596393849796211;0.0117;0.0169;-0.0784;
596393859901211;0.0138;0.0169;-0.0795;
596393870006211;0.0170;0.0020;-0.0827;
596393880090430;0.0192;-0.0214;-0.0827;
596393890195430;0.0224;-0.0353;-0.0848;
596393900300378;0.0213;-0.0321;-0.0859;
596393910425222;0.0234;-0.0172;-0.0859;
596393920530222;0.0213;0.0020;-0.0955;
596393930635222;0.0192;0.0190;-0.1008;
596393940707097;0.0192;0.0201;-0.1104;
596393950812097;0.0181;0.0084;-0.1168;
596393960917045;0.0107;-0.0076;-0.1189;
596393971043816;0.0107;-0.0150;-0.1200;
596393981148816;0.0298;-0.0097;-0.1232;
596393991253868;0.0298;-0.0076;-0.1253;
596394001354961;0.0277;-0.0065;-0.1274;
596394011460014;0.0288;-0.0023;-0.1285;
596394021564961;0.0277;-0.0001;-0.1296;
596394031689441;0.0245;0.0009;-0.1285;
596394041794441;0.0288;0.0009;-0.1296;
596394051899441;0.0277;0.0009;-0.1306;
596394061990170;0.0298;-0.0023;-0.1296;
596394072095170;0.0298;-0.0023;-0.1242;
596394082200170;0.0320;0.0009;-0.1221;
596394092301420;0.0298;0.0009;-0.1189;
596394102406420;0.0277;-0.0012;-0.1157;
596394112511420;0.0277;-0.0033;-0.1125;
596394122613451;0.0277;-0.0055;-0.1061;
596394132718451;0.0277;-0.0023;-0.0997;
596394142823451;0.0256;0.0020;-0.0944;
596394152933243;0.0256;-0.0001;-0.0901;
596394163038295;0.0234;-0.0001;-0.0848;
596394173143243;0.0192;0.0020;-0.0784;
596394183241472;0.0181;-0.0012;-0.0742;
596394193346420;0.0192;-0.0033;-0.0710;
596394203451420;0.0192;-0.0044;-0.0710;
596394213559441;0.0170;-0.0055;-0.0667;
596394223664441;0.0149;-0.0044;-0.0624;
596394233769493;0.0128;-0.0023;-0.0593;
596394243874024;0.0117;-0.0044;-0.0561;
596394253979024;0.0107;-0.0023;-0.0529;
596394264084076;0.0117;-0.0012;-0.0497;
596394274186316;0.0117;-0.0023;-0.0475;
596394284291264;0.0085;-0.0023;-0.0465;
596394294396264;0.0075;-0.0001;-0.0454;
596394304501264;0.0085;-0.0001;-0.0411;
596394314623086;0.0085;-0.0001;-0.0411;
596394324728139;0.0075;0.0020;-0.0401;
596394334833139;0.0064;0.0009;-0.0401;
596394344936003;0.0075;-0.0001;-0.0390;
596394355041055;0.0075;-0.0023;-0.0369;
596394365146055;0.0096;-0.0023;-0.0358;
596394375232618;0.0075;-0.0023;-0.0358;
596394385337618;0.0053;-0.0012;-0.0348;
596394395442618;0.0053;-0.0001;-0.0316;
596394405563399;0.0053;0.0020;-0.0305;
596394415668451;0.0043;0.0031;-0.0305;
596394425773451;0.0053;0.0009;-0.0273;
596394435929128;0.0043;-0.0001;-0.0262;
596394446034128;0.0032;-0.0001;-0.0230;
596394456139128;0.0053;0.0020;-0.0198;
596394466188503;0.0021;0.0020;-0.0166;
596394476293555;0.0000;0.0009;-0.0134;
596394486398555;0.0021;-0.0001;-0.0134;
596394496500482;0.0011;-0.0001;-0.0113;
596394506605534;0.0021;-0.0012;-0.0103;
596394516710534;0.0032;-0.0012;-0.0071;
596394526794961;0.0011;-0.0001;-0.0049;
596394536899961;0.0011;-0.0001;-0.0049;
596394547004961;0.0021;-0.0001;-0.0049;
596394557125118;0.0011;0.0009;-0.0039;
596394567230118;0.0000;0.0009;-0.0039;
596394577335118;0.0011;0.0031;-0.0039;
596394587441472;0.0011;0.0020;-0.0039;
596394597546472;0.0000;0.0020;-0.0039;
596394607651472;0.0021;-0.0001;-0.0039;
596394617752461;0.0011;-0.0001;-0.0049;
596394627857461;-0.0021;-0.0001;-0.0060;
596394637962461;-0.0117;-0.0012;-0.0060;
596394648069493;-0.0128;-0.0001;-0.0081;
596394658174545;-0.0107;0.0009;-0.0092;
596394668279545;-0.0128;0.0009;-0.0092;
596394678435066;-0.0117;0.0020;-0.0081;
596394688540118;-0.0213;0.0009;-0.0092;
596394698645118;-0.0245;-0.0001;-0.0103;
596394708684701;-0.0192;0.0009;-0.0081;
596394718789701;-0.0170;0.0009;-0.0081;
596394728894701;-0.0149;0.0020;-0.0071;
596394739058086;-0.0170;0.0009;-0.0092;
596394749163139;-0.0138;-0.0001;-0.0071;
596394759268139;-0.0128;-0.0012;-0.0039;
596394769326524;-0.0117;-0.0023;-0.0028;
596394779431576;-0.0085;-0.0012;-0.0028;
596394789536576;-0.0075;-0.0001;-0.0039;
596394799647409;-0.0085;-0.0012;-0.0028;
596394809752409;-0.0107;-0.0023;-0.0017;
596394819857409;-0.0138;-0.0023;-0.0007;
596394829985274;-0.0160;-0.0001;-0.0017;
596394840090326;-0.0128;-0.0012;-0.0007;
596394850195326;-0.0117;-0.0012;0.0004;
596394860278711;-0.0075;-0.0012;0.0004;
596394870383711;-0.0032;-0.0012;0.0025;
596394880488711;-0.0032;-0.0012;0.0025;
596394890612149;-0.0011;-0.0012;0.0036;
596394900717201;-0.0032;-0.0012;0.0036;
596394910822201;-0.0043;-0.0012;0.0057;
596394920934441;0.0011;0.0020;0.0047;
596394931039493;0.0149;0.0063;0.0015;
596394941144493;0.0064;0.0031;0.0015;
596394951221784;0.0011;0.0009;-0.0017;
596394961326784;-0.0075;-0.0023;-0.0028;
596394971431784;-0.0170;-0.0055;-0.0039;
596394981536055;-0.0202;-0.0033;-0.0071;
596394991641055;-0.0160;0.0009;-0.0103;
596395001746055;-0.0149;0.0020;-0.0113;
596395011856836;-0.0149;0.0031;-0.0134;
596395021961889;-0.0202;0.0020;-0.0145;
596395032066889;-0.0320;-0.0012;-0.0156;
596395042173607;-0.0437;-0.0044;-0.0188;
596395052278659;-0.0469;-0.0044;-0.0166;
596395062383659;-0.0415;-0.0012;-0.0166;
596395072481159;-0.0330;0.0020;-0.0177;
596395082586159;-0.0256;0.0052;-0.0177;
596395092691159;-0.0320;0.0041;-0.0177;
596395102792930;-0.0309;0.0020;-0.0198;
