Sensor: bmi160 Gyroscope Non-wakeup
Vendor: BOSCH
TimestampGyro [ns]; GyroX [rad/s]; GyroY [rad/s]; GyroZ [rad/s]
1180859525078980;0.0075;0.0087;-0.0405;
1180859535164084;0.0117;0.0033;-0.0490;
1180859545271220;0.0117;0.0055;-0.0447;
1180859555357834;0.0117;0.0087;-0.0458;
1180859565440126;0.0117;0.0087;-0.0479;
1180859575565855;0.0107;0.0087;-0.0469;
1180859585656584;0.0096;0.0097;-0.0447;
1180859595764084;0.0107;0.0097;-0.0426;
1180859605860438;0.0117;0.0087;-0.0426;
1180859615986636;0.0117;0.0076;-0.0426;
1180859626061740;0.0075;0.0065;-0.0394;
1180859636160282;0.0075;0.0055;-0.0373;
1180859646257678;0.0075;0.0055;-0.0341;
1180859656377261;0.0075;0.0065;-0.0341;
1180859666482001;0.0064;0.0076;-0.0320;
1180859676611272;0.0053;0.0076;-0.0309;
1180859686667626;0.0021;0.0076;-0.0266;
1180859696789136;0.0021;0.0065;-0.0234;
1180859706878147;0.0053;0.0055;-0.0234;
1180859716978876;0.0043;0.0055;-0.0192;
1180859727064345;0.0043;0.0033;-0.0170;
1180859737176480;0.0053;0.0023;-0.0149;
1180859747272886;0.0021;0.0012;-0.0117;
1180859757383303;0.0011;0.0023;-0.0085;
1180859767482990;-0.0011;0.0001;-0.0032;
1180859777605438;-0.0032;0.0001;0.0021;
1180859787685595;-0.0043;0.0001;0.0064;
1180859797787782;-0.0075;0.0001;0.0117;
1180859807893303;-0.0085;-0.0020;0.0192;
1180859818000022;-0.0096;-0.0052;0.0245;
1180859828089553;-0.0107;-0.0095;0.0309;
1180859838206167;-0.0128;-0.0126;0.0405;
1180859848293615;-0.0149;-0.0137;0.0479;
1180859858394761;-0.0160;-0.0148;0.0565;
1180859868502886;-0.0181;-0.0190;0.0650;
1180859878600074;-0.0192;-0.0233;0.0756;
1180859888706063;-0.0245;-0.0254;0.0863;
1180859898806115;-0.0288;-0.0286;0.0991;
1180859908907470;-0.0362;-0.0297;0.1129;
1180859919015126;-0.0426;-0.0286;0.1310;
1180859929112990;-0.0479;-0.0286;0.1481;
1180859939230855;-0.0533;-0.0297;0.1694;
1180859949317053;-0.0575;-0.0340;0.1896;
1180859959413407;-0.0627;-0.0425;0.2099;
1180859969522417;-0.0680;-0.0499;0.2258;
1180859979617990;-0.0691;-0.0574;0.2429;
1180859989720699;-0.0723;-0.0638;0.2589;
1180859999828928;-0.0766;-0.0638;0.2727;
1180860009923928;-0.0808;-0.0627;0.2834;
1180860020025074;-0.0830;-0.0627;0.2919;
1180860030128042;-0.0872;-0.0638;0.2983;
1180860040226532;-0.0883;-0.0627;0.3025;
1180860050356584;-0.0883;-0.0627;0.3015;
1180860060434084;-0.0904;-0.0659;0.3015;
1180860070540542;-0.0904;-0.0648;0.2972;
1180860080635959;-0.0904;-0.0638;0.2908;
1180860090736272;-0.0872;-0.0617;0.2844;
1180860100840542;-0.0819;-0.0595;0.2780;
1180860110941272;-0.0819;-0.0563;0.2674;
1180860121052938;-0.0744;-0.0553;0.2578;
1180860131143251;-0.0766;-0.0574;0.2461;
1180860141245542;-0.0734;-0.0510;0.2344;
1180860151343563;-0.0712;-0.0457;0.2216;
1180860161459709;-0.0691;-0.0446;0.2099;
1180860171544136;-0.0670;-0.0403;0.2003;
1180860181664397;-0.0659;-0.0361;0.1907;
1180860191750595;-0.0638;-0.0372;0.1800;
1180860201855438;-0.0617;-0.0372;0.1704;
1180860211955438;-0.0607;-0.0350;0.1640;
1180860222059605;-0.0607;-0.0340;0.1587;
1180860232159917;-0.0575;-0.0318;0.1491;
1180860242265542;-0.0586;-0.0286;0.1406;
1180860252371897;-0.0565;-0.0254;0.1374;
1180860262458824;-0.0554;-0.0254;0.1278;
1180860272560959;-0.0554;-0.0254;0.1182;
1180860282663042;-0.0533;-0.0222;0.1108;
1180860292774084;-0.0522;-0.0201;0.1023;
1180860302865386;-0.0501;-0.0201;0.0937;
1180860312965647;-0.0469;-0.0190;0.0842;
1180860323085438;-0.0447;-0.0158;0.0746;
1180860333169501;-0.0415;-0.0137;0.0660;
1180860343275542;-0.0394;-0.0116;0.0586;
1180860353371897;-0.0330;-0.0095;0.0490;
1180860363480126;-0.0170;-0.0084;0.0437;
1180860373575542;0.0170;-0.0084;0.0405;
1180860383672990;0.0650;-0.0105;0.0383;
1180860393782834;0.1225;-0.0137;0.0405;
1180860403885751;0.1843;-0.0169;0.0426;
1180860414005855;0.2152;-0.0244;0.0415;
1180860424091688;0.2045;-0.0340;0.0469;
1180860434184032;0.2706;-0.0297;0.0522;
1180860444287157;0.3888;-0.0233;0.0692;
1180860454402626;0.5284;-0.0233;0.0884;
1180860464485595;0.6710;-0.0276;0.1065;
1180860474585074;0.8169;-0.0467;0.1246;
1180860484693042;1.0012;-0.0627;0.1513;
1180860494785647;1.1971;-0.0723;0.1864;
1180860504892157;1.4453;-0.0691;0.2194;
1180860514988824;1.6540;-0.0670;0.2471;
1180860525093615;1.5390;-0.1138;0.2429;
1180860535198407;0.9469;-0.1980;0.1811;
1180860545297470;0.1939;-0.2214;0.1395;
1180860555413980;-0.1117;-0.1426;0.1236;
1180860565467001;-0.0627;-0.0702;0.1246;
1180860575620022;-0.0064;-0.0031;0.1087;
1180860585697938;0.0810;0.0758;0.0756;
1180860595817678;0.1481;0.0885;0.0650;
1180860605943876;0.2045;0.0395;0.0714;
1180860616025230;0.2812;0.0012;0.0799;
1180860626117886;0.3537;-0.0052;0.0724;
1180860636209240;0.3686;-0.0158;0.0586;
1180860646329345;0.3451;-0.0308;0.0639;
1180860656422053;0.3569;-0.0148;0.0778;
1180860666528980;0.3590;-0.0095;0.0650;
1180860676652261;0.3355;-0.0169;0.0469;
1180860686708355;0.3206;-0.0201;0.0458;
1180860696841897;0.3196;-0.0318;0.0511;
1180860706917938;0.3462;-0.0244;0.0501;
1180860717025126;0.3579;0.0033;0.0501;
1180860727144345;0.3377;0.0076;0.0479;
1180860737222678;0.2972;-0.0148;0.0394;
1180860747334709;0.2897;-0.0126;0.0288;
1180860757434084;0.3132;0.0140;0.0288;
1180860767538459;0.3292;0.0193;0.0405;
1180860777662209;0.3153;-0.0425;0.0565;
1180860787740334;0.3462;-0.0744;0.0660;
1180860797837678;0.4208;-0.0308;0.0746;
1180860807955647;0.4634;-0.0158;0.0756;
1180860818029709;0.4932;-0.0276;0.0767;
1180860828130595;0.5443;0.0182;0.0863;
1180860838262313;0.5369;0.0630;0.1076;
1180860848341636;0.4431;0.0470;0.1140;
1180860858446011;0.3995;0.0161;0.1150;
1180860868555230;0.3952;-0.0403;0.1182;
1180860878647990;0.3537;-0.0904;0.1214;
1180860888747574;0.2130;-0.0617;0.1150;
1180860898859292;-0.0170;0.0172;0.1193;
1180860908950595;-0.1043;0.0811;0.1161;
1180860919055178;-0.1788;0.0438;0.1097;
1180860929161688;-0.2715;-0.0393;0.1055;
1180860939258199;-0.3738;-0.0180;0.0863;
1180860949360751;-0.5282;0.0044;0.0682;
1180860959460282;-0.6475;-0.0350;0.0426;
1180860969557365;-0.7358;-0.0308;0.0213;
1180860979661897;-0.8093;-0.0020;0.0202;
1180860989765803;-0.8839;0.0161;0.0138;
1180860999867782;-0.9542;0.0300;-0.0181;
1180861009966636;-0.9723;0.0193;-0.0648;
1180861020073876;-1.0011;0.0001;-0.1011;
1180861030174917;-1.0170;-0.0084;-0.0947;
1180861040269136;-0.9808;0.0395;-0.0883;
1180861050366115;-0.9158;0.0991;-0.1075;
1180861060481167;-0.8338;0.0172;-0.1447;
1180861070593042;-0.7337;-0.0393;-0.1724;
1180861080680751;-0.6550;0.0161;-0.1533;
1180861090781167;-0.5506;0.0438;-0.1330;
1180861100891167;-0.4025;0.0449;-0.1426;
1180861110988251;-0.2577;0.0289;-0.1597;
1180861121092938;-0.1192;-0.0158;-0.1554;
1180861131194397;-0.0330;0.0023;-0.1352;
1180861141292626;0.0905;0.0843;-0.1192;
1180861151397209;0.2365;0.0959;-0.1245;
1180861161492522;0.3132;-0.0201;-0.1320;
1180861171595542;0.4815;-0.0446;-0.1053;
1180861181705230;0.6571;0.0161;-0.0723;
1180861191803511;0.7487;0.0150;-0.0766;
1180861201899188;0.7477;0.0236;-0.0893;
1180861211998095;0.6699;0.0257;-0.0787;
1180861222110595;0.6134;-0.0244;-0.0734;
1180861232212209;0.5879;-0.0105;-0.0798;
1180861242305230;0.5007;0.0672;-0.0723;
1180861252467782;0.3483;0.0864;-0.0723;
1180861262510542;0.2312;-0.0116;-0.0798;
1180861272603928;0.2439;-0.0425;-0.0936;
1180861282709970;0.3558;-0.0276;-0.0979;
1180861292801167;0.4570;-0.0680;-0.0925;
1180861302910074;0.5612;-0.1096;-0.0787;
1180861313014084;0.6635;-0.0222;-0.0575;
1180861323140855;0.6795;0.0619;-0.0501;
1180861333235855;0.4431;-0.0190;-0.0680;
1180861343323095;0.1523;0.0140;-0.1000;
1180861353424917;0.0415;0.1672;-0.1320;
1180861363520178;-0.0734;0.0843;-0.1224;
1180861373622730;-0.2001;-0.0169;-0.1245;
1180861383726584;-0.2438;0.0321;-0.1863;
1180861393824449;-0.3770;0.0385;-0.2225;
1180861403927834;-0.5868;0.0225;-0.2118;
1180861414045542;-0.6740;-0.0084;-0.2374;
1180861424130542;-0.6740;-0.0648;-0.3067;
1180861434235230;-0.7017;-0.0414;-0.3386;
1180861444331845;-0.7880;0.0140;-0.3397;
1180861454449553;-0.8636;0.0672;-0.3652;
1180861464535490;-0.8956;0.1459;-0.4302;
1180861474634397;-0.9052;0.1353;-0.4622;
1180861484739761;-0.8881;0.1214;-0.4537;
1180861494865647;-0.7859;0.0651;-0.4569;
1180861504941063;-0.5730;-0.0009;-0.4696;
1180861515036011;-0.3567;0.0502;-0.4228;
1180861525141636;-0.2001;0.0948;-0.4324;
1180861535251376;-0.0989;0.0896;-0.4462;
1180861545343980;-0.0586;0.1864;-0.3791;
1180861555441949;0.0213;0.2738;-0.3610;
1180861565541220;0.1459;0.1917;-0.4015;
1180861575637574;0.3366;0.1651;-0.3375;
1180861585734032;0.6390;0.2535;-0.2566;
1180861595891688;0.9447;0.2407;-0.2481;
1180861605988147;1.1651;0.1704;-0.2182;
1180861616084553;1.3430;0.1481;-0.1746;
1180861626142574;1.5379;0.0969;-0.1660;
1180861636239032;1.5656;0.0609;-0.1394;
1180861646335438;1.5635;-0.0233;-0.0957;
1180861656463459;1.5134;-0.1511;-0.1170;
1180861666559917;1.3877;-0.1213;-0.1234;
1180861676656324;1.1747;-0.1043;-0.1011;
1180861686780438;0.9991;-0.1788;-0.1117;
1180861696876897;0.8787;-0.1245;-0.1543;
1180861706973303;0.7626;-0.1096;-0.1511;
1180861717065126;0.7232;-0.0723;-0.1298;
1180861727161584;0.6976;0.0161;-0.1426;
1180861737258042;0.6209;0.0332;-0.1447;
1180861747364032;0.6433;-0.0403;-0.1128;
1180861757460490;0.7349;-0.1383;-0.0808;
1180861767556949;0.8542;-0.1426;-0.0458;
1180861777699032;0.9330;-0.0925;0.0053;
1180861787795438;0.9948;-0.1202;0.0213;
1180861797891897;1.0587;-0.1447;0.0458;
1180861807985386;1.1397;-0.0808;0.0767;
1180861818081845;1.1971;-0.0403;0.1118;
1180861828178303;1.1683;-0.0883;0.1278;
1180861838293199;1.0971;-0.0606;0.1129;
1180861848389657;1.0406;-0.0510;0.1087;
1180861858486115;0.9756;-0.0979;0.1332;
1180861868595803;0.8797;-0.0617;0.0895;
1180861878692261;0.7359;-0.0531;0.0618;
1180861888788720;0.6220;-0.0606;0.0607;
1180861898905230;0.5506;-0.0521;0.0533;
1180861909001636;0.4399;-0.0723;0.0330;
1180861919098095;0.3057;-0.1213;0.0107;
1180861929206792;0.2834;-0.1107;-0.0128;
1180861939303199;0.2642;-0.1543;-0.0160;
1180861949399657;0.2099;-0.1810;0.0096;
1180861959510074;0.1310;-0.1341;0.0245;
1180861969606532;0.1459;-0.0979;0.0117;
1180861979702990;0.2003;-0.1011;-0.0224;
1180861989816115;0.1310;-0.0936;-0.0021;
1180861999912574;0.0948;-0.1256;0.0628;
1180862010009032;0.2045;-0.0680;0.0650;
1180862020119397;0.2780;0.0076;0.0586;
1180862030215803;0.2759;-0.0691;0.0905;
1180862040312261;0.3089;-0.0979;0.1321;
1180862050424605;0.3068;0.0257;0.1140;
1180862060521011;0.2908;0.0065;0.1225;
1180862070617470;0.2929;-0.1117;0.2013;
1180862080728355;0.2812;-0.0542;0.1726;
1180862090824761;0.2727;0.0023;0.1491;
1180862100921220;0.2418;-0.1202;0.2418;
1180862111034292;0.2344;-0.1160;0.2674;
1180862121130699;0.2759;0.0577;0.2450;
1180862131227157;0.1885;0.1172;0.2248;
1180862141339084;-0.0256;-0.0297;0.2770;
1180862151435490;-0.1160;-0.0862;0.2961;
1180862161531949;-0.2097;0.0076;0.2514;
1180862171645022;-0.4462;-0.0531;0.2493;
1180862181741428;-0.5346;-0.0531;0.2344;
1180862191837886;-0.6507;0.0534;0.1534;
1180862201950542;-0.9020;0.0364;0.1577;
1180862212046949;-1.0128;0.0214;0.1459;
1180862222143407;-1.0245;0.1609;0.1001;
1180862232255751;-1.1204;0.1992;0.0224;
1180862242352157;-1.1864;0.2184;-0.0053;
1180862252448615;-1.2960;0.2493;-0.0170;
1180862262548199;-1.3524;0.1811;-0.0170;
1180862272644657;-1.3524;0.1300;-0.0447;
1180862282741115;-1.3812;0.0246;-0.0565;
1180862292894709;-1.3386;0.0268;-0.0862;
1180862302991167;-1.2535;0.0033;-0.1043;
1180862313087574;-1.1449;-0.0989;-0.1309;
1180862323190438;-1.0042;-0.0563;-0.0755;
1180862333286845;-0.8232;0.0747;-0.0458;
1180862343383303;-0.7901;0.1417;-0.0469;
1180862353479188;-0.6772;0.1523;-0.0766;
1180862363575595;-0.5687;0.1459;-0.0872;
1180862373672053;-0.4877;0.2535;-0.0170;
1180862383765334;-0.4228;0.2397;0.0170;
1180862393861792;-0.3802;0.1012;0.0075;
1180862403958251;-0.3716;0.1566;0.0075;
1180862414104032;-0.2662;0.1704;-0.0096;
1180862424200490;-0.2481;0.0129;0.0202;
1180862434296897;-0.2023;0.0214;0.0810;
1180862444376792;-0.1447;0.1012;0.1172;
1180862454473251;-0.1511;0.0768;0.1076;
1180862464569709;-0.1245;0.0779;0.0703;
1180862474681845;-0.1522;0.1065;0.0948;
1180862484778303;-0.1927;0.1065;0.1342;
1180862494874761;-0.1831;0.1683;0.1385;
1180862504989449;-0.2427;0.2216;0.1470;
1180862515085907;-0.2566;0.2045;0.1140;
1180862525182365;-0.3397;0.2152;0.1246;
1180862535291949;-0.3961;0.2418;0.0927;
1180862545388407;-0.4302;0.2290;0.0682;
1180862555484865;-0.5399;0.1427;0.0565;
1180862565593355;-0.5783;0.1502;0.0330;
1180862575689761;-0.6465;0.1779;0.0405;
1180862585786167;-0.6678;0.1268;0.0107;
1180862595943720;-0.6740;0.1172;-0.0075;
1180862606044605;-0.6688;0.1917;-0.0415;
1180862616145490;-0.6688;0.1204;-0.0670;
1180862626197417;-0.7188;-0.0254;-0.0712;
1180862636298303;-0.7465;-0.0691;-0.0936;
1180862646399188;-0.7688;-0.1863;-0.1724;
1180862656514761;-0.6113;-0.1714;-0.1671;
1180862666615699;-0.4068;0.0417;-0.1053;
1180862676716532;-0.2044;0.1449;-0.0648;
1180862686840074;-0.0808;0.0948;-0.0723;
1180862696940959;-0.0170;0.1225;-0.0755;
1180862707041845;0.0320;0.1747;-0.0691;
1180862717130959;0.0810;0.1736;-0.0373;
1180862727231845;0.0128;0.1108;-0.0245;
1180862737332678;-0.0288;-0.0627;-0.0383;
1180862747419813;-0.1256;-0.1256;-0.0373;
1180862757520699;-0.1746;-0.0851;-0.0011;
1180862767621584;-0.2193;-0.0776;-0.0330;
1180862777750647;-0.1852;-0.0435;-0.0638;
1180862787851480;-0.1778;0.0140;-0.0405;
1180862797952365;-0.1501;0.1459;0.0032;
1180862808042990;-0.1469;0.1214;-0.0032;
1180862818143876;-0.2055;0.0969;-0.0373;
1180862828244761;-0.2438;0.1651;-0.0734;
1180862838339813;-0.2747;0.1758;-0.0648;
1180862848440699;-0.2822;0.1640;-0.0415;
1180862858541532;-0.2843;0.0832;-0.0554;
1180862868646688;-0.2843;0.0651;-0.0808;
1180862878747574;-0.2875;0.0108;-0.0840;
1180862888848459;-0.2630;0.0119;-0.0734;
1180862898955647;-0.2502;0.0758;-0.0680;
1180862909056532;-0.2395;0.0619;-0.0830;
1180862919157417;-0.2118;-0.0158;-0.0947;
1180862929261688;-0.2459;0.0321;-0.0776;
1180862939362574;-0.2491;0.0916;-0.0691;
1180862949463459;-0.2395;0.0182;-0.0872;
1180862959554709;-0.2811;-0.1437;-0.0575;
1180862969655595;-0.3365;-0.1362;-0.0426;
1180862979756480;-0.2853;0.0342;-0.0543;
1180862989860230;-0.2704;0.1182;-0.0298;
1180862999961115;-0.2726;0.1332;0.0096;
1180863010062001;-0.2843;0.2695;0.0011;
1180863020166480;-0.2417;0.3728;-0.0043;
1180863030267365;-0.2257;0.2823;-0.0107;
1180863040368251;-0.2885;0.1747;0.0170;
1180863050490022;-0.4142;0.1587;0.0405;
1180863060590855;-0.4675;0.1268;-0.0064;
1180863070691740;-0.4686;0.0374;-0.0501;
1180863080779605;-0.5495;-0.0041;-0.0691;
1180863090880490;-0.6113;0.0225;-0.0415;
1180863100981324;-0.6007;-0.0308;-0.0458;
1180863111085438;-0.6102;0.0150;-0.1053;
1180863121186324;-0.5857;0.2791;-0.1245;
1180863131287157;-0.4909;0.5529;-0.1064;
1180863141392834;-0.3152;0.4666;-0.1192;
1180863151493720;-0.3674;0.3270;-0.1469;
1180863161594553;-0.6230;0.1875;-0.2129;
1180863171692834;-0.8114;0.0001;-0.2534;
1180863181793667;-0.7667;0.0332;-0.2917;
1180863191894553;-0.6751;0.1225;-0.3226;
1180863201994240;-0.5623;0.0310;-0.3610;
1180863212095126;-0.4654;-0.0286;-0.3546;
1180863222196011;-0.3951;0.0193;-0.3344;
1180863232300490;-0.2981;0.0587;-0.3184;
1180863242401376;-0.1991;0.0374;-0.3312;
1180863252502209;-0.0394;0.1129;-0.2907;
1180863262605751;0.1896;0.3920;-0.2683;
1180863272706636;0.3824;0.5390;-0.2363;
1180863282807522;0.3483;0.3047;-0.2417;
1180863292934813;0.1427;-0.0116;-0.2694;
1180863303035699;-0.0064;-0.0499;-0.3130;
1180863313136584;0.0277;0.0172;-0.2885;
1180863323232157;0.0522;-0.0499;-0.2960;
1180863333333042;0.1001;-0.1660;-0.2672;
1180863343433928;0.1768;-0.0201;-0.2630;
1180863353518147;0.2961;0.1225;-0.2193;
1180863363618980;0.4112;-0.0095;-0.1692;
1180863373719865;0.5124;0.0076;-0.1373;
1180863383826584;0.6028;0.2482;-0.0447;
1180863393927470;0.7242;0.1971;-0.0597;
1180863404028303;0.6869;0.0161;-0.0032;
1180863414143563;0.5730;-0.2214;0.0064;
1180863424244449;0.4804;-0.2044;0.0405;
1180863434345282;0.3600;-0.3418;0.0298;
1180863444440022;0.3579;-0.2907;0.0383;
1180863454540907;0.2770;-0.0308;0.0650;
1180863464641740;0.3313;0.0800;0.0458;
1180863474736792;0.3877;0.0672;0.0756;
1180863484837678;0.2983;0.0523;0.0628;
1180863494938563;0.2748;0.0417;0.0703;
1180863505045334;0.1694;-0.0329;0.0415;
1180863515146220;0.0703;-0.1607;0.0277;
1180863525247105;-0.0160;-0.1937;-0.0192;
1180863535352626;-0.0565;-0.1501;-0.0394;
1180863545453511;-0.0362;-0.2257;-0.0659;
1180863555554397;-0.1053;-0.2704;-0.0819;
1180863565638303;-0.2033;-0.1277;-0.1511;
1180863575739136;-0.2353;0.0214;-0.1799;
1180863585840022;-0.0309;-0.0201;-0.2225;
1180863595981845;0.0522;-0.0989;-0.2097;
1180863606083199;0.0245;-0.0372;-0.2118;
1180863616184449;0.0746;-0.0222;-0.2363;
1180863626252782;0.1214;-0.0297;-0.2385;
1180863636354084;0.1001;-0.1501;-0.2289;
1180863646455386;0.0703;-0.1234;-0.2055;
1180863656612105;0.0873;-0.0915;-0.1905;
1180863666713407;0.1758;-0.0904;-0.1778;
1180863676814761;0.1459;-0.1213;-0.1415;
1180863686879970;0.2003;-0.1394;-0.1426;
1180863696981272;0.2109;-0.1277;-0.1202;
1180863707082574;0.2684;-0.1138;-0.1213;
1180863717167470;0.3355;-0.0084;-0.0458;
1180863727268772;0.3590;0.0161;-0.0043;
1180863737370074;0.3877;-0.0808;-0.0096;
1180863747478720;0.2876;-0.0893;-0.0011;
1180863757580022;0.1960;0.0076;0.0266;
1180863767681324;0.1726;0.0545;0.0597;
1180863777804970;0.1140;0.0214;0.0458;
1180863787906272;0.0746;-0.0308;0.0256;
1180863798007574;0.0288;0.0609;0.0288;
1180863808094605;-0.0192;0.0481;0.0170;
1180863818195855;-0.0064;0.0076;0.0341;
1180863828297157;-0.1330;-0.0020;0.0032;
1180863838393251;-0.1852;-0.0435;-0.0511;
1180863848494501;-0.2193;-0.0414;-0.0744;
1180863858595855;-0.2822;-0.0148;-0.0830;
1180863868697365;-0.2587;-0.0318;-0.1011;
1180863878798720;-0.2651;0.0726;-0.1469;
1180863888899970;-0.2417;0.1406;-0.1863;
1180863899010230;-0.1160;0.1481;-0.2023;
1180863909111532;0.0011;0.1513;-0.1778;
1180863919212834;0.0831;0.1566;-0.1980;
1180863929310959;0.0948;0.1715;-0.2268;
1180863939412261;0.1097;0.0566;-0.2566;
1180863949513563;0.1427;-0.0169;-0.2651;
1180863959610022;0.1182;-0.0254;-0.2523;
1180863969711376;0.1374;-0.0265;-0.2481;
1180863979812678;0.1630;-0.0510;-0.2577;
1180863989917678;0.2450;-0.0521;-0.2523;
1180864000018980;0.2855;0.0108;-0.2662;
1180864010120334;0.3782;0.0140;-0.2502;
1180864020226272;0.4815;-0.0446;-0.1927;
1180864030327574;0.4836;-0.0063;-0.1991;
1180864040428876;0.5527;0.0502;-0.1863;
1180864050565803;0.5815;0.0193;-0.1767;
1180864060667105;0.6049;-0.0244;-0.1479;
1180864070768407;0.6347;-0.0265;-0.1032;
1180864080841584;0.6539;0.0129;-0.0787;
1180864090942886;0.6529;-0.0084;-0.0819;
1180864101044188;0.6539;0.0395;-0.0734;
1180864111147417;0.6092;0.0491;-0.0352;
1180864121248720;0.5527;-0.0403;-0.0096;
1180864131350022;0.4815;-0.0925;-0.0032;
1180864141449397;0.4325;-0.0872;-0.0043;
1180864151550699;0.3611;-0.0435;-0.0011;
1180864161652001;0.2993;-0.0734;-0.0053;
1180864171754188;0.3110;-0.0254;-0.0043;
1180864181855490;0.2951;0.0204;-0.0138;
1180864191956792;0.3068;-0.0084;-0.0320;
1180864202059397;0.3110;-0.0244;0.0117;
1180864212160699;0.3089;-0.0308;0.0288;
1180864222261949;0.3217;-0.0116;0.0053;
1180864232362938;0.3153;-0.0425;-0.0096;
1180864242464240;0.3270;-0.1075;0.0021;
1180864252565490;0.3430;-0.0457;0.0138;
1180864262661636;0.4048;0.0406;0.0277;
1180864272762938;0.4059;-0.0084;0.0352;
1180864282864240;0.4431;0.0023;0.0522;
1180864292978407;0.4740;0.0630;0.0213;
1180864303079709;0.4879;0.0300;0.0511;
1180864313181011;0.4453;-0.0095;0.0820;
1180864323295230;0.4293;-0.0350;0.1076;
1180864333396480;0.4698;-0.0126;0.0948;
1180864343497834;0.4857;-0.0126;0.1044;
1180864353577157;0.4421;0.0140;0.1353;
1180864363678459;0.4453;0.0161;0.1534;
1180864373779761;0.4581;-0.0009;0.1491;
1180864383896011;0.4208;-0.0425;0.1523;
1180864393997313;0.3696;-0.0787;0.1875;
1180864404098615;0.3664;-0.0116;0.2056;
1180864414200907;0.3483;0.0395;0.2045;
1180864424302209;0.3313;0.0364;0.1949;
1180864434403511;0.3206;-0.0126;0.2045;
1180864444489605;0.3387;0.0289;0.2258;
1180864454590907;0.3217;0.1204;0.2077;
1180864464692261;0.3015;0.1001;0.2280;
1180864474797626;0.2290;-0.0510;0.2631;
1180864484898928;0.1736;-0.0457;0.2610;
1180864495000178;0.1715;-0.0851;0.2035;
1180864505103459;0.1332;-0.1075;0.1907;
1180864515204761;0.0980;0.0182;0.1949;
1180864525306011;0.0895;0.0150;0.2226;
1180864535415074;-0.0011;-0.0659;0.2525;
1180864545516324;-0.0383;-0.0489;0.1917;
1180864555617626;-0.0107;0.0459;0.1619;
1180864565731167;-0.0893;0.0662;0.1619;
1180864575832417;-0.1959;0.0001;0.1683;
1180864585933667;-0.2342;-0.0478;0.1491;
1180864596034970;-0.2033;-0.0286;0.1236;
1180864606101376;-0.2172;0.0182;0.1236;
1180864616202626;-0.2726;0.0236;0.0927;
1180864626303824;-0.2300;-0.0084;0.0714;
1180864636417522;-0.2001;0.0321;0.0586;
1180864646518772;-0.2161;-0.0084;0.0224;
1180864656619970;-0.2715;-0.0808;0.0501;
1180864666728928;-0.2427;-0.1767;0.0586;
1180864676830178;-0.0883;-0.0617;0.0266;
1180864686931324;0.0011;0.0640;-0.0575;
1180864697041845;-0.0224;0.0630;-0.0256;
1180864707143042;-0.0117;0.0182;0.0266;
1180864717244240;0.0543;-0.0126;0.0256;
1180864727333772;0.0980;0.0332;-0.0245;
1180864737434970;0.0682;-0.0276;-0.0256;
1180864747536167;0.0852;0.0023;-0.0224;
1180864757638303;0.1118;0.0406;0.0021;
1180864767739553;0.1129;0.0449;0.0309;
1180864777840751;0.1300;0.0321;0.0415;
1180864787941636;0.0937;0.0119;0.0458;
1180864798042886;0.1140;0.0481;0.0458;
1180864808144084;0.1001;0.1033;0.0692;
1180864818267782;0.0597;0.0182;0.1087;
1180864828368980;0.0746;-0.0180;0.1278;
1180864838470178;0.0937;0.0321;0.1523;
1180864848546480;0.0575;-0.0467;0.1289;
1180864858647678;0.1087;-0.0489;0.1545;
1180864868748876;0.1577;0.0587;0.1630;
1180864878879240;0.0831;-0.0137;0.1736;
1180864888980490;0.0628;-0.0414;0.1502;
1180864899081636;0.0969;0.0470;0.1363;
1180864909162105;0.1033;0.1001;0.1406;
1180864919263355;0.0266;-0.0244;0.1939;
1180864929364553;-0.0064;-0.1160;0.1992;
1180864939469501;0.0788;-0.0702;0.1534;
1180864949570699;0.1246;0.0087;0.1417;
1180864959671897;0.0522;0.0364;0.1822;
1180864969773511;0.0692;0.0278;0.1630;
1180864979874709;0.0810;0.0342;0.1087;
1180864989975959;0.0810;0.0150;0.1150;
1180865000084917;0.0362;-0.0340;0.1385;
1180865010186115;0.0660;-0.0531;0.1129;
1180865020287313;0.0788;-0.0169;0.1182;
1180865030391688;0.0948;-0.0180;0.1108;
1180865040492886;0.1129;0.0832;0.1534;
1180865050594084;0.1161;0.1140;0.1385;
1180865060695334;0.0373;-0.0340;0.1193;
1180865070796532;0.0916;-0.0446;0.1449;
1180865080897730;0.1033;0.0662;0.1395;
1180865090997522;0.0746;0.0449;0.0884;
1180865101098720;0.0533;0.0726;0.0873;
1180865111199917;0.0469;0.1332;0.1055;
1180865121301688;0.0288;0.0417;0.1310;
1180865131402886;-0.0320;-0.0446;0.1438;
1180865141504084;-0.0575;0.0076;0.1001;
1180865151603772;-0.0819;0.0321;0.0703;
1180865161704970;-0.1597;-0.0372;0.0884;
1180865171806167;-0.2172;-0.0744;0.1182;
1180865181921376;-0.1735;0.0321;0.0692;
1180865192022574;-0.1905;0.0427;0.0916;
1180865202123772;-0.3109;0.0161;0.1172;
1180865212217886;-0.2087;0.0662;0.0373;
1180865222319136;-0.1937;0.0811;0.0266;
1180865232420334;-0.2640;0.0161;0.0586;
1180865242521272;-0.2246;-0.0116;0.0650;
1180865252622470;-0.1383;0.0916;0.0533;
1180865262723667;-0.1053;0.1992;-0.0298;
1180865272812834;-0.0979;0.2322;-0.0277;
1180865282914084;-0.1224;0.1065;0.0160;
1180865293015230;-0.1415;-0.0329;0.0192;
1180865303121428;-0.0787;0.0087;0.0181;
1180865313222678;-0.0776;-0.0158;0.0341;
1180865323323876;-0.0776;-0.0286;0.0043;
1180865333429084;-0.0352;0.0332;-0.0096;
1180865343530334;-0.0309;0.0864;0.0011;
1180865353631532;-0.0362;0.0172;-0.0160;
1180865363754240;-0.0819;-0.1085;0.0096;
1180865373855438;-0.0798;-0.0872;-0.0117;
1180865383956636;-0.0565;-0.0254;-0.0426;
1180865394053772;-0.0627;0.0310;-0.0533;
1180865404154970;-0.0394;0.0257;-0.0511;
1180865414256167;-0.0213;0.0406;-0.0192;
1180865424352522;-0.0021;-0.0276;-0.0256;
1180865434453720;-0.0256;-0.0904;0.0096;
1180865444554917;-0.0554;-0.0979;-0.0277;
1180865454642261;-0.0691;-0.0648;-0.0469;
1180865464743511;-0.0627;-0.0712;-0.0479;
1180865474844709;-0.0096;-0.0180;-0.0712;
1180865484962313;-0.0128;0.0076;-0.0627;
1180865495063511;0.0362;0.0268;-0.0522;
1180865505164709;-0.0011;-0.0233;-0.0202;
1180865515260178;-0.0320;-0.0563;-0.0117;
1180865525361428;-0.0266;-0.0585;-0.0234;
1180865535462626;-0.0224;0.0214;-0.0533;
1180865545550490;-0.0181;0.0023;-0.0533;
1180865555651740;0.0096;0.0481;-0.0107;
1180865565752938;-0.0394;0.0108;0.0043;
1180865575906949;0.0053;-0.0308;-0.0437;
1180865586008199;-0.0160;0.0150;-0.0341;
1180865596109397;-0.0181;0.1289;-0.0469;
1180865606160855;-0.0107;0.1246;-0.0627;
1180865616262417;-0.0670;-0.0212;-0.0522;
1180865626363928;-0.1053;-0.0968;-0.0490;
1180865636490595;-0.0893;-0.0329;-0.0617;
1180865646592157;-0.0511;-0.0244;-0.0501;
1180865656693667;-0.0373;-0.1064;-0.0437;
1180865666773615;-0.0043;-0.1202;-0.0224;
1180865676875126;0.0224;-0.0499;-0.0202;
1180865686976688;0.0660;0.0236;-0.0064;
1180865697099865;0.0980;0.0417;-0.0213;
1180865707201428;0.0916;0.0726;0.0320;
1180865717302938;0.0820;0.0321;0.0256;
1180865727424865;0.0916;-0.0041;-0.0085;
1180865737526376;0.0660;0.0726;-0.0011;
1180865747627938;0.0469;0.0108;0.0256;
1180865757697938;0.0607;-0.0435;0.0479;
1180865767799449;0.0021;0.0065;0.0937;
1180865777901011;0.0298;0.0044;0.0170;
1180865788020178;0.0128;-0.0723;0.0373;
1180865798121688;-0.0405;-0.1490;0.0447;
1180865808223251;-0.0298;-0.0883;0.0213;
1180865818320803;-0.0160;0.0033;0.0501;
1180865828422365;0.0075;0.0969;0.0831;
1180865838523876;0.0224;0.1055;0.0778;
1180865848617417;0.0096;0.0790;0.0490;
1180865858718876;-0.0607;0.0406;0.0628;
1180865868820438;-0.0904;0.0076;0.0575;
1180865878933615;-0.1415;0.0246;0.0447;
1180865889035126;-0.1192;0.0225;0.0224;
1180865899136636;-0.1075;0.0534;0.0160;
1180865909223511;-0.1053;0.0779;-0.0075;
1180865919325022;-0.1277;-0.0595;0.0320;
1180865929426584;-0.1724;-0.1522;0.0298;
1180865939532782;-0.1703;-0.1192;0.0096;
1180865949634292;-0.1128;0.0140;-0.0256;
1180865959735855;-0.0617;0.0927;-0.0330;
1180865969845178;-0.0543;0.0609;-0.0021;
1180865979946688;-0.0554;0.0417;0.0043;
1180865990048251;-0.0543;-0.0158;0.0160;
1180866000141220;-0.0744;0.0044;-0.0160;
1180866010242730;-0.0597;-0.0073;-0.0256;
1180866020344292;-0.0597;-0.0382;-0.0192;
1180866030447053;-0.0309;0.0182;-0.0128;
1180866040548563;-0.0160;0.0182;-0.0648;
1180866050650126;-0.0117;0.0246;-0.0575;
1180866060763511;-0.0447;-0.0723;-0.0362;
1180866070865074;-0.0405;-0.1597;-0.0352;
1180866080966532;0.0053;-0.0393;-0.0712;
1180866091058615;0.0213;0.0822;-0.0597;
1180866101160126;0.0575;0.0800;-0.0362;
1180866111261688;0.0714;0.0087;-0.0117;
1180866121373355;0.0256;-0.0169;-0.0107;
1180866131474865;0.0096;-0.0180;-0.0234;
1180866141576428;0.0213;-0.0542;-0.0288;
1180866151665490;-0.0117;-0.0830;-0.0266;
1180866161767001;0.0000;-0.0489;-0.0234;
1180866171868563;0.0181;0.0119;0.0096;
1180866181983459;0.0107;0.0449;0.0288;
1180866192084970;0.0213;0.0182;-0.0181;
1180866202186532;-0.0075;-0.0169;-0.0138;
1180866212281115;-0.0181;-0.0382;-0.0128;
1180866222382626;-0.0309;-0.0254;-0.0085;
1180866232484188;-0.0277;-0.0105;-0.0053;
1180866242574761;-0.0597;-0.0968;0.0032;
1180866252676324;-0.0638;-0.0680;0.0096;
1180866262777834;-0.0648;0.0364;-0.0426;
1180866272879345;-0.0149;0.0875;-0.0288;
1180866282980855;-0.0245;0.0491;-0.0043;
1180866293082417;-0.0043;-0.0009;-0.0277;
1180866303190699;-0.0096;0.0534;-0.0394;
1180866313292261;-0.0064;0.1172;-0.0192;
1180866323393772;0.0075;0.0948;-0.0490;
1180866333503042;0.0085;0.0374;-0.0213;
1180866343604605;-0.0330;-0.0776;-0.0224;
1180866353706115;-0.0107;-0.0968;-0.0128;
1180866363801740;-0.0032;-0.0318;-0.0138;
1180866373903303;0.0277;0.0044;-0.0373;
1180866384004813;0.0160;0.0012;-0.0234;
1180866394104345;0.0298;0.0321;-0.0426;
1180866404205855;0.0352;0.0119;-0.0234;
1180866414307417;0.0202;-0.0680;0.0032;
1180866424410907;0.0170;-0.1064;0.0256;
1180866434512417;0.0021;-0.0435;-0.0362;
1180866444613980;0.0117;0.0577;-0.0755;
1180866454731636;0.0000;0.0683;-0.0288;
1180866464833147;0.0224;0.0065;-0.0437;
1180866474934657;0.0266;-0.0212;-0.0447;
1180866485022053;0.0181;0.0257;-0.0415;
1180866495123563;0.0447;0.0875;-0.0320;
1180866505225126;0.0554;0.0715;-0.0330;
1180866515313042;0.0565;0.0023;-0.0043;
1180866525414501;0.0181;-0.0222;-0.0373;
1180866535516063;-0.0160;-0.0126;-0.0202;
1180866545620178;-0.0053;-0.0393;0.0000;
1180866555721740;0.0234;0.0044;-0.0032;
1180866565823251;0.0245;0.0513;0.0160;
1180866576002261;0.0309;0.0513;-0.0170;
1180866586103824;0.0213;0.0055;-0.0181;
1180866596205334;-0.0096;-0.0212;-0.0213;
1180866606242522;-0.0138;-0.0137;-0.0224;
1180866616344292;-0.0362;0.0268;-0.0479;
1180866626446063;-0.0469;-0.0329;-0.0288;
1180866636603772;-0.0160;0.0140;-0.0362;
1180866646705595;-0.0032;-0.0201;-0.0213;
1180866656807365;0.0000;-0.0233;-0.0160;
1180866666857261;0.0245;-0.0158;-0.0128;
1180866676959032;0.0138;-0.0148;0.0181;
1180866687060803;0.0170;-0.0393;-0.0021;
1180866697159605;0.0256;0.0001;-0.0053;
1180866707261428;0.0096;0.0076;-0.0096;
1180866717363199;0.0170;-0.0382;-0.0107;
1180866727434292;0.0064;-0.0063;-0.0053;
1180866737536011;0.0234;0.0758;-0.0277;
1180866747637834;0.0437;0.1087;-0.0298;
1180866757749084;0.0043;0.0353;-0.0011;
1180866767850803;-0.0138;-0.0670;0.0000;
1180866777952626;-0.0107;-0.0233;0.0224;
1180866788065178;0.0096;0.0651;0.0032;
1180866798167001;0.0309;0.1129;0.0032;
1180866808268772;0.0309;0.0758;-0.0128;
1180866818379136;0.0021;-0.0063;0.0320;
1180866828480907;-0.0117;-0.0137;0.0341;
1180866838582678;-0.0075;0.0119;0.0234;
1180866848664345;0.0043;0.0193;-0.0128;
1180866858766115;0.0309;0.0598;0.0309;
1180866868867886;0.0394;0.0534;0.0330;
1180866879011428;0.0288;0.0481;0.0138;
1180866889113199;-0.0064;0.0033;-0.0352;
1180866899214970;-0.0149;-0.0116;-0.0277;
1180866909273355;0.0043;-0.0052;-0.0075;
1180866919375074;0.0437;-0.0254;-0.0032;
1180866929476845;0.0096;-0.0542;0.0021;
1180866939590699;-0.0181;-0.1437;-0.0160;
1180866949692470;0.0032;-0.0723;0.0043;
1180866959794240;0.0298;0.0683;-0.0032;
1180866969905438;0.0756;0.1065;0.0107;
1180866980007209;0.0746;-0.0137;-0.0149;
1180866990108980;0.0597;-0.0340;-0.0341;
1180867000202365;0.0362;0.0959;-0.0160;
1180867010304136;0.0298;-0.0169;0.0043;
1180867020405907;0.0320;-0.1948;0.0021;
1180867030525699;0.0021;-0.1266;-0.0160;
1180867040627470;0.0085;-0.0265;-0.0330;
1180867050729292;0.0469;0.0119;-0.0096;
1180867060821740;0.0639;-0.0435;0.0064;
1180867070923511;0.0458;-0.0467;-0.0085;
1180867081025282;0.0394;0.0800;0.0032;
1180867091112782;0.0277;0.0875;0.0213;
1180867101214553;0.0543;-0.0574;0.0138;
1180867111316324;0.0245;-0.1213;0.0000;
1180867121443407;-0.0213;-0.0063;0.0011;
1180867131545178;-0.0362;0.0119;0.0202;
1180867141646949;-0.0170;-0.0755;0.0043;
1180867151721532;-0.0309;0.0268;-0.0043;
1180867161823303;-0.0053;0.1342;-0.0096;
1180867171925074;0.0213;0.0438;-0.0117;
1180867182057886;0.0043;-0.0457;-0.0032;
1180867192159709;-0.0224;-0.0510;0.0277;
1180867202261480;-0.0352;0.0257;0.0213;
1180867212341845;0.0032;0.0747;0.0107;
1180867222443615;-0.0085;-0.0095;0.0149;
1180867232545386;-0.0202;-0.1426;0.0213;
1180867242640282;-0.0383;-0.1479;0.0043;
1180867252742053;-0.0320;-0.0563;-0.0011;
1180867262843824;0.0107;-0.0222;-0.0011;
1180867272941532;0.0447;0.0087;0.0181;
1180867283043303;0.0501;0.0470;0.0107;
1180867293145074;0.0831;0.0332;-0.0266;
1180867303238563;0.0660;-0.0648;-0.0352;
1180867313340334;0.0522;-0.0968;0.0149;
1180867323442053;0.0298;-0.0563;0.0043;
1180867333543615;0.0650;0.0502;0.0352;
1180867343645386;0.0639;-0.0244;0.0373;
1180867353747157;0.1129;-0.1575;0.0511;
1180867363854032;0.0362;-0.1043;0.0107;
1180867373955855;0.0362;0.0374;0.0011;
1180867384057574;0.0905;0.1076;0.0021;
1180867394166324;0.1427;0.1214;0.0362;
1180867404268095;0.1395;0.0502;0.0426;
1180867414369917;0.0650;0.0033;0.0298;
1180867424461324;0.0192;0.0076;-0.0149;
1180867434563095;0.0394;0.0715;-0.0128;
1180867444664917;0.0181;0.0406;-0.0053;
1180867454763772;0.0309;-0.0137;0.0138;
1180867464865595;0.0075;0.0236;0.0128;
1180867474967365;0.0043;0.0491;0.0394;
1180867485073511;0.0213;0.0566;0.0256;
1180867495175334;0.0277;0.0907;0.0181;
1180867505277105;0.0373;0.0896;-0.0064;
1180867515364345;0.0352;0.0481;0.0213;
1180867525466115;0.0107;0.0065;0.0415;
1180867535567886;0.0064;0.0491;0.0192;
1180867545681532;0.0053;0.0683;0.0117;
1180867555783355;0.0085;0.0534;-0.0234;
1180867565885126;0.0160;-0.0627;0.0394;
1180867575998095;-0.0170;-0.1160;0.0671;
1180867586099917;-0.0234;-0.0244;0.0618;
1180867596201636;-0.0085;0.0044;0.0788;
1180867606286428;0.0128;-0.0340;0.0746;
1180867616388199;0.0075;-0.0318;0.0714;
1180867626489970;0.0128;0.0278;0.0437;
1180867636633303;0.0138;0.0385;0.0479;
1180867646735074;0.0011;0.0374;0.0597;
1180867656836845;-0.0213;0.0694;0.0511;
1180867666910490;0.0021;0.1076;0.0682;
1180867677012261;-0.0011;0.0843;0.0639;
1180867687114032;0.0021;-0.0041;0.0639;
1180867697221532;-0.0224;0.0087;0.0724;
1180867707323303;-0.0447;0.0896;0.0948;
1180867717425074;-0.0352;0.0779;0.0692;
1180867727508511;-0.0117;0.0055;0.1044;
1180867737610282;-0.0648;-0.0233;0.0991;
1180867747712053;-0.0447;-0.0446;0.0778;
1180867757819136;-0.0501;-0.0126;0.0565;
1180867767920907;-0.0469;0.0523;0.0522;
1180867778022678;-0.0490;0.1076;0.0288;
1180867788130282;-0.0192;0.0854;0.0426;
1180867798232105;-0.0458;0.0790;0.0501;
1180867808333876;-0.0776;-0.0308;0.0373;
1180867818435074;-0.0776;-0.1096;0.0288;
1180867828536897;-0.1415;-0.0766;0.0213;
1180867838638615;-0.1458;-0.0244;0.0181;
1180867848749032;-0.0915;-0.0627;0.0277;
1180867858850803;-0.0712;-0.0691;-0.0043;
1180867868952574;-0.0851;-0.0425;0.0053;
1180867879032105;-0.0501;-0.0137;-0.0043;
1180867889133824;-0.0298;-0.0638;0.0107;
1180867899235595;-0.0373;-0.0904;0.0192;
1180867909345022;-0.0394;0.0598;-0.0479;
1180867919446792;0.0192;0.1715;-0.0479;
1180867929548563;-0.0107;-0.0212;0.0117;
1180867939654136;0.0000;-0.1107;-0.0149;
1180867949755907;-0.0522;-0.0254;0.0085;
1180867959857678;-0.0415;-0.0414;0.0256;
1180867969971532;-0.0224;-0.1117;0.0362;
1180867980073355;-0.0096;-0.0915;0.0522;
1180867990175074;0.0032;-0.0702;0.0383;
1180868000261740;0.0213;-0.0830;0.0575;
1180868010363511;0.0117;0.0364;0.0682;
1180868020465282;0.0043;0.1374;0.0511;
1180868030575282;0.0138;0.0843;0.0298;
1180868040677053;0.0160;0.0310;0.0107;
1180868050778824;-0.0586;-0.0734;0.0341;
1180868060857990;-0.0893;-0.0574;0.0330;
1180868070959709;-0.1522;0.0545;0.0373;
1180868081061480;-0.1266;0.0417;0.0213;
1180868091184761;-0.0723;0.0523;0.0479;
1180868101286532;-0.0862;0.1108;0.0426;
1180868111388303;-0.0586;0.1523;0.0682;
1180868121481636;-0.0117;0.1598;0.0181;
1180868131583407;-0.0330;0.1087;0.0266;
1180868141685178;-0.0288;0.0502;0.0234;
1180868151790074;-0.0394;0.0193;-0.0213;
1180868161891845;-0.0479;0.0044;-0.0648;
1180868171993615;-0.0320;-0.0574;-0.0490;
1180868182146115;-0.0170;-0.1234;-0.0117;
1180868192247886;-0.0298;-0.0702;-0.0149;
1180868202349657;0.0128;0.0023;-0.0490;
1180868212407886;0.0426;0.0055;-0.0586;
1180868222509657;0.0991;-0.0041;-0.0554;
1180868232611428;0.0788;0.0044;-0.0479;
1180868242694970;0.0863;0.0087;-0.0586;
1180868252796792;0.0788;-0.0222;-0.0330;
1180868262898563;0.0405;-0.0499;-0.0447;
1180868273000595;0.0138;-0.0702;-0.0586;
1180868283102365;0.0107;-0.0563;-0.0680;
1180868293204136;0.0128;-0.0691;-0.0702;
1180868303310803;0.0128;-0.0478;-0.0202;
1180868313412626;-0.0096;0.0033;-0.0064;
1180868323514345;-0.0011;-0.0787;-0.0160;
1180868333618199;-0.0266;-0.1128;-0.0096;
1180868343719970;-0.0224;-0.0723;-0.0256;
1180868353821740;-0.0032;-0.0680;-0.0288;
1180868363939553;-0.0330;-0.0989;-0.0053;
1180868374041376;-0.0394;-0.1511;0.0256;
1180868384143095;-0.0490;0.0278;-0.0181;
1180868394235074;-0.0458;0.1257;-0.0691;
1180868404336845;-0.0320;-0.0510;-0.0075;
1180868414438667;-0.0648;-0.1330;0.0149;
1180868424537990;-0.1628;-0.0595;0.0170;
1180868434639761;-0.2204;-0.0840;-0.0043;
1180868444741532;-0.1352;-0.0521;-0.0170;
1180868454823928;-0.1479;0.0172;-0.0053;
1180868464925699;-0.1085;0.0246;-0.0181;
1180868475027522;-0.0554;0.0715;-0.0128;
1180868485128667;-0.0565;0.0577;-0.0447;
1180868495230386;-0.0234;0.0843;-0.0383;
1180868505332209;-0.0245;0.0854;-0.0575;
1180868515441532;0.0000;0.0651;-0.0479;
1180868525543355;-0.0352;0.0513;-0.0224;
1180868535645074;-0.0266;0.0566;-0.0469;
1180868545733199;-0.0469;0.0523;-0.0469;
1180868555835022;-0.0458;0.0001;-0.0458;
1180868565936792;-0.0426;-0.0105;-0.0469;
1180868576030126;-0.0117;0.0150;-0.0617;
1180868586131897;0.0085;0.0119;-0.0362;
1180868596233720;0.0149;-0.0350;-0.0607;
1180868606363876;0.0117;-0.0499;-0.0776;
1180868616465699;0.0288;0.0182;-0.0862;
1180868626567470;0.0490;0.0321;-0.1011;
1180868636646949;0.0660;-0.0510;-0.0904;
1180868646748772;0.0426;-0.0798;-0.0862;
1180868656850490;0.0256;-0.0265;-0.0617;
1180868666942678;0.0245;-0.0531;-0.0862;
1180868677044501;0.0256;-0.0755;-0.1043;
1180868687146220;0.0362;-0.0041;-0.1085;
1180868697262626;0.0597;-0.0372;-0.0808;
1180868707364397;0.0692;-0.0744;-0.0830;
1180868717466167;0.0426;-0.0031;-0.0755;
1180868727581324;0.0447;0.0736;-0.0702;
1180868737683147;0.0788;0.0534;-0.1075;
1180868747784917;0.0554;0.0150;-0.0755;
1180868757878355;0.0383;0.0672;-0.0702;
1180868767980178;0.0724;0.1150;-0.0447;
1180868778081949;0.0362;0.0758;-0.0394;
1180868788197365;0.0245;0.0150;-0.0575;
1180868798299188;-0.0032;0.0119;-0.0192;
1180868808401011;0.0085;0.0523;-0.0266;
1180868818475907;0.0522;0.1161;-0.0405;
1180868828577730;0.0660;0.1545;-0.0447;
1180868838679501;0.0575;0.0885;-0.0202;
1180868848821324;0.0309;0.0129;-0.0320;
1180868858923147;0.0298;0.0577;-0.0607;
1180868869024917;0.0362;0.0991;-0.0479;
1180868879104970;0.0437;0.0364;-0.0117;
1180868889206740;0.0149;-0.0659;0.0128;
1180868899308563;-0.0021;-0.0840;0.0021;
1180868909403772;0.0170;-0.0467;0.0128;
1180868919505595;0.0479;-0.0670;0.0021;
1180868929607365;0.0490;-0.0521;0.0117;
1180868939711011;0.0692;-0.0755;0.0213;
1180868949812834;0.0597;-0.1181;0.0405;
1180868959914605;0.0426;-0.0531;0.0341;
1180868970005751;0.0703;0.1023;0.0149;
1180868980107522;0.0873;0.1566;0.0075;
1180868990209240;0.1065;0.0502;0.0373;
1180869000312886;0.0543;0.0012;0.0639;
1180869010414709;0.0117;0.0225;0.0543;
1180869020516480;0.0352;0.0374;0.0597;
1180869030626949;0.0234;0.0065;0.0895;
1180869040728772;0.0117;-0.0340;0.0991;
1180869050830542;-0.0085;-0.0808;0.1150;
1180869060945751;-0.0405;-0.0382;0.1012;
1180869071047522;-0.0320;0.0395;0.1012;
1180869081149292;0.0064;0.0577;0.0746;
1180869091237574;-0.0085;-0.0574;0.0831;
1180869101339397;-0.0659;-0.1266;0.0863;
1180869111441167;-0.0968;-0.0808;0.0618;
1180869121531220;-0.0893;0.0257;0.0479;
1180869131633042;-0.0405;-0.0308;0.0501;
1180869141734813;-0.0266;-0.0648;0.0597;
1180869151844136;-0.0437;0.0353;0.0447;
1180869161945959;0.0138;0.1864;0.0320;
1180869172047730;0.0565;0.1971;0.0234;
1180869182148980;0.0277;0.0747;0.0522;
1180869192250751;-0.0011;0.0268;0.0256;
1180869202352574;-0.0341;0.0150;0.0309;
1180869212519865;-0.0192;0.0214;0.0160;
1180869222621688;-0.0245;0.0055;0.0266;
1180869232723459;-0.0277;-0.0893;0.0394;
1180869242747574;-0.0586;-0.1948;0.0277;
1180869252849345;-0.0607;-0.1565;0.0309;
1180869262951167;-0.0405;-0.0617;0.0341;
1180869273059865;0.0128;-0.0372;0.0447;
1180869283161688;0.0383;-0.0595;-0.0256;
1180869293263459;0.0234;0.0758;-0.0192;
1180869303361011;0.0192;0.2322;-0.0202;
1180869313462834;0.1129;0.2205;-0.0330;
1180869323564553;0.1374;0.1566;0.0032;
1180869333678199;0.0213;0.0736;0.0330;
1180869343779970;-0.0405;-0.0446;0.0511;
1180869353881740;-0.0479;-0.0148;0.0383;
1180869363975595;-0.0490;0.0672;0.0415;
1180869374077417;0.0138;0.1001;0.0394;
1180869384179188;0.0320;0.0406;0.0948;
1180869394293407;-0.0053;-0.0840;0.0852;
1180869404395230;-0.0170;-0.1192;0.0810;
1180869414497053;-0.0341;-0.1032;0.0660;
1180869424575438;-0.0522;-0.0989;0.0447;
1180869434677209;-0.0648;-0.0702;0.0437;
1180869444778980;-0.0522;-0.0095;0.0543;
1180869454880438;-0.0394;0.0672;0.0447;
1180869464982261;-0.0202;0.1353;0.0565;
1180869475084032;-0.0298;0.1459;0.0735;
1180869485179657;-0.0245;0.0182;0.0650;
1180869495281376;-0.0702;-0.0648;0.0703;
1180869505383199;-0.1660;-0.0169;0.0735;
1180869515550595;-0.1628;0.0959;0.0543;
1180869525652678;-0.0597;0.0832;0.0597;
1180869535754709;-0.0565;0.0204;0.0383;
1180869545798824;-0.0925;0.0374;0.0415;
1180869555900855;-0.0680;-0.0361;0.0501;
1180869566002886;-0.0819;-0.1714;0.0618;
1180869576114136;-0.1043;-0.1490;0.0341;
1180869586216220;-0.0798;-0.0276;0.0309;
1180869596318251;-0.0213;0.0513;0.0490;
1180869606404136;0.0021;0.1023;0.0383;
1180869616506167;-0.0032;0.1236;0.0320;
1180869626608199;-0.0192;0.1012;0.0447;
1180869636709397;-0.0383;0.0268;0.0362;
1180869646811480;-0.0766;-0.0361;0.0202;
1180869656913511;-0.1298;-0.0734;0.0320;
1180869667062365;-0.1575;-0.1309;0.0256;
1180869677164397;-0.1533;-0.0808;0.0032;
1180869687266428;-0.1234;0.0438;0.0085;
1180869697321011;-0.0575;0.0406;0.0266;
1180869707423042;-0.0170;-0.0340;0.0032;
1180869717525074;-0.0469;-0.0787;-0.0011;
1180869727637574;-0.0617;-0.0233;-0.0138;
1180869737739657;-0.0309;0.0278;0.0000;
1180869747841636;-0.0341;-0.0073;0.0107;
1180869757923615;-0.0597;0.0097;-0.0064;
1180869768025699;-0.0744;0.0534;-0.0181;
1180869778127678;-0.0691;0.0140;-0.0053;
1180869788251532;-0.0670;-0.1224;-0.0021;
1180869798353615;-0.1064;-0.2278;-0.0011;
1180869808455595;-0.1458;-0.1980;0.0053;
1180869818552157;-0.1554;-0.1373;-0.0011;
1180869828654240;-0.1053;-0.0862;-0.0277;
1180869838756272;-0.0479;-0.0233;-0.0617;
1180869848874449;-0.0352;-0.0265;-0.0522;
1180869858976532;-0.0415;-0.1266;-0.0543;
1180869869078563;-0.0723;-0.1032;-0.0224;
1180869879161740;-0.0925;-0.0893;-0.0373;
1180869889263824;-0.0627;-0.0350;-0.0501;
1180869899365855;-0.0405;0.0555;-0.0638;
1180869909462782;-0.0309;0.0832;-0.0458;
1180869919564865;-0.0160;0.0470;-0.0256;
1180869929666897;-0.0373;-0.0435;-0.0170;
1180869939783095;-0.0554;-0.0840;-0.0373;
1180869949885178;-0.0554;-0.0776;-0.0394;
1180869959987209;-0.0501;-0.0680;-0.0575;
1180869970065803;-0.0522;0.0033;-0.0776;
1180869980167834;-0.0575;0.0907;-0.0458;
1180869990269917;-0.0256;0.0513;-0.0723;
1180870000379761;-0.0192;-0.0766;-0.0766;
1180870010481845;-0.0808;-0.1607;-0.0947;
1180870020583876;-0.0394;-0.0830;-0.0851;
1180870030686428;-0.0309;0.0640;-0.0648;
1180870040788511;0.0405;0.1001;-0.0776;
1180870050890542;0.0618;0.1076;-0.1021;
1180870061003251;0.0671;0.1715;-0.0755;
1180870071105334;0.0650;0.1523;-0.0808;
1180870081207417;0.0905;0.0662;-0.1021;
1180870091292574;0.0309;-0.0137;-0.0830;
1180870101394657;-0.0330;-0.0659;-0.0638;
1180870111496688;0.0053;-0.0510;-0.0883;
1180870121609553;0.0224;0.0289;-0.1202;
1180870131711636;0.0415;0.0385;-0.0915;
1180870141813667;0.0415;-0.0382;-0.0627;
1180870151910386;0.0298;-0.0531;-0.0680;
1180870162012470;0.0352;-0.0318;-0.1224;
1180870172114501;0.0447;-0.0126;-0.0947;
1180870182188928;0.0575;0.0619;-0.0851;
1180870192291011;0.0650;0.0980;-0.1000;
1180870202393095;0.0533;0.0406;-0.0893;
1180870212506115;0.0288;0.0150;-0.0702;
1180870222608199;0.0288;0.0577;-0.0766;
1180870232710230;0.0479;0.0907;-0.0862;
1180870242818355;0.0479;0.0790;-0.0617;
1180870252920386;0.0671;0.0916;-0.0405;
1180870263022470;0.0586;0.0736;-0.0554;
1180870273112990;0.0618;0.0513;-0.0490;
1180870283215074;0.0352;0.0268;-0.0565;
1180870293317053;0.0373;0.0161;-0.0648;
1180870303421636;-0.0064;0.0012;-0.0533;
1180870313523720;-0.0075;-0.0617;-0.0659;
1180870323625751;-0.0160;-0.0297;-0.0490;
1180870333715386;-0.0149;-0.0478;-0.0522;
1180870343817417;0.0149;-0.0361;-0.0437;
1180870353919501;0.0341;0.0055;-0.0426;
1180870364032261;0.0437;-0.0158;-0.0256;
1180870374134292;0.0607;0.0193;-0.0798;
1180870384236376;0.0597;0.0651;-0.0565;
1180870394348511;0.0565;0.0449;-0.0501;
1180870404450595;0.0405;0.0172;-0.0405;
1180870414552626;0.0160;0.0119;-0.0554;
1180870424640178;0.0309;0.0577;-0.0511;
1180870434742261;0.0383;0.0747;-0.0469;
1180870444844292;0.0479;0.0555;-0.0469;
1180870454944345;0.0341;0.0704;-0.0256;
1180870465046428;0.0586;0.0459;-0.0266;
1180870475148407;0.0490;-0.0265;-0.0117;
1180870485241845;0.0352;-0.0851;-0.0117;
1180870495343928;0.0266;-0.1820;-0.0160;
1180870505445907;-0.0096;-0.1245;-0.0075;
1180870515550490;0.0000;-0.0478;-0.0234;
1180870525651740;0.0234;-0.0510;-0.0085;
1180870535752938;0.0309;0.0065;-0.0522;
1180870545851272;0.0309;0.0683;-0.0575;
1180870555952522;0.0671;0.1246;-0.0341;
1180870566053772;0.0916;0.1246;-0.0160;
1180870576137886;0.0628;0.0097;-0.0352;
1180870586239136;0.0415;-0.0499;-0.0330;
1180870596340386;0.0011;-0.0521;-0.0128;
1180870606475699;0.0149;-0.0499;-0.0075;
1180870616576897;0.0298;-0.0254;0.0107;
1180870626678095;0.0224;-0.0617;-0.0053;
1180870636759345;0.0202;-0.0734;-0.0021;
1180870646860595;-0.0032;-0.0968;0.0011;
1180870656961792;0.0394;-0.0670;-0.0011;
1180870667054240;0.0490;-0.0617;0.0011;
1180870677155490;0.0682;-0.0808;-0.0075;
1180870687256688;0.0501;-0.0063;-0.0648;
1180870697368615;0.0469;0.1118;-0.0415;
1180870707469865;0.0788;0.2216;-0.0245;
1180870717571063;0.0991;0.2567;-0.0160;
1180870727675855;0.0692;0.1332;0.0021;
1180870737777105;0.0181;0.0619;0.0032;
1180870747878303;-0.0096;0.0427;0.0032;
1180870757993563;0.0107;0.0140;-0.0107;
1180870768094761;0.0224;-0.0542;0.0075;
1180870778195959;0.0298;-0.1628;0.0085;
1180870788299917;0.0234;-0.1980;-0.0085;
1180870798401115;0.0288;-0.1660;-0.0256;
1180870808502313;0.0245;-0.1245;-0.0192;
1180870818603251;0.0554;-0.0755;-0.0213;
1180870828704449;0.0650;-0.0563;-0.0138;
1180870838805699;0.1118;-0.0702;-0.0224;
1180870848916792;0.1172;-0.1021;0.0000;
1180870859018042;0.1118;-0.0830;0.0224;
1180870869119240;0.1097;-0.0180;0.0320;
1180870879217001;0.1278;-0.0489;-0.0011;
1180870889318199;0.1395;-0.0489;0.0170;
1180870899419397;0.1087;-0.0180;0.0277;
1180870909518251;0.1300;0.0321;0.0405;
1180870919619449;0.1321;0.1023;0.0245;
1180870929720699;0.1225;0.0619;0.0224;
1180870939829917;0.0884;-0.0244;0.0522;
1180870949931115;0.0565;0.0119;0.0469;
1180870960032365;0.0554;0.0587;0.0373;
1180870970134657;0.0511;-0.0009;0.0597;
1180870980235803;0.0277;-0.0244;0.0746;
1180870990337105;0.0277;0.0182;0.0799;
1180871000442834;0.0426;0.0726;0.0554;
1180871010544084;0.0575;0.0800;0.0511;
1180871020645282;0.0213;0.0097;0.0863;
1180871030752834;-0.0234;-0.0691;0.0597;
1180871040854032;-0.0383;-0.0222;0.0437;
1180871050955230;-0.0405;0.0214;0.0490;
1180871061069657;-0.0021;0.0417;0.0469;
1180871071170907;-0.0117;0.0609;0.0543;
1180871081272105;0.0096;0.0640;0.0671;
1180871091347105;0.0320;0.0822;0.0565;
1180871101448303;0.0234;0.0694;0.0320;
1180871111549553;0.0415;0.1108;0.0245;
1180871121656063;0.0202;0.1672;0.0522;
1180871131757261;0.0309;0.0715;0.0618;
1180871141858511;0.0021;-0.0957;0.0639;
1180871151964605;-0.0128;-0.1383;0.0682;
1180871162065803;-0.0170;-0.1021;0.0810;
1180871172167001;0.0298;-0.0478;0.0703;
1180871182278407;0.0586;-0.0265;0.0863;
1180871192379657;0.0756;-0.0116;0.0927;
1180871202480907;0.0671;-0.0158;0.0799;
1180871212557730;0.0639;-0.0574;0.0927;
1180871222658980;0.0128;-0.1298;0.0959;
1180871232760178;-0.0075;-0.1107;0.0671;
1180871242871167;-0.0043;-0.0702;0.1087;
1180871252972365;0.0053;-0.0606;0.1172;
1180871263073615;0.0138;0.0097;0.1427;
1180871273173407;0.0128;0.1140;0.1502;
1180871283274605;0.0266;0.0790;0.1523;
1180871293375803;0.0043;-0.0158;0.1534;
1180871303485022;-0.0415;-0.0680;0.1417;
1180871313586272;-0.0830;-0.0372;0.1577;
1180871323687470;-0.0893;0.0513;0.1427;
1180871333775647;-0.0554;0.0289;0.1374;
1180871343876845;-0.1096;0.0033;0.1374;
1180871353978095;-0.1277;0.1118;0.1140;
1180871364097417;-0.0947;0.2088;0.1502;
1180871374198615;-0.0554;0.1257;0.1363;
1180871384299865;-0.0904;0.0268;0.1577;
1180871394407574;-0.1799;-0.0095;0.1577;
1180871404508772;-0.1884;-0.0233;0.1395;
1180871414609970;-0.1746;0.0332;0.0991;
1180871424723980;-0.1511;0.0598;0.0948;
1180871434825178;-0.1277;0.0108;0.0852;
1180871444926376;-0.1224;-0.0403;0.0650;
1180871455010438;-0.1117;-0.0755;0.0703;
1180871465111636;-0.0862;-0.1053;0.0724;
1180871475212834;-0.0893;-0.1053;0.0639;
1180871485307105;-0.0659;-0.0510;0.0692;
1180871495408303;-0.0320;0.0353;0.0362;
1180871505509553;-0.0053;0.1268;0.0352;
1180871515617053;0.0277;0.1875;0.0288;
1180871525718720;0.0415;0.1694;0.0586;
1180871535820282;-0.0128;0.0726;0.0341;
1180871545987261;-0.0734;0.0523;0.0160;
1180871556088876;-0.1032;0.1118;0.0256;
1180871566190490;-0.0830;0.1385;0.0447;
1180871576234605;-0.0776;0.1023;0.0330;
1180871586336167;-0.0787;0.0427;0.0703;
1180871596437730;-0.0904;-0.0212;0.0522;
1180871606545907;-0.0893;-0.0947;0.0224;
1180871616647470;-0.1213;-0.1628;0.0075;
1180871626749084;-0.1543;-0.1394;0.0256;
1180871636819449;-0.1628;-0.0222;-0.0234;
1180871646921063;-0.1053;0.0481;-0.0479;
1180871657022626;-0.0872;0.0023;-0.0373;
1180871667134136;-0.1075;-0.0553;-0.0373;
1180871677235699;-0.1000;0.0545;-0.0522;
1180871687337365;-0.0798;0.1321;-0.0362;
1180871697444553;-0.0437;0.1044;-0.0107;
1180871707546167;-0.0627;0.1118;-0.0202;
1180871717647782;-0.0565;0.1885;-0.0373;
1180871727746532;-0.0501;0.2258;-0.0224;
1180871737848147;-0.0712;0.1427;-0.0680;
1180871747949709;-0.0904;0.0768;-0.0702;
1180871758054240;-0.1053;0.0640;-0.0479;
1180871768155855;-0.0744;0.1214;-0.0490;
1180871778257470;-0.0469;0.1161;-0.0426;
1180871788357990;-0.0511;-0.0222;-0.0224;
1180871798459605;-0.0543;-0.0798;-0.0309;
1180871808561220;-0.0819;-0.0957;-0.0213;
1180871818671532;-0.0755;-0.0798;-0.0309;
1180871828773147;-0.0883;-0.0904;-0.0128;
1180871838874709;-0.0893;-0.1511;-0.0479;
1180871848976688;-0.0744;-0.0968;-0.0415;
1180871859078251;-0.0617;0.0204;-0.0490;
1180871869179865;-0.0320;0.0640;-0.0638;
1180871879305074;-0.0458;-0.0031;-0.0320;
1180871889406636;-0.0533;-0.0382;-0.0234;
1180871899508251;-0.0501;0.0395;-0.0138;
1180871909586011;-0.0309;0.1087;-0.0394;
1180871919687626;-0.0096;0.1225;-0.0245;
1180871929789188;-0.0256;0.0875;0.0000;
1180871939887261;-0.0202;0.0640;-0.0234;
1180871949988876;-0.0501;0.0385;-0.0202;
1180871960090438;-0.0586;-0.0318;-0.0021;
1180871970195855;-0.0819;-0.1256;0.0128;
1180871980297470;-0.0734;-0.1884;0.0011;
1180871990399032;-0.0883;-0.1309;-0.0107;
1180872000491428;-0.1032;-0.0329;-0.0266;
1180872010593042;-0.0426;-0.0254;-0.0415;
1180872020694605;-0.0394;-0.0382;-0.0213;
1180872030806115;-0.0554;-0.0403;-0.0458;
1180872040907730;-0.0437;-0.0361;-0.0597;
1180872051009345;-0.0213;0.0097;-0.0543;
1180872061089136;-0.0288;-0.0648;-0.0565;
1180872071190751;-0.0447;-0.1618;-0.0256;
1180872081292313;-0.0798;-0.1224;-0.0352;
1180872091410803;-0.1128;-0.0542;-0.0405;
1180872101512417;-0.0533;-0.0318;-0.0277;
1180872111613980;-0.0266;-0.0510;-0.0597;
1180872121711845;-0.0320;-0.0734;-0.0648;
1180872131813459;-0.0458;-0.0893;-0.0522;
1180872141915022;-0.0405;-0.1682;-0.0787;
1180872152015490;-0.0659;-0.1565;-0.1000;
1180872162117105;-0.0957;-0.1330;-0.0607;
1180872172218720;-0.0883;-0.0648;-0.0702;
1180872182329188;-0.0734;0.0161;-0.0755;
1180872192430803;-0.0107;0.0246;-0.0787;
1180872202532365;0.0181;-0.0148;-0.0712;
1180872212638459;-0.0352;-0.0808;-0.1000;
1180872222740022;-0.0617;-0.0372;-0.1266;
1180872232841636;-0.0691;0.0598;-0.1320;
1180872242928095;-0.0213;0.0822;-0.1565;
1180872253029709;-0.0053;0.1001;-0.1501;
1180872263131272;-0.0021;0.0822;-0.1586;
1180872273236636;0.0170;0.0065;-0.1394;
1180872283338251;0.0053;-0.0659;-0.1426;
1180872293439813;0.0149;-0.0244;-0.1405;
1180872303543824;0.0383;0.0598;-0.1405;
1180872313645438;0.0746;0.0715;-0.1650;
1180872323747053;0.1513;0.0779;-0.1618;
1180872333847157;0.1640;0.0150;-0.1533;
1180872343948720;0.1630;-0.0521;-0.1426;
1180872354050334;0.1310;-0.0244;-0.1533;
1180872364158824;0.1427;0.0310;-0.1458;
1180872374260438;0.1566;0.0555;-0.1277;
1180872384362053;0.1587;0.0310;-0.0925;
1180872394458303;0.1694;0.0161;-0.0957;
1180872404559917;0.1790;0.0119;-0.1096;
1180872414661532;0.1939;0.0033;-0.1064;
1180872424765178;0.1917;-0.0158;-0.0680;
1180872434866792;0.1811;-0.0446;-0.0447;
1180872444968407;0.1555;0.0087;-0.0776;
1180872455063095;0.1363;0.0736;-0.0979;
1180872465164709;0.1278;0.0172;-0.0575;
1180872475266272;0.1108;-0.0563;-0.0383;
1180872485359970;0.1055;-0.0233;-0.0352;
1180872495461584;0.1161;0.0385;-0.0170;
1180872505563147;0.1289;-0.0190;0.0075;
1180872515688772;0.0916;-0.0862;-0.0202;
1180872525790490;0.0937;-0.0979;-0.0043;
1180872535892157;0.0810;-0.1117;0.0181;
1180872545977053;0.0788;-0.0776;-0.0085;
1180872556078772;0.0820;-0.0862;-0.0075;
1180872566180490;0.0852;-0.0979;0.0021;
1180872576288251;0.0884;-0.0808;0.0021;
1180872586389970;0.0927;-0.0340;0.0138;
1180872596491636;0.1087;0.0172;0.0245;
1180872606618824;0.1033;0.0268;0.0373;
1180872616720542;0.0916;0.0896;0.0224;
1180872626822209;0.0863;0.1300;0.0330;
1180872636890178;0.0756;0.1225;0.0383;
1180872646991897;0.0628;0.0937;0.0320;
1180872657093563;0.0479;0.0577;0.0479;
1180872667186167;0.0085;0.0193;0.0565;
1180872677287834;-0.0192;-0.0403;0.0650;
1180872687389553;-0.0522;-0.0531;0.0650;
1180872697494657;-0.0415;-0.0553;0.0650;
1180872707596324;-0.0554;-0.0382;0.0788;
1180872717698042;-0.0533;0.0097;0.0586;
1180872727799917;-0.0373;-0.0126;0.0213;
1180872737901636;-0.0426;-0.0755;0.0043;
1180872748003303;-0.0149;-0.0403;-0.0053;
1180872758121949;-0.0085;0.0353;-0.0043;
1180872768223667;0.0053;0.0172;0.0138;
1180872778325386;0.0234;-0.0414;0.0075;
1180872788437574;0.0245;-0.0169;0.0170;
1180872798539292;0.0362;-0.0148;0.0266;
1180872808640959;0.0224;-0.0169;0.0352;
1180872818730907;0.0128;0.0300;0.0298;
1180872828832626;0.0128;0.0609;0.0138;
1180872838934345;0.0096;0.0598;-0.0053;
1180872849007105;0.0096;0.0502;-0.0117;
1180872859108824;-0.0160;-0.0009;0.0096;
1180872869210490;-0.0341;-0.0116;0.0138;
1180872879326949;-0.0469;0.0300;0.0085;
1180872889428667;-0.0383;0.0449;0.0096;
1180872899530386;-0.0256;0.0268;0.0149;
1180872909640542;-0.0437;0.0353;-0.0064;
1180872919742261;-0.0383;0.0150;-0.0011;
1180872929843980;-0.0680;-0.0414;-0.0288;
1180872939949553;-0.0565;-0.0340;-0.0638;
1180872950051272;-0.0680;0.0097;-0.0734;
1180872960152990;-0.0394;0.0076;-0.0575;
1180872970253199;-0.0330;-0.0201;-0.0734;
1180872980354917;-0.0021;0.0342;-0.0872;
1180872990456636;0.0245;0.0694;-0.0851;
1180873000559970;0.0597;0.0726;-0.0691;
1180873010661688;0.0501;0.0768;-0.0723;
1180873020763407;0.0660;0.0385;-0.0925;
1180873030860282;0.0628;0.0385;-0.1021;
1180873040962001;0.0554;0.1001;-0.1245;
1180873051063720;0.0810;0.1523;-0.1266;
1180873061143772;0.0895;0.1278;-0.0915;
1180873071245438;0.0831;0.0587;-0.0872;
1180873081347157;0.0767;0.0055;-0.0830;
1180873091466636;0.0735;-0.0329;-0.0712;
1180873101568355;0.0607;-0.0563;-0.0830;
1180873111670022;0.0490;-0.0617;-0.0723;
1180873121784345;0.0437;-0.0457;-0.0586;
1180873131886063;0.0884;-0.0169;-0.1021;
1180873141987782;0.0863;-0.0084;-0.1011;
1180873152072782;0.0554;-0.0499;-0.0734;
1180873162174501;0.0362;-0.0904;-0.0543;
1180873172276220;0.0522;-0.0680;-0.0702;
1180873182385959;0.0639;0.0055;-0.0597;
1180873192487678;0.0746;0.0055;-0.0415;
1180873202589345;0.0607;-0.0340;-0.0181;
1180873212673407;0.0458;0.0182;-0.0320;
1180873222775074;0.0437;0.0225;-0.0373;
1180873232876792;0.0405;-0.0031;-0.0554;
1180873242995907;0.0298;0.0481;-0.0458;
1180873253098540;0.0415;0.0427;-0.0288;
1180873263200259;0.0565;-0.0372;-0.0224;
1180873273292029;0.0533;-0.0478;-0.0234;
1180873283393748;0.0437;-0.0403;-0.0075;
1180873293495467;0.0490;-0.0084;0.0096;
1180873303590831;0.0522;-0.0126;-0.0064;
1180873313692498;0.0607;-0.0340;0.0000;
1180873323794165;0.0511;0.0119;-0.0096;
1180873333916509;0.0746;0.0289;-0.0256;
1180873344018227;0.0575;-0.0393;-0.0053;
1180873354119894;0.0415;-0.1160;0.0107;
1180873364204009;0.0426;-0.0947;-0.0043;
1180873374305727;0.0660;-0.0286;0.0000;
1180873384407446;0.0767;-0.0265;0.0170;
1180873394518904;0.0650;-0.0340;0.0160;
1180873404620623;0.0618;-0.0041;-0.0117;
1180873414722342;0.0543;0.0374;0.0032;
1180873424820675;0.0692;0.0065;-0.0107;
1180873434922394;0.0511;0.0001;-0.0192;
1180873445024113;0.0437;0.0033;-0.0075;
1180873455131509;0.0490;-0.0212;0.0032;
1180873465233227;0.0554;-0.0329;0.0053;
1180873475334946;0.0554;-0.0425;0.0202;
1180873485419321;0.0586;-0.0595;0.0245;
1180873495520988;0.0426;-0.0702;0.0160;
1180873505622706;0.0565;-0.0989;-0.0021;
1180873515707967;0.0575;-0.0755;-0.0085;
1180873525809217;0.0756;0.0332;-0.0394;
1180873535910519;0.1033;0.1012;-0.0298;
1180873546036665;0.1204;0.0598;0.0011;
1180873556137967;0.1172;0.0459;-0.0128;
1180873566239269;0.1150;0.1129;-0.0075;
1180873576336821;0.1289;0.1406;0.0011;
1180873586438123;0.1374;0.1150;0.0256;
1180873596539425;0.1118;0.0875;0.0138;
1180873606630571;0.1076;0.0885;0.0309;
1180873616731873;0.0969;0.0832;0.0245;
1180873626833175;0.1012;0.0630;0.0075;
1180873636930675;0.0682;0.0353;0.0128;
1180873647031977;0.0692;-0.0105;0.0458;
1180873657133279;0.0692;-0.0265;0.0479;
1180873667242550;0.0788;0.0012;0.0543;
1180873677343852;0.0905;0.0385;0.0682;
1180873687445206;0.0873;0.0353;0.0799;
1180873697556665;0.0842;0.0140;0.0554;
1180873707657915;0.0714;0.0310;0.0692;
1180873717759217;0.0799;0.0885;0.0660;
1180873727907342;0.0810;0.1012;0.0607;
1180873738008696;0.0628;0.0236;0.0799;
1180873748109998;0.0458;-0.0116;0.1012;
1180873758162863;0.0533;0.0427;0.1012;
1180873768264165;0.0735;0.0481;0.1193;
1180873778365519;0.0692;-0.0169;0.1374;
1180873788472915;0.0426;-0.0947;0.1321;
1180873798574217;0.0224;-0.1117;0.1449;
1180873808675467;0.0245;-0.0563;0.1459;
1180873818790936;0.0575;0.0278;0.1087;
1180873828892238;0.0511;0.0747;0.1236;
1180873838993540;0.0533;-0.0084;0.1332;
1180873849084790;0.0330;-0.0425;0.1374;
1180873859186092;0.0064;-0.0329;0.1470;
1180873869287394;-0.0075;-0.0382;0.1630;
1180873879390102;-0.0202;0.0204;0.1630;
1180873889491404;-0.0298;0.0885;0.1118;
1180873899592706;-0.0032;0.1204;0.1118;
1180873909687811;0.0021;0.0758;0.1001;
1180873919789113;-0.0021;0.0129;0.0969;
1180873929890415;-0.0543;-0.0393;0.0895;
1180873940007915;-0.1011;-0.0595;0.1012;
1180873950109217;-0.1266;-0.0276;0.0746;
1180873960210519;-0.1021;-0.0126;0.0820;
1180873970313748;-0.0659;-0.0084;0.0799;
1180873980414998;-0.0575;-0.0265;0.0575;
1180873990516352;-0.0352;-0.0233;0.0224;
1180874000599321;-0.0288;0.0012;0.0160;
1180874010700623;-0.0043;0.0342;-0.0128;
1180874020801925;0.0021;0.0300;-0.0096;
1180874030919165;0.0064;-0.0489;0.0064;
1180874041020467;-0.0107;-0.0947;0.0234;
1180874051121769;-0.0032;-0.0851;0.0320;
1180874061236821;-0.0053;-0.0957;0.0501;
1180874071338123;0.0011;-0.1330;0.0575;
1180874081439425;-0.0075;-0.2076;0.0714;
1180874091528852;-0.0213;-0.1181;0.0490;
1180874101630154;-0.0085;-0.1405;0.0170;
1180874111731456;-0.0149;-0.2001;0.0277;
1180874121841769;-0.0341;-0.1511;0.0309;
1180874131943071;-0.0085;-0.1000;0.0458;
1180874142044373;0.0053;-0.0925;0.0607;
1180874152133331;-0.0107;-0.1320;0.0842;
1180874162234634;-0.0341;-0.0457;0.0884;
1180874172335884;-0.0245;0.0395;0.0959;
1180874182424165;0.0096;0.0257;0.0746;
1180874192525467;0.0064;0.0758;0.0969;
1180874202626769;-0.0043;0.1587;0.0692;
1180874212740206;0.0107;0.1917;0.0437;
1180874222841509;-0.0170;0.1097;0.0671;
1180874232942811;-0.0394;0.0587;0.0778;
1180874243040415;-0.0680;0.1268;0.0852;
1180874253141717;-0.0586;0.1651;0.0937;
1180874263242967;-0.0330;0.1044;0.1033;
1180874273342550;-0.0712;-0.0435;0.1055;
1180874283443852;-0.0851;-0.0691;0.0756;
1180874293545154;-0.1117;-0.0084;0.0554;
1180874303647811;-0.0617;-0.0659;0.0330;
1180874313749113;-0.0617;-0.1756;0.0288;
1180874323850363;-0.0734;-0.2715;0.0288;
1180874333953488;-0.0533;-0.2971;0.0522;
1180874344054790;-0.0426;-0.2608;0.0437;
1180874354156092;-0.0426;-0.1628;0.0138;
1180874364269894;-0.0032;-0.0830;0.0256;
1180874374371196;0.0277;-0.0702;0.0234;
1180874384472498;0.0458;-0.0031;0.0021;
1180874394568852;0.0533;0.0790;-0.0320;
1180874404670154;0.0628;0.1385;-0.0309;
1180874414771404;0.0181;0.1278;0.0000;
1180874424873748;0.0032;0.0875;0.0234;
1180874434975050;-0.0213;0.0811;0.0149;
1180874445076352;-0.0394;0.0916;0.0479;
1180874455180988;-0.0373;0.0758;0.0618;
1180874465282290;-0.0522;0.0097;0.0501;
1180874475383540;-0.0723;0.0300;0.0032;
1180874485484321;-0.0691;0.0566;-0.0096;
1180874495585623;-0.0383;-0.0031;-0.0234;
1180874505686873;-0.0607;-0.0723;-0.0298;
1180874515782550;-0.0490;-0.1053;-0.0383;
1180874525884217;-0.0053;-0.0244;-0.0415;
1180874535985884;0.0426;0.0523;-0.0415;
1180874546102342;0.0650;0.0502;-0.0160;
1180874556204009;0.0788;-0.0169;0.0096;
1180874566305675;0.0479;-0.1085;-0.0085;
1180874576373800;0.0352;-0.1096;-0.0181;
1180874586475467;0.0405;-0.0499;-0.0330;
1180874596577134;0.0628;0.0023;-0.0373;
1180874606689581;0.0565;-0.0126;-0.0213;
1180874616791248;0.0554;-0.0521;-0.0096;
1180874626892915;0.0320;-0.0329;0.0107;
1180874637033904;0.0415;0.0140;0.0085;
1180874647135571;0.0394;0.0395;0.0320;
1180874657237238;0.0266;0.0001;0.0394;
1180874667306144;0.0160;0.0225;0.0202;
1180874677407811;0.0213;0.1214;0.0415;
1180874687509477;0.0373;0.1502;0.0117;
1180874697620571;0.0149;0.1598;0.0170;
1180874707722290;0.0107;0.1459;0.0128;
1180874717823904;0.0128;0.1790;0.0224;
1180874727936613;0.0053;0.2077;0.0405;
1180874738038279;-0.0107;0.1310;0.0565;
1180874748139946;-0.0405;0.0598;0.0597;
1180874758220988;-0.0798;0.0566;0.0298;
1180874768322654;-0.0627;0.1044;0.0234;
1180874778424373;-0.0479;0.0545;0.0277;
1180874788514998;-0.0617;-0.0329;0.0202;
1180874798616613;-0.0915;-0.0691;0.0053;
1180874808718279;-0.0723;-0.0244;-0.0075;
1180874818848384;-0.0437;-0.0585;-0.0160;
1180874828950050;-0.0362;-0.1277;-0.0107;
1180874839051717;-0.0394;-0.1011;0.0383;
1180874849126300;-0.0192;-0.0542;0.0170;
1180874859228019;0.0256;0.0481;-0.0543;
1180874869329634;0.0383;0.1406;-0.0394;
1180874879442238;0.0714;0.2194;-0.0298;
1180874889543904;0.0682;0.1949;-0.0202;
1180874899645571;0.0383;0.0321;-0.0032;
1180874909753279;-0.0138;-0.1362;0.0256;
1180874919854946;-0.0543;-0.1778;0.0341;
1180874929956613;-0.0575;-0.1415;0.0490;
1180874940075363;-0.0266;-0.1202;0.0447;
1180874950177029;-0.0085;-0.0904;0.0085;
1180874960278696;-0.0043;-0.0361;0.0021;
1180874970358175;-0.0085;0.0204;-0.0170;
1180874980459842;0.0011;0.0108;-0.0320;
1180874990561509;0.0032;-0.0308;-0.0330;
1180875000663592;0.0117;0.0033;-0.0075;
1180875010765259;0.0224;0.0843;-0.0075;
1180875020866925;0.0330;0.1640;0.0266;
1180875030983696;0.0245;0.1598;0.0554;
1180875041085363;-0.0053;0.0747;0.0501;
1180875051187029;-0.0266;0.0545;0.0426;
1180875061297238;-0.0469;0.0193;0.0288;
1180875071398904;-0.0565;-0.0393;0.0000;
1180875081500571;-0.0968;-0.0691;-0.0192;
1180875091576196;-0.1021;-0.0499;-0.0064;
1180875101677863;-0.0947;-0.0020;-0.0064;
1180875111779529;-0.0522;-0.0084;0.0032;
1180875121905154;-0.0638;-0.0233;0.0085;
1180875132006873;-0.0479;-0.0212;0.0075;
1180875142108540;-0.0469;-0.0180;-0.0202;
1180875152197134;-0.0320;0.0023;-0.0202;
1180875162298800;-0.0437;0.0182;-0.0256;
1180875172400467;-0.0405;0.0385;-0.0330;
1180875182479373;-0.0277;-0.0095;-0.0320;
1180875192581040;-0.0213;-0.0531;-0.0043;
1180875202682706;-0.0352;-0.0478;-0.0160;
1180875212775831;-0.0202;0.0172;-0.0202;
1180875222877446;-0.0117;0.0300;-0.0032;
1180875232979165;0.0117;0.0129;-0.0266;
1180875243104113;0.0245;0.1129;-0.0373;
1180875253205779;0.0415;0.1843;-0.0266;
1180875263307498;0.0852;0.1609;-0.0277;
1180875273403071;0.0383;0.0969;-0.0064;
1180875283504790;-0.0032;0.0662;0.0000;
1180875293606404;-0.0096;0.0704;-0.0021;
1180875303707446;-0.0213;0.0395;0.0320;
1180875313809113;-0.0298;0.0001;0.0330;
1180875323910831;-0.0309;-0.0361;0.0309;
1180875334035988;-0.0383;-0.0350;0.0181;
1180875344137654;-0.0330;-0.0382;0.0117;
1180875354239321;-0.0288;-0.0063;-0.0075;
1180875364338696;-0.0447;-0.0148;-0.0053;
1180875374440415;-0.0330;-0.0340;-0.0107;
1180875384542029;-0.0330;-0.0297;-0.0032;
1180875394638279;-0.0341;-0.0648;0.0021;
1180875404739946;-0.0533;-0.0403;0.0181;
1180875414841613;-0.0543;-0.0606;0.0277;
1180875424935571;-0.0437;-0.0680;0.0032;
1180875435037290;-0.0288;-0.0137;-0.0138;
1180875445138956;-0.0266;-0.0158;-0.0075;
1180875455234217;-0.0245;-0.0105;-0.0107;
1180875465335936;-0.0266;-0.0446;0.0011;
1180875475437602;-0.0213;-0.0350;0.0149;
1180875485529738;-0.0245;-0.0372;0.0138;
1180875495631352;-0.0266;-0.0148;0.0298;
1180875505733019;-0.0383;-0.0968;0.0607;
1180875515862498;-0.0490;-0.2470;0.0714;
1180875525964321;-0.0947;-0.2406;0.0522;
1180875536066092;-0.1000;-0.1383;0.0426;
1180875546134686;-0.0638;-0.0254;0.0245;
1180875556236509;-0.0469;0.0513;0.0064;
1180875566338227;-0.0298;0.0790;-0.0053;
1180875576468175;-0.0533;0.0694;-0.0053;
1180875586569946;-0.0479;0.0300;-0.0043;
1180875596671769;-0.0680;0.0129;0.0192;
1180875606771977;-0.0702;0.0246;0.0213;
1180875616873800;-0.0702;0.0321;0.0043;
1180875626975623;-0.0490;0.0651;0.0266;
1180875637055363;-0.0607;0.0843;0.0234;
1180875647157134;-0.0490;0.0087;-0.0245;
1180875657258956;-0.0607;-0.0744;-0.0362;
1180875667354581;-0.0648;-0.1341;-0.0405;
1180875677456352;-0.0648;-0.1767;-0.0597;
1180875687558123;-0.0479;-0.1639;-0.0522;
1180875697668696;-0.0405;-0.1884;-0.0437;
1180875707770519;-0.0149;-0.1628;-0.0798;
1180875717872290;0.0011;-0.0499;-0.1075;
1180875728003279;0.0735;0.0523;-0.0925;
1180875738105102;0.1150;0.0406;-0.0936;
1180875748206873;0.1076;-0.0222;-0.1000;
1180875758277602;0.0735;-0.0403;-0.0872;
1180875768379373;0.0437;-0.0989;-0.0851;
1180875778481144;0.0245;-0.1075;-0.0659;
1180875788586404;0.0107;-0.0712;-0.0373;
1180875798688227;0.0330;-0.0627;-0.0234;
1180875808789998;0.0277;-0.0521;-0.0501;
1180875818888123;0.0362;-0.0126;-0.0479;
1180875828989894;0.0266;0.0193;-0.0447;
1180875839091665;0.0234;0.0097;-0.0501;
1180875849227446;-0.0085;-0.0340;-0.0309;
1180875859329217;-0.0011;-0.0009;-0.0437;
1180875869431040;-0.0021;0.0959;-0.0330;
1180875879496665;-0.0032;0.1193;-0.0181;
1180875889598436;-0.0107;0.0417;0.0043;
1180875899700206;-0.0320;-0.0521;0.0192;
1180875909802967;-0.0352;-0.0158;-0.0170;
1180875919904790;-0.0160;0.0864;-0.0117;
1180875930006561;-0.0064;0.1033;0.0021;
1180875940117759;-0.0192;0.1055;-0.0192;
1180875950219581;-0.0043;0.0364;-0.0277;
1180875960321352;-0.0373;-0.1011;-0.0043;
1180875970413904;-0.0638;-0.1682;0.0032;
1180875980515727;-0.0723;-0.0787;-0.0075;
1180875990617498;-0.0202;0.0150;-0.0234;
1180876000721613;0.0245;0.1161;-0.0522;
1180876010823436;0.0447;0.1790;-0.0744;
1180876020925206;0.0778;0.1715;-0.0808;
1180876031034425;0.0437;0.1406;-0.0617;
1180876041136248;0.0426;0.1044;-0.0607;
1180876051238019;0.0352;0.1023;-0.0490;
1180876061344321;0.0426;0.1768;-0.0437;
1180876071446092;0.0575;0.2088;-0.0128;
1180876081547915;0.0479;0.1001;-0.0075;
1180876091630675;0.0128;0.0438;-0.0288;
1180876101732498;0.0298;0.0513;-0.0597;
1180876111834269;0.0394;0.0406;-0.0352;
1180876121941300;0.0128;0.0076;-0.0320;
1180876132043123;0.0298;0.0140;-0.0597;
1180876142144894;0.0437;0.0321;-0.0501;
1180876152251769;0.0522;0.0087;-0.0447;
1180876162353592;0.0320;-0.0137;-0.0224;
1180876172455363;0.0266;-0.0233;0.0000;
1180876182545571;0.0394;-0.0201;-0.0256;
1180876192647394;0.0511;-0.0063;-0.0330;
1180876202749165;0.0479;0.0736;-0.0149;
1180876212831925;0.0586;0.1055;-0.0256;
1180876222933748;0.0479;0.0459;-0.0277;
1180876233035519;0.0224;-0.0297;-0.0043;
1180876243155519;0.0032;-0.0648;-0.0011;
1180876253257290;-0.0096;-0.0116;0.0021;
1180876263359061;0.0021;0.0001;0.0256;
1180876273455831;0.0138;-0.0499;0.0298;
1180876283557602;0.0011;-0.0233;0.0021;
1180876293659373;0.0170;0.0374;-0.0021;
1180876303767342;0.0149;0.0044;0.0021;
1180876313869165;-0.0064;-0.0297;-0.0043;
1180876323970936;-0.0149;-0.0052;-0.0181;
1180876334095831;0.0021;0.0033;0.0021;
1180876344197654;-0.0096;0.0119;0.0085;
1180876354299425;-0.0138;0.0012;0.0181;
1180876364373175;-0.0149;-0.0201;0.0256;
1180876374474998;-0.0330;-0.0233;0.0000;
1180876384576769;-0.0043;-0.0116;-0.0213;
1180876394677081;-0.0138;0.0055;-0.0011;
1180876404778852;0.0000;0.0023;-0.0128;
1180876414880623;0.0213;0.0161;-0.0075;
1180876424983279;0.0160;-0.0031;0.0224;
1180876435085102;0.0021;-0.0830;0.0309;
1180876445186873;-0.0160;-0.1309;0.0298;
1180876455294113;-0.0202;-0.1053;0.0277;
1180876465395936;-0.0021;-0.0478;0.0138;
1180876475497706;0.0192;0.0268;-0.0309;
1180876485584738;0.0234;0.0896;-0.0181;
1180876495686456;0.0405;0.1257;-0.0352;
1180876505788279;0.0352;0.1598;-0.0533;
1180876515929373;0.0405;0.1800;-0.0373;
1180876526031092;0.0160;0.1044;-0.0149;
1180876536132811;0.0032;0.1459;-0.0096;
1180876546203019;0.0107;0.1619;0.0032;
1180876556304686;0.0192;0.0704;-0.0107;
1180876566406404;-0.0011;0.0001;-0.0288;
1180876576505154;-0.0011;-0.0361;-0.0341;
1180876586606873;-0.0128;-0.0925;-0.0266;
1180876596708592;-0.0053;-0.1554;-0.0511;
1180876606793071;-0.0011;-0.1682;-0.0670;
1180876616894790;0.0043;-0.1756;-0.0798;
1180876626996509;-0.0064;-0.1224;-0.0798;
1180876637129842;0.0128;-0.0691;-0.0766;
1180876647231561;0.0362;-0.0680;-0.0787;
1180876657333279;0.0735;-0.0084;-0.0893;
1180876667418904;0.0980;0.1087;-0.1266;
1180876677520571;0.1044;0.1758;-0.0979;
1180876687622290;0.0863;0.1651;-0.0936;
1180876697727394;0.0692;0.1630;-0.0851;
1180876707829061;0.0415;0.1087;-0.0638;
1180876717930779;0.0192;-0.0020;-0.0383;
1180876728065154;0.0170;-0.0329;-0.0352;
1180876738166873;0.0298;-0.0372;-0.0277;
1180876748268592;0.0426;-0.0553;-0.0266;
1180876758347029;0.0554;-0.0659;-0.0575;
1180876768448748;0.0703;-0.0361;-0.0680;
1180876778550467;0.0682;-0.0041;-0.0597;
1180876788663592;0.0469;0.0321;-0.0648;
1180876798765311;0.0437;0.0129;-0.0627;
1180876808866977;0.0352;-0.0361;-0.0383;
1180876818968696;0.0458;0.0055;-0.0181;
1180876829070415;0.0458;0.0332;-0.0138;
1180876839172134;0.0437;0.0119;-0.0043;
1180876849281925;0.0554;0.0427;-0.0213;
1180876859383592;0.0650;0.0927;-0.0320;
1180876869485311;0.0501;0.0406;-0.0085;
1180876879559217;0.0469;-0.0372;-0.0266;
1180876889660936;0.0533;-0.0425;-0.0309;
1180876899762654;0.0543;-0.0904;-0.0032;
1180876909859113;0.0298;-0.1415;0.0032;
1180876919960831;0.0224;-0.1181;0.0128;
1180876930062550;0.0320;-0.1128;0.0181;
1180876940181509;0.0607;-0.1000;0.0192;
1180876950283227;0.0554;-0.0808;-0.0192;
1180876960384946;0.0650;-0.0393;-0.0213;
1180876970474842;0.0831;0.0129;-0.0383;
1180876980576561;0.0959;0.0555;-0.0659;
1180876990678279;0.0905;0.0108;-0.0426;
1180877000779321;0.0682;-0.1043;-0.0138;
1180877010881040;0.0469;-0.1234;0.0021;
1180877020982759;0.0682;-0.1426;0.0011;
1180877031086196;0.0778;-0.2534;0.0160;
1180877041187915;0.0756;-0.3226;0.0192;
1180877051289634;0.0511;-0.3056;0.0160;
1180877061404634;0.0586;-0.2907;0.0213;
1180877071506352;0.0533;-0.3194;0.0170;
1180877081608019;0.0650;-0.2822;-0.0202;
1180877091695779;0.0437;-0.2672;-0.0256;
1180877101797498;0.0415;-0.2225;-0.0011;
1180877111899217;0.0692;-0.1170;-0.0107;
1180877122012134;0.0565;-0.1181;0.0181;
1180877132113852;0.0873;-0.0915;0.0309;
1180877142215571;0.1001;0.0108;0.0107;
1180877152299842;0.1033;-0.0158;0.0341;
1180877162401561;0.0628;-0.1224;0.0671;
1180877172503227;0.0373;-0.1660;0.0565;
1180877182585779;0.0522;-0.1117;0.0415;
1180877192687498;0.0565;-0.1138;0.0533;
1180877202789165;0.0447;-0.0872;0.0469;
1180877212904113;0.0362;-0.0957;0.0543;
1180877223005831;0.0447;-0.1160;0.0660;
1180877233107498;0.0714;-0.0190;0.0671;
1180877243219113;0.1236;0.0619;0.0320;
1180877253320831;0.2312;0.1385;0.0479;
1180877263422550;0.3132;0.2205;0.0799;
1180877273520311;0.4218;0.2237;0.0937;
1180877283621977;0.4357;0.1683;0.1715;
1180877293723644;0.3622;0.0491;0.2141;
1180877303818644;0.3142;0.0321;0.2407;
1180877313920311;0.2120;0.0630;0.2812;
1180877324021977;0.1459;0.0161;0.2951;
1180877334120415;0.0767;-0.0201;0.3004;
1180877344222081;-0.0266;-0.0531;0.2738;
1180877354323800;-0.1586;-0.1021;0.2780;
1180877364439634;-0.2800;-0.0393;0.2333;
1180877374541352;-0.3450;0.0991;0.1683;
1180877384643071;-0.3791;0.2088;0.1332;
1180877394740884;-0.4015;0.2514;0.1161;
1180877404842602;-0.4015;0.3142;0.0692;
1180877414944321;-0.4068;0.3174;0.0533;
1180877425046509;-0.3897;0.2120;0.0288;
1180877435148227;-0.3258;0.2162;-0.0352;
1180877445249946;-0.1810;0.3696;-0.0712;
1180877455352863;-0.0744;0.4549;-0.0691;
1180877465454581;-0.0234;0.3302;-0.0659;
1180877475556300;0.0618;0.1427;-0.0479;
1180877485656404;0.1513;0.0300;-0.0256;
1180877495758123;0.1928;-0.0382;0.0085;
1180877505859790;0.2205;-0.0936;0.0330;
1180877516023800;0.2322;-0.1405;0.0703;
1180877526125675;0.2620;-0.0872;0.0778;
1180877536227602;0.2503;0.0555;0.0565;
1180877546262186;0.2130;0.1300;0.0884;
1180877556364113;0.1747;0.0896;0.1055;
1180877566465988;0.1726;0.1012;0.1023;
1180877576617081;0.1225;0.1885;0.1459;
1180877586719009;0.0778;0.1662;0.1864;
1180877596820884;0.0479;0.1161;0.2077;
1180877606871769;0.0128;0.1097;0.2407;
1180877616973696;-0.0394;0.0704;0.2631;
1180877627075623;-0.0798;0.0161;0.2546;
1180877637176613;-0.1394;-0.0158;0.2248;
1180877647278488;-0.1831;-0.0265;0.2237;
1180877657380415;-0.2427;-0.0531;0.1747;
1180877667477967;-0.2875;-0.0787;0.1481;
1180877677579894;-0.3375;-0.0702;0.1374;
1180877687681769;-0.3482;-0.0936;0.0980;
1180877697785050;-0.3439;-0.0723;0.0660;
1180877707886925;-0.3674;-0.0425;0.0511;
1180877717988852;-0.3652;-0.0840;0.0181;
1180877728104790;-0.3684;-0.0808;-0.0426;
1180877738206717;-0.3525;0.0161;-0.1075;
1180877748308644;-0.3226;0.0427;-0.1149;
1180877758386300;-0.2896;0.0119;-0.1501;
1180877768488175;-0.2406;0.0001;-0.1746;
1180877778590102;-0.1980;-0.0510;-0.1884;
1180877788687134;-0.1586;-0.1352;-0.1937;
1180877798789009;-0.1053;-0.1501;-0.2001;
1180877808890988;-0.0469;-0.1288;-0.1735;
1180877819025467;0.0064;-0.1511;-0.1735;
1180877829127394;0.0682;-0.1320;-0.1735;
1180877839229321;0.1076;-0.0286;-0.2140;
1180877849310206;0.1225;0.0545;-0.1948;
1180877859412134;0.1001;0.1001;-0.1884;
1180877869514061;0.1033;0.1193;-0.1916;
1180877879619946;0.0969;0.0980;-0.1628;
1180877889721873;0.1001;0.0545;-0.1181;
1180877899823800;0.0959;-0.0009;-0.0830;
1180877909929009;0.1012;-0.0020;-0.0437;
1180877920030936;0.0671;-0.0563;-0.0192;
1180877930132863;0.0554;-0.1288;-0.0043;
1180877940234321;0.0628;-0.0627;-0.0170;
1180877950336248;0.0320;-0.0148;0.0138;
1180877960438175;-0.0064;-0.0233;0.0011;
1180877970529946;-0.0128;-0.0020;-0.0149;
1180877980631873;-0.0447;-0.0009;-0.0170;
1180877990733800;-0.0607;-0.0201;0.0107;
1180878000832029;-0.0744;-0.0137;0.0170;
1180878010933956;-0.0787;0.0033;0.0373;
1180878021035884;-0.0734;-0.0063;0.0692;
1180878031141352;-0.0787;-0.0340;0.0767;
1180878041243279;-0.0766;-0.0372;0.0554;
1180878051345206;-0.0872;-0.0712;0.0682;
1180878061460936;-0.0851;-0.1256;0.0746;
1180878071562915;-0.1330;-0.1543;0.0671;
1180878081664790;-0.1714;-0.2150;0.0586;
1180878091747863;-0.1458;-0.2502;0.0415;
1180878101849790;-0.1362;-0.2385;0.0245;
1180878111951717;-0.1011;-0.1245;0.0064;
1180878122056613;-0.1085;0.0140;0.0075;
1180878132158540;-0.1202;0.0182;0.0277;
1180878142260467;-0.0659;-0.0095;0.0128;
1180878152363279;-0.0426;0.0832;-0.0288;
1180878162465206;-0.0341;0.1896;-0.0373;
1180878172567081;-0.0394;0.2088;-0.0266;
1180878182671665;-0.0383;0.1587;-0.0149;
1180878192773592;-0.0181;0.1161;0.0000;
1180878202875519;-0.0096;0.0843;-0.0032;
1180878212976769;-0.0479;-0.0137;-0.0128;
1180878223078696;-0.0469;-0.0585;0.0128;
1180878233180623;-0.0405;-0.1192;0.0075;
1180878243269425;-0.0043;-0.1128;-0.0011;
1180878253371300;-0.0011;-0.0222;-0.0554;
1180878263473279;-0.0021;0.0332;-0.0511;
1180878273573175;-0.0096;0.0214;-0.0447;
1180878283675050;-0.0032;-0.0201;-0.0691;
1180878293776977;-0.0202;-0.0542;-0.0734;
1180878303883175;-0.0053;-0.0712;-0.0437;
1180878313985102;0.0053;-0.0936;-0.0373;
1180878324086977;0.0692;-0.0798;-0.0224;
1180878334211040;0.1140;-0.0009;0.0117;
1180878344313019;0.0905;0.0268;0.0181;
1180878354414894;0.0916;0.0193;-0.0011;
1180878364508800;0.1076;0.1012;-0.0341;
1180878374610675;0.0522;0.1694;-0.0053;
1180878384712654;0.0149;0.1481;0.0138;
1180878394806196;0.0309;0.1353;0.0000;
1180878404908071;0.0277;0.1513;0.0117;
1180878415010050;0.0160;0.1779;0.0256;
1180878425114321;-0.0128;0.1268;0.0373;
1180878435216248;-0.0096;0.0896;0.0586;
1180878445318175;-0.0309;0.1023;0.0671;
1180878455414529;-0.0979;0.0140;0.0831;
1180878465516404;-0.1330;-0.0851;0.0543;
1180878475618331;-0.1021;-0.0723;0.0266;
1180878485712550;-0.1607;-0.0659;0.0277;
1180878495814477;-0.1618;-0.0126;-0.0320;
1180878505916404;-0.1437;0.0523;-0.0638;
1180878516008852;-0.2353;0.0672;-0.0565;
1180878526110519;-0.2236;0.0704;-0.0734;
1180878536212238;-0.2182;0.0715;-0.1053;
1180878546333331;-0.1937;0.1087;-0.0851;
1180878556435050;-0.2044;0.0694;-0.0734;
1180878566536769;-0.1660;-0.0286;-0.0904;
1180878576629581;-0.0533;-0.0158;-0.1320;
1180878586731300;-0.0053;0.0609;-0.1298;
1180878596833019;-0.0085;0.0672;-0.1085;
1180878606915779;0.0405;0.0214;-0.1149;
1180878617017498;0.0682;-0.0403;-0.1064;
1180878627119165;0.0852;-0.0925;-0.0840;
1180878637235884;0.1321;-0.1298;-0.0680;
1180878647337602;0.1406;-0.1671;-0.0586;
1180878657439269;0.1694;-0.1309;-0.0426;
1180878667533852;0.1545;-0.0947;-0.0170;
1180878677635519;0.1417;-0.0638;-0.0064;
1180878687737238;0.1427;0.0545;-0.0288;
1180878697841404;0.0810;0.1854;-0.0213;
1180878707943071;0.0213;0.2226;-0.0383;
1180878718044790;0.0138;0.2375;-0.0533;
1180878728169165;-0.0256;0.2386;-0.0394;
1180878738270831;-0.0415;0.2184;-0.0202;
1180878748372550;-0.0245;0.2152;-0.0224;
1180878758448904;-0.0266;0.1736;-0.0234;
1180878768550571;-0.0213;0.1310;0.0064;
1180878778652290;-0.0117;0.1427;0.0160;
1180878788756352;-0.0021;0.1204;0.0053;
1180878798858019;-0.0043;0.0566;-0.0075;
1180878808959738;-0.0107;0.0406;-0.0096;
1180878819083384;0.0021;0.0182;-0.0224;
1180878829185102;0.0096;0.0161;-0.0533;
1180878839286769;0.0192;0.0300;-0.0744;
1180878849393279;0.0224;0.0076;-0.0586;
1180878859494946;0.0554;-0.0073;-0.0511;
1180878869596665;0.0703;-0.0393;-0.0691;
1180878879682238;0.1321;-0.0489;-0.0479;
1180878889783956;0.1854;-0.0041;-0.0298;
1180878899885675;0.1981;-0.0414;-0.0138;
1180878909997446;0.2184;-0.1288;-0.0032;
1180878920099165;0.2855;-0.0979;0.0149;
1180878930200884;0.2674;-0.0521;0.0394;
1180878940298800;0.2194;-0.0595;0.0405;
1180878950400519;0.1928;-0.0329;0.0383;
1180878960502238;0.0916;-0.0617;0.0458;
1180878970591509;0.0650;-0.0862;0.0607;
1180878980693227;0.0320;-0.0254;0.0543;
1180878990794946;-0.0330;0.0065;0.0479;
1180879000898175;-0.0819;-0.0180;0.0490;
1180879010999894;-0.1085;-0.0585;0.0671;
1180879021101613;-0.1405;-0.0936;0.0820;
1180879031210675;-0.1501;-0.1011;0.0373;
1180879041312342;-0.1522;-0.0979;0.0245;
1180879051414113;-0.1597;-0.0957;0.0309;
1180879061525050;-0.1085;-0.0617;-0.0032;
1180879071626717;-0.0808;-0.0137;-0.0096;
1180879081728436;-0.0734;0.0491;-0.0288;
1180879091806925;-0.0565;0.1140;-0.0192;
1180879101908644;-0.0883;0.0577;0.0021;
1180879112010363;-0.0830;-0.1064;0.0032;
1180879122125259;-0.0597;-0.1767;-0.0053;
1180879132226925;-0.0543;-0.1000;0.0011;
1180879142328644;-0.0565;-0.0776;0.0075;
1180879152430936;-0.0447;-0.0957;-0.0160;
1180879162532654;-0.0320;-0.0595;-0.0192;
1180879172634321;-0.0202;0.0523;-0.0245;
1180879182721925;0.0128;0.1864;-0.0597;
1180879192823592;-0.0213;0.1960;-0.0586;
1180879202925363;-0.0458;0.0758;-0.0373;
1180879213028592;-0.0830;-0.0979;-0.0149;
1180879223130259;-0.1032;-0.2662;-0.0266;
1180879233231977;-0.0565;-0.2608;-0.0415;
1180879243331300;-0.0458;-0.1692;-0.0330;
1180879253433019;-0.0277;-0.1458;-0.0277;
1180879263534738;0.0277;-0.0883;-0.0138;
1180879273634165;0.0245;-0.0329;-0.0330;
1180879283735831;0.0192;-0.0190;-0.0447;
1180879293837498;0.0192;-0.0169;-0.0383;
1180879303940259;0.0522;0.0140;-0.0362;
1180879314041977;0.0213;-0.0212;-0.0288;
1180879324143644;-0.0149;-0.1320;-0.0426;
1180879334270988;0.0117;-0.1320;-0.0288;
1180879344372654;0.0053;-0.0893;-0.0192;
1180879354474373;0.0309;-0.0712;-0.0192;
1180879364558071;0.0543;-0.0403;-0.0064;
1180879374659790;0.0426;-0.0329;0.0085;
1180879384761509;0.0405;-0.0105;0.0277;
1180879394852186;0.0362;0.0246;0.0192;
1180879404953852;0.0192;0.0182;0.0000;
1180879415055571;-0.0043;0.0140;0.0181;
1180879425152915;-0.0309;0.0119;0.0149;
1180879435254581;-0.0490;0.0076;-0.0117;
1180879445356300;-0.0659;-0.0073;-0.0202;
1180879455467342;-0.1138;-0.0734;-0.0085;
1180879465569061;-0.1256;-0.0904;-0.0117;
1180879475670727;-0.1352;-0.0617;-0.0330;
1180879485764946;-0.1117;-0.0595;-0.0479;
1180879495866613;-0.0872;-0.0734;-0.0373;
1180879505968384;-0.0490;-0.0361;-0.0479;
1180879516091821;-0.0011;-0.0158;-0.0490;
1180879526193540;0.0117;-0.0116;-0.0352;
1180879536295311;0.0298;-0.0095;-0.0543;
1180879546349113;0.0394;-0.0446;-0.0702;
1180879556450831;0.0746;-0.0627;-0.0638;
1180879566552550;0.1023;-0.0222;-0.0723;
1180879576681665;0.1225;-0.0180;-0.0798;
1180879586783384;0.1694;-0.0244;-0.0648;
1180879596885102;0.1758;-0.0126;-0.0181;
1180879606998279;0.1598;-0.0244;-0.0234;
1180879617099998;0.1832;-0.0158;-0.0266;
1180879627201769;0.1640;0.0001;-0.0138;
1180879637285519;0.1406;-0.0318;0.0138;
1180879647387238;0.1289;-0.0648;0.0213;
1180879657488956;0.1182;-0.0244;0.0160;
1180879667600571;0.0788;0.0342;0.0011;
1180879677702238;0.0373;0.0108;0.0181;
1180879687804009;0.0085;-0.0137;0.0043;
1180879697910467;-0.0032;0.0161;-0.0298;
1180879708012186;-0.0213;0.0832;-0.0213;
1180879718113956;-0.0586;0.0630;-0.0128;
1180879728234842;-0.0723;0.0268;-0.0160;
1180879738336561;-0.0862;0.0289;-0.0373;
1180879748438279;-0.0904;-0.0318;-0.0490;
1180879758521509;-0.0723;-0.0169;-0.0192;
1180879768623227;-0.0458;0.0150;-0.0107;
1180879778724998;-0.0064;-0.0063;-0.0256;
1180879788821613;0.0298;0.0246;-0.0415;
1180879798923331;0.0607;0.0811;-0.0702;
1180879809025102;0.0756;0.0822;-0.0320;
1180879819123175;0.0575;0.0268;-0.0107;
1180879829224946;0.1044;0.0257;-0.0426;
1180879839326665;0.1161;0.0640;-0.0638;
1180879849423904;0.1044;0.0672;-0.0469;
1180879859525623;0.1087;0.0438;-0.0138;
1180879869627342;0.1076;0.0470;-0.0053;
1180879879745102;0.0980;0.0417;-0.0053;
1180879889846821;0.0799;-0.0126;-0.0032;
1180879899948592;0.1108;0.0278;0.0160;
1180879910046509;0.0927;0.0822;0.0394;
1180879920148227;0.0916;0.0470;0.0298;
1180879930249998;0.0937;0.0364;0.0320;
1180879940358800;0.0660;0.0916;0.0373;
1180879950460519;0.0224;0.0747;0.0447;
1180879960562290;-0.0415;-0.0489;0.0533;
1180879970657602;-0.0819;-0.1692;0.0277;
1180879980759373;-0.0638;-0.1660;0.0138;
1180879990861092;-0.1138;-0.1905;0.0021;
1180880000963384;-0.1053;-0.2427;-0.0107;
1180880011065102;-0.0872;-0.2363;0.0032;
1180880021166873;-0.0808;-0.1905;-0.0288;
1180880031256300;-0.0405;-0.1543;-0.0447;
1180880041358071;-0.0277;-0.0872;-0.0458;
1180880051459790;-0.0256;-0.0744;-0.0330;
1180880061582550;0.0224;-0.1224;-0.0256;
1180880071684269;0.0724;-0.1128;-0.0202;
1180880081786040;0.1044;-0.0212;-0.0597;
1180880091876352;0.0905;-0.0180;-0.0437;
1180880101978071;0.0447;-0.1138;-0.0288;
1180880112079842;0.1172;-0.1213;-0.0586;
1180880122185154;0.1204;-0.0915;-0.0554;
1180880132286925;0.1289;-0.0510;-0.0447;
1180880142388644;0.1417;-0.0691;-0.0224;
1180880152485519;0.1246;-0.1107;-0.0096;
1180880162587238;0.2024;0.0662;-0.0362;
1180880172688956;0.2003;0.2503;-0.0511;
1180880182779581;0.1161;0.2248;-0.0266;
1180880192881300;0.1353;0.1545;-0.0128;
1180880202983019;0.1768;0.1374;-0.0266;
1180880213077654;0.1758;0.1332;-0.0075;
1180880223179373;0.1609;0.0991;-0.0170;
1180880233281092;0.1811;0.0822;-0.0107;
1180880243409217;0.1523;0.0651;0.0085;
1180880253510988;0.1577;0.0619;-0.0075;
1180880263612706;0.1800;0.1225;-0.0586;
1180880273695311;0.2045;0.2290;-0.0330;
1180880283797029;0.1587;0.2823;-0.0085;
1180880293898696;0.1864;0.2919;-0.0266;
1180880304002967;0.1854;0.3398;0.0085;
1180880314104686;0.1523;0.3771;-0.0117;
1180880324206404;0.0916;0.1363;-0.0288;
1180880334333592;0.0383;-0.1085;0.0075;
1180880344435311;0.0831;0.0321;0.0032;
1180880354537029;0.0778;0.0854;-0.0085;
1180880364614842;0.0490;0.0204;0.0021;
1180880374716561;0.0895;0.0790;-0.0149;
1180880384818331;0.0810;0.1747;0.0011;
1180880394931509;0.0405;0.1822;0.0075;
1180880405033227;0.0138;0.0969;-0.0138;
1180880415134998;0.0032;0.0811;-0.0383;
1180880425219425;-0.0138;0.1150;-0.0309;
1180880435321144;-0.0522;0.0630;-0.0128;
1180880445422915;-0.0501;0.0150;-0.0266;
1180880455535571;-0.0128;0.0672;-0.0224;
1180880465637290;-0.0362;0.0481;-0.0352;
1180880475739061;-0.0192;-0.0126;-0.0245;
1180880485841404;0.0117;0.0097;-0.0202;
1180880495943175;0.0149;-0.0190;-0.0085;
1180880506033644;0.0181;-0.0862;0.0032;
1180880516135311;0.0426;-0.0851;-0.0245;
1180880526237081;0.0511;-0.1117;-0.0160;
1180880536338800;0.0522;-0.1085;0.0021;
1180880546460936;0.0863;-0.1277;0.0181;
1180880556562706;0.0916;-0.1831;0.0032;
1180880566664425;0.0980;-0.1799;-0.0021;
1180880576743488;0.0969;-0.1277;0.0021;
1180880586845206;0.0714;-0.1543;0.0085;
1180880596946977;0.0607;-0.1767;0.0149;
1180880607058956;0.0735;-0.1586;0.0288;
1180880617160675;0.0266;-0.1905;0.0234;
1180880627262446;0.0330;-0.2204;0.0277;
1180880637348019;0.0394;-0.2055;0.0309;
1180880647449738;0.0586;-0.1820;0.0256;
1180880657551456;0.0724;-0.1692;0.0234;
1180880667662029;0.0916;-0.1692;0.0469;
1180880677763748;0.1012;-0.1618;0.0202;
1180880687865519;0.1204;-0.1362;0.0373;
1180880697973488;0.1087;-0.1394;0.0575;
1180880708075206;0.1076;-0.1298;0.0447;
1180880718176977;0.1481;-0.1021;0.0234;
1180880728264165;0.1598;-0.0723;0.0415;
1180880738365831;0.1715;-0.0563;0.0394;
1180880748467550;0.1651;-0.0372;0.0352;
1180880758578071;0.1513;-0.0233;0.0437;
1180880768679790;0.1363;-0.0148;0.0458;
1180880778781561;0.1342;-0.0105;0.0447;
1180880788880884;0.1332;-0.0222;0.0501;
1180880798982602;0.1715;0.0012;0.0692;
1180880809084373;0.1939;0.0609;0.0660;
1180880819209738;0.2205;0.1140;0.0724;
1180880829311456;0.2269;0.1449;0.0607;
1180880839413175;0.2418;0.1619;0.0501;
1180880849452342;0.2280;0.1971;0.0842;
1180880859554061;0.2429;0.2418;0.0927;
1180880869655779;0.2684;0.2823;0.0831;
1180880879800675;0.2823;0.2652;0.0628;
1180880889902394;0.2695;0.2695;0.0660;
1180880900004165;0.2067;0.2535;0.0905;
1180880910103592;0.1459;0.1619;0.1044;
1180880920205311;0.1076;0.1001;0.0991;
1180880930307081;0.0586;0.0779;0.0916;
1180880940416613;0.0224;0.0523;0.0852;
1180880950518331;0.0085;0.0534;0.0948;
1180880960620102;0.0383;0.0715;0.1033;
1180880970713696;0.0352;0.1310;0.0852;
1180880980815415;0.0394;0.1044;0.0660;
1180880990917186;0.0341;0.0694;0.0927;
1180881001019946;0.0128;0.0726;0.0746;
1180881011121665;0.0426;0.0907;0.0565;
1180881021223436;0.0266;0.0640;0.0682;
1180881031331196;0.0447;0.0214;0.0682;
1180881041432915;0.0458;-0.0425;0.0554;
1180881051534686;0.0298;-0.0840;0.0362;
1180881061616352;0.0224;-0.0979;0.0426;
1180881071718019;0.0107;-0.1128;0.0650;
1180881081819790;0.0192;-0.0979;0.0607;
1180881091931613;0.0352;-0.0446;0.0533;
1180881102033331;0.0277;0.0150;0.0522;
1180881112135102;0.0149;0.0417;0.0671;
1180881122248592;0.0138;0.0172;0.0895;
1180881132350363;0.0107;-0.0158;0.1097;
1180881142452081;0.0288;0.0204;0.1055;
1180881152540884;0.0330;0.0140;0.1087;
1180881162642654;0.0352;-0.0158;0.1257;
1180881172744373;0.0181;-0.0382;0.1150;
1180881182833384;-0.0160;-0.0222;0.1087;
1180881192935102;-0.0575;-0.0265;0.1353;
1180881203036821;-0.0808;-0.0563;0.1577;
1180881213150779;-0.1160;-0.0766;0.1289;
1180881223252498;-0.1682;-0.0670;0.0916;
1180881233354217;-0.2332;-0.0521;0.0767;
1180881243462342;-0.2491;-0.0563;0.0703;
1180881253564113;-0.2502;-0.0212;0.0735;
1180881263665831;-0.2545;-0.0095;0.0650;
1180881273757342;-0.2545;-0.0190;0.0426;
1180881283859061;-0.2182;-0.0158;0.0138;
1180881293960779;-0.1873;-0.0137;0.0128;
1180881304051769;-0.1362;-0.0297;0.0128;
1180881314153436;-0.0925;-0.0574;0.0128;
1180881324255154;-0.0202;-0.0340;0.0064;
1180881334390154;0.0522;0.0033;0.0160;
1180881344491873;0.0756;-0.0009;0.0309;
1180881354593592;0.0937;0.0001;-0.0107;
1180881364671925;0.1332;0.0214;-0.0053;
1180881374773644;0.1257;0.0225;0.0373;
1180881384875415;0.1342;-0.0084;0.0469;
1180881394970988;0.1332;-0.0318;0.0394;
1180881405072706;0.1300;-0.0158;0.0128;
1180881415174425;0.1150;-0.0009;0.0107;
1180881425300571;0.0916;0.0182;0.0330;
1180881435402290;0.0660;0.0491;0.0490;
1180881445504061;0.0415;0.0747;0.0341;
1180881455590259;0.0405;0.0758;0.0160;
1180881465691977;0.0320;0.0822;0.0256;
1180881475793748;-0.0053;0.1033;0.0341;
1180881485906352;-0.0256;0.0385;0.0352;
1180881496008071;-0.0149;-0.0009;0.0330;
1180881506109842;-0.0213;0.0278;0.0383;
1180881516192654;-0.0341;0.0204;0.0405;
1180881526294321;-0.0415;-0.0265;0.0543;
1180881536395988;-0.0383;-0.0361;0.0597;
1180881546506613;-0.0734;-0.0063;0.0043;
1180881556608331;-0.0936;-0.0126;-0.0117;
1180881566709998;-0.1000;-0.0553;0.0352;
1180881576817134;-0.1181;-0.0265;0.0543;
1180881586918800;-0.1160;0.0459;0.0149;
1180881597020519;-0.1096;0.0044;-0.0043;
1180881607129581;-0.1181;-0.0009;-0.0032;
1180881617231248;-0.1383;0.0651;0.0000;
1180881627332967;-0.1607;0.0353;0.0170;
1180881637412446;-0.1586;-0.0510;0.0138;
1180881647514113;-0.1650;-0.0372;0.0043;
1180881657615831;-0.1575;0.0470;0.0192;
1180881667722550;-0.1746;0.0598;0.0117;
1180881677824269;-0.1746;-0.0031;-0.0043;
1180881687925988;-0.1756;-0.0148;0.0341;
1180881698029842;-0.1959;-0.0116;0.0383;
1180881708131561;-0.2172;0.0023;-0.0117;
1180881718233279;-0.1852;0.0129;-0.0160;
1180881728351092;-0.1565;0.0364;0.0117;
1180881738452759;-0.1682;0.0513;0.0224;
1180881748554477;-0.1320;0.0609;-0.0064;
1180881758641196;-0.1277;0.0491;-0.0288;
1180881768742915;-0.1383;0.0459;-0.0160;
1180881778844634;-0.1075;0.0523;-0.0138;
1180881788939946;-0.1213;0.0364;-0.0128;
1180881799041665;-0.0989;0.0150;-0.0170;
1180881809143384;-0.0979;0.0033;-0.0394;
1180881819244529;-0.0893;0.0182;-0.0691;
1180881829346248;-0.0925;0.0087;-0.0702;
1180881839447967;-0.0893;-0.0158;-0.0648;
1180881849568331;-0.0712;0.0076;-0.0638;
1180881859669998;-0.0597;0.0310;-0.0565;
1180881869771717;-0.0383;-0.0041;-0.0575;
1180881879864634;0.0085;0.0257;-0.0862;
1180881889966352;0.0266;0.0300;-0.0840;
1180881900068071;0.0032;-0.0403;-0.0755;
1180881910161925;0.0682;-0.0148;-0.0638;
1180881920263644;0.0735;-0.0041;-0.0479;
1180881930365363;0.0991;-0.0372;-0.0426;
1180881940467967;0.1214;-0.0254;-0.0405;
1180881950569686;0.1587;-0.0073;-0.0607;
1180881960671404;0.1545;0.0182;-0.0277;
1180881970771717;0.1449;0.0427;0.0032;
1180881980873384;0.1619;0.0779;-0.0405;
1180881990975154;0.1662;0.1161;-0.0458;
1180882001078696;0.1055;0.0800;-0.0149;
1180882011180415;0.0767;0.0502;0.0192;
1180882021282134;0.0522;0.0481;0.0075;
1180882031372550;0.0288;0.0044;-0.0202;
1180882041474269;0.0426;-0.0350;-0.0021;
1180882051575988;0.0170;0.0012;-0.0202;
1180882061674061;0.0138;0.0289;0.0213;
1180882071775727;0.0032;-0.0073;-0.0032;
1180882081877446;0.0266;0.0055;-0.0064;
1180882091992863;0.0138;0.0481;-0.0224;
1180882102094581;0.0096;0.0577;-0.0149;
1180882112196300;0.0256;0.0097;-0.0170;
1180882122306509;0.0341;0.0119;-0.0149;
1180882132408175;0.0586;0.0417;-0.0085;
1180882142509946;0.0415;0.0534;-0.0192;
1180882152601821;0.0682;0.0236;-0.0107;
1180882162703540;0.0352;-0.0009;-0.0288;
1180882172805259;0.0309;0.0044;-0.0021;
1180882182902863;0.0096;-0.0340;-0.0096;
1180882193004529;0.0138;-0.0723;-0.0064;
1180882203106248;-0.0043;-0.0830;-0.0149;
1180882213220154;0.0202;-0.0553;-0.0341;
1180882223321873;0.0075;-0.0009;-0.0309;
1180882233423540;-0.0202;-0.0340;-0.0288;
1180882243509790;-0.0511;-0.1085;-0.0565;
1180882253611456;-0.0266;-0.0957;-0.0617;
1180882263713175;-0.0819;-0.0659;-0.0511;
1180882273815102;-0.0522;-0.0925;-0.0383;
1180882283916769;-0.0893;-0.1469;-0.0607;
1180882294018488;-0.0447;-0.2065;-0.0617;
1180882304118852;-0.0341;-0.2289;-0.0533;
1180882314220571;-0.0064;-0.1756;-0.0277;
1180882324322238;0.0426;-0.2055;-0.0352;
1180882334447550;0.1747;-0.1288;-0.0648;
1180882344549217;0.2248;0.1140;-0.0586;
1180882354650936;0.2344;0.3654;-0.0533;
1180882364752238;0.2525;0.4410;-0.0415;
1180882374853956;0.2386;0.2780;-0.0224;
1180882384955675;0.3089;0.1321;0.0021;
1180882395041300;0.2184;0.0364;0.0352;
1180882405143019;0.2130;-0.0766;0.0362;
1180882415244738;0.1928;-0.1628;0.0479;
1180882425342134;0.2546;-0.1692;0.0586;
1180882435443852;0.2642;-0.1522;0.0650;
1180882445545571;0.2684;-0.0712;0.0831;
1180882455664842;0.2770;-0.0116;0.0735;
1180882465766561;0.1917;0.0342;0.1012;
1180882475868227;0.1960;0.0736;0.0682;
1180882486011509;0.1161;0.0172;0.0607;
1180882496113175;0.0362;0.0278;0.0735;
1180882506214894;-0.0053;0.0566;0.0799;
1180882516249165;-0.0776;0.0459;0.1023;
1180882526350831;-0.0957;0.0204;0.0607;
1180882536452550;-0.1170;0.0449;0.0650;
1180882546610675;-0.1234;0.0523;0.0639;
1180882556712342;-0.1692;-0.0457;0.0714;
1180882566814009;-0.1543;-0.0276;0.0756;
1180882576880050;-0.1873;0.0640;0.0522;
1180882586981717;-0.2321;0.1001;0.0554;
1180882597083384;-0.2545;0.0310;0.0362;
1180882607175467;-0.2608;0.0417;0.0213;
1180882617277186;-0.2523;0.1395;0.0245;
1180882627378852;-0.2513;0.1225;0.0373;
1180882637484113;-0.2566;0.0523;0.0426;
1180882647585779;-0.1927;0.1150;-0.0107;
1180882657687498;-0.1916;0.1885;0.0021;
1180882667794113;-0.1842;0.1502;0.0277;
1180882677895779;-0.1437;0.1129;0.0064;
1180882687997498;-0.1469;0.1758;0.0202;
1180882698097342;-0.1767;0.1758;0.0011;
1180882708199061;-0.3056;-0.2055;-0.0149;
1180882718300727;-0.3354;-0.4505;-0.0277;
1180882728383384;-0.3471;-0.4260;-0.0426;
1180882738485050;-0.3162;-0.2928;-0.0266;
1180882748586769;-0.2001;-0.1405;-0.0341;
1180882758697029;-0.0744;-0.0169;-0.0830;
1180882768798748;-0.0266;0.0672;-0.0597;
1180882778900415;-0.0394;0.1257;-0.0277;
1180882789008071;-0.0405;0.1683;-0.0341;
1180882799109790;-0.0394;0.1971;-0.0053;
1180882809211456;-0.0288;0.1566;-0.0117;
1180882819309946;-0.0181;0.0790;-0.0117;
1180882829411665;-0.0075;0.0342;0.0213;
1180882839513331;-0.0011;-0.0467;0.0138;
1180882849629009;-0.0192;-0.1075;0.0138;
1180882859730675;-0.0032;-0.0702;0.0362;
1180882869832342;0.0011;-0.0361;0.0234;
1180882879919217;0.0053;-0.0105;0.0011;
1180882890020884;0.0149;0.0332;0.0192;
1180882900122602;0.0096;0.0182;0.0511;
1180882910221300;0.0043;-0.0457;0.0266;
1180882920322967;-0.0160;-0.0041;0.0011;
1180882930424686;-0.0543;0.0449;0.0021;
1180882940536769;-0.0383;0.0353;-0.0021;
1180882950638436;-0.0160;0.0779;-0.0053;
1180882960740102;-0.0362;0.1353;-0.0075;
1180882970834217;-0.0447;0.0948;-0.0181;
1180882980935936;-0.0373;0.0289;-0.0224;
1180882991037602;-0.0394;0.0246;-0.0107;
1180883001134425;-0.0352;0.0225;-0.0053;
1180883011236092;-0.0426;-0.0329;-0.0170;
1180883021337811;-0.0330;-0.0702;-0.0170;
1180883031441613;-0.0277;-0.0222;-0.0160;
1180883041543331;-0.0309;-0.0169;-0.0224;
1180883051644998;-0.0277;-0.0308;-0.0288;
1180883061765884;-0.0192;0.0012;-0.0224;
1180883071867550;-0.0234;0.0300;-0.0288;
1180883081969269;-0.0213;0.0257;-0.0415;
1180883092063852;-0.0224;0.0364;-0.0245;
1180883102165519;-0.0266;0.0630;-0.0053;
1180883112267238;-0.0160;0.0704;-0.0192;
1180883122358904;-0.0202;0.0459;-0.0181;
1180883132460623;-0.0256;0.0268;-0.0064;
1180883142562290;-0.0245;-0.0041;0.0053;
1180883152666717;-0.0117;-0.0158;0.0011;
1180883162768384;-0.0192;-0.0169;-0.0011;
1180883172870050;-0.0426;-0.0318;0.0181;
1180883182978696;-0.0405;-0.0414;0.0277;
1180883193080363;-0.0415;-0.0308;0.0202;
1180883203182029;-0.0447;-0.0105;0.0192;
1180883213256092;-0.0490;0.0268;0.0298;
1180883223357759;-0.0883;0.0342;0.0415;
1180883233459425;-0.0744;0.0630;0.0298;
1180883243577863;-0.0712;0.1161;0.0181;
1180883253679529;-0.1405;0.0300;0.0288;
1180883263781196;-0.1714;-0.0084;0.0298;
1180883273877863;-0.1735;0.0481;0.0128;
1180883283979529;-0.1714;-0.0095;-0.0032;
1180883294081248;-0.1682;-0.1085;0.0021;
1180883304195154;-0.1767;-0.0712;0.0160;
1180883314296821;-0.1756;0.0001;-0.0021;
1180883324398488;-0.1138;-0.0031;-0.0309;
1180883334486300;-0.0426;-0.0393;-0.0256;
1180883344587967;-0.0181;-0.0041;-0.0064;
1180883354689686;-0.0096;0.0481;-0.0011;
1180883364804113;0.0043;0.0182;-0.0149;
1180883374905831;0.0426;0.0055;-0.0266;
1180883385007498;0.0810;0.0172;-0.0149;
1180883395106925;0.1140;-0.0148;0.0032;
1180883405208592;0.1630;-0.0222;0.0170;
1180883415310259;0.1832;0.0033;0.0234;
1180883425397550;0.1960;-0.0201;0.0202;
1180883435499217;0.2130;-0.0499;0.0213;
1180883445600936;0.2056;-0.0382;0.0330;
1180883455702446;0.1875;-0.0148;0.0490;
1180883465804113;0.1598;0.0033;0.0575;
1180883475905779;0.1214;0.0055;0.0575;
1180883486018384;0.0937;0.0033;0.0533;
1180883496120050;0.0703;0.0140;0.0490;
1180883506221769;0.0309;0.0023;0.0586;
1180883516306613;-0.0053;-0.0190;0.0703;
1180883526408279;-0.0234;0.0033;0.0820;
1180883536509946;-0.0192;0.0193;0.0831;
1180883546615050;-0.0107;-0.0031;0.0810;
1180883556716717;-0.0117;-0.0009;0.0714;
1180883566818384;-0.0053;0.0268;0.0703;
1180883576927654;-0.0362;0.0246;0.0810;
1180883587029321;-0.0479;0.0353;0.0905;
1180883597130988;-0.0341;0.0885;0.0884;
1180883607227081;-0.0170;0.1459;0.0842;
1180883617328748;-0.0075;0.1534;0.0799;
1180883627430415;-0.0117;0.1023;0.0618;
1180883637533904;-0.0341;0.0300;0.0522;
1180883647635571;-0.0415;-0.0190;0.0607;
1180883657737238;-0.0458;-0.0137;0.0778;
1180883667854529;-0.0320;0.0150;0.0831;
1180883677956196;-0.0373;0.0087;0.0671;
1180883688057863;-0.0426;-0.0126;0.0437;
1180883698163384;-0.0107;-0.0137;0.0192;
1180883708265050;0.0138;0.0108;-0.0021;
1180883718366717;-0.0128;0.0502;-0.0021;
1180883728470467;-0.0320;0.0959;-0.0032;
1180883738572134;-0.0522;0.1268;-0.0107;
1180883748673800;-0.0702;0.1097;-0.0277;
1180883758752759;-0.0192;0.0959;-0.0522;
1180883768854425;0.0724;0.0736;-0.0680;
1180883778956092;0.1555;0.0364;-0.0723;
1180883789062446;0.2162;0.0395;-0.0565;
1180883799164061;0.2248;0.0438;-0.0341;
1180883809265779;0.2152;0.0438;-0.0288;
1180883819376509;0.2120;0.0566;-0.0415;
1180883829478175;0.2418;0.0150;-0.0394;
1180883839579842;0.3537;-0.0201;-0.0096;
1180883849704009;0.4442;0.0119;0.0288;
1180883859805623;0.4623;0.0225;0.0852;
1180883869907290;0.4857;0.0108;0.1395;
1180883879974529;0.4804;0.0161;0.1587;
1180883890076196;0.4676;0.0204;0.1662;
1180883900177863;0.5039;0.0108;0.1843;
1180883910279425;0.5326;-0.0073;0.2194;
1180883920381092;0.5156;-0.0116;0.2599;
1180883930482759;0.4581;-0.0158;0.2897;
1180883940588279;0.3888;-0.0233;0.3068;
1180883950689946;0.2972;-0.0190;0.3079;
1180883960791613;0.2248;-0.0116;0.2983;
1180883970895154;0.1726;0.0001;0.2897;
1180883980996821;0.1268;0.0172;0.2908;
1180883991098488;0.0884;-0.0020;0.2897;
1180884001205259;0.0277;-0.0286;0.2738;
1180884011306925;-0.0288;-0.0286;0.2429;
1180884021408592;-0.0352;-0.0222;0.2067;
1180884031513384;-0.0309;-0.0372;0.1811;
1180884041615050;-0.0575;-0.0340;0.1587;
1180884051716717;-0.0798;-0.0084;0.1353;
1180884061819217;-0.0862;-0.0052;0.1204;
1180884071920884;-0.1117;0.0055;0.1087;
1180884082022550;-0.1543;0.0427;0.0991;
1180884092118488;-0.1639;0.0459;0.0937;
1180884102220154;-0.1181;0.0076;0.0842;
1180884112321821;-0.0479;-0.0063;0.0660;
1180884122420467;0.0320;-0.0052;0.0543;
1180884132522186;0.0724;-0.0052;0.0522;
1180884142623800;0.1097;-0.0286;0.0597;
1180884152717446;0.2578;-0.0819;0.0916;
1180884162819113;0.4346;-0.1170;0.1406;
1180884172920779;0.4889;-0.0925;0.1726;
1180884183041092;0.4389;-0.0340;0.1981;
1180884193142759;0.4080;-0.0244;0.2056;
1180884203244425;0.4463;-0.0617;0.2120;
1180884213314529;0.4666;-0.0489;0.2226;
1180884223416196;0.4325;0.0087;0.2173;
1180884233517863;0.4240;0.0108;0.2067;
1180884243621300;0.4389;0.0055;0.1928;
1180884253722967;0.3867;0.0364;0.1811;
1180884263824634;0.2695;0.0577;0.1555;
1180884273937238;0.1321;0.0630;0.1321;
1180884284038904;0.0213;0.0406;0.1033;
1180884294140571;0.0043;0.0065;0.0543;
1180884304240259;-0.0383;-0.0105;-0.0096;
1180884314341925;-0.1746;-0.0190;-0.0511;
1180884324443644;-0.2875;-0.0244;-0.0744;
1180884334582238;-0.3620;-0.0286;-0.0947;
1180884344683904;-0.4387;-0.0372;-0.1224;
1180884354785571;-0.5282;-0.0329;-0.1511;
1180884364849217;-0.6209;-0.0212;-0.1703;
1180884374950884;-0.6996;-0.0180;-0.1767;
1180884385052550;-0.7752;-0.0126;-0.1927;
1180884395153904;-0.8242;-0.0009;-0.2150;
1180884405255571;-0.8253;-0.0041;-0.2289;
1180884415357238;-0.8029;-0.0105;-0.2257;
1180884425462134;-0.7539;-0.0063;-0.2150;
1180884435563800;-0.7007;-0.0084;-0.2097;
1180884445665519;-0.6198;-0.0190;-0.2065;
1180884455769738;-0.5027;-0.0297;-0.2044;
1180884465871456;-0.3951;-0.0286;-0.1948;
1180884475973123;-0.3120;-0.0180;-0.1884;
1180884486062134;-0.2395;-0.0201;-0.1799;
1180884496163852;-0.1469;-0.0308;-0.1703;
1180884506265519;-0.0426;-0.0276;-0.1607;
1180884516421821;0.0554;-0.0297;-0.1522;
1180884526523592;0.0916;-0.0350;-0.1501;
1180884536625363;0.1310;-0.0190;-0.1479;
1180884546669009;0.1832;-0.0031;-0.1383;
1180884556770779;0.2194;-0.0031;-0.1277;
1180884566872498;0.2567;-0.0031;-0.1245;
1180884577001665;0.2716;-0.0020;-0.1309;
1180884587103436;0.2205;-0.0105;-0.1373;
1180884597205206;0.1118;-0.0212;-0.1405;
1180884607275623;0.0107;-0.0265;-0.1458;
1180884617377342;0.0107;-0.0233;-0.1479;
1180884627479113;0.0266;-0.0169;-0.1437;
1180884637588540;0.0330;-0.0190;-0.1341;
1180884647690259;0.0362;-0.0148;-0.1245;
1180884657792029;0.0320;-0.0137;-0.1170;
1180884667912238;0.0277;-0.0148;-0.1138;
1180884678014009;0.0234;-0.0148;-0.1128;
1180884688115779;0.0213;-0.0158;-0.1117;
1180884698211404;0.0213;-0.0190;-0.1075;
1180884708313175;0.0202;-0.0222;-0.1021;
1180884718414946;0.0128;-0.0254;-0.1053;
1180884728522498;-0.0043;-0.0286;-0.1075;
1180884738624269;-0.0309;-0.0233;-0.1085;
1180884748726040;-0.0522;-0.0169;-0.1107;
1180884758807081;-0.0723;-0.0105;-0.1117;
1180884768908800;-0.0862;-0.0020;-0.1117;
1180884779010571;-0.0979;0.0023;-0.1138;
1180884789120050;-0.1266;0.0001;-0.1160;
1180884799221821;-0.1756;-0.0041;-0.1213;
1180884809323592;-0.2310;-0.0126;-0.1234;
1180884819456821;-0.2875;-0.0148;-0.1266;
1180884829558592;-0.3322;-0.0073;-0.1330;
1180884839660363;-0.3503;0.0044;-0.1405;
1180884849722029;-0.3620;0.0140;-0.1469;
1180884859823800;-0.3834;0.0193;-0.1469;
1180884869925571;-0.4079;0.0225;-0.1469;
1180884880034009;-0.4324;0.0193;-0.1479;
1180884890135779;-0.4547;0.0140;-0.1543;
1180884900237550;-0.4760;0.0097;-0.1628;
1180884910348175;-0.4814;0.0119;-0.1714;
1180884920449946;-0.4558;0.0161;-0.1767;
1180884930551717;-0.4047;0.0140;-0.1746;
1180884940655363;-0.3471;0.0140;-0.1724;
1180884950757134;-0.2992;0.0161;-0.1714;
1180884960858904;-0.2704;0.0119;-0.1767;
1180884970952654;-0.2491;0.0087;-0.1788;
1180884981054425;-0.2225;0.0097;-0.1799;
1180884991156196;-0.1884;0.0065;-0.1799;
1180885001252134;-0.1426;0.0044;-0.1799;
1180885011353904;-0.0915;0.0055;-0.1799;
1180885021455675;-0.0447;0.0076;-0.1820;
1180885031569113;-0.0075;0.0065;-0.1820;
1180885041670884;0.0192;0.0065;-0.1831;
1180885051772654;0.0330;0.0044;-0.1852;
1180885061882759;0.0394;0.0044;-0.1863;
1180885071984477;0.0373;0.0012;-0.1895;
1180885082086300;0.0309;0.0012;-0.1905;
1180885092180884;0.0181;0.0044;-0.1905;
1180885102282654;-0.0064;0.0033;-0.1927;
1180885112384425;-0.0362;0.0044;-0.1937;
1180885122476509;-0.0659;0.0065;-0.1948;
1180885132578279;-0.0968;0.0065;-0.1959;
1180885142680050;-0.1245;0.0055;-0.1948;
1180885152777550;-0.1490;0.0087;-0.1937;
1180885162879321;-0.1682;0.0108;-0.1927;
1180885172981092;-0.1767;0.0119;-0.1905;
1180885183094217;-0.1703;0.0150;-0.1831;
1180885193195988;-0.1415;0.0140;-0.1735;
1180885203297759;-0.0979;0.0129;-0.1639;
1180885213370988;-0.0437;0.0097;-0.1522;
1180885223472759;0.0107;0.0044;-0.1394;
1180885233574529;0.0447;0.0033;-0.1277;
1180885243692759;0.0320;-0.0009;-0.1202;
1180885253794529;0.0288;-0.0020;-0.1149;
1180885263896300;0.0234;0.0001;-0.1064;
1180885273992706;0.0245;0.0033;-0.1021;
1180885284094529;0.0213;0.0055;-0.0957;
1180885294196300;0.0213;0.0076;-0.0904;
1180885304306300;0.0181;0.0055;-0.0872;
1180885314408071;0.0192;0.0001;-0.0798;
1180885324509842;0.0170;0.0001;-0.0744;
1180885334598123;0.0170;0.0001;-0.0680;
1180885344699842;0.0138;-0.0009;-0.0638;
1180885354801613;0.0138;0.0023;-0.0597;
1180885364914946;0.0128;0.0044;-0.0554;
1180885375016717;0.0117;0.0023;-0.0543;
1180885385118488;0.0128;0.0033;-0.0533;
1180885395206040;0.0128;0.0023;-0.0533;
1180885405307759;0.0128;0.0012;-0.0533;
1180885415409529;0.0117;0.0012;-0.0554;
1180885425529425;0.0117;0.0023;-0.0565;
1180885435631196;0.0128;0.0044;-0.0597;
1180885445732967;0.0128;0.0044;-0.0597;
1180885455843592;0.0117;0.0044;-0.0597;
1180885465945363;0.0128;0.0023;-0.0586;
1180885476047134;0.0138;0.0023;-0.0586;
1180885486121456;0.0117;0.0012;-0.0586;
1180885496223227;0.0149;0.0012;-0.0575;
1180885506324946;0.0149;0.0033;-0.0565;
1180885516449061;0.0138;0.0055;-0.0554;
1180885526550675;0.0117;0.0076;-0.0543;
1180885536652394;0.0096;0.0044;-0.0522;
1180885546724998;0.0117;0.0033;-0.0479;
1180885556826665;0.0117;0.0001;-0.0437;
1180885566928331;0.0117;-0.0009;-0.0383;
1180885577091717;0.0107;-0.0020;-0.0352;
1180885587193384;0.0096;-0.0009;-0.0298;
1180885597295050;0.0096;0.0012;-0.0277;
1180885607329581;0.0053;0.0012;-0.0256;
1180885617431248;0.0053;0.0012;-0.0245;
1180885627532915;0.0064;0.0012;-0.0224;
1180885637643331;0.0075;0.0001;-0.0202;
1180885647744998;0.0053;-0.0009;-0.0192;
1180885657846613;0.0064;-0.0020;-0.0181;
1180885667970779;0.0064;-0.0009;-0.0160;
1180885678072446;0.0043;0.0001;-0.0149;
1180885688174113;0.0043;0.0001;-0.0149;
1180885698263852;0.0032;0.0001;-0.0128;
1180885708365571;0.0021;0.0001;-0.0128;
1180885718467238;0.0032;0.0001;-0.0117;
1180885728593748;0.0011;0.0001;-0.0085;
1180885738695415;0.0000;0.0001;-0.0064;
1180885748797081;0.0000;0.0001;-0.0021;
1180885758866821;-0.0032;-0.0020;0.0011;
1180885768968488;0.0021;-0.0031;0.0032;
1180885779070154;0.0032;-0.0031;0.0075;
1180885789184842;0.0138;-0.0031;0.0117;
1180885799286561;0.0245;-0.0041;0.0181;
1180885809388227;0.0277;-0.0031;0.0234;
1180885819497186;0.0266;-0.0031;0.0256;
1180885829598852;0.0181;-0.0041;0.0266;
1180885839700519;0.0085;-0.0020;0.0298;
1180885849814998;-0.0064;0.0001;0.0320;
1180885859916665;-0.0138;-0.0009;0.0320;
1180885870018331;-0.0107;0.0012;0.0330;
1180885880095050;-0.0096;0.0001;0.0330;
1180885890196717;-0.0117;-0.0009;0.0362;
1180885900298384;-0.0107;-0.0020;0.0330;
1180885910391092;-0.0117;-0.0020;0.0330;
1180885920492759;-0.0117;-0.0020;0.0330;
1180885930594425;-0.0096;-0.0009;0.0320;
1180885940705467;-0.0085;-0.0009;0.0309;
1180885950807134;-0.0011;0.0001;0.0298;
1180885960908800;0.0011;-0.0020;0.0256;
1180885971009946;0.0000;-0.0041;0.0245;
1180885981111613;-0.0011;-0.0041;0.0224;
1180885991213279;-0.0021;-0.0031;0.0224;
1180886001307238;-0.0075;0.0012;0.0224;
1180886011408904;-0.0117;0.0055;0.0192;
1180886021510571;-0.0149;0.0044;0.0181;
1180886031610154;-0.0138;0.0033;0.0170;
1180886041711821;-0.0107;0.0001;0.0160;
1180886051813488;-0.0085;-0.0031;0.0170;
1180886061920259;-0.0075;-0.0052;0.0192;
1180886072021925;-0.0032;-0.0031;0.0213;
1180886082123592;-0.0021;-0.0020;0.0224;
1180886092225259;-0.0043;-0.0020;0.0234;
1180886102326977;-0.0053;0.0001;0.0245;
1180886112428592;-0.0043;0.0012;0.0245;
1180886122526144;-0.0043;-0.0009;0.0266;
