Sensor: bmi160 Gyroscope Non-wakeup
Vendor: BOSCH
TimestampGyro [ns]; GyroX [rad/s]; GyroY [rad/s]; GyroZ [rad/s]
5253654137951578;0.0096;-0.0013;0.0111;
5253654148055224;-0.0032;-0.0024;0.0079;
5253654158168505;-0.0021;-0.0003;0.0100;
5253654168248766;-0.0000;-0.0013;0.0089;
5253654178365120;-0.0021;-0.0024;0.0089;
5253654188450016;-0.0021;-0.0013;0.0111;
5253654198567932;-0.0000;-0.0024;0.0132;
5253654208646578;-0.0011;-0.0024;0.0142;
5253654218772307;-0.0021;-0.0035;0.0164;
5253654228864287;-0.0021;-0.0045;0.0249;
5253654238980641;-0.0032;-0.0056;0.0313;
5253654249134235;-0.0000;-0.0077;0.0398;
5253654259177932;0.0043;-0.0088;0.0483;
5253654269272099;0.0075;-0.0099;0.0622;
5253654279415797;0.0160;-0.0120;0.0792;
5253654289484443;0.0298;-0.0184;0.0984;
5253654299563610;0.0447;-0.0216;0.1144;
5253654309745589;0.0639;-0.0248;0.1314;
5253654319789391;0.0863;-0.0280;0.1538;
5253654329870537;0.1182;-0.0322;0.1772;
5253654340014078;0.1566;-0.0375;0.2017;
5253654350092724;0.1959;-0.0407;0.2262;
5253654360201005;0.2353;-0.0407;0.2497;
5253654370327620;0.2747;-0.0439;0.2720;
5253654380393141;0.2971;-0.0471;0.2921;
5253654390526891;0.2960;-0.0514;0.3102;
5253654400627203;0.2790;-0.0535;0.3241;
5253654410715589;0.2534;-0.0546;0.3326;
5253654420815953;0.2353;-0.0503;0.3411;
5253654430919703;0.2268;-0.0461;0.3507;
5253654441052932;0.2161;-0.0407;0.3561;
5253654451147516;0.1831;-0.0386;0.3582;
5253654461224495;0.1268;-0.0407;0.3539;
5253654471336422;0.0554;-0.0397;0.3465;
5253654481426787;-0.0213;-0.0407;0.3422;
5253654491538245;-0.0895;-0.0375;0.3326;
5253654501637099;-0.1044;-0.0290;0.3273;
5253654511743974;-0.0937;-0.0226;0.3241;
5253654521845328;-0.1001;-0.0194;0.3209;
5253654531954755;-0.1129;-0.0226;0.3166;
5253654542053089;-0.1427;-0.0280;0.3071;
5253654552161214;-0.1736;-0.0344;0.2996;
5253654562265797;-0.1928;-0.0365;0.2921;
5253654572364755;-0.1992;-0.0312;0.2900;
5253654582465641;-0.1822;-0.0269;0.2868;
5253654592572203;-0.1630;-0.0216;0.2868;
5253654602675380;-0.1502;-0.0205;0.2836;
5253654612776578;-0.1502;-0.0226;0.2815;
5253654622879182;-0.1609;-0.0269;0.2794;
5253654632980953;-0.1662;-0.0322;0.2815;
5253654643085016;-0.1566;-0.0354;0.2836;
5253654653185953;-0.1395;-0.0354;0.2857;
5253654663288974;-0.1204;-0.0333;0.2921;
5253654673390224;-0.0927;-0.0322;0.2975;
5253654683495432;-0.0746;-0.0365;0.3039;
5253654693598870;-0.0799;-0.0439;0.3060;
5253654703705797;-0.0788;-0.0525;0.3081;
5253654713806162;-0.0735;-0.0567;0.3092;
5253654723942620;-0.0501;-0.0589;0.3124;
5253654734015589;-0.0767;-0.0738;0.3113;
5253654744117203;-0.1033;-0.0940;0.3294;
5253654754221995;-0.0682;-0.0812;0.3486;
5253654764323349;0.0170;-0.0642;0.3720;
5253654774425849;0.1788;-0.0461;0.3976;
5253654784529391;0.2896;-0.0280;0.4168;
5253654794634287;0.2949;-0.0386;0.4200;
5253654804737672;0.1852;-0.0748;0.4189;
5253654814837203;0.1353;-0.0876;0.4232;
5253654824944443;0.2513;-0.0695;0.4423;
5253654835049860;0.4089;-0.0557;0.4594;
5253654845153818;0.4675;-0.0535;0.4732;
5253654855278037;0.5208;-0.0386;0.4796;
5253654865354964;0.5580;-0.0429;0.4860;
5253654875462985;0.5655;-0.0631;0.4881;
5253654885558505;0.5655;-0.0695;0.4871;
5253654895664391;0.5772;-0.0610;0.4754;
5253654905767776;0.5708;-0.0567;0.4594;
5253654915867412;0.5218;-0.0535;0.4445;
5253654925979547;0.4771;-0.0386;0.4242;
5253654936075849;0.4419;-0.0258;0.4040;
5253654946179287;0.3908;-0.0205;0.3795;
5253654956285537;0.3194;-0.0194;0.3507;
5253654966405745;0.2129;-0.0141;0.3209;
5253654976499547;0.1161;-0.0035;0.2889;
5253654986602568;0.0405;-0.0045;0.2561;
5253654996698818;-0.0383;-0.0109;0.2209;
5253655006802151;-0.0767;-0.0120;0.1858;
5253655016899182;-0.0767;-0.0141;0.1581;
5253655027000745;-0.0937;-0.0045;0.1399;
5253655037102932;-0.0895;0.0029;0.1229;
5253655047209339;-0.0714;0.0029;0.1048;
5253655057311005;-0.0426;0.0083;0.0909;
5253655067422620;-0.0160;0.0125;0.0814;
5253655077527880;-0.0053;0.0157;0.0782;
5253655087632360;0.0213;0.0264;0.0707;
5253655097723662;0.0703;0.0328;0.0654;
5253655107823662;0.0831;0.0360;0.0547;
5253655117920849;0.0820;0.0136;0.0494;
5253655128033870;0.0607;-0.0290;0.0483;
5253655138132203;0.0479;-0.0194;0.0409;
5253655148236891;0.0490;0.0200;0.0356;
5253655158365172;0.0341;0.0274;0.0292;
5253655168441422;0.0085;0.0221;0.0270;
5253655178544495;-0.0149;0.0242;0.0292;
5253655188673974;-0.0256;0.0178;0.0324;
5253655198765589;-0.0373;-0.0024;0.0249;
5253655208858453;-0.0469;-0.0162;0.0068;
5253655218962360;-0.0426;0.0019;0.0089;
5253655229131995;-0.0405;0.0157;0.0185;
5253655239180953;-0.0256;-0.0056;0.0153;
5253655249255953;-0.0160;-0.0024;0.0174;
5253655259363349;-0.0192;0.0349;0.0121;
5253655269488037;-0.0341;0.0381;0.0174;
5253655279599130;-0.0415;0.0125;0.0174;
5253655289704860;-0.0682;0.0019;0.0153;
5253655299799807;-0.1033;0.0072;0.0079;
5253655309864547;-0.1257;0.0115;0.0068;
5253655319959547;-0.1672;-0.0045;0.0004;
5253655330054547;-0.2216;-0.0162;-0.0156;
5253655340200120;-0.2770;-0.0003;-0.0284;
5253655350295068;-0.3228;0.0285;-0.0284;
5253655360390016;-0.3600;0.0519;-0.0337;
5253655370507412;-0.3888;0.0551;-0.0582;
5253655380602412;-0.4282;0.0541;-0.0965;
5253655390697360;-0.4696;0.0487;-0.1061;
5253655400835016;-0.4995;0.0530;-0.0987;
5253655410929964;-0.5069;0.0605;-0.0976;
5253655421024912;-0.5272;0.0221;-0.1146;
5253655431123505;-0.5612;0.0093;-0.1519;
5253655441218505;-0.6028;0.0285;-0.1732;
5253655451313505;-0.6028;0.0519;-0.1754;
5253655461461682;-0.5953;0.0722;-0.1615;
5253655471556630;-0.5836;0.0732;-0.1658;
5253655481651630;-0.5634;0.0818;-0.1999;
5253655491747255;-0.5549;0.0903;-0.2009;
5253655501842203;-0.5186;0.0605;-0.1903;
5253655511937151;-0.4707;0.0306;-0.1988;
5253655522066682;-0.4419;0.0381;-0.2201;
5253655532161630;-0.4016;0.0402;-0.2201;
5253655542256578;-0.3473;0.0658;-0.2126;
5253655552366839;-0.2961;0.0573;-0.2031;
5253655562461787;-0.2620;0.0647;-0.2222;
5253655572556735;-0.2120;0.0743;-0.2201;
5253655582673141;-0.1726;0.0839;-0.2105;
5253655592768141;-0.1268;0.0935;-0.2276;
5253655602863089;-0.1044;0.0605;-0.2585;
5253655612981266;-0.0437;0.0349;-0.2723;
5253655623076266;0.0362;0.0775;-0.2830;
5253655633171214;0.0980;0.1105;-0.3075;
5253655643293141;0.0852;0.0935;-0.3298;
5253655653388089;-0.0245;0.0573;-0.3521;
5253655663483037;-0.0991;0.0626;-0.3808;
5253655673604755;-0.1055;0.0658;-0.4096;
5253655683699703;-0.0799;0.0413;-0.4256;
5253655693794651;-0.0000;0.0786;-0.4618;
5253655703921526;0.1150;0.1531;-0.4831;
5253655714016474;0.1150;0.1201;-0.4927;
5253655724111422;0.0724;0.0807;-0.5353;
5253655734225172;0.1873;0.1766;-0.5651;
5253655744320120;0.3035;0.1563;-0.5864;
5253655754415068;0.4931;0.1020;-0.6120;
5253655764533818;0.8338;0.1595;-0.5811;
5253655774628766;1.2301;0.1659;-0.5353;
5253655784723714;1.5698;0.1041;-0.4927;
5253655794837672;1.8158;0.0786;-0.4117;
5253655804932620;2.0788;0.0115;-0.3606;
5253655815027568;2.2982;-0.0503;-0.3128;
5253655825148505;2.4026;-0.0631;-0.2116;
5253655835243453;2.4495;-0.0684;-0.1530;
5253655845338401;2.3962;-0.0258;-0.0944;
5253655855453974;2.2663;-0.0003;-0.0273;
5253655865548922;2.0916;-0.0099;-0.0220;
5253655875643870;1.7892;0.0402;-0.0529;
5253655885767985;1.4941;0.0818;-0.0710;
5253655895862932;1.2003;0.0466;-0.0806;
5253655905957880;0.8786;0.0349;-0.0678;
5253655916076474;0.6092;0.0317;-0.0699;
5253655926171474;0.3887;0.0146;-0.0859;
5253655936266422;0.2853;0.0242;-0.0529;
5253655946387307;0.2140;-0.0365;-0.0103;
5253655956482255;0.0639;-0.0045;0.0036;
5253655966577203;-0.0415;0.0786;0.0238;
5253655976708193;-0.0628;0.0349;0.0494;
5253655986803141;-0.1342;0.0562;0.0920;
5253655996898089;-0.2077;0.0967;0.1250;
5253656007005328;-0.2770;0.0850;0.1378;
5253656017100276;-0.3856;0.0786;0.1666;
5253656027195224;-0.4952;0.0977;0.1623;
5253656037328766;-0.6262;0.0881;0.1591;
5253656047423714;-0.7466;0.0732;0.1730;
5253656057518662;-0.8254;0.0423;0.1708;
5253656067624807;-0.9021;0.0136;0.1762;
5253656077719703;-0.9479;0.0615;0.1772;
5253656087814703;-0.9863;0.0562;0.1229;
5253656097930328;-1.0321;0.0125;0.1240;
5253656108025328;-1.0236;0.0466;0.1059;
5253656118120328;-1.0001;0.0647;0.0835;
5253656128236787;-0.9884;0.0296;0.0803;
5253656138331787;-0.9586;0.0136;0.0462;
5253656148426735;-0.9160;0.0061;-0.0007;
5253656158546370;-0.8552;0.0115;0.0079;
5253656168641318;-0.7807;0.0093;-0.0252;
5253656178736266;-0.7445;-0.0706;-0.0465;
5253656188878245;-0.7541;-0.1164;-0.0369;
5253656198973141;-0.6710;-0.0322;-0.0944;
5253656209068193;-0.5794;0.0264;-0.1221;
5253656219173037;-0.4824;0.0615;-0.1232;
5253656229267985;-0.3835;0.0903;-0.1573;
5253656239362932;-0.3632;0.1073;-0.1541;
5253656249480328;-0.3451;0.0892;-0.1562;
5253656259575276;-0.3686;-0.0312;-0.1945;
5253656269670276;-0.3888;-0.1015;-0.2095;
5253656279791995;-0.3196;-0.0493;-0.2329;
5253656289886943;-0.2525;-0.0514;-0.2499;
5253656299981891;-0.1640;-0.0983;-0.2265;
5253656310093505;-0.0916;-0.0876;-0.2361;
5253656320195120;-0.0383;0.0125;-0.2169;
5253656330296787;0.0245;0.0328;-0.2084;
5253656340420172;0.0064;-0.0162;-0.2435;
5253656350521787;-0.0107;-0.0162;-0.2425;
5253656360623453;-0.0043;-0.0077;-0.2606;
5253656370728089;-0.0309;0.0093;-0.2382;
5253656380829703;-0.0298;-0.0088;-0.2297;
5253656390931370;-0.0618;-0.0162;-0.2542;
5253656401048922;-0.0863;-0.0205;-0.2425;
5253656411150537;-0.0937;-0.0184;-0.2446;
5253656421252203;-0.0788;-0.0322;-0.2148;
5253656431330849;-0.0682;-0.0280;-0.2371;
5253656441432516;-0.0053;-0.0109;-0.1999;
5253656451534130;0.0138;-0.0429;-0.1860;
5253656461643193;0.0458;-0.0578;-0.1764;
5253656471745201;0.0810;-0.0557;-0.1562;
5253656481846868;0.1310;-0.0461;-0.1615;
5253656491953274;0.2033;-0.0344;-0.1562;
5253656502054941;0.2768;-0.0418;-0.1700;
5253656512156556;0.3493;-0.0333;-0.1232;
5253656522263066;0.3887;-0.0354;-0.1115;
5253656532364681;0.4110;-0.0876;-0.1051;
5253656542466347;0.4558;-0.0216;-0.1040;
5253656552573066;0.5676;0.0658;-0.0550;
5253656562674733;0.5623;-0.1015;-0.0763;
5253656572776347;0.5293;-0.2421;-0.0561;
5253656582881504;0.5389;-0.1100;-0.0422;
5253656592983170;0.6720;-0.0130;-0.0262;
5253656603084785;0.7114;-0.0226;-0.0337;
5253656613191087;0.6507;-0.0088;-0.0358;
5253656623292754;0.6465;0.0530;-0.0113;
5253656633394368;0.6454;0.0967;0.0164;
5253656643504524;0.6316;0.0285;0.0047;
5253656653606191;0.5527;-0.0535;-0.0348;
5253656663707806;0.4547;-0.0120;-0.0124;
5253656673809004;0.4004;-0.0386;-0.0134;
5253656683910670;0.3280;-0.0972;0.0132;
5253656694012285;0.2630;-0.0684;-0.0049;
5253656704119316;0.2438;-0.0482;-0.0252;
5253656714220931;0.2214;-0.0344;-0.0134;
5253656724322545;0.1852;0.0125;-0.0145;
5253656734431504;0.1863;0.0264;0.0100;
5253656744533170;0.1831;0.0370;0.0121;
5253656754634785;0.1863;0.0786;0.0132;
5253656764738691;0.1735;0.0328;-0.0039;
5253656774840358;0.1374;0.0029;0.0047;
5253656784941972;0.1502;-0.0226;-0.0081;
5253656795044004;0.1001;-0.0503;-0.0454;
5253656805145618;0.0202;0.0264;-0.0624;
5253656815247285;0.0820;0.0881;-0.0838;
5253656825355983;0.2055;0.0423;-0.0678;
5253656835457597;0.2065;0.0306;-0.0816;
5253656845559264;0.1980;0.0562;-0.0997;
5253656855674420;0.2033;0.0466;-0.1029;
5253656865776035;0.1991;-0.0045;-0.1040;
5253656875877701;0.1735;-0.0397;-0.0678;
5253656885973795;0.1831;-0.0216;-0.0763;
5253656896075462;0.2118;-0.0056;-0.0838;
5253656906177076;0.2140;-0.0610;-0.0795;
5253656916283691;0.1714;-0.0461;-0.0475;
5253656926385358;0.1609;0.0274;-0.0390;
5253656936486972;0.2044;0.0477;-0.0316;
5253656946598587;0.2353;0.0668;-0.0188;
5253656956700201;0.2832;0.0328;-0.0252;
5253656966801868;0.3280;0.0168;-0.0134;
5253656976917754;0.2832;0.0466;0.0132;
5253656987019368;0.2640;0.0754;0.0302;
5253656997121035;0.3514;0.0370;0.0313;
5253657007216399;0.4899;-0.0248;0.0387;
5253657017318066;0.5698;-0.0684;0.0558;
5253657027419681;0.5644;-0.0620;0.0920;
5253657037519629;0.4398;-0.0205;0.0846;
5253657047621295;0.2843;0.0541;0.0803;
5253657057722910;0.2310;0.0668;0.0995;
5253657067840879;0.3226;0.0455;0.1027;
5253657077942545;0.4313;-0.0141;0.1154;
5253657088044160;0.4750;-0.0993;0.1186;
5253657098141191;0.2715;-0.0333;0.1112;
5253657108242858;0.0767;0.1095;0.1208;
5253657118344420;0.1587;0.1467;0.1069;
5253657128444524;0.3418;0.0636;0.1091;
5253657138546191;0.3738;0.0200;0.1325;
5253657148647806;0.3269;0.0328;0.1474;
5253657158768795;0.3322;0.0115;0.1304;
5253657168870410;0.3567;-0.0354;0.1591;
5253657178972024;0.2726;-0.0344;0.1389;
5253657189136712;0.2140;0.0029;0.1431;
5253657199238379;0.2555;0.0210;0.1655;
5253657209339993;0.3003;0.0061;0.1644;
5253657219394524;0.2662;-0.0461;0.1474;
5253657229496139;0.1948;-0.0418;0.1772;
5253657239597754;0.1640;0.0402;0.1794;
5253657249702545;0.1438;0.0786;0.1676;
5253657259804160;0.2417;0.0445;0.1570;
5253657269905774;0.2417;0.0210;0.1900;
5253657280015983;0.1682;0.0945;0.1985;
5253657290117597;0.2182;0.0956;0.2007;
5253657300219264;0.2630;0.0583;0.2188;
5253657310316608;0.2449;0.0743;0.2028;
5253657320419524;0.2395;0.0061;0.2529;
5253657330522441;0.1959;-0.0344;0.2379;
5253657340617806;0.1523;0.0157;0.2337;
5253657350720774;0.2278;-0.0077;0.2241;
5253657360823691;0.2289;-0.0620;0.2433;
5253657370943535;0.1799;-0.0375;0.2593;
5253657381046451;0.1491;0.0019;0.2529;
5253657391149420;0.1001;0.0668;0.2561;
5253657401227181;0.1087;0.0967;0.2900;
5253657411330149;0.2332;0.0242;0.3071;
5253657421433066;0.2108;-0.0280;0.3188;
5253657431572701;0.1534;-0.0322;0.3273;
5253657441675618;0.1767;-0.0248;0.3465;
5253657451778587;0.1820;-0.0162;0.3433;
5253657461858587;0.1182;-0.0077;0.3443;
5253657471961504;-0.0053;0.0562;0.3614;
5253657482064472;-0.1300;0.1126;0.3656;
5253657492163118;-0.0959;0.0647;0.3465;
5253657502266087;-0.0352;0.0136;0.3550;
5253657512369056;-0.0373;0.0083;0.3486;
5253657522473847;-0.0895;0.0210;0.3443;
5253657532576816;-0.0884;0.0083;0.3347;
5253657542679785;-0.0213;-0.0802;0.3241;
5253657552793274;-0.1310;-0.0759;0.3294;
5253657562896191;-0.4005;0.0828;0.3337;
5253657572999160;-0.4728;0.0977;0.3102;
5253657583095983;-0.2887;-0.0525;0.2847;
5253657593198899;-0.2429;-0.0535;0.3081;
5253657603301868;-0.3409;-0.0173;0.3379;
5253657613403691;-0.3952;-0.0780;0.3273;
5253657623506660;-0.5889;-0.0045;0.2740;
5253657633609576;-0.8893;0.1499;0.2475;
5253657643734212;-0.9628;0.1052;0.2124;
5253657653837129;-0.9085;0.0764;0.1751;
5253657663940045;-0.9256;0.1457;0.1421;
5253657674020618;-0.7786;0.0722;0.0867;
5253657684123587;-0.5730;-0.0493;0.0867;
5253657694226504;-0.4718;-0.0780;0.0430;
5253657704342545;-0.5314;-0.0045;0.0398;
5253657714445462;-0.5421;0.0125;0.0313;
5253657724548431;-0.3995;-0.0407;0.0089;
5253657734653899;-0.2674;-0.0418;0.0132;
5253657744756816;-0.2535;-0.0375;0.0142;
5253657754859785;-0.2865;-0.0514;0.0121;
5253657764965566;-0.4037;-0.0141;-0.0007;
5253657775068483;-0.5943;0.0956;-0.0113;
5253657785171451;-0.7040;0.1904;-0.0081;
5253657795269316;-0.5176;0.0700;-0.0422;
5253657805372233;-0.2375;-0.0770;-0.0635;
5253657815475149;-0.2312;-0.0226;-0.0539;
5253657825576399;-0.2344;-0.0280;-0.0593;
5253657835679316;-0.2322;-0.0844;-0.0806;
5253657845782285;-0.3377;-0.0248;-0.0901;
5253657855901243;-0.4664;0.0562;-0.1008;
5253657866004212;-0.5048;0.0391;-0.0880;
5253657876107129;-0.5463;0.0818;-0.1381;
5253657886194941;-0.5005;0.1308;-0.1551;
5253657896297858;-0.3664;0.1116;-0.1839;
5253657906400774;-0.2365;0.0509;-0.1892;
5253657916510670;-0.2471;0.0764;-0.1935;
5253657926613639;-0.2482;0.1521;-0.1956;
5253657936716556;-0.1300;0.1691;-0.1743;
5253657946821087;0.0554;0.1329;-0.1754;
5253657956924004;0.2140;0.0775;-0.1658;
5253657967026920;0.2992;-0.0748;-0.1402;
5253657977144004;0.2374;-0.1814;-0.1285;
5253657987246920;-0.0671;-0.1153;-0.1210;
5253657997349889;-0.3015;0.0029;-0.1061;
5253658007436712;-0.2993;0.0658;-0.1455;
5253658017539629;-0.1981;0.1201;-0.1573;
5253658027642597;-0.0905;0.1851;-0.1402;
5253658037754472;0.0490;0.1979;-0.1221;
5253658047857441;0.1225;0.1510;-0.1455;
5253658057960410;0.0256;0.0541;-0.1541;
5253658068054629;-0.1150;0.0040;-0.1807;
5253658078157545;-0.1204;-0.0823;-0.1945;
5253658088260462;-0.0980;-0.1888;-0.2276;
5253658098355826;0.0831;-0.3667;-0.2414;
5253658108458743;0.0320;-0.6531;-0.2563;
5253658118561660;-0.9149;-0.2591;-0.2787;
5253658128659056;-1.8020;0.4225;-0.2936;
5253658138762024;-1.5049;0.4981;-0.3510;
5253658148864993;0.1363;0.1680;-0.3819;
5253658159020931;0.9616;0.1787;-0.3776;
5253658169123847;0.6912;0.2606;-0.3192;
5253658179226816;0.5410;0.0477;-0.2840;
5253658189290774;0.3716;-0.0045;-0.2766;
5253658199393691;0.2097;-0.0045;-0.2776;
5253658209496608;0.1948;-0.2080;-0.2606;
5253658219653639;0.0352;-0.2772;-0.2648;
5253658229756608;-0.0352;-0.1494;-0.2521;
5253658239859524;0.1703;-0.1260;-0.2116;
5253658249887910;0.4025;-0.1025;-0.1722;
5253658259990879;0.4718;0.1073;-0.1434;
5253658270093795;0.5975;0.2489;-0.0901;
5253658280223170;0.7125;0.5663;-0.0475;
5253658290326087;0.8956;0.5407;0.0387;
5253658300429056;0.9233;-0.2506;0.0707;
5253658310510931;0.3652;-0.4731;0.0707;
5253658320613899;-0.1981;-0.1324;0.0750;
5253658330716868;-0.1129;-0.1643;0.0696;
5253658340846504;-0.0447;-0.2602;0.0569;
5253658350949472;-0.1087;-0.1366;0.0569;
5253658361052441;-0.1087;0.1585;0.0334;
5253658371157806;0.2193;0.2861;0.0217;
5253658381260774;0.4899;0.2531;0.0111;
5253658391363743;0.4558;0.3628;0.0409;
5253658401445722;0.3908;0.2989;0.0728;
5253658411548691;0.2193;0.0338;0.0771;
5253658421651712;-0.0213;-0.0152;0.0931;
5253658431760722;-0.1481;-0.0035;0.0792;
5253658441863691;-0.1651;-0.1302;0.0537;
5253658451966660;-0.3015;-0.1238;0.0377;
5253658462071191;-0.3569;-0.0748;0.0089;
5253658472174108;-0.2802;-0.0642;0.0036;
5253658482277129;-0.2035;0.0881;-0.0017;
5253658492375410;-0.0277;0.1616;-0.0220;
5253658502478431;0.0256;0.1063;-0.0369;
5253658512581399;-0.0437;0.1467;-0.0177;
5253658522701920;-0.0660;0.0668;-0.0326;
5253658532804889;-0.1449;-0.0940;-0.0912;
5253658542907858;-0.3270;-0.0684;-0.1274;
5253658553018899;-0.3867;-0.1100;-0.1594;
5253658563121868;-0.3952;-0.1643;-0.2084;
5253658573224785;-0.4016;-0.0727;-0.2126;
5253658583314993;-0.2876;-0.0706;-0.2585;
5253658593417962;-0.1395;-0.0439;-0.2659;
5253658603520931;-0.0032;0.0839;-0.2308;
5253658613640358;0.1692;0.1457;-0.2276;
5253658623743326;0.2992;0.1403;-0.1807;
5253658633846295;0.3035;0.1148;-0.1935;
5253658643938691;0.2896;0.0519;-0.1722;
5253658654041660;0.2736;0.0136;-0.1615;
5253658664144629;0.2055;-0.0120;-0.1423;
5253658674245879;0.1065;-0.0823;-0.1434;
5253658684348795;0.0170;-0.0567;-0.1381;
5253658694451764;-0.0011;-0.0908;-0.1296;
5253658704572597;-0.0341;-0.1526;-0.1413;
5253658714675566;-0.0660;-0.0503;-0.1391;
5253658724778587;0.0394;0.0349;-0.1296;
5253658734859316;0.1182;0.0189;-0.1093;
5253658744962285;0.1363;0.0626;-0.1370;
5253658755065254;0.2268;0.1105;-0.1083;
5253658765189316;0.3109;0.0977;-0.0859;
5253658775292285;0.3322;0.0988;-0.0944;
5253658785395254;0.3237;0.0487;-0.0774;
5253658795461504;0.2694;-0.0375;-0.0667;
5253658805564472;0.1427;-0.1281;-0.0624;
5253658815667441;-0.0032;-0.1398;-0.0720;
5253658825796712;-0.0607;-0.1004;-0.0667;
5253658835899681;0.0064;-0.0887;-0.0614;
5253658846002649;0.0543;-0.0887;-0.0816;
5253658856103274;0.0575;0.0253;-0.0816;
5253658866206243;0.1257;0.0690;-0.0678;
5253658876309212;0.1927;-0.0003;-0.0603;
5253658886415149;0.1076;0.0200;-0.0806;
5253658896518118;0.0905;0.0594;-0.0976;
5253658906621087;0.1118;0.0253;-0.1402;
5253658916726504;0.0703;-0.0961;-0.1519;
5253658926829472;-0.0096;-0.1760;-0.1711;
5253658936932441;-0.0714;-0.1941;-0.2063;
5253658947028691;-0.0607;-0.1995;-0.2063;
5253658957131608;0.0181;-0.2602;-0.2457;
5253658967234576;-0.0852;-0.3401;-0.2585;
5253658977357910;-0.2503;-0.0226;-0.2095;
5253658987460879;0.1927;0.3873;-0.2158;
5253658997563847;0.8871;0.5216;-0.2840;
5253659007646920;1.0650;0.4300;-0.2670;
5253659017749889;0.9584;0.1638;-0.1956;
5253659027852858;0.7327;-0.0248;-0.1317;
5253659037936816;0.4920;-0.0471;-0.0923;
5253659048039785;0.3844;-0.0738;-0.0869;
5253659058142754;0.4015;-0.1462;-0.0550;
5253659068272337;0.3738;-0.1387;-0.0273;
5253659078375306;0.3205;-0.0887;0.0015;
5253659088478222;0.3961;0.0040;0.0441;
5253659098561972;0.5431;0.1531;0.1240;
5253659108664993;0.6614;0.2128;0.1421;
5253659118767910;0.8157;0.5929;0.2007;
5253659128874524;0.9158;0.0945;0.2921;
5253659138977441;0.5612;-0.5125;0.3039;
5253659149080410;-0.1182;-0.2027;0.2667;
5253659159212441;-0.3675;-0.1153;0.2113;
5253659169315410;-0.1044;-0.2495;0.1506;
5253659179418326;-0.1715;-0.1654;0.1069;
5253659189529264;-0.3249;0.0221;0.1037;
5253659199632233;-0.0778;0.1158;0.1442;
5253659209735201;0.1852;0.0274;0.1527;
5253659219811972;0.1831;0.0605;0.1889;
5253659229914993;0.2118;0.2021;0.2103;
5253659240017910;0.3003;0.0839;0.2614;
5253659250132910;0.2257;-0.0354;0.2710;
5253659260235879;0.0852;0.0168;0.2953;
5253659270338847;0.0543;-0.0120;0.3049;
5253659280443431;0.0554;-0.0876;0.2740;
5253659290546399;-0.0437;-0.1132;0.2688;
5253659300649368;-0.1896;-0.1473;0.2529;
5253659310734472;-0.2194;-0.1206;0.2358;
5253659320837754;-0.1790;-0.0099;0.2209;
5253659330940931;-0.0458;-0.0173;0.2262;
5253659341036764;0.0554;-0.0482;0.2188;
5253659351139993;-0.0000;0.0423;0.2166;
5253659361243222;0.0362;0.0807;0.2134;
5253659371358847;0.1204;0.0764;0.1879;
5253659381462076;0.0852;0.0573;0.1772;
5253659391565306;0.0650;0.0360;0.1708;
5253659401664889;0.0458;0.0189;0.1836;
5253659411768118;0.0149;-0.0152;0.1740;
5253659421871295;-0.0266;-0.0802;0.1730;
5253659431973743;-0.0479;-0.0791;0.1826;
5253659442076972;0.0011;0.0125;0.2028;
5253659452180201;0.0682;0.0083;0.2422;
5253659462275722;0.1108;0.0562;0.2762;
5253659472378951;0.1268;0.1222;0.3071;
5253659482482129;0.1427;0.0647;0.3007;
5253659492602597;0.0948;0.0615;0.2932;
5253659502705826;0.0298;0.0445;0.3252;
5253659512809004;-0.0245;-0.0386;0.3028;
5253659522900618;-0.0873;-0.0248;0.2964;
5253659533003847;-0.1459;-0.0258;0.2953;
5253659543107024;-0.1619;-0.0280;0.2964;
5253659553214993;-0.2077;-0.0173;0.3198;
5253659563318222;-0.2397;-0.0482;0.3177;
5253659573421399;-0.2727;-0.0194;0.3134;
5253659583528847;-0.3196;0.0455;0.2964;
5253659593632076;-0.2503;0.0700;0.2879;
5253659603735254;-0.1939;0.0839;0.2964;
5253659613837181;-0.1917;0.1009;0.2932;
5253659623940462;-0.2045;0.0988;0.2740;
5253659634043587;-0.2184;0.0913;0.2740;
5253659644153014;-0.2748;0.0008;0.2678;
5253659654256243;-0.3664;-0.0610;0.2198;
5253659664359420;-0.4154;-0.0269;0.1889;
5253659674464524;-0.4122;-0.0152;0.1836;
5253659684567754;-0.4357;-0.0748;0.1740;
5253659694670983;-0.4877;-0.1057;0.1378;
5253659704779681;-0.5176;-0.0567;0.1091;
5253659714882910;-0.4622;0.0700;0.0877;
5253659724986139;-0.3515;0.1105;0.0803;
5253659735081556;-0.2631;0.0711;0.0569;
5253659745184785;-0.2567;0.0541;0.0419;
5253659755287962;-0.3206;-0.0003;-0.0145;
5253659765401139;-0.2887;-0.0013;-0.0369;
5253659775504368;-0.2951;-0.0290;-0.0614;
5253659785607545;-0.3196;-0.0727;-0.0923;
5253659795703951;-0.3142;-0.0578;-0.1115;
5253659805807181;-0.2578;-0.0130;-0.1008;
5253659815910358;-0.2067;0.0306;-0.1104;
5253659826002441;-0.1619;0.0722;-0.1104;
5253659836105618;-0.0767;0.1169;-0.1168;
5253659846208847;-0.0000;0.1531;-0.0912;
5253659856316347;0.0405;0.1489;-0.0901;
5253659866419576;0.0309;0.1297;-0.1040;
5253659876522754;-0.0021;0.0498;-0.1019;
5253659886626191;-0.0905;0.0232;-0.1115;
5253659896729420;-0.0820;0.0541;-0.1189;
5253659906832597;-0.0916;0.0349;-0.1253;
5253659916931764;-0.0980;0.0466;-0.1189;
5253659927035045;-0.0767;0.1222;-0.0944;
5253659937138170;-0.0746;0.0881;-0.1061;
5253659947241608;-0.1374;-0.0919;-0.1008;
5253659957344837;-0.2301;-0.1707;-0.1104;
5253659967448066;-0.2386;-0.1398;-0.1221;
5253659977570931;-0.1630;-0.0897;-0.1232;
5253659987674160;-0.1236;-0.0589;-0.1338;
5253659997777389;-0.1140;-0.0194;-0.1551;
5253660007871972;-0.0873;-0.0184;-0.2009;
5253660017975201;-0.0501;0.0157;-0.1881;
5253660028078431;-0.0458;0.0402;-0.2031;
5253660038162285;-0.0000;0.0210;-0.1967;
5253660048265514;-0.0043;-0.0141;-0.2031;
5253660058368743;0.0138;0.0019;-0.2095;
5253660068472701;0.0330;-0.0301;-0.1913;
5253660078575931;0.0746;-0.0312;-0.1988;
5253660088679160;0.1937;0.1158;-0.1615;
5253660098776660;0.2907;0.0562;-0.1391;
5253660108879889;0.2907;-0.0610;-0.1146;
5253660118983118;0.2204;-0.0184;-0.0710;
5253660129100670;0.2491;0.0434;-0.0859;
5253660139203847;0.3429;0.0349;-0.0795;
5253660149307129;0.3013;0.0008;-0.0529;
5253660159402701;0.2598;-0.0109;-0.0593;
5253660169505931;0.2768;0.0541;-0.0326;
5253660179609160;0.2246;-0.0397;-0.0177;
5253660189754993;0.0927;-0.1750;-0.0081;
5253660199858222;0.0160;-0.1707;-0.0071;
5253660209961399;0.0352;-0.0876;0.0142;
5253660220021243;0.1118;0.0274;0.0089;
5253660230124472;0.1895;0.0850;0.0409;
5253660240227649;0.1491;0.0977;0.0462;
5253660250320201;0.0916;0.1116;0.0292;
5253660260423431;0.0511;0.0455;0.0217;
5253660270526660;-0.0043;-0.0162;0.0398;
5253660280664420;-0.0575;-0.0024;0.0068;
5253660290767649;-0.0202;0.0328;0.0132;
5253660300870826;-0.0277;-0.0194;0.0004;
5253660310956451;-0.0671;-0.0344;-0.0017;
5253660321059733;-0.0266;0.0349;0.0047;
5253660331162962;0.0543;0.0573;0.0228;
5253660341260097;0.0234;0.0051;0.0281;
5253660351363379;-0.0085;-0.0386;0.0483;
5253660361466608;-0.0341;-0.0716;0.0739;
5253660371567806;-0.0394;-0.0908;0.0302;
5253660381671087;0.0021;-0.0770;-0.0188;
5253660391774316;0.0565;-0.0173;0.0153;
5253660401877285;0.0895;0.0349;0.0015;
5253660411980514;0.1449;0.1403;-0.0166;
5253660422083795;0.1065;0.1276;-0.0103;
5253660432186556;0.0543;0.1084;-0.0039;
5253660442289837;0.0511;0.1201;0.0025;
5253660452393066;0.0778;0.1063;0.0153;
5253660462495722;0.0660;0.1403;0.0313;
5253660472599004;0.0618;0.1531;0.0632;
5253660482702233;0.0309;0.0583;0.0675;
5253660492812910;-0.0117;0.0157;0.0835;
5253660502916139;-0.0756;-0.0663;0.0920;
5253660513019420;-0.1044;-0.1430;0.0728;
5253660523110201;-0.0767;-0.0834;0.0941;
5253660533213431;-0.0628;-0.1079;0.0718;
5253660543316712;-0.0746;-0.1579;0.0366;
5253660553434785;-0.0543;-0.0759;0.0526;
5253660563538014;0.0373;0.0242;0.0356;
5253660573641295;0.0852;0.1020;0.0366;
5253660583747806;0.0309;0.0818;0.0835;
5253660593851035;-0.0160;0.0029;0.0803;
5253660603954316;-0.0458;-0.0056;0.0654;
5253660614051972;-0.0192;0.0455;0.1069;
5253660624155201;-0.0043;0.0732;0.1218;
5253660634258483;-0.0181;0.1031;0.1463;
5253660644362910;-0.0543;0.1041;0.1410;
5253660654466191;-0.1246;-0.0056;0.1495;
5253660664569420;-0.2599;-0.1111;0.1261;
5253660674672441;-0.3228;-0.1515;0.1197;
5253660684775670;-0.2983;-0.1547;0.0995;
5253660694878951;-0.2226;-0.1228;0.0963;
5253660704998118;-0.1566;-0.0397;0.0995;
5253660715101347;-0.0565;0.0487;0.1059;
5253660725204629;-0.0298;0.1137;0.0771;
5253660735298222;-0.0479;0.0551;0.0803;
5253660745401451;-0.1758;-0.2676;0.0622;
5253660755504733;-0.4963;-0.4337;0.0931;
5253660765600774;-0.4664;-0.1515;0.0931;
5253660775704004;-0.1374;0.1915;0.0100;
5253660785807285;-0.0096;0.4055;-0.0241;
5253660795922701;0.0618;0.3660;-0.0060;
5253660806025931;0.0575;0.3149;-0.0177;
5253660816129212;-0.0714;0.2096;-0.0060;
5253660826219941;-0.2173;0.0317;-0.0369;
5253660836323170;-0.3260;-0.0599;-0.0731;
5253660846426451;-0.3824;-0.1164;-0.0816;
5253660856519108;-0.3505;-0.1664;-0.1061;
5253660866622389;-0.1917;0.1169;-0.0933;
5253660876725618;0.0820;0.5642;-0.0465;
5253660886845722;0.0341;-0.1292;-0.0678;
5253660896949004;-0.4346;-0.6467;-0.1381;
5253660907052233;-0.8254;-0.1419;-0.1807;
5253660917147910;-0.4410;0.0146;-0.2148;
5253660927251139;0.0352;-0.1899;-0.3021;
5253660937354420;-0.0778;-0.1132;-0.2968;
5253660947458014;-0.0607;0.1659;-0.2819;
5253660957561243;0.2012;0.2755;-0.3170;
5253660967664524;0.2012;0.1041;-0.2819;
5253660977786556;0.0703;0.0061;-0.2531;
5253660987889837;-0.0852;-0.0194;-0.2169;
5253660997993066;-0.1310;-0.1696;-0.2244;
5253661008069785;-0.1087;-0.1334;-0.2318;
5253661018173066;-0.0607;-0.0173;-0.2265;
5253661028276295;-0.0256;-0.1270;-0.2233;
5253661038393639;-0.0160;-0.1526;-0.2009;
5253661048496868;0.0021;-0.0184;-0.1892;
5253661058600097;0.1852;0.0360;-0.2308;
5253661068691191;0.3567;0.0690;-0.2542;
5253661078794472;0.4387;0.1861;-0.1956;
5253661088897701;0.5314;0.2872;-0.1434;
5253661099002337;0.5538;0.3415;-0.1125;
5253661109105566;0.4792;0.3735;-0.0646;
5253661119208795;0.3620;0.2021;-0.0028;
5253661129298379;0.1852;0.0051;0.0356;
5253661139401608;-0.0021;-0.0418;0.0718;
5253661149504889;-0.0607;-0.1185;0.0867;
5253661159623535;-0.0415;-0.1558;0.0782;
5253661169726764;-0.0415;-0.1601;0.0792;
5253661179830045;-0.0266;-0.1803;0.0601;
5253661189942806;0.0352;-0.0312;0.0483;
5253661200046035;0.1884;0.0988;0.0302;
5253661210149264;0.3258;0.0477;0.0015;
5253661220259681;0.2640;-0.0003;0.0015;
5253661230362962;0.1746;0.0328;0.0196;
5253661240466139;0.1692;0.0370;0.0462;
5253661250556139;0.1692;0.0338;0.0792;
5253661260659368;0.1374;0.0349;0.1091;
5253661270762649;0.1449;0.0594;0.1346;
5253661280873587;0.1598;0.1116;0.1581;
5253661290976816;0.1555;0.1073;0.1698;
5253661301080097;0.1108;0.0679;0.1591;
5253661311172701;0.0383;0.0093;0.1485;
5253661321275931;-0.0245;-0.0972;0.1091;
5253661331379108;-0.0533;-0.0993;0.1112;
5253661341483535;-0.0202;-0.0173;0.1176;
5253661351586764;0.0426;0.0157;0.0952;
5253661361689941;0.0607;0.0178;0.1336;
5253661371792285;0.0085;0.0317;0.1612;
5253661381895514;0.0011;0.0242;0.1708;
5253661391998691;-0.0181;-0.0173;0.1527;
5253661402098431;-0.0224;-0.0035;0.1666;
5253661412201660;-0.0469;-0.0045;0.1378;
5253661422304837;-0.0597;-0.0471;0.1261;
5253661432404837;-0.1012;-0.0567;0.1218;
5253661442508014;-0.1214;-0.0418;0.1229;
5253661452611191;-0.1087;-0.0333;0.1346;
5253661462715201;-0.1268;-0.0493;0.1612;
5253661472818431;-0.1555;-0.0397;0.1868;
5253661482921608;-0.1545;0.0477;0.1889;
5253661493027441;-0.0948;0.0466;0.2177;
5253661503130670;-0.1065;-0.0248;0.2454;
5253661513233847;-0.1854;-0.0141;0.2561;
5253661523338743;-0.2812;-0.1164;0.2529;
5253661533441972;-0.3824;-0.1356;0.2071;
5253661543545149;-0.3909;0.0019;0.1943;
5253661553645201;-0.2983;0.0445;0.2071;
5253661563748431;-0.2642;0.0636;0.2092;
5253661573851608;-0.3228;0.0743;0.1804;
5253661583953691;-0.3707;0.0434;0.1879;
5253661594056920;-0.3867;-0.0365;0.1964;
5253661604160097;-0.4643;-0.1430;0.1911;
5253661614265306;-0.5506;-0.0844;0.1644;
5253661624368535;-0.4995;0.0711;0.1644;
5253661634471764;-0.4016;0.0626;0.1144;
5253661644573951;-0.3249;0.1244;0.0643;
5253661654677181;-0.2865;0.2318;0.0387;
5253661664780358;-0.2578;0.1957;0.0537;
5253661674878743;-0.2791;0.1403;0.0409;
5253661684981972;-0.3483;-0.0056;0.0451;
5253661695085149;-0.4430;0.0210;0.0281;
5253661705188431;-0.4314;0.0722;0.0345;
5253661715291660;-0.3750;0.0530;-0.0081;
5253661725394837;-0.3611;0.1105;-0.0028;
5253661735498274;-0.4059;0.0903;-0.0294;
5253661745601451;-0.4304;0.0125;-0.1008;
5253661755704629;-0.4197;0.0370;-0.1168;
5253661765812493;-0.4016;0.0178;-0.1519;
5253661775915722;-0.3920;-0.0109;-0.1999;
5253661786018899;-0.3771;0.0168;-0.2073;
5253661796128431;-0.3355;0.0615;-0.2286;
5253661806231660;-0.2951;0.1095;-0.2340;
5253661816334837;-0.2759;0.0839;-0.2425;
5253661826445306;-0.3228;-0.0290;-0.2574;
5253661836548535;-0.3483;-0.0599;-0.2606;
5253661846651712;-0.3696;-0.1089;-0.3053;
5253661856738274;-0.3377;-0.2005;-0.3446;
5253661866841504;-0.3973;-0.2730;-0.3478;
5253661876944681;-0.3441;-0.0855;-0.3808;
5253661887065410;-0.0628;0.3937;-0.4511;
5253661897168639;0.1619;0.5652;-0.4458;
5253661907271816;0.3141;0.4044;-0.4011;
5253661917353535;0.3312;0.2830;-0.4000;
5253661927456764;0.1863;0.2499;-0.3808;
5253661937559993;0.0277;0.2286;-0.3563;
5253661947663431;-0.0383;0.0285;-0.3627;
5253661957766660;-0.1427;-0.1132;-0.3787;
5253661967869837;-0.1619;0.0296;-0.3819;
5253661977999472;-0.0149;0.2350;-0.3691;
5253661988102701;0.1182;0.0786;-0.3414;
5253661998205879;-0.0799;-0.5860;-0.4298;
5253662008280514;-0.3579;-0.5562;-0.5236;
5253662018383743;-0.2844;0.0178;-0.4884;
5253662028486920;0.3024;0.0008;-0.4927;
5253662038601347;0.6869;-0.1356;-0.5193;
5253662048704524;0.5495;0.0956;-0.4735;
5253662058807754;0.5442;0.2021;-0.4234;
5253662068913379;0.7327;0.1361;-0.3925;
5253662079016608;0.7242;-0.0237;-0.3245;
5253662089119785;0.5964;-0.0578;-0.2616;
5253662099213691;0.4622;-0.0972;-0.2052;
5253662109316920;0.3631;-0.2879;-0.1945;
5253662119420097;0.3013;-0.2293;-0.1903;
5253662129579316;0.3184;-0.1292;-0.1860;
5253662139682545;0.3929;-0.2250;-0.1690;
5253662149785722;0.3684;-0.1505;-0.1477;
5253662159823951;0.3120;-0.0471;-0.1157;
5253662169927181;0.3216;-0.0397;-0.1274;
5253662180030358;0.3322;0.0850;-0.1434;
5253662190163014;0.3397;0.1531;-0.1285;
5253662200266191;0.3450;0.0860;-0.1093;
5253662210369420;0.2640;0.0402;-0.0901;
5253662220462389;0.1948;0.0019;-0.0838;
5253662230565618;0.1342;-0.0961;-0.1051;
5253662240668795;0.0948;-0.0876;-0.1072;
5253662250755097;0.1087;-0.0269;-0.1232;
5253662260858014;0.1682;-0.0919;-0.1306;
5253662270961191;0.1353;-0.0951;-0.1615;
5253662281064368;0.1310;0.0115;-0.1850;
5253662291216764;0.2342;0.0711;-0.1913;
5253662301319993;0.2864;0.0828;-0.1871;
5253662311423170;0.2768;0.0274;-0.1903;
5253662321466243;0.2715;0.0157;-0.1828;
5253662331569472;0.2811;0.0264;-0.1647;
5253662341672649;0.3035;-0.0365;-0.1391;
5253662351794472;0.2843;-0.0418;-0.1626;
5253662361897701;0.3067;-0.0099;-0.1221;
5253662372000879;0.3461;0.0285;-0.1178;
5253662382105774;0.4164;0.1137;-0.1115;
5253662392209004;0.4526;0.0636;-0.0838;
5253662402312181;0.3663;-0.0876;-0.0678;
5253662412418951;0.2502;-0.1057;-0.0348;
5253662422522181;0.2566;-0.0557;-0.0092;
5253662432625358;0.3098;-0.0162;0.0185;
5253662442723118;0.3407;0.0658;0.0398;
5253662452826347;0.3631;0.1105;0.0483;
5253662462929524;0.3365;0.0200;0.0920;
5253662473041139;0.2076;-0.0312;0.1091;
5253662483144316;0.1895;-0.0013;0.1069;
5253662493247545;0.1948;-0.0557;0.1442;
5253662503354368;0.1310;-0.1206;0.1612;
5253662513457597;0.0991;-0.0684;0.1889;
5253662523560774;0.1385;-0.0130;0.1655;
5253662533656868;0.1895;0.0242;0.1985;
5253662543760097;0.1937;0.0413;0.2284;
5253662553863274;0.1513;-0.0013;0.2507;
5253662563967597;0.1001;-0.0525;0.2433;
5253662574070826;0.0479;-0.0652;0.2720;
5253662584174004;0.0160;-0.0237;0.2571;
5253662594277389;0.0863;-0.0386;0.2603;
5253662604380618;0.0096;-0.2442;0.2964;
5253662614483795;-0.2280;-0.2698;0.3539;
5253662624587181;-0.3398;0.0210;0.3358;
5253662634690410;-0.0533;0.2117;0.2751;
5253662644793587;0.1980;0.3628;0.2188;
5253662654885514;0.2822;0.3980;0.2262;
5253662664988743;0.2608;0.2403;0.2486;
5253662675091920;0.0692;0.1499;0.2667;
5253662685210826;-0.1342;0.0924;0.2783;
5253662695314056;-0.2237;0.0519;0.2836;
5253662705417233;-0.1843;0.1148;0.2751;
5253662715495201;-0.0565;0.2542;0.2656;
5253662725598431;-0.0352;0.0711;0.3028;
5253662735701608;-0.3185;-0.4635;0.2900;
5253662745822701;-0.6742;-0.4262;0.2433;
5253662755925931;-0.6561;-0.2122;0.1431;
5253662766029108;-0.2216;-0.1973;0.0984;
5253662776139993;-0.0032;-0.0610;0.0579;
5253662786243222;0.0543;0.1787;0.0462;
5253662796346399;0.2193;0.3373;0.0579;
5253662806452701;0.2246;0.2553;0.0877;
5253662816555931;0.0767;0.0754;0.1304;
5253662826659108;-0.0575;0.0711;0.1410;
5253662836756868;-0.1385;-0.0461;0.1399;
5253662846860097;-0.2035;-0.1558;0.1463;
5253662856963274;-0.2439;-0.1142;0.1229;
5253662867072024;-0.2248;-0.1760;0.0664;
5253662877175254;-0.1406;-0.1089;0.0579;
5253662887278431;-0.0692;0.0232;0.0611;
5253662897374785;0.0032;0.0168;0.0558;
5253662907478014;0.0096;0.0306;0.0771;
5253662917581191;-0.0160;0.0850;0.0771;
5253662927672701;-0.0138;0.0466;0.0728;
5253662937775931;-0.0724;-0.0109;0.1176;
5253662947879108;-0.1097;0.0136;0.1261;
5253662957987962;-0.1523;-0.0397;0.1112;
5253662968091139;-0.1726;-0.0652;0.1208;
5253662978194316;-0.1726;-0.0205;0.1037;
5253662988293743;-0.1108;0.0136;0.0867;
5253662998396972;-0.1129;-0.0088;0.0846;
5253663008500149;-0.1438;-0.0802;0.1005;
5253663018595774;-0.1587;-0.0983;0.0963;
5253663028699004;-0.1108;-0.0663;0.1091;
5253663038802181;-0.0724;-0.0333;0.1144;
5253663048913066;-0.0245;0.0349;0.1740;
5253663059016243;-0.0746;-0.0141;0.1346;
5253663069119472;-0.0810;-0.0024;0.1346;
5253663079234524;-0.0969;0.0466;0.1346;
5253663089337754;-0.0554;0.0786;0.1122;
5253663099440931;-0.0586;0.0839;0.1336;
5253663109585722;-0.0927;0.0445;0.1314;
5253663119688899;-0.0959;0.0360;0.1240;
5253663129792129;-0.0767;0.0370;0.1399;
5253663139826347;-0.0810;0.0413;0.1623;
5253663149929576;-0.0628;0.0583;0.1687;
5253663160032754;-0.0927;-0.0088;0.1847;
5253663170176764;-0.0959;-0.0013;0.1517;
5253663180279993;-0.0778;0.0541;0.1463;
5253663190383170;-0.0490;0.1340;0.1229;
5253663200465618;-0.0682;0.0306;0.1250;
5253663210568847;-0.1651;-0.1451;0.1325;
5253663220672024;-0.2695;-0.1696;0.0899;
5253663230783222;-0.2344;-0.1196;0.0984;
5253663240886451;-0.0831;0.0605;0.1080;
5253663250989629;0.0096;0.1936;0.0760;
5253663261084889;0.0597;0.1553;0.0324;
5253663271188170;-0.0117;0.1180;0.0462;
5253663281291451;-0.0810;0.0786;0.0462;
5253663291389941;-0.0810;0.0328;0.0430;
5253663301493222;-0.1545;-0.1036;0.0036;
5253663311596504;-0.1502;-0.1057;-0.0092;
5253663321682597;-0.1055;-0.0429;-0.0220;
5253663331785879;0.0075;0.0668;0.0153;
5253663341889160;0.0032;0.0125;0.0068;
5253663352006660;-0.0927;-0.1601;-0.0443;
5253663362109941;-0.1182;-0.0706;-0.0838;
5253663372213222;-0.0170;0.0061;-0.1029;
5253663382330514;-0.0085;-0.0897;-0.1157;
5253663392433795;-0.0469;-0.1217;-0.1360;
5253663402537076;-0.0341;-0.0940;-0.1146;
5253663412632441;0.0405;0.0232;-0.0976;
5253663422735722;0.1087;0.0956;-0.1051;
5253663432839004;0.1406;0.1233;-0.0912;
5253663442934681;0.0618;0.0999;-0.0720;
5253663453037962;-0.0469;-0.0642;-0.0912;
5253663463141295;-0.1246;-0.0514;-0.1210;
5253663473251451;-0.0767;0.0636;-0.1328;
5253663483354733;0.0362;0.1063;-0.1264;
5253663493458014;0.0224;0.1340;-0.1487;
5253663503564160;-0.0096;0.0967;-0.1242;
5253663513667441;-0.0383;0.0786;-0.1072;
5253663523770722;-0.1023;-0.0418;-0.0923;
5253663533876972;-0.1896;-0.1441;-0.0838;
5253663543980306;-0.2674;-0.1590;-0.1083;
5253663554083535;-0.2152;-0.1334;-0.1530;
5253663564178743;-0.0554;0.0360;-0.1583;
5253663574282024;0.0288;0.1158;-0.1242;
5253663584385306;0.0628;0.0956;-0.1391;
5253663594488951;-0.0032;0.0903;-0.1658;
5253663604592233;-0.0234;0.1084;-0.1360;
5253663614695514;-0.0618;-0.0067;-0.1189;
5253663624799108;-0.1118;-0.0557;-0.1253;
5253663634902389;-0.1257;-0.0130;-0.0997;
5253663645005722;-0.1087;-0.1036;-0.1072;
5253663655123743;-0.1108;-0.1196;-0.1146;
5253663665227024;-0.0895;-0.1036;-0.1072;
5253663675330306;-0.0277;-0.0024;-0.1370;
5253663685419941;0.0660;0.0679;-0.1296;
5253663695523222;0.0671;-0.0333;-0.1125;
5253663705626556;-0.0352;-0.0546;-0.1360;
5253663715711660;-0.0117;0.0413;-0.1349;
5253663725814941;0.0692;0.0647;-0.1136;
5253663735918222;0.0373;0.0285;-0.0880;
5253663746032129;0.0053;0.0498;-0.1413;
5253663756135358;0.0234;0.0221;-0.1242;
5253663766238691;-0.0298;-0.0525;-0.1402;
5253663776353014;-0.0447;-0.0983;-0.1679;
5253663786456295;-0.0362;-0.1228;-0.1828;
5253663796559576;0.0149;-0.0780;-0.1658;
5253663806667285;0.0352;-0.0727;-0.2095;
5253663816770566;0.1065;-0.0684;-0.2190;
5253663826873847;0.1513;0.0306;-0.1764;
5253663836972181;0.2076;0.0573;-0.1754;
5253663847075514;0.2118;0.0072;-0.2276;
5253663857178743;0.2321;0.1105;-0.1977;
5253663867291608;0.3024;0.1883;-0.1903;
5253663877394837;0.2790;0.0711;-0.1956;
5253663887498170;0.1502;-0.0652;-0.1711;
5253663897590514;0.0511;-0.1302;-0.1924;
5253663907693795;0.0788;-0.1356;-0.1754;
5253663917797129;0.1491;-0.0322;-0.1711;
5253663927890618;0.2406;-0.0162;-0.1562;
5253663937993899;0.2662;0.0104;-0.1860;
5253663948097233;0.3280;0.0754;-0.1796;
5253663958204108;0.3216;0.0274;-0.1328;
5253663968307389;0.3237;0.0445;-0.1264;
5253663978410722;0.3514;0.2043;-0.1157;
5253663988533535;0.4718;0.2808;-0.1200;
5253663998636816;0.4814;0.2627;-0.0923;
5253664008740097;0.4217;0.2158;-0.0188;
5253664018810097;0.3024;0.0477;-0.0028;
5253664028913431;0.1204;-0.2069;0.0260;
5253664039016712;-0.0426;-0.2943;0.0249;
5253664049141451;-0.0362;-0.2485;0.0196;
5253664059244733;0.2065;-0.0471;0.0164;
5253664069348066;0.3706;-0.0024;0.0260;
5253664079449368;0.3354;-0.1185;0.0185;
5253664089552649;0.2129;-0.1366;0.0622;
5253664099655931;0.1682;-0.1867;0.0771;
5253664109741451;0.1662;-0.1760;0.1154;
5253664119844733;0.1873;-0.1079;0.1250;
5253664129948066;0.2246;-0.0429;0.1144;
5253664140056243;0.2545;0.1212;0.1506;
5253664150159524;0.2917;0.2371;0.1506;
5253664160262806;0.2545;0.1648;0.1804;
5253664170355722;0.1236;0.0104;0.1975;
5253664180459004;0.1193;-0.2921;0.2039;
5253664190562285;-0.1683;-0.6851;0.2614;
5253664200690826;-0.7221;-0.3017;0.3198;
5253664210794108;-0.5879;0.2851;0.3369;
5253664220897389;0.3290;0.5525;0.1112;
5253664230977441;0.5506;0.5525;0.0995;
5253664241080722;0.4473;0.3639;0.2060;
5253664251184056;0.3194;0.2957;0.2465;
5253664261300618;0.0980;0.1553;0.2369;
5253664271403847;-0.1832;-0.0876;0.2337;
5253664281507024;-0.4845;-0.1068;0.2390;
5253664291614576;-0.3292;0.6632;0.2529;
5253664301717806;0.0916;0.2053;0.3060;
5253664311820983;-0.1683;-0.9897;0.2262;
5253664321923118;-0.9841;-0.5381;0.0707;
5253664332026347;-1.4197;0.0615;0.0377;
5253664342129524;-0.6678;-0.2133;-0.0475;
5253664352216556;-0.2194;-0.3305;-0.2148;
5253664362319785;-0.4059;-0.0557;-0.2531;
5253664372422962;-0.2482;0.3841;-0.1743;
5253664382534524;0.1044;0.3085;-0.1700;
5253664392637754;0.0650;0.0178;-0.2244;
5253664402740931;-0.0756;0.2521;-0.1796;
5253664412848118;-0.1172;0.1627;-0.1466;
5253664422951347;-0.0980;-0.0897;-0.2606;
5253664433054524;-0.0842;0.1478;-0.2542;
5253664443161868;-0.0522;0.1510;-0.2670;
5253664453265097;0.0447;-0.1718;-0.3245;
5253664463368326;0.0298;-0.1526;-0.3245;
5253664473488170;-0.0352;-0.0961;-0.3000;
5253664483591399;0.1491;-0.0823;-0.3256;
5253664493694576;0.4228;0.0391;-0.2819;
5253664503780097;0.4430;-0.0514;-0.2659;
5253664513883326;0.5080;0.0189;-0.2957;
5253664523986556;0.6028;0.1031;-0.2521;
5253664534087441;0.6092;-0.0589;-0.2084;
5253664544190670;0.5783;-0.0003;-0.1796;
5253664554293847;0.6571;0.1190;-0.1221;
5253664564397597;0.7423;0.0818;-0.0774;
5253664574500826;0.6752;0.0391;0.0121;
5253664584604004;0.6124;0.0423;0.1208;
5253664594714889;0.5122;-0.0375;0.1772;
5253664604818118;0.3876;-0.0642;0.2113;
5253664614921295;0.3226;-0.0258;0.2326;
5253664625018639;0.3077;-0.0162;0.2422;
5253664635121868;0.2981;0.0189;0.2699;
5253664645225045;0.2257;-0.0056;0.3049;
5253664655326764;0.1651;-0.0099;0.3273;
5253664665429993;0.0618;-0.0652;0.3688;
5253664675533170;-0.0075;0.0413;0.3838;
5253664685639472;0.0405;0.0881;0.3976;
5253664695742701;0.0288;0.0072;0.3688;
5253664705845931;-0.0660;0.0285;0.3635;
5253664715955410;-0.1108;0.0253;0.3710;
5253664726058639;-0.0948;0.0221;0.3433;
5253664736161816;-0.1140;0.0402;0.3465;
5253664746258691;-0.1353;0.0115;0.3252;
5253664756361920;-0.1513;-0.0205;0.3241;
5253664766465097;-0.1513;0.0509;0.3198;
5253664776569472;-0.0810;0.0700;0.3518;
5253664786672701;-0.1182;-0.0205;0.3198;
5253664796775879;-0.1907;-0.0557;0.2678;
5253664806876868;-0.1811;-0.0312;0.2486;
5253664816980097;-0.1012;0.0541;0.2550;
5253664827083274;-0.0330;0.0924;0.2529;
5253664837181139;-0.0298;0.0935;0.2230;
5253664847284368;-0.0266;0.0881;0.2550;
5253664857387545;-0.0905;-0.0248;0.2529;
5253664867496451;-0.1726;-0.0802;0.2646;
5253664877599733;-0.2248;-0.0770;0.2582;
5253664887702858;-0.1896;-0.0993;0.2156;
5253664897802024;-0.1566;-0.0344;0.1783;
5253664907905254;-0.0810;0.0636;0.1964;
5253664918008483;-0.0511;0.0871;0.1889;
5253664928101764;-0.0703;0.0807;0.1868;
5253664938204993;-0.1087;0.0754;0.1889;
5253664948308222;-0.1555;-0.0312;0.1794;
5253664958421399;-0.2269;-0.0461;0.1879;
5253664968524629;-0.2322;0.0200;0.2358;
5253664978627858;-0.2024;-0.0003;0.2007;
5253664988759368;-0.1939;0.0168;0.1900;
5253664998862597;-0.2099;0.0189;0.1996;
5253665008965826;-0.2173;-0.0035;0.1932;
5253665019054576;-0.2450;-0.0067;0.1474;
5253665029157806;-0.2290;-0.0269;0.1261;
5253665039260931;-0.2503;-0.0493;0.1549;
5253665049352389;-0.2514;-0.0162;0.1463;
5253665059455670;-0.2365;0.0370;0.1453;
5253665069558847;-0.2418;-0.0375;0.1751;
5253665079648587;-0.3334;-0.0844;0.1346;
5253665089751816;-0.2940;0.0764;0.0771;
5253665099854993;-0.1395;0.1989;0.0941;
5253665109979993;-0.1395;0.1616;0.0632;
5253665120083222;-0.1971;0.0722;0.0377;
5253665130186399;-0.2759;0.0317;0.0260;
5253665140272701;-0.2940;-0.0344;0.0366;
5253665150375931;-0.3047;-0.0589;0.0462;
5253665160479108;-0.2706;-0.0045;0.0387;
5253665170580201;-0.1949;0.0360;0.0196;
5253665180683431;-0.1800;0.0423;-0.0166;
5253665190786660;-0.1864;0.0168;-0.0635;
5253665200907181;-0.2130;-0.0450;-0.0710;
5253665211010410;-0.2099;-0.0333;-0.0838;
5253665221113587;-0.1672;-0.0024;-0.0880;
5253665231216972;-0.1555;-0.0130;-0.0678;
5253665241320201;-0.1225;0.0423;-0.0891;
5253665251423431;-0.0724;0.1137;-0.0678;
5253665261533743;-0.1140;0.0370;-0.0784;
5253665271637076;-0.1747;-0.0482;-0.0955;
5253665281740410;-0.1683;-0.0312;-0.1296;
5253665291834368;-0.1577;-0.0333;-0.1178;
5253665301937701;-0.0980;0.0423;-0.1509;
5253665312041087;0.0213;0.1627;-0.1445;
5253665322125201;0.0383;0.1627;-0.1296;
5253665332228535;0.0032;0.0924;-0.1285;
5253665342331868;-0.1140;0.0061;-0.1221;
5253665352448118;-0.1587;-0.0514;-0.1210;
5253665362551451;-0.1502;-0.0450;-0.1168;
5253665372654837;-0.0959;0.0072;-0.1530;
5253665382750410;-0.0565;0.0668;-0.1679;
5253665392853691;-0.0288;0.0434;-0.1775;
5253665402957024;-0.0501;0.0487;-0.1903;
5253665413069264;-0.1001;-0.0610;-0.1935;
5253665423172597;-0.1417;-0.1377;-0.2052;
5253665433275931;-0.0788;-0.0557;-0.1999;
5253665443373326;-0.0202;0.0274;-0.1871;
5253665453476660;0.0138;-0.0344;-0.1913;
5253665463579993;-0.0266;-0.1036;-0.1924;
5253665473688951;0.0064;-0.0248;-0.2041;
5253665483792285;0.1289;0.0913;-0.2020;
5253665493895618;0.1778;0.0935;-0.1828;
5253665503990722;0.1459;0.0423;-0.2212;
5253665514094056;0.1692;0.0296;-0.1977;
5253665524197389;0.2310;0.1723;-0.1104;
5253665534304264;0.2012;0.0636;-0.0774;
5253665544407597;0.0873;-0.0642;-0.1072;
5253665554510931;0.0852;0.0072;-0.0955;
5253665564617701;0.1534;0.0818;-0.0774;
5253665574721035;0.1534;0.0242;-0.0465;
5253665584824368;0.0288;-0.1483;-0.0454;
5253665594926035;-0.0479;-0.1846;-0.0731;
5253665605029368;0.0064;-0.1015;-0.0603;
5253665615132701;0.0245;-0.1537;-0.0433;
5253665625242076;0.0394;-0.0791;-0.0337;
5253665635345410;0.0671;0.0370;0.0132;
5253665645448743;0.1268;0.0402;-0.0209;
5253665655510983;0.1097;0.1095;-0.0443;
5253665665614264;0.1513;0.2148;-0.0529;
5253665675717597;0.1820;0.1872;-0.0198;
5253665685851972;0.0639;0.0839;-0.0081;
5253665695955358;0.0277;0.0700;0.0153;
5253665706058691;-0.0170;-0.0216;0.0356;
5253665716171347;-0.0724;-0.1174;0.0302;
5253665726274681;-0.1001;-0.1324;0.0718;
5253665736378014;-0.0597;-0.0961;0.0643;
5253665746467076;0.0224;-0.0652;0.0142;
5253665756570358;0.0469;-0.0535;-0.0071;
5253665766673691;0.0746;-0.0375;-0.0337;
5253665776771816;0.0735;-0.0482;-0.0422;
5253665786875149;0.1278;0.0626;-0.0113;
5253665796978431;0.1703;0.1308;0.0142;
5253665807084160;0.1406;0.0828;0.0462;
5253665817187493;0.0288;-0.0194;0.0728;
5253665827290826;-0.0479;-0.0802;0.0654;
5253665837388535;0.0085;0.0051;0.0622;
5253665847491868;0.0586;0.0285;0.0270;
5253665857595149;0.0586;-0.0003;0.0238;
5253665867707806;0.0426;0.0093;0.0238;
5253665877811139;0.0373;-0.0301;0.0228;
5253665887914524;0.0032;-0.1313;0.0430;
5253665898010358;-0.0128;-0.1483;0.0643;
5253665908113691;0.0362;0.0157;0.0941;
5253665918217024;0.1502;0.1393;0.0888;
5253665928315774;0.1863;0.1670;0.0739;
5253665938419108;0.0820;0.1297;0.0803;
5253665948522441;-0.0138;0.0157;0.0739;
5253665958637910;-0.0628;-0.0280;0.0835;
5253665968741243;-0.1598;-0.0802;0.0526;
5253665978844576;-0.1118;-0.0546;0.0451;
5253665988943118;-0.0064;0.1233;0.0696;
5253665999046504;0.0522;0.1382;0.1027;
5253666009149785;0.0043;0.0999;0.0973;
5253666019255358;-0.0756;0.0125;0.0952;
5253666029358691;-0.1939;-0.1920;0.0686;
5253666039462024;-0.3025;-0.2836;0.0324;
5253666049559681;-0.2791;-0.2304;0.0185;
5253666059663014;-0.1374;-0.1473;0.0036;
5253666069766347;-0.0181;0.0061;-0.0028;
5253666079859993;0.1980;0.3170;0.0111;
5253666089963379;0.3056;0.4182;0.0483;
5253666100066660;0.1566;0.2371;0.0537;
5253666110197597;-0.0575;-0.0620;0.0664;
5253666120300931;-0.2589;-0.1920;0.0643;
5253666130404264;-0.3302;-0.1004;0.0249;
5253666140488274;-0.1704;-0.0077;0.0057;
5253666150591556;0.0053;0.0391;0.0313;
5253666160694941;-0.0085;0.0700;0.0249;
5253666170816556;-0.0138;0.0530;0.0249;
5253666180919889;-0.1832;-0.3007;0.0142;
5253666191023222;-0.3760;-0.4124;-0.0198;
5253666201115097;-0.3110;-0.1739;-0.0486;
5253666211218483;-0.0778;-0.0354;-0.0635;
5253666221321816;0.0447;0.0487;-0.0699;
5253666231434472;0.0362;0.0892;-0.0688;
5253666241537806;0.0724;0.2128;-0.0422;
5253666251641139;0.0692;0.2446;-0.0124;
5253666261753951;-0.0394;0.1137;-0.0475;
5253666271857233;-0.1097;0.0338;-0.0316;
5253666281960462;-0.1822;0.0104;0.0025;
5253666292054160;-0.2578;-0.1270;-0.0188;
5253666302157441;-0.2589;-0.1941;-0.0486;
5253666312260670;-0.1193;-0.0237;-0.0603;
5253666322357285;0.0075;0.0977;-0.0763;
5253666332460566;0.1204;0.1702;-0.0539;
5253666342563795;0.0895;0.1531;-0.0454;
5253666352657389;0.0256;0.0871;-0.0497;
5253666362760670;-0.0405;0.0487;-0.0198;
5253666372863899;-0.1065;-0.0620;-0.0134;
5253666382974472;-0.1587;-0.1089;0.0068;
5253666393077754;-0.2045;-0.1441;0.0387;
5253666403180983;-0.1363;-0.0780;0.0068;
5253666413295826;-0.0511;0.0626;-0.0422;
5253666423399108;-0.0064;0.1435;-0.0582;
5253666433502337;-0.0415;0.0977;-0.0475;
5253666443614160;-0.1023;0.0008;-0.0816;
5253666453717441;-0.0820;0.0274;-0.0720;
5253666463820670;-0.0735;0.0019;-0.0465;
5253666473921451;-0.0873;-0.0375;-0.0358;
5253666484024681;-0.0831;-0.0344;-0.0475;
5253666494127962;-0.0362;0.0455;-0.0252;
5253666504228535;-0.0692;0.0136;-0.0326;
5253666514331816;-0.1055;-0.0546;-0.1019;
5253666524435045;-0.1065;-0.0322;-0.1029;
5253666534528743;-0.0991;-0.0237;-0.1455;
5253666544632024;-0.0511;-0.0365;-0.1562;
5253666554735254;-0.0447;-0.0684;-0.1477;
5253666564853639;-0.0234;-0.1079;-0.1189;
5253666574956920;-0.0245;-0.1206;-0.0965;
5253666585060149;-0.0170;-0.1462;-0.1029;
5253666595160097;0.0160;-0.0812;-0.1242;
5253666605263379;0.0533;-0.0152;-0.1445;
5253666615366608;0.0842;-0.0141;-0.1583;
5253666625455722;0.1023;0.0434;-0.1594;
5253666635559004;0.1363;0.0977;-0.1807;
5253666645662233;0.1300;0.0839;-0.1786;
5253666655780618;0.1023;0.0743;-0.1413;
5253666665883847;0.1172;0.1521;-0.1221;
5253666675987129;0.0756;0.0977;-0.1040;
5253666686075358;-0.0170;-0.0663;-0.1019;
5253666696178639;-0.0991;-0.1707;-0.0923;
5253666706281868;-0.1694;-0.2091;-0.1317;
5253666716361035;-0.1012;-0.2346;-0.1434;
5253666726464316;-0.0458;-0.1909;-0.1871;
5253666736567545;0.0628;-0.0322;-0.2084;
5253666746692597;0.1948;0.0924;-0.2041;
5253666756795879;0.2385;0.1403;-0.1913;
5253666766899108;0.1566;0.0850;-0.1519;
5253666777016556;0.1023;0.0338;-0.1360;
5253666787119837;0.1214;0.0722;-0.1317;
5253666797223066;0.1417;0.1212;-0.1338;
5253666807309472;0.1577;0.0967;-0.1093;
5253666817412754;0.0799;-0.0237;-0.0944;
5253666827515983;0.0873;-0.0173;-0.0976;
5253666837611816;0.0682;-0.0130;-0.1232;
5253666847715045;0.0511;-0.0876;-0.1146;
5253666857818274;0.0309;-0.1473;-0.0774;
5253666867926920;0.0469;-0.1473;-0.0784;
5253666878030149;0.1353;-0.0301;-0.0859;
5253666888133431;0.1735;0.0317;-0.0763;
5253666898226347;0.1703;0.0093;-0.0848;
5253666908329629;0.1534;0.0296;-0.0401;
5253666918432858;0.1767;0.1787;-0.0454;
5253666928540358;0.1651;0.1563;-0.0550;
5253666938643639;0.0330;-0.0162;-0.0518;
5253666948746868;-0.0256;-0.0620;-0.0635;
5253666958851347;-0.0256;-0.0578;-0.0539;
5253666968954629;-0.0192;-0.1111;-0.0454;
5253666979057858;-0.0224;-0.2037;-0.0571;
5253666989197754;0.0671;-0.1111;-0.0603;
5253666999300983;0.1630;-0.0013;-0.0507;
5253667009404212;0.1395;-0.0876;-0.0475;
5253667019477076;0.1161;-0.0919;-0.0731;
5253667029580358;0.1417;-0.0088;-0.0518;
5253667039683587;0.2023;0.1265;-0.0411;
5253667049779420;0.2044;0.1265;-0.0539;
5253667059882701;0.1778;0.1670;-0.0443;
5253667069985931;0.1991;0.2361;-0.0454;
5253667080088118;0.1651;0.1872;-0.0369;
5253667090191399;0.1246;0.0796;-0.0401;
5253667100294629;-0.0341;-0.1973;-0.0060;
5253667110410722;-0.0767;-0.1196;-0.0156;
5253667120514004;0.1182;0.0605;-0.0305;
5253667130617233;0.1150;-0.0301;-0.0624;
5253667140730618;0.0043;-0.2304;-0.0720;
5253667150833847;-0.0053;-0.2985;-0.0507;
5253667160937129;0.0565;-0.2122;-0.0507;
5253667171042493;0.1534;-0.1302;-0.0923;
5253667181145774;0.2598;0.0157;-0.1168;
5253667191249004;0.3269;0.0029;-0.0763;
5253667201348847;0.3983;0.2403;-0.0443;
5253667211452076;0.4110;0.1755;0.0036;
5253667221555410;0.1767;-0.1494;0.0206;
5253667231655201;0.1118;-0.0077;0.0366;
5253667241758483;0.1724;0.0711;0.0100;
5253667251861712;0.1799;0.0136;0.0142;
5253667261970722;0.1385;-0.0546;0.0345;
5253667272073951;0.0937;-0.1217;0.0334;
5253667282177129;0.1395;-0.0450;0.0313;
5253667292275722;0.1735;-0.0354;0.0334;
5253667302378951;0.1491;-0.1057;0.0569;
5253667312482129;0.1332;-0.0780;0.0952;
5253667322557597;0.1289;-0.0908;0.1293;
5253667332660826;0.1065;-0.0993;0.1176;
5253667342764004;0.1714;0.0860;0.1282;
5253667352878847;0.2768;0.2627;0.1314;
5253667362982129;0.3120;0.2478;0.1218;
5253667373085254;0.2491;0.2096;0.1570;
5253667383185931;0.1577;0.1233;0.1879;
5253667393289160;0.1172;0.0083;0.1879;
5253667403392337;0.0873;0.0019;0.2401;
5253667413524472;0.0905;-0.0141;0.2975;
5253667423627701;0.0373;-0.0961;0.2857;
5253667433730879;0.0096;-0.1398;0.2720;
5253667443820931;-0.0096;-0.1324;0.2635;
5253667453924160;0.0224;-0.1068;0.2624;
5253667464027337;0.0852;-0.0237;0.2411;
5253667474128431;0.0937;0.0168;0.2667;
5253667484231660;0.1182;0.1361;0.2348;
5253667494334837;0.1513;0.2510;0.2688;
5253667504445201;0.0778;0.2032;0.3156;
5253667514548431;-0.0469;0.0232;0.3465;
5253667524651608;-0.2546;-0.0929;0.3433;
5253667534748951;-0.3430;-0.1270;0.3284;
5253667544852181;-0.3228;-0.1174;0.2932;
5253667554955358;-0.2375;0.0040;0.2507;
5253667565059837;-0.1726;0.0455;0.2390;
5253667575163014;-0.1108;0.1201;0.2145;
5253667585266243;-0.0905;0.1691;0.2060;
5253667595366868;-0.1491;0.0711;0.2209;
5253667605470097;-0.2354;0.0477;0.2177;
5253667615573274;-0.2386;0.0658;0.2081;
5253667625674785;-0.2557;0.0285;0.1836;
5253667635778014;-0.3047;-0.0269;0.1559;
5253667645881191;-0.3845;-0.1142;0.1389;
5253667655983847;-0.4526;-0.1984;0.0686;
5253667666087129;-0.4367;-0.2442;0.0174;
5253667676190254;-0.4112;-0.2389;-0.0337;
5253667686301868;-0.1832;-0.0194;-0.0742;
5253667696405097;0.0181;0.2265;-0.0667;
5253667706508326;0.0778;0.2254;-0.0838;
5253667716580514;0.0202;0.0743;-0.0742;
5253667726683795;-0.0522;0.0200;-0.0433;
5253667736786920;-0.0597;0.0253;-0.0518;
5253667746912701;0.0234;0.0551;-0.0891;
5253667757015931;0.0628;0.0274;-0.0880;
5253667767119160;0.0969;0.1116;-0.1008;
5253667777242024;0.2246;0.3000;-0.0710;
5253667787345306;0.0586;-0.0418;-0.0752;
5253667797448431;-0.1790;-0.3316;-0.0891;
5253667807536451;-0.2152;-0.1771;-0.1146;
5253667817639681;0.0277;0.0061;-0.1189;
5253667827742858;0.1714;-0.0237;-0.1157;
5253667837868066;0.1012;-0.1057;-0.1051;
5253667847971243;0.0501;-0.0855;-0.0731;
5253667858074420;0.0724;-0.0141;-0.0859;
5253667868152754;0.0895;0.0061;-0.0987;
5253667878255983;0.0842;0.0636;-0.0923;
5253667888359160;0.1065;0.1148;-0.0742;
5253667898453743;0.0352;-0.0035;-0.0433;
5253667908556972;-0.0383;-0.0546;-0.0177;
5253667918660201;-0.0096;0.0349;-0.0156;
5253667928765931;0.0554;0.0839;-0.0401;
5253667938869212;0.0756;0.1169;-0.0049;
5253667948972389;0.0469;0.1137;0.0185;
5253667959094472;-0.0437;-0.0173;0.0206;
5253667969197701;-0.1630;-0.1377;0.0206;
5253667979300879;-0.2173;-0.1675;0.0079;
5253667989369889;-0.1587;-0.1547;-0.0060;
5253667999473170;-0.0479;-0.0152;-0.0081;
5253668009576399;0.0586;0.1169;0.0111;
5253668019755201;0.0607;0.0977;0.0121;
5253668029858431;-0.0107;0.0647;0.0164;
5253668039961608;-0.0352;0.0583;0.0174;
5253668049982597;-0.0426;0.0264;0.0174;
5253668060085826;-0.0714;-0.0226;0.0334;
5253668070189056;-0.1172;-0.0866;0.0398;
5253668080314264;-0.1587;-0.1590;0.0334;
5253668090417493;-0.1491;-0.1526;0.0217;
5253668100520670;-0.0639;-0.0429;0.0142;
5253668110635618;0.0373;0.0764;0.0142;
5253668120738847;0.1087;0.1361;-0.0145;
5253668130842024;0.0959;0.1233;-0.0028;
5253668140941243;0.0415;0.1297;0.0057;
5253668151044472;0.0181;0.0903;0.0238;
5253668161147649;-0.0490;0.0157;0.0494;
5253668171256920;-0.1246;-0.0695;0.0611;
5253668181360149;-0.1449;-0.0855;0.0590;
5253668191463326;-0.1129;-0.0450;0.0590;
5253668201552910;-0.1065;-0.0642;0.0494;
5253668211656139;-0.1236;-0.0642;0.0025;
5253668221759368;-0.0873;-0.0312;-0.0166;
5253668231846972;-0.0405;0.0328;-0.0358;
5253668241950201;0.0096;0.1009;-0.0411;
5253668252053431;0.0085;0.1212;-0.0007;
5253668262186451;-0.0522;0.0647;0.0057;
5253668272289629;-0.0309;0.1126;0.0089;
5253668282392858;-0.0479;0.1116;0.0281;
5253668292489941;-0.1065;-0.0173;0.0068;
5253668302593118;-0.1545;-0.0557;-0.0007;
5253668312696347;-0.1726;-0.0802;-0.0113;
5253668322807285;-0.1300;-0.1057;-0.0411;
5253668332910462;-0.0639;-0.0067;-0.0603;
5253668343013691;-0.0192;0.0413;-0.0497;
5253668353103847;-0.0277;0.0328;-0.0316;
5253668363207024;-0.0788;-0.0333;-0.0614;
5253668373310254;-0.1044;-0.0929;-0.0593;
5253668383410410;-0.0511;0.0146;-0.0443;
5253668393513587;-0.0107;0.0871;-0.0486;
5253668403616816;0.0107;0.0636;-0.0806;
5253668413729993;0.0064;0.1244;-0.0901;
5253668423833170;0.0032;0.1329;-0.0720;
5253668433936399;-0.0597;0.0019;-0.0752;
5253668444044160;-0.1055;-0.0780;-0.0720;
5253668454147389;-0.1481;-0.1281;-0.0806;
5253668464250566;-0.0895;-0.1079;-0.0806;
5253668474359160;0.0149;0.0242;-0.0699;
5253668484462337;0.0639;0.0573;-0.0742;
5253668494565566;0.0799;0.0807;-0.1029;
5253668504667285;0.0714;0.0903;-0.0965;
5253668514770462;0.0160;0.0370;-0.1200;
5253668524873691;0.0053;0.0221;-0.1104;
5253668534966191;-0.0266;-0.0226;-0.0784;
5253668545069368;-0.0415;-0.1057;-0.0646;
5253668555172597;-0.0415;-0.0567;-0.0699;
5253668565274785;0.0160;0.0178;-0.0838;
5253668575377962;0.0181;0.0051;-0.0571;
5253668585481191;-0.0117;-0.0109;-0.0859;
5253668595584941;-0.0000;0.0210;-0.0976;
5253668605688118;0.0053;0.0168;-0.1083;
5253668615791347;0.0415;0.0434;-0.1360;
5253668625894941;0.0820;0.1361;-0.1019;
5253668635998118;0.0916;0.1702;-0.0838;
5253668646101347;-0.0256;-0.0620;-0.0742;
5253668656212389;-0.1161;-0.1654;-0.0688;
5253668666315618;-0.0586;-0.0887;-0.0518;
5253668676418795;-0.0160;-0.0695;-0.1008;
5253668686525201;-0.0053;-0.1025;-0.1157;
5253668696628431;0.0288;-0.0525;-0.1221;
5253668706731608;0.1406;0.1137;-0.1306;
5253668716831868;0.1767;0.1595;-0.1296;
5253668726935097;0.0767;0.0083;-0.1232;
5253668737038274;0.0181;-0.1015;-0.1253;
5253668747131347;0.1534;0.1095;-0.0944;
5253668757234524;0.2055;0.1201;-0.0720;
5253668767337754;0.0778;-0.0418;-0.0529;
5253668777433535;0.0575;-0.0269;-0.0678;
5253668787536764;0.0980;0.0083;-0.0816;
5253668797639993;0.0852;0.0285;-0.0944;
5253668807750618;0.0266;-0.0514;-0.0987;
5253668817853795;0.0011;-0.1345;-0.0816;
5253668827957024;0.0522;-0.0972;-0.0901;
5253668838029785;0.1044;-0.0589;-0.1019;
5253668848132962;0.1278;-0.0173;-0.0880;
5253668858236139;0.1788;0.0551;-0.0624;
5253668868357181;0.1459;0.0210;-0.0955;
5253668878460410;0.1417;0.0434;-0.0752;
5253668888563587;0.1289;0.0892;-0.0944;
5253668898674785;0.1012;0.0402;-0.0901;
5253668908777962;0.0586;0.0061;-0.0944;
5253668918881243;0.0639;-0.0312;-0.0731;
5253668928995566;0.0863;-0.0503;-0.0614;
5253668939098743;0.1470;0.0019;-0.0337;
5253668949201972;0.1438;0.0200;-0.0273;
5253668959274316;0.1332;-0.0056;-0.0348;
5253668969377493;0.1225;0.0072;-0.0124;
5253668979480722;0.0820;-0.0578;-0.0220;
5253668989613222;0.0490;-0.1142;-0.0252;
5253668999716399;0.0969;-0.0375;-0.0252;
5253669009819629;0.0756;-0.0599;-0.0326;
5253669019921139;0.0852;-0.0493;-0.0337;
5253669030024316;0.1087;0.0253;0.0068;
5253669040127493;0.1055;0.0115;0.0270;
5253669050255722;0.0607;-0.0674;0.0249;
5253669060358899;0.0842;-0.0482;0.0377;
5253669070462129;0.1395;0.0668;0.0409;
5253669080541868;0.1703;0.1371;0.0142;
5253669090645045;0.1863;0.2190;0.0281;
5253669100748274;0.0767;0.1489;0.0366;
5253669110852285;-0.0085;0.0104;0.0377;
5253669120955514;-0.0277;-0.0237;0.0558;
5253669131058691;-0.0511;-0.0961;0.0686;
5253669141167181;0.0032;-0.0983;0.0601;
5253669151270358;0.0927;-0.0546;0.0899;
5253669161373587;0.0884;-0.0141;0.1080;
5253669171495931;0.0501;0.0274;0.0686;
5253669181599108;0.0245;0.0317;0.0643;
5253669191702337;-0.0735;-0.0759;0.0377;
5253669201764681;-0.0873;-0.1153;0.0185;
5253669211867910;0.0192;-0.0258;0.0217;
5253669221971087;0.0820;0.0370;0.0174;
5253669232093691;0.0852;0.1052;0.0664;
5253669242196868;0.0671;0.0615;0.0654;
5253669252300097;0.0586;0.0573;0.0664;
5253669262406556;0.0565;0.1350;0.0473;
5253669272509837;-0.0021;0.1020;0.0483;
5253669282613014;-0.0927;-0.0525;0.0313;
5253669292710722;-0.1278;-0.1409;0.0228;
5253669302813951;-0.0341;-0.0770;-0.0017;
5253669312917181;0.0618;0.0051;-0.0071;
5253669323004785;0.0586;0.0200;0.0164;
5253669333108014;0.0458;-0.0184;0.0228;
5253669343211243;0.0735;0.0115;0.0292;
5253669353323431;0.0277;-0.0109;0.0260;
5253669363426660;-0.0405;-0.1164;0.0025;
5253669373529941;-0.0405;-0.0983;-0.0124;
5253669383629889;-0.0053;-0.0993;-0.0284;
5253669393733118;0.0415;-0.0365;-0.0220;
5253669403836347;0.0778;0.0668;-0.0411;
5253669413940618;0.1385;0.1872;-0.0401;
5253669424043847;0.1268;0.2254;-0.0443;
5253669434147076;0.0895;0.1563;-0.0443;
5253669444230306;0.0245;0.0445;-0.0433;
5253669454333587;-0.0362;-0.0961;-0.0358;
5253669464436816;-0.0543;-0.1281;-0.0209;
5253669474574056;-0.0437;-0.1835;-0.0113;
5253669484677285;0.0064;-0.1696;-0.0348;
5253669494780514;0.0778;-0.0727;-0.0593;
5253669504874889;0.0937;-0.1174;-0.0550;
5253669514978118;0.0671;-0.1473;-0.0369;
5253669525081347;0.1566;-0.0194;-0.0635;
5253669535184368;0.2651;0.0935;-0.0976;
5253669545287597;0.2843;0.1361;-0.0688;
5253669555390826;0.2864;0.2201;-0.0071;
5253669565502597;0.1991;0.1137;0.0356;
5253669575605879;0.0756;-0.0130;0.0558;
5253669585709056;0.0852;0.0168;0.0569;
5253669595813535;0.1044;0.0562;0.0718;
5253669605916764;0.0607;0.0189;0.0707;
5253669616019993;0.0405;-0.0365;0.0686;
5253669626108014;-0.0011;-0.0812;0.0728;
5253669636211243;0.0160;-0.0844;0.0707;
5253669646314472;0.0458;-0.0525;0.0750;
5253669656398535;0.0490;-0.0482;0.1016;
5253669666501764;0.0937;0.0221;0.1250;
5253669676605045;0.0916;0.0722;0.1431;
5253669686737181;0.0458;0.0594;0.1495;
5253669696840410;0.0064;0.0242;0.1431;
5253669706943639;-0.0522;-0.0429;0.1453;
5253669717042024;-0.0543;-0.0439;0.1612;
5253669727145254;0.0085;-0.0013;0.1612;
5253669737248483;0.0362;0.0636;0.1549;
5253669747356972;-0.0043;0.0455;0.1826;
5253669757460201;-0.0905;-0.0887;0.1911;
5253669767563431;-0.1449;-0.1547;0.2209;
5253669777673899;-0.1459;-0.0940;0.1964;
5253669787777129;-0.0309;0.0051;0.2060;
5253669797880358;-0.0011;0.0487;0.1804;
5253669807960774;0.0288;0.1371;0.2145;
5253669818064004;-0.0021;0.1467;0.1921;
5253669828167233;-0.0330;0.0786;0.1772;
5253669838244681;-0.0905;0.0360;0.1921;
5253669848347910;-0.1363;-0.0258;0.2007;
5253669858451139;-0.1363;-0.0120;0.1900;
5253669868568379;-0.1076;0.0125;0.1943;
5253669878671608;-0.1385;-0.0056;0.1762;
5253669888774837;-0.1587;-0.0269;0.1474;
5253669898878743;-0.1598;-0.0248;0.1208;
5253669908981972;-0.1374;0.0125;0.0920;
5253669919085201;-0.1065;0.0274;0.0632;
5253669929188222;-0.1001;0.0125;0.0611;
5253669939291504;-0.1342;-0.0418;0.0579;
5253669949394681;-0.1449;-0.0940;0.0505;
5253669959534420;-0.1268;-0.0610;0.0515;
5253669969637649;-0.0937;-0.0056;0.0643;
5253669979740879;-0.0533;0.0381;0.0313;
5253669989831504;-0.0724;0.0168;-0.0188;
5253669999934733;-0.0671;0.0509;-0.0252;
5253670010037962;-0.0458;0.0988;-0.0582;
5253670020109160;0.0107;0.1787;-0.0656;
5253670030212389;-0.0543;0.1233;-0.0699;
5253670040315618;-0.0767;0.0413;-0.0593;
5253670050439524;-0.0511;0.0903;-0.0656;
5253670060542754;-0.0799;-0.1430;-0.0443;
5253670070645983;-0.2407;-0.4060;0.0377;
5253670080759420;-0.1491;-0.1387;-0.0369;
5253670090862649;0.1692;0.2467;-0.1274;
5253670100965879;0.2768;0.3714;-0.1487;
5253670111053535;0.1438;0.2106;-0.1157;
5253670121156816;0.0927;0.0679;-0.0955;
5253670131259993;0.1172;0.0871;-0.0816;
5253670141378326;0.0650;-0.0024;-0.0720;
5253670151481556;0.1044;-0.0620;-0.0284;
5253670161584785;0.3791;0.2787;0.0398;
5253670171666660;0.5240;0.4555;0.0814;
5253670181769889;0.0149;-0.2666;0.1325;
5253670191873118;-0.2940;-0.4603;0.0909;
5253670202018326;-0.2599;-0.1015;0.0462;
5253670212121556;-0.0948;-0.1632;0.0174;
5253670222224785;-0.0916;-0.2218;0.0121;
5253670232297389;0.0724;-0.0045;0.0111;
5253670242400618;0.3013;0.2371;0.0664;
5253670252503847;0.1756;0.2361;0.1091;
5253670262618431;-0.0266;0.0615;0.1048;
5253670272721608;-0.0873;0.0562;0.1336;
5253670282824785;-0.0490;0.1031;0.1389;
5253670292917181;-0.1289;-0.0109;0.1080;
5253670303020358;-0.2067;-0.0280;0.0888;
5253670313123535;-0.1928;-0.0525;0.1304;
5253670323215410;-0.2344;-0.1483;0.1144;
5253670333318587;-0.1949;-0.1153;0.1176;
5253670343421764;-0.1150;0.0104;0.0941;
5253670353528535;-0.1406;-0.0461;0.0622;
5253670363631712;-0.1662;-0.0056;0.0494;
5253670373734889;-0.0873;0.0786;0.0515;
5253670383843014;-0.1161;0.0541;0.0419;
5253670393946191;-0.1172;0.0935;0.0292;
5253670404049368;-0.1044;0.1116;0.0036;
5253670414163222;-0.1129;0.0881;0.0334;
5253670424266399;-0.1118;0.0903;0.0494;
5253670434369576;-0.1214;0.0296;0.0664;
5253670444467285;-0.1896;-0.0951;0.0750;
5253670454570462;-0.2184;-0.0993;0.0270;
5253670464673639;-0.1087;-0.0290;0.0153;
5253670474766608;-0.1204;-0.0535;0.0142;
5253670484869785;-0.1257;-0.0194;-0.0156;
5253670494972962;-0.1310;-0.0397;-0.0316;
5253670505085201;-0.1023;-0.0248;-0.0316;
5253670515188379;-0.0107;0.1031;-0.0486;
5253670525291556;0.0575;0.1957;-0.0134;
5253670535395201;-0.0426;0.1787;0.0068;
5253670545498379;-0.1087;0.0636;0.0111;
5253670555601556;-0.1481;-0.0514;0.0079;
5253670565702493;-0.1406;-0.0557;-0.0028;
5253670575805670;-0.0660;0.0530;-0.0305;
5253670585908847;-0.1332;-0.0535;-0.0262;
5253670596014681;-0.1523;-0.0525;-0.0507;
5253670606117858;-0.1023;0.0029;-0.0656;
5253670616221035;-0.1502;-0.0844;-0.0731;
5253670626328118;-0.1353;-0.0897;-0.0816;
5253670636431295;-0.0810;-0.0482;-0.0923;
5253670646534472;0.0277;0.0658;-0.0838;
5253670656622181;0.1065;0.1414;-0.1019;
5253670666725358;0.0288;0.1606;-0.1040;
5253670676828535;-0.1193;0.0764;-0.0891;
5253670686954993;-0.1353;0.0477;-0.0827;
5253670697058170;-0.1129;0.0221;-0.1221;
5253670707161347;-0.0863;0.0136;-0.1306;
5253670717264264;-0.0277;0.0945;-0.1093;
5253670727367441;-0.0724;0.0083;-0.1413;
5253670737470566;-0.0969;-0.0035;-0.1541;
5253670747568639;-0.1108;-0.0748;-0.1168;
5253670757671816;-0.2589;-0.3081;-0.1541;
5253670767774993;-0.3824;-0.4848;-0.1391;
5253670777879941;-0.4144;-0.4017;-0.1338;
5253670787983118;0.4856;0.1702;-0.1903;
5253670798086295;1.0799;0.6015;-0.3414;
5253670808182389;0.1097;0.4822;-0.1945;
5253670818285566;-0.4600;0.1222;-0.1136;
5253670828388743;-0.3441;0.0796;-0.1988;
5253670838491087;0.1193;0.1968;-0.2393;
5253670848594264;0.3141;0.2021;-0.2031;
5253670858697389;0.3493;0.2616;-0.1157;
5253670868799160;0.3929;0.3149;-0.0390;
5253670878902337;0.3546;0.3053;0.0377;
5253670889005462;-0.0522;-0.6148;0.0398;
5253670899123431;-0.5080;-0.9397;-0.0944;
5253670909226660;-0.5740;-0.1750;-0.1509;
5253670919329785;-0.0192;-0.0237;-0.1732;
5253670929394785;0.4100;-0.2197;-0.2308;
5253670939498014;0.4174;0.0573;-0.1743;
5253670949601139;0.5804;0.2403;-0.1349;
5253670959718587;0.5144;0.1489;-0.1178;
5253670969821764;0.0362;0.0168;-0.0539;
5253670979924941;-0.1097;0.0200;-0.0209;
5253670990045931;0.0607;0.0296;-0.0337;
5253671000149108;0.0309;-0.1984;-0.0134;
5253671010252233;-0.0842;-0.2154;0.0164;
5253671020330931;0.0075;-0.0194;-0.0177;
5253671030434108;0.0948;-0.1601;-0.0294;
5253671040537285;0.0714;-0.1281;0.0068;
5253671050664420;0.2268;0.1457;-0.0188;
5253671060767545;0.1703;-0.0471;-0.0273;
5253671070870722;-0.0991;-0.1728;-0.0401;
5253671080977493;0.0756;0.0754;-0.0443;
5253671091080670;0.1055;0.0221;-0.0678;
5253671101183847;-0.1555;-0.3964;-0.0081;
5253671111290826;-0.3856;-0.3401;0.0249;
5253671121394004;0.1545;0.0391;-0.0465;
5253671131497181;0.6294;0.2222;-0.1573;
5253671141567910;-0.0820;0.0338;-0.0763;
5253671151671087;-0.5112;-0.1313;-0.0230;
5253671161774264;-0.0671;0.0551;-0.1029;
5253671171893431;0.1289;0.1382;-0.1956;
5253671181996608;-0.0075;0.0402;-0.1381;
5253671192099785;0.0149;-0.1654;-0.0912;
5253671202223535;0.6390;0.4363;-0.0539;
5253671212326712;0.9861;0.7740;-0.0518;
5253671222429889;-0.2951;-0.4795;0.0877;
5253671232523118;-0.4824;-0.3475;0.0771;
5253671242626295;0.5293;0.2180;-0.0230;
5253671252729472;0.3599;-0.2261;-0.0379;
5253671262834368;-0.2695;-0.4433;0.0217;
5253671272937545;0.1969;-0.1494;-0.0092;
5253671283040774;0.6944;0.2340;-0.0518;
5253671293138951;0.3035;0.3224;-0.0081;
5253671303242129;0.0309;0.1627;0.0611;
5253671313345358;0.1481;0.2702;0.0739;
5253671323440306;0.1012;0.3032;0.0867;
5253671333543483;-0.0873;0.0423;0.1133;
5253671343646712;0.0575;0.0850;0.0867;
5253671353751764;0.1534;0.1084;0.1016;
5253671363854941;-0.1246;-0.1920;0.1538;
5253671373958170;-0.0895;-0.1228;0.1570;
5253671384058170;-0.0650;-0.1313;0.1144;
5253671394161347;-0.3142;-0.3731;0.1069;
5253671404264524;-0.1960;-0.2282;0.0558;
5253671414375514;-0.0352;-0.0919;0.0334;
5253671424478691;-0.2216;-0.1196;0.0142;
5253671434581920;-0.1811;0.0349;-0.0060;
5253671444683951;-0.1949;0.0988;-0.0497;
5253671454787181;-0.3004;-0.0461;-0.0699;
5253671464890358;-0.1736;0.0423;-0.0603;
5253671475011868;-0.1023;0.0306;-0.0561;
5253671485115097;-0.1640;-0.1451;-0.0784;
5253671495218274;0.0756;0.0083;-0.1136;
5253671505304472;0.1969;0.1361;-0.1125;
5253671515407649;0.1055;0.1095;-0.0859;
5253671525510879;0.1630;0.1830;-0.0806;
5253671535605514;0.1449;0.0913;-0.0827;
5253671545708691;0.0842;-0.0099;-0.0486;
5253671555811920;0.2108;0.0178;-0.0252;
5253671565920201;0.2949;0.0242;-0.0134;
5253671576023379;0.2768;0.0541;0.0270;
5253671586126608;0.2545;0.0871;0.0760;
5253671596231556;0.1820;0.0573;0.0888;
5253671606334733;0.1140;0.0221;0.1005;
5253671616437962;0.0490;-0.0248;0.0846;
5253671626547181;-0.0341;-0.1462;0.0792;
5253671636650358;-0.1055;-0.2250;0.0856;
5253671646753587;-0.0341;-0.1803;0.0931;
5253671656848535;-0.0213;-0.1611;0.0750;
5253671666951764;-0.0426;-0.0855;0.0856;
5253671677054941;-0.0245;0.0690;0.0909;
5253671687167649;-0.0160;0.1020;0.0909;
5253671697270826;-0.0554;0.0913;0.0664;
5253671707374004;-0.0511;0.0711;0.0537;
5253671717473743;-0.0703;0.0285;0.0377;
5253671727576920;-0.0575;0.0253;0.0334;
5253671737680097;-0.0756;0.0029;0.0249;
5253671747779472;-0.0682;-0.0397;0.0387;
5253671757882701;-0.0415;-0.0237;0.0590;
5253671767985879;-0.0298;-0.0141;0.0686;
5253671778079889;-0.0405;-0.0461;0.0473;
5253671788183118;-0.0043;-0.0099;0.0089;
5253671798286295;0.0075;0.0573;-0.0220;
5253671808401139;0.0053;0.0583;-0.0550;
5253671818504316;0.0277;0.0796;-0.0806;
5253671828607545;0.0149;0.0839;-0.0923;
5253671838689472;0.0096;0.0296;-0.0965;
5253671848792701;0.0533;0.0253;-0.0848;
5253671858895879;0.1065;0.0583;-0.0603;
5253671869023483;0.1225;0.0881;-0.0337;
5253671879126608;0.0842;0.0551;-0.0230;
5253671889229837;0.0746;0.0178;-0.0667;
5253671899319733;0.0639;-0.0418;-0.0923;
5253671909422910;0.0117;-0.1079;-0.0891;
5253671919526139;0.0469;-0.0834;-0.0997;
5253671929645410;0.0692;-0.0684;-0.1146;
5253671939748587;0.0618;-0.0738;-0.1008;
5253671949851764;0.0991;-0.0620;-0.0944;
5253671959928743;0.1609;-0.0269;-0.0784;
5253671970031920;0.1566;0.0189;-0.0369;
5253671980135097;0.0969;0.0466;-0.0316;
5253671990271868;0.1108;0.0413;-0.0667;
5253672000375097;0.1735;0.0913;-0.0827;
5253672010478222;0.1884;0.1382;-0.0688;
5253672020566347;0.1948;0.1957;-0.0742;
5253672030669524;0.2140;0.2297;-0.0635;
5253672040772754;0.1672;0.1989;-0.0198;
5253672050887910;0.1810;0.1925;0.0047;
5253672060991087;0.2129;0.2085;0.0281;
5253672071094316;0.1417;0.1734;0.0632;
5253672081166712;0.0639;0.0338;0.0995;
5253672091269941;0.0383;-0.0599;0.0835;
5253672101373118;0.0352;-0.1025;0.0654;
5253672111509056;-0.0373;-0.1792;0.0696;
5253672121612285;-0.0650;-0.1718;0.0601;
5253672131715462;-0.0959;-0.1952;0.0473;
5253672141787597;-0.1438;-0.2410;0.0281;
5253672151890826;-0.0426;-0.1696;0.0100;
5253672161994004;-0.0149;-0.1025;-0.0113;
5253672172108639;-0.0618;-0.0375;-0.0220;
5253672182211868;-0.0352;0.0125;-0.0422;
5253672192315045;-0.0128;0.0146;-0.0465;
5253672202421451;0.0330;0.0274;-0.0486;
5253672212524681;0.0682;0.0434;-0.0284;
5253672222627858;0.0895;0.0679;-0.0007;
5253672232754681;0.0724;0.0445;-0.0007;
5253672242857858;0.1087;0.0455;0.0164;
5253672252961087;0.1204;0.0754;0.0409;
5253672263044941;0.0565;0.0423;0.0558;
5253672273148118;0.0394;0.0061;0.0611;
5253672283251295;0.0714;-0.0013;0.0675;
5253672293359889;0.0703;0.0668;0.0579;
5253672303463066;0.0405;0.1414;0.0174;
5253672313566243;0.0085;0.1403;-0.0039;
5253672323662910;0.0256;0.1563;-0.0081;
5253672333766087;-0.0234;0.1308;-0.0007;
5253672343869264;-0.1395;-0.0099;0.0079;
5253672353963951;-0.1268;-0.0983;0.0217;
5253672364067129;-0.0202;-0.1015;-0.0049;
5253672374170306;0.0181;-0.0791;0.0057;
5253672384277858;-0.0362;-0.0972;0.0025;
5253672394381035;-0.0181;-0.1313;0.0185;
5253672404484212;-0.0181;-0.1590;-0.0188;
5253672414595931;0.0117;-0.1409;-0.0369;
5253672424699108;0.0533;-0.0535;-0.0539;
5253672434802285;0.0852;0.0477;-0.0667;
5253672444902597;0.0224;0.0722;-0.0656;
5253672455005826;0.0490;0.1063;-0.0369;
5253672465108951;0.0842;0.1158;-0.0145;
5253672475238691;0.0959;0.1095;0.0174;
5253672485341816;0.0692;0.1222;0.0292;
5253672495444993;0.0117;0.0551;0.0483;
5253672505521972;-0.0213;-0.0365;0.0537;
5253672515625149;-0.0000;-0.0759;0.0739;
5253672525728326;-0.0117;-0.1111;0.0973;
5253672535822701;-0.0394;-0.1132;0.0888;
5253672545925879;-0.1140;-0.2080;0.0718;
5253672556029056;-0.1470;-0.2826;0.0590;
5253672566147076;-0.0479;-0.2037;0.0473;
5253672576250254;0.0170;-0.1174;0.0366;
5253672586353431;0.0138;-0.0663;0.0430;
5253672596462285;-0.0085;-0.0759;0.0377;
5253672606565462;0.0628;-0.0620;0.0590;
5253672616668639;0.1980;0.0434;0.0569;
5253672626768014;0.2332;0.1382;0.0877;
5253672636871191;0.1873;0.1819;0.1250;
5253672646974368;0.2204;0.2297;0.1644;
5253672657066868;0.1842;0.2318;0.2166;
5253672667170045;0.1161;0.1638;0.2593;
5253672677273222;0.0565;0.0711;0.3039;
5253672687374889;0.0117;0.0115;0.3188;
5253672697478066;-0.0692;-0.0312;0.3284;
5253672707581243;-0.2099;-0.1345;0.3294;
5253672717698118;-0.2791;-0.1995;0.3124;
5253672727801295;-0.3121;-0.2069;0.2667;
5253672737904472;-0.3952;-0.2442;0.2369;
5253672747994472;-0.4240;-0.2517;0.1858;
5253672758097701;-0.4101;-0.1909;0.1048;
5253672768200826;-0.4419;-0.1632;0.0409;
5253672778301035;-0.4335;-0.1483;-0.0007;
5253672788404212;-0.3899;-0.1185;-0.0284;
5253672798507389;-0.3579;-0.1142;-0.0699;
5253672808617910;-0.2940;-0.1515;-0.0720;
5253672818721087;-0.2056;-0.1803;-0.0550;
5253672828824316;-0.0873;-0.1398;-0.0529;
5253672838933743;0.0149;-0.0471;-0.0614;
5253672849036920;0.0756;0.0317;-0.0443;
5253672859140097;0.1172;0.0391;-0.0305;
5253672869205879;0.2161;0.0690;-0.0284;
5253672879309056;0.2885;0.1329;-0.0252;
5253672889412285;0.3024;0.1169;-0.0103;
5253672899588326;0.3429;0.1276;-0.0071;
5253672909691504;0.3535;0.1350;0.0015;
5253672919794681;0.3546;0.1276;0.0462;
5253672929840670;0.3631;0.1510;0.0984;
5253672939943847;0.3450;0.1830;0.1485;
5253672950047024;0.2790;0.1414;0.1847;
5253672960180201;0.2363;0.0722;0.1889;
5253672970283379;0.1609;0.0189;0.2230;
5253672980386556;0.0991;0.0136;0.2241;
5253672990479629;0.0597;0.0818;0.2113;
5253673000582754;-0.0341;0.0722;0.1996;
5253673010685931;-0.1140;0.0242;0.1687;
5253673020781764;-0.1811;0.0381;0.1549;
5253673030884941;-0.2695;0.0455;0.1186;
5253673040988118;-0.3068;0.0413;0.1080;
5253673051107285;-0.3419;0.0189;0.1016;
5253673061210462;-0.3515;-0.0365;0.0888;
5253673071313639;-0.3292;-0.0333;0.0579;
5253673081401868;-0.3068;0.0242;0.0217;
5253673091505045;-0.3132;-0.0258;0.0228;
5253673101608222;-0.2908;-0.0770;0.0164;
5253673111697597;-0.2258;-0.0056;-0.0209;
5253673121800774;-0.2429;-0.0024;-0.0497;
5253673131903951;-0.2429;-0.0780;-0.0784;
5253673142017024;-0.1949;-0.0961;-0.0997;
5253673152120201;-0.1278;-0.0589;-0.1242;
5253673162223379;-0.0660;-0.0290;-0.1200;
5253673172330358;-0.0149;-0.0248;-0.0976;
5253673182433535;0.0852;0.0221;-0.0912;
5253673192536764;0.1703;0.0764;-0.0752;
5253673202650410;0.2523;0.0892;-0.0752;
5253673212753587;0.3237;0.1201;-0.0305;
5253673222856816;0.3684;0.1691;0.0004;
5253673232947285;0.3748;0.1989;0.0174;
5253673243050462;0.2715;0.1627;0.0483;
5253673253153639;0.0959;0.0093;0.0877;
5253673263263535;-0.0522;-0.1877;0.1144;
5253673273366712;-0.1289;-0.3134;0.1154;
5253673283469889;-0.1939;-0.3433;0.1165;
5253673293584004;-0.2567;-0.3454;0.1261;
5253673303687181;-0.2940;-0.3230;0.1101;
5253673313790358;-0.2727;-0.2399;0.1037;
5253673323888014;-0.2908;-0.1707;0.0760;
5253673333991191;-0.3047;-0.1324;0.0377;
5253673344094368;-0.3079;-0.0663;0.0036;
5253673354189576;-0.3324;-0.0056;-0.0156;
5253673364292754;-0.3345;0.0317;-0.0742;
5253673374395931;-0.2727;0.0818;-0.1083;
5253673384494993;-0.2035;0.1318;-0.1019;
5253673394598222;-0.1257;0.1723;-0.0923;
5253673404701347;-0.0735;0.2000;-0.0752;
5253673414807024;-0.0479;0.2032;-0.0561;
5253673424910201;-0.0639;0.1680;-0.0145;
5253673435013379;-0.0916;0.0967;0.0015;
5253673445126347;-0.0873;0.0370;0.0260;
5253673455229576;-0.0852;0.0711;0.0366;
5253673465332754;-0.0948;0.1297;0.0153;
5253673475414368;-0.1577;0.0722;0.0185;
5253673485517597;-0.2024;-0.0237;0.0068;
5253673495620774;-0.2546;-0.1004;-0.0166;
5253673505740618;-0.3462;-0.2559;-0.0337;
5253673515843795;-0.3718;-0.3550;-0.0529;
5253673525946972;-0.3600;-0.3145;-0.0976;
5253673536046608;-0.3632;-0.2783;-0.1296;
5253673546149785;-0.3515;-0.2367;-0.1615;
5253673556252962;-0.2567;-0.1079;-0.1945;
5253673566363118;-0.1598;0.0136;-0.2084;
5253673576466295;-0.0820;0.0786;-0.2020;
5253673586569472;0.0107;0.1521;-0.1892;
5253673596670879;0.1023;0.2670;-0.1796;
5253673606774056;0.1555;0.3192;-0.2180;
5253673616877233;0.1724;0.2350;-0.1988;
5253673626978639;0.1788;0.1340;-0.1381;
5253673637081816;0.2236;0.1851;-0.1200;
5253673647184993;0.2811;0.2840;-0.1455;
5253673657286347;0.3109;0.3863;-0.1232;
5253673667389524;0.3439;0.5301;-0.0688;
5253673677492701;0.3439;0.6004;-0.0252;
5253673687592389;0.2534;0.4225;0.0047;
5253673697695618;0.1619;0.1350;0.0302;
5253673707798795;0.1246;-0.0525;0.0558;
5253673717976191;0.1055;-0.1377;0.0707;
5253673728079316;0.0714;-0.2293;0.0814;
5253673738182493;0.0458;-0.3465;0.0920;
5253673748215826;0.0490;-0.3624;0.1027;
5253673758319056;0.0245;-0.2815;0.1037;
5253673768422233;-0.0522;-0.2282;0.0984;
5253673778519993;-0.0916;-0.2229;0.0664;
5253673788623222;-0.0863;-0.1206;0.0483;
5253673798726347;-0.0948;0.0008;0.0057;
5253673808825358;-0.1747;-0.0866;-0.0379;
5253673818928535;-0.2024;-0.1792;-0.0720;
5253673829031712;-0.1736;-0.1558;-0.0848;
5253673839180097;-0.1577;-0.1430;-0.0912;
5253673849283326;-0.1001;-0.2112;-0.1221;
5253673859386504;-0.0437;-0.2378;-0.1221;
5253673869448118;0.0192;-0.1249;-0.0933;
5253673879551347;0.0511;0.0146;-0.0411;
5253673889654472;0.0554;0.0903;-0.0156;
5253673899798743;0.1001;0.1499;0.0100;
5253673909901920;0.1087;0.2648;0.0345;
5253673920005097;0.1076;0.3106;0.0292;
5253673930063118;0.1108;0.2915;0.0377;
5253673940166295;0.1214;0.2244;0.0590;
5253673950269472;0.0607;0.0562;0.0643;
5253673960392181;0.0373;-0.0929;0.0494;
5253673970495358;0.0138;-0.1537;0.0505;
5253673980598535;-0.0288;-0.2016;0.0494;
5253673990676347;-0.0021;-0.1675;0.0558;
5253674000779576;0.0650;-0.0684;0.0664;
5253674010882701;0.1236;0.0083;0.0760;
5253674021003535;0.1513;0.0945;0.0877;
5253674031106712;0.2033;0.1361;0.0835;
5253674041209941;0.2395;0.1041;0.0995;
5253674051294056;0.2715;0.1158;0.1208;
5253674061397233;0.2438;0.1265;0.1442;
5253674071500410;0.1619;0.0647;0.1314;
5253674081611399;0.0788;0.0125;0.1186;
5253674091714576;-0.0426;-0.0130;0.0995;
5253674101817754;-0.1342;-0.0397;0.0441;
5253674111923847;-0.2642;-0.0620;0.0356;
5253674122027076;-0.3590;-0.0642;0.0398;
5253674132130201;-0.3856;-0.0482;0.0079;
5253674142245097;-0.3430;-0.0397;-0.0316;
5253674152348274;-0.3430;-0.0439;-0.0646;
5253674162451451;-0.2844;-0.0088;-0.0784;
5253674172550410;-0.1885;0.0178;-0.0869;
5253674182653587;-0.1470;-0.0439;-0.1083;
5253674192756764;-0.0842;-0.0791;-0.1285;
5253674202877181;0.0277;-0.0546;-0.1264;
5253674212980358;0.1055;-0.0929;-0.1253;
5253674223083587;0.1374;-0.1632;-0.1477;
5253674233161139;0.2608;-0.1824;-0.1711;
5253674243264316;0.4047;-0.1814;-0.1562;
5253674253367493;0.4622;-0.1494;-0.1434;
5253674263428639;0.5314;-0.1121;-0.1434;
5253674273531764;0.6475;-0.0961;-0.1605;
5253674283634941;0.7061;-0.0663;-0.1370;
5253674293809056;0.7859;-0.0269;-0.1402;
5253674303912233;0.8615;0.0029;-0.1370;
5253674314015410;0.8615;0.0221;-0.1093;
5253674324089785;0.8860;0.0221;-0.0784;
5253674334192962;0.8786;-0.0077;-0.0614;
5253674344296139;0.8210;-0.0418;-0.0348;
5253674354411764;0.7711;-0.0312;-0.0348;
5253674364514941;0.6848;-0.0141;0.0015;
5253674374618118;0.5879;-0.0290;0.0206;
5253674384711191;0.5048;-0.0407;0.0537;
5253674394814368;0.3993;-0.0461;0.0654;
5253674404917545;0.2885;-0.0908;0.0441;
5253674415033014;0.2182;-0.1217;0.0835;
5253674425136191;0.1714;-0.0993;0.0814;
5253674435239368;0.1555;-0.0716;0.0707;
5253674445342701;0.1651;-0.0439;0.0547;
5253674455445931;0.1502;-0.0354;0.0430;
5253674465549056;0.1937;-0.0003;0.0718;
5253674475640514;0.2140;0.0040;0.0632;
5253674485743691;0.2545;0.0264;0.0643;
5253674495846868;0.2971;0.0381;0.0664;
5253674505957181;0.2864;0.0285;0.0696;
5253674516060358;0.2832;0.0221;0.0707;
5253674526163535;0.2779;0.0296;0.0419;
5253674536260201;0.2640;0.0413;0.0441;
5253674546363379;0.2332;0.0146;0.0760;
5253674556466556;0.1703;0.0115;0.0824;
5253674566584368;0.1577;-0.0141;0.0707;
5253674576687545;0.0927;-0.0397;0.0569;
5253674586790722;0.1310;-0.0099;0.0217;
5253674596898951;0.1204;0.0093;0.0398;
5253674607002129;0.1395;0.0072;0.0430;
5253674617105306;0.1863;0.0487;0.0473;
5253674627205618;0.2321;0.1148;0.0387;
5253674637308795;0.2385;0.1308;0.0483;
5253674647411972;0.2555;0.1212;0.0441;
5253674657496139;0.2875;0.1190;0.0707;
5253674667599368;0.3312;0.1361;0.0941;
5253674677702545;0.3237;0.1371;0.1027;
5253674687813639;0.3450;0.1158;0.1027;
5253674697916868;0.2779;0.0956;0.1154;
5253674708019993;0.2427;0.0988;0.1421;
5253674718096504;0.1937;0.0956;0.1218;
5253674728199733;0.1714;0.0839;0.1186;
5253674738302858;0.1044;0.0775;0.1027;
5253674748418847;0.1044;0.0913;0.1059;
5253674758522076;0.0415;0.1222;0.0856;
5253674768625201;0.0479;0.1308;0.0814;
5253674778734993;0.0128;0.1329;0.0430;
5253674788838170;0.0266;0.1531;0.0515;
5253674798941399;-0.0522;0.1371;0.0419;
5253674809072129;-0.0671;0.0988;0.0313;
5253674819175306;-0.1374;0.0786;0.0121;
5253674829278431;-0.1385;0.0402;-0.0081;
5253674839355201;-0.1960;-0.0152;-0.0156;
5253674849458431;-0.1598;-0.0226;-0.0337;
5253674859561608;-0.1459;0.0040;-0.0646;
5253674869656660;-0.1001;-0.0067;-0.0806;
5253674879759837;-0.0415;-0.0237;-0.0699;
5253674889863014;0.0043;-0.0301;-0.0827;
5253674899996816;0.1108;-0.0258;-0.0923;
5253674910099993;0.1491;-0.0429;-0.1146;
5253674920203170;0.2097;-0.0929;-0.0965;
5253674930267806;0.2651;-0.1057;-0.0933;
5253674940370983;0.3397;-0.1174;-0.0901;
5253674950474160;0.4142;-0.1047;-0.0795;
5253674960603431;0.4302;-0.1153;-0.0784;
5253674970706608;0.4803;-0.1728;-0.0646;
5253674980809785;0.5240;-0.1611;-0.0699;
5253674990898535;0.5847;-0.1206;-0.0454;
5253675001001764;0.6592;-0.1079;-0.0262;
5253675011104941;0.7093;-0.1121;-0.0028;
5253675021232389;0.7827;-0.1270;0.0441;
5253675031335566;0.8338;-0.0897;0.0558;
5253675041438743;0.8541;-0.0642;0.0771;
5253675051560149;0.8903;-0.0674;0.1165;
5253675061663274;0.8828;-0.0663;0.1538;
5253675071766451;0.8061;-0.0908;0.2007;
5253675081824316;0.7562;-0.0887;0.2252;
5253675091927493;0.6539;-0.0589;0.2273;
5253675102030670;0.5346;-0.0780;0.2358;
5253675112138743;0.4515;-0.0844;0.2582;
5253675122241920;0.3631;-0.0322;0.2688;
5253675132345097;0.2587;-0.0056;0.2975;
5253675142449681;0.1948;0.0072;0.2836;
5253675152552858;0.1577;0.0274;0.2667;
5253675162656035;0.1108;0.0232;0.2996;
5253675172767701;0.0618;-0.0045;0.3220;
5253675182870879;0.0447;-0.0130;0.2932;
5253675192974056;0.0277;-0.0077;0.2667;
5253675203060462;-0.0085;-0.0333;0.2497;
5253675213163639;-0.0288;-0.0429;0.2284;
5253675223266816;-0.0810;0.0232;0.2134;
5253675233391868;-0.1150;0.0072;0.2060;
5253675243495045;-0.1076;-0.0344;0.1804;
5253675253598222;-0.0479;0.0487;0.1250;
5253675263683847;-0.0383;0.1382;0.1048;
5253675273787129;-0.0234;0.0945;0.0931;
5253675283890410;0.0628;-0.0130;0.0739;
5253675294006035;0.1513;-0.0450;0.0803;
5253675304109368;0.2012;-0.0184;0.0973;
5253675314212597;0.2523;-0.0237;0.0814;
5253675324306347;0.3567;-0.0322;0.0526;
5253675334409629;0.4600;0.0104;0.0537;
5253675344512910;0.5250;0.0264;0.0920;
5253675354616556;0.6028;0.0445;0.1218;
5253675364719837;0.6539;0.0796;0.1122;
5253675374823118;0.6955;0.0935;0.1122;
5253675384920201;0.7146;0.1095;0.1463;
5253675395023483;0.7242;0.1095;0.1794;
5253675405126764;0.7136;0.1116;0.1858;
5253675415235306;0.6635;0.1063;0.1698;
5253675425338587;0.5879;0.0903;0.1740;
5253675435441868;0.5027;0.0722;0.1911;
5253675445527441;0.4728;0.0743;0.1815;
5253675455630722;0.4238;0.0850;0.1762;
5253675465734004;0.3738;0.1286;0.1644;
5253675475856191;0.3375;0.1851;0.1485;
5253675485959420;0.2939;0.1893;0.1272;
5253675496062701;0.2736;0.1659;0.1176;
5253675506153639;0.2704;0.1553;0.1218;
5253675516256920;0.3003;0.1084;0.1208;
5253675526360201;0.2012;0.1169;0.1378;
5253675536484056;0.2182;0.0786;0.1112;
5253675546587337;0.1927;0.0306;0.0952;
5253675556690618;0.1577;0.0423;0.0750;
5253675566790722;0.1799;0.0658;0.0952;
5253675576894004;0.2172;0.0871;0.1112;
5253675586997285;0.2353;0.0913;0.0835;
5253675597098639;0.2172;0.0850;0.0270;
5253675607201972;0.2001;0.0871;0.0132;
5253675617305201;0.1842;0.0828;0.0377;
5253675627409160;0.2076;0.0732;0.0569;
5253675637512441;0.2150;0.0391;0.0494;
5253675647615722;0.1724;0.0104;0.0228;
5253675657712858;0.1438;0.0178;0.0270;
5253675667816139;0.1342;0.0242;0.0814;
5253675677919420;0.1182;0.0328;0.1112;
5253675688020410;0.1182;0.0264;0.0995;
5253675698123691;0.1065;0.0072;0.0718;
5253675708226972;0.0533;0.0317;0.0739;
5253675718333326;0.0469;0.0455;0.1122;
5253675728436608;0.1012;0.0274;0.1538;
5253675738539837;0.0980;0.0360;0.1463;
5253675748651295;0.0873;0.0487;0.1144;
5253675758754576;0.1193;0.0317;0.1059;
5253675768857858;0.1236;0.0093;0.1186;
5253675778967858;0.1012;0.0136;0.1293;
5253675789071087;0.0032;0.0583;0.1091;
5253675799174368;-0.1779;0.0754;0.0718;
5253675809266608;-0.3270;0.0445;0.0451;
5253675819369889;-0.4643;0.0296;0.0260;
5253675829473170;-0.5889;0.0434;-0.0081;
5253675839568014;-0.6209;0.0115;-0.0230;
5253675849671243;-0.6347;-0.0344;-0.0316;
5253675859774524;-0.6859;-0.0312;-0.0433;
5253675869878014;-0.7817;-0.0035;-0.0678;
5253675879981295;-0.7999;-0.0035;-0.0806;
5253675890084576;-0.7551;-0.0120;-0.0955;
5253675900209472;-0.7562;0.0040;-0.1029;
5253675910312754;-0.7498;0.0157;-0.1125;
5253675920416035;-0.6944;0.0008;-0.1178;
5253675930511087;-0.6518;-0.0035;-0.1242;
5253675940614368;-0.6145;0.0104;-0.1274;
5253675950717597;-0.5463;-0.0056;-0.1338;
5253675960816868;-0.5325;-0.0226;-0.1423;
5253675970920149;-0.5314;-0.0088;-0.1487;
5253675981023379;-0.4282;0.0051;-0.1466;
5253675991133535;-0.3409;-0.0056;-0.1391;
5253676001236816;-0.3302;0.0061;-0.1370;
5253676011340097;-0.3664;0.0157;-0.1434;
5253676021446556;-0.3782;-0.0045;-0.1477;
5253676031549837;-0.3270;-0.0088;-0.1541;
5253676041653118;-0.2802;0.0029;-0.1551;
5253676051749576;-0.2450;-0.0035;-0.1519;
5253676061852858;-0.1949;-0.0088;-0.1498;
5253676071956139;-0.1470;-0.0099;-0.1541;
5253676082046035;-0.1023;-0.0130;-0.1583;
5253676092149316;-0.0490;-0.0120;-0.1562;
5253676102252597;-0.0138;-0.0152;-0.1583;
5253676112358639;-0.0383;-0.0162;-0.1668;
5253676122461920;-0.0959;-0.0067;-0.1892;
5253676132565201;-0.1523;-0.0003;-0.2052;
5253676142680358;-0.1672;0.0051;-0.2095;
5253676152783639;-0.1843;0.0040;-0.2105;
5253676162886920;-0.2514;-0.0077;-0.2212;
5253676172981347;-0.3249;-0.0130;-0.2414;
5253676183084629;-0.4144;-0.0194;-0.2585;
5253676193187910;-0.4877;-0.0152;-0.2691;
5253676203270931;-0.5112;0.0083;-0.2744;
5253676213374212;-0.4952;0.0349;-0.2766;
5253676223477493;-0.5016;0.0402;-0.2819;
5253676233612024;-0.5346;0.0381;-0.2915;
5253676243715306;-0.5549;0.0360;-0.3011;
5253676253818587;-0.5612;0.0200;-0.3021;
5253676263909889;-0.5602;0.0061;-0.3011;
5253676274013170;-0.5165;0.0093;-0.2968;
5253676284116451;-0.4357;0.0221;-0.2893;
5253676294220826;-0.3547;0.0328;-0.2798;
5253676304324108;-0.3025;0.0391;-0.2712;
5253676314427389;-0.2770;0.0370;-0.2659;
5253676324525097;-0.2610;0.0274;-0.2627;
5253676334628379;-0.2407;0.0146;-0.2563;
5253676344731660;-0.2056;0.0051;-0.2457;
5253676354831035;-0.1534;0.0083;-0.2308;
5253676364934316;-0.0948;0.0157;-0.2169;
5253676375037597;-0.0394;0.0178;-0.2073;
5253676385149264;0.0053;0.0232;-0.2031;
5253676395252545;0.0245;0.0210;-0.1977;
5253676405355826;0.0170;0.0125;-0.1892;
5253676415463535;0.0021;0.0104;-0.1881;
5253676425566816;-0.0202;0.0093;-0.1913;
5253676435670097;-0.0522;0.0104;-0.1988;
5253676445774108;-0.0778;0.0168;-0.2031;
5253676455877389;-0.0905;0.0221;-0.2041;
5253676465980722;-0.0905;0.0168;-0.2116;
5253676476073691;-0.0607;0.0168;-0.2073;
5253676486176920;-0.0373;0.0157;-0.1956;
5253676496280201;-0.0107;0.0115;-0.2009;
5253676506381451;0.0160;0.0072;-0.1988;
5253676516484733;0.0437;0.0093;-0.1977;
5253676526588014;0.0586;0.0136;-0.1977;
5253676536691608;0.0490;0.0115;-0.1988;
5253676546794889;0.0192;0.0072;-0.2063;
5253676556898170;-0.0117;0.0115;-0.2126;
5253676566999368;-0.0352;0.0125;-0.2222;
5253676577102649;-0.0490;0.0146;-0.2265;
5253676587205931;-0.0522;0.0210;-0.2308;
5253676597304108;-0.0565;0.0264;-0.2361;
5253676607407389;-0.0778;0.0242;-0.2403;
5253676617510670;-0.1033;0.0242;-0.2435;
5253676627629264;-0.1204;0.0253;-0.2467;
5253676637732545;-0.1310;0.0210;-0.2478;
5253676647835826;-0.1427;0.0221;-0.2467;
5253676657931972;-0.1481;0.0274;-0.2467;
5253676668035254;-0.1555;0.0242;-0.2467;
5253676678138587;-0.1704;0.0232;-0.2435;
5253676688236451;-0.1779;0.0253;-0.2350;
5253676698339733;-0.1715;0.0264;-0.2276;
5253676708443014;-0.1534;0.0274;-0.2190;
5253676718545306;-0.1353;0.0285;-0.2063;
5253676728648587;-0.1246;0.0264;-0.1945;
5253676738751816;-0.1236;0.0232;-0.1860;
5253676748846087;-0.1268;0.0189;-0.1754;
5253676758949368;-0.1374;0.0146;-0.1647;
5253676769052649;-0.1449;0.0178;-0.1551;
5253676779176504;-0.1470;0.0178;-0.1455;
5253676789279785;-0.1427;0.0189;-0.1381;
5253676799383014;-0.1278;0.0189;-0.1296;
5253676809482806;-0.1055;0.0178;-0.1200;
5253676819586087;-0.0810;0.0168;-0.1083;
5253676829689316;-0.0501;0.0146;-0.0955;
5253676839775514;-0.0149;0.0125;-0.0806;
5253676849878795;0.0128;0.0093;-0.0688;
5253676859982076;0.0277;0.0072;-0.0593;
5253676870080254;0.0224;0.0019;-0.0561;
5253676880183535;0.0181;-0.0003;-0.0539;
5253676890286816;0.0181;0.0019;-0.0486;
5253676900454785;0.0170;0.0040;-0.0454;
5253676910558066;0.0160;0.0051;-0.0454;
5253676920661347;0.0170;0.0051;-0.0465;
5253676930703743;0.0170;0.0040;-0.0486;
5253676940807024;0.0149;0.0029;-0.0497;
5253676950910306;0.0160;0.0029;-0.0486;
5253676961007701;0.0170;0.0029;-0.0486;
5253676971110983;0.0138;0.0072;-0.0497;
5253676981214264;0.0149;0.0093;-0.0518;
5253676991319889;0.0170;0.0104;-0.0561;
5253677001423170;0.0192;0.0083;-0.0582;
5253677011526451;0.0224;0.0072;-0.0571;
5253677021643222;0.0234;0.0051;-0.0571;
5253677031746504;0.0181;0.0019;-0.0603;
5253677041849785;0.0117;0.0040;-0.0582;
5253677051946868;0.0085;0.0061;-0.0571;
5253677062050149;0.0085;0.0083;-0.0571;
5253677072153431;0.0128;0.0115;-0.0550;
5253677082268014;0.0138;0.0093;-0.0539;
5253677092371295;0.0117;0.0051;-0.0518;
5253677102474576;0.0107;0.0019;-0.0443;
5253677112556868;0.0107;0.0008;-0.0390;
5253677122660201;0.0096;0.0019;-0.0358;
5253677132763431;0.0096;0.0008;-0.0284;
