Sensor: bmi160 Gyroscope Non-wakeup
Vendor: BOSCH
TimestampGyro [ns]; GyroX [rad/s]; GyroY [rad/s]; GyroZ [rad/s]
2497908448486;-0.2370;-0.0152;0.0526;
2497918598850;-0.2370;-0.0237;0.0601;
2497928704996;-0.2285;-0.0333;0.0483;
2497938809215;-0.2264;-0.0024;0.0494;
2497948900361;-0.2423;0.0253;0.0442;
2497959015777;-0.2455;0.0125;0.0314;
2497969122079;-0.2328;-0.0056;0.0218;
2497979225413;-0.2200;0.0083;0.0346;
2497989329006;-0.2221;0.0433;0.0462;
2497999441558;-0.2498;0.0443;0.0304;
2498009564892;-0.2519;0.0200;0.0080;
2498019651298;-0.2391;0.0189;0.0080;
2498029765413;-0.2338;0.0571;0.0229;
2498039862444;-0.2445;0.0720;0.0197;
2498049997288;-0.2498;0.0550;-0.0027;
2498060078017;-0.2562;0.0296;-0.0176;
2498070193381;-0.2423;-0.0077;-0.0091;
2498080305100;-0.2189;-0.0130;0.0027;
2498090409788;-0.2349;0.0125;0.0069;
2498100512861;-0.2487;0.0296;-0.0016;
2498110625152;-0.2477;0.0401;-0.0080;
2498120732444;-0.2445;0.0593;-0.0080;
2498130841090;-0.2466;0.0816;-0.0091;
2498140946298;-0.2658;0.0656;-0.0229;
2498151055986;-0.2775;-0.0088;-0.0389;
2498161162392;-0.2296;-0.0365;-0.0250;
2498171274944;-0.2274;0.0274;-0.0005;
2498181375569;-0.2700;0.0401;-0.0027;
2498191485881;-0.2562;0.0093;-0.0154;
2498201562236;-0.2423;0.0379;-0.0101;
2498211709996;-0.2860;0.0646;-0.0048;
2498221818121;-0.2807;0.0316;-0.0069;
2498231925933;-0.2626;-0.0077;-0.0016;
2498242026506;-0.2221;0.0029;0.0005;
2498252137808;-0.2498;0.0253;-0.0123;
2498262242496;-0.2604;0.0253;-0.0218;
2498272349423;-0.2541;0.0200;-0.0197;
2498282463329;-0.2519;0.0379;-0.0112;
2498292565048;-0.2700;0.0497;-0.0005;
2498302677496;-0.2711;0.0390;-0.0005;
2498312787496;-0.2636;0.0232;0.0016;
2498322906402;-0.2615;-0.0003;0.0069;
2498332996923;-0.2519;-0.0194;0.0112;
2498343103173;-0.2519;0.0008;0.0229;
2498353209996;-0.2775;0.0242;0.0346;
2498363316298;-0.2923;0.0072;0.0431;
2498373427444;-0.2679;-0.0056;0.0537;
2498383535777;-0.2754;0.0358;0.0632;
2498393662183;-0.3029;0.0486;0.0515;
2498403749475;-0.2891;0.0326;0.0421;
2498413860152;-0.2871;0.0411;0.0537;
2498423968746;-0.2901;0.0422;0.0664;
2498434056975;-0.2987;0.0242;0.0654;
2498444182027;-0.2987;0.0072;0.0611;
2498454305829;-0.2955;0.0040;0.0579;
2498464406038;-0.2933;-0.0013;0.0590;
2498474533121;-0.2860;-0.0067;0.0601;
2498484623121;-0.2764;0.0040;0.0654;
2498494726558;-0.2923;0.0348;0.0686;
2498504838538;-0.3083;0.0125;0.0643;
2498514959267;-0.3040;-0.0418;0.0431;
2498525060204;-0.2955;-0.0333;0.0453;
2498535176663;-0.2700;0.0337;0.0632;
2498545263538;-0.3029;0.0561;0.0803;
2498555394527;-0.3072;0.0678;0.0686;
2498565474006;-0.3168;0.0891;0.0590;
2498575588798;-0.3509;0.0774;0.0389;
2498585703642;-0.3668;0.0104;0.0336;
2498595805413;-0.3285;-0.0301;0.0336;
2498605914475;-0.3200;-0.0226;0.0431;
2498616020725;-0.3519;0.0104;0.0325;
2498626139788;-0.3487;0.0285;0.0250;
2498636248121;-0.3445;-0.0141;0.0112;
2498646352652;-0.3168;-0.0152;0.0304;
2498656447600;-0.3136;0.0348;0.0558;
2498666566871;-0.3338;0.0731;0.0483;
2498676676558;-0.3466;0.1040;0.0229;
2498686782496;-0.3743;0.0955;0.0091;
2498696888225;-0.3679;0.0593;0.0176;
2498707005725;-0.3573;0.0507;0.0229;
2498717095048;-0.3807;0.0411;0.0154;
2498727215829;-0.3679;0.0189;0.0091;
2498737308329;-0.3264;0.0210;0.0091;
2498747413746;-0.2210;0.0688;0.0208;
2498757521975;-0.1497;0.1061;0.0336;
2498767664215;-0.1443;0.1317;0.0272;
2498777743069;-0.1465;0.1818;0.0250;
2498787840048;-0.1603;0.2510;0.0197;
2498797962027;-0.4414;0.1626;-0.0165;
2498808075413;-0.5043;0.0486;-0.0474;
2498818186767;-0.3881;0.0465;-0.0208;
2498828276871;-0.3839;0.0667;-0.0048;
2498838379944;-0.4105;0.0901;-0.0431;
2498848488329;-0.4073;0.1200;-0.0634;
2498858593173;-0.4126;0.1232;-0.0740;
2498868744058;-0.4094;0.1115;-0.0772;
2498878828225;-0.4084;0.0944;-0.0943;
2498888919319;-0.4148;0.0933;-0.1230;
2498899026715;-0.4180;0.1264;-0.1465;
2498909147808;-0.4201;0.1754;-0.1561;
2498919249215;-0.4094;0.2126;-0.1678;
2498929359631;-0.4169;0.1977;-0.1763;
2498939468694;-0.4148;0.1775;-0.1923;
2498949573381;-0.4180;0.1445;-0.1987;
2498959672079;-0.4052;0.1541;-0.2019;
2498969779006;-0.4020;0.1732;-0.2093;
2498979885933;-0.4009;0.1466;-0.2328;
2498990015152;-0.3764;0.1360;-0.2509;
2499000122079;-0.3402;0.1967;-0.2455;
2499010229006;-0.3338;0.2350;-0.2509;
2499020336923;-0.4063;0.1583;-0.2732;
2499030443850;-0.3722;0.0869;-0.2967;
2499040550777;-0.2976;0.1029;-0.2913;
2499050659944;-0.0836;0.2095;-0.2807;
2499060766871;-0.0229;0.2137;-0.2913;
2499070873798;-0.1230;0.1242;-0.3233;
2499080990986;-0.0431;0.1253;-0.3116;
2499091097913;0.2146;0.2041;-0.2732;
2499101204840;0.3052;0.1839;-0.2722;
2499111300569;0.2839;0.1157;-0.2679;
2499121407496;0.3455;0.0667;-0.2583;
2499131514423;0.5362;0.0997;-0.2317;
2499141636611;0.6374;0.1519;-0.2114;
2499151743538;0.5128;0.1040;-0.2178;
2499161850465;0.4542;0.0646;-0.2072;
2499171945777;0.5170;0.0774;-0.1933;
2499182052704;0.5330;0.0497;-0.1827;
2499192159631;0.5543;0.0401;-0.1784;
2499202287548;0.5330;0.0646;-0.1752;
2499212394475;0.4308;0.0731;-0.1944;
2499222501402;0.3594;0.0550;-0.2157;
2499232599579;0.3169;0.0603;-0.2072;
2499242706506;0.2423;0.0827;-0.1784;
2499252813433;0.1262;0.0965;-0.1859;
2499262928173;0.0165;0.0859;-0.2232;
2499273035100;-0.0250;0.0593;-0.2413;
2499283142027;-0.0293;0.0454;-0.2413;
2499293254111;-0.0527;0.0189;-0.2338;
2499303361038;-0.0623;0.0326;-0.2381;
2499313467965;-0.0762;0.0582;-0.2636;
2499323577861;-0.1358;0.0296;-0.2956;
2499333684788;-0.1603;0.0232;-0.2977;
2499343791715;-0.1081;0.0752;-0.2786;
2499353895308;-0.1188;0.1178;-0.2807;
2499364002236;-0.1443;0.1083;-0.2999;
2499374109163;-0.1273;0.1051;-0.3180;
2499384211611;-0.0911;0.1200;-0.3020;
2499394318538;-0.0346;0.1264;-0.2754;
2499404425465;-0.0005;0.1019;-0.2722;
2499414540986;0.0794;0.0763;-0.2786;
2499424647913;0.1923;0.0869;-0.2818;
2499434754840;0.2359;0.1072;-0.2658;
2499444869215;0.1635;0.0529;-0.2445;
2499454976142;0.0399;-0.0258;-0.2509;
2499465083069;0.0186;-0.0407;-0.2615;
2499475215986;0.0975;0.0029;-0.2636;
2499485322913;0.1624;0.0390;-0.2391;
2499495429840;0.1997;0.0475;-0.2168;
2499505507131;0.2498;0.0848;-0.2008;
2499515614058;0.2423;0.0976;-0.2253;
2499525720986;0.1166;0.0146;-0.2509;
2499535854475;-0.0154;-0.0482;-0.2477;
2499545961402;-0.0016;-0.0067;-0.2200;
2499556068329;0.1103;0.0720;-0.1933;
2499566161194;0.1145;0.0763;-0.2061;
2499576249215;-0.0431;0.0136;-0.2370;
2499586356090;-0.1422;-0.0173;-0.2562;
2499596463017;-0.0591;0.0083;-0.2413;
2499606569944;-0.0559;-0.0290;-0.2093;
2499616710673;0.1113;-0.0045;-0.2061;
2499626817600;0.3200;0.0933;-0.2019;
2499636924527;0.2477;0.0614;-0.2083;
2499647010777;0.1603;0.0422;-0.1987;
2499657117704;0.1699;0.0891;-0.1720;
2499667224631;0.0559;0.0369;-0.1582;
2499677343381;-0.0911;-0.0546;-0.1763;
2499687450308;-0.0059;-0.0109;-0.1944;
2499697557236;0.0836;0.0550;-0.1997;
2499707682965;-0.0229;0.0369;-0.1784;
2499717789892;-0.0783;0.0157;-0.1379;
2499727896819;-0.0698;0.0603;-0.1294;
2499737995361;-0.1060;0.0443;-0.1443;
2499748102288;-0.0836;-0.0397;-0.1539;
2499758209215;-0.0336;-0.0333;-0.1507;
2499768308381;0.0304;0.0550;-0.1209;
2499778415308;-0.0517;0.0433;-0.0783;
2499788522236;-0.0080;0.0210;-0.0634;
2499798644736;0.0900;0.0337;-0.0613;
2499808751663;0.1124;0.0221;-0.0527;
2499818858590;0.1646;0.0210;-0.0346;
2499828987965;0.1955;0.0348;-0.0123;
2499839094892;0.1688;-0.0035;0.0176;
2499849201819;0.1763;-0.0301;0.0421;
2499859302548;0.1891;-0.0333;0.0442;
2499869409475;0.1720;-0.0333;0.0304;
2499879516402;0.1241;-0.0162;0.0282;
2499889600986;0.0570;-0.0120;0.0346;
2499899707913;0.0016;-0.0099;0.0431;
2499909814840;-0.0613;0.0029;0.0325;
2499919922444;-0.0826;0.0008;0.0176;
2499930029371;-0.0996;-0.0333;0.0016;
2499940136298;-0.1007;-0.0514;-0.0080;
2499950255256;-0.0900;-0.0216;-0.0218;
2499960362183;-0.0794;0.0051;-0.0389;
2499970469111;-0.0485;-0.0258;-0.0485;
2499980590673;-0.0133;-0.0684;-0.0463;
2499990697600;-0.0325;-0.0290;-0.0506;
2500000804527;-0.0794;0.0433;-0.0687;
2500010905673;-0.0953;0.0507;-0.0879;
2500021012600;-0.0591;-0.0003;-0.0858;
2500031119527;-0.0197;0.0029;-0.0762;
2500041235413;-0.0229;0.0454;-0.0826;
2500051342340;-0.0314;0.0136;-0.0975;
2500061449267;-0.0314;-0.0578;-0.0943;
2500071551090;-0.0005;-0.0674;-0.0751;
2500081658017;0.0751;0.0008;-0.0815;
2500091764944;0.0133;0.0443;-0.0921;
2500101878694;-0.0719;0.0443;-0.0847;
2500111985621;-0.0304;0.0348;-0.0708;
2500122092548;-0.0165;0.0189;-0.0708;
2500132199527;-0.0080;0.0285;-0.0676;
2500142306454;-0.0378;0.0104;-0.0613;
2500152413381;-0.0527;-0.0269;-0.0442;
2500162520569;-0.0037;-0.0120;-0.0357;
2500172627496;0.0080;-0.0035;-0.0293;
2500182734423;-0.0208;-0.0141;-0.0197;
2500192851506;0.0091;-0.0130;-0.0016;
2500202958433;0.0378;-0.0067;0.0112;
2500213065361;0.0581;0.0125;0.0240;
2500223170673;0.0666;0.0168;0.0325;
2500233277600;0.0783;-0.0067;0.0442;
2500243384527;0.1401;0.0008;0.0611;
2500253484319;0.1656;0.0104;0.0696;
2500263591246;0.1390;-0.0280;0.0686;
2500273698173;0.1795;-0.0535;0.0718;
2500283814736;0.2359;-0.0344;0.0792;
2500293921663;0.1827;-0.0130;0.0824;
2500304028590;0.0858;-0.0024;0.0771;
2500314159215;0.0357;0.0029;0.0686;
2500324266142;0.0005;0.0008;0.0473;
2500334373069;-0.0399;0.0051;0.0272;
2500344457444;-0.0751;0.0146;0.0101;
2500354564371;-0.0698;0.0178;-0.0080;
2500364671298;-0.0485;0.0125;-0.0112;
2500374781090;-0.0261;-0.0056;-0.0186;
2500384888017;-0.0229;-0.0173;-0.0261;
2500394994944;-0.0240;-0.0344;-0.0293;
2500405108590;-0.0208;-0.0439;-0.0399;
2500415215517;0.0037;-0.0003;-0.0591;
2500425322444;0.0517;0.0401;-0.0719;
2500435425986;0.0272;0.0178;-0.0740;
2500445532913;0.0261;0.0008;-0.0623;
2500455639840;0.0868;0.0274;-0.0421;
2500465761402;0.0868;0.0125;-0.0325;
2500475868329;0.0336;-0.0418;-0.0293;
2500485975256;0.0474;-0.0375;-0.0314;
2500496087861;0.1369;0.0008;-0.0261;
2500506194788;0.1795;-0.0194;-0.0069;
2500516301715;0.1838;-0.0535;0.0176;
2500526410673;0.2551;-0.0184;0.0378;
2500536517600;0.3126;0.0242;0.0483;
2500546624527;0.2913;0.0264;0.0579;
2500556733069;0.2455;0.0221;0.0547;
2500566839996;0.2285;0.0104;0.0590;
2500576946923;0.2583;0.0019;0.0760;
2500587048225;0.3137;0.0136;0.0856;
2500597156038;0.3455;0.0210;0.1059;
2500607263798;0.3020;-0.0077;0.1208;
2500617368850;0.2658;-0.0013;0.1293;
2500627476663;0.2594;0.0475;0.1293;
2500637584423;0.1507;0.0253;0.1165;
2500647694788;-0.0602;-0.0578;0.1059;
2500657802600;-0.0815;-0.0535;0.1005;
2500667910361;-0.0389;0.0232;0.0984;
2500678034163;-0.0911;0.0029;0.1069;
2500688141975;-0.1071;-0.0290;0.1240;
2500698249736;-0.0644;0.0221;0.1250;
2500708355413;-0.0538;0.0296;0.1059;
2500718463225;-0.1379;-0.0205;0.0963;
2500728570986;-0.1454;0.0008;0.0835;
2500738685621;-0.1103;0.0465;0.0707;
2500748793433;-0.1720;0.0411;0.0792;
2500758901194;-0.2562;0.0232;0.0867;
2500769007288;-0.2796;0.0200;0.0824;
2500779115100;-0.2509;0.0316;0.0654;
2500789222861;-0.2051;0.0242;0.0453;
2500799338017;-0.1582;-0.0056;0.0368;
2500809445829;-0.0655;0.0029;0.0569;
2500819553590;-0.0154;0.0083;0.0856;
2500829666663;-0.0229;0.0008;0.0941;
2500839774475;-0.0123;0.0200;0.0824;
2500849882236;-0.0378;0.0189;0.0431;
2500859950725;-0.0559;0.0051;0.0325;
2500870058538;-0.0442;-0.0120;0.0547;
2500880166298;-0.0208;-0.0344;0.0995;
2500890286871;0.0485;-0.0397;0.1240;
2500900394683;0.2104;0.0316;0.1091;
2500910502444;0.2892;0.0550;0.0771;
2500920611871;0.1635;-0.0162;0.0696;
2500930719683;0.0943;-0.0120;0.0952;
2500940827444;0.1252;0.0348;0.1336;
2500950937808;0.0676;0.0316;0.1644;
2500961045569;-0.0506;0.0029;0.1527;
2500971153329;-0.0623;-0.0109;0.1176;
2500981261142;-0.0421;-0.0088;0.1091;
2500991366663;-0.0240;-0.0120;0.1346;
2501001474475;0.0325;0.0337;0.1655;
2501011582236;0.0655;0.0752;0.1634;
2501021697288;0.0240;0.0614;0.1314;
2501031805100;-0.0293;0.0433;0.1048;
2501041912861;-0.0346;0.0965;0.1122;
2501052011350;-0.0368;0.1221;0.1357;
2501062119163;-0.0506;0.0411;0.1378;
2501072226923;-0.0549;-0.0248;0.1176;
2501082339371;-0.0442;-0.0301;0.0899;
2501092447183;-0.0517;-0.0525;0.0899;
2501102554944;-0.0368;-0.0759;0.1091;
2501112661975;-0.0197;-0.0557;0.1091;
2501122769788;-0.0250;-0.0280;0.0579;
2501132877548;-0.0527;-0.0173;0.0080;
2501142985621;-0.0858;-0.0035;0.0059;
2501153093433;-0.1688;0.0253;0.0346;
2501163201194;-0.2987;0.0040;0.0240;
2501173298433;-0.3381;0.0210;-0.0218;
2501183406246;-0.3636;0.0869;-0.0389;
2501193514006;-0.4308;0.0901;-0.0261;
2501203600517;-0.4542;0.0859;-0.0666;
2501213708277;-0.4691;0.0987;-0.0932;
2501223816038;-0.4925;0.0731;-0.0889;
2501233934996;-0.4553;0.0264;-0.0751;
2501244042808;-0.3210;0.0603;-0.0879;
2501254150569;-0.1486;0.0891;-0.0889;
2501264275725;-0.0378;0.0656;-0.0687;
2501274383486;-0.0698;0.0008;-0.0549;
2501284491298;-0.0559;0.0326;-0.0527;
2501294601142;-0.0112;0.0763;-0.0357;
2501304708954;-0.0133;0.0093;-0.0101;
2501314816715;-0.0165;-0.0386;-0.0197;
2501324928225;0.0559;0.0083;-0.0282;
2501335035986;0.1166;0.0486;-0.0048;
2501345143798;0.0847;0.0710;0.0112;
2501355283173;0.0591;0.0731;0.0080;
2501365390986;0.0602;0.0433;0.0208;
2501375498746;0.0602;0.0104;0.0229;
2501385573538;0.0676;0.0465;-0.0112;
2501395681350;0.0794;0.0891;-0.0005;
2501405789111;0.0474;0.0955;0.0101;
2501415898642;0.0730;0.0795;0.0037;
2501426006454;0.1305;0.0838;0.0112;
2501436114215;0.1348;0.1019;0.0176;
2501446221558;0.1284;0.1242;0.0261;
2501456329371;0.0953;0.0571;0.0346;
2501466437131;0.0953;-0.0162;0.0632;
2501476548538;0.1060;0.0603;0.0218;
2501486656350;0.1060;0.0997;0.0027;
2501496764111;-0.0485;0.0104;-0.0250;
2501506861246;-0.0357;-0.0908;-0.0698;
2501516969058;-0.0016;-0.2005;-0.0964;
2501527076819;0.0218;-0.3017;-0.0527;
2501537189267;0.1124;-0.2037;-0.0368;
2501547297079;0.1848;-0.0067;-0.0431;
2501557404840;0.1198;0.1274;-0.0410;
2501567524944;0.0527;0.2222;-0.0985;
2501577632756;-0.0101;0.2361;-0.1060;
2501587740517;-0.0154;0.2137;-0.1273;
2501597820933;0.0186;0.2126;-0.1987;
2501607928694;0.0123;0.1125;-0.2498;
2501618036402;0.0442;-0.0642;-0.2828;
2501628161975;0.0687;-0.1494;-0.3212;
2501638269736;0.0858;-0.1473;-0.3563;
2501648377444;0.0953;-0.1185;-0.3276;
2501658500517;0.1326;-0.0780;-0.3499;
2501668608277;0.1859;-0.0045;-0.3872;
2501678715986;0.1678;0.0210;-0.3798;
2501688832288;0.1763;0.0040;-0.3659;
2501698940048;0.1603;0.0232;-0.3638;
2501709047756;0.1060;0.0210;-0.3435;
2501719151871;0.1039;-0.0226;-0.3329;
2501729259631;0.1209;-0.1057;-0.3350;
2501739367340;0.1443;-0.0972;-0.2849;
2501749473173;0.1379;-0.0599;-0.2551;
2501759580933;0.1145;-0.1079;-0.2434;
2501769688642;0.0911;-0.0983;-0.2306;
2501779799163;0.0804;-0.0365;-0.2136;
2501789906923;0.0708;-0.0344;-0.1965;
2501800014631;0.0858;-0.0599;-0.1678;
2501810093225;0.1646;-0.0290;-0.1081;
2501820200986;0.2668;-0.0226;-0.0772;
2501830308694;0.3775;-0.0088;-0.0613;
2501840427808;0.4297;0.0168;-0.0304;
2501850535569;0.4819;-0.0333;0.0123;
2501860643277;0.5202;-0.0461;0.0346;
2501870749475;0.5213;-0.0578;0.0462;
2501880857236;0.5160;-0.0503;0.0814;
2501890964944;0.4808;-0.0546;0.0973;
2501901074163;0.4574;-0.0439;0.1005;
2501911181923;0.4190;-0.0141;0.1240;
2501921289631;0.4084;-0.0258;0.1389;
2501931419163;0.3775;-0.0322;0.1304;
2501941526923;0.3169;-0.0312;0.1250;
2501951634683;0.2860;-0.0418;0.1144;
2501961726142;0.2541;-0.0280;0.1048;
2501971833902;0.2285;-0.0067;0.1389;
2501981941611;0.1784;-0.0152;0.1517;
2501992054683;0.1156;0.0051;0.1272;
2502002162444;0.0794;0.0348;0.1144;
2502012270152;0.0932;0.0200;0.1059;
2502022372808;0.0985;0.0358;0.1016;
2502032480569;0.0826;0.0411;0.1229;
2502042588277;0.0698;-0.0130;0.1165;
2502052694683;0.0751;-0.0301;0.1133;
2502062802444;0.0985;-0.0184;0.1250;
2502072910152;0.1252;0.0061;0.1112;
2502083016558;0.1326;0.0200;0.1261;
2502093124319;0.1124;-0.0088;0.1336;
2502103232027;0.1262;0.0157;0.1133;
2502113343486;0.1252;0.0838;0.1250;
2502123451246;0.1113;0.0454;0.1091;
2502133558954;0.1188;0.0422;0.1176;
2502143663225;0.1326;0.1285;0.1261;
2502153770986;0.1316;0.0369;0.1410;
2502163878694;0.1284;0.0125;0.1485;
2502173987392;0.1571;0.0774;0.1122;
2502184095152;0.0879;0.0253;0.1186;
2502194202861;0.0368;-0.0759;0.1176;
2502204336038;-0.0282;-0.0674;0.1293;
2502214443798;-0.0261;-0.0045;0.1463;
2502224551506;-0.0996;0.0390;0.1399;
2502234629267;-0.1348;0.0157;0.1421;
2502244737027;-0.1965;0.0093;0.1091;
2502254844736;-0.2338;0.0710;0.1027;
2502264953642;-0.3008;0.0285;0.0824;
2502275061402;-0.3903;-0.0301;0.0909;
2502285169111;-0.4084;0.0305;0.0442;
2502295286454;-0.3700;0.0646;0.0696;
2502305394215;-0.4350;0.0136;0.0632;
2502315501923;-0.4286;0.0115;0.0547;
2502325612288;-0.4052;0.0274;0.0261;
2502335720048;-0.4190;-0.0184;0.0197;
2502345827756;-0.3509;-0.0333;0.0304;
2502355930204;-0.3359;-0.0365;0.0515;
2502366037965;-0.2839;-0.0567;0.0686;
2502376145673;-0.2849;-0.0610;0.0569;
2502386261767;-0.2157;-0.0780;0.0846;
2502396369527;-0.2114;-0.0162;0.0963;
2502406477236;-0.1859;0.0507;0.1218;
2502416576038;-0.2200;0.0232;0.0941;
2502426683798;-0.2221;0.0285;0.1059;
2502436791506;-0.3083;0.0337;0.1080;
2502446899058;-0.3146;0.0337;0.1431;
2502457006819;-0.4201;0.0264;0.1325;
2502467114527;-0.4648;-0.0354;0.1442;
2502477222704;-0.5224;0.0008;0.1314;
2502487330465;-0.6065;0.0136;0.1240;
2502497438225;-0.6843;-0.0269;0.1208;
2502507568850;-0.7556;-0.0482;0.1048;
2502517676611;-0.8089;-0.0706;0.1186;
2502527784371;-0.8835;-0.0216;0.1197;
2502537878329;-0.9547;0.0422;0.0739;
2502547986090;-0.9622;-0.0120;0.0718;
2502558093850;-1.0197;-0.0088;0.0771;
2502568228538;-1.0485;0.0125;0.0718;
2502578336298;-1.0548;0.0029;0.0558;
2502588444006;-1.0367;0.0019;0.0144;
2502598522965;-1.0027;0.0316;0.0080;
2502608630986;-1.0176;0.0072;-0.0176;
2502618739006;-0.9313;-0.0109;-0.0091;
2502628853954;-0.9004;-0.0429;-0.0261;
2502638961975;-0.8441;-0.0706;-0.0399;
2502649070048;-0.7035;-0.0258;-0.0527;
2502659179163;-0.6065;-0.0216;-0.0602;
2502669287236;-0.4744;0.0029;-0.0858;
2502679395256;-0.4201;0.0465;-0.0889;
2502689487444;-0.4254;0.0603;-0.0964;
2502699595465;-0.3455;0.0232;-0.0889;
2502709703538;-0.3093;0.0646;-0.1071;
2502719817444;-0.2700;0.0443;-0.1379;
2502729925465;-0.2157;-0.0312;-0.1390;
2502740033538;-0.2775;0.0379;-0.1571;
2502750142183;-0.3029;0.0296;-0.1561;
2502760250256;-0.2722;-0.0003;-0.1955;
2502770358277;-0.2391;0.0221;-0.2093;
2502780463538;-0.2901;0.0443;-0.2338;
2502790571558;-0.2541;0.0603;-0.2019;
2502800679631;-0.2328;0.0561;-0.1848;
2502810783017;-0.2296;0.0507;-0.2274;
2502820891038;-0.2040;0.0582;-0.1880;
2502830999111;-0.2976;0.0305;-0.1880;
2502841109058;-0.3573;0.0200;-0.2104;
2502851217079;-0.3839;0.0656;-0.1944;
2502861325152;-0.3807;0.0379;-0.1923;
2502871432079;-0.3839;0.0274;-0.1859;
2502881540100;-0.3881;0.0486;-0.1880;
2502891648173;-0.3935;0.0146;-0.1624;
2502901764683;-0.3775;-0.0216;-0.1731;
2502911872756;-0.3668;0.0061;-0.1806;
2502921980777;-0.3743;0.0422;-0.1710;
2502932078694;-0.3956;0.0539;-0.1827;
2502942186715;-0.4084;0.0529;-0.1646;
2502952294788;-0.3658;0.0806;-0.1230;
2502962410100;-0.3796;0.0433;-0.1166;
2502972518121;-0.3636;0.0125;-0.1539;
2502982626194;-0.3711;0.0507;-0.1859;
2502992730204;-0.3477;0.0232;-0.1688;
2503002838225;-0.3423;-0.0375;-0.1390;
2503012946298;-0.3146;0.0125;-0.1720;
2503023051038;-0.2008;0.0582;-0.1422;
2503033159111;-0.1976;0.0189;-0.1486;
2503043267131;-0.1113;0.0232;-0.1656;
2503053366454;0.0005;0.0296;-0.1326;
2503063474475;0.0410;0.0189;-0.1337;
2503073582496;0.0730;0.0040;-0.1411;
2503083702808;0.1252;0.0019;-0.1411;
2503093810829;0.1571;0.0093;-0.1422;
2503103918902;0.2178;-0.0045;-0.1252;
2503114005517;0.2604;0.0221;-0.1081;
2503124113590;0.2743;-0.0130;-0.1230;
2503134221611;0.3180;-0.0269;-0.1220;
2503144344683;0.3317;0.0264;-0.1252;
2503154452704;0.3423;0.0358;-0.1369;
2503164560777;0.3519;0.0486;-0.1294;
2503174674683;0.2455;0.0646;-0.1177;
2503184782704;0.1561;0.0146;-0.1017;
2503194890777;0.1177;-0.0216;-0.1166;
2503205006871;0.0144;-0.0216;-0.1550;
2503215114944;-0.1007;0.0146;-0.1646;
2503225222965;-0.1284;-0.0322;-0.1784;
2503235343746;-0.1188;-0.0514;-0.1720;
2503245451819;-0.1433;0.0125;-0.1763;
2503255559840;-0.1103;0.0603;-0.1699;
2503265646611;-0.1348;0.0253;-0.1763;
2503275754683;-0.1305;-0.0141;-0.1688;
2503285862704;-0.1049;0.0115;-0.1656;
2503295974892;-0.1134;0.0305;-0.1731;
2503306082913;-0.1039;-0.0120;-0.1731;
2503316190986;-0.0953;0.0232;-0.1678;
2503326298954;-0.0751;0.0051;-0.1465;
2503336406975;-0.0964;-0.0226;-0.1443;
2503346515048;-0.0740;-0.0237;-0.1401;
2503356615517;-0.0751;0.0157;-0.1497;
2503366723590;-0.0602;0.0443;-0.1624;
2503376831611;-0.0112;0.0656;-0.1252;
2503386930100;-0.0080;0.0443;-0.1241;
2503397038173;0.0165;-0.0397;-0.1028;
2503407146194;0.0037;-0.0162;-0.0932;
2503417253850;-0.0250;-0.0045;-0.1124;
2503427361923;0.0016;-0.0429;-0.1326;
2503437469944;0.0282;-0.0344;-0.1124;
2503447642027;0.0378;0.0264;-0.1017;
2503457750048;0.0559;-0.0067;-0.0868;
2503467858069;0.1497;-0.0642;-0.0581;
2503477915308;0.1337;-0.0471;-0.0549;
2503488023329;0.1230;0.0210;-0.0634;
2503498131350;0.1475;-0.0035;-0.0410;
2503508273277;0.2104;-0.0120;-0.0399;
2503518381298;0.1997;0.0348;-0.0304;
2503528489319;0.2083;-0.0067;-0.0080;
2503538571090;0.2423;-0.0642;-0.0112;
2503548679163;0.2264;-0.0397;0.0133;
2503558787183;0.1774;0.0146;-0.0261;
2503568878746;0.2562;0.0157;-0.0091;
2503578986819;0.2849;0.0061;-0.0261;
2503589094840;0.2604;0.0040;-0.0229;
2503599218538;0.2253;-0.0248;0.0037;
2503609326611;0.1987;-0.0599;0.0059;
2503619434631;0.1923;-0.0130;-0.0197;
2503629523329;0.1337;0.0571;-0.0389;
2503639631402;0.1507;0.0221;-0.0336;
2503649739423;0.1593;0.0285;-0.0336;
2503659874996;0.1145;0.0072;-0.0506;
2503669983069;0.1156;-0.0141;-0.0474;
2503680091090;0.0943;0.0178;-0.0272;
2503690164788;0.0719;0.0465;-0.0431;
2503700272861;0.0666;-0.0045;-0.0474;
2503710380881;0.0634;-0.0450;-0.0314;
2503720501454;0.0815;-0.0748;-0.0154;
2503730609527;0.0889;-0.0312;-0.0197;
2503740717548;0.0698;-0.0397;-0.0421;
2503750819058;0.0815;-0.0258;-0.0293;
2503760927131;0.0772;0.0029;-0.0176;
2503771035152;0.0804;0.0422;-0.0133;
2503781143850;0.0751;0.0699;-0.0048;
2503791251923;0.0602;0.0083;-0.0048;
2503801359944;0.0719;-0.0248;-0.0037;
2503811468329;0.0794;-0.0109;0.0133;
2503821576402;0.0964;0.0104;0.0250;
2503831684423;0.0858;0.0401;0.0505;
2503841793017;0.0666;-0.0056;0.0760;
2503851901038;0.0314;-0.0407;0.0590;
2503862009111;0.0282;-0.0557;0.0505;
2503872117600;0.0304;-0.0269;0.0888;
2503882225673;0.0410;0.0061;0.1144;
2503892333694;0.0027;-0.0333;0.1122;
2503902434267;-0.0165;-0.0525;0.0995;
2503912542340;0.0165;-0.0003;0.1186;
2503922650361;0.0293;0.0093;0.1325;
2503932756611;0.0250;-0.0407;0.1538;
2503942864683;0.0208;-0.0237;0.1378;
2503952972704;0.0378;0.0146;0.1293;
2503963093538;0.0389;0.0296;0.1144;
2503973201611;0.0336;0.0827;0.1154;
2503983309631;0.0261;0.0136;0.1176;
2503993397079;0.0336;-0.0610;0.1399;
2504003505100;0.0304;-0.0141;0.1325;
2504013613173;0.0165;0.0274;0.0909;
2504023738017;0.0208;0.0401;0.0941;
2504033846090;0.0112;-0.0280;0.1080;
2504043954111;0.0027;-0.0557;0.1154;
2504054060777;-0.0091;-0.0130;0.1112;
2504064168850;-0.0208;0.0475;0.0601;
2504074276871;-0.0506;0.0178;0.0707;
2504084386975;-0.0730;0.0008;0.0931;
2504094495048;-0.1060;0.0358;0.0824;
2504104603069;-0.1284;0.0518;0.0728;
2504114728121;-0.1358;0.0337;0.0473;
2504124836194;-0.1614;0.0369;0.0250;
2504134944215;-0.1486;0.0667;0.0144;
2504145026246;-0.1614;0.0529;0.0240;
2504155134267;-0.1944;0.0040;0.0325;
2504165242340;-0.2232;-0.0152;-0.0016;
2504175366663;-0.1774;-0.0344;0.0016;
2504185474736;-0.1838;-0.0269;-0.0240;
2504195582756;-0.1369;0.0104;-0.0176;
2504205672392;-0.1198;0.0593;-0.0410;
2504215780465;-0.0889;0.0401;-0.0336;
2504225888486;-0.0751;-0.0503;0.0005;
2504236017079;-0.0442;-0.0344;0.0197;
2504246125152;-0.0346;0.0475;0.0059;
2504256233173;-0.0442;0.0390;0.0165;
2504266339892;-0.0783;-0.0088;-0.0005;
2504276447965;-0.0357;-0.0429;0.0176;
2504286555986;-0.0772;-0.0354;0.0399;
2504296649111;-0.0431;-0.0375;0.0325;
2504306757183;-0.0410;-0.0290;0.0664;
2504316865204;-0.0676;-0.0173;0.0037;
2504326990621;-0.0687;0.0326;0.0101;
2504337098694;-0.0783;0.0157;0.0473;
2504347206715;-0.0879;-0.0397;0.0632;
2504357305777;-0.0826;0.0178;0.0389;
2504367413850;-0.1166;0.0433;0.0069;
2504377521871;-0.0964;0.0232;0.0229;
2504387677444;-0.1241;0.0146;0.0442;
2504397785465;-0.1379;-0.0759;0.0632;
2504407893486;-0.1465;-0.1079;0.0537;
2504417922600;-0.1710;0.0029;0.0325;
2504428030621;-0.1624;0.0603;0.0494;
2504438138694;-0.1848;-0.0141;0.0718;
2504448316611;-0.2136;-0.0855;0.0750;
2504458424631;-0.2210;0.0008;0.0399;
2504468532652;-0.2700;0.0933;0.0005;
2504478585673;-0.3114;0.0348;-0.0048;
2504488693746;-0.3402;-0.0344;-0.0399;
2504498801767;-0.2498;0.0189;-0.0506;
2504508908225;-0.2381;0.0443;-0.0069;
2504519016298;-0.3008;-0.0471;-0.0325;
2504529124319;-0.1678;0.1466;-0.0581;
2504539257392;-0.1134;0.2031;-0.0921;
2504549365465;-0.1731;-0.1334;-0.0868;
2504559473486;-0.1720;-0.2581;-0.0772;
2504569577392;-0.1614;-0.1164;-0.0921;
2504579685465;-0.1475;0.0200;-0.1071;
2504589793486;-0.1209;0.0859;-0.0879;
2504599890308;-0.0847;0.0912;-0.0868;
2504609998173;-0.0186;0.0390;-0.0730;
2504620105986;-0.0027;-0.0290;-0.0698;
2504630222808;-0.0069;0.0635;-0.0911;
2504640330673;-0.0613;0.1221;-0.0836;
2504650438486;-0.0730;0.0115;-0.0655;
2504660529892;-0.0772;-0.0035;-0.0932;
2504670637756;-0.1017;0.0720;-0.0975;
2504680745569;-0.1230;0.0475;-0.1039;
2504690875933;-0.1039;-0.0599;-0.0826;
2504700983798;-0.1071;-0.0407;-0.0559;
2504711091611;-0.1007;-0.0599;-0.0591;
2504721199371;-0.1550;-0.2751;-0.0975;
2504731307236;-0.1529;-0.0812;-0.0783;
2504741415048;-0.1081;0.3703;-0.0549;
2504751519944;-0.1081;0.3011;-0.0410;
2504761627808;-0.1401;-0.0620;-0.0634;
2504771735621;-0.1699;-0.0642;-0.1007;
2504781841142;-0.1475;0.0678;-0.0911;
2504791949006;-0.1731;-0.0503;-0.0762;
2504802056819;-0.2008;-0.1324;-0.0708;
2504812155933;-0.1891;-0.0855;-0.0581;
2504822263798;-0.1710;-0.0418;-0.0996;
2504832371611;-0.1284;-0.0013;-0.1316;
2504842481767;-0.1134;0.0040;-0.0921;
2504852589631;-0.1124;-0.0120;-0.1081;
2504862697444;-0.0602;0.0125;-0.1198;
2504872805725;-0.1156;0.0221;-0.1582;
2504882913590;-0.0772;0.0178;-0.1614;
2504893021402;-0.0708;-0.0173;-0.1507;
2504903126038;-0.0666;-0.0748;-0.1454;
2504913233902;-0.0133;-0.0184;-0.1273;
2504923341767;-0.0240;0.0072;-0.1497;
2504933468538;0.0293;-0.0557;-0.1433;
2504943576402;0.0527;-0.0652;-0.1305;
2504953684215;0.0708;-0.0354;-0.1262;
2504963793121;0.1113;-0.0237;-0.1593;
2504973900986;0.1486;-0.0386;-0.1752;
2504984008798;0.2168;-0.0290;-0.1507;
2504994106246;0.2466;0.0316;-0.1561;
2505004214111;0.2061;0.0699;-0.1646;
2505014321975;0.2051;-0.0152;-0.1475;
2505024420308;0.2849;-0.0429;-0.1220;
2505034528173;0.2658;0.0593;-0.1401;
2505044635986;0.2711;0.0987;-0.1348;
2505054743850;0.2178;0.0401;-0.1358;
2505064851715;0.1443;-0.0003;-0.1156;
2505074959527;0.1379;0.0221;-0.1017;
2505085067808;0.0943;-0.0099;-0.0911;
2505095175673;0.0613;-0.0471;-0.0804;
2505105283486;0.0495;-0.0652;-0.0836;
2505115381871;0.0985;-0.0599;-0.0506;
2505125489736;0.1007;-0.0216;-0.0549;
2505135597548;0.0847;0.0200;-0.0815;
2505145722392;0.0602;0.0720;-0.1305;
2505155830256;0.0666;0.1029;-0.1124;
2505165938069;0.0719;0.0497;-0.0879;
2505176052808;0.0889;0.0242;-0.0666;
2505186160673;0.0463;0.0051;-0.1145;
2505196268486;0.0666;0.0115;-0.1209;
2505206386454;0.0570;-0.0301;-0.0985;
2505216494319;0.0623;-0.0866;-0.0751;
2505226602131;0.0666;-0.0599;-0.0655;
2505236697861;0.0559;-0.0035;-0.0613;
2505246805725;0.0762;-0.0077;-0.0847;
2505256913538;0.0730;-0.0525;-0.0879;
2505267010725;0.0985;-0.0354;-0.0368;
2505277118590;0.1262;-0.0184;-0.0357;
2505287226402;0.1635;0.0104;-0.0431;
2505297337392;0.1720;0.0731;-0.0730;
2505307445256;0.1699;0.0955;-0.0570;
2505317553121;0.1262;0.0369;-0.0272;
2505327659058;0.1220;-0.0130;-0.0091;
2505337766923;0.1113;-0.0386;-0.0527;
2505347874736;0.1337;-0.0248;-0.0527;
2505357959267;0.0794;-0.0333;-0.0357;
2505368067131;0.0975;-0.0280;-0.0442;
2505378174996;0.1049;-0.0141;-0.0613;
2505388300725;0.0921;-0.0216;-0.0368;
2505398408590;0.0804;-0.0514;-0.0165;
2505408516402;0.1103;0.0008;-0.0272;
2505418618433;0.1678;0.0305;-0.0357;
2505428726298;0.2019;0.0454;-0.0176;
2505438834163;0.2732;0.0093;-0.0176;
2505448971142;0.3285;-0.0099;-0.0208;
2505459079006;0.4009;0.0379;-0.0250;
2505469186819;0.3359;0.0264;-0.0091;
2505479291350;0.3551;-0.0418;0.0208;
2505489399215;0.3020;-0.0876;0.0357;
2505499507027;0.2445;-0.0205;0.0346;
2505509613850;0.2242;0.0178;0.0675;
2505519721715;0.1411;-0.0141;0.1101;
2505529829527;0.1134;-0.0450;0.1069;
2505539922183;0.0815;-0.0077;0.0867;
2505550030048;0.0921;0.0635;0.1005;
2505560137861;0.1103;0.0390;0.1325;
2505570251975;0.1039;-0.0258;0.1581;
2505580359840;0.0794;-0.0099;0.1453;
2505590467652;0.1092;0.0029;0.1091;
2505600580621;0.1028;-0.0013;0.0973;
2505610688590;0.0858;0.0348;0.1176;
2505620796558;0.0794;0.0667;0.1101;
2505630901975;0.0794;0.0475;0.0941;
2505641009944;0.0921;0.0264;0.0473;
2505651117913;0.1262;0.0242;0.0197;
2505661224527;0.1688;0.0274;0.0272;
2505671332496;0.1561;-0.0429;0.0462;
2505681440465;0.1220;-0.1206;0.0622;
2505691557913;0.1177;-0.0514;0.0675;
2505701665881;0.1284;0.0678;0.1091;
2505711773850;0.1443;0.0475;0.1272;
2505721885308;0.1241;0.0093;0.1282;
2505731993277;0.1177;0.0072;0.1197;
2505742101246;0.1209;0.0189;0.1240;
2505752190621;0.0996;0.0210;0.0622;
2505762298590;0.1539;0.0816;0.0601;
2505772406558;0.1177;0.0072;0.0760;
2505782517392;0.1550;-0.0567;0.0899;
2505792625361;0.1433;-0.0344;0.0664;
2505802733329;0.1305;0.0008;0.0453;
2505812854371;0.1529;0.0603;0.0707;
2505822962340;0.1284;0.0369;0.0941;
2505833070308;0.0953;-0.1015;0.1059;
2505843167808;0.0698;-0.1089;0.1059;
2505853275777;0.1379;0.0115;0.1410;
2505863383746;0.1198;0.0040;0.1506;
2505873477600;0.1017;-0.0152;0.1208;
2505883585569;0.0911;0.0593;0.0995;
2505893693538;0.0921;0.1317;0.0718;
2505903821871;0.1486;0.2361;0.0984;
2505913929840;0.1379;0.1850;0.1240;
2505924037808;0.1156;0.0136;0.1112;
2505934132444;0.0740;0.0443;0.0686;
2505944240413;0.0985;0.1967;0.0304;
2505954348381;0.0868;0.0965;0.0750;
2505964463642;0.0783;-0.0141;0.1069;
2505974571611;0.0826;-0.0695;0.1240;
2505984679579;0.0783;-0.0823;0.1250;
2505994805673;0.1060;0.1530;0.1218;
2506004913642;0.1177;0.1317;0.1527;
2506015021611;0.0943;-0.0620;0.1506;
2506025117913;0.1103;-0.0407;0.1453;
2506035225881;0.1145;0.0019;0.1293;
2506045333850;0.1103;-0.0567;0.1325;
2506055436038;0.0751;-0.1089;0.1602;
2506065544006;0.0602;-0.1739;0.1719;
2506075651975;0.0250;-0.0514;0.1570;
2506085773850;0.0389;0.0678;0.1655;
2506095881819;-0.0165;0.0210;0.1666;
2506105989788;-0.0794;-0.0280;0.1836;
2506116081038;-0.0921;0.0296;0.1964;
2506126189006;-0.1454;0.0285;0.1858;
2506136296975;-0.2157;-0.0130;0.1719;
2506146419683;-0.2955;-0.0663;0.1900;
2506156527652;-0.3445;-0.0748;0.1719;
2506166635621;-0.3072;-0.0439;0.1410;
2506176731246;-0.2786;0.0465;0.1272;
2506186839215;-0.2583;0.0955;0.0909;
2506196947183;-0.2306;0.0912;0.1176;
2506207059267;-0.1838;0.0774;0.1261;
2506217167236;-0.1603;0.0529;0.0750;
2506227275204;-0.2125;0.0264;0.0835;
2506237378433;-0.2157;-0.0226;0.0952;
2506247486402;-0.2168;0.0029;0.1112;
2506257594371;-0.2679;0.0104;0.0814;
2506267699788;-0.2891;-0.0226;0.1122;
2506277807756;-0.3178;-0.0642;0.0877;
2506287915725;-0.3072;-0.0130;0.0675;
2506298038329;-0.2849;0.0146;0.0909;
2506308146298;-0.2466;0.0083;0.1048;
2506318254267;-0.2391;0.0274;0.0133;
2506328333642;-0.2029;0.0358;0.0112;
2506338441611;-0.1710;0.1509;0.0069;
2506348549579;-0.1593;-0.0067;0.0218;
2506358694683;-0.1699;-0.1941;-0.0037;
2506368802652;-0.1795;-0.0567;-0.0133;
2506378910621;-0.1774;0.1168;-0.0176;
2506389006923;-0.1443;0.1274;-0.0133;
2506399114892;-0.1710;0.0008;-0.0154;
2506409222861;-0.1816;-0.0056;-0.0016;
2506419314892;-0.1571;0.0571;-0.0272;
2506429422861;-0.1369;-0.0471;-0.0229;
2506439530829;-0.1081;-0.0780;0.0027;
2506449643329;-0.1145;0.0210;-0.0368;
2506459751298;-0.1262;0.0571;-0.0772;
2506469859267;-0.1582;0.0710;-0.0581;
2506479971767;-0.1273;0.0763;-0.0431;
2506490079736;-0.1326;-0.0802;-0.0815;
2506500187704;-0.1071;-0.1473;-0.1039;
2506510276194;-0.1348;0.1903;-0.1113;
2506520384163;-0.1028;0.2105;-0.0826;
2506530492131;-0.1134;-0.1462;-0.0581;
2506540612600;-0.1422;-0.1174;-0.0858;
2506550720569;-0.1827;0.0763;-0.0740;
2506560828538;-0.1230;0.0390;-0.0378;
2506570938642;-0.1326;-0.0269;-0.0463;
2506581046611;-0.1262;0.0497;-0.0868;
2506591134215;-0.1252;0.0614;-0.1124;
2506601242131;-0.1134;-0.0834;-0.0783;
2506611350100;-0.1539;-0.2453;-0.0570;
2506621480204;-0.1507;-0.1430;-0.0911;
2506631588173;-0.1220;-0.0173;-0.1092;
2506641696142;-0.0644;-0.0130;-0.1060;
2506651795933;-0.0634;-0.0099;-0.1071;
2506661903902;-0.0399;0.0104;-0.1177;
2506672011871;-0.0016;0.0264;-0.0985;
2506682121142;0.0176;0.0678;-0.0815;
2506692229111;0.0016;0.0401;-0.0783;
2506702337079;-0.0421;-0.0589;-0.0826;
2506712461194;-0.0463;-0.0237;-0.0975;
2506722569163;-0.0911;0.0115;-0.1294;
2506732677131;-0.0453;-0.0557;-0.1390;
2506742779058;-0.0357;-0.0141;-0.1273;
2506752887027;-0.0485;0.0933;-0.1081;
2506762994996;-0.0208;0.0859;-0.1198;
2506773094892;0.0059;-0.0301;-0.1422;
2506783202861;0.0091;-0.1622;-0.1848;
2506793310829;-0.0453;-0.1451;-0.2008;
2506803416142;-0.0772;-0.0205;-0.1710;
2506813524111;-0.0165;0.0411;-0.1454;
2506823632079;0.0399;0.0146;-0.1049;
2506833736767;0.1071;-0.0301;-0.1081;
2506843844736;0.1316;0.0051;-0.1294;
2506853952704;0.0538;0.0443;-0.1348;
2506864077704;-0.0378;0.0305;-0.2157;
2506874185673;-0.0176;0.0093;-0.2146;
2506884293642;0.0059;0.0072;-0.1475;
2506894390777;-0.0144;0.0221;-0.1422;
2506904498746;0.0123;0.0742;-0.1550;
2506914606715;0.0091;0.1519;-0.1848;
2506924720308;0.0218;0.1232;-0.1720;
2506934828277;0.0613;0.0104;-0.1262;
2506944936246;0.0431;-0.0152;-0.1124;
2506955032027;0.0549;-0.0375;-0.0655;
2506965139996;0.0463;-0.1739;-0.0538;
2506975247965;0.0325;-0.1846;-0.0794;
2506985361767;0.0154;-0.0844;-0.0410;
2506995469736;0.0282;-0.0514;-0.0495;
2507005577704;0.0176;-0.0173;-0.0644;
2507015688642;0.0101;0.0285;-0.0868;
2507025796611;0.0218;0.0264;-0.0985;
2507035904579;0.0847;0.0157;-0.0623;
2507046022704;0.0485;0.0784;-0.0676;
2507056130673;0.0847;0.0763;-0.0719;
2507066238642;0.0836;0.0221;-0.0602;
2507076346611;0.0346;0.0029;-0.0549;
2507086454579;0.0123;-0.0535;-0.0037;
2507096562548;0.0080;-0.1334;0.0133;
2507106658850;0.0208;-0.1036;-0.0123;
2507116766819;0.0485;0.0157;-0.0027;
2507126874788;0.0197;0.0189;-0.0304;
2507136985308;0.0282;-0.0546;-0.0037;
2507147093277;0.0527;-0.0077;0.0218;
2507157201246;0.0495;0.0221;-0.0517;
2507167311871;0.0261;-0.0535;-0.0602;
2507177419840;0.0240;-0.1068;-0.0506;
2507187527808;0.0730;0.0955;-0.0623;
2507197659527;0.0613;0.0465;-0.0293;
2507207767496;0.0368;-0.1451;0.0059;
2507217875465;0.0378;-0.0802;0.0037;
2507227955100;0.0485;0.0635;-0.0091;
2507238063069;0.1017;0.1360;-0.0229;
2507248171038;0.0740;0.0422;-0.0336;
2507258275204;0.0442;0.0242;-0.0623;
2507268383173;0.0623;0.1786;-0.0698;
2507278491142;0.0751;0.1445;-0.0527;
2507288590100;0.0772;-0.0152;-0.0762;
2507298698069;0.0581;0.0157;-0.0975;
2507308806038;0.0623;0.0550;-0.1103;
2507318920413;0.0943;0.0635;-0.0868;
2507329028381;0.0794;-0.0269;-0.0730;
2507339136350;0.0815;-0.2495;-0.0410;
2507349250829;0.1284;0.0285;-0.0304;
2507359358798;0.1124;0.0827;-0.0112;
2507369466767;0.0953;-0.1334;-0.0176;
2507379585933;0.1529;-0.0652;-0.0613;
2507389693902;0.1571;0.0987;-0.0762;
2507399801871;0.1348;0.0571;-0.0293;
2507409891142;0.1177;-0.0461;-0.0474;
2507419999111;0.1369;-0.0237;-0.0463;
2507430107079;0.0953;0.0518;-0.0826;
2507440227913;0.1379;0.0635;-0.0719;
2507450335881;0.1252;0.0136;-0.0453;
2507460443850;0.1284;-0.0003;-0.0474;
2507470546871;0.1071;0.0168;-0.0463;
2507480654840;0.1348;-0.0855;0.0027;
2507490762808;0.1188;-0.1377;-0.0261;
2507500881871;0.1166;-0.0493;-0.0123;
2507510989840;0.0953;-0.0525;-0.0186;
2507521097808;0.1305;-0.0248;0.0027;
2507531192392;0.1294;0.0348;-0.0154;
2507541300361;0.1316;-0.0429;-0.0186;
2507551408329;0.1561;0.0210;0.0325;
2507561526558;0.1379;0.0710;0.0133;
2507571634527;0.1326;-0.0024;0.0357;
2507581742496;0.0708;0.0210;0.0293;
2507591846819;0.1028;0.0008;0.0590;
2507601954944;0.0666;-0.0791;0.0867;
2507612063121;0.0911;-0.0493;0.0771;
2507622164215;0.0772;-0.0077;0.1080;
2507632272340;0.0975;0.0699;0.0473;
2507642380517;0.1134;0.0859;0.0590;
2507652488069;0.0453;0.0029;0.0750;
2507662596194;0.0463;0.0061;0.0696;
2507672704371;0.0676;0.0168;0.0664;
2507682807600;0.0943;0.0051;0.0654;
2507692915777;0.1092;-0.0109;0.0973;
2507703023954;0.1039;0.0189;0.1176;
2507713170465;0.0900;-0.0035;0.1144;
2507723278590;0.0431;-0.0077;0.1208;
2507733386767;0.0346;-0.0578;0.1495;
2507743465048;0.0740;-0.0578;0.1367;
2507753573173;0.0847;0.0274;0.1069;
2507763681350;0.0431;0.0029;0.0803;
2507773783173;0.0517;-0.0099;0.1304;
2507783891298;0.0634;0.0688;0.0963;
2507793999475;0.0634;0.0274;0.0728;
2507804105829;0.0133;-0.1089;0.0750;
2507814213954;0.0421;-0.0748;0.0696;
2507824322131;0.0847;0.1871;0.1069;
2507834437965;0.1273;0.2425;0.0835;
2507844546090;0.0517;0.0486;0.0888;
2507854654267;0.0517;0.0326;0.1293;
2507864751819;0.0463;0.0529;0.1197;
2507874859944;0.0836;-0.0013;0.1112;
2507884968121;0.0708;0.0242;0.0771;
2507895070517;0.0783;0.1136;0.0963;
2507905178694;0.0549;0.1136;0.1016;
2507915286871;0.0016;-0.0407;0.0442;
2507925420777;0.0027;-0.0844;0.0824;
2507935528902;0.0666;0.0795;0.0814;
2507945637079;0.1220;0.2244;0.0952;
2507955722236;0.0304;-0.0525;0.1016;
2507965830361;-0.0336;-0.1973;0.1091;
2507975938538;0.0421;-0.1249;0.1517;
2507986048902;0.0165;-0.0759;0.1527;
2507996157027;0.0591;-0.0514;0.1336;
2508006265204;0.0304;-0.0099;0.1016;
2508016371663;0.0272;0.0656;0.1186;
2508026479788;0.0059;0.0454;0.1293;
2508036587965;-0.0517;0.0104;0.0909;
2508046698277;-0.0655;-0.0226;0.0654;
2508056806402;-0.0389;-0.0109;0.0601;
2508066914579;0.0069;0.0465;0.1080;
2508077019840;-0.0325;0.0104;0.0611;
2508087127965;-0.0357;-0.0791;0.1336;
2508097236142;-0.0357;-0.0940;0.1538;
2508107336506;0.0368;-0.0386;0.1602;
2508117444579;-0.0101;-0.0631;0.1431;
2508127552808;-0.0314;-0.0940;0.1091;
2508137657965;0.0282;0.0253;0.1005;
2508147766090;0.0027;0.0720;0.1399;
2508157874267;-0.0453;0.0136;0.1101;
2508167990517;-0.0272;0.0029;0.1218;
2508178098694;-0.0378;0.0763;0.1197;
2508188206871;-0.0218;0.0507;0.1378;
2508198308694;-0.0602;-0.0908;0.1389;
2508208416819;-0.0485;-0.0173;0.1485;
2508218524996;-0.0581;0.0390;0.1549;
2508228655256;-0.1039;-0.0589;0.1644;
2508238763381;-0.1443;-0.0748;0.1272;
2508248871558;-0.1220;0.0083;0.0952;
2508258967548;-0.1326;0.0475;0.1016;
2508269075673;-0.1379;0.0051;0.1240;
2508279183850;-0.1976;-0.0354;0.0973;
2508289287861;-0.1955;-0.0088;0.0782;
2508299395986;-0.2008;-0.0077;0.0718;
2508309504163;-0.2242;-0.0493;0.0739;
2508319616090;-0.2349;-0.0109;0.0760;
2508329724215;-0.2051;0.0784;0.0846;
2508339832392;-0.2157;0.0635;0.0909;
2508349949840;-0.2881;-0.0642;0.0537;
2508360057965;-0.2487;-0.0386;0.0165;
2508370166142;-0.2019;0.0688;0.0123;
2508380279423;-0.2253;0.0710;-0.0091;
2508390387548;-0.2061;0.0529;-0.0304;
2508400495725;-0.1987;-0.0013;-0.0240;
2508410584736;-0.1933;-0.0312;-0.0250;
2508420692861;-0.1401;0.0104;-0.0378;
2508430801038;-0.1294;-0.0077;-0.0240;
2508440906090;-0.1624;-0.0035;-0.0538;
2508451014215;-0.1305;0.0146;-0.0197;
2508461122392;-0.1230;-0.0652;0.0080;
2508471236506;-0.1348;-0.1643;-0.0154;
2508481344631;-0.1369;-0.0929;-0.0527;
2508491452808;-0.1326;0.0136;-0.0996;
2508501550673;-0.1188;0.0411;-0.0932;
2508511658798;-0.1379;-0.0035;-0.0676;
2508521766975;-0.1497;-0.0184;-0.1188;
2508531879631;-0.1124;-0.0141;-0.1156;
2508541987756;-0.1145;0.0146;-0.0794;
2508552095933;-0.1060;-0.0035;-0.0985;
2508562218381;-0.1177;0.0051;-0.0889;
2508572326506;-0.1177;-0.0013;-0.0634;
2508582434683;-0.1007;-0.0269;-0.0655;
2508592520829;-0.1561;-0.0535;-0.0889;
2508602628746;-0.1624;-0.0120;-0.1379;
2508612736611;-0.1284;0.0635;-0.1422;
2508622855933;-0.0783;0.0232;-0.0847;
2508632963850;-0.0794;-0.0482;-0.1156;
2508643071715;-0.1017;-0.0620;-0.1561;
2508653174267;-0.1081;-0.0461;-0.1635;
2508663282183;-0.0613;-0.0375;-0.1401;
2508673390048;-0.0368;-0.0503;-0.1443;
2508683490517;-0.0005;-0.0407;-0.1252;
2508693598433;0.0037;-0.0237;-0.1017;
2508703706298;0.0218;-0.1281;-0.1028;
2508713828850;0.0591;-0.0983;-0.1294;
2508723936767;0.0762;0.0497;-0.1348;
2508734044631;0.0336;0.0379;-0.1571;
2508744146663;0.0730;0.0168;-0.1443;
2508754254579;0.0985;0.0486;-0.1710;
2508764362444;0.0943;0.0624;-0.1731;
2508774466975;0.0101;0.0242;-0.1401;
2508784574892;0.0080;0.0667;-0.1507;
2508794682756;0.0197;0.0454;-0.1880;
2508804791142;-0.0016;-0.0035;-0.1411;
2508814899058;-0.0091;-0.0386;-0.1390;
2508825006923;0.0357;-0.0365;-0.1241;
2508835132340;0.0186;0.0348;-0.1603;
2508845240256;0.0144;0.0200;-0.1763;
2508855348121;0.0442;0.0189;-0.1582;
2508865437444;0.0762;0.0603;-0.1603;
2508875545361;0.0943;0.0752;-0.1635;
2508885653225;0.0144;0.0242;-0.1667;
2508895759058;0.0613;0.0443;-0.1656;
2508905866975;0.0527;0.0997;-0.1699;
2508915974840;0.0325;0.0104;-0.1433;
2508926100308;0.0314;0.0104;-0.1348;
2508936208225;0.0772;0.0518;-0.0943;
2508946316090;0.0847;-0.0194;-0.0953;
2508956425204;0.1060;0.0369;-0.1422;
2508966533121;0.1284;0.0688;-0.1390;
2508976640986;0.1039;0.0083;-0.1529;
2508986737913;0.1262;-0.0439;-0.1401;
2508996845829;0.1113;-0.0290;-0.1369;
2509006953694;0.1049;-0.0024;-0.1443;
2509017064475;0.1241;-0.0088;-0.1284;
2509027172392;0.1401;-0.0162;-0.0932;
2509037280256;0.1156;0.0029;-0.1017;
2509047377704;0.1656;0.0550;-0.0889;
2509057485621;0.1656;-0.0035;-0.0634;
2509067593486;0.2019;-0.0205;-0.0314;
2509077701350;0.1710;0.0232;-0.0623;
2509087809267;0.1731;0.0316;-0.0762;
2509097917131;0.1955;0.0029;-0.0495;
2509107997496;0.1358;-0.0067;-0.0655;
2509118105413;0.1529;-0.0141;-0.0368;
2509128213277;0.1316;-0.0109;-0.0378;
2509138343538;0.1337;0.0571;-0.0517;
2509148451454;0.1326;0.0051;-0.0059;
2509158559319;0.1188;-0.0418;0.0229;
2509168737392;0.1209;-0.0503;0.0782;
2509178845308;0.0953;-0.0535;0.0357;
2509188953173;0.1156;0.0699;-0.0123;
2509198991350;0.0921;0.0379;0.0218;
2509209099267;0.0794;-0.0525;0.0304;
2509219207131;0.1081;0.0040;0.0314;
2509229338954;0.1124;0.0232;0.0368;
2509239446871;0.1284;0.0285;0.0368;
2509249554736;0.1049;-0.0173;0.0229;
2509259668329;0.1081;-0.0525;0.0483;
2509269776246;0.0868;-0.0130;0.0707;
2509279884111;0.0964;-0.0077;0.0792;
2509289973746;0.0730;-0.0237;0.0973;
2509300081663;0.0698;0.0072;0.0526;
2509310189527;0.0932;0.0337;0.0537;
2509320300413;0.0719;-0.0077;0.0505;
2509330408329;0.0868;0.0296;0.0154;
2509340516194;0.0581;-0.0344;0.0186;
2509350620933;0.0538;-0.0663;0.0410;
2509360728850;0.0740;0.0296;0.0357;
2509370836715;0.1358;0.0848;0.0537;
2509380947600;0.0676;0.0178;0.0421;
2509391055517;0.0900;-0.0237;0.0846;
2509401163381;0.0623;-0.0461;0.0984;
2509411267600;0.0858;0.0316;0.0547;
2509421375517;0.0591;0.0614;0.0240;
2509431483381;0.0740;0.0838;0.0112;
2509441611558;0.0559;0.0274;0.0069;
2509451719475;0.0336;0.0178;0.0037;
2509461827340;0.0357;0.0305;0.0314;
2509471903642;0.0613;0.0646;-0.0059;
2509482011558;0.0921;-0.0013;0.0101;
2509492119423;0.0676;-0.0993;0.0410;
2509502251454;0.0772;-0.0716;0.0792;
2509512359371;0.0751;-0.0514;0.0792;
2509522467236;0.0655;-0.1345;0.0378;
2509532566558;0.0431;-0.1121;0.0197;
2509542674475;0.0826;0.0008;0.0282;
2509552782340;0.0975;0.0274;0.0835;
2509562904475;0.0655;0.0242;0.0378;
2509573012392;0.0634;0.0422;0.0080;
2509583120256;0.0708;0.0603;0.0208;
2509593206975;0.0751;0.0561;0.0112;
2509603314892;0.0623;0.0019;0.0389;
2509613422861;0.0858;0.0168;0.0867;
2509623535933;0.0868;-0.0269;0.1208;
2509633643902;0.0453;-0.0855;0.1048;
2509643751819;0.0889;-0.0205;0.1069;
2509653866767;0.0858;0.0667;0.0750;
2509663974736;0.0826;0.0603;0.0760;
2509674081900;0.0431;0.0029;0.1005;
2509684175390;0.0410;-0.0290;0.1208;
2509694283359;0.0783;-0.0067;0.1506;
2509704391275;0.0442;-0.0013;0.1101;
2509714493827;0.0453;-0.0152;0.1655;
2509724601796;0.0389;-0.0205;0.1921;
2509734709713;0.0346;0.0422;0.2326;
2509744832890;0.0282;0.0168;0.2007;
2509754940859;0.0229;0.0051;0.1985;
2509765048775;-0.0176;0.0816;0.1858;
2509775149973;0.0069;0.0763;0.1772;
2509785257890;-0.0826;-0.0312;0.1517;
2509795365859;-0.1390;-0.0397;0.1602;
2509805469556;-0.1049;0.0040;0.1889;
2509815577525;-0.1092;-0.0088;0.1612;
2509825685442;-0.1390;-0.0514;0.1346;
2509835807681;-0.1241;0.0008;0.1868;
2509845915650;-0.1081;0.0285;0.1836;
2509856023567;-0.1731;-0.0418;0.1080;
2509866134036;-0.1731;-0.0141;0.0931;
2509876242004;-0.1859;0.0029;0.0963;
2509886349921;-0.1784;0.0019;0.0739;
2509896450598;-0.1614;0.0221;0.0877;
2509906558567;-0.1710;0.0518;0.0579;
2509916666484;-0.1880;0.0507;0.0293;
2509926779869;-0.1987;0.0443;-0.0208;
2509936887838;-0.1550;0.0518;0.0016;
2509946995754;-0.1411;0.0072;0.0304;
2509957086640;-0.1561;-0.0258;-0.0144;
2509967194609;-0.1071;-0.0365;-0.0463;
2509977302525;-0.1401;-0.0312;-0.0463;
2509987412421;-0.0900;-0.0333;-0.0655;
2509997520338;-0.0900;-0.0567;-0.1145;
2510007628254;-0.0740;-0.0109;-0.1081;
2510017749452;-0.0836;-0.0003;-0.0804;
2510027857421;-0.0336;-0.0077;-0.0900;
2510037965338;-0.0165;0.0582;-0.1092;
2510048084869;0.0080;0.0763;-0.1145;
2510058192838;-0.0293;-0.0226;-0.0698;
2510068300754;-0.0463;-0.0003;-0.0517;
2510078385181;-0.0676;-0.0226;-0.1017;
2510088493150;-0.0421;-0.0386;-0.0730;
2510098601067;-0.0218;0.0296;-0.0943;
2510108717577;-0.0027;-0.0088;-0.0996;
2510118825546;-0.0165;0.0157;-0.0613;
2510128933463;-0.0410;-0.0045;-0.0804;
2510139029973;0.0112;0.0221;-0.0858;
2510149137942;-0.0069;0.0008;-0.0687;
2510159245859;-0.0474;-0.1068;-0.0421;
2510169372890;-0.0474;-0.0961;-0.0005;
2510179480859;-0.0293;0.0040;-0.0272;
2510189588775;-0.0314;0.0316;-0.0165;
2510199680390;-0.0708;0.0358;-0.0378;
2510209788359;-0.0794;0.0093;-0.0644;
2510219896275;-0.0453;0.0422;-0.0613;
2510230000025;0.0005;0.0795;-0.0314;
2510240107994;-0.0431;-0.0258;-0.0527;
2510250215911;-0.0144;-0.1142;-0.0517;
2510260368931;-0.0165;-0.0546;-0.0314;
2510270476900;0.0421;0.0232;0.0069;
2510280584817;0.0559;0.0008;0.0346;
2510290660390;0.0943;0.0125;0.0123;
2510300768359;0.0410;0.0274;0.0133;
2510310876275;0.0080;0.0529;0.0091;
2510320983775;0.0080;0.0242;-0.0186;
2510331091744;-0.0442;0.0189;-0.0346;
2510341199661;-0.0410;-0.0162;-0.0176;
2510351303775;-0.0069;-0.0482;-0.0016;
2510361411744;0.0261;0.0072;0.0133;
2510371519661;0.0229;0.0274;-0.0059;
2510381634556;0.0389;-0.0280;-0.0197;
2510391742525;0.0698;-0.0450;0.0526;
2510401850442;0.0463;-0.0152;0.0325;
2510411957786;0.0250;-0.0546;-0.0069;
2510422065754;0.0176;-0.0802;-0.0250;
2510432173671;-0.0101;-0.0280;-0.0858;
2510442297681;0.0101;0.0571;-0.0676;
2510452405598;0.0208;0.0326;-0.0144;
2510462513567;0.0133;0.0285;-0.0378;
2510472609452;0.0613;0.0667;-0.0495;
2510482717421;0.0708;0.0582;0.0059;
2510492825338;0.0378;0.0326;-0.0314;
2510502928411;0.0794;-0.0226;0.0101;
2510513036379;0.0314;0.0083;0.0059;
2510523144296;0.0378;0.0454;0.0016;
2510533255442;0.0304;-0.0546;-0.0453;
2510543363411;0.0218;-0.0045;-0.0708;
2510553471327;-0.0165;0.0168;-0.0719;
2510563571848;0.0538;-0.0461;-0.0112;
2510573679817;0.0698;-0.0439;0.0027;
2510583787734;0.0985;-0.0205;-0.0101;
2510593903463;0.1156;0.0784;0.0069;
2510604011484;0.1028;0.0242;0.0494;
2510614119504;0.0527;-0.0748;0.0112;
2510624216640;0.0634;0.0072;0.0037;
2510634324661;0.0357;0.0296;0.0176;
2510644432734;0.0570;-0.0248;-0.0176;
2510654542109;0.0250;-0.0269;0.0218;
2510664650181;0.0357;-0.0056;-0.0346;
2510674758202;0.0357;0.0019;0.0154;
2510684866119;0.0858;0.0465;0.0389;
2510694974192;0.0804;0.0848;0.0494;
2510705082213;0.0506;-0.0152;0.0176;
2510715219921;0.0197;-0.0652;0.0547;
2510725327994;0.0101;-0.0535;0.0314;
2510735436015;0.0431;-0.0802;0.0431;
2510745521848;0.0410;-0.0226;0.0537;
2510755629869;0.0453;0.0040;0.0005;
2510765737942;0.0325;0.0614;0.0197;
2510775835598;0.0091;0.0539;0.0197;
2510785943671;0.0378;-0.0375;0.0547;
2510796051692;0.0453;0.0411;0.0421;
2510806158775;0.0421;0.0486;0.0421;
2510816266796;-0.0048;-0.0546;0.0718;
2510826374869;-0.0229;-0.0759;0.0357;
2510836487109;-0.0240;-0.1206;0.0537;
2510846595181;-0.0197;-0.0535;0.0547;
2510856703202;0.0431;0.0955;0.0282;
2510866796848;0.0101;0.1466;0.0154;
2510876904921;-0.0048;0.1115;0.0282;
2510887012942;-0.0463;-0.2399;0.0622;
2510897124765;-0.0165;-0.2133;0.0718;
2510907232786;0.0314;0.1253;0.0537;
2510917340859;0.0218;0.1210;0.0399;
2510927480754;-0.0431;-0.0056;0.0505;
2510937588775;-0.0538;0.0635;0.0080;
2510947696796;-0.0208;0.1146;0.0421;
2510957779765;0.0123;0.2084;0.0325;
2510967887786;-0.0527;0.0848;-0.0059;
2510977995806;-0.0730;-0.0620;-0.0144;
2510988094556;-0.0581;-0.0876;0.0846;
2510998202629;-0.0325;-0.0834;0.0218;
2511008310650;0.0953;0.2883;0.0048;
2511018409036;0.0016;-0.0205;0.0442;
2511028517109;-0.0229;-0.4061;0.1240;
2511038625129;0.0570;0.0125;0.0611;
2511048736431;0.0506;0.1573;0.0453;
2511058844504;-0.0293;-0.1632;0.0558;
2511068952525;-0.0495;-0.1419;-0.0176;
2511079085702;0.0005;0.0827;-0.0112;
2511089193775;0.0101;0.1264;0.0314;
2511099301796;-0.0399;-0.0642;0.0069;
2511109417369;0.0218;0.0465;0.0378;
2511119525442;0.0836;0.2233;0.0144;
2511129633463;0.0602;0.0838;0.0378;
2511139723098;0.0091;-0.0482;0.0186;
2511149831119;0.0399;-0.0663;0.1027;
2511159939192;-0.0069;-0.0652;0.0814;
2511170055077;-0.0218;-0.0727;0.0218;
2511180163098;0.0123;-0.0748;0.0080;
2511190271171;-0.0037;0.0242;0.0293;
2511200375390;-0.0016;-0.0045;0.0197;
2511210483463;0.0293;0.0221;0.0995;
2511220591484;0.0549;0.0795;0.0877;
2511230701848;0.0527;-0.0162;0.0867;
2511240809921;0.0389;-0.0461;0.1069;
2511250917942;-0.0165;0.0189;0.0984;
2511261028515;-0.0229;0.0008;0.0325;
2511271136588;0.0517;0.0795;0.0739;
2511281244609;-0.0091;0.0869;0.0984;
2511291351275;-0.0197;-0.0706;0.0483;
2511301459296;-0.0559;-0.0290;0.0304;
2511311567369;-0.0378;0.0232;0.0410;
2511321680286;-0.0005;0.0146;0.0462;
2511331788359;0.0197;-0.0929;0.1122;
2511341896379;-0.0016;0.0157;0.0792;
2511351988619;0.0176;0.1306;0.0771;
2511362096692;-0.0165;0.1178;0.1676;
2511372204713;-0.0399;-0.0450;0.1208;
2511382319609;-0.0549;-0.0418;0.0803;
2511392427681;-0.0346;0.0838;0.0728;
2511402535702;-0.0368;0.0806;0.0803;
2511412639765;-0.1081;-0.0663;0.0888;
2511422747838;-0.0730;-0.0386;0.1091;
2511432855859;-0.0133;-0.0141;0.0995;
2511442980390;-0.0165;-0.0375;0.1442;
2511453088411;-0.0346;-0.0003;0.1304;
2511463196484;-0.0740;-0.0301;0.1208;
2511473287473;-0.0762;-0.0866;0.0909;
2511483395494;-0.0474;-0.1015;0.1091;
2511493503567;-0.0336;0.0582;0.1325;
2511503605494;-0.0261;0.0379;0.0877;
2511513713515;-0.1145;-0.0631;0.1154;
2511523821588;-0.0442;0.0763;0.0909;
2511533931640;0.0559;0.1743;0.1197;
2511544039713;-0.0421;0.0667;0.0888;
2511554147734;-0.0932;-0.0610;0.1208;
2511564249036;-0.0858;0.0242;0.0696;
2511574357056;-0.0708;0.0401;0.0803;
2511584465129;-0.1550;-0.0812;0.0622;
2511594583202;-0.1294;-0.0226;0.0378;
2511604691119;-0.0698;0.0646;0.0696;
2511614799036;-0.1209;0.0296;0.0421;
2511624902265;-0.1188;0.0401;-0.0154;
2511635010181;-0.1369;-0.0226;0.0569;
2511645118098;-0.1571;-0.1941;0.0771;
2511655223723;-0.1518;-0.2208;0.0431;
2511665331640;-0.0314;0.0539;0.0133;
2511675439556;-0.1369;0.0443;0.0112;
2511685540390;-0.1262;-0.0258;0.0016;
2511695648306;-0.1198;0.0656;-0.0282;
2511705756223;-0.1028;0.1541;-0.0453;
2511715876640;-0.1326;0.0529;-0.0059;
2511725984556;-0.1965;-0.0375;-0.0634;
2511736092473;-0.1752;-0.0450;-0.0634;
2511746202056;-0.0304;0.0264;-0.0186;
2511756309973;-0.0538;0.0210;0.0048;
2511766417890;-0.0868;0.1157;-0.0410;
2511776524192;-0.1166;0.0699;-0.0357;
2511786632109;-0.1795;-0.1324;-0.0719;
2511796740025;-0.1081;-0.0514;-0.0602;
2511806840859;-0.0719;-0.0205;-0.0581;
2511816948775;-0.1188;-0.1206;-0.0453;
2511827056692;-0.1039;-0.0812;-0.0602;
2511837166223;-0.0442;0.0678;-0.0197;
2511847274140;-0.0314;0.0880;-0.0154;
2511857382056;-0.0517;0.0454;-0.0442;
2511867502838;-0.1209;0.0115;-0.0868;
2511877610702;-0.1007;0.0486;-0.0836;
2511887718619;-0.1443;-0.0269;-0.0858;
2511897806223;-0.1390;-0.1206;-0.0708;
2511907914140;-0.0719;-0.0312;-0.0953;
2511918022056;-0.0900;-0.0589;-0.0623;
2511928150286;-0.0623;-0.0290;-0.0314;
2511938258202;-0.0485;0.1168;-0.0336;
2511948366119;-0.0240;0.1168;-0.0314;
2511958453931;-0.1028;-0.0130;-0.0378;
2511968561848;-0.1284;-0.0578;-0.0687;
2511978669765;-0.0740;0.0806;-0.0836;
2511988786431;-0.1103;0.1029;-0.0804;
2511998894348;-0.1507;-0.0620;-0.0815;
2512009002265;-0.1220;0.0326;-0.1124;
2512019104973;-0.1060;0.0264;-0.1252;
2512029212890;-0.0783;0.0051;-0.0783;
2512039320806;-0.0613;0.0497;-0.0676;
2512049427786;-0.0229;-0.0620;-0.0357;
2512059535702;-0.0197;-0.0759;-0.0559;
2512069643619;0.0282;0.0040;-0.0985;
2512079752890;0.0272;0.0264;-0.0581;
2512089860806;-0.0527;-0.0557;-0.0421;
2512099968723;-0.1113;-0.1664;-0.0719;
2512110081536;-0.0772;-0.0770;-0.1007;
2512120189452;-0.0613;0.0624;-0.1465;
2512130297369;-0.0538;-0.0162;-0.1092;
2512140405181;0.0112;0.0742;-0.0911;
2512150513098;0.0240;0.1903;-0.1081;
2512160621015;-0.0293;0.0221;-0.0889;
2512170719765;-0.0559;-0.1174;-0.0815;
2512180827681;-0.0357;-0.0610;-0.0719;
2512190935598;-0.0389;-0.0141;-0.1103;
2512201028046;-0.0783;-0.0077;-0.1433;
2512211135859;-0.0644;0.0083;-0.1252;
2512221243775;-0.0208;0.0976;-0.0879;
2512231351640;-0.0250;0.0688;-0.1411;
2512241491223;-0.0208;-0.0109;-0.1273;
2512251599140;0.0059;-0.0770;-0.1028;
2512261707056;0.0154;-0.2517;-0.1017;
2512271813098;-0.0101;-0.2900;-0.1156;
2512281921015;0.0016;0.0104;-0.1667;
2512292028931;-0.0581;-0.0013;-0.1401;
2512302138723;-0.0794;-0.1462;-0.1561;
2512312246640;0.0048;0.0326;-0.1731;
2512322354556;0.0666;0.2499;-0.2338;
2512332457890;0.0538;0.1061;-0.1891;
2512342565806;-0.0293;0.0029;-0.1752;
2512352673723;0.0314;0.0433;-0.1582;
2512362783359;0.0687;0.0200;-0.1166;
2512372891275;0.0794;0.0136;-0.1411;
2512382999192;0.1688;0.1743;-0.1987;
2512393127056;0.1475;0.0326;-0.1497;
2512403234973;0.0879;-0.1068;-0.1092;
2512413342890;0.0996;0.1051;-0.1358;
2512423427056;0.1177;-0.0407;-0.1401;
2512433534973;0.1103;-0.1664;-0.1113;
2512443642890;0.0698;-0.0929;-0.1092;
2512453749348;0.1198;0.0200;-0.0666;
2512463857265;0.1593;0.0550;-0.0517;
2512473965181;0.1465;-0.0109;-0.0336;
2512484082525;0.0985;0.0699;-0.1060;
2512494190442;0.0996;0.0997;-0.0921;
2512504298359;0.0410;-0.0344;-0.0485;
2512514383515;0.0314;-0.0951;-0.0378;
2512524491431;0.0943;-0.0226;-0.0485;
2512534599348;0.0826;0.0200;-0.0410;
2512544719765;0.0602;-0.0525;-0.0463;
2512554827681;0.0399;-0.0695;-0.0336;
2512564935598;0.1081;-0.0514;0.0133;
2512575044609;0.0879;-0.0727;0.0336;
2512585152525;0.0985;-0.0599;0.0016;
2512595260442;0.1039;0.0296;-0.0091;
2512605373723;0.1007;0.0232;0.0176;
2512615481640;0.0783;-0.0312;0.0325;
2512625589556;0.0847;-0.0152;-0.0197;
2512635686015;0.1177;0.0688;-0.0325;
2512645793931;0.0964;0.0784;0.0112;
2512655901848;0.1113;0.0157;0.0378;
2512666020859;0.1071;-0.0269;0.0782;
2512676128775;0.1049;0.0019;0.0483;
2512686236692;0.0868;-0.0013;0.0069;
2512696347056;0.0847;0.0379;0.0505;
2512706454973;0.0889;0.1349;0.0421;
2512716562890;0.0474;-0.0525;0.0357;
2512726663515;0.0506;-0.0866;0.0473;
2512736771431;0.0794;0.0774;0.0229;
2512746879348;0.1092;0.0656;0.0208;
2512756992890;0.0474;-0.0866;0.1037;
2512767100806;0.0858;-0.0386;0.0909;
2512777208723;0.1497;0.0603;0.0814;
2512787305859;0.0644;-0.0024;0.0250;
2512797413775;0.0474;0.0433;0.0144;
2512807521692;0.0698;0.0497;0.0696;
2512817659973;0.0250;-0.1260;0.0643;
2512827767890;0.0176;-0.1270;0.0336;
2512837875806;0.0538;0.0274;0.0357;
2512847951171;0.0634;0.0454;0.0389;
2512858059088;0.1007;0.0571;0.0505;
2512868167004;0.0826;0.0146;0.0835;
2512878308827;0.0932;0.0178;0.0421;
2512888416744;0.0783;0.0529;0.0208;
2512898524661;0.0730;0.0497;0.0442;
2512908602473;0.0133;0.0104;0.0526;
2512918710390;0.0463;-0.0312;0.0494;
2512928818306;0.0346;-0.0375;0.0728;
2512938936431;0.0591;0.0411;0.0442;
2512949044348;0.0836;0.0539;0.0431;
2512959152265;0.0730;-0.0067;0.0718;
2512969275286;0.0794;-0.0525;0.1208;
2512979383202;0.1241;-0.0525;0.1016;
2512989491119;0.0698;-0.0141;0.0494;
2512999599869;0.0591;0.0125;0.0579;
2513009707786;0.0101;0.0157;0.0920;
2513019815702;0.0346;0.0051;0.0920;
2513029893411;0.0378;0.0029;0.1016;
2513040001327;-0.0218;0.0136;0.0601;
2513050109244;0.0133;0.0390;0.0846;
2513060227161;-0.0208;0.0337;0.0952;
2513070335077;0.0123;-0.0333;0.1314;
2513080442994;-0.0154;-0.0748;0.1005;
2513090555442;0.0250;-0.0130;0.0654;
2513100663359;0.0485;0.0401;0.0856;
2513110771275;0.0037;0.0029;0.1272;
2513120872681;-0.0293;-0.0205;0.1250;
2513130980598;0.0133;-0.0130;0.0984;
2513141088515;-0.0176;-0.0130;0.1186;
2513151203723;-0.0069;0.0497;0.0920;
2513161311640;-0.0240;0.0965;0.0931;
2513171419556;-0.0634;-0.0035;0.1378;
2513181526015;-0.0506;-0.0503;0.1666;
2513191633931;0.0389;0.0603;0.1048;
2513201741848;0.0154;0.1051;0.1037;
2513211861952;-0.0687;0.0072;0.1091;
2513221969869;-0.0644;0.0136;0.1250;
2513232077786;-0.0815;-0.0290;0.1346;
2513242180181;-0.0932;-0.0205;0.1154;
2513252288098;-0.0474;-0.0024;0.1048;
2513262396015;-0.0911;-0.0333;0.1208;
2513272504973;-0.1039;0.0008;0.1208;
2513282612890;-0.0389;-0.0003;0.1165;
2513292720806;-0.0282;-0.0056;0.0877;
2513302827786;-0.0485;-0.0184;0.0909;
2513312935702;-0.0836;-0.0652;0.0835;
2513323043619;-0.0836;-0.0194;0.0846;
2513333148515;-0.0889;0.0061;0.0803;
2513343256431;-0.0399;0.0348;0.0675;
2513353364348;-0.0474;0.0656;0.0941;
2513363461640;-0.0293;0.0816;0.1080;
2513373569556;-0.0559;0.0326;0.0931;
2513383677473;-0.0634;-0.0535;0.0941;
2513393784869;-0.0186;-0.0248;0.0760;
2513403892786;-0.0368;0.0475;0.0739;
2513414000702;-0.0772;-0.0024;0.0696;
2513424114348;-0.0698;-0.0290;0.0675;
2513434222265;-0.0985;-0.0120;0.1059;
2513444330181;-0.0836;-0.0109;0.0760;
2513454446848;-0.0900;-0.0429;0.0304;
2513464554765;-0.0708;-0.0290;0.0590;
2513474662681;-0.0900;-0.0471;0.1282;
2513484764869;-0.0602;-0.0407;0.1027;
2513494872786;-0.0176;0.0774;0.0218;
2513504980702;-0.0527;0.0859;0.0421;
2513515106327;-0.1081;-0.0109;0.0643;
2513525214244;-0.1049;0.0040;0.0229;
2513535322161;-0.1411;0.0072;-0.0005;
2513545401223;-0.1326;-0.0322;0.0304;
2513555509140;-0.1113;0.0125;0.0399;
2513565617056;-0.0602;0.0997;0.0314;
2513575732161;-0.0602;0.0816;0.0590;
2513585840077;-0.1166;-0.0109;0.0304;
2513595947994;-0.0602;0.0465;-0.0027;
2513606064348;-0.0762;-0.0013;0.0091;
2513616172317;-0.1028;-0.1142;0.0240;
2513626280286;-0.0900;-0.0312;0.0112;
2513636390702;-0.1124;-0.0237;-0.0208;
2513646498671;-0.1390;-0.0354;-0.0027;
2513656606640;-0.0751;-0.0109;-0.0101;
2513666709140;-0.0474;-0.0013;0.0059;
2513676817109;-0.0613;-0.0013;0.0293;
2513686925077;-0.0751;-0.0130;0.0048;
2513697051015;-0.0783;0.0083;-0.0495;
2513707158984;-0.0815;0.0827;-0.0442;
2513717266952;-0.0858;0.0507;-0.0314;
2513727348515;-0.1220;0.0305;-0.0517;
2513737456536;-0.0943;0.0168;-0.0336;
2513747564504;-0.1156;-0.0695;-0.0154;
2513757678098;-0.0655;-0.0578;-0.0165;
2513767786067;-0.0644;0.0189;0.0059;
2513777894036;-0.0740;0.0051;-0.0229;
2513788008098;-0.0794;-0.0983;-0.0186;
2513798116119;-0.0495;-0.0130;-0.0240;
2513808224088;-0.0368;0.0433;-0.0218;
2513818316588;-0.0953;0.0401;-0.0453;
2513828424556;-0.1007;0.0486;-0.0399;
2513838532525;-0.1177;0.0072;-0.0421;
2513848657369;-0.1124;-0.0269;-0.0549;
2513858765338;-0.0527;0.0688;-0.0144;
2513868873359;-0.1134;0.0795;0.0048;
2513878955806;-0.0762;-0.0301;-0.0069;
2513889063775;-0.0570;0.0550;-0.0602;
2513899171744;-0.0336;0.0667;-0.0836;
2513909294973;-0.0346;0.0603;-0.0272;
2513919402942;-0.0804;0.0401;-0.0517;
2513929510911;-0.1177;-0.0461;-0.0218;
2513939616744;-0.1358;-0.0823;-0.0559;
2513949724713;-0.0815;-0.0301;-0.0676;
2513959832681;-0.0666;0.1125;-0.0943;
2513969955390;-0.0208;0.0965;-0.0368;
2513980063359;-0.0389;-0.0269;0.0229;
2513990171327;-0.0410;-0.0205;-0.0804;
2514000272525;-0.0112;-0.0216;-0.0975;
2514010380494;-0.0474;-0.0205;-0.1252;
2514020488463;-0.0517;-0.0663;-0.1369;
2514030592161;-0.1103;-0.0897;-0.1358;
2514040700129;-0.0613;-0.0077;-0.1230;
2514050808098;-0.0506;-0.0333;-0.1220;
2514060915286;-0.0495;-0.0780;-0.1454;
2514071023254;-0.0229;-0.0897;-0.1007;
2514081131223;0.0123;-0.0610;-0.0996;
2514091235806;0.0389;0.0189;-0.1060;
2514101343775;0.0197;0.0125;-0.1369;
2514111451744;0.0144;0.0210;-0.1486;
2514121567890;0.0325;0.1370;-0.1241;
2514131675859;-0.0037;0.1274;-0.1624;
2514141783827;-0.0868;0.0221;-0.1316;
2514151888098;-0.0613;-0.0130;-0.1390;
2514161996067;0.0250;0.0667;-0.1049;
2514172104036;0.0282;0.0880;-0.1081;
2514182209036;0.0506;0.0731;-0.0730;
2514192317004;-0.0101;-0.0067;-0.0879;
2514202425025;0.0176;-0.0184;-0.1145;
2514212546952;0.0431;0.0146;-0.0559;
2514222654921;-0.0154;-0.0525;-0.0836;
2514232762890;-0.0165;-0.0525;-0.0708;
2514242862890;-0.0527;0.0072;-0.0889;
2514252970859;-0.0559;-0.0035;-0.0783;
2514263078827;-0.0080;0.0316;-0.0495;
2514273228359;0.0037;0.0210;-0.0346;
2514283336327;-0.0059;-0.0003;-0.0591;
2514293444296;-0.0048;-0.0035;-0.0858;
2514303505598;-0.0123;-0.0407;-0.0996;
2514313613567;-0.0059;-0.0407;-0.0751;
2514323721536;0.0112;0.0019;-0.0698;
2514333829869;-0.0293;-0.0354;-0.0687;
2514343937838;-0.0336;-0.0354;-0.0858;
2514354045806;-0.0112;0.0093;-0.1177;
2514364156692;0.0027;0.0433;-0.0740;
2514374264661;0.0368;0.0944;-0.0762;
2514384372629;0.0399;0.1040;-0.1017;
2514394497577;0.0357;0.0253;-0.1177;
2514404605598;0.0463;0.0997;-0.1230;
2514414713567;0.0772;0.1466;-0.1497;
2514424797786;0.0197;0.0008;-0.1656;
2514434905754;-0.0399;-0.0780;-0.1411;
2514445013723;0.0250;-0.0407;-0.1198;
2514455136223;0.0421;-0.0759;-0.1390;
2514465244192;0.0591;-0.1111;-0.1656;
2514475352161;0.0506;-0.1292;-0.1465;
2514485441015;0.1113;-0.0823;-0.1348;
2514495548984;0.1710;-0.0120;-0.1443;
2514505656952;0.1305;-0.0663;-0.1316;
2514515773723;0.1284;-0.0727;-0.1124;
2514525881744;0.1816;0.0125;-0.1337;
2514535989661;0.1816;0.0880;-0.1582;
2514546092525;0.2061;0.1679;-0.1358;
2514556200494;0.1252;0.0710;-0.1326;
2514566308463;0.0879;-0.0322;-0.0623;
2514576418775;0.1049;-0.0237;-0.0463;
2514586526744;0.1816;0.0221;-0.0410;
2514596634713;0.1177;-0.0003;-0.0953;
2514606740494;0.1390;-0.0216;-0.0676;
2514616848359;0.1422;0.0518;-0.0581;
2514626956223;0.1710;0.0710;-0.0676;
2514637064192;0.1486;0.0157;-0.0304;
2514647172056;0.0730;0.0274;-0.0282;
2514657279921;0.0879;-0.0067;0.0154;
2514667383202;0.1017;-0.0525;0.0123;
2514677491119;0.1379;0.0264;0.0282;
2514687598984;0.1124;0.0422;0.0123;
2514697706744;0.0740;0.0051;0.0101;
2514707814609;0.0836;0.0221;-0.0037;
2514717922473;0.1252;-0.0322;0.0101;
2514728048515;0.0570;-0.0301;-0.0186;
2514738156379;0.0346;-0.2027;-0.0229;
2514748264244;0.0634;-0.1494;0.0154;
2514758363202;0.1539;0.0901;0.0016;
2514768471067;0.1156;0.1210;0.0218;
2514778578931;0.1188;0.0774;0.0101;
2514788711588;0.1103;0.0742;0.0453;
2514798819452;0.0911;0.0507;0.0123;
2514808927317;0.1103;0.0912;0.0325;
2514818995286;0.0687;0.0774;0.0037;
2514829103150;0.1209;0.0784;-0.0154;
2514839211015;0.0517;-0.0173;-0.0069;
2514849345286;0.0613;0.0401;-0.0144;
2514859453150;0.1188;0.1317;0.0282;
2514869561015;0.0666;-0.2474;0.0558;
2514879650806;0.0730;-0.3017;0.0675;
2514889758671;0.1273;-0.0844;0.0462;
2514899866536;0.0921;-0.0173;0.0154;
2514909993827;0.1369;-0.0290;0.0442;
2514920101692;0.1017;-0.0770;0.0378;
2514930209556;0.1113;-0.0471;0.0240;
2514940293515;0.0900;0.0040;0.0048;
2514950401379;0.1060;0.0061;0.0059;
2514960509244;0.0634;0.0083;0.0016;
2514970619452;0.0889;0.0443;0.0314;
2514980727317;0.0996;-0.0120;0.0462;
2514990835181;0.1188;-0.0301;0.0782;
2515000960390;0.1007;0.0390;0.0410;
2515011068254;0.0932;0.0561;0.0144;
2515021176119;0.0858;0.0688;0.0080;
2515031272942;0.1113;0.0285;0.0389;
2515041380806;0.0506;-0.0258;0.0261;
2515051488671;0.0921;0.0710;0.0048;
2515061595390;0.0730;0.0200;0.0357;
2515071703254;0.0314;-0.2336;0.1122;
2515081811119;0.0431;-0.1409;0.0984;
2515091912681;0.1188;-0.0471;0.0728;
2515102020546;0.0794;-0.0344;0.0771;
2515112128411;0.0708;-0.0077;0.0505;
2515122266536;0.0666;-0.0088;0.0877;
2515132374400;0.0282;-0.0280;0.0696;
2515142482265;0.0495;0.0242;0.0696;
2515152563202;0.0314;0.1093;0.0558;
2515162671067;0.0325;0.0955;0.0750;
2515172778931;-0.0655;-0.0045;0.0654;
2515182896223;-0.0549;0.0008;0.0856;
2515193004140;0.0911;0.1029;0.1186;
2515203111952;0.0282;0.0731;0.0771;
2515213236015;-0.0261;-0.0514;0.0611;
2515223343879;-0.0208;-0.0599;0.0686;
2515233451744;0.0154;-0.0525;0.0686;
2515243544036;0.0463;-0.0674;0.0846;
2515253651900;0.0325;-0.0834;0.1091;
2515263759765;-0.0059;-0.0525;0.0792;
2515273870181;0.0186;0.0200;0.0611;
2515283978046;0.0453;0.0422;0.0814;
2515294085911;0.0495;0.0646;0.1165;
2515304190702;0.0250;0.0433;0.1027;
2515314298567;0.0144;0.1423;0.0760;
2515324406431;-0.0027;0.0784;0.1059;
2515334511379;-0.0847;-0.0876;0.0803;
2515344619244;-0.1028;-0.0439;0.0622;
2515354727109;-0.0133;0.0390;0.0537;
2515364835286;0.0037;0.0752;0.0526;
2515374943150;0.0048;-0.0141;0.0909;
2515385051015;-0.0453;-0.1079;0.0824;
2515395178931;0.0314;-0.0205;0.0792;
2515405286848;-0.0261;-0.0173;0.0739;
2515415394661;-0.0144;-0.0258;0.0707;
2515425484036;-0.0218;-0.0258;0.0654;
2515435591900;-0.0644;0.0029;0.0272;
2515445699765;-0.0378;0.0433;0.0293;
2515455799244;-0.0602;0.0848;0.0304;
2515465907109;-0.0762;0.0242;0.0144;
2515476014973;-0.1166;-0.0290;0.0059;
2515486129556;-0.0442;0.0157;0.0197;
2515496237421;-0.0485;-0.0631;0.0176;
2515506345286;-0.0858;-0.1025;0.0208;
2515516457369;-0.0016;0.0136;0.0378;
2515526565234;0.0101;0.0763;0.0336;
2515536673098;0.0005;0.0136;-0.0218;
2515546781119;0.0048;0.0253;-0.0123;
2515556888984;0.0165;0.0742;-0.0037;
2515566996848;0.0101;0.0806;0.0037;
2515577096119;-0.0495;-0.0663;0.0208;
2515587203984;-0.0783;-0.1814;0.0473;
2515597311848;0.0889;0.1104;0.0357;
2515607421900;-0.0325;0.0157;-0.0485;
2515617529765;-0.0240;-0.1462;0.0357;
2515627637629;-0.0250;-0.0887;0.0250;
2515637745598;0.0943;0.1061;-0.0378;
2515647853515;0.0602;0.1605;-0.0570;
2515657961379;-0.0655;-0.0738;-0.0453;
2515668073723;-0.0943;-0.1611;0.0282;
2515678181588;-0.0069;0.0422;0.0357;
2515688289504;0.0740;0.1061;0.0091;
2515698384869;0.0059;0.0699;-0.0293;
2515708492786;-0.0463;-0.1164;-0.0389;
2515718600650;-0.0336;-0.0535;-0.0133;
2515728762056;0.1379;0.4150;-0.0431;
2515738869973;0.0218;0.0731;-0.0570;
2515748977838;-0.0858;-0.2687;-0.0527;
2515759039973;0.0325;0.0072;-0.0378;
2515769147890;0.0069;0.0465;-0.0368;
2515779255754;-0.0133;-0.0461;-0.0357;
2515789381640;0.0059;-0.0855;-0.0069;
2515799489556;0.0485;-0.0951;0.0505;
2515809597421;0.0346;0.0200;-0.0325;
2515819719452;0.0634;-0.0695;0.0027;
2515829827369;-0.0304;-0.1643;0.0016;
2515839935234;0.0655;-0.0248;-0.0421;
2515850013619;0.1007;0.0784;-0.0613;
2515860121536;0.0144;-0.0344;-0.0240;
2515870229400;-0.0048;-0.0493;-0.0378;
2515880339556;0.0378;0.0624;0.0037;
2515890447473;0.0325;-0.0045;0.0314;
2515900555338;0.0112;0.0401;-0.0016;
2515910662890;0.0357;0.0742;-0.0570;
2515920770806;0.0186;0.0486;-0.0080;
2515930878671;0.0453;0.1413;-0.0197;
2515940990181;0.0336;0.0816;-0.0666;
2515951098098;0.0421;-0.1579;-0.0059;
2515961205963;0.0208;-0.1015;0.0473;
2515971306536;0.0357;-0.0450;0.0112;
2515981414452;0.0410;-0.0823;0.0782;
2515991522317;0.0708;-0.0365;0.0920;
2516001618202;0.0772;0.0443;0.0421;
2516011726119;0.0485;0.0838;-0.0005;
2516021833984;0.0037;0.0976;0.0389;
2516031955390;-0.0154;0.0093;0.0186;
2516042063306;-0.0048;-0.0056;0.0261;
2516052171171;0.0186;0.0104;0.0453;
2516062283202;0.0325;-0.0557;0.0643;
2516072391119;0.0165;-0.0088;0.0803;
2516082498984;0.0027;0.0253;0.0505;
2516092608306;-0.0123;-0.0908;0.0814;
2516102716223;-0.0197;-0.1622;0.0835;
2516112824088;0.0261;0.0189;0.0091;
2516122942056;0.0272;0.0656;0.0314;
2516133049973;-0.0218;-0.0897;0.0473;
2516143157838;0.0048;-0.0258;0.0378;
2516153276952;0.0442;0.0742;0.0505;
2516163384869;0.0005;0.0635;0.0569;
2516173492734;-0.0197;0.0486;0.0750;
2516183578202;-0.0080;0.0168;0.0856;
2516193686119;-0.0016;-0.0173;0.1325;
2516203793984;-0.0325;-0.0194;0.0569;
2516213909452;0.0229;0.0146;0.0250;
2516224017369;-0.0655;-0.0397;0.0579;
2516234125234;-0.0282;-0.0674;0.0654;
2516244220390;-0.0091;-0.0120;0.0421;
2516254328306;0.0059;0.0305;0.0293;
2516264436171;-0.0240;0.0146;0.0569;
2516274532265;-0.0154;0.0157;0.0654;
2516284640181;-0.0240;-0.0045;0.0739;
2516294748046;-0.0453;-0.0354;0.1112;
2516304880911;-0.0154;-0.0290;0.0399;
2516314988827;0.0027;0.0965;0.0176;
2516325096692;-0.0176;0.0997;0.0494;
2516335188619;-0.0836;-0.0067;-0.0154;
2516345296536;-0.0282;-0.0056;0.0069;
2516355404400;0.0048;0.0603;0.0048;
2516365514036;-0.0229;-0.0109;0.0133;
2516375621952;-0.0463;-0.0248;0.0399;
2516385729817;-0.0282;-0.0482;0.0399;
2516395855390;-0.0240;-0.1260;0.0622;
2516405963306;-0.0218;-0.0929;0.0357;
2516416071171;0.0410;0.0742;0.0112;
2516426169556;-0.0144;0.0614;0.0048;
2516436277473;-0.0581;-0.0706;-0.0240;
2516446385338;-0.0240;-0.0226;0.0027;
2516456507786;0.0272;0.1200;-0.0048;
2516466615702;-0.0091;-0.0003;-0.0069;
2516476723567;-0.0591;-0.0620;0.0325;
2516486808098;0.0059;0.0221;0.0368;
2516496916015;-0.0368;-0.0184;0.0282;
2516507023879;0.0123;0.0104;-0.0027;
2516517150442;0.0123;0.1200;0.0016;
2516527258359;-0.0272;0.0742;0.0005;
2516537366223;-0.0602;-0.0258;0.0080;
2516547454713;0.0059;-0.0429;0.0005;
2516557562577;0.0218;-0.0024;0.0293;
2516567670442;0.0080;0.0178;0.0037;
2516577787265;-0.0229;-0.0280;0.0368;
2516587895181;-0.0091;0.0029;0.0622;
2516598003046;-0.0240;-0.0237;0.0293;
2516608095286;-0.0005;-0.0280;0.0005;
2516618203202;0.0186;0.0465;0.0101;
2516628311067;-0.0218;-0.0067;0.0346;
2516638432265;-0.0059;0.0264;-0.0005;
2516648540181;-0.0410;0.0784;-0.0304;
2516658648046;-0.0144;0.0593;-0.0229;
2516668739765;-0.0272;0.0379;0.0325;
2516678847629;0.0027;0.0454;0.0515;
2516688955546;-0.0368;-0.0226;0.0357;
2516699076119;-0.0346;-0.1121;0.0154;
2516709183984;-0.0101;-0.0493;0.0101;
2516719291900;0.0048;-0.0035;0.0112;
2516729418931;-0.0048;-0.0109;-0.0176;
2516739526848;-0.0272;-0.0407;-0.0037;
2516749634713;-0.0165;-0.0471;0.0069;
2516759724921;0.0421;-0.0024;0.0165;
2516769832838;-0.0144;0.0051;0.0250;
2516779940702;0.0112;0.0242;0.0389;
2516790056223;-0.0154;0.0475;0.0654;
2516800164088;-0.0314;0.0104;0.0165;
2516810272004;-0.0123;0.0614;0.0186;
2516820373723;-0.0208;0.0678;-0.0133;
2516830481588;-0.0368;-0.0290;0.0229;
2516840589504;-0.0666;-0.0450;-0.0549;
2516850694973;0.0091;-0.0109;-0.0336;
2516860802838;0.0059;-0.0109;0.0165;
2516870910754;0.0261;0.0093;0.0558;
2516881017525;0.0112;-0.0067;0.0803;
2516891125390;-0.0144;-0.0652;0.0792;
2516901233306;-0.0112;0.0136;0.0250;
2516911346327;0.0059;0.1232;-0.0005;
2516921454244;-0.0581;0.0561;0.0165;
2516931562109;-0.0644;0.0072;0.0048;
2516941671327;-0.0378;0.0827;0.0048;
2516951779192;-0.0538;0.0465;-0.0016;
2516961887109;-0.0304;-0.0109;0.0069;
2516972004452;-0.0559;-0.0354;0.0558;
2516982112317;-0.0154;-0.0407;0.0696;
2516992220234;-0.0346;-0.0407;0.0473;
2517002360286;-0.0613;-0.0716;0.0112;
2517012468150;-0.0282;-0.0652;0.0261;
2517022576067;-0.0101;-0.0141;0.0357;
2517032650702;-0.0485;-0.0184;0.0165;
2517042758567;-0.0314;-0.0024;-0.0186;
2517052866484;0.0048;0.0550;0.0250;
2517062974192;-0.0272;0.0454;0.0357;
2517073082109;-0.0208;0.0051;0.0526;
2517083189973;-0.0559;-0.0312;0.0643;
2517093291536;-0.0559;-0.0386;0.0176;
2517103399400;-0.0165;-0.0418;0.0590;
2517113507317;-0.0676;-0.0482;0.0325;
2517123616119;-0.0357;-0.0226;-0.0069;
2517133723984;-0.0591;-0.0003;-0.0229;
2517143831900;-0.0591;-0.0067;0.0240;
2517153923931;-0.0250;0.0561;0.0112;
2517164031848;0.0048;0.0859;0.0027;
2517174139713;-0.0676;-0.0099;0.0368;
2517184255025;-0.0208;-0.0258;0.0368;
2517194362890;-0.0591;0.0264;0.0208;
2517204470806;-0.0282;0.0539;0.0208;
2517214575546;-0.0644;-0.0152;0.0037;
2517224683411;-0.0581;-0.0226;-0.0282;
2517234791275;-0.0559;-0.0557;0.0165;
2517244905286;-0.0858;-0.1505;0.0272;
2517255013150;-0.0069;-0.0258;-0.0112;
2517265121067;0.0037;0.0401;-0.0112;
2517275262473;-0.0431;-0.0866;0.0176;
2517285370390;-0.0559;-0.0770;0.0462;
2517295478254;-0.0623;-0.0450;0.0240;
2517305560806;-0.0410;-0.0099;0.0314;
2517315668671;-0.0325;0.0422;-0.0123;
2517325776588;-0.0485;0.0422;-0.0293;
2517335900390;-0.0517;0.0667;-0.0080;
2517346008306;-0.0368;0.0486;0.0304;
2517356116171;-0.0250;0.1125;0.0176;
2517366221640;-0.0272;0.0529;0.0133;
2517376329504;-0.0602;-0.0269;0.0304;
2517386437421;-0.0389;0.0178;0.0346;
2517396533098;-0.0357;0.0433;0.0101;
2517406640963;-0.0581;0.0912;0.0314;
2517416748879;-0.0581;0.1189;0.0314;
2517426856327;-0.0889;0.0561;-0.0048;
2517436964192;-0.0879;0.0827;0.0080;
2517447072109;-0.1220;0.0571;0.0059;
2517457199348;-0.0889;0.0296;0.0410;
2517467307265;-0.0921;0.0539;0.0526;
2517477415129;-0.0911;0.0051;0.0675;
2517487512942;-0.1220;-0.0173;0.0165;
2517497620859;-0.0964;-0.0375;-0.0080;
2517507728723;-0.0921;-0.0375;0.0101;
2517517815494;-0.0868;-0.0216;-0.0229;
2517527923359;-0.0932;-0.0322;0.0016;
2517538031223;-0.1134;-0.0312;-0.0314;
2517548150077;-0.0804;-0.0248;-0.0463;
2517558257994;-0.0463;0.0061;-0.0229;
2517568365859;-0.0644;0.0264;-0.0112;
2517578470077;-0.0368;0.0443;0.0133;
2517588577994;-0.0719;0.0136;0.0123;
2517598685859;-0.0666;0.0093;-0.0197;
2517608814244;-0.0932;-0.0269;-0.0229;
2517618922213;-0.0730;-0.0045;-0.0549;
2517629030181;-0.0570;0.0274;-0.0613;
2517639135286;-0.0964;-0.1302;-0.0240;
2517649243254;-0.0655;-0.0855;-0.0538;
2517659351223;-0.0016;0.1029;-0.0634;
2517669456536;-0.0368;0.0433;-0.0826;
2517679564504;-0.0506;-0.0578;-0.0506;
2517689672473;-0.0698;-0.0141;-0.0836;
2517699758306;-0.0027;0.0582;-0.0517;
2517709866275;-0.0581;0.0390;-0.0815;
2517719974244;-0.0666;0.0168;-0.1316;
2517730092265;-0.0538;0.0411;-0.1316;
2517740200234;-0.0602;-0.0109;-0.1134;
2517750308202;0.0016;0.1445;-0.1071;
2517760414556;-0.0112;0.0189;-0.0964;
2517770522525;-0.0229;-0.2336;-0.0517;
2517780630494;0.1944;0.2403;-0.0953;
2517790740286;0.1624;0.3479;-0.1443;
2517800848254;-0.1443;-0.2559;-0.0474;
2517810956223;-0.1230;-0.3955;-0.0123;
2517821064556;-0.0048;-0.0109;-0.1113;
2517831172525;0.0165;0.1743;-0.1443;
2517841280494;-0.0495;-0.0397;-0.0953;
2517851387109;-0.0346;-0.1707;-0.0591;
2517861495077;-0.0037;0.0646;-0.1039;
2517871603046;0.0389;0.1146;-0.0559;
2517881701952;-0.0453;-0.0077;-0.0485;
2517891809921;-0.0751;-0.2506;-0.0783;
2517901917890;-0.1113;-0.2708;-0.0847;
2517912031640;0.0740;0.3565;-0.1326;
2517922139609;0.0442;0.3682;-0.1241;
2517932247577;-0.1124;-0.0770;-0.0804;
2517942354556;-0.1017;-0.0972;-0.1145;
2517952462577;0.0261;0.1178;-0.1145;
2517962570494;0.0570;0.0443;-0.0655;
2517972680390;-0.0453;-0.2091;-0.0240;
2517982788359;-0.0410;-0.1057;-0.0794;
2517992896327;0.0570;0.1168;-0.0602;
2518002998411;-0.0208;-0.0290;-0.0421;
2518013106379;-0.0676;-0.0983;-0.0847;
2518023214348;0.0048;0.0880;-0.1305;
2518033328306;-0.0613;-0.0056;-0.0943;
2518043436275;-0.0506;-0.1292;-0.0911;
2518053544244;0.0176;0.0200;-0.0719;
2518063654192;0.0325;0.0571;-0.0272;
2518073762161;0.0101;-0.0035;-0.0336;
2518083870129;0.0154;0.0848;-0.0815;
2518093977890;-0.0123;0.0582;-0.0559;
2518104085859;-0.0538;-0.0972;-0.0453;
2518114193827;0.0005;-0.0280;-0.0847;
2518124310806;-0.0069;0.0125;-0.0804;
2518134418775;-0.0421;-0.0280;-0.0804;
2518144526744;-0.0027;-0.0162;-0.0826;
2518154607838;0.0687;0.0358;-0.0399;
2518164715806;0.0964;0.0486;0.0005;
2518174823775;0.0740;-0.0269;0.0080;
2518184946640;0.0357;-0.0141;-0.0655;
2518195054609;0.0783;-0.0312;-0.0368;
2518205162577;0.0101;-0.0663;-0.0197;
2518215274348;-0.0048;-0.0067;-0.0410;
2518225382317;0.0719;0.0997;-0.0517;
2518235490286;0.0421;0.0923;-0.0112;
2518245608359;-0.0080;0.0210;-0.0453;
2518255716327;0.0240;0.0316;-0.0197;
2518265824296;0.0953;0.0253;0.0218;
2518275914036;0.0613;-0.0077;-0.0080;
2518286022004;0.0900;0.1573;-0.0421;
2518296129973;0.0772;0.1253;-0.0208;
2518306246275;-0.0218;-0.1675;0.0091;
2518316354244;-0.0133;-0.1334;-0.0346;
2518326462213;0.0602;0.0093;-0.0623;
2518336559036;0.0272;-0.0258;-0.0410;
2518346667004;0.0272;-0.0748;-0.0059;
2518356774973;0.0762;-0.0312;-0.0133;
2518366882786;0.1113;0.0242;0.0378;
2518376990754;0.0634;-0.0120;-0.0123;
2518387098723;0.0474;-0.0077;-0.0506;
2518397207681;0.0048;-0.0354;-0.0325;
2518407315650;0.0069;-0.0983;-0.0176;
2518417423619;0.0602;0.0305;-0.0272;
2518427561015;0.0346;0.0955;-0.0559;
2518437668984;0.0399;0.0411;-0.0453;
2518447776952;0.0304;-0.0109;-0.0165;
2518457836744;0.0921;-0.0226;-0.0080;
2518467944713;0.0826;-0.0077;0.0154;
2518478052629;0.0772;0.0178;-0.0176;
2518488177890;0.0463;0.0168;-0.0048;
2518498285859;0.0027;-0.0716;-0.0133;
2518508393827;0.0165;-0.0919;-0.0091;
2518518489869;0.0517;0.0125;-0.0080;
2518528597838;0.0410;0.0624;-0.0005;
2518538705806;0.0314;0.0189;-0.0123;
2518548832786;0.0314;0.0401;-0.0144;
2518558940754;0.1007;0.0731;0.0261;
2518569048723;0.0868;0.0285;0.0654;
2518579171536;0.0538;-0.0354;0.0431;
2518589279504;0.0282;0.0072;0.0547;
2518599387473;0.0123;0.0221;0.0389;
2518609492994;0.0112;-0.0695;0.0069;
2518619600963;0.0069;-0.0716;0.0442;
2518629708879;0.0708;-0.0077;0.0526;
2518639792577;0.0485;0.0710;0.0346;
2518649900546;0.0613;0.0614;0.0622;
2518660008463;0.0634;-0.0322;0.0835;
2518670116744;0.0410;-0.0397;0.0739;
2518680224713;0.0517;0.0221;0.0590;
2518690332629;0.0293;0.0232;0.0920;
2518700442525;-0.0069;-0.0386;0.0707;
2518710550494;-0.0165;-0.0727;0.0696;
2518720658411;-0.0112;0.0072;0.0357;
2518730774661;0.0623;0.1157;0.0526;
2518740882629;-0.0123;-0.0120;0.0707;
2518750990546;-0.0389;-0.0493;0.0856;
2518761102786;0.0261;0.0189;0.0771;
2518771210754;-0.0101;-0.0088;0.0176;
2518781318671;0.0059;0.0008;0.0293;
2518791420286;-0.0474;0.0285;0.0473;
2518801528254;0.0059;0.0210;0.0505;
2518811636171;-0.0474;-0.0162;0.0515;
2518821752265;-0.0048;0.0232;0.0069;
2518831860234;0.0080;0.0784;0.0112;
2518841968150;0.0005;0.0061;0.0080;
2518852074452;-0.0272;-0.0770;0.0867;
2518862182421;-0.0069;-0.0535;0.0675;
2518872290338;0.0495;-0.0067;-0.0027;
2518882395286;0.0080;0.0667;-0.0144;
2518892503254;-0.0272;0.0401;0.0080;
2518902611171;-0.0421;-0.0269;0.0037;
2518912720286;0.0037;0.0285;0.0272;
2518922828254;0.0112;0.0561;0.0399;
2518932936171;-0.0027;-0.0205;0.0314;
2518943040859;-0.0069;-0.0386;0.0304;
2518953148775;0.0282;-0.0248;0.0569;
2518963256744;0.0623;0.0667;0.0632;
2518973378098;0.0154;0.0603;-0.0314;
2518983486067;-0.0399;-0.0557;-0.0123;
2518993593984;-0.0368;-0.0141;0.0027;
2519003683723;0.0027;-0.0152;0.0368;
2519013791692;-0.0431;-0.1047;0.0389;
2519023899609;-0.0112;-0.0375;0.0091;
2519033991223;0.0144;0.0379;-0.0112;
2519044099192;0.0123;0.0624;0.0558;
2519054207109;0.0123;0.0497;0.0750;
2519064328931;0.0218;0.0029;0.0186;
2519074436900;0.0186;0.0337;0.0186;
2519084544817;0.0037;0.0507;0.0515;
2519094653359;-0.0293;0.0051;0.0346;
2519104761327;-0.0421;-0.0589;0.0410;
2519114869244;-0.0229;-0.0407;0.0483;
2519124992786;-0.0069;-0.0194;0.0558;
2519135100754;0.0027;0.0285;0.0357;
2519145208671;-0.0016;0.0168;0.0558;
2519155292369;0.0069;-0.0695;0.0846;
2519165400338;-0.0197;-0.0738;0.0654;
2519175508254;0.0218;0.0401;0.0421;
2519185627161;-0.0218;0.0337;0.0431;
2519195735129;-0.0378;-0.0141;0.0505;
2519205843046;-0.0474;-0.0216;0.0579;
2519215965286;-0.0282;-0.0162;0.0696;
2519226073254;-0.0346;-0.0407;0.0803;
2519236181171;-0.0399;-0.0589;0.0696;
2519246280859;-0.0368;-0.0631;0.0750;
2519256388827;-0.0506;-0.1121;0.0952;
2519266496744;0.0282;0.0667;0.0782;
2519276608202;-0.0463;-0.0141;0.0357;
2519286716171;-0.0485;-0.0727;0.0611;
2519296824088;-0.0346;0.1157;0.0664;
2519306918306;-0.0378;0.1541;0.0462;
2519317026275;-0.0804;0.0635;0.0399;
2519327134192;-0.0804;0.0369;0.0590;
2519337244973;-0.0751;0.1189;0.0664;
2519347352942;-0.0517;0.1296;0.0995;
2519357460859;-0.0911;0.0146;0.1005;
2519367639192;-0.0826;0.0688;0.0154;
2519377747109;-0.0336;-0.0269;0.0442;
2519387855025;-0.1220;-0.0237;0.0218;
2519397890963;-0.0399;0.0987;0.0133;
2519407998879;-0.1454;-0.2208;0.0208;
2519418106848;-0.1124;-0.2027;0.0165;
2519428216952;-0.0378;-0.0045;0.0272;
2519438324921;-0.0336;0.0443;0.0346;
2519448432838;-0.0698;-0.0226;0.0165;
2519458543098;-0.0730;-0.1004;-0.0101;
2519468651067;-0.0506;0.0146;-0.0431;
2519478758984;-0.0133;0.1210;-0.0229;
2519488881744;-0.0676;-0.0226;-0.0186;
2519498989713;-0.0932;-0.0471;-0.0421;
2519509097629;-0.0751;0.0136;-0.0442;
2519519196848;-0.0506;-0.0173;-0.0154;
2519529304817;-0.0527;-0.0333;-0.0485;
2519539412734;-0.0101;0.0285;0.0101;
2519549530390;-0.0165;0.0178;0.0336;
2519559638359;-0.0261;-0.0109;-0.0165;
2519569746275;0.0133;0.0774;-0.0474;
2519579833619;-0.0165;0.1051;-0.0399;
2519589941588;-0.0889;0.0125;-0.0666;
2519600049504;-0.0911;-0.0194;-0.0698;
2519610168411;-0.1060;-0.0397;-0.0676;
2519620276327;-0.0559;-0.0642;-0.0570;
2519630384244;-0.0091;0.0008;-0.0336;
2519640487369;-0.0123;0.0369;-0.0080;
2519650595286;0.0037;0.0008;-0.0165;
2519660703202;-0.0336;-0.0450;-0.0368;
2519670809973;0.0016;-0.0269;-0.0495;
2519680917890;-0.0272;-0.0109;-0.0804;
2519691025806;-0.0368;-0.0280;-0.0858;
2519701149452;-0.0559;-0.0429;-0.0421;
2519711257369;-0.0421;-0.0557;-0.0059;
2519721365286;-0.0101;0.0264;-0.0442;
2519731466536;-0.0261;0.0443;-0.0708;
2519741574452;-0.0176;0.0168;-0.0144;
2519751682369;0.0016;0.0178;-0.0101;
2519761791536;-0.0133;-0.0322;-0.0336;
2519771899452;0.0154;0.0507;-0.0495;
2519782007369;0.0048;0.1349;-0.0836;
2519792112265;-0.0591;0.0539;-0.0815;
2519802220181;-0.0794;-0.0344;-0.0474;
2519812328098;-0.0357;-0.0162;-0.0357;
2519822426536;-0.0314;-0.0301;-0.0730;
2519832534452;0.0240;-0.0152;-0.0431;
2519842642369;0.0059;0.0125;-0.0250;
2519852750390;0.0165;-0.0844;-0.0399;
2519862858306;-0.0133;-0.1196;-0.0676;
2519872966223;0.0549;0.0168;-0.0655;
2519883084244;0.0431;-0.0024;-0.0559;
2519893192161;-0.0272;-0.0834;-0.0879;
2519903300077;-0.0410;-0.0194;-0.1071;
2519913404452;0.0027;0.0061;-0.0676;
2519923512369;-0.0005;0.0146;-0.0336;
2519933620286;0.0176;0.0624;-0.0730;
2519943723411;0.0048;0.0296;-0.0602;
2519953831327;0.0197;-0.0237;-0.0144;
2519963939244;0.0059;0.0210;-0.0495;
2519974044348;0.0740;0.0838;-0.0911;
2519984152265;0.0208;0.0136;-0.0463;
2519994260181;-0.0261;-0.0716;-0.0655;
2520004383359;-0.0389;-0.0589;-0.0634;
2520014491275;-0.0144;-0.0642;-0.0261;
2520024599192;-0.0123;-0.0525;-0.0314;
2520034710702;0.0346;-0.0237;-0.0389;
2520044818619;0.0325;-0.0184;-0.0144;
2520054926536;0.0218;-0.0620;-0.0197;
2520065019140;0.0176;-0.0099;-0.0378;
2520075127056;0.0538;0.0264;-0.0091;
2520085234973;0.0346;-0.0503;-0.0016;
2520095339973;0.0123;-0.0216;0.0069;
2520105447890;-0.0091;0.0061;0.0005;
2520115555806;-0.0059;-0.0099;-0.0027;
2520125684348;0.0229;0.0806;-0.0144;
2520135792265;0.0154;0.1210;0.0250;
2520145900181;0.0144;0.0593;0.0250;
2520156004765;-0.0229;0.0136;0.0197;
2520166112681;0.0208;0.0550;0.0133;
2520176220598;0.0346;0.0891;0.0346;
2520186318619;-0.0154;-0.0088;0.0123;
2520196426536;-0.0112;0.0411;0.0133;
2520206534452;-0.0357;0.0656;0.0229;
2520216643619;-0.0517;-0.0099;-0.0048;
2520226751536;-0.0218;-0.0173;0.0282;
2520236859452;-0.0112;-0.0514;0.0739;
2520246953515;0.0101;-0.0716;0.0686;
2520257061431;-0.0080;-0.0503;0.0304;
2520267169348;-0.0112;0.0518;-0.0229;
2520277278931;0.0176;0.0763;-0.0048;
2520287386848;-0.0208;-0.0109;-0.0293;
2520297494765;-0.0091;-0.0226;-0.0282;
2520307661848;-0.0197;-0.0375;0.0059;
2520317769765;-0.0229;-0.0738;0.0059;
2520327877681;0.0240;-0.0557;0.0112;
2520337919036;0.0368;-0.0248;0.0123;
2520348026952;0.0123;0.0411;-0.0218;
2520358134869;0.0059;0.0443;-0.0549;
2520368305650;0.0016;0.0019;-0.0133;
2520378413567;0.0197;0.0348;-0.0314;
2520388521484;-0.0037;0.0348;-0.0591;
2520398578202;-0.0112;0.0200;-0.0591;
2520408686119;-0.0325;0.0200;-0.0229;
2520418794036;-0.0133;-0.0035;-0.0399;
2520428919348;0.0314;-0.0120;-0.0208;
2520439027265;0.0314;0.0242;0.0037;
2520449135181;0.0133;-0.0130;-0.0410;
2520459236327;0.0101;-0.0812;-0.0165;
2520469344244;0.0101;-0.0951;-0.0154;
2520479452161;0.0527;-0.0194;-0.0378;
2520489549556;0.0059;0.0093;-0.0304;
2520499657473;-0.0133;-0.0152;-0.0421;
2520509765390;-0.0080;-0.0194;-0.0250;
2520519888619;0.0112;-0.0365;-0.0218;
2520529996536;0.0048;0.0008;-0.0399;
2520540104452;0.0676;0.0157;0.0176;
2520550198098;0.0091;0.0221;0.0304;
2520560306015;0.0378;0.0529;-0.0293;
2520570413931;-0.0059;0.0411;-0.0176;
2520580527681;0.0154;0.0688;-0.0410;
2520590635598;-0.0059;0.0497;-0.0634;
2520600743567;-0.0080;0.0189;0.0048;
2520610868671;-0.0495;-0.0173;0.0037;
2520620976640;-0.0027;-0.0503;-0.0101;
2520631084609;0.0154;-0.0290;0.0218;
2520641171536;0.0421;-0.0365;0.0357;
2520651279504;-0.0016;-0.0099;0.0048;
2520661387473;0.0176;0.0040;0.0112;
2520671497369;-0.0304;-0.0173;0.0069;
2520681605338;0.0421;0.0264;0.0261;
2520691713306;-0.0037;0.0369;0.0154;
2520701815390;-0.0357;0.0550;0.0037;
2520711923254;-0.0463;0.0168;-0.0005;
2520722031223;-0.0272;0.0040;0.0654;
2520732149869;0.0069;0.0379;0.0728;
2520742257838;0.0069;-0.0216;0.1016;
2520752365806;-0.0250;0.0083;0.0197;
2520762483098;-0.0027;0.0253;0.0176;
2520772591067;-0.0186;-0.0269;0.0112;
2520782699036;-0.0005;-0.0237;0.0016;
2520792807473;-0.0027;0.0253;0.0272;
2520802915442;-0.0474;0.0157;0.0569;
2520813023411;-0.0517;-0.0450;0.0314;
2520823117369;-0.0666;-0.0940;0.0421;
2520833225338;-0.0165;-0.0322;0.0431;
2520843333306;0.0261;-0.0013;0.0739;
2520853435806;-0.0154;0.0242;0.0112;
2520863543775;0.0197;0.0763;0.0016;
2520873651692;0.0069;0.0125;0.0133;
2520883768723;0.0048;0.0168;-0.0250;
2520893876692;-0.0037;0.0720;-0.0431;
2520903984661;-0.0272;0.0507;-0.0368;
2520914065390;-0.0378;0.0125;0.0016;
2520924173359;-0.0027;0.0253;-0.0112;
2520934281327;0.0197;0.0221;0.0091;
2520944412681;0.0229;0.0571;0.0080;
2520954520650;0.0176;0.0296;-0.0154;
2520964628619;-0.0048;0.0337;-0.0229;
2520974749348;0.0048;-0.0067;-0.0229;
2520984857317;-0.0080;-0.0130;-0.0474;
2520994965286;-0.0048;0.0104;-0.0506;
2521005057629;-0.0314;-0.0205;-0.0559;
2521015165598;-0.0442;-0.0525;-0.0602;
2521025273567;-0.0272;-0.0823;-0.0485;
2521035366536;-0.0037;-0.0620;0.0005;
2521045474504;0.0133;-0.0237;-0.0304;
2521055582473;-0.0069;-0.0141;-0.0623;
2521065718723;0.0133;-0.0237;-0.0591;
2521075826692;0.0016;-0.0589;-0.0559;
2521085934661;0.0176;-0.0067;-0.0474;
2521096036640;-0.0091;0.0337;-0.0858;
2521106144609;0.0059;-0.0535;-0.0581;
2521116252577;0.0154;-0.0290;0.0144;
2521126356640;0.0048;-0.0013;0.0091;
2521136464609;0.0687;0.0348;-0.0346;
2521146572525;0.0346;0.0040;-0.0250;
2521156692056;0.0059;-0.0695;-0.0186;
2521166800025;0.0027;-0.0109;0.0080;
2521176907994;0.0485;0.0571;-0.0027;
2521187003619;0.0069;-0.0652;0.0048;
2521197111588;-0.0005;-0.0759;-0.0080;
2521207219556;0.0570;0.0944;0.0027;
2521217328515;0.0687;0.0955;0.0421;
2521227436484;-0.0165;0.0210;0.0272;
2521237544452;0.0389;0.1051;0.0526;
2521247646640;0.0123;0.1093;0.0186;
2521257754609;-0.0495;0.0189;-0.0016;
2521267862525;-0.0357;-0.0237;0.0293;
2521277966536;-0.0101;-0.0184;0.0186;
2521288074504;0.0101;-0.0099;0.0101;
2521298182473;0.0027;0.0624;0.0389;
2521308291119;0.0080;-0.0844;0.0208;
2521318399088;-0.0250;-0.2985;0.0686;
2521328507056;0.0091;-0.1888;0.0664;
2521338609140;0.0027;-0.0216;0.0346;
2521348717109;-0.0463;-0.1334;-0.0091;
2521358825077;-0.0176;-0.1217;0.0069;
2521368930286;-0.0112;0.0997;0.0101;
2521379038254;0.0304;0.1434;-0.0272;
2521389146223;0.0261;0.0710;-0.0272;
2521399265494;-0.0037;-0.0067;0.0240;
2521409373463;-0.0091;0.0348;0.0037;
2521419481431;0.0208;0.0475;-0.0144;
2521429588098;-0.0112;-0.0961;0.0165;
2521439696067;0.0101;-0.1569;0.0250;
2521449804036;0.0208;-0.0684;-0.0399;
2521459928098;-0.0037;-0.0450;-0.0091;
2521470036067;0.0357;-0.0216;-0.0112;
2521480144036;0.0048;-0.0503;-0.0644;
2521490241952;0.0069;-0.0716;-0.0613;
2521500349921;0.0080;-0.0216;-0.0772;
2521510457890;0.0282;0.0603;-0.0059;
2521520561015;0.0336;0.0433;0.0144;
2521530668984;0.0059;-0.0482;-0.0250;
2521540776952;0.0527;-0.0173;-0.0368;
2521550895598;0.0197;0.0285;-0.0708;
2521561003567;0.0069;0.0486;-0.0229;
2521571111536;0.0346;0.0189;-0.0453;
2521581209765;-0.0272;0.0264;-0.0847;
2521591317734;0.0101;0.0200;-0.0975;
2521601425702;-0.0101;-0.0024;-0.0655;
2521611540494;0.0240;0.0326;-0.0730;
2521621648411;0.0304;0.0667;-0.0133;
2521631756327;0.0091;-0.0407;0.0048;
2521641874036;0.0421;-0.0194;-0.0282;
2521651981952;0.0527;0.1264;-0.0410;
2521662089869;0.0261;0.1413;-0.0399;
2521672189973;-0.0399;-0.0620;-0.0197;
2521682297890;-0.0293;-0.0823;-0.0613;
2521692405806;0.0346;0.0859;-0.0336;
2521702494869;0.0059;0.0221;-0.0453;
2521712602786;0.0186;-0.0439;-0.0144;
2521722710754;0.0410;0.0029;-0.0123;
2521732826848;0.0197;-0.0237;0.0304;
2521742934765;0.0059;-0.0397;-0.0101;
2521753042734;0.0506;-0.0130;-0.0059;
2521763153723;0.0048;0.0157;-0.0112;
2521773261640;0.0165;0.0475;-0.0336;
2521783369556;0.0101;0.0051;-0.0751;
2521793491431;0.0357;-0.0024;-0.0293;
2521803599348;0.0027;-0.0130;-0.0261;
2521813707265;0.0336;0.0232;-0.0357;
2521823796952;0.0165;-0.0567;0.0250;
2521833904869;0.0293;-0.0780;-0.0048;
2521844012786;0.0410;-0.0013;-0.0123;
2521854117161;0.0154;0.0232;-0.0197;
2521864225077;0.0314;0.0348;0.0069;
2521874332994;0.0208;0.0115;0.0048;
2521884438775;0.0112;-0.0237;-0.0506;
2521894546692;-0.0144;-0.0109;-0.0719;
2521904654609;0.0197;-0.0567;-0.0005;
2521914781015;0.0112;-0.0312;0.0378;
2521924888931;0.0304;0.0296;0.0218;
2521934996848;0.0091;-0.0226;0.0091;
2521945092473;0.0346;-0.0312;-0.0123;
2521955200390;0.0229;0.0232;-0.0325;
2521965308306;0.0559;0.0710;-0.0325;
2521975426119;0.0091;0.0200;-0.0304;
2521985534036;0.0293;0.0061;-0.0463;
2521995641952;0.0431;0.0316;-0.0293;
2522005728098;0.0442;0.0146;-0.0325;
2522015836015;0.0272;0.0008;-0.0154;
2522025943931;0.0165;-0.0099;0.0027;
2522036068411;0.0261;-0.0301;0.0154;
2522046176327;0.0506;-0.0248;0.0186;
2522056284244;0.0527;0.0348;-0.0101;
2522066400181;0.0666;0.0774;0.0080;
2522076508098;0.0570;0.1264;-0.0314;
2522086616015;0.0272;0.0848;-0.0634;
2522096720286;0.0112;-0.0312;-0.0325;
2522106828202;0.0176;0.0093;0.0112;
2522116936119;0.0517;0.0221;0.0304;
2522127047786;0.0421;0.0008;0.0272;
2522137155702;0.0229;-0.0557;0.0346;
2522147263619;0.0389;-0.0866;-0.0154;
2522157366119;0.0368;-0.0322;0.0144;
2522167474088;0.0282;0.0369;0.0069;
2522177582004;0.0229;-0.0333;-0.0091;
2522187691223;0.0112;-0.0844;-0.0410;
2522197799140;0.0314;-0.0045;-0.0176;
2522207907056;0.0123;0.0635;-0.0069;
2522218007056;0.0176;0.0635;0.0101;
2522228114973;0.0069;0.0189;-0.0048;
2522238222942;0.0463;-0.0077;0.0069;
2522248317056;0.0517;-0.0333;0.0250;
2522258424973;0.0431;0.0752;-0.0208;
2522268532890;0.0399;0.0178;-0.0048;
2522278681223;0.0144;-0.0738;-0.0463;
2522288789140;0.0474;-0.0248;-0.0336;
2522298897056;0.0549;-0.0099;-0.0176;
2522308965181;0.0357;-0.0077;-0.0048;
2522319073098;0.0123;-0.0003;0.0186;
2522329181015;0.0293;-0.0322;0.0101;
2522339301223;0.0048;-0.0184;-0.0016;
2522349409140;0.0559;0.0337;-0.0325;
2522359517109;0.0186;0.0475;-0.0240;
2522369643515;0.0676;0.0774;-0.0495;
2522379751431;0.0240;0.0072;-0.0453;
2522389859400;0.0431;0.0379;-0.0506;
2522399954556;0.0453;0.0539;-0.0272;
2522410062473;0.0229;0.0008;-0.0240;
2522420170390;0.0304;-0.0099;0.0218;
2522430275442;0.0474;-0.0557;0.0325;
2522440383359;0.0453;-0.0759;-0.0250;
2522450491275;0.0421;-0.0354;-0.0357;
2522460584452;0.0453;0.0550;-0.0165;
2522470692369;0.0410;0.0539;-0.0463;
2522480800286;0.0176;-0.0365;-0.0474;
2522490929556;0.0378;0.0146;-0.0613;
2522501037473;0.0517;0.0019;-0.0453;
2522511145390;0.0399;-0.0812;-0.0197;
2522521257786;0.0442;0.0083;0.0037;
2522531365702;0.0581;0.0475;0.0336;
2522541473671;0.0368;-0.0003;-0.0357;
2522551582056;0.0517;0.0571;-0.0421;
2522561689973;0.0815;0.1168;-0.0389;
2522571797890;0.0282;0.0305;-0.0804;
2522581897369;0.0176;-0.0599;-0.0804;
2522592005286;0.0527;-0.0333;-0.0570;
2522602113202;0.0708;-0.0216;-0.0495;
2522612224973;0.0474;-0.0663;-0.0602;
2522622332890;0.0666;-0.0589;-0.0261;
2522632440806;0.0485;-0.0439;-0.0346;
2522642544140;0.0730;-0.0493;-0.0474;
2522652652056;0.0900;0.0232;-0.0389;
2522662759973;0.0762;0.0104;-0.0506;
2522672849765;0.0431;-0.0035;-0.0730;
2522682957681;0.0708;0.0475;-0.0687;
2522693065598;0.0964;0.0827;-0.0336;
2522703141015;0.1039;0.1146;-0.0304;
2522713248984;0.0783;0.1072;-0.0538;
2522723356900;0.0826;0.0869;-0.0250;
2522733505077;0.0815;0.0603;-0.0048;
2522743613046;0.0602;-0.0280;-0.0037;
2522753720911;0.0389;-0.0951;0.0005;
2522763839869;0.0676;-0.0908;-0.0123;
2522773947786;0.0336;-0.0993;0.0037;
2522784055702;0.0549;-0.1387;-0.0463;
2522794178202;0.0666;-0.1441;-0.0197;
2522804286119;0.0719;0.0189;-0.0858;
2522814394036;0.0985;0.0337;-0.0133;
2522824484609;0.0325;-0.0631;0.0154;
2522834592525;0.0325;-0.1089;0.0240;
2522844700442;0.0389;-0.0439;0.0176;
2522854802786;0.0783;0.0369;0.0091;
2522864910702;0.0527;-0.0045;-0.0357;
2522875018619;0.0357;0.0774;-0.0154;
2522885127056;0.0602;0.1061;0.0218;
2522895234973;0.0708;0.1242;-0.0314;
2522905342890;0.0815;0.1072;-0.0272;
2522915443202;0.0719;-0.0067;0.0123;
2522925551171;0.0858;0.0529;0.0760;
2522935659036;0.0538;-0.0493;0.0453;
2522945778827;0.0336;-0.1334;0.0421;
2522955886744;0.0676;0.0997;0.0462;
2522965994661;0.0943;0.1967;0.0186;
2522976113931;0.0442;0.0550;-0.0016;
2522986221848;0.0144;-0.0855;0.0144;
2522996329765;0.0485;-0.0248;0.0261;
2523006430702;0.1039;0.0253;0.0462;
2523016538619;0.0623;0.0200;0.0526;
2523026646536;0.1060;0.0635;0.0378;
2523036751692;-0.0463;-0.1451;0.0133;
2523046859661;0.0644;0.0550;0.0059;
2523056967525;0.0858;0.1775;0.0240;
2523067072577;0.0410;-0.0855;0.0091;
2523077180494;0.0197;-0.1377;-0.0133;
2523087288411;0.0421;-0.0620;0.0027;
2523097382056;0.0719;0.0008;0.0080;
2523107490025;0.0815;0.0550;-0.0123;
2523117597942;0.0996;-0.0503;0.0346;
2523127720702;0.0911;-0.0386;0.0526;
2523137828619;0.0943;-0.0152;0.0059;
2523147936536;0.0346;-0.0663;0.0197;
2523158044817;0.0634;0.0189;-0.0080;
2523168152786;0.0655;0.0401;-0.0059;
2523178260702;0.0495;-0.0897;-0.0101;
2523188357421;0.0250;-0.0684;-0.0325;
2523198465338;0.0911;0.0486;-0.0186;
2523208573306;0.1049;0.0242;0.0250;
2523218717681;0.0943;-0.1047;0.0272;
2523228825598;0.1113;-0.0493;0.0336;
2523238933567;0.1017;0.0051;0.0133;
2523249001848;0.1188;-0.0056;0.0208;
2523259109765;0.1039;-0.0397;0.0005;
2523269217681;0.0719;-0.0759;0.0250;
2523279349556;0.0889;0.0157;-0.0080;
2523289457525;0.1017;0.0401;0.0016;
2523299565442;0.1071;-0.0162;0.0186;
2523309671327;0.1358;0.0285;0.0442;
2523319779296;0.1379;0.0221;0.0718;
2523329887213;0.1241;0.0518;0.0782;
2523339978515;0.1475;0.0561;0.0824;
2523350086431;0.0826;-0.0099;0.1027;
2523360194348;0.0559;-0.0290;0.0611;
2523370312681;0.0740;0.0040;0.0632;
2523380420598;0.0751;0.0146;0.0867;
2523390528515;0.0740;-0.0461;0.0473;
2523400640338;0.1007;0.0104;0.0473;
2523410748202;0.1145;0.1125;0.0622;
2523420856119;0.0698;-0.0674;0.0963;
2523430950442;0.0410;-0.1387;0.0941;
2523441058359;0.0751;-0.0482;0.1080;
2523451166327;0.0708;-0.0024;0.1261;
2523461270702;0.0772;-0.0024;0.1005;
2523471378619;0.0889;-0.0216;0.0973;
2523481486536;0.0314;0.0348;0.0835;
2523491605286;0.0570;0.0507;0.0675;
2523501713202;0.0932;0.0083;0.0877;
2523511821119;0.0943;0.0019;0.1485;
2523521947265;0.1060;-0.0194;0.1559;
2523532055181;0.0655;0.0242;0.1314;
2523542163098;0.0527;0.0784;0.0995;
2523552260911;0.0485;-0.0099;0.1122;
2523562368827;0.0197;-0.0141;0.1112;
2523572476744;0.0357;0.0136;0.0984;
2523582571015;-0.0005;0.0232;0.1048;
2523592678931;-0.0282;-0.0280;0.0952;
2523602786848;-0.0005;-0.0812;0.1059;
2523612907369;0.0506;-0.0312;0.1176;
2523623015286;0.0655;-0.0056;0.1570;
2523633123202;0.0250;-0.0471;0.1101;
2523643221431;0.0037;-0.0216;0.0952;
2523653329348;0.0048;-0.0109;0.0963;
2523663437265;-0.0005;-0.0471;0.0963;
2523673518619;-0.0186;-0.0450;0.1091;
2523683626536;-0.0016;0.0083;0.0782;
2523693734452;-0.0080;0.0242;0.0877;
2523703858827;-0.0133;-0.0386;0.0856;
2523713966744;0.0144;-0.0535;0.0814;
2523724074661;0.0154;-0.0684;0.0963;
2523734192056;-0.0112;0.0008;0.0399;
2523744299973;0.0123;-0.0333;0.1069;
2523754407890;-0.0293;-0.0951;0.0973;
2523764522525;0.0368;0.1338;0.0696;
2523774630442;0.0154;0.2957;0.0686;
2523784738359;0.0240;0.2052;0.1037;
2523794825286;-0.0527;0.0997;0.0728;
2523804933202;-0.0005;0.0987;0.0909;
2523815041119;-0.0282;0.0965;0.1474;
2523825157161;-0.0453;0.0221;0.1165;
2523835265077;-0.0463;-0.0003;0.0750;
2523845372994;-0.0698;-0.0397;0.0835;
2523855490390;-0.0623;-0.0727;0.0792;
2523865598306;-0.0240;-0.0631;0.0739;
2523875706223;-0.0655;-0.2016;0.0325;
2523885812056;-0.0325;-0.1952;0.0664;
2523895919973;0.0059;-0.0961;0.1037;
2523906027890;0.0101;0.0093;0.0920;
2523916135911;0.0154;0.0806;0.0995;
2523926243827;-0.0549;0.0072;0.0984;
2523936351744;-0.0357;0.0571;0.0537;
2523946456952;-0.0272;0.0997;0.0963;
2523956564869;-0.0794;0.0029;0.0643;
2523966672786;-0.0442;0.0093;0.0304;
2523976771223;-0.0378;0.0656;0.0526;
2523986879140;-0.0666;-0.0482;0.0537;
2523996987056;-0.0517;-0.1142;0.0782;
2524007092056;-0.0069;-0.0344;0.0782;
2524017199973;0.0080;-0.0418;0.1080;
2524027307890;-0.0112;-0.0471;0.1027;
2524037433254;-0.0581;0.0242;0.0547;
2524047541119;-0.0250;0.0688;0.0686;
2524057649036;-0.0602;0.0411;0.0537;
2524067728098;-0.0804;0.0379;0.0005;
2524077836015;-0.0730;0.0593;0.0069;
2524087943931;-0.1252;0.0518;-0.0186;
2524098080754;-0.0591;-0.0003;0.0368;
2524108188723;-0.0868;0.0232;0.0654;
2524118296588;-0.0368;-0.0024;0.0814;
2524128403202;-0.0666;-0.0386;0.0483;
2524138511119;-0.0431;0.0242;0.0165;
2524148619036;-0.0495;-0.0077;0.0112;
2524158734348;-0.0527;-0.0652;0.0453;
2524168842265;-0.0154;-0.0429;0.0505;
2524178950181;0.0144;0.0337;0.0558;
2524189044765;-0.0378;0.0763;0.0431;
2524199152681;-0.0154;0.0593;0.0144;
2524209260598;-0.0165;0.0518;0.0462;
2524219376431;-0.0708;0.0040;0.0272;
2524229484348;-0.0783;-0.0333;-0.0208;
2524239592265;-0.0527;-0.0056;0.0229;
2524249706952;-0.0644;-0.0258;0.0229;
2524259814869;-0.0485;-0.0344;-0.0059;
2524269922786;-0.0282;0.0157;-0.0123;
2524280021536;-0.0368;0.0603;0.0133;
2524290129452;-0.0357;0.0614;-0.0282;
2524300237369;-0.0186;-0.0088;0.0250;
2524310342786;-0.0048;-0.0269;0.0368;
2524320450702;-0.0005;-0.0322;0.0091;
2524330558619;-0.0368;-0.0088;-0.0123;
2524340676952;-0.0250;0.0731;0.0027;
2524350784869;-0.0272;0.0859;-0.0123;
2524360892786;0.0357;0.1349;-0.0261;
2524370990286;0.0048;0.1956;0.0069;
2524381098202;-0.0368;0.0699;0.0069;
2524391206119;-0.0463;0.0168;-0.0005;
2524401300911;-0.0474;-0.0344;0.0197;
2524411408827;-0.0368;-0.0461;-0.0037;
2524421516744;-0.0698;-0.0642;-0.0421;
2524431657421;-0.0282;-0.0407;-0.0463;
2524441765338;-0.0804;-0.0759;-0.0463;
2524451873254;-0.0399;-0.1835;-0.0538;
2524461974348;-0.0655;-0.2165;-0.0442;
2524472082265;-0.0229;-0.1856;-0.0879;
2524482190181;-0.0304;-0.1899;-0.0879;
2524492278775;-0.0336;-0.0876;-0.0559;
2524502386692;0.0474;0.0667;-0.0293;
2524512494609;0.0772;0.0358;-0.0112;
2524522623411;0.0218;-0.0067;-0.0740;
2524532731327;0.0336;0.1519;-0.0772;
2524542839244;-0.0186;0.1115;-0.0687;
2524552928463;-0.0368;0.0232;-0.0804;
2524563036327;-0.0133;0.0710;-0.0655;
2524573144244;-0.0037;0.0401;-0.0676;
2524583266327;-0.0112;-0.0493;-0.0165;
2524593374244;-0.0005;-0.0897;-0.0133;
2524603482161;0.0474;-0.0099;0.0080;
2524613592473;0.0378;-0.0013;0.0048;
2524623700390;-0.0186;-0.1068;0.0016;
2524633808306;-0.0218;-0.0823;0.0101;
2524643901431;-0.0261;-0.0003;0.0016;
2524654009400;-0.0431;0.0083;-0.0080;
2524664117265;-0.0346;0.1189;-0.0208;
2524674218098;-0.0378;0.1008;-0.0176;
2524684326067;-0.0123;0.0646;0.0005;
2524694433931;-0.0165;0.1157;0.0696;
2524704540859;0.0240;0.1786;0.0739;
2524714648775;-0.0069;0.1423;0.0421;
2524724756744;-0.0463;0.1093;0.0027;
2524734892734;-0.0719;0.2041;0.0336;
2524745000702;-0.1039;0.1242;0.0483;
2524755108619;-0.2168;-0.1846;0.0995;
2524765192942;-0.2901;-0.4274;0.0739;
2524775300859;-0.3221;-0.4104;-0.0218;
2524785408775;-0.0772;-0.0088;-0.0208;
2524795516015;0.1156;0.2616;-0.0016;
2524805623931;0.0123;0.0497;0.0133;
2524815731848;-0.0858;-0.1526;0.0005;
2524825842056;-0.0889;-0.1164;-0.0005;
2524835949973;-0.1145;-0.0770;-0.0091;
2524846057890;-0.1390;-0.1334;-0.0410;
2524856173046;-0.1049;-0.0344;-0.1103;
2524866280963;-0.0613;0.1711;-0.0772;
2524876388879;-0.0112;0.4268;-0.0794;
2524886488515;0.0240;0.4246;-0.0591;
2524896596431;-0.0549;-0.1867;-0.0538;
2524906704348;-0.0836;-0.4274;-0.0570;
2524916827265;0.0389;-0.1547;-0.1028;
2524926935181;-0.0112;-0.1153;-0.0858;
2524937043098;0.0016;-0.1537;-0.0847;
2524947140598;0.0985;-0.0578;-0.0687;
2524957248567;0.1337;0.0827;-0.0602;
2524967356484;0.1209;0.1008;-0.0570;
2524977485025;0.0506;0.0539;-0.0453;
2524987592942;-0.0336;-0.0226;-0.0879;
2524997700859;0.0293;-0.0663;-0.0346;
2525007765598;0.0410;-0.0045;0.0048;
2525017873515;0.0261;0.0157;-0.0879;
2525027981431;-0.0165;0.0264;-0.0804;
2525038126327;-0.0378;0.0348;-0.0730;
2525048234296;-0.0399;-0.0045;-0.0581;
2525058342213;-0.0485;-0.0418;-0.0911;
2525068416744;-0.0186;-0.0802;-0.0719;
2525078524661;-0.0229;-0.0738;-0.0836;
2525088632577;0.0218;-0.0280;-0.0495;
2525098774296;0.0293;0.0200;-0.0314;
2525108882265;0.0559;0.0518;-0.0719;
2525118990181;0.0453;0.0454;-0.0879;
2525129087786;0.0069;0.0465;-0.0431;
2525139195702;0.0112;0.0912;-0.0570;
2525149303619;-0.0272;-0.0354;-0.0357;
2525159421431;-0.0783;-0.1505;-0.0751;
2525169529348;-0.0250;-0.0791;-0.0826;
2525179637265;0.0346;0.0168;-0.0762;
2525189729661;0.0272;-0.0130;-0.0623;
2525199837577;0.0250;-0.1451;0.0059;
2525209945494;0.0176;-0.1238;-0.0527;
2525220065181;0.0804;0.0433;-0.0740;
2525230173098;0.1529;0.0200;-0.0229;
2525240281015;0.1017;0.0136;-0.0005;
2525250413723;-0.0112;0.0200;-0.0112;
2525260521692;-0.0027;0.0454;-0.0091;
2525270629556;0.0293;0.1296;-0.0112;
2525280724140;0.0538;0.1360;-0.0165;
2525290832056;0.0144;-0.0344;0.0421;
2525300939973;-0.0208;-0.0940;0.0293;
2525311044869;0.0634;0.0136;-0.0112;
2525321152838;0.0357;0.0051;0.0389;
2525331260702;0.0112;-0.0887;0.0197;
2525341367109;-0.0208;-0.0791;0.0304;
2525351475025;-0.0240;-0.0546;0.0368;
2525361582942;-0.0112;-0.0152;0.0336;
2525371679140;-0.0154;0.0274;0.0208;
2525381787056;-0.0165;-0.0013;0.0494;
2525391894973;0.0069;0.0401;0.0782;
2525402003150;0.0005;0.0614;0.0590;
2525412111119;0.0165;0.0561;0.0250;
2525422219036;0.0463;0.0635;0.0399;
2525432329609;0.0165;0.0379;0.0558;
2525442437525;-0.0282;-0.0024;0.0686;
2525452545442;-0.0527;-0.0418;0.0824;
2525462660181;-0.0527;-0.0684;0.0569;
2525472768098;-0.0261;-0.0791;0.0515;
2525482876015;0.0144;-0.0003;0.0569;
2525492968359;0.0272;0.0040;0.0760;
2525503076275;0.0005;-0.0535;0.0814;
2525513184244;0.0240;0.0285;0.0431;
2525523305077;0.0197;0.0859;0.0654;
2525533412994;-0.0123;0.0358;0.0442;
2525543520911;-0.0197;0.0253;0.0293;
2525553611431;-0.0368;0.0411;0.0197;
2525563719400;0.0080;0.1040;0.0462;
2525573827317;-0.0304;0.0614;0.0473;
2525583940494;-0.0218;-0.0088;0.0664;
2525594048411;-0.0474;-0.0173;0.0792;
2525604156327;-0.0517;0.0125;0.0154;
2525614264765;0.0123;0.0390;0.0218;
2525624372681;-0.0272;-0.0152;-0.0005;
2525634480546;-0.0389;-0.0482;0.0005;
2525644581536;-0.0485;-0.0631;0.0357;
2525654689452;-0.0453;-0.1483;0.0410;
2525664797369;-0.0218;-0.1569;0.0505;
2525674924036;-0.0176;-0.0716;0.0325;
2525685031952;-0.0229;-0.0301;0.0325;
2525695139869;-0.0282;-0.0290;0.0112;
2525705249869;0.0037;0.0859;-0.0293;
2525715357786;0.0250;0.1786;-0.0005;
2525725465702;-0.0101;0.1306;-0.0091;
2525735552890;-0.0740;0.0561;-0.0549;
2525745660806;-0.0858;-0.0482;-0.0293;
2525755768723;-0.0591;0.0051;0.0165;
2525765889348;-0.0250;0.0933;0.0048;
2525775997265;-0.0133;0.0465;0.0112;
2525786105181;-0.0442;-0.0152;0.0293;
2525796209036;-0.0229;-0.0077;0.0101;
2525806316952;0.0059;0.0443;0.0080;
2525816424869;-0.0176;-0.0663;-0.0016;
2525826530494;-0.0687;-0.2250;-0.0304;
2525836638411;-0.0602;-0.1909;0.0069;
2525846746327;-0.0506;-0.0993;0.0378;
2525856841640;-0.0410;-0.0397;0.0250;
2525866949556;-0.0314;0.0189;0.0027;
2525877057473;-0.0208;0.0688;0.0240;
2525887159452;-0.0197;0.1285;0.0250;
2525897267369;-0.0357;0.0880;-0.0208;
2525907375286;-0.0250;0.0720;-0.0069;
2525917513359;-0.0325;0.0944;0.0027;
2525927621223;-0.0527;0.1083;-0.0027;
2525937729140;-0.0570;0.1125;0.0368;
2525947800234;-0.1156;-0.0344;0.0686;
2525957908150;-0.1124;-0.1228;0.0462;
2525968016015;-0.0027;0.0008;0.0750;
2525978162681;0.0378;0.1083;0.1048;
2525988270598;-0.0293;0.0507;0.0846;
2525998378515;-0.0804;0.0379;0.0483;
2526008465025;-0.0613;0.0624;0.0473;
2526018572942;-0.0581;0.0486;0.0462;
2526028680859;-0.0762;0.0379;0.0515;
2526038796015;-0.1390;-0.0205;0.0579;
2526048903931;-0.1784;-0.0716;0.0664;
2526059011848;-0.1454;-0.0013;0.0696;
2526069126223;-0.0708;0.0326;0.0803;
2526079234140;-0.0847;-0.0674;0.0739;
2526089342056;-0.1593;-0.1824;0.0368;
2526099455286;-0.2019;-0.2229;0.0101;
2526109563202;-0.1678;-0.2538;0.0165;
2526119671119;-0.2594;-0.3806;0.0186;
2526129757786;-0.2274;-0.2655;-0.0176;
2526139865702;-0.0133;0.2148;-0.0602;
2526149973619;-0.0293;0.3586;-0.0687;
2526160103619;-0.1166;0.1530;-0.0282;
2526170211536;-0.1103;0.0379;-0.0527;
2526180319452;-0.0996;0.0933;-0.0570;
2526190409973;-0.0676;0.1871;-0.0858;
2526200517890;-0.0879;0.1178;-0.0889;
2526210625806;-0.1060;0.1029;-0.1593;
2526220744661;-0.0698;0.2073;-0.1635;
2526230852577;-0.0581;0.2840;-0.1241;
2526240960442;-0.1198;0.0497;-0.1017;
2526251073931;-0.2839;-0.4146;-0.1156;
2526261181848;-0.2200;-0.3390;-0.1869;
2526271289765;-0.0133;-0.1473;-0.2040;
2526281387786;-0.0847;-0.1973;-0.1955;
2526291495702;-0.0751;-0.1111;-0.2146;
2526301603619;0.0517;0.0763;-0.2349;
2526311711015;0.0644;0.1115;-0.2604;
2526321818931;-0.0847;-0.0088;-0.2892;
2526331926848;-0.0655;-0.0162;-0.2604;
2526342036431;-0.0527;-0.0269;-0.2583;
2526352144348;-0.0293;-0.1015;-0.2700;
2526362252265;0.0186;-0.0876;-0.2221;
2526372365598;0.0730;-0.0130;-0.2328;
2526382473515;0.1390;0.0433;-0.2370;
2526392581431;0.1497;0.0232;-0.2530;
2526402689036;0.2168;0.0497;-0.2178;
2526412796952;0.2615;0.0296;-0.1795;
2526422904869;0.2274;-0.0205;-0.1614;
2526433006796;0.2786;0.0305;-0.0932;
2526443114661;0.2892;0.0646;-0.0985;
2526453222577;0.1997;-0.0045;-0.0634;
2526463331223;0.1124;-0.0333;-0.0250;
2526473439140;0.1774;-0.0152;0.0144;
2526483547004;0.1891;0.0136;-0.0005;
2526493632056;0.1262;-0.0354;0.0037;
2526503739973;0.0676;-0.0546;-0.0059;
2526513847890;0.0996;0.0040;-0.0091;
2526523974765;0.0719;0.0115;0.0515;
2526534082681;0.0517;0.0061;0.0931;
2526544190546;0.0442;-0.0077;0.1037;
2526554313306;0.0591;0.0221;0.1176;
2526564421223;0.0804;0.0699;0.1016;
2526574529140;0.0719;0.0901;0.0920;
2526584616744;0.0410;0.0561;0.1154;
2526594724661;0.0314;-0.0152;0.1314;
2526604832577;0.0186;-0.0003;0.1101;
2526614943723;0.0314;0.0008;0.1250;
2526625051640;-0.0304;-0.0780;0.1506;
2526635159504;-0.0613;-0.0961;0.1655;
2526645263306;-0.0889;-0.0983;0.1431;
2526655371223;-0.0282;-0.1441;0.1538;
2526665479088;0.1017;-0.2921;0.1517;
2526675606952;-0.1795;-0.3039;0.1282;
2526685714869;-0.0378;0.1189;0.1708;
2526695822734;0.1582;0.3298;0.0952;
2526705900494;-0.0431;0.1647;0.0453;
2526716008411;-0.1699;0.0965;0.1027;
2526726116275;-0.1198;0.2201;0.1165;
2526736273202;0.0218;0.2904;0.1122;
2526746381119;-0.0879;0.2020;0.1261;
2526756488984;-0.1603;0.0816;0.1208;
2526766558931;-0.1369;0.1019;0.0846;
2526776666848;0.0666;0.3831;0.0654;
2526786774713;-0.0176;0.2968;0.0782;
2526796878827;-0.3253;-0.3230;0.0696;
2526806986744;-0.3775;-0.3060;0.0462;
2526817094609;-0.0165;-0.0727;0.0325;
2526827194348;-0.0623;-0.1004;0.0080;
2526837302265;-0.1550;-0.1409;0.0197;
2526847410129;-0.1379;-0.1409;0.0792;
2526857529088;-0.0900;-0.0088;0.0462;
2526867636952;-0.0378;0.1328;-0.0123;
2526877744817;-0.1113;0.0891;-0.0304;
2526887843515;-0.1795;-0.0290;-0.0570;
2526897951379;-0.1933;-0.0280;-0.0804;
2526908059296;-0.0613;0.0401;-0.0868;
2526918203671;-0.0591;0.0093;-0.0826;
2526928311536;-0.1039;-0.0141;-0.1177;
2526938419400;-0.0634;-0.0844;-0.0687;
2526948475911;-0.0506;-0.1111;-0.0602;
2526958583827;-0.0037;-0.0248;-0.0655;
2526968691692;-0.0144;-0.0067;-0.1433;
2526978841536;-0.0250;0.0029;-0.1284;
2526988949452;-0.0421;0.0040;-0.1443;
2526999057317;-0.0037;0.0774;-0.1635;
2527009138306;0.0101;0.1146;-0.1710;
2527019246223;-0.0666;-0.0067;-0.1518;
2527029354088;-0.0644;-0.0258;-0.1443;
2527039473515;-0.0037;0.0210;-0.1475;
2527049581431;-0.0261;-0.0780;-0.1284;
2527059689296;-0.0272;-0.0471;-0.1571;
2527069785702;0.0847;0.1029;-0.1720;
2527079893619;-0.0154;-0.0365;-0.1688;
2527090001484;-0.0059;-0.0439;-0.1731;
2527100108515;0.1262;0.1104;-0.2061;
2527110216431;0.1358;0.0667;-0.1923;
2527120324296;-0.0208;-0.0418;-0.1603;
2527130445181;0.0123;-0.0386;-0.1028;
2527140553098;0.0463;-0.0471;-0.0943;
2527150660963;0.0698;-0.0535;-0.1092;
2527160776327;0.1188;-0.0248;-0.1230;
2527170884244;0.1624;0.0688;-0.0804;
2527180992109;0.0836;0.0316;-0.1060;
2527191101536;0.0368;0.0019;-0.0985;
2527201209452;0.0634;-0.0365;-0.0900;
2527211317317;0.0698;-0.0557;-0.1060;
2527221423098;0.1656;0.0656;-0.0868;
2527231531015;0.1997;0.1274;-0.0453;
2527241638879;0.0879;0.0720;0.0123;
2527251719765;0.0506;0.0136;0.0080;
2527261827681;0.0996;0.0667;-0.0559;
2527271935546;0.1209;0.0816;-0.0336;
2527282060025;0.0463;-0.0834;-0.0250;
2527292167942;0.0889;-0.0748;-0.0112;
2527302275806;0.2189;0.1083;0.0037;
2527312394556;0.1859;0.0795;0.0133;
2527322502473;0.0772;-0.0013;0.0782;
2527332610338;0.1316;-0.0088;0.0995;
2527342692369;0.1891;-0.1111;0.1005;
2527352800286;0.2967;-0.0812;0.0473;
2527362908150;0.1039;0.0529;0.0664;
2527373040598;0.0858;0.0678;0.0782;
2527383148515;0.0836;0.0083;0.0824;
2527393256379;0.0996;0.0040;0.0505;
2527403348515;0.0389;0.0168;0.0632;
2527413456431;0.0538;0.0115;0.0792;
2527423564296;0.0921;-0.0333;0.0973;
2527433681067;0.0868;-0.1409;0.1282;
2527443788984;0.0133;-0.1132;0.1144;
2527453896900;0.0666;0.0178;0.0920;
2527464000806;0.0389;0.0997;0.0739;
2527474108723;0.0240;0.0774;0.0686;
2527484216588;0.0112;-0.0120;0.0579;
2527494316015;0.0112;-0.0226;0.0771;
2527504423931;0.0719;0.0358;0.0792;
2527514531796;0.0304;-0.0386;0.0931;
2527524651640;-0.0112;-0.1089;0.1367;
2527534759556;0.0336;-0.0013;0.1144;
2527544867421;0.0538;0.1115;0.1016;
2527554983515;0.0133;0.0550;0.0782;
2527565091431;0.0399;0.0486;0.1527;
2527575199296;-0.0165;0.0955;0.1282;
2527585298411;0.0272;0.0838;0.0867;
2527595406327;-0.0059;0.0869;0.0707;
2527605514192;-0.0080;0.0593;0.1037;
2527615619348;-0.0123;0.0891;0.1304;
2527625727265;0.0154;0.0699;0.1378;
2527635835129;-0.0410;-0.0812;0.1549;
2527645944452;-0.0751;-0.0983;0.1346;
2527656052369;-0.0676;-0.0013;0.0654;
2527666160234;0.0165;0.0104;0.1080;
2527676258202;-0.0644;-0.0589;0.0984;
2527686366119;-0.0655;-0.0450;0.0622;
2527696473984;-0.0112;0.0136;0.0973;
2527706579036;-0.0623;-0.0493;0.0888;
2527716686952;-0.0357;-0.0823;0.0782;
2527726794817;-0.0495;-0.0461;0.0984;
2527736916640;-0.0570;-0.0184;0.0931;
2527747024556;-0.0826;0.0093;0.0368;
2527757132421;-0.0005;0.0358;0.1282;
2527767235025;-0.0399;-0.1047;0.1027;
2527777342942;-0.0921;-0.1185;0.0453;
2527787450806;-0.1241;-0.0056;-0.0378;
2527797570806;-0.0410;0.1466;0.0080;
2527807678723;-0.0325;0.1626;0.0197;
2527817786588;-0.0549;0.0603;0.0250;
2527827872994;-0.0517;-0.0109;0.0643;
2527837980859;-0.0623;0.0093;0.0250;
2527848088775;-0.0421;0.0369;0.0059;
2527858208202;-0.0826;0.0146;-0.0250;
2527868316119;-0.0527;0.0093;-0.0495;
2527878423984;-0.0613;0.0475;0.0048;
2527888533098;-0.0740;0.0136;0.0069;
2527898641015;-0.0357;0.0210;-0.0208;
2527908748879;-0.0293;-0.0365;0.0027;
2527918855077;-0.0623;-0.1377;0.0208;
2527928962994;-0.0133;-0.0354;0.0410;
2527939070859;-0.0410;0.0264;-0.0261;
2527949171275;-0.0261;0.0955;-0.0293;
2527959279192;-0.0314;0.0944;-0.0123;
2527969387056;-0.0623;0.0104;-0.0282;
2527979513931;-0.0474;-0.0099;-0.0208;
2527989621848;-0.0282;0.0411;-0.0186;
2527999729713;-0.0048;0.0433;-0.0282;
2528009808202;-0.0261;-0.0173;-0.0080;
2528019916119;-0.0293;-0.0461;0.0123;
2528030023984;-0.0048;-0.0567;0.0186;
2528040157369;-0.0059;-0.0439;0.0080;
2528050265286;-0.0176;0.0125;0.0218;
2528060373150;-0.0293;0.0008;-0.0123;
2528070472161;-0.0282;0.0296;-0.0336;
2528080580077;-0.0357;0.0104;-0.0314;
2528090687942;-0.0154;0.0253;-0.0240;
2528100786015;-0.0208;0.0710;-0.0485;
2528110893931;-0.0421;0.0379;-0.0197;
2528121001796;-0.0218;0.0369;-0.0091;
2528131126431;-0.0399;-0.0067;-0.0165;
2528141234348;-0.0261;0.0115;-0.0282;
2528151342213;-0.0527;0.0443;-0.0570;
2528161463619;-0.0357;0.0486;-0.0581;
2528171571536;-0.0559;0.0731;-0.0453;
2528181679400;-0.0314;0.0667;-0.0613;
2528191772786;0.0091;0.1221;-0.0847;
2528201880702;-0.0037;0.0688;-0.0229;
2528211988567;-0.0069;-0.0397;0.0016;
2528222085286;0.0080;-0.0929;-0.0048;
2528232193202;-0.0591;-0.1419;-0.0314;
2528242301067;-0.0154;-0.0780;-0.0186;
2528252413723;-0.0208;-0.1270;-0.0250;
2528262521640;-0.0389;-0.1387;-0.0527;
2528272629504;-0.0538;-0.1228;-0.0506;
2528282736692;-0.0442;-0.1505;0.0016;
2528292844609;-0.0176;-0.0397;-0.0027;
2528302952473;0.0123;0.0221;0.0314;
2528313079817;0.0016;0.0646;0.0622;
2528323187681;-0.0485;0.0795;0.0091;
2528333295546;-0.0708;0.0635;0.0037;
2528343388306;-0.0272;0.0731;0.0473;
2528353496223;-0.0314;0.0379;0.0526;
2528363604088;-0.0740;-0.0013;0.0483;
2528373710911;-0.0644;0.0019;0.0590;
2528383818827;-0.0527;-0.0013;0.0696;
2528393926692;-0.0581;-0.0727;0.0931;
2528404034556;-0.0389;-0.0652;0.1048;
2528414142473;-0.0453;-0.0631;0.1751;
2528424250338;-0.1134;-0.1132;0.1250;
2528434355494;-0.1252;-0.1036;0.1091;
2528444463411;-0.1401;-0.0546;0.1091;
2528454571275;-0.1891;0.0285;0.0782;
2528464686275;-0.1603;0.0763;0.0601;
2528474794192;-0.1710;0.0274;0.0654;
2528484902056;-0.1710;0.0369;0.0718;
2528494986692;-0.0836;0.0806;0.0547;
2528505094609;-0.0687;0.0305;0.0909;
2528515202473;-0.1028;-0.0333;0.0739;
2528525313827;-0.1624;-0.0013;-0.0059;
2528535421744;-0.1369;0.0571;-0.0208;
2528545529609;-0.1337;0.0433;-0.0186;
2528555644140;-0.1103;-0.0077;-0.0410;
2528565752056;-0.0953;0.0136;-0.0463;
2528575859921;-0.0953;0.0305;-0.0826;
2528585978098;-0.0794;0.0008;-0.0921;
2528596086015;-0.0431;-0.0599;-0.0485;
2528606193879;-0.0740;-0.0503;-0.0549;
2528616306223;-0.0921;0.0539;-0.1230;
2528626414140;-0.0889;0.0731;-0.1550;
2528636522004;-0.0644;-0.0003;-0.1486;
2528646622681;-0.0272;-0.0003;-0.1763;
2528656730598;0.0016;0.0401;-0.2200;
2528666838463;-0.0282;-0.0312;-0.2200;
2528676935077;-0.0165;-0.0844;-0.1784;
2528687042994;0.0453;-0.0301;-0.1848;
2528697150859;0.0826;-0.0088;-0.1571;
2528707275286;0.1113;-0.0344;-0.1454;
2528717383202;0.1284;-0.0748;-0.1838;
2528727491119;0.1156;-0.0375;-0.1827;
2528737648359;0.1411;0.0593;-0.1752;
2528747756223;0.1582;-0.0258;-0.1763;
2528757864140;0.1539;-0.1132;-0.1571;
2528767882890;0.0900;-0.0535;-0.1454;
2528777990806;0.0517;0.0326;-0.1518;
2528788098671;0.1273;0.0624;-0.1262;
2528798280650;0.1209;-0.0365;-0.0975;
2528808388567;0.1326;-0.0365;-0.1113;
2528818496484;0.1465;0.0561;-0.1262;
2528828575806;0.1124;0.0264;-0.0762;
2528838683723;0.1007;-0.0993;-0.0783;
2528848791640;0.0463;-0.0961;-0.0889;
2528858896327;0.0474;0.0316;-0.0932;
2528869004244;0.0453;0.0752;-0.0996;
2528879112161;0.0399;0.0210;-0.1145;
2528889217265;0.0783;-0.0312;-0.0836;
2528899325181;0.0900;-0.0493;-0.0378;
2528909433046;0.0644;-0.0280;-0.0602;
2528919531327;0.0634;-0.0237;-0.0751;
2528929639244;0.0293;-0.0578;-0.0485;
2528939747109;0.0154;-0.0344;-0.0964;
2528949836848;0.0431;0.0497;-0.1092;
2528959944765;0.0463;0.0699;-0.1007;
2528970052629;0.0740;0.0264;-0.0708;
2528980192525;0.0911;0.0358;-0.0911;
2528990300442;0.1401;0.0614;-0.0570;
2529000408306;0.1337;0.0443;-0.0325;
2529010494869;0.1017;0.0221;-0.0858;
2529020602786;0.0751;-0.0003;-0.0634;
2529030710650;0.0708;0.0115;-0.0581;
2529040841640;0.0559;0.0189;-0.0719;
2529050949556;0.0527;-0.0024;-0.0889;
2529061057421;0.0772;0.0200;-0.0836;
2529071151848;0.1039;0.0518;-0.0623;
2529081259765;0.1422;0.0976;-0.0399;
2529091367629;0.1369;0.0189;-0.0495;
2529101474452;0.1401;-0.1398;-0.0357;
2529111582369;0.0826;-0.0812;-0.0378;
2529121690234;0.0996;-0.0333;-0.0314;
2529131802265;0.0751;-0.1366;-0.0453;
2529141910181;0.0889;-0.1047;-0.0644;
2529152018046;0.1348;-0.0194;-0.0634;
2529162124348;0.1145;-0.0120;-0.0474;
2529172232265;0.1443;-0.0919;-0.0613;
2529182340129;0.1198;-0.1760;-0.0368;
2529192455286;0.1230;-0.1782;-0.0091;
2529202563202;0.1145;-0.1909;-0.0197;
2529212671067;0.0815;-0.1228;-0.0357;
2529222776536;0.0623;-0.1760;-0.0506;
2529232884452;0.0250;-0.1185;-0.0602;
2529242992317;0.0506;0.2957;-0.0581;
2529253088931;0.2594;0.4832;-0.0581;
2529263196848;0.3221;0.3437;-0.0613;
2529273304765;0.2114;0.1115;0.0016;
2529283417161;0.1603;0.0923;0.0632;
2529293525077;0.2019;0.2244;0.0547;
2529303632942;0.1230;0.1487;0.0048;
2529313738619;0.0581;0.1029;0.0176;
2529323846536;0.1028;0.1519;0.0176;
2529333954452;0.1113;0.2169;0.0123;
2529344074452;0.1134;0.0550;0.0431;
2529354182369;0.0080;-0.4967;0.1186;
2529364290234;0.0240;-0.6116;0.0718;
2529374389765;0.0602;-0.3571;0.0611;
2529384497681;0.0261;-0.0951;0.1059;
2529394605546;0.0911;0.0635;0.1027;
2529404711640;0.0549;0.1189;0.0771;
2529414819556;0.0453;0.1477;0.0707;
2529424927421;0.0559;0.1115;0.0494;
2529435052577;0.0474;0.0678;0.0537;
2529445160494;0.0389;0.0688;0.0462;
2529455268411;0.0474;0.0390;0.0579;
2529465366744;0.0527;0.0253;0.0824;
2529475474661;0.0975;0.0784;0.1229;
2529485582525;0.1348;0.1455;0.1229;
2529495672734;0.0644;0.0379;0.1101;
2529505780650;0.0304;-0.0205;0.1336;
2529515888515;0.0304;0.0285;0.1527;
2529526015598;-0.0016;-0.1121;0.1708;
2529536123515;-0.0762;-0.2261;0.1623;
2529546231379;-0.0623;-0.1217;0.1282;
2529556343775;0.0591;0.0529;0.1122;
2529566451692;0.0879;0.1253;0.1325;
2529576559556;0.0463;0.0582;0.1527;
2529586660286;-0.0772;-0.0951;0.1399;
2529596768202;-0.2146;-0.0876;0.1027;
2529606876067;-0.2029;-0.0333;0.0888;
2529616980390;-0.1401;-0.0312;0.0814;
2529627088306;-0.1081;0.0125;0.0410;
2529637196171;-0.0431;0.2340;0.0176;
2529647292473;0.0069;0.3415;0.0176;
2529657400390;-0.0144;0.1935;0.0218;
2529667508254;-0.0336;0.0379;0.0590;
2529677666536;-0.0165;-0.0397;0.0686;
2529687774452;0.0229;-0.1068;0.0590;
2529697882317;0.0197;-0.0972;0.0282;
2529707945598;0.0272;-0.0674;0.0101;
2529718053515;0.0186;0.0061;0.0080;
2529728161379;0.0378;0.0731;0.0037;
2529738269452;-0.0144;0.0507;-0.0069;
2529748377369;-0.0229;0.0305;-0.0240;
2529758485234;-0.0091;-0.0120;0.0133;
2529768581952;-0.0016;-0.0184;0.0101;
2529778689869;0.0336;0.0221;0.0133;
2529788797734;0.0101;0.0987;-0.0240;
2529798922265;0.0431;0.1668;-0.0154;
2529809030181;0.0517;0.0997;0.0154;
2529819138046;-0.0005;0.0008;-0.0037;
2529829228306;0.0069;-0.0418;-0.0186;
2529839336223;-0.0186;-0.1025;-0.0293;
2529849444088;-0.0123;-0.1047;-0.0069;
2529859542161;0.0368;-0.0429;0.0410;
2529869650077;0.0485;0.0200;0.0632;
2529879757942;0.0570;0.0838;0.0368;
2529889870181;0.1007;0.1306;0.0261;
2529899978098;0.0549;0.1029;0.0378;
2529910085963;0.0091;0.0072;0.0579;
2529920202265;-0.0229;-0.1164;0.0707;
2529930310181;-0.0059;-0.0674;0.0579;
2529940418046;-0.0080;0.0221;0.0218;
2529950522786;0.0240;0.0157;0.0601;
2529960630702;0.0314;0.0232;0.1165;
2529970738567;0.0666;0.0168;0.0909;
2529980872056;0.0112;-0.0375;0.0483;
2529990979973;-0.0037;-0.0578;0.0846;
2530001087838;-0.0240;-0.0109;0.0931;
2530011187681;-0.0197;-0.0184;0.1005;
2530021295598;-0.0080;0.0200;0.0814;
2530031403463;0.0197;0.1754;0.0856;
2530041508098;-0.0037;0.1700;0.0707;
2530051616015;-0.0208;0.0965;0.1112;
2530061723879;0.0027;0.0827;0.1410;
2530071830702;-0.0101;0.0200;0.1325;
2530081938619;-0.0325;-0.0674;0.1016;
2530092046484;0.0144;-0.0056;0.1282;
2530102148723;-0.0399;0.0168;0.0899;
2530112256640;-0.0943;-0.1015;0.0696;
2530122364504;-0.0463;-0.1057;0.0760;
2530132476536;-0.0005;-0.0620;0.0824;
2530142584452;0.0016;-0.0194;0.1080;
2530152692317;-0.0176;-0.0077;0.0675;
2530162796952;0.0123;-0.0322;0.0909;
2530172904869;0.0133;0.0051;0.0877;
2530183012734;0.0421;0.0614;0.0867;
2530193143202;-0.0197;0.0614;0.0696;
2530203251067;-0.0453;0.0189;0.0515;
2530213358984;-0.0421;-0.0599;0.0442;
2530223447473;-0.0048;-0.0876;0.0643;
2530233555338;0.0197;-0.0759;0.0622;
2530243663254;-0.0165;-0.2218;0.0846;
2530253776848;-0.0559;-0.2442;0.1240;
