Sensor: bmi160 Accelerometer Non-wakeup
Vendor: BOSCH
TimestampAcc [ns]; AccX [m/s^2]; AccY [m/s^2]; AccZ [m/s^2]
3409397849443;-10.5401;1.1871;-1.6164;
3409407957516;-11.0192;1.7740;-1.9899;
3409418064860;-10.1952;1.6831;-1.3002;
3409428172985;-9.3999;1.9250;-1.0869;
3409438274599;-8.7748;1.8269;-1.0295;
3409448382672;-8.7075;1.8317;-1.5613;
3409458490797;-9.0598;1.7620;-1.8655;
3409468579756;-9.3401;1.8987;-2.0716;
3409478687881;-9.4645;1.9657;-2.3037;
3409488796006;-9.7496;2.0856;-2.8546;
3409498926058;-9.7591;2.0279;-2.7326;
3409509034079;-9.2441;1.5945;-1.6642;
3409519142204;-9.0455;1.3023;-1.0104;
3409529233558;-9.1316;1.2760;-0.9191;
3409539341631;-9.5267;1.7046;-1.2497;
3409549449756;-10.1282;1.8867;-1.6953;
3409559548610;-10.4372;1.9346;-2.0450;
3409569656735;-10.3654;1.9825;-2.5241;
3409579764860;-9.8815;1.7859;-2.2869;
3409589875068;-8.8418;1.5419;-1.3935;
3409599983193;-8.3626;1.6017;-1.2353;
3409610091318;-8.7700;1.7285;-1.9421;
3409620195901;-9.2584;1.6687;-2.3180;
3409630304026;-9.5172;1.6280;-2.5193;
3409640412151;-9.9150;1.7859;-3.0823;
3409650523974;-10.0875;1.8269;-3.0918;
3409660632099;-9.7663;1.7692;-1.9564;
3409670740224;-9.1316;1.8580;-1.2449;
3409680845120;-8.9853;2.0088;-1.5685;
3409690953245;-9.0909;2.0231;-1.9756;
3409701061370;-9.1531;1.9202;-2.0354;
3409711164443;-9.2058;1.8700;-2.0836;
3409721272568;-9.4334;1.9322;-2.4165;
3409731380693;-9.6084;1.9178;-2.5792;
3409741493245;-9.3209;1.7022;-2.1960;
3409751601370;-9.2393;1.5969;-2.0521;
3409761709495;-9.4932;1.6663;-2.3734;
3409771848089;-9.3664;1.5730;-2.2774;
3409781956110;-9.2779;1.5730;-2.1027;
3409792064235;-9.7041;1.5826;-2.5313;
3409802148401;-10.1306;1.4554;-2.8618;
3409812256526;-9.9174;1.1895;-2.4188;
3409822364651;-9.3951;1.1680;-2.1051;
3409832472151;-9.0526;1.2661;-2.2606;
3409842580276;-8.8083;1.2374;-2.3830;
3409852688401;-8.7532;1.1489;-2.4619;
3409862784756;-8.9758;1.1584;-2.8570;
3409872892881;-9.0933;1.2903;-3.0990;
3409883001006;-9.2560;1.4459;-3.2429;
3409893110745;-9.3473;1.6256;-3.2022;
3409903218818;-9.3688;1.7381;-2.8522;
3409913326943;-9.2632;1.9274;-2.4835;
3409923430485;-9.4549;2.2412;-2.5768;
3409933538610;-9.8743;2.3563;-2.7182;
3409943646735;-9.6108;2.2914;-2.4045;
3409953770172;-9.2513;2.1981;-2.1434;
3409963878297;-9.1866;2.0231;-2.0617;
3409973986088;-9.1364;1.8221;-1.7503;
3409984076713;-9.0096;1.7644;-1.6499;
3409994184838;-9.0790;1.8221;-2.5026;
3410004292963;-9.7902;1.7405;-3.7340;
3410014416297;-10.1761;1.3813;-3.8776;
3410024524474;-9.3592;1.2927;-3.2285;
3410034632547;-8.8777;1.4267;-3.0559;
3410044754213;-9.0072;1.3382;-2.5026;
3410054862338;-8.5998;1.3836;-1.5757;
3410064970463;-8.7724;1.6878;-1.9493;
3410075058484;-9.3353;1.9825;-3.2237;
3410085166609;-9.3999;1.8221;-3.5638;
3410095274734;-9.2584;1.5921;-3.3864;
3410105385047;-9.7161;1.4387;-3.3936;
3410115493172;-10.2909;1.1871;-3.0799;
3410125601297;-9.8121;1.1417;-2.3877;
3410135708172;-9.3688;1.3095;-2.5265;
3410145816297;-9.4023;1.2927;-3.0081;
3410155924422;-8.9638;0.9906;-2.7254;
3410166032026;-8.1470;0.8614;-2.3566;
3410176140151;-8.0680;1.0292;-3.4537;
3410186248276;-8.9423;0.9476;-4.3376;
3410196356401;-9.6395;0.5620;-3.1301;
3410206464526;-10.2144;0.2794;-1.3289;
3410216572651;-10.3220;-0.1615;-0.9550;
3410226682859;-10.1498;0.4783;-1.9780;
3410236790984;-9.0909;1.0603;-2.3495;
3410246899109;-7.9074;1.2087;-2.4260;
3410257007286;-7.9771;1.6974;-3.9664;
3410267115411;-9.2082;2.3515;-5.7939;
3410277223536;-10.1545;1.5993;-4.5628;
3410287346036;-8.6070;1.0268;-1.5084;
3410297454109;-8.8179;1.7788;-2.2534;
3410307562234;-10.2287;2.1885;-3.7484;
3410317663536;-9.8982;1.9633;-1.7961;
3410327771661;-8.9853;1.6328;-0.2605;
3410337879786;-10.2933;2.7562;-2.3901;
3410347981401;-10.6505;4.2894;-4.7928;
3410358089526;-8.5807;4.3780;-3.7292;
3410368197651;-7.2655;3.4702;-2.3447;
3410378311453;-7.6415;3.7505;-2.9841;
3410388419578;-8.9375;3.6114;-2.4165;
3410398527703;-9.6227;3.6568;-0.4256;
3410408658640;-10.3702;3.5970;0.4175;
3410418766765;-11.1799;4.2679;-1.5470;
3410428874838;-10.7007;5.1876;-4.3184;
3410438950047;-8.4802;5.0489;-4.6178;
3410449058172;-6.6452;3.2234;-2.3925;
3410459166297;-6.3936;2.4568;-1.5470;
3410469278067;-7.2990;2.9671;-2.4236;
3410479386192;-8.7461;3.2569;-3.7220;
3410489494317;-11.9031;2.7562;-4.1339;
3410499600776;-11.9079;2.2220;-2.8546;
3410509708901;-10.1426;1.8341;-2.0716;
3410519817026;-8.7485;1.9035;-3.1086;
3410529933067;-8.4559;2.0976;-3.7077;
3410540041192;-8.5017;1.2760;-1.7264;
3410550149265;-7.9699;0.2602;0.3505;
3410560252963;-9.2946;0.2794;-0.7253;
3410570361088;-10.9187;0.3488;-1.9923;
3410580469161;-9.8192;0.0613;-1.7001;
3410590574786;-8.8896;0.6362;-4.7617;
3410600682911;-9.7304;1.5224;-8.8292;
3410610790984;-9.5124;1.4243;-6.3401;
3410620900047;-7.9460;-0.2764;0.1756;
3410631008172;-8.3315;0.0685;0.6667;
3410641116245;-9.4741;1.8700;-2.0234;
3410651224838;-8.8322;2.4592;-2.7900;
3410661332963;-8.1015;2.9264;-4.1435;
3410671441036;-8.4368;3.3933;-6.4313;
3410681547286;-10.2885;3.6042;-6.5701;
3410691655411;-9.3712;3.1804;-3.3625;
3410701763484;-8.3722;3.5468;-2.8140;
3410711870463;-8.5065;4.1743;-5.4156;
3410721978588;-9.9413;3.7146;-5.3940;
3410732086661;-9.5315;2.7060;-2.5672;
3410742197026;-9.0287;2.6773;-1.2473;
3410752305151;-9.2898;3.0556;-2.1625;
3410762413224;-8.5041;2.5813;-2.6871;
3410772523380;-7.6487;1.8532;-4.3448;
3410782631401;-9.1675;1.6472;-7.3606;
3410792739526;-7.0666;0.6673;-6.3452;
3410802847599;-4.8556;0.8255;-4.5437;
3410812948067;-10.6313;1.8915;-6.2539;
3410823056192;-12.8471;1.4602;-5.4467;
3410833164265;-8.6644;1.1297;-3.0488;
3410843288953;-8.8442;1.3549;-6.3835;
3410853397026;-11.2828;1.2039;-8.1631;
3410863505099;-9.1866;0.7681;-4.2227;
3410873589109;-5.7371;0.8877;-1.6857;
3410883697182;-6.8584;0.8925;-4.4142;
3410893805307;-8.7242;0.7056;-6.1869;
3410903937599;-8.7266;1.5057;-5.1927;
3410914045672;-8.6692;1.6496;-5.2047;
3410924153745;-12.5213;1.6400;-6.9631;
3410934255932;-10.7797;2.3659;-4.3232;
3410944364005;-7.2057;2.3970;-1.1348;
3410954472078;-7.9962;2.2101;-3.3314;
3410964570880;-7.2846;2.7826;-4.6298;
3410974679005;-5.7778;2.7275;-3.3912;
3410984787078;-7.0379;2.4808;-4.9077;
3410994891505;-9.9413;3.0054;-5.4467;
3411004999630;-9.4932;3.6954;-2.1027;
3411015107703;-8.7844;3.0173;-0.8928;
3411025295984;-9.5892;1.8700;-1.2811;
3411035404057;-8.8250;1.7405;0.4630;
3411045512130;-9.9724;2.2771;-0.8665;
3411055534786;-13.2565;2.3130;-5.4251;
3411065642911;-13.5778;2.4377;-3.7962;
3411075750984;-8.0847;3.2067;0.9254;
3411085868120;-4.5897;2.9671;0.0269;
3411095976245;-6.3144;2.2484;-3.6718;
3411106084317;-9.9820;2.0207;-2.3423;
3411116190880;-9.8767;1.0842;-1.1109;
3411126299005;-10.3173;0.0541;-3.4370;
3411136407078;-13.9155;-1.1749;-4.5963;
3411146516401;-11.2708;-2.2935;-1.8942;
3411156624526;-7.7207;-2.5905;-1.7097;
3411166732599;-10.5568;-3.6302;-2.5457;
3411176848692;-10.7916;-3.4672;-0.2079;
3411186956817;-8.3363;-2.9330;0.7169;
3411197064890;-7.9436;-3.2997;-0.8115;
3411207157442;-10.6863;-3.6996;-1.8081;
3411217265567;-12.4998;-3.1893;-2.0450;
3411227373640;-12.4086;-2.7197;-1.5972;
3411237488901;-7.8093;-3.3045;-1.7312;
3411247597026;-7.4596;-2.8851;-3.3266;
3411257705099;-9.8671;-2.1449;-3.7364;
3411267816713;-9.5172;-1.8455;-1.7671;
3411277924838;-7.0211;-1.6131;-2.1553;
3411288032911;-7.2153;-1.4958;-4.6633;
3411298143484;-9.5195;-1.7330;-5.5161;
3411308251609;-11.4697;-2.2071;-5.4179;
3411318359682;-12.7439;-1.3376;-4.2514;
3411328511817;-9.4813;-0.4298;-2.2965;
3411338619890;-9.5845;-0.1878;-2.8092;
3411348727963;-10.0298;-0.2237;-2.1194;
3411358784734;-5.6821;-0.4035;-0.6078;
3411368892807;-5.7610;-0.2142;-5.2334;
3411379000932;-11.0504;-0.6455;-8.3333;
3411389110776;-9.6395;0.0446;-5.0707;
3411399218901;-7.8523;1.6376;-4.5700;
3411409326974;-8.2382;1.3214;-6.1439;
3411419443901;-8.6477;-0.0105;-5.6240;
3411429551974;-9.2608;0.5022;-5.9210;
3411439660099;-6.9876;1.0603;-4.8024;
3411449749630;-7.2105;0.6505;-4.8503;
3411459857755;-11.6683;1.0101;-6.8599;
3411469965828;-11.6468;1.3023;-3.0272;
3411480084942;-8.5639;2.0447;-0.5240;
3411490193067;-6.3072;2.2842;-3.0631;
3411500301140;-7.2512;0.2459;-4.4982;
3411510403484;-8.0967;0.4684;-5.3366;
3411520511609;-6.1636;1.0388;-5.8229;
3411530619682;-7.3540;2.2819;-6.8240;
3411540734942;-12.5501;3.0508;-7.8805;
3411550843015;-13.4722;1.7548;-4.6250;
3411560951036;-9.6610;1.0002;-0.2797;
3411571061036;-8.0321;0.3248;-0.7011;
3411581169109;-9.1029;0.1116;-3.1086;
3411591277130;-9.0263;0.4421;-3.6790;
3411601382547;-8.6046;-0.0057;-3.6069;
3411611490620;-10.8132;0.4134;-3.6667;
3411621598640;-10.0947;-0.5327;-2.3901;
3411631705567;-9.4693;-0.6550;-1.5805;
3411641813640;-6.7481;-0.8874;-4.2203;
3411651921661;-12.1092;-0.9425;-5.3318;
3411662045047;-10.7294;0.1738;-2.4906;
3411672153120;-6.5420;-0.2620;-1.7480;
3411682261140;-7.6104;-0.5782;-4.1387;
3411692353797;-7.4524;-0.9042;-5.4251;
3411702461870;-10.7533;0.0087;-4.3113;
3411712569890;-12.0135;-0.5590;-1.9158;
3411722678276;-11.7165;-1.5173;0.6763;
3411732786349;-12.4564;-2.5211;0.7217;
3411742894370;-10.9522;-2.7679;0.0942;
3411753001817;-6.5061;-2.3342;-1.5132;
3411763109890;-7.3349;-1.3328;-5.9402;
3411773217911;-10.1928;-0.7747;-6.0646;
3411783356661;-8.5017;-0.6694;-3.8680;
3411793464682;-9.2707;0.1618;-4.3735;
3411803572703;-9.6108;-0.6502;-3.7531;
3411813655151;-8.9590;-0.6933;-3.5925;
3411823763172;-7.1507;0.1738;-3.8632;
3411833871192;-7.2894;-0.0296;-3.8608;
3411844003120;-10.8132;0.4469;-4.4958;
3411854111140;-10.7127;-0.6479;-2.5744;
3411864219161;-7.7949;0.1116;-2.9578;
3411874299213;-8.6261;-0.4585;-5.8397;
3411884407286;-10.8395;0.5716;-5.3605;
3411894515307;-11.4314;-0.5758;0.4008;
3411904642963;-9.0790;0.4086;0.9900;
3411914751036;-12.1738;0.3368;-1.8009;
3411924859057;-12.1211;1.2760;-2.4188;
3411934945567;-4.4076;-0.8010;-4.1219;
3411945053640;-8.4849;0.7801;-10.6184;
3411955161661;-7.8452;1.5320;-7.9331;
3411965287755;-3.7394;1.8700;-3.5853;
3411975395828;-9.1436;2.2196;-5.2525;
3411985503849;-18.5507;1.4459;-4.8263;
3411995618276;-12.6984;1.5368;1.5194;
3412005726349;-4.3310;1.4411;1.7375;
3412015834370;-4.9705;0.6194;-7.9379;
3412025928380;-9.2608;-0.4370;-9.0087;
3412036036453;-8.3148;0.9093;-1.9277;
3412046144474;-6.7074;2.0976;-0.0449;
3412056253380;-10.2933;1.3765;-4.6848;
3412066361453;-10.0899;1.5368;-5.9043;
3412076469474;-10.3630;-0.3556;-6.5605;
3412086565463;-9.1292;-0.2094;-5.6288;
3412096673536;-4.8556;0.6912;-1.8559;
3412106781557;-8.2143;1.3382;-3.5471;
3412116899317;-9.0263;0.1642;-4.3902;
3412127007390;-11.5846;0.2124;-2.2199;
3412137115411;-9.8264;0.0278;-1.4103;
3412147218172;-9.1101;0.4636;-1.6762;
3412157326245;-10.7390;-0.0873;0.1373;
3412167434265;-7.6032;-1.1892;-1.7264;
3412177549213;-11.2325;-0.9592;-6.1056;
3412187657286;-13.0050;-1.3783;-2.7924;
3412197765307;-11.2732;-0.7436;2.2884;
3412207864526;-4.7118;-0.4825;-1.2787;
3412217972599;-8.4392;-1.2371;-6.7810;
3412228080620;-9.2803;-1.6226;-6.5510;
3412238193901;-9.6515;-1.6971;-5.4227;
3412248301974;-9.5076;-1.1749;-3.5877;
3412258409995;-7.5266;-1.1076;-1.5156;
3412268519942;-7.4692;-1.3328;0.7481;
3412278628015;-11.6228;-1.0860;-0.9431;
3412288736036;-12.4878;-1.0573;-0.4328;
3412298852338;-9.7472;-0.7986;-1.6834;
3412308960411;-11.5774;-2.1616;-5.3103;
3412319068432;-9.9389;-1.9244;-4.4524;
3412329173484;-7.4883;-1.1462;-0.5264;
3412339281557;-9.5821;0.5979;-0.8474;
3412349389578;-9.2058;-0.1448;-0.4496;
3412359491192;-9.2034;0.8758;-1.9708;
3412369599265;-9.5124;-0.0081;-2.6632;
3412379707286;-10.0561;-0.0921;-3.9879;
3412389807338;-9.7041;0.0494;-4.1961;
3412399915411;-8.2884;-1.2371;0.7863;
3412410023432;-8.6429;-1.8311;-1.8272;
3412420163692;-7.1842;-0.5566;-6.1941;
3412430271765;-7.5290;-1.0023;-9.8545;
3412440379786;-9.2034;-2.1760;-5.6025;
3412450468797;-7.4261;-2.1233;-3.7914;
3412460576870;-13.6711;-2.0970;-4.2610;
3412470684890;-8.0919;-1.8359;1.8069;
3412480784213;-5.5143;-1.4169;-2.1003;
3412490892286;-8.3602;-0.8656;-8.4218;
3412501000307;-9.6251;-2.7413;-7.2769;
3412511111297;-13.6256;-1.1797;-4.6777;
3412521219370;-12.6864;-1.4815;3.1795;
3412531327390;-9.4669;-1.9172;2.1781;
3412541441297;-8.0824;0.7944;-3.4466;
3412551549422;-8.4730;0.8040;-2.8837;
3412561657547;-6.4199;0.5883;-4.7569;
3412571770203;-7.4788;1.0412;-8.5729;
3412581878328;-10.8634;1.6926;-7.8517;
3412591986453;-11.0504;1.4243;-5.2406;
3412602086297;-9.2970;-0.1639;-2.0740;
3412612194422;-5.7323;1.2784;-3.6500;
3412622302547;-3.1980;1.3908;-5.8899;
3412632404838;-8.8968;1.6663;-5.5834;
3412642512963;-17.0297;2.2316;-0.7636;
3412652621088;-14.8089;2.6988;2.8107;
3412662757755;-6.3960;2.4185;0.2186;
3412672865880;-6.2091;0.0996;-5.1425;
3412682974005;-8.8466;0.7920;-5.9952;
3412693052963;-9.0885;2.3755;-4.2203;
3412703161140;-9.7424;2.4329;-1.3552;
3412713269265;-10.3367;2.2244;-0.5767;
3412723389838;-11.3593;1.4171;-1.3337;
3412733497963;-9.8336;1.0890;-2.6560;
3412743606088;-6.1995;0.9117;-4.0956;
3412753699838;-3.1813;1.1776;-5.7652;
3412763807963;-5.9791;1.8700;-8.1224;
3412773916088;-10.6457;0.4564;-4.5628;
3412784070880;-11.8911;-0.3724;-0.5910;
3412794179005;-10.1833;-0.8201;-1.7456;
3412804287078;-7.2775;-0.3170;-2.1266;
3412814354317;-6.5803;-0.8249;-2.5911;
3412824462442;-9.4621;-2.5546;-3.5758;
3412834570567;-11.6324;-1.8694;-2.0115;
3412844684734;-10.1282;-0.9879;1.0642;
3412854792859;-10.0370;-2.1018;0.1158;
3412864900984;-10.6361;-2.4829;-2.8116;
3412875004213;-12.8064;-3.0505;-2.3180;
3412885112338;-10.6911;-2.2528;2.6836;
3412895220463;-7.6633;-3.1558;3.0694;
3412905345776;-5.8475;-3.8841;-4.7375;
3412915453901;-8.7317;-3.5222;-11.8427;
3412925562026;-15.3311;-3.1606;-6.9679;
3412935657547;-11.4984;-2.4514;0.8509;
3412945765672;-8.8490;-3.0840;1.0810;
3412955873797;-7.4118;-1.9630;-0.6102;
3412965979526;-8.6142;-1.4575;-2.5409;
3412976087651;-12.4469;-0.9042;-2.8187;
3412986195776;-9.3281;-1.1605;-5.4754;
3412996308276;-12.3727;-0.5686;-5.7245;
3413006416401;-11.2612;1.2565;-0.5719;
3413016524526;-6.4032;1.9920;1.6630;
3413026632026;-5.3037;2.0662;-1.0510;
3413036740151;-10.8876;0.2865;-5.7891;
3413046848276;-13.0388;0.5285;-6.9607;
3413056954838;-9.4813;2.0833;-4.8335;
3413067063015;-8.8753;0.7394;-2.9411;
3413077171088;-7.3469;-0.6502;-3.0655;
3413087270932;-9.0598;0.3392;-4.9316;
3413097379005;-11.6731;-1.1291;-4.7976;
3413107487130;-10.2622;0.1475;-4.7856;
3413117615776;-9.4956;0.1020;-3.4466;
3413127723901;-9.1029;-1.4791;-4.5628;
3413137832026;-11.8672;-1.2084;-1.7719;
3413147931401;-7.8691;0.9500;0.3287;
3413158039526;-6.3191;0.1714;-0.5647;
3413168147651;-8.2382;-2.2839;-3.0870;
3413178242442;-11.3282;-1.0143;-5.9952;
3413188350567;-10.6265;-0.0849;-4.6490;
3413198458692;-10.4946;-0.7029;-2.3495;
3413208574734;-8.3148;-1.0789;-2.7278;
3413218682911;-9.6682;-1.8000;-4.0430;
3413228790984;-9.9485;-0.8994;-3.1014;
3413238898692;-8.0991;-1.1076;-4.5652;
3413249006817;-9.6275;-0.4490;-4.2826;
3413259114942;-9.5533;0.6601;-3.8345;
3413269227026;-12.1977;1.1417;-2.5050;
3413279335151;-6.4582;1.2736;-1.3792;
3413289443276;-3.6147;0.0398;-3.5375;
3413299553067;-10.7486;-0.7172;-6.8336;
3413309661192;-13.3262;2.1790;-4.1818;
3413319769317;-8.2813;1.7692;-2.0354;
3413329893797;-8.0154;-0.4131;-1.7719;
3413340001922;-10.3220;-0.6096;-4.4815;
3413350110047;-10.9068;0.3607;-4.4501;
3413360204838;-8.4177;-0.0368;-2.0282;
3413370313015;-4.7791;-0.0176;-2.0859;
3413380421088;-10.6146;-1.2371;-4.7928;
3413390529734;-12.8662;1.6591;-4.9603;
3413400637859;-5.9719;1.1728;-1.7432;
3413410745984;-7.6152;-0.6837;-2.7876;
3413420841297;-12.2049;1.1656;-4.2227;
3413430949422;-11.0695;2.0088;-0.6867;
3413441057547;-8.1685;-0.5255;-0.8330;
3413451170047;-10.0059;-1.0645;-3.4131;
3413461278172;-11.4218;-0.3891;-3.5877;
3413471386349;-7.7566;-1.0741;-1.3528;
3413481496817;-7.9603;-1.7833;-3.0535;
3413491604942;-12.5261;-1.2849;-4.6083;
3413501713067;-10.3893;0.0326;0.2665;
3413511827963;-7.0618;-0.2812;1.2105;
3413521936088;-8.7724;-0.7292;-2.7565;
3413532044213;-11.9222;-0.4801;-4.0717;
3413542143276;-14.2484;0.6625;-1.8918;
3413552251401;-6.4726;0.4684;1.0666;
3413562359526;-1.9953;-1.6490;-4.0669;
3413572469838;-15.1828;-0.8608;-7.6914;
3413582577963;-14.0207;2.3106;-0.4280;
3413592686088;-4.2616;1.2422;-0.1501;
3413602794942;-5.0426;-1.2060;-6.3595;
3413612903067;-14.4568;0.4684;-6.4433;
3413623011192;-11.3928;2.7179;1.6415;
3413633113588;-4.3286;1.4076;1.7734;
3413643221661;-7.3851;0.1140;-4.8024;
3413653329786;-11.8170;0.2722;-6.8049;
3413663431505;-9.0526;0.6601;-2.5217;
3413673539630;-6.0174;2.3850;-2.8140;
3413683647755;-9.1077;1.7070;-6.3066;
3413693742442;-13.0579;1.0149;-2.1912;
3413703850567;-10.1091;1.7118;2.2789;
3413713958692;-11.5199;1.1177;0.8318;
3413724080880;-9.4358;0.2315;0.1636;
3413734189005;-9.0885;-1.6804;-1.2042;
3413744297130;-12.0135;-1.4934;-1.8703;
3413754397234;-9.3855;-0.5662;-0.7469;
3413764505359;-8.5974;-0.4657;-1.8105;
3413774613432;-11.9441;-0.9233;-2.4476;
3413784752234;-10.3726;-0.0897;0.7217;
3413794860359;-4.9107;0.0805;0.6165;
3413804968484;-8.1015;-0.4346;-6.5940;
3413815076817;-14.0351;0.2339;-7.0660;
3413825184942;-10.8299;-0.1328;2.2020;
3413835293067;-5.4999;-0.5758;4.0274;
3413845398380;-6.7648;-1.8742;-4.0597;
3413855506505;-15.0700;-2.0468;-6.2252;
3413865614630;-9.1938;-2.9474;1.6726;
3413875708484;-2.6399;-0.5542;0.5157;
3413885816609;-7.8715;-0.5925;-6.8671;
3413895924734;-15.1684;-1.5772;-4.6777;
3413906032286;-9.9867;-0.6096;1.1001;
3413916140411;-8.0871;-0.6072;0.1588;
3413926248536;-9.0742;-2.2122;-1.7934;
3413936364370;-11.1006;-2.0300;-2.4882;
3413946472495;-11.6539;-1.2514;-4.3950;
3413956580620;-6.6930;-1.7521;-2.7374;
3413966682547;-7.8308;-0.1113;-2.7015;
3413976790672;-11.3282;0.3224;-2.1673;
3413986898797;-9.8312;1.6424;-5.1712;
3413997016192;-10.3149;1.3406;-5.6336;
3414007124317;-10.3774;0.7537;-2.3614;
3414017232442;-6.5659;1.0484;-2.0788;
3414027325672;-7.9938;2.3369;-3.6694;
3414037433797;-13.3047;1.3310;-0.9407;
3414047541922;-11.8361;1.1417;0.3553;
3414057656192;-10.9068;1.0699;-2.0859;
3414067764317;-9.3616;-0.2812;-1.5757;
3414077872442;-8.4081;-0.3508;-1.9397;
3414087983172;-5.3420;-0.3891;-3.7699;
3414098091297;-3.9191;0.1666;-6.1056;
3414108199422;-10.3582;1.0196;-8.1296;
3414118307026;-12.9308;1.4195;-4.2323;
3414128415151;-8.2143;2.0447;-0.7588;
3414138523276;-6.4128;1.4171;-4.5628;
3414148638797;-8.0967;-0.5806;-5.8445;
3414158746922;-6.9996;-1.4145;-3.7149;
3414168854995;-6.3864;0.1187;-4.2802;
3414178951088;-11.5678;0.2411;-4.6418;
3414189059213;-14.0614;0.7777;-0.4472;
3414199167338;-6.7816;0.0326;1.5888;
3414209293588;-8.6740;-0.4729;-3.6933;
3414219401713;-13.0002;-1.4910;-3.9206;
3414229509838;-9.6754;-1.1844;1.0259;
3414239598067;-7.7303;-1.3304;-0.8617;
3414249706192;-10.2814;-1.2467;-3.7292;
3414259814317;-11.1559;-0.4681;-3.0081;
3414269939630;-7.7447;-1.4958;-2.2893;
3414280047755;-9.7639;-2.0204;-5.6504;
3414290155880;-11.3139;-1.7498;-5.5953;
3414300268692;-8.7628;-0.3218;-1.1324;
3414310376817;-7.4022;-0.5662;1.4668;
3414320484942;-4.7599;0.3272;0.8390;
3414330596609;-8.9207;0.6745;-3.0799;
3414340704734;-13.1513;0.2985;-3.3529;
3414350812859;-13.5464;0.0422;-0.2007;
3414360910463;-9.7328;-0.9066;0.9757;
3414371018588;-6.0799;-0.4825;-0.8306;
3414381126713;-7.2918;-0.5518;-3.5997;
3414391231297;-8.1326;-1.1773;-3.3649;
3414401339422;-8.1781;-0.3843;-1.7551;
3414411447547;-10.4827;0.4349;-2.7541;
3414421550463;-9.1890;-0.0296;-1.6403;
3414431658588;-5.7924;0.1499;-0.9742;
3414441766713;-17.1781;0.3440;-2.3806;
3414451877963;-24.5683;-0.1615;5.3521;
3414461986088;-13.2685;2.8065;9.6066;
3414472094213;-1.5452;1.7142;-0.6078;
3414482208588;-6.5133;-4.9502;-6.9559;
3414492316713;-14.8759;-3.8602;-2.0617;
3414502424838;-15.7074;-0.1472;3.8384;
3414512539422;-4.5491;1.5129;1.5960;
3414522647547;-5.2460;-0.9281;-4.3113;
3414532755672;-9.1819;-1.9558;-4.2491;
3414542841505;-7.7949;-0.4035;-1.3648;
3414552949578;-8.8346;0.2506;-1.1276;
3414563057651;-10.5520;-0.3075;-5.0827;
3414573170620;-10.6696;-0.1376;-7.4662;
3414583278692;-11.9848;-0.6909;-5.6958;
3414593386765;-8.4993;-0.3915;-2.2510;
3414603501401;-3.6820;-0.3987;-0.9742;
3414613609474;-8.9973;-0.4896;-2.8741;
3414623717547;-14.4521;0.0565;-0.2701;
3414633838692;-9.4741;1.7764;1.4788;
3414643946765;-5.4185;1.2278;-0.5767;
3414654054838;-10.1282;-0.2859;-1.3409;
3414664134526;-12.2530;0.6936;-0.5599;
3414674242599;-6.4750;0.1499;-6.1702;
3414684350672;-5.9647;-1.9510;-13.6490;
3414694490776;-12.2626;-2.3725;-13.4405;
3414704598849;-10.6528;-0.5830;-2.9004;
3414714706922;-10.0226;1.8003;3.9341;
3414724806088;-11.4936;0.2602;-0.0544;
3414734914161;-6.9829;-0.4513;-2.2319;
3414745022234;-6.1660;-0.4537;0.5228;
3414755131817;-11.4458;-0.5997;2.3602;
3414765239890;-11.9151;1.0364;3.0526;
3414775348015;-11.3139;0.7681;0.8031;
3414785477182;-14.7969;-1.3328;-3.3673;
3414795585307;-13.8748;-1.6804;-3.5901;
3414805693328;-6.8222;-0.8034;-0.3275;
3414815759422;-4.2736;-1.6756;-1.0606;
3414825867495;-9.9126;-1.6780;-4.5365;
3414835975567;-11.5080;0.6745;-3.1711;
3414846085047;-8.3076;1.5320;1.4309;
3414856193120;-6.9637;0.3488;-0.4041;
3414866301192;-9.2656;-0.1496;-5.6049;
3414876418536;-10.8781;-0.1472;-2.6082;
3414886526609;-9.7400;0.2913;1.0020;
3414896634682;-6.7792;0.1044;-2.5911;
3414906745880;-8.0369;-0.4442;-5.8923;
3414916853953;-11.1030;0.2219;-1.3504;
3414926962078;-10.1474;0.2961;3.3257;
3414937073484;-9.0311;0.6577;0.5204;
3414947181557;-9.2779;0.3081;-3.1352;
3414957289630;-9.9461;-0.9114;-3.9497;
3414967409474;-9.8910;-1.4838;-2.4093;
3414977517495;-11.9967;-1.0741;0.3431;
3414987625567;-10.0035;-0.7675;1.3086;
3414997725984;-9.5052;-1.3161;-2.2869;
3415007834057;-10.7557;-0.9640;-3.1663;
3415017942130;-10.6720;-1.5556;-3.4418;
3415028034942;-9.7854;-1.3567;-4.9627;
3415038143015;-8.5328;-0.8177;-4.0813;
3415048251088;-6.7887;-0.0248;-1.6834;
3415058370776;-10.2455;-0.2907;-1.6522;
3415068478849;-12.6721;0.2339;-1.5350;
3415078586974;-6.9685;0.3799;0.3745;
3415088672963;-5.4712;-0.3676;-2.1051;
3415098781088;-11.8337;-1.7234;-3.9951;
3415108889109;-12.7657;-0.7292;-2.0282;
3415119012442;-9.2608;-0.0583;-2.1051;
3415129120515;-7.7877;-1.3041;-1.9564;
3415139228588;-9.5940;-0.9209;-1.1348;
3415149336870;-9.7567;0.3631;-0.5264;
3415159444942;-9.3808;0.0039;-1.3313;
3415169553015;-11.8050;0.1355;-2.4284;
3415179674422;-9.6945;1.0149;-1.3552;
3415189782495;-6.9015;0.2028;-1.0104;
3415199890567;-8.7891;-0.3290;-4.2347;
3415209997026;-10.3415;0.1810;-4.7112;
3415220105099;-10.4204;0.5501;-2.8044;
3415230213172;-8.2884;0.3392;-2.8259;
3415240307338;-11.6611;0.5189;-2.8499;
3415250415411;-11.9079;0.5979;-1.6379;
3415260523536;-7.1507;-0.5997;-0.0449;
3415270653172;-6.3000;-1.3137;-1.0223;
3415280761297;-8.0321;-0.0655;-0.9742;
3415290869370;-9.1388;-0.1089;-0.7131;
3415300967703;-14.4544;-0.9664;-2.5433;
3415311075776;-12.8542;0.0230;-2.0115;
3415321183849;-5.6390;-0.6837;-1.5470;
3415331307338;-6.7457;-0.8874;-2.0139;
3415341415411;-11.0599;-0.6072;-1.9636;
3415351523484;-12.8782;-0.4370;-2.4093;
3415361615776;-6.9565;-0.3604;-2.1793;
3415371723849;-6.4869;-0.7914;-2.6249;
3415381831974;-9.6180;0.2937;-4.9819;
3415391941505;-13.8485;0.0494;-1.9373;
3415402049578;-8.8155;0.3009;0.6811;
3415412157651;-4.0819;-0.2142;-4.4692;
3415422260359;-12.5764;-0.9760;-4.8550;
3415432368432;-14.5693;0.3033;-0.5838;
3415442476505;-8.8298;1.5153;0.4893;
3415452589317;-11.0934;-0.7172;0.3167;
3415462697390;-9.1220;-0.8779;-0.3562;
3415472805463;-6.9733;-0.0969;-0.5527;
3415482899109;-7.1602;0.0637;-1.3002;
3415493007182;-10.9451;-0.4968;-4.9268;
3415503115255;-12.8040;-0.0682;-5.0803;
3415513232495;-6.8486;0.9308;-1.5156;
3415523340567;-7.9531;0.5788;-1.2930;
3415533448640;-11.3450;0.2171;-1.7791;
3415543556557;-6.5204;0.1762;-2.0668;
3415553664786;-4.1970;-1.0860;-4.9077;
3415563772963;-13.9394;-1.2179;-4.7593;
3415573897390;-16.2320;0.6601;1.1049;
3415584005567;-7.8547;-0.2524;1.8882;
3415594113745;-11.0073;-1.6298;-3.5542;
3415604204890;-23.8161;-1.9077;1.7806;
3415614313067;-9.0359;-1.3663;6.2530;
3415624421245;1.1282;-1.9558;3.8166;
3415634500359;-8.3913;-1.6756;-4.6609;
3415644608588;-14.2173;-0.7603;-6.9081;
3415654716765;-9.7184;0.5477;-2.5481;
3415664846609;-4.3310;1.0026;-2.7757;
3415674954838;-8.5878;-0.2309;-7.1859;
3415685063015;-13.9633;0.0182;-5.7078;
3415695198432;-5.4903;0.7008;-2.5648;
3415705306609;-1.1426;-0.0488;-5.9426;
3415715414786;-5.0976;-0.8731;-6.1941;
3415725535932;-11.9895;-0.1304;-2.0067;
3415735644109;-15.8940;1.4004;2.2406;
3415745752286;-13.1369;1.7907;3.3640;
3415755814630;-9.8815;1.1465;0.8198;
3415765922859;-8.8035;-0.7890;0.8438;
3415776031036;-8.8561;-1.8024;0.2378;
3415786154370;-12.0805;-1.1844;-1.4629;
3415796262547;-14.7993;0.4612;-0.4929;
3415806370724;-7.6968;0.1618;0.5683;
3415816478536;-2.8170;-0.7077;-5.0396;
3415826586713;-13.4076;-0.9808;-8.7332;
3415836694890;-12.2124;0.3416;-3.4585;
3415846797026;-6.0990;0.2985;-5.0372;
3415856905255;-13.1489;-0.4418;-9.8282;
3415867013432;-12.5333;0.4878;-0.8856;
3415877135724;-6.2139;1.6926;5.7404;
3415887243901;-11.0192;1.3310;2.0536;
3415897352078;-10.1928;2.0809;1.2679;
3415907455724;-4.8102;0.8949;1.4261;
3415917563901;-9.9628;0.1331;-1.9086;
3415927672078;-13.0723;-0.3242;-3.6188;
3415937777599;-13.6352;0.0781;-3.7244;
3415947885776;-8.6046;-0.7268;1.2368;
3415957993953;-3.5357;-0.6909;2.5926;
3415968103745;-4.8365;0.1259;-0.4065;
3415978211922;-9.0383;0.2913;-2.0569;
3415988320151;-11.8289;0.3416;-6.0841;
3415998425099;-13.2999;0.7295;-7.7130;
3416008533276;-10.6433;-0.7292;-3.4753;
3416018641453;-7.7782;-0.8034;-2.0091;
3416028776036;-7.0953;-0.0730;-2.9411;
3416038884213;-7.9627;-0.4083;-3.3984;
3416048992390;-11.8959;-0.3604;-2.5289;
3416059073224;-14.8424;0.8207;-0.8426;
3416069181401;-9.5004;0.8207;2.0728;
3416079289578;-8.0800;0.3535;0.3553;
3416089416557;-12.6841;-0.5399;-0.9861;
3416099524734;-4.8078;-0.9305;-0.0592;
3416109632963;-6.8871;-0.5662;-3.8154;
3416119730932;-14.8304;-0.0368;-4.7016;
3416129839109;-11.0862;-0.2835;0.2593;
3416139947286;-5.7876;0.0087;-2.6225;
3416150051245;-9.6730;-0.8731;-5.9378;
3416160159422;-14.9862;-0.9903;-1.6068;
3416170267599;-8.3818;-0.4250;2.1900;
3416180375307;-4.0603;-1.1892;-1.7695;
3416190483484;-8.6788;-1.4192;-5.5041;
3416200591661;-15.2545;-1.1028;-3.2740;
3416210705620;-11.3426;0.1929;1.9747;
3416220813797;-6.0197;-0.7795;0.8270;
3416230921974;-6.8632;-0.8321;-2.2104;
3416241022703;-10.7151;-0.5806;-3.7077;
3416251130880;-13.9729;-0.4729;-3.0894;
3416261239057;-11.9055;-0.1711;-1.4677;
3416271345151;-7.6582;-0.4825;-1.7862;
3416281453276;-6.5061;-1.4623;-1.9397;
3416291561453;-9.0742;-0.4322;-3.0727;
3416301669682;-10.8084;-0.1759;-1.8846;
3416311789995;-9.3329;0.0829;-1.9612;
3416321898172;-11.5439;-0.4705;-2.6560;
3416332006349;-9.5533;-0.1137;-1.0582;
3416342102286;-6.0846;0.6721;-1.3361;
3416352210463;-9.1292;-0.9592;-3.7579;
3416362318640;-13.7022;0.9332;-1.5036;
3416372431088;-12.4902;0.2674;2.4511;
3416382539265;-6.8776;-0.5495;-0.5958;
3416392647442;-8.2980;-1.5748;-3.2740;
3416402747547;-9.7519;-0.3508;-2.4452;
3416412855776;-9.9509;1.6591;-1.8559;
3416422963953;-10.1833;0.4469;-4.0908;
3416433070828;-10.6768;-0.4059;-3.6356;
3416443179005;-8.1398;0.8830;-0.2533;
3416453287234;-7.1411;0.2626;-0.4857;
3416463422182;-11.3593;1.3860;-4.5628;
3416473530359;-10.5879;1.2517;-3.7436;
3416483638588;-5.9527;0.0685;-1.4198;
3416493730828;-10.2646;0.0852;-3.2644;
3416503839005;-12.9476;0.5716;-1.4222;
3416513947234;-8.8418;0.1427;0.2641;
3416524073745;-5.9934;-0.6407;-3.5183;
3416534181922;-10.8538;-1.9292;-4.5054;
3416544290099;-11.9967;0.3296;-0.8856;
3416554367859;-9.2779;0.4301;-0.0520;
3416564476036;-6.7959;-0.6263;-2.6512;
3416574584161;-9.3664;-0.9544;-3.2620;
3416584708484;-9.2034;-0.7723;-1.2520;
3416594816661;-7.0068;0.5189;-2.4428;
3416604924786;-12.4684;-1.0789;-3.9664;
3416615033484;-13.3980;0.6529;-1.3265;
3416625141661;-6.8752;0.1379;0.9374;
3416635249786;-4.0220;-2.2959;-3.2309;
3416645361088;-11.7691;-1.4312;-6.0912;
3416655469265;-13.7381;1.0026;-2.9865;
3416665577390;-10.1521;-0.7292;1.0762;
3416675662651;-6.5109;-0.5614;-1.2473;
3416685770776;-8.7171;-1.0645;-3.8273;
3416695878953;-10.1163;-0.7555;-3.3984;
3416705990047;-11.2397;-0.2500;-2.3228;
3416716098172;-9.3401;-0.9449;-2.1529;
3416726206349;-9.0933;-0.9257;-2.0282;
3416736320203;-9.5315;-0.8874;-2.6752;
3416746428328;-10.1904;-1.1701;-2.7852;
3416756536505;-10.5185;-0.4250;0.1373;
3416766644734;-10.5425;-0.0754;-1.1468;
3416776752911;-9.9078;-1.6011;-3.1687;
3416786861036;-4.8437;-0.8082;-4.5030;
3416796987495;-8.0776;-1.9941;-5.2406;
3416807095672;-11.6085;-0.6742;-3.5614;
3416817203797;-9.9078;-0.1496;-0.0401;
3416827292286;-8.9183;0.0948;-2.8235;
3416837400411;-10.0875;-0.1591;-4.4596;
3416847508588;-7.6944;-0.4920;-1.6068;
3416857619213;-11.2134;0.2913;-1.0295;
3416867727390;-8.0058;0.3272;-0.4208;
3416877835515;-5.7682;-0.9162;-3.6117;
3416887909109;-8.5735;-0.8656;-9.2172;
3416898017286;-13.1776;-0.2812;-6.2779;
3416908125411;-10.4468;1.0603;1.4213;
3416918265776;-7.9699;0.4854;1.2057;
3416928373901;-8.7580;-1.0789;-4.3615;
3416938482078;-9.6419;-1.4145;-7.0804;
3416948592859;-10.8467;0.3679;-3.0105;
3416958700984;-10.6217;0.5644;1.5840;
3416968809161;-6.2737;-0.3194;0.1181;
3416978918120;-10.5114;-0.9497;-5.5881;
3416989026297;-12.1929;-0.0464;-3.0559;
3416999134422;-7.8404;1.2879;-1.1444;
3417009262963;-7.7040;-0.0969;-3.2859;
3417019371140;-9.6012;-1.1076;-4.3448;
3417029479265;-10.6528;-0.2333;-3.9278;
3417039561713;-13.0627;0.3846;-1.0463;
3417049669838;-9.8480;0.8399;2.3339;
3417059778015;-6.2641;0.0254;1.1240;
3417069898797;-10.5162;0.3799;-3.2812;
3417080006922;-10.9475;1.2784;-3.1277;
3417090115099;-2.7954;1.1871;-2.5744;
3417100218797;-4.4940;0.0278;-6.4050;
3417110326974;-12.2507;0.1499;-8.1464;
3417120435099;-16.2559;0.0876;-0.9000;
3417130551297;-13.3095;0.0111;2.5639;
3417140659474;-7.4644;-0.0826;1.3828;
3417150767599;-8.4033;-0.1902;-1.0917;
3417160871922;-6.7528;0.1953;-4.1746;
3417170980099;-7.9675;0.0159;-6.4600;
3417181088224;-13.1560;-0.5566;-5.3414;
3417191188588;-10.3582;0.1379;0.2019;
3417201296713;-9.0407;-0.0464;0.7863;
3417211404890;-10.7318;-0.5782;-4.0478;
3417221513276;-8.1422;-1.3184;-4.3448;
3417231621453;-3.6556;-1.0262;-3.3793;
3417241729578;-7.4931;-0.8608;-6.2898;
3417251842651;-12.6266;-1.0023;-4.5150;
3417261950776;-13.9274;-1.9487;0.1540;
3417272058953;-9.8719;-1.3472;0.1540;
3417282150307;-5.9240;0.1307;-2.4500;
3417292258484;-8.2502;-0.4370;-4.1363;
3417302366609;-11.4888;-2.0659;-3.4083;
3417312494526;-6.4798;-2.2624;-1.6475;
3417322602703;-9.7161;-1.2730;-4.7545;
3417332710828;-13.1943;-0.6694;-2.8522;
3417342807755;-12.8758;0.2387;-0.6413;
3417352915932;-11.7069;0.3679;1.6606;
3417363024057;-5.4377;-0.0559;3.6179;
3417373127911;-5.2101;-0.8034;-4.1794;
3417383236036;-10.8180;-1.8885;-14.3602;
3417393344161;-14.8977;-2.6623;-9.1190;
3417403470307;-6.9278;-1.6705;2.3171;
3417413578484;-2.5896;-0.0200;-1.6594;
3417423686609;-8.6812;-2.1233;-7.3176;
3417433786922;-11.5726;-2.5020;-4.3711;
3417443895099;-12.2913;-1.3711;-2.8475;
3417454003224;-10.3316;-1.6609;-4.3232;
3417464105880;-8.5831;-1.1028;-1.6786;
3417474214057;-5.9025;-0.2835;0.7552;
3417484322182;-4.7934;-0.3843;-3.6308;
3417494418276;-11.4960;-0.9090;-5.2023;
3417504526453;-15.2402;-0.6909;-0.3491;
3417514634578;-6.7241;-0.9305;-1.5613;
3417524767755;0.0694;-0.9927;-7.9884;
3417534875932;-2.8866;-1.1052;-6.9416;
3417544984057;-7.1674;-1.6442;-5.7509;
3417555091817;-10.3487;-0.7436;-6.3858;
3417565200099;-10.1976;-0.3772;-3.6957;
3417575308380;-8.7748;-0.3051;-2.6871;
3417585421401;-8.5735;-1.1076;-4.6992;
3417595529682;-18.2871;-1.8144;-2.2941;
3417605637963;-9.8169;-1.8120;1.4859;
3417615723120;-5.7443;-2.0731;1.1073;
3417625831453;-13.4172;-1.8455;1.0307;
3417635939734;-1.6074;-1.1219;-1.8009;
3417646051088;-4.6831;0.8710;-4.6848;
3417656159422;-21.6888;-0.5877;-0.9837;
3417666267703;-15.1708;-1.1677;0.5922;
3417676381245;-6.1110;-1.2921;-2.9841;
3417686489526;-6.1756;-0.4394;-4.2826;
3417696597807;-13.9107;-0.7364;-2.0234;
3417706705047;-15.1564;-0.8082;-0.9144;
3417716813380;-5.6773;1.0053;1.0953;
3417726921609;-3.1334;0.4540;1.1025;
3417737027286;-5.3970;-0.5710;-4.7904;
3417747135620;-14.5071;-0.4729;-10.3238;
3417757243901;-17.7960;1.0579;-1.6475;
3417767382442;-6.2474;1.1321;6.4660;
3417777490776;-2.4936;1.1201;2.7891;
3417787599057;-15.3503;0.0087;-0.8737;
3417797697859;-23.4544;0.1403;0.5468;
3417807806140;-20.9462;0.3583;3.2321;
3417817914422;-7.5577;-0.6215;0.7744;
3417828002338;0.6036;-2.1138;-7.7656;
3417838110620;-6.5635;-2.6145;-14.6408;
3417848218901;-12.0733;0.3129;-1.4677;
3417858329995;-11.1317;2.4975;2.1709;
3417868438276;-10.4874;1.4578;-2.0692;
3417878546557;1.2314;3.5061;4.3460;
3417888638849;-6.9087;2.6004;-9.2267;
3417898747182;-23.0686;0.7271;-19.4821;
3417908855463;-13.2087;3.0748;-3.1543;
3417918979682;5.2080;0.0637;-0.8067;
3417929087963;-2.2445;-2.3270;-10.6427;
3417939196245;-16.3325;-0.1113;-4.5126;
3417949300828;-9.4813;0.8160;-0.3156;
3417959409109;-3.9455;0.9763;-2.1003;
3417969517390;-14.9815;-0.8898;-1.2473;
3417979632495;-17.1948;1.0268;-3.7244;
3417989740776;-5.4281;-0.1902;-2.5409;
3417999849057;3.5166;-1.4360;-5.7174;
3418009964995;-19.8443;0.6697;-12.7675;
3418020073276;-71.5080;2.4736;-4.9603;
3418030181557;-27.2369;-0.3194;13.9448;
3418040272495;26.7242;-6.4807;16.4172;
3418050380776;-0.7857;-7.6857;1.7399;
3418060489057;-20.7739;-0.9520;-3.5064;
3418070609265;-4.9657;7.5951;2.0297;
3418080717547;-3.5333;4.4378;-7.2793;
3418090825828;-5.8810;3.0963;-13.1961;
3418100923745;-5.2654;4.7901;-13.4620;
3418111032026;-3.9526;3.2617;-15.6515;
3418121140307;-5.9216;0.4038;-11.4114;
3418131248849;-7.7207;0.1834;-5.0515;
3418141357130;-3.1310;-1.4408;-0.2031;
3418151465411;-0.8815;-3.6111;-0.6078;
3418161576349;-12.6673;-2.7464;-3.4035;
3418171684630;-18.3278;-0.4633;3.8599;
3418181792911;-2.4577;0.2195;7.4291;
3418191897182;-7.4070;-1.5150;-11.6318;
3418202005463;-20.7568;-2.1760;-10.7791;
3418212113745;-9.5100;2.3492;9.4654;
3418222232286;4.1106;2.7395;6.4181;
3418232340567;6.2234;-1.0693;-22.3923;
3418242448849;-21.6123;-2.6958;-38.2819;
3418252553536;-38.9749;8.1245;-14.8418;
3418262661817;-8.7147;4.4282;-4.1650;
3418272770047;12.2339;-5.7526;16.5535;
3418282889370;-8.4706;-4.5452;15.1283;
3418292997651;-23.8352;-2.3629;10.0953;
3418303105932;-10.3415;-2.1616;8.9384;
3418313186349;-2.2038;-1.0143;2.6883;
3418323294578;-10.8467;0.2100;-6.0646;
3418333402911;-14.0064;1.7094;-3.9712;
3418343516297;-9.9509;0.0541;-3.3290;
3418353624630;-7.0881;-1.6561;-7.8422;
3418363732859;-6.9063;-3.1845;-6.2492;
3418373859578;-7.0905;-2.2959;-3.8345;
3418383967859;-5.5119;-1.6971;-3.1229;
3418394076140;-8.7027;-1.4192;-4.8144;
3418404163120;-13.1489;-1.5939;-6.3425;
3418414271401;-14.3659;-1.2179;-3.1950;
3418424379682;-8.9231;-1.7163;2.6740;
3418434503224;-0.9846;-1.6298;0.3745;
3418444611505;-5.2558;-0.4896;-6.9009;
3418454719786;-12.4038;1.2278;-6.9392;
3418464806505;-13.0196;2.3106;-0.3754;
3418474914838;-9.9293;1.1034;-0.5886;
3418485023120;-6.1899;-0.3556;-2.2415;
3418495160620;-9.6921;0.0805;-4.0071;
3418505268901;-11.9584;-0.5447;-1.9708;
3418515377182;-8.3315;-1.3543;-0.0185;
3418525478224;-10.1426;-1.2897;-5.0348;
3418535586505;-11.3809;-0.6718;-5.7293;
3418545694786;-10.8156;-0.0969;-2.7039;
3418555777963;-10.7557;-0.6933;-1.3361;
3418565885984;-5.8068;-0.8154;-3.1950;
3418575994005;-5.1909;-1.0119;-5.6216;
3418586113484;-12.9188;-0.5399;-5.9378;
3418596221505;-13.9537;-1.7091;-1.2209;
3418606329526;-7.0857;-1.0167;-1.2329;
3418616443797;-1.2721;-0.4681;-4.0190;
3418626551817;-11.3809;-0.8632;-8.4939;
3418636659838;-13.2039;-0.0993;-8.2950;
3418646751297;-9.8408;-0.4274;-5.5184;
3418656859317;-5.9791;-0.1926;-2.2128;
3418666967338;-6.0078;-0.9209;-0.3491;
3418677091088;-9.2755;-0.1567;-2.0883;
3418687199109;-11.8552;-0.4848;-2.0402;
3418697307130;-8.7027;-0.3413;-1.5084;
3418707412130;-5.2388;0.9428;-3.8847;
3418717520151;-9.0503;0.9858;-7.6337;
3418727628172;-9.7280;-0.2835;-5.9665;
3418737734526;-9.9987;-0.5686;-3.7412;
3418747842547;-9.1938;-0.6191;-2.6201;
3418757950567;-8.0465;-0.4226;-2.2726;
3418768083224;-13.0460;-0.5423;-2.7541;
3418778191192;-14.9647;-0.6861;-1.4055;
3418788299213;-10.6433;-0.8369;0.4989;
3418798393692;-5.7514;-0.4896;1.3038;
3418808501713;-4.9801;-0.0057;-0.2127;
3418818609734;-6.8656;0.2291;-4.8335;
3418828710567;-12.0254;0.8806;-8.1416;
3418838818588;-11.8098;0.9739;-4.6250;
3418848926609;-6.4534;0.6936;-3.2836;
3418859037234;-10.0346;-0.2333;-4.2562;
3418869145255;-13.0795;0.1594;-1.1779;
3418879253276;-11.2995;-1.0382;1.5888;
3418889379213;-5.0306;-0.9329;0.2737;
3418899487234;-5.9886;-0.2668;-3.4920;
3418909595255;-11.3163;-0.4992;-4.5963;
3418919693067;-15.4223;1.0364;-2.3686;
3418929801088;-11.6635;0.7008;0.8486;
3418939909109;-0.3544;0.8638;-2.0306;
3418950025463;-5.9264;0.2171;-8.0028;
3418960133484;-11.7763;0.8255;-5.2502;
3418970241505;-9.8169;0.0278;-2.4117;
3418980341713;-6.5492;-0.5638;-5.5256;
3418990449734;-7.4477;0.0661;-6.6494;
3419000557755;-10.6768;-0.0873;-6.1726;
3419010680255;-11.0480;-0.9951;-3.6332;
3419020788276;-8.4607;-1.2802;-0.7804;
3419030896297;-7.5721;-0.9903;0.1756;
3419040980567;-9.5148;-0.4298;-0.0736;
3419051088588;-8.4535;-0.7220;-0.9455;
3419061196609;-10.2790;-0.9473;-3.8441;
3419071318588;-13.3167;-0.5183;-3.7507;
3419081426609;-9.4860;-0.1543;-1.5637;
3419091534630;-7.5721;-0.7292;-3.4370;
3419101637442;-7.8093;-1.7689;-4.3376;
3419111745463;-9.0861;-0.7053;-4.0860;
3419121853484;-8.4200;-0.7292;-3.6428;
3419131980151;-7.0307;-1.1438;-4.0645;
3419142088172;-8.7123;-0.8321;-7.3271;
3419152196192;-15.1346;-1.2538;-6.7116;
3419162276922;-11.1583;-0.9090;1.2751;
3419172384942;-3.6266;-0.5112;4.2168;
3419182492963;-9.1340;-0.9592;-0.7325;
3419192596192;-11.3019;-1.2203;-1.8296;
3419202704213;-6.3191;-0.1687;-2.4476;
3419212812234;-7.8523;0.1068;-5.6001;
3419222919942;-11.3521;-1.2323;-4.6442;
3419233027963;-11.5774;-0.1472;-2.9961;
3419243135984;-10.5138;0.9667;-3.0966;
3419253273745;-8.2621;0.6864;-3.2213;
3419263381713;-8.5831;-0.4992;-1.3169;
3419273489734;-8.5328;0.7466;-2.6201;
3419283583588;-8.7341;0.6840;-4.2275;
3419293691609;-10.0828;0.6099;-5.4347;
3419303799630;-9.9724;0.3081;-3.5016;
3419313914422;-10.5257;0.6099;-2.8956;
3419324022442;-9.3784;0.0135;-1.9923;
3419334130463;-7.8978;0.2530;-1.4892;
3419344210151;-9.3281;0.0230;-1.5156;
3419354318172;-10.2574;-0.2907;-2.4069;
3419364426192;-7.6920;0.4062;-3.8297;
3419374542234;-7.5769;-0.5136;-5.0539;
3419384650255;-10.7653;-0.4825;-4.1219;
3419394758276;-10.5879;-0.7747;-2.7709;
3419404896192;-8.1398;-0.6861;-3.4466;
3419415004213;-11.0862;-0.6837;-3.3960;
3419425112234;-11.3210;0.2243;-0.1717;
3419435200047;-11.1197;0.0182;0.4845;
3419445308067;-5.7514;-1.0741;-2.0378;
3419455416088;-5.0474;-0.4825;-5.7867;
3419465549213;-9.1340;-0.6622;-5.9402;
3419475657234;-11.3258;-0.3676;-3.1472;
3419485765255;-9.1651;0.0948;-3.6742;
3419495839317;-11.1535;-0.1328;-4.4839;
3419505947338;-12.8375;0.1259;-1.9421;
3419516055359;-8.8801;0.0637;-0.3562;
3419526201609;-8.6812;-0.5207;-1.3026;
3419536309630;-7.8858;-0.6144;-2.3734;
3419546417651;-10.1641;0.1283;-3.0368;
3419556500567;-9.5845;0.6817;-2.9363;
3419566608640;-7.3588;-0.2213;-3.0846;
3419576716713;-9.9293;-0.2429;-3.8776;
3419586824942;-9.3951;0.0852;-3.4466;
3419596933015;-8.4392;0.7175;-4.1770;
3419607041088;-10.7270;0.3583;-4.6753;
3419617152442;-8.6883;0.3488;-2.3925;
3419627260515;-5.8164;0.9954;-3.1687;
3419637368588;-7.8906;0.3559;-6.8647;
3419647497807;-11.1535;0.3248;-5.5137;
3419657605828;-12.0374;0.3464;-1.8200;
3419667713901;-8.8442;1.0364;1.3301;
3419677800880;-7.0403;0.7056;0.5085;
3419687908953;-7.9843;0.6912;-3.0153;
3419698017026;-9.0000;0.4253;-4.9005;
3419708127286;-10.5760;-0.6407;-6.2300;
3419718235359;-9.6538;-0.4537;-6.4528;
3419728343432;-10.5544;-0.8297;-3.9063;
3419738449942;-8.3770;-0.5040;-2.5839;
3419748558015;-8.1398;-0.1878;-1.3911;
3419758666088;-10.7486;-0.2309;-1.4390;
3419768765359;-10.2670;0.2506;-1.2257;
3419778873484;-11.6731;0.0302;-0.7226;
3419788981505;-11.2899;0.3416;-0.5671;
3419799107442;-8.8872;-0.2118;-1.8153;
3419809215515;-5.0378;-0.4083;-3.4848;
3419819323588;-7.0857;-0.3170;-3.9855;
3419829418120;-8.7123;0.1881;-5.0827;
3419839526192;-11.5367;1.3502;-4.5796;
3419849634265;-10.6696;0.4612;-3.2955;
3419859741297;-6.1205;0.6290;-2.5313;
3419869849370;-6.2713;0.3009;-2.6297;
3419879957442;-11.0815;0.2554;-5.6240;
3419890089786;-12.8303;0.2913;-3.0535;
3419900197859;-12.7633;0.2028;-0.4400;
3419910305932;-7.8523;0.1451;1.2655;
3419920403067;-3.8040;-0.3123;-1.3887;
3419930511140;-8.8035;-0.1639;-4.9292;
3419940619213;-10.9666;0.7442;-4.1291;
3419950735463;-8.5998;1.0484;-4.3711;
3419960843536;-6.4750;0.1355;-5.6647;
3419970951609;-9.5148;0.1068;-5.1401;
3419981049942;-8.8825;0.5835;-3.3458;
3419991158015;-9.8862;-0.4370;-3.8943;
3420001266088;-13.1273;-0.5231;-1.7934;
3420011359005;-8.9686;-0.1735;1.1698;
3420021467078;-5.5193;-0.1615;1.2033;
3420031575151;-7.6657;-0.6287;-2.7422;
3420041699942;-10.0923;-0.7507;-4.5508;
3420051808015;-11.6830;-0.9712;-5.0515;
3420061916088;-11.7787;-0.3676;-2.6967;
3420072021817;-6.9039;-0.8560;-1.4318;
3420082129890;-6.3697;-1.2969;-4.0502;
3420092237963;-8.9160;-0.9233;-4.0765;
3420102352286;-10.1617;-0.7795;-5.0731;
3420112460359;-14.2196;-1.1171;-4.2921;
3420122568432;-13.4435;-0.5495;0.8725;
3420132681192;-6.5085;-0.8608;1.8117;
3420142789265;-4.9322;-0.5207;-0.6628;
3420152897338;-7.6848;-0.3314;-3.1998;
3420162990567;-10.9092;0.0182;-2.3734;
3420173098692;-10.4037;-0.2261;-1.5132;
3420183206765;-8.6094;-0.2907;-3.6284;
3420193321245;-8.1063;-1.5245;-6.1822;
3420203429265;-9.6849;-1.3065;-7.3511;
3420213537338;-10.5544;-1.4862;-3.4107;
3420223619109;-8.1661;-0.9473;-1.5227;
3420233727182;-7.4524;-1.2921;-2.3228;
3420243835255;-7.6801;-1.6681;-2.3180;
3420254001974;-7.2177;-0.6479;-3.4418;
3420264109995;-8.4392;-1.2538;-4.2730;
3420274218067;-11.1607;-1.0908;-4.0502;
3420284278849;-8.2430;-0.2261;-2.8932;
3420294386922;-9.8145;-0.2477;-3.3458;
3420304494995;-13.6950;-0.8465;-2.5863;
3420314613797;-8.3985;-0.6933;-1.9804;
3420324721870;-6.9589;-0.7507;-4.8168;
3420334829942;-9.9054;-1.3089;-3.5064;
3420344956453;-9.2874;0.2001;0.3215;
3420355064526;-3.4663;0.6242;-1.7073;
3420365172599;-2.1679;0.3703;-7.3702;
3420375287442;-12.8255;0.7609;-9.6150;
3420385395515;-16.5936;0.8447;-3.2668;
3420395503588;-9.9796;0.4373;-1.1779;
3420405613172;-7.5625;-0.7053;-1.1324;
3420415721297;-7.9699;-0.9305;-2.1960;
3420425829317;-10.0394;-0.6335;-2.6919;
3420435903797;-9.0646;-0.7340;-1.5302;
3420446011870;-8.2693;0.1953;-2.3614;
3420456119942;-7.3181;1.0172;-3.0775;
3420466237130;-10.2885;0.5548;-3.9832;
3420476345203;-8.8179;1.3358;-4.2203;
3420486453276;-5.7610;0.2076;-3.7627;
3420496564213;-7.5888;0.4301;-7.8876;
3420506672286;-10.7988;0.6793;-5.5113;
3420516780359;-8.2837;1.1608;-2.4858;
3420526954786;-6.0389;0.4253;-3.8584;
3420537062807;-9.0431;0.4134;-3.2548;
3420547170880;-8.4754;0.9739;0.8031;
3420557210463;-5.6031;1.0771;0.1469;
3420567318588;-11.6181;0.1810;-4.1291;
3420577426661;-14.1311;0.1355;-5.7939;
3420587533901;-7.0857;-0.7077;-4.2706;
3420597642026;-7.1387;-1.1076;-5.9665;
3420607750099;-6.3529;-0.2835;-5.8516;
3420617870620;-5.7948;0.1499;-3.5638;
3420627978745;-4.6184;0.8495;-4.3376;
3420638086817;-7.1339;0.6482;-4.5461;
3420648185099;-9.4143;0.8231;-3.8441;
3420658293172;-6.6787;0.4253;-1.3935;
3420668401245;-5.2173;-0.2261;-2.3949;
3420678512963;-5.7012;-0.7460;-4.2299;
3420688621088;-10.7414;-1.3831;-2.8717;
3420698729161;-15.9709;-1.6633;-0.3012;
3420708828640;-9.7998;-1.7186;1.6920;
3420718936765;3.6604;-2.3773;-0.6197;
3420729044838;0.4193;-1.8048;-4.5915;
3420739159526;-4.0723;-1.0765;-5.6480;
3420749267651;-2.5439;-2.5187;-6.8288;
3420759375724;-12.6290;-2.9282;-6.1917;
3420769497026;-31.0385;-3.9703;-2.7015;
3420779605151;-39.6718;-4.6531;9.9299;
3420789713224;-25.3947;-5.1826;26.2026;
3420799812442;-3.7513;-5.0507;18.3574;
3420809920567;-4.9442;1.6639;-3.2189;
3420820028640;-7.9241;-1.2610;-0.8426;
3420830133901;-8.9782;-2.7440;4.0250;
3420840242026;-25.1551;0.1116;1.9265;
3420850350099;-28.2021;0.4086;4.0681;
3420860463640;-0.2659;1.0002;-0.3179;
3420870571765;6.3027;-0.0176;-10.7791;
3420880679838;-10.6409;0.6601;-13.0307;
3420890792963;-14.3393;2.1191;-4.2778;
3420900901088;-8.7317;2.4712;1.7064;
3420911009161;-5.7658;2.2388;9.2833;
3420921106817;-12.1092;2.3154;17.4589;
3420931214942;1.8709;2.8424;10.2488;
3420941323015;-5.0474;-7.6666;-37.3956;
3420951445672;-30.4995;-11.4419;-45.5857;
3420961553797;-20.9438;1.8532;0.9278;
3420971661870;-6.0054;2.5837;-12.0823;
3420981756192;-3.8112;0.7319;-6.2013;
3420991864317;-4.3789;5.2618;6.6721;
3421001972390;-5.8403;4.0403;2.9925;
3421012105984;-17.6860;1.5491;-5.1688;
3421022214057;-32.0255;0.7032;-11.2558;
3421032322182;-15.8988;-1.8000;-1.8033;
3421042404526;7.2105;-2.1114;3.4382;
3421052512651;11.6013;-0.8225;-1.0893;
3421062620724;-12.8758;0.8160;-4.8096;
3421072724213;-37.5518;1.8173;-3.3003;
3421082832338;-13.5105;-1.0573;-10.2497;
3421092940411;-4.3597;-3.1941;-6.5653;
3421103057338;-6.5731;1.5129;-5.9450;
3421113165463;-5.4688;3.3646;-4.8263;
3421123273536;-1.2168;3.5587;-1.6116;
3421133453849;-3.5501;4.5625;-3.4968;
3421143561922;-4.9561;4.2607;-5.2816;
3421153669995;-4.8820;2.7395;-8.4625;
3421163690776;-4.6783;0.9978;-9.8282;
3421173798901;-2.7739;2.2771;-11.6486;
3421183906974;-10.2024;2.3417;-11.7709;
3421194037286;-15.0174;1.7213;-8.0554;
3421204145411;-14.7012;0.6769;2.3315;
3421214253484;-11.9800;-0.3556;10.9361;
3421224344213;-10.7294;-0.8755;17.0519;
3421234452338;-3.0063;-2.5427;10.9983;
3421244560411;-14.5573;-2.6743;-17.1942;
3421254680672;-23.5741;-1.5676;-10.7982;
3421264788797;-10.1665;-2.0515;10.2535;
3421274896870;-5.4544;-0.4178;-2.3901;
3421285012963;-5.3157;0.7896;0.8653;
3421295121088;-7.2272;0.4783;3.2130;
3421305229161;-8.0154;1.1584;-1.4294;
3421315345880;-8.3387;-0.7986;-2.4930;
3421325454005;-10.6023;-0.9018;-3.1615;
3421335562078;-8.8968;-0.6670;1.7686;
3421345646401;-7.7830;-1.1940;3.4095;
3421355754526;-5.4305;-1.6681;1.9217;
3421365862599;-8.2454;-1.8215;-2.7829;
3421375975359;-16.1910;-2.4634;-5.4897;
3421386083484;-13.1800;-3.3452;-3.4968;
3421396191557;-7.9675;-3.0529;-2.1147;
3421406297755;-5.9767;-2.9426;-4.1124;
3421416405880;-11.2684;-2.9210;-6.1582;
3421426513953;-13.3478;-0.8850;0.5037;
3421436632651;-0.5844;0.0015;1.0953;
3421446740776;-5.2388;0.3224;-3.0607;
3421456848849;-20.2155;1.1249;-0.0425;
3421466950620;-9.0455;0.6888;2.5184;
3421477058745;-2.0530;0.0206;-1.1515;
3421487166817;-17.3722;-1.7091;-6.3042;
3421497279213;-17.3650;-0.9544;-0.0855;
3421507387338;2.9704;-0.4226;1.4261;
3421517495411;-3.3320;-0.3147;-4.4886;
3421527609890;-15.5133;0.5907;-4.3807;
3421537718015;-23.1524;1.0484;-0.9144;
3421547826088;-12.1475;3.0556;4.7390;
3421557923901;6.5686;1.4267;-0.0712;
3421568032026;3.4113;-1.6394;-16.7486;
3421578140151;-7.4596;-2.2768;-14.5855;
3421588247963;-18.1484;5.2235;2.8657;
3421598356088;-19.2790;5.7027;-0.3730;
3421608464213;-4.9609;4.0618;-4.7231;
3421618573276;-3.7250;1.1369;-2.8116;
3421628681401;-16.0427;-0.3604;3.3233;
3421638789526;-13.9466;2.9145;5.1174;
3421648900776;-10.8924;2.2819;-6.8647;
3421659008901;-10.2550;-6.5169;-8.7909;
3421669117026;1.4830;-4.4112;2.9830;
3421679223797;-1.6600;1.4578;-8.1057;
3421689331922;-20.7138;-0.7603;-16.3415;
3421699440047;-17.1589;2.2388;4.2503;
3421709541192;-3.0517;5.5110;10.1001;
3421719649317;-5.7562;0.1116;-10.8485;
3421729757442;-12.9236;-3.5465;-16.0182;
3421739869317;-8.5543;-0.4490;-2.5696;
3421749977442;-2.7739;3.6736;5.7715;
3421760085567;-6.1804;2.6964;4.6433;
3421770208588;-5.7132;-1.3998;-4.6753;
3421780316713;-11.0288;-1.7067;-17.2947;
3421790424838;-21.1092;0.1881;-11.7254;
3421800533484;-10.9307;-0.1759;9.0867;
3421810641609;-3.1092;1.4674;0.9996;
3421820749734;-13.4483;-4.0854;-16.8733;
3421830843901;-17.9973;-4.3825;-8.0291;
3421840952026;-9.9844;-1.6732;9.7672;
3421851060151;-6.8847;-0.4466;6.3033;
3421861191713;-2.0025;-0.7101;-2.8020;
3421871299838;-5.9504;-1.5532;-5.8445;
3421881407963;-4.3119;-0.4011;-11.5552;
3421891498276;9.3090;0.6027;-13.6561;
3421901606401;-10.0035;0.1307;-13.7614;
3421911714526;-30.6335;0.1570;-5.8756;
3421921839370;-18.7783;1.2975;8.9839;
3421931947495;-6.7792;-1.5461;14.8624;
3421942055620;-9.7687;-2.3725;5.5199;
3421952149213;-11.4048;-2.4012;-3.1424;
3421962257338;-7.3493;-3.7211;-4.6059;
3421972365463;-4.5873;-3.5174;-6.8049;
3421982469526;-9.7759;-3.4887;-14.2717;
3421992577651;-6.5444;-2.7631;-8.6423;
3422002685776;-9.2225;-1.3687;0.5252;
3422012795359;-19.6908;-0.1400;-2.7924;
3422022903484;-18.7304;-0.4633;-2.3109;
3422033011609;-11.6468;0.8399;9.6281;
3422043117286;-1.9690;-0.0945;9.0604;
3422053225411;-11.6758;1.1871;-3.0248;
3422063333484;-11.8433;2.9551;9.2043;
3422073438797;7.4740;3.9661;17.0255;
3422083546922;-3.2387;2.0518;-22.6487;
3422093655047;-30.0850;-5.1081;-42.3183;
3422103779109;-15.5181;-4.0349;-7.1716;
3422113887234;1.1426;1.4937;17.4111;
3422123995359;-6.0655;-3.5198;-6.8312;
3422134096297;-6.8895;-3.1271;-10.3190;
3422144204422;-10.6074;1.3430;0.1612;
3422154312547;-16.5577;2.1814;3.7400;
3422164409942;-8.2382;2.8113;4.6528;
3422174518067;-1.4180;2.5454;3.3879;
3422184626192;-6.6571;1.2855;-7.7225;
3422194734630;-12.8734;-1.1390;-15.2061;
3422204842755;-15.8773;0.3679;-9.4472;
3422214950880;-10.7079;1.4148;-0.3443;
3422225075047;-5.6509;-0.0945;-0.3323;
3422235183172;-11.3521;-0.9401;-1.1157;
3422245291297;-8.4754;0.7343;3.1579;
3422255386192;-5.7491;1.2446;-0.6485;
3422265494317;-10.7653;0.4854;-7.7321;
3422275602442;-15.0078;1.0125;-4.7856;
3422285704109;-9.7711;1.3262;-1.8990;
3422295812234;-11.6348;0.6027;-2.9818;
3422305920359;-9.0024;0.7466;1.7303;
3422316047338;0.9488;0.8518;1.0379;
3422326155463;-4.5467;-0.0583;-9.5189;
3422336263588;-17.9184;1.3023;-8.8460;
3422346349317;-7.9436;2.5717;0.1445;
3422356457442;-5.9073;0.4158;-3.2501;
3422366565567;-7.1483;0.6194;-4.3543;
3422376689630;-8.7027;1.0125;-3.5040;
3422386797755;-10.9451;0.3057;-6.2946;
3422396905880;-10.6074;0.6170;-1.3624;
3422407027286;-7.0810;-0.7723;0.1804;
3422417135411;-8.5089;-0.2883;-3.1591;
3422427243536;-7.1722;0.4612;-0.7947;
3422437341088;-8.9638;-0.0873;-4.6226;
3422447449265;-22.8649;-1.1509;-5.8971;
3422457557338;-10.3125;-0.9688;3.8166;
3422467666297;2.0435;-1.1339;0.4558;
3422477774422;-15.1612;-1.0310;-9.7442;
3422487882547;-16.5793;-0.8417;0.2474;
3422497984942;-2.6255;0.7223;8.2771;
3422508093067;-4.7456;-0.1065;-3.2859;
3422518201192;-18.4238;-0.9401;-9.7872;
3422528312651;-17.0417;0.4612;2.3219;
3422538420776;5.4401;-0.4872;2.0943;
3422548528849;0.4074;-2.4706;-12.1780;
3422558645515;-14.6868;-2.2887;-14.2167;
3422568753640;-15.5755;-1.5078;0.0823;
3422578861765;-5.8786;-1.2778;0.1612;
3422588958172;-6.6428;-1.2634;-4.5915;
3422599066297;-13.4219;-0.7747;-2.9578;
3422609174422;-10.7725;-1.3639;2.0608;
3422619286349;-6.4439;-0.8707;-2.0545;
3422629394474;-9.5414;-0.3987;-6.7427;
3422639502599;-8.3961;-0.3628;-2.2941;
3422649600672;-7.4477;-0.2716;-2.6967;
3422659708849;-16.4569;-1.3376;-7.2051;
3422669817026;-11.4123;-0.1950;0.1158;
3422679930359;-1.9475;0.1116;1.6992;
3422690038536;-10.5951;-2.0994;-10.0196;
3422700146713;-14.3587;-0.5423;-6.5198;
3422710257286;-9.6706;0.5979;6.7534;
3422720365411;-1.4324;-0.5495;5.2684;
3422730473588;-4.1441;-0.4490;-7.8589;
3422740585724;-14.7371;0.2554;-13.4620;
3422750693849;-20.6133;0.5955;2.3459;
3422760801974;-9.5940;-0.7986;7.2924;
3422770920932;-5.0856;-1.2969;-4.7521;
3422781029057;-6.8991;-2.8205;-8.2615;
3422791137234;-7.9217;-1.6107;-3.3266;
3422801236453;-13.5850;1.2879;-0.1959;
3422811344578;-5.6175;0.3344;-0.0999;
3422821452755;-6.0799;-0.1400;-7.1402;
3422831556557;-13.9035;-0.6814;-7.2864;
3422841664682;-9.4932;0.1140;-1.2978;
3422851772859;-6.9757;-0.6431;-1.3265;
3422861884995;-7.9843;-0.5279;-3.2501;
3422871993120;-10.1713;-0.1113;-2.4715;
3422882101297;-14.6124;0.0852;-1.8511;
3422892213172;-9.1340;0.9260;1.3612;
3422902321297;-4.1584;0.5381;0.6619;
3422912429474;-9.2898;-0.2070;-4.2132;
3422922521088;-11.8768;-1.1291;-8.0004;
3422932629265;-15.8151;-2.0515;-7.1282;
3422942737390;-4.4725;-0.9257;-1.0391;
3422952860411;-6.6906;0.2483;-1.0367;
3422962968536;-10.7198;-1.2084;-1.6475;
3422973076713;-8.5878;-0.7603;-2.8403;
3422983172286;-8.5974;0.3033;-1.6594;
3422993280359;-8.6644;-0.7531;-0.6724;
3423003388588;-9.0838;-0.4250;-4.2921;
3423013511349;-10.7079;-0.1807;-2.6465;
3423023619474;-12.2025;-0.9138;-1.8105;
3423033727599;-8.5208;-0.1400;-2.5481;
3423043834057;-6.7050;-1.0980;-1.8751;
3423053942182;-12.5333;-0.6072;-3.8201;
3423064050359;-13.7764;0.0685;-0.5073;
3423074140515;-4.7719;-0.3532;1.3588;
3423084248640;-5.7251;-1.2586;-3.9254;
3423094356817;-10.1474;-0.9233;-7.2625;
3423104464630;-13.7333;-0.1256;-4.8790;
3423114572807;-12.2025;1.0484;2.6524;
3423124680984;-4.6902;0.0613;2.8059;
3423134794422;-6.5204;-2.3055;-6.4481;
3423144902599;-13.7668;-0.4825;-4.4644;
3423155010724;-9.9485;0.6817;2.5950;
3423165137078;-9.8025;0.5883;-1.9636;
3423175245203;-8.7987;-0.3891;-4.6681;
3423185353380;-5.3061;0.3224;-4.8359;
3423195488015;-11.5534;0.2001;-5.3007;
3423205596140;-10.5042;1.4985;-2.3518;
3423215704317;-9.2154;0.6912;-2.0764;
3423225808536;-9.9604;-0.7675;-3.8225;
3423235916661;-8.4464;-0.5542;-4.2897;
3423246024838;-12.4158;-0.2955;-2.1410;
3423256101557;-8.8202;0.0350;1.4907;
3423266209682;-5.1407;0.2674;-1.6499;
3423276317859;-6.7193;-0.5471;-6.3715;
3423286440620;-13.0292;0.0900;-5.7054;
3423296548745;-10.8562;0.1140;-2.5935;
3423306656922;-6.7744;-0.3437;-2.1194;
3423316755515;-8.4945;-0.0105;-3.5303;
3423326863640;-9.2489;-0.1328;-5.1520;
3423336971817;-10.7031;-0.5806;-5.2816;
3423347076245;-12.1953;-0.0368;-1.3409;
3423357184370;-7.4022;-0.7364;2.8418;
3423367292547;-9.4717;-1.7186;-2.8451;
3423377411349;-13.1536;-1.1653;-3.5853;
3423387519474;-7.5410;-0.5255;-3.1472;
3423397627651;-10.2742;-0.4131;-3.9879;
3423407703692;-9.8575;-1.4503;-1.8559;
3423417811870;-6.9398;-1.8120;-3.5040;
3423427919995;-11.2923;-1.1028;-4.0143;
3423438039005;-9.0215;-0.5590;-0.2916;
3423448147182;-8.7194;-0.9520;-1.1492;
3423458255307;-5.8929;-0.6981;-4.6490;
3423468369682;-8.9566;-1.9316;-4.8215;
3423478477807;-9.6251;0.3129;-4.0214;
3423488585984;-12.6194;-0.1687;-1.0558;
3423498697390;-9.5653;-1.3831;-0.3275;
3423508805515;-8.1206;-0.9784;-2.1314;
3423518913640;-11.4649;-0.8560;-3.0464;
3423529067547;-14.5095;-0.9425;-2.2080;
3423539175672;-15.5013;-0.9233;-0.3754;
3423549283849;1.7417;-1.1653;0.0197;
3423559343380;3.8569;-0.6096;-6.6254;
3423569451557;-13.0747;-0.7627;-10.9780;
3423579559682;-20.5941;0.3105;-2.5289;
3423589675880;-11.2732;0.9212;4.0633;
3423599784057;-7.4477;0.6817;-1.4031;
3423609892182;-7.5529;-1.0502;-4.5054;
3423619997963;-3.4687;-1.0334;-4.4767;
3423630106140;-13.8317;0.7633;-3.9760;
3423640214265;-10.5640;1.6089;5.5726;
3423650319109;-2.1176;0.8614;1.0881;
3423660427286;-10.9379;-1.4121;-13.3448;
3423670535411;-15.6784;0.0182;-8.6447;
3423680644526;-8.0680;1.1010;2.3865;
3423690752703;-5.1646;0.4205;-3.2333;
3423700860828;-9.0598;-1.3328;-9.3969;
3423710967130;-14.0734;-1.5341;-5.3533;
3423721075307;-8.5854;0.8734;6.5620;
3423731183432;-1.5739;0.5907;7.0866;
3423741288380;-12.7753;-0.1591;-7.4925;
3423751396557;-15.3263;-0.0488;-8.6518;
3423761504682;-5.1861;1.0603;-0.7708;
3423771628745;-5.4808;0.4134;-4.3615;
3423781736870;-13.8987;-0.8417;-4.2826;
3423791844995;-14.5238;1.3669;1.7925;
3423801953120;-8.6357;-0.3796;1.7614;
3423812073692;-9.7902;-0.9616;-0.3921;
3423822181870;-6.1158;-1.1988;-2.4882;
3423832289995;-10.1115;-0.9808;-6.1343;
3423842372234;-10.3415;-0.3290;-3.9039;
3423852480411;-7.2535;-0.2548;-1.6690;
3423862588536;-10.9642;-0.6431;-2.7350;
3423872691609;-7.5912;-0.4825;-3.1783;
3423882799786;-15.5348;0.0541;-2.3061;
3423892907911;-18.1029;0.4325;2.0895;
3423903033172;-5.2558;0.3655;3.4549;
3423913141349;-0.8647;-0.8707;-5.3318;
3423923249474;-12.9428;-1.7258;-10.0747;
3423933419682;-10.3798;1.3190;-0.2892;
3423943527807;-2.1440;1.1297;1.8165;
3423953635932;-18.1555;-0.9951;-7.5404;
3423963664526;-20.4742;0.3440;-4.5915;
3423973772651;-1.0732;0.9930;1.3875;
3423983880828;2.0243;-2.1616;-5.8349;
3423994006453;-8.5376;-2.8971;-9.3419;
3424004114630;-17.6405;0.9763;-1.8775;
3424014222755;-10.4611;2.5741;4.0011;
3424024274995;-6.7720;1.7812;-1.1539;
3424034383120;-10.8924;-1.1844;-5.4610;
3424044491245;-6.9972;-0.7723;-3.5447;
3424054657338;-6.3888;-0.6191;-8.4099;
3424064765515;-13.5754;-1.4022;-10.2209;
3424074873640;-11.6348;0.3200;2.7820;
3424084984422;-6.1229;1.0986;5.2038;
3424095092599;-10.9786;0.1164;-4.3208;
3424105200724;-7.1794;-1.1533;-1.9229;
3424115306922;-4.0723;-0.0945;-2.4188;
3424125415099;-12.0206;-1.1486;-12.2163;
3424135523224;-14.9719;-1.7210;-7.0923;
3424145642442;-11.1054;0.2985;7.5224;
3424155750620;-2.7332;1.4985;5.8887;
3424165858745;-8.9303;0.1235;-6.4983;
3424175943380;-10.9116;-1.8742;-9.9215;
3424186051557;-7.5817;0.7247;-3.5423;
3424196159682;-11.0551;0.8255;-0.0114;
3424206270047;-16.7758;-1.2275;-1.4581;
3424216378224;-10.2048;-0.3556;1.8906;
3424226486349;-2.5630;0.5620;2.0201;
3424236585151;-4.3884;-1.0095;-7.3702;
3424246693328;-15.5611;-1.4312;-10.8006;
3424256801453;-11.0504;-0.6359;-0.1884;
3424266938067;-4.4195;0.3966;3.2704;
3424277046245;-8.6381;-0.8369;-3.2237;
3424287154370;-14.4066;-1.0406;-4.2682;
3424297253172;-10.1761;0.1953;-0.6389;
3424307361349;-5.3683;0.1379;-1.5060;
3424317469474;-7.8500;-0.7077;-5.1640;
3424327548380;-12.1714;-0.6837;-4.1291;
3424337656557;-13.7309;-0.1208;0.2139;
3424347764682;-9.0766;0.0302;2.1972;
3424357891817;-1.8565;0.1235;-3.9688;
3424367999995;-10.7079;-2.1832;-10.7264;
3424378108120;-12.1259;-1.4360;-5.9617;
3424388218692;-12.2267;-0.2716;1.6367;
3424398326870;-10.8467;0.4469;3.8264;
3424408434995;-2.9871;0.4711;-0.3826;
3424418550463;-9.7472;-1.3208;-8.5418;
3424428658640;-14.1503;-0.9832;-4.1076;
3424438766765;-8.7075;1.0962;3.1579;
3424448865880;-6.4989;-0.1304;-2.2630;
3424458974057;-13.9179;-0.8898;-7.2793;
3424469082182;-11.7571;-0.7364;-2.0668;
3424479188901;-9.4406;-0.0873;2.0776;
3424489297078;-5.7634;-0.6335;-1.2643;
3424499405203;-7.5721;-0.6790;-7.3558;
3424509510776;-12.4684;-1.5556;-5.4347;
3424519618953;-11.6228;-0.3652;0.5683;
3424529727078;-5.9527;0.6864;-0.4738;
3424539847026;-5.7275;-1.1339;-5.3509;
3424549955203;-9.1771;-1.4312;-5.4873;
3424560063328;-12.6936;-1.3161;-4.2132;
3424570166557;-16.1839;0.3942;-0.1310;
3424580274682;-5.3827;0.3344;4.4109;
3424590382859;-5.8594;-0.1232;-3.4848;
3424600490255;-9.8384;-2.2792;-7.6986;
3424610598380;-6.4319;1.0723;-4.2299;
3424620706557;-8.6405;0.7295;-3.4513;
3424630815620;-11.8600;-0.5351;-4.9747;
3424640923745;-8.1541;-1.6466;-3.1205;
3424651031922;-5.8499;-1.3352;-4.0143;
3424661162547;-4.7695;-0.5853;-3.2070;
3424671270672;-13.0531;-0.7029;-3.0368;
3424681378849;-15.8103;-0.5662;-1.6738;
3424691462390;-13.2832;-0.2500;4.4683;
3424701570515;-9.9772;-0.0057;4.1450;
3424711678692;-7.7471;0.0948;-3.0990;
3424721809474;-7.8763;-2.9234;-5.5184;
3424731917599;-11.4793;-1.6585;-5.4275;
3424742025776;-10.8084;-0.6598;-3.1110;
3424752118015;-7.6920;0.7295;-1.2305;
3424762226140;-13.3502;-0.7507;-1.8200;
3424772334317;-11.3019;-0.0009;1.8858;
3424782427755;-3.4998;0.2961;1.4979;
3424792535932;-7.9555;-0.4848;-7.5667;
3424802644109;-8.2597;-0.7531;-7.2266;
3424812759422;-4.2185;0.1690;-1.7240;
3424822867547;-9.1436;1.5754;-0.4041;
3424832975724;-11.2923;0.2818;-4.5556;
3424843085515;-11.4458;-0.6718;-7.0325;
3424853193640;-7.7901;-0.6742;-6.4744;
3424863301817;-6.9398;-0.8707;-5.0228;
3424873433536;-8.0058;-0.8082;-3.6933;
3424883541661;-10.2861;-1.4240;-2.6871;
3424893649838;-12.9069;-0.4107;-1.6618;
3424903723692;-15.2617;-0.9879;2.8346;
3424913831870;-4.9851;0.8877;4.1713;
3424923940047;-7.6534;0.7561;-2.7446;
3424934111974;-18.8477;-2.4682;-6.9583;
3424944220099;-15.4869;0.6458;0.3984;
3424954328276;-4.8174;0.4134;6.2363;
3424964379161;-8.9160;-0.5614;-0.9024;
3424974487286;-8.1470;-1.0190;-3.1038;
3424984595463;-6.3290;1.1943;-3.1998;
3424994687130;-11.0097;0.5668;-6.8671;
3425004795307;-9.0718;0.9141;-6.7427;
3425014903484;-8.2813;0.8399;-2.4188;
3425025020255;-6.0317;0.2219;-2.5576;
3425035128380;-7.0068;0.0876;-6.0263;
3425045236557;-9.2178;0.2722;-4.7498;
3425055356922;-9.2249;0.1283;-2.0617;
3425065465047;-11.7188;-0.1543;-5.0994;
3425075573224;-9.5988;0.1714;-3.2572;
3425085671297;-6.0389;0.1068;0.2091;
3425095779474;-7.3062;-0.7627;-6.1893;
3425105887651;-11.9318;-0.4920;-8.2496;
3425116003432;-12.8447;0.3248;1.7375;
3425126111557;-7.3780;0.1905;2.7314;
3425136219734;-7.9771;0.1618;-3.8608;
3425146335515;-11.5343;-0.6670;-2.0234;
3425156443640;-12.0230;0.7657;-0.3299;
3425166551817;-13.3884;0.4301;-1.1276;
3425176659265;-7.7853;-0.2835;-0.3610;
3425186767390;-9.5315;0.0517;-1.5227;
3425196875567;-10.3415;-0.2931;-0.3945;
3425206970672;-8.3507;0.1786;-0.6030;
3425217078849;-6.4534;-0.0464;-4.2538;
3425227187026;-8.1924;-0.9090;-8.5226;
3425237299734;-10.0322;-0.4609;-5.9809;
3425247407911;-8.9495;0.2578;-1.2449;
3425257516088;-10.6959;0.6912;-0.2821;
3425267643640;-7.9508;-0.2548;-2.0979;
3425277751765;-8.9016;-1.2682;-4.9603;
3425287859942;-9.5486;0.0326;-2.1625;
3425297948276;-5.0474;0.5501;0.2282;
3425308056453;-11.7236;-0.2261;-6.1750;
3425318164630;-13.7357;-1.1004;-4.6777;
3425328265151;-7.2870;0.3033;-0.9670;
3425338373276;-6.0293;-0.6718;-2.6201;
3425348481453;-6.6523;-1.4551;-5.5834;
3425358606870;-11.6085;-1.2897;-5.0061;
3425368714995;-13.3765;-0.8489;-0.7732;
3425378823172;-8.4873;-0.4466;2.6118;
3425388929057;-8.3985;0.0470;-0.3514;
3425399037182;-11.8887;-1.4288;-1.9828;
3425409145359;-8.0847;-0.9927;-1.9062;
3425419270620;-6.5803;-1.5772;-4.2156;
3425429378745;-9.3592;-1.2108;-5.8612;
3425439486922;-13.2781;-0.7484;-2.8451;
3425449573432;-18.1843;-0.7460;0.7816;
3425459681609;-5.8905;0.4735;4.0657;
3425469789786;-3.0661;-0.0802;-2.3327;
3425479897234;-10.9020;-1.7115;-9.8498;
3425490005411;-12.5572;-0.9305;-4.4644;
3425500113588;-7.5434;0.1953;4.1282;
3425510227599;-7.4955;-0.0511;0.0485;
3425520335724;-11.7260;-1.0621;-4.6059;
3425530443901;-12.1977;-0.8249;-3.0129;
3425540553953;-3.4567;0.1881;-2.1099;
3425550662078;-6.2043;-0.7627;-7.4877;
3425560770255;-14.7443;-1.8168;-6.5653;
3425570876088;-11.4817;-0.5901;2.0321;
3425580984213;-8.8346;0.1499;2.4993;
3425591092390;-6.7457;0.1618;-2.0115;
3425601211140;-7.2846;-0.6622;-6.5533;
3425611319265;-9.2106;-1.6370;-7.8446;
3425621427442;-5.8762;-0.6694;-6.6206;
3425631526245;-12.7585;-1.0693;-2.8717;
3425641634370;-11.5487;-0.9855;0.2833;
3425651742547;-6.3048;-0.2883;-0.6126;
3425661848276;-5.2534;-0.2477;-4.3208;
3425671956453;-11.1583;-1.1557;-4.5532;
3425682064630;-14.7443;-0.7938;-2.4117;
3425692173588;-22.6277;-0.6359;3.1747;
3425702281713;-17.0560;-0.9688;10.7779;
3425712389890;1.4471;0.4301;5.7021;
3425722500411;-3.4328;-2.5666;-12.5423;
3425732608536;-9.8025;-2.1832;-13.9986;
3425742716713;-10.4276;-0.1831;-4.7112;
3425752812286;-7.8571;0.8279;2.2358;
3425762920463;-7.6534;1.8820;-0.4810;
3425773028640;-10.1019;0.8447;-3.6643;
3425783160255;-11.9895;0.4660;0.8749;
3425793268380;-5.8834;-0.8321;-1.4701;
3425803376557;-10.8924;-0.3242;-10.8485;
3425813465307;-10.9020;0.0015;-4.1770;
3425823573432;-4.2927;-0.8273;5.5175;
3425833681609;-7.3564;-0.1663;-2.4452;
3425843806245;-12.6984;-1.2299;-9.8183;
3425853914370;-9.4095;-1.1988;-11.7972;
3425864022547;-11.0480;-1.1964;-9.3921;
3425874109317;-7.0259;-0.4083;-0.3227;
3425884217442;-9.3736;-0.1591;3.4071;
3425894325620;-12.9835;-0.1376;1.6750;
3425904464161;-12.2674;-0.7388;4.7462;
3425914572286;-7.6729;0.6936;2.5878;
3425924680463;-8.3698;1.1201;-3.8704;
3425934758276;-8.5496;-0.1591;-4.2969;
3425944866453;-7.9866;-0.4394;-6.9368;
3425954974630;-12.6529;-1.3472;-7.3965;
3425965112703;-4.9801;0.1283;-2.4882;
3425975220828;-8.7051;-0.4202;-2.2534;
3425985329005;-13.1225;0.7513;-2.6465;
3425995461817;-6.6882;1.0436;-1.2715;
3426005569942;-11.4338;-0.4418;-4.7737;
3426015678120;-13.1967;-0.1376;-2.5552;
3426025742078;-5.5071;0.7175;3.3808;
3426035850203;-6.3410;0.0350;-2.3590;
3426045958380;-10.8682;-0.7101;-5.3629;
3426056075620;-6.2976;-1.2036;-3.9951;
3426066183745;-9.0311;-0.1280;-9.1980;
3426076291922;-16.6319;0.0206;-4.9292;
3426086389942;-10.6600;0.6577;4.0490;
3426096498120;-5.8140;0.6505;2.5998;
3426106606297;-8.2908;-0.7053;-2.3566;
3426116723432;-11.1966;0.1881;-3.7292;
3426126831557;-8.9686;0.9188;-1.9756;
3426136939734;-7.5171;0.0470;-2.8570;
3426147038797;-10.5808;0.1690;-5.7293;
3426157146974;-11.2469;0.0565;-3.4490;
3426167255151;-5.0569;1.0627;-1.0774;
3426177382703;-9.1125;0.0996;-5.7820;
3426187490828;-13.2927;0.5094;-4.7641;
3426197599005;-7.4883;1.3143;0.3529;
3426207688328;-10.1856;0.7056;-2.4165;
3426217796505;-8.8920;0.3655;-3.3314;
3426227904682;-5.4736;0.1546;-1.4007;
3426238011401;-9.2297;-0.3437;-5.4945;
3426248119578;-15.4630;-0.5375;-3.9278;
3426258227755;-8.4272;0.2171;0.5276;
3426268362286;-4.8915;0.4086;-4.4548;
3426278470411;-11.0767;-0.3314;-7.1596;
3426288578588;-13.5586;0.4229;-0.2701;
3426298676349;-10.9187;-0.1735;3.8237;
3426308784474;-6.3024;-0.6742;0.4606;
3426318892651;-7.7782;-0.0921;-4.4381;
3426329024370;-10.1689;-0.3194;-4.0741;
3426339132547;-8.5352;-0.5183;-2.8331;
3426349240672;-10.3316;0.8112;-4.2156;
3426359321661;-13.2637;-0.0993;-1.5972;
3426369429786;-9.8216;-1.2730;-0.4328;
3426379537963;-7.8476;-0.8177;-0.4137;
3426389640932;-5.9982;0.0852;-2.2032;
3426399749057;-5.4951;-0.1041;-7.2649;
3426409857234;-10.8562;-0.6311;-9.0520;
3426419995828;-9.4071;-0.3242;-2.1649;
3426430103953;-10.1928;0.2124;1.4836;
3426440212130;-11.7811;0.0063;-0.5360;
3426450298536;-11.2110;-1.3711;-1.8272;
3426460406661;-7.2799;-1.8526;-2.3830;
3426470514838;-9.2827;-2.0420;-3.1902;
3426480612442;-10.5329;-0.6742;-3.6476;
3426490720620;-9.6706;-0.6287;-1.8296;
3426500828797;-6.4199;-1.2371;-1.0080;
3426510951817;-9.4621;-0.6168;-4.8885;
3426521059942;-11.3856;-1.1988;-4.5700;
3426531168120;-10.0780;-0.4513;-2.2869;
3426541266036;-11.3713;-0.1591;-2.3542;
3426551374161;-15.0461;0.7681;0.7241;
3426561482338;-5.1646;-0.0464;4.8036;
3426571605203;-4.7623;-0.2189;-2.8140;
3426581713380;-11.2445;-0.3652;-7.3367;
3426591821609;-9.1890;-0.9903;-4.8215;
3426601923328;-8.5184;-0.6455;-5.1616;
3426612031505;-11.1341;-1.1028;-4.7474;
3426622139734;-9.0072;-0.7172;-1.6211;
3426632238224;-10.8658;-0.2716;0.6212;
3426642346401;-6.8967;-0.9114;-1.0199;
3426652454630;-9.1531;-0.8249;-4.8000;
3426662552547;-10.9857;0.0326;-2.4715;
3426672660776;-8.3291;-0.1352;-2.1793;
3426682768953;-10.9403;-0.5279;-3.4394;
3426692888328;-12.3009;-0.3891;-0.9168;
3426702996505;-5.1407;-0.1974;-2.7039;
3426713104734;-8.4969;-0.8106;-7.2888;
3426723216140;-13.1895;-0.8536;-2.1649;
3426733324317;-9.4765;-0.5997;3.3401;
3426743432547;-9.3257;0.0661;-2.1194;
3426753536192;-12.0039;0.3033;-4.8191;
3426763644422;-7.8093;-0.9281;-1.3528;
3426773752599;-7.9962;-0.5901;-0.1430;
3426783838276;-8.1494;-0.4944;-4.5796;
3426793946505;-11.7787;-0.6885;-6.5773;
3426804054734;-6.0437;0.0063;-1.4749;
3426814166609;-7.6753;-0.5183;-4.3759;
3426824274838;-16.2197;-0.6550;-4.8335;
3426834383067;-8.8896;-0.3290;1.7853;
3426844550203;-4.8126;-0.0682;-1.0845;
3426854658380;-10.3989;-0.3556;-6.8073;
3426864766557;-8.9901;-1.3400;-2.5337;
3426874851349;-8.1135;-0.0730;-0.1095;
3426884959526;-10.3029;0.5620;-5.0970;
3426895067755;-11.0934;-0.7795;-5.4873;
3426905173640;-10.4276;-0.1783;1.0810;
3426915281817;-1.2120;-0.7531;-0.8880;
3426925390047;-10.1378;0.1307;-9.9646;
3426935522703;-25.7420;-1.7880;-1.8631;
3426945630880;-9.8671;0.0757;8.9671;
3426955739109;-1.8182;1.2398;2.6572;
3426965803172;-7.0020;-0.3963;-8.3213;
3426975911401;-7.9962;-1.3902;-9.6389;
3426986019578;-8.2645;-1.2012;-5.4108;
3426996133015;-9.9221;-1.3256;-1.1348;
3427006241192;-11.7380;0.2554;0.2186;
3427016349422;-11.0599;0.6003;-1.5541;
3427026462495;-5.8403;0.1714;-2.8331;
3427036570672;-6.7600;-1.2395;-3.6141;
3427046678849;-9.7448;-1.3711;-4.6944;
3427056781140;-9.7017;-0.5973;-3.9951;
3427066889317;-13.4937;-0.5016;-2.3542;
3427076997547;-8.1661;0.0829;4.9690;
3427087100620;-7.7351;-0.3266;-4.8311;
3427097208797;-13.7261;-1.1821;-14.6022;
3427107317026;-6.0030;-1.8120;-1.7575;
3427117436870;-5.8355;-1.1243;4.5209;
3427127545047;-14.8424;0.1427;-1.1827;
3427137653276;-8.7461;0.2865;-0.1549;
3427147760620;-9.0838;0.7418;-2.1984;
3427157868797;-14.4449;-0.3147;-0.5408;
3427167976974;-5.5816;-1.0430;0.3840;
3427178076401;-7.4859;0.1068;-5.9019;
3427188184630;-10.5688;-0.8560;-6.0817;
3427198292859;-9.4573;-1.5221;-1.5852;
3427208408745;-10.1019;-0.1352;-2.3877;
3427218516922;-9.0766;-0.2429;-3.9425;
3427228625151;-5.8499;0.1307;-3.8201;
3427238724213;-9.7687;-1.0789;-5.4299;
3427248832442;-10.9116;-0.5949;-2.5624;
3427258940620;-7.9364;-0.0368;1.8069;
3427269069890;-10.2311;-0.1161;-0.2390;
3427279178067;-11.2301;0.4397;-2.1721;
3427289286297;-9.3114;0.1379;-2.6943;
3427299389057;-7.1602;0.1427;-1.6187;
3427309497234;-9.4502;-0.3628;-3.7531;
3427319605463;-14.0016;-0.8850;-6.8671;
3427329724161;-9.8456;-0.2548;0.4128;
3427339832338;-5.8475;-0.1735;1.6534;
3427349940567;-9.2584;0.1881;-4.6777;
3427360028849;-9.4837;-0.4155;-5.3653;
3427370137026;-13.0531;-0.3485;-0.4041;
3427380245255;-10.6074;0.6099;3.8767;
3427390354474;-6.0245;0.6147;-0.9096;
3427400462651;-9.4980;0.2052;-5.5161;
3427410570880;-9.9891;0.7633;-2.3949;
3427420692495;-8.6213;0.1642;-2.2845;
3427430800672;-9.9413;-0.0344;-4.3519;
3427440908901;-11.1775;-0.2668;-2.0354;
3427451006245;-8.8442;-0.1352;-1.0822;
3427461114422;-9.7328;0.2722;-2.0474;
3427471222651;-9.2850;-0.5997;-2.5576;
3427481329890;-10.2096;-0.6311;-3.9206;
3427491438067;-9.5414;-0.2500;-2.2678;
3427501546245;-8.1374;-0.3724;0.2498;
3427511669734;-3.1068;-0.7819;-1.2066;
3427521777911;-5.4975;-0.0873;-6.1582;
3427531886140;-20.3641;-1.7139;-5.3868;
3427541984682;-24.2495;-0.2979;3.9437;
3427552092859;-1.7605;0.4397;7.5535;
3427562201088;-0.3903;-1.9487;-3.1567;
3427572304578;-13.4028;0.0135;-10.7623;
3427582412755;-10.2311;-0.3389;-0.5886;
3427592520932;-7.7518;-1.9845;2.4993;
3427602623797;-11.3498;-0.7436;-5.7604;
3427612731974;-12.2025;-0.6598;-2.7206;
3427622840151;-6.8776;-0.2740;-0.4137;
3427632941817;-5.8020;-0.7579;-4.8861;
3427643049995;-11.2373;-1.1028;-4.3663;
3427653158224;-10.6193;-0.8827;0.5827;
3427663287286;-7.3851;-0.0945;0.8031;
3427673395463;-9.8192;0.4783;-2.1314;
3427683503640;-8.0919;0.4349;-0.0233;
3427693590047;-8.7171;-0.9209;-5.3844;
3427703698224;-13.6137;-0.5207;-12.1971;
3427713806401;-12.5022;-3.1247;-0.5384;
3427723936453;-5.7299;-1.3472;4.7749;
3427734044630;-10.9044;-0.9185;-3.5136;
3427744152807;-11.6252;0.0111;-1.3863;
3427754260307;-7.2224;0.2794;0.8342;
3427764368484;-7.5434;0.0302;-2.8187;
3427774476661;-10.4157;0.3057;-3.0248;
3427784586974;-11.1102;0.0829;-0.5910;
3427794695151;-8.5711;0.2148;-0.0042;
3427804803328;-11.1607;0.5118;-3.0870;
3427814920515;-10.4085;0.1235;-3.1496;
3427825028692;-6.5420;-1.0478;-1.1922;
3427835136870;-6.3984;-0.0655;-2.7374;
3427845242286;-9.4262;-0.0655;-5.5017;
3427855350463;-10.1976;-0.4250;-4.2227;
3427865458640;-8.3076;0.2554;-3.4968;
3427875550620;-12.6242;-0.7292;-2.6082;
3427885658745;-11.1341;-0.4322;0.4702;
3427895766974;-7.2631;-0.8584;-2.6082;
3427905868536;-7.9890;1.0292;-7.8087;
3427915976661;-10.6840;-1.0143;-1.1013;
3427926084838;-10.0083;-0.0682;3.6849;
3427936196922;-8.4057;0.3894;-0.5623;
3427946305047;-10.5999;0.7896;-6.3547;
3427956413224;-9.9485;0.6123;-2.7302;
3427966506192;-7.8117;-0.1854;-2.4332;
3427976614370;-9.8934;-0.1208;-4.9460;
3427986722547;-9.7424;0.0637;-2.8908;
3427996862651;-11.5678;-0.3485;-0.5934;
3428006970828;-8.2214;-0.3338;-0.9622;
3428017079005;-4.7623;0.4158;-3.3960;
3428027199265;-11.4123;-0.3170;-5.4538;
3428037307442;-12.4086;-1.0573;-4.1674;
3428047415620;-10.3149;-1.0908;-2.3997;
3428057503120;-7.5745;-0.3051;-1.2185;
3428067611297;-5.4066;-0.3389;-2.9506;
3428077719474;-10.8132;-0.7460;-5.0731;
3428087794526;-11.5080;-0.7531;-2.2487;
3428097902755;-7.8404;-0.6909;-1.7288;
3428108010932;-10.8515;-0.5614;-3.1086;
3428118145099;-9.8336;-0.5901;-1.5829;
3428128253224;-8.4129;-0.9066;-2.9004;
3428138361453;-6.8079;-1.3711;-4.0669;
3428148480099;-9.4693;-1.2132;-4.9364;
3428158588276;-14.8807;-1.1028;-3.6141;
3428168696401;-10.8251;-1.5628;2.0034;
3428178799995;-4.8461;-0.0535;1.1192;
3428188908172;-7.0594;-0.5399;-7.7943;
3428199016349;-14.1239;-0.7388;-6.0960;
3428209133536;-11.2851;-0.8177;1.1602;
3428219241713;-9.0598;-0.4490;1.1312;
3428229349890;-6.7720;-0.1591;-0.9790;
3428239436245;-7.1411;-0.3843;-6.5151;
3428249544422;-10.1761;-0.2429;-4.5700;
3428259652599;-7.6609;-0.0826;-0.3586;
3428269787911;-12.2913;-1.2873;-4.7327;
3428279896088;-13.1848;-0.9497;-1.9134;
3428290004265;-9.1651;-0.4609;3.3855;
3428300109890;-8.2573;0.0852;0.0461;
3428310218067;-8.0130;-0.5638;-4.6801;
3428320326245;-10.0490;-1.1291;-5.6264;
3428330419370;-10.7533;-0.2835;-1.4414;
3428340527547;-9.2731;0.4421;1.9914;
3428350635724;-8.3578;0.4902;-0.3754;
3428360754786;-10.5832;-0.8827;-5.0252;
3428370862911;-9.9197;-0.6431;-3.4657;
3428380971140;-6.7792;-0.2453;-0.5025;
3428391068588;-8.4993;-0.0416;-2.0258;
3428401176765;-11.8313;0.1068;-1.2787;
3428411284942;-11.2062;-0.0033;-0.0425;
3428421396765;-11.7523;-0.7436;0.4295;
3428431504942;-8.6429;-0.2835;0.3455;
3428441613120;-8.1326;-0.3772;-4.0502;
3428451727286;-9.9293;-0.7627;-7.2314;
3428461835411;-9.3616;-0.4585;-2.6273;
3428471943588;-9.6060;-0.1256;1.5984;
3428482046088;-13.0579;-0.0200;2.2860;
3428492154213;-9.4765;1.0842;0.7648;
3428502262390;-6.7217;0.9356;-2.4691;
3428512375620;-7.4046;-0.7172;-5.1688;
3428522483797;-9.0407;0.3440;-5.5905;
3428532591974;-10.6050;0.5142;-2.8020;
3428542688849;-8.4754;-0.1615;-0.4496;
3428552797026;-11.4745;-0.3724;-0.4184;
3428562905151;-17.5735;-0.3580;0.5228;
3428573005255;-12.7271;0.5022;1.1746;
3428583113380;-4.1249;-0.0706;-3.7962;
3428593221505;-3.3105;-1.4312;-5.8708;
3428603364265;-13.3837;-1.9893;-2.8068;
3428613472390;-10.3606;0.7032;-0.6652;
3428623580567;-7.7566;1.5993;-2.6632;
3428633664838;-9.1531;0.3655;-3.1926;
3428643773015;-6.1636;0.4612;-3.4681;
3428653881192;-11.0862;-0.1352;-5.1473;
3428663999995;-11.3761;0.2195;-2.1003;
3428674108120;-10.5066;0.0470;-0.1310;
3428684216297;-8.7461;0.1522;-1.6451;
3428694323015;-11.2516;0.6505;-1.9780;
3428704431140;-4.9035;-0.5853;-1.0032;
3428714539317;-4.8580;0.5381;-3.9616;
3428724643745;-10.4228;-0.7651;-10.2520;
3428734751870;-14.6076;-1.2275;-10.2114;
3428744860047;-12.1690;-0.2309;-2.6536;
3428754975151;-8.3842;-1.2060;5.6204;
3428765083276;-8.2621;0.5859;1.4453;
3428775191453;-10.2000;0.1738;-1.2930;
3428785309161;-7.4118;0.4831;0.4606;
3428795417286;-8.5017;0.3823;-4.0023;
3428805525463;-12.6745;0.2291;-5.9019;
3428815600567;-7.9531;0.0757;-2.7685;
3428825708745;-5.8379;-1.5796;-3.7986;
3428835816922;-11.4314;-1.2778;-8.0961;
3428845942495;-11.6949;-1.6585;-3.9832;
3428856050620;-7.6753;-1.4695;0.1899;
3428866158797;-8.6070;-1.0741;-0.2892;
3428876259370;-11.7619;0.0805;-0.7804;
3428886367495;-8.5184;-0.0778;-1.3122;
3428896475672;-10.4827;-0.2548;-2.6536;
3428906583328;-8.5831;-0.7507;-3.0655;
3428916691453;-9.8145;-1.0765;-4.5700;
3428926799630;-9.9580;-1.4647;-3.0727;
3428936912703;-8.7099;-0.8584;-1.4007;
3428947020828;-10.2215;-0.6407;-2.4428;
3428957129005;-9.0048;-0.9209;-2.3686;
3428967232286;-8.0632;-1.1964;-3.5518;
3428977340411;-11.2421;-1.1052;-3.3482;
3428987448588;-11.1583;-1.2275;0.0748;
3428997551401;-7.3540;-0.7244;-0.4161;
3429007659578;-7.7495;-1.1557;-4.4620;
3429017767755;-11.7691;-1.1219;-4.4357;
3429027908120;-11.1440;-0.6837;-0.5886;
3429038016245;-10.4133;-0.2907;-1.4916;
3429048124422;-7.5529;-0.2381;-1.6594;
3429058217286;-5.9743;-1.0143;-3.1496;
3429068325411;-12.8566;-1.1390;-5.8995;
3429078433588;-13.2613;-0.5016;-2.0330;
3429088523224;-8.0632;-0.0368;0.5994;
3429098631349;-7.9699;-0.2883;-2.1218;
3429108739526;-9.1220;-0.8803;-3.5112;
3429118873745;-10.6528;-1.1363;-2.3949;
3429128981870;-8.8418;-0.3508;-1.1659;
3429139090047;-5.4425;0.2889;-3.2764;
3429149176922;-10.7175;-0.7507;-7.0421;
3429159285099;-13.6735;-0.5566;-3.5734;
3429169393276;-8.7867;0.0159;1.4381;
3429179505099;-6.6260;0.2483;-1.4366;
3429189613224;-8.8418;-0.2620;-4.4719;
3429199721401;-12.1116;-0.8297;-2.7996;
3429209829682;-8.7194;-0.3027;-1.1970;
3429219937807;-10.4204;-0.0535;-2.7924;
3429230045984;-9.8408;-0.1974;-2.7757;
3429240164161;-7.7423;-0.5471;-3.6260;
3429250272286;-10.4539;-1.2395;-4.2993;
3429260380463;-11.1102;-1.0047;-1.7815;
3429270496974;-9.1340;-0.5973;-0.9984;
3429280605099;-7.0953;-0.7675;-1.9875;
3429290713276;-8.9782;-0.1496;-3.7292;
3429300822182;-8.5663;0.3296;-1.8727;
3429310930307;-10.3798;0.2961;-2.2798;
3429321038484;-10.0875;-0.4848;-3.1687;
3429331152078;-7.3181;-0.5088;-3.1134;
3429341260203;-8.1278;-0.6646;-3.1158;
3429351368380;-10.1186;-0.4226;-3.8417;
3429361461557;-11.9680;-0.8512;-4.1841;
3429371569682;-12.3272;-0.3338;-0.9335;
3429381677859;-5.6509;-1.3161;0.2737;
3429391779995;-8.4200;-0.9640;-4.3184;
3429401888120;-12.0087;-0.9257;-2.5217;
3429411996297;-9.0861;-0.9090;-0.2246;
3429422099370;-8.1999;-0.7244;-3.0176;
3429432207495;-9.9389;-0.4585;-4.1937;
3429442315672;-11.9776;0.3033;-1.2858;
3429452439474;-11.7643;-0.0897;-0.0090;
3429462547599;-7.2846;-0.0344;-0.1836;
3429472655776;-5.8427;-0.5877;-3.0296;
3429482742442;-10.4204;-0.4537;-5.4108;
3429492850620;-11.2540;0.0063;-2.4404;
3429502958797;-6.4152;-0.0105;-0.6269;
3429513067078;-5.6557;-0.7364;-5.7485;
3429523175203;-10.9355;-1.5700;-6.5916;
3429533283380;-12.6817;-0.8922;-4.3256;
3429543432495;-10.8036;-1.0884;-0.2246;
3429553540620;-5.6390;-0.5160;0.5085;
3429563648797;-8.4993;-0.4777;-3.5877;
3429573735151;-12.7490;-0.9233;-2.6465;
3429583843380;-13.6926;0.0996;0.5850;
3429593951609;-8.9423;-0.0153;1.5840;
3429604056661;-5.4616;-0.0105;-1.6738;
3429614164838;-8.3698;-0.5949;-6.7546;
3429624273015;-9.1938;-0.3700;-7.0804;
3429634372390;-11.3761;-0.3437;-2.2965;
3429644480567;-8.0824;0.0565;0.2043;
3429654588797;-9.6084;-1.1004;-3.5638;
3429664702182;-11.9848;-0.7268;-1.8200;
3429674810359;-7.1889;-0.0873;1.0427;
3429684918588;-8.0991;-0.8755;-2.2056;
3429695020567;-6.7552;-0.6263;-5.2573;
3429705128797;-3.7442;-0.3242;-6.9751;
3429715236974;-8.9590;-0.4992;-6.0694;
3429725364890;-18.5076;-0.2333;-2.5337;
3429735473067;-18.5243;-0.7172;2.4320;
3429745581297;-8.8298;-0.4059;5.5247;
3429755669005;-7.5673;-0.3218;0.2617;
3429765777234;-10.5903;-0.8779;-4.7521;
3429775885411;-7.8930;-0.5447;-3.5949;
3429786003745;-6.4008;0.3727;-1.1850;
3429796111922;-8.3195;0.3081;-2.7733;
3429806220151;-11.1799;0.0230;-4.8718;
3429816334474;-10.2311;-0.1256;-1.9349;
3429826442651;-7.1073;-0.3290;-2.5600;
3429836550828;-7.2703;-0.7029;-5.4132;
3429846646713;-11.2086;-0.6239;-4.8766;
3429856754942;-11.9513;0.2841;-0.6030;
3429866863172;-7.6681;1.2760;3.8312;
3429876985828;-2.7188;0.8040;2.2454;
3429887094005;-6.0437;-0.3987;-10.1372;
3429897202234;-15.2450;-1.7426;-17.6088;
3429907299005;-14.5884;-1.1363;-5.4323;
3429917407182;-10.2574;-0.2237;2.4176;
3429927515411;-8.0465;-0.9425;-0.7178;
3429937628745;-9.3736;-0.8321;-0.4448;
3429947736922;-6.8486;-0.7771;0.3482;
3429957845151;-6.8510;0.0781;-1.6140;
3429967966557;-9.1292;-0.0655;-2.7278;
3429978074734;-11.7236;0.4445;-3.3936;
3429988182963;-13.6376;0.1738;-3.0009;
3429998292495;-10.5018;0.8303;-0.3586;
3430008400672;-4.3502;0.0063;-0.9861;
3430018508901;-8.6381;-0.4561;-6.3305;
3430028586609;-12.5548;-0.9736;-4.1459;
3430038694838;-8.8202;-0.0416;-0.2797;
3430048803015;-8.3195;-0.5614;-2.4787;
3430058927807;-8.4512;-0.5662;-4.6035;
3430069035984;-8.8035;-0.8345;-4.9460;
3430079144161;-8.7218;-1.6011;-4.3783;
3430089235047;-10.7438;-1.4432;-2.5744;
3430099343276;-10.3989;-1.5891;-1.0199;
3430109451505;-9.0885;-1.6107;-0.2653;
3430119578120;-8.7820;-0.7292;-2.1099;
3430129686297;-11.9489;-0.6502;-3.1950;
3430139794526;-9.8910;-0.2500;-0.5312;
3430149904578;-7.1192;0.0470;-1.4797;
3430160012755;-8.4921;-0.8946;-4.7426;
3430170120984;-10.7151;-1.4216;-3.2548;
3430180235828;-7.4644;-0.6431;-2.6393;
3430190344005;-10.2981;-1.0860;-5.2717;
3430200452234;-11.9895;-1.4527;-2.3830;
3430210559057;-6.8943;-0.0754;0.2545;
3430220667234;-8.8585;-0.8465;-3.2381;
3430230775463;-11.6516;-1.2897;-3.4035;
3430240883328;-11.1293;-0.9377;0.2234;
3430250991505;-7.7997;-0.4633;-0.9526;
3430261099734;-7.9460;-0.8994;-5.1449;
3430271215307;-10.1785;-0.4944;-5.7724;
3430281323484;-8.5519;-1.0071;-1.5852;
3430291431713;-9.5124;-0.8130;-1.7097;
3430301539890;-10.8972;-1.1076;-2.7087;
3430311640515;-9.6036;0.0781;-1.6211;
3430321748692;-8.8825;-0.2788;-1.6786;
3430331856922;-10.1067;-0.3051;-2.5385;
3430341966088;-9.0574;-0.0440;-0.5432;
3430352074265;-8.6118;-0.5160;-1.9134;
3430362182495;-9.3042;-0.8632;-4.0190;
3430372282911;-10.2790;-0.7819;-2.1386;
3430382391088;-9.7256;-0.2381;-1.8272;
3430392499317;-9.1771;-0.4131;-3.9350;
3430402603745;-11.5989;0.7920;-3.5566;
3430412711922;-9.2273;0.5022;-0.0808;
3430422820151;-8.4897;0.4831;0.2785;
3430432910984;-8.5424;-0.6359;-0.2198;
3430443019213;-9.4525;-0.0416;-1.8607;
3430453127442;-8.2980;0.8758;-3.6571;
3430463266974;-8.1254;0.5357;-6.4481;
3430473375203;-11.9680;-0.3532;-4.2610;
3430483483432;-11.0336;-0.1687;1.6271;
3430493567547;-6.4128;-0.7364;0.0437;
3430503675776;-9.2632;-0.5925;-4.5652;
3430513783953;-9.0598;-0.5758;-2.5672;
3430523906349;-9.2850;0.0206;-1.2185;
3430534014526;-11.4769;-0.0320;-1.8272;
3430544122755;-11.5965;0.4493;-1.9828;
3430554216349;-6.8800;0.5979;0.1851;
3430564324526;-7.6199;0.5596;-2.0139;
3430574432755;-11.7404;-0.2764;-2.9746;
3430584546297;-12.3009;-0.5088;-0.2629;
3430594654526;-9.4358;0.2171;-0.4905;
3430604762703;-7.5434;0.4110;-2.9219;
3430614884578;-10.6409;0.2578;-2.8427;
3430624992755;-8.2238;0.1020;0.8294;
3430635100932;-6.5515;-0.2500;-1.8846;
3430645214474;-10.8538;-0.4585;-6.0407;
3430655322651;-11.2469;-0.0416;-2.9506;
3430665430828;-7.4213;-0.7771;2.1972;
3430675543328;-10.3630;-0.5423;-2.9339;
3430685651505;-12.4493;0.6697;-4.8191;
3430695759682;-6.9589;-0.5064;1.1961;
3430705835151;-4.8437;-0.2261;-1.2739;
3430715943380;-1.7151;0.0111;-6.6278;
3430726051557;-4.2185;0.3464;-9.2148;
3430736181453;-33.7119;2.4999;-5.4203;
3430746289630;-30.7223;-1.2203;18.9156;
3430756397807;2.2878;-4.8661;13.6860;
3430766497755;7.4094;1.6328;-12.7241;
3430776605932;-7.1650;2.3492;-11.8929;
3430786714109;-17.8442;-1.4910;-5.9737;
3430796820828;-10.1713;-2.4132;2.3794;
3430806929005;-5.5167;-1.4815;3.2465;
3430817037182;-10.0780;1.3310;-7.2697;
3430827142547;-8.8490;0.1475;-5.9378;
3430837250776;-9.5315;-0.7484;-1.4677;
3430847358953;-10.0514;-1.0813;-0.9885;
3430857472078;-9.0311;-0.5566;-2.0258;
3430867580255;-8.1613;-0.1615;-2.4523;
3430877688432;-9.3760;-0.6120;-0.7469;
3430887803953;-10.9546;-0.4537;6.9284;
3430897912130;-4.5084;1.0149;0.8342;
3430908020307;-15.7505;1.7907;-26.4865;
3430918123536;-16.7563;-0.7149;-17.6949;
3430928231661;-1.2505;-5.4075;14.0121;
3430938339890;-7.3875;-3.9129;11.8128;
3430948464995;-17.2235;-0.1161;-3.8919;
3430958573172;-12.0302;1.7836;-1.5900;
3430968681349;-4.3549;0.9811;2.3794;
3430978772495;-6.4008;0.3751;-2.5624;
3430988880672;-13.7883;-0.0224;-3.8608;
3430998988849;-11.8217;-0.4418;1.7016;
3431009112599;-6.7313;-0.7531;0.5252;
3431019220776;-10.7749;-1.0836;-7.7895;
3431029328953;-11.0408;-1.0478;-3.7077;
3431039437807;-7.2248;-0.8608;2.0704;
3431049545984;-8.6548;-1.1028;-2.4260;
3431059654161;-11.2062;-1.1868;-4.9268;
3431069746140;-6.7911;-1.5963;-1.9660;
3431079854317;-6.5300;-1.2371;-3.6428;
3431089962495;-14.8735;-0.5495;-2.6895;
3431100083588;-13.1465;-0.1137;4.2096;
3431110191765;-7.6633;-0.8225;0.7361;
3431120299942;-8.6429;1.0627;-8.1105;
3431130411557;-9.2441;0.5429;-2.4045;
3431140519734;-8.9877;-1.5676;3.0574;
3431150627911;-12.1211;0.5644;-1.2473;
3431160727495;-11.0432;1.0603;-2.2080;
3431170835672;-9.6945;-0.3290;-0.9502;
3431180943849;-6.1971;0.4158;-2.1817;
3431191040776;-12.2124;0.1403;-3.2429;
3431201149005;-12.3440;-0.1519;-1.3839;
3431211257182;-7.3732;-0.2500;-0.8378;
3431221369161;-7.3950;0.3583;-2.8522;
3431231477338;-9.7878;-0.1089;-3.4107;
3431241585515;-13.9370;-0.7005;-1.4127;
3431251707078;-10.4587;1.0795;1.9193;
3431261815255;-3.4280;0.2865;-2.7063;
3431271923380;-8.9734;-0.1065;-7.4279;
3431282030932;-12.5836;-0.7484;-3.3745;
3431292139109;-8.8155;-0.5973;1.1554;
3431302247286;-8.4009;0.5285;-2.0545;
3431312340411;-10.5855;-0.6287;-2.7039;
3431322448588;-9.2632;-0.2189;-1.2329;
3431332556765;-12.1427;-0.3194;-2.1170;
3431342665203;-13.3430;-0.2859;-1.6522;
3431352773380;-6.7193;-0.7603;1.8380;
3431362881557;-3.4807;-0.7795;-0.7828;
3431372983536;-11.0360;-1.8144;-6.7977;
3431383091765;-14.8855;-2.5475;-3.9568;
3431393199890;-10.7677;-0.7651;1.2081;
3431403346036;-6.8055;-0.2907;-0.0353;
3431413454213;-7.6896;-1.0932;-3.5638;
3431423562390;-11.1751;-0.5758;-4.9938;
3431433613067;-11.0288;-1.1629;-1.6475;
3431443721245;-10.1354;-1.2156;1.1961;
3431453829422;-14.5095;-0.8441;0.1732;
3431463990620;-9.8240;-0.4729;1.4405;
3431474098797;-4.4773;-1.5293;0.1158;
3431484206974;-11.3737;-1.2634;-4.4381;
3431494299682;-11.9632;-1.3878;-2.3518;
3431504407859;-6.8656;-1.5293;-0.8163;
3431514530255;-7.2607;-1.3567;-5.4634;
3431524638432;-12.3607;-1.4288;-5.9067;
3431534746661;-10.5401;-1.8048;-0.5647;
3431544840724;-10.6816;-0.2668;1.2176;
3431554948901;-7.2440;0.0589;-0.8186;
3431565057078;-6.4702;0.1810;-2.3590;
3431575170724;-10.9092;-0.4035;-3.9688;
3431585255515;-12.2459;0.5477;-2.2989;
3431595363692;-8.0154;0.0805;-0.0736;
3431605471870;-9.2154;0.4711;-2.6393;
3431615592338;-10.6050;0.5046;-2.2343;
3431625700515;-9.9556;0.0494;-0.8545;
3431635808692;-9.5725;0.8327;-4.9938;
3431645918224;-9.1723;0.4926;-4.9938;
3431656026401;-8.0943;0.1355;-0.7107;
3431666134578;-8.4296;1.0866;-1.2353;
3431676241349;-9.6778;0.4783;-2.3447;
3431686349526;-9.8312;0.4014;-1.7599;
3431696457703;-11.8911;1.0771;-1.0845;
3431706559057;-6.6188;1.3190;0.2426;
3431716667234;-6.3072;0.0972;-2.0692;
3431726775411;-6.9757;0.3583;-5.6336;
3431736886036;-13.5873;0.4086;-5.1640;
3431746994213;-20.2971;0.6027;2.3028;
3431757102390;-14.2436;0.3799;7.7931;
3431767197807;-3.1693;0.6888;0.3505;
3431777305984;-6.7528;-0.4418;-4.6322;
3431787414161;-13.1010;-0.9497;-2.0210;
3431797546453;-8.3937;0.0733;-0.3227;
3431807654630;-5.2292;-0.0921;-2.7494;
3431817762807;-8.6285;-0.3820;-6.5964;
3431827854786;-11.0886;-0.0631;-3.9616;
3431837962963;-10.5760;-0.6072;0.0846;
3431848071140;-9.5291;-0.8584;0.7193;
3431858182703;-11.0288;-0.1615;-1.1874;
3431868290880;-8.4849;-0.8369;-2.2439;
3431878399057;-7.9627;-0.8536;-2.5122;
3431888487547;-8.8920;-0.1448;-1.9875;
3431898595776;-9.0957;-0.2285;-1.2257;
3431908703953;-11.2804;-0.1256;-1.3887;
3431918830620;-11.2875;0.0374;-0.2916;
3431928938745;-5.5696;-1.0310;-0.8713;
3431939046974;-9.6538;-0.7938;-7.8422;
3431949162390;-14.4832;-1.4551;-9.0305;
3431959270567;-9.3138;-1.6178;-1.0845;
3431969378745;-7.3445;-0.1854;0.5061;
3431979479838;-8.1230;0.2052;-2.3085;
3431989588015;-10.7964;-0.0296;-0.9885;
3431999696192;-11.2014;0.6386;2.0225;
3432009809734;-8.0178;0.5261;1.1121;
3432019917859;-11.2086;-0.2261;-1.8081;
3432030026036;-12.9882;-0.7507;-2.6680;
3432040134213;-7.2464;-0.8874;-0.2773;
3432050242286;-7.7183;-0.8082;-2.4284;
3432060350463;-12.1451;-0.0849;-5.0204;
3432070458640;-9.9820;-0.5207;-2.2558;
3432080569578;-7.6511;0.0781;-1.6116;
3432090677755;-8.8729;-0.0778;-2.1338;
3432100785932;-10.8180;0.2315;-2.2558;
3432110891036;-8.1975;0.4110;-2.7852;
3432120999213;-8.4272;0.0494;-2.8789;
3432131107390;-9.5100;-0.7220;-0.9215;
3432141214265;-11.3952;0.6099;-1.7384;
3432151322442;-10.9666;-0.2237;-1.3433;
3432161430620;-8.3004;-0.1735;-0.4424;
3432171538120;-8.2932;-0.3389;-1.7408;
3432181646297;-10.7701;0.2865;-2.6943;
3432191754474;-9.9341;-0.5782;-1.8918;
3432201867911;-10.0947;-0.3532;-1.3433;
3432211976088;-7.0953;0.3392;-1.2233;
3432222084265;-8.4897;0.1044;-3.0464;
3432232185932;-11.2445;-0.0248;-4.8479;
3432242294109;-11.3880;-0.1400;-3.5758;
3432252402286;-7.0834;-0.3508;-1.9732;
3432262517182;-8.4392;0.0733;-1.9947;
3432272625359;-11.9967;-0.1137;-1.4653;
3432282733536;-10.1354;0.9595;0.3191;
3432292847390;-9.5629;-0.4825;0.2067;
3432302955567;-9.8791;-0.0464;-1.8583;
3432313063745;-8.5208;-0.4825;-0.0736;
3432323172599;-7.9217;-0.1926;-1.9971;
3432333280776;-9.1651;0.4134;-5.0085;
3432343388953;-11.3952;0.3200;-3.0655;
3432353483120;-11.6925;0.6553;-1.3193;
3432363591297;-8.2645;0.2913;-1.5637;
3432373699474;-7.4189;-0.6120;-2.1003;
3432383817390;-11.3354;0.2698;-2.2271;
3432393925515;-11.1583;0.4926;-0.2151;
3432404033745;-8.3076;0.0565;-1.4390;
3432414127651;-10.1761;-0.2500;-2.3518;
3432424235828;-10.3367;0.0805;-0.4690;
3432434344005;-8.9614;-0.2716;-0.3036;
3432444474161;-10.3415;0.0135;-2.4188;
3432454582338;-9.0981;0.2001;-1.1444;
3432464690515;-8.5543;0.0972;-0.7011;
3432474795099;-9.0957;-0.4083;-3.2142;
3432484903276;-8.2071;-0.3867;-3.8369;
3432495011453;-9.3712;-0.3147;-4.6035;
3432505103797;-11.9919;-0.4801;-2.8860;
3432515212026;-10.2407;-0.1328;-0.1573;
3432525320203;-8.8250;0.2339;-1.4127;
3432535440411;-10.6816;-0.7675;-0.3108;
3432545548588;-6.5539;-0.9640;1.0403;
3432555656765;-9.0694;-0.3218;-2.8693;
3432565775932;-11.3498;-0.8201;-2.8044;
3432575884109;-10.0418;-0.2716;-1.5084;
3432585992286;-11.6324;-0.6957;-2.9674;
3432596087182;-10.0442;-0.9951;-2.8884;
3432606195359;-6.3168;-0.5758;-2.9602;
3432616303588;-10.6074;-0.9257;-1.9708;
3432626409161;-11.6157;-0.3604;-0.9936;
3432636517338;-8.7266;-0.1687;-1.1803;
3432646625567;-8.4033;-0.7484;-1.9875;
3432656735515;-8.5807;-0.5877;-1.9014;
3432666843692;-8.7939;-0.1591;-1.6211;
3432676951922;-9.7639;-0.6383;-2.1673;
3432687047547;-11.8122;-0.7914;-3.0105;
3432697155776;-12.4134;0.1666;-1.5661;
3432707264005;-6.6667;0.4612;0.0078;
3432717384578;-4.6831;-1.6178;-2.5026;
3432727492755;-11.1942;-0.9999;-4.1985;
3432737600984;-12.2172;-0.3891;-2.4619;
3432747702703;-10.3726;0.3416;-1.4246;
3432757810880;-11.1174;-0.5231;-1.6594;
3432767919109;-9.5267;-0.5351;-0.7923;
3432778044370;-8.8801;-1.1916;-0.7971;
3432788152547;-9.2178;-0.4202;-1.3193;
3432798260776;-11.5152;0.3631;-3.1158;
3432808335567;-11.5199;-0.0033;-0.8115;
3432818443745;-7.5171;0.0876;0.5611;
3432828551974;-4.4387;-0.6311;-2.4500;
3432838676088;-9.0383;-0.3170;-5.7532;
3432848784317;-12.7247;0.5477;-4.2921;
3432858892547;-11.9560;0.6505;-0.9048;
3432869010932;-6.2761;0.3607;-1.1420;
3432879119109;-7.0164;0.1068;-2.1912;
3432889227338;-10.9594;0.2674;-2.8235;
3432899333953;-12.0494;0.5118;-1.7169;
3432909442130;-8.7844;-0.2740;-0.0999;
3432919550359;-9.6706;-0.9305;-1.4127;
3432929637442;-12.0900;0.0422;-0.7947;
3432939745672;-9.6826;0.0206;0.7528;
3432949853901;-7.4764;0.1451;-0.8665;
3432959986245;-9.1795;-0.3242;-3.4418;
3432970094422;-10.6409;-0.1998;-4.3591;
3432980202651;-10.7940;0.7223;-3.8895;
3432990300724;-8.8561;0.3870;-1.8153;
3433000408901;-7.6848;0.5333;-1.6116;
3433010517130;-10.0346;-0.1496;-2.5002;
3433020634578;-10.2718;0.0757;-2.2702;
3433030742755;-8.4873;0.7418;-1.2739;
3433040850984;-10.7079;0.0494;-0.4304;
3433050957495;-11.0910;-0.0849;0.8677;
3433061065672;-8.3363;0.4373;-0.0114;
3433071173901;-9.2273;0.2363;-2.5457;
3433081278432;-10.5951;-0.4370;-2.3542;
3433091386609;-6.6069;-0.0607;-0.3634;
3433101494838;-7.6080;0.4854;-3.1663;
3433111596088;-10.9164;0.2291;-4.6729;
3433121704265;-9.6730;-0.4633;-3.4561;
3433131812495;-9.2731;-0.6144;-3.3147;
3433141922495;-9.2584;0.1618;-2.9315;
3433152030672;-10.0466;-0.1208;-2.7111;
3433162138901;-11.8050;-0.4825;-1.9732;
3433172259890;-10.7414;-0.7507;0.0437;
3433182368067;-8.4634;-0.1232;1.0618;
3433192476297;-10.1665;-0.7316;0.4750;
3433202574005;-8.5328;-0.5662;-0.1597;
3433212682182;-10.1641;-0.1831;-1.1324;
3433222790411;-13.2398;-0.4107;-1.8870;
3433232888172;-8.5065;-0.6981;-1.1587;
3433242996401;-7.2320;-0.7962;-2.7470;
3433253104630;-12.8686;0.1235;-4.0549;
3433263268901;-9.7807;-0.3413;-2.1003;
3433273377130;-6.4630;-0.6981;-1.1037;
3433283485359;-8.5926;-0.3147;-3.3529;
3433293549890;-12.1020;-0.2859;-3.4250;
3433303658067;-10.0947;-0.2692;-0.5671;
3433313766297;-7.4548;0.0613;-0.2557;
3433323872078;-8.6955;-0.2692;-1.7886;
3433333980255;-11.3545;-0.8273;-2.0139;
3433344088484;-9.2731;0.1522;-1.0917;
3433354209370;-9.1077;-0.4442;-1.6211;
3433364317547;-9.8599;-0.6096;-3.2883;
3433374425776;-8.4658;0.4854;-2.6441;
3433384503172;-8.1924;-0.7029;-2.2726;
3433394611401;-9.1173;-0.8970;-3.5877;
3433404719630;-11.5869;0.1187;-3.0248;
3433414846036;-11.3521;0.1331;-1.5302;
3433424954213;-7.2990;-0.9425;-0.4977;
3433435062442;-7.6080;-0.7053;-2.1601;
3433445159526;-11.9513;0.3583;-2.8546;
3433455267755;-11.0480;-0.0706;-1.6020;
3433465375984;-8.3818;-0.4657;-1.1803;
3433475482547;-8.2047;0.4038;-1.7336;
3433485590776;-9.4884;0.2387;-2.3157;
3433495699005;-10.5209;-0.4394;-2.7398;
3433505816922;-9.1771;0.2387;-2.1505;
3433515925099;-9.5677;0.5166;-2.5816;
3433526033328;-10.2311;-0.5064;-1.8081;
3433536147495;-9.5315;-0.1448;-1.5203;
3433546255672;-9.5148;0.8877;-1.2449;
3433556363901;-9.6778;0.0924;-1.1922;
3433566464786;-10.7533;-0.3365;-2.7494;
3433576572963;-9.9269;-0.1184;-0.8737;
3433586681192;-7.8141;0.0206;-0.4834;
3433596789890;-9.4454;-0.0368;-2.0450;
3433606898067;-10.5018;0.0661;-1.1707;
3433617006245;-8.3148;0.7825;-1.3122;
3433627115515;-10.5664;0.1235;-2.0593;
3433637223692;-10.2383;-0.4920;-1.1180;
3433647331870;-7.9217;0.4735;-2.3949;
3433657436088;-10.5138;0.1092;-3.8249;
3433667544317;-9.6730;-1.1605;-0.9431;
3433677652495;-7.8547;-0.0897;-1.3241;
3433687762338;-9.5291;-0.2142;-1.8320;
3433697870567;-11.3378;-0.6957;-0.7947;
3433707978745;-10.2287;-1.1653;-1.2667;
3433718089786;-8.4296;-0.9162;-1.0391;
3433728197911;-8.5352;-1.1339;-1.9923;
3433738306140;-9.7089;-1.4022;-2.9794;
3433748416505;-9.8049;-1.6537;-1.1013;
3433758524682;-10.6863;-1.0741;-1.7384;
3433768632859;-11.5558;-1.1964;-2.8116;
3433778736765;-8.5280;-1.2634;-1.3337;
3433788844942;-6.8632;-1.4503;-2.9004;
3433798953120;-9.2994;-1.3974;-3.8632;
3433809079161;-11.0934;-0.7340;-2.5839;
3433819187338;-10.4348;0.0230;-1.8129;
3433829295515;-8.7915;-0.2429;-2.1864;
3433839389265;-9.5653;-0.7507;-2.5935;
3433849497442;-10.7342;-0.2812;-1.3983;
3433859605620;-9.5533;-0.2644;-0.7011;
3433869718328;-8.3315;-0.8154;-2.7829;
3433879826505;-9.7854;-0.5112;-4.2586;
3433889934682;-10.6696;-0.9664;-3.0751;
3433900049005;-8.3674;-0.3508;-0.8665;
3433910157182;-7.8500;0.1355;-2.2726;
3433920265359;-10.2431;-0.9449;-4.6729;
3433930365099;-9.8719;-0.8369;-3.3290;
3433940473276;-8.4559;-0.7819;-2.8837;
3433950581453;-7.8069;-1.1171;-4.4429;
3433960699578;-10.0107;-1.3017;-4.0980;
3433970807755;-10.7940;-0.5997;-1.5326;
3433980915932;-9.9652;0.1164;-0.0712;
3433991011557;-8.9112;-0.8369;-2.7589;
3434001119734;-9.1244;-1.0789;-4.3208;
3434011227911;-9.1101;0.2459;-1.9277;
3434021344265;-6.7265;-0.8731;-2.4356;
3434031452442;-8.0847;-0.9808;-4.9101;
3434041560620;-9.9054;-0.8010;-3.8465;
3434051662390;-11.3593;0.0206;-1.8416;
3434061770567;-10.6552;0.2937;-0.2533;
3434071878745;-12.1570;-0.6742;-0.9694;
3434081984578;-8.1757;-0.8034;-1.4151;
3434092092755;-5.8020;-1.4456;-3.6619;
3434102200932;-11.8146;-1.7282;-5.3892;
3434112313536;-10.7988;-0.5160;-1.4557;
3434122421713;-9.1173;0.0900;0.5635;
3434132529890;-10.1282;-0.8082;-1.6451;
3434142622026;-7.7566;-1.2610;-3.0176;
3434152730255;-8.4706;-0.9425;-3.3075;
3434162838432;-11.5415;-0.3700;-2.1649;
3434172951870;-12.3464;-0.3170;-0.8617;
3434183060047;-8.3483;0.1714;-0.1645;
3434193168172;-7.2368;-0.6407;-2.5170;
3434203286453;-9.3616;-0.9736;-5.1497;
3434213394630;-9.8360;-0.2070;-4.0095;
3434223502807;-11.0815;0.0230;-1.1563;
3434233608953;-10.1019;-0.2142;-0.8880;
3434243717130;-9.8599;0.4493;-1.6977;
3434253825359;-9.0287;0.5022;-1.1563;
3434263923849;-9.4334;0.8542;-1.6092;
3434274032026;-10.7916;0.5285;-1.7336;
3434284140203;-8.8155;0.3320;-0.8593;
3434294233640;-6.8510;0.6721;-3.7149;
3434304341817;-9.5629;0.0206;-7.1477;
3434314449995;-11.2780;-0.1854;-4.1626;
3434324593224;-8.4778;0.7247;-2.5146;
3434334701401;-6.7935;0.1929;-3.0799;
3434344809578;-8.3698;-0.0631;-3.8177;
3434354921453;-9.4932;0.6505;-3.6236;
3434365029630;-9.7065;0.0446;-3.3888;
3434375137807;-9.9556;0.5405;-2.4691;
3434385243640;-9.4884;0.8183;-1.6499;
3434395351817;-8.6261;-0.0921;-3.5255;
3434405459995;-11.0886;-0.9185;-4.4261;
3434415544630;-12.0135;-0.3027;-1.5203;
3434425652859;-10.3391;0.0063;0.1062;
3434435761036;-7.7040;-0.4107;-1.4462;
3434445874370;-7.5338;-1.2754;-4.4910;
3434455982599;-10.8682;-1.4216;-5.3342;
3434466090776;-8.8346;-0.4896;-3.5925;
3434476202286;-9.5701;-0.4633;-3.7914;
3434486310463;-9.8384;-0.8082;-4.4692;
3434496418640;-8.1852;-1.4145;-3.2213;
3434506525463;-10.1354;-1.6537;-3.3266;
3434516633692;-10.6217;-0.8608;-1.8918;
3434526741870;-7.4548;-1.3161;-0.4496;
3434536857807;-6.5827;-1.6202;-3.1301;
3434546965984;-7.1937;-1.8598;-5.3916;
3434557074161;-10.3391;-1.3519;-3.5136;
3434567172286;-9.9054;-1.6274;-1.3433;
3434577280463;-6.9159;-0.5399;-1.0175;
3434587388640;-5.8164;-0.3748;-4.2682;
3434597499786;-11.3354;-0.9449;-5.8181;
3434607608015;-12.2124;-1.8024;-1.7480;
3434617716192;-8.8418;-1.2203;-0.7684;
3434627822651;-10.4779;-1.0693;-1.5709;
3434637930880;-14.0856;-1.6705;-0.4738;
3434648039057;-12.6171;-2.1138;0.4845;
3434658149057;-10.3582;-1.1964;-0.4905;
3434668257234;-9.1866;-0.6909;-1.7025;
3434678365411;-6.1397;-0.4992;-2.4021;
3434688487807;-4.0412;0.9500;-4.1602;
3434698595984;-7.0929;1.2760;-6.7762;
3434708704161;-9.5988;1.3549;-5.8158;
3434718806661;-6.7863;1.2736;-3.5160;
3434728914838;-7.4357;0.9188;-5.7174;
3434739023015;-9.3903;-0.1161;-6.1917;
3434749121870;-8.2502;-0.4920;-3.2883;
3434759230047;-7.4836;-0.2644;-1.5326;
3434769338224;-11.6468;-0.1519;-0.3108;
3434779448432;-13.9585;-0.1831;1.6774;
3434789556609;-14.3154;-0.0631;2.4272;
3434799664786;-5.5241;-0.3772;1.3158;
3434809773432;-11.4673;-0.4155;-1.9421;
3434819881609;-9.5028;-0.0440;-1.1587;
3434829989786;-8.0369;-0.1137;-3.1158;
3434840103015;-10.4252;0.0876;-5.5328;
3434850211192;-10.9522;-0.1184;-3.7914;
3434860319370;-6.6380;-0.0344;-4.7761;
3434870422182;-9.5291;-1.3759;-7.8111;
3434880530359;-11.5917;-1.8718;-4.4142;
3434890638536;-11.7212;-1.4527;-1.0415;
3434900743172;-11.5678;-1.2945;0.7672;
3434910851401;-8.8083;-0.6981;3.8671;
3434920959578;-6.4798;0.1570;2.7796;
3434931081036;-10.5425;-0.3748;-1.0271;
3434941189213;-11.5965;-1.1749;-1.2281;
3434951297390;-4.6280;0.1929;0.0556;
3434961400828;-5.9671;0.6888;-5.3557;
3434971509005;-12.9787;-1.8096;-8.6806;
3434981617182;-9.3520;-0.2477;-3.9832;
3434991724890;-2.8795;-0.4896;-3.8752;
3435001833067;-9.1388;-1.1486;-13.0525;
3435011941245;-14.9025;-2.6288;-10.5491;
3435022052911;-11.9967;-2.1090;-1.6475;
3435032161088;-7.0905;-1.0908;2.1302;
3435042269265;-7.0475;-1.6681;0.4941;
3435052376870;-12.2073;-1.7426;-2.4930;
3435062485047;-9.3855;-2.0420;0.4941;
3435072593224;-9.4813;-1.1267;-3.0535;
3435082691974;-18.9509;-0.2237;-2.8570;
3435092800151;-11.4218;-1.0789;1.7614;
3435102908328;-3.3921;-0.4777;-2.5170;
3435113009630;-7.4883;-0.2261;-7.5236;
3435123117859;-11.4123;-0.2883;-6.1367;
3435133225984;-9.1220;-0.3915;-3.9688;
3435143367911;-8.5543;-0.3266;-6.0888;
3435153476088;-9.0455;-0.5495;-6.2970;
3435163584265;-8.5280;0.2483;-2.3303;
3435173667390;-4.5323;-0.4346;-1.5132;
3435183775567;-12.6769;-1.5748;-5.7437;
3435193883797;-45.6174;-0.7819;3.7591;
3435204050307;-37.4704;2.0016;15.4540;
3435214158484;30.3871;1.0747;2.4775;
3435224266661;31.5918;-2.7365;0.2091;
3435234320515;-8.9112;-2.3581;-20.8164;
3435244428692;-14.6246;2.0303;-18.2483;
3435254536870;-6.0751;7.6143;-8.6447;
3435264679161;-7.3612;3.2713;-26.2636;
3435274787338;-5.1933;-1.1148;-13.3400;
3435284895515;1.5165;-0.8946;0.7050;
3435294987182;-0.7762;-2.9737;-4.6202;
3435305095359;-13.9657;-5.2591;-5.2597;
3435315203536;-30.4493;-4.0516;3.6754;
3435325288536;-33.3165;-2.4251;16.6564;
3435335396713;-10.9810;-1.0119;10.5290;
3435345504890;4.0507;-0.6598;1.8643;
3435355616036;-10.8658;-2.8134;7.4650;
3435365724213;-31.3331;-1.5293;4.1354;
3435375832390;-17.0103;-0.7603;-2.0091;
3435385940411;5.1912;-1.3974;-2.7302;
3435396048588;-8.8011;-0.3987;-23.0560;
3435406156765;-38.8669;-3.1008;-27.6147;
3435416270255;-29.2274;2.6797;5.6803;
3435426378432;1.2745;3.4391;28.3514;
3435436486609;9.3879;2.3994;17.5286;
3435446585828;-1.7031;-1.2299;10.7444;
3435456694005;-11.5534;-1.8431;7.0986;
3435466802182;-7.0116;0.1499;0.5204;
3435476918745;-1.2577;-0.1496;-6.9129;
3435487026922;-13.3310;-0.7747;-13.8332;
3435497135099;-27.6894;-0.8608;-10.3887;
3435507236505;-12.8877;-0.9951;-6.7044;
3435517344682;1.5715;0.6649;-18.0398;
3435527452859;-7.6968;0.1211;-23.2645;
3435537566036;-9.1579;1.2446;-8.9010;
3435547674213;2.4362;4.1551;3.6897;
3435557782390;6.2668;1.1847;-4.9651;
3435567889786;-5.6007;-0.8393;-17.2564;
3435577997963;-17.1829;-0.6837;-11.2941;
3435588106140;-9.9987;-0.2716;2.0967;
3435598214682;-4.4483;-1.3783;-2.3973;
3435608322859;-15.4125;-2.8469;-6.3281;
3435618431036;-19.5544;-2.5570;-2.5217;
3435628536088;-17.3746;-2.3581;-1.6331;
3435638644265;-10.8251;-2.4514;8.2388;
3435648752442;-5.9623;-1.6609;10.6199;
3435658862182;-9.4023;-0.4944;6.4086;
3435668970359;-13.3310;1.4195;3.2154;
3435679078536;-10.1043;1.9418;2.2044;
3435689204474;-4.0723;0.8901;-7.4351;
3435699312651;-11.6587;-1.9750;-20.3157;
3435709420828;-17.2188;-0.9903;-13.1507;
3435719510515;-9.8910;0.2076;-2.7709;
3435729618692;-0.2731;-0.9640;2.1398;
3435739726870;-3.3897;-1.5628;3.7017;
3435749841765;-11.4314;-0.2357;1.6510;
3435759949890;-11.2971;0.9069;2.5137;
3435770058120;-9.4573;0.7394;0.5180;
3435780171765;-9.5629;0.3679;-4.3543;
3435790279942;-9.4908;0.2841;-4.1530;
3435800388120;-7.5338;-0.1161;-0.2342;
3435810479786;-7.5864;0.3535;-2.2271;
3435820588015;-10.5832;-0.5901;-4.4958;
3435830696192;-9.9987;0.8590;-3.1902;
3435840816349;-10.5425;1.2613;-1.7647;
3435850924526;-9.8791;0.1164;-0.5815;
3435861032703;-7.5147;-0.3772;-0.7421;
3435871135828;-9.3042;-0.7125;-3.3936;
3435881244005;-10.5114;-0.3389;-3.3864;
3435891352182;-9.7663;-0.3939;-3.5662;
3435901463328;-11.0719;-1.1509;-3.5758;
3435911571505;-13.4722;-0.6048;-1.3098;
3435921679682;-11.4048;-0.1783;-0.1382;
3435931785307;-9.6084;-0.2883;-1.6307;
3435941893484;-9.1220;-1.5269;-1.1468;
3435952001661;-8.4658;-0.7938;-3.8512;
3435962111245;-10.6935;0.0565;-5.4706;
3435972219422;-10.5712;0.6242;-2.3303;
3435982327599;-8.9758;0.9930;-2.9626;
3435992432078;-9.7137;0.5931;-3.8656;
3436002540255;-7.7088;0.7944;-3.3218;
3436012648432;-5.8834;0.5333;-4.1865;
3436022761036;-7.5458;-0.6239;-4.6083;
3436032869213;-6.9781;-0.2429;-5.0874;
3436042977390;-7.0953;0.9811;-6.7235;
3436053076140;-9.3209;-0.3338;-5.1927;
3436063184317;-8.9207;-0.4609;-3.5782;
3436073292547;-7.7542;-0.5710;-4.0382;
3436083418849;-8.2525;-0.6981;-3.3051;
3436093527026;-7.2870;-0.6335;-1.8320;
3436103635203;-7.2464;-1.2227;-2.0450;
3436113738797;-10.0226;-0.0511;-3.8728;
3436123847026;-8.7772;0.2315;-3.3840;
3436133955203;-5.7275;-0.2859;-4.5939;
3436144083745;-6.3000;-0.9114;-5.9163;
3436154191922;-8.4009;-1.0765;-4.7545;
3436164300099;-9.1388;-0.9544;-4.5772;
3436174365620;-8.1781;-2.1592;-2.7517;
3436184473797;-7.7112;-2.6025;-1.7886;
3436194581974;-15.4774;-2.3390;-1.8727;
3436204690620;-14.1742;-2.1425;2.0201;
3436214798849;-2.0794;-2.3222;0.5970;
3436224907026;-2.8507;-3.4433;-6.2276;
3436235021088;-15.2378;-3.5270;-5.2143;
3436245129317;-18.5698;-1.6202;3.7137;
3436255237495;-10.3077;1.8508;6.1068;
3436265376245;-2.7236;2.8929;-2.2056;
3436275484422;-10.9929;-0.2166;-6.9488;
3436285592599;-14.3345;-0.4011;-3.2166;
3436295666713;-9.7280;3.3550;0.0724;
3436305774942;-8.7939;5.3889;-2.0764;
3436315883120;-9.9437;2.4449;-2.7541;
3436326005620;-6.1229;0.6697;-1.3744;
3436336113797;-5.9815;2.2364;-3.2237;
3436346221974;-10.0537;2.0016;-4.0956;
3436356336870;-11.3234;3.8462;-4.3472;
3436366445047;-11.5558;4.2030;-0.9960;
3436376553224;-7.2823;2.7802;0.2258;
3436386655099;-7.3181;0.7801;-2.2008;
3436396763276;-9.8432;0.4831;-3.0966;
3436406871453;-8.0034;0.2148;-1.5156;
3436416983536;-7.1483;0.2698;-5.3414;
3436427091713;-13.5224;-2.3318;-7.5404;
3436437199890;-8.3530;-1.0980;-0.6820;
3436447298432;-1.1426;-1.0047;3.7902;
3436457406609;-9.3592;-2.1568;-5.0563;
3436467514786;-10.9857;-2.8708;-8.1368;
3436477621036;-11.6563;-2.9689;-3.8369;
3436487729265;-11.0886;-2.0850;-0.5599;
3436497837442;-8.9638;-2.2624;-0.4017;
3436507942963;-9.2779;-3.2806;-1.3672;
3436518051192;-7.9026;-2.4299;-0.8856;
3436528159370;-12.2049;-1.6250;-1.2906;
3436538276661;-12.3009;-1.7856;-0.3849;
3436548384838;-8.0321;-0.2189;1.1001;
3436558493015;-7.6848;-0.2189;-0.7277;
3436568598120;-10.4252;-0.8369;-2.3973;
3436578706297;-9.5100;-0.3075;-2.3327;
3436588814474;-8.4320;-0.4609;-4.8072;
3436598922286;-9.7472;-1.2036;-4.7064;
3436609030463;-8.9877;-0.1687;-2.7733;
3436619138640;-7.3875;0.2818;-2.5911;
3436629239213;-13.1321;0.5070;-3.1352;
3436639347442;-6.7074;-0.5136;0.5659;
3436649455620;-7.3158;-0.3508;-1.9134;
3436659568588;-18.4047;-0.6718;-0.4642;
3436669676765;-14.4784;1.8604;6.3488;
3436679784942;-4.1776;1.5658;4.1593;
3436689886922;-6.9326;-1.3878;-2.8044;
3436699995151;-12.3248;-0.1352;-3.0009;
3436710103328;-11.5798;0.2937;-1.3552;
3436720217182;-6.3191;1.1177;-0.7059;
3436730325359;-9.1340;-0.1902;-3.7651;
3436740433536;-9.3903;0.4373;-5.4706;
3436750544005;-7.0379;0.5692;-3.1711;
3436760652182;-7.5984;-0.7436;-5.0731;
3436770760359;-8.5807;0.4854;-4.6657;
3436780872078;-8.4224;-0.0706;-1.3959;
3436790980255;-10.3989;0.5046;-0.8354;
3436801088432;-10.9379;0.4636;-0.2318;
3436811193015;-9.2970;-0.0849;-1.8176;
3436821301192;-10.2814;-0.1974;-0.7923;
3436831409370;-8.1900;-0.6072;0.4391;
3436841516453;-7.6128;-0.2740;-0.9215;
3436851624630;-7.4883;-0.4059;-1.9588;
3436861732807;-8.8537;-0.8249;-5.4395;
3436871854838;-11.6109;-0.8345;-7.0804;
3436881963015;-9.2225;0.8040;-2.0139;
3436892071192;-4.1656;0.0230;-3.0296;
3436902170411;-11.8217;-1.7761;-9.7968;
3436912278588;-12.0589;-0.6144;-4.1841;
3436922386765;-6.8800;0.2483;1.2440;
3436932506557;-7.1865;-0.6766;-0.7636;
3436942614734;-12.4493;-0.9138;-2.0067;
3436952722911;-12.1211;0.3081;-0.4905;
3436962809109;-10.0514;-0.7220;2.1278;
3436972917338;-6.9685;-1.0406;0.4822;
3436983025515;-11.5750;-0.6191;-3.8177;
3436993133120;-10.7246;0.0637;0.1828;
3437003241297;-5.9456;-0.7364;0.9685;
3437013349422;-8.0943;0.7896;-4.1985;
3437023478536;-10.8419;0.3751;-3.8034;
3437033586713;-8.6572;-0.1567;-3.4442;
3437043694890;-10.5975;-0.3147;-4.4910;
3437053817495;-10.4611;0.4759;-1.5757;
3437063925672;-7.2799;-0.1352;0.8222;
3437074033849;-8.1302;-1.3735;-2.6824;
3437084101661;-9.8527;0.0613;-2.6967;
3437094209838;-9.6538;0.4062;1.2942;
3437104318015;-9.8025;-0.6502;0.4510;
3437114469578;-8.1999;-0.5782;-1.7886;
3437124577755;-11.6468;-1.0023;-0.9407;
3437134685932;-11.7404;-1.2849;0.0556;
3437144757286;-10.5879;-0.1807;-1.2090;
3437154865515;-7.8117;-1.1749;-0.7011;
3437164973692;-8.3148;-1.1509;-2.4787;
3437175083380;-10.3702;-0.0488;-3.2716;
3437185191609;-8.3411;-0.8225;-2.0402;
3437195299786;-8.2597;-0.2381;-3.5830;
3437205409057;-9.9437;-0.8874;-2.8642;
3437215517234;-8.4802;-0.0153;-3.2907;
3437225625411;-11.0432;-0.6814;-2.9387;
3437235741036;-11.6997;-0.4513;-1.5278;
3437245849213;-8.2884;-0.1448;-0.4041;
3437255957390;-8.8896;-0.4011;-0.4905;
3437266084786;-9.0646;-0.1208;-0.2677;
3437276192963;-7.9026;0.2770;-2.1410;
3437286301140;-11.5439;-0.2931;-3.5782;
3437296404057;-10.8900;1.2302;-1.3481;
3437306512234;-7.5338;1.5993;-1.7551;
3437316620411;-8.4057;0.2148;-3.8297;
3437326734161;-12.5189;0.6218;-3.2405;
3437336842338;-11.1559;1.6807;-1.3816;
3437346950515;-7.9747;1.7596;-1.2954;
3437357057390;-8.2358;0.0302;-0.5360;
3437367165567;-9.9676;-0.3843;-2.1194;
3437377273745;-10.6768;0.7008;-3.1807;
3437387358328;-9.0718;0.2315;-2.1960;
3437397466505;-9.2827;-0.2524;-2.0282;
3437407574682;-9.7256;0.5764;-2.1194;
3437417688224;-7.2631;0.2001;-0.8330;
3437427796401;-7.3564;-0.3628;-2.2008;
3437437904578;-10.2838;0.3703;-3.1014;
3437448006817;-9.7687;-0.1017;-1.6594;
3437458114995;-8.9447;-0.5064;-1.3816;
3437468223172;-9.1579;-0.1065;-2.9411;
3437478345932;-10.2048;-0.5566;-2.4858;
3437488454109;-9.8791;-0.4513;-1.8200;
3437498562286;-10.2670;0.0063;-2.6321;
3437508663328;-10.2144;0.4253;-1.1994;
3437518771505;-7.5984;-0.1878;0.6834;
3437528879682;-7.6633;0.0159;-1.3026;
3437538998328;-10.2766;0.7080;-2.4835;
3437549106505;-11.3785;0.1618;-1.7815;
3437559214682;-8.4897;0.5046;-2.1075;
3437569332286;-8.6189;-0.3867;-2.7159;
3437579440463;-10.8060;-0.7747;-4.1052;
3437589548640;-12.2100;-0.5088;-2.3447;
3437599649265;-9.1986;-0.7029;-0.6939;
3437609757442;-9.9676;-0.6024;-0.7035;
3437619865672;-9.7950;-1.0214;-0.7107;
3437629964786;-8.2693;-0.4753;-0.8617;
3437640072963;-8.0847;-0.4226;-1.7049;
3437650181192;-9.2321;-1.0023;-1.5470;
3437660288120;-11.5176;-0.9353;-1.5972;
3437670396297;-10.1521;-0.7627;-0.6604;
3437680504526;-8.3770;0.5261;-0.7277;
3437690609682;-11.1269;-0.9520;-1.9062;
3437700717911;-10.8829;-0.9736;-1.8081;
3437710826088;-11.3952;-0.3123;-1.8488;
3437720935255;-8.7867;-0.7244;-1.6235;
3437731043432;-7.8093;-0.4202;-1.1539;
3437741151661;-10.0107;-0.5758;-1.2595;
3437751264578;-10.6863;-0.3987;-1.9828;
3437761372755;-8.9949;0.1235;-1.7264;
3437771480984;-8.7748;-0.2644;-1.4988;
3437781596036;-9.0957;-0.1759;-2.4045;
3437791704213;-8.3530;0.0661;-2.7254;
3437801812442;-8.0608;0.0159;-2.9818;
3437811915203;-7.5075;-0.9138;-3.8297;
3437822023380;-8.0704;0.0805;-4.9125;
3437832131609;-9.3090;-0.2333;-4.2634;
3437842232078;-6.6619;-0.3915;-3.4920;
3437852340255;-7.9388;0.3631;-4.0621;
3437862448484;-9.7878;-1.0071;-3.1687;
3437872556557;-11.1293;-0.8994;-0.7995;
3437882664734;-9.9604;0.2746;-0.5671;
3437892772963;-10.9642;-0.9568;0.1828;
3437902880203;-9.5004;-0.5495;0.2019;
3437912988380;-12.4926;-0.9520;-0.7732;
3437923096609;-11.4290;-0.6550;-1.1683;
3437933211661;-8.4921;-0.4729;-2.0330;
3437943319890;-9.6993;-0.2788;-3.5710;
3437953428067;-10.0226;-0.1161;-2.7996;
3437963530151;-8.6931;-0.3820;-3.2644;
3437973638380;-9.6802;-0.0392;-3.2692;
3437983746609;-9.4908;0.4759;-2.3423;
3437993848797;-9.8839;0.7418;-2.6632;
3438003956974;-8.1999;-0.5351;-1.8823;
3438014065203;-6.1828;-0.5064;-2.1625;
3438024173432;-7.1435;0.2770;-3.4370;
3438034281609;-11.7093;-0.4107;-2.9195;
3438044389838;-10.8395;0.2315;-1.5350;
3438054513432;-8.5663;0.0661;-0.3227;
3438064621609;-8.9734;-0.4992;0.4726;
3438074729838;-7.6657;0.1140;-1.0726;
3438084820151;-6.4630;-0.9114;-1.2425;
3438094928380;-11.3186;-1.9125;-0.9646;
3438105036609;-8.4826;1.2784;-2.6465;
3438115141817;-8.1829;-0.1711;-3.3673;
3438125250047;-9.5390;-0.3820;-4.0860;
3438135358276;-8.8705;0.5955;-6.7475;
3438145468067;-11.2732;-1.3567;-6.0742;
3438155576297;-6.6763;-0.8106;-2.6991;
3438165684526;-5.4281;-0.1615;-4.1052;
3438175798015;-10.0322;-0.8465;-3.9039;
3438185906192;-9.0742;-1.0860;-1.2739;
3438196014422;-7.3588;0.3416;-2.0354;
3438206129265;-10.1234;-0.9712;-1.5326;
3438216237442;-8.0584;-0.6479;-1.6020;
3438226345672;-10.9762;-0.3123;-2.9722;
3438236441401;-11.7236;-0.7962;-1.6044;
3438246549630;-10.2287;-0.1926;-0.4017;
3438256657859;-4.7288;-0.1567;-0.1935;
3438266795620;-2.7954;-1.2658;-3.6571;
3438276903797;-1.0373;-0.0248;-6.8001;
3438287012026;0.4457;0.3416;-8.9106;
3438297101765;0.3185;0.2794;-10.5873;
3438307209942;1.2505;-0.3075;-7.5954;
3438317318172;-6.0054;-0.9377;-6.5438;
3438327450828;-39.9545;0.1164;-1.5565;
3438337559057;-49.8120;-3.4313;18.7861;
3438347667234;-1.9953;-5.1514;27.5943;
3438357745828;11.9154;-0.1089;-8.5513;
3438367854005;-20.8481;-1.1219;-9.0640;
3438377962234;-26.9949;-7.1874;12.8118;
3438388068745;-9.5052;-6.4711;9.5898;
3438398176922;-7.2679;-2.7846;-0.0712;
3438408285151;-12.5883;-3.7092;-1.4270;
3438418399370;-7.3612;-1.1605;-4.0047;
3438428507547;-6.9517;4.0929;-5.9713;
3438438615776;-9.1531;3.3670;-5.8397;
3438448707130;-10.5616;3.6425;-6.4313;
3438458815359;-26.6450;2.6940;-2.8741;
3438468923588;-34.9310;1.0292;3.8671;
3438479047182;-5.8140;-0.9018;8.2675;
3438489155359;7.3591;-0.4633;10.4139;
3438499263588;-14.9192;-3.3500;6.2169;
3438509343536;-27.0715;-2.8014;7.9250;
3438519451713;-2.9201;-1.6442;16.0433;
3438529559942;6.1516;-2.5618;15.7558;
3438539668172;-1.6887;-2.1808;10.3732;
3438549816453;-1.5452;2.1909;-17.7045;
3438559924630;-31.2278;0.4711;-53.3949;
3438570032859;-32.6698;-0.0993;-28.2470;
3438580129995;4.9923;1.5057;-5.3031;
3438590238172;17.9614;-4.0636;-5.0515;
3438600346401;8.4275;-4.2171;-2.8884;
3438610459474;0.2731;0.2626;-9.9311;
3438620567651;-40.6756;0.1211;-10.2257;
3438630675828;-76.2751;-3.0888;9.4869;
3438640777911;-15.8294;-1.0430;15.4134;
3438650886088;19.3101;-2.5044;25.6349;
3438660994265;2.4266;-8.7852;10.0594;
3438671108849;-11.4000;0.9452;-7.8063;
3438681217026;-9.3162;1.9896;-17.1200;
3438691325203;-6.4654;1.3502;-22.3732;
3438701425099;-10.4898;2.3731;-27.7008;
3438711533276;-3.7083;-0.6574;-18.6506;
3438721641453;7.0116;-1.1004;-9.9239;
3438731753224;2.6853;-0.5231;-6.8001;
3438741861401;-8.3219;-1.9558;-3.1974;
3438751969578;-9.9580;-2.1042;0.3383;
3438762085099;-10.2622;-1.3280;1.8811;
3438772193276;-13.9968;-0.5925;5.8026;
3438782301453;-12.9547;-1.8335;4.0947;
3438792404474;-10.9068;0.0541;0.3144;
3438802512651;-11.7428;-0.1352;-0.2677;
3438812620828;-11.7691;1.0244;-1.1204;
3438822739578;-9.0814;2.3563;0.4606;
3438832847755;-6.4199;2.1718;8.3922;
3438842955932;11.5846;0.3703;3.3066;
3438853046140;5.1263;-2.9258;-34.2024;
3438863154317;-37.1566;3.5611;-29.2340;
3438873262547;-35.1204;6.3832;-19.2856;
3438883436088;-2.4745;-3.9990;10.6798;
3438893544265;9.8934;-5.8005;24.9329;
3438903652442;-6.0966;-5.1248;15.3894;
3438913698536;-23.0136;-2.2289;9.4149;
3438923806765;-19.5090;1.1417;8.5932;
3438933914942;-1.8733;-0.3628;2.9662;
3438944064890;-6.3386;-0.7316;-4.5365;
3438954173067;-13.6208;1.3932;-5.5618;
3438964281245;-10.8852;4.0618;-4.8096;
3438974324213;-7.9388;2.3539;-3.9808;
3438984432442;-4.4509;1.5778;-3.9879;
3438994540620;-5.4951;3.1612;-5.6839;
3439004657026;-9.6826;3.0054;-3.4178;
3439014765255;-8.0967;1.6567;-2.7829;
3439024873432;-6.3506;1.0819;-2.0545;
3439035006765;-7.3062;0.5094;-1.6044;
3439045114942;-10.7198;0.3775;-3.8154;
3439055223120;-12.9308;1.1632;-2.5648;
3439065337286;-13.2832;0.3823;0.1205;
3439075445463;-9.8599;0.1786;1.0905;
3439085553640;-11.5104;-0.3338;1.8667;
3439095656505;-10.2263;-1.4145;1.9890;
3439105764682;-7.4213;-0.8827;-0.0520;
3439115872859;-7.5649;-0.1783;-2.4356;
3439125962703;-12.2770;1.2398;-5.1305;
3439136070880;-11.6853;1.1177;-3.4298;
3439146179057;-8.1948;0.6745;-3.4825;
3439156297390;-9.1555;-0.7388;-4.5341;
3439166405567;-7.5266;-0.7819;-4.1746;
3439176513745;-10.0537;1.4435;-5.6695;
3439186620515;-11.2612;1.3071;-4.8239;
3439196728692;-6.7313;0.3846;-4.1985;
3439206836870;-7.0690;-0.2931;-5.8684;
3439216952182;-13.1608;-0.2381;-5.2478;
3439227060359;-8.7099;2.3922;-3.2883;
3439237168536;-5.1144;0.7080;-2.7446;
3439247266557;-8.4826;-0.7316;-3.4083;
3439257374734;-13.2350;0.6984;-2.8355;
3439267482911;-9.5605;1.8820;-2.0788;
3439277604838;-10.8491;0.6194;-0.5001;
3439287713015;-11.4529;-0.5016;-1.9421;
3439297821192;-8.2478;-0.6766;-1.3672;
3439307927599;-11.6420;-0.9903;-3.1687;
3439318035776;-12.1570;-1.0860;-2.6082;
3439328143953;-7.5123;-0.2883;-3.3434;
3439338242078;-10.6146;-0.2644;-5.5475;
3439348350255;-9.2513;-0.0511;-5.6169;
3439358458432;-7.3205;0.3248;-4.8191;
3439368553588;-8.7003;0.3870;-5.1162;
3439378661765;-5.9695;0.5883;-4.5461;
3439388769942;-7.3998;-0.2500;-4.7498;
3439398906557;-8.4778;0.6697;-6.4600;
3439409014734;-7.6633;0.3846;-5.1114;
3439419122911;-10.0250;0.7920;-6.0984;
3439429228015;-9.2608;-0.6598;-2.5217;
3439439336192;-5.6892;0.0685;-2.4858;
3439449444370;-8.4583;-0.2955;-4.0549;
3439459539682;-11.3330;-1.0238;-2.8451;
3439469647859;-8.6788;-0.0081;-1.5278;
3439479756036;-7.3851;-0.1783;-2.1338;
3439489861036;-10.0537;-0.5542;-2.3109;
3439499969213;-8.5137;0.1762;-2.6034;
3439510077390;-11.8193;0.5261;-3.5758;
3439520216036;-9.4358;0.1331;-3.8441;
3439530324213;-7.6968;0.0637;-4.6609;
3439540432390;-10.6696;-0.8393;-4.1363;
3439550526245;-8.7003;-0.3170;-3.7675;
3439560634422;-13.0268;-0.5088;-3.8034;
3439570742599;-13.2087;-0.3963;-2.2391;
3439580849786;-8.2214;0.0805;0.3912;
3439590957963;-7.6558;-0.5183;1.0905;
3439601066140;-11.7523;-0.3194;-2.1290;
3439611179474;-9.9341;0.8877;-2.0521;
3439621287651;-6.4558;1.3190;-0.4017;
3439631395880;-7.6032;0.6721;-2.1864;
3439641490828;-11.0982;0.7056;-4.1052;
3439651599005;-9.0550;0.3799;-1.6642;
3439661707234;-0.0191;1.9346;-3.8201;
3439671814578;-7.0834;1.0723;-7.4495;
3439681922755;-11.4024;1.0986;-6.8216;
3439692030984;-7.5027;2.3225;-3.2022;
3439702134422;-8.6668;1.4913;-1.9253;
3439712242651;-16.7181;-1.3352;-1.3361;
3439722350880;-8.2669;1.0125;-0.3969;
3439732471453;-5.9192;-0.5231;0.0799;
3439742579630;-7.7901;-0.3389;-0.0114;
3439752687859;-10.1186;-1.4886;-3.1062;
3439762783953;-12.9260;-1.0932;-3.0775;
3439772892130;-8.5567;-0.3867;-2.8789;
3439783000359;-11.3856;-1.1028;-4.3615;
3439793099890;-14.1455;-2.9617;-1.5350;
3439803208120;-14.6222;-2.8732;0.3024;
3439813316297;-6.7122;-1.1964;-2.1242;
3439823432703;2.9919;-1.2371;-3.6188;
3439833540880;-8.1900;-2.1401;-8.5681;
3439843649109;-9.3927;-2.3988;-7.2553;
3439853761140;-7.7830;0.8518;-3.9497;
3439863869317;-11.6731;-0.0488;-4.9125;
3439873977547;-14.5262;-1.2610;-2.6393;
3439884084474;-10.5090;0.0374;3.7208;
3439894192651;-8.4344;0.7585;1.4716;
3439904300880;-15.1250;-0.8010;-1.9923;
3439914420828;-13.2350;0.1331;2.4176;
3439924529005;-7.1889;1.5802;3.8910;
3439934637234;-5.2508;1.1225;1.1985;
3439944735620;-8.0656;0.7418;-4.6777;
3439954843797;-11.8289;-0.4705;-7.9789;
3439964952026;-8.1829;-0.3266;-9.2554;
3439975067755;-4.5275;-1.2227;-11.6270;
3439985175932;-10.6552;-1.8168;-8.0650;
3439995284161;-12.6721;-2.2983;-3.3338;
3440005383432;-9.8862;-1.7402;-1.8416;
3440015491609;-5.5863;0.0781;0.0197;
3440025599838;-9.1268;0.3631;0.0918;
3440035710515;-13.1297;-0.6479;-4.1530;
3440045818692;-14.6797;-1.5461;-5.1544;
3440055926922;-10.9594;0.7825;0.8246;
3440066029995;-4.6998;3.1346;6.2770;
3440076138172;-4.6735;1.4626;2.6812;
3440086246401;-10.9522;-0.0176;-3.9760;
3440096373745;-10.6696;0.4950;-5.3270;
3440106481922;-8.2980;-0.3748;-7.3702;
3440116590151;-6.9254;-3.1558;-10.8891;
3440126700724;-10.9929;-3.4911;-11.5026;
3440136808901;-10.0923;-3.3739;-7.7441;
3440146917130;-7.5099;-3.1750;-2.6752;
3440157024578;-8.2884;-2.4108;-0.8091;
3440167132755;-9.5291;-0.9832;0.4152;
3440177240984;-10.9403;-0.3075;0.5803;
3440187359317;-12.0518;-0.1998;-0.6676;
3440197467495;-8.7027;1.3813;0.3287;
3440207575724;-9.4717;-0.1591;0.9996;
3440217667495;-9.5148;-1.4791;-1.3887;
3440227775672;-12.3535;-0.5423;-4.3376;
3440237883901;-7.2894;-0.6646;-3.5279;
3440247982495;-8.0608;-2.0444;-4.8838;
3440258090672;-11.9342;-1.3639;-4.7904;
3440268198901;-7.3875;-1.5365;-2.0282;
3440278314161;-9.8312;-2.6121;-3.6790;
3440288422338;-9.6060;-1.6178;-1.3624;
3440298530567;-6.7911;-1.0645;-0.2988;
3440308639995;-8.0584;-1.1797;-3.5303;
3440318748172;-10.1904;-0.6287;-3.2381;
3440328856401;-8.6812;0.0541;-2.4954;
3440338954370;-9.1866;-0.2859;-3.1926;
3440349062547;-10.1785;-0.9497;-4.0023;
3440359170776;-8.7075;-0.2835;-3.0368;
3440369297078;-9.7448;-0.0153;-3.2333;
3440379405255;-10.2838;-0.7675;-0.8641;
3440389513484;-8.0393;0.0422;-2.6489;
3440399609161;-12.0446;-1.0597;-2.3204;
3440409717338;-8.5687;-0.2548;-2.3614;
3440419825567;-6.6021;0.0398;-4.1913;
3440429923745;-7.5123;1.1800;-2.2128;
3440440031922;-10.9786;-0.2812;-3.4011;
3440450140151;-15.6568;-0.4848;-5.7269;
3440460244265;-6.5061;0.2459;0.5970;
3440470352442;-5.6988;-0.4394;-3.2692;
3440480460672;-10.5712;-0.8417;-3.8177;
3440490585307;-8.4535;0.7199;-2.6656;
3440500693484;-9.8958;0.1403;-3.8967;
3440510801713;-10.0609;-0.6814;-4.5126;
3440520913953;-9.0096;-0.5136;-2.8259;
3440531022130;-7.3421;-0.4178;-1.9134;
3440541130359;-7.7423;-1.3735;-3.2357;
3440551240307;-9.0431;-1.3735;-3.6547;
3440561348484;-9.5267;-0.7388;-2.9674;
3440571456713;-8.4634;-1.3759;-0.8258;
3440581564265;-8.9638;-2.0874;-3.8273;
