Sensor: bmi160 Accelerometer Non-wakeup
Vendor: BOSCH
TimestampAcc [ns]; AccX [m/s^2]; AccY [m/s^2]; AccZ [m/s^2]
596629675882569;-9.4214;1.9202;-2.0426;
596629686017829;-9.3951;1.9298;-2.0644;
596629696136944;-9.3975;1.9537;-2.0378;
596629706201683;-9.4095;1.9561;-2.0091;
596629716364444;-9.3999;1.9705;-1.9851;
596629726429183;-9.4190;1.9537;-1.9947;
596629736576162;-9.4167;1.9609;-1.9851;
596629746717048;-9.4286;1.9753;-1.9947;
596629756781944;-9.4238;1.9729;-2.0258;
596629766886787;-9.4334;1.9418;-1.9947;
596629776990954;-9.3927;1.9346;-1.9899;
596629787091683;-9.3951;1.9466;-2.0186;
596629797220121;-9.4095;1.9394;-2.0330;
596629807301319;-9.4071;1.9418;-2.0210;
596629817400017;-9.4119;1.9202;-2.0354;
596629827504287;-9.4143;1.9418;-2.0019;
596629837606371;-9.3903;1.9490;-2.0043;
596629847713298;-9.4047;1.9346;-2.0186;
596629857826892;-9.3975;1.9370;-1.9947;
596629867923767;-9.4143;1.9226;-2.0115;
596629878041735;-9.3999;1.9155;-2.0306;
596629888137777;-9.4095;1.8963;-2.0163;
596629898248767;-9.4023;1.8987;-2.0521;
596629908349808;-9.4119;1.8867;-2.0812;
596629918451267;-9.4190;1.8772;-2.0426;
596629928554287;-9.4119;1.8724;-2.0402;
596629938665954;-9.4262;1.8915;-2.0644;
596629948752621;-9.4119;1.8891;-2.0330;
596629958864496;-9.3784;1.8867;-2.0668;
596629968973246;-9.3903;1.8628;-2.0545;
596629979083923;-9.4262;1.8676;-2.0569;
596629989181058;-9.3903;1.8724;-2.0593;
596629999288975;-9.3855;1.8724;-2.0354;
596630009393662;-9.3999;1.9059;-2.0450;
596630019493871;-9.4167;1.8843;-2.0498;
596630029604287;-9.4167;1.8987;-2.0426;
596630039710954;-9.4095;1.9274;-2.0378;
596630049789079;-9.3975;1.9561;-2.0306;
596630059926944;-9.4047;1.9681;-2.0115;
596630070031683;-9.4214;1.9609;-1.9995;
596630080134287;-9.4214;1.9537;-2.0115;
596630090228975;-9.3903;1.9537;-2.0115;
596630100332933;-9.3903;1.9753;-2.0354;
596630110438037;-9.3927;1.9968;-2.0474;
596630120542777;-9.3879;1.9848;-2.0067;
596630130650694;-9.3951;1.9753;-1.9923;
596630140752621;-9.3879;1.9920;-1.9732;
596630150852881;-9.4095;2.0040;-1.9780;
596630160968194;-9.4023;1.9729;-2.0163;
596630171056892;-9.4167;1.9848;-2.0115;
596630181174079;-9.4167;2.0016;-1.9636;
596630191275329;-9.3903;2.0040;-1.9851;
596630201378767;-9.3855;2.0112;-1.9875;
596630211480225;-9.3951;2.0183;-1.9828;
596630221579912;-9.3975;2.0160;-1.9708;
596630231689392;-9.4047;2.0183;-1.9445;
596630241789496;-9.4095;2.0399;-1.9636;
596630251912829;-9.4095;2.0399;-1.9540;
596630262010902;-9.3951;2.0423;-1.9540;
596630272092933;-9.4047;2.0518;-1.9804;
596630282204600;-9.4167;2.0590;-1.9828;
596630292371996;-9.4071;2.0351;-1.9708;
596630302417569;-9.3903;2.0399;-1.9899;
596630312535121;-9.3879;2.0566;-1.9421;
596630322623819;-9.3808;2.0518;-1.9349;
596630332744652;-9.4095;2.0351;-1.9540;
596630342837464;-9.4190;2.0160;-1.9516;
596630352977360;-9.3999;2.0255;-1.9732;
596630363056371;-9.3712;2.0303;-1.9756;
596630373146787;-9.3999;2.0088;-1.9899;
596630383258246;-9.4143;2.0207;-1.9636;
596630393360017;-9.3903;2.0136;-1.9708;
596630403471683;-9.4023;2.0303;-1.9636;
596630413574496;-9.3999;2.0255;-1.9373;
596630423679600;-9.4047;2.0040;-1.9636;
596630433778767;-9.3927;2.0183;-1.9516;
596630443888037;-9.4071;2.0255;-1.9780;
596630454015277;-9.4143;1.9992;-1.9804;
596630464095017;-9.4214;1.9896;-1.9756;
596630474198037;-9.3855;2.0040;-2.0210;
596630484310277;-9.3832;2.0183;-1.9780;
596630494418142;-9.3951;2.0064;-1.9756;
596630504518194;-9.3999;2.0160;-1.9445;
596630514611162;-9.4023;2.0375;-1.9277;
596630524733610;-9.3975;2.0542;-1.9564;
596630534877673;-9.3999;2.0447;-1.9516;
596630544956319;-9.4119;2.0447;-1.9875;
596630555055850;-9.4167;2.0761;-1.9732;
596630565154183;-9.3736;2.0662;-1.9516;
596630575252933;-9.3808;2.0590;-1.9516;
596630585357100;-9.3903;2.0761;-1.9493;
596630595461787;-9.3879;2.0785;-1.9540;
596630605571371;-9.4095;2.0734;-1.9732;
596630615669444;-9.3927;2.0856;-1.9923;
596630625773142;-9.3855;2.0761;-1.9971;
596630635876058;-9.3784;2.0327;-1.9708;
596630645983714;-9.3879;2.0207;-1.9971;
596630656091683;-9.3879;2.0207;-2.0091;
596630666191371;-9.3903;2.0207;-1.9875;
596630676264600;-9.3927;2.0399;-1.9684;
596630686391267;-9.4071;2.0614;-1.9851;
596630696519860;-9.3712;2.0710;-1.9899;
596630706607204;-9.3903;2.0928;-1.9971;
596630716741683;-9.4047;2.0880;-2.0163;
596630726821527;-9.3832;2.1120;-1.9923;
596630736921892;-9.3592;2.0952;-1.9636;
596630747026527;-9.3760;2.1144;-1.9684;
596630757148662;-9.3903;2.1048;-1.9756;
596630767232725;-9.3760;2.1503;-1.9828;
596630777335746;-9.3784;2.1550;-1.9971;
596630787446944;-9.3688;2.1407;-1.9540;
596630797603089;-9.3927;2.1335;-1.9564;
596630807669808;-9.3999;2.1742;-1.9708;
596630817765537;-9.3855;2.1981;-1.9493;
596630827865850;-9.3736;2.1885;-1.9493;
596630837986839;-9.3736;2.2029;-1.9397;
596630848070225;-9.3808;2.2196;-1.9660;
596630858188454;-9.3712;2.2220;-1.9780;
596630868290694;-9.3640;2.2172;-1.9564;
596630878376162;-9.3664;2.1957;-1.9540;
596630888493350;-9.3784;2.2005;-1.9373;
596630898597204;-9.3832;2.1933;-1.9397;
596630908708871;-9.3999;2.1909;-1.9397;
596630918810329;-9.4023;2.1885;-1.9397;
596630928911058;-9.3951;2.1837;-1.9516;
596630939049808;-9.3760;2.1885;-1.9445;
596630949132100;-9.3760;2.1550;-1.9564;
596630959223142;-9.3927;2.1311;-1.9708;
596630969327412;-9.3832;2.1287;-1.9947;
596630979421475;-9.3808;2.1144;-2.0067;
596630989537100;-9.3879;2.1024;-1.9995;
596630999647777;-9.3832;2.0856;-1.9828;
596631009753871;-9.4023;2.0638;-1.9875;
596631019867881;-9.3808;2.0423;-1.9875;
596631029971423;-9.3903;2.0399;-2.0450;
596631040079131;-9.3975;2.0423;-2.0402;
596631050180329;-9.3999;2.0327;-2.0306;
596631060291527;-9.3927;2.0136;-2.0234;
596631070374392;-9.3832;1.9442;-1.9373;
596631080482360;-9.3999;2.0064;-2.2774;
596631090587204;-9.3520;1.9178;-2.0474;
596631100690017;-9.3975;1.9513;-2.1290;
596631110794079;-9.4190;1.8963;-2.1482;
596631120951683;-9.3449;1.8293;-2.0593;
596631131007725;-9.3808;1.8102;-2.2223;
596631141102100;-9.3999;1.7166;-2.2702;
596631151206683;-9.3760;1.6161;-2.2415;
596631161319183;-9.4119;1.5514;-2.2463;
596631171420225;-9.4238;1.4818;-2.2822;
596631181514704;-9.3903;1.4076;-2.3303;
596631191619600;-9.3903;1.3525;-2.3495;
596631201751996;-9.3951;1.3358;-2.3997;
596631211905017;-9.3999;1.2855;-2.4906;
596631221943714;-9.3497;1.2350;-2.4835;
596631232045121;-9.3377;1.1871;-2.4284;
596631242142204;-9.3927;1.1536;-2.3782;
596631252261371;-9.4167;1.2039;-2.3566;
596631262360589;-9.3999;1.2709;-2.3806;
596631272489704;-9.3736;1.3932;-2.4858;
596631282563819;-9.3281;1.5129;-2.5624;
596631292689652;-9.2584;1.6400;-2.5504;
596631302774131;-9.2827;1.8027;-2.5098;
596631312881267;-9.3114;1.9920;-2.4165;
596631323005589;-9.3233;2.0785;-2.3471;
596631333103714;-9.3401;2.2292;-2.3447;
596631343188350;-9.3832;2.4520;-2.3133;
596631353323923;-9.3784;2.5908;-2.2893;
596631363406892;-9.3951;2.7012;-2.2152;
596631373507100;-9.3497;2.6988;-2.0354;
596631383614027;-9.3329;2.7323;-2.0234;
596631393711683;-9.3209;2.8328;-2.1769;
596631403825954;-9.2970;2.8256;-2.1721;
596631413928246;-9.2922;2.8256;-2.1290;
596631424051839;-9.2755;2.8208;-2.1290;
596631434147100;-9.2249;2.7491;-2.1123;
596631444237204;-9.2249;2.7299;-2.0668;
596631454341371;-9.2513;2.6677;-2.1147;
596631464469444;-9.3473;2.5837;-2.2295;
596631474579183;-9.4095;2.4592;-2.2128;
596631484677569;-9.3520;2.2627;-1.9516;
596631494767100;-9.3568;2.1120;-1.8392;
596631504878142;-9.4167;2.0761;-1.9469;
596631514975329;-9.4190;1.9226;-2.0163;
596631525076892;-9.3664;1.8197;-2.1505;
596631535185642;-9.2827;1.8413;-2.3447;
596631545288037;-9.2154;1.9418;-2.5481;
596631555415537;-9.1101;2.0183;-2.5146;
596631565505746;-9.0431;2.0183;-2.2726;
596631575612204;-9.0598;2.0136;-2.2487;
596631585715850;-9.2656;2.3106;-2.4739;
596631595816944;-9.4190;2.7060;-2.7900;
596631605922933;-9.4908;2.6964;-2.6656;
596631616028246;-9.4980;2.2555;-2.3204;
596631626137517;-9.2803;1.9681;-2.5768;
596631636242777;-9.0000;1.6926;-3.1205;
596631646359756;-8.9327;0.8662;-3.1759;
596631656446006;-9.1579;0.3511;-3.5375;
596631666544496;-9.3879;0.1379;-4.1626;
596631676649235;-8.4368;3.5946;-9.9096;
596631686752412;-7.6920;6.1388;-10.8724;
596631696879964;-8.4153;-1.3926;1.1025;
596631706959496;-11.3474;0.7825;-3.0081;
596631717068923;-10.9546;0.4445;-1.3744;
596631727175329;-8.5184;-0.9138;0.5874;
596631737275433;-7.9340;-0.0583;-1.8631;
596631747382725;-8.0058;1.0603;-5.1832;
596631757497517;-7.5769;0.3464;-5.5328;
596631767591944;-8.9806;0.4325;-6.9129;
596631777694808;-11.9824;2.0614;-8.8268;
596631787793767;-10.8757;2.1096;-5.3988;
596631797919964;-7.7088;1.4913;-1.8823;
596631808022204;-7.7064;1.8796;-3.0583;
596631818126371;-9.3018;2.1024;-3.8058;
596631828215954;-9.3473;1.0699;-1.1180;
596631838347777;-8.1350;1.0388;-0.2940;
596631848427621;-9.2489;3.2545;-4.4548;
596631858534027;-10.4874;4.1910;-6.6709;
596631868648037;-8.8370;3.4654;-4.5724;
596631878748194;-7.7375;2.7012;-3.1352;
596631888850121;-9.9676;3.1131;-3.6045;
596631898950537;-10.3415;2.4592;-1.5996;
596631909058194;-8.1781;2.1263;-0.2509;
596631919158819;-9.5366;2.9958;-3.2094;
596631929268975;-10.2287;2.3683;-3.6284;
596631939367204;-7.7112;1.4100;-1.5251;
596631949478142;-8.0536;2.1885;-3.9377;
596631959574704;-10.3005;1.9657;-5.6815;
596631969671214;-11.1990;1.1895;-3.4920;
596631979808819;-9.1603;1.4722;-0.7636;
596631989905329;-7.2655;2.6462;-1.2787;
596632000001892;-9.0120;2.7491;-3.4633;
596632010106058;-10.2287;1.7142;-2.4260;
596632020202569;-8.4559;1.7429;-0.5623;
596632030299131;-9.2656;2.4999;-2.5986;
596632040415954;-11.2923;1.7716;-3.2955;
596632050512464;-10.1139;1.1967;-1.4725;
596632060609079;-8.3818;1.7070;-1.2114;
596632070731162;-8.2908;1.8604;-1.4103;
596632080827673;-9.4980;1.8700;-1.7551;
596632090924235;-10.4707;1.1776;-2.0234;
596632101035746;-9.9963;1.1680;-3.5542;
596632111132360;-10.4324;1.2517;-5.7245;
596632121228871;-10.2838;0.7657;-4.1363;
596632131347412;-7.2607;0.8614;-0.7445;
596632141443975;-6.1325;1.9155;-0.7828;
596632151540537;-9.2249;2.3417;-2.2439;
596632161671267;-10.4635;2.0928;-1.8344;
596632171767829;-9.7663;2.4975;-2.1697;
596632181864392;-10.9834;2.5382;-4.2514;
596632191985069;-11.4553;2.2651;-4.0262;
596632202081579;-9.0670;1.8628;-1.3098;
596632212178142;-7.0283;2.5980;-1.0893;
596632222298142;-8.2454;2.7491;-2.0115;
596632232394704;-8.3291;2.5214;-1.6355;
596632242491267;-8.5137;2.8089;-2.6584;
596632252602673;-10.8347;2.7299;-5.0228;
596632262699183;-11.6204;2.3922;-4.5820;
596632272795746;-9.2393;2.6988;-2.3877;
596632282944235;-7.2703;3.2713;-2.8259;
596632293017777;-8.9207;2.9192;-3.4848;
596632303114287;-9.3927;2.4760;-1.4294;
596632313210850;-8.2813;2.8615;-1.1659;
596632323362152;-9.1316;3.0915;-3.8943;
596632333458714;-10.7510;2.5956;-5.2286;
596632343555277;-9.6754;2.5238;-3.6718;
596632353684131;-8.8872;2.9623;-3.1424;
596632363780694;-8.8011;2.9001;-2.7972;
596632373877256;-7.1818;2.9073;-2.0883;
596632383983298;-8.5089;2.9121;-2.6943;
596632394079808;-10.3196;2.6028;-3.0033;
596632404176371;-9.3736;2.4784;-2.3830;
596632414304392;-8.6979;2.7993;-3.2764;
596632424400902;-10.8084;2.3082;-4.0286;
596632434497464;-12.2937;2.0399;-3.2070;
596632444642621;-8.7604;2.2484;-0.7732;
596632454739131;-5.8451;2.4425;-1.5876;
596632464835694;-7.1770;2.0590;-5.3821;
596632474915121;-9.5510;1.6400;-5.7867;
596632485011631;-9.7113;1.6472;-3.1038;
596632495108194;-9.2513;1.9490;-2.3157;
596632505233037;-9.7208;2.1191;-4.3543;
596632515329548;-8.7242;1.5826;-4.4767;
596632525426110;-4.9585;1.5849;-2.9530;
596632535543558;-4.1225;2.3106;-3.8345;
596632545640069;-9.4669;2.4999;-6.0335;
596632555736631;-14.8472;1.7931;-4.3926;
596632565864600;-14.3249;1.6137;-3.5686;
596632575961110;-11.8696;2.1311;-7.4183;
596632586057673;-8.0895;0.1331;-4.4189;
596632596172360;-6.9278;-0.5064;-0.6580;
596632606268871;-6.2593;-0.0969;0.3048;
596632616365433;-7.2368;1.7046;-1.1468;
596632626490121;-8.4416;1.8604;-2.0354;
596632636586631;-9.9293;2.0590;-3.1543;
596632646683194;-13.0531;0.9906;-4.2849;
596632656798142;-12.2172;1.5682;-4.3017;
596632666894652;-7.8571;1.8051;-2.6249;
596632676991214;-4.6113;0.8638;-0.3275;
596632687126631;-4.2353;0.5213;1.3516;
596632697223142;-5.9312;0.4062;-0.0233;
596632707319704;-11.3833;1.2159;-4.1578;
596632717446058;-15.9467;1.6137;-6.2180;
596632727542621;-14.4401;1.8150;-4.0860;
596632737639183;-9.4741;1.4722;-0.6652;
596632747747933;-6.2665;1.9442;-0.5695;
596632757844444;-7.5051;1.8556;-2.0186;
596632767941006;-10.4396;1.5802;-2.5193;
596632778054444;-9.6012;0.6242;-1.5613;
596632788150954;-9.8192;0.0446;-0.8809;
596632798247517;-10.0035;0.0613;-1.9014;
596632808386058;-10.9475;-0.4035;-2.3758;
596632818482569;-10.3582;-0.7029;-2.6177;
596632828579131;-9.3688;-0.7316;-4.9699;
596632838679600;-9.8551;-1.4288;-4.2084;
596632848776110;-9.8647;-1.8215;-1.0845;
596632858872673;-6.0751;-1.4527;-1.1587;
596632869002412;-8.9112;-1.6394;-4.6681;
596632879098923;-11.8505;-2.0994;-4.5556;
596632889195485;-11.2851;-1.7474;-2.7422;
596632899318662;-10.1019;-0.9927;-2.2391;
596632909415173;-8.2693;-0.7986;-1.2906;
596632919511735;-9.3712;-0.1376;-2.6632;
596632929633454;-9.0526;-0.0176;-2.9578;
596632939729964;-9.2632;-0.7412;-2.4787;
596632949826527;-12.1666;-0.1376;-3.4872;
596632959953454;-10.3774;0.0063;-1.6594;
596632970049964;-7.4333;0.9356;-2.9387;
596632980146527;-8.7628;0.9165;-5.3414;
596632990262621;-10.7749;0.2674;-3.1301;
596633000359131;-7.6271;1.3932;-1.0223;
596633010455694;-8.3100;1.8245;-2.2893;
596633020570329;-9.3544;1.5586;-3.1229;
596633030666839;-9.9126;1.7955;-3.1639;
596633040763402;-11.1150;1.8365;-2.2774;
596633050863610;-8.5974;2.0016;-0.6796;
596633060960121;-8.4512;2.1407;-1.1372;
596633071056683;-9.3760;1.4339;-2.4356;
596633081153194;-9.7854;1.1895;-3.1926;
596633091296735;-9.5510;0.5022;-2.6847;
596633101393298;-9.5653;-0.0368;-1.7934;
596633111489860;-10.0418;0.3248;-1.9612;
596633121615537;-9.3257;1.1130;-2.9674;
596633131712048;-7.6992;1.6256;-4.1267;
596633141808662;-9.8815;-0.0344;-3.5997;
596633151926110;-10.0780;-1.1100;-2.1649;
596633162022621;-8.2837;-0.2166;-1.6283;
596633172119183;-8.3842;0.7681;-3.0488;
596633182253975;-10.3511;0.3607;-4.5796;
596633192350537;-10.6241;-1.2060;-3.6981;
596633202447100;-9.9102;-1.8742;-2.6058;
596633212555225;-8.8370;-1.8622;-1.8440;
596633222651735;-9.6682;-1.6971;-2.4835;
596633232748350;-9.9150;-1.9316;-2.8693;
596633242902881;-8.2310;-2.0898;-2.9148;
596633252999392;-9.3185;-2.0539;-4.5915;
596633263096006;-10.5927;-2.3462;-3.6694;
596633273175485;-9.1962;-1.7330;-1.8033;
596633283272048;-8.5807;-0.7890;-3.2716;
596633293368610;-9.2393;-1.0502;-4.3902;
596633303494339;-9.5076;-1.6083;-4.4501;
596633313597464;-9.1316;-1.1557;-3.7579;
596633323700589;-9.0622;-0.6598;-1.8440;
596633333812204;-8.8657;0.3392;-2.6919;
596633343915329;-8.9710;0.8351;-5.0061;
596633354018454;-10.0011;-0.2429;-5.0707;
596633364131735;-10.4516;-0.1304;-4.2132;
596633374234808;-8.8872;0.4735;-3.0894;
596633384337933;-8.0728;1.3190;-3.3003;
596633394441892;-8.5878;1.3071;-3.8321;
596633404545017;-9.2560;1.8293;-5.4371;
596633414648142;-10.7198;1.1728;-4.0597;
596633424758037;-8.5400;1.7836;-1.7671;
596633434861162;-7.8236;2.1718;-3.2883;
596633444964287;-10.5233;2.1455;-5.6360;
596633455071683;-10.7486;1.5272;-4.5915;
596633465174860;-8.5519;1.4794;-2.1410;
596633475277933;-6.8847;1.4219;-2.2343;
596633485384912;-9.8312;1.6448;-4.6155;
596633495488037;-12.0805;0.9141;-1.8631;
596633505591162;-7.6247;1.3406;1.6822;
596633515691996;-7.6633;2.5884;-4.2993;
596633525795121;-12.9523;1.5610;-8.9776;
596633535898246;-10.9044;-0.0706;-2.3710;
596633546008662;-6.9996;0.5261;0.6667;
596633556111787;-9.0335;1.9202;-3.4848;
596633566214912;-10.3292;1.4363;-3.5949;
596633576326162;-9.4047;0.7609;-1.4414;
596633586429287;-7.8882;0.9954;-0.9479;
596633596532412;-7.8284;1.1967;-1.8488;
596633606646371;-9.7974;0.9595;-3.2955;
596633616749496;-9.5315;0.2985;-3.0057;
596633626852621;-8.7748;0.4684;-2.5433;
596633636947725;-9.6419;0.4759;-2.8932;
596633647050850;-9.6491;0.6888;-2.5504;
596633657153923;-9.6419;0.3870;-2.3662;
596633667267360;-9.9844;0.5381;-3.9592;
596633677370485;-8.9471;0.3679;-2.6441;
596633687473558;-8.7987;0.4014;-0.5695;
596633697574183;-10.0995;1.2736;-2.2128;
596633707677308;-8.3076;1.6807;-3.9425;
596633717780433;-8.1948;1.3573;-4.6178;
596633727890746;-8.8896;1.1249;-3.6766;
596633737993871;-8.0225;1.1584;-2.2965;
596633748096996;-7.5290;1.5057;-3.3410;
596633758243558;-10.2024;1.5586;-5.4921;
596633768346683;-10.8658;1.3741;-2.2247;
596633778449808;-8.3315;0.3751;0.8127;
596633788526579;-8.7891;1.6280;-3.4633;
596633798629704;-10.2694;1.4387;-6.3978;
596633808732829;-9.2154;0.3224;-2.3109;
596633818859704;-7.9938;1.1177;-1.8535;
596633828962829;-8.1999;1.5778;-3.2907;
596633839065954;-9.3520;1.1991;-4.1841;
596633849155121;-10.9403;1.4722;-3.9808;
596633859258246;-10.0394;1.5368;-1.9828;
596633869361371;-7.8571;2.2723;-2.3566;
596633879480329;-9.2632;2.7347;-4.2251;
596633889583454;-8.1876;2.3345;-3.3912;
596633899686579;-9.4741;2.2220;-3.2548;
596633909787517;-10.0995;2.1981;-2.6417;
596633919890642;-9.9891;2.8953;-3.2118;
596633929993767;-8.6213;2.8472;-4.0023;
596633940101475;-9.6658;1.9059;-3.8632;
596633950204600;-11.8816;1.3262;-2.7015;
596633960307725;-9.8073;1.0026;-2.2439;
596633970416996;-7.9771;-0.5495;-2.0668;
596633980520069;-7.1073;-1.5963;-2.4021;
596633990623194;-8.4754;-1.9077;-3.8249;
596634000735433;-10.2814;-2.3916;-3.6141;
596634010838558;-10.1043;-2.7918;-3.5997;
596634020941683;-9.5725;-3.3141;-4.4142;
596634031033037;-9.6132;-4.1477;-3.6957;
596634041136162;-9.6203;-4.0349;-3.4107;
596634051239287;-7.5553;-3.9631;-3.2285;
596634061368142;-7.6032;-3.9176;-4.4886;
596634071471319;-9.6778;-4.2147;-3.9999;
596634081574392;-9.5773;-4.2793;-3.4896;
596634091663089;-9.4406;-4.2984;-2.8813;
596634101766162;-10.9044;-4.1740;-3.6093;
596634111869287;-11.1559;-4.4830;-3.2883;
596634121974235;-8.9590;-3.8001;-2.8908;
596634132077412;-7.3158;-4.0878;-2.8980;
596634142180485;-8.8442;-4.3848;-4.3807;
596634152304600;-10.6911;-4.0086;-3.4035;
596634162407673;-8.7820;-2.6815;-3.5064;
596634172510798;-8.1757;-2.3677;-4.1626;
596634182593246;-10.1115;-2.3318;-2.7972;
596634192696371;-9.9891;-1.5245;-3.0535;
596634202799444;-7.7518;-0.5016;-3.0153;
596634212941475;-9.1125;0.3224;-3.6284;
596634223044600;-10.0226;0.8207;-3.5710;
596634233147725;-9.1795;1.7979;-3.1110;
596634243227256;-7.9914;2.3803;-2.9004;
596634253330381;-10.8108;2.2053;-3.3194;
596634263433506;-11.0288;2.6052;-2.6369;
596634273560642;-7.8595;2.7395;-2.2463;
596634283663767;-6.9278;2.1120;-2.8092;
596634293766892;-9.5462;2.2101;-4.3304;
596634303883923;-10.0322;2.2579;-3.7436;
596634313988506;-7.5625;3.0054;-3.7316;
596634324093089;-8.8442;2.7012;-3.7579;
596634334170225;-8.9183;2.7012;-3.2883;
596634344274808;-7.6247;3.7792;-3.3434;
596634354379392;-7.7303;3.2761;-4.0047;
596634364493454;-9.4765;3.7146;-4.6155;
596634374598037;-11.4601;2.4449;-3.3482;
596634384702621;-8.7147;1.7955;-2.7948;
596634394806996;-6.9015;0.9643;-2.4882;
596634404911579;-9.4119;0.1379;-3.7651;
596634415016162;-11.2229;0.5118;-3.3362;
596634425123037;-8.0321;1.4818;-3.2189;
596634435227621;-8.3052;1.3454;-4.3256;
596634445332204;-11.2612;0.0924;-5.1162;
596634455437412;-10.4420;-0.1639;-3.9832;
596634465541996;-5.5600;-0.2500;-2.6393;
596634475646579;-3.7466;-0.7771;-4.8670;
596634485753246;-5.0689;0.3511;-8.3237;
596634495857829;-6.9661;1.2374;-7.7680;
596634505962412;-2.8460;0.2626;-7.7489;
596634516050121;-2.8819;-0.5830;-8.2878;
596634526154704;-10.9594;-0.3867;-7.9427;
596634536259287;-17.4177;-0.8512;-4.4166;
596634546376787;-15.2139;-1.6804;2.1374;
596634556481371;-14.4592;-2.5259;4.0011;
596634566585954;-15.4965;-3.1056;3.8408;
596634576685329;-11.4024;-3.1965;2.4176;
596634586789912;-7.2272;-3.1367;-0.3036;
596634596894496;-6.9517;-1.1291;-5.8349;
596634607007308;-10.2861;1.6184;-9.0903;
596634617111892;-9.6060;0.4493;-7.8613;
596634627216475;-7.8811;-1.0741;-7.1139;
596634637304079;-8.7939;-1.0884;-4.9196;
596634647408662;-7.9699;-1.9965;-4.3878;
596634657513246;-7.7518;-0.3580;-4.4524;
596634667632412;-8.9040;-1.1964;-3.9712;
596634677736996;-10.0059;-1.6370;-3.7603;
596634687841579;-10.8180;-2.2696;-2.9602;
596634697952412;-12.8734;-2.1401;-2.5002;
596634708056996;-9.3808;-2.4996;-2.4045;
596634718161579;-9.4047;-0.9616;-4.8239;
596634728258662;-10.5353;0.5381;-3.5590;
596634738363246;-6.1349;0.5429;-3.8297;
596634748467829;-6.0509;-0.1232;-5.8851;
596634758561892;-9.7639;0.4205;-5.5786;
596634768666475;-11.0192;-0.9927;-5.7676;
596634778771058;-7.7518;0.0159;-4.2538;
596634788911162;-5.3611;-0.4178;-4.0358;
596634799015746;-8.0824;0.2794;-6.1104;
596634809120329;-9.2874;0.2602;-5.0133;
596634819220173;-10.1833;0.5405;-4.4958;
596634829324756;-12.5022;-0.3843;-2.3686;
596634839429339;-10.8757;0.5309;0.0197;
596634849515954;-6.2713;-0.1256;-1.5084;
596634859620537;-9.4334;0.5070;-3.2357;
596634869725121;-7.4118;0.4469;-2.7781;
596634879839912;-6.5803;0.7247;-5.6623;
596634889944496;-12.2530;1.8485;-6.8599;
596634900049079;-11.1847;2.5741;-4.3759;
596634910152621;-8.9566;1.5009;-3.2668;
596634920257204;-6.9206;2.2627;-3.0846;
596634930361787;-8.7844;2.1096;-3.7101;
596634940460329;-10.6672;1.8604;-3.8225;
596634950564912;-8.3339;1.8197;-0.6245;
596634960669496;-9.1699;0.4878;1.6415;
596634970787517;-9.8743;-0.5662;3.7376;
596634980892100;-6.5850;-1.8622;5.0958;
596634990996683;-3.7848;-0.7196;-5.7245;
596635001100746;-11.9390;-1.0167;-20.8475;
596635011205329;-14.4305;-1.7354;-20.6533;
596635021309912;-6.6930;4.8045;-10.5993;
596635031390850;-4.2233;4.6104;-4.8168;
596635041495433;-1.5763;-0.1089;-5.2430;
596635051600017;-10.9834;0.2770;-5.3175;
596635061753871;-21.6099;0.8830;-0.5695;
596635071858454;-13.4961;-0.5495;1.1192;
596635081963037;-5.8642;0.7343;1.9531;
596635092026475;-3.8255;1.1704;0.7217;
596635102131058;-11.8505;0.9380;-5.2549;
596635112235642;-11.9222;-0.1831;-6.5557;
596635122345746;-12.6027;-0.2500;-6.2085;
596635132450329;-10.2694;-0.5518;-2.4021;
596635142554912;-5.9073;-2.3773;-1.4773;
596635152641058;-4.6663;-1.9678;-1.9205;
596635162745642;-7.9675;-2.2792;-4.5820;
596635172850225;-11.2086;-2.6527;-5.0252;
596635182974079;-6.0846;-2.8086;-3.1950;
596635193078662;-8.7242;-2.2457;-4.7665;
596635203183246;-8.8681;-3.1606;-0.9574;
596635213268767;-7.8930;-2.3222;-2.8837;
596635223373350;-8.1975;-1.6828;-6.7475;
596635233477933;-10.9235;-0.5566;-7.3391;
596635243614600;-12.5309;0.5716;-3.4035;
596635253719183;-8.4730;0.9906;1.3636;
596635263823767;-5.2436;-0.0440;0.2617;
596635273892621;-8.2382;0.5142;-4.0669;
596635283997204;-10.1785;0.2841;-5.2768;
596635294101787;-9.1579;0.4205;-7.0134;
596635304216579;-10.5018;0.9212;-6.9583;
596635314321006;-10.2766;0.5668;-2.6560;
596635324425433;-8.0632;0.9069;-0.0808;
596635334535537;-6.8414;0.2961;-0.8306;
596635344639964;-9.5821;0.9380;-3.3266;
596635354744339;-12.1499;-0.4490;-5.2887;
596635364855173;-11.9342;-0.4513;-6.3667;
596635374959600;-10.4731;-0.2477;-3.4394;
596635385063975;-8.3602;0.7753;-2.8187;
596635395161423;-10.6720;0.8542;-0.3467;
596635405265850;-8.6142;-0.5160;3.9437;
596635415370277;-2.8555;-2.6910;4.4061;
596635425475173;-7.2464;-5.1538;-9.4137;
596635435579600;-14.5262;-4.1070;-16.7414;
596635445684027;-14.7108;-3.6230;-6.9511;
596635455792829;-9.1412;1.5849;-2.6656;
596635465897256;-3.3727;0.9787;-0.7155;
596635476001631;-4.1034;-1.8622;-0.3467;
596635486114600;-7.5817;-2.3294;-0.4376;
596635496219027;-11.7452;-3.9894;-2.0788;
596635506323402;-12.8519;-5.0865;-4.6609;
596635516413037;-12.5142;-3.2515;-2.6417;
596635526517464;-5.8307;-3.3523;0.1014;
596635536621892;-6.1086;-1.4743;-4.0334;
596635546729287;-12.2315;-1.8837;-4.3065;
596635556833714;-7.4285;-2.1377;-1.8559;
596635566938089;-8.8298;-0.4801;-10.3935;
596635577053558;-12.6434;2.0952;-10.5108;
596635587157985;-5.1766;1.6831;0.3287;
596635597262360;-2.4649;-0.7675;-2.7805;
596635607379704;-7.7040;0.0709;-7.7632;
596635617484131;-15.3742;-3.5390;-4.2826;
596635627588506;-15.5922;-2.8086;-0.6197;
596635637660017;-7.6944;-0.7005;0.1564;
596635647764444;-7.9460;1.0268;-2.2223;
596635657868819;-6.2450;0.6936;-1.7791;
596635667993767;-6.2091;0.4759;-3.5112;
596635678098194;-9.9341;0.0111;-7.3176;
596635688202621;-13.7022;-0.4561;-6.4217;
596635698306267;-10.9499;-1.0549;-4.5508;
596635708410694;-5.6581;-0.7938;-6.9727;
596635718515121;-8.3818;1.3813;-8.0363;
596635728623350;-8.2884;1.4363;-4.3878;
596635738727777;-8.2502;0.6529;-3.4011;
596635748832152;-6.7624;-1.0549;-2.3013;
596635758932621;-10.8108;-0.5949;-0.2940;
596635769037048;-9.6586;-3.2109;-2.3061;
596635779141423;-6.1158;1.9131;-7.4423;
596635789270746;-2.6782;-0.1089;-4.7474;
596635799375173;-6.2689;-1.1171;-5.1855;
596635809479548;-17.0198;-1.8072;-5.9426;
596635819574704;-13.3502;-1.0214;-3.3697;
596635829679131;-5.7972;-1.5700;-2.8116;
596635839783506;-3.9766;1.7572;-7.0995;
596635849882360;-7.5793;0.8303;-3.7053;
596635859986787;-20.0504;-0.2500;-1.6187;
596635870091162;-18.0045;-0.9329;1.0618;
596635880200225;3.2506;1.7118;0.2354;
596635890304652;-9.2297;2.1670;-5.2768;
596635900409079;-12.9595;-0.4968;-3.0081;
596635910507725;-11.7428;-3.7427;-2.6608;
596635920612152;-2.8842;-4.8637;-8.3812;
596635930716527;-8.3052;-3.7522;-6.0912;
596635940821058;-9.9987;-4.3490;-0.8091;
596635950925485;-4.1728;-5.0052;-6.4720;
596635961029860;-11.5439;-3.9009;-12.8919;
596635971135589;-14.9527;-1.5700;-2.9722;
596635981240017;-7.5817;-2.3964;5.4000;
596635991344392;-6.7792;-2.4730;-1.7767;
596636001453871;-13.2087;-1.0669;-4.6442;
596636011558298;-8.1541;0.0781;-1.5227;
596636021662673;-6.8800;-0.4202;-6.1606;
596636031780537;-13.3573;-0.3099;-8.6040;
596636041884964;-11.7715;0.6075;-1.4940;
596636051989339;-2.1248;1.9777;-0.2533;
596636062077933;-7.5984;0.5022;-7.2888;
596636072182360;-16.9672;1.4937;-5.2744;
596636082286787;-6.8919;2.6988;3.1938;
596636092401058;-0.5821;0.7080;8.0207;
596636102505433;-3.8447;0.8877;-2.4308;
596636112609860;-11.3426;2.3249;-15.9772;
596636122698037;-8.2502;0.7561;-21.8557;
596636132802464;-23.4879;2.2603;-20.4281;
596636142906839;-13.8748;2.6222;4.9427;
596636153000017;7.7231;2.4281;7.2565;
596636163104444;-1.9475;-0.2883;-11.1598;
596636173208871;-30.5665;-2.2624;-3.5566;
596636183345642;-12.1690;-0.8707;12.5435;
596636193450069;12.1331;0.6864;-0.0329;
596636203554444;-4.3071;0.4759;-18.1116;
596636213639496;-27.5578;-1.9125;-5.1544;
596636223743923;-10.6768;0.2578;4.7127;
596636233848350;3.7394;0.1355;-6.8671;
596636243978558;-23.5023;-1.7928;-7.3774;
596636254082985;-21.1451;-1.8191;9.7768;
596636264187360;3.6796;-1.1390;6.3918;
596636274270017;-3.1549;0.7319;-10.6475;
596636284374444;-17.5062;0.5477;-9.2411;
596636294478819;-14.2603;-0.6790;-1.0175;
596636304582725;-0.9173;-1.7521;-4.0693;
596636314687360;-3.0685;-1.8670;-10.7886;
596636324792048;-15.5611;-2.8732;-6.4720;
596636334913662;-13.8676;-2.3246;-4.9555;
596636345018298;-5.6749;-2.0085;-0.8163;
596636355122985;-0.8312;-3.6613;-2.0402;
596636365216579;-9.7280;-3.0123;-7.9427;
596636375321214;-13.8245;-3.9703;-0.4594;
596636385425902;-7.8093;-3.5031;2.4033;
596636395529912;-5.7323;-3.9751;-0.8761;
596636405634548;-12.4732;-0.9784;-7.5284;
596636415739235;-14.0327;-0.8177;-2.8235;
596636425846787;-7.1192;0.1762;2.0273;
596636435951423;-4.6017;0.6697;-4.7255;
596636446056110;-4.8102;0.0972;-6.1295;
596636456170954;-9.9317;-0.1950;-8.7093;
596636466275589;-14.6557;0.9739;-10.0196;
596636476380277;-12.5381;3.5252;1.3636;
596636486488923;-7.2727;4.9720;5.5439;
596636496593610;-6.4965;2.7132;-1.7360;
596636506698246;-8.4535;-0.2835;-3.8608;
596636516780902;-2.5558;-0.5901;-7.0804;
596636526885537;-7.1698;-0.2213;-12.6978;
596636536990225;-10.1617;1.5826;-11.0306;
596636547092204;-20.0097;7.6717;-6.2348;
596636557196839;-12.0422;8.6037;2.1135;
596636567301527;-5.7060;4.7204;3.4884;
596636577404392;-2.5896;2.2531;-1.7001;
596636587509027;-4.7527;-0.9855;-3.1014;
596636597613662;-8.3985;-1.2826;-4.7928;
596636607731475;-12.3775;0.0446;-7.9475;
596636617836110;-6.3386;0.0302;-6.0550;
596636627940798;-5.7395;0.7199;-5.3749;
596636638060017;-11.2014;0.7223;-3.2620;
596636648164652;-7.1315;-0.0730;0.4989;
596636658269339;-0.4744;-0.4609;-3.1567;
596636668345850;-10.4994;-0.8755;-7.5715;
596636678450537;-14.3970;-2.3366;-3.1277;
596636688555173;-14.7371;-1.1557;-2.6273;
596636698659079;-3.7944;-1.2108;-2.5986;
596636708763714;-3.9117;-0.5949;-7.1692;
596636718868402;-12.4564;-0.3556;-4.5963;
596636728985537;-19.2479;-1.3950;5.9366;
596636739090173;-15.4774;-2.1185;4.4324;
596636749194860;-7.9050;-0.7436;-2.4284;
596636759288558;-5.3587;-4.1548;-2.6058;
596636769393194;-9.8815;-4.3513;-9.0879;
596636779497829;-15.3407;-2.6767;-7.3247;
596636789613558;-9.0526;-1.6274;3.6538;
596636799718194;-11.0958;0.4325;1.4692;
596636809822881;-5.7826;-0.5782;1.6534;
596636819930433;-3.3945;-2.2170;-5.1664;
596636830035069;-11.8026;-4.5523;-13.6107;
596636840139756;-15.7481;-2.6934;-9.6102;
596636850259339;-13.6807;3.9108;2.5639;
596636860363975;-0.4887;4.1695;5.8648;
596636870468662;-1.7943;0.6194;-6.2252;
596636880560746;-9.7424;-1.7450;-12.4319;
596636890665381;-12.4038;-1.3735;-5.9091;
596636900770069;-2.9919;1.7022;0.4893;
596636910874496;-9.7974;2.4592;-8.3931;
596636920979131;-18.6634;0.8782;-3.6356;
596636931083819;-9.6443;0.6194;11.0680;
596636941182308;-8.1039;3.5133;0.8127;
596636951286996;-6.3769;0.7128;-12.0344;
596636961391631;-14.9360;-3.3380;-11.4308;
596636971487673;-9.9150;-0.5303;0.0389;
596636981592308;0.7283;5.2211;0.7098;
596636991696944;-5.6509;5.7721;-11.0785;
596637001833767;-13.7931;2.0495;-13.8407;
596637011938402;-12.6171;2.8041;-7.3582;
596637022043089;-3.2171;5.1948;-3.8273;
596637032133767;-16.0546;5.1541;-5.7556;
596637042238402;-16.9935;0.5572;2.1757;
596637052343089;-0.8838;-1.0836;4.3364;
596637062437829;-5.9145;1.0484;-8.5346;
596637072542464;-11.6973;-1.4384;-6.3547;
596637082647152;-9.9461;-1.6995;-0.6245;
596637092758662;-16.9193;2.0614;-5.5161;
596637102863350;-8.1015;1.4339;-5.0970;
596637112968037;-7.0618;1.2135;-2.9411;
596637123066787;-11.2062;1.6926;0.8749;
596637133171475;-10.0780;0.8542;0.0724;
596637143276110;-8.0752;-0.4322;-3.3075;
596637153372673;-1.8254;-0.6311;-4.6585;
596637163477360;-6.3529;-0.1783;-7.8254;
596637173581996;-13.2470;-0.0945;-10.0627;
596637183706475;-9.6706;1.7812;-6.5629;
596637193811110;-5.0019;2.3803;-5.0994;
596637203915798;-17.2116;3.6954;-8.8771;
596637213996058;-21.4014;2.7347;2.9064;
596637224100746;-7.4812;1.1728;11.6094;
596637234205381;1.2051;-0.1711;3.2393;
596637244313454;-2.5582;-0.6909;-7.9813;
596637254418142;-8.1350;-1.1124;-11.7924;
596637264522777;-9.3568;-2.7655;-4.9795;
596637274628350;-14.3034;-1.1725;-5.0085;
596637284732985;-18.3135;2.6533;-5.1688;
596637294837673;-8.3459;2.0136;1.3995;
596637304964600;-0.5892;-0.0945;2.4392;
596637315069444;-3.2363;0.5524;-7.5212;
596637325174287;-12.2794;0.5883;-10.9182;
596637335259079;-5.5840;-2.5140;-2.0593;
596637345363923;-11.2780;-0.5734;-4.8718;
596637355468714;-14.4209;0.2913;-2.4308;
596637365570694;-9.6610;-1.0813;-1.1587;
596637375675589;-8.0536;0.6601;-8.5059;
596637385780381;-10.8299;0.7513;-5.6408;
596637395889496;-10.8443;-0.2453;5.3067;
596637405994339;-13.3717;-0.4202;3.7735;
596637416099131;-9.0718;-2.9976;-1.3313;
596637426204027;-7.7064;-2.1808;-5.9210;
596637436308923;-6.5109;-2.4156;-4.7833;
596637446413714;-5.3252;-3.0048;-4.5317;
596637456521423;-9.3855;-2.0659;-11.4523;
596637466626214;-15.4005;-1.8072;-5.7341;
596637476731058;-6.8943;-2.4395;4.6768;
596637486833975;-8.3435;-0.4226;-1.9038;
596637496938767;-10.4779;-0.6311;-2.9195;
596637507043610;-5.9934;-3.3787;1.6848;
596637517161214;-8.3818;-2.0731;-4.3687;
596637527266006;-9.5124;-1.5221;-11.2343;
596637537370798;-11.4601;-0.2142;-9.1884;
596637547457569;-11.1269;1.9633;-1.1707;
596637557562412;-5.9504;2.5047;3.3832;
596637567667308;-7.1216;-0.1519;-1.0941;
596637577770537;-11.0360;-1.1315;-4.7833;
596637587875381;-7.9531;-1.2443;-2.4858;
596637597980173;-6.2737;0.2052;-6.8049;
596637608096371;-12.7032;0.6793;-9.2988;
596637618201214;-12.3583;0.2770;-3.5279;
596637628306006;-6.3482;0.4660;2.3483;
596637638399079;-6.0054;0.9476;-1.7719;
596637648503923;-6.6858;1.8724;-8.1870;
596637658608767;-13.8245;1.4913;-8.7165;
596637668721371;-14.5047;0.6840;-0.6221;
596637678826214;-7.7064;0.0757;4.8873;
596637688931006;-7.2823;1.7213;0.3455;
596637699030017;-7.8739;0.7609;-4.6513;
596637709134860;-8.5519;0.1690;-6.1056;
596637719239704;-8.9495;0.1570;-6.1295;
596637729348454;-6.0559;-0.3437;-5.6504;
596637739453246;-7.6657;0.4110;-6.0742;
596637749558142;-13.2709;-0.6598;-2.9243;
596637759662829;-10.3196;-1.3137;0.9182;
596637769767673;-5.8977;-1.7928;-1.2401;
596637779872464;-8.7652;-1.1749;-5.9450;
596637789994339;-8.0632;-1.1462;-5.6456;
596637800099131;-8.8155;-1.7378;-2.4906;
596637810204027;-11.9919;-1.5030;-1.1803;
596637820299600;-12.5189;-2.4275;-0.5073;
596637830404444;-9.2874;-3.5151;-0.0712;
596637840509287;-5.6366;-3.9416;-2.1338;
596637850598819;-9.5366;-2.9426;-6.4792;
596637860703662;-7.3998;-1.0502;-4.4189;
596637870808558;-9.6299;-0.6909;-4.4405;
596637880921006;-8.3985;-1.7354;-6.1678;
596637891025850;-7.9723;-0.5782;-4.8455;
596637901130694;-9.1986;0.4253;-1.1922;
596637911259600;-9.6873;-1.0310;-3.2931;
596637921364444;-12.0972;-1.8263;-6.7953;
596637931469235;-9.0215;0.0781;-3.4442;
596637941535537;-5.2244;1.4650;-3.5375;
596637951640433;-12.4588;1.6472;-5.9450;
596637961745225;-12.3200;-0.0583;-3.2836;
596637971917204;-7.9050;-0.4729;1.1384;
596637982022048;-5.3779;-0.9353;-0.7469;
596637992126839;-7.3851;-1.4695;-8.6662;
596638002175798;-9.3832;-1.4073;-9.5958;
596638012280642;-11.2516;-0.6479;-4.7231;
596638022385485;-11.6997;0.0781;1.0211;
596638032528246;-11.7882;-0.3218;3.4837;
596638042633089;-6.9709;-0.3218;0.7863;
596638052737881;-4.4509;-0.1591;-7.6313;
596638062785329;-6.9900;-0.1328;-11.4547;
596638072890121;-6.4176;0.9117;-8.4338;
596638082994964;-12.4732;0.5094;-6.5557;
596638093136214;-17.4727;3.1756;-0.6580;
596638103241058;-8.9782;2.2172;5.0599;
596638113345902;-2.8938;0.1905;2.3004;
596638123440589;-3.1597;-0.3676;-6.6900;
596638133545433;-8.7003;-1.4408;-9.4998;
596638143650277;-12.2913;-0.6933;-4.9938;
596638153739652;-11.2564;0.1642;-2.0234;
596638163844496;-10.7414;3.0126;-6.6326;
596638173949339;-11.4458;2.3563;-2.3252;
596638184080381;-5.6701;1.8915;3.2010;
596638194185225;-11.2014;1.1273;-4.1483;
596638204290069;-15.4558;-0.2094;-7.7536;
596638214362360;-9.0024;0.8901;-2.4188;
596638224467204;-3.6003;2.8161;0.4822;
596638234572048;-6.8079;0.6912;-3.2812;
596638244675850;-11.3593;-0.6670;-7.1043;
596638254780642;-9.3951;-0.4490;-5.5137;
596638264885537;-6.7313;0.4516;-3.6838;
596638274994548;-10.7127;1.6400;-8.7476;
596638285099444;-11.0982;2.6557;-5.3773;
596638295204235;-5.8092;1.6472;1.3445;
596638305322621;-3.9861;-0.2572;1.1674;
596638315427308;-5.7730;-2.0468;-5.3462;
596638325531944;-14.3130;-0.7819;-8.6207;
596638335625017;-14.5238;1.1512;-6.1558;
596638345729704;-8.8274;1.3693;1.3947;
596638355834339;-4.0579;-0.9066;3.2560;
596638365941579;-6.8632;-0.9712;-3.8058;
596638376046267;-7.4548;-1.4360;-8.3740;
596638386150902;-7.4118;-0.3843;-9.9981;
596638396254444;-8.6070;0.9260;-8.4529;
596638406359131;-15.1490;0.4181;-0.2868;
596638416463819;-8.9782;-2.2481;2.7338;
596638426566162;-8.1805;-1.7713;-3.6188;
596638436670850;-15.3694;0.2578;-6.4241;
596638446775537;-13.7524;-0.0464;0.1756;
596638456889287;-6.7672;-0.1711;1.5769;
596638466993975;-4.4797;-1.3519;-0.4834;
596638477098610;-6.1899;-2.1688;-6.6876;
596638487200850;-10.3678;-1.6609;-7.5835;
596638497305537;-11.4625;-2.1808;-2.8451;
596638507410173;-10.5999;-2.3031;0.0918;
596638517512152;-7.9819;-2.1281;-3.0918;
596638527616839;-9.7998;-0.7412;-3.4490;
596638537721475;-7.6729;-1.2562;-1.6475;
596638547823454;-6.3721;-2.3055;-2.8765;
596638557928142;-7.0666;-0.9736;-8.1105;
596638568032777;-10.7773;-0.2453;-8.6112;
596638578143454;-10.1306;-0.2572;-3.7436;
596638588248142;-9.5868;0.3392;-0.1238;
596638598352829;-17.0321;-1.1773;2.4679;
596638608451006;-14.8831;-1.1581;5.4239;
596638618555694;9.0120;-0.8755;-2.5648;
596638628660381;-3.6628;-1.9965;-18.7035;
596638638763506;-18.1723;-1.9869;-11.6605;
596638648868194;-11.1607;-0.2596;4.9475;
596638658972881;-13.3884;0.2889;2.6477;
596638669071631;-14.9360;-0.7388;-4.0430;
596638679176319;-3.7609;0.0374;-1.9158;
596638689281006;-5.6270;1.8365;-6.9775;
596638699390173;-11.5008;2.4473;-6.3209;
596638709494860;-8.8537;0.1068;0.5659;
596638719599548;-6.2569;-1.2562;-2.6010;
596638729706371;-7.8045;-0.3075;-9.1167;
596638739811058;-9.9509;0.1092;-8.3022;
596638749915746;-9.1244;1.3597;-3.1998;
596638760019808;-1.4683;1.1776;-5.5208;
596638770124496;-4.1441;2.0542;-10.1276;
596638780229183;-7.3851;0.8734;-5.0731;
596638790329704;-9.2489;-2.0037;-1.6786;
596638800434392;-30.1304;1.1656;-2.6177;
596638810539027;-17.5301;-0.3123;10.1264;
596638820655433;1.5021;-0.5351;10.3828;
596638830760121;-2.5343;2.2771;-9.5623;
596638840864756;-13.8075;0.6410;-15.7379;
596638850970329;-12.9595;-1.5796;-2.3566;
596638861075017;-12.7415;0.5907;2.3004;
596638871179704;-7.1626;0.7848;1.2607;
596638881286423;-3.8590;-1.4288;-5.3533;
596638891391110;-10.4587;-0.7531;-10.6642;
596638901495798;-12.3751;1.4004;-6.2587;
596638911603506;-11.2325;-2.3533;1.9504;
596638921708142;-6.1493;-2.6384;0.3239;
596638931812829;-8.3004;-2.7799;-4.3950;
596638941901058;-11.6324;-3.1247;-3.5136;
596638952005746;-3.2794;-3.1463;-1.0726;
596638962110381;-3.8949;-1.2873;-6.4170;
596638972215589;-9.0838;-1.9606;-9.4232;
596638982320277;-21.6530;-2.8493;1.0810;
596638992424964;-17.9782;-3.8841;12.0667;
596639002535329;4.3502;-4.0469;8.5549;
596639012640017;9.7642;-0.2524;-17.2828;
596639022744652;-16.9122;2.1096;-31.1145;
596639032839652;-25.7205;0.0446;-13.1818;
596639042944339;-11.7763;0.4950;15.2695;
596639053048975;-1.9642;2.3010;9.9538;
596639063172829;-7.9531;0.1881;-3.9544;
596639073277517;-13.1848;0.1020;-8.3668;
596639083382152;-11.3928;1.0842;-7.9908;
596639093495537;-9.4262;1.8820;-1.8703;
596639103600225;-2.5534;-0.6502;5.2732;
596639113704860;-3.1669;-1.7091;-6.5151;
596639123814912;-18.2560;-1.4408;-17.3381;
596639133919600;-14.5884;0.7223;-3.5925;
596639144024235;-2.9441;0.2913;10.1815;
596639154102256;-5.4999;-1.3137;-4.3663;
596639164206944;-12.9260;-1.8191;-11.4811;
596639174311579;-7.8117;1.1847;-1.2305;
596639184431006;-6.5874;1.6184;1.9313;
596639194535694;-7.5099;-0.1017;-2.8164;
596639204640381;1.4638;0.3176;-12.1373;
596639214740121;-19.0968;2.3539;-19.8317;
596639224844808;-29.7353;2.4712;5.2181;
596639234949444;-2.8842;-1.2156;25.1246;
596639245063246;3.8856;1.0460;2.4272;
596639255167933;-5.7778;1.6735;-29.6052;
596639265272569;-19.1112;-0.1519;-19.3167;
596639275365642;-8.4634;0.8231;10.5482;
596639285470329;-4.8437;1.5224;14.3641;
596639295574964;-12.3105;1.4841;-11.3109;
596639305693767;-7.1459;-1.6561;-12.7914;
596639315798506;9.2133;-2.3103;-4.0621;
596639325903246;-32.9501;1.9178;-5.5065;
596639335995537;-31.0217;-0.5183;10.5096;
596639346100277;12.2985;0.7152;7.0795;
596639356205017;4.5371;1.5057;-13.3807;
596639366299287;-22.8984;1.0340;-14.6910;
596639376404027;-10.9881;-3.5103;3.1196;
596639386508767;-4.0220;-1.1243;1.0666;
596639396646371;-16.6630;1.8796;-3.9425;
596639406751110;-12.4421;-1.1844;1.1913;
596639416855850;-4.1632;0.0087;-0.7612;
596639426932204;-1.5236;0.9691;-0.6413;
596639437036944;3.3730;-1.5628;-10.5203;
596639447141683;-13.9490;-1.8287;-26.7404;
596639457248558;-15.1875;-0.6526;-10.4749;
596639467353298;-4.5347;-0.3314;5.9533;
596639477458037;-12.7295;1.8532;1.0068;
596639487553142;-15.6425;-2.0252;5.6755;
596639497657881;-10.5879;-2.0372;4.9379;
596639507762621;-3.4615;-2.3390;-3.1878;
596639517889652;-4.7432;1.7261;-10.6283;
596639527994392;-17.0321;0.6338;-3.6188;
596639538099131;-0.5055;-3.4265;14.7329;
596639548187204;3.9335;-3.2901;-23.7963;
596639558291944;-32.7033;5.1924;-44.0596;
596639568396683;-11.4410;2.3201;20.0773;
596639578499339;7.7566;2.6988;26.8543;
596639588604079;-16.3947;-0.9185;-15.9580;
596639598708819;-20.0528;-3.9751;-17.3139;
596639608827204;-0.6562;-2.7990;8.3225;
596639618931944;-7.4764;0.5333;1.9409;
596639629036683;-20.2971;-1.4408;-12.0177;
596639639137829;-11.4721;-0.8874;0.5874;
596639649242569;2.0291;-0.8680;9.0030;
596639659347308;-2.3548;-2.3151;-6.1391;
596639669458350;-10.9762;-2.9019;-11.7661;
596639679563089;-10.0947;-1.8168;-0.9718;
596639689667829;-5.6533;-2.5570;0.8871;
596639699770277;-12.2602;-0.4801;-15.2779;
596639709875017;-9.0072;0.6410;-13.5386;
596639719979756;-8.5089;1.9753;-0.1262;
596639730075954;-11.9967;0.5381;3.8070;
596639740180694;-6.7505;1.1824;1.4548;
596639750285433;-5.4616;-0.2644;-4.5963;
596639760394392;-12.8877;-2.0133;-8.0387;
596639770499131;-16.5936;-0.6957;1.8954;
596639780603871;-7.4907;1.6854;5.2373;
596639790708662;-7.8763;0.0135;-3.9350;
596639800813402;-6.6667;0.2267;-10.4486;
596639810918142;-7.1192;-0.0802;-8.1727;
596639821025642;-11.2493;-0.3796;-3.1325;
596639831130381;-7.2272;2.1144;-2.7829;
596639841235121;-11.7021;4.1695;-9.6365;
596639851328350;-12.7801;1.8221;-4.5197;
596639861433089;-6.2067;1.6878;3.6084;
596639871537829;-0.6227;1.1417;0.7672;
596639881646267;-0.4600;-1.7809;-7.2266;
596639891751006;-7.5123;-2.6169;-10.2042;
596639901855746;-12.1427;0.1235;-7.9813;
596639911948819;-20.0767;-0.9592;-3.7172;
596639922053610;-38.1051;3.3048;6.3583;
596639932158350;-4.2568;7.2718;15.3583;
596639942287829;12.7777;7.7079;0.9852;
596639952392569;-10.1091;-2.0970;-17.1655;
596639962497360;-17.5134;-3.2061;-10.4845;
596639972597569;-9.4813;1.0507;4.9499;
596639982702308;-8.9160;3.6497;-2.7446;
596639992807048;-7.9146;1.7189;-11.6462;
596640002891162;-4.7312;0.0398;-5.6839;
596640012995902;-7.6295;-0.0392;-3.1110;
596640023100642;-9.7807;0.3559;-1.5326;
596640033229704;-9.6299;-1.5820;-3.3960;
596640043334444;-2.9824;-1.7617;-4.3496;
596640053439183;-4.8652;-1.0597;-7.9932;
596640063545329;-14.8543;-0.0200;-7.2266;
596640073650069;-9.4908;-0.5973;-0.3658;
596640083754808;-10.2191;-0.1735;2.0345;
596640093845433;-11.8648;-3.3356;7.5105;
596640103950173;-8.5256;-2.2648;4.6214;
596640114054912;-6.0389;-0.9712;-7.6890;
596640124158975;-1.7462;-2.7775;-18.9742;
596640134263714;-10.2407;3.2880;-26.7380;
596640144368454;-25.9840;5.1446;-5.2143;
596640154478975;-10.7486;6.2800;15.0709;
596640164583714;0.0431;3.3072;2.6022;
596640174688454;-7.6223;-1.1267;-6.2563;
596640184794600;-12.6482;-3.7666;-4.3615;
596640194899339;-13.9442;-3.3906;0.3000;
596640205004079;-8.9901;-3.1080;3.2512;
596640215107933;-5.7395;-3.5342;-0.1935;
596640225212673;-7.2033;-4.0878;-5.2887;
596640235317412;-5.7900;-3.2563;-5.4754;
596640245413142;-16.2751;-1.3376;-8.5681;
596640255517881;-15.7265;-1.0693;-0.3251;
596640265622621;1.2003;-1.1797;3.9676;
596640275731683;-3.0422;-0.0464;-10.2305;
596640285836423;-10.7151;0.9882;-9.9431;
596640295941162;-7.4333;-0.4561;-0.4519;
596640306072933;-13.0268;-1.2897;-8.2950;
596640316177777;-18.4765;1.6783;-4.9723;
596640326282569;-5.2220;0.2913;4.4396;
596640336371579;0.0885;0.3416;1.5242;
596640346476423;-10.3125;0.1403;-5.9904;
596640356581214;-11.6492;-1.3783;-7.6938;
596640366672204;-14.2196;-0.6191;-1.3600;
596640376777048;-13.3334;-1.9053;2.4248;
596640386881892;-4.2066;0.2291;-3.0368;
596640397005589;-5.6749;0.7128;-5.8971;
596640407110485;-10.0298;-1.3137;-4.7303;
596640417215277;-14.2508;-1.0549;-2.2558;
596640427298506;-10.0298;0.1857;-2.2223;
596640437403350;-3.8183;-1.9774;-3.2477;
596640447508194;-2.9225;-0.3413;-5.0276;
596640457615954;-15.6377;1.4171;-8.5131;
596640467720850;-14.1024;1.0723;-4.2610;
596640477825642;-8.0752;2.1646;-0.4496;
596640487925798;-0.7044;1.4530;-2.5720;
596640498030642;-11.6516;-0.3290;-3.6236;
596640508135485;-8.1230;-2.2552;-1.7575;
596640518272569;-9.9174;0.0733;-6.1199;
596640528377412;-21.1810;-0.2692;-7.0253;
596640538482204;-11.1006;-0.1926;4.8873;
596640548563871;-1.1378;1.7261;7.1297;
596640558668714;-5.6629;-0.7986;-6.9440;
596640568773506;-9.3449;-2.5068;-8.9417;
596640578871787;-8.6668;-1.6923;-2.7254;
596640588976631;-10.7055;1.0316;-7.0110;
596640599081423;-8.5232;1.4411;-6.1343;
596640609194756;-5.7227;0.0996;-4.2730;
596640619299548;-6.3984;-0.9520;-4.3807;
596640629404392;-20.7257;0.7080;-6.5294;
596640639506267;-21.7965;0.6123;2.5089;
596640649611110;-2.1894;0.7920;12.4741;
596640659715902;2.4242;1.1608;-1.9229;
596640669822100;-11.8098;-0.7819;-18.1884;
596640679926944;-12.2049;-2.5666;-8.3764;
596640690031735;-9.1436;-1.3113;8.0710;
596640700143246;-6.1229;-2.2217;0.5659;
596640710248037;-8.9136;-1.2371;-14.8896;
596640720352881;-10.9451;0.2650;-3.5853;
596640730450017;-4.5538;-2.5618;-0.5432;
596640740554808;-17.3507;1.1154;-11.7206;
596640750659652;-10.1043;0.6888;-1.1994;
596640760761787;-8.2358;2.2101;1.4237;
596640770866631;-5.0904;1.6519;0.1062;
596640780971423;-2.0336;-2.0468;-2.5098;
596640791068819;-14.7515;-1.0693;-9.4472;
596640801173714;-19.2622;-2.0755;0.3239;
596640811278506;-13.9011;0.0206;7.3190;
596640821381110;-0.4433;0.1881;0.2593;
596640831486006;1.0899;-0.7196;-12.3649;
596640841590798;-11.3210;-0.3461;-22.4405;
596640851695329;-17.0704;2.5502;-7.1477;
596640861800173;-11.6707;1.3502;8.6964;
596640871904964;-3.4089;-0.3147;-2.4500;
596640882021162;-6.0703;0.2435;-4.6202;
596640892126006;-10.5353;-1.1390;-0.6341;
596640902230798;-11.1365;-0.2596;1.5027;
596640912328298;-9.1388;-0.4346;-2.7302;
596640922433194;-3.9622;-0.6550;-6.0287;
596640932537933;-6.6188;-0.6383;-7.0612;
596640942632933;-11.4553;-1.2156;-8.5944;
596640952737777;-16.8021;1.8987;-4.0956;
596640962842569;-8.6764;1.5467;-1.1252;
596640972944235;-7.5386;0.9308;0.7217;
596640983049079;-6.9972;0.7152;0.2498;
596640993153871;-7.3974;-0.3772;-2.9267;
596641003291944;-6.2163;0.0230;-8.2974;
596641013396787;-8.7147;0.4445;-12.6763;
596641023501579;-14.4329;0.2722;-3.1950;
596641033598923;-6.9470;-0.7268;1.4405;
596641043703819;3.2889;-0.1687;-6.1176;
596641053808610;-4.4581;-1.6274;-9.3371;
596641063905017;-37.3241;-2.8229;2.0536;
596641074009808;-23.4497;-1.8168;10.7181;
596641084114652;7.1076;4.9600;7.1441;
596641094215589;1.4300;-0.0897;-4.7351;
596641104320433;-11.7021;-2.1520;-13.2488;
596641114425225;-13.7812;-1.4169;-4.3256;
596641124532725;-7.1387;-0.8130;0.9470;
596641134637517;5.2917;2.4808;-7.3104;
596641144742360;-1.2215;0.3894;-14.0584;
596641154846006;-29.0142;0.8806;-10.5586;
596641164950850;-21.4732;-0.5231;0.5755;
596641175055642;-1.1689;0.2818;4.8778;
596641185164496;-1.7677;0.4588;-1.0965;
596641195269339;-12.4277;-1.2443;-2.5337;
596641205374131;-20.6946;-1.3184;2.4081;
596641215470121;-5.0880;1.1967;5.1508;
596641225575017;2.9608;-0.5207;-4.2203;
596641235679808;-8.5543;-2.5044;-12.3362;
596641245773298;-14.4568;-3.5079;-2.6273;
596641255878194;-9.4741;-4.1620;10.1456;
596641265982933;-6.7816;-1.8526;-11.9097;
596641276164808;-19.4803;1.4961;-30.9180;
596641286269600;-10.7342;-2.2816;5.0695;
596641296374444;-1.8852;0.6625;13.2933;
596641306433037;-9.2898;3.6592;-8.1559;
596641316537725;-13.6567;1.5778;-7.5212;
596641326642412;-11.8863;0.2818;4.0585;
596641336717204;-7.8763;0.9141;13.4659;
596641346821892;3.2411;0.4854;5.2325;
596641356926579;-10.4324;-2.8086;-25.3244;
596641367037412;-21.8037;-5.5513;-22.0140;
596641377142100;-4.4028;-4.5667;5.1556;
596641387246787;-7.5625;2.5669;-0.6269;
596641397367204;-10.0828;2.5932;-8.6160;
596641407471892;-8.2884;1.4411;-6.8336;
596641417576579;-14.5932;1.0220;-0.8091;
596641427668923;-6.5492;0.9045;8.0806;
596641437773610;-1.4515;-1.2371;0.2234;
596641447878298;-9.3951;-1.9510;-6.6733;
596641457984183;-5.6366;-3.6781;-4.9077;
596641468088871;-10.1904;-3.0218;-12.2067;
596641478193558;-13.7022;0.8758;-8.6495;
596641488299912;-5.8355;3.1540;-2.3877;
596641498404600;-8.2119;2.3345;-6.4600;
596641508509287;-9.3760;2.0590;-2.4069;
596641518607517;-9.4693;-0.7316;1.1698;
596641528712204;-9.9269;0.4277;-2.4117;
596641538816892;-10.0346;0.4588;-1.9229;
596641548934600;-8.9399;0.1187;0.8991;
596641559039287;-10.9738;0.1379;-3.5686;
596641569143975;-13.0531;0.0613;-5.4897;
596641579261579;-11.4458;1.0077;-0.6126;
596641589366267;-8.4153;1.5969;0.8533;
596641599470954;-10.9905;0.4950;-2.7972;
596641609559392;-8.0225;1.5224;-3.4202;
596641619664079;-8.5352;1.2302;-2.3853;
596641629768767;-11.6133;0.9069;-4.3591;
596641639876579;-7.2153;1.5778;-2.3830;
596641649981267;-5.7972;0.5716;-3.3362;
596641660085954;-9.6491;-0.1663;-4.9244;
596641670189496;-8.4921;0.8399;-4.5628;
596641680294183;-4.2544;0.6458;-3.8130;
596641690398871;-9.6060;0.1092;-5.0396;
596641700493246;-14.0351;-0.3748;-3.9135;
596641710597933;-4.0795;0.7466;-1.3241;
596641720702621;-3.9766;0.0685;-6.2731;
596641730816475;-8.5591;-0.9927;-7.5141;
596641740921162;-10.1450;0.6027;-5.3103;
596641751025850;-16.6750;0.6721;-2.7637;
596641761136475;-14.3851;2.3874;-2.4715;
596641771241162;-2.8460;1.5514;-1.3576;
596641781345850;-10.2574;-0.1567;-3.4681;
596641791440954;-9.4837;-0.8106;-4.5652;
596641801545642;-12.0733;0.2698;-3.9377;
596641811650277;-12.1187;0.1379;-0.7540;
596641821768767;-4.3430;0.1379;-2.1649;
596641831873454;-6.8366;-0.2764;-8.3477;
596641841978142;-11.7093;-1.4527;-4.1602;
596641852056683;-10.3774;1.0292;-1.1587;
596641862161423;-9.2393;0.6410;-5.6216;
596641872266058;-8.7099;-1.3376;-1.7360;
596641882397829;-3.4831;0.5859;-0.2103;
596641892502517;-5.5289;-0.3820;-8.7885;
596641902607204;-17.7075;-1.1004;-9.3658;
596641912711162;-14.1215;1.5081;2.9064;
596641922815902;-13.8915;2.2029;9.2904;
596641932920589;-8.3028;2.7873;1.9026;
596641943009964;-3.8447;-0.8058;-6.3233;
596641953114652;-8.1852;-2.9378;-11.5696;
596641963219339;-6.3048;-1.7641;-9.0111;
596641973322829;-4.8126;1.4028;-4.2156;
596641983427517;-7.5410;1.8051;-2.2463;
596641993532204;-13.7716;1.6472;-4.4743;
596642003657204;-13.4913;1.0986;-4.7088;
596642013761892;-8.1398;0.0015;-1.6475;
596642023866579;-6.7887;-0.7196;-0.8641;
596642033955329;-8.7796;-0.3147;-0.6293;
596642044060017;-10.9522;-0.4992;-2.5935;
596642054164704;-9.3185;0.1259;-5.4371;
596642064272829;-8.3195;-1.0095;-2.6441;
596642074377517;-2.7165;-0.2261;-2.4930;
596642084482204;0.9583;-1.0573;-8.0315;
596642094589496;-11.7763;-0.6957;-12.0559;
596642104694183;-19.9400;1.2784;-4.6633;
596642114798871;-8.4969;0.5285;-1.6211;
596642124899183;-8.9279;2.8089;-6.6661;
596642135003871;-14.8711;2.6342;-0.1406;
596642145108558;-10.2574;1.1824;7.9992;
596642155223037;-7.0546;1.1465;4.4204;
596642165327725;-10.9475;-1.2419;-2.4141;
596642175432412;-8.0560;-1.6322;-2.3877;
596642185530017;-5.2220;-3.0024;-3.8393;
596642195634704;-11.6133;-2.3294;-10.2520;
596642205739392;-13.9035;-1.0884;-5.3151;
596642215846371;-4.9585;0.7490;1.8045;
596642225951058;1.0660;0.8662;-5.0994;
596642236055746;-12.6075;0.6769;-12.4008;
596642246155850;-22.1178;0.5931;-2.8669;
596642256260537;-10.7510;-0.8680;7.4698;
596642266365225;-3.4567;0.6697;4.2359;
596642276481892;-5.8522;0.1666;1.9555;
596642286586579;-3.7968;-2.1664;-2.7876;
596642296691267;-7.6295;-2.4203;-16.1163;
596642306810642;-17.9734;-1.5963;-13.1722;
596642316915433;-10.2096;0.0781;5.7141;
596642327020225;-10.5114;2.8905;2.2837;
596642337115173;-14.3707;2.3106;-7.2075;
596642347219912;-3.5979;0.4421;-2.8837;
596642357324756;-5.9839;0.3535;-2.0091;
596642367414183;-13.4530;-0.6191;-5.8445;
596642377518923;-8.4583;-1.7091;-2.7996;
596642387623767;-4.5586;-1.2179;-3.2548;
596642397743350;-12.4349;-1.0286;-7.5500;
596642407848194;-20.0001;-0.8177;-2.1242;
596642417952985;-8.7051;-0.2333;10.5290;
596642428047204;2.7236;-0.2142;1.6128;
596642438151944;-9.9604;-0.5518;-20.9169;
596642448256787;-17.1278;-1.5772;-15.9437;
596642458353610;-5.8570;0.1929;7.7955;
596642468458402;-4.4797;0.9380;4.9522;
596642478563246;-17.0608;-0.2166;-7.3774;
596642488667881;-12.1044;-1.4312;-1.3026;
596642498772673;-1.7991;0.2028;-1.4031;
596642508877517;-4.3478;-0.0993;-10.0436;
596642518989079;-6.4582;-1.2371;-11.5170;
596642529093871;-14.2173;0.2028;-7.4566;
596642539198662;-18.1364;0.2794;2.7915;
596642549301683;-8.6118;-0.0535;5.0815;
596642559406475;-6.1062;-0.0488;-1.8296;
596642569511267;-9.7711;0.0206;-4.1650;
596642579637985;-10.6552;-1.3783;-1.2329;
596642589742829;-11.2277;-0.0129;-3.8752;
596642599847621;-8.5998;0.9763;-7.0373;
596642609938975;-11.1464;0.9523;-5.3390;
596642620043767;-8.6022;-0.1591;-1.4725;
596642630148558;-6.9182;-0.6670;-1.8320;
596642640248662;-6.8318;-0.2931;-4.3639;
596642650353454;-7.4070;-1.0693;-5.1425;
596642660458246;-8.0489;-0.5877;-4.9125;
596642670561475;-8.3985;-0.1113;-8.5705;
596642680666267;-11.2277;-0.1184;-6.4959;
596642690771058;-10.3196;-0.9520;1.2846;
596642700875850;-12.3942;-0.4059;3.0646;
596642710980642;-13.5634;0.3894;2.7867;
596642721085433;-3.3009;0.0230;-0.5312;
596642731184027;-5.6629;-0.2237;-11.1287;
596642741288819;-9.6993;-0.4490;-12.4965;
596642751393662;-9.4143;0.3583;-4.6059;
596642761497204;-8.2358;1.2015;0.9517;
596642771601996;-9.8982;2.2651;-3.9087;
596642781706787;-10.3268;1.8915;-6.3523;
596642791828350;-12.1881;-0.6311;-1.1133;
596642801933142;-7.4261;0.5620;0.6571;
596642812037933;-6.0413;0.7657;-3.3362;
596642822134600;-9.3999;0.6194;-5.1999;
596642832239392;-9.5195;-0.6790;-0.2940;
596642842344183;-9.4908;-0.9999;-0.3969;
596642852473506;-10.5975;-0.4920;-4.1554;
596642862578298;-7.5745;0.0900;-4.0238;
596642872683089;-8.5567;-0.3867;-3.0248;
596642882742933;-11.0839;-0.0105;-3.7795;
596642892847673;-10.1498;1.3980;-6.0817;
596642902952517;-12.6482;1.8197;-5.2597;
596642913061839;-7.5434;0.9523;-0.4929;
596642923166631;-9.0598;0.7128;0.3482;
596642933271423;-10.0370;0.2411;-1.4677;
596642943376944;-9.0526;-0.6048;-2.2343;
596642953481735;-7.5817;-0.7986;-1.8344;
596642963586579;-5.9743;-0.6814;-2.4165;
596642973695277;-6.0317;-0.8584;-6.9224;
596642983800069;-11.5750;-1.2610;-10.1420;
596642993904912;-13.6639;-1.2730;-2.8956;
596643004004339;-8.8250;-0.5327;2.1948;
596643014109131;-8.1613;-0.3820;-1.0343;
596643024213923;-8.9830;-2.2959;-4.4429;
596643034324652;-8.3507;-1.8957;-5.3198;
596643044429496;-9.2106;-0.9497;-4.0310;
596643054534287;-8.9064;-1.3041;-1.5156;
596643064635694;-9.5964;-1.9510;-4.4692;
596643074740485;-12.9188;-0.5542;-6.3257;
596643084845329;-10.1019;-1.4719;-0.7349;
596643094954444;-10.7151;-0.6957;-0.6245;
596643105059235;-6.4199;-0.7484;-2.3877;
596643115164079;-4.0866;-1.6971;-4.8909;
596643125270381;-10.8036;-1.5102;-6.5940;
596643135375173;-12.4397;-1.5341;-4.0454;
596643145480017;-9.4262;-1.8096;-1.4605;
596643155582621;-7.2464;-1.7091;-0.1501;
596643165687412;-6.5061;-1.4121;-2.9459;
596643175792256;-8.2932;-1.1219;-6.8842;
596643185899600;-10.9331;-0.6790;-6.7810;
596643196004392;-10.6289;-1.0956;-3.2213;
596643206109183;-8.1589;-0.1256;-1.6546;
596643216212308;-9.5028;0.1762;-4.3113;
596643226317100;-9.1173;0.2602;-3.3673;
596643236421944;-7.8787;-0.4394;-0.7923;
596643246533089;-9.8456;0.3416;-2.2702;
596643256637881;-10.4635;0.2913;-4.1148;
596643266742673;-8.0441;0.2387;-3.7842;
596643276838350;-8.5711;-0.2477;-3.7819;
596643286943142;-10.1186;0.0087;-3.3290;
596643297047933;-11.7571;0.3296;-2.7063;
596643307164912;-10.2096;0.5764;-0.1884;
596643317269548;-6.2163;0.4854;-0.3395;
596643327374183;-7.8787;0.3799;-4.9914;
596643337466475;-9.3808;-0.7149;-5.4299;
596643347571110;-7.6487;0.4229;-4.1578;
596643357675746;-9.9317;0.7585;-4.3591;
596643367782204;-9.7232;0.6386;-3.2453;
596643377886839;-9.1675;1.0172;-2.5241;
596643387991475;-10.2694;1.2541;-2.9004;
596643398113142;-9.6036;1.1584;-2.4811;
596643408217777;-10.1521;1.4506;-1.4198;
596643418322412;-9.2154;1.9848;-1.7695;
596643428419808;-7.7758;0.7848;-2.2487;
596643438524444;-8.1159;0.0709;-3.1519;
596643448629079;-8.4512;0.2650;-5.0300;
596643458729183;-11.7715;0.9404;-5.8301;
596643468833819;-10.4539;0.5524;-1.5227;
596643478938454;-6.2928;1.4076;-0.5456;
596643489041892;-9.3114;0.1905;-5.9689;
596643499146527;-10.9187;-0.4107;-5.6671;
596643509251162;-8.4488;0.1283;-1.7838;
596643519363610;-7.9986;0.0446;-2.1625;
596643529468246;-7.3588;-0.5231;-4.5820;
596643539572881;-9.3257;-1.2251;-4.4070;
596643549647360;-8.2741;-0.3266;-2.5863;
596643559751944;-10.0370;-0.7914;-3.3793;
596643569856579;-10.9834;-0.7484;-4.0573;
596643579961214;-8.7266;-0.5925;-2.2247;
596643590095329;-6.8943;-0.5518;-3.5686;
596643600199964;-8.4706;-0.3867;-4.5748;
596643610304600;-12.6936;-1.6155;-3.7675;
596643620401475;-11.1126;-0.9473;-2.3303;
596643630506110;-7.3469;-0.2931;-1.4462;
596643640610746;-7.0786;-1.0430;-2.9794;
596643650714808;-8.9949;-1.3017;-5.9904;
596643660819444;-9.7041;-1.5748;-4.3017;
596643670924079;-10.9857;-1.5532;-2.0426;
596643681033871;-9.8336;-1.3256;-2.3399;
596643691138506;-8.2334;-1.4145;-2.8187;
596643701243142;-7.9170;-0.4944;-3.7220;
596643711354079;-8.9542;-0.6694;-2.9219;
596643721458714;-10.4970;-0.7555;-1.5179;
596643731563350;-10.2670;-0.8874;-1.0008;
596643741653767;-9.1149;-1.3854;-2.7326;
596643751758402;-7.4859;-0.9616;-4.6801;
596643761863037;-8.4658;0.5429;-3.8680;
596643771971058;-9.8480;-0.3700;-4.3113;
596643782075694;-11.8313;-0.3891;-3.5088;
596643792180329;-6.5659;0.8710;-1.9014;
596643802329912;-5.4257;0.8638;-6.3619;
596643812434548;-10.2718;-0.8321;-5.1185;
596643822539183;-12.0087;-0.7005;-1.4916;
596643832595642;-9.3114;-0.6814;0.0006;
596643842700225;-5.9623;0.2219;-3.8847;
596643852804912;-4.7647;0.1187;-6.4170;
596643862941787;-8.7266;-0.6502;-5.2143;
596643873046423;-10.9451;-0.0802;-3.3290;
596643883151006;-11.4290;-0.0488;-2.1721;
596643893246996;-6.0054;0.0326;-1.2787;
596643903351631;-4.8389;0.4516;-3.8201;
596643913456267;-10.4109;-0.7172;-6.0096;
596643923545433;-11.3569;0.0302;-3.4848;
596643933650069;-9.6395;-0.2548;-1.2568;
596643943754704;-4.3956;1.8891;-3.3123;
596643953874183;-13.2135;1.2832;-6.1845;
596643963978819;-13.4602;-0.6957;-1.1994;
596643974083454;-9.3975;0.6745;0.9541;
596643984170433;-7.8141;-0.0682;0.3529;
596643994275069;-5.4736;-0.9497;-2.3614;
596644004379704;-3.7274;-0.7292;-9.3849;
596644014488454;-9.6802;-0.2142;-9.6532;
596644024593089;-27.3972;-0.2046;1.5147;
596644034697725;-21.0203;-1.5126;13.5592;
596644044788871;-2.2923;2.0542;9.8103;
596644054893506;-2.7643;3.5444;-5.9210;
596644064998142;-5.4927;-2.5690;-13.6681;
596644075120537;-8.2837;-3.9655;-7.3582;
596644085225173;-14.6916;-2.7126;-1.3169;
596644095329808;-15.5444;0.3368;1.4309;
596644105428767;-8.1470;-0.4896;2.9638;
596644115533402;-9.4573;0.5812;-3.2381;
596644125638037;-6.8632;-0.3724;-5.3725;
596644135760537;-0.2300;-2.7488;-9.3180;
596644145865173;-9.1460;0.0637;-12.8417;
596644155969808;-13.1919;-0.2046;-2.9004;
596644166059496;-12.2889;0.2746;2.2956;
596644176164131;-8.5089;-0.5160;-1.7264;
596644186268767;-7.8476;-0.5997;0.7887;
596644196364496;-6.1780;-0.8656;-2.5839;
596644206469131;-10.5784;1.4554;-18.4352;
596644216573767;-17.3674;1.1704;-13.0860;
596644226690954;-7.7423;0.5716;8.4712;
596644236795589;-1.8182;1.9107;1.0164;
596644246900225;-7.7830;0.2794;-9.3873;
596644257007673;-7.1216;-2.1808;-3.8345;
596644267112308;-8.1350;-3.5198;-4.6777;
596644277216944;-13.1010;-1.0836;-8.5346;
596644287314600;-14.2627;-1.1267;-4.3735;
596644297419235;-20.8098;-1.5532;3.3544;
596644307523871;-12.2626;2.0976;10.5434;
596644317651267;1.2170;1.4602;5.2828;
596644327756110;-1.8565;-0.4825;-8.2376;
596644337860902;-12.5477;-1.4958;-17.6255;
596644347950954;-14.6773;-1.4743;-5.4299;
596644358055798;-6.4391;-0.0754;10.8404;
596644368160589;-1.0277;2.5741;-3.3529;
596644378265485;-12.8734;1.0460;-17.3525;
596644388370329;-13.8485;0.8542;-3.5925;
596644398475121;-11.5223;0.5668;3.2752;
596644408575277;-12.8303;2.0638;-2.7876;
596644418680121;-7.5242;1.3884;3.4262;
596644428784912;-2.8241;-0.2453;4.2814;
596644438895537;-5.8738;-2.3007;-5.0659;
596644449000329;-18.2297;-1.4503;-8.4867;
596644459105121;-17.6692;0.4926;-0.5886;
596644469202673;-0.9269;2.8089;-0.8474;
596644479307517;-3.9622;0.8255;-9.1884;
596644489412308;-10.2503;1.4171;-13.3663;
596644499513819;-11.7045;2.2029;-5.3270;
596644509618662;-15.8821;2.8304;2.1326;
596644519723506;-10.8781;-0.7101;5.4888;
596644529832256;0.9153;0.5644;-0.8641;
596644539937152;-6.6141;-1.8383;-7.8589;
596644550041892;-17.4320;-1.6226;-4.0717;
596644560148714;-11.0288;-0.4322;-0.0903;
596644570253610;-6.3769;1.1034;-5.5857;
596644580358350;-4.0436;-1.7761;-6.0024;
596644590464496;-1.5236;-2.0276;-4.5413;
596644600569339;-14.6749;-1.1581;-11.6294;
596644610674131;-17.7171;-0.5566;-2.8980;
596644620781371;-7.7160;2.1909;1.8643;
596644630886162;-10.9403;1.9442;-4.4333;
596644640991006;-6.5324;0.5883;-1.7503;
596644651093819;-5.6701;-0.2644;-1.9181;
596644661198714;-10.5808;-1.4097;-3.5925;
596644671303454;-10.7916;0.2674;-3.6021;
596644681398819;-9.4980;0.3535;-3.2046;
596644691503662;-6.9494;-0.6048;-2.6489;
596644701608506;-6.4798;0.4974;-7.3750;
596644711739392;-8.8011;-1.7976;-3.2883;
596644721844183;-5.9049;-1.8215;-3.0823;
596644731949027;-10.6098;0.7537;-9.5237;
596644742038037;-18.4502;0.5285;-5.0085;
596644752142881;-7.1913;0.6362;6.9787;
596644762247673;3.6317;1.9202;2.3913;
596644772343819;-7.2320;0.1618;-9.1502;
596644782448662;-15.1394;-2.9091;-8.8986;
596644792553454;-16.8165;0.4373;-4.3232;
596644802664027;-14.1191;3.8701;0.2785;
596644812768871;-5.7012;2.7706;1.5242;
596644822873662;-5.5528;1.1465;0.4487;
596644833017673;-8.5280;0.0757;-3.3218;
596644843122517;-11.6300;1.2087;-6.6470;
596644853227308;-8.4272;-0.3314;-1.5541;
596644863320589;-7.7207;1.3525;-3.6694;
596644873425433;-10.6576;0.1116;-3.4250;
596644883530225;-8.1685;-0.9209;-0.8450;
596644893609548;-6.6404;0.3057;-2.6369;
596644903714392;-8.9590;-0.6335;-3.9350;
596644913819183;-6.8608;-0.2907;-5.4347;
596644923947152;-10.5640;1.7142;-8.2496;
596644934051996;-15.6186;1.1225;0.4654;
596644944156787;-6.1062;1.1895;7.0412;
596644954225902;-3.6410;1.9513;-2.0955;
596644964330746;-8.8059;0.4325;-10.9469;
596644974435537;-13.6807;-2.3222;-5.7556;
596644984546527;-13.9274;0.0302;-1.3409;
596644994651371;-9.4502;2.7108;0.6380;
596645004756162;-6.1899;1.2230;-1.2643;
596645014858298;-8.3961;-1.1291;-3.5183;
596645024963142;-8.9853;-1.8503;-3.9063;
596645035067933;-12.4807;-3.5366;-1.6881;
596645045164756;-14.2220;-2.8277;-1.4749;
596645055269652;-4.1130;-1.4838;-1.5203;
596645065374392;-3.2626;-1.0956;-5.6551;
596645075493298;-10.3941;-2.3653;-7.7560;
596645085598194;-12.8471;-3.1056;-2.3614;
596645095702933;-9.8623;-0.5088;-0.5838;
596645105807881;-9.1388;0.1331;-1.7985;
596645115912777;-7.1794;-0.9688;-5.2911;
596645126017569;-8.1470;-0.4920;-6.2563;
596645136124808;-9.1508;0.0159;-2.7398;
596645146229600;-9.2178;-0.7149;-0.8545;
596645156334444;-9.6323;-0.5279;-4.6035;
596645166430277;-9.9580;0.0063;-6.8025;
596645176535121;-5.2798;-0.5997;-1.8942;
596645186639912;-7.6247;-0.7172;-4.4982;
596645196762673;-14.1359;-1.3328;-5.3749;
596645206867517;-11.4841;0.5213;-2.0979;
596645216972308;-13.1010;1.1728;-2.2128;
596645227071058;-8.3148;1.8580;1.6247;
596645237175850;-7.2870;1.2398;1.8452;
596645247280694;-10.4181;1.2159;-4.4046;
596645257384131;-12.7992;1.3190;-5.9139;
596645267488975;-5.7514;0.5453;-0.8569;
596645277593819;-2.4912;1.6089;-4.4189;
596645287695329;-6.8680;1.1824;-10.8365;
596645297800173;-13.6831;0.5166;-6.3281;
596645307905017;-11.0216;1.3693;1.6630;
596645318027256;-11.7930;1.9274;0.0700;
596645328132100;-7.8954;2.3034;-3.7484;
596645338236892;-10.2981;0.6673;-2.7829;
596645348325798;-7.7806;-0.3939;0.3625;
596645358430642;-6.2880;0.0517;-1.3241;
596645368535433;-11.6516;0.3176;-7.9693;
596645378650798;-13.0050;0.0757;-4.4719;
596645388755589;-10.7486;0.8542;-2.4284;
596645398860433;-10.3149;1.9059;-3.2620;
596645408955954;-8.4200;0.4469;-2.0644;
596645419060746;-7.4907;-0.0730;-1.8775;
596645429165589;-5.8259;-0.1615;-4.2682;
596645439265902;-9.3616;-0.7507;-5.9689;
596645449370746;-13.2494;-1.4192;-0.4738;
596645459475537;-8.8107;-3.2515;1.6534;
596645469585746;-4.2257;-2.6001;-4.1124;
596645479690537;-6.9781;-1.6250;-9.4998;
596645489795381;-17.2738;-2.3103;-8.1464;
596645499888819;-16.0666;-1.8168;0.9206;
596645509993714;-6.3215;-0.3338;2.4655;
596645520098454;-6.8656;-0.5447;-5.3533;
596645530207360;-9.2584;-0.4848;-4.1985;
596645540312152;-5.7754;-0.9927;-0.8402;
596645550416996;-7.2894;-1.9268;-7.6098;
596645560542204;-9.5100;-2.6312;-7.9908;
596645570647048;-7.5410;-2.7488;-3.2285;
596645580751787;-7.9699;-2.2409;-3.6308;
596645590836944;-15.0532;-1.5532;-3.5495;
596645600941839;-14.4975;-1.2275;3.1890;
596645611046579;-5.7730;-1.2132;4.5999;
596645621142360;-6.8198;-1.3831;-5.0946;
596645631247256;-11.1245;-1.0143;-11.7446;
596645641351996;-8.2765;-0.3413;-3.5758;
596645651463871;-4.6256;-0.1783;1.4019;
596645661568767;-9.0574;0.5261;-8.7718;
596645671673558;-15.6018;0.7633;-10.5682;
596645681819183;-11.0791;1.3119;-0.0688;
596645691924027;-6.0485;1.2039;3.2465;
596645702028819;-7.8882;-0.6215;-2.3109;
596645712098454;-4.6591;-1.5532;-3.6141;
596645722203246;-4.9059;0.3846;-6.0072;
596645732308037;-16.8715;0.3583;-4.9101;
596645742411996;-14.2196;-0.0559;3.0981;
596645752516787;-4.3095;0.1068;2.4296;
596645762621579;-3.7178;-0.1089;-9.4161;
596645772730173;-11.3617;0.6817;-15.4382;
596645782834964;-13.7572;0.7585;-3.2501;
596645792939808;-11.2540;1.2374;5.9680;
596645803064964;-13.3382;2.3393;-0.1741;
596645813169808;-7.6415;1.3860;-2.1984;
596645823274600;-3.1478;-0.2429;0.4463;
596645833355589;-5.1311;-0.8273;-3.9688;
596645843460433;-11.0001;-2.4900;-9.4041;
596645853565225;-14.7395;-1.3041;-5.0109;
596645863668402;-8.9112;-0.3820;2.1278;
596645873773246;-7.3516;-0.1926;-1.7097;
596645883878037;-11.1221;1.3119;-2.1505;
596645893985173;-8.1470;-1.4408;1.1770;
596645904090017;-9.8169;0.4373;-8.7404;
596645914194808;-14.3563;1.3406;-10.4510;
596645924298402;-8.8298;0.1690;1.9074;
596645934403298;-5.2893;0.3918;2.0680;
596645944508037;-6.7265;-0.4322;-6.7834;
596645954612933;-9.6443;0.2363;-8.1296;
596645964717777;-8.1015;0.5309;-4.2467;
596645974822517;-12.2411;-0.2261;-3.4131;
596645984926683;-12.8255;-1.9125;-1.3385;
596645995031475;-13.4961;-2.4538;3.6849;
596646005136319;-8.0991;-3.2539;3.9150;
596646015237569;-1.1713;-1.5078;-3.9135;
596646025342412;-8.6357;1.9872;-13.2416;
596646035447204;-14.7299;0.6840;-8.0267;
596646045578506;-9.3401;-2.1401;2.0082;
596646055683350;-6.8557;-1.3424;-2.4093;
596646065788194;-5.5289;1.8341;-9.5548;
596646075869704;-9.8743;0.6075;-6.7259;
596646085974496;-13.8099;-0.2285;-3.2620;
596646096079287;-12.3703;0.7920;-0.4642;
596646106187881;-4.8102;0.5548;0.7600;
596646116292777;-6.4223;0.2291;-1.6618;
596646126397569;-13.6424;-0.7651;-1.4797;
596646136496579;-9.9915;-1.3759;-1.6475;
596646146601423;-6.0703;0.7394;-4.5126;
596646156706214;-6.9613;1.6663;-7.2553;
596646166816787;-14.4473;1.1106;-9.1406;
596646176921631;-14.8208;1.0077;-1.3816;
596646187026371;-3.7872;0.5788;5.8193;
596646197137621;-4.2042;0.0254;-4.0382;
596646207242360;-11.7380;1.1225;-10.5778;
596646217347204;-9.2731;-0.0105;-3.2596;
596646227442256;-7.6777;-0.0607;0.7002;
596646237547100;-7.6753;-0.9568;-0.2629;
596646247651892;-9.7663;-0.5949;-7.2434;
596646257758454;-17.2355;0.1522;-6.3114;
596646267863298;-12.0111;1.1465;2.8202;
596646277968089;2.0195;-0.9281;3.8046;
596646288073610;-2.2780;0.8447;-8.9465;
596646298178506;-14.8472;2.4640;-16.1067;
596646308283298;-16.5529;0.1666;-2.2606;
596646318378558;-18.7472;-1.5341;10.7204;
596646328483194;-8.6309;-1.4647;6.8997;
596646338587777;-2.5175;0.2650;-8.2735;
596646348709704;-6.2617;3.0197;-11.9145;
596646358814339;-6.9278;-0.3365;-3.3242;
596646368918923;-7.2512;-1.9316;-2.9722;
596646379008871;-10.9953;-1.0980;-5.4156;
596646389113454;-12.1259;-0.8177;-3.1134;
596646399218089;-7.9122;-1.1940;1.6630;
596646409335537;-7.9866;-1.2873;-1.0726;
596646419440173;-7.8619;-1.0286;-7.4037;
596646429544756;-10.8299;0.1857;-8.4987;
596646439658246;-13.6567;-1.0334;-0.9790;
596646449762881;-8.7963;-0.6670;6.5764;
596646459867464;-6.7385;-0.8106;-0.3251;
596646469965017;-7.1602;0.5094;-9.2892;
596646480069652;-3.4878;-0.9209;-9.9885;
596646490174235;-12.6625;-0.3580;-11.0115;
596646500269756;-13.8123;0.6099;-4.5676;
596646510374392;-10.4611;0.5835;2.4105;
596646520478975;-14.0399;-0.0607;5.1870;
596646530590329;-7.6319;-2.5642;5.3163;
596646540694964;-5.7132;-0.7436;-2.2558;
596646550799548;-8.9375;-0.4107;-7.7058;
596646560920225;-10.8036;-0.6646;-6.3500;
596646571024860;-6.6404;-0.4202;-3.0799;
596646581129444;-7.8691;0.0829;-4.7880;
596646591219079;-10.8781;0.5524;-6.2563;
596646601323714;-10.5090;0.0230;-3.8632;
596646611428298;-7.6729;0.7753;-1.9684;
596646621532933;-7.6391;0.5764;-3.8584;
596646631637517;-9.5940;0.1522;-4.6370;
596646641742152;-10.3340;-0.6215;-0.0760;
596646651902933;-6.8510;-0.5877;0.7217;
596646662007517;-8.0321;-0.1184;-5.0611;
596646672112152;-11.2564;-0.1424;-6.1630;
596646682146058;-9.3712;-0.3003;-1.9612;
596646692250694;-9.8934;1.8748;-3.7077;
596646702355329;-9.9221;0.7561;-3.3099;
596646712493714;-8.1876;0.4711;-1.4246;
596646722598298;-8.8920;1.3502;-3.2955;
596646732702933;-9.9604;0.8901;-5.8011;
596646742794079;-9.6610;-0.6861;-0.8569;
596646752898714;-7.0379;0.8112;-1.1492;
596646763003298;-11.3043;-0.1902;-5.3222;
596646773105954;-12.0589;-0.4609;-2.8980;
596646783210589;-6.1756;0.1187;-0.1884;
596646793315173;-3.8255;-0.6933;-3.3529;
596646803439287;-7.6753;-0.7747;-8.2062;
596646813543923;-10.5377;0.4684;-6.1199;
596646823648506;-9.1436;-0.4155;-0.7804;
596646833749704;-6.7193;0.1068;-1.8823;
596646843854287;-15.9156;0.4014;-3.8465;
596646853958923;-19.5042;-0.0488;2.2187;
596646864051839;-9.0000;1.5514;5.8265;
596646874156475;-5.4257;2.5406;-0.6915;
596646884261058;-18.0452;-0.0511;-6.8961;
596646894365329;-14.0160;-0.5542;-0.5049;
596646904469964;-4.8174;0.6386;3.8886;
596646914574548;-6.1612;0.2124;-2.8283;
596646924683142;-11.4793;-0.7220;-9.3538;
596646934787777;-9.0311;-0.9473;-6.7331;
596646944892360;-4.3980;-0.3987;-4.6609;
596646954991267;-6.0293;-1.2873;-5.5594;
596646965095902;-8.4897;-1.5867;-4.0454;
596646975200485;-7.0690;-2.5570;-2.9076;
596646985317412;-8.3818;-1.9750;-4.5365;
596646995422048;-7.9771;-1.5006;-2.6967;
596647005526631;-3.6820;-1.4575;-3.2716;
596647015624079;-10.5975;0.4301;-14.8657;
596647025728714;-15.8964;1.5921;-11.3803;
596647035833298;-8.1039;1.2206;4.3436;
596647045930121;-7.2679;1.8748;0.1660;
596647056034756;-14.3659;2.6246;-10.5251;
596647066139339;-10.8371;0.2315;-1.4533;
596647076259808;-8.6692;-0.1424;6.2578;
596647086364444;-10.8251;-0.0344;-1.6283;
596647096469027;-10.3101;-0.6048;-3.8345;
596647106569600;-10.2191;-0.6096;0.3482;
596647116674235;-7.5194;-1.3831;2.0991;
596647126778819;-7.0810;-0.7651;-3.3936;
596647136889808;-6.8151;-1.7689;-5.7724;
596647146994444;-6.7146;-1.0717;-5.1903;
596647157099027;-11.6611;0.2554;-6.3329;
596647167195121;-9.5486;-0.0009;-2.9100;
596647177299756;-5.8164;0.5070;-2.2558;
596647187404339;-8.9255;0.2076;-5.9474;
596647197516996;-10.9140;0.2746;-2.4667;
596647207621579;-7.4189;-0.4178;1.3804;
596647217726214;-8.1637;0.3488;-3.5447;
596647227826371;-10.6122;-0.4513;-5.1903;
596647237931006;-9.5124;0.0613;-1.6929;
596647248035589;-10.1282;0.2171;-1.9158;
596647258145329;-7.9962;-0.2979;-3.4992;
596647268249964;-9.2441;0.3775;-2.9148;
596647278354548;-14.3178;-0.3147;-2.8259;
596647288458350;-11.0336;-1.1315;-0.4161;
596647298555017;-5.8738;-0.2046;-1.5637;
596647308659652;-8.1852;0.4229;-4.1100;
596647318764235;-6.7696;-1.1243;-4.2802;
596647328889079;-5.0904;-2.1927;-7.5858;
596647338993662;-11.6782;-2.7990;-6.8767;
596647349098298;-12.1546;-1.6609;-3.4107;
596647359201267;-6.5468;0.5764;-2.0521;
596647369305902;-8.4921;-0.6287;-4.4743;
596647379410485;-11.0145;0.5764;-2.4045;
596647389503923;-9.6323;0.7992;-0.6389;
596647399608558;-15.2833;-0.3413;-0.2366;
596647409713142;-6.6236;-0.0272;0.1899;
596647419826371;-4.9923;-0.6502;-3.6452;
596647429931006;-12.5142;-0.6455;-4.6370;
596647440035589;-9.1723;-0.6909;-3.1902;
596647450137412;-13.6663;2.5119;-6.4768;
596647460242048;-8.7461;0.1259;-0.8426;
596647470346631;-6.6667;0.4301;-0.8617;
596647480445173;-7.2870;0.3511;-5.5041;
596647490549808;-8.6644;-0.7723;-3.9015;
596647500654392;-4.9322;-1.8000;0.0006;
596647510765121;-5.4329;-1.5173;-8.2328;
596647520869756;-28.1231;-0.5518;-6.0191;
596647530974339;-21.3990;0.1762;7.7812;
596647541101162;-2.8531;2.9001;8.5549;
596647551205798;-1.1928;1.9825;-5.4467;
596647561310381;-8.9423;-0.5542;-11.2534;
596647571397829;-11.2110;1.0795;-5.1712;
596647581502464;-7.5697;-0.8417;-0.4017;
596647591607048;-8.7413;0.2267;-6.6302;
596647601718350;-10.4827;0.4684;-7.1788;
596647611822933;-3.6676;-0.3290;-1.7432;
596647621927569;-5.6151;0.0087;-8.2400;
596647632023558;-11.0216;-1.0071;-7.5787;
596647642128142;-9.4980;-0.2859;-2.1194;
596647652232777;-9.5581;1.0026;-1.5251;
596647662338454;-8.5998;0.2650;0.7887;
596647672443037;-6.1493;0.3679;0.5252;
596647682547673;-7.1961;0.0541;-9.8976;
596647692658767;-15.0509;1.2206;-16.6816;
596647702763402;-12.2961;1.1345;-3.4394;
596647712867985;-7.7495;3.8486;2.7051;
596647722976996;-10.2646;3.5563;0.2833;
596647733081631;-9.3784;-0.0488;0.6954;
596647743186214;-8.3411;0.3846;-0.2892;
596647753267412;-8.8083;0.1140;-1.3672;
596647763372048;-10.0947;-0.7077;-4.0238;
596647773476631;-10.2885;-0.0200;-2.8140;
596647783588037;-5.2606;0.2363;-1.2667;
596647793692673;-9.4980;-0.2907;-5.4179;
596647803797256;-10.8156;0.2961;-6.0407;
596647813940329;-9.4884;0.7872;-2.1266;
596647824044964;-8.5639;1.4028;-0.9909;
596647834149548;-8.0082;0.4062;-2.9841;
596647844241006;-6.9972;0.1762;-3.6093;
596647854345642;-8.2765;0.2076;-5.0085;
596647864450225;-11.3737;0.7825;-4.5341;
596647874535433;-10.3125;0.4469;-0.7828;
596647884640069;-7.7758;0.4807;-0.8378;
596647894744652;-9.1699;-0.9090;-4.2706;
596647904853558;-10.3292;-0.9975;-3.0129;
596647914958194;-10.0585;0.0350;-2.6704;
596647925062777;-8.4682;-0.8034;-3.4442;
596647935162204;-10.5879;-0.2524;-4.7880;
596647945266839;-10.7797;0.5285;-2.8546;
596647955371423;-10.6217;-0.9018;-0.6413;
596647965476683;-8.9806;-1.2275;-1.8655;
596647975581319;-7.6729;-0.5016;-3.6571;
596647985685902;-7.7758;-1.0836;-2.9387;
596647995794600;-8.2334;-1.1076;-4.1004;
596648005899235;-11.0384;-1.5269;-4.6059;
596648016003819;-10.1641;-1.2706;-2.1673;
596648026119912;-6.9446;-1.0717;-2.2989;
596648036224496;-8.0728;-0.9257;-4.9484;
596648046329131;-9.8958;-0.4394;-5.0827;
596648056415121;-7.6729;-1.0741;-2.5792;
596648066519756;-9.1508;-0.3796;-4.2371;
596648076624339;-11.3785;-1.3472;-3.5112;
596648086738662;-10.5544;-0.6766;-1.7791;
596648096843298;-9.3090;-0.3461;-1.0893;
596648106947881;-8.8011;0.5285;-1.9660;
596648117037725;-7.9193;-0.0344;-4.2491;
596648127142360;-8.6788;-0.3170;-4.5724;
596648137246944;-8.4033;-0.0033;-4.3687;
596648147366006;-10.4587;-0.0511;-4.1219;
596648157470642;-8.6166;-0.5662;-1.6283;
596648167575225;-6.1373;-1.8981;-1.9804;
596648177680433;-11.0312;-0.8946;-6.3185;
596648187785069;-11.5223;-1.2251;-4.0932;
596648197889652;-7.9723;-0.4896;-0.7253;
596648207995329;-7.5936;-0.5495;-3.0416;
596648218099964;-8.7532;-0.5207;-4.8263;
596648228204548;-7.9795;-0.9712;-3.1902;
596648238300642;-9.7137;0.0709;-2.8618;
596648248405277;-10.1234;0.1570;-2.5672;
596648258509860;-9.2731;-0.6383;-3.3027;
596648268620954;-9.1460;0.1379;-2.6441;
596648278725589;-9.5940;-0.4657;-2.0186;
596648288830173;-12.1427;0.3105;-1.8751;
596648298934339;-10.2814;0.1211;-0.4280;
596648309039183;-7.5625;0.0613;-1.0271;
596648319143975;-7.9170;-1.0406;-4.0549;
596648329271579;-9.0885;-0.7053;-4.9077;
596648339376371;-8.8035;-0.3700;-3.5471;
596648349481162;-8.2741;0.3918;-5.7628;
596648359576787;-8.1350;0.7944;-5.8469;
596648369681579;-9.9269;1.5296;-2.5265;
596648379786371;-12.4493;0.5285;-0.4496;
596648389893454;-11.2277;1.2784;-0.0018;
596648399998246;-8.1398;1.2039;-0.7277;
596648410103037;-5.6198;0.4612;-3.8082;
596648420212204;-6.2115;0.2985;-7.4207;
596648430316996;-10.4563;0.5524;-6.7834;
596648440421787;-10.8972;0.9763;-3.3960;
596648450523871;-10.0609;1.0627;-1.9205;
596648460628662;-9.0000;1.3047;-3.2836;
596648470733454;-8.2071;0.8614;-3.7579;
596648480838037;-8.0058;-0.0826;-4.0310;
596648490942829;-7.8284;0.2506;-3.0057;
596648501047621;-8.6955;0.1068;-2.5385;
596648511168454;-11.3833;-0.4705;-2.9985;
596648521273246;-10.1593;-0.9712;0.5444;
596648531378037;-7.1626;-0.4753;-0.6987;
596648541449704;-6.6356;0.1570;-7.2912;
596648551554496;-11.4410;0.9523;-8.7452;
596648561659339;-12.1618;0.4493;-2.5839;
596648571822204;-10.9427;0.5333;1.3588;
596648581926996;-7.5099;-0.7627;0.9039;
596648592031787;-6.1684;-0.8827;-3.3912;
596648602080381;-11.0169;-1.0334;-6.0383;
596648612185173;-9.9102;-1.2562;-1.8440;
596648622289964;-9.7663;-1.5293;-2.7087;
596648632414131;-8.7939;-1.2036;-3.8321;
596648642518923;-7.2942;-1.4958;-2.2391;
596648652623714;-10.2096;-1.4049;-2.5552;
596648662702360;-10.1091;-1.9917;-2.4093;
596648672807152;-8.0321;-2.2457;-1.9828;
596648682911944;-8.5113;-0.7531;-5.9976;
596648693018610;-10.1976;0.0446;-4.2897;
596648703123454;-7.5912;-1.3280;-1.6164;
596648713228246;-8.0225;-1.5126;-5.5352;
596648723342777;-11.6782;-1.5150;-4.4572;
596648733447569;-9.6060;-2.3557;-2.6871;
596648743552412;-6.1756;-1.7067;-2.7015;
596648753677152;-7.2440;-1.8263;-3.7292;
596648763781996;-10.8347;-1.9965;-5.8110;
596648773886735;-18.5435;-1.1701;-0.6485;
596648783974183;-15.1852;-0.6766;4.2479;
596648794078923;-6.7385;0.0278;4.0513;
596648804183767;-4.1560;0.0661;-1.9349;
596648814287621;-8.5854;-0.3338;-9.4783;
596648824392360;-12.6218;0.5907;-8.8340;
596648834497204;-8.7266;0.7080;-1.9445;
596648844606371;-5.8403;-0.8898;-0.1741;
596648854711162;-9.4693;-1.2203;-5.1018;
596648864815954;-9.4190;-2.2241;-4.0382;
596648874925173;-6.3769;-1.5915;-2.5624;
596648885029964;-8.5256;-1.0358;-5.3725;
596648895134756;-9.6491;-0.6144;-3.9999;
596648905231839;-7.9938;-0.7699;-0.2246;
596648915336683;-10.3511;-0.1902;-1.2449;
596648925441475;-8.5950;0.6912;-3.0176;
596648935544860;-9.7926;1.4578;-10.2449;
596648945649704;-9.8097;2.3444;-6.5653;
596648955754496;-11.3761;1.3836;-0.0257;
596648965865329;-12.5285;1.7046;0.4008;
596648975970069;-9.2417;1.1106;0.7433;
596648986074912;-9.5390;-0.3987;-1.7623;
596648996173871;-10.2096;-0.3915;-1.5494;
596649006278662;-7.3110;-1.0143;-2.1147;
596649016383506;-7.0618;-1.1509;-4.5676;
596649026486944;-8.7796;-0.8608;-5.6169;
596649036591735;-8.6907;-1.2921;-4.2562;
596649046696579;-10.6289;-0.1017;-2.4284;
596649056832621;-10.7964;-0.2692;-3.0224;
596649066937412;-6.6595;-0.2859;-1.0223;
596649077042204;-5.7682;-0.0655;-4.7928;
596649087137100;-11.8816;0.0661;-6.9129;
596649097241892;-13.3525;0.8327;-0.4137;
596649107346683;-7.1770;0.6745;0.0197;
596649117460798;-8.3674;1.1393;-3.4442;
596649127565642;-9.1125;0.0924;-5.7030;
596649137670433;-12.2746;-0.3437;-2.0330;
596649147746475;-8.8513;0.3918;-1.1157;
596649157851267;-7.3950;0.5453;-4.4477;
596649167956110;-9.4956;0.3033;-3.3960;
596649178055121;-10.5999;-0.6837;-1.1946;
596649188159964;-9.8073;0.0733;-1.4892;
596649198264704;-10.0322;-1.2897;-4.1698;
596649208376527;-8.2765;0.3942;-4.6155;
596649218481371;-8.3124;-0.0754;-4.4453;
596649228586162;-10.2072;0.0087;-2.9195;
596649238699339;-10.0250;-0.0488;-1.7647;
596649248804131;-7.8858;-0.4801;-3.9497;
596649258908923;-7.7040;0.0398;-5.5352;
596649269005746;-7.9460;-0.5949;-4.7160;
596649279110537;-8.4248;-0.3027;-2.7159;
596649289215329;-12.4612;-1.1028;-3.8824;
596649299325173;-12.4397;-0.0969;-2.0955;
596649309430017;-11.2062;-0.1807;1.2775;
596649319534860;-7.9579;0.6434;2.4129;
596649329644183;-7.0642;-0.5447;-4.5915;
596649339749027;-9.8312;-0.3413;-7.2506;
596649349853871;-9.6395;-0.3314;-5.4395;
596649359961371;-10.5736;0.5524;-2.1960;
596649370066162;-9.5028;-0.5423;-1.4103;
596649380171006;-8.4730;-0.2764;-2.6273;
596649390266214;-9.6778;-1.0765;-6.1415;
596649400371058;-7.7877;-0.9305;-3.4274;
596649410475902;-8.8729;-1.3424;-2.2487;
596649420578298;-10.0804;-0.8946;-1.5948;
596649430683142;-9.9963;-0.4609;-2.8741;
596649440788037;-13.2159;0.2746;-2.3614;
596649450896527;-10.5281;0.4158;-1.4916;
596649461001319;-8.2143;1.0579;-2.5217;
596649471106162;-8.0465;0.7370;-5.4132;
596649481215121;-8.2549;0.6793;-3.8704;
596649491319912;-9.5028;0.1475;-3.1854;
596649501424756;-8.9853;0.5835;-2.8020;
596649511541267;-7.9412;-0.5734;-4.5293;
596649521646110;-8.0297;-0.3437;-4.4596;
596649531750902;-10.0514;-1.1195;-4.3496;
596649541899704;-9.2656;-0.4155;-1.4366;
596649552004548;-10.0131;-0.1280;-3.6619;
596649562109392;-10.1378;0.0254;-1.2954;
596649572139496;-10.1761;0.3703;-1.5203;
596649582244287;-10.7151;0.8877;-2.6871;
596649592349131;-7.5266;0.6123;-5.0779;
596649602526839;-7.1913;1.0292;-4.7040;
596649612631683;-9.5845;1.0002;-5.3414;
596649622736527;-11.5511;1.2111;-1.8751;
596649632790017;-8.2334;0.3751;-1.5108;
596649642894808;-9.0933;0.3679;-2.3351;
596649652999704;-8.8513;-1.0621;-2.5457;
596649663101996;-8.9351;0.0278;-0.6508;
596649673206787;-9.1651;-0.7795;-4.5126;
596649683311683;-8.2358;0.6553;-4.2754;
596649693432777;-9.9820;0.1379;-4.0262;
596649703537673;-10.9714;0.7777;-1.2619;
596649713642464;-10.7175;0.8542;-3.3386;
596649723734339;-8.8609;1.5224;-2.7709;
596649733839131;-9.6251;0.9667;-4.0597;
596649743943975;-11.3809;1.2855;-1.6283;
596649754038819;-10.5688;0.7271;-0.6485;
596649764143714;-7.2823;0.7920;-0.2677;
596649774248506;-5.8355;-0.3051;-4.3878;
596649784362308;-7.4213;-1.2826;-5.7485;
596649794467152;-14.7562;-1.7474;-5.3270;
596649804571996;-15.1394;-0.5231;0.0078;
596649814682829;-4.4339;1.2879;-0.6030;
596649824787673;-4.4677;1.4028;-4.7521;
596649834892517;-9.2417;-0.7819;-5.5522;
596649844987673;-10.5592;-1.7402;-2.9913;
596649855092569;-10.2431;-0.6263;-3.3099;
596649865197412;-7.8619;0.4277;-4.5293;
596649875312100;-12.4636;0.1690;-4.4524;
596649885416944;-12.6482;-0.2620;-1.4821;
596649895521787;-8.5591;0.2148;-0.1884;
596649905619912;-10.5018;0.0278;-3.0631;
596649915724704;-8.2597;-1.1605;-1.1707;
596649925829600;-6.9709;-2.3605;-1.9804;
596649935933923;-7.3636;-1.7856;-3.8177;
596649946038714;-5.8762;-2.1544;-7.9355;
596649956143610;-7.3110;-1.7785;-9.0664;
596649966248871;-23.4422;-0.9281;-2.1888;
596649976353714;-19.0298;-0.2644;7.5778;
596649986458558;-1.2144;1.9083;6.1953;
596649996568923;2.2277;1.0771;-6.0793;
596650006673819;-7.4022;-2.1185;-15.0622;
596650016778610;-10.8108;-2.0683;-8.0052;
596650026867777;-9.8169;-1.2586;-0.7349;
596650036972621;-8.9518;1.0890;-4.8048;
596650047077464;-8.6812;0.1451;-4.7255;
596650057209496;-8.8729;-0.8441;-4.1411;
596650067314339;-10.0418;0.6338;-2.2869;
596650077419131;-8.8633;0.2315;-0.8880;
596650087506371;-10.2048;0.6888;-0.1143;
596650097611214;-10.1641;0.7561;0.3455;
596650107716058;-5.9192;-1.0406;1.8739;
596650117837464;-3.2506;0.9715;-10.3887;
596650127942360;-14.5956;1.0436;-18.0972;
596650138047204;-15.8486;1.7572;-1.6331;
596650148140954;-9.0455;2.3034;9.9610;
596650158245746;-6.3386;2.2484;1.0116;
596650168350642;-9.6036;0.1283;-3.6500;
596650178453610;-10.7222;-1.2347;-1.4366;
596650188558506;-5.5528;-0.1424;0.5109;
596650198663350;-6.6069;0.4807;-6.0936;
596650208769079;-11.8887;0.2794;-7.4566;
596650218873923;-11.5032;1.1919;-1.0893;
596650228978714;-9.5701;1.4004;0.3191;
596650239080537;-8.8322;1.3765;-2.7015;
596650249185381;-6.4367;0.5740;-3.2070;
596650259290225;-10.9977;1.7572;-3.8776;
596650269390746;-12.8327;1.8027;-2.8475;
596650279495537;-9.5438;1.8939;0.4152;
596650289600381;-6.2091;0.8853;-2.5241;
596650299724496;-9.6323;0.3009;-5.1927;
596650309829392;-9.5052;0.0350;-4.5030;
596650319934235;-7.9795;0.2171;-2.9363;
596650330027100;-8.0656;0.1810;-5.6360;
596650340131996;-10.8852;-0.2309;-3.0200;
596650350236839;-11.1392;-0.5949;-0.2581;
596650360340433;-7.2918;-0.6479;-0.9096;
596650370445329;-3.9093;-0.7172;-5.3725;
596650380550121;-6.6595;-1.4480;-9.2411;
596650390654339;-13.6711;-1.4743;-5.8971;
596650400759235;-10.3463;-0.5016;-0.8306;
596650410864079;-9.1173;0.2506;-2.6082;
596650420968454;-10.2048;-1.6947;-4.5389;
596650431073350;-9.7519;-0.9114;-1.3050;
596650441178194;-8.8825;-1.7976;-0.8426;
596650451274548;-10.6074;-1.5365;-3.2907;
596650461379444;-10.7533;-1.2443;-2.9674;
596650471484339;-8.1900;-1.1438;0.4032;
596650481586996;-10.0202;-0.9449;-1.4390;
596650491691892;-8.0034;-2.5164;-2.8331;
596650501796735;-8.3626;-1.2873;-5.9833;
596650511926058;-9.2201;-1.7450;-4.8598;
596650522030954;-9.7591;-0.5351;-1.8488;
596650532135798;-8.6644;-1.2538;-0.9766;
596650542215798;-9.3162;-0.3314;-3.4250;
596650552320694;-9.4119;-0.1065;-5.7652;
596650562425589;-7.8882;-0.2453;-3.9449;
596650572533923;-9.2803;-0.1902;-2.8283;
596650582638819;-9.9700;0.1594;-3.6981;
596650592743662;-9.7663;1.7189;-2.7015;
596650602848298;-10.5114;0.4926;-2.5481;
596650612953194;-9.4406;1.4865;-1.7985;
596650623058089;-7.8858;0.5381;-2.0644;
596650633159860;-9.3329;0.3224;-2.7159;
596650643264756;-9.1484;0.7319;-3.6404;
596650653369600;-10.1569;0.3966;-4.5317;
596650663484027;-9.5701;0.3344;-1.9158;
596650673588923;-8.4344;0.7801;-3.9903;
596650683693767;-9.0191;-0.2812;-3.9497;
596650693798142;-8.3219;0.7247;-4.0549;
596650703902985;-9.4741;0.0470;-4.6011;
596650714007829;-11.3880;1.2278;-2.9483;
596650724112412;-9.8982;0.6649;-0.5551;
596650734217256;-9.5366;0.5692;-1.0845;
596650744322100;-9.0335;0.6170;-1.6618;
596650754458819;-7.1794;0.4421;-3.5088;
596650764563714;-9.3879;0.7394;-4.3352;
596650774668558;-9.3305;0.7343;-3.6861;
596650784740069;-8.3889;-0.2118;-3.9855;
596650794845017;-9.1603;0.1092;-3.4657;
596650804949860;-9.0574;-0.3700;-4.1841;
596650815059912;-10.1833;-0.2955;-3.7507;
596650825164808;-9.2297;-0.2429;-2.2295;
596650835269652;-9.0670;-0.0129;-3.3027;
596650845390329;-10.6050;0.0948;-1.8846;
596650855495225;-9.7089;-0.1687;-1.6690;
596650865600069;-8.9686;0.0015;-1.9229;
596650875679548;-6.9374;-0.5351;-3.8010;
596650885784496;-8.4464;-0.0368;-5.1449;
596650895889339;-10.8060;0.7056;-5.5499;
596650906004600;-12.3177;-0.0655;-1.8248;
596650916109496;-7.6080;0.1283;-0.1095;
596650926214339;-7.8619;-0.5590;-3.8608;
596650936312256;-8.8848;-1.3663;-3.3529;
596650946417204;-8.9542;-0.7627;-2.5002;
596650956522048;-10.0923;-0.7819;-4.2897;
596650966634704;-10.0585;0.0254;-4.3400;
596650976739600;-9.5988;0.1020;-1.5398;
596650986844444;-9.9461;0.9428;-2.3447;
596650996934756;-7.4046;0.2171;-2.7278;
596651007039704;-8.8657;0.3894;-2.8164;
596651017144548;-10.6122;0.0302;-3.4250;
596651027252048;-9.5868;0.6505;-1.9588;
596651037356944;-8.8944;0.5524;-1.8344;
596651047461787;-8.4634;-0.4394;-3.6380;
596651057598662;-9.3329;-1.3878;-3.9497;
596651067703558;-8.9782;-1.2921;-3.5064;
596651077808350;-8.7509;0.0517;-3.6428;
596651087902204;-10.5832;0.5166;-3.8943;
596651098007100;-11.8265;0.3990;-1.7288;
596651108111944;-9.2010;0.6482;0.0846;
596651118238767;-6.4750;1.0101;-1.4868;
596651128343662;-8.1685;0.5166;-4.8479;
596651138448454;-9.7137;-0.6837;-4.5700;
596651148518767;-9.1292;-0.7316;-2.7589;
596651158623662;-8.7700;0.2602;-3.7747;
596651168728506;-9.1866;0.5333;-4.4743;
596651178826683;-10.4803;-0.6646;-2.5098;
596651188931631;-9.5773;0.0111;-2.9554;
596651199036475;-8.9614;-0.4729;-2.4117;
596651209153662;-10.0514;-0.3437;-1.9851;
596651219258558;-10.5353;0.2219;-1.9899;
596651229363402;-6.0293;0.1929;-2.7230;
596651239484339;-7.2440;0.2267;-5.0010;
596651249589287;-9.8025;-1.1267;-5.0133;
596651259694131;-10.6433;-0.4346;-3.4609;
596651269783923;-11.0527;0.9547;-2.1649;
596651279888767;-9.1866;-0.3939;-0.4472;
596651289993610;-7.4596;-0.0682;-1.1707;
596651300073975;-9.3784;-0.0993;-3.9401;
596651310178714;-16.3612;-1.3472;-2.9459;
596651320283506;-12.9547;-0.4896;1.6968;
596651330388298;-4.3071;0.7247;-0.7035;
596651340514287;-4.7862;0.1211;-6.9177;
596651350619131;-10.8203;-0.3987;-7.6050;
596651360723923;-11.6516;0.1618;-2.6967;
596651370831839;-8.5137;0.5859;-0.4977;
596651380936683;-5.9862;-0.2285;-0.1478;
596651391041475;-6.2569;-0.8898;-4.2562;
596651401146996;-10.8948;-0.8393;-7.1306;
596651411251787;-10.5736;-0.6885;-3.8465;
596651421356631;-9.7041;-0.4442;-1.5302;
596651431445381;-10.1928;0.2363;-3.3362;
596651441550277;-10.5760;-0.5997;-1.2691;
596651451655017;-7.3851;-0.5040;-3.6404;
596651461788037;-11.2923;0.7370;-9.2722;
596651471892881;-12.9404;0.6960;-2.6154;
596651481997673;-9.0766;0.9906;5.6348;
596651492065017;-5.9480;0.5261;2.3841;
596651502169808;-8.2573;-1.6828;-6.2922;
596651512274652;-9.9987;-1.5556;-7.1572;
596651522397985;-8.5376;-0.4585;-1.9205;
596651532502777;-6.0918;0.3176;-1.3265;
596651542607621;-9.1484;0.0230;-5.3892;
596651552728819;-11.1583;-0.2070;-5.1018;
596651562833610;-9.0742;-0.0655;-3.4944;
596651572938402;-10.6600;0.7247;-4.1411;
596651583040121;-10.2191;1.6783;-2.8860;
596651593144912;-11.0647;1.6759;-1.5227;
596651603249756;-10.6911;2.6004;0.1301;
596651613339339;-7.3636;1.5562;-0.7756;
596651623444183;-5.9695;0.3129;-4.0119;
596651633548923;-7.8858;-0.0344;-6.6733;
596651643654600;-9.7615;-0.4322;-3.7555;
596651653759444;-8.7218;1.3119;-3.0416;
596651663864235;-9.3209;1.1991;-3.7866;
596651673968506;-9.1125;0.8638;-3.3290;
596651684073350;-8.2310;0.7442;-2.6871;
596651694178194;-9.2082;0.3559;-4.2443;
596651704322725;-9.8336;0.8901;-5.0827;
596651714427517;-10.1952;0.8662;-3.6718;
596651724532308;-11.6444;1.8317;-1.4773;
596651734599808;-8.5519;1.1895;-0.9191;
596651744704652;-7.7160;1.0436;-3.1134;
596651754809444;-10.6265;-0.1424;-3.8704;
596651764924392;-10.7486;0.2937;-2.5026;
596651775029235;-9.1938;0.1522;-0.3371;
596651785134027;-7.6848;-0.7340;-1.9851;
596651795241162;-7.2535;-1.2562;-4.3926;
596651805345954;-8.9375;-1.0047;-5.9067;
596651815450798;-10.7677;-1.4671;-4.0310;
596651825559652;-8.7218;-1.4456;-2.7900;
596651835664496;-8.4177;-1.2395;-3.8321;
596651845769287;-12.4974;-0.0464;-3.0751;
596651855861839;-10.2191;-1.5173;-0.5671;
596651865966683;-7.9026;-0.8755;-2.0186;
596651876071475;-8.3770;-0.1663;-4.3328;
596651886189183;-10.8538;-0.5112;-3.7029;
596651896294027;-10.2168;-0.7172;-2.8211;
596651906398819;-10.5329;-1.0430;-1.8631;
596651916500694;-7.7303;-1.2060;-2.2606;
596651926605537;-7.7590;-0.9138;-3.9999;
596651936710329;-9.7639;-1.6370;-3.8824;
596651946803194;-8.7437;-0.3796;-3.6356;
596651956908037;-7.0403;-0.9042;-4.6370;
596651967012881;-7.4405;0.1762;-4.1148;
596651977126475;-11.6587;-0.7077;-2.5576;
596651987231319;-12.1857;0.0182;-1.7743;
596651997336058;-10.7414;0.1355;-2.5839;
596652007433350;-10.1282;0.9476;-1.9301;
596652017538194;-8.2190;0.6936;-1.4486;
596652027642933;-9.6897;0.6553;-3.4418;
596652037771423;-10.5616;0.2650;-4.4596;
596652047876267;-8.2071;-0.1878;-2.2893;
596652057981110;-7.5673;0.1116;-3.2070;
596652068072100;-12.5189;0.6912;-3.2070;
596652078176892;-9.7472;0.2028;-1.0941;
596652088281735;-5.2340;1.2182;-2.1242;
596652098384496;-8.6692;-0.2524;-2.6871;
596652108489339;-10.6170;-0.6574;-3.0105;
596652118594131;-8.3315;0.0398;-4.4862;
596652128691006;-9.4334;1.0603;-6.9105;
596652138795798;-7.7734;0.8542;-5.3821;
596652148900589;-9.0335;1.4148;-4.5126;
596652159009600;-11.8863;0.8471;-2.5050;
596652169114444;-9.7974;0.6529;-1.0343;
596652179219235;-8.6381;0.2171;-1.6499;
596652189321996;-7.5673;0.2100;-2.2534;
596652199426839;-11.3976;0.0900;-3.0607;
596652209531631;-13.2709;0.6362;-2.6321;
596652219646839;-7.8547;-0.5566;-0.7421;
596652229751683;-6.1205;-0.0826;-1.0295;
596652239856475;-9.8480;-0.5303;-6.1295;
596652249953662;-13.9035;0.2483;-6.5892;
596652260058506;-9.4406;0.0254;-1.7910;
596652270163298;-8.6333;-0.4274;-0.8593;
596652280286423;-6.3769;-0.7531;-1.9445;
596652290391267;-5.7972;-1.3065;-5.2768;
596652300496058;-11.5798;-1.0549;-8.1153;
596652310590121;-11.1535;-0.7220;-3.2142;
596652320695017;-6.2258;-0.4633;-0.3036;
596652330799912;-5.6916;-1.0406;-2.4332;
596652340880694;-8.3172;-0.6239;-6.9918;
596652350985642;-14.5238;-0.3939;-7.4590;
596652361090537;-12.4110;0.7271;0.0748;
596652371201944;-5.2125;-0.4035;2.1565;
596652381306839;-6.4439;-0.2692;-6.3547;
596652391411735;-10.1593;0.3775;-9.2172;
596652401519600;-5.8307;0.0924;-5.3414;
596652411624496;1.2434;-0.3652;-5.5184;
596652421729339;-16.3684;-0.4633;-6.9296;
596652431865225;-32.9381;0.9428;7.3214;
596652441970121;-13.7501;2.0016;19.5766;
596652452074964;1.6337;2.2747;5.9653;
596652462147829;-7.1145;-0.5279;-18.5046;
596652472252673;-14.9360;-2.9258;-11.1215;
596652482357569;-9.3855;0.3057;1.0618;
596652492503819;-4.5012;2.7969;-2.0043;
596652502608662;-7.2894;0.5261;-6.2946;
596652512713558;-7.4644;-1.2179;-6.3401;
596652522792204;-6.6667;-0.7938;-3.7412;
596652532897048;-9.5124;-0.5782;-1.8942;
596652543001944;-12.7849;-0.0176;2.9423;
596652553100121;-7.1073;-0.7890;9.1011;
596652563204964;-3.5907;-1.5365;-10.4510;
596652573309912;-13.1034;0.4807;-27.9859;
596652583411839;-10.8419;0.9212;-7.1620;
596652593516735;-9.4214;2.7754;8.5190;
596652603621631;-11.0719;3.1756;0.2426;
596652613729287;-14.6749;1.8245;-6.7164;
596652623834183;-9.1484;-0.7220;1.6798;
596652633939027;-5.3300;-1.0406;4.0466;
596652644037569;-8.7437;-1.4480;-2.5193;
596652654142464;-10.4946;-2.2098;-3.9159;
596652664247412;-8.5639;-2.5499;0.0413;
596652674358037;-8.8370;-2.2481;-0.3730;
596652684462933;-10.1785;-1.6274;-4.9866;
596652694567777;-8.1975;-1.5389;-4.7088;
596652704666319;-6.3215;-0.0583;-4.2036;
596652714771267;-8.4320;0.6386;-6.1247;
596652724876162;-7.6609;0.0350;-2.4188;
596652734981423;-9.3018;-0.1113;-3.6766;
596652745086371;-11.4745;-0.4011;-2.4739;
596652755191267;-10.5855;-1.4312;3.4454;
596652765298767;-9.3425;-0.6311;2.9375;
596652775403662;-10.0155;-0.1663;-2.0402;
596652785508558;-10.2479;-1.0406;-2.1458;
596652795610537;-8.4368;-1.0358;-0.8521;
596652805715485;-6.9182;-0.9808;-2.8211;
596652815820381;-6.6452;-1.8981;-6.9799;
596652825936579;-8.9542;-1.8718;-8.4290;
596652836041475;-12.0829;-1.2849;-2.0450;
596652846146319;-11.4362;-2.0300;4.9905;
596652856239027;-11.1751;-1.6346;2.7051;
596652866343975;-9.3975;-3.0482;-0.7516;
596652876448871;-8.1374;-2.7942;-2.4739;
596652886555173;-8.2884;-0.9616;-5.9163;
596652896660017;-11.3856;-0.8536;-4.8120;
596652906764964;-9.1914;-0.1328;0.0150;
596652916872308;-11.7906;-0.8393;1.6415;
596652926977152;-17.3195;-1.2395;1.2751;
596652937082048;-7.7231;-0.2213;2.6094;
596652947179964;-3.9215;0.5596;-1.1013;
596652957284860;-10.0633;-0.4370;-3.6861;
596652967389756;-11.1054;-1.6780;-1.3169;
596652977492517;-9.1436;-1.2443;-0.5192;
596652987597412;-7.9651;-0.7460;-3.1253;
596652997702256;-9.0933;-0.8779;-2.5839;
596653007811006;-10.2072;-0.9042;-2.3471;
596653017915954;-10.5209;0.8183;-3.1974;
596653028020850;-10.7821;1.8580;-1.0487;
596653038144131;-8.0513;1.2039;0.3505;
596653048249079;-7.1192;1.1345;-2.1912;
596653058353923;-8.5878;1.4602;-2.5026;
596653068463350;-10.1234;0.7825;-5.9737;
596653078568246;-11.9943;1.7237;-5.1688;
596653088673142;-9.5243;1.8580;1.1145;
596653098764287;-11.0551;1.5921;-0.6772;
596653108869183;-10.1402;0.7394;-1.6235;
596653118974079;-7.2679;-0.1591;-1.1348;
596653129080017;-9.0359;0.2889;-0.8115;
596653139184912;-6.3649;-0.3389;-2.9411;
596653149289808;-11.4912;1.9322;-4.2993;
596653159405537;-11.2253;0.7657;-3.3410;
596653169510433;-5.5744;-0.3724;-0.1430;
596653179615277;-7.3588;1.1536;-3.6380;
596653189708871;-9.9006;2.5956;-5.0010;
596653199813767;-13.5440;-0.2692;-2.0859;
596653209918662;-8.3554;1.2398;-0.4857;
596653220020173;-6.1732;1.5344;-0.2055;
596653230125069;-10.8757;0.3464;-2.2941;
596653240229964;-8.8968;0.4110;-2.8044;
596653250333975;-8.7604;-0.0272;-2.1170;
596653260438871;-7.4261;0.9954;-3.7412;
596653270543714;-9.5076;0.5429;-3.9254;
596653280662256;-14.0088;1.5658;-3.1038;
596653290767152;-7.3516;0.7104;0.8031;
596653300872048;-6.6811;0.7418;-0.2198;
596653310985850;-12.9452;0.0685;-2.3662;
596653321090746;-12.0781;-0.1926;0.2378;
596653331195642;-10.5257;0.2459;-0.2318;
596653341259027;-10.8275;-0.6790;0.4941;
596653351363975;-8.4320;-0.7579;-1.2954;
596653361468871;-9.0048;-0.2022;-2.6082;
596653371580433;-9.0981;-1.1653;-2.2869;
596653381685329;-10.1809;-1.2060;-3.1902;
596653391790277;-7.8667;-0.8417;-3.3386;
596653401900954;-11.3115;-0.4872;-2.1242;
596653412005850;-11.1607;-0.4801;-0.9598;
596653422110798;-8.0656;-1.5365;0.7552;
596653432215069;-7.5936;-0.4657;-0.4905;
596653442319964;-9.9820;-1.0836;-3.0129;
596653452424860;-9.8910;-1.1581;-1.8775;
596653462529131;-9.2154;-1.1557;-2.5935;
596653472634027;-14.4114;-0.3724;-2.4954;
596653482738975;-10.5879;-0.0607;-2.0426;
596653492840589;-5.1981;-0.1926;-1.0965;
596653502945485;-8.7628;-0.3628;-2.9411;
596653513050433;-13.0244;-0.1232;-2.6130;
596653523164183;-12.8734;-0.3003;-0.3706;
596653533269079;-8.4945;0.5524;-1.0247;
596653543374027;-4.9155;0.3631;-0.5312;
596653553490902;-8.8131;-0.2644;-1.8368;
596653563595798;-11.0982;0.0685;-3.4322;
596653573700746;-11.4625;-0.9209;-2.4093;
596653583797985;-11.6085;0.5740;-2.2750;
596653593902881;-7.2799;0.9188;-0.2103;
596653604007829;-9.5845;0.3440;-1.2138;
596653614103298;-12.9906;0.5453;-0.8402;
596653624208194;-7.7112;0.6242;-0.9598;
596653634313142;-8.7461;0.3990;-1.9493;
596653644433350;-11.4458;0.4684;-2.5217;
596653654538246;-10.0899;0.2794;0.0942;
596653664643142;-9.0096;1.2613;-2.2558;
596653674752881;-7.2942;0.1307;-3.9879;
596653684857777;-8.9016;0.3153;-2.6345;
596653694962725;-10.5281;-0.1926;-1.5661;
596653705045954;-9.3257;1.5272;-2.2367;
596653715150902;-9.8910;-0.0416;-1.4725;
596653725255798;-9.0096;-0.2716;-1.5852;
596653735365589;-11.4314;0.8183;-2.0330;
596653745470537;-9.5964;0.4229;-0.7971;
596653755575433;-9.5028;0.1522;-0.7804;
596653765684339;-9.4262;-0.3772;-2.0716;
596653775789235;-7.3516;0.0254;-2.9100;
596653785894183;-8.9255;-0.8560;-2.5313;
596653796011579;-11.1365;-0.7101;-3.3649;
596653806116423;-11.7069;0.5381;-3.4466;
596653816221371;-5.6629;0.3344;-0.7923;
596653826311631;-7.5027;-0.1256;-1.6403;
596653836416579;-14.3683;-0.0559;-1.7145;
596653846521475;-14.1574;-0.4992;1.1432;
596653856635277;-6.1564;-0.5183;2.2789;
596653866740173;-8.2932;0.0972;-1.6570;
596653876845121;-12.0159;-0.8345;-3.1711;
596653886940381;-9.7735;-0.2524;-0.2294;
596653897045329;-6.6978;-0.3123;-2.1888;
596653907150225;-10.4683;-0.9185;-5.2310;
596653917271110;-11.2014;0.1499;-3.9736;
596653927376006;-9.3473;-0.3027;-0.4065;
596653937480954;-9.9748;0.1044;-1.0582;
596653947568819;-8.4945;-0.1615;-2.2869;
596653957673767;-10.0633;0.0111;-1.5517;
596653967778662;-8.0369;-0.5136;1.4668;
596653977887204;-9.0766;-0.9903;-0.8833;
596653987992100;-11.1607;-0.6622;-3.8608;
596653998096996;-7.6633;-0.9257;-2.5361;
596654008210902;-8.1924;-0.2477;-3.9425;
596654018315798;-11.6949;0.7442;-4.4166;
596654028420746;-13.8437;0.3751;-1.2018;
596654038510485;-7.0762;-1.2060;1.4139;
596654048615433;-0.3951;-1.3256;-3.0679;
596654058720329;-5.2965;-0.8489;-7.6409;
596654068846735;-9.7831;-2.6264;-5.8732;
596654078951631;-27.5315;0.1499;0.6643;
596654089056579;-20.2899;1.1991;13.4922;
596654099154964;-3.1068;2.2986;4.8060;
596654109259860;-1.7007;-1.9534;-5.2047;
596654119364808;-10.6289;-1.7521;-2.4619;
596654129463298;-18.7161;-1.0167;-2.2463;
596654139568194;-6.2785;0.1929;-0.5910;
596654149673142;-4.0220;-0.1902;-1.9205;
596654159782777;-16.7372;-0.8970;-4.9699;
596654169887673;-9.6491;-0.4729;-0.1621;
596654179992621;-1.7677;-0.7316;0.7074;
596654190099131;-6.6093;0.2267;-8.8603;
596654200204027;-9.5581;-0.9425;-8.5968;
596654210308975;-16.3253;-0.6694;-2.3157;
596654220410069;-15.1899;0.8782;7.5153;
596654230514964;-1.0229;0.5764;7.3573;
596654240619912;-2.2373;0.7056;-6.5390;
596654250724131;-12.4182;-1.3424;-9.1693;
596654260829027;-15.7313;0.5357;-10.0795;
596654270933975;-10.6217;1.7309;-3.3482;
596654281038298;-6.7313;1.0340;1.5123;
596654291143246;-9.9102;0.7490;-1.5805;
596654301248142;-14.3994;0.6482;-3.1543;
596654311350798;-8.4344;0.6194;-0.5958;
596654321455694;-7.3588;-1.1725;1.2799;
596654331560537;-11.7284;0.0015;-1.1228;
596654341658923;-8.1446;-0.7699;-2.0979;
596654351763767;-16.2655;-0.3389;-0.4666;
596654361868662;-12.3942;-1.8263;1.5290;
596654371977621;-2.9297;-0.9544;2.3100;
596654382082517;-4.7886;-0.6048;-2.0163;
596654392187308;-9.3257;-0.1567;-8.8531;
596654402296162;-13.7716;1.1321;-9.6437;
596654412401006;-7.4118;0.8351;-2.0378;
596654422505902;-5.0306;0.3248;-1.3169;
596654432597152;-11.0145;1.1489;-5.2863;
596654442702048;-10.9881;0.1881;-1.2930;
596654452806944;-9.8097;-0.3437;0.3601;
596654462952829;-8.5807;0.6864;-1.4222;
596654473057673;-8.9351;0.3775;-1.9612;
596654483162517;-10.5090;0.6673;-2.3375;
596654493225329;-10.9427;-0.5542;-0.8928;
596654503330225;-9.4478;0.3535;-2.9554;
596654513435017;-11.5128;0.3009;-3.2070;
596654523564339;-10.3582;-0.5279;-0.4642;
596654533669235;-6.5755;1.0316;-4.5772;
596654543774079;-9.7591;2.0351;-7.0373;
596654553849652;-10.9331;-0.2500;-1.5084;
596654563954600;-9.1651;-0.0849;0.1277;
596654574059392;-8.4730;0.5261;-2.0521;
596654584178767;-4.5395;-0.5016;-2.9722;
596654594283662;-7.8045;-0.5016;-3.7077;
596654604388506;-13.3717;-0.7149;-3.0081;
596654614493506;-12.0661;-1.8191;-0.7373;
596654624598402;-6.7911;-0.3314;-1.4174;
596654634703246;-7.7447;0.0135;-2.5122;
596654644811683;-10.3702;-0.4178;-1.7985;
596654654916527;-9.8767;0.5835;-2.9387;
596654665021371;-9.4190;0.4301;-2.5241;
596654675132985;-10.2526;0.6769;-1.4342;
596654685237881;-8.2238;0.2578;-1.7623;
596654695342777;-9.6299;0.4158;-2.4858;
596654705432152;-12.5812;0.1283;-1.9636;
596654715537048;-11.6181;1.1321;-0.2797;
596654725641892;-7.9723;0.7370;0.7169;
596654735746371;-7.6609;-0.4107;-0.8856;
596654745851267;-11.3689;-0.5423;-2.0545;
596654755956110;-12.1475;-0.1615;-0.4304;
596654766065173;-9.1531;-0.8560;0.1588;
596654776170017;-6.0509;-0.6311;1.1554;
596654786274912;-9.4358;0.6314;-0.7708;
596654796368871;-9.7448;-2.0061;-5.5475;
596654806473767;-9.9652;0.7681;-5.2816;
596654816578610;-9.5438;-0.6861;-0.5264;
596654826695850;-8.9806;-0.6287;-1.7049;
596654836800694;-9.4334;-0.2500;-3.3123;
596654846905537;-9.6180;-1.1148;-0.5480;
596654857007829;-8.6381;-0.2572;-0.6508;
596654867112725;-10.3822;-0.3075;-2.5481;
596654877217517;-10.5760;-0.3123;-1.6834;
596654887334183;-8.8274;-0.0248;-2.2822;
596654897439079;-10.1474;0.3631;-3.3003;
596654907543923;-9.4693;0.3942;-3.4561;
596654917624027;-10.7342;0.5166;-2.2391;
596654927728923;-7.9170;0.7609;-2.6919;
596654937833767;-9.3999;0.0182;-3.9135;
596654947948402;-12.1187;-0.7436;-4.0238;
596654958053298;-7.5003;1.8317;-3.0488;
596654968158194;-7.0834;0.6840;-2.8765;
596654978281735;-13.9992;-0.4011;-3.8201;
596654988386631;-13.3334;0.0302;-1.4318;
596654998491527;-5.1670;0.5405;0.4487;
596655008582412;-5.9743;-0.2524;-1.5709;
596655018687308;-11.4314;-0.5423;-2.6728;
596655028792152;-11.1440;0.7920;-3.1325;
596655038891267;-7.5266;0.2291;-3.5830;
596655048996162;-8.1470;0.4301;-4.2036;
596655059101006;-8.0297;0.5309;-4.1889;
596655069233037;-2.3859;1.1895;-4.3232;
596655079337881;-11.5128;-0.0511;-5.1951;
596655089442777;-14.5693;1.9035;-4.4381;
596655099537308;-12.2483;0.9500;0.9852;
596655109642204;-9.1723;-0.5734;3.5797;
596655119747048;-7.6223;0.2865;-0.2055;
596655129842621;-10.3173;-0.0706;-0.7155;
596655139947517;-12.2650;-1.2562;0.1469;
596655150052360;-14.2316;2.2172;-2.6082;
596655160163246;-6.1277;0.8949;0.0006;
596655170268142;-1.2215;-1.4599;-2.2917;
596655180372985;-12.1618;0.9260;-8.6997;
596655190479704;-14.5478;0.1020;-5.4251;
596655200584548;-9.3353;-0.2524;1.7136;
596655210689444;-9.1579;0.4205;0.8103;
596655220791267;-11.2636;-0.1065;-0.9936;
596655230896162;-7.2583;-1.1414;0.8967;
596655241001006;-9.0909;-0.2237;-0.6150;
596655251111996;-12.6338;-0.7125;-0.8617;
596655261216892;-8.9949;-0.0873;1.5194;
596655271321735;-5.8044;-1.3926;1.8021;
596655281407100;-7.8667;-0.8560;-5.4658;
596655291511944;-12.3057;-0.6694;-8.3907;
596655301614600;-11.6830;-0.2740;-3.9975;
596655311719496;-8.2956;0.1522;-1.5036;
596655321824339;-8.9447;-0.7819;-3.5830;
596655331942412;-10.6911;-0.5614;-3.8010;
596655342047308;-8.2167;-0.7125;-2.1362;
596655352152152;-10.0514;-0.2979;-2.4906;
596655362260746;-11.6539;-0.6861;-0.7277;
596655372365642;-8.7437;-1.3854;1.2918;
596655382470537;-9.4789;-0.8803;-2.8187;
596655392548714;-8.8370;-1.2562;-2.7852;
596655402653610;-10.1091;-0.4298;-3.0416;
596655412758506;-10.1904;-0.4490;-6.0359;
596655422866944;-6.2115;0.1594;-4.8790;
596655432971839;-7.6439;-0.0176;-4.1794;
596655443076683;-7.3110;-0.5495;-4.4501;
596655453182881;-9.8097;0.2578;-6.6852;
596655463287777;-11.8265;1.3119;-5.2406;
596655473392621;-11.5774;-0.0320;-0.0185;
596655483503506;-7.7375;-0.1567;0.7193;
596655493608402;-7.2224;-0.8898;-1.8583;
596655503713246;-9.6323;-1.0190;-3.0320;
596655513819652;-11.8696;0.5812;-4.1913;
596655523924548;-11.9127;1.1369;-2.7278;
596655534029392;-11.1918;0.1905;-1.4438;
596655544127464;-6.8342;0.5548;-2.6632;
596655554232412;-8.0489;0.9188;-3.1711;
596655564337256;-10.9810;1.3190;-4.0597;
596655574460850;-7.9241;0.8590;-3.6260;
596655584565746;-9.7807;0.6434;-4.3137;
596655594670589;-12.7753;0.9284;-3.0176;
596655604764392;-6.7361;0.1522;-1.1300;
596655614869287;-6.2163;-0.1137;-2.4595;
596655624974131;-8.1948;0.1546;-4.6131;
596655635077517;-10.3989;0.4564;-4.1387;
596655645182360;-8.2956;0.5333;-1.3385;
596655655287256;-9.3018;0.5572;-2.2941;
596655665406214;-12.7729;1.0026;-5.0444;
596655675511110;-9.6730;0.9093;-3.2309;
596655685616006;-7.2535;0.6888;-0.6867;
596655695757256;-8.2430;0.7944;-1.7575;
596655705862152;-7.5864;0.0589;-4.4596;
596655715966996;-5.7610;-0.6024;-8.1200;
596655726028089;-10.7892;1.1465;-7.9621;
596655736132985;-14.7897;0.6338;-1.8655;
596655746237777;-11.1293;0.0111;4.5832;
596655756326475;-8.0513;-0.4561;1.8165;
596655766431371;-8.4416;-0.6311;-3.9879;
596655776536214;-6.3817;-1.7450;-4.0789;
596655786655537;-8.7509;-0.8560;-7.0684;
596655796760381;-13.8820;0.1546;-6.2252;
596655806865277;-11.3593;-0.9520;2.3961;
596655816964704;-7.1315;-1.1557;3.2512;
596655827069600;-6.6691;-1.1219;-3.5758;
596655837174444;-9.0885;-2.0850;-5.2983;
596655847278819;-9.0550;-2.7823;-2.1075;
596655857383767;-10.6505;-1.1677;-4.3807;
596655867488558;-12.1834;0.7152;-5.4179;
596655877587048;-8.9806;-0.6694;-0.9144;
596655887691944;-9.1244;-1.0310;-0.4089;
596655897796839;-11.3450;-0.9520;-1.6690;
596655907910642;-8.6094;-2.0611;1.8045;
596655918015485;-5.0593;-1.3711;-1.2377;
596655928120381;-6.8222;0.5764;-9.7346;
596655938221110;-9.0957;-0.4896;-10.1181;
596655948326058;-9.2608;-1.7258;-3.0631;
596655958430850;-10.0298;-0.6622;-1.3409;
596655968541996;-13.9155;-0.5160;-1.7910;
596655978646839;-10.6816;-1.0286;3.1555;
596655988751735;-6.1493;-0.4705;0.8701;
596655998863350;-9.6658;-0.1328;-8.3548;
596656008968246;-13.3382;-0.6239;-6.1056;
596656019073089;-11.5582;-0.8369;2.2116;
596656029172412;-6.0966;-0.0368;1.7662;
596656039277256;-6.3577;0.0757;-5.4467;
596656049382100;-11.7954;-0.7412;-8.4290;
596656059501787;-10.7868;-1.0669;-3.8536;
596656069606683;-10.9929;-0.4131;-1.0295;
596656079711475;-9.3114;-0.2692;-0.8593;
596656089796475;-5.8666;-0.2883;-2.5385;
596656099901371;-3.7705;-0.8680;-5.6336;
596656110006214;-5.4664;-1.5054;-6.0024;
596656120125225;-15.6497;-2.0611;-2.4380;
596656130230121;-17.7601;-2.9833;4.8467;
596656140334964;-9.5653;-0.8345;5.6420;
596656150431006;-3.6628;0.8542;-0.6772;
596656160535902;-6.2354;0.4181;-9.7394;
596656170640746;-10.7055;-0.5423;-12.1014;
596656180744912;-11.2253;0.0733;-3.7507;
596656190849756;-7.2177;0.4684;4.5879;
596656200954652;-2.9584;-0.0488;-1.9588;
596656211049287;-11.9103;-0.1831;-12.5782;
596656221154235;-18.9915;-0.1448;-3.3601;
596656231259027;-9.1005;1.0914;8.2890;
596656241376058;-3.6796;0.8375;3.2512;
596656251480954;-8.5711;-0.2453;-6.9823;
596656261585798;-12.9595;-0.3338;-7.6648;
596656271682517;-8.4634;1.3214;-1.0415;
596656281787360;-12.3655;-0.4944;2.0154;
596656291892256;-18.1220;0.4831;3.1077;
596656302000537;-6.1421;1.9178;6.1116;
596656312105433;0.6757;0.8638;-1.7288;
596656322210277;-13.5826;-1.5461;-15.7858;
596656332332569;-17.4799;-0.8297;-9.7896;
596656342437464;-4.0340;2.5621;4.8972;
596656352542308;-3.1717;2.1072;2.3148;
596656362620173;-9.5366;-0.1878;-6.6661;
596656372725069;-8.7652;-0.2859;-7.9451;
596656382829912;-12.6338;0.3607;-2.3566;
596656392966631;-19.8634;0.3631;4.4348;
596656403071527;-8.0417;3.9613;6.9093;
596656413176371;6.6332;2.7802;-1.6403;
596656423255537;-4.7169;-3.2492;-15.6419;
596656433360433;-24.8246;-3.9511;-13.7495;
596656443465329;-17.2164;0.5812;7.7453;
596656453578767;0.5749;4.8332;10.5984;
596656463683662;-1.3893;2.7754;-11.0354;
596656473788454;-11.2875;-2.4491;-11.6991;
596656483885537;-12.5285;-2.4514;-2.6154;
596656493990381;-17.9758;2.3994;-4.2562;
596656504095225;-13.4818;4.4091;1.3995;
596656514229912;1.4252;1.4650;4.5377;
596656524334756;-5.8116;-1.5054;-7.4085;
596656534439600;-15.8175;-1.6995;-8.8986;
596656544507152;-10.5401;-1.0908;1.9914;
596656554612100;-11.7212;-1.0454;5.1870;
596656564716944;-11.8289;-1.8024;-0.7684;
596656574848246;-7.1937;-0.8707;-1.2018;
596656584953142;-2.5510;-1.1868;0.4415;
596656595057985;-7.3062;-1.8407;-11.2869;
596656605157933;-11.9752;0.1977;-14.2095;
596656615262829;-1.5547;-0.9257;2.5615;
596656625367673;-13.1991;-1.9077;5.8026;
596656635475694;-24.0461;-1.6083;-2.0569;
596656645580589;-12.1044;0.6242;-3.8584;
596656655685433;4.8245;2.1742;0.3455;
596656665804548;-1.2505;1.0460;-1.0798;
596656675909496;-16.5242;-2.0827;-4.8455;
596656686014339;-15.3191;-1.1797;-2.5385;
596656696089808;-17.5878;0.9858;1.2176;
596656706194704;-17.8657;-0.0969;2.1494;
596656716299600;-5.9192;0.2076;2.8250;
596656726405017;2.0267;0.8542;1.9866;
596656736509912;-5.7706;-1.9220;-5.8229;
596656746614756;-12.4950;-1.7498;-9.7011;
596656756738089;-6.9374;-1.4456;-6.7164;
596656766842985;-7.8954;-1.0980;-6.5581;
596656776947881;-14.9097;0.0135;-3.2357;
596656787043558;-12.4807;1.1943;4.3436;
596656797148454;-5.8475;0.9571;5.5869;
596656807253298;-8.6883;-0.3314;-1.6570;
596656817354496;-10.8586;-0.2237;-1.8942;
596656827459392;-5.9408;-2.2433;2.4129;
596656837564183;-11.3904;-0.9185;-9.7872;
596656847658662;-18.6730;1.3717;-10.3549;
596656857763610;-6.0461;1.4124;6.2363;
596656867868454;5.0880;-0.3437;5.5271;
596656877968662;-12.8399;-1.0310;-9.2387;
596656888073558;-27.6990;-0.1902;-4.4862;
596656898178402;-9.3209;1.9968;6.9930;
596656908296683;2.4482;-0.7603;-2.6106;
596656918401579;-14.3178;0.7223;-15.4624;
596656928506423;-19.8682;2.3468;-4.3567;
596656938602048;-5.4449;1.1249;9.1466;
596656948706996;-1.9451;1.4195;1.2392;
596656958811839;-9.2922;-0.1902;-5.8205;
596656968922256;-13.4459;-2.3844;0.4630;
596656979027100;-7.7016;-1.8144;2.4248;
596656989131996;-4.9011;-0.6287;-5.6527;
596656999255537;-8.4224;-1.4216;-8.6112;
596657009360433;-8.4897;0.0494;-5.9856;
596657019465277;-8.7915;0.7319;-4.8694;
596657029552412;-10.4252;0.9523;-3.9326;
596657039657308;-8.0704;0.9093;-2.9100;
596657049762100;-9.4956;0.9236;-3.8560;
596657059863975;-12.9811;2.2029;-2.1218;
596657069968871;-11.3976;1.4124;3.0188;
596657080073714;-6.9230;0.0350;1.8715;
596657090196892;-7.9819;-0.4155;2.4679;
596657100301787;-8.1541;-1.0406;-2.0186;
596657110406631;-12.0111;0.4516;-8.1033;
596657120500746;-15.1490;0.6482;-6.3018;
596657130605589;-8.7341;1.3023;-0.4977;
596657140710485;-4.7142;1.7764;-2.1673;
596657150812933;-9.5773;-0.2883;-4.0693;
596657160917829;-12.2124;-0.0224;-1.4916;
596657171022673;-14.1742;0.4516;3.2752;
596657181120902;-8.8298;0.5046;2.5639;
596657191225850;-4.3908;-0.3338;-2.3566;
596657201330694;-13.0292;-0.8970;-3.5853;
596657211442621;-10.5664;0.2124;-1.1133;
596657221547464;-7.3732;0.0829;0.3577;
596657231652360;-7.4453;-0.0081;-1.7647;
596657241776371;-7.4524;-1.4073;-3.5303;
596657251881267;-10.0971;-0.9568;-4.3041;
596657261986110;-12.3703;-0.4155;-2.5385;
596657272058454;-11.4458;-0.5088;-0.2174;
596657282163350;-5.5433;-0.8707;-2.6297;
596657292268194;-5.4425;0.3727;-5.1832;
596657302386058;-10.7581;0.8853;-4.4910;
596657312490954;-12.8423;-0.3413;-1.2497;
596657322595798;-9.2201;0.1235;-0.9742;
596657332682881;-7.1025;-0.0153;-2.2271;
596657342787829;-9.5438;-0.3843;-2.6608;
596657352892673;-10.7007;-0.7077;-2.1817;
596657362999131;-10.1091;-0.2931;-2.1553;
596657373104027;-10.9020;-0.4777;-3.0990;
596657383208923;-9.7256;-0.5375;-0.4905;
596657393332933;-8.9662;-0.3676;-0.3562;
596657403437829;-8.6022;0.1140;-2.9889;
596657413542673;-9.2536;-0.1639;-4.0621;
596657423654444;-11.2014;-0.0248;-2.2654;
596657433759339;-7.9388;0.2794;-2.1625;
596657443864235;-8.7844;-0.2572;-2.2678;
596657453966371;-10.4827;-0.5088;-1.5012;
596657464071214;-9.1962;-0.1472;-1.3265;
596657474176110;-8.8585;-1.3711;-1.1587;
596657484269600;-7.7518;-0.2524;-1.7049;
596657494374496;-10.0179;-0.9951;-2.3327;
596657504479339;-11.5702;0.0374;-3.5949;
596657514590642;-11.4194;0.3272;-1.6786;
596657524695537;-8.0800;0.0470;2.1422;
596657534800381;-6.2521;-0.5016;0.1301;
596657544904183;-12.9452;-0.9832;-3.0392;
596657555009079;-12.0852;0.5213;-1.4605;
596657565113975;-6.6021;-1.3878;0.6643;
596657575219287;-9.6108;-0.6598;-2.2654;
596657585324183;-11.2708;-0.2740;-3.6212;
596657595429079;-6.8318;-0.2500;-2.0740;
596657605548454;-12.9667;-0.6168;-3.2453;
596657615653350;-17.5783;1.5320;-2.8669;
596657625758246;-6.5949;-0.0105;2.0632;
596657635841423;-6.8414;-0.3194;1.6152;
596657645946319;-10.4731;1.1967;-2.8092;
596657656051162;-9.6754;-0.2094;-1.5132;
596657666163871;-8.0201;0.0015;-2.7709;
596657676268767;-7.9436;-0.0320;-5.1114;
596657686373662;-8.7820;0.2818;-4.9005;
596657696476944;-9.6610;0.2913;-3.8082;
596657706581892;-9.5076;1.4411;-3.6380;
596657716686735;-7.2894;0.0159;-2.8164;
596657726787517;-13.4818;-0.2548;-2.8980;
596657736892360;-9.6945;-0.4633;-0.3179;
596657746997308;-5.0091;0.8064;-1.4127;
596657757124808;-13.3884;0.9404;-2.8379;
596657767229704;-9.7376;0.2076;-2.6584;
596657777334496;-3.4376;0.5572;-2.7613;
596657787433089;-8.5735;0.1953;-5.2071;
596657797537985;-13.3932;0.4493;-6.1726;
596657807642881;-11.7978;1.1871;-3.2764;
596657817738662;-6.9517;1.5802;-1.9301;
596657827843558;-5.6509;0.9930;-4.8263;
596657837948402;-9.0359;0.5644;-5.0539;
596657848053089;-5.7634;0.0829;-2.8187;
596657858157985;-14.6964;0.5955;-6.2276;
596657868262881;-15.3598;1.1082;-2.0955;
596657878346787;-3.2267;0.4134;4.3798;
596657888451735;-10.0466;0.3368;-3.3936;
596657898556631;-21.6290;-0.3532;-1.9469;
596657908679339;-8.1182;0.9595;6.0039;
596657918784235;1.0229;-0.0272;1.9555;
596657928889131;-7.0164;-1.2323;-6.5198;
596657938987100;-14.4473;-0.2812;-8.5681;
596657949091996;-14.9527;0.2483;-2.0019;
596657959196839;-10.5305;0.4158;5.5774;
596657969307204;-7.2272;-0.5088;2.1805;
596657979412100;-6.5133;-0.6885;-5.9689;
596657989516996;-8.0800;-0.3891;-6.1822;
596657999633767;-8.2190;0.0757;-3.5303;
596658009738662;-11.9824;0.5644;-1.3313;
596658019843558;-8.2789;-0.3170;2.9638;
596658029942621;-7.5051;-0.5016;-0.6317;
596658040047464;-13.6328;-1.1868;-4.4357;
596658050152360;-14.0519;-1.2538;-0.6245;
596658060233142;-12.5166;0.9595;2.7987;
596658070338037;-10.0561;0.3440;1.3181;
596658080442933;-2.9800;0.0302;-2.5313;
596658090567673;-8.7556;-0.4729;-3.8034;
596658100672569;-8.7266;-0.9712;-2.0258;
596658110777464;-6.3721;-1.1916;-6.9775;
596658120947673;-8.9040;0.4038;-10.4821;
596658131052569;-9.2608;-0.7962;-3.4848;
596658141157464;-11.6181;-0.4992;-1.6618;
596658151209912;-12.0206;1.4459;-5.1544;
596658161314808;-9.0144;0.3655;-3.8800;
596658171419652;-5.1909;0.2794;1.9795;
596658181503350;-5.3492;-0.6311;0.5300;
596658191608246;-11.2349;-0.7005;-6.3353;
596658201713089;-14.4832;-0.1878;-5.1114;
596658211847829;-13.9801;0.0924;0.5898;
596658221952725;-11.6587;-0.0826;0.3455;
596658232057621;-8.4535;0.0470;0.0197;
596658242135850;-9.4143;0.0733;0.8653;
596658252240694;-6.2498;-0.5495;-1.9158;
596658262345589;-9.2584;-0.5734;-4.3113;
596658272483767;-10.3487;-1.0525;-3.7053;
596658282588610;-7.3110;-0.4155;-2.6847;
596658292693506;-10.2670;-0.6215;-3.2022;
596658302728246;-13.2398;-0.7388;-5.3414;
596658312832985;-11.7667;0.3200;-4.3400;
596658322937777;-8.3363;-0.0535;-2.1697;
596658333087725;-6.7672;-0.2931;-0.7059;
596658343192464;-7.5984;-0.5734;0.8509;
596658353297308;-11.7260;-0.0778;-1.9277;
596658363384235;-11.1054;-0.3123;-1.2425;
596658373489027;-4.2688;-0.8441;0.5850;
596658383593871;-9.6180;-0.5782;-4.2395;
596658393705121;-12.5189;-0.3963;-5.9210;
596658403809912;-7.6104;-0.0897;-4.7160;
596658413914756;-8.3363;0.4421;-5.0348;
596658424033089;-6.6236;0.3153;-2.1458;
596658434137881;-8.1159;-1.1195;-0.9239;
596658444242725;-13.9777;-0.1591;-2.4404;
596658454359652;-8.5854;0.6194;-0.9000;
596658464464444;-6.1229;0.3559;-4.4022;
596658474569235;-9.8551;0.2818;-10.4510;
596658484648662;-11.3282;1.1441;-7.2673;
596658494753454;-12.3488;1.6161;1.5960;
596658504858246;-10.8972;2.3417;2.5472;
596658514967412;-8.3889;2.1526;-0.4543;
596658525072204;-12.9212;0.7199;-2.9315;
596658535176996;-7.6247;0.8806;-1.5132;
596658545297048;-5.7778;0.5118;-3.3290;
596658555401892;-10.0732;0.7247;-9.6078;
596658565506683;-9.1149;1.0938;-7.2386;
596658575602673;-6.0437;0.7319;-3.0655;
596658585707464;-11.2469;0.8160;-2.3471;
596658595812256;-9.2850;0.4229;-0.3467;
596658605921579;-8.4440;0.4974;-1.9014;
596658616026371;-11.2516;-0.1974;-3.1711;
596658626131162;-9.0574;-0.8034;-0.8785;
596658636228350;-4.7022;0.4277;-1.2930;
596658646333142;-7.1554;1.1177;-6.8794;
596658656437985;-11.1631;-0.4896;-7.0373;
596658666539600;-12.2578;-0.1711;-1.4198;
596658676644392;-15.8605;0.2626;1.5912;
596658686749183;-7.7710;0.2459;2.3554;
596658696847985;-3.2195;0.3990;-2.8956;
596658706952829;-11.0025;0.4831;-10.0149;
596658717057621;-10.3029;-1.2658;-4.2897;
596658727170433;-10.0322;-0.7149;0.0604;
596658737275173;-11.3809;-0.5925;-2.6608;
596658747380017;-7.8667;-1.5915;-3.8680;
596658757501214;-9.2584;-1.1390;-6.4050;
596658767606006;-10.3869;0.2195;-4.0382;
596658777710850;-9.5605;-0.3604;-4.6226;
596658787792881;-10.0899;-0.7555;-3.7436;
596658797897725;-7.0762;-1.1462;-0.2174;
596658808002517;-8.4416;-0.9855;-4.3184;
596658818124808;-10.6217;-0.1304;-4.7809;
596658828229548;-6.0870;-1.1653;-0.0568;
596658838334392;-8.5687;-0.8850;-4.6131;
596658848425954;-11.9198;-0.9568;-6.7164;
596658858530746;-8.2047;-0.9353;-2.1649;
596658868635537;-5.7227;-0.7603;-5.9019;
596658878744912;-12.3177;0.0182;-6.8985;
596658888849704;-9.8958;-0.1496;1.2296;
596658898954496;-8.7218;0.0900;-1.7169;
596658909069496;-7.6801;0.4158;-4.0095;
596658919174287;-6.6165;-0.8922;-7.7895;
596658929279079;-13.3119;0.5022;-7.6433;
596658939371892;-9.4597;0.6266;0.1301;
596658949476683;-7.2894;1.2879;-2.8211;
596658959581475;-8.1709;0.5070;-5.3964;
596658969677725;-8.1517;0.0661;-0.8856;
596658979782464;-10.4611;-0.1280;-5.1162;
596658989887308;-13.6783;0.4807;-4.3328;
596659000016892;-6.5300;0.8255;-0.3873;
596659010121683;-7.1483;1.6065;-4.0837;
596659020226527;-10.7198;1.3310;-5.2840;
596659030311579;-9.7400;0.8853;-1.1468;
596659040416371;-10.0083;1.5320;-2.0163;
596659050521162;-9.7615;1.1201;-2.6130;
596659060622204;-8.2956;0.5883;-0.8880;
596659070726996;-8.8466;0.5501;-2.2319;
596659080831839;-10.9690;-0.7364;-2.7398;
596659090950329;-7.8763;0.1546;-4.7952;
596659101055121;-8.5950;0.0278;-3.2022;
596659111159912;-8.9040;0.6434;-3.0033;
596659121273350;-10.6433;0.5166;-4.7569;
596659131378142;-10.7749;0.2650;-3.5877;
596659141482933;-8.0752;0.2411;0.3000;
596659151568246;-6.0269;-0.3027;-3.3386;
596659161673037;-10.0947;0.2746;-4.1530;
596659171777829;-12.0972;-0.9066;-2.3471;
596659181891683;-13.1728;-0.6742;-2.7063;
596659191996475;-9.7472;-0.6455;-0.8163;
596659202101267;-5.6557;-1.1195;0.4510;
596659212180798;-7.1483;-1.9582;-4.3137;
596659222285642;-9.3712;-2.1042;-7.5236;
596659232390433;-11.8840;-0.9975;-6.7307;
596659242552569;-10.2838;-0.7196;-2.7565;
596659252657360;-8.3961;0.3416;-3.4202;
596659262762152;-7.5673;-1.1004;-2.8259;
596659272829964;-8.1805;-1.0813;-2.7470;
596659282934756;-9.5557;-0.3413;-4.6801;
596659293039548;-9.5342;-0.3772;-5.7867;
596659303110381;-8.4921;0.5979;-4.9029;
596659313215173;-8.8992;0.5859;-5.3079;
596659323320017;-9.2321;1.0196;-5.0061;
596659333472308;-7.6271;1.3430;-1.8129;
596659343577152;-8.2765;1.5538;-1.9349;
596659353681944;-7.4692;1.4124;-5.7461;
596659363786527;-9.3281;0.0278;-8.0219;
596659373891371;-11.3019;1.3980;-4.6298;
596659383996214;-8.8896;1.6232;-0.3730;
596659394082152;-6.9852;0.7199;-2.4954;
596659404186996;-8.5113;0.7128;-6.3595;
596659414291787;-10.7964;1.4052;-6.2276;
596659424419964;-11.4338;1.5467;-3.7531;
