Sensor: bmi160 Accelerometer Non-wakeup
Vendor: BOSCH
TimestampAcc [ns]; AccX [m/s^2]; AccY [m/s^2]; AccZ [m/s^2]
2763136715869689;-9.1938;-0.5949;-2.5863;
2763136725972137;-9.1699;-0.3963;-2.7470;
2763136736057606;-9.4214;-0.3389;-2.5002;
2763136746102606;-9.6371;-0.5997;-1.9564;
2763136756250210;-9.6156;-0.8731;-1.5302;
2763136766295210;-9.5315;-0.4155;-1.8679;
2763136776507293;-9.3401;-0.1759;-2.2822;
2763136786606408;-9.3353;-0.3556;-2.2845;
2763136796727085;-9.4717;-0.5160;-2.3566;
2763136806826304;-9.5510;-0.5231;-2.2487;
2763136816919637;-9.4382;-0.5112;-2.0354;
2763136827022502;-9.3975;-0.5375;-2.1099;
2763136837166043;-9.5028;-0.6885;-2.1793;
2763136847264637;-9.5195;-0.7077;-2.1840;
2763136857366512;-9.4789;-0.6814;-2.1505;
2763136867465991;-9.4908;-0.7101;-2.2558;
2763136877571200;-9.4789;-0.7579;-2.2917;
2763136887675210;-9.4310;-0.7795;-2.2128;
2763136897785575;-9.4549;-0.8154;-2.1075;
2763136907882502;-9.5581;-0.9305;-2.1242;
2763136917984533;-9.6108;-1.1100;-2.0788;
2763136928099429;-9.5557;-1.1267;-2.1099;
2763136938207762;-9.5510;-1.0860;-2.2080;
2763136948313179;-9.5414;-1.1725;-2.2798;
2763136958422710;-9.5342;-1.3687;-2.3830;
2763136968536616;-9.5629;-1.5245;-2.5241;
2763136978677866;-9.5291;-1.7234;-2.6201;
2763136988751616;-9.5052;-1.9702;-2.7206;
2763136998837085;-9.4956;-2.2720;-2.7039;
2763137008965939;-9.5581;-2.6169;-2.7015;
2763137019090939;-9.6491;-2.9904;-2.8980;
2763137029191981;-9.6921;-3.4552;-3.1038;
2763137039324845;-9.6778;-3.6278;-3.2189;
2763137049396772;-9.6036;-3.6637;-3.3266;
2763137059480314;-9.5267;-3.8219;-3.4178;
2763137069623335;-9.5315;-3.9344;-3.4777;
2763137079703700;-9.5366;-3.7810;-3.3888;
2763137089826981;-9.6084;-3.4528;-3.4202;
2763137099926929;-9.5988;-3.1032;-3.5734;
2763137110052554;-9.4669;-3.1726;-3.5016;
2763137120141512;-9.4095;-3.6422;-3.0607;
2763137130252189;-9.5172;-3.2611;-3.4011;
2763137140357554;-9.3832;-2.9833;-3.4944;
2763137150483960;-9.2656;-2.6312;-3.6021;
2763137160571720;-9.2827;-2.4538;-3.6356;
2763137170694689;-9.3138;-2.2768;-3.3314;
2763137180790002;-9.2683;-1.9845;-2.8211;
2763137190899741;-9.2560;-1.5748;-2.5457;
2763137200994168;-9.2441;-1.1773;-2.6201;
2763137211159793;-9.1651;-0.6718;-2.8020;
2763137221218075;-9.0311;-0.0248;-3.0751;
2763137231326720;-8.9949;0.4636;-3.1926;
2763137241435783;-9.1795;0.4086;-2.9411;
2763137251563335;-9.3042;0.1522;-2.3973;
2763137261651095;-9.2465;0.2363;-1.9708;
2763137271758387;-9.1531;0.7705;-1.8655;
2763137281861825;-9.0407;1.4219;-1.9469;
2763137291988543;-9.0168;2.0040;-2.2080;
2763137302075262;-9.0718;2.3563;-2.3997;
2763137312190835;-9.0718;2.4090;-2.3157;
2763137322299741;-9.0646;2.3683;-2.0043;
2763137332392762;-9.1053;2.2675;-1.6642;
2763137342519585;-9.1364;1.9059;-1.3624;
2763137352628335;-9.2369;1.7022;-1.3504;
2763137362737345;-9.3090;1.8365;-1.7647;
2763137372844950;-9.1771;1.9490;-2.2128;
2763137382949012;-9.0144;1.5754;-2.3351;
2763137393055991;-9.0670;0.9811;-2.1386;
2763137403171929;-9.2946;0.4998;-1.7671;
2763137413276408;-9.4765;0.1307;-1.4653;
2763137423377866;-9.7663;0.0757;-1.6929;
2763137433474481;-9.8216;0.7609;-2.9770;
2763137443591252;-9.4119;0.3057;-3.1926;
2763137453694950;-9.2225;-0.2835;-2.7805;
2763137463806825;-9.5243;-0.4274;-2.1458;
2763137473915575;-9.6778;-0.5207;-1.7527;
2763137484026512;-9.3209;-0.5064;-1.7551;
2763137494130262;-9.0933;-0.0849;-2.5361;
2763137504250575;-8.6429;0.3416;-2.8618;
2763137514345575;-8.7051;2.1239;-3.1519;
2763137524452502;-9.3353;1.4554;-3.8967;
2763137534560991;-9.5677;0.2459;-1.6403;
2763137544663595;-9.4023;0.3033;-1.5179;
2763137554779950;-9.2321;0.4397;-1.7097;
2763137564878283;-9.5004;0.1355;-1.6810;
2763137574992033;-10.2718;0.4038;-2.0426;
2763137585103127;-9.8982;1.1752;-2.5265;
2763137595192502;-8.9518;1.4913;-2.3495;
2763137605325002;-8.3602;2.4257;-2.5504;
2763137615425575;-8.0680;3.2593;-2.4691;
2763137625535262;-8.2789;3.8701;-2.3590;
2763137635637554;-8.8107;5.5110;-3.2620;
2763137645749950;-9.3281;6.0595;-3.1062;
2763137655833127;-9.6347;4.6822;-1.6929;
2763137665957918;-9.6227;4.2030;-1.6857;
2763137676071825;-9.5653;4.1384;-2.2128;
2763137686168179;-8.8992;3.2976;-1.7743;
2763137696292762;-7.9484;2.4305;-1.5541;
2763137706403335;-7.7566;2.7610;-3.5758;
2763137716494220;-8.4512;3.1588;-5.7796;
2763137726609950;-9.5940;1.9059;-5.1329;
2763137736708491;-11.1990;0.7753;-3.5160;
2763137746815054;-10.6337;0.2650;-1.9875;
2763137756928908;-8.4320;0.3631;-1.3433;
2763137767024845;-6.7863;1.0244;-1.7503;
2763137777136095;-7.3588;1.6519;-2.2463;
2763137787244533;-9.6036;1.8652;-2.7470;
2763137797351200;-10.4779;2.6677;-5.2214;
2763137807465158;-10.4707;3.6616;-7.8709;
2763137817566825;-8.7724;2.9288;-5.7437;
2763137827676825;-7.3445;1.4602;-1.6427;
2763137837804116;-8.8202;1.9705;-1.2739;
2763137847894272;-9.1149;2.9145;-2.1266;
2763137857989429;-8.3530;2.5095;-2.9435;
2763137868084689;-10.6217;2.3369;-4.4118;
2763137878206929;-10.9786;2.6797;-3.7627;
2763137888302033;-9.2249;2.3130;-2.3109;
2763137898397241;-8.6189;2.2747;-2.5792;
2763137908550835;-7.5266;1.9418;-1.8129;
2763137918645991;-7.6295;1.7309;-2.1793;
2763137928741200;-10.9857;2.1790;-4.0143;
2763137938848335;-9.9317;1.3645;-2.6991;
2763137948943491;-7.2392;1.4435;-2.4069;
2763137959038700;-9.8839;2.8977;-5.3725;
2763137969193075;-9.8934;2.5645;-5.1377;
2763137979288231;-9.2010;1.8485;-3.6814;
2763137989383439;-9.9628;1.6113;-2.1529;
2763137999482710;-7.4501;1.5682;-0.6963;
2763138009577814;-8.4802;2.6629;-2.6560;
2763138019673075;-11.3426;2.9432;-4.3400;
2763138029842397;-9.8886;2.4616;-2.7565;
2763138039937554;-7.3899;2.2292;-0.5551;
2763138050032710;-6.2976;2.2675;0.3721;
2763138060145887;-8.4921;4.0044;-4.7474;
2763138070240991;-13.9537;4.5553;-7.9549;
2763138080336252;-10.6648;1.2784;-1.1539;
2763138090473752;-7.2846;2.0016;-1.0223;
2763138100568856;-8.5065;4.0283;-4.3113;
2763138110664064;-7.5194;3.0652;-2.8837;
2763138120795106;-7.3158;3.4678;-5.1832;
2763138130890314;-8.9638;3.2210;-6.8312;
2763138140985522;-12.8207;-0.1256;0.2689;
2763138151112189;-11.8409;-2.3222;6.5118;
2763138161207345;-10.6265;0.1834;0.8967;
2763138171302554;-12.0637;4.2607;-10.5443;
2763138181435054;-7.5051;3.9589;-9.8088;
2763138191530210;-3.0757;0.8160;-2.0716;
2763138201625418;-6.5659;0.9906;-3.1038;
2763138211776043;-14.2819;1.1919;-3.6260;
2763138221871147;-13.1656;-2.7317;2.7724;
2763138231966356;-8.8561;-0.8058;0.3431;
2763138242093231;-6.9685;4.5888;-8.9345;
2763138252188439;-6.9733;4.3493;-7.8087;
2763138262283595;-3.8016;2.0160;-1.2209;
2763138272416356;-5.3731;2.8472;-2.2558;
2763138282511512;-18.1125;5.6859;-8.1177;
2763138292606720;-16.3421;3.6257;-0.0162;
2763138302732137;-8.2621;2.5262;3.7113;
2763138312827293;-4.8724;7.7175;-6.6326;
2763138322922502;-3.5859;12.0724;-13.3137;
2763138333051460;-0.9293;9.2312;-6.2827;
2763138343146616;-11.1535;6.4837;-1.2114;
2763138353241825;-17.5349;6.3975;0.8557;
2763138363388856;-10.0971;4.7710;2.8059;
2763138373484012;-5.8379;9.4301;-8.5872;
2763138383579220;-6.3888;9.4301;-9.2363;
2763138393701877;-4.3956;3.4606;-0.6628;
2763138403797033;-3.6075;0.5189;2.3698;
2763138413892241;-8.3195;2.7179;-5.1497;
2763138424015054;-16.7710;2.3755;-9.0182;
2763138434110158;-11.4529;-1.7330;-0.6748;
2763138444205366;-3.0948;-0.5495;-2.1434;
2763138454354377;-6.3721;1.5993;-10.1444;
2763138464449533;-12.6027;-2.5259;-5.4754;
2763138474544741;-11.5439;-6.0473;-0.9694;
2763138484673231;-11.2182;-1.8072;-4.1387;
2763138494768387;-9.3497;-3.5366;-1.6762;
2763138504863595;-8.3865;-3.5438;-2.4117;
2763138515010835;-11.8002;-4.0854;-1.4151;
2763138525105991;-12.3870;-2.8971;-2.0163;
2763138535201200;-13.2015;-1.3065;-4.7665;
2763138545316825;-6.1516;-1.9125;-1.6307;
2763138555411981;-3.6075;0.3990;-3.1711;
2763138565507189;-10.3606;1.4554;-4.3974;
2763138575635418;-14.1168;2.3922;-3.2812;
2763138585730575;-12.8255;2.0566;0.0700;
2763138595825783;-6.1947;1.3119;1.0834;
2763138605956252;-7.5912;2.6964;-4.3232;
2763138616051408;-9.4406;3.9924;-3.9592;
2763138626146616;-6.5539;4.7662;-4.5341;
2763138636281720;-11.2564;3.6114;-3.4011;
2763138646376877;-15.4173;2.8232;0.7935;
2763138656472085;-9.1077;1.6424;1.5529;
2763138666607085;-7.7949;2.0183;-2.5313;
2763138676702241;-7.9074;3.2474;-2.7924;
2763138686797450;-11.7141;4.6822;-2.1793;
2763138696926252;-9.1244;3.1083;0.4463;
2763138707021408;-2.7045;3.4223;-5.3940;
2763138717116616;-12.8279;5.1805;-7.3247;
2763138727242450;-13.7357;5.7218;-2.8860;
2763138737337606;-4.7336;4.2320;-3.9254;
2763138747432814;-7.2799;3.5779;-7.0636;
2763138757568231;-10.3558;4.7252;-6.1965;
2763138767663439;-7.9484;4.2176;-3.1807;
2763138777758595;-5.5816;2.9527;-3.5590;
2763138787881408;-6.7720;3.1804;-8.8388;
2763138797976564;-12.7104;5.4870;-11.9073;
2763138808071772;-14.8615;3.9876;-5.7820;
2763138818201304;-2.9919;3.7792;-4.2036;
2763138828296512;-3.2746;3.6568;-11.7757;
2763138838391668;-9.7352;4.1408;-11.2798;
2763138848549377;-7.1339;6.0236;-6.1822;
2763138858644585;-5.6749;5.9327;-7.7824;
2763138868739741;-6.4534;5.2235;-7.0732;
2763138878853231;-4.8580;6.6251;-7.4686;
2763138888948439;-5.0880;7.8849;-10.7169;
2763138899043595;-11.4553;7.3029;-9.4807;
2763138909190887;-10.4204;7.7581;-7.7082;
2763138919286043;-8.9973;6.3494;-6.5318;
2763138929381252;-5.7467;4.4019;-5.2669;
2763138939504689;-4.8150;2.6246;-5.4969;
2763138949599845;-6.5563;1.2446;-4.1770;
2763138959695054;-5.2869;0.4014;-4.8311;
2763138969828231;-6.6858;-1.1821;-5.4132;
2763138979923439;-9.4167;-2.4972;-5.5642;
2763138990018647;-11.5104;-3.0840;-5.4395;
2763139000158960;-13.7620;-4.7871;-4.3137;
2763139010254116;-11.4936;-4.6340;0.3455;
2763139020349325;-5.6246;-3.4481;1.0020;
2763139030465991;-2.7523;-3.5294;-2.6225;
2763139040561147;-1.9905;-3.0171;-4.3831;
2763139050656356;-1.8422;-3.1223;-8.0052;
2763139060788022;-12.9188;-5.0507;-10.0268;
2763139070883127;-25.8329;-4.7847;-2.0979;
2763139080978387;-14.9336;-0.4753;2.6836;
2763139091129481;-11.6925;1.2541;3.0383;
2763139101224637;-5.3946;4.7061;4.5018;
2763139111319845;-7.4213;6.6105;-1.0319;
2763139121439689;-11.8576;5.5445;0.0508;
2763139131534897;-10.2550;2.8810;0.6066;
2763139141630106;-5.9695;0.8782;-2.8693;
2763139151760158;-16.9098;-0.6694;-5.1257;
2763139161855314;-21.5617;3.9757;-1.3098;
2763139171950522;-8.1685;5.8968;1.7853;
2763139182075262;-2.0506;1.5993;-2.3830;
2763139192170418;-9.4573;1.9226;-4.4405;
2763139202265627;-8.8107;3.6954;-2.7206;
2763139212396512;-5.7754;3.2856;-1.9516;
2763139222491668;-5.2053;2.2962;-3.7077;
2763139232586877;-10.8108;1.6041;-6.2515;
2763139242732137;-7.2655;4.0164;-8.0411;
2763139252827293;-11.7715;2.6366;-9.8306;
2763139262922502;-16.7396;5.2092;-8.1870;
2763139273063439;-5.5840;4.8356;-2.0836;
2763139283158647;3.6006;0.4735;-2.0764;
2763139293253856;-6.8895;-0.5638;-8.0865;
2763139303375783;-17.5926;2.2866;-3.6165;
2763139313470939;-12.4349;0.7896;-0.7397;
2763139323566095;-6.9230;-2.0276;-5.2071;
2763139333699637;-10.7294;0.4181;-5.1138;
2763139343794741;-10.4109;0.9547;-4.5820;
2763139353889950;-4.7767;-0.2118;-5.0898;
2763139364028752;-6.1756;-0.1926;-7.2242;
2763139374123908;-13.4626;-0.2022;-7.0086;
2763139384219116;-8.6381;-0.0464;-3.8895;
2763139394349689;-7.3421;-1.8550;-9.7801;
2763139404444845;-14.4473;-0.5016;-5.4945;
2763139414540054;-9.6347;-1.4671;-5.5810;
2763139424668647;-6.7409;-2.2744;-3.3649;
2763139434763804;-3.0541;-1.0573;-4.7713;
2763139444859012;-11.3210;-0.2500;-4.1483;
2763139454994064;-10.2263;-1.1797;-4.4166;
2763139465089220;-9.3449;-0.7292;-2.1817;
2763139475184429;-10.7581;-1.2802;-4.0525;
2763139485324220;-6.5276;-1.1677;-3.0129;
2763139495419377;-8.0249;-0.8827;-6.0503;
2763139505514585;-9.8360;-0.3772;-7.8613;
2763139515639897;-11.9222;-0.2046;-5.7915;
2763139525735054;-5.0186;-1.0789;-3.8632;
2763139535830262;-10.6241;-1.4599;-6.9990;
2763139545961200;-14.2508;-0.8680;-3.8154;
2763139556066252;-7.2966;-1.1509;-3.1831;
2763139566171304;-7.9122;-1.9630;-4.2610;
2763139576280887;-8.2765;-0.0730;-2.5385;
2763139586385939;-7.4716;-0.2261;-4.9699;
2763139596490991;-13.9107;0.6625;-6.0622;
2763139606606825;-10.2024;-0.3365;-4.3256;
2763139616711877;-15.6640;-0.5566;-4.3496;
2763139626816929;-10.1067;-1.1219;0.0628;
2763139636934429;-1.3367;-1.1195;0.4439;
2763139647039481;2.2950;-1.2395;-2.9554;
2763139657144533;-11.6925;0.9476;-8.2591;
2763139667256929;-9.2106;2.7084;-10.4055;
2763139677361981;-6.2282;2.6581;-10.2640;
2763139687467033;-12.9260;2.4640;-12.0368;
2763139697579116;-9.8575;2.6988;-3.5686;
2763139707684168;-13.8099;-0.6335;0.9876;
2763139717789220;-8.7509;-2.1616;3.0814;
2763139727889950;-8.9351;-2.9378;1.2176;
2763139737995002;-13.4507;-2.1688;-2.9339;
2763139748100054;-8.4153;0.7801;-0.4786;
2763139758217293;-3.9526;1.7453;-4.3424;
2763139768322293;-7.7040;1.9944;-9.7920;
2763139778427345;-16.0834;4.9313;-7.9092;
2763139788551356;-8.1422;2.0112;-4.6035;
2763139798656408;-7.9962;0.3224;-3.6643;
2763139808761408;-9.4382;-0.8441;-2.9602;
2763139818845418;-8.7867;-0.5447;-3.9206;
2763139828950418;-5.7658;-0.5399;-2.5122;
2763139839055470;-7.8763;0.6242;-0.8833;
2763139849195783;-22.4961;2.3874;-0.9168;
2763139859300835;-2.4434;-0.3437;2.1733;
2763139869405887;0.0622;-1.0286;1.0618;
2763139879493804;-19.9762;-1.1028;-4.0597;
2763139889598856;-3.8016;1.3884;-5.5738;
2763139899703908;-11.0312;0.2435;-9.6867;
2763139909832137;-11.0121;0.6482;-9.8354;
2763139919937189;-2.0145;2.1742;-7.1139;
2763139930042241;-2.1870;1.7548;-6.8384;
2763139940145210;-6.0269;1.3358;-8.8005;
2763139950250210;-15.1394;1.6950;-6.4241;
2763139960355262;-15.4343;1.4865;1.4524;
2763139970502658;-9.8360;-0.3003;2.7458;
2763139980607710;-5.5385;-3.5752;-1.7264;
2763139990712762;-10.5138;-2.0803;-4.0334;
2763140000816720;-9.6921;1.0436;0.3601;
2763140010921772;-5.8762;1.7907;-3.9664;
2763140021026825;-9.6371;0.6817;-4.5437;
2763140031114793;-3.6290;2.7586;-11.3563;
2763140041219793;-24.5468;1.8317;-12.4056;
2763140051324845;-3.4065;4.1384;4.7007;
2763140061447554;3.9168;-0.0921;-2.7565;
2763140071552606;-19.1928;-4.0780;-3.3529;
2763140081657658;-8.8657;4.2727;4.3244;
2763140091754689;-9.0048;0.9691;-0.4690;
2763140101859689;-11.5774;-0.9592;-2.8884;
2763140111964741;-5.9097;2.6151;-0.2605;
2763140122093387;-6.2833;1.9178;-1.6499;
2763140132198439;-10.5879;0.8088;-3.3147;
2763140142303491;-7.2224;1.5368;-7.5356;
2763140152417137;-14.4353;-0.9233;-10.7862;
2763140162522189;-9.3712;1.1584;-4.1722;
2763140172627241;-5.4425;0.4783;-3.4992;
2763140182732918;-12.0015;-1.0454;-3.5973;
2763140192837918;-9.3042;-0.2835;-0.5551;
2763140202942970;-7.9364;-0.4681;-1.5972;
2763140213060627;-11.4194;-1.9869;1.5290;
2763140223165679;-4.6113;-0.7914;-1.8248;
2763140233270731;-9.2393;-2.5044;-5.3509;
2763140243374793;-12.4540;-0.5925;-4.5556;
2763140253479793;-8.3100;1.1034;-5.7126;
2763140263584845;-10.0155;-0.5662;-9.4280;
2763140273703700;-11.8002;0.9069;-5.6480;
2763140283808752;-5.7347;2.2603;-0.7011;
2763140293913804;-8.4440;-0.0009;-4.1674;
2763140304028283;-10.1210;0.1259;-4.1889;
2763140314133335;-5.6175;1.6831;-1.5829;
2763140324238387;-3.5788;1.1847;-5.5352;
2763140334345106;-10.6433;1.6639;-8.9704;
2763140344450106;-3.7801;4.2559;-7.5954;
2763140354555158;-0.8408;4.4931;-9.4663;
2763140364671825;-15.1514;3.2545;-11.6749;
2763140374776877;-22.9008;4.9026;-5.9163;
2763140384881929;-30.6984;6.9413;3.2994;
2763140394995887;-16.0499;2.1335;10.4952;
2763140405100939;5.8546;0.5237;10.8739;
2763140415205991;-0.0024;3.2498;5.5510;
2763140425313439;-10.0756;5.0728;-2.0115;
2763140435418439;-9.2249;5.1254;-10.4198;
2763140445523491;-11.2277;2.7156;-14.7341;
2763140455640991;-7.3038;2.0833;-12.3649;
2763140465746043;-1.1545;1.7692;-8.0315;
2763140475851095;-8.3291;-1.0741;-4.6705;
2763140485963387;-13.2927;-2.4203;-0.2414;
2763140496068439;-16.1312;-2.0539;4.0131;
2763140506173491;-4.7862;-2.7655;7.8485;
2763140516293179;-4.6902;-3.3930;9.7433;
2763140526398231;-9.6921;-3.6182;1.6848;
2763140536503283;-7.9460;-2.0492;-6.3978;
2763140546612866;-19.8251;0.3679;-21.1445;
2763140556719950;-14.0566;5.5493;-21.2450;
2763140566827033;1.5858;6.2680;-8.0028;
2763140576939325;1.8087;1.4243;-3.1301;
2763140587046408;-26.8558;-3.0864;2.1254;
2763140597153491;-19.4827;-7.1348;11.1039;
2763140607254220;-1.2529;-4.7919;8.6219;
2763140617361304;2.4888;-4.1548;2.9231;
2763140627468387;-12.6194;-5.9273;-0.4424;
2763140637574377;-21.3368;-7.7097;-4.5030;
2763140647681460;-12.3847;-6.5240;-4.9531;
2763140657788543;0.9799;-4.9884;-7.8781;
2763140667899325;-9.7711;-2.4156;-8.9608;
2763140678006408;-11.2780;-2.5666;-2.7517;
2763140688113491;-5.6462;-3.7355;-6.1008;
2763140698215262;-20.1341;-3.1558;-2.2510;
2763140708322345;-15.6353;-1.8479;1.4620;
2763140718429429;0.4337;-0.3242;3.4430;
2763140728555575;-2.4912;-1.9989;1.3134;
2763140738662658;-17.4559;-4.0708;-6.9368;
2763140748769741;-14.3587;-2.7488;-6.1654;
2763140758857241;-4.4459;-2.5522;-5.0300;
2763140768964325;1.2577;-3.3021;-8.4458;
2763140779071408;-11.9704;-2.4514;-8.0530;
2763140789202658;-10.5305;-0.0730;-5.3151;
2763140799309741;-13.7548;0.3176;-3.9473;
2763140809416825;-12.8327;0.0709;-1.1635;
2763140819492137;-6.8967;1.4435;4.1378;
2763140829599220;0.0383;0.5620;0.4391;
2763140839706304;-9.4119;-0.7699;-7.0014;
2763140849849325;-19.3436;2.8759;-8.1823;
2763140859956408;-2.6231;4.5841;-6.9583;
2763140870063491;-2.9369;3.3215;-9.4089;
2763140880158387;-16.6152;5.0512;-4.6609;
2763140890265470;-5.5887;2.9384;1.8763;
2763140900372554;-3.7729;0.9571;-3.6500;
2763140910478543;-13.7859;1.6089;-6.9392;
2763140920585627;-15.1588;4.5864;-4.2826;
2763140930692710;-9.0191;3.9805;2.7652;
2763140940806408;-1.1234;-0.3915;4.0801;
2763140950913491;-0.3114;1.1154;-6.9918;
2763140961020575;-20.2397;3.4678;-12.7843;
2763140971130054;-14.5382;3.1011;-4.4285;
2763140981237137;-4.7815;3.3120;-3.7125;
2763140991344220;-3.1119;1.5969;-1.4701;
2763141001466200;-4.4339;1.7716;-3.6718;
2763141011573283;-14.7802;1.2350;-7.8206;
2763141021680366;-15.8007;-3.1175;2.6644;
2763141031778491;-0.9437;-3.9751;3.6084;
2763141041885575;-6.1134;-0.7986;-7.9116;
2763141051992658;-6.6500;-1.8503;-6.0096;
2763141062098908;-11.7571;-0.4801;-6.3452;
2763141072205991;-16.8524;-1.5508;-7.7154;
2763141082313075;-8.4873;-2.7245;0.0942;
2763141092440575;-7.5793;-1.9388;0.3840;
2763141102547658;-12.9619;-2.8780;2.8155;
2763141112654741;-11.1006;-2.6719;0.4104;
2763141122752554;-7.1698;-1.1964;-5.8780;
2763141132859637;-11.4553;0.4181;-2.5600;
2763141142966720;-9.3185;-1.2012;-1.4797;
2763141153070679;-10.9140;-1.0741;-3.5518;
2763141163177762;-8.6261;-1.0119;-1.8224;
2763141173284845;-5.5241;-0.4155;-6.0431;
2763141183394325;-3.4089;0.3464;-7.9259;
2763141193501408;-13.9944;1.6615;-5.3390;
2763141203608491;-13.8413;1.8269;-2.3180;
2763141213721408;-5.7084;1.0460;0.9230;
2763141223828491;-6.8222;-0.7436;-3.7436;
2763141233935575;-10.5090;0.9117;-6.1463;
2763141244043075;-10.1521;3.7098;-3.2046;
2763141254150158;-5.9169;3.0102;-5.7700;
2763141264257241;-12.7415;2.7873;-6.0191;
2763141274369637;-13.6161;2.6749;-0.3514;
2763141284476720;-1.8541;1.7764;1.0977;
2763141294583804;-11.7619;-1.4073;-4.8096;
2763141304682866;-5.7826;0.3416;-4.6968;
2763141314789950;-12.5405;2.1957;-2.2965;
2763141324897033;-12.5118;-0.1783;-0.7349;
2763141334977345;-3.7370;-1.2012;3.2847;
2763141345084377;-3.9117;-2.0061;-5.0157;
2763141355191460;-19.3771;-1.0478;-7.1477;
2763141365298543;-11.6324;0.8734;-2.1075;
2763141375434533;-1.9475;0.2937;-3.6188;
2763141385541616;-4.5299;-1.5915;-3.8752;
2763141395648700;-16.5410;-0.0296;-6.1606;
2763141405758700;-15.4511;1.7022;-0.7178;
2763141415865783;-3.8207;-1.5245;-0.0162;
2763141425972866;-12.0015;-1.9822;-3.8010;
2763141436084220;-10.1904;-0.1184;-1.2954;
2763141446191304;-6.1756;1.1560;-2.9004;
2763141456298387;-5.6725;-0.9640;-3.9039;
2763141466416877;-7.0092;0.2267;-5.9689;
2763141476523960;-19.7103;0.3655;-9.0832;
2763141486631043;-9.9748;1.7309;-1.9588;
2763141496735627;-1.2793;0.7008;-0.5886;
2763141506842710;-2.3931;-0.9353;-6.9416;
2763141516949793;-15.1780;0.3703;-9.5309;
2763141527056616;-18.8094;4.4713;2.0895;
2763141537163700;-8.0369;4.4665;5.9438;
2763141547270783;0.4935;-1.9101;-2.5672;
2763141557350002;-11.3737;-4.1357;-10.8245;
2763141567457085;-16.4474;2.9121;-4.0286;
2763141577564168;-5.7275;5.1494;-2.6560;
2763141587708283;-10.2048;0.9308;-5.0372;
2763141597815366;-11.5487;0.1666;-1.4940;
2763141607922450;-0.7618;1.4052;0.1397;
2763141618021408;-7.7782;-0.3027;-9.6604;
2763141628128491;-16.7539;0.9547;-10.1946;
2763141638235575;-7.5721;3.8629;-0.9048;
2763141648329741;-9.3138;3.2091;-0.5480;
2763141658436825;-9.4621;-0.7149;2.3339;
2763141668543908;-4.0531;0.2315;-1.7527;
2763141678717137;-11.1317;-0.2859;-12.3649;
2763141688824220;-6.9422;1.3621;-5.0180;
2763141698931304;-13.1393;4.1049;-1.1492;
2763141708982137;-8.8609;2.1335;-4.7928;
2763141719089220;-7.5434;0.7442;-3.7244;
2763141729196304;-6.4271;0.8279;-4.2009;
2763141739350054;-9.7759;1.4195;-4.9531;
2763141749457137;-13.7333;1.4626;-2.0907;
2763141759564220;-10.5305;0.9619;-0.7059;
2763141769624845;-4.4459;0.6649;-2.3157;
2763141779731929;-10.2933;0.1810;-0.2629;
2763141789839012;-5.5409;0.7920;-4.5843;
2763141799956304;-13.5320;1.3860;-6.5390;
2763141810063387;-13.8389;1.8078;-2.4260;
2763141820170470;-8.4272;1.1991;0.2330;
2763141830298804;-5.4879;-0.8082;0.5157;
2763141840405887;-7.4022;-0.7507;-2.8164;
2763141850512970;-13.6041;0.6123;-6.8865;
2763141860601616;-12.5261;0.0565;-1.8057;
2763141870708700;-4.5993;-0.2548;-1.7695;
2763141880815783;-5.0689;-0.8898;-4.8838;
2763141890906095;-0.9823;-0.2979;-7.6026;
2763141901013179;-20.1198;1.9059;-7.9621;
2763141911120262;-14.8905;-0.6455;-0.1430;
2763141921246720;-4.8676;-1.3687;0.4941;
2763141931353804;-11.4075;-2.6647;0.9374;
2763141941460887;-3.3535;-1.9941;1.2129;
2763141951558960;-19.6693;0.7872;-8.0219;
2763141961666043;-12.8231;0.6601;-2.3495;
2763141971773127;1.6481;-0.3338;-0.5743;
2763141981891512;-6.8366;0.0087;-7.9597;
2763141991998595;-11.3474;0.0302;-7.4423;
2763142002105679;-14.1574;1.4483;-5.9880;
2763142012204793;-10.4181;1.0699;-3.4537;
2763142022311877;-8.8537;0.3751;3.5291;
2763142032418960;-1.1809;-1.5485;5.5582;
2763142042535575;-10.0585;-1.3161;-5.9474;
2763142052642658;-8.4200;-0.6598;-8.9106;
2763142062749741;-14.1191;2.6127;-6.3739;
2763142072865158;-18.6296;2.4520;-2.5457;
2763142082972241;-0.5222;0.3200;0.3096;
2763142093079325;1.1979;-0.1328;-9.2387;
2763142103206408;-16.6822;0.8638;-7.9451;
2763142113313491;-10.0442;2.9049;2.1422;
2763142123420575;-5.0880;1.3645;-3.8034;
2763142133519429;-16.0738;-1.0047;-6.8865;
2763142143626512;-12.6075;-0.4298;1.3804;
2763142153733595;-1.7752;1.7548;1.3301;
2763142163827866;-12.5524;-0.4825;-2.6225;
2763142173934950;-19.1016;0.5548;-2.6512;
2763142184042033;-13.6304;1.0651;-0.7253;
2763142194160575;9.7666;-0.6024;2.8657;
2763142204267658;2.9847;0.4205;-12.4774;
2763142214374741;-32.4183;1.7070;-20.2053;
2763142224475470;-10.9235;2.1574;2.2454;
2763142234582554;5.9671;3.1923;2.5232;
2763142244689637;-11.3521;-2.7269;-9.0401;
2763142254805470;-11.5247;-4.4495;-3.3649;
2763142264912554;-5.9216;2.2507;-0.4881;
2763142275019637;-8.2884;-0.6646;-8.2014;
2763142285122658;-17.9207;-0.9784;-3.6595;
2763142295229741;-10.4874;0.3727;2.6501;
2763142305336825;-1.6504;-0.8130;-7.1282;
2763142315452137;-4.7456;0.6673;-9.9120;
2763142325559220;-6.1612;1.8341;-5.8708;
2763142335666304;-19.4922;0.3105;6.9787;
2763142345775366;-13.5802;-0.4394;-1.9804;
2763142355882450;-9.6754;-1.7737;-10.0196;
2763142365989533;5.5217;-2.1138;3.2608;
2763142376084950;-12.2387;2.2388;-4.8622;
2763142386192033;-16.9672;0.2195;-7.1354;
2763142396299116;-7.5673;0.2746;0.6404;
2763142406414325;-13.4435;-0.2142;-1.2763;
2763142416521408;-0.6586;-1.5748;-2.3925;
2763142426628491;-16.3852;0.8375;-11.3946;
2763142436735887;-13.7453;2.5358;0.1277;
2763142446842970;-7.2081;1.1393;5.9533;
2763142456950054;-5.3013;-2.4132;3.5028;
2763142467055575;0.8049;-2.1855;-9.1286;
2763142477162658;-15.5874;0.7080;-18.8782;
2763142487269741;-0.2252;3.2067;-6.0335;
2763142497385262;2.6758;4.3397;-2.4643;
2763142507492345;-7.0810;0.6123;-7.9884;
2763142517599429;-28.2452;0.1642;-6.6637;
2763142527704533;-26.5397;2.2962;9.3933;
2763142537811616;-18.2704;4.7157;8.4401;
2763142547918700;5.0426;-2.8875;7.1632;
2763142558020835;-0.3616;-4.4112;-1.3744;
2763142568128491;-16.2221;-0.3218;-4.5221;
2763142578236147;-8.7051;1.3430;-6.1630;
2763142588365158;-3.3033;3.6042;-12.7241;
2763142598472814;-8.0297;3.4128;-7.3702;
2763142608580470;-14.2914;3.0700;0.6090;
2763142618720210;-14.8543;0.7394;7.1106;
2763142628827866;3.4759;-3.3260;11.7314;
2763142638935522;2.3333;-4.7991;-9.9168;
2763142648983856;-20.5056;-5.8531;-22.9026;
2763142659091564;-14.5669;-0.9544;-14.9713;
2763142669199168;-5.8475;5.1637;-11.3635;
2763142679351147;-4.4844;5.7673;-2.1864;
2763142689458804;-17.8585;0.7920;7.2924;
2763142699566460;-7.2607;0.6529;3.8671;
2763142709632085;-11.8887;1.7572;-4.6753;
2763142719739741;-13.3645;-1.1868;6.2169;
2763142729847397;-6.8127;-0.7316;4.4563;
2763142739959220;-4.6065;-1.8742;-4.2347;
2763142750066825;-8.6142;-2.8397;-5.7102;
2763142760174481;-18.0547;0.6984;-5.5328;
2763142770258127;-10.9283;3.8940;-2.5528;
2763142780365783;-3.3969;2.6533;-5.8995;
2763142790473387;-9.8958;-0.8010;-8.0291;
2763142800620627;-16.0881;0.5022;0.7313;
2763142810728283;6.7409;1.3956;1.6367;
2763142820835939;-15.0700;-1.6851;-12.6428;
2763142830933022;-29.0572;-1.7067;-1.2858;
2763142841040679;-5.8642;4.7590;4.7151;
2763142851148335;0.2180;-0.5040;-2.9530;
2763142861248335;-3.7442;-4.6340;-5.8828;
2763142871355991;-12.5764;1.7261;-6.6996;
2763142881463647;-8.7652;3.0054;-4.5197;
2763142891590835;-8.0656;2.9934;-6.7522;
2763142901698491;-11.1823;-1.3950;-6.3138;
2763142911806147;4.3789;-0.3820;-2.5241;
2763142921897189;-11.6925;0.2483;-8.3883;
2763142932004845;-29.7305;-0.5710;-4.2179;
2763142942112502;-10.5497;1.0723;9.0150;
2763142952225835;7.1387;-1.7785;-2.9052;
2763142962333491;-14.5071;-4.5404;-11.9551;
2763142972441147;-6.7337;-0.1352;-1.5278;
2763142982548022;-12.5213;4.7324;-0.5575;
2763142992655679;-18.0954;1.5682;-0.5264;
2763143002763335;-1.5954;-0.9377;0.9470;
2763143012877710;-9.1412;-2.4948;-1.1468;
2763143022985366;-11.0097;-0.7603;-4.9101;
2763143033093022;-8.6333;0.5883;-2.8860;
2763143043208231;-11.9848;-0.8656;0.3960;
2763143053315887;-7.8715;-0.0873;-7.9092;
2763143063423543;-10.6816;-0.1711;-10.0029;
2763143073520418;-3.0135;1.2517;-2.9674;
2763143083628075;-2.0336;0.9547;-4.2371;
2763143093735731;-16.5147;0.4540;-5.2840;
2763143103849897;-17.8514;0.7199;3.3903;
2763143113957554;0.2444;-0.2548;-4.6131;
2763143124065210;-20.3952;-3.7786;-3.3410;
2763143134163335;-9.9054;-0.9903;6.6817;
2763143144270991;-0.8551;0.3870;-5.2669;
2763143154378647;-10.2766;-1.0765;-10.2305;
2763143164489585;-13.6783;1.6687;-5.1162;
2763143174597241;-9.2970;5.0489;-1.9804;
2763143184704897;-10.8299;0.6099;-3.6500;
2763143194805939;-9.1244;-1.9582;0.4223;
2763143204913595;-12.9906;-1.1701;1.7207;
2763143215021252;-4.3382;-2.1616;1.9771;
2763143225129897;-6.7337;-3.5800;-8.9058;
2763143235237554;-12.4086;-2.2935;-3.6571;
2763143245345210;-21.1140;1.6639;-1.5924;
2763143255465731;1.2697;2.7395;-13.3878;
2763143265573387;-1.4061;-0.2453;-6.0718;
2763143275681043;-19.2383;1.2087;7.1704;
2763143285782502;-15.1899;2.9671;-0.1860;
2763143295890158;-8.8729;0.7223;-7.5404;
2763143305997814;-2.1535;-5.4341;1.9481;
2763143316101772;-4.9801;0.9523;-1.8775;
2763143326209429;-18.3879;1.9394;-9.2794;
2763143336317085;-8.6788;1.2159;-2.8594;
2763143346423543;-6.0389;0.5955;1.0810;
2763143356531200;-4.3980;0.0494;-2.6201;
2763143366638856;-4.9875;2.3994;-17.8313;
2763143376750627;-28.5521;4.0187;-6.6278;
2763143386858283;-3.9045;0.5357;21.8716;
2763143396965939;8.9498;2.6174;-8.8364;
2763143407072918;-36.4953;-0.6766;-23.5878;
2763143417180575;-11.5032;-1.4022;15.5569;
2763143427288231;5.4353;7.4276;10.1288;
2763143437386825;-3.7513;-1.3759;-10.9851;
2763143447494481;-19.3866;-4.5117;-10.2066;
2763143457602137;-9.7424;2.3515;3.3760;
2763143467723075;0.6900;5.5253;-1.9828;
2763143477830731;-9.6012;1.3502;-17.9991;
2763143487938387;-18.8620;-0.3963;-1.9780;
2763143498033856;-2.2421;1.9585;9.8533;
2763143508141512;-13.5416;2.3468;-13.5003;
2763143518249168;-6.4008;-2.6456;-2.0569;
2763143528360939;-5.7036;0.9763;2.3148;
2763143538468595;-24.5851;2.4377;-9.2315;
2763143548576252;-5.9121;0.6123;2.2310;
2763143558722970;-4.1752;1.7859;1.6992;
2763143568830939;-9.8169;-0.1950;-4.5102;
2763143578938960;-4.3478;0.4062;-6.1798;
2763143589002085;-19.4492;0.3966;-3.4178;
2763143599110106;-0.0167;1.0101;2.6046;
2763143609218127;3.8785;-0.4059;-11.4452;
2763143619320106;-26.1589;-1.3759;-12.1732;
2763143629428127;-11.1823;1.0436;5.5917;
2763143639536147;-6.3266;2.9408;-0.2581;
2763143649637502;3.6102;-2.5738;-5.5184;
2763143659745522;-18.4191;-2.8995;-7.7178;
2763143669853543;-20.6731;0.1546;1.8404;
2763143679972189;-0.2420;4.3062;1.4859;
2763143690080210;-9.1364;0.4660;-8.5513;
2763143700188231;-5.3061;-2.9833;2.7194;
2763143710287814;-4.6759;0.6745;-7.1644;
2763143720395835;-16.2799;-0.0849;-5.8780;
2763143730503856;-13.2661;-0.3389;5.3498;
2763143740612814;-15.6473;0.1522;-6.2898;
2763143750720835;0.3281;-2.5546;-0.0209;
2763143760828856;-7.1554;-0.7627;-2.7781;
2763143770976720;-22.7261;-0.9305;-2.5385;
2763143781084689;-1.5380;0.2722;-1.1731;
2763143791192710;-14.5502;0.9954;-10.4557;
2763143801259897;-7.7686;-1.0645;-0.4400;
2763143811367918;0.7211;1.5945;-0.5001;
2763143821475939;-20.7859;0.5740;-8.9249;
2763143831585991;-8.8609;-1.6657;3.5315;
2763143841694012;-0.2133;0.3870;-0.9502;
2763143851802033;-8.3770;-1.7043;-13.6346;
2763143861916772;-21.5043;0.2459;-7.4471;
2763143872024793;-6.5874;2.8376;5.2062;
2763143882132814;-2.6447;0.9045;-5.0061;
2763143892258647;-19.0298;-0.5638;-11.6821;
2763143902366668;-10.3798;1.7501;8.3034;
2763143912474689;6.8106;2.8810;-4.5532;
2763143922561408;-24.3024;-1.9463;-8.7694;
2763143932669429;-4.5251;-0.1113;4.0226;
2763143942777450;-11.4673;2.5071;-6.8961;
2763143952881356;-16.3828;-0.9736;-0.8761;
2763143962989377;1.1740;0.4902;-2.1649;
2763143973097397;-0.0167;-0.3604;-7.5308;
2763143983206668;-16.6798;-0.5734;-7.6026;
2763143993314689;-19.3675;2.0785;-6.7738;
2763144003422710;-4.2449;1.5272;0.9063;
2763144013525731;-5.7586;0.0661;-2.3375;
2763144023633752;-10.3798;-1.5867;-5.1951;
2763144033741772;-16.2870;0.3272;2.6022;
2763144043847189;-2.1894;2.2244;-5.6432;
2763144053955210;-5.2077;-1.2323;-6.0574;
2763144064063231;-13.1010;1.7309;-5.4706;
2763144074170314;-7.5529;1.3143;-3.0416;
2763144084278335;-6.9159;1.9466;-1.7838;
2763144094386356;-10.7294;-0.8034;-0.5719;
2763144104502397;-8.7389;0.0015;-6.8985;
2763144114610418;-3.2148;0.9835;-4.2730;
2763144124718439;-17.7960;0.0852;-3.3171;
2763144134827397;-16.9002;0.8016;0.2019;
2763144144935418;3.5453;-0.3556;0.5133;
2763144155043439;-8.7509;1.5419;-8.8316;
2763144165131877;-15.6832;-0.2500;2.2214;
2763144175239897;-12.6960;1.1034;1.1530;
2763144185347918;-6.1158;0.1092;-3.7364;
2763144195461564;1.0588;-1.0693;-1.5108;
2763144205569585;-2.4458;-0.1543;-6.1128;
2763144215677606;-33.6832;0.4926;-8.7284;
2763144225793647;-9.6921;1.3980;6.6458;
2763144235901668;12.9766;1.3884;-2.1123;
2763144246009689;-14.8113;-0.4872;-18.6314;
2763144256119897;-24.7813;-1.6851;4.2622;
2763144266227918;-13.0795;4.0259;9.7409;
2763144276335939;2.5705;2.4425;-5.1592;
2763144286443127;-7.0786;-3.7762;-5.9833;
2763144296551147;-14.2555;-0.2357;-6.0407;
2763144306659168;-4.1632;2.5334;1.0953;
2763144316757606;3.2626;-0.6909;-1.2042;
2763144326865627;-19.7629;-2.0827;-13.8332;
2763144336973647;-26.3910;-0.6502;-6.9823;
2763144347082918;-1.0828;1.7740;10.2030;
2763144357190939;-0.7738;-1.2802;-0.0903;
2763144367298960;-13.1106;-2.9210;-6.8865;
2763144377399897;-9.8791;0.2985;-7.3343;
2763144387507918;-12.9547;3.0365;-5.0204;
2763144397615939;-6.1277;0.7609;3.6969;
2763144407722814;-6.5515;0.6051;-7.8350;
2763144417830835;-13.9442;-2.0180;-0.4953;
2763144427938856;-7.5386;-0.7101;5.9031;
2763144438041408;-15.5683;-0.2381;-6.1534;
2763144448149429;-13.1800;-1.3831;-7.3223;
2763144458257450;3.0688;-0.9233;0.8462;
2763144468369845;-12.3488;0.6817;-7.2864;
2763144478477814;-13.3334;-1.4097;-3.7101;
2763144488585835;-12.7585;1.2422;-2.0067;
2763144498717137;-7.4907;0.7418;-3.0535;
2763144508825106;-0.2061;0.3416;-2.6824;
2763144518933127;-12.4974;-1.1291;-2.3806;
2763144528992710;-10.1952;0.7657;-2.5026;
2763144539100731;-8.0225;1.0196;-4.3161;
2763144549208752;-11.3067;-0.2740;-5.1066;
2763144559325158;-16.4737;2.1861;-6.0215;
2763144569432450;-8.7123;1.6974;2.5639;
2763144579539689;0.7140;2.1191;-0.1334;
2763144589662345;-12.1259;-0.6981;-7.9427;
2763144599769637;-7.6104;1.5921;-1.5685;
2763144609876929;-15.1250;2.7084;-3.6284;
2763144620006304;-7.3684;-0.6096;2.9183;
2763144630113595;-4.8078;-0.3915;-4.8790;
2763144640220835;-11.3354;0.5429;-9.1310;
2763144650294845;-7.3804;1.0842;0.8031;
2763144660402137;-8.2119;1.3836;-4.8239;
2763144670509377;-20.8624;-0.8249;-5.2238;
2763144680644845;-1.3917;0.0709;1.6056;
2763144690752137;-0.5581;0.3535;-5.2840;
2763144700859377;-11.6949;0.5094;-6.1032;
2763144710945991;-15.2426;-0.4298;0.5324;
2763144721053283;-8.7075;0.2961;-0.3754;
2763144731160522;4.0914;-1.3472;-7.0445;
2763144741270679;-15.4917;-1.2873;-8.0913;
2763144751377970;-23.5286;0.5405;-2.5576;
2763144761485210;-5.7395;0.6458;4.4539;
2763144771611512;2.1846;-0.1496;-3.1950;
2763144781718804;-16.8835;-1.8503;-9.1143;
2763144791826043;-23.9863;2.1431;1.6678;
2763144801929741;-4.2114;1.9944;4.7581;
2763144812037033;-3.4376;-1.6178;-1.0798;
2763144822144272;-3.7681;-2.2816;-1.1061;
2763144832247033;-10.2933;0.1044;-7.2769;
2763144842354325;-17.7577;0.9643;-7.3271;
2763144852461564;-2.8460;-0.7053;-0.3826;
2763144862572762;-1.4635;0.3942;-12.2883;
2763144872680054;-21.3655;-1.4288;-7.8924;
2763144882787293;-11.5343;2.3297;2.9112;
2763144892900366;-6.2115;2.6892;-3.6476;
2763144903007658;-9.2417;-2.0157;-3.1926;
2763144913114897;-5.8379;-0.6287;-2.1553;
2763144923216043;-6.2163;1.3693;-2.9961;
2763144933323335;-15.2019;0.8590;-3.8728;
2763144943430575;-14.6148;0.0829;-1.5446;
2763144953537658;-5.9862;-0.4848;-1.9134;
2763144963644950;-6.1205;-2.2863;-1.2715;
2763144973752189;-8.1015;-0.6550;-1.2233;
2763144983868491;-12.1259;0.6577;-7.1740;
2763144993975783;-16.4955;0.5788;-4.6059;
2763145004083022;-3.5548;1.5009;-3.0751;
2763145014191460;-2.3067;-0.5471;-4.7136;
2763145024298752;-5.1622;-0.9688;-3.8106;
2763145034405991;-14.5717;0.9476;-6.6852;
2763145044516304;-12.4684;0.7370;-3.1496;
2763145054623595;-6.9948;-0.6622;-1.3839;
2763145064730835;-2.3812;-2.3414;-4.3376;
2763145074839325;-18.0284;-0.6598;-0.5456;
2763145084946616;-15.6042;1.0747;-0.1334;
2763145095053856;-4.4315;0.9045;-2.0812;
2763145105146720;-13.6400;-0.1950;-2.4595;
2763145115254012;-8.7242;-0.1639;2.4559;
2763145125361252;-0.7738;0.2961;0.1086;
2763145135470991;-19.0250;-0.3147;-2.5170;
2763145145578283;-8.6166;-0.7675;-4.5293;
2763145155685522;-1.0134;-0.5040;-5.8636;
2763145165800887;-21.8614;0.0661;-3.4418;
2763145175908179;-0.5151;-0.8249;0.7600;
2763145186015418;-2.8531;0.5309;-9.2940;
2763145196117970;-16.3301;0.7442;-9.4472;
2763145206225262;-16.3636;0.2770;4.1665;
2763145216332502;-5.5792;0.2506;-0.9287;
2763145226438075;-12.9978;-1.0645;-5.4754;
2763145236545366;-2.4027;-3.2013;2.9758;
2763145246652606;-14.9145;1.6974;-5.1855;
2763145256762658;-20.9557;-0.1759;1.2320;
2763145266869950;-0.2827;-0.0200;5.8840;
2763145276977189;-10.1641;2.6438;-16.4204;
2763145287083075;-10.9881;-1.8646;2.7434;
2763145297190366;-3.3583;2.1335;5.8433;
2763145307297606;-12.6362;1.8293;-13.5772;
2763145317404845;-6.2617;-0.5614;-4.2443;
2763145327512137;-8.0584;3.0102;-6.6254;
2763145337619377;-24.6592;2.6629;-4.5676;
2763145347729950;-10.0155;-0.0200;8.0734;
2763145357837241;7.9460;-1.5676;-2.4284;
2763145367944481;-14.3683;-1.6202;-9.7274;
2763145378050991;-23.3513;2.0590;-0.1238;
2763145388158283;-5.1000;6.0212;0.4343;
2763145398265522;-5.3300;-0.3027;0.6380;
2763145408371616;-6.5133;-1.2514;-2.0521;
2763145418478908;-14.0710;1.8027;-8.0961;
2763145428586147;-6.2019;1.1991;-1.0726;
2763145438722970;6.5542;1.2784;-5.5618;
2763145448830262;-20.5822;1.9346;-17.1942;
2763145458937502;-20.5726;2.2914;-2.7685;
2763145469022710;-1.7800;3.7983;5.7595;
2763145479130002;-9.9867;0.7080;-2.8618;
2763145489237241;-14.1239;-1.7139;-2.4260;
2763145499362970;-2.4888;-0.9018;3.8599;
2763145509470262;4.2066;0.7343;-4.4862;
2763145519577502;-23.3895;0.1259;-11.0019;
2763145529660158;-14.3489;1.0002;-0.3921;
2763145539767450;1.8135;2.1622;-0.0114;
2763145549874689;-4.5395;-2.9091;-0.4232;
2763145559979325;-13.1608;-2.4251;-7.3965;
2763145570086825;-21.7319;2.3563;-8.1775;
2763145580194429;-8.7556;1.9585;4.9451;
2763145590322970;3.1406;0.5883;-1.7647;
2763145600430522;-10.1378;-1.3639;-10.7432;
2763145610538075;-18.2584;0.6793;1.1913;
2763145620633700;-4.7647;3.5563;3.6802;
2763145630741252;-2.9154;0.4014;-10.1300;
2763145640848804;-20.8887;-1.6804;-5.8851;
2763145650945575;-4.8293;1.1201;7.9490;
2763145661053127;0.2635;2.0833;-7.5021;
2763145671160679;-17.4942;-1.3878;-12.5997;
2763145681276616;-11.8816;2.1120;-0.0784;
2763145691384168;-3.9311;3.8198;-1.5302;
2763145701491720;-2.2971;0.5668;-5.5208;
2763145711604793;-13.0098;0.6194;-5.8059;
2763145721712345;-25.5766;2.9240;-0.8569;
2763145731819897;-7.9026;1.9178;3.7759;
2763145741932970;6.2596;0.1187;0.5372;
2763145752040522;-6.2234;-1.7809;-8.5131;
2763145762148075;-19.1064;0.1164;-4.8885;
2763145772279116;-11.4745;4.9911;0.5874;
2763145782386668;-6.7241;2.5717;-1.5829;
2763145792494220;-8.7266;-0.5471;-1.9636;
2763145802574637;-10.2048;0.8327;-0.5671;
2763145812682189;-7.1722;1.0172;-0.1741;
2763145822789741;-3.9383;-0.1328;-5.8205;
2763145832917033;-10.8180;1.4459;-16.6481;
2763145843024585;-12.0876;2.8663;-4.7856;
2763145853132137;-5.4975;3.2617;5.8193;
2763145863219012;-11.2564;1.4052;-2.9411;
2763145873326564;-8.5543;-1.3878;-1.4198;
2763145883434116;-11.4912;-0.1280;0.8031;
2763145893540575;-12.9236;-0.0033;-0.9096;
2763145903648127;-0.8958;0.2865;-4.8718;
2763145913755679;-14.6533;0.7848;-4.5245;
2763145923864377;-9.8695;0.4038;-1.3337;
2763145933971929;-1.9164;1.1656;-4.3854;
2763145944079481;-4.7743;0.7223;-6.0144;
2763145954188804;-9.9676;0.2889;-2.3133;
2763145964296356;-35.3360;-0.8803;1.0307;
2763145974403908;-18.5794;-4.1883;11.2666;
2763145984510575;9.9844;-2.4132;4.6911;
2763145994618127;-0.9173;0.7920;-12.0870;
2763146004725679;-12.2411;0.1642;-7.8661;
2763146014833075;-14.2412;2.0207;-5.5522;
2763146024940627;-12.3296;2.5860;-6.6781;
2763146035048179;-4.3071;-0.5542;-2.4069;
2763146045157710;-6.0269;-0.6694;-0.0520;
2763146055265262;-8.2597;-1.0430;2.3961;
2763146065372814;-10.5209;-1.4216;-2.9961;
2763146075484741;-13.8748;-0.4131;-16.0517;
2763146085592293;-16.3923;2.5765;-13.4046;
2763146095699845;-1.1474;4.2150;9.1514;
2763146105818179;-4.9250;1.4794;-0.7708;
2763146115925731;-23.4856;-1.6875;-2.7254;
2763146126033283;-2.4266;-1.2634;5.1197;
2763146136128491;-3.2171;2.2077;-5.7652;
2763146146236043;-11.8792;-0.8779;-5.6336;
2763146156343595;-7.2368;-0.8970;0.2593;
2763146166476252;-14.3803;-0.3389;-4.9579;
2763146176583804;-10.5616;-0.0682;-4.8120;
2763146186691356;-8.9351;-0.0682;-3.9326;
2763146196775158;-8.9734;0.6147;-1.2377;
2763146206882710;-5.0402;-0.1304;-3.4490;
2763146216990262;-10.6816;-0.0559;-7.2027;
2763146227099325;-10.0514;0.2411;-7.2362;
2763146237206877;-12.3679;-0.1783;2.9255;
2763146247314429;-12.7657;0.7295;1.0857;
2763146257412397;-7.6944;-0.2859;-3.8656;
2763146267519950;-2.0530;0.6051;-0.7516;
2763146277627502;-6.5372;0.7872;-7.4686;
2763146287745470;-10.6457;0.4445;-6.8240;
2763146297853022;-5.6749;-0.3628;-6.6084;
2763146307960575;-22.2302;1.6711;-9.8354;
2763146318059533;-10.7653;-0.1759;6.9523;
2763146328167085;0.5605;0.6577;2.3889;
2763146338274637;-9.4214;0.7633;-6.5007;
2763146348385314;-16.9600;0.6769;-3.8824;
2763146358492866;-10.9953;1.1417;-2.5170;
2763146368600418;-4.2712;1.6208;-1.1037;
2763146378700418;-6.6571;0.2913;-0.3826;
2763146388808022;-5.4449;-1.0167;-1.9612;
2763146398915575;-14.7706;-1.3113;-1.7910;
2763146409037658;-12.7681;-3.0048;-2.1314;
2763146419145210;-5.2292;0.0900;-9.1190;
2763146429252762;-5.9480;1.5706;-4.9795;
2763146439348283;-11.6731;-0.5997;0.0894;
2763146449455835;-24.8845;-0.0105;-0.7178;
2763146459563387;-6.7672;-0.2644;3.7184;
2763146469687658;1.5811;1.2446;-0.9263;
2763146479795210;-2.0530;-0.5040;-2.5481;
2763146489902710;-15.2545;0.0111;-5.5304;
2763146499999533;-15.3311;-0.1711;-5.4347;
2763146510107085;-15.3933;1.2326;-2.8283;
2763146520214637;-4.7312;0.6601;-0.0449;
2763146530325731;0.5557;-0.7914;0.8749;
2763146540433283;-15.1780;-0.3748;-3.9520;
2763146550540835;-23.4159;0.4711;-6.0793;
2763146560642606;-0.9485;3.0915;-5.5352;
2763146570750314;2.0459;0.3272;-0.7612;
2763146580857970;-10.1785;-1.0573;-5.6910;
2763146590983752;-20.4909;-0.0105;-1.1779;
2763146601091460;-2.2636;2.3587;-0.3443;
2763146611199168;-5.9934;-0.7771;-5.7150;
2763146621296877;-9.2731;-1.3854;-5.3868;
2763146631404585;-13.5706;0.4636;-2.1075;
2763146641512241;-11.5008;2.0040;0.6114;
2763146651625470;-8.9064;1.4124;-4.6777;
2763146661733179;-16.8308;0.0230;-3.3075;
2763146671840835;2.4099;0.2746;5.1846;
2763146681942397;-0.9102;0.2530;-4.2009;
2763146692050106;-12.6482;-2.9521;-9.5070;
2763146702157762;-29.4359;2.5525;-6.9129;
2763146712262710;-0.5270;3.2713;8.0590;
2763146722370418;8.9160;1.5320;-1.7121;
2763146732478075;-10.8203;-5.0483;-8.7766;
2763146742586668;-25.2078;0.8542;-6.4840;
2763146752694377;-10.4085;4.4859;-2.0931;
2763146762802033;2.4434;2.9456;-1.0152;
2763146772907085;-17.9423;-0.9784;-4.6418;
2763146783014793;-12.9619;0.3559;3.4765;
2763146793122450;1.9499;2.0183;1.3612;
2763146803232293;-3.1860;-1.9415;-7.6313;
2763146813340002;-22.4076;-0.9784;-10.3959;
2763146823447658;-19.4468;2.6892;6.2121;
2763146833578960;0.9344;2.9910;7.4315;
2763146843686668;-2.0530;-2.8373;-6.5318;
2763146853794325;-17.1135;-4.2649;-9.9455;
2763146863899325;-11.3545;-0.1041;-2.1601;
2763146874007033;-3.9694;2.8977;-1.3648;
2763146884114689;-16.4904;1.6280;-9.7466;
2763146894205002;-17.6190;-0.0802;-0.3371;
2763146904312710;6.4415;-2.5164;11.0632;
2763146914420366;-3.7944;-1.6035;-5.4778;
2763146924526408;-30.1427;-1.6466;-16.1713;
2763146934634116;-8.2525;0.2483;3.4310;
2763146944741772;9.0048;1.4076;4.6744;
2763146954852814;-3.6508;1.9992;-16.3511;
2763146964960522;-31.9152;2.2842;-11.1526;
2763146975068179;-11.0647;1.6567;9.9443;
2763146985178335;6.0368;0.0589;2.7075;
2763146995286043;-13.6185;-0.5877;-13.8981;
2763147005393700;-21.2767;-0.2453;0.1158;
2763147015497814;-3.5333;0.3105;11.8537;
2763147025605522;0.4528;-0.5088;-5.9761;
2763147035713179;-20.3952;1.5176;-15.6634;
2763147045820522;-6.5061;0.5381;5.2828;
2763147055928231;-7.6319;1.9920;4.7390;
2763147066035887;-10.9451;-1.5126;-7.9283;
2763147076145418;-10.8515;-0.5088;-12.0368;
2763147086253127;-6.5779;2.1431;0.2641;
2763147096360783;-1.6265;2.6390;2.1063;
2763147106465731;-13.0316;1.4148;-12.8058;
2763147116573439;-12.6027;1.4291;-6.6517;
2763147126681095;-7.0235;2.9982;3.6203;
2763147136785522;-10.3989;1.7788;0.1445;
2763147146893231;-12.2889;-2.4323;-0.8139;
2763147157000887;-8.7413;-1.5772;0.8222;
2763147167123960;-7.3974;1.3143;-5.7676;
2763147177231668;-17.5086;2.2723;-2.4858;
2763147187339325;-3.9885;-0.0296;4.1258;
2763147197431981;3.8064;1.6448;-6.4313;
2763147207539689;-25.9026;2.6103;-8.2280;
2763147217647345;-26.3886;1.6352;4.1833;
2763147227750418;6.0942;-1.6298;8.2747;
2763147237858127;15.1325;-3.1247;-5.8134;
2763147247965783;-20.8935;1.5443;-19.8245;
2763147258073439;-24.4962;3.5874;-9.2988;
2763147268181147;-4.8054;5.7290;4.7844;
2763147278288804;-4.7527;1.7740;0.5563;
2763147288390939;-7.0092;-4.1261;-5.4826;
2763147298498647;-14.6749;-1.0741;0.2091;
2763147308606304;-11.4529;2.4688;4.1402;
2763147318721668;-5.9839;-1.5221;-8.0746;
2763147328829377;-8.1039;-1.0956;-9.7011;
2763147338937033;-20.0169;3.1250;3.4932;
2763147349052450;-8.0393;3.3072;4.3917;
2763147359160158;-11.0958;-2.1927;-1.2425;
2763147369267762;0.2707;-2.1999;-2.2534;
2763147379359637;1.0253;1.0986;-8.3453;
2763147389467397;-25.4641;1.7524;-11.6557;
2763147399575002;-12.9619;2.8591;2.7820;
2763147409716877;11.6830;3.8414;-4.4213;
2763147419824585;-28.2524;-1.4791;-8.3572;
2763147429932241;-12.2794;-0.6096;6.0182;
2763147440018022;3.6173;2.9791;-1.4294;
2763147450125731;-8.2023;-1.7043;-9.2698;
2763147460233387;-15.6760;0.4062;-5.2047;
2763147470338647;-16.3397;5.7194;-1.5852;
2763147480446356;-3.2602;2.8256;7.4028;
2763147490554064;0.5916;-1.2658;-0.9120;
2763147500675731;-14.0160;-3.2611;-11.6581;
2763147510783439;-17.4344;2.6844;2.1398;
2763147520891095;5.0450;4.4761;-0.3299;
2763147531033022;-18.1173;0.7295;-17.5920;
2763147541140731;-15.1131;-1.8646;0.0556;
2763147551248387;-6.6595;6.7208;2.3435;
2763147561304064;-8.4368;0.7104;2.7891;
2763147571411825;-6.8847;-3.2853;-2.5409;
2763147581519429;-10.3173;-0.7292;-6.5246;
2763147591633127;-7.6367;2.0952;-1.4151;
2763147601740835;-13.9944;1.7142;1.1602;
2763147611848491;-6.4199;-0.6191;-3.2189;
2763147621952502;-3.8973;-1.3400;-8.1224;
2763147632060210;2.4888;-0.2788;-6.1247;
2763147642167866;-31.8865;1.3741;-6.8192;
2763147652268231;-17.8152;4.3516;0.6930;
2763147662375939;3.2530;2.8615;3.4621;
2763147672483595;1.4204;-5.0554;-2.7829;
2763147682595158;-13.0098;-3.2515;-5.9689;
2763147692702866;-31.1988;3.4077;-0.4762;
2763147702810522;4.3167;3.4989;4.7007;
2763147712925575;6.5614;-5.9707;-6.7379;
2763147723033283;-28.5664;-1.6059;-7.1692;
2763147733140939;-7.2464;3.5444;4.5042;
2763147743255835;6.8536;2.8304;-2.1697;
2763147753363543;-19.6526;-4.5500;-13.6155;
2763147763471200;-12.9595;0.9117;-7.5930;
2763147773567606;-5.3994;4.4545;0.3024;
2763147783675314;-20.3210;1.3908;5.7500;
2763147793782970;-3.7202;0.3224;-0.1669;
2763147803890002;-7.9388;-4.6962;-8.3357;
2763147813997710;-0.6514;-0.4944;2.6477;
2763147824105366;-14.2268;4.2440;-3.5782;
2763147834212085;-24.4603;1.6184;-4.9699;
2763147844319793;3.8231;-0.2381;4.8634;
2763147854427450;-3.3703;1.3502;-3.9784;
2763147864536929;-23.8137;-0.9903;-4.4815;
2763147874644637;-3.4400;1.6519;2.0297;
2763147884752293;0.3425;1.0077;-7.1402;
2763147894861252;-15.5348;-1.9822;-14.7628;
2763147904968960;-18.5459;4.1145;-2.8187;
2763147915076616;-6.4917;6.1149;9.4558;
2763147925184585;1.4925;1.3047;4.6887;
2763147935292293;-3.8638;-6.6269;-14.7748;
2763147945399950;-33.3069;-0.4777;-6.0718;
2763147955510158;-4.8963;7.5999;11.3507;
2763147965617866;8.2741;1.6783;-2.8068;
2763147975725522;-15.6018;-6.4208;-12.6380;
2763147985828856;-5.6486;0.6027;-1.7360;
2763147995936564;-13.7213;7.6382;-3.2644;
2763148006044220;-16.3445;2.9264;-1.1037;
2763148016153022;-12.6338;1.3717;-0.2438;
2763148026260731;-7.2799;-1.2921;1.5123;
2763148036368387;-4.0531;-1.3065;1.6510;
2763148046477502;-8.8825;-1.3376;-1.8823;
2763148056585210;-11.3952;1.3406;-9.1334;
2763148066692866;-26.0462;2.0231;-0.8354;
2763148076798491;-2.6758;3.7696;4.2168;
2763148086906200;-0.2827;-2.4610;-0.9431;
2763148097013856;-6.2641;-2.5786;-3.7244;
2763148107122814;-28.1351;2.1718;-11.0210;
2763148117230522;-12.2913;2.6629;0.5372;
2763148127338179;2.5322;1.0531;-3.7292;
2763148137447710;-13.0484;-2.4179;-6.6159;
2763148147555418;-17.7888;1.9896;1.6463;
2763148157663075;11.1870;1.2135;1.2799;
2763148167771772;1.0660;-2.5881;-14.8418;
2763148177879481;-26.9877;-0.8369;-18.8614;
2763148187987137;-17.5229;4.2607;5.7188;
2763148198086668;0.2994;5.3770;7.6687;
2763148208194377;-6.4367;-2.0779;-4.9579;
2763148218302033;-10.7055;-5.7526;-8.7981;
2763148228414793;-19.5975;1.4674;-3.2979;
2763148238522502;-5.8140;2.6725;6.2312;
2763148248630210;8.1808;-0.8731;-4.7088;
2763148258749793;-21.1618;-3.5127;-8.4482;
2763148268857502;-8.8466;-0.3628;11.0848;
2763148278965158;-2.7571;4.6223;-1.6020;
2763148289062345;-8.0919;-4.2003;-12.2812;
2763148299170002;-11.1317;-1.8120;-4.8431;
2763148309277710;-13.9633;2.8759;-0.7875;
2763148319375887;-4.5323;2.8208;-1.8942;
2763148329483595;-6.5611;-1.7617;-4.7856;
2763148339591304;-22.0481;0.1259;-4.9531;
2763148349738647;-7.3158;2.4138;6.7944;
2763148359846356;-4.3525;3.0867;3.9054;
2763148369954064;-6.6691;-3.0649;-3.4896;
2763148380052814;-16.3469;-1.1076;-3.2955;
2763148390160522;-15.1202;1.4674;0.6090;
2763148400268179;-8.8513;1.7285;3.1292;
2763148410325418;2.5226;-0.8512;-5.2597;
2763148420433127;-15.2737;-3.2468;-12.5351;
2763148430540783;-16.3397;0.8806;4.4228;
2763148440691043;-4.5754;3.6114;-1.1563;
2763148450798752;-21.1451;-0.6885;-8.7500;
2763148460906408;-9.5701;-0.6909;2.5854;
2763148470993543;-0.4167;1.8580;2.3195;
2763148481101252;1.2290;-3.4002;-2.0115;
2763148491208908;-15.0509;-1.7139;-14.3626;
2763148501322918;-20.7138;1.7237;-5.1903;
2763148511430627;-12.4636;2.8977;4.7605;
2763148521538283;5.1000;-0.7340;3.3544;
2763148531661668;-12.9906;-4.1429;-6.4600;
2763148541769377;-5.3109;-3.3811;-5.7843;
2763148551877033;-17.8223;3.4534;-6.3882;
2763148561969793;-13.3071;2.2364;-2.4500;
2763148572077502;-7.2464;0.3440;2.9183;
2763148582185262;-3.3105;-2.2337;3.3544;
2763148592316356;-10.2646;-1.0406;-1.8894;
2763148602424116;-4.3167;-0.8177;-2.7015;
2763148612531825;-9.0861;1.2999;-7.4686;
2763148622622502;-14.3803;0.5381;-4.2491;
2763148632730210;-14.4855;1.7070;0.4463;
2763148642837970;-14.3731;1.4722;-0.4089;
2763148652945939;-3.0709;-0.3987;5.5056;
2763148663053647;-0.0718;-2.5331;-6.8456;
2763148673161408;-17.2092;-0.4131;-7.3534;
2763148683267293;-14.6438;4.7614;-1.5829;
2763148693375054;-5.4760;4.7901;1.5529;
2763148703482762;-7.0953;-1.1414;-2.4595;
2763148713587918;-13.1345;-0.7531;1.2009;
2763148723695679;-8.9973;1.2182;-0.1262;
2763148733803387;-6.0461;1.0196;-8.1631;
2763148743910210;-11.7212;1.7740;-10.8724;
2763148754017970;-12.8519;3.4606;-2.2774;
2763148764125679;-9.0526;1.5658;1.9890;
2763148774226668;1.7871;-0.3027;-1.4533;
2763148784334429;-21.8710;-0.2261;-6.7929;
2763148794442137;-21.3751;1.8891;2.4129;
2763148804566981;9.3640;1.9992;3.9341;
2763148814674741;-1.2482;-2.0707;-8.0650;
2763148824782450;-22.1871;-1.7139;-9.2195;
2763148834872189;-13.3310;2.3369;-2.0788;
2763148844979950;-6.9541;3.7983;0.0700;
2763148855087658;-2.2301;-1.2419;-1.6666;
2763148865203231;-6.9972;-0.9353;-7.1859;
2763148875310991;-24.0174;0.0087;-0.7397;
2763148885418700;-4.5945;2.1311;6.1499;
2763148895525731;-3.1430;-0.9377;-11.1431;
2763148905633491;-17.0198;-1.3161;-5.3318;
2763148915741200;-0.7881;1.1321;7.3071;
2763148925853335;-8.1829;1.4698;-6.6084;
2763148935961095;-21.5043;-2.6982;-4.4357;
2763148946068804;-5.2702;0.8423;5.1030;
2763148956172293;-3.2243;0.2937;-6.3452;
2763148966280002;-18.5124;-3.1702;-2.9459;
2763148976387762;-5.5552;1.0340;0.8390;
2763148986501564;-9.1723;0.2243;-8.1368;
2763148996609325;-5.8044;-1.6633;-1.0319;
2763149006717033;-10.7557;1.1704;-5.4108;
2763149016819741;-22.3211;1.1728;-0.5815;
2763149026927502;12.1140;-1.4695;5.3593;
2763149037035210;-13.6041;-0.4202;-12.8106;
2763149047138908;-29.9103;-1.9798;-3.5088;
2763149057246668;-2.9967;2.7179;11.7577;
2763149067354377;-0.9966;1.1512;-4.6107;
2763149077463543;-12.1116;-4.8230;-5.3151;
2763149087571252;-1.0636;-2.1209;0.5946;
2763149097679012;-13.8724;3.1131;-12.1517;
2763149107788127;-15.0174;-1.2395;2.2214;
2763149117895835;-2.3261;0.6386;-3.8752;
2763149128003595;-17.9542;0.1642;-7.9932;
2763149138104481;-0.5246;-3.4170;11.0536;
2763149148212189;-1.3247;-0.2644;-11.4882;
2763149158319950;-20.8433;-1.2084;-15.8264;
2763149168432710;-16.0427;-1.1462;8.9360;
2763149178540470;-21.5139;5.0393;6.2818;
2763149188648179;-0.6251;0.2291;4.5066;
2763149198761772;10.6217;-6.2868;-0.6197;
2763149208869533;-5.6509;-3.6135;-13.7662;
2763149218977241;-15.1564;-1.6466;-14.2334;
2763149229090939;-20.3713;2.1000;-0.2270;
2763149239198700;-16.0044;5.6859;4.7151;
2763149249306408;-2.1990;1.9346;6.2459;
2763149259400731;-2.4864;-2.0085;-2.7039;
2763149269508491;-9.2178;-5.5346;-7.6744;
2763149279616200;-20.4096;-0.9401;-9.8904;
2763149289730887;-9.7807;3.8462;-8.7500;
2763149299838647;1.1689;2.0351;6.7152;
2763149309946356;-8.8537;3.1394;3.7902;
2763149320038960;-24.9132;0.8518;1.7112;
2763149330146720;-7.9914;0.6577;5.1102;
2763149340254429;3.3371;-0.9138;-9.8713;
2763149350392502;-12.4636;-1.2730;-11.1000;
2763149360500262;-4.3334;0.6936;-4.3472;
2763149370607970;-22.9394;4.3564;-0.3467;
2763149380716043;-11.9175;5.5110;-0.3802;
2763149390823804;-11.4529;4.2464;-4.0047;
2763149400931512;4.5012;-1.4384;5.0336;
2763149411017085;-6.4917;0.1475;-3.8369;
2763149421124845;-23.5789;-1.2562;-11.2534;
2763149431232554;-9.8312;2.1957;-2.6943;
2763149441337189;-2.9847;3.6042;1.7016;
2763149451444897;-1.3845;-0.2477;-1.6379;
2763149461552658;-24.8821;-0.2189;-3.8297;
2763149471666147;-0.2515;1.5296;2.4921;
2763149481773908;2.0267;1.1824;-12.4750;
2763149491881616;-30.2169;-0.1950;-9.2674;
2763149501988075;-5.0258;1.3932;6.6984;
2763149512095783;-2.4170;2.4185;3.0526;
2763149522203543;-16.5410;-0.8441;-6.3882;
2763149532309585;-13.4100;-2.7559;-4.3519;
2763149542417293;-0.0287;1.0747;1.8739;
2763149552525054;-5.7754;0.9260;-0.5695;
2763149562629897;-7.6104;-2.4805;-7.1859;
2763149572737606;-21.8181;0.0733;-10.9708;
2763149582845262;-7.7040;0.9954;11.6333;
2763149592968960;9.8575;1.1297;-1.9205;
2763149603076668;-16.1599;-2.8732;-23.4631;
2763149613184325;-20.7186;-2.4012;5.5056;
2763149623278856;-14.0638;4.1169;6.8734;
2763149633386564;0.1295;2.5119;-8.2759;
2763149643494220;-1.8111;-4.0732;-0.5121;
2763149653619897;-21.3392;0.2554;-2.6680;
2763149663727606;-15.6736;1.9825;2.3124;
2763149673835262;5.0067;0.1977;3.4310;
2763149683935835;-8.3794;-1.3783;-9.7872;
2763149694043543;-21.8901;-1.0382;-3.5495;
2763149704151200;-7.9938;2.9049;7.9202;
2763149714245731;-3.3826;1.1656;-2.3061;
2763149724353439;-13.9394;-3.4983;-11.3300;
2763149734461095;-11.3426;-0.2716;-4.8598;
2763149744567606;-8.2573;3.3383;5.7404;
2763149754675314;2.3572;1.4052;-1.9062;
2763149764782970;-16.5434;-2.1042;-14.8944;
2763149774890106;-13.5562;0.5931;-4.1937;
2763149784997814;-2.4529;3.1083;6.6649;
2763149795105470;-16.0331;1.2374;-3.4083;
2763149805209897;-14.7634;-1.6971;-3.6212;
2763149815317606;-5.8499;0.0613;3.0694;
2763149825425262;1.1163;-0.2764;-3.1807;
2763149835546095;-15.7792;-1.4671;-8.9752;
2763149845653752;-12.1283;0.4711;-0.6724;
2763149855761408;-11.5247;2.9360;2.4105;
2763149865869116;-6.1373;-0.8850;-1.5350;
2763149875981512;1.0445;-2.4419;-5.5161;
2763149886089220;-21.7319;-1.1629;-2.3925;
2763149896196877;-9.0838;1.1704;1.2464;
2763149906308856;-16.4979;1.3334;-8.6710;
2763149916416564;6.3147;-1.1076;0.9685;
2763149926524220;-18.6272;0.7442;-1.2353;
2763149936618752;-16.8978;0.7705;1.8500;
2763149946726460;6.9709;0.9930;1.0546;
2763149956834116;-16.2823;-0.4872;-7.3750;
2763149966941252;-24.6497;0.2602;-3.3697;
2763149977048960;2.0339;2.0279;4.5736;
2763149987156616;6.5399;0.4014;-2.6177;
2763149997268022;-28.6095;-2.9809;-11.9336;
2763150007375731;-13.5009;0.8040;-1.0750;
2763150017483387;2.2062;4.6080;-2.0521;
2763150027589481;-2.0698;-1.4022;-1.6905;
2763150037697189;-21.4493;-1.8263;-10.6089;
2763150047804845;-21.1714;2.1766;1.7638;
2763150057909897;20.3115;2.5813;7.3214;
2763150068017606;-12.9021;-1.7952;-16.8853;
2763150078125262;-30.8109;-3.4983;-7.7512;
2763150088250835;-5.8738;4.2416;14.3139;
2763150098358543;-1.5018;5.1374;1.9002;
2763150108466200;-10.0851;-5.3237;-13.0454;
2763150118565158;-17.9088;-2.7197;0.5635;
2763150128672866;-5.5983;4.3014;6.0924;
2763150138780522;-7.6753;0.3105;-3.2453;
2763150148861616;-8.5161;-3.0482;-10.6232;
2763150158969325;-8.6477;0.7128;-2.0330;
2763150169077033;-12.0230;2.0136;5.4458;
2763150179222866;-7.1554;0.8542;-8.9489;
2763150189330522;-14.8977;-2.5618;-5.3103;
2763150199438179;-1.9451;0.5381;2.2932;
2763150209533595;-11.8983;1.2613;-9.6030;
2763150219641252;-25.9792;-0.5160;0.0413;
2763150229748908;6.2521;2.4185;5.7715;
2763150239869168;-0.9054;-0.9473;-7.7273;
2763150249976877;-22.8888;-2.2361;-9.5815;
2763150260084533;-14.7754;1.5344;5.2971;
2763150270173231;3.6963;4.4737;2.3483;
2763150280280939;-4.9059;-1.4121;-12.3003;
2763150290388595;-20.3498;-2.9641;-3.3386;
2763150300513647;-9.7184;2.6127;0.8270;
2763150310621356;-11.0312;2.7251;-2.2175;
2763150320729012;0.1056;-2.2504;-3.9664;
2763150330826356;-6.2043;-0.7172;-9.1717;
2763150340934064;-16.3612;0.1666;1.6678;
2763150351041720;-18.5219;3.9060;-0.9960;
2763150361139377;-9.1890;1.9466;-0.9335;
2763150371247085;3.0784;-2.8660;1.6056;
2763150381354741;-17.4153;-1.0143;-4.0430;
2763150391471772;-15.6592;-0.6598;2.6859;
2763150401579481;4.0603;1.7692;-5.2549;
2763150411687137;-7.9651;-0.5351;-10.0029;
2763150421789897;-18.3206;0.4373;-4.0621;
2763150431897606;-8.0417;2.1431;4.7222;
2763150442005262;-6.2498;2.8041;0.8031;
2763150452106981;-7.5147;-1.8526;-11.8714;
2763150462214689;-4.8126;-1.3735;-9.6126;
2763150472322345;-16.1910;1.8891;0.8629;
2763150482433647;-23.6937;4.5051;5.4215;
2763150492541356;-6.5252;1.7524;-1.0152;
2763150502649012;-4.7070;-2.4227;-1.7145;
2763150512756772;4.0675;-3.3882;2.3841;
2763150522864481;-12.8495;0.5381;-4.8407;
2763150532972137;-21.7439;0.6170;-8.1894;
2763150543080731;-7.3205;1.5897;-2.8044;
2763150553188439;-2.5415;2.5310;-3.9254;
2763150563296095;-8.8825;-0.7077;-1.2353;
2763150573412085;-15.0532;-0.8680;4.1450;
2763150583519897;-5.8235;-0.3891;-8.9536;
2763150593627710;-13.9705;-0.1591;-14.0608;
2763150603729168;-3.5955;0.8351;2.6333;
2763150613836981;-9.8480;4.5051;4.5927;
2763150623944793;-7.6080;-0.6622;2.7386;
2763150634064064;-13.6663;-0.7436;-11.1960;
2763150644171877;-13.3286;-0.6694;-1.6331;
2763150654279689;-2.5415;1.8939;2.9806;
2763150664375418;-11.8768;0.9117;-1.6331;
2763150674483231;-5.6055;-1.8550;-5.1855;
2763150684591043;-17.9136;1.6519;-6.5868;
2763150694699064;-6.8031;1.9729;-0.8043;
2763150704806877;-11.7476;2.6270;3.4502;
2763150714914689;-7.2990;1.2760;1.9795;
2763150725015314;-11.6901;-1.0860;-6.9416;
2763150735123127;-13.5897;-0.1519;-1.7097;
2763150745230939;0.2563;1.4219;1.2440;
2763150755340627;-10.1091;0.1953;-5.9450;
2763150765448439;-8.3172;-0.1902;-5.0707;
2763150775556252;-13.7142;1.8150;-4.9675;
2763150785669481;-7.8906;0.9906;-0.7995;
2763150795777293;-7.5434;2.4784;-2.5265;
2763150805885106;-8.3243;0.2076;-1.4342;
2763150815996981;-15.9132;1.3310;-6.2755;
2763150826104793;-8.4969;0.5907;-3.5853;
2763150836212606;-2.5056;0.0661;-0.7226;
2763150846328491;-15.3359;1.6280;-3.3123;
2763150856436304;-14.4425;0.6194;2.1733;
2763150866544116;-11.7667;2.6151;0.7361;
2763150876636825;-0.7570;-0.2381;0.9302;
2763150886744637;0.9583;-1.9989;-5.9593;
2763150896852450;-22.6496;-0.2166;-8.0578;
2763150906964325;-24.8773;3.0269;3.3592;
2763150917072137;-1.9403;3.5898;2.0752;
2763150927179950;3.8689;-1.9822;-6.6661;
2763150937282502;6.3003;-4.6098;-6.2515;
2763150947390314;-21.2504;0.7896;-10.6427;
2763150957498127;-25.8882;3.6138;-1.6690;
2763150967591564;-13.1895;4.4955;2.4823;
2763150977699377;-1.3223;2.7108;0.3407;
2763150987807189;0.3185;-2.7823;2.9638;
2763150997913491;-3.4639;-4.0878;-2.7111;
2763151008021304;-32.8567;0.2243;-12.9757;
2763151018129116;-14.4855;2.8400;-0.0401;
2763151028246668;2.7093;4.2416;3.1292;
2763151038354481;-4.7384;-2.5235;2.6644;
2763151048462293;-11.1245;-2.4275;5.0791;
2763151058586981;-13.7788;-0.1137;-11.4835;
2763151068694793;-13.3143;-0.6024;-8.7452;
2763151078802606;3.8040;1.1417;-3.5686;
2763151088919272;-1.7031;0.3009;-7.7752;
2763151099027085;-14.4903;-1.0645;-3.9832;
2763151109134845;-12.6577;0.8997;-4.8957;
2763151119229793;-20.8050;2.2484;-7.5906;
2763151129337606;2.8220;0.2865;4.7222;
2763151139445418;-8.3746;1.1489;0.5515;
2763151149549585;-18.4047;-1.3065;-2.0569;
2763151159657397;-5.7323;-1.3017;-3.1687;
2763151169765210;-5.5313;0.0709;-3.2429;
2763151179857085;-12.8351;-0.3508;1.1001;
2763151189964897;-7.6152;0.6410;2.4823;
2763151200072658;-6.5228;0.4134;-3.8177;
2763151210181877;-13.7716;-1.3424;-5.2023;
2763151220289689;-3.0470;-0.6526;-4.5843;
2763151230397450;-10.3391;0.1475;-8.8651;
2763151240509897;-11.6492;0.4950;1.8954;
2763151250617710;-7.4166;1.6926;-5.5594;
2763151260725522;-21.5569;1.6711;-5.0539;
2763151270833491;-9.5916;1.2541;10.1815;
2763151280941304;5.1888;3.3096;1.2296;
2763151291049116;-11.5798;-3.6135;-10.3573;
2763151301154168;-18.0260;-1.7856;-4.7040;
2763151311261981;-16.3780;4.0092;5.4458;
2763151321369793;-3.2506;3.1155;1.6032;
2763151331470835;-5.0378;-1.9316;-2.1314;
2763151341578647;-18.4238;-0.5590;-5.1401;
2763151351686460;-17.4296;2.1670;0.2641;
2763151361807085;3.1214;1.6591;1.0762;
2763151371914897;-2.5223;-0.1280;-9.7561;
2763151382022710;-20.3593;0.0900;-11.5935;
2763151392127085;-14.0495;3.1107;0.8103;
2763151402234897;3.9550;3.2641;-0.1693;
2763151412342710;1.3463;-0.9138;-10.1324;
2763151422458960;-26.4009;-1.5772;-11.6438;
2763151432566772;-21.8181;2.7084;4.5353;
2763151442674585;-3.5070;3.4175;10.0451;
2763151452809064;-1.6935;1.3765;-8.6207;
2763151462916877;-16.7468;-4.8637;-6.3978;
2763151473024689;-3.4663;-1.3041;6.9476;
2763151483104272;-2.2732;3.3120;-6.0841;
2763151493212085;-23.6937;-0.4896;-8.3166;
2763151503319897;-10.1928;-0.1543;4.5712;
2763151513420002;5.4042;1.0364;4.4587;
2763151523527814;-2.0288;-1.4022;-9.8785;
2763151533635627;-24.5635;-2.5092;-13.7303;
2763151543738335;-7.8978;-0.7388;-0.2198;
2763151553846147;0.7762;3.0437;-3.0416;
2763151563953960;-8.9518;0.4349;-7.9092;
2763151574073752;-22.7501;0.3631;-1.8655;
2763151584181460;-11.2540;1.8820;8.7682;
2763151594289168;3.9263;2.2316;2.5017;
2763151604393856;-10.5281;-2.5642;-12.1828;
2763151614501564;-10.5808;-2.1832;-2.1266;
2763151624609272;-17.7553;1.3908;4.8036;
2763151634710210;-9.4932;3.2498;3.1149;
2763151644817918;2.1870;-1.1964;-4.2179;
2763151654925627;-12.2025;-1.9101;-5.5232;
2763151665036460;-14.7084;-0.9664;-1.1444;
2763151675144168;-15.8653;1.4746;-2.4188;
2763151685251929;-3.5572;0.9715;-4.0884;
2763151695357814;-6.2306;-0.9114;-3.0918;
2763151705465522;-13.4818;-0.4896;-1.7336;
2763151715573231;-11.6348;0.6936;-2.8451;
2763151725681825;-11.5008;0.1164;0.8725;
2763151735789533;-3.8925;1.5562;-4.7545;
2763151745897241;-6.9087;-1.0980;-4.5987;
2763151756003491;-8.1948;0.1905;1.6223;
2763151766111200;-18.6296;1.3143;-6.2300;
2763151776218908;-3.3897;-0.1926;-2.5361;
2763151786334377;-13.3071;-0.1567;-7.7034;
2763151796442085;-3.6867;-0.0583;3.8623;
2763151806549793;-10.6768;0.2530;-3.8177;
2763151816649168;-13.1608;0.4277;-7.4133;
2763151826756877;-0.6179;-0.6287;-0.0114;
2763151836864585;-21.1714;1.3980;-4.7207;
2763151846990731;-11.8265;-0.5590;5.9605;
2763151857098439;5.9240;1.4746;0.6595;
2763151867206147;-11.1799;-1.6609;-11.4476;
2763151877301147;-18.3278;-2.4132;-3.4466;
2763151887408856;-10.9522;1.2302;3.3209;
2763151897516564;-11.2373;3.4247;-2.0474;
2763151907623752;0.5007;-1.4599;-0.1334;
2763151917731460;-5.3228;-0.6814;-8.0411;
2763151927839168;-27.0859;-0.8512;0.4558;
2763151937934481;-1.9762;1.6687;7.1273;
2763151948042189;5.6988;1.7812;-14.9354;
2763151958149897;-16.6367;-3.0769;-10.1970;
2763151968265158;-15.5444;-0.3748;5.1918;
2763151978372866;-8.6788;2.5358;0.1612;
2763151988480627;-1.2864;0.4134;-3.0081;
2763151998586564;-10.3774;-0.8536;-8.0722;
2763152008694272;-25.0953;-0.0153;-4.9723;
2763152018802033;-9.2513;1.5945;14.0336;
2763152028906772;0.4839;2.9336;0.2713;
2763152039014481;-13.0412;-2.3151;-12.4558;
2763152049122189;-11.9127;-4.1524;-1.7456;
2763152059245314;-0.7786;1.2254;3.9604;
2763152069353022;-5.3180;0.9547;-6.4816;
2763152079460731;-20.7787;-2.2265;-7.9549;
2763152089570887;-18.2249;0.7992;2.8346;
2763152099678595;3.4926;1.4889;4.1234;
2763152109786304;-1.6816;-1.5150;-7.6648;
2763152119886043;-16.6415;-4.3609;-10.5850;
2763152129993752;-14.7730;0.5572;-1.2185;
2763152140101460;0.1774;3.4941;-1.1611;
2763152150224064;-25.4139;1.4650;-6.7618;
2763152160331772;-10.4803;-0.1567;7.4483;
2763152170439481;3.4783;1.1728;3.9556;
2763152180545002;-5.2869;-2.8947;-7.9403;
2763152190652710;-25.2030;-3.4505;-9.5381;
2763152200760418;-8.3818;1.8078;-0.0162;
2763152210837085;-3.8758;2.2364;2.7027;
2763152220944793;-14.8137;-1.6394;-1.5326;
2763152231052502;1.3750;-2.2600;-2.2558;
2763152241166772;-9.6730;-0.8584;-10.2999;
2763152251274481;-16.1216;-1.0023;-4.7761;
2763152261382189;-12.5261;0.3559;-3.1759;
2763152271495002;7.3783;0.1379;-4.0454;
2763152281602710;-19.0035;-0.3556;-4.6035;
2763152291710418;-20.3450;-0.1065;3.1890;
2763152301818908;-2.5032;2.4162;-1.3002;
2763152311926616;-6.1325;0.2698;0.4128;
2763152322034325;1.6528;-2.0252;-4.9077;
2763152332143908;-17.4177;1.2302;-15.1627;
2763152342251616;-23.7826;1.7596;6.6841;
2763152352359325;0.5246;2.6052;10.1815;
2763152362473022;3.2411;3.5324;-16.7871;
2763152372580731;-16.4139;-0.8512;-11.8068;
2763152382688439;-9.5342;-0.5518;10.1384;
2763152392788439;-17.8271;4.6702;-4.6585;
2763152402896147;-17.8104;3.3144;-6.4648;
2763152413003856;2.1918;-2.0324;8.4808;
2763152423114377;-7.6801;1.8389;-5.8564;
2763152433222085;-12.8279;-0.5877;-1.3289;
2763152443329793;3.1167;0.6218;-5.0157;
2763152453437606;-21.8830;5.2355;-15.3449;
2763152463545314;-22.3044;0.7104;8.8543;
2763152473653022;5.9408;1.8389;7.2015;
2763152483760835;-6.1301;-0.4202;-8.1631;
2763152493868543;-10.3558;-1.3424;-3.2189;
2763152503976252;-19.4707;1.9442;-12.4654;
2763152514087918;-13.7644;2.6052;1.5960;
2763152524195627;5.2822;0.0015;3.5916;
2763152534303335;-14.5382;0.8686;-13.5772;
2763152544403908;-5.0904;-0.0607;-0.9287;
2763152554511616;2.1990;-0.0778;6.0924;
2763152564619325;-24.1514;-0.1902;-19.9896;
2763152574737918;-19.2096;1.7237;-5.3988;
2763152584845627;2.9991;-1.9917;18.4675;
2763152594953387;-14.1000;-4.3848;-1.9612;
2763152605056981;-12.7657;-0.9975;-8.0219;
2763152615164689;-0.5509;1.3597;-1.7719;
2763152625272450;-13.6472;1.3310;-6.8985;
2763152635385158;-11.0886;-1.1486;-0.4977;
2763152645492866;-7.2296;-0.3485;-3.0296;
2763152655600627;-11.4936;-0.9066;2.6764;
2763152665689377;0.0909;-3.9511;2.5591;
2763152675797085;-17.6453;-0.5112;-14.2454;
2763152685904845;-18.4286;0.2483;3.4406;
2763152696024689;8.0943;-1.3567;2.3530;
2763152706132397;-17.8585;0.4038;-17.0360;
2763152716240158;-24.5827;0.0565;3.0574;
2763152726349481;2.7188;2.2172;7.9442;
2763152736457189;3.3945;-0.8225;-8.2902;
2763152746564950;-12.7849;-1.8957;-9.5237;
2763152756667606;-21.6577;2.0833;-0.7253;
2763152766775314;-11.2134;3.7672;3.3281;
2763152776883075;-6.5803;1.6017;-0.5910;
2763152786996356;-7.0810;-3.9703;-3.1567;
2763152797104064;-15.7792;-0.1831;-2.2606;
2763152807211825;-5.7972;2.0303;1.0929;
2763152817311981;-6.5779;0.6625;-9.7226;
2763152827419689;-10.0370;-0.1735;-5.1832;
2763152837527450;-0.0072;1.0292;-2.3853;
2763152847639325;-22.7740;2.4975;-6.5892;
2763152857747033;-19.3890;-0.3075;7.4602;
2763152867854793;6.6117;2.0614;1.4764;
2763152877954793;-13.6161;-2.7655;-7.9813;
2763152888062502;-0.5031;-3.0410;-4.7737;
2763152898170262;-8.1829;3.3622;-7.9549;
2763152908277241;-24.7789;1.4315;-6.9368;
2763152918384950;-15.9829;0.6721;7.6137;
2763152928492710;1.1716;1.7142;3.2656;
2763152938627502;-10.3268;-1.2323;-1.3935;
2763152948735210;-5.8020;-3.9416;-0.1238;
2763152958842970;-7.4405;1.3119;-10.0890;
2763152968936877;-21.1858;0.6051;-6.9751;
2763152979044585;-7.1145;1.0484;4.2359;
2763152989152293;-0.3329;2.3994;-7.0086;
2763152999249168;-9.9772;-1.7737;-0.3012;
2763153009356877;-9.0479;-0.2835;-1.6355;
2763153019464637;-13.5440;1.5754;-8.9441;
2763153029562397;-7.9938;0.2818;-5.5522;
2763153039670106;-7.8117;1.5009;-1.4031;
2763153049777866;-19.1833;2.0303;-3.3386;
2763153059896981;-17.5950;1.6041;8.4138;
2763153070004689;-3.1286;1.0747;3.7807;
2763153080112450;0.4816;-1.6107;-7.2793;
2763153090207502;-16.3086;-0.1519;-4.6155;
2763153100315210;-10.5616;1.4363;0.5898;
2763153110422918;0.3978;2.9671;-5.2744;
2763153120555835;-9.0814;0.5118;-10.4342;
2763153130663543;-23.2579;1.0675;-5.7030;
2763153140771304;-7.7375;1.7620;7.7261;
2763153150870679;3.2506;1.4626;-2.0836;
2763153160978387;-15.6425;-0.2979;-12.4176;
2763153171086147;-10.8538;-0.4202;-6.6012;
2763153181181668;-4.1728;4.4426;0.9159;
2763153191289377;-7.8308;0.9739;-0.8641;
2763153201397137;-18.0452;0.5166;-4.6992;
2763153211503543;-12.8423;0.2148;4.1378;
2763153221611252;3.7777;1.0125;3.9772;
2763153231719012;1.2458;-1.8383;-9.3347;
2763153241824377;-17.6716;-0.0873;-13.7830;
2763153251932085;-19.4994;1.0627;0.6691;
2763153262039845;-1.6361;2.9599;6.1475;
2763153272156356;-7.0211;1.5897;-8.1631;
2763153282264064;-10.7892;-1.1267;-2.9602;
2763153292371825;-14.0928;-0.6263;4.5951;
2763153302477137;0.5462;0.9021;-2.2319;
2763153312584845;-9.3544;1.0484;-12.7241;
2763153322692606;-20.8098;0.0278;-4.0621;
2763153332801877;-11.3163;0.5859;14.4215;
2763153342909585;-0.8527;1.7237;3.6060;
2763153353017345;-4.2568;-1.7139;-10.1563;
2763153363124325;-16.8332;-1.7928;-7.1043;
2763153373232033;-4.3597;0.3823;1.9050;
2763153383339793;-12.0805;2.1814;-4.2419;
2763153393450002;-16.8571;-0.3772;-4.0645;
2763153403557710;-3.1454;0.4950;-3.0296;
2763153413665470;-3.8686;0.4349;-1.7551;
2763153423776668;-18.0141;-0.5279;-2.2295;
2763153433884377;-13.0675;0.3272;-1.5251;
2763153443992137;3.9933;0.4277;-3.8608;
2763153454099481;-17.8056;0.3799;-6.4672;
2763153464207189;-13.1848;-0.4872;3.7519;
2763153474314950;-4.4483;0.6984;-1.7145;
2763153484423752;-10.5784;-1.2849;-2.5768;
2763153494531460;-9.2683;-1.4169;-4.0119;
2763153504639220;-19.5138;0.7223;-7.2769;
2763153514740835;-3.3440;-1.2826;7.2087;
2763153524848543;0.6996;0.1714;-3.6356;
2763153534956304;-21.9619;-2.1329;-12.8680;
2763153545058752;-13.6759;-1.1964;4.9140;
2763153555166460;0.4289;1.0220;5.9127;
2763153565274220;-7.7901;-1.6202;-11.5146;
2763153575401147;-9.3162;-3.9559;-5.6216;
2763153585508856;-9.7472;-0.3891;-2.4811;
2763153595616616;-19.9137;0.6434;-4.4309;
2763153605714168;0.3715;0.1475;-0.3778;
2763153615821877;-20.2083;0.4301;-5.5738;
2763153625929585;-16.8978;-0.7938;9.0030;
2763153636038491;13.2664;-0.0200;3.6156;
2763153646146200;-21.9260;-0.7220;-16.7991;
2763153656253908;-16.8978;-3.0529;3.8599;
2763153666351825;1.8494;2.7730;3.6921;
2763153676459533;-9.3425;1.0962;-10.2616;
2763153686567241;-13.7572;-3.6182;0.3359;
2763153696707502;-7.1985;0.5979;-3.6188;
2763153706815210;-6.4319;1.2927;-9.5743;
2763153716922918;-6.8728;-1.1797;2.6213;
2763153727001147;-9.2201;1.8197;-9.5647;
2763153737108856;-19.3436;1.6831;-7.5787;
2763153747216564;-6.5755;0.1546;11.8801;
2763153757330575;-2.1727;3.0748;-8.3859;
2763153767438283;-7.2129;-1.1100;-10.2281;
2763153777545991;-11.3545;-1.0693;0.2210;
2763153787658752;-17.2020;3.2474;-1.7456;
2763153797766460;-14.5765;2.2962;2.9160;
2763153807874168;-2.0459;1.3765;1.6992;
2763153817970522;-3.2315;-1.0406;-0.9311;
2763153828078231;-15.5276;-1.0980;-4.6992;
2763153838185939;-17.7171;0.8112;-4.2634;
2763153848309585;-3.3945;2.1933;1.8667;
2763153858417293;-0.9461;1.0388;-5.4682;
2763153868525054;-17.0273;-0.4825;-6.9464;
2763153878640106;-13.8939;0.8734;3.2154;
2763153888747814;-6.2091;3.3191;-0.0951;
2763153898855522;-0.3520;-0.2094;-9.4161;
2763153908945939;-7.8787;-0.1639;-10.9612;
2763153919053647;-23.0949;1.4435;2.8944;
2763153929161408;-10.1521;3.7792;4.4827;
2763153939328856;4.8556;1.1991;-9.7131;
2763153949436564;-9.4167;-0.4178;-7.6744;
2763153959544272;-14.6510;-1.1653;-0.8689;
2763153969589168;-12.3607;2.1598;0.2737;
2763153979696877;-15.3479;0.5716;-2.1673;
2763153989804585;-8.8155;-1.0382;-0.1525;
2763153999898856;-4.4219;0.0398;-0.8282;
2763154010006564;-6.1014;-1.3902;1.8452;
2763154020114272;-15.0676;-1.7043;-2.5122;
2763154030244585;-16.4617;0.3057;-10.2353;
2763154040352293;2.3189;-0.6885;0.3048;
2763154050460002;-5.4401;-0.6622;-1.8344;
2763154060547814;-20.7521;-1.2299;-6.7379;
2763154070655522;-4.2664;-0.4561;-2.2798;
2763154080763231;-2.8699;0.8566;-5.6408;
2763154090872085;-7.7423;-0.2859;-9.5381;
2763154100979793;-21.7893;0.3942;-4.1172;
2763154111087502;-16.4402;3.8749;6.1211;
2763154121206043;1.1955;4.1288;5.0671;
2763154131313752;-4.2066;-0.4920;-10.5491;
2763154141421460;-8.1135;-4.0014;-6.6661;
2763154151524064;-5.1694;0.6817;-0.6030;
2763154161631772;-15.4439;3.0006;-4.7303;
2763154171739481;-26.6210;2.7921;-4.3711;
2763154181849793;-12.0685;3.2378;14.3713;
2763154191957502;13.1178;4.0427;4.7509;
2763154202065210;0.9918;-4.7034;-13.1578;
2763154212199064;-23.9934;-3.6589;-16.7871;
2763154222306772;-19.4201;2.1144;-2.2295;
2763154232414533;-2.4362;7.6621;7.8796;
2763154242494793;-3.8806;3.3359;0.8557;
2763154252602502;-10.1713;-2.4036;-2.2247;
2763154262710210;-4.2042;-1.2993;-6.6876;
2763154272815314;-23.0758;1.6400;-8.7694;
2763154282923022;-6.7648;1.5248;1.5242;
2763154293030731;-2.8579;4.6630;-5.8083;
2763154303156147;-11.0025;-1.2179;0.1038;
2763154313263856;-15.3909;-0.0368;3.2608;
2763154323371564;-5.3659;1.5081;-1.9564;
2763154333486356;-8.5496;-0.2883;-4.3807;
2763154343594064;-10.0561;-0.8369;-3.8536;
2763154353701772;-11.1583;1.2736;-2.8908;
2763154363795418;-6.8246;0.2219;0.4702;
2763154373903127;-4.0699;-0.2859;-1.8009;
2763154384010835;-19.7390;0.1355;-9.2988;
2763154394119377;-11.5511;0.5477;-2.7015;
2763154404227085;-5.9097;1.5344;5.7188;
2763154414334793;1.6624;-0.3891;-3.5949;
2763154424439168;-4.7022;-2.0803;-12.9613;
2763154434546877;-23.9285;-0.7914;-5.7078;
2763154444654585;-23.5382;2.4185;5.5367;
2763154454762293;4.1779;3.3766;4.3603;
2763154464870002;-2.4888;-0.6933;-6.2898;
2763154474977710;-15.1298;-4.0926;-4.6466;
2763154485083908;3.5477;-0.6191;-3.1205;
2763154495191616;-18.5818;2.1311;-13.7758;
2763154505299325;-24.1777;-0.0655;4.4515;
2763154515414585;8.3722;1.6352;5.7930;
2763154525522293;-3.8399;1.1584;-7.6986;
2763154535630002;-16.7877;-4.7728;-1.6857;
2763154545729897;-15.8055;0.1522;-5.9928;
2763154555837606;-11.6659;2.8567;-7.0086;
2763154565945314;-4.0196;-0.0873;6.7271;
2763154576044429;-10.4563;1.3262;-0.7373;
2763154586151929;-17.3219;0.2746;-4.2299;
2763154596259533;1.9642;-1.8263;7.1991;
2763154606375470;0.0455;0.4636;-10.5084;
2763154616483022;-20.1915;-1.2467;-13.3448;
2763154626590575;-18.6105;-0.8273;8.4185;
2763154636691616;-9.3760;4.8882;2.5472;
2763154646799168;-1.2000;1.5969;-8.5226;
2763154656906720;-1.4922;-3.2396;-8.0004;
2763154667029950;-24.3933;0.1762;-4.2323;
2763154677137502;-8.1900;2.1933;6.1618;
2763154687245054;-4.4435;3.7863;-8.0842;
2763154697342241;-17.8849;-0.0464;-2.4667;
2763154707449793;1.4180;-0.8898;8.9070;
2763154717557345;-9.9509;0.3751;-6.5629;
2763154727664533;-13.8748;-1.8263;-8.4891;
2763154737772085;-2.5439;2.2555;-6.1463;
2763154747879637;-13.3789;2.3130;-6.7690;
2763154757977554;-12.0063;-0.5399;5.9991;
2763154768085106;-10.8781;-0.6168;4.8849;
2763154778192658;-9.4765;1.5200;-9.6389;
2763154788307866;-9.1675;-0.4896;-1.6977;
2763154798415366;-12.4277;-0.2548;2.2286;
2763154808522918;-1.9810;1.2015;-4.1148;
2763154818648022;-5.6533;-0.5112;-7.0828;
2763154828755575;-7.2512;-0.1424;-9.3275;
2763154838863127;-13.9825;0.9691;-3.1998;
2763154848947658;-20.6946;-0.4178;8.7179;
2763154859055210;-5.3228;0.9500;4.2885;
2763154869162762;7.3783;0.2339;-7.2697;
2763154879330262;-18.8860;-1.1581;-17.1344;
2763154889437814;-20.2035;-1.6561;3.8237;
2763154899545366;-2.2469;1.9322;9.0054;
2763154909615887;-9.7831;4.3612;-12.1780;
2763154919723439;-9.4860;-2.0372;-2.3901;
2763154929830939;-28.5159;0.8782;6.7247;
2763154939973700;2.2639;-0.0153;9.2378;
2763154950081252;15.3048;-0.3796;-9.9790;
2763154960188804;-19.2909;-1.4288;-27.2387;
2763154970253647;-25.1743;-1.5556;0.5707;
2763154980361252;0.4217;1.2494;15.4995;
2763154990468804;3.0568;3.0867;-11.5768;
2763155000562137;-8.5376;-2.2122;-16.2793;
2763155010669689;-15.1442;-1.5341;-4.6298;
2763155020777241;-4.9107;0.6218;0.3960;
2763155030911825;-3.6580;0.7175;-1.1109;
2763155041019377;-27.5028;3.4678;-13.4979;
2763155051126929;-25.1791;0.3105;15.8925;
2763155061210627;4.2760;0.8806;23.7951;
2763155071318179;-0.5198;4.2150;-15.6156;
2763155081425731;-10.8658;-5.5394;-14.7820;
2763155091542033;-17.2642;-3.8818;1.4309;
2763155101649585;-6.5949;0.8662;6.5548;
2763155111757137;3.1358;2.0976;0.8079;
2763155121873491;-23.8328;-0.1280;-11.9288;
2763155131981043;-2.9321;-3.4050;4.8945;
2763155142088595;9.6012;-2.0874;-4.7183;
2763155152191877;-29.6324;0.8806;-26.6854;
2763155162299429;-21.7104;-0.1663;0.4678;
2763155172406981;4.5108;2.4688;12.5626;
2763155182513179;-1.4252;2.0040;-2.9124;
2763155192620731;-12.6529;-0.7842;-11.3372;
2763155202728283;-22.2183;1.5009;-6.7044;
2763155212830054;-15.2880;1.8700;13.0322;
2763155222937606;3.0999;0.7777;7.9346;
2763155233045158;-8.5591;1.5057;-16.1833;
2763155243155366;-11.8457;-3.2635;0.1756;
2763155253262918;-1.0110;-1.8215;4.0561;
2763155263370470;-16.7662;1.9585;-16.5858;
2763155273475158;-18.3589;-1.1940;-3.0488;
2763155283582710;-1.9283;-0.6502;11.0414;
2763155293690262;-1.9570;-0.0344;-4.2514;
2763155303808804;-22.0672;-2.9976;-10.4079;
2763155313916356;-15.2091;-1.0980;-1.0606;
2763155324023908;0.4816;1.1991;0.7217;
2763155334147137;-0.2061;1.8051;-6.3476;
2763155344254689;-13.9992;-0.8656;-8.7188;
2763155354362241;-20.6204;-1.0454;2.5065;
2763155364453908;-11.1607;1.4267;5.5295;
2763155374561460;-2.0025;1.3478;-4.8144;
2763155384669012;-5.3731;-0.7986;-6.0817;
2763155394771825;-15.4077;-2.1066;-3.2070;
2763155404879377;-7.7351;0.8495;-3.9975;
2763155414986929;-10.2072;2.5095;-7.2482;
2763155425103700;-7.9866;-0.8082;-1.7527;
2763155435211252;-11.4434;0.6362;-0.2940;
2763155445318804;-12.1020;-1.0836;3.9724;
2763155455422710;-0.0144;-1.3017;-0.5097;
2763155465530262;-11.5869;-0.4657;-15.1723;
2763155475637814;-9.7448;-1.1605;-4.8718;
2763155485743595;-9.3233;0.9141;0.2139;
2763155495851147;-19.7031;2.6940;-2.2008;
2763155505958700;-9.9509;-0.0511;4.2239;
2763155516068908;-1.6696;0.7271;1.7782;
2763155526176460;-10.6935;-1.1605;-6.2420;
2763155536284012;-2.1033;-1.6756;-4.7303;
2763155546392450;-8.3052;0.6840;-6.1199;
2763155556500002;-28.0083;1.8389;-4.3089;
2763155566607554;-11.6877;0.7609;9.2593;
2763155576717918;8.0441;3.6257;-0.6413;
2763155586825575;-7.2918;-2.6958;-10.1061;
2763155596933127;-22.8721;-1.2873;-8.1655;
2763155607037189;-12.2411;2.9312;-0.0473;
2763155617144845;4.2425;4.3540;0.2330;
2763155627252397;-8.0154;0.8447;-9.2076;
2763155637355627;-25.1480;-0.9401;-3.0224;
2763155647463283;-15.5109;1.9107;12.1170;
2763155657570887;9.9652;2.8232;-0.5623;
2763155667698127;-1.6983;-1.9364;-20.1239;
2763155677805783;-26.3264;-1.0334;-12.1875;
2763155687913387;-17.3004;1.8580;13.4489;
2763155697999012;3.2124;4.1192;4.3316;
2763155708106564;-6.6356;0.5118;-13.5218;
2763155718214220;-16.5434;-2.6360;-6.1343;
2763155728311408;-8.3722;-0.1711;7.5368;
2763155738418960;-6.5683;1.4363;-1.6929;
2763155748526564;-12.5572;0.0159;-11.8738;
2763155758673075;-8.3578;-1.2275;-4.3448;
2763155768780679;-10.8395;0.9954;5.0934;
2763155778888283;-11.1607;0.6147;1.7662;
2763155788973283;-9.0072;-0.2189;-6.3739;
2763155799080887;-12.8830;-1.2227;-5.5232;
2763155809188491;-14.0880;0.9428;3.1986;
2763155819329220;4.6977;0.9212;0.6954;
2763155829436825;-11.2158;-0.9162;-8.3931;
2763155839544429;-18.6993;-4.3152;-5.3821;
2763155849617762;-6.8175;2.9049;1.4740;
2763155859725366;-6.9948;4.2607;-4.2538;
2763155869832970;-4.0364;-1.5724;-4.1124;
2763155879958439;-7.0331;-0.0464;-9.8617;
2763155890065991;-14.1287;0.3416;-3.5973;
2763155900173647;-5.8427;1.2063;0.4534;
2763155910271512;-14.0231;2.7873;-6.3114;
2763155920379116;-15.2043;0.0374;0.2904;
2763155930486720;-14.0880;1.6161;8.2149;
2763155940580627;-3.1956;2.3201;2.3052;
2763155950688231;-0.4576;-3.6494;-5.4036;
2763155960795783;-11.5295;-2.3127;-10.4222;
2763155970929168;-25.1575;1.5897;-1.0774;
2763155981036772;3.0350;0.8949;10.6534;
2763155991144325;1.1569;2.7371;-9.2172;
2763156001250679;-25.2556;-3.6230;-10.0579;
2763156011358283;-3.9144;-1.8215;6.5070;
2763156021465887;-7.5458;4.1815;-7.5260;
2763156031550470;-9.6538;-1.2538;-5.5690;
2763156041658075;-10.4468;0.2650;-7.5356;
2763156051765679;-17.5564;2.6318;-1.3409;
2763156061877502;-4.0364;1.9657;7.0026;
2763156071985158;2.3237;1.7836;-6.1367;
2763156082092710;-14.5860;-1.4862;-10.6065;
2763156092213439;-19.5760;-0.4681;3.7472;
2763156102321043;-1.2168;3.2139;4.8682;
2763156112428647;-12.6721;1.5849;-9.3251;
2763156122524481;-26.6955;-2.4514;2.9997;
2763156132632085;-4.8604;1.9011;5.5774;
2763156142739741;10.2287;0.5405;-4.7498;
2763156152847241;-6.7672;-1.9869;-14.2621;
2763156162954845;-19.8180;-0.1615;-11.2343;
2763156173062450;-11.5367;2.1383;3.8432;
2763156183174897;-8.7556;3.1346;2.8370;
2763156193282502;-0.8360;-0.4490;-3.1831;
2763156203390106;-4.4629;-1.4384;-7.8015;
2763156213499689;-13.4507;-1.9077;-5.9426;
2763156223607293;-18.7543;1.3573;-3.5997;
2763156233714897;-16.5960;3.6042;-5.6671;
2763156243820522;-9.6778;2.6988;5.0934;
2763156253928127;8.5663;0.8686;7.7166;
2763156264035783;-6.2761;-0.5447;-10.5012;
2763156274142814;-22.5320;-3.8483;-6.6757;
2763156284250418;-10.9522;0.1929;2.3506;
2763156294358075;-9.7113;4.1504;0.8725;
2763156304470835;-8.5137;-1.5700;2.7099;
2763156314578439;-6.7385;-1.8526;-1.1683;
2763156324686095;-5.3133;-1.6178;-9.3778;
2763156334807970;-10.6098;-0.1998;-12.1995;
2763156344915522;-7.5769;2.1550;-7.7704;
2763156355023127;1.1955;1.4985;-2.3566;
2763156365102918;-20.1245;0.8136;-0.5432;
2763156375210522;-13.7333;1.1512;2.4057;
2763156385318127;-6.3482;1.0842;0.6595;
2763156395435939;-3.5883;0.5070;-1.7862;
2763156405543543;-15.3694;-1.0717;-8.2807;
2763156415651147;-9.9485;-0.0682;-3.4944;
2763156425753908;-4.9537;2.8472;-0.2151;
2763156435861460;-8.2334;1.2374;-1.7623;
2763156445969064;-11.6444;-1.0286;-0.9359;
2763156456081564;-4.2568;-0.4729;0.8557;
2763156466189168;-14.4808;-1.0573;0.7265;
2763156476296772;-8.5161;-0.7962;-6.1630;
2763156486402189;-9.0479;0.0972;-6.3595;
2763156496509793;-10.8060;-0.4609;-0.0855;
2763156506617397;-5.0976;0.0589;-1.1850;
2763156516724585;-13.3813;1.2398;-9.7609;
2763156526832241;-14.8591;0.6099;-1.4007;
2763156536939845;-16.1192;1.4841;7.7931;
2763156547050522;-5.6557;2.0351;3.1866;
2763156557158127;-4.4916;-0.7914;-4.5724;
2763156567265783;1.5069;-2.2744;-2.5816;
2763156577373647;-10.2359;1.4291;-14.4730;
2763156587481252;-24.0221;-0.8177;-6.1822;
2763156597588856;-1.2120;-0.3413;4.9929;
2763156607694168;-15.7098;1.6448;-4.4524;
2763156617801772;-12.7777;-1.8861;1.0953;
2763156627909429;-1.9499;-0.2333;0.1516;
2763156638007970;1.2888;-0.5662;-7.5476;
2763156648115575;-19.0202;-0.6359;-17.9345;
2763156658223179;-35.0414;1.2278;1.4859;
2763156668343127;1.3726;1.0268;22.3125;
2763156678450731;18.3784;0.8997;-3.3625;
2763156688558335;-15.0772;-4.7536;-22.1602;
2763156698723543;-21.5593;-5.3788;-3.5614;
2763156708831147;-9.9174;0.2052;6.5788;
2763156718938752;-5.9647;3.1059;-3.1543;
2763156728979741;-3.5596;-1.9774;-8.4338;
2763156739087345;-18.4454;-3.0171;-1.6834;
2763156749194950;-12.9093;-2.7583;6.1881;
2763156759345470;5.1168;-1.1605;-5.8732;
2763156769453075;-8.5663;-0.2070;-19.6400;
2763156779560679;-29.1580;-0.4681;2.6189;
2763156789622189;-5.3779;-0.3242;22.7818;
2763156799729793;4.9181;1.4554;-6.4768;
2763156809837345;-13.7524;-1.7186;-17.7476;
2763156819964689;-20.6635;-3.5536;3.9580;
2763156830072293;-13.6591;1.8293;6.3033;
2763156840179845;-1.0373;2.3731;-0.3754;
2763156850282085;2.9800;-2.1616;-13.6633;
2763156860389741;-29.2657;-0.8058;-8.6183;
2763156870497345;-10.6840;-0.2261;14.7209;
2763156880619116;3.4567;3.6978;-1.0510;
2763156890726720;-8.2741;0.9476;-17.0722;
2763156900834325;-20.3306;-1.3424;-4.6083;
2763156910909533;-6.4391;1.8221;8.4042;
2763156921017137;-1.4563;3.4798;-3.2692;
2763156931124741;-10.4874;-0.2046;-15.4286;
2763156941251564;-16.2751;-0.0511;-6.9727;
2763156951359220;-12.3033;3.0269;10.4474;
2763156961466772;-1.7198;2.9432;4.0394;
2763156971586304;-8.9662;1.1417;-14.4443;
2763156981693908;-8.6022;-2.6264;-2.9746;
2763156991801460;-9.5749;2.9049;1.5553;
2763157001889116;-17.3315;2.5190;0.1229;
2763157011996720;2.0291;-0.3338;-2.2606;
2763157022104272;-9.6562;0.7537;-8.3166;
2763157032216877;-11.2277;-0.0416;-3.9951;
2763157042324533;-14.6052;1.3286;3.0790;
2763157052432137;-14.5190;2.4568;0.8366;
2763157062539585;-10.1856;1.5945;-3.5423;
2763157072647189;-1.1856;-1.2778;-2.1697;
2763157082754845;-6.7074;0.3894;-2.1577;
2763157092873752;-11.8792;0.4902;-0.4690;
2763157102981356;-11.9031;1.1895;-4.7231;
2763157113088960;-12.1762;1.5993;-6.0359;
2763157123185418;1.4447;-0.1137;2.8561;
2763157133293022;-5.1838;0.1738;-7.5906;
2763157143400627;-11.8193;-0.9162;-7.3654;
2763157153510314;-24.4053;1.4602;-1.6116;
2763157163617918;-14.5693;2.9145;-0.2079;
2763157173725522;0.7475;1.9466;0.3960;
2763157183832241;-4.6543;-1.4623;-2.2175;
2763157193939845;-7.8691;-1.8168;1.1506;
2763157204047450;-20.5391;1.2661;-3.9736;
2763157214148595;-8.9447;1.3310;-5.1305;
2763157224256147;-11.2277;1.0627;1.3851;
2763157234363804;3.8617;-2.3605;4.2479;
2763157244473387;-7.0164;-0.7938;-9.8617;
2763157254580939;-11.3737;-2.5977;-6.1152;
2763157264688595;-17.5229;1.0795;-12.6188;
2763157274804064;-24.3263;3.7624;-0.8545;
2763157284911668;5.2247;-0.1567;12.1316;
2763157295019272;1.7297;-0.7149;-5.3366;
2763157305127918;-18.4310;-2.3270;-11.7685;
2763157315235522;-23.1933;0.6194;-2.5170;
2763157325343179;0.5198;3.8916;5.2158;
2763157335427397;-7.8739;0.8877;-4.0406;
2763157345534950;-12.8949;-3.3691;-0.5384;
2763157355642554;3.5668;0.1977;-0.5456;
2763157365750210;-22.0816;0.6864;-8.0435;
2763157375879325;-9.7352;-0.7914;-1.7791;
2763157385986929;-4.9609;1.8772;-6.6278;
2763157396094533;-6.4893;-0.4178;-3.4178;
2763157406205522;-29.5101;0.3248;-0.9144;
2763157416313127;-8.5065;1.2494;2.9925;
2763157426420731;11.2086;0.4445;-4.3735;
2763157436532710;-8.8944;-1.0717;-5.6001;
2763157446640314;-25.8162;-0.5160;-3.6933;
2763157456747918;-5.0139;2.3587;2.9207;
2763157466844272;3.5429;0.4397;0.4247;
2763157476951877;-16.9552;-2.0922;-15.9389;
2763157487059481;-18.0835;-1.9149;2.1398;
2763157497170106;-5.7156;1.8413;8.3922;
2763157507277710;-5.0043;-0.0488;-6.3162;
2763157517385314;-13.3621;-2.3509;-17.7859;
2763157527501408;-15.5300;-0.0368;0.0126;
2763157537609012;-0.2300;2.5430;14.1078;
2763157547716616;-2.4817;1.0795;-9.9694;
2763157557815470;-35.1419;-1.8885;-9.9287;
2763157567923022;3.4759;-0.1424;18.2207;
2763157578030679;13.8030;2.9360;-6.8647;
2763157588147502;-19.6430;-3.6565;-23.9542;
2763157598255158;-37.5494;-1.6346;-0.8498;
2763157608362762;3.2004;4.7518;15.0251;
2763157618454377;7.4548;4.9528;-8.4745;
2763157628562033;-12.2387;-3.2731;-14.4251;
2763157638669637;-11.2612;-2.9426;1.2942;
2763157648785939;-16.7758;3.7648;2.9686;
2763157658893595;-9.6299;3.7146;-4.4886;
2763157669001252;-11.7858;1.2302;-2.4332;
2763157679113387;13.2879;-1.5963;1.5505;
2763157689220991;-18.2513;1.4530;-7.3798;
2763157699328647;-17.2235;-1.6828;-4.3280;
2763157709422137;-9.8982;2.8857;-4.1889;
2763157719529793;3.7729;2.8786;-2.7206;
2763157729637397;-11.9943;0.5070;-2.2128;
2763157739770887;-20.5415;0.1307;2.3243;
2763157749878543;-2.7811;2.0255;2.5113;
2763157759986147;-7.8332;3.1083;-10.2353;
2763157770152814;-6.7983;-0.8707;-4.0190;
2763157780260470;-10.7318;0.7513;-4.3184;
2763157790368075;-9.2803;2.6103;4.3316;
2763157800412814;-6.8510;1.4961;-4.5628;
2763157810520522;-13.8317;0.8686;-6.6084;
2763157820628075;-11.3186;0.4493;3.0455;
2763157830715210;-7.5529;2.2077;6.6147;
2763157840822866;-0.4624;0.9547;-8.8890;
2763157850930470;-24.3263;0.3823;-10.8150;
2763157861042606;-11.1488;-1.3783;9.8103;
2763157871150262;5.9985;3.2091;-2.3710;
2763157881257866;-19.1064;0.3535;-11.5313;
2763157891384585;-15.4149;-1.9630;3.9772;
2763157901492241;-9.3401;1.5754;2.9303;
2763157911599845;-2.3429;0.3799;-4.0573;
2763157921690210;-5.2436;-2.2409;-7.9813;
2763157931797866;-19.9065;-0.0778;-5.0492;
2763157941905470;-11.8026;0.0972;3.6251;
2763157952027085;2.1511;1.0172;1.7566;
2763157962134741;-6.3577;-0.6215;-16.5141;
2763157972242345;-8.9183;-0.1304;-10.2999;
2763157982341772;-13.5850;-1.1629;5.4191;
2763157992449429;-21.4373;0.9404;-1.2233;
2763158002557033;-10.3582;-0.4896;0.2880;
2763158012663491;0.1343;1.0292;0.4798;
2763158022771147;-11.4410;0.1259;-3.7555;
2763158032878752;-9.7878;-2.2361;0.5420;
2763158042979585;-1.0947;0.9452;-7.5739;
2763158053087241;-14.5860;0.4636;-7.5284;
2763158063194845;-12.7199;-1.2491;0.9637;
2763158073312241;-13.0627;0.3033;1.1192;
2763158083419897;-1.0493;-2.2241;6.8231;
2763158093527502;-0.0861;-2.0874;-9.9168;
2763158103643127;-21.7487;-0.9640;-22.4525;
2763158113750783;-16.4522;-0.8489;6.2889;
2763158123858387;-3.1884;2.2077;9.7095;
2763158133959689;-12.5883;3.1684;-6.0718;
2763158144067345;-2.4817;-2.0324;-2.4380;
2763158154174950;0.6613;-0.7771;-2.4165;
2763158164275002;-13.8245;0.0063;-10.5203;
2763158174382658;-23.4206;0.1810;-3.8824;
2763158184490262;-13.3190;1.6807;8.4042;
2763158194598022;-2.2564;2.0566;3.3832;
2763158204705679;0.3544;0.0326;-6.0335;
2763158214813283;-13.6998;-2.4948;-12.8584;
2763158224924585;-23.6578;-0.1113;-0.9263;
2763158235032241;-1.1115;1.8365;5.6109;
2763158245139845;-0.7283;2.5837;-6.7714;
2763158255249897;-17.8872;-2.1090;-4.1937;
2763158265357554;-8.3530;-1.7856;5.3258;
2763158275465158;-6.8680;0.3894;-6.1391;
2763158285572606;-8.4583;-0.0033;-9.1358;
2763158295680262;-13.8147;-1.2586;-2.5552;
2763158305787866;-3.3224;2.0112;-3.3458;
2763158315895418;-5.8116;-0.5542;1.7231;
2763158326003075;-24.0509;0.6242;-3.9377;
2763158336110679;-6.4128;-0.2285;0.5372;
2763158346217502;-5.1072;1.7213;1.4139;
2763158356325158;-6.5492;-0.9760;-3.7220;
2763158366432762;-11.2804;-0.7938;-5.1879;
2763158376535627;-7.6128;-0.9999;-1.5733;
2763158386643283;-11.5582;1.3765;-4.6872;
2763158396750887;-9.8288;-0.9209;-2.7182;
2763158406868908;-9.3425;1.1680;-1.6738;
2763158416976564;-7.1937;-0.6383;3.8623;
2763158427084168;-4.9226;-0.4107;-3.5303;
2763158437186877;-13.6974;0.3966;-14.7748;
2763158447294533;-14.3994;0.3105;1.0235;
2763158457402137;-8.7939;1.4291;3.3185;
2763158467518335;-1.7871;1.5129;-4.1602;
2763158477625991;-13.8099;-1.1076;-2.9650;
2763158487733595;-14.4066;0.3870;-0.4905;
2763158497833022;-4.2185;1.7907;0.3936;
2763158507940679;-6.4128;-0.1711;-4.2156;
2763158518048283;-14.5047;-0.9903;-1.2978;
2763158528149897;-2.3477;-0.3580;-2.2128;
2763158538257554;-19.9687;1.5368;-9.0760;
2763158548365158;-8.9830;-1.6780;3.7687;
2763158558463491;7.9962;1.7381;-4.8120;
2763158568571147;-20.7739;1.1991;-12.8058;
2763158578678752;-21.0371;-0.4633;8.1168;
2763158588812918;-8.7365;1.9107;5.5319;
2763158598920575;-2.9680;2.6486;-3.6476;
2763158609028283;-5.9384;-2.9976;-3.0105;
2763158619176877;-5.1168;-1.3902;-5.3988;
2763158629284533;-16.0451;1.2087;-7.4925;
2763158639392189;-13.1034;0.9117;0.5324;
2763158649437137;-12.7319;0.8997;-2.2678;
2763158659544845;-14.0710;0.5692;3.5219;
2763158669652450;2.1344;-2.3557;3.9843;
2763158679772397;-5.2244;-0.6024;-14.3339;
2763158689880054;-13.4339;-0.4848;-11.0139;
2763158699987710;-19.4539;1.7070;-0.6317;
2763158710079325;-7.3732;2.6486;5.0121;
2763158720186981;2.6495;0.3057;-1.4773;
2763158730294637;-11.2038;-1.6899;-12.5184;
2763158740409897;-13.2470;-1.1004;-1.6857;
2763158750517554;-13.6783;0.6099;0.6332;
2763158760625210;-7.0164;1.0292;-6.6446;
2763158770728022;-4.7360;-0.5830;-6.9177;
2763158780835679;-3.7274;0.4110;-0.4666;
2763158790943335;-17.9423;-1.1414;-0.8067;
2763158801052918;-20.6659;0.2171;1.5434;
2763158811160575;0.3858;1.0699;-1.2185;
2763158821268231;9.1531;-0.2357;-8.3931;
2763158831391252;-10.3965;-1.8503;-10.8485;
2763158841498908;-28.9496;-1.7474;0.3625;
2763158851606564;-17.7482;1.7572;6.7319;
2763158861708491;1.8470;3.3503;-1.5589;
2763158871816147;-3.4878;-0.6526;-4.4309;
2763158881923804;-12.2148;-1.9582;0.5731;
2763158892050210;-9.7974;-0.1591;0.8557;
2763158902157866;1.3678;0.8375;-11.3994;
2763158912265522;-20.4909;1.8652;-13.4859;
2763158922375835;-13.9083;0.2865;7.6615;
2763158932483491;2.9752;0.0278;12.1146;
2763158942591147;-3.3200;-0.0320;-12.1564;
2763158952678231;-20.1413;-0.7244;-19.3789;
2763158962785887;-7.8476;0.6721;1.1121;
2763158972893543;3.1932;2.9527;4.9355;
2763158983003908;-17.8008;2.2292;-7.8733;
2763158993111564;-13.2879;0.1953;-1.2281;
2763159003219220;-5.5648;0.9739;1.3205;
2763159013337189;-1.9020;0.2722;-0.2988;
2763159023444845;-14.6414;0.9571;-8.2376;
2763159033552502;-19.7199;-0.2835;2.1039;
2763159043648127;0.1822;1.6424;5.1799;
2763159053755783;-4.1130;0.6529;-7.3104;
2763159063863439;-19.0322;-0.8632;-4.5485;
2763159073985835;-14.6892;-0.3820;10.2823;
2763159084093491;-8.2621;2.1407;4.4276;
2763159094201147;-2.8555;0.3009;-11.0234;
2763159104288856;-5.2436;-1.8790;-6.3377;
2763159114396512;-17.1829;1.2206;-1.6307;
2763159124504168;-5.8044;2.1096;0.2139;
2763159134623335;-9.2898;2.3130;-8.1535;
2763159144730991;-14.6725;1.7788;-5.9091;
2763159154838647;-13.4746;0.7032;6.4469;
2763159164950731;-5.5720;1.8102;1.2679;
2763159175058387;-7.5386;-0.2213;-6.0072;
2763159185166043;-2.2253;1.3167;-8.6471;
2763159195270158;-17.3507;3.6162;-11.4835;
2763159205377814;-18.7783;1.4387;5.3091;
2763159215485470;-1.3606;0.5142;6.9141;
2763159225592762;-1.9187;1.2206;-11.4715;
2763159235700418;-13.5153;-2.0372;-4.1459;
2763159245808075;-9.2560;0.2315;-1.7695;
2763159255919377;-8.0154;0.9691;-3.0153;
2763159266027033;-13.5491;0.2841;-4.2467;
2763159276134689;-13.3310;-0.3266;-1.6642;
2763159286244585;3.1525;-0.1424;2.4033;
2763159296352241;-9.8360;-1.5437;-5.7867;
2763159306459897;-22.2470;-0.4155;-5.1281;
2763159316537189;-16.6271;0.1786;3.4932;
2763159326644845;-6.3793;1.3621;5.7619;
2763159336752502;12.6314;-1.3280;-2.1745;
2763159346901772;-12.4397;-1.8335;-14.4323;
2763159357009429;-28.5159;-1.7354;-0.2701;
2763159367117085;-8.2741;-0.1998;10.2847;
2763159377213335;-0.2898;2.3010;-9.0664;
2763159387320991;-1.5165;-3.3308;-10.5275;
2763159397428647;-14.6366;-2.6097;-0.6772;
2763159407523543;-20.4168;-1.1390;-3.4633;
2763159417631200;-8.9064;-0.0849;-1.1922;
2763159427738856;3.6939;0.7032;-4.5867;
2763159437851147;-17.8322;0.3057;-3.7412;
2763159447958804;-20.0886;-2.8875;14.6181;
2763159458066460;-1.7824;-1.0717;-3.6045;
2763159468170106;-5.6246;-0.5064;-11.8738;
2763159478277762;1.9813;-2.0157;-3.7771;
2763159488385418;-23.9501;0.5620;-5.3151;
2763159498498752;-21.8542;-0.7196;7.0050;
2763159508606408;3.2052;0.3535;-1.3935;
2763159518714064;-8.3770;0.1810;-12.2548;
2763159528810210;-20.3569;-1.5820;3.8142;
2763159538917866;-4.3334;0.3464;6.8925;
2763159549025575;-1.2912;1.7764;-12.2043;
2763159559182814;-9.1101;-0.9855;-11.4281;
2763159569290470;-6.9541;1.2808;-2.1960;
2763159579398127;-23.0399;2.3130;-0.5791;
2763159589479272;-5.5481;0.5764;5.2349;
2763159599586929;-3.0039;1.0220;-7.1596;
2763159609694637;-6.6547;0.4349;-13.2296;
2763159619786252;-21.1786;0.8016;3.0957;
2763159629893960;-11.9294;2.6892;3.4454;
2763159640001616;2.8771;1.3214;-6.1510;
2763159650161877;-6.4199;-0.0873;-4.9292;
2763159660269533;-11.7260;0.3248;-1.7647;
2763159670377241;-23.7180;1.2951;4.1354;
2763159680425731;0.7044;-0.1950;2.2932;
2763159690533387;-8.9973;1.4698;-13.4979;
2763159700641095;-6.1181;-0.7914;-3.7819;
2763159710744168;-21.0084;1.8245;2.0608;
2763159720851825;-15.8892;0.6984;7.9059;
2763159730959533;6.3649;0.8949;-6.7642;
2763159741068856;-6.4128;0.1714;-10.1587;
2763159751176512;-14.3345;-0.1639;2.7843;
2763159761284220;-8.8059;1.8748;-1.1085;
2763159771418127;-10.2479;-0.6502;-5.7843;
2763159781525783;-13.4411;0.5333;-7.1450;
2763159791633491;-8.0034;1.7859;1.3086;
2763159801724793;-4.0986;1.1512;-1.5326;
2763159811832450;-4.7312;-1.3854;-2.9004;
2763159821940158;-20.1987;1.3286;-10.4988;
2763159832109741;-20.6827;1.9968;1.0499;
2763159842217397;5.2726;1.9561;10.8691;
2763159852325106;-5.0976;-0.9760;-7.7895;
2763159862394793;-21.5545;-3.4457;-4.5580;
2763159872502502;-9.7878;0.4926;3.2321;
2763159882610158;-1.7581;1.4267;-4.9771;
2763159892692658;-5.9408;-1.5508;-7.5667;
2763159902800314;-11.4601;0.9595;-6.0503;
2763159912908022;-20.7329;0.6649;2.8753;
2763159923020939;-5.1072;0.1905;5.6659;
2763159933128595;-13.7931;0.4854;-9.8183;
2763159943236304;-7.9771;-1.6011;-0.7588;
2763159953351877;4.7240;-0.3485;1.1456;
2763159963459533;-13.5272;1.0962;-14.7891;
2763159973567241;-16.1839;0.7223;-3.8632;
2763159983663439;-9.4908;1.8867;1.8260;
2763159993771095;-6.8871;0.7729;0.8653;
2763160003878804;-8.8705;-2.2744;2.3985;
2763160013984689;-3.5524;-0.5614;-2.2965;
2763160024092345;-18.4167;1.2565;-12.2381;
2763160034200054;-14.5645;0.1283;1.3564;
2763160044311564;-4.1177;1.5491;-2.4476;
2763160054419220;-6.4463;-0.3796;-2.6871;
2763160064526929;-8.9399;-0.9449;-0.0425;
2763160074649585;-19.4707;1.4578;-2.1912;
2763160084757241;-6.7385;-0.8632;3.9963;
2763160094864950;-1.1689;0.5979;-4.2395;
2763160104967658;-14.0495;-0.8106;-6.1319;
2763160115075314;-24.6473;0.9212;0.5252;
2763160125183022;5.1526;-0.2477;2.3411;
2763160135293856;4.3143;0.4325;-12.5064;
2763160145401512;-20.4192;-0.0631;-12.3123;
2763160155509220;-21.0060;1.8604;2.9040;
2763160165584481;-7.1240;3.0245;4.4396;
2763160175692137;-1.8230;-1.0190;-0.0879;
2763160185799845;-9.0574;0.0852;-9.2172;
2763160195943335;-18.1005;-0.1184;0.0508;
2763160206050991;-8.3913;0.9308;2.4081;
2763160216158700;0.6398;0.3248;-8.6471;
2763160226256252;-19.6071;1.3214;-9.0999;
2763160236363908;-11.7595;0.6075;7.9226;
2763160246471616;2.2472;-0.3051;0.8438;
2763160256573856;-12.0996;-0.7460;-11.2678;
2763160266681512;-13.4554;0.7223;-2.6824;
2763160276789220;-13.6687;2.4353;-0.9909;
2763160286896043;-5.5143;1.2494;0.6452;
2763160297003700;-6.4487;0.0637;-3.8393;
2763160307111408;-15.5659;1.6184;-6.7116;
2763160317217397;-7.0283;0.8016;2.4870;
2763160327325054;4.1444;1.1847;-4.0167;
2763160337432762;-19.3675;0.4636;-12.0248;
2763160347539585;-20.9510;0.9308;3.5773;
2763160357647241;2.0459;1.3406;7.3573;
2763160367754950;-4.8772;1.3119;-7.6505;
2763160377858543;-11.6420;-2.1329;-4.7904;
2763160387966200;-14.9623;1.8963;-2.8813;
2763160398073908;-8.8442;2.6773;-1.5876;
2763160408181252;-2.0985;0.2291;-1.3289;
2763160418288908;-20.8433;0.7729;-5.2095;
2763160428396616;-10.8948;0.0182;5.5343;
2763160438495939;11.6925;-0.3628;0.6691;
2763160448603647;-12.8040;1.2879;-18.5716;
2763160458711304;-25.3684;-0.5782;-2.0668;
2763160468814481;-6.6858;1.5081;10.7901;
2763160478922137;4.4821;1.3669;-2.3710;
2763160489029845;-14.0136;-1.2012;-11.6462;
2763160499150575;-18.1101;-0.5183;-1.8224;
2763160509258283;-16.5960;2.1048;6.8399;
2763160519365939;4.0986;0.7561;0.8629;
2763160529460731;1.7007;1.1824;-16.8302;
2763160539568387;-24.8510;0.7343;-6.0574;
2763160549676095;-14.1598;-0.5614;14.0599;
2763160559784325;-2.8217;1.9920;0.6212;
2763160569892033;-12.0565;-0.9449;-8.4721;
2763160579999689;-8.9279;-0.1591;0.3096;
2763160590117241;-9.0718;0.8758;1.9193;
2763160600224897;-5.1981;-0.4561;-6.5198;
2763160610332502;-12.6027;0.1211;-9.9239;
2763160620443856;-10.2526;1.2808;-7.6720;
2763160630551512;-10.9020;1.6496;3.7041;
2763160640659116;4.4653;-1.5150;4.2359;
2763160650780627;-11.6659;-0.4322;-11.8259;
2763160660888283;-23.1356;-0.5853;-2.7517;
2763160670995887;-7.8930;-0.1615;5.4769;
2763160681083491;-8.1757;0.7753;-4.7064;
2763160691191147;-11.1583;-0.6694;-0.5886;
2763160701298752;-4.8508;0.3296;-3.2477;
2763160711412814;-5.8068;0.3559;-5.5929;
2763160721520470;-11.6563;-0.0945;-5.0492;
2763160731628075;-13.2302;0.3320;-2.0234;
2763160741735939;-16.9959;-1.4312;4.9762;
2763160751843595;4.1922;-2.6551;8.2890;
2763160761951200;-3.2387;-2.5810;-10.0436;
2763160772073647;-21.6888;1.0220;-15.3209;
2763160782181304;-14.1455;0.1283;4.2909;
2763160792288908;2.6686;-0.5997;-0.5910;
2763160802389377;-11.6997;1.6519;-13.5987;
2763160812497033;-6.9470;-1.1219;-0.7131;
2763160822604637;-16.6104;0.2435;0.9637;
2763160832696043;-14.4879;-0.6837;3.9389;
2763160842803700;0.1654;-1.3304;1.9313;
2763160852911304;-18.2800;1.5826;-10.0866;
2763160863030731;-10.2383;-0.7603;6.8806;
2763160873138387;-5.3707;-0.4920;-2.4571;
2763160883245991;-3.8447;0.0254;-9.3945;
2763160893347085;-7.1770;0.2841;-6.2228;
2763160903454741;-16.6893;-0.7484;-5.5137;
2763160913562345;-10.6816;0.0087;0.6954;
2763160923681564;-4.8939;-1.4743;5.1485;
2763160933789220;-12.0805;-1.0143;-7.8637;
2763160943896825;-13.0938;0.6505;-4.5174;
2763160953999689;-0.7690;0.8758;0.1181;
2763160964107345;-10.8156;2.3659;-10.7910;
2763160974214950;-12.1331;1.8843;-5.3773;
2763160984327293;-14.2268;1.9202;1.2799;
2763160994434950;-7.2942;-0.0754;5.3067;
2763161004542554;-8.5137;-0.2883;-1.8057;
2763161014655418;-9.4932;0.0398;-4.1148;
2763161024763075;-6.9565;0.3535;-0.1813;
2763161034870679;-4.4605;0.4831;-5.2119;
2763161044964272;-8.7461;0.8375;-9.0497;
2763161055071929;-26.4655;1.4243;-1.7910;
2763161065179533;-3.2124;-0.2070;7.7716;
2763161075287918;10.4300;-0.2835;-2.4356;
2763161085395575;-11.0839;-0.5207;-15.9317;
2763161095503179;-30.2288;2.5765;-7.5930;
2763161105628022;-9.3233;1.1393;9.7624;
2763161115735679;7.2129;2.6414;0.8677;
2763161125843283;-13.9872;-0.1615;-9.7609;
2763161135924533;-26.2355;0.2148;2.1852;
2763161146032137;-8.2693;0.6697;7.5177;
2763161156139793;8.4060;0.1427;-1.3074;
2763161166246043;-10.8948;1.1154;-14.9928;
2763161176353700;-24.0676;0.0254;-0.4570;
2763161186461304;-2.3788;-0.9066;7.3310;
2763161196586564;-3.7370;0.0159;-10.1324;
2763161206694220;-19.0394;1.1489;-8.4577;
2763161216801825;-6.7265;-0.4681;5.4697;
2763161226907606;-4.1946;-1.1028;0.1277;
2763161237015262;-13.2903;0.8662;-11.1359;
2763161247122866;-22.1704;1.8413;-4.8814;
2763161257237241;-8.6740;-0.1974;7.7118;
2763161267344897;11.0647;-1.1028;1.1937;
2763161277452502;-6.9494;0.7418;-16.9546;
2763161287554689;-40.3089;1.0531;-3.5447;
2763161297662345;-3.7896;-1.8861;17.6411;
2763161307769950;19.3077;-0.9473;-5.6575;
2763161317878856;-20.5343;1.1082;-20.6462;
2763161327986512;-40.9319;-1.5102;9.0509;
2763161338094116;2.6447;-1.7354;14.5965;
2763161348195106;9.8982;0.9858;-11.9432;
2763161358302762;-6.9494;-0.0368;-16.1952;
2763161368410366;-18.4908;0.1164;-5.5089;
2763161378523439;-14.5310;-0.3508;4.8778;
2763161388631095;-12.9236;-0.3413;4.0777;
2763161398738700;-8.7987;0.7801;-8.5920;
2763161408830939;2.9728;-1.5269;1.7734;
2763161418938595;-1.4492;-1.3208;1.1865;
2763161429046252;-15.1179;-1.0286;-19.0292;
2763161439178022;-24.3407;2.1646;-14.1114;
2763161449285679;-7.4261;0.9787;14.9055;
2763161459393283;3.4711;0.3105;5.6300;
2763161469478127;-9.3664;-0.2835;-12.9111;
2763161479585783;-6.3072;-1.7952;-5.7293;
2763161489693387;-8.2119;0.2794;-1.7288;
2763161499816825;-25.3083;1.8389;-3.9111;
2763161509924429;-12.5166;0.3392;4.9929;
2763161520032033;7.2368;-0.3628;6.3105;
2763161530141929;-6.0150;-0.3365;-9.8354;
2763161540249585;-25.0881;-1.8981;-7.7919;
2763161550357189;-1.1258;-1.0645;4.7509;
2763161560466668;-10.5975;3.1131;-4.1387;
2763161570574377;-21.4947;0.2746;-6.0550;
2763161580681929;-0.9413;-1.3472;5.8959;
2763161590793231;4.4940;-0.4848;1.6439;
2763161600900887;-8.0967;-1.5389;-11.6246;
2763161611008595;-34.1501;1.9370;-16.2096;
2763161621093231;-3.1645;0.7968;13.5257;
2763161631200887;3.5958;0.9284;3.3712;
2763161641308595;-16.7276;0.0661;-15.6227;
2763161651409325;-17.7817;-0.8970;-0.3491;
2763161661516981;-2.7356;1.2422;5.6755;
2763161671624689;-22.0935;2.8735;-8.3620;
2763161681739585;-1.2721;-0.7747;1.4668;
2763161691847241;-5.2654;1.6567;2.4272;
2763161701954950;-19.2670;-0.4609;-3.4298;
2763161712068908;-2.7500;0.0661;-1.2162;
2763161722176564;-8.1999;1.6998;-9.3586;
2763161732284272;-22.0600;-0.4322;2.8442;
2763161742389064;-2.4266;-0.2142;2.0034;
2763161752496720;-13.7979;0.9188;-13.9412;
2763161762604429;-7.3325;0.2315;-1.2185;
2763161772715522;6.5542;1.4291;0.7265;
2763161782823179;-25.6846;1.6902;-17.1057;
2763161792930887;-16.1743;-1.5126;11.3842;
2763161803050575;6.1445;2.0279;0.8701;
2763161813158231;-15.9613;0.0900;-15.4744;
2763161823265939;-7.9866;-2.2816;6.2169;
2763161833346825;-4.9442;0.7370;-2.2917;
2763161843454481;-6.4798;1.6137;-15.0550;
2763161853562137;-10.8562;0.7394;-6.7116;
2763161863700106;-18.2656;1.9274;-0.3538;
2763161873807762;-7.4333;-0.3580;11.9327;
2763161883915470;6.7337;-0.4944;-0.9479;
2763161894017606;-22.9442;1.9107;-21.2857;
2763161904125262;-13.3908;-1.7139;7.0460;
2763161914232970;-4.0005;0.6314;7.3334;
2763161924333752;-9.8695;1.4578;-9.4591;
2763161934441408;-1.0325;-3.0649;-0.1286;
2763161944549116;-2.0312;2.1790;-14.1688;
2763161954659793;-17.9566;0.6601;-3.4418;
2763161964767450;-11.9318;-0.4226;9.6138;
2763161974875158;-17.0079;1.7189;-4.6418;
2763161984983335;-18.3736;1.1871;0.1756;
2763161995090991;13.8437;-1.1243;8.9527;
2763162005198700;2.6710;0.9858;-18.6242;
2763162015311564;-29.5795;-0.2859;-13.3161;
2763162025419220;-21.8949;1.0316;10.8523;
2763162035526929;-4.6639;4.7518;5.7356;
2763162045621668;1.7369;1.0914;0.2402;
2763162055729325;-4.1441;-3.8746;-2.3853;
2763162065837033;-8.9901;-0.9999;-7.8541;
2763162075961564;-19.7390;1.1273;-9.2722;
2763162086069272;-11.3330;1.5248;-1.2835;
2763162096176929;-12.5118;1.1800;0.9398;
2763162106278856;-11.7332;-2.4634;6.8351;
2763162116386512;4.0412;-2.1066;3.2871;
2763162126494220;-3.0637;-0.1137;-19.5299;
2763162136601564;-14.2890;0.2076;-15.3377;
2763162146709220;-25.8763;0.0111;5.9847;
2763162156816929;-3.5166;0.1714;12.5363;
2763162166926408;-7.8188;0.9858;-1.4701;
2763162177034064;-3.8877;-2.0468;-8.8484;
2763162187141772;-5.7371;-1.5748;-7.9451;
2763162197241356;-17.1613;0.7992;-4.5102;
2763162207349012;-13.0316;1.7357;-1.7527;
2763162217456720;0.0024;1.7716;-2.6895;
2763162227576564;-16.0116;0.5835;-1.0869;
2763162237684220;-25.2844;0.1164;6.5548;
2763162247791929;7.4859;0.1259;6.7487;
2763162257893856;-0.4552;0.2076;-14.2549;
2763162268001564;-22.0887;-1.3496;-10.1204;
2763162278109220;-11.8050;1.5200;1.8021;
2763162288200835;2.2519;4.1264;3.2752;
2763162298308491;-20.6922;-0.4322;-3.6093;
2763162308416200;-8.7051;-0.6383;-5.0348;
2763162318545002;-3.8279;1.7883;-1.7360;
2763162328652710;-9.5438;0.5548;-1.0558;
2763162338760366;-16.8165;0.0733;-5.9521;
2763162348861356;-10.2455;2.7419;-4.7351;
2763162358969012;2.0674;1.1943;3.1675;
2763162369076720;-13.3502;0.4636;-5.4826;
2763162379157762;-14.6533;-0.1735;-4.0167;
2763162389265418;-10.1952;1.4267;4.2550;
2763162399373075;-2.0650;0.8590;-1.2305;
2763162409513856;-14.9001;0.6266;-9.7705;
2763162419621564;-18.6873;-0.7172;2.9638;
2763162429729220;6.9039;1.6687;0.5348;
2763162439823127;-0.8384;0.2363;-12.4056;
2763162449930835;-26.6498;-0.8130;-11.3539;
2763162460038491;-26.1661;1.2087;9.9706;
2763162470144481;7.1913;1.0316;18.0197;
2763162480252137;0.2611;0.3153;-15.7881;
2763162490359845;-19.0179;-2.5164;-14.0680;
2763162500507137;-11.4506;-1.8766;6.6936;
2763162510614793;-13.3837;3.9299;-4.1459;
2763162520722502;-10.9690;0.1762;-3.1926;
2763162530802554;-9.4023;0.0015;3.9269;
2763162540910210;-5.2053;-0.2022;1.4139;
2763162551017918;1.5978;-1.9415;-5.7389;
2763162561111772;-14.2029;-0.9544;-13.3014;
2763162571219429;-18.0093;-0.7340;-4.2730;
2763162581327137;-7.2296;0.7128;4.9953;
2763162591455314;-0.2348;-0.8441;-1.4821;
2763162601563022;-3.8112;-2.0276;-11.6821;
2763162611670679;-9.4358;-1.3232;-11.6749;
2763162621754689;-19.4178;0.5381;-0.2892;
2763162631862397;-10.3511;-0.7699;5.4601;
2763162641970054;-11.0049;2.6821;-3.2644;
2763162652078856;-12.1762;1.4530;2.0249;
2763162662186564;-3.5022;-1.3089;7.0986;
2763162672294220;-7.5362;-0.0849;-7.0684;
2763162682411252;-11.9608;-3.1582;-8.3118;
2763162692518960;-4.4653;-0.7699;-1.1803;
2763162702626616;-13.2039;1.6567;-2.6130;
2763162712725002;-26.9901;-1.2634;6.7777;
2763162722832710;4.1180;-1.0023;9.8988;
2763162732940366;4.2449;0.7104;-14.1688;
2763162743045522;-14.6701;-3.6661;-16.6170;
2763162753153179;-17.1541;-1.2251;-0.8091;
2763162763260887;-9.4645;3.5348;3.4956;
2763162773372710;-14.7634;3.4678;-1.5900;
2763162783480366;4.9780;0.3918;-1.5589;
2763162793588075;-15.3287;0.5716;-8.6997;
2763162803697085;-11.0647;-2.1927;1.0642;
2763162813804793;-3.9574;2.5525;-3.8608;
2763162823912450;-14.5430;1.9729;-10.1085;
2763162834004741;-6.9087;-0.1759;1.4836;
2763162844112450;-13.4004;1.7596;3.7567;
2763162854220106;-4.8556;-0.6191;-1.5781;
2763162864368127;-7.4979;-2.0085;-6.6422;
2763162874475835;-9.1795;-0.5255;-6.6060;
2763162884583491;-19.4516;0.5524;-4.1722;
2763162894669897;-3.1286;0.0613;6.7678;
2763162904777606;-12.1068;1.7357;-7.3869;
2763162914885262;-6.2952;-1.0525;-1.9756;
2763162924990314;-1.7055;-0.7172;-1.2643;
2763162935098022;-24.2617;1.3143;-7.4423;
2763162945205679;-12.9691;-0.4370;8.6964;
2763162955315522;1.5858;3.3359;-1.9708;
2763162965423231;-0.8791;-0.2189;-9.6317;
2763162975530887;-16.9122;-2.4491;-3.4226;
2763162985630627;-12.4902;-0.1065;-1.4414;
2763162995738335;-19.9714;4.1001;-0.7516;
2763163005845991;3.0111;0.5668;4.3989;
2763163015960731;1.6959;1.5826;-11.9818;
2763163026068439;-19.6717;-1.8598;-6.0359;
2763163036176095;-11.3115;-0.4609;3.7424;
2763163046279845;-15.4295;2.5597;-4.2108;
2763163056387502;-4.4797;0.7104;-3.0511;
2763163066495210;1.4614;-0.0631;-1.1204;
2763163076604168;-16.1288;0.1905;-3.5088;
2763163086711825;-19.6789;-0.7723;-1.2520;
2763163096819533;-4.5275;0.2483;-1.1707;
2763163106933439;-4.2138;1.6280;-5.5256;
2763163117041147;-9.7448;-1.3759;-2.6082;
2763163127148804;-16.0355;-0.2955;3.5363;
2763163137252241;-8.4921;0.1307;-2.5241;
2763163147359950;-7.0427;-0.1496;-3.3386;
2763163157467606;-10.7414;0.1331;-5.0420;
2763163167557606;-11.2995;0.3655;-1.3098;
2763163177665314;4.4270;-0.7244;2.1135;
2763163187772970;-15.3646;-0.5997;-14.3650;
2763163197893022;-23.1212;0.3416;-3.4178;
2763163208000679;-5.7658;2.2292;9.4005;
2763163218108387;-3.5166;2.2842;-2.9506;
2763163228213335;-6.3793;-1.4073;-5.5905;
2763163238321043;-12.9858;-1.7737;-5.8059;
2763163248428700;-7.8954;1.2039;-2.7972;
2763163258559481;-7.9771;1.9346;-2.2319;
2763163268667189;-8.1398;0.3775;-4.6202;
2763163278774845;-13.7285;0.2339;-1.7623;
2763163288860210;-5.3587;0.5405;2.2789;
2763163298967918;-13.6783;0.3559;-6.2587;
2763163309075627;-9.1149;-0.4872;-3.8656;
2763163319194325;-5.5071;1.0268;-2.2702;
2763163329301981;-6.2521;1.5730;-4.3591;
2763163339409637;-19.4539;-0.3003;-0.9742;
2763163349501147;-14.7586;0.4854;3.4095;
2763163359608856;5.7374;1.1800;1.3804;
2763163369716564;-9.0335;-0.2142;-9.9287;
2763163379855054;-19.9448;-1.7545;-1.9229;
2763163389962762;-3.0996;1.3502;1.5218;
2763163400070418;-4.4892;1.1943;-7.1548;
2763163410149689;-19.6382;-0.3580;-7.1907;
2763163420257345;-9.9293;-0.1472;5.0886;
2763163430365054;-1.6098;1.1130;0.6595;
2763163440478491;-9.3832;-1.0980;-7.8661;
2763163450586200;-9.2683;-0.6383;-9.6748;
2763163460693856;-13.1824;2.2244;-2.3925;
2763163470814897;-15.9853;1.2087;6.3966;
2763163480922606;-3.3751;0.6529;-1.4198;
2763163491030262;-10.5640;-0.6072;-7.8230;
2763163501192502;-10.3726;-0.6168;2.4296;
2763163511300210;-4.5491;0.6697;-1.1587;
2763163521407866;-14.3946;0.0278;-8.1057;
2763163531449585;-11.5415;-0.1496;0.9494;
2763163541557293;-0.3138;0.2937;-2.4188;
2763163551664950;-5.1287;0.4684;-9.7825;
2763163561770158;-29.2035;-1.1148;0.3000;
2763163571877814;-4.3119;0.2937;7.2302;
2763163581985522;1.3654;2.1766;-9.6700;
2763163592108752;-15.3191;-1.5676;-6.6924;
2763163602216408;-6.5420;0.5429;-1.0199;
2763163612324064;-20.1820;1.9657;-2.1194;
2763163622418022;-10.5712;0.2243;4.1856;
2763163632525731;-1.7007;1.3765;-2.4188;
2763163642633335;-5.3396;-1.7258;-7.3893;
2763163652744168;-18.6105;-0.8489;1.2870;
2763163662851825;-5.6127;1.1608;-0.7995;
2763163672959481;-7.3062;1.5081;-11.9097;
2763163683062397;-11.4649;-0.8707;0.1397;
2763163693170054;-8.2502;0.3057;-0.0832;
2763163703277710;-18.0739;1.2398;-2.4978;
2763163713386668;-1.7414;-0.4729;4.8754;
2763163723494325;-2.3189;1.4865;-14.1999;
2763163733601981;-23.3249;-0.1567;-6.6446;
2763163743712502;-9.6610;0.0135;11.9207;
2763163753820158;-1.1426;3.7672;-4.7207;
2763163763927814;-12.4062;-1.1988;-8.7957;
2763163774028856;-5.2149;-1.2251;-0.9263;
2763163784136512;-8.5902;1.9609;-3.5447;
2763163794244168;-10.8586;-0.0200;-0.3251;
2763163804352293;-20.1102;-0.3987;-2.2223;
2763163814459950;-14.2843;1.9370;-0.2055;
2763163824567606;4.4916;-0.0416;2.6046;
2763163834693752;-2.8842;-1.1605;-6.6012;
2763163844801408;-26.0869;-0.8297;-10.4031;
2763163854909116;-8.9327;0.4110;4.3603;
2763163864998647;-3.6939;3.2904;1.3804;
2763163875106304;-13.6065;0.8830;-5.4897;
2763163885213960;2.7571;-2.3222;1.9026;
2763163895338231;-18.0882;1.0220;-6.5390;
2763163905445887;-12.3847;-0.7819;-3.5064;
2763163915553543;0.3138;1.9274;-9.5743;
2763163925646825;-25.9481;1.2613;-3.0129;
2763163935754481;0.5701;0.6458;10.4904;
2763163945862137;4.5491;2.2747;-7.7154;
2763163955975106;-22.1297;-1.9316;-15.4887;
2763163966082814;-19.1614;-0.2955;5.0575;
2763163976190418;-1.7581;4.1312;6.2507;
2763163986297241;-14.4425;1.7309;-3.8130;
2763163996404897;-5.0856;-3.2973;1.6534;
2763164006512554;-7.9962;0.2865;-10.7599;
2763164016621772;-9.2273;-0.8082;-2.9722;
2763164026729429;2.0674;-0.0248;-0.4905;
2763164036837085;-25.6152;1.9561;-15.0024;
2763164046943075;-21.5907;0.4878;11.1637;
2763164057050731;7.0884;2.5454;9.1923;
2763164067158439;-3.9622;1.1154;-14.9593;
2763164077275314;-11.2732;-5.8938;-5.3079;
2763164087382970;-10.7749;-0.7890;-6.1415;
2763164097490627;-15.9467;3.7744;-4.0884;
2763164107587658;-11.8002;1.9657;4.2503;
2763164117695314;-12.6817;3.3096;1.0618;
2763164127802970;-3.6194;-1.4192;3.6658;
2763164137904064;6.6356;-2.9067;-5.3892;
2763164148011720;-23.4135;-0.8345;-20.0952;
2763164158119377;-19.8921;0.7418;-0.2246;
2763164168217814;-6.6978;3.3814;12.5794;
2763164178325470;6.7433;3.0867;-4.6490;
2763164188433179;-24.4603;-2.8875;-8.9465;
2763164198561981;-18.1005;-1.6322;3.3903;
2763164208669637;7.9771;1.7046;-4.0908;
2763164218777345;0.6517;-0.3099;-12.4965;
2763164228859897;-12.3966;-0.6168;-10.5802;
2763164238967554;-16.9098;2.0614;-1.1946;
2763164249075262;-13.1225;2.0399;7.7070;
2763164259207502;-17.5588;2.2555;-0.9383;
2763164269315158;-4.6328;0.6888;3.1771;
2763164279422866;4.9083;-1.9630;-6.8240;
2763164289495314;-15.7959;-2.6240;-5.0133;
2763164299602970;-17.5349;0.8112;-8.0507;
2763164309710627;-18.6730;3.8055;-0.2294;
2763164319862502;9.1914;1.2087;15.1858;
2763164329970210;3.7131;0.2602;-9.8258;
2763164340077814;-15.6473;-4.0469;-12.0344;
2763164350193022;-24.5348;-2.8349;3.9030;
2763164360300679;-24.6186;4.9361;-0.4089;
2763164370408335;8.6309;2.4090;-3.6284;
2763164380486147;4.8987;-0.3939;-5.8205;
2763164390593804;-28.6789;-0.6814;-5.5905;
2763164400701460;-10.3917;0.6386;0.4104;
2763164410809064;1.2075;2.7802;-2.7206;
2763164420916720;-8.2167;1.0579;-9.5309;
2763164431024429;-22.1608;-0.7077;5.0886;
2763164441141408;-0.6969;-0.0559;9.2354;
2763164451249064;-0.1268;-0.2716;-8.3237;
2763164461356720;-12.6099;-2.2959;-19.0220;
2763164471459585;-27.3326;1.2374;-7.2841;
2763164481567241;-4.7312;2.8041;17.8950;
2763164491674897;7.8646;2.3058;3.3257;
2763164501804168;-19.9738;-0.7507;-23.6572;
2763164511911825;-23.3632;-1.7569;4.8802;
2763164522019481;8.5711;0.6051;13.6789;
2763164532086460;-4.8054;2.2196;-16.1474;
2763164542194116;-15.6473;-2.5905;-11.1335;
2763164552301772;-9.5486;-0.5758;8.0518;
2763164562424481;-7.6705;0.9141;1.4836;
2763164572532137;-14.4186;1.5945;-10.5730;
2763164582639793;-16.9313;-0.7723;-3.1496;
2763164592758335;-4.8748;-0.0129;11.7769;
2763164602865991;13.2329;-0.2381;-6.8169;
2763164612973647;-19.3843;-0.5518;-23.8394;
2763164623067710;-35.6378;0.1546;1.9169;
2763164633175366;-2.3381;2.1311;21.7615;
2763164643283022;13.2186;3.1875;-4.2993;
2763164653397241;-6.5372;-2.6886;-18.2124;
2763164663504897;-25.7563;-3.7044;-4.8407;
2763164673612554;-15.9515;1.3023;4.7509;
2763164683718752;0.7379;4.4883;3.0694;
2763164693826408;-0.4119;-0.5542;-8.6183;
2763164703934064;-21.4062;-0.5112;-11.2343;
2763164714040418;-6.9805;-1.0430;11.4009;
2763164724148075;-2.9058;0.3464;-2.5552;
2763164734255731;-24.7334;1.3047;-17.1272;
2763164744358856;-11.0647;-1.5939;10.1671;
2763164754466512;3.3849;1.3836;10.5386;
2763164764574168;-17.5205;0.4325;-8.6207;
2763164774674793;-14.7778;-2.5355;-6.7331;
2763164784782450;-1.6863;0.2219;3.2465;
2763164794890106;-4.2927;1.8245;-2.9172;
2763164805010106;-15.7002;-1.0071;-7.8374;
2763164815117762;-14.5095;-0.4537;-2.6991;
2763164825225418;0.8145;-0.0511;1.1602;
2763164835323387;-6.9733;0.0422;-8.2567;
2763164845430991;-11.2277;-0.7340;-9.3514;
2763164855538595;-5.4233;0.9930;-2.7517;
2763164865646252;-20.1532;2.8953;0.6858;
2763164875772397;-20.5822;1.8867;0.1301;
2763164885880054;0.3978;1.2903;8.2699;
2763164895987710;6.9565;-0.2189;-5.0034;
2763164906105522;-15.5468;-2.2768;-17.7069;
2763164916213179;-28.6023;-1.7067;1.5482;
2763164926320835;-6.9661;3.1636;10.5048;
2763164936417502;-1.2239;2.1670;1.2727;
2763164946525158;-1.4228;-3.3619;-10.0436;
2763164956632814;-15.9491;-2.6121;-6.9153;
2763164966745314;-14.2244;-0.7340;7.0771;
2763164976852970;-10.7964;3.0891;-9.6891;
2763164986960627;-7.5051;0.6673;-10.7025;
2763164997055991;-6.5779;0.4735;2.3746;
2763165007163647;-10.1641;0.5357;1.8858;
2763165017271304;-6.9517;-0.8273;-4.2323;
2763165027380991;-10.2407;0.8782;-8.9824;
2763165037488647;-14.4018;1.5778;-2.3901;
2763165047596304;-13.9514;2.1191;3.2417;
2763165057706877;-8.0536;0.4759;4.3364;
2763165067814533;6.9398;-1.6875;-2.5624;
2763165077922189;-4.6854;-1.0310;-16.7079;
2763165088016356;-31.0433;1.1489;-9.9120;
2763165098124012;-8.4873;1.6400;9.8581;
2763165108231668;8.0608;1.3836;3.0455;
2763165118339897;-16.3708;-0.7364;-14.1281;
2763165128447554;-32.7129;-1.4862;3.2034;
2763165138555210;0.9176;0.8925;13.0035;
2763165148729689;5.5265;2.5119;-9.9861;
2763165158837345;-13.6137;-2.4132;-15.2061;
2763165168945002;-8.7867;-1.0143;1.5697;
2763165178977606;-7.5697;2.0160;2.5328;
2763165189085314;-16.9672;0.9356;-4.3519;
2763165199192918;-12.6314;-0.0176;-2.3303;
2763165209348543;-7.4166;-0.0488;3.6826;
2763165219456200;5.0737;-0.7029;1.4309;
2763165229563908;-12.3057;-0.5638;-19.9179;
2763165239630418;-28.2547;1.1369;-12.1947;
2763165249738075;-1.5117;2.9815;14.0408;
2763165259845731;2.6351;3.6835;-0.3778;
2763165269953439;-24.8677;0.7609;-9.2602;
2763165280061095;-1.3223;-2.8516;6.2746;
2763165290168752;-8.0154;1.7692;-4.4118;
2763165300333335;-13.2350;-0.1184;-8.1272;
2763165310440991;-7.3950;0.1044;-1.6857;
2763165320548647;-13.9274;1.9155;-2.5887;
2763165330602502;-10.6959;-0.2357;3.4573;
2763165340710158;-12.2865;0.9236;-2.3590;
2763165350817814;-0.1726;-0.8922;-3.8584;
2763165360918647;-0.0287;-0.6790;-2.6177;
2763165371026304;-14.6797;0.5835;-13.7447;
2763165381133960;-31.1510;1.9872;-1.5924;
2763165391247502;-2.6877;0.2578;18.5874;
2763165401355158;0.1415;2.0734;-5.7963;
2763165411462814;-8.9710;-2.3079;-15.1508;
2763165421575522;-3.0446;-2.9713;0.4726;
2763165431683179;-19.0346;2.3034;-5.4012;
2763165441790835;-16.7997;2.3201;-0.0233;
2763165451883908;-1.9905;1.1489;2.0895;
2763165461991564;-3.2889;-0.1878;-1.2954;
2763165472099220;-5.1957;-3.0553;-4.1937;
2763165482222293;-17.5014;-0.0945;-9.7083;
2763165492329950;-16.6893;0.6673;-2.7996;
2763165502437606;-9.8958;2.7012;2.3004;
2763165512543491;-7.5888;0.7343;-1.0534;
2763165522651147;-0.0718;-1.1028;1.5362;
2763165532758804;-17.8418;-0.6311;-1.5924;
2763165542863491;-16.1456;-0.0105;-4.8000;
2763165552971147;-3.3775;0.1068;-2.2606;
2763165563078804;-4.1082;0.9452;-1.9038;
2763165573187189;-6.7193;-2.1138;-3.6643;
2763165583294845;-12.3655;-1.1725;-3.9903;
2763165593402502;-14.8929;-0.7866;-3.7172;
2763165603512606;-11.2636;0.8112;-2.4141;
2763165613620262;-10.5999;0.8471;-2.7446;
2763165623727866;-9.9341;0.1738;3.5964;
2763165633843647;7.1267;-1.0214;1.5745;
2763165643951304;-13.8532;0.1929;-20.1766;
2763165654058908;-31.1869;0.7537;-5.8397;
2763165664157502;0.9464;1.6376;17.8902;
2763165674265158;3.0927;2.4425;-4.6872;
2763165684372762;-18.2536;-2.3821;-10.0603;
2763165694479481;-9.6730;-2.9498;0.1971;
2763165704587137;-9.4262;2.3058;-5.0803;
2763165714694741;-11.9270;0.6314;-1.0582;
2763165724800939;-7.0379;0.4540;-1.6403;
2763165734908595;-4.1946;-0.4131;-2.6082;
2763165745016200;-7.8260;-0.1687;-2.7063;
2763165755121825;-21.4182;0.1475;-5.3533;
2763165765229481;-12.3990;1.6065;-0.3538;
2763165775337085;2.3572;0.6170;4.7701;
2763165785444897;-4.7839;0.5668;-6.7164;
2763165795552554;-19.9161;-0.6502;-9.2028;
2763165805660158;-9.7687;0.8662;5.4936;
2763165815775418;-11.3474;3.8007;-0.5264;
2763165825883075;-12.5644;1.4818;-2.2487;
2763165835990679;0.2444;-0.9879;-0.4738;
