Sensor: bmi160 Accelerometer Non-wakeup
Vendor: BOSCH
TimestampAcc [ns]; AccX [m/s^2]; AccY [m/s^2]; AccZ [m/s^2]
687547693115539;-9.3736;0.1810;-2.2343;
687547703220800;-9.4621;0.2459;-2.4117;
687547713329446;-9.6084;0.2841;-2.5552;
687547723411373;-9.4860;0.4086;-2.6201;
687547733520019;-9.3784;0.3679;-2.3925;
687547743656789;-9.4813;0.4205;-2.5146;
687547753761894;-9.4047;0.4205;-2.3037;
687547763867206;-9.3760;0.4735;-2.3518;
687547774000487;-9.5100;0.4660;-2.5409;
687547784081946;-9.5462;0.3727;-2.6154;
687547794184446;-9.4789;0.3583;-2.5792;
687547804278873;-9.4238;0.3488;-2.6345;
687547814350904;-9.3903;0.3464;-2.6752;
687547824499602;-9.4071;0.3033;-2.5768;
687547834581217;-9.4262;0.2889;-2.5385;
687547844694967;-9.4645;0.2459;-2.5792;
687547854817779;-9.4980;0.1499;-2.5696;
687547864932831;-9.4932;0.1618;-2.5457;
687547875030904;-9.4502;0.2722;-2.6465;
687547885132883;-9.3999;0.4062;-2.7900;
687547895224967;-9.3951;0.4831;-2.8813;
687547905347467;-9.3568;0.5094;-2.8837;
687547915470279;-9.3473;0.5070;-2.8932;
687547925555852;-9.3568;0.4926;-2.8669;
687547935668769;-9.3425;0.4421;-2.8813;
687547945772883;-9.3592;0.4253;-2.8618;
687547955885592;-9.3377;0.3799;-2.8980;
687547965987467;-9.3138;0.3583;-2.9578;
687547976114081;-9.3712;0.4229;-3.0583;
687547986196946;-9.3401;0.4349;-3.1086;
687547996307362;-9.2874;0.3775;-3.1181;
687548006411946;-9.3209;0.3033;-3.1301;
687548016530696;-9.3473;0.3655;-3.0846;
687548026631269;-9.3233;0.4759;-3.0248;
687548036732154;-9.3185;0.5620;-3.0081;
687548046842258;-9.3425;0.6864;-3.0440;
687548056946842;-9.2779;0.7319;-3.0440;
687548067058925;-9.2922;0.7466;-3.0368;
687548077169862;-9.4478;0.6721;-2.9483;
687548087272102;-9.5868;0.5740;-2.7924;
687548097376321;-9.5773;0.6793;-2.7446;
687548107486112;-9.4860;0.7223;-2.7757;
687548117591425;-9.3162;0.6793;-2.9219;
687548127697258;-9.1436;0.6434;-3.1998;
687548137814967;-9.0814;0.5333;-3.4753;
687548147912675;-9.3018;0.3751;-3.4968;
687548158022467;-9.5172;0.3488;-3.1854;
687548168131529;-9.4119;0.4421;-2.7446;
687548178239342;-9.3664;0.5070;-2.5744;
687548188339967;-9.2994;0.4636;-2.6752;
687548198455279;-9.2273;0.3655;-2.8813;
687548208559446;-9.0311;0.2363;-2.9674;
687548218671112;-8.9662;0.1762;-3.2261;
687548228772987;-9.2345;0.1116;-3.5997;
687548238879654;-9.5172;-0.0682;-3.3362;
687548248984446;-9.4310;0.0972;-2.9650;
687548259093612;-9.3664;0.2722;-2.8546;
687548269209446;-9.4262;0.1834;-2.7182;
687548279311321;-9.5438;0.0924;-2.6584;
687548289423092;-9.5342;0.0709;-2.5313;
687548299541112;-9.3832;-0.0009;-2.4739;
687548309610800;-9.7711;0.0661;-2.9985;
687548319757675;-9.7496;0.2650;-3.1567;
687548329856112;-8.9806;0.3368;-2.5576;
687548339959758;-8.7796;0.3942;-2.7733;
687548350065383;-9.4932;0.2865;-3.8991;
687548360169550;-9.5677;0.0230;-3.7795;
687548370282883;-8.6333;0.2267;-2.8092;
687548380381217;-8.2406;0.5740;-2.8860;
687548390499342;-9.1316;0.4493;-3.6957;
687548400595956;-9.9174;0.2602;-3.8847;
687548410704550;-9.6132;0.5166;-3.3505;
687548420816425;-8.7748;0.8351;-2.6704;
687548430914967;-9.2106;1.0077;-2.6225;
687548441026998;-9.8121;1.2422;-2.7350;
687548451132883;-9.6849;1.4530;-2.8020;
687548461234967;-9.4741;1.5538;-3.2166;
687548471354446;-9.1579;1.4459;-3.7723;
687548481446737;-8.6357;1.3717;-4.1578;
687548491579446;-8.8226;1.2637;-4.0454;
687548501663300;-9.0311;1.6041;-3.4657;
687548511766529;-8.6883;1.9155;-2.6512;
687548521871112;-9.6251;2.0279;-2.7613;
687548531963821;-10.4444;2.0518;-2.7470;
687548542095071;-9.7567;1.9131;-2.6441;
687548552199185;-9.2249;1.9131;-3.5064;
687548562315279;-8.6309;2.1000;-3.6069;
687548572438092;-8.0369;1.6759;-2.7159;
687548582530383;-8.5807;1.7261;-3.5542;
687548592637154;-9.4549;1.6376;-4.4189;
687548602729289;-9.6921;1.2422;-3.5495;
687548612858612;-9.2321;1.3502;-2.7829;
687548622946112;-9.7711;1.2278;-2.7063;
687548633051633;-10.1019;1.6208;-3.5638;
687548643190279;-9.3233;2.2388;-3.3936;
687548653278092;-8.0225;2.3444;-2.8669;
687548663363456;-8.5615;1.6065;-3.5614;
687548673462154;-10.2479;1.6376;-3.8895;
687548683572206;-9.3162;2.1359;-2.2128;
687548693699446;-8.5256;2.8280;-2.9004;
687548703810956;-8.5304;2.7299;-4.9675;
687548713912831;-9.3736;1.7142;-5.1855;
687548724008508;-10.0442;1.0627;-3.3434;
687548734114654;-9.3066;1.5802;-1.7599;
687548744224914;-8.3770;2.6151;-2.6584;
687548754352571;-8.7075;2.3369;-3.8249;
687548764467571;-9.4645;1.9992;-3.7795;
687548774570956;-8.5161;2.0590;-2.7852;
687548784655279;-9.2130;1.9585;-3.3482;
687548794778404;-10.7414;1.8365;-4.9268;
687548804869237;-10.1402;1.4722;-4.2538;
687548814982935;-8.3315;1.2254;-2.7829;
687548825090331;-8.4057;1.1824;-2.4404;
687548835197779;-8.5472;1.2975;-2.6536;
687548845320644;-7.5075;0.8231;-2.3614;
687548855428039;-9.0909;0.4612;-3.8417;
687548865535487;-10.7701;0.9476;-5.5304;
687548875646581;-10.3463;1.3884;-4.8670;
687548885753977;-8.7652;1.3286;-3.4322;
687548895861425;-7.6534;0.9356;-2.4236;
687548905955904;-8.8848;0.7418;-2.6417;
687548916063300;-9.9054;1.0244;-2.1649;
687548926170748;-9.6443;1.4961;-2.3085;
687548936279081;-9.5267;2.1550;-4.2227;
687548946386477;-9.3832;1.9657;-5.2095;
687548956493925;-8.6094;1.1106;-3.3171;
687548966600331;-9.4430;0.2865;-2.0617;
687548976707727;-9.3042;0.7199;-3.2142;
687548986815175;-8.6237;1.7261;-5.5714;
687548996925331;-8.4320;0.8686;-6.2133;
687549007032727;-9.3281;-0.1041;-3.7125;
687549017140175;-9.5366;0.3440;-1.7961;
687549027245748;-9.5964;0.7319;-2.1505;
687549037353144;-9.0168;1.2230;-3.9951;
687549047460592;-8.9806;0.6218;-3.5183;
687549057580644;-9.2608;0.8447;-2.0979;
687549067688039;-8.6788;0.7753;-1.9516;
687549077795487;-9.6826;0.4831;-4.0549;
687549087887154;-9.6634;0.1905;-4.8766;
687549097994550;-9.7974;0.4854;-4.1243;
687549108101998;-9.8504;0.7370;-3.1134;
687549118198664;-9.5701;0.4926;-2.6728;
687549128306060;-9.0598;0.2001;-2.4165;
687549138413508;-7.4213;0.9308;-2.7565;
687549148529237;-4.8915;2.2507;-4.3472;
687549158636633;-6.0799;2.8017;-4.9579;
687549168744081;-6.0293;3.2617;-5.2334;
687549178850644;-12.0829;4.8476;-8.8555;
687549188958039;-18.1508;3.5180;-9.4831;
687549199065487;-13.1393;2.0952;-4.8885;
687549209173769;-6.5611;1.2374;0.9781;
687549219281164;-4.1249;1.1728;3.7615;
687549229388612;-4.0484;2.0833;2.4655;
687549239493664;-5.8355;3.0915;-3.1687;
687549249601060;-9.8910;2.4903;-7.6217;
687549259708508;-12.7176;1.0771;-4.3352;
687549269809602;-11.0025;-0.9712;0.3120;
687549279916998;-10.1091;-1.1291;-2.3686;
687549290024446;-11.4266;-0.6694;-7.7345;
687549300149081;-12.7319;-2.0492;-5.1832;
687549310256477;-12.1187;-3.6206;-1.3648;
687549320363925;-6.5492;-2.8421;-0.2653;
687549330456894;-5.7132;-0.3147;-2.9794;
687549340564289;-9.1675;-0.9257;-3.4011;
687549350671737;-10.4874;-0.6981;-1.5757;
687549360780644;-9.7376;-1.0334;-1.6690;
687549370888092;-10.4587;-0.2859;-3.0176;
687549380995487;-10.7031;-0.2548;-2.2439;
687549391091477;-9.7089;-0.2261;-1.3528;
687549401198873;-8.7003;-0.6550;-2.2630;
687549411306321;-8.8394;-0.4322;-4.2491;
687549421430331;-10.5473;-0.6646;-3.4394;
687549431537727;-8.7580;-0.4155;-1.4725;
687549441645175;-8.1517;0.4062;-2.7422;
687549451742310;-10.6624;0.0996;-3.5303;
687549461849706;-10.4348;-0.5375;-1.4390;
687549471957154;-8.7724;0.0589;-1.4509;
687549482063039;-8.4802;-0.1017;-1.4629;
687549492170435;-8.7676;-0.2213;-2.4117;
687549502277883;-11.3809;0.1714;-2.6776;
687549512377935;-9.6562;0.5429;-1.1970;
687549522485331;-8.5759;0.6769;-1.8751;
687549532592779;-9.2632;0.5237;-3.1301;
687549542699810;-10.3678;-0.0009;-1.7312;
687549552807206;-9.0574;-0.2118;-1.3768;
687549562914654;-7.9340;-0.4825;-3.1974;
687549573044394;-9.3066;-1.2538;-3.7125;
687549583151842;-10.4994;-1.5269;-3.1687;
687549593259237;-9.9748;-1.5508;-2.2750;
687549603354810;-9.5797;-1.8168;-1.7767;
687549613462206;-8.5807;-2.1377;-1.8583;
687549623569654;-10.2263;-1.6322;-2.3901;
687549633665852;-9.6108;-0.9975;-1.9014;
687549643773248;-8.1446;0.0565;-2.6943;
687549653880696;-8.4272;-0.4490;-4.2108;
687549663978873;-11.3593;-0.1496;-5.4849;
687549674086269;-9.3377;0.6290;-4.1052;
687549684193717;-8.0417;1.4291;-4.2610;
687549694316998;-8.4272;1.5153;-4.7952;
687549704424394;-9.0024;1.7285;-5.8011;
687549714531842;-9.2225;2.4760;-6.1367;
687549724642102;-7.5242;1.0986;-5.2262;
687549734749498;-8.1613;1.2063;-5.8373;
687549744856946;-10.1282;2.4353;-5.3821;
687549754950019;-8.9112;1.9896;-5.0587;
687549765057414;-9.2803;0.7561;-5.1640;
687549775164862;-8.3243;-0.0535;-4.3113;
687549785276164;-8.8370;-0.2835;-3.0655;
687549795383560;-8.8083;-0.6048;-4.2610;
687549805491008;-7.3493;-0.1902;-5.4156;
687549815614914;-10.6481;0.5357;-5.6575;
687549825722310;-10.7725;-0.1472;-4.6322;
687549835829706;-8.5807;-0.0464;-3.6380;
687549845923144;-7.8308;0.0182;-3.5375;
687549856030539;-11.0575;-0.0730;-4.0932;
687549866137935;-10.4587;-0.1807;-2.6824;
687549876242935;-7.6343;0.0374;-3.4274;
687549886350331;-8.8059;-0.7986;-4.3065;
687549896457727;-9.8145;-1.0190;-3.1711;
687549906557310;-8.1924;-0.4202;-3.6117;
687549916664706;-7.7614;-1.4456;-4.7569;
687549926772102;-10.9738;-0.4848;-5.8708;
687549936887935;-10.1737;0.1427;-4.4070;
687549946995331;-7.9579;-0.8177;-3.7412;
687549957102727;-10.0514;0.2171;-4.2251;
687549967212935;-8.3674;0.0374;-4.4357;
687549977320331;-8.4658;0.2001;-3.7268;
687549987427727;-9.5219;0.4421;-4.2009;
687549997525019;-8.6907;-0.2189;-3.2859;
687550007632414;-9.8527;1.4650;-3.6718;
687550017739810;-9.6036;1.3262;-4.8550;
687550027851373;-9.2130;0.9308;-4.8000;
687550037958769;-8.8801;0.5572;-2.4332;
687550048066164;-8.2980;-1.1988;-1.3959;
687550058158144;-9.9485;-0.3437;-3.4107;
687550068265539;-8.3770;-0.7507;-3.1639;
687550078372935;-9.6993;-0.7866;-3.9927;
687550088505019;-9.8456;0.1953;-3.6236;
687550098612414;-8.2813;-0.8058;-1.9158;
687550108719810;-11.7619;0.1929;-3.0559;
687550118807727;-8.7485;-1.0502;-2.6752;
687550128915123;-8.8490;0.7370;-4.6896;
687550139022519;-8.5759;-0.5040;-3.4657;
687550149135904;-8.3507;-2.1066;-3.6045;
687550159243300;-8.5496;-1.9005;-3.9063;
687550169350696;-8.1565;-2.9665;-2.7015;
687550179467310;-8.5878;-2.3246;-4.6178;
687550189574706;-9.1220;-2.9833;-3.9592;
687550199682102;-8.8705;-2.2146;-3.3386;
687550209766685;-9.8336;-0.9688;-3.2237;
687550219874081;-10.4492;-1.0502;-1.5829;
687550229981477;-9.7591;0.2674;-2.4236;
687550240098039;-9.2106;0.9619;-2.8789;
687550250205435;-7.9217;1.5129;-3.4561;
687550260312831;-8.4081;1.7596;-5.6097;
687550270424394;-8.4416;2.0136;-5.6958;
687550280531789;-9.4119;2.1479;-5.1808;
687550290639185;-11.6109;2.3731;-6.2228;
687550300744914;-9.4071;2.3393;-3.9449;
687550310852310;-7.4118;2.2747;-2.6943;
687550320959706;-8.3052;1.3478;-3.4442;
687550331096269;-10.4300;0.5620;-5.4945;
687550341203664;-11.0599;0.3248;-3.8106;
687550351311060;-9.9485;-0.8512;-2.2630;
687550361405539;-8.0656;-1.4934;-2.2630;
687550371512935;-8.6118;-1.3065;-3.8010;
687550381620331;-10.2144;-1.7426;-4.7064;
687550391705331;-9.3951;-1.2802;-4.8646;
687550401812727;-8.5400;-1.5030;-4.9938;
687550411920123;-7.8547;-1.1581;-4.9986;
687550422032102;-8.3626;-1.5580;-3.4394;
687550432139498;-8.4105;-1.8335;-3.8225;
687550442246894;-9.4358;-2.1305;-4.2395;
687550452364602;-8.7051;-1.7545;-3.0559;
687550462471998;-7.7351;-1.2610;-2.4093;
687550472579394;-8.8992;-1.3376;-3.8536;
687550482664810;-10.2957;-0.9712;-3.9015;
687550492772206;-9.6203;-0.7723;-3.6718;
687550502879602;-8.3052;-0.3939;-3.9760;
687550512981842;-8.4488;-0.1735;-2.8283;
687550523106321;-8.1302;-0.1304;-2.6130;
687550533213717;-9.1651;-0.0873;-4.8861;
687550543321112;-10.0851;-0.1161;-3.1807;
687550553403769;-8.1999;0.0087;-3.7579;
687550563511164;-8.9686;1.1560;-4.3926;
687550573618560;-9.5100;0.9595;-4.0478;
687550583751164;-9.0096;0.7319;-3.6933;
687550593858560;-9.8456;0.8279;-4.7303;
687550603965956;-10.2000;0.9547;-3.7938;
687550614060435;-9.1244;2.1287;-3.9712;
687550624167831;-6.0461;2.1120;-3.3577;
687550634275227;-5.8020;0.3583;-3.1998;
687550644385331;-10.0274;-0.0200;-4.2826;
687550654492727;-11.1631;-1.6875;-3.2333;
687550664600123;-5.8666;-0.7005;-4.0908;
687550674721373;-12.9619;0.0063;-3.3338;
687550684828769;-14.9719;-1.8144;-0.6150;
687550694936164;-11.6468;0.7271;-0.1741;
687550705058092;-9.4454;1.2903;-0.9383;
687550715165487;-4.4964;-0.7914;-0.7107;
687550725272883;-6.7648;-1.0310;-4.1339;
687550735340019;-6.2545;-1.1462;-8.1416;
687550745447414;-19.8658;-0.8106;-6.9296;
687550755554810;-22.0433;-1.3113;0.0580;
687550765672571;-6.2378;2.2029;3.1651;
687550775779967;-2.4290;3.4199;-1.9349;
687550785887362;-7.4477;-0.2453;-2.9985;
687550796007727;-11.7117;-1.2897;-3.4131;
687550806115123;-11.4000;0.3846;-6.9344;
687550816222519;-10.9355;0.0517;-6.2085;
687550826316269;-5.9480;0.2028;-3.6284;
687550836423664;-5.3492;-0.8010;-4.4309;
687550846531060;-9.6108;-0.8707;-6.8818;
687550856649081;-8.2286;-0.6311;-5.2768;
687550866756477;-7.7207;-0.6455;-5.7365;
687550876863873;-9.2273;-0.2740;-5.0683;
687550886960748;-7.2105;-0.8034;-4.7952;
687550897068144;-10.0947;0.0494;-7.1330;
687550907175539;-10.0561;0.8973;-2.5050;
687550917278769;-9.4549;-0.2692;-1.3792;
687550927386164;-8.8681;0.2052;-2.5792;
687550937493560;-9.4956;0.9571;-1.8894;
687550947608144;-9.0263;-0.0706;0.6930;
687550957715539;-4.7240;-1.4743;-3.8871;
687550967822935;-11.1655;-0.4872;-14.1329;
687550977927310;-13.3286;0.4253;-8.3692;
687550988034706;-7.7279;0.6721;-2.9363;
687550998142102;-7.9122;1.1752;-5.0133;
687551008248977;-6.6835;0.5477;-2.4858;
687551018356373;-10.1809;0.2841;-7.3247;
687551028463769;-15.6186;1.7644;-8.4769;
687551038569237;-7.6008;1.1130;0.2091;
687551048676633;-7.1216;0.4349;-2.4188;
687551058784029;-10.0370;-0.1687;-1.8703;
687551068894602;-9.4406;-1.8359;-2.1793;
687551079001998;-10.2838;-0.7866;-2.6728;
687551089109394;-7.4501;-1.4623;-0.3275;
687551099215956;-6.7193;-1.8191;-1.8966;
687551109323352;-8.5256;-3.0171;-3.9664;
687551119430748;-9.7926;-3.8219;-3.1400;
687551129541164;-9.1412;-2.4948;-5.0587;
687551139648560;-7.8476;-2.6264;-4.7952;
687551149755956;-8.6836;-3.0577;-3.4944;
687551159856477;-7.6247;-2.0922;-2.7948;
687551169963873;-9.5267;-3.6805;-3.6933;
687551180071269;-13.4650;-4.0831;-1.2353;
687551190175435;-10.0514;-3.5366;1.4477;
687551200282831;-7.3828;-3.5512;0.7744;
687551210390227;-9.3975;-4.0926;-2.2965;
687551220492935;-10.0298;-3.3117;-3.8345;
687551230600331;-9.3592;-2.3892;-4.2491;
687551240707727;-7.8882;-2.3366;-3.3171;
687551250813664;-10.0947;-1.4910;-5.6240;
687551260921060;-9.6921;-0.3027;-5.1353;
687551271028456;-9.0861;0.4612;-3.2046;
687551281143248;-7.1507;1.2999;-2.9459;
687551291250644;-5.1335;1.2951;-3.3840;
687551301358039;-14.1168;0.1881;-5.6719;
687551311457310;-19.6741;-0.3194;-0.8569;
687551321564706;-10.8251;2.3225;1.3660;
687551331672102;-4.8221;2.5334;0.1804;
687551341782727;-8.2956;0.4134;-3.3290;
687551351890123;-13.5320;-0.3556;-5.7772;
687551361997519;-10.9905;0.8495;-2.4835;
687551372092414;-5.4066;3.0796;-3.5255;
687551382199810;-7.8547;2.0016;-7.5165;
687551392307206;-9.4669;1.2326;-5.4802;
687551402425748;-7.2607;2.5310;-4.6059;
687551412533144;-7.2081;2.5573;-7.9813;
687551422640539;-7.8571;1.7979;-6.0215;
687551432742727;-7.9002;1.4363;-2.7972;
687551442850123;-7.4524;1.1943;-4.3161;
687551452957519;-9.9461;0.8112;-4.6011;
687551463067414;-9.1436;1.1560;-2.5672;
687551473174810;-8.3674;-0.1567;-0.5312;
687551483282206;-9.0239;-0.4872;-2.0788;
687551493371789;-9.3808;0.0781;-2.0883;
687551503479185;-8.3913;-1.3280;-3.8704;
687551513586581;-9.1005;-0.4992;-8.4123;
687551523722935;-10.8658;1.4219;-7.1306;
687551533830331;-10.2526;1.2111;-5.8277;
687551543937727;-9.5677;2.0833;-6.0769;
687551554020539;-11.9991;0.7104;-3.3362;
687551564127935;-10.5114;0.8566;-0.3945;
687551574235331;-9.0479;-0.6191;1.2823;
687551584349185;-6.5731;-2.0444;0.2402;
687551594456581;-8.5400;-2.4395;-2.4500;
687551604563977;-8.9040;-4.1812;-3.2883;
687551614678769;-9.7304;-3.2683;-2.9746;
687551624786164;-7.7112;-2.3916;-4.3496;
687551634893560;-8.2478;-1.0286;-5.6504;
687551645006789;-8.8896;-0.9114;-4.6585;
687551655114185;-7.7758;-1.2993;-3.0368;
687551665221581;-6.6188;-1.3400;-3.1376;
687551675315748;-9.7017;-1.0693;-5.5280;
687551685423144;-12.2746;-1.5341;-2.5337;
687551695530539;-11.0025;-1.1076;-0.8856;
687551705631321;-8.2262;-0.7316;-1.0391;
687551715738248;-9.0622;-0.4561;-2.4452;
687551725845175;-12.8686;-0.7029;-4.1913;
687551735960852;-12.3272;0.4711;-1.1420;
687551746067779;-7.8715;-0.1472;-0.6843;
687551756174706;-9.0957;-0.5279;-3.8895;
687551766278560;-10.2718;-0.7220;-4.0980;
687551776385487;-9.9174;-0.1017;-3.4561;
687551786492414;-10.0155;-1.5030;-2.5600;
687551796601373;-7.7279;-1.6851;-2.4858;
687551806708300;-6.4319;-0.9425;-3.9473;
687551816815227;-8.4634;-0.8177;-5.8995;
687551826921685;-10.9235;-1.3998;-4.9029;
687551837028612;-7.7686;-1.0549;-1.9205;
687551847135539;-7.0857;-1.4336;-3.9015;
687551857255956;-8.4754;-0.5112;-5.2840;
687551867362883;-9.2417;-0.6598;-3.5447;
687551877469810;-10.0708;0.5237;-3.7125;
687551887573560;-9.8958;0.3583;-4.1507;
687551897680487;-9.4214;0.4516;-3.9903;
687551907787414;-12.2842;1.4506;-2.8235;
687551917880696;-8.9877;0.8949;0.1397;
687551927987623;-7.9962;0.5142;-3.0846;
687551938094550;-11.7691;0.2363;-5.9952;
687551948229498;-11.5606;0.2722;-1.1539;
687551958336425;-8.8490;0.4134;0.4845;
687551968443352;-9.0861;0.7175;-5.5376;
687551978535071;-8.6094;0.3607;-5.9450;
687551988641998;-7.2870;0.0900;-3.0775;
687551998748925;-8.8992;-0.6144;-4.3472;
687552008868977;-9.3951;-0.6072;-4.0932;
687552018975904;-9.6012;-0.6263;-4.0621;
687552029082831;-8.2358;-0.8656;-2.2678;
687552039179602;-6.8127;-0.7914;-2.7852;
687552049286529;-9.7496;-0.3820;-5.2549;
687552059393456;-10.9307;-0.7555;-3.7986;
687552069520435;-10.6122;-0.2883;-1.1970;
687552079627362;-9.0718;-0.5112;-0.9383;
687552089734289;-8.5232;-0.2189;-2.7494;
687552099835331;-9.6036;-1.3113;-4.1674;
687552109942258;-9.9150;-1.2562;-4.9340;
687552120049185;-10.8251;-1.0741;-4.1554;
687552130149498;-8.2167;-0.3003;-4.2179;
687552140256425;-7.1889;-0.3891;-4.1363;
687552150363352;-9.7687;-1.1148;-4.5724;
687552160476894;-10.1833;-1.5413;-3.5590;
687552170583821;-9.7831;-0.8512;-2.7015;
687552180690748;-9.4190;-1.4360;-1.8870;
687552190785644;-7.1001;-0.7077;-2.4236;
687552200892571;-10.0274;-0.2022;-6.2946;
687552210999498;-9.7663;0.6793;-4.7279;
687552221111581;-8.8944;0.8686;-1.2209;
687552231218508;-8.2789;0.4902;-1.8224;
687552241325383;-7.5721;-0.0730;-4.3256;
687552251428560;-10.4898;-0.0296;-4.8766;
687552261535487;-9.9269;-0.1998;-2.7039;
687552271642414;-10.3101;0.7247;-3.3362;
687552281761894;-9.9748;1.6184;-3.1376;
687552291868821;-9.2489;1.3741;-1.7408;
687552301975748;-7.6992;-0.0081;-2.4188;
687552312088352;-10.0083;-0.5806;-3.5040;
687552322195279;-7.9074;0.4711;-3.9063;
687552332302206;-10.7605;0.2411;-3.6021;
687552342396477;-8.6644;-0.8994;-1.8607;
687552352503404;-8.2286;-1.1076;-2.5720;
687552362610331;-10.0035;-0.1926;-4.8957;
687552372738560;-11.5750;-0.0897;-2.0740;
687552382845487;-7.6319;0.4998;-0.4929;
687552392952414;-8.4129;-0.8201;-2.3109;
687552403038144;-10.2239;-1.4022;-3.1519;
687552413145071;-8.2717;-1.1701;-3.0368;
687552423251998;-9.2970;-0.5901;-5.2262;
687552433355748;-11.4697;-0.5040;-4.0932;
687552443462675;-10.0780;-0.5614;-1.1731;
687552453569550;-10.2000;-0.2381;-2.0907;
687552463697414;-9.9652;-0.7412;-2.6058;
687552473804342;-10.0875;-2.1377;-2.7422;
687552483911269;-9.0981;-2.5451;-2.1099;
687552493998456;-6.2665;-1.9053;-2.5816;
687552504105383;-8.1111;-1.5508;-6.1941;
687552514212310;-9.5076;-0.0921;-7.1812;
687552524344914;-7.1554;0.1786;-2.4308;
687552534451842;-4.4459;0.0805;-2.7302;
687552544558769;-8.8370;0.3894;-7.4662;
687552554637519;-7.5314;-0.3170;-5.4323;
687552564744446;-9.0742;1.3860;-5.5499;
687552574851373;-8.9399;2.2723;-4.6202;
687552584983144;-7.9914;1.2159;-1.1109;
687552595090071;-8.4849;0.8542;-2.2654;
687552605196998;-7.1049;0.9978;-5.3581;
687552615281894;-21.2193;2.6773;-4.7952;
687552625388821;-29.4407;1.1465;8.3106;
687552635495748;-5.5983;1.8485;15.2551;
687552645629394;-2.8026;1.6065;0.5611;
687552655736321;-10.1163;-0.4226;-16.5260;
687552665843248;-10.3989;-1.2945;-10.5443;
687552675937623;-5.1072;-0.4346;-1.2114;
687552686044550;-5.9719;-0.4729;1.0451;
687552696151477;-10.0202;-2.1784;-0.3156;
687552706315071;-9.4645;-2.6312;-0.2414;
687552716422779;-7.4189;-1.4216;-4.2179;
687552726530539;-8.3004;-1.0645;-7.8087;
687552736575592;-6.7552;-1.7258;-6.6326;
687552746683300;-5.3468;-1.2610;-4.5580;
687552756791060;-8.2430;-1.1219;-6.5629;
687552766892987;-9.9915;-0.9353;-3.7651;
687552777000696;-1.9666;-0.0009;-2.2726;
687552787108456;-15.0652;2.1957;-23.4296;
687552797234914;-20.5558;5.1757;-14.7652;
687552807342623;-6.1516;4.9528;14.8241;
687552817450383;-7.2512;5.2403;8.1838;
687552827537362;-13.7596;1.3095;-3.7866;
687552837645071;-13.7764;-3.1534;-4.3974;
687552847752831;-7.4572;-2.3940;-1.5084;
687552857876842;-4.5993;-1.0167;-2.3375;
687552867984550;-9.5605;-1.8670;-7.4901;
687552878092310;-9.2249;-3.1893;-4.8239;
687552888188196;-6.9685;-1.2251;0.0221;
687552898295904;-8.8011;-0.4442;-3.9975;
687552908403664;-10.9738;0.4397;-4.8287;
687552918507675;-8.9638;-0.5447;-0.4929;
687552928615383;-9.2898;-0.2644;-3.9135;
687552938723144;-10.9522;0.5692;-1.7599;
687552948833092;-6.3144;0.0111;0.1828;
687552958940800;-10.4300;1.0603;-5.1855;
687552969048560;-11.8409;-0.4107;-3.9182;
687552979169862;-7.7566;-0.3508;-0.6437;
687552989277571;-7.5194;0.6769;-1.7264;
687552999385331;-11.1416;-0.1519;-6.1965;
687553009487467;-11.6324;-0.8034;-2.9124;
687553019595175;-8.6740;-0.8922;-1.5829;
687553029702935;-10.5616;0.1427;-2.0668;
687553039798404;-10.3125;-1.2347;-2.2702;
687553049906112;-8.9447;-1.9196;-1.8870;
687553060013873;-9.4095;-0.7962;-3.8632;
687553070132362;-10.7414;-0.0535;-6.2659;
687553080240071;-9.1388;0.1355;-1.2906;
687553090347831;-7.8954;-0.5471;-2.4476;
687553100456685;-9.9365;-0.9544;-3.9449;
687553110564394;-8.7099;-1.6756;-5.8110;
687553120672154;-12.5668;0.6290;-4.7327;
687553130765279;-9.5366;-1.2156;2.2669;
687553140872987;-6.5348;-0.8082;0.5922;
687553150980748;-9.3162;-1.0669;-8.3620;
687553161078196;-9.4956;-0.9784;-6.7594;
687553171185904;-7.5194;-1.3161;-2.1410;
687553181293664;-8.1661;-0.2524;-3.8417;
687553191402050;-13.9825;-0.1902;-5.6408;
687553201509758;-10.5138;-0.2166;1.6247;
687553211617519;-7.2177;0.9619;0.9757;
687553221723612;-9.7017;0.7609;-5.3151;
687553231831321;-11.0169;-0.8536;-6.8527;
687553241939081;-8.4464;-0.4513;-2.8741;
687553252069446;-6.3529;0.8183;-3.5327;
687553262177154;-7.3732;0.2291;-5.2525;
687553272284914;-13.3956;-0.2812;-5.6169;
687553282374133;-10.5018;0.1953;-1.2042;
687553292481842;-7.6992;0.0446;0.8462;
687553302589602;-8.8059;-0.6909;-2.7781;
687553312676217;-9.0790;-0.9520;-5.2645;
687553322783925;-9.7902;-0.0320;-5.2143;
687553332891685;-8.3315;0.5955;-1.7886;
687553343008769;-6.3314;-0.2405;-1.2568;
687553353116529;-9.0215;-0.0344;-6.7403;
687553363224237;-11.4434;0.6840;-7.2027;
687553373318196;-8.5113;0.7537;-2.5313;
687553383425904;-9.3999;1.2613;-0.8761;
687553393533612;-10.5951;0.5859;-1.2018;
687553403664758;-8.2645;0.1546;-1.1970;
687553413772519;-7.2081;-1.0071;-4.0502;
687553423880227;-9.9221;-1.0884;-6.3595;
687553433970487;-11.5678;0.0278;-4.2969;
687553444078196;-12.0661;0.6290;0.5324;
687553454185956;-11.6396;1.2975;1.7830;
687553464298508;-7.1985;-0.0416;0.0870;
687553474406217;-7.7830;-1.5508;-4.9077;
687553484513977;-9.9054;-0.6502;-6.7307;
687553494605592;-8.1805;-0.2979;-3.8082;
687553504713300;-7.4883;0.0326;-3.5806;
687553514820203;-7.5625;-0.1137;-4.5006;
687553524930932;-7.7279;-1.0310;-4.7785;
687553535038693;-3.7298;-0.9808;-6.1223;
687553545146401;-12.9260;-1.4767;-4.5508;
687553555291922;-17.7338;-1.9364;3.2058;
687553565399630;-16.5051;-0.1113;6.4588;
687553575507391;-6.6643;1.3502;2.6333;
687553585585151;-2.0169;0.2171;-7.0158;
687553595692860;-6.5348;0.0182;-14.8274;
687553605800620;-10.3558;-0.8273;-9.3060;
687553615906610;-10.5784;0.6266;-1.7985;
687553626014318;-11.0408;0.1427;3.3664;
687553636122078;-11.9198;-1.1773;2.7748;
687553646234110;-10.8757;-1.8455;-0.6772;
687553656341818;-7.1315;-1.2419;-2.3925;
687553666449578;-7.1363;-1.7761;-5.0755;
687553676559526;-8.3985;-2.9521;-3.3553;
687553686667235;-6.7241;-3.4050;-1.0463;
687553696774995;-11.9895;-0.1663;-9.6389;
687553706843485;-12.8375;1.4506;-9.9646;
687553716951193;-7.8954;1.9609;1.3636;
687553727058953;-7.5745;0.6314;4.3941;
687553737186610;-12.3464;0.4902;-2.3686;
687553747294318;-9.5172;-0.8034;-3.4729;
687553757402078;-6.9254;-0.3820;-2.8980;
687553767512755;-9.6658;-0.7340;-4.4668;
687553777620464;-9.4525;-1.2491;-3.6861;
687553787728224;-10.9953;-0.4561;-3.6404;
687553797852443;-9.5629;-0.6287;-1.0271;
687553807960151;-9.5605;0.0733;-1.5541;
687553818067912;-11.8816;0.5596;-2.3925;
687553828141922;-6.7002;-0.3485;-0.6173;
687553838249630;-7.5099;-0.2381;-4.8861;
687553848357391;-9.6036;-0.3508;-7.1524;
687553858469110;-7.8763;0.0589;-4.5772;
687553868576818;-9.5581;1.1871;-3.5447;
687553878684578;-10.0732;-0.9449;-0.2318;
687553888804943;-9.3736;-0.6431;-0.7708;
687553898912651;-10.6528;-0.6455;-2.8020;
687553909020412;-9.2345;-0.7579;-4.1674;
687553919120255;-7.9340;0.4759;-5.2621;
687553929227964;-11.7188;0.6864;-4.2156;
687553939335724;-10.2574;0.8518;-1.5132;
687553949452755;-8.8466;0.7848;0.1373;
687553959560464;-9.1843;0.9547;-2.3204;
687553969668224;-10.0995;-0.0057;-4.2682;
687553979769422;-8.9207;0.1953;-4.3998;
687553989877130;-10.0804;0.1187;-2.0644;
687553999984891;-8.3411;-1.8024;-0.5647;
687554010090255;-7.5410;-0.3772;-4.4261;
687554020197964;-9.1771;-0.6909;-6.8049;
687554030305724;-8.6644;-0.1017;-4.6107;
687554040419214;-9.6036;-0.3338;-3.9832;
687554050526922;-9.7711;0.1116;-3.6141;
687554060634682;-10.7701;0.8160;-2.7063;
687554070756922;-10.1282;0.1786;-2.3638;
687554080864630;-8.6812;0.8542;-1.9756;
687554090972391;-11.1823;0.2674;-2.7924;
687554101066818;-13.3525;0.3559;-2.4021;
687554111174526;-7.5888;1.1943;-0.7636;
687554121282287;-7.0905;-0.0224;-2.9889;
687554131384318;-9.4669;0.2530;-6.8719;
687554141492026;-11.9895;-1.2036;-3.7125;
687554151599787;-11.0647;-0.0105;-2.4284;
687554161699839;-10.9235;-0.0248;-1.7695;
687554171807547;-8.0991;-0.4729;-0.7660;
687554181915307;-5.8164;-0.2118;-2.8451;
687554192012547;-8.7075;-0.4681;-5.8828;
687554202120255;-8.7700;-0.7053;-5.8612;
687554212227964;-8.6524;0.4181;-6.5151;
687554222340255;-9.9293;0.4062;-5.9163;
687554232447964;-7.4309;0.9643;-3.7771;
687554242555724;-5.9623;0.8040;-4.8790;
687554252677026;-7.9938;0.0326;-5.4586;
687554262784735;-5.7467;-0.1280;-5.1879;
687554272892495;-1.8422;-0.3266;-5.7317;
687554282984735;-26.7458;-0.4848;-2.9339;
687554293092443;-28.6789;-1.2778;8.9623;
687554303200203;-6.5973;0.8471;16.2589;
687554313318432;2.7117;2.9958;0.3215;
687554323426141;-5.4760;0.6266;-18.4998;
687554333533901;-10.7462;-0.5877;-14.1090;
687554343624110;-11.0360;-0.3748;-2.9722;
687554353731818;-8.8298;0.0733;3.9413;
687554363839578;-10.3316;-1.0071;3.2824;
687554373978693;-9.0981;-2.5618;0.6236;
687554384086401;-8.6381;-2.4682;-3.7412;
687554394194162;-10.9307;-1.6035;-3.9616;
687554404299735;-3.4759;-2.2241;6.2937;
687554414407443;1.7441;-3.5342;-7.5811;
687554424515203;-16.6487;1.5296;-33.7735;
687554434612026;-14.5908;3.0843;-16.2311;
687554444719735;-5.1407;3.0221;13.6502;
687554454827495;-8.0895;3.3526;11.6907;
687554464915880;-14.5262;0.6123;-0.5192;
687554475023589;-13.5706;-2.6456;-2.8642;
687554485131349;-5.8068;-2.8636;0.2689;
687554495223276;-5.9288;-0.8034;-4.4333;
687554505330985;-11.3450;-0.5183;-8.5107;
687554515438745;-9.6754;-1.2873;-2.2463;
687554525561610;-7.8954;-0.8803;0.9781;
687554535669318;-10.2622;-0.8369;-3.2118;
687554545777078;-11.2349;-1.2945;-2.7996;
687554555880672;-5.1144;-1.0119;-1.1396;
687554565988380;-6.8031;-0.1615;-4.9747;
687554576096141;-8.3004;-1.4169;-6.1798;
687554586202964;-10.3196;-1.7043;-3.3673;
687554596310672;-11.8146;-1.9415;-1.0869;
687554606418432;-12.4684;-0.5136;0.1158;
687554616526193;-12.8734;-0.1926;2.1900;
687554626633901;-10.2072;0.1522;2.0704;
687554636741662;-7.2296;0.0685;-0.2605;
687554646850360;-5.9982;0.1690;-6.2372;
687554656958068;-10.8682;0.9523;-11.5959;
687554667065828;-9.9150;-0.8827;-3.9951;
687554677167026;-8.1470;-0.8946;3.2058;
687554687274735;-10.3268;-1.7067;0.3239;
687554697382495;-9.2970;-2.7894;-2.7972;
687554707496089;-6.7744;-1.9340;-4.2371;
687554717603797;-9.0072;-1.7498;-6.1128;
687554727711557;-10.4946;-0.5088;-7.0301;
687554737811922;-9.9532;-0.7484;-1.8344;
687554747919630;-10.2574;-0.1615;-2.1242;
687554758027391;-12.4086;0.5740;-4.1937;
687554768133901;-10.9857;1.9083;-2.3013;
687554778241610;-7.1049;1.0026;0.2809;
687554788349370;-7.7112;0.1403;-2.8187;
687554798463797;-11.1703;-0.7125;-6.1343;
687554808571505;-9.1077;-1.2299;-1.9445;
687554818679266;-7.0738;-1.3376;-1.0080;
687554828780047;-11.4864;-0.9855;-4.3687;
687554838887755;-11.9513;-1.6828;-2.3758;
687554848995516;-6.8151;-0.2309;-0.4280;
687554859098589;-7.6367;-0.2812;-3.7651;
687554869206297;-9.7089;-0.2979;-7.5619;
687554879314057;-10.0011;1.0507;-6.5940;
687554889429839;-8.0273;1.1393;-3.1472;
687554899537547;-7.9122;0.7825;-2.7972;
687554909645307;-8.6692;-0.0009;-4.1076;
687554919742026;-8.6883;-0.6598;-2.3877;
687554929849735;-8.2645;-0.8130;-2.7685;
687554939957495;-11.6252;0.3105;-3.0344;
687554950069526;-9.3425;-0.8946;-0.7732;
687554960177235;-8.3267;0.3224;-1.4007;
687554970284995;-8.5161;-0.0129;-4.3376;
687554980390464;-7.4501;0.3320;-6.0817;
687554990498172;-9.7137;0.5716;-6.1630;
687555000605932;-10.9642;0.4684;-3.4131;
687555010696922;-8.0800;-0.4609;0.3000;
687555020804630;-12.6769;-0.8393;-0.8569;
687555030912391;-7.7471;-0.6024;-0.1286;
687555041019839;-5.3061;-0.1998;-2.7685;
687555051127599;-14.4281;-0.0200;-4.9196;
687555061235307;-8.4559;-1.4575;0.6547;
687555071338485;-2.1368;0.3105;-1.0917;
687555081446193;-6.3410;-0.7890;-9.1741;
687555091553901;-26.3121;-0.2046;-6.7570;
687555101675360;-20.1389;0.3751;7.7309;
687555111783068;-1.1569;1.9226;10.7539;
687555121890828;-2.5175;1.1800;-7.0397;
687555131992547;-7.7877;-2.9904;-9.5910;
687555142100255;-9.1795;-0.7771;-6.7235;
687555152208016;-12.1451;1.0412;-6.7738;
687555162307964;-7.7686;-1.1629;1.5577;
687555172415672;-3.8279;-0.5997;1.8141;
687555182523432;-12.4660;-1.4169;-9.4639;
687555192620360;-12.3679;-1.8550;-4.5485;
687555202728068;-6.8007;-0.9832;5.5080;
687555212835828;-3.1119;-0.2548;-4.7856;
687555222960412;-13.8245;2.0183;-23.2621;
687555233068172;-12.6721;0.3966;-6.9846;
687555243175880;-5.2508;0.7370;10.5769;
687555253296922;-12.6673;1.0196;2.5543;
687555263404630;-17.4823;-0.7771;-1.1803;
687555273512391;-6.2856;-0.5423;4.1856;
687555283579630;-3.0063;-0.6981;0.6356;
687555293687339;-9.3353;-2.1832;-9.5623;
687555303795099;-12.5142;-1.9941;-8.9871;
687555313935985;-7.8141;-2.0587;-0.8641;
687555324043693;-8.2717;-0.6766;-1.5637;
687555334151453;-11.4601;-0.7077;-5.7532;
687555344254214;-9.2850;-0.7603;-1.3361;
687555354361922;-6.5925;-0.4011;-0.7828;
687555364469682;-11.9342;0.3655;-4.9125;
687555374555047;-9.5629;-0.4490;-1.1037;
687555384662755;-6.1493;-0.0631;-0.8641;
687555394770516;-10.2191;-0.4681;-4.8311;
687555404892860;-9.5414;-0.4298;-2.8765;
687555415000568;-10.4396;0.3990;-3.6790;
687555425108328;-10.4539;-0.2716;-2.3877;
687555435229057;-8.9088;-0.2381;-1.8894;
687555445336766;-9.3520;0.0302;-3.6165;
687555455444526;-9.9867;0.4325;-3.6790;
687555465524735;-11.4745;0.3272;-2.1027;
687555475632443;-10.8156;0.3870;-1.1276;
687555485740203;-6.4917;-0.3123;-0.4376;
687555495860047;-8.5950;0.0637;-4.2275;
687555505967755;-8.7509;-0.9185;-4.8766;
687555516075516;-8.5567;0.2746;-3.8512;
687555526173068;-9.5390;-0.4322;-2.9315;
687555536280776;-10.0923;-0.2237;-3.2788;
687555546388485;-8.5974;-0.6479;-3.2285;
687555556501714;-7.9460;0.1164;-3.1807;
687555566609422;-10.8538;0.4397;-4.1818;
687555576717182;-12.2172;0.6529;-2.2654;
687555586820151;-9.1244;1.3406;0.3960;
687555596927860;-8.9207;1.3669;-0.8617;
687555607035620;-7.9146;0.1786;-3.7723;
687555617149162;-6.8462;0.9811;-4.9651;
687555627256870;-6.9182;-0.2405;-3.7890;
687555637364630;-4.5275;-1.2538;-4.5437;
687555647480568;-4.9825;-1.7378;-7.9621;
687555657588276;-13.5153;-1.9388;-5.9474;
687555667696037;-33.8483;-1.8933;3.1029;
687555677787443;-19.3484;3.2785;12.5650;
687555687895151;8.4012;4.6750;4.5832;
687555698002912;1.7680;-1.2012;-8.4793;
687555708098641;-15.2187;-2.1975;-10.3214;
687555718206349;-16.0666;-0.5590;-6.2037;
687555728314110;-8.5065;-0.2381;0.2354;
687555738422755;-5.0139;-0.4107;0.0942;
687555748530464;-3.7657;-1.4862;-3.7412;
687555758638224;-5.6103;-3.7618;-3.3027;
687555768753068;-11.5774;-3.6996;-1.7288;
687555778860776;-11.0264;-3.1678;-5.9282;
687555788968537;-13.1513;0.6505;-21.0365;
687555799084214;-12.9356;2.8977;-12.3912;
687555809191922;-2.6399;2.9360;9.5850;
687555819299682;-6.5228;4.3062;3.6897;
687555829404630;-17.5588;1.7309;-6.5533;
687555839512339;-12.7992;-0.4202;0.6930;
687555849620099;-7.5841;-2.0779;5.2086;
687555859726089;-8.1757;-1.7139;0.2474;
687555869833797;-11.0647;-3.3763;-0.8091;
687555879941557;-10.7438;-1.4240;-1.6857;
687555890053068;-7.5721;-1.3854;-4.2108;
687555900160776;-8.2214;-0.1711;-9.6820;
687555910268537;-10.6887;-0.0129;-7.3223;
687555920367235;-5.1383;0.6362;-1.4079;
687555930474943;-6.8608;1.4602;-3.8106;
687555940582703;-10.1617;-0.3389;-6.4002;
687555950685985;-7.3038;-0.9640;-2.2032;
687555960793693;-8.3100;-0.5518;-2.7135;
687555970901453;-14.3898;0.3129;-5.1760;
687555981010255;-9.9437;0.5309;0.1899;
687555991117964;-7.5123;2.5119;0.9087;
687556001225724;-8.6716;1.8508;-3.5710;
687556011289526;-11.0527;-0.7029;-5.1520;
687556021397235;-8.3818;1.2015;-3.1711;
687556031504943;-8.4849;1.8221;-2.4236;
687556041635985;-10.2503;-0.8010;0.1780;
687556051743693;-11.6252;-1.4862;-0.9263;
687556061851453;-11.3330;-1.1052;-0.8115;
687556071972651;-9.3425;-1.3113;-0.3132;
687556082080360;-6.8800;0.2818;-3.7555;
687556092188120;-8.3172;-0.5614;-6.2085;
687556102304735;-7.5960;-1.2562;-4.4862;
687556112412443;-7.8643;0.2411;-4.8861;
687556122520203;-9.7041;1.6472;-4.8622;
687556132598120;-9.8934;0.7633;-0.5647;
687556142705828;-7.9675;-0.0706;0.2091;
687556152813589;-9.3736;0.1810;-3.2237;
687556162927130;-9.7543;-0.4107;-3.7460;
687556173034839;-10.7892;1.3023;-4.8287;
687556183142599;-11.8481;1.7189;-3.9326;
687556193277755;-7.9938;2.0136;0.0604;
687556203385464;-7.8619;2.0471;-1.1492;
687556213493224;-9.6897;0.3655;-3.0440;
687556223573380;-10.6050;0.9763;-2.7948;
687556233681089;-10.5784;0.2722;-0.2821;
687556243788849;-9.0742;-0.5375;-0.3491;
687556253898172;-9.0885;-0.7627;-1.7575;
687556264005880;-9.6562;-1.0741;-3.9206;
687556274113641;-10.8251;-0.5638;-4.0238;
687556284210047;-9.5219;0.4277;-2.3782;
687556294317755;-6.8632;1.3071;-3.1711;
687556304425516;-8.7075;-0.0631;-3.8106;
687556314533172;-7.6463;0.4854;-5.1138;
687556324640880;-10.1809;0.1331;-4.0454;
687556334748641;-10.2407;-0.1304;-1.5350;
687556344863901;-8.6166;-0.2309;-2.4380;
687556354971610;-10.9546;-0.3604;-3.8656;
687556365079370;-11.5295;0.3416;-3.2859;
687556375192651;-9.6993;1.3932;-1.4031;
687556385300360;-11.0623;0.2052;-1.5541;
687556395408120;-12.1570;0.4325;0.2330;
687556405506662;-6.5157;0.6553;-0.8904;
687556415614370;-9.5195;0.0398;-5.5328;
687556425722130;-11.6157;-0.4298;-2.6704;
687556435825151;-8.7171;-1.4480;1.4668;
687556445932860;-9.7807;-1.7928;-2.6728;
687556456040620;-7.6657;-1.6202;-6.3643;
687556466154526;-8.5472;-0.0200;-5.6360;
687556476262235;-10.5832;-0.5399;-5.0731;
687556486369995;-9.3353;-0.6479;-1.1994;
687556496478276;-9.5390;-0.1232;-2.4739;
687556506585985;-11.1174;-0.3867;-3.9039;
687556516693745;-9.1723;-0.3485;-2.3228;
687556526789787;-9.2755;-0.5590;-2.5720;
687556536897130;-8.8394;-1.7091;-2.2415;
687556547004474;-6.1804;-1.4862;-3.5160;
687556557134891;-6.6284;-1.4288;-6.3476;
687556567242235;-12.3344;-0.9233;-6.9631;
687556577349578;-12.0900;-0.9544;-1.0295;
687556587447807;-8.7123;0.6649;3.3592;
687556597555151;-5.5624;0.0852;-1.7192;
687556607662495;-9.1268;0.2435;-9.9431;
687556617764630;-11.5008;-0.3413;-6.4696;
687556627871974;-10.1593;-0.7603;2.1852;
687556637979318;-7.7064;1.5730;-0.3993;
687556648086245;-11.1679;-1.5006;-3.3482;
687556658193589;-11.0504;-0.3027;-1.3122;
687556668300932;-8.2071;-0.9185;2.1422;
687556678412547;-10.6193;-0.3748;-0.7349;
687556688519891;-8.3483;-1.5413;-2.4739;
687556698627235;-6.4487;-0.0200;-3.6547;
687556708718641;-9.7854;-0.7914;-5.4419;
687556718825985;-10.4372;-0.3461;-4.2108;
687556728933328;-5.6988;-0.0535;-2.1482;
687556739051974;-3.6386;-1.0669;-5.4108;
687556749159318;-15.9180;-0.8850;-7.6050;
687556759266662;-22.0217;-2.6073;1.7327;
687556769374578;-10.4085;0.0661;7.2733;
687556779481922;0.0742;2.1239;1.1746;
687556789589266;-4.7886;-2.0348;-7.3558;
687556799709787;-13.1991;-1.1028;-8.8771;
687556809817130;-14.9408;-0.6502;-1.3959;
687556819924474;-7.1192;-1.4527;4.7462;
687556830020724;-7.6295;-0.1974;-2.7876;
687556840128068;-11.7954;-2.2023;-5.1975;
687556850235412;-12.0374;-2.4562;2.0441;
687556860345203;-7.1339;-2.1808;0.1851;
687556870452547;-8.7290;1.6400;-10.7336;
687556880559891;-12.7056;-0.2931;-9.9742;
687556890665724;-10.0875;-0.6383;3.1555;
687556900773068;-7.2392;3.6401;1.0092;
687556910880412;-8.5400;2.1287;-4.2467;
687556920981245;-8.8513;-1.4360;-3.0176;
687556931088589;-8.2119;-1.3304;-2.3495;
687556941195932;-0.8384;-0.3963;-3.2644;
687556951299057;-11.5128;0.1164;-8.7380;
687556961406401;-13.8556;-0.6287;-5.0133;
687556971513745;-11.3019;2.5454;-1.0702;
687556981623120;-2.2325;4.4426;-3.2907;
687556991730464;-12.7920;2.0423;-4.0454;
687557001837807;-26.3934;-0.4561;1.7542;
687557011924682;-5.7084;3.9323;5.3976;
687557022032026;-2.2564;3.0700;1.6558;
687557032139370;-7.0211;-5.0148;-3.7795;
687557042285099;-13.4004;-3.2276;-7.9621;
687557052392443;-18.2369;-0.0921;1.4859;
687557062499787;4.4964;2.2172;5.0719;
687557072609057;12.4735;2.1048;-14.1521;
687557082716401;-13.5515;-5.0076;-19.2975;
687557092823745;-23.0423;-3.1989;-3.9278;
687557102912391;-11.5176;3.3861;8.4425;
687557113019735;-1.9570;4.6989;-8.0746;
687557123127078;-4.4892;2.3994;-15.8767;
687557133269787;3.6030;-1.1916;-2.6752;
687557143377130;-1.5042;0.0470;-3.7938;
687557153484474;-52.2386;0.7585;3.0670;
687557163544370;-66.0990;6.6945;28.5862;
687557173651714;48.4753;16.2838;24.3724;
687557183759057;45.7636;-5.9587;20.8439;
687557193916870;-16.3038;-24.8303;-22.5553;
687557204024214;-31.8314;-9.8417;-28.6711;
687557214131557;-6.0799;-0.9473;-12.1253;
687557224187599;-12.8160;-0.9999;-0.1669;
687557234294943;-11.7141;5.2283;1.2679;
687557244402287;0.9057;5.2570;1.3205;
687557254515307;3.1406;0.0230;5.9175;
687557264622651;14.6773;-3.8770;-21.8871;
687557274729995;-22.1728;-1.2251;-68.7264;
687557284840620;-49.0717;9.5091;-16.8446;
687557294947964;-2.4840;8.4072;43.9005;
687557305055307;7.8933;6.1962;12.4190;
687557315175307;-13.0364;4.0451;-0.3873;
687557325282651;-20.7568;-9.4585;12.2201;
687557335389995;-5.2654;-10.7375;8.3560;
687557345476662;-2.7547;-3.5967;-6.0793;
687557355584005;-11.6877;-1.0549;-11.2104;
687557365691349;-13.3717;-2.1473;-3.6547;
687557375831037;-1.6002;-2.1784;-0.4618;
687557385938380;-5.8235;0.0709;-14.7485;
687557396045724;-14.2627;0.7442;-11.2223;
687557406130828;-2.0264;1.0268;4.1378;
687557416238172;-4.0531;0.9404;-8.7838;
687557426345516;-17.5612;2.5382;-15.1268;
687557436454214;-8.0393;1.8293;6.2650;
687557446561557;-4.7456;2.4425;2.4703;
687557456668901;-18.7185;4.4210;-5.7580;
687557466778380;-9.5964;1.0986;6.6721;
687557476885724;-6.2378;1.9585;4.6648;
687557486993068;-13.2927;-0.6072;-3.5399;
687557497111245;-9.8695;-4.2625;0.1923;
687557507218589;-8.4320;-1.8885;-1.5805;
687557517325932;-12.6673;0.9715;-5.9474;
687557527428328;-5.6725;-1.3831;-1.5156;
687557537535776;-7.3950;0.8542;-4.8383;
687557547643224;-10.8586;1.0795;-6.7786;
687557557754787;-7.8739;1.8051;-2.8884;
687557567862235;-7.2703;2.4712;-4.2009;
687557577969682;-11.3641;2.0016;-5.6432;
687557588060203;-8.2190;0.1834;0.2856;
687557598167651;-7.4788;0.7056;-1.0487;
687557608275099;-9.4358;0.1355;-4.2538;
687557618390932;-11.3043;-0.8369;-2.1314;
687557628498380;-10.6672;1.0436;-0.6724;
687557638605828;-9.7424;0.3942;1.0020;
687557648718432;-7.4836;-1.0071;0.9972;
687557658825880;-9.9030;-1.6131;-2.4619;
687557668933328;-11.0791;-1.8670;-3.7460;
687557679037078;-8.2645;-2.3557;-0.7035;
687557689144526;-8.3913;-1.6899;-1.8703;
687557699251974;-10.1210;-0.5877;-4.4839;
687557709378432;-12.5429;-1.1315;-2.8570;
687557719485880;-6.3434;-0.0631;-0.5719;
687557729593328;-7.2918;0.9500;-3.6165;
687557739664891;-11.2851;-0.2189;-5.2119;
687557749772339;-10.6409;0.2291;-2.1529;
687557759879787;-9.7831;0.9643;-1.9564;
687557769996245;-8.0824;0.2100;-2.9291;
687557780103693;-8.5735;-0.7436;-2.5911;
687557790211141;-11.2612;-1.3400;-3.5040;
687557800316245;-11.0001;-0.4442;-2.7805;
687557810423693;-6.3506;0.4038;-3.0248;
687557820531141;-9.3066;0.9739;-3.4609;
687557830645880;-11.4506;-0.9903;-1.5757;
687557840753328;-8.3004;0.5477;-2.1434;
687557850860724;-10.3702;1.1824;-4.6394;
687557860962912;-10.9355;0.8662;-3.3147;
687557871070360;-7.5242;0.2626;-0.0329;
687557881177807;-6.1134;0.1140;-3.1253;
687557891279422;-8.4416;-0.6215;-5.5328;
687557901386870;-10.1043;0.1810;-5.0157;
687557911494266;-10.3367;1.6376;-3.9206;
687557921609474;-7.8500;1.4650;0.8174;
687557931716922;-4.9729;0.7968;-1.8176;
687557941824370;-4.9947;0.6338;-7.1955;
687557951917391;0.7068;0.2291;-9.6867;
687557962024839;-8.3794;-0.3532;-7.1402;
687557972132235;-37.0798;0.5118;-0.4400;
687557982248120;-22.4626;2.5238;12.8501;
687557992355568;4.6400;5.6357;11.5902;
687558002463016;0.1798;-0.4059;-4.9866;
687558012580932;-15.6042;-8.5840;-7.2338;
687558022688380;-12.9021;-2.4538;-1.6977;
687558032795828;-9.0311;1.3789;1.4091;
687558042882495;-9.0263;1.4459;-3.1759;
687558052989943;-9.2130;-2.8947;-2.0019;
687558063097391;-7.5697;-4.2242;5.3976;
687558073275412;4.3262;-2.0946;0.0389;
687558083382860;-16.6630;-2.7942;-31.2006;
687558093490307;-26.8511;0.9069;-17.5128;
687558103541557;-3.3392;2.5884;16.0887;
687558113649005;-1.8446;5.6405;5.1655;
687558123756401;-14.3946;0.5572;-10.8915;
687558133894370;-14.5597;-3.3117;-2.1505;
687558144001818;-8.6596;-0.0682;6.2049;
687558154109266;-4.7839;0.5070;1.0977;
687558164184995;-10.8132;-3.0697;-4.2132;
687558174292443;-13.9442;-1.3328;-3.5614;
687558184399891;-5.6725;-0.8922;1.5888;
687558194500099;-7.4620;0.7394;-10.3334;
687558204607547;-14.4640;0.2554;-9.3419;
687558214714995;-6.3529;0.0087;2.5472;
687558224825047;-1.9642;2.4592;-3.6814;
687558234932495;-8.0393;0.3894;-10.0989;
687558245039943;-8.9782;-0.2931;-2.7781;
687558255177860;-14.3587;1.6519;-1.3720;
687558265285307;-18.8716;2.7658;1.6295;
687558275392755;-13.3430;1.1704;6.5429;
687558285464370;-9.1077;1.9753;2.8513;
687558295571818;-7.7925;-3.4289;-1.5517;
687558305679266;-6.5587;-1.7761;-2.4978;
687558315801662;-7.4429;1.2975;-3.7795;
687558325909110;-14.2244;1.0651;-5.9761;
687558336016557;-14.4401;-0.3242;-0.9359;
687558346103380;-7.3612;0.3296;3.0646;
687558356210828;-4.2497;-0.3843;-1.6379;
687558366318276;-3.1262;-2.7006;-7.5452;
687558376423328;-9.8862;-1.3974;-13.5748;
687558386530776;-17.5373;1.0795;-9.0832;
687558396638224;-13.9849;2.7634;-2.1458;
687558406765412;-9.3568;3.1155;-1.7097;
687558416872860;-7.1746;1.8772;1.2344;
687558426980307;-6.8246;-2.0994;4.7725;
687558437072287;-11.5247;-0.9760;-1.8799;
687558447179735;-14.3922;-0.6215;-4.0454;
687558457287182;-7.2464;0.1379;-0.9718;
687558467402703;-6.2976;1.2254;-2.9219;
687558477510151;-6.0269;-0.3963;-4.4548;
687558487617599;-6.7672;-1.2706;-4.6705;
687558497734995;-14.4209;0.8183;-7.8757;
687558507842443;-13.6113;1.2661;-5.4754;
687558517949891;-4.3621;1.0364;-1.3433;
687558528027391;-11.7069;0.8614;-0.0329;
687558538134526;-16.1073;0.9523;1.9699;
687558548241662;-7.0187;0.1738;1.4644;
687558558355099;-5.0210;0.8686;-3.9975;
687558568462235;-5.8929;0.0087;-3.7795;
687558578569370;-7.5936;-0.1711;-3.2285;
687558588683224;-10.0490;0.0613;-3.1711;
687558598790360;-8.1805;0.1140;-2.5935;
687558608897495;-13.6185;0.7247;-5.8110;
687558619012391;-22.7860;0.1379;-1.7815;
687558629119526;-12.2172;0.9069;8.3970;
687558639226662;2.5920;1.1967;1.3899;
687558649338537;-7.2512;0.4110;-13.2488;
687558659445672;-12.7633;0.3200;-7.1115;
687558669552807;-0.8288;0.2889;2.0465;
687558679658745;0.3353;-0.0440;-4.5054;
687558689765880;-12.6290;-1.0310;-7.6122;
687558699873016;-38.1195;-2.0539;4.5449;
687558709976297;-21.7702;0.6051;14.4838;
687558720083432;12.2842;4.7638;0.7792;
687558730190568;6.2498;-3.7738;-17.0842;
687558740294162;-15.7146;-2.7846;-16.3415;
687558750401297;-20.8050;1.2254;-4.0669;
687558760508432;-8.5113;3.6066;8.1861;
687558770620307;-3.8231;3.2234;3.0455;
687558780727443;-6.1469;-1.3663;-0.4810;
687558790834578;-5.8714;-3.7786;4.7246;
687558800944682;-2.6136;-4.1692;-1.2090;
687558811051818;-14.8591;-1.6059;-30.6521;
687558821158953;-21.1594;3.0461;-23.0704;
687558831282912;-4.6424;2.6414;17.5549;
687558841390047;-3.7609;2.7060;13.5832;
687558851497182;-14.8567;2.6509;-4.8359;
687558861579682;-15.0389;-0.7125;-4.3663;
687558871686818;-6.3410;-1.9340;4.9714;
687558881793953;-3.7681;-1.9606;3.0188;
687558891884891;-10.0609;-1.6274;-4.1578;
687558901992026;-11.0647;-2.5235;-3.8919;
687558912099162;-5.3324;-1.6804;-2.5504;
687558922235412;-6.0389;-0.2213;-8.9608;
687558932342547;-11.9489;0.5333;-8.8651;
687558942449682;-8.9016;0.0757;0.4845;
687558952545620;-8.7939;-0.3147;-1.1157;
687558962652755;-11.9560;-0.2955;-5.2238;
687558972759891;-10.0226;-0.5207;-0.2701;
687558982864787;-10.0681;-0.5566;1.0834;
687558992971922;-13.1273;-0.4418;-1.0606;
687559003079057;-9.8719;-1.5293;1.4405;
687559013199630;-6.7481;-1.3878;0.6595;
687559023306766;-11.7595;-1.3089;-3.4346;
687559033413901;-10.3965;-1.6947;-0.9048;
687559043507235;-5.3420;-1.6250;-0.5791;
687559053614370;-8.0489;-1.2347;-5.4419;
687559063721505;-11.2780;-2.2241;-6.3281;
687559073894162;-11.0025;-1.1004;-2.9459;
687559084001297;-8.2406;-0.0559;-2.0907;
687559094108432;-6.7720;0.0063;-4.3400;
687559104172287;-9.9891;0.3535;-5.6384;
687559114279422;-11.7691;0.1307;-3.1110;
687559124386557;-10.4779;2.3492;-1.0223;
687559134501401;-8.9136;2.6892;0.0652;
687559144608537;-10.3053;0.8830;-0.9574;
687559154715672;-7.8093;0.3248;-0.8785;
687559164818537;-8.3387;-0.0945;-1.8823;
687559174925672;-10.9762;0.3583;-4.0860;
687559185032807;-8.1565;0.2052;-4.1148;
687559195142078;-8.7963;0.8183;-2.6847;
687559205249214;-10.0633;1.2015;-2.0692;
687559215356349;-9.8671;1.1704;-3.6069;
687559225463224;-6.8632;1.9083;-3.3840;
687559235570360;-8.9662;0.6840;-2.8307;
687559245677495;-10.3846;0.4421;-2.0402;
687559255768224;-8.9351;1.5467;-2.2152;
687559265875360;-8.7075;1.2278;-1.6331;
687559275982495;-7.1339;0.5070;-1.9349;
687559286092287;-6.3506;1.6878;-3.6814;
687559296199422;-9.6395;0.7271;-4.1004;
687559306306557;-18.1101;0.5668;-2.2558;
687559316428537;-15.8557;1.3549;1.4644;
687559326535672;-9.5988;0.3153;3.5291;
687559336642807;-4.6735;-0.5136;1.8978;
687559346743537;-8.3602;-1.5054;-2.1864;
687559356850672;-13.0244;-0.1735;-5.0276;
687559366957807;-10.8251;-2.5618;-2.1482;
687559377064995;-8.3650;-0.4801;-1.3744;
687559387172130;-8.6836;-1.4743;-3.7675;
687559397279266;-6.0341;-0.7388;-3.9039;
687559407380620;-7.1216;-0.8755;-3.9568;
687559417487755;-10.2479;-0.7747;-9.2818;
687559427594891;-10.5401;0.1259;-10.1396;
687559437700516;-8.5280;0.7968;-4.3089;
687559447807651;-9.4645;2.6773;-0.9598;
687559457914787;-12.7896;0.6625;-0.5886;
687559468024266;-10.6528;0.7968;0.9876;
687559478131401;-8.3052;0.7104;0.8151;
687559488238537;-10.3630;-0.7388;-2.5170;
687559498351870;-11.8481;0.1690;-2.1099;
687559508459005;-8.7628;-0.8608;0.5994;
687559518566141;-5.9336;-0.4370;-1.3552;
687559528659162;-9.0646;-0.4848;-5.9521;
687559538766505;-10.5784;-0.3485;-4.1411;
687559548873849;-9.0933;-0.6072;-0.1190;
687559559000412;-7.7423;0.5477;-2.2869;
687559569107755;-8.5065;-1.1219;-5.6934;
687559579215099;-9.4454;-0.3508;-4.9484;
687559589310047;-11.6806;1.4913;-1.6977;
687559599417391;-11.7739;1.3023;0.2856;
687559609524735;-10.1785;-0.6909;-0.4065;
687559619636453;-9.7519;-0.2955;-0.8617;
687559629743797;-11.0360;0.4110;-0.7828;
687559639851141;-7.9484;-0.0873;0.4869;
687559649943745;-4.8389;-1.9487;-1.9253;
687559660051089;-9.2755;-0.8106;-6.0335;
687559670158432;-11.1775;-1.2586;-6.6757;
687559680275620;-9.8169;-0.5853;-2.8765;
687559690382964;-7.5960;-0.6311;-1.2691;
687559700490307;-7.8978;-1.2849;-2.9722;
687559710598328;-9.9269;-0.5303;-5.2669;
687559720705672;-12.2124;-0.2907;-2.9650;
687559730813016;-11.4912;0.0996;0.5133;
687559740920203;-10.3558;0.3511;1.2176;
687559751027547;-9.9891;-0.1137;0.1804;
687559761134891;-7.1578;-1.1557;-0.9335;
687559771241037;-9.0933;-0.3820;-3.3601;
687559781348380;-8.8992;-0.4896;-2.5552;
687559791455724;-9.2632;-1.3639;-2.2367;
687559801566557;-11.5606;-1.1629;-2.6800;
687559811673901;-10.4420;-0.5327;-1.8559;
687559821781245;-7.7279;0.3631;-1.8942;
687559831879474;-9.3281;-0.1161;-3.3601;
687559841986818;-10.3893;-0.1041;-4.0502;
687559852094162;-11.6372;0.3727;-3.7699;
687559862206662;-10.6552;1.3765;-2.4595;
687559872314005;-6.7337;0.5142;-0.0903;
687559882421349;-8.0178;0.3464;-0.9766;
687559892516453;-13.1465;-0.5614;-2.5839;
687559902623797;-10.3053;-0.9544;-0.5719;
687559912731141;-8.9925;0.7657;-3.9712;
687559922864891;-6.1804;-1.1797;-3.4226;
687559932972235;-4.9011;-0.0320;-3.7579;
687559943079578;-7.4620;-0.5542;-7.4830;
687559953191766;-10.7725;-0.0682;-7.7201;
687559963299110;-9.9413;0.3200;-3.5495;
687559973406453;-13.4602;0.1379;1.6463;
687559983494266;-10.7055;-0.6215;5.5199;
687559993601610;-8.7580;0.7729;0.6428;
687560003708953;-11.6444;0.8351;-5.3940;
687560013847495;-9.1819;0.2506;-1.9947;
687560023954839;-8.6046;0.3105;-0.0473;
687560034062182;-11.9465;-1.1773;-2.0788;
687560044134526;-10.4420;-0.1615;-0.6939;
687560054241870;-6.8127;-0.0464;0.7002;
687560064349214;-7.2990;-1.2873;-1.5422;
687560074468120;-7.2057;-1.6418;-4.5820;
687560084575464;-9.4190;-0.3075;-7.4303;
687560094682807;-11.7930;1.0795;-6.9392;
687560104780620;-8.9255;-0.9832;-1.1133;
687560114887964;-7.1435;0.5788;-2.7900;
687560124995307;-9.3018;0.3248;-4.8359;
687560135134057;-11.4242;0.5046;-3.4490;
687560145241401;-13.1584;0.8830;-0.5527;
687560155348745;-9.6706;-0.1687;2.6548;
687560165452391;-6.8127;-0.1783;2.3291;
687560175559735;-11.6973;-0.4681;-3.0368;
687560185667078;-13.0579;0.0422;-2.8765;
687560195746141;-5.4999;-0.5542;0.5994;
687560205853485;-6.8246;-0.4681;-4.4237;
687560215960828;-10.1785;-0.4322;-7.0899;
687560226074995;-10.5951;-0.7244;-4.6442;
687560236182339;-11.3378;-0.5686;-1.3265;
687560246289682;-8.6046;-0.9329;0.7816;
687560256399630;-7.6247;-0.3027;-2.5146;
687560266506974;-12.8519;-1.0119;-3.4298;
687560276614318;-9.5701;0.6745;-0.9885;
687560286719995;-6.9302;0.3607;-1.6618;
687560296827339;-10.5090;0.2794;-4.6226;
687560306934682;-10.0804;-0.8177;-2.0163;
687560317048849;-7.8523;0.1834;-1.6451;
687560327156193;-7.5434;0.3296;-4.3184;
687560337263537;-9.4860;-0.7340;-3.7555;
687560347371037;-10.8876;-0.6766;-2.1434;
687560357478380;-12.0805;0.3942;-1.0463;
687560367585724;-9.3951;0.2650;-1.0965;
687560377686714;-7.7183;0.2961;-2.3495;
687560387794057;-8.8537;0.1738;-3.3410;
687560397901401;-10.0875;-0.2285;-2.0907;
687560408001870;-10.4922;-0.1687;-2.2056;
687560418109214;-10.7510;0.1307;-2.2128;
687560428216557;-7.7351;-0.0754;-1.4031;
687560438338016;-7.3636;-0.2524;0.0918;
687560448445360;-11.6877;-1.1148;-1.8153;
687560458552703;-10.9786;-0.1759;-3.5303;
687560468651245;-7.4764;0.0661;-3.4274;
687560478758589;-7.5290;0.6601;-2.7302;
687560488865932;-9.0048;-0.3123;-3.5710;
687560498975724;-10.9522;-0.3676;-3.6093;
687560509083068;-11.6324;-0.0802;-1.9971;
687560519190412;-9.9915;0.6362;-0.0999;
687560529288641;-10.2000;0.0087;0.1110;
687560539395985;-10.4492;-0.1878;-0.3275;
687560549503380;-7.2105;0.3392;-1.2353;
687560559633016;-8.1781;0.0757;-5.3270;
687560569740360;-9.3018;-0.0129;-4.6155;
687560579847755;-5.8977;-0.8489;-3.0248;
687560589936037;-2.9393;0.3296;-6.1510;
687560600043380;-19.6669;-0.8731;-5.1736;
687560610150776;-26.7553;-1.3184;3.5148;
687560620271037;-4.2832;-0.0392;10.5864;
687560630378380;1.4590;0.8447;-2.7422;
687560640485776;-9.4334;-0.2883;-10.2951;
687560650568537;-14.1861;-1.0167;-4.4381;
687560660675880;-9.6754;0.7418;0.6260;
687560670783276;-7.4094;0.0948;-1.3624;
687560680899578;-8.4344;-0.5255;-4.2371;
687560691006922;-7.7112;-0.9760;-2.3877;
687560701114318;-7.5051;-0.8656;0.8824;
687560711222547;-3.8686;-1.5126;-7.2697;
687560721329891;-14.9264;0.8423;-18.7059;
687560731437287;-15.9036;1.9848;-2.9913;
687560741538328;-5.3731;1.9490;10.0834;
687560751645672;-7.2775;2.4209;1.4812;
687560761753068;-11.2732;-0.4657;-4.5772;
687560771853953;-9.5172;-0.5542;-1.9493;
687560781961297;-9.0574;-1.1124;0.7839;
687560792068693;-9.7113;0.4086;-1.4270;
687560802184370;-9.8360;-0.1304;-2.2917;
687560812291714;-7.7016;-0.3338;-0.4161;
687560822399110;-5.3348;-0.2644;-2.0569;
687560832505516;-6.1995;0.0996;-9.1549;
687560842612860;-9.8862;1.0723;-6.8049;
687560852720255;-13.2685;-0.1543;-0.5216;
687560862827182;-14.7299;0.5692;1.8308;
687560872934526;-9.9126;0.0733;3.0431;
687560883041922;-6.3912;0.8160;-0.1286;
687560893189370;-6.6165;0.2459;-4.7928;
687560903296714;-11.3306;0.0900;-4.8861;
687560913404110;-15.5372;-0.5183;1.3421;
687560923464578;-12.5142;0.4540;2.7748;
687560933571922;-12.2049;0.3583;1.3540;
687560943679318;-7.4142;-1.2658;1.2416;
687560953791141;-5.1981;-2.1162;-1.7767;
687560963898485;-7.4118;-1.5867;-7.7584;
687560974005880;-8.0489;-0.1304;-11.3085;
687560984135620;-8.5663;0.3775;-9.5189;
687560994242964;-10.0418;-0.3314;-3.2357;
687561004350360;-12.2219;-0.4250;0.5157;
687561014467078;-9.2632;0.3033;-0.1911;
687561024574422;-8.5854;0.3153;-1.9493;
687561034681818;-8.8968;0.3631;-4.8479;
687561044781766;-11.2875;0.6577;-4.9460;
687561054889110;-10.4803;1.6591;-3.1014;
687561064996505;-8.2837;0.3033;-0.9742;
687561075103120;-10.3244;-0.0607;-1.1970;
687561085210464;-11.1245;-0.1184;2.2068;
687561095317860;-9.5677;-1.5724;3.2489;
687561105396141;-7.9795;-1.1892;-0.9550;
687561115503485;-8.5902;-1.2562;-6.1056;
687561125610880;-9.5773;-0.2812;-6.4792;
687561135735880;-7.8547;0.0805;-3.6428;
687561145843224;-9.5701;0.6314;-4.2921;
687561155950620;-11.0527;-0.1089;-3.5064;
687561166055620;-8.2741;0.7466;-1.4151;
687561176162964;-9.0096;0.9069;-0.7277;
687561186270360;-10.8395;0.5285;-0.9670;
687561196379995;-10.9379;0.4854;-1.0893;
687561206487339;-8.4224;0.5189;-1.7671;
687561216594735;-9.3808;0.5142;-2.1817;
687561226694787;-9.1005;0.0422;-4.4189;
687561236802130;-8.6788;0.0685;-3.4777;
687561246909526;-13.4459;0.3248;-2.0450;
687561257026245;-6.2737;-0.0105;-1.2667;
687561267133589;-2.4051;0.6697;-4.8239;
687561277240985;-9.1819;0.1140;-5.7963;
687561287354370;-12.1451;-0.0033;-2.6824;
687561297461714;-11.2636;0.4783;-0.6293;
687561307569110;-10.3340;0.8471;-1.4079;
687561317672391;-10.0274;0.6051;-1.5227;
687561327779735;-9.9054;0.1187;-0.3802;
687561337887130;-9.1651;-0.5399;-0.1047;
687561347988537;-9.7519;-0.8489;-1.4127;
687561358095880;-12.1762;-0.1161;-3.1277;
687561368203276;-14.9336;-0.4729;0.5611;
687561378317287;-7.6199;0.3823;5.0551;
687561388424630;-6.0607;-1.3950;1.0666;
687561398532026;-9.2321;-1.4647;-6.5246;
687561408628537;-7.6247;-0.8608;-7.3152;
687561418735880;-8.5232;-0.3843;-5.5451;
687561428843276;-9.6993;-0.6407;-4.8790;
687561438957807;-9.0311;-1.1124;-4.3137;
687561449065151;-9.5845;-0.9018;-3.7244;
687561459172547;-10.4683;-0.1998;-0.8234;
687561469274735;-9.9652;-0.5830;-0.0951;
687561479382078;-9.0407;0.2243;-3.8871;
687561489489474;-9.7807;0.3607;-2.5839;
687561499609370;-6.5925;-1.1291;-0.7035;
687561509716714;-12.6482;-0.5447;-3.7531;
687561519824110;-11.6973;-1.1844;-0.1621;
687561529908328;-5.5672;-1.0167;0.0485;
687561540015620;-9.8719;-1.1486;-4.9938;
687561550122912;-13.0795;-1.4264;-1.4821;
687561560257182;-9.9197;-1.1749;1.1985;
687561570364474;-7.1865;-0.6311;-2.0354;
687561580471766;-8.6189;-0.2548;-5.3629;
687561590571974;-10.3534;-0.5399;-3.0416;
687561600679266;-8.2741;-0.3652;-1.0558;
687561610786557;-11.1942;-1.1219;-1.5156;
687561620884266;-11.2062;-1.1004;-2.0378;
687561630991557;-9.7567;-0.2907;-2.1458;
687561641098849;-7.9795;-0.3604;-0.3514;
687561651200203;-8.1541;-0.1854;-1.6546;
687561661307495;-10.2120;-0.0730;-4.3256;
687561671414787;-12.3799;-0.0706;-3.5471;
687561681526453;-10.9403;0.1810;-1.3026;
687561691633745;-6.7552;0.4301;-2.2941;
687561701741037;-9.4837;0.1187;-3.7292;
687561711846453;-8.8370;-0.6311;-2.6871;
687561721953745;-8.1637;-0.2237;-3.8489;
687561732061037;-10.3005;-0.2572;-5.1592;
687561742168328;-13.1058;-0.0607;-1.9301;
687561752275620;-9.2779;-0.2931;1.6896;
687561762382912;-9.8886;-0.4394;0.9422;
687561772494891;-13.0651;-0.0511;-3.3769;
687561782602182;-12.0757;0.0350;-1.6427;
687561792709474;-7.7830;-0.2142;-0.1454;
687561802815047;-6.9972;0.1044;-2.8116;
687561812922339;-7.2679;-0.8632;-5.0803;
687561823029630;-8.7963;-0.3365;-5.0492;
687561833145464;-9.8767;0.0278;-3.0009;
687561843252755;-10.7988;-1.1390;-1.7862;
687561853360047;-8.5017;-0.3532;-2.6991;
687561863443537;-8.0919;0.5668;-4.1267;
687561873550828;-9.7041;0.5070;-4.5700;
687561883658120;-8.6740;0.4783;-3.6523;
687561893786610;-11.0360;0.9021;-3.6957;
687561903893901;-10.0681;0.3511;-2.4811;
687561914001193;-8.7266;0.7561;0.2282;
687561924103589;-10.0107;0.4878;1.1722;
687561934210880;-7.4859;-0.7603;0.4199;
687561944318172;-6.2761;-0.3147;-1.2138;
687561954423849;-11.0958;-0.2333;-5.5328;
687561964531141;-11.5056;0.1690;-5.1568;
687561974638432;-9.0957;0.2674;-1.2377;
687561984760307;-8.1589;0.3607;-1.4797;
687561994867599;-8.4248;-0.8946;-2.6632;
687562004974891;-10.6840;0.1259;-2.4811;
687562015086974;-11.9560;0.2028;-0.5001;
687562025194266;-7.4094;0.5309;1.5242;
687562035301557;-5.9121;-0.4920;-1.0798;
687562045408849;-10.8996;-0.7077;-3.4131;
687562055516141;-14.7538;-0.3820;-1.0104;
687562065623432;-15.2880;-0.0945;0.0966;
687562075728224;-12.0350;0.3272;1.2655;
687562085835516;-6.9159;-0.4178;-1.2595;
687562095942807;-6.7505;-0.5447;-4.2849;
687562106040203;-11.4048;-0.9999;-3.0846;
687562116147495;-9.2082;0.1475;-2.2774;
687562126254787;-7.1650;-0.8779;-4.1722;
687562136354474;-7.0786;-0.5255;-4.4644;
687562146461766;-7.6992;-1.7234;-3.0631;
687562156569057;-6.6476;-1.9101;-5.2744;
687562166678120;-5.3755;-0.7172;-8.2376;
687562176785412;-11.6563;-0.7699;-9.8665;
687562186892703;-16.3708;0.1235;-4.1219;
687562197009474;-13.4794;0.8375;2.6931;
687562207116766;-8.0824;2.3177;5.3306;
687562217224057;-5.2412;1.4961;2.1661;
687562227326297;-10.5760;-0.2094;-3.6212;
687562237433589;-13.6328;-1.8766;-2.1338;
687562247540880;-12.8925;0.0254;2.1063;
687562257656714;-8.4802;-1.5676;2.1996;
687562267764005;-8.1159;-1.6035;-1.6092;
687562277871297;-3.9646;-2.1712;-3.1854;
687562287966714;-7.2918;-1.3352;-7.1931;
687562298074005;-11.2421;-0.0655;-10.9062;
687562308181297;-8.8609;0.0852;-4.3567;
687562318303537;-6.3625;0.6147;-0.2509;
687562328410828;-9.1890;1.0699;-3.3505;
687562338518120;-11.4625;1.2350;-3.7101;
687562348618537;-9.6802;1.6065;-1.1276;
687562358725828;-9.2560;1.0627;-1.8966;
687562368833120;-10.8805;0.6218;-4.0908;
687562378931401;-11.5223;0.9308;-1.5757;
687562389038693;-11.5654;0.3129;3.6921;
687562399145985;-7.6753;-0.2979;3.2417;
687562409247912;-7.9603;0.4998;-1.5900;
687562419355203;-11.2493;-1.1988;-3.7795;
687562429462495;-9.0335;-0.1543;-2.4691;
687562439570620;-6.3215;-1.5413;-1.9636;
687562449677912;-8.7604;-0.1232;-5.8612;
687562459785203;-11.7476;-0.7603;-6.3066;
687562469891245;-9.8360;-0.8417;-1.4605;
687562479998537;-11.2445;0.4588;-1.0893;
687562490105828;-10.0609;-0.0511;-1.1803;
687562500216974;-8.3913;-0.1448;-0.4834;
687562510324266;-9.2632;-0.4011;-1.9397;
687562520431557;-10.3029;-0.5853;-2.8092;
687562530551141;-9.6275;-0.0416;-2.6321;
687562540658589;-13.2015;-0.1854;-1.7169;
687562550766037;-6.7887;-2.2528;0.6212;
687562560845776;-5.7467;-0.3796;-2.6225;
687562570953224;-12.3775;-0.4250;-7.2099;
687562581060724;-11.3474;-0.2524;-3.8704;
687562591168172;-8.4320;-0.1663;-0.1310;
687562601292599;-8.8322;0.0302;-3.3505;
687562611400047;-9.2058;0.2076;-4.3759;
687562621507547;-10.2718;-0.4585;-3.0559;
687562631622495;-9.8192;0.2100;-0.2390;
687562641729943;-8.5472;-0.5399;-1.2763;
687562651837391;-9.3975;-0.7268;-3.6452;
687562661936714;-13.5464;-0.4872;-2.0402;
687562672044162;-11.2995;0.3320;0.2785;
687562682151662;-6.3793;1.2422;0.2282;
687562692276766;-6.5850;0.7944;-3.1950;
687562702384214;-6.8127;-1.2610;-5.8804;
687562712491714;-9.0981;0.2650;-7.3750;
687562722574057;-10.2383;-0.0464;-3.1807;
687562732681505;-10.4587;-0.5160;-0.9574;
687562742788953;-12.1068;-0.4609;-0.9790;
687562752898328;-12.4182;0.6170;-0.3108;
687562763005776;-9.1292;1.7812;0.0126;
687562773113224;-6.8270;1.0149;-2.0354;
687562783289318;-9.8839;-0.4059;-4.6178;
687562793396818;-9.5291;-0.1161;-3.6500;
687562803504318;-10.1402;1.3597;-2.2271;
687562813555099;-8.6094;0.5309;0.7935;
687562823662547;-8.3674;-0.0826;-0.7732;
687562833769995;-8.9853;-1.0836;-3.3386;
687562843907078;-9.1699;-1.0262;-4.5939;
687562854014526;-13.7237;0.5524;-4.4548;
687562864122026;-11.5152;-0.0682;-1.4127;
687562874196141;-7.2200;0.8040;0.4032;
687562884303589;-6.9661;0.5237;-1.9971;
687562894411089;-10.4396;0.2052;-4.5604;
687562904501297;-10.6337;-0.0105;-2.0644;
687562914608745;-8.3100;0.0733;-0.1935;
687562924716193;-10.1426;-0.7819;-1.5613;
687562934850412;-5.9886;-0.9784;-3.4107;
687562944957860;-16.1910;-0.5686;-3.9063;
687562955065360;-16.4665;0.0350;1.7447;
687562965153953;-3.7825;1.0555;1.6558;
687562975261401;-6.0102;0.0852;-6.7570;
687562985368849;-11.4960;-1.0143;-6.5892;
687562995469787;-12.2746;-0.6024;-0.1693;
687563005577235;-10.9618;0.2459;0.1540;
687563015684735;-8.4682;0.2578;-1.4222;
687563025824891;-9.2656;-1.4288;-2.1003;
687563035932339;-11.5798;-0.3580;-4.5126;
687563046039839;-8.7509;-0.4513;0.3215;
687563056125412;-3.8590;0.2506;-3.1110;
687563066232860;-12.4878;-0.0129;-12.2955;
687563076340360;-12.4205;-0.1424;-4.5820;
687563086441974;-9.6156;1.2517;3.4597;
687563096549422;-9.3497;1.2350;-0.4762;
687563106656870;-8.0632;-0.5925;-4.5150;
687563116768016;-8.6716;-1.9196;-3.3960;
687563126875464;-12.1331;-0.4633;-2.6297;
687563136982964;-7.5434;1.1608;-2.1266;
687563147093432;-10.6576;0.6147;-3.5136;
687563157200880;-10.4061;0.1259;-1.5948;
687563167308380;-7.4955;0.4612;-0.6485;
687563177414578;-7.8452;0.5572;-3.8704;
687563187522026;-7.7997;0.4445;-4.3615;
687563197629474;-6.8510;-1.1509;-3.2572;
687563207743328;-8.3435;0.2411;-6.5892;
687563217850776;-10.8610;0.4397;-3.1807;
687563227958276;-6.0150;1.0579;0.0748;
687563238059474;-1.3271;1.8003;-5.4036;
687563248166922;-15.0844;0.5046;-4.6753;
687563258274422;-29.2274;-0.5566;3.6036;
687563268375464;-11.7236;4.0116;9.4511;
687563278482912;-0.5462;8.6755;3.1412;
687563288590360;-3.2698;-1.2084;-6.8145;
687563298721766;-12.0637;-7.4462;-7.1306;
687563308829214;-11.2373;-2.2481;-1.1348;
687563318936714;-6.4247;2.2531;-0.0975;
687563329032964;-8.6979;2.2053;-3.4633;
687563339140412;-6.2067;-1.0143;-3.0990;
687563349247912;-6.7911;-1.4958;1.2870;
687563359353380;-1.3869;-2.3151;-2.8980;
687563369460828;-13.5682;0.4014;-25.5090;
687563379568328;-18.6634;1.0723;-12.3410;
687563389667182;-7.3516;0.6170;13.5305;
687563399774630;-10.1043;2.5549;9.1561;
687563409882130;-13.4961;1.0292;-2.1410;
687563420002912;-9.5342;-0.4753;-2.4978;
687563430110360;-6.6500;-1.2802;1.8643;
687563440217860;-6.6619;-1.4838;-0.2246;
687563450313224;-10.2455;-2.3797;-3.0990;
687563460420672;-12.0709;-2.9665;-1.3217;
687563470528172;-10.0657;-1.8335;-0.7277;
687563480641453;-9.8647;-1.6851;-4.5676;
687563490748901;-10.4970;-2.0970;-4.4070;
687563500856349;-6.7241;-1.5676;-1.7145;
687563510959682;-7.6391;-0.0730;-7.5595;
687563521067130;-11.6830;0.2387;-6.2659;
687563531174630;-9.4238;-0.9042;2.6261;
687563541274787;-8.5017;0.1044;1.1818;
687563551382078;-12.3990;0.0302;-2.6393;
687563561489318;-10.5425;-0.2883;-0.5216;
687563571620412;-6.3314;-0.8369;-1.0774;
687563581727703;-10.3340;-1.1581;-6.3329;
687563591834995;-13.2757;-1.0980;-4.4453;
687563601925828;-8.5232;0.1427;-1.2497;
687563612033120;-9.0168;0.7992;-2.7422;
687563622140360;-9.3784;-1.0214;-0.6150;
687563632234995;-9.8647;-0.6455;-0.1789;
687563642342287;-10.7677;-0.1328;-3.4250;
687563652449526;-9.1508;0.0996;-2.4763;
687563662576141;-6.8680;-0.5016;-2.6536;
687563672683432;-8.1182;-1.4503;-4.0190;
687563682790724;-11.7117;-0.4968;-4.0167;
687563692895828;-10.8299;-0.3987;-2.3806;
687563703003120;-8.9542;0.7199;-2.7159;
687563713110412;-10.7821;0.1762;-1.9732;
687563723263328;-9.1149;-0.2740;-0.0568;
687563733370620;-6.7361;-0.0248;-1.3911;
687563743477912;-7.9531;-0.2357;-4.5820;
687563753538641;-10.2503;-0.6598;-5.9067;
687563763645932;-11.5558;0.0613;-2.7948;
687563773753224;-11.4147;0.0900;0.7122;
687563783882703;-9.8743;0.6003;-0.2988;
687563793989995;-8.2669;-0.0200;-2.2415;
687563804097287;-8.7963;0.0685;-3.6165;
687563814190776;-8.5663;0.0422;-3.4298;
687563824298068;-10.8395;0.2674;-3.0846;
687563834405307;-9.0191;0.4588;-2.1601;
687563844493016;-11.3474;0.3488;-1.8153;
687563854600307;-10.8156;-0.6048;0.0126;
687563864707599;-9.1627;-0.7364;-0.1860;
687563874810724;-7.6415;-0.1472;-3.4011;
687563884918016;-6.0078;-0.4250;-6.0407;
687563895025307;-8.4754;0.2411;-6.2061;
687563905138849;-10.7198;0.1164;-3.8752;
687563915246141;-11.0791;0.3081;-1.8488;
687563925353432;-9.5773;0.7104;-0.6173;
687563935455828;-7.5482;1.1752;-4.1889;
687563945563120;-12.5261;0.1618;-3.3266;
687563955670360;-7.6295;-2.4419;4.8084;
687563965781870;-9.9820;0.3392;-3.4633;
687563975889162;-10.9451;0.3129;-8.2110;
687563985996453;-6.6212;0.5429;-1.4007;
687563996125724;-8.6955;0.6003;0.3455;
687564006233016;-11.4553;-0.6502;-0.4618;
687564016340307;-9.5964;-0.2429;-1.8559;
687564026425880;-8.9901;-0.1280;-3.5495;
687564036533172;-9.1364;-0.6191;-3.5566;
687564046640464;-9.3233;-0.4513;-2.2606;
687564056735880;-11.8528;-0.2046;-2.2056;
687564066843172;-7.9675;-0.1472;-1.9923;
687564076950464;-7.4501;0.9093;-4.3089;
687564087078537;-9.7615;0.0709;-3.7340;
687564097185828;-8.3602;-0.2094;0.5827;
687564107293120;-7.9627;-0.4442;-1.1348;
687564117400203;-11.0312;0.0111;-6.3906;
687564127507495;-10.1593;-0.6191;-2.3180;
687564137614787;-9.1005;-0.5830;-0.4161;
687564147721870;-12.1403;-0.6168;-1.3385;
687564157829162;-10.1330;-0.2907;-1.7145;
687564167936453;-7.8571;0.7319;-1.9588;
687564178038641;-9.8504;-0.1232;-4.3328;
687564188145932;-10.8323;-0.3075;-0.3538;
687564198253224;-10.3630;-0.3314;1.2440;
687564208360203;-7.5817;-0.6526;-0.8258;
687564218467495;-7.3325;-1.2012;-3.8465;
687564228574787;-9.0550;-1.4360;-4.7904;
687564238690516;-11.5152;-0.9760;-2.8379;
687564248797807;-10.5329;-1.2203;-2.0354;
687564258905099;-7.2703;0.2195;-3.7890;
687564269007495;-7.1722;0.1403;-5.5857;
687564279114787;-14.1646;-0.3700;-2.4476;
687564289222078;-8.1565;-0.3461;1.6056;
687564299315203;-7.8260;0.2483;-1.1180;
687564309422495;-9.0000;-0.4513;-4.8168;
687564319529787;-10.0609;-0.7699;-2.7254;
687564329654891;-9.3544;-0.5758;-0.3036;
687564339762182;-8.6764;-0.4657;-1.8224;
687564349869474;-7.7399;-1.0334;-4.4453;
687564359985620;-7.8308;0.5883;-6.2970;
687564370092912;-9.7615;-0.3891;-4.2323;
687564380200203;-19.1590;-0.4083;2.1829;
687564390299995;-18.0045;0.0565;4.6143;
687564400407287;-6.2521;1.0747;3.0263;
687564410514526;-1.5404;-0.2716;-2.8307;
687564420632912;-8.5711;-1.4743;-6.7451;
687564430740203;-9.6897;-1.1988;-5.2478;
687564440847495;-7.6534;-0.6885;-3.2094;
687564450964578;-10.6959;0.8399;-2.9722;
687564461071870;-11.2062;0.2626;-2.4858;
687564471179162;-10.0681;-0.4657;-0.1310;
687564481273224;-6.8967;-0.6766;-0.0760;
687564491380516;-6.5109;-0.1591;-8.5202;
687564501487807;-14.2292;1.0149;-13.8885;
687564511584891;-11.9489;0.5501;-0.9598;
687564521692182;-7.6582;2.4449;4.9307;
687564531799474;-7.1216;-0.0344;0.1660;
687564541903641;-9.1555;0.2698;-3.5064;
687564552010985;-8.9662;0.1953;-1.9181;
687564562118328;-8.5424;-0.3461;-0.8163;
687564572240203;-9.8264;-0.2548;-4.5102;
687564582347547;-10.7868;-0.4083;-5.1353;
687564592454891;-8.8896;-0.1615;-2.6225;
687564602544214;-8.1999;0.6194;-2.1960;
687564612651557;-9.3257;0.2578;-3.5471;
687564622758901;-10.0226;-0.1759;-2.3734;
687564632858797;-11.1174;0.4349;-0.1573;
687564642966141;-13.7405;-0.0778;0.7672;
687564653073485;-7.8619;1.3621;2.0034;
687564663237287;-6.0245;0.6625;-0.2509;
687564673344630;-9.9844;-0.8225;-5.0372;
687564683451974;-10.1498;0.1020;-4.5293;
687564693503641;-9.4358;0.6314;-3.4753;
687564703610985;-10.2024;0.7319;-2.3877;
687564713718328;-8.7075;-0.0296;-2.1673;
687564723847391;-10.5927;0.3966;-1.8440;
687564733954735;-11.8887;-0.2835;-2.1864;
687564744062078;-11.3952;-0.3437;-1.7862;
687564754160516;-9.8073;1.2278;-2.4117;
687564764267860;-9.6873;-0.3867;-1.4988;
687564774375203;-7.4118;-0.9066;-2.2367;
687564784500360;-8.2813;0.1810;-2.6082;
687564794607703;-11.2301;-0.9855;-4.4886;
687564804715047;-10.3077;-0.9138;-2.9076;
687564814797703;-6.9063;-1.2395;-0.9000;
687564824905047;-8.9112;-0.4083;-4.5676;
687564835012391;-10.4228;-0.7053;-4.7785;
687564845141662;-9.1699;-0.7938;-3.1400;
687564855249005;-11.8576;-0.3242;-2.3782;
687564865356349;-9.9891;-0.9568;-1.6140;
687564875432807;-9.8599;0.2746;-1.2066;
687564885540151;-11.1512;-0.8225;0.0894;
687564895647495;-8.5591;-0.3123;-0.3491;
687564905776974;-7.5841;-0.6909;-2.5600;
687564915884318;-9.8264;-0.4944;-4.7569;
687564925991662;-10.4276;-0.6622;-3.1591;
687564936093745;-8.7075;-0.2931;-2.2893;
687564946201089;-9.0048;-0.2620;-2.6177;
687564956308432;-10.0875;0.2483;-3.6069;
687564966415516;-8.5591;1.0244;-3.6404;
687564976522860;-8.5424;0.4110;-3.3601;
687564986630203;-13.1776;0.3846;-2.5768;
687564996746141;-11.9919;0.4950;-0.8163;
687565006853485;-8.6788;0.6482;0.8943;
687565016960828;-9.1101;0.2650;-1.9014;
687565027062912;-10.1258;0.2650;-2.6752;
687565037170255;-8.2884;0.1905;-1.8679;
687565047277599;-7.5888;-0.2572;-1.9397;
687565057399162;-7.7973;-0.2740;-5.0563;
687565067506505;-10.7868;0.0446;-5.0539;
687565077613849;-10.1426;0.3344;-1.6211;
687565087710516;-7.6367;-0.2883;-2.7206;
687565097817860;-8.9231;0.6721;-5.9019;
687565107925203;-11.7141;-0.8707;-4.2132;
687565118028537;-9.3640;1.1847;-1.2162;
687565128135880;-9.5414;0.6362;-0.2127;
687565138243224;-8.7266;0.4612;-1.4055;
687565148348224;-8.6716;0.1259;-1.2619;
687565158455568;-11.9560;-0.3676;-1.0917;
687565168562912;-49.6995;-5.8412;15.7487;
687565178670412;17.7844;-1.0095;3.2177;
687565188777755;77.7174;2.3827;15.9882;
687565198885099;12.9236;-0.6790;-36.7535;
687565208997964;-35.3217;-6.6891;-51.3135;
687565219105307;-44.8005;-7.5491;-3.4513;
687565229212651;-21.9500;1.0962;27.0577;
687565239317495;-8.2956;0.5907;4.9666;
687565249424839;-3.5596;5.9638;-5.5065;
687565259532182;3.6867;4.1982;15.5522;
687565269642182;-0.8958;-1.3089;1.7638;
687565279749526;-22.1225;0.3942;-27.5453;
687565289856870;-15.0437;1.1608;-12.7528;
687565299982391;5.5505;2.6222;11.4847;
687565310089735;2.5226;7.7294;-8.8531;
687565320197078;-29.8406;0.1451;-7.8350;
687565330276870;-39.4298;-6.3347;2.9375;
687565340384214;1.5284;-1.2467;3.7137;
687565350491557;7.3711;-0.0272;17.6435;
687565360621662;-13.4530;2.1622;2.3459;
687565370729005;-21.0275;0.9069;-10.5227;
687565380836349;-7.8141;-1.9196;-8.3716;
687565390928485;0.7690;-1.8814;-5.2549;
687565401035828;-6.8967;-1.1363;-4.9149;
687565411143172;-10.1186;-2.0779;-2.5026;
687565421257912;-5.8403;-2.7535;3.7735;
687565431365255;-0.5797;-2.1592;-3.1615;
687565441472599;-15.6138;3.1394;-16.8924;
687565451572703;-18.5937;5.9183;-8.5872;
687565461680047;-5.6151;3.4750;4.1186;
687565471787391;-2.4314;0.9021;2.7987;
687565481897391;-14.7299;0.5740;-1.4868;
687565492004735;-19.8634;2.5908;-2.3542;
687565502112078;-9.4884;0.9882;2.7556;
687565512214057;-2.3357;-0.1256;3.2680;
687565522321401;-10.4731;-0.2022;-2.3375;
687565532428745;-18.2178;0.1451;-4.8503;
687565542534266;-7.7638;-1.0358;-2.8884;
687565552641610;-3.1068;-1.5365;-0.6915;
687565562749005;-10.3053;-1.9726;-2.0498;
687565572868849;-10.0947;-1.5173;-2.3662;
687565582976245;-8.4607;-3.0338;-2.1194;
687565593083589;-10.9379;-1.9917;-0.5743;
687565603195307;-7.3301;-1.6298;0.8725;
687565613302703;-6.2402;-1.7833;-0.4137;
687565623410047;-11.5869;-0.4681;-2.8693;
687565633509318;-10.5042;0.2028;-2.8451;
687565643616662;-6.7193;0.1116;-3.3099;
687565653724057;-10.3822;0.5357;-4.0430;
687565663841662;-12.2025;0.7418;-3.2261;
687565673949057;-9.1101;1.1130;-2.9626;
687565684056401;-10.8347;1.7189;-3.2716;
687565694128328;-9.3353;1.3908;-1.1372;
687565704235672;-9.9796;1.4506;-3.6643;
687565714343068;-12.4086;0.9380;-2.5337;
687565724489682;-11.5534;1.0507;-0.2892;
687565734597078;-5.3731;-0.8584;-0.5097;
687565744704422;-5.6414;-1.0047;-2.1936;
687565754783641;-10.5544;-1.5365;-5.0157;
687565764890985;-8.7290;-1.4575;-5.2669;
687565774998380;-9.4143;-1.6035;-5.9737;
687565785104891;-8.7532;-1.4456;-4.5389;
687565795212235;-9.0550;-0.7364;-2.5792;
687565805319630;-9.7687;-1.3639;-1.3600;
687565815439474;-10.6170;-0.9975;-1.2042;
687565825546870;-10.9259;-0.9449;-2.3614;
687565835654214;-10.3367;0.2219;0.0700;
687565845751141;-10.0780;-0.7842;-0.3610;
687565855858485;-9.1436;-0.3891;-1.6140;
687565865965880;-9.5725;-0.0153;-3.0679;
687565876073849;-10.2144;-0.0368;-2.9483;
687565886181245;-9.2536;0.1164;-2.7541;
687565896288589;-9.7376;-0.2429;-3.2453;
687565906403641;-10.4420;-0.2237;-3.1567;
687565916511037;-10.0418;0.6769;-4.3256;
687565926618380;-8.2430;-0.4274;-1.3648;
687565936725203;-8.2478;-0.2381;-2.1482;
687565946832599;-9.1029;0.3176;-3.5806;
687565956939943;-6.5659;0.1690;-4.5245;
687565967051141;-7.6367;0.5261;-3.9377;
687565977158537;-7.0857;-0.3843;-2.9267;
687565987265880;0.2707;-0.0921;-6.4409;
687565997370412;-6.0559;-0.4442;-4.6585;
687566007477807;-35.1227;0.0015;-3.1998;
687566017585151;-30.1714;4.0044;8.6462;
687566027691870;7.4142;7.9352;8.9288;
687566037799266;10.3487;-2.0420;3.3640;
687566047906610;-15.0078;-5.8220;-9.4280;
687566058036141;-21.4158;0.5668;-7.7680;
687566068143537;-7.6705;4.6726;-1.4629;
687566078250880;-3.2195;1.8867;0.0724;
687566088348328;-10.4587;-3.1678;-1.7599;
687566098455724;-14.7730;-2.9426;3.1005;
687566108563068;2.7284;-2.0468;7.6065;
687566118655047;-1.0947;-2.4419;-18.6482;
687566128762443;-24.0772;0.4902;-28.9729;
687566138869787;-17.1063;1.3693;-2.1051;
687566148980307;-0.3760;3.5324;15.8611;
687566159087703;-4.8365;1.7931;-1.0582;
687566169195047;-15.5204;-5.1296;-4.7016;
687566179303016;-15.1131;-3.7570;5.3163;
687566189410412;-6.8366;1.1584;5.2493;
687566199517755;-4.1512;-0.1807;-3.7029;
687566209624162;-13.9442;-1.8168;-7.6696;
687566219731557;-11.6181;-2.5211;-2.7733;
687566229838901;-5.5457;-0.0511;-3.3936;
687566239945724;-9.0024;0.2722;-6.9703;
687566250053120;-9.9293;-0.8106;-1.7169;
687566260160464;-6.1229;-0.2046;0.4750;
687566270268953;-10.1952;-0.7962;-3.9736;
687566280376349;-12.1164;-1.4073;-2.8451;
687566290483693;-7.7877;-0.0368;-1.8751;
687566300595620;-9.3281;0.9595;-3.4274;
687566310703016;-10.9164;-0.4513;-1.5278;
687566320810360;-7.6896;-0.6024;-1.2763;
687566330913797;-9.2922;-0.4633;-3.7771;
687566341021193;-12.8375;-0.0464;-4.2227;
687566351128537;-11.1365;0.9691;-0.9048;
687566361235932;-9.6610;1.5105;-0.1382;
687566371343328;-11.9318;0.4831;1.0187;
687566381450672;-7.9316;0.9906;-2.8618;
687566391559630;-7.7614;0.0470;-4.0358;
687566401667026;-9.8049;0.6218;-3.2740;
687566411774370;-8.5424;1.2470;-3.7101;
687566421877703;-9.3855;0.9715;-4.3783;
687566431985047;-8.7171;0.0924;-2.9770;
687566442092443;-5.6222;0.5764;-3.5734;
687566452190724;-9.8408;-0.2716;-4.4620;
687566462298120;-12.8542;-0.0826;-2.3518;
687566472405464;-7.2129;-0.0105;-1.6427;
687566482515203;-7.4357;-0.3604;-4.1985;
687566492622547;-12.0637;-0.5040;-3.6165;
687566502729943;-11.7021;-0.5112;-0.2509;
687566512842078;-10.9642;-0.4801;0.0724;
687566522949474;-10.3630;-0.0272;-1.0439;
687566533056818;-8.6429;-1.1148;-1.4031;
687566543180360;-9.8599;-1.5293;-1.6594;
687566553287860;-10.3463;-1.5054;0.5180;
687566563395412;-10.0298;-1.6298;-1.7312;
687566573497547;-8.8035;-1.6804;-3.7699;
687566583605099;-8.7365;-0.9329;-2.6082;
687566593712599;-11.2612;-1.5317;-2.5074;
687566603812391;-11.4242;-0.7364;-2.9865;
687566613919891;-7.3950;-0.4202;-3.0320;
687566624027391;-5.6366;-0.8922;-5.3103;
687566634122078;-7.6487;-0.4609;-6.1582;
687566644229578;-10.6023;-0.2644;-4.0645;
687566654337078;-10.5305;0.4373;-1.7480;
687566664446297;-7.4740;1.6854;-0.9024;
687566674553797;-9.4741;1.7620;-1.9851;
687566684661297;-11.0671;-1.0645;-2.7757;
687566694789266;-9.8527;-0.3963;-2.2989;
687566704896766;-8.7509;-0.0176;-2.8669;
687566715004266;-10.2790;0.8806;-4.3807;
687566725099370;-10.1809;0.2554;-1.3624;
687566735206870;-9.1579;1.7453;0.7959;
687566745314370;3.6293;-0.4585;0.7002;
687566755421662;-5.9432;-1.1677;-8.1535;
687566765529162;-23.2843;-0.2740;-4.8072;
687566775636662;-18.1938;0.2841;3.9437;
687566785736349;-1.9690;-0.4657;3.2656;
687566795843849;-3.0230;-0.3314;-3.2979;
687566805951349;-13.2039;-1.9558;-4.7856;
687566816078120;-16.3134;-1.4240;-2.6608;
687566826185620;-8.1900;1.8221;-0.0401;
687566836293120;-6.2402;-0.1041;-0.6796;
687566846383953;-14.0976;-0.6646;-1.9684;
687566856491453;-11.1942;-1.9774;5.1269;
687566866598953;0.6446;-2.5618;5.6085;
687566876709474;-6.7122;-2.9713;-12.7600;
687566886816974;-15.5372;-1.0406;-19.2281;
687566896924474;-16.1839;-1.1004;-1.2425;
687566907038693;-9.3808;0.7056;3.6514;
687566917146245;-0.9341;-0.1089;-3.0105;
687566927253745;-10.7629;-0.9042;-6.1247;
687566937353120;-17.1661;-0.2859;0.4295;
687566947460620;-8.8035;1.8485;3.3951;
687566957568120;-6.4391;0.9835;-3.5088;
687566967678797;-13.7357;-0.6072;-4.8790;
687566977786297;-12.5477;-0.3218;1.3612;
687566987893797;-11.1631;0.0159;0.1780;
687566998006662;-1.4827;-0.1017;-1.7985;
687567008114162;-2.6279;-1.4838;-5.6743;
687567018221662;-16.0044;0.8136;-14.1712;
687567028321037;-15.3168;1.6496;-4.8503;
687567038428537;-5.1981;1.5200;6.7128;
687567048536037;-4.7240;0.8399;-0.6724;
687567058663641;-10.5090;1.9872;-8.0195;
687567068771141;-9.7974;-0.5471;-3.8728;
687567078878641;-11.7117;0.2889;-1.7575;
687567088969787;-12.3607;2.9145;-3.3888;
687567099077287;-9.4358;2.0761;-3.6500;
687567109184787;-8.5878;1.7812;-0.0449;
687567119292182;-7.4668;0.2483;5.4144;
687567129399682;-9.1555;0.2650;-4.4237;
687567139507182;-12.1499;0.2339;-7.1812;
687567149614787;-9.0024;-0.5303;-0.0951;
687567159722287;-8.5113;-0.2907;-0.8402;
687567169829787;-8.6453;-0.5088;-3.8249;
687567179940828;-9.5076;-1.5461;-3.1376;
687567190048328;-7.1411;-0.8489;-3.8154;
687567200155776;-8.5256;0.1666;-6.5151;
687567210262182;-14.0160;0.4711;-3.0296;
687567220369682;-10.2885;1.0053;3.2584;
687567230477182;-7.2846;-0.3003;1.5362;
687567240579110;-11.5511;-0.1161;-4.4982;
687567250686662;-11.1416;-0.9449;-2.1529;
687567260794162;-6.1708;-1.1243;-0.0377;
687567270900307;-9.2731;-1.2084;-4.4142;
687567281007807;-12.5285;-1.3615;-4.5508;
687567291115255;-8.2956;-0.1065;-0.9766;
687567301224214;-8.8250;-0.1567;-0.5838;
687567311331766;-10.3678;0.4062;-0.3706;
687567321439266;-5.0833;-0.3652;-1.3744;
687567331565099;-6.9924;-1.4527;-5.6910;
687567341672599;-9.1938;-0.8874;-5.2573;
687567351780099;-5.7108;-0.4250;-2.2319;
687567361870620;-6.8222;-0.5279;-3.7316;
687567371978120;-28.7172;0.3655;-0.6772;
687567382085620;-24.8031;0.9547;13.1351;
687567392184266;-0.7068;2.3587;7.0050;
687567402291714;-1.0971;-2.5714;-0.4065;
687567412399266;-16.1025;-3.6565;0.9996;
687567422514787;-13.5610;-0.3051;-1.2667;
687567432622287;-0.6203;1.0651;-3.5423;
687567442729787;-7.0786;-2.1616;-4.6777;
687567452855828;-10.8491;-3.3284;-3.6045;
687567462963276;-7.9651;-1.6609;-1.3050;
687567473070776;-8.0967;-1.3041;-0.9072;
687567483191818;-4.6567;-1.6202;-9.0975;
687567493299370;-15.3574;-0.7220;-19.0125;
687567503406818;-16.1073;3.1370;-6.8599;
687567513466453;-1.3798;2.3539;10.0283;
687567523574005;-5.3707;1.8700;1.2200;
687567533681505;-20.3641;1.9250;-9.5213;
687567543821453;-13.1943;0.5285;6.0278;
687567553928953;-2.5968;-1.7306;10.1791;
687567564036453;-8.2621;-0.9903;-2.0593;
687567574122026;-14.9432;-1.8622;-2.6369;
687567584229578;-12.0613;-1.2706;0.7002;
687567594337078;-7.9986;0.5979;-3.3194;
687567604450464;-5.2005;-1.7378;-5.0228;
687567614557964;-9.3879;0.4086;-4.3280;
687567624665464;-9.7208;0.1379;-2.3925;
687567634759995;-8.2621;0.7343;-2.5696;
687567644867495;-8.1326;0.1403;-5.3725;
687567654974995;-10.0657;0.0159;-3.0057;
687567665081557;-9.2779;0.0326;1.4572;
687567675189057;-11.2325;-0.1256;-0.7083;
687567685296557;-12.3177;0.4854;-0.8545;
687567695404891;-7.7351;1.0842;-0.4472;
687567705512391;-8.2286;0.4735;-1.8153;
687567715619891;-10.2718;0.3009;-1.1037;
687567725729630;-10.4228;0.7490;-2.1099;
687567735837130;-8.9471;0.9069;-2.3228;
687567745944630;-7.8045;-0.7747;-0.8521;
687567756053120;-10.1593;0.0446;-2.4835;
687567766160620;-12.4493;-0.6885;-2.5193;
687567776268120;-8.4897;-0.2213;0.1636;
687567786378380;-9.0335;0.0709;-2.1123;
687567796485880;-9.7280;-0.2692;-3.0990;
687567806593380;-10.8515;-0.7579;0.6042;
687567816707703;-8.7724;0.7992;0.4271;
687567826815203;-9.5868;0.1834;-3.8465;
687567836922703;-10.6528;0.0924;-0.9984;
687567847023953;-9.3257;-0.8345;2.0752;
687567857131453;-6.3048;-0.5183;-2.7709;
687567867238953;-9.3090;-1.4934;-2.4882;
687567877353953;-11.0001;-0.6957;-2.8860;
687567887461453;-13.1225;1.1130;-3.8297;
687567897568953;-9.2632;0.4134;-0.2581;
687567907682807;-6.4056;-0.0081;0.7241;
687567917790307;-9.5414;0.2578;-3.0129;
687567927897807;-12.4182;-0.2764;-2.3949;
687567937982287;-11.0839;0.6529;-0.3514;
687567948089787;-7.3804;-0.3987;-0.3108;
687567958197287;-9.0215;-1.4623;-0.6915;
687567968306037;-9.5510;-0.2572;-2.5552;
687567978413537;-12.1834;0.1140;-2.5289;
687567988521037;-10.5664;-0.5901;-0.9383;
687567998630620;-7.3974;0.1522;-1.5996;
687568008738120;-9.3329;-0.1615;-2.3782;
687568018845620;-12.6458;-0.4202;-1.9493;
687568028948432;-9.2225;0.5285;-1.4677;
687568039055932;-7.5266;-0.7244;-1.9181;
687568049163432;-6.9135;-0.5566;-2.1266;
687568059294110;-11.9175;-1.3472;-2.5552;
687568069401610;-11.0145;-0.8922;-2.1960;
687568079509110;-10.2574;-0.1759;-2.1458;
687568089603641;-10.6146;0.1283;-1.3576;
687568099711141;-8.8513;-0.8441;-0.0305;
687568109818641;-10.0202;1.1417;-1.1731;
687568119916141;-12.7896;-0.7890;-0.9526;
687568130023641;-9.0455;0.3368;-1.6953;
687568140131141;-9.4573;-0.7364;-2.8594;
687568150243745;-11.8337;0.7128;-1.1587;
687568160351245;-6.2258;-0.9138;-1.2520;
687568170458745;-10.9211;-0.6407;-1.7049;
687568180564787;-11.5152;0.3033;-3.0272;
687568190672287;-6.6787;0.7705;-3.2955;
687568200779787;-8.7556;-0.7962;-2.5768;
687568210886505;-9.2632;0.2315;-2.1266;
687568220994057;-9.3664;0.0541;-2.8451;
687568231101557;-11.0839;0.1977;-1.8081;
687568241228537;-12.0541;0.3224;-2.0043;
687568251336037;-8.7266;1.1417;-2.7374;
687568261443537;-7.9579;-0.6455;0.5252;
687568271526870;-10.7677;0.3942;-0.8378;
687568281634370;-12.7896;0.2889;-1.3935;
687568291741870;-8.2741;1.0053;-0.6628;
687568301854787;-8.8107;0.7513;-2.1840;
687568311962235;-8.1733;0.1738;-1.6570;
687568322069735;-6.1828;0.7801;-2.1027;
687568332154474;-9.8910;-0.5303;-2.7230;
687568342261974;-11.8241;-0.3218;-2.7159;
687568352369474;-9.5749;0.9069;-2.5193;
687568362490880;-7.9265;-0.4226;-0.4594;
687568372598380;-9.2608;-0.3580;-1.6905;
687568382705880;-13.4387;0.3894;-1.0582;
687568392810203;-7.8858;0.7418;0.8967;
687568402917703;-6.6500;0.4397;-2.2463;
687568413025203;-12.8997;0.0039;-2.7757;
687568423179110;-12.0589;0.4684;2.2044;
687568433286610;-5.8666;-0.5112;1.3421;
687568443394162;-11.1942;0.4062;-2.9506;
687568453443120;-9.9820;-1.2921;0.4032;
687568463550620;-7.4572;-1.2849;-0.4594;
687568473658068;-9.1747;-0.4178;-4.2395;
687568483795672;-10.6816;-1.6107;-2.8475;
687568493903172;-11.9824;0.0254;-1.0367;
687568504010672;-6.7911;-0.6957;-0.5384;
687568514079682;-9.3090;0.4540;-4.3902;
687568524187182;-13.7477;0.5883;-1.1659;
687568534294682;-10.4946;0.5309;3.4406;
687568544427703;-6.6045;-0.2835;-0.6317;
687568554535099;-7.9217;-0.3891;-3.7029;
687568564642547;-8.5352;-1.1124;-2.3109;
687568574768224;-9.6491;-0.9138;-2.2989;
687568584875672;-9.1866;0.0565;-3.3888;
687568594983068;-9.8862;0.6386;-2.6632;
687568605077078;-7.3181;-0.4298;-1.5398;
687568615184474;-12.0494;0.0972;-2.1817;
687568625291922;-14.8113;1.2808;-1.8392;
687568635395307;-9.4908;0.3990;1.6992;
687568645502703;-10.4133;0.6912;1.0666;
687568655610151;-12.2363;-0.8560;-0.4352;
687568665724630;-6.1995;-0.1950;-0.9742;
687568675832026;-10.8227;-0.8273;-1.7073;
687568685939474;-12.0805;-0.0488;-1.2595;
687568696043328;-6.8608;-0.5758;-0.6748;
687568706150724;-10.1521;-0.4537;-3.8680;
687568716258172;-7.3469;-1.4551;-2.3877;
687568726367703;-7.6367;-0.3915;-1.8488;
687568736475099;-13.6902;0.1594;-4.2730;
687568746582547;-11.8720;0.3224;-2.5313;
687568756682807;-10.2168;0.8399;-2.5696;
687568766790203;-11.1655;0.4540;-1.4581;
687568776897651;-7.7160;0.7513;-0.5097;
687568787007287;-6.0775;0.8327;-2.7541;
687568797114682;-3.5022;0.1762;-3.6694;
687568807222130;-6.0679;-0.3604;-6.5079;
687568817348328;-6.3817;-0.1902;-7.9187;
687568827455724;-9.1866;-0.0535;-4.6202;
687568837563172;-32.9525;1.6687;3.6754;
687568847649891;-23.1141;4.6702;15.4780;
687568857757287;6.5061;2.1646;3.0598;
687568867864735;0.3520;-3.7977;-6.1056;
687568877973016;-20.1844;-1.0525;-2.3566;
687568888080412;-14.0351;2.2484;-3.5542;
687568898187860;-5.5481;0.7152;-2.6010;
687568908292860;-7.3158;0.3296;-2.9195;
687568918400307;-13.5392;0.2291;-2.0740;
687568928507703;-6.9709;-0.1974;4.2622;
687568938621557;-1.3606;-0.8441;3.3066;
687568948728953;-5.2989;-2.0539;-2.9100;
687568958836401;-4.4459;-2.3222;-4.1004;
687568968942807;-10.0059;-2.5044;-18.5213;
687568979050203;-23.2723;1.4148;-23.5352;
687568989157651;-11.5582;4.5099;5.2062;
687568999265047;-0.0144;3.5300;21.3494;
687569009372443;-11.4434;3.2809;-1.0008;
687569019479891;-18.4382;1.2879;-11.9456;
687569029586870;-11.0408;-0.8249;4.8395;
687569039694266;-3.2315;-0.6981;6.6912;
687569049801714;-12.1786;-0.2524;-1.2090;
687569059924474;-16.0499;-0.1256;-1.3792;
687569070031922;-7.3134;-1.1315;3.0263;
687569080139318;-6.4941;-0.8584;-0.0975;
687569090235828;-9.6323;-1.2897;-2.8020;
687569100343224;-8.3411;-2.2122;-1.7910;
687569110450672;-6.9781;-1.9172;-5.8110;
687569120569370;-10.4516;-0.3676;-9.2148;
687569130676766;-13.3190;0.1427;-3.6861;
687569140784214;-9.1149;1.3813;3.1890;
687569150872703;-7.9460;0.7104;-1.9516;
687569160980099;-12.2913;-0.3389;-4.4886;
687569171087547;-8.3818;0.2602;0.6066;
687569181198016;-9.6467;0.3990;-0.1525;
687569191305412;-11.5750;0.2841;-2.5887;
687569201412860;-10.4539;0.2578;0.5874;
687569211546089;-8.9734;-0.0176;-0.9742;
687569221653537;-6.9613;-0.4537;-2.9315;
687569231760932;-9.2513;-0.5806;-3.3147;
687569241855932;-13.9872;0.1546;-3.7412;
687569251963328;-10.2909;0.0589;-0.0233;
687569262070776;-4.3454;0.1929;-1.5156;
687569272167130;-8.2908;-0.3532;-5.2887;
687569282274526;-11.4625;-0.8010;-3.1496;
687569292381974;-10.2526;0.9763;-1.9229;
687569302486662;-10.2598;1.3932;-2.4978;
687569312594057;-9.3018;0.8088;-0.7780;
687569322701505;-9.3114;0.7128;0.9063;
687569332822495;-10.7725;-0.6790;-0.7445;
687569342929891;-9.1795;-0.8154;-1.2185;
687569353037339;-11.7930;-0.2477;-0.5240;
687569363138120;-12.6960;0.2459;1.1121;
687569373245568;-6.1421;-0.9018;0.5946;
687569383352964;-7.5338;-0.4681;-3.9278;
687569393433328;-11.0192;-0.3099;-3.8345;
687569403540724;-9.6682;0.0757;-2.0931;
687569413648172;-7.5960;0.4445;-2.9339;
687569423781870;-10.7031;-0.0176;-3.7890;
687569433889318;-11.5534;-0.4848;-1.1396;
687569443996714;-7.2320;-0.2620;0.8629;
687569454080099;-7.4118;-1.0143;-1.6331;
687569464187495;-9.7041;-0.6526;-3.0846;
687569474294943;-12.2049;-0.0706;-2.5433;
687569484454266;-11.7715;-0.0464;-0.5647;
687569494561714;-6.8103;-0.1496;-0.8545;
687569504669110;-9.8073;-0.0535;-3.1496;
687569514736297;-12.1307;0.0565;-1.7551;
687569524843693;-10.1234;0.5596;-0.2677;
687569534951141;-8.3602;-0.4418;-1.1324;
687569545083797;-10.8180;-0.2740;-1.3528;
687569555191245;-8.4368;0.3727;-0.5336;
687569565298745;-8.8202;-1.4527;-1.7456;
687569575405516;-11.1583;-0.2237;-2.4882;
687569585512964;-10.4348;-1.0406;-1.6977;
687569595620464;-10.8733;0.4516;-1.3217;
687569605709787;-5.8140;-0.5495;-0.5360;
687569615817235;-8.0273;-1.1629;-3.0416;
687569625924735;-12.2001;0.9284;-4.1028;
687569636028224;-8.8442;-0.0682;-1.1659;
687569646135672;-8.4248;0.6314;-2.3180;
687569656243172;-11.6133;1.0627;-3.8776;
687569666349787;-9.2201;1.5491;-0.9742;
687569676457235;-6.9206;1.3406;0.0341;
687569686564735;-9.8264;0.4854;-2.3327;
687569696672807;-12.3990;0.6147;-2.3518;
687569706780255;-11.2995;0.4660;0.2737;
687569716887755;-7.6777;0.8853;-0.9526;
687569726994370;-7.5051;-0.4633;-2.1745;
687569737101818;-10.2957;0.3057;-2.7254;
687569747209318;-12.8590;0.7825;-1.3959;
687569757313380;-9.4119;-0.1519;-0.3467;
687569767420828;-7.0403;-0.2070;-1.7838;
687569777528328;-11.4841;0.4205;-2.5313;
687569787637391;-11.0982;-0.1663;-0.3849;
687569797744839;-5.9982;-0.4035;-0.9598;
687569807852339;-7.9843;-0.5495;-2.0836;
687569817986349;-12.1020;-1.1363;-2.4404;
687569828093797;-13.8939;0.1211;-0.6508;
687569838201297;-7.5027;-0.9736;-0.4184;
687569848287182;-4.7142;-1.2730;-2.1960;
687569858394630;-11.9536;-0.1998;-3.8393;
687569868502130;-12.0087;-0.6598;-0.5384;
687569878605412;-6.9709;-1.3041;-0.7756;
687569888712860;-9.4525;-0.1137;-3.4992;
687569898820360;-11.0456;0.5285;-3.3864;
687569908928432;-8.4177;-0.1304;-0.8474;
687569919035880;-7.6199;0.1307;-1.5685;
687569929143380;-8.3076;0.1881;-3.4011;
687569939254370;-9.3760;-0.9473;-1.6570;
687569949361818;-8.0776;0.3440;-1.1779;
687569959469318;-4.4773;-0.5447;-3.5160;
687569969570828;-8.8537;-0.9520;-5.7509;
687569979678276;-16.8404;0.9571;-2.6776;
687569989785776;-11.8600;0.9356;4.7079;
687569999902703;-21.2216;1.4195;5.0216;
687570010010151;-18.1914;1.4794;2.2478;
687570020117651;-1.9546;-3.0242;3.1531;
687570030224370;-7.9193;-1.5772;3.4262;
687570040331766;-9.2130;0.9188;-2.0859;
687570050439318;-7.5625;-0.1759;-4.3807;
687570060529578;-6.7050;-1.8479;-5.2095;
687570070637026;-8.5208;0.0517;-6.0960;
687570080744526;-6.7744;-0.3556;-5.2286;
687570090878693;-5.9671;-0.1591;-3.6909;
687570100986193;-8.5711;0.2865;-3.5207;
687570111093693;-9.6275;-0.0873;0.3817;
687570121182964;-9.5916;-0.8106;0.9972;
687570131290412;-10.1019;-0.1711;-6.1199;
687570141397912;-10.7246;-0.5327;-8.2878;
687570151498797;-9.1819;-0.2644;-7.4351;
687570161606245;-14.2579;1.8915;-4.6633;
687570171713745;-9.0526;3.3718;4.6600;
687570181827495;-11.3163;4.4378;3.0861;
687570191934943;-11.9632;2.3803;-0.0688;
687570202042443;-9.1101;-0.0754;2.7891;
687570212131557;-5.9695;0.0829;1.6750;
687570222239005;-9.7902;-0.0706;-1.3624;
687570232346505;-12.2172;-0.8465;-0.9742;
687570242500203;-8.8872;-0.0945;-0.4519;
687570252607651;-6.6523;-0.9544;-3.0607;
687570262715151;-8.7437;-0.6933;-7.0923;
687570272788953;-12.1451;-1.1438;-5.8349;
687570282896401;-9.5845;0.3176;-1.3839;
687570293003901;-7.9193;0.5142;-1.2114;
687570303140412;-9.8815;0.4854;-2.6560;
687570313247912;-11.3330;-0.4059;0.6571;
687570323355412;-11.2636;1.0292;0.7433;
687570333416662;-9.2249;-0.0706;-2.1984;
687570343524110;-9.6945;-0.0248;0.3577;
687570353631557;-10.7581;0.8518;1.2129;
687570363769787;-9.7376;0.6673;-0.8043;
687570373877235;-7.9699;-0.6431;-1.4916;
687570383984735;-9.7831;0.2794;-4.1411;
687570394097703;-12.6577;0.2028;-4.7569;
687570404205151;-9.3688;0.1044;-1.1420;
687570414312651;-6.4176;0.0182;-1.4916;
687570424408120;-9.4382;-0.0826;-5.9402;
687570434515568;-11.9318;-0.3867;-2.9961;
687570444623068;-11.2516;0.2818;1.7423;
687570454745620;-7.2033;0.0302;0.5731;
687570464853068;-8.0489;-1.7163;-2.9985;
687570474960568;-11.4984;-0.1854;-2.8594;
687570485049214;-10.8757;-0.8489;-1.3696;
687570495156662;-9.8504;-0.2237;-1.1539;
687570505264162;-8.6189;-0.6287;-1.4773;
687570515359474;-10.4396;-0.3580;-3.1711;
687570525466922;-9.5486;-0.6120;-1.6499;
687570535574422;-7.9170;-0.9018;-1.7743;
687570545680307;-7.9603;-1.1509;-3.2764;
687570555787703;-13.3860;0.0015;-4.3184;
687570565895047;-11.2301;0.5883;0.0508;
687570576039057;-7.9555;0.6338;1.7160;
687570586146453;-8.9088;-0.1448;-2.1960;
687570596253797;-10.2120;-1.1653;-2.6584;
687570606338953;-9.6060;-0.1807;-2.7111;
687570616446349;-9.9844;0.2148;-2.1505;
687570626553693;-7.8523;0.0422;-1.6857;
687570636660464;-6.4176;-0.4657;-3.2261;
687570646767860;-11.0121;-0.5351;-5.3988;
687570656875203;-10.2790;-0.6239;-3.3793;
687570666985516;-8.9207;-0.2716;-0.7995;
687570677092912;-8.3794;-1.1363;-2.8020;
687570687200255;-12.3368;0.3416;-2.8140;
687570697311245;-12.3009;-0.6144;0.7217;
687570707418641;-8.3507;0.8518;0.5204;
687570717525985;-7.0786;0.0805;-3.6742;
687570727630099;-9.5821;-0.4872;-5.4084;
687570737737495;-10.9475;0.7872;-2.0545;
687570747844839;-10.0179;0.4253;-1.9923;
687570757947807;-9.1771;0.7056;-3.5136;
687570768055203;-9.8958;0.0757;-3.2142;
687570778162547;-9.9724;-0.5471;-1.3241;
687570788263537;-8.8250;-0.4825;-1.3313;
687570798370932;-8.7003;-0.4250;-2.3806;
687570808478276;-8.0871;-1.1868;-2.8669;
687570818594891;-8.2908;0.0805;-5.2071;
687570828702287;-12.4708;0.4397;-4.5963;
687570838809630;-9.7400;1.0292;-1.2906;
687570848924057;-6.3960;0.6625;-1.0534;
687570859031453;-8.4081;0.2387;-6.2515;
687570869138797;-10.6576;0.0135;-4.2658;
687570879243537;-10.3558;0.3392;-1.9469;
687570889350932;-8.4778;0.9715;-1.5278;
687570899458276;-8.6477;0.1953;-3.8752;
687570909555880;-9.1460;0.5812;-4.3543;
687570919663276;-9.5462;-0.1950;-3.4657;
687570929770620;-8.6213;-0.3867;-2.6034;
687570939882287;-9.4167;-0.0105;-4.3735;
687570949989682;-11.3737;1.0026;-3.1424;
687570960097026;-10.7151;0.5309;-0.1119;
687570970204474;-6.8462;0.0278;0.0823;
687570980311870;-6.0846;0.5907;-4.9005;
687570990419214;-10.4181;-0.6311;-6.4146;
687571000530203;-11.3498;0.1020;-2.9794;
687571010637599;-9.8456;-0.4657;-1.7910;
687571020744943;-7.4740;0.0685;-1.5972;
687571030850307;-8.5400;-0.2859;-4.1865;
687571040957703;-10.8491;-0.4848;-4.0310;
687571051065047;-9.1436;-0.7747;-1.4533;
687571061181297;-7.3086;-0.3652;-2.6489;
687571071288641;-9.8145;-0.2333;-4.3065;
687571081396037;-12.7391;-1.2682;-2.1936;
687571091503380;-10.1952;-0.1041;0.0846;
687571101607703;-6.6906;-0.1543;-2.2463;
687571111715099;-8.1422;-0.0730;-4.2323;
687571121822443;-8.1613;-0.9760;-3.6981;
687571131936349;-9.1053;-0.3556;-3.6861;
687571142043745;-7.4620;-1.0836;-3.9473;
687571152151089;-6.4630;-0.9520;-5.3821;
687571162243745;-3.8016;-1.8048;-5.3246;
687571172351141;-7.1291;-2.3031;-5.4012;
687571182458485;-26.2618;-3.1247;-2.5816;
687571192577807;-21.7917;-2.1138;4.9738;
687571202685203;-2.8555;0.2746;10.2847;
687571212792547;-5.2149;1.3573;2.2310;
687571222892182;-13.5826;-0.7268;-7.5428;
687571232999578;-8.2932;-0.6383;-6.7211;
687571243106922;-7.8260;0.3583;-5.7365;
687571253268953;-11.6830;-0.8393;-3.9230;
687571263376349;-10.1019;-1.9125;-0.9239;
687571273483693;-5.4138;-2.0635;-0.4714;
687571283549370;-6.6284;-3.2420;-4.3400;
687571293656766;-9.1723;-2.6169;-5.4730;
687571303764110;-10.3439;-2.9067;-0.2844;
687571313925932;-4.5395;-3.2877;4.9499;
687571324033328;1.4734;-3.2806;-9.1143;
687571334140672;-16.8117;1.5057;-31.4522;
687571344187026;-18.3832;2.9623;-3.4609;
687571354294422;-5.2989;2.4808;10.3828;
687571364401766;-7.4070;2.4305;-2.3276;
687571374499474;-14.4497;0.6960;-0.5049;
687571384606870;-12.7271;0.1642;5.3043;
687571394714214;-8.1278;-0.2835;1.8882;
687571404817807;-6.6643;-2.5379;-4.1100;
687571414925203;-10.4659;-2.6312;-7.2362;
687571425032547;-10.4492;-2.5594;-1.7480;
687571435163016;-5.9599;-1.7378;-1.4677;
687571445270412;-8.2621;-1.1462;-7.5260;
687571455377755;-11.2947;-1.5891;-1.1683;
687571465469474;-6.6021;-1.4982;1.6175;
687571475576870;-8.9040;-0.6790;-4.9029;
687571485684214;-11.0432;-0.6766;-2.8355;
687571495790724;-8.5687;-0.3338;0.7409;
687571505898120;-11.8672;0.9428;-3.3769;
687571516005464;-12.9811;1.1704;-0.7277;
687571526112391;-8.0297;0.4493;1.8093;
687571536219787;-9.2970;0.5812;-2.9698;
687571546327130;-9.6467;-0.5638;-3.5638;
687571556429578;-7.0116;-0.3604;-2.7637;
687571566536974;-8.7075;0.6745;-6.6470;
687571576644370;-12.5572;-0.0730;-3.0655;
687571586753537;-10.0971;0.2100;2.1517;
687571596860932;-7.6391;0.7343;-1.4629;
687571606968328;-9.3090;0.0111;-4.9340;
687571617070828;-10.2670;-0.5303;-3.0464;
687571627178224;-9.5219;0.2291;-1.7288;
687571637285620;-8.4778;1.2589;-3.7029;
687571647399995;-9.3999;0.1857;-3.5518;
687571657507391;-10.8180;0.1905;-2.7230;
687571667614787;-10.4492;0.5572;-1.1396;
687571677717599;-8.0489;0.3775;-0.4810;
687571687824995;-9.8504;0.6386;-1.6403;
687571697932391;-13.5586;0.0852;-0.4496;
687571708073589;-11.0001;0.0135;2.8107;
687571718180985;-6.6906;-0.1280;1.1097;
687571728288380;-6.1947;-1.6178;-2.4260;
687571738365203;-12.5907;-1.7952;-3.2477;
687571748472599;-12.0135;-0.9329;-2.1362;
687571758579995;-10.4061;-1.2203;-1.4844;
687571768682391;-8.8537;-0.3963;-2.8307;
687571778789787;-10.2766;-1.0932;-1.2305;
687571788897182;-14.0495;-1.7306;-0.3634;
687571799024110;-9.5004;-0.5231;-1.1994;
687571809131505;3.8447;0.8399;-3.6021;
687571819238901;-10.0298;-2.5331;-6.6350;
687571829346870;-23.1643;-0.8417;-5.1329;
687571839454266;-8.5424;2.8089;0.6260;
687571849561662;-1.5667;1.6472;-2.2391;
687571859661557;-11.7763;-1.5389;-4.5939;
687571869768953;-15.0461;0.8542;-1.4605;
687571879876349;-2.1846;2.9886;-1.3098;
687571889987130;-4.2951;0.1283;-4.0286;
687571900094526;-13.9466;-0.4202;-7.6962;
687571910201922;-13.9011;2.2268;-4.2036;
687571920299474;-6.2498;2.2340;-1.1324;
687571930406870;-7.9890;-0.6622;-2.9004;
687571940514266;-12.2865;-0.9568;-4.3950;
687571950626245;-13.0173;1.0866;0.6667;
687571960733641;-8.1063;-0.1304;7.2685;
687571970841037;-2.1679;-2.7464;0.4558;
687571980956557;-11.1006;-1.7952;-7.3128;
687571991063953;-14.3970;-0.0296;-3.1110;
687572001171349;-9.0550;-0.6455;1.4115;
687572011268016;-7.3229;-2.4924;-3.7842;
687572021375412;-11.3067;-0.5925;-4.9866;
687572031482807;-10.4228;-2.0372;2.6836;
687572041580724;-1.1354;-3.9775;2.9710;
687572051688120;-2.2995;-2.2146;-6.6182;
687572061795516;-23.9886;0.3033;-9.1789;
687572071939630;-27.6655;-0.1352;7.6950;
687572082047026;0.6948;1.6854;7.5105;
687572092154422;-0.5055;1.4483;-9.6437;
687572102235724;-15.3311;-1.8526;-0.4304;
687572112343120;-11.9103;2.2436;1.9169;
687572122450516;-6.7935;2.5860;-5.6527;
687572132577287;-6.2809;0.8806;-5.8277;
687572142684682;-9.4454;1.2302;-4.0023;
687572152792078;-9.7783;1.7883;-3.6667;
687572162869057;-6.8246;1.3908;-4.4668;
687572172976453;-7.1267;0.5979;-4.9651;
687572183083849;-13.9657;0.4325;-2.6871;
687572193234214;-7.6729;2.2412;2.5113;
687572203341610;-5.2268;2.7730;7.6232;
687572213449005;-10.5018;-0.3051;-6.0096;
687572223537130;-20.4311;-2.1544;-17.9345;
687572233644526;-14.4664;0.2770;-0.5456;
687572243751922;-0.3712;2.3249;13.5425;
687572253897391;-5.4401;2.9456;-1.2811;
687572264004787;-13.1273;-0.2668;-6.5270;
687572274112182;-12.4158;-1.8957;0.0676;
687572284162287;-6.8414;1.3406;2.2502;
687572294269682;-6.2498;-2.1592;-1.1061;
687572304377078;-12.6769;-2.5570;-4.5843;
687572314484214;-10.4324;-2.7317;1.3134;
687572324591610;-6.3386;-2.3988;1.3851;
687572334699005;-10.8299;-1.3496;-5.6504;
687572344821037;-11.8457;-2.2720;-3.1950;
687572354928432;-4.6711;-2.4323;4.0370;
687572365035828;-7.5290;-0.7220;-5.8708;
687572375171662;-12.8471;-0.6766;-9.0664;
687572385279057;-9.5486;-0.9544;-1.3289;
687572395386453;-9.7950;2.0064;-2.2319;
687572405441557;-12.4062;1.5586;-1.4868;
687572415548953;-11.4912;1.5491;2.0919;
687572425656349;-11.8337;0.1810;2.4921;
687572435791870;-9.7854;0.0661;0.9876;
687572445899266;-8.6788;-0.6598;-0.2390;
687572456006662;-11.2182;0.0278;-2.2965;
687572466107495;-8.8083;1.3525;-2.4212;
687572476214891;-5.6916;0.0876;-4.2778;
687572486322287;-10.7916;-0.0320;-6.8169;
687572496444787;-12.7367;1.4411;-3.8895;
687572506552182;-6.8967;2.8543;-0.0138;
687572516659578;-8.4344;2.0327;-2.4882;
687572526744162;-11.2588;0.6864;-2.8908;
687572536851557;-8.9949;0.6745;0.1947;
687572546958953;-8.3937;1.3502;-1.3983;
687572557089891;-10.1833;0.0637;-1.5446;
687572567197339;-10.1617;-0.8034;-1.0199;
687572577304787;-11.8792;-0.6431;-2.9506;
687572587397495;-11.9943;-0.2453;-1.1563;
687572597504943;-7.9866;0.7466;-0.1310;
687572607612391;-9.7519;-0.4035;-3.3458;
687572617715307;-12.2219;0.8423;-2.6512;
687572627822755;-9.6443;1.2302;1.1192;
687572637930203;-7.3493;-0.0730;-1.3600;
687572648038953;-8.5735;-1.0238;-3.3553;
687572658146401;-8.5926;-0.6335;-2.6560;
687572668253849;-9.9054;-0.7364;-3.1663;
687572678354787;-9.3760;0.0326;-3.6165;
687572688462235;-8.3459;-0.1878;-3.9951;
687572698569682;-10.6959;-0.9209;-3.2812;
687572708675880;-8.4730;-0.2285;-0.2246;
687572718783328;-8.8250;0.0111;-1.9397;
687572728890776;-13.0196;-0.0682;-4.1004;
687572739008224;-7.2009;0.3057;-1.2763;
687572749115672;-8.6931;0.9284;-1.3552;
687572759223120;-13.7788;1.1967;-2.2104;
687572769323537;-11.2445;1.2063;0.1636;
687572779430985;-6.8246;1.1273;-0.7612;
687572789538432;-8.9877;-0.5447;-2.2965;
687572799669057;-12.4277;0.5046;-1.7527;
687572809776505;-10.1426;1.2855;-1.0367;
687572819883953;-9.2803;0.0111;-0.9048;
687572829982182;-6.9924;-0.2859;-1.3481;
687572840089630;-8.9901;-0.1519;-2.8403;
687572850197078;-11.5080;0.1164;-2.8813;
687572860306245;-9.9126;0.7223;-1.7169;
687572870413693;-3.7250;0.4181;-2.1864;
687572880521141;-5.6342;0.7032;-6.0769;
687572890618224;-12.0494;-0.0392;-5.4873;
687572900725672;-14.9910;1.6543;0.5348;
687572910833120;-11.1918;2.3922;4.2503;
687572920909630;-10.6217;0.7370;-0.0568;
687572931017026;-13.5368;-1.0860;-2.9195;
687572941124526;-12.0876;0.1235;2.0871;
687572951263537;-4.6352;-0.6096;1.8045;
687572961370985;-6.6260;0.0852;-3.2812;
687572971478432;-12.2554;-0.7603;-3.1687;
687572981579630;-11.0216;-0.2524;-4.8885;
687572991687078;-9.3999;0.3009;-3.6523;
687573001794526;-2.5896;0.4158;-2.2774;
687573011891610;-12.8303;0.1283;-4.6442;
687573021999057;-18.1340;-0.7460;0.0269;
687573032106505;-5.3061;0.7319;3.5605;
687573042244110;-6.5133;-1.1844;0.2402;
687573052351557;-8.5472;-1.8191;-1.7623;
687573062459005;-11.5989;-0.5758;-2.5624;
687573072573953;-13.0149;-0.2931;-2.9363;
687573082681401;-6.2856;0.5501;-4.7809;
687573092788849;-8.1422;-0.6263;-6.4983;
687573102863797;-12.4421;0.6242;-4.7426;
687573112971245;-9.9054;1.6615;0.8797;
687573123078693;-7.7997;1.0149;1.2296;
687573133196870;-9.1316;0.7705;-3.1807;
687573143304318;-8.6907;0.3200;-2.9004;
687573153411766;-12.2124;0.1140;1.3277;
687573163514578;-10.3077;0.9571;1.3181;
687573173622026;-8.1494;-0.5064;-0.5623;
687573183729474;-11.2947;-0.8779;-7.8685;
687573193866453;-11.4048;1.1871;-4.6155;
687573203973901;-7.3038;-0.4657;3.5844;
687573214081349;-10.7294;1.1417;-1.5494;
687573224166453;-9.9150;-0.1663;-4.4958;
687573234273901;-7.4429;-0.0969;-2.3973;
687573244381349;-9.7472;0.3488;-1.9253;
687573254500932;-9.7089;-0.7795;-1.0032;
687573264608380;-11.1894;0.7968;-1.3289;
687573274715828;-10.9857;0.3081;-1.6714;
687573284798328;-6.0823;-0.4561;0.7720;
687573294905776;-7.9579;0.0900;-1.7985;
687573305013224;-11.0527;-0.0105;-2.4308;
687573315132287;-9.9293;0.0876;-2.0115;
687573325239735;-8.0465;-0.0826;-3.9832;
687573335347182;-10.2287;0.7490;-3.4418;
687573345438641;-10.9762;0.6482;-0.5336;
687573355546089;-8.9255;0.7896;-2.3758;
687573365653537;-7.7782;0.9667;-3.6308;
687573375781974;-8.9614;0.8566;-2.3997;
687573385889422;-8.7242;0.8782;-2.0836;
687573395996870;-11.7739;1.2661;-1.2667;
687573406103745;-10.4516;0.1522;1.1145;
687573416211193;-8.3554;0.8327;-0.8426;
687573426318641;-8.8753;0.3464;-2.8475;
687573436428953;-8.9590;-1.1844;-1.1324;
687573446536401;-10.5257;1.0555;-1.9373;
687573456643849;-9.4454;0.6482;-2.6345;
687573466755516;-7.5577;0.0398;-2.4165;
687573476862964;-7.5171;0.5524;-2.6249;
687573486970412;-9.6203;-0.0559;-3.1926;
687573497071453;-12.2411;0.1810;-1.1587;
687573507178849;-8.8920;-0.0320;0.1373;
687573517286349;-6.4176;-0.0682;-1.9732;
687573527385880;-8.9566;-0.1280;-3.4298;
687573537493328;-10.0179;0.0063;-2.0521;
687573547600776;-9.5366;-0.3891;0.9278;
687573557732287;-8.8513;-0.3099;-0.0425;
687573567839735;-10.3053;-0.9425;-3.7388;
687573577947235;-9.2393;0.7753;-2.9411;
687573588036714;-6.9494;-0.6670;-1.3481;
687573598144162;-9.6658;0.0422;-2.9363;
687573608251662;-13.8700;0.2794;-1.4246;
687573618348120;-10.4037;-0.4394;1.1480;
687573628455568;-8.5065;0.0398;-1.8559;
687573638563068;-9.2034;-0.2118;-1.1133;
687573648662339;-2.2828;-1.0167;-0.2557;
687573658769787;-3.0254;-1.6155;-5.4491;
687573668877287;-1.3582;-0.3170;-11.4428;
687573678998120;-11.6109;-0.4490;-10.4151;
687573689105568;-31.3953;2.5717;3.6419;
687573699213068;-37.5518;2.1407;21.4379;
687573709326870;-3.0876;-2.7317;24.0299;
687573719434318;7.1076;-14.0602;0.4104;
687573729541818;-6.8127;0.6769;-17.3163;
687573739647495;-11.6013;7.9690;-12.6260;
687573749754943;-10.6241;0.4516;-5.3653;
687573759862443;-11.2732;0.9093;-6.3571;
687573769968641;-9.1555;1.8939;-1.2066;
687573780076089;-9.3927;1.1752;-0.9263;
687573790183589;-7.8093;-1.0645;-2.3877;
687573800274370;-8.7341;-1.6899;-4.5772;
687573810381818;-9.5028;-0.0969;-2.9674;
687573820489318;-6.7217;-0.3963;0.0676;
687573830614057;-8.4559;-1.1486;0.4798;
687573840721453;-9.3999;-1.0932;2.5328;
687573850829005;-3.4089;-1.0549;7.1943;
687573860932547;-1.5476;-1.9125;-11.8403;
687573871039995;-20.9534;-1.1509;-32.7888;
687573881147495;-17.9614;2.1024;-23.2143;
687573891217547;-2.0097;3.2880;4.2120;
687573901325047;-2.3596;3.4367;16.5009;
687573911432547;-11.3139;1.7955;9.4965;
687573921578953;-15.8438;1.9226;0.5898;
687573931686401;-11.0671;-0.1065;-0.5025;
687573941793901;-2.8241;-1.1486;-1.8679;
687573951884787;-8.5041;1.0484;-8.2926;
687573961992235;-12.5716;2.0399;-6.8384;
687573972099735;-7.3612;0.1522;2.5591;
687573982216714;-10.5927;0.1690;-1.0726;
687573992324162;-17.7314;0.0111;-2.9028;
687574002431662;-5.0737;-0.2931;3.7304;
687574012534943;-6.0559;-1.2873;-0.1573;
687574022642391;-9.2803;-2.5834;-3.7795;
687574032749891;-9.1890;-1.6035;-0.9766;
687574042849995;-10.6863;-0.8417;0.2234;
687574052957443;-8.6022;-1.0860;-1.7623;
687574063064891;-6.5061;-1.6466;-4.8431;
687574073207807;-14.4353;0.0565;-3.1424;
687574083315255;-13.6208;-2.0109;6.2073;
687574093422755;-8.8322;-3.4744;6.8064;
687574103509578;-10.7031;-2.9163;-2.5098;
687574113617026;-7.8811;-1.7641;-2.4667;
687574123724526;-7.3086;-1.4169;-0.1621;
687574133889995;-9.5605;-0.9760;-5.3844;
687574143997443;-14.4497;0.8016;-4.5461;
687574154104943;-5.1479;-0.1759;1.5505;
687574164151037;-4.0173;1.1273;-2.9818;
687574174258485;-10.1569;0.6553;-6.6302;
687574184365985;-17.4057;0.4759;-3.6861;
687574194489787;-11.4048;0.6649;3.1747;
687574204597235;-5.4473;0.0852;1.8452;
687574214704735;-8.4730;-0.2405;-3.0870;
687574224786453;-11.6157;1.3382;-2.9124;
687574234893901;-7.0881;1.7381;-1.9756;
687574245001401;-7.5649;1.4961;-3.0296;
687574255149995;-8.6524;1.0002;-4.2538;
687574265257443;-7.6032;1.9274;-4.9173;
687574275364943;-10.9834;3.5348;-5.0946;
687574285453432;-14.7897;4.0283;-3.2501;
687574295560880;-12.7128;4.1001;1.4429;
687574305668380;-7.6681;2.4162;2.9925;
687574315785047;-4.2138;-0.0272;0.3673;
687574325892495;-12.9763;0.6338;-4.5365;
687574335999995;-13.5562;0.8758;-0.8952;
687574346106453;-8.0800;-0.6263;1.7949;
687574356213901;-9.6802;-1.4240;-1.4725;
687574366321401;-7.0283;-0.8417;-5.8349;
687574376413328;-8.8801;-0.3700;-8.8938;
687574386520776;-11.9465;0.5142;-4.7617;
687574396628276;-10.4659;-0.2572;1.7064;
687574406730464;-5.6294;-2.6145;1.6798;
687574416837912;-9.2536;-2.7488;-1.6283;
687574426945412;-8.3722;-2.0085;-1.3098;
687574437050568;-10.6122;-2.5738;-2.0859;
687574447158016;-12.2578;-1.4121;-1.8344;
687574457265516;-8.3578;-2.2337;-2.8546;
687574467376037;-6.2354;-0.6909;-4.4022;
687574477483485;-9.1603;0.8495;-4.7112;
687574487590985;-13.2494;0.1570;-1.5733;
687574497703745;-13.5897;1.9920;1.3445;
687574507811193;-9.6275;0.5118;1.0522;
687574517918693;-10.7127;-0.0248;-2.6249;
687574527990880;-8.6357;0.6960;-2.1218;
687574538098380;-10.5544;1.6208;-2.8837;
687574548205828;-9.1843;0.7872;-1.5203;
687574558345412;-8.6644;0.3296;-0.1501;
687574568452860;-8.7365;-0.7579;-2.1840;
687574578560360;-7.9555;-1.8455;-4.1195;
687574588663328;-10.3654;-1.0597;-2.3157;
687574598770776;-11.3043;-1.4121;0.8797;
687574608878276;-10.9546;-2.0946;-0.4065;
687574618986141;-9.9174;-2.0228;-2.5744;
687574629093589;-8.9016;-1.3089;-2.0043;
687574639201089;-12.2626;-1.4408;-0.0473;
687574649307807;-11.2277;-0.7986;0.9326;
687574659415255;-3.2937;-0.5686;-1.8057;
687574669522755;-9.9963;-0.3194;-5.6623;
687574679639578;-13.3262;0.9858;-6.0718;
687574689747026;-11.4984;1.1824;-2.4930;
687574699854526;-8.0776;1.2278;0.4845;
687574709947547;-5.7900;1.4387;-1.3050;
687574720054995;-12.9380;0.9260;-4.0693;
687574730162495;-10.5018;0.7585;-1.9540;
687574740268120;-8.4849;-0.5662;0.7600;
687574750375568;-14.8543;0.6123;0.4750;
687574760483068;-16.3708;-0.8130;2.6261;
687574770582287;-5.9145;-2.8373;4.3340;
687574780689735;-3.1214;-1.5317;-3.3386;
687574790797235;-13.2039;0.1642;-12.3266;
687574800914162;-9.9102;0.4516;-4.8479;
687574811021610;-8.6094;0.5022;1.7662;
687574821129110;-9.5821;0.6458;-1.7360;
687574831241297;-3.5333;0.3775;-3.9520;
687574841348745;-11.6468;-0.9066;-3.1639;
687574851456245;-14.2364;-0.1304;0.2833;
687574861554891;-10.6744;0.5357;1.2966;
687574871662339;-3.8016;-0.7268;-1.9205;
687574881769839;-2.4434;-1.8909;-5.0994;
687574891860724;-12.3703;-1.1363;-3.9135;
687574901968172;-21.3030;0.4588;0.4917;
687574912075672;-6.7146;1.0747;2.0632;
687574922198797;-2.5944;0.3775;-4.9819;
687574932306297;-9.8504;0.2028;-8.1918;
687574942413797;-19.6693;0.9476;-2.7781;
687574952522495;-15.9996;3.1923;5.4888;
687574962629943;2.3261;1.0675;2.4945;
687574972737443;-9.1771;-1.2562;-8.1918;
687574982844370;-16.5051;-1.6804;-3.4035;
687574992951818;-2.7787;-0.1065;2.1613;
687575003059266;-4.6687;0.0972;-6.5605;
687575013194057;-7.0570;-1.1581;-5.1329;
687575023301505;-1.4252;-1.0908;-2.2750;
687575033409005;-7.7901;-0.3027;-5.2167;
687575043467339;-14.6653;1.2015;-5.4778;
687575053574839;-10.8900;1.2182;-1.3217;
687575063682287;-0.4576;0.0446;1.3971;
687575073815099;-4.5060;-2.3844;-0.9694;
687575083922547;-15.2187;-0.8803;-3.7890;
687575094030047;-8.4200;0.7199;-0.3538;
687575104150360;-0.5486;0.4998;-1.0822;
687575114257807;-0.9461;0.0254;-7.5523;
687575124365307;-3.4950;1.5706;-6.8288;
687575134455932;-27.7855;3.8557;-4.3400;
687575144563380;-48.8537;6.8716;5.8983;
687575154670880;-5.5840;3.9012;16.4961;
687575164771037;13.1369;-4.3223;6.8183;
687575174878485;-9.3544;-5.1057;-5.9545;
687575184985985;-17.6166;-3.3428;2.0919;
687575195109370;-5.3874;0.3272;6.8327;
687575205216818;-2.1488;-0.8584;-5.9354;
687575215324318;-15.1899;-1.6250;-2.7876;
687575225425724;-18.5124;2.3683;-5.6169;
687575235533172;-17.7506;2.9384;-9.4854;
687575245640672;-16.8763;2.0183;2.4870;
687575255756766;-11.6372;0.7175;11.7075;
687575265864214;-11.2134;-0.4178;1.7758;
687575275971714;-21.8157;-3.2204;-5.6456;
687575286072807;-21.0829;-1.3783;11.9040;
687575296180255;-9.5148;-3.0529;18.9371;
687575306287755;-7.0905;-3.0505;10.6247;
687575316407287;-10.8108;-2.9426;-2.5170;
687575326514735;-22.8769;3.2258;-30.1179;
687575336622235;-18.0691;3.6425;-15.2396;
687575346728328;-2.0216;2.3635;2.0728;
687575356835776;3.9048;2.7227;-6.9942;
687575366943276;0.5749;-2.2047;-7.2912;
687575377055620;-1.0110;-1.1557;-6.0263;
687575387163068;9.7041;-0.8489;-12.2572;
687575397270568;1.6481;-1.8598;-19.6950;
687575407384057;-21.7463;-0.9425;-23.9495;
687575417491505;-38.0118;0.6936;-18.2530;
687575427599005;-27.0428;1.6400;2.7891;
687575437680880;-6.5133;5.1278;17.8735;
687575447788328;-3.1741;3.4510;12.8309;
687575457895828;-8.7532;2.3659;0.5827;
687575468008328;-9.8145;2.1096;-14.4538;
687575478115776;-13.4698;0.4325;-9.5261;
687575488223276;-12.9069;4.7204;-9.9933;
687575498334891;-11.5869;-1.2634;-13.9196;
687575508442339;-2.6758;-5.3836;-3.8919;
687575518549839;1.4228;-3.9464;-2.2917;
687575528665203;-5.8738;-3.9727;-2.8908;
687575538772755;-11.4697;-3.5512;-0.2677;
687575548880307;-10.0418;-2.2768;5.9510;
687575558990932;-5.6797;-2.2071;17.6530;
687575569098485;8.9713;-2.7918;21.7134;
687575579206037;3.9311;-4.9214;-16.1737;
687575589294266;-26.7721;-6.1525;-56.3031;
687575599401818;-32.6148;4.6558;-19.4773;
687575609509370;-5.2965;12.7863;3.4071;
687575619625099;16.5984;4.1599;11.3121;
687575629732651;0.2133;1.7429;2.5926;
687575639840151;-29.6444;1.0531;3.4119;
687575649951245;-27.2034;-0.7627;11.2666;
687575660058797;-2.0746;-3.8746;10.3971;
687575670166297;-0.2420;-3.2444;-1.0247;
687575680263224;-14.1838;-5.2687;-6.4457;
687575690370776;-13.5224;-0.6598;0.0269;
687575700478328;-7.4285;1.3382;-4.0813;
687575710578380;-9.1244;-0.3003;-9.0592;
687575720685932;-9.8623;2.9910;-5.8158;
687575730793432;-9.6730;2.8424;-4.8048;
687575740910307;-7.4668;1.6089;-1.8655;
687575751017860;-7.9340;1.5467;-0.5862;
687575761125412;-9.6251;0.6338;-0.2821;
687575771224318;-9.1077;-0.0921;1.1913;
687575781331922;-7.7279;-1.5102;0.9374;
687575791439422;-9.2201;-0.9281;-3.7149;
687575801552703;-12.1738;-0.0754;-3.6356;
687575811660255;-10.0370;-0.6957;-2.2798;
687575821767807;-9.7400;1.1130;-5.1401;
687575831875516;-11.4218;2.2507;-5.6192;
687575841983068;-10.3702;3.3024;-3.2333;
687575852090620;-9.3401;2.6028;-1.4127;
687575862200307;-6.1971;2.1574;-2.8884;
687575872307860;-6.6165;1.5945;-6.0598;
687575882415412;-9.1795;2.0952;-6.4863;
687575892508432;-10.3678;1.7261;-5.3222;
687575902615985;-8.9375;1.5224;-5.5304;
687575912723537;-10.5473;0.4588;-6.1654;
687575922833745;-9.2536;0.7681;-2.5026;
687575932941297;-5.8259;1.0819;-2.7924;
687575943048797;-8.6740;-0.4537;-5.2525;
687575953145151;-12.7080;0.0350;-4.6370;
687575963252755;-7.6534;0.8830;-3.9278;
687575973360307;-6.7217;0.2674;-5.0348;
687575983459370;-11.5104;-0.0488;-4.8024;
687575993566974;-7.9986;1.5344;-5.5232;
687576003674474;-4.2473;0.3703;-4.4070;
687576013804787;-11.7021;-0.4155;-4.2491;
687576023912339;-9.2731;-1.0047;-4.2299;
687576034019891;-8.6046;0.2626;-4.0621;
687576044140099;-9.5653;-1.9316;-1.5179;
687576054247651;-9.5195;-0.7316;-2.1482;
687576064355203;-7.5314;-0.3242;-3.2070;
687576074451974;-11.0982;-1.1868;-3.2070;
687576084559526;-10.2000;-1.3759;-3.5734;
687576094667078;-10.4779;-0.9018;-2.6010;
687576104786349;-9.5892;-1.0262;-0.4977;
687576114893901;-8.5591;-0.3724;-3.4155;
687576125001453;-7.3756;-1.3902;-4.1004;
687576135111766;-11.0408;-1.0286;-2.9530;
687576145219318;-10.6241;-0.8345;-1.6259;
687576155326870;-8.1589;-2.1879;-2.2152;
687576165425047;-8.6261;-1.8000;-3.5327;
687576175532599;-9.0885;-2.2313;-3.3362;
687576185640151;-9.5390;-2.1425;-4.0837;
687576195755828;-9.3377;-1.1339;-2.5409;
687576205863380;-8.6213;-1.4408;-2.6225;
687576215970932;-9.6275;-0.6168;-3.7292;
687576226061349;-9.0838;-1.3352;-2.8331;
687576236168901;-9.7519;-0.4848;-3.6021;
687576246276401;-10.6792;-0.8154;-2.7470;
687576256379578;-9.3401;0.2961;-2.7326;
687576266487130;-9.1723;-0.0849;-3.3529;
687576276594682;-9.3520;-0.3218;-2.8451;
687576286700880;-10.9618;-0.1065;-2.3518;
687576296808432;-9.2345;-0.1831;-2.6895;
687576306915932;-8.4512;0.0541;-3.5518;
687576317039162;-9.3832;-0.5758;-3.6667;
687576327146714;-10.6648;0.1211;-4.1507;
687576337254266;-9.1220;0.2411;-2.6919;
687576347350464;-7.8212;-0.0200;-3.7675;
687576357458068;-9.7831;0.7944;-5.2262;
687576367565568;-8.6501;1.0771;-2.0426;
687576377676245;-7.7016;0.0661;-2.9985;
687576387783797;-7.3134;1.3645;-5.3964;
687576397891349;-9.3903;1.2063;-3.6766;
687576407988432;-8.8011;1.9801;-3.4968;
687576418095985;-8.4105;0.3320;-4.2658;
687576428203537;-8.3794;1.6448;-4.0071;
687576438318641;-9.3329;1.0627;-2.4571;
687576448426141;-8.5208;0.4205;-3.0320;
687576458533745;-8.5256;0.7729;-3.9206;
687576468647287;-11.3330;0.7777;-4.1148;
687576478754839;-10.4994;0.8160;-2.9387;
687576488862391;-8.6213;0.9619;-3.3147;
687576498961141;-9.7017;1.0842;-2.7589;
687576509068693;-10.1521;0.9428;-1.5661;
687576519176245;-9.3090;0.1690;-1.3720;
687576529287391;-9.2393;0.1331;-2.0139;
687576539394891;-11.8720;0.2195;-1.4222;
687576549502391;-7.8739;-0.3796;-1.6020;
687576559614057;-6.9757;-0.6909;-4.0358;
687576569721557;-9.6802;-0.0200;-3.9326;
687576579829057;-8.5663;-0.8994;-3.2070;
687576589927703;-7.2392;-0.8321;-4.6298;
687576600035203;-7.4836;-0.9066;-4.5197;
687576610142703;-8.1398;-0.6598;-3.6909;
687576620254630;-8.6022;-0.5590;-4.9268;
687576630362130;-9.3784;-0.8512;-4.9436;
687576640469578;-9.7448;0.1164;-3.3864;
687576650589578;-9.7424;-0.6048;-2.0067;
687576660697078;-10.9834;-0.7962;-1.3265;
687576670804578;-10.0370;-0.6933;-0.7732;
687576680891453;-9.2898;-0.7603;-1.8583;
687576690998953;-9.5725;-0.9305;-3.0200;
687576701106453;-10.5281;-0.6550;-4.0023;
687576711216714;-10.7175;-0.4202;-2.9004;
687576721324214;-9.7663;-1.1195;-2.7924;
687576731431714;-9.0838;-1.6995;-3.8441;
687576741529787;-8.6812;-0.7436;-2.7446;
687576751637287;-9.9317;-1.5293;-2.6895;
687576761744787;-9.1866;-1.3424;-3.7340;
687576771880672;-8.0489;-0.2788;-2.8642;
687576781988172;-7.1483;-0.1902;-2.8499;
687576792095672;-10.2383;-0.9473;-4.7088;
687576802185724;-9.8839;-0.0296;-3.3625;
687576812293224;-7.1049;-0.8512;-3.4896;
687576822400724;-8.0871;-0.6168;-4.8431;
687576832501714;-9.3640;0.1427;-4.8072;
687576842609214;-12.2073;0.2148;-4.4118;
687576852716714;-9.0311;0.1187;-2.1338;
687576862825828;-8.8035;-0.4753;-2.1936;
687576872933328;-8.9255;-0.1543;-3.8584;
687576883040828;-8.7628;0.7848;-2.7517;
687576893183120;-11.1775;0.2100;-5.1353;
687576903290620;-11.7500;1.4746;-3.9230;
687576913398120;-9.3425;0.6793;-2.1984;
687576923476870;-8.3865;0.6362;-2.5289;
687576933584370;-8.9327;0.1044;-1.5422;
687576943691818;-9.6084;0.4038;-4.2108;
687576953809891;-9.1436;1.3502;-3.4537;
687576963917391;-8.1230;0.7537;-4.0813;
687576974024891;-8.6453;1.2879;-2.9554;
687576984129578;-7.4859;0.2363;-4.5437;
687576994237078;-7.6223;1.3119;-5.1664;
687577004344578;-7.0283;0.9380;-5.5304;
687577014426141;-6.5276;1.9418;-5.4251;
687577024533641;-3.6147;1.9083;-5.1425;
687577034641141;-15.3718;1.2951;-5.9689;
687577044807807;-15.8127;0.8925;-2.4691;
687577054915307;-17.1853;1.6878;2.4033;
687577065022807;-8.4634;0.9404;6.2961;
687577075094995;-3.6843;0.6314;1.3493;
687577085202495;-14.5669;-1.2132;-2.2487;
687577095309995;-11.7428;0.3368;-4.3256;
687577105399057;-5.8235;0.7825;-3.2812;
687577115506557;-5.2965;0.0398;-5.8756;
687577125614057;-8.8131;-0.2788;-5.6192;
687577135729162;-11.2684;-0.7292;-4.9627;
687577145836662;-9.8958;-1.2802;-3.6694;
687577155944162;-8.1039;-1.3448;-2.0115;
687577166052182;-7.8643;-1.8526;-0.6700;
687577176159682;-9.2683;-1.4647;1.5242;
687577186267182;-3.5812;-2.7389;-1.4653;
687577196375099;-13.0843;-1.6178;-12.5782;
687577206482599;-10.4085;-0.6957;-11.3587;
687577216590099;-12.9882;2.8929;-7.0899;
687577226689682;-8.3507;1.7405;0.0799;
687577236797182;-6.3362;0.8806;-1.0175;
687577246904682;-13.0268;-0.6287;-3.3218;
687577257022391;-11.4888;-0.8874;3.6395;
687577267129891;-8.3698;0.1499;2.4344;
687577277237391;-8.6333;-2.3797;-1.4366;
687577287344057;-8.2071;-2.8780;-5.1281;
687577297451557;-12.2961;-1.0860;-6.8599;
687577307559057;-9.3784;-0.7771;-3.3840;
687577317680828;-3.1765;-0.4346;-3.6814;
687577327788328;-7.6511;-0.5614;-6.4744;
687577337895828;-11.4601;-0.3700;-4.9244;
687577347989578;-8.9016;0.3488;-3.2764;
687577358097078;-9.3712;0.5309;-3.1759;
687577368204578;-8.5974;-0.5758;-0.5599;
687577378324474;-8.3578;-0.5279;-1.8200;
687577388431974;-10.8562;-0.6383;-3.6069;
687577398539474;-11.5032;-0.8827;-0.2246;
687577408629266;-10.2479;0.3009;-1.8320;
