Sensor: bmi160 Accelerometer Non-wakeup
Vendor: BOSCH
TimestampAcc [ns]; AccX [m/s^2]; AccY [m/s^2]; AccZ [m/s^2]
2345990865354;-9.5076;-0.6718;-2.4739;
2346000959573;-9.4167;-0.6981;-2.5457;
2346011094208;-9.3640;-0.7316;-2.5839;
2346021207125;-9.3497;-0.7866;-2.5385;
2346031300614;-9.4214;-0.6790;-2.6728;
2346041413531;-9.4190;-0.6383;-2.5313;
2346051523792;-9.4693;-0.5973;-2.5146;
2346061678323;-9.4669;-0.5614;-2.5265;
2346071720094;-9.4262;-0.5255;-2.4882;
2346081825719;-9.4023;-0.5686;-2.4954;
2346091926448;-9.4238;-0.6311;-2.5337;
2346102047698;-9.4095;-0.6909;-2.5528;
2346112159677;-9.4023;-0.7340;-2.5887;
2346122264677;-9.4262;-0.7388;-2.5839;
2346132363271;-9.4190;-0.7507;-2.5481;
2346142472021;-9.3999;-0.7292;-2.5170;
2346152577437;-9.3832;-0.6909;-2.4954;
2346162682229;-9.4167;-0.6646;-2.4811;
2346172792385;-9.4190;-0.6526;-2.4787;
2346182897646;-9.4190;-0.6670;-2.5170;
2346193004677;-9.4190;-0.6718;-2.5576;
2346203115927;-9.4143;-0.6861;-2.5935;
2346213229260;-9.4190;-0.6957;-2.6058;
2346223333427;-9.3855;-0.6837;-2.5839;
2346233439364;-9.4143;-0.6885;-2.5672;
2346243533844;-9.4023;-0.6814;-2.5409;
2346253652281;-9.4143;-0.6861;-2.5002;
2346263755875;-9.4382;-0.6837;-2.4930;
2346273876552;-9.4143;-0.7220;-2.5193;
2346283972802;-9.4262;-0.7364;-2.5337;
2346294081656;-9.4262;-0.7364;-2.5122;
2346304188948;-9.4119;-0.7938;-2.5122;
2346314295771;-9.4167;-0.8106;-2.5241;
2346324419781;-9.3927;-0.8201;-2.5337;
2346334513844;-9.4095;-0.8656;-2.4117;
2346344621448;-9.4214;-0.8417;-2.5744;
2346354806396;-9.3927;-0.8946;-2.4763;
2346364831864;-9.4262;-0.9688;-2.4045;
2346374946239;-9.4430;-1.0765;-2.3542;
2346385062802;-9.4071;-1.2060;-2.2343;
2346395159729;-9.3903;-1.3472;-2.2798;
2346405266448;-9.3449;-1.4288;-2.3109;
2346415380302;-9.3616;-1.4886;-2.1529;
2346425484364;-9.3903;-1.5963;-2.1458;
2346435576500;-9.3664;-1.6609;-2.2750;
2346445695302;-9.2560;-1.6442;-2.3997;
2346455803531;-9.2225;-1.5820;-2.4715;
2346465907489;-9.2034;-1.5532;-2.6154;
2346476022021;-9.1555;-1.4527;-2.7900;
2346486126187;-9.0718;-1.2730;-2.9076;
2346496235927;-9.0718;-1.1821;-2.9650;
2346506344937;-9.2225;-1.2060;-2.7589;
2346516473479;-9.2946;-1.0047;-2.7517;
2346526569260;-9.2321;-0.7627;-3.0009;
2346536664469;-9.1986;-0.6144;-3.3649;
2346546769260;-9.1579;-0.5734;-3.6742;
2346556908375;-9.0239;-0.5255;-3.8536;
2346566992385;-8.9830;-0.4155;-4.0693;
2346577114781;-9.1101;-0.1663;-4.2084;
2346587223167;-9.1747;0.1690;-4.1554;
2346597366552;-9.0766;0.4735;-4.0406;
2346607427906;-9.0957;0.6434;-4.1530;
2346617515667;-9.1938;0.7537;-4.3687;
2346627639364;-9.3257;0.8782;-4.6298;
2346637757437;-9.3401;0.9595;-4.8455;
2346647864521;-9.1890;0.3727;-4.4285;
2346658009208;-9.1508;-0.4394;-3.7723;
2346668064052;-9.1460;-0.4992;-3.7053;
2346678183896;-9.0215;-0.5949;-3.7316;
2346688282750;-8.8705;-0.9353;-3.4801;
2346698410667;-8.9016;-1.1916;-3.4442;
2346708503114;-9.1412;-1.2251;-3.6500;
2346718622281;-9.2898;-1.1315;-3.5279;
2346728708844;-9.1699;-1.0262;-3.2309;
2346738820510;-9.2201;-0.9568;-3.3553;
2346748930198;-9.1843;-1.0765;-3.4681;
2346759045927;-9.0024;-1.2156;-3.4131;
2346769166604;-8.8585;-1.1964;-3.4131;
2346779256552;-8.8585;-1.0813;-3.4585;
2346789365198;-8.9088;-1.0286;-3.3984;
2346799479052;-8.9375;-0.8632;-3.3912;
2346809578844;-8.9782;-0.7436;-3.3362;
2346819676760;-9.3329;-0.6263;-3.6141;
2346829798271;-9.2970;-0.5471;-3.8297;
2346839902489;-8.9399;-0.3987;-3.6909;
2346850030562;-9.1819;-0.1352;-3.9015;
2346860127698;-9.4693;-0.0344;-4.2009;
2346870226448;-9.4837;0.0470;-3.9736;
2346880344781;-8.4488;0.3679;-4.5891;
2346890447073;-8.7003;-0.1783;-3.6117;
2346900549677;-9.4789;-0.9329;-3.9015;
2346910675458;-9.0933;-0.0802;-4.4381;
2346920765302;-8.8561;-0.5447;-3.6933;
2346930871239;-9.0981;-0.8130;-3.6165;
2346940983739;-9.4837;-0.5112;-3.7172;
2346951094364;-9.3497;-0.5016;-2.8475;
2346961201760;-8.9925;-0.1639;-2.8860;
2346971302281;-8.9734;-0.1017;-3.3697;
2346981405094;-8.9925;-0.2859;-3.1663;
2346991514573;-8.8155;-0.7436;-3.6141;
2347001631344;-9.3257;-1.4408;-4.7833;
2347011730927;-9.4813;-1.6226;-4.1124;
2347021842906;-8.9231;-1.1605;-3.5686;
2347031954260;-8.5328;-0.9784;-3.7627;
2347042057437;-8.9183;-1.4336;-4.5174;
2347052166344;-8.9686;-0.8898;-4.1435;
2347062272906;-8.2908;-0.3939;-3.1735;
2347072381031;-8.8035;-0.6191;-2.5217;
2347082486604;-10.1115;-0.5016;-2.8427;
2347092598635;-9.9317;-0.2261;-3.0392;
2347102727802;-9.1125;-0.4346;-3.3649;
2347112815042;-8.9662;-0.7460;-4.8933;
2347122924052;-8.3937;-0.2453;-6.9775;
2347133033010;-7.4357;0.4612;-7.6648;
2347143135823;-7.7949;0.6529;-6.1056;
2347153244781;-9.0670;-0.2620;-3.7819;
2347163353792;-9.8073;-0.4226;-2.5696;
2347173469885;-10.0851;0.5644;-2.7374;
2347183578844;-9.9580;1.1752;-3.5806;
2347193687854;-9.8743;1.3860;-4.9412;
2347203787906;-8.9853;0.9930;-4.8526;
2347213896864;-8.2837;-0.0754;-4.7279;
2347224005875;-8.5232;-1.3304;-5.0372;
2347234116344;-8.5065;-1.4743;-4.5915;
2347244225302;-8.7796;-1.4408;-3.9544;
2347254334312;-8.9207;-0.5782;-3.6885;
2347264433948;-8.3459;0.2387;-3.7842;
2347274542958;-8.6070;0.4373;-3.9927;
2347284651864;-9.5605;0.8590;-4.6490;
2347294764677;-9.3784;1.4219;-4.6753;
2347304873635;-10.6552;1.4435;-4.3519;
2347314982646;-10.4037;2.0833;-3.6356;
2347325086448;-8.0776;2.3321;-3.4035;
2347335195406;-7.7351;1.2709;-4.7833;
2347345304364;-9.3497;0.2746;-5.2143;
2347355407906;-9.6203;-0.0631;-4.4743;
2347365516917;-8.4057;-0.1711;-4.3137;
2347375625875;-8.3530;-0.0344;-4.5604;
2347385726239;-7.9723;0.0182;-3.4992;
2347395835198;-8.1805;0.4397;-2.5887;
2347405944208;-8.9136;0.2818;-2.7996;
2347416042958;-10.3101;0.2865;-4.3352;
2347426151917;-10.5544;0.4493;-4.9388;
2347436260875;-9.5148;0.9260;-3.3338;
2347446373531;-8.2167;1.0388;-2.0019;
2347456482489;-9.1101;0.9236;-2.9865;
2347466591448;-9.1938;1.2350;-4.2156;
2347476716031;-8.2286;0.9858;-4.5126;
2347486825042;-9.0574;0.5931;-4.4958;
2347496934000;-8.6979;0.7247;-3.5542;
2347507012281;-8.8729;0.5859;-3.1854;
2347517121292;-9.9054;0.5046;-5.1066;
2347527230250;-10.7175;0.7633;-6.2779;
2347537357281;-9.7424;0.9547;-3.8608;
2347547466239;-8.1589;0.9380;-1.2811;
2347557575250;-7.7542;1.3454;-2.0812;
2347567674989;-8.0967;1.8221;-3.8225;
2347577783948;-8.7772;1.6950;-3.5327;
2347587892958;-9.3903;0.7271;-3.1424;
2347597990198;-10.9092;0.5046;-4.1937;
2347608099156;-10.4898;1.3286;-4.4982;
2347618208167;-9.3520;1.9322;-3.7723;
2347628308687;-8.9447;1.6759;-2.3495;
2347638417646;-8.5017;1.2063;-1.7025;
2347648526656;-8.2310;0.9404;-2.4763;
2347658632281;-8.5591;0.9045;-4.0908;
2347668741239;-9.7519;0.7104;-4.8311;
2347678850250;-10.2000;0.1307;-3.7819;
2347688959885;-9.6849;-0.1735;-3.7460;
2347699068844;-9.0909;0.3296;-4.3735;
2347709177854;-9.1866;0.4950;-3.5638;
2347719302437;-8.8968;-0.0129;-1.2209;
2347729411448;-7.4022;-0.1041;-1.3146;
2347739520406;-8.5496;0.3129;-4.3759;
2347749615614;-7.2200;0.3846;-4.4524;
2347759724573;-8.6333;0.2001;-3.4896;
2347769833583;-10.7270;0.4516;-4.6155;
2347779959781;-9.5366;2.3177;-6.5749;
2347790068792;-10.4946;1.6950;-5.6408;
2347800177750;-10.6457;1.6998;-3.4250;
2347810270406;-6.5204;2.5190;-2.5361;
2347820379364;-6.4869;2.2005;-5.7676;
2347830488375;-9.1579;1.2541;-5.8059;
2347840584989;-7.5984;1.6256;-3.8417;
2347850693948;-8.4778;2.5071;-6.3667;
2347860802958;-11.5008;3.2163;-7.2697;
2347870901708;-9.7567;3.5085;-4.7136;
2347881010667;-7.5242;4.4785;-4.5843;
2347891119625;-8.1039;4.9146;-5.2190;
2347901228948;-8.8920;4.3875;-4.0837;
2347911337906;-6.4845;5.2140;-2.6130;
2347921446917;-5.4688;4.7662;-2.1745;
2347931550927;-4.7432;4.7877;0.8871;
2347941659885;-7.5506;5.0512;1.1961;
2347951768896;-16.2488;3.6090;-6.7307;
2347961881656;-19.3795;3.1588;-8.1607;
2347971990614;-12.5692;2.7060;-2.3447;
2347982099573;-4.8102;1.7429;-0.3179;
2347992191969;-4.4916;0.1116;-1.1109;
2348002300927;-6.6978;-1.1219;-0.5886;
2348012409885;-6.4271;-2.4682;-0.6987;
2348022513739;-10.2287;-3.6757;-3.7651;
2348032622698;-16.2823;-4.2171;-5.2478;
2348042731656;-13.1632;-4.3223;-2.6106;
2348052839781;-7.9388;-5.7359;-3.0368;
2348062948739;-9.2632;-6.6413;-3.6188;
2348073057750;-8.3243;-6.8545;-0.3969;
2348083168010;-6.8366;-5.3931;-1.2449;
2348093276969;-9.0168;-5.6399;-2.5839;
2348103385979;-12.2459;-4.7417;-2.3542;
2348113488427;-9.5940;-2.3988;-1.4462;
2348123596500;-8.8872;-2.1592;-3.5638;
2348133704521;-12.1499;-1.9364;-4.8718;
2348143822802;-9.5390;-0.5566;-3.3290;
2348153962594;-7.2823;-0.4944;-3.7627;
2348164070667;-8.0345;-0.5997;-4.2371;
2348174178687;-9.0861;0.4854;-3.9736;
2348184245614;-9.2608;1.9968;-3.8704;
2348194353687;-8.6070;1.7118;-3.1687;
2348204461708;-9.4980;0.8183;-3.2716;
2348214571292;-10.2694;1.5395;-2.1840;
2348224679364;-9.2970;2.3369;-1.9469;
2348234787385;-8.7413;1.1130;-3.1591;
2348244888844;-10.2814;1.0220;-2.5816;
2348254996917;-9.5414;1.5272;-1.8823;
2348265104937;-8.7891;0.9452;-1.7001;
2348275210771;-10.7127;1.6831;-1.2763;
2348285318844;-7.9484;1.8724;-1.8751;
2348295426864;-9.4238;1.1249;-2.8765;
2348305549208;-11.2971;1.4100;-2.8884;
2348315657281;-8.4921;1.1489;-2.9602;
2348325765302;-8.6716;0.3775;-3.2692;
2348335862281;-9.5366;0.6123;-2.5672;
2348345970354;-7.7710;0.1307;-2.4906;
2348356078375;-8.3985;-0.4155;-2.6800;
2348366192281;-9.0646;0.4588;-2.8164;
2348376300354;-10.0274;-0.2046;-3.0320;
2348386408375;-10.8251;-0.4011;-2.2606;
2348396523844;-9.2178;0.1522;-1.4438;
2348406631917;-9.4190;-0.7795;-2.0210;
2348416739937;-11.1559;-0.2309;-2.2510;
2348426829573;-9.5845;0.3033;-2.2152;
2348436937646;-8.3842;-0.4753;-2.3710;
2348447045667;-9.6945;-0.0416;-3.4250;
2348457189937;-9.8815;0.5859;-4.1124;
2348467297958;-9.6586;0.3655;-3.3625;
2348477406031;-8.9830;0.5692;-3.1878;
2348487480927;-8.3315;0.7056;-3.5064;
2348497589000;-10.0490;0.6194;-3.3864;
2348507697021;-9.0263;0.1786;-3.3793;
2348517798114;-9.4980;-0.3170;-3.4370;
2348527906187;-10.8443;-0.2022;-3.5112;
2348538014208;-8.8011;-0.4633;-3.4274;
2348548119677;-7.9938;-0.2955;-3.8154;
2348558227750;-9.4406;-0.7627;-4.3280;
2348568335771;-8.9710;-1.1797;-4.4453;
2348578444417;-8.8083;-1.1844;-4.7689;
2348588552437;-9.8312;-1.2395;-4.9962;
2348598660510;-8.8657;-0.3652;-4.2826;
2348608772177;-8.3339;0.0398;-5.3462;
2348618880250;-8.4153;-0.2022;-5.5184;
2348628988271;-9.1579;-0.5040;-4.5772;
2348639101031;-8.7099;-0.5040;-4.7761;
2348649209104;-9.4190;-1.4216;-4.1698;
2348659317125;-8.6046;-0.0802;-4.3543;
2348669426292;-8.1374;-0.5351;-4.6131;
2348679534364;-9.8384;-0.7842;-5.8158;
2348689642385;-8.3889;-0.0706;-5.7604;
2348699768271;-9.2345;-0.0802;-5.7269;
2348709876344;-9.6897;0.7008;-6.1869;
2348719984364;-8.3698;1.0484;-4.8215;
2348730072073;-8.5926;1.1106;-4.8000;
2348740180146;-8.3291;0.8351;-5.0970;
2348750288167;-9.1101;1.2879;-5.0803;
2348760401656;-10.9690;1.1728;-4.2730;
2348770509729;-7.1049;1.1584;-3.9159;
2348780617750;-8.9566;0.6003;-5.4299;
2348790728948;-10.6050;0.6338;-5.2792;
2348800837021;-8.9806;1.1225;-3.7196;
2348810945042;-8.3698;-0.0535;-2.9028;
2348821040406;-9.5605;-0.9784;-3.0200;
2348831148479;-9.4980;-1.2993;-1.9875;
2348841256500;-10.1402;-1.6250;-2.1912;
2348851373948;-8.1565;-1.8933;-2.9267;
2348861482021;-9.4502;0.5668;-3.7268;
2348871590042;-9.9293;0.3368;-3.7819;
2348881702698;-10.0923;-0.4178;-3.7292;
2348891810771;-7.6415;-0.9903;-2.5720;
2348901918792;-9.4143;-1.3998;-4.0238;
2348912017281;-10.0657;-0.8680;-3.6694;
2348922125354;-9.5438;-0.9497;-3.5423;
2348932233375;-10.0851;-1.4671;-2.6225;
2348942346292;-8.1613;-0.5495;-0.9790;
2348952454364;-8.8777;-0.9449;-2.6608;
2348962562385;-10.2574;-0.0153;-2.4476;
2348972666031;-8.9590;0.0111;-2.7829;
2348982774104;-8.2860;-0.0655;-3.3003;
2348992882125;-9.4525;0.5357;-3.3003;
2349002987125;-9.7998;-0.1567;-3.5686;
2349013095198;-8.7317;-0.4681;-3.6308;
2349023203219;-9.7280;-1.3113;-2.6273;
2349033307177;-9.3281;-0.3147;-3.0129;
2349043415250;-9.5291;-0.1017;-2.7039;
2349053523271;-9.7352;0.0230;-2.5744;
2349063628844;-9.0742;-0.0176;-2.0354;
2349073736917;-9.1101;-0.2142;-3.2333;
2349083844937;-8.6859;-1.1100;-1.9971;
2349093955198;-9.7161;-1.0908;-2.5672;
2349104063271;-8.5687;-1.5197;-1.5278;
2349114171292;-9.5557;-1.8359;-3.4250;
2349124288427;-10.1785;-2.0515;-3.8154;
2349134396500;-9.0598;-2.2023;-2.8211;
2349144504521;-8.0632;-1.3256;-3.2524;
2349154615667;-10.1569;-1.8766;-3.6933;
2349164723687;-9.2297;-0.3075;-4.3448;
2349174831708;-8.4248;0.8495;-4.3950;
2349184927281;-9.6586;1.2832;-5.2573;
2349195035354;-9.4980;1.9537;-4.3161;
2349205143375;-8.8561;2.5860;-4.0478;
2349215248323;-9.4143;2.1431;-4.9316;
2349225356396;-10.5185;2.1335;-5.0611;
2349235464417;-7.6295;2.9384;-5.0803;
2349245571031;-8.0465;2.3587;-4.9460;
2349255679104;-9.8791;2.4281;-5.9689;
2349265787125;-8.4583;3.2976;-4.4815;
2349275877698;-8.5950;1.5754;-3.3027;
2349285985771;-9.1986;1.8027;-5.3198;
2349296093792;-10.5425;1.9705;-3.9975;
2349306221031;-9.1938;2.3345;-3.5710;
2349316329104;-8.6764;2.9264;-4.2299;
2349326437125;-10.5209;2.1814;-3.3410;
2349336549885;-8.6907;1.6663;-1.8176;
2349346657958;-8.1446;0.1499;-3.1496;
2349356765979;-10.1330;-0.7914;-4.6609;
2349366865406;-9.6132;-0.3290;-2.7972;
2349376973479;-8.4344;0.0709;-2.6776;
2349387081500;-8.6788;-0.6694;-3.3482;
2349397194625;-8.8825;-1.9582;-3.0464;
2349407302646;-9.8527;-1.6155;-4.9292;
2349417410667;-10.0346;-1.3424;-4.3902;
2349427498219;-9.4071;-1.2586;-2.0186;
2349437606292;-8.8131;-1.4647;-1.7791;
2349447714312;-8.8729;-1.6756;-2.7302;
2349457853323;-9.3138;-1.8837;-3.5710;
2349467961396;-9.2683;-0.8441;-3.9712;
2349478069417;-7.0379;-1.8766;-3.9425;
2349488149573;-9.4310;-2.8756;-5.7796;
2349498257646;-10.0442;-2.4658;-5.1114;
2349508365667;-9.7017;-1.4360;-2.4691;
2349518484625;-8.8537;-1.1100;-2.0378;
2349528592698;-8.9423;-2.0611;-3.3697;
2349538700719;-10.1521;-2.0204;-4.3831;
2349548820198;-8.5496;-0.6646;-3.6933;
2349558928271;-9.0263;-0.0583;-3.6742;
2349569036344;-9.5988;0.3009;-3.2261;
2349579144417;-8.4512;1.0771;-4.5532;
2349589252437;-10.4157;0.7896;-3.9135;
2349599355458;-8.8801;0.4301;-3.1424;
2349609463479;-7.7160;1.4961;-2.9818;
2349619571500;-8.9471;1.2254;-4.1004;
2349629679521;-11.0480;1.2039;-4.5221;
2349639786448;-10.4228;2.4233;-2.9219;
2349649894521;-8.9423;2.0447;-2.3471;
2349660002542;-9.4095;0.8351;-1.4509;
2349670115406;-9.4932;0.3344;-3.6021;
2349680223479;-8.3818;0.9165;-2.8932;
2349690331500;-7.4237;1.0125;-3.4801;
2349700438010;-9.8934;0.5142;-4.3256;
2349710546083;-8.9207;1.5778;-4.5915;
2349720654104;-9.2584;0.6745;-3.1831;
2349730755198;-9.4573;0.3033;-3.1711;
2349740863271;-10.2909;0.4229;-3.9616;
2349750971292;-9.1340;0.2602;-2.9172;
2349761079052;-9.8432;-0.0176;-2.1314;
2349771187125;-9.1795;0.1881;-2.5816;
2349781295146;-9.6754;-0.6263;-2.4739;
2349791400198;-9.0455;-0.6359;-1.9516;
2349801508271;-8.4464;-0.3389;-3.8919;
2349811616292;-8.3267;-0.9401;-3.8800;
2349821732542;-9.4334;-1.0525;-4.0238;
2349831840614;-9.5219;-0.7292;-4.4357;
2349841948635;-10.1665;-0.6766;-3.8417;
2349852040927;-9.5076;-1.1219;-1.8153;
2349862149000;-9.9796;-0.6957;-1.5517;
2349872257021;-8.4802;-0.9257;-2.9674;
2349882389052;-7.9962;-1.6681;-4.1530;
2349892497125;-8.0847;-1.8598;-4.9819;
2349902605146;-9.9221;-0.6957;-4.5365;
2349912701448;-9.1053;0.0805;-2.9315;
2349922809521;-9.5028;-0.1256;-2.9172;
2349932917542;-9.4430;-0.7196;-3.5160;
2349943016969;-8.9901;-0.9497;-2.9028;
2349953125042;-5.0904;0.3511;-4.2921;
2349963233062;-4.1441;0.0876;-6.8360;
2349973343375;-15.8270;0.6410;-6.1582;
2349983451448;-19.0226;0.8327;0.6595;
2349993559469;-8.5519;0.1259;4.0322;
2350003673219;-5.0474;-2.2983;-0.3538;
2350013781292;-7.7949;-0.7292;-5.2190;
2350023889312;-9.6443;1.5105;-5.8708;
2350033987698;-9.0885;0.3942;-4.1961;
2350044095771;-9.3090;0.4902;-3.2907;
2350054203792;-9.1484;0.4038;-3.7507;
2350064316344;-9.1173;1.0053;-5.2023;
2350074424417;-8.4658;0.7128;-4.6178;
2350084532437;-9.0574;-0.1639;-3.1110;
2350094639260;-10.4157;-0.3580;-2.7541;
2350104747333;-9.7328;0.1475;-2.4763;
2350114855354;-9.2683;0.8016;-1.8033;
2350124981031;-8.9375;0.1211;-2.8427;
2350135089104;-9.4597;-0.2261;-3.8297;
2350145197125;-9.4119;1.2613;-4.3615;
2350155287906;-10.2526;1.3406;-2.7852;
2350165395979;-9.0670;0.5596;-2.3614;
2350175504052;-9.6251;0.5333;0.1780;
2350185612073;-4.1489;0.7080;1.8882;
2350195720146;-6.3120;0.3416;-13.0765;
2350205828167;-14.6100;-0.0033;-17.0507;
2350215935094;-10.4085;-0.6622;-0.9263;
2350226043167;-8.0704;-0.3963;4.5975;
2350236151187;-9.9628;-0.1328;-0.2749;
2350246259573;-9.2755;-0.7914;-2.4547;
2350256367646;-8.0680;-0.9090;-1.7408;
2350266475667;-7.8021;-0.8082;-2.5696;
2350276600771;-9.7567;-1.3208;-5.5714;
2350286708844;-11.0456;0.0206;-4.4189;
2350296816864;-8.4849;0.4349;-1.3313;
2350306901656;-8.8322;0.3153;-5.3629;
2350317009729;-10.0226;-0.4370;-6.2276;
2350327117750;-9.4167;-0.7388;-2.7876;
2350337245458;-9.1436;-0.0081;-1.8368;
2350347353479;-9.9150;0.1164;-1.8846;
2350357461500;-9.1627;-0.0416;-1.5900;
2350367542385;-9.8886;-1.1557;-3.2022;
2350377650458;-9.1292;-0.4609;-2.2415;
2350387758479;-5.2558;-0.1998;-3.6838;
2350397883271;-9.7448;-0.4274;-6.4385;
2350407991292;-14.8881;-0.7292;-2.7350;
2350418099312;-11.3139;-0.1543;2.7628;
2350428182385;-7.2320;-0.7029;0.0413;
2350438290458;-6.6165;-0.9784;-5.8181;
2350448398479;-8.6022;-1.3878;-6.9320;
2350458531031;-9.3209;-0.6885;-4.3998;
2350468639104;-9.4071;-0.4298;-2.1505;
2350478747125;-8.9518;-0.0706;-2.8884;
2350488862802;-9.7591;-0.9592;-4.5604;
2350498970875;-10.8156;-0.6072;-3.5614;
2350509078948;-9.5243;-0.0081;-1.3648;
2350519184573;-9.7496;-0.2716;-1.5637;
2350529292646;-7.8404;-0.3266;-3.4107;
2350539400667;-7.0164;-0.3314;-4.9436;
2350549494573;-8.9662;-0.9233;-5.1640;
2350559602646;-11.0240;-1.3615;-4.0119;
2350569710667;-11.2923;-0.5925;-2.7230;
2350579827125;-9.9365;0.8231;-0.2892;
2350589935094;-6.9661;1.0002;0.6138;
2350600043010;-7.2846;-1.7330;-5.5137;
2350610162594;-10.4611;-2.3079;-10.6714;
2350620270562;-10.2431;-0.8946;-6.0984;
2350630378479;-8.4105;0.3153;1.1650;
2350640464469;-8.9830;0.4950;0.4104;
2350650572437;-10.7677;-1.0908;-4.3232;
2350660680354;-10.2957;-1.0549;-3.8776;
2350670796031;-7.8619;-0.4442;-1.5374;
2350680904000;-8.5424;-0.6526;-2.4117;
2350691011917;-10.6528;-0.2764;-4.1387;
2350701118844;-8.5448;-0.4298;-2.2271;
2350711226812;-9.4837;-1.0884;-3.3194;
2350721334729;-10.9953;-0.3051;-4.3998;
2350731441448;-8.3626;-0.0296;-0.3108;
2350741549417;-8.8705;0.0278;-1.3002;
2350751657333;-9.9532;-0.2357;-3.5638;
2350761768792;-7.3974;-0.3580;-4.3184;
2350771876760;-8.4057;-0.3652;-4.7231;
2350781984677;-9.4167;-0.1496;-4.0334;
2350792086969;-8.8585;-1.0190;-2.5528;
2350802194937;-8.8418;-0.2979;-2.7805;
2350812302854;-8.2693;0.3846;-4.5317;
2350822416448;-11.0934;0.0661;-4.8933;
2350832524417;-11.8050;-0.2046;-2.0812;
2350842632333;-9.2755;0.0637;-0.3179;
2350852752125;-9.0048;-0.2620;-1.4055;
2350862860094;-8.3913;-1.0262;-3.0488;
2350872968010;-8.8992;-0.4729;-3.7292;
2350883074208;-10.3292;-0.6048;-3.9206;
2350893182177;-12.3296;-1.0717;-2.3327;
2350903290094;-12.2650;-0.0873;-0.0688;
2350913391656;-7.8595;-0.1184;-0.6700;
2350923499625;-8.1278;-0.8201;-4.3735;
2350933607542;-10.3654;-1.3376;-3.7699;
2350943715458;-8.7485;-0.8755;-2.3495;
2350953823427;-8.1517;0.4110;-2.8980;
2350963931344;-8.4464;0.7008;-4.7521;
2350974040823;-9.9532;0.3440;-5.4873;
2350984148792;-9.8240;0.4253;-3.6117;
2350994256708;-8.5615;0.0374;-2.6632;
2351004355614;-8.6716;-0.1591;-3.2070;
2351014463583;-10.3391;-0.6814;-4.0262;
2351024571500;-9.7448;-0.8249;-3.2381;
2351034669989;-9.4047;-0.3652;-3.4633;
2351044777958;-10.4898;-0.1902;-3.0942;
2351054885875;-9.7543;0.4711;-2.3085;
2351064995719;-9.4478;0.1307;-2.3109;
2351075103687;-9.0957;-0.6479;-3.6428;
2351085211604;-9.8336;-0.3963;-4.6250;
2351095321448;-10.1210;-0.3389;-3.6236;
2351105429417;-8.7341;0.2339;-2.8522;
2351115537333;-8.7147;-0.0511;-3.8034;
2351125660927;-10.2335;-0.4274;-4.2778;
2351135768896;-9.1173;0.1762;-2.4284;
2351145876812;-7.3899;0.4711;-1.4797;
2351155958948;-9.2321;0.0039;-3.2931;
2351166066917;-9.5414;-0.3915;-3.6933;
2351176174833;-9.5052;-0.7579;-3.5590;
2351186305302;-10.3125;-0.6215;-4.1746;
2351196413271;-10.1521;0.3703;-3.6404;
2351206521187;-9.7496;0.3870;-2.2295;
2351216617958;-8.3842;-0.5590;-2.4332;
2351226725927;-8.3865;-0.6550;-4.3328;
2351236833844;-10.1186;-0.8560;-4.5006;
2351246938114;-10.8108;0.3870;-2.6441;
2351257046083;-7.5266;0.2961;-1.3816;
2351267154000;-9.1029;-0.3963;-4.7402;
2351277286344;-10.7629;0.0517;-3.9254;
2351287394312;-9.6323;0.9906;-1.4629;
2351297502229;-8.6357;0.8590;-1.8942;
2351307600198;-8.6070;-0.1974;-2.7589;
2351317708114;-10.3846;-1.0765;-2.4715;
2351327816083;-10.4157;-0.6837;-2.2152;
2351337979833;-10.8395;-0.5303;-2.7039;
2351348087750;-10.1498;-0.6311;-2.7781;
2351358195667;-8.8274;-0.2309;-3.0057;
2351368224469;-7.4189;-1.4982;-3.6619;
2351378332437;-9.1101;-0.6933;-4.9388;
2351388440354;-10.3340;-0.1639;-4.1291;
2351398550094;-8.7939;-0.4059;-2.6393;
2351408658062;-7.3851;0.3870;-3.3745;
2351418765979;-9.4214;0.5166;-4.7809;
2351428897802;-10.9307;0.3894;-2.8259;
2351439005771;-8.2358;-0.2859;-1.5084;
2351449113687;-7.2033;-0.2166;-2.8717;
2351459229989;-8.7820;-0.8656;-3.2668;
2351469337958;-10.1378;-0.2070;-3.7125;
2351479445875;-9.3520;0.0254;-2.9243;
2351489560094;-11.1799;-0.1161;-4.0095;
2351499668062;-9.6371;0.0733;-2.8116;
2351509775979;-7.4692;-0.7436;-3.1831;
2351519871864;-10.1450;-0.5207;-3.7938;
2351529979833;-10.0346;-0.2644;-2.2247;
2351540087750;-9.6897;-0.2213;-1.4294;
2351550184781;-9.4502;-0.3314;-2.0812;
2351560292750;-9.3760;-0.5614;-3.5686;
2351570400667;-11.4864;-0.2620;-2.8813;
2351580511292;-8.3459;0.2267;-1.0869;
2351590619260;-6.3553;-0.5207;-3.1352;
2351600727177;-9.3951;-0.2094;-5.1855;
2351610851448;-11.0504;-0.0607;-2.5457;
2351620959364;-9.4358;0.3918;-2.1960;
2351631067333;-9.7807;0.4711;-3.4442;
2351641160042;-8.1159;0.0182;-3.1062;
2351651267958;-7.1698;-0.1448;-4.2060;
2351661375927;-9.3066;-0.0969;-5.1233;
2351671480927;-10.0370;-0.8321;-3.5949;
2351681588844;-9.2755;-0.1519;-3.2572;
2351691696812;-9.3209;-0.2524;-3.7747;
2351701799469;-10.2000;-0.8249;-2.9506;
2351711907385;-11.5989;-0.3314;-2.7470;
2351722015354;-9.7687;-0.9233;-1.2763;
2351732125458;-7.1626;-0.7125;-1.5470;
2351742233375;-8.2143;-0.7244;-3.6284;
2351752341344;-10.2814;-0.8345;-2.8427;
2351762450823;-9.9174;0.3392;-2.9315;
2351772558739;-10.2024;0.1738;-2.6512;
2351782666708;-8.2430;-0.5853;-3.3147;
2351792760979;-8.2717;-0.7412;-3.9449;
2351802868896;-9.6969;-0.4968;-3.6547;
2351812976864;-10.4420;-0.5518;-2.9315;
2351823104052;-9.2803;-0.6646;-2.0836;
2351833211969;-9.2297;-0.6718;-2.6824;
2351843319937;-10.0804;-0.6670;-3.7890;
2351853441448;-8.7867;-0.3266;-2.7278;
2351863549364;-7.1698;-0.0873;-2.7135;
2351873657333;-8.2382;-0.5327;-4.9005;
2351883747906;-9.5557;-0.8994;-4.8215;
2351893855875;-9.1962;0.4062;-2.5744;
2351903963792;-9.2850;-0.0464;-2.1625;
2351914072594;-9.1220;-0.1663;-2.0644;
2351924180562;-7.2248;-0.6335;-2.0740;
2351934288479;-9.2465;-0.7986;-4.7160;
2351944411135;-11.2684;-0.9473;-3.7842;
2351954519104;-9.0168;-0.8297;-1.0606;
2351964627021;-5.5935;-0.2931;-3.8297;
2351974721656;-8.2669;0.1283;-6.3643;
2351984829573;-8.7628;0.3870;-5.4323;
2351994937542;-5.4305;0.2148;-4.5556;
2352005027489;-17.9638;0.1499;-2.3901;
2352015135406;-28.2260;-1.0980;5.9414;
2352025243375;-9.0646;-2.0468;11.9303;
2352035361187;-1.5906;-1.5652;-0.0473;
2352045469156;-9.1651;-1.4384;-8.0937;
2352055577073;-8.8872;-1.2993;-1.5302;
2352065688844;-7.3397;0.2315;-3.7172;
2352075796760;-8.6644;2.2986;-7.0086;
2352085904729;-9.4765;1.8293;-7.0373;
2352096005823;-7.2200;1.0842;-6.1893;
2352106113739;-6.8557;0.5142;-6.0550;
2352116221656;-8.5232;-0.3027;-4.8670;
2352126344573;-8.4706;-0.0730;-1.5350;
2352136452489;-7.9555;-0.1208;-1.4916;
2352146560458;-10.1569;-0.7125;0.7816;
2352156674937;-7.7973;-1.3161;-1.9875;
2352166782854;-12.8782;-1.9340;-13.2272;
2352176890823;-17.7099;-0.5877;-12.9302;
2352186975198;-8.2669;-0.1591;0.5133;
2352197083167;-6.0006;0.8710;2.3889;
2352207191083;-8.8944;-0.8058;0.8390;
2352217363479;-10.9570;-0.5566;-0.9215;
2352227471396;-7.2129;1.8508;-0.4089;
2352237579312;-7.7518;1.2182;-4.2538;
2352247632125;-10.9331;1.4913;-5.4491;
2352257740042;-9.4621;0.6027;-2.9363;
2352267847958;-5.6007;0.1331;-1.5924;
2352277995198;-7.6056;-1.3161;-4.4094;
2352288103167;-9.3257;-0.5758;-5.1855;
2352298211083;-10.1521;0.1522;-5.0827;
2352308270719;-9.5988;-0.2596;-3.2213;
2352318378635;-7.6609;-0.6383;-3.4657;
2352328486604;-7.5936;-0.6790;-4.6513;
2352338619573;-10.9044;-1.3496;-5.1568;
2352348727489;-11.8552;-0.5207;-0.8450;
2352358835458;-9.7208;-0.6120;-0.1190;
2352368949573;-10.2766;-0.2477;-0.3156;
2352379057489;-11.4625;0.1020;-0.5862;
2352389165458;-8.1517;0.5596;0.6882;
2352399270614;-8.3100;-0.3700;-1.3528;
2352409378531;-11.8241;-0.4585;-3.0224;
2352419486500;-9.5797;0.7657;-2.7398;
2352429587958;-9.8839;0.1499;-2.9435;
2352439695927;-7.7447;0.6170;-2.1027;
2352449803844;-6.6619;-0.7651;-4.6609;
2352459901292;-9.0072;-0.8898;-6.3500;
2352470009208;-9.0431;-0.4155;-3.9927;
2352480117177;-7.6128;-0.4513;-2.8092;
2352490217125;-9.0885;0.0709;-4.2084;
2352500325042;-12.3990;-0.5997;-5.1305;
2352510433010;-13.0364;0.0852;-2.2080;
2352520553948;-9.6084;0.3392;1.4692;
2352530661864;-9.9867;-1.3543;0.3673;
2352540769833;-10.4946;-1.1028;-1.1874;
2352550871448;-10.5425;-1.0621;-3.7029;
2352560979364;-8.9064;0.3775;-4.3902;
2352571087333;-6.8103;0.7585;-3.0296;
2352581169000;-8.1230;-0.5016;-4.8526;
2352591276969;-9.7304;-0.8154;-4.8048;
2352601384885;-8.8537;0.4086;-2.7350;
2352611530510;-8.5232;-0.5686;-1.6546;
2352621638427;-10.7557;-0.9138;-2.5720;
2352631746396;-11.9680;-0.5949;-1.8200;
2352641837594;-8.3148;0.6314;-0.7564;
2352651945510;-8.9734;-0.9042;-1.4749;
2352662053479;-9.7687;-2.1209;-6.3162;
2352672166031;-9.3281;-1.0430;-7.0205;
2352682273948;-8.1159;0.7223;-3.9808;
2352692381917;-6.1301;1.0771;-3.1831;
2352702501344;-9.0550;-1.1076;-3.2620;
2352712609260;-11.5152;-0.4729;-2.8427;
2352722717229;-9.3520;0.0087;-0.0903;
2352732820719;-8.8226;-0.6502;0.1588;
2352742928635;-11.4553;-1.4312;-2.3782;
2352753036604;-10.1641;0.2889;-3.1759;
2352763142698;-7.3804;-0.0081;-2.6776;
2352773250614;-7.2105;-0.4633;-5.3964;
2352783358583;-7.8141;-1.1390;-6.5773;
2352793464677;-7.9627;-1.2873;-6.2228;
2352803572594;-8.6716;-0.5327;-4.5269;
2352813680562;-10.1545;0.6290;-1.9756;
2352823787698;-15.9661;3.0102;1.0211;
2352833895614;-13.0412;2.3827;4.3750;
2352844003583;-7.9555;2.1287;3.0838;
2352854102906;-7.2559;0.2411;-3.1014;
2352864210823;-9.4478;-1.3448;-9.5839;
2352874318792;-8.3530;0.0278;-9.7226;
2352884440875;-7.0140;3.5731;-4.7016;
2352894548792;-8.8011;2.5693;-1.4198;
2352904656760;-11.5534;1.3789;-1.0487;
2352914809312;-11.8241;1.3023;1.2296;
2352924917177;-10.3582;2.3225;1.9026;
2352935025146;-7.6223;1.2760;1.4381;
2352945088635;-7.6463;-0.7555;-3.0751;
2352955196552;-5.1766;-2.7535;-5.7485;
2352965304521;-6.3960;-4.3247;-12.4152;
2352975421292;-12.1905;-7.3528;-11.0234;
2352985529156;-7.9771;-3.3141;-4.3328;
2352995637125;-7.9002;1.4411;2.4033;
2353005729677;-13.0220;2.4114;3.8336;
2353015837594;-12.8830;1.7812;1.8691;
2353025945562;-9.0096;0.0972;-1.0367;
2353036070302;-9.1268;-2.5331;-4.2873;
2353046178271;-10.6624;-3.2731;-7.3463;
2353056286187;-7.2200;-1.6537;-4.8335;
2353066378323;-6.1636;-0.4920;-3.3434;
2353076486239;-10.7198;-2.2863;-3.9302;
2353086594208;-12.1187;-1.3567;-1.7886;
2353096694260;-7.8069;1.2374;2.2502;
2353106802177;-8.6548;0.1187;-0.5695;
2353116910146;-12.6075;-1.0908;-4.8981;
2353127015198;-9.7711;-0.3796;-4.4477;
2353137123114;-4.6184;0.5883;-2.2295;
2353147231083;-6.9182;-1.1964;-4.7689;
2353157376135;-10.4707;-1.6609;-6.8312;
2353167484104;-11.8672;1.7716;-3.8824;
2353177592021;-8.3435;2.5717;0.4271;
2353187665614;-9.3975;2.2507;-0.1693;
2353197773531;-11.4099;0.0805;-2.3228;
2353207881500;-9.1268;-0.8034;-2.0091;
2353217994104;-6.4295;-0.5423;-3.4513;
2353228102021;-9.8216;-1.7641;-5.8732;
2353238209989;-12.7415;-0.6191;-6.0191;
2353248306344;-8.4488;1.6017;0.4080;
2353258414260;-7.5817;1.8126;0.8462;
2353268522229;-12.5812;-0.7196;-1.4390;
2353278635719;-12.9835;-0.6550;-1.9062;
2353288743635;-8.4849;1.0819;0.4223;
2353298851604;-4.5873;0.7271;-0.3443;
2353308958010;-8.6548;-1.5197;-6.4074;
2353319065927;-11.8887;-2.6336;-8.6734;
2353329173844;-7.7853;-1.3137;-4.3878;
2353339308323;-5.7730;-0.1807;-1.4892;
2353349416292;-10.8299;-0.9425;-2.2463;
2353359524208;-12.9260;0.3105;-2.4380;
2353369621760;-9.3185;1.1584;0.3649;
2353379729677;-9.1675;-0.6574;-1.3241;
2353389837646;-11.0575;-1.6274;-3.8776;
2353399939260;-10.4181;0.0900;-3.9664;
2353410047177;-7.3134;0.6458;-3.2955;
2353420155146;-6.0775;-0.7627;-3.7125;
2353430260614;-8.4200;-3.0458;-5.8469;
2353440368531;-10.1856;-3.5103;-4.7593;
2353450476500;-9.0072;-0.9664;-0.8139;
2353460586031;-9.6275;1.1417;-0.7445;
2353470693948;-12.5788;0.8399;-1.8870;
2353480801917;-11.6420;-0.5853;-1.4174;
2353490915719;-7.1339;-0.1926;-1.1420;
2353501023687;-8.8968;-1.6107;-3.1181;
2353511131604;-11.2110;-0.4035;-5.5666;
2353521245927;-9.5291;1.3167;-4.6968;
2353531353844;-6.5133;0.6242;-2.3973;
2353541461812;-7.2272;-0.5136;-3.6500;
2353551561552;-11.0958;-0.2716;-4.2371;
2353561669469;-10.0609;1.6854;-0.4137;
2353571777437;-8.5017;1.0149;0.6284;
2353581893375;-10.8203;-0.3772;-3.2548;
2353592001604;-11.0169;-0.8010;-4.6992;
2353602109833;-7.5601;0.1475;-2.9483;
2353612216604;-7.4261;0.2387;-3.0799;
2353622324833;-9.8169;0.0135;-4.8526;
2353632433062;-10.0995;0.3942;-4.7928;
2353642536500;-9.1986;0.5094;-2.6225;
2353652644729;-8.3076;0.7537;-1.0654;
2353662752958;-9.4765;-0.4466;-2.4619;
2353672857958;-10.6887;-0.7292;-1.9899;
2353682966187;-8.2382;-0.1472;-0.7828;
2353693074417;-8.8992;-1.5173;-4.0167;
2353703177958;-11.3378;-0.2812;-5.1544;
2353713286187;-9.6227;0.4421;-3.4250;
2353723394417;-9.6443;-0.5303;-2.1745;
2353733511604;-9.9724;-1.5389;-0.7684;
2353743619833;-11.0456;-0.3461;-0.7971;
2353753728062;-10.3965;0.3918;-1.5829;
2353763827437;-6.7146;0.1331;-1.4749;
2353773935667;-7.1121;-0.9736;-3.8632;
2353784043896;-9.9915;-1.4121;-6.6733;
2353794144573;-8.6429;0.2722;-4.6298;
2353804252854;-7.0307;0.4062;-3.0416;
2353814361083;-9.4095;-0.8584;-4.1100;
2353824469573;-11.3545;-0.0081;-3.3218;
2353834577802;-8.9614;0.3966;-0.2677;
2353844686083;-9.4884;0.0230;-0.1190;
2353854823844;-11.7715;-0.2931;-2.6010;
2353864932073;-11.6252;-1.0406;-4.0071;
2353875040302;-7.1192;-0.1615;-2.2941;
2353885128687;-7.1961;-0.5806;-3.2261;
2353895236917;-10.0155;-0.2931;-5.0034;
2353905345146;-8.5041;0.4831;-2.7757;
2353915438167;-7.9436;0.4038;-1.7456;
2353925546396;-10.8299;-0.9162;-3.8249;
2353935654625;-12.6410;-0.2548;-2.8522;
2353945771292;-9.3784;0.6505;0.7193;
2353955879521;-7.7710;1.2685;-0.2103;
2353965987750;-11.9031;-1.8861;-2.7422;
2353976078792;-9.8049;-1.3137;-5.9689;
2353986187073;-6.1349;-0.7938;-3.9302;
2353996295302;-7.0116;0.3200;-4.4910;
2354006426396;-10.0035;-0.1424;-5.8684;
2354016534625;-10.0202;0.4950;-2.9937;
2354026642854;-7.6920;0.4950;-0.0879;
2354036756396;-10.1904;-0.7196;-1.7216;
2354046864625;-11.5223;-0.9927;-2.7087;
2354056972854;-8.7341;0.2363;-1.6690;
2354067058583;-8.4177;-0.1208;-2.4691;
2354077166760;-11.2995;-1.3615;-4.2658;
2354087275042;-11.3856;-0.0153;-4.8239;
2354097381396;-9.1460;0.2985;-1.4892;
2354107489573;-5.2436;0.0900;-1.3122;
2354117597854;-6.9398;-0.9138;-3.7627;
2354127685927;-10.1043;-1.0789;-5.1473;
2354137794208;-10.7581;0.6960;-2.6800;
2354147902437;-10.4037;0.8112;-1.0917;
2354158030354;-9.4525;-1.0454;-1.2138;
2354168138583;-9.2970;-1.1004;-1.6259;
2354178246812;-9.6921;-1.2347;-2.2917;
2354188389312;-9.7735;-0.2907;-2.4763;
2354198497542;-10.0780;0.0613;-3.3171;
2354208605771;-8.9662;0.1140;-3.0224;
2354218674625;-8.7700;0.0039;-3.1759;
2354228782906;-9.9221;-0.1902;-3.6814;
2354238891135;-9.2632;0.0446;-1.5156;
2354249025562;-6.5204;0.5907;0.0918;
2354259133792;-8.2813;-0.7149;-3.2644;
2354269242021;-10.9140;-0.2931;-5.9354;
2354279338687;-10.2957;-0.3266;-3.0535;
2354289446917;-8.8872;0.8160;-1.8153;
2354299555146;-10.1521;-0.3170;-1.1587;
2354309648323;-10.1019;-0.9927;-2.3013;
2354319756604;-8.7604;-0.5160;-1.5132;
2354329864833;-8.9351;-0.8106;-2.3542;
2354339970614;-9.1460;-0.8058;-4.3663;
2354350078896;-8.9064;-1.3472;-4.6250;
2354360187125;-8.4057;-0.9616;-3.2620;
2354370308792;-8.7461;-0.7579;-3.0511;
2354380417021;-9.3712;-0.2668;-2.5600;
2354390525250;-10.4611;-0.5471;-0.9383;
2354400637542;-10.3005;-1.2299;-0.6939;
2354410745771;-10.3415;-0.9138;-1.5900;
2354420854000;-9.0072;-1.3208;-3.0870;
2354430947489;-9.0503;-1.0741;-2.6465;
2354441055771;-9.6299;-1.4838;-3.0631;
2354451164000;-9.2683;-1.6732;-3.5662;
2354461277958;-8.9231;-0.4394;-3.0751;
2354471386187;-8.2310;-0.5016;-3.4011;
2354481494417;-9.8432;-0.2070;-3.9879;
2354491600562;-11.6707;-0.1639;-2.0617;
2354501708792;-8.1805;0.5477;-1.1874;
2354511817021;-7.2081;-1.4647;-2.5528;
2354521929417;-10.7510;-0.3843;-4.3328;
2354532037646;-9.9676;-0.2405;-3.9592;
2354542145875;-8.4778;0.2506;-2.7494;
2354552245354;-9.5510;-0.7101;-3.3242;
2354562353583;-9.6180;-0.8779;-4.2179;
2354572461812;-9.5629;-0.4418;-3.4753;
2354582575875;-11.2229;-0.6790;-2.8693;
2354592683844;-11.9824;0.0326;-1.6762;
2354602791864;-9.0885;0.5859;0.7026;
2354612909573;-7.5506;0.0852;-0.4834;
2354623017542;-11.3641;-0.8321;-3.3553;
2354633125562;-10.8180;-0.1352;-3.5638;
2354643239364;-9.6969;0.9284;-2.0788;
2354653347385;-9.0455;1.1536;-1.3887;
2354663455354;-9.2803;-0.2524;-3.1902;
2354673544885;-9.6467;0.1929;-4.1435;
2354683652854;-9.1866;-0.1807;-3.9688;
2354693760875;-7.5984;0.2650;-4.6753;
2354703864781;-8.9016;-0.8058;-4.4524;
2354713972750;-9.6826;0.2291;-3.9182;
2354724080771;-12.1714;0.0565;-3.8106;
2354734192489;-12.3153;-0.1280;-0.9191;
2354744300458;-9.8886;0.1211;0.1612;
2354754408479;-11.5319;-0.4322;-0.0114;
2354764513323;-10.1641;-1.4192;-1.1539;
2354774621292;-8.2645;-1.6059;-3.5830;
2354784729260;-8.8202;0.0374;-4.1674;
2354794834260;-9.0311;0.8255;-4.8981;
2354804942229;-9.5486;1.1824;-5.0133;
2354815050198;-8.5902;0.0039;-2.0498;
2354825159208;-8.7437;0.9643;-1.8631;
2354835267177;-10.9164;0.3942;-2.1888;
2354845375198;-7.8787;-1.4264;-2.9387;
2354855483062;-8.7147;-0.8731;-4.7064;
2354865591031;-10.0466;-0.2524;-5.3677;
2354875699052;-8.9495;0.0398;-5.1497;
2354885819677;-11.2564;-0.3891;-4.7737;
2354895927646;-11.8816;-0.1950;-2.1123;
2354906035667;-9.0503;-0.6909;-0.6317;
2354916124156;-7.9771;0.0278;-0.0281;
2354926232177;-7.3950;0.0517;-0.7253;
2354936340146;-11.2038;0.6840;-2.2343;
2354946467385;-10.3029;0.9571;-2.5720;
2354956575354;-6.7792;0.7271;-3.0224;
2354966683375;-7.7590;0.2985;-4.4910;
2354976802489;-11.2732;0.3607;-5.0324;
2354986910458;-10.0250;-0.3218;-3.3840;
2354997018479;-7.2990;-0.4155;-2.3638;
2355007108219;-6.7098;-0.5064;-4.4958;
2355017216239;-8.6166;-0.5566;-6.5007;
2355027324208;-8.4945;-0.0706;-4.4118;
2355037430979;-7.7758;0.0039;-2.3590;
2355047538948;-5.3300;0.0733;-2.1745;
2355057646917;-4.6304;-0.7053;-3.7962;
2355067761864;-7.7542;0.5357;-5.6886;
2355077869885;-9.6395;0.1403;-3.8249;
2355087977854;-26.7912;-0.4753;0.0894;
2355098066969;-32.2361;-1.3017;10.0570;
2355108174989;-3.6314;-3.4217;9.0485;
2355118282958;4.1707;-3.7140;1.0379;
2355128403531;-10.6911;-2.5211;-0.1717;
2355138511500;-14.3611;1.0268;-5.2310;
2355148619521;-8.2813;2.1000;-3.2381;
2355158737906;-3.5118;2.7682;-3.8632;
2355168845875;-7.3756;0.6745;-5.3773;
2355178953844;-11.4912;0.7199;-4.0956;
2355189066344;-8.1326;0.7056;-1.2906;
2355199174312;-3.5931;-0.9903;-3.2166;
2355209282333;-4.4773;-3.0000;-13.6394;
2355219411864;-17.3291;-3.9464;-24.9341;
2355229519885;-19.8658;-1.5915;-10.6403;
2355239627854;-6.8198;0.5620;10.1073;
2355249703114;-5.0282;1.4148;8.4473;
2355259811083;-7.7112;-0.8273;2.7458;
2355269919104;-11.5176;-2.7440;2.9806;
2355280031239;-11.4529;0.0613;2.2502;
2355290139208;-8.6189;1.8173;-1.5972;
2355300247229;-9.8934;0.8303;-5.8923;
2355310339885;-9.2369;0.2219;-5.3486;
2355320447854;-6.7313;1.0914;-4.9627;
2355330555875;-7.9699;0.8495;-6.9224;
2355340674156;-10.4013;-0.2261;-3.7507;
2355350782177;-11.4984;0.3990;-1.3217;
2355360890146;-9.2779;-0.2022;-0.0592;
2355370992802;-7.8356;-0.7101;-1.7169;
2355381100771;-9.6227;-1.6035;-2.9339;
2355391208792;-9.0503;-1.1363;-2.3447;
2355401323948;-8.0010;-0.5758;-2.3447;
2355411431969;-9.1053;-0.9688;-3.0081;
2355421539937;-9.5677;-1.0741;-3.8417;
2355431643948;-9.8097;-0.2524;-3.2931;
2355441751917;-8.0847;0.2889;-1.1946;
2355451859937;-9.5629;0.3751;-1.4103;
2355461971552;-9.9485;-0.2788;-1.9588;
2355472079521;-9.1268;0.1259;-3.0129;
2355482187542;-10.6265;-0.3314;-3.8106;
2355492295510;-10.6863;-0.6694;-2.6201;
2355502403479;-9.2369;-0.6550;-1.6283;
2355512511500;-10.8658;-1.2969;-2.1840;
2355522628323;-10.7438;-0.8731;-1.1874;
2355532736292;-8.3004;-0.9209;-1.3720;
2355542844260;-11.5367;0.0111;-2.4260;
2355552937906;-11.3809;0.0470;-0.1214;
2355563045875;-7.1722;0.0278;0.2761;
2355573153896;-3.2219;0.0470;-2.2726;
2355583271135;-8.5256;0.2028;-7.9765;
2355593379156;-11.9608;0.1690;-6.3739;
2355603487177;-9.5653;0.3344;-3.0344;
2355613599729;-8.6477;-1.3376;-2.6417;
2355623707750;-10.0995;-1.0310;-3.8800;
2355633815771;-9.0024;-1.4192;-3.0464;
2355643914156;-11.0910;-0.9257;-2.4236;
2355654022177;-12.0326;0.0781;0.9733;
2355664130198;-9.3640;0.2267;0.4798;
2355674237073;-7.6439;-0.5973;-1.4294;
2355684345094;-10.2598;0.4854;-3.6212;
2355694453114;-10.5042;0.4469;-0.5647;
2355704562281;-7.0570;0.6338;0.3407;
2355714670354;-8.3889;-0.3843;-3.8058;
2355724778323;-9.8240;-0.5566;-5.4586;
2355734883531;-9.5797;-0.5853;-4.0932;
2355744991552;-9.1914;-1.0549;-4.3041;
2355755099573;-10.3005;-0.8321;-3.1711;
2355765211239;-9.5533;-0.5542;-0.7804;
2355775319312;-7.4285;-1.1797;-1.6427;
2355785427281;-10.4827;-1.2802;-4.0334;
2355795516135;-11.0408;-0.7842;-2.5098;
2355805624156;-8.7027;-1.0358;-1.0654;
2355815732177;-9.6706;-1.5485;-1.7815;
2355825850042;-7.8978;-1.7761;-1.3457;
2355835958062;-8.6333;-1.2227;-3.0464;
2355846066083;-11.6444;-0.5136;-4.0238;
2355856189469;-11.8361;-0.4011;-1.9612;
2355866297489;-7.5242;0.4564;-0.9574;
2355876405510;-7.6176;-0.3772;-2.0378;
2355886496708;-10.3582;-0.5303;-3.4035;
2355896604729;-10.8924;-0.4466;-3.4753;
2355906712750;-7.6633;-0.1280;-2.7565;
2355916862958;-8.2095;-1.1076;-3.9473;
2355926970979;-8.6644;-0.4155;-4.4839;
2355937078948;-8.1087;-0.8489;-3.7579;
2355947141604;-11.7117;0.1690;-3.3984;
2355957249625;-11.8337;-0.1591;0.1851;
2355967357594;-9.4597;-0.3075;-0.1573;
2355977478427;-7.5864;-0.6814;-1.6786;
2355987586448;-8.3578;-0.1472;-2.5887;
2355997694469;-9.7089;0.4110;-4.0525;
2356007803531;-9.3473;0.5979;-4.1100;
2356017911604;-8.7604;0.1164;-3.9832;
2356028019573;-8.9662;-0.1232;-2.9052;
2356038116031;-9.5390;-0.2046;-1.9828;
2356048224104;-10.2144;-0.3652;-1.1611;
2356058332073;-10.7797;-0.3772;-0.7469;
2356068447594;-9.6467;0.3009;-1.2449;
2356078555614;-8.2167;-1.1315;-2.7015;
2356088663635;-8.5567;0.3823;-4.3926;
2356098757594;-10.0633;0.5907;-3.7723;
2356108865667;-8.8394;0.7394;-2.8283;
2356118973635;-9.0383;0.0015;-2.6034;
2356129111864;-10.5281;-0.7196;-2.3734;
2356139219885;-9.3209;-1.0071;-0.8545;
2356149327906;-9.4502;-0.8369;-2.2271;
2356159420302;-10.6672;-0.5830;-2.6465;
2356169528323;-10.3606;0.3416;-1.9158;
2356179636344;-7.6511;-0.9449;-2.0306;
2356189737385;-8.0513;-0.1687;-3.7388;
2356199845406;-11.0647;0.4660;-4.9795;
2356209953427;-9.1627;0.2578;-1.9349;
2356220066239;-7.8978;-0.0873;-1.8511;
2356230174260;-9.5892;-0.8010;-3.0559;
2356240282281;-9.4095;-0.3389;-2.8860;
2356250384156;-9.1747;-0.5614;-3.5495;
2356260492177;-10.6170;-0.1519;-3.9377;
2356270600198;-9.5315;0.4588;-2.4069;
2356280714885;-8.6501;-0.4585;-0.7612;
2356290822906;-9.2513;0.2698;-2.6824;
2356300930927;-11.0958;0.1570;-2.7087;
2356311046031;-9.5629;0.8877;-1.4940;
2356321154052;-9.6682;-0.0176;-1.5374;
2356331262073;-8.4392;-0.1184;-2.5600;
2356341368114;-8.1805;-0.4801;-2.5504;
2356351476135;-8.6740;-0.3338;-4.1650;
2356361584156;-12.6529;0.2363;-3.7149;
2356371703323;-10.7175;0.2674;0.3505;
2356381811344;-6.3120;0.6003;0.5324;
2356391919364;-9.0861;-0.1998;-3.3027;
2356402008948;-12.8925;-0.0105;-4.5508;
2356412116969;-9.1412;-0.2955;-0.7995;
2356422224989;-6.2569;-0.2883;-2.5600;
2356432329364;-8.3052;-0.8058;-4.7761;
2356442437437;-9.8934;-0.6670;-4.2897;
2356452545406;-10.8419;-0.2740;-2.5481;
2356462656552;-14.1479;0.0326;-0.2246;
2356472764573;-8.9207;-0.1591;1.5410;
2356482872594;-5.1431;-0.2022;-0.5767;
2356492977542;-9.9532;-0.1759;-5.2478;
2356503085562;-10.1856;-0.5925;-3.9520;
2356513193583;-9.1220;0.7490;-2.9578;
2356523320719;-11.0408;-0.6742;-3.6117;
2356533428739;-11.4075;-1.0023;-2.4523;
2356543536760;-8.7003;-1.2658;0.8103;
2356553632281;-7.8906;-1.1390;-1.3983;
2356563740302;-10.8538;-0.3365;-3.2046;
2356573848323;-12.0087;0.1259;-1.3504;
2356583956656;-9.2922;-0.2979;-1.6618;
2356594064625;-9.9317;-0.2644;-3.1448;
2356604172594;-8.3219;-0.5207;-3.2333;
2356614287281;-9.6945;-0.1137;-2.3782;
2356624395250;-14.4975;-0.8512;-1.5541;
2356634503219;-8.7027;-1.7569;-0.2318;
2356644597385;-3.8949;-0.9162;-2.3877;
2356654705354;-6.9182;-0.5853;-7.6576;
2356664813323;-15.0365;-0.0057;-6.9200;
2356674895510;-11.4000;-0.5495;-0.0449;
2356685003479;-4.1082;-0.4872;0.5252;
2356695111448;-8.5759;-0.3580;-5.9737;
2356705256448;-14.3970;-0.6024;-5.9019;
2356715364417;-10.4755;-0.2668;-0.3873;
2356725472385;-7.3277;-0.7819;0.8270;
2356735569625;-5.0521;-1.1844;-3.6885;
2356745677594;-11.0910;-0.3338;-7.0301;
2356755785562;-15.3766;-0.2477;-3.8608;
2356765893844;-12.6027;0.4158;1.9627;
2356776001812;-5.3324;-0.4442;3.2321;
2356786109781;-4.8221;-0.8441;-2.8522;
2356796215094;-12.1140;0.2363;-6.4050;
2356806323062;-12.0398;-0.0344;-2.6393;
2356816431031;-7.2727;0.2028;-1.6235;
2356826532281;-6.7361;-0.5566;-4.5461;
2356836640250;-7.4859;-1.6107;-6.1223;
2356846748219;-10.6361;-0.2644;-4.4429;
2356856881656;-11.9342;-0.9520;-1.3409;
2356866989625;-12.9236;-0.4490;-1.0558;
2356877097594;-13.7955;-1.1243;0.6428;
2356887208687;-9.6419;-0.5040;1.5936;
2356897316604;-8.4248;-0.3365;-1.2739;
2356907424573;-8.0417;0.3607;-2.5720;
2356917511031;-9.5100;0.1379;-2.2774;
2356927619000;-12.4349;-0.6120;-2.7924;
2356937726917;-6.5779;-0.7460;-2.0955;
2356947851344;-5.2484;-0.4801;-3.6885;
2356957959312;-10.9187;-0.0897;-5.3390;
2356968067281;-11.3282;-0.5279;-2.9937;
2356978141604;-6.9422;-1.1701;-2.3758;
2356988249573;-7.3325;-0.2429;-5.7509;
2356998357542;-11.3019;-0.8489;-8.8388;
2357008513479;-12.7968;-0.3003;-4.6346;
2357018621396;-9.4430;-0.9401;1.8978;
2357028729364;-6.8462;-0.7986;1.7399;
2357038814573;-6.5707;-0.9425;-1.0056;
2357048922542;-8.7604;-0.2429;-2.9172;
2357059030510;-13.0460;0.5453;-2.3997;
2357069134625;-11.2588;0.5022;-0.0401;
2357079242594;-5.8164;0.4636;-0.9479;
2357089350562;-9.1316;0.4397;-4.7402;
2357099458062;-12.4540;-0.7675;-3.5088;
2357109565927;-7.5314;-0.2022;-2.2271;
2357119673896;-5.6677;-0.2429;-3.4226;
2357129781864;-8.3507;-0.7220;-5.2525;
2357139889573;-12.4373;-1.2491;-2.7278;
2357149997542;-11.2205;-0.8608;-0.0688;
2357160105510;-11.1942;-0.5925;0.2498;
2357170226552;-10.4324;-0.6455;1.2799;
2357180334521;-6.6069;-0.3652;-0.0185;
2357190442489;-9.0814;-0.6096;-3.4872;
2357200547542;-10.4109;0.8447;-3.5303;
2357210655510;-9.0574;-0.3700;-3.5040;
2357220763479;-11.6758;0.3081;-4.6729;
2357230859469;-7.3469;-0.4777;-0.3036;
2357240967437;-5.6821;-0.5542;-0.6772;
2357251075406;-10.0681;-0.4131;-4.1746;
2357261190042;-13.3932;-0.1783;-4.9723;
2357271298010;-11.0192;-0.8994;-2.2917;
2357281405979;-5.6629;0.5357;-0.8952;
2357291510719;-10.6409;-0.6622;-4.6394;
2357301618687;-12.2291;0.1905;-2.4093;
2357311726656;-8.4033;0.1427;1.3612;
2357321834781;-7.9170;-0.3365;-1.5781;
2357331942750;-9.4621;-0.1687;-3.9015;
2357342050667;-10.3917;-0.7077;-1.9253;
2357352156448;-9.0479;0.1427;-0.6556;
2357362264417;-7.7853;0.7104;-3.7555;
2357372372385;-8.6740;0.0589;-5.2119;
2357382479989;-8.6692;0.6912;-3.6404;
2357392587958;-9.6347;0.1259;-3.5064;
2357402695927;-9.4502;-0.0921;-2.7541;
2357412807594;-9.9748;-0.3413;-2.9291;
2357422915562;-9.8815;-0.0607;-1.8799;
2357433023531;-9.6826;-1.1677;-0.9120;
2357443134573;-9.8719;-0.6407;-1.1827;
2357453242542;-10.9211;-0.2046;-0.8306;
2357463350510;-9.9604;-0.8010;-2.5576;
2357473458323;-8.9160;0.2001;-1.4151;
2357483566292;-6.4295;0.8399;0.1134;
2357493674260;-8.8083;0.0350;-3.3769;
2357503783948;-10.3125;0.2195;-4.6442;
2357513891917;-9.1699;-0.3290;-3.2812;
2357523999885;-7.9986;-0.3843;-3.8847;
2357534110719;-8.8298;-1.1653;-4.2060;
2357544218687;-11.0288;-1.7761;-3.6236;
2357554326656;-11.7284;-0.5566;-1.5781;
2357564440458;-9.3257;-1.0813;-2.1362;
2357574548427;-7.7351;-1.1171;-2.2104;
2357584656396;-9.0814;-0.0344;-1.6044;
2357594821656;-8.6381;-0.5662;-1.0726;
2357604930146;-9.2273;0.0541;-1.9851;
2357615038687;-11.5391;-0.5040;-2.1864;
2357625080094;-11.0862;-1.0119;-1.5589;
2357635188635;-7.8667;-1.4022;-1.8440;
2357645297073;-9.2731;-1.3950;-2.5193;
2357655403948;-10.5018;-1.1124;-3.0272;
2357665512437;-8.9447;-1.5891;-4.4644;
2357675620979;-9.0239;-0.2500;-3.8369;
2357685721604;-11.0145;-0.7412;-2.1075;
2357695830042;-8.2047;-1.1533;-1.1180;
2357705938583;-8.6907;-0.4513;-1.8320;
2357716050406;-11.5678;-1.1725;-1.6044;
2357726158896;-8.8513;-1.1701;-0.9407;
2357736267437;-7.3828;-1.3759;-3.1038;
2357746366917;-10.4109;-1.4384;-5.1377;
2357756475406;-12.8614;-0.5327;-3.0296;
2357766583896;-8.5208;-0.8922;-1.9684;
2357776717229;-8.9710;0.0206;-2.4978;
2357786825667;-10.4013;-0.5758;-0.9120;
2357796934260;-8.8825;-0.5758;-0.9479;
2357807008635;-7.7734;0.0972;-3.4202;
2357817117073;-10.5951;-0.0511;-4.2060;
2357827225614;-8.0082;-0.1687;-2.2630;
2357837388739;-8.2956;-0.7316;-3.1926;
2357847497229;-13.0098;-0.6096;-2.9602;
2357857605771;-10.7294;0.0039;-0.5767;
2357867643896;-6.2450;-0.8297;-2.9004;
2357877752385;-9.1053;0.9643;-4.0071;
2357887860875;-8.8394;0.4134;-1.9445;
2357897984417;-7.8308;-0.0153;-3.0296;
2357908092906;-9.1149;0.5261;-4.5413;
2357918201448;-12.0230;0.6458;-3.2166;
2357928292333;-11.6013;-0.2907;0.1899;
2357938400823;-10.3822;-0.5686;0.4175;
2357948509364;-5.3946;-0.8874;-0.6293;
2357958639052;-10.7845;1.0603;-3.5997;
2357968747594;-12.1092;-0.0344;-4.3639;
2357978856083;-10.1210;0.3966;-1.9469;
2357988969208;-7.4309;0.9739;-1.0893;
2357999077750;-5.9432;0.2076;-3.0296;
2358009186239;-6.9733;0.8447;-4.8957;
2358019286135;-12.7343;1.2565;-3.3888;
2358029394625;-10.0514;0.6290;0.5611;
2358039503167;-6.8294;-1.7306;-3.3840;
2358049616864;-12.3631;0.0661;-5.9163;
2358059725406;-10.8084;-0.0682;-2.4404;
2358069833896;-9.7328;-0.1424;-1.3050;
2358079939625;-9.1173;0.0039;-1.7575;
2358090048114;-10.6337;-0.0296;-1.8535;
2358100156656;-9.0933;-0.1807;-1.0463;
2358110281239;-8.5208;0.1834;-0.8713;
2358120389729;-6.9063;-0.0730;-1.3816;
2358130498271;-7.1602;1.2951;-2.2798;
2358140592750;-9.7663;0.2435;-5.4299;
2358150701239;-13.5586;0.7418;-4.6035;
2358160809781;-10.5449;-0.0849;0.2665;
2358170919156;-3.0709;-0.1759;-3.6957;
2358181027646;-7.4237;-0.0631;-7.6457;
2358191136187;-11.2253;0.9835;-4.1578;
2358201244781;-11.4817;0.3823;-1.2425;
2358211353271;-11.2612;0.0805;-0.2342;
2358221461812;-10.5784;-0.4131;-0.1406;
2358231567177;-11.4625;-0.9018;1.3995;
2358241675667;-6.8728;-1.1892;1.5793;
2358251784208;-7.5458;0.1475;-1.8631;
2358261891552;-11.1847;0.0637;-4.2203;
2358272000042;-11.3569;0.4253;-3.4848;
2358282108583;-9.0766;0.8877;-2.9818;
2358292213635;-7.6534;0.4660;-3.4226;
2358302322125;-7.5338;-0.4107;-3.6332;
2358312430667;-9.2898;-0.3700;-3.7292;
2358322542073;-9.5195;-0.5782;-2.9100;
2358332650562;-7.0666;-1.1988;-3.1400;
2358342759104;-10.8203;-1.5102;-5.4251;
2358352870614;-14.5095;-0.6622;-3.4848;
2358362979104;-7.7423;-0.6407;2.9040;
2358373087646;-6.1612;0.2578;-0.1262;
2358383186448;-9.7854;-0.2477;-4.7016;
2358393294937;-12.0039;0.1977;-2.8020;
2358403403479;-9.9915;0.3440;-0.7516;
2358413516292;-11.1221;-0.3772;-1.8440;
2358423624781;-8.4583;-0.1831;-1.9277;
2358433733323;-9.4023;-0.4801;-1.5494;
2358443849312;-12.0900;-0.0993;-2.5528;
2358453957750;-10.6528;-0.1902;-1.4605;
2358464066292;-6.7313;-0.8177;-1.7360;
2358474157958;-7.6199;0.2674;-4.6107;
2358484266448;-9.1101;0.0972;-4.8048;
2358494374989;-10.3582;0.2985;-3.4490;
2358504482073;-7.9843;-0.0296;-0.9096;
2358514590614;-6.3072;0.1810;-4.4285;
2358524699104;-8.8466;0.1307;-6.1702;
2358534797802;-12.1020;-0.4848;-3.3194;
2358544906292;-11.4912;-1.1653;-0.7131;
2358555014833;-9.6682;-0.3796;-0.9383;
2358565122906;-10.6433;-0.7962;-2.0883;
2358575231396;-11.6396;-0.8369;-2.5122;
2358585339937;-10.5784;-0.5518;-0.1454;
2358595437125;-6.4989;-0.0945;1.4644;
2358605544625;-6.2210;0.3272;-2.1721;
2358615652073;-9.5438;0.0159;-5.3653;
2358625781396;-9.5291;-0.6144;-2.7326;
2358635888896;-10.1115;-0.8177;-1.9660;
2358645996344;-12.3105;-0.6144;-3.8943;
2358656094312;-8.5831;-1.2945;-1.9373;
2358666201812;-5.4473;-0.4298;-3.8082;
2358676309260;-7.7758;-0.8465;-6.4050;
2358686417854;-12.2937;-1.0549;-4.8096;
2358696525354;-12.8303;-0.4322;-0.9215;
2358706632802;-9.0574;-1.1438;2.5113;
2358716757489;-8.8729;-0.6144;0.8725;
2358726864989;-9.4358;-0.5375;-1.0558;
2358736972437;-9.8767;-0.4155;-0.6987;
2358747059677;-6.3625;-0.5471;-1.9158;
2358757167125;-4.3741;-0.2381;-6.8719;
2358767274625;-11.7117;0.3200;-9.4184;
2358777395667;-14.3611;0.2650;-3.3912;
2358787503167;-9.1531;0.1235;3.7543;
2358797610614;-6.9685;-0.5877;1.4668;
2358807720771;-11.5941;-1.2945;-5.4778;
2358817828271;-10.0585;-0.9257;-3.4466;
2358827935719;-5.2388;-0.6263;-0.3156;
2358838024833;-6.3960;-0.8850;-4.7183;
2358848132333;-12.5716;-0.0081;-6.4624;
2358858239781;-16.8691;-0.5710;1.3588;
2358868388167;-10.9403;0.3296;6.4660;
2358878495667;-8.7724;-1.4767;2.9518;
2358888603114;-8.5328;-0.8898;-3.7555;
2358898710875;-8.3387;0.0661;-6.8312;
2358908818323;-5.3635;0.5620;-4.6944;
2358918925823;-8.5232;-1.6780;-6.4170;
2358929029312;-13.1895;-0.6933;-4.3424;
2358939136812;-12.7920;0.2171;1.5338;
2358949244260;-6.3410;-0.5279;3.5004;
2358959352646;-5.6414;-0.4513;-1.9588;
2358969460146;-7.2559;-0.5088;-8.4506;
2358979567594;-12.3559;-0.0511;-9.7753;
2358989648583;-12.9882;-0.7986;-2.2152;
2358999756083;-10.4946;-0.9927;-0.5408;
2359009863531;-8.4177;-0.4777;-2.4308;
2359019977021;-5.5361;-1.0860;0.0772;
2359030084521;-8.0154;-0.6287;0.2593;
2359040191969;-15.6784;0.1164;-1.3169;
2359050305875;-13.1249;-1.2203;-0.5432;
2359060413375;-6.7457;0.4469;-0.8115;
2359070520823;-6.3769;0.2243;-5.3653;
2359080623062;-9.5028;-0.7507;-5.2959;
2359090730562;-9.8025;-0.7675;-1.9995;
2359100838010;-6.8246;-0.9257;-2.1218;
2359110957021;-6.6332;-1.2012;-7.0421;
2359121064521;-9.4214;0.4711;-7.1330;
2359131171969;-9.5629;-0.0969;-1.0319;
2359141272958;-11.7380;-0.6072;1.8858;
2359151380458;-9.1029;-0.8465;1.5912;
2359161487906;-11.2851;-0.9209;-5.5953;
2359171601083;-12.2650;-0.8850;-6.5653;
2359181708583;-7.8260;-0.2453;-0.9622;
2359191816031;-9.0455;-0.2596;1.2057;
2359201922437;-10.3678;-0.6790;-0.3371;
2359212029937;-11.2947;-0.5160;-0.4929;
2359222137385;-15.6521;-0.2477;1.7471;
2359232243271;-8.9040;0.5070;2.6668;
2359242350719;-3.1549;-0.3242;-2.9387;
2359252458219;-6.1181;-0.9209;-7.0588;
2359262580667;-13.3693;-0.2285;-9.5070;
2359272688167;-10.9929;-0.6239;-6.1128;
2359282795614;-8.8490;-0.1974;-2.3303;
2359292894417;-11.5941;0.2435;-0.9120;
2359303001917;-7.6753;-0.8946;-0.1382;
2359313109364;-9.2489;-0.2788;-2.0907;
2359323240667;-12.3679;-0.8827;-1.6140;
2359333348167;-12.7609;0.0757;-2.4045;
2359343455614;-8.2334;-1.0143;-4.2347;
2359353532021;-9.0168;0.1092;-1.8846;
2359363639521;-10.4276;-0.8393;-0.9311;
2359373746969;-7.5458;1.7094;-1.8344;
2359383867229;-8.5137;0.0350;-3.2931;
2359393974729;-11.2684;0.7920;-1.7360;
2359404082177;-8.3052;-0.0945;-3.3147;
2359414197437;-10.7031;-0.0969;-5.3773;
2359424304937;-11.7835;0.9500;-2.3638;
2359434412385;-5.0952;-1.2491;-1.9301;
2359444520250;-2.4458;-1.1677;-6.7092;
2359454627750;-11.2923;0.4493;-8.0961;
2359464735198;-17.0175;0.3535;-1.3122;
2359474843479;-13.3214;-0.0826;5.1628;
2359484950979;-10.1282;0.3105;3.7878;
2359495058427;-6.5755;-2.1640;-0.9861;
2359505168479;-3.7825;-0.6431;-5.1425;
2359515275979;-7.2200;0.1834;-7.7249;
2359525383427;-14.2531;0.2937;-4.8957;
2359535491292;-12.6242;-0.4322;0.6114;
2359545598792;-8.0608;-0.4083;-0.4256;
2359555706239;-8.0465;0.0781;-2.0498;
2359565810042;-6.2474;-0.1687;-1.6618;
2359575917542;-8.4873;-0.7388;-4.3472;
2359586024989;-12.4612;-0.2046;-6.6446;
2359596130198;-12.5668;-0.5255;-3.3625;
2359606238114;-9.3903;-1.4288;-1.6786;
2359616346031;-11.5391;-1.3496;-1.3193;
2359626456812;-9.0311;-0.6766;3.1077;
2359636564729;-3.0254;-0.2548;1.9747;
2359646672646;-4.6591;-0.6790;-6.5414;
2359656786760;-13.5272;0.0206;-9.3873;
2359666894677;-14.2890;0.1546;-2.9195;
2359677002594;-11.2062;0.2028;2.8825;
2359687105042;-6.9637;-1.1243;1.7447;
2359697212958;-7.8165;-1.8550;-5.8083;
2359707320875;-10.5951;0.9978;-6.3763;
2359717429469;-10.2838;-1.0334;-1.3289;
2359727537385;-6.9805;-1.1124;-2.2487;
2359737645302;-7.6992;-0.9377;-3.7077;
2359747752750;-9.0646;-0.3003;-2.1769;
2359757860667;-7.5529;0.1427;-0.7155;
2359767968583;-7.9723;0.3607;-1.1420;
2359778071552;-11.8983;-0.0706;-2.6967;
2359788179469;-11.3282;-0.6933;-3.4274;
2359798287385;-6.1851;-0.7172;-3.3266;
2359808409521;-10.2981;-0.3772;-5.5089;
2359818517437;-11.9800;0.2674;-1.7886;
2359828625354;-4.7022;-0.7938;0.1660;
2359838721760;-6.8079;0.0685;-3.3099;
2359848829677;-6.7600;0.1187;-2.5576;
2359858937594;0.1463;-0.4920;-6.2922;
2359869084677;-30.8683;1.3669;-3.2596;
2359879192594;-20.1485;1.1656;13.1471;
2359889300510;1.4925;-2.0468;11.0438;
2359899378531;-5.9216;-3.7427;-14.2765;
2359909486448;-12.7657;-0.0009;-12.8871;
2359919594364;-9.4095;0.9523;3.5411;
2359929694989;-6.8632;-1.9510;1.4189;
2359939802906;-9.9485;-1.2538;-5.7437;
2359949910823;-9.8432;0.3751;-2.6512;
2359960051344;-8.0130;-0.0559;0.3144;
2359970159260;-9.7519;-0.0488;1.0714;
2359980267177;0.1893;0.3440;0.2928;
2359990353531;-10.8323;-1.0956;-21.9398;
2360000461448;-16.2416;-0.2788;-15.7259;
2360010569364;-8.3172;1.4985;3.2465;
2360020675823;-10.1043;0.2650;6.0661;
2360030783739;-10.5114;-2.8158;3.3855;
2360040891656;-12.8231;0.5405;1.3947;
2360050996656;-11.6324;1.2541;0.2785;
2360061104573;-6.0102;0.5285;-2.0955;
2360071212489;-7.8428;-0.2644;-5.3294;
2360081326031;-8.4921;0.0733;-3.0679;
2360091433948;-5.3372;-0.6479;-1.6881;
2360101541864;-9.7448;-0.5542;-6.5246;
2360111652958;-14.7682;1.0053;-3.0559;
2360121760875;-7.0116;0.1427;3.7161;
2360131868792;-7.1073;-0.3963;-3.7627;
2360141977281;-13.0026;-1.4719;-6.7475;
2360152085198;-6.8007;-0.5686;-3.3458;
2360162193114;-7.4644;-0.7866;-6.9583;
2360172305042;-11.8983;-0.2835;-4.1483;
2360182412958;-9.0670;-0.9425;2.4775;
2360192520875;-9.8456;-0.6048;2.2382;
2360202619885;-14.2196;-0.2118;1.5410;
2360212727802;-11.5439;1.2613;3.2177;
2360222835719;-5.5143;-0.7651;-1.0056;
2360232937489;-5.1263;-0.6096;-7.6409;
2360243045406;-7.6199;-0.8177;-9.1310;
2360253153323;-10.5425;-1.6155;-6.6685;
2360263266969;-15.3766;-1.4982;-3.2166;
2360273374885;-12.8949;0.5237;4.4683;
2360283482802;-3.9766;-1.8287;4.2503;
2360293595094;-4.7504;-2.1162;-4.0932;
2360303703010;-10.9116;0.7992;-8.4915;
2360313810927;-13.6974;0.9667;-3.9975;
2360323912073;-11.6252;-1.7880;1.5410;
2360334019989;-12.3440;-1.3400;-1.3744;
2360344127906;-11.7930;-1.0908;-1.0845;
2360354233062;-6.6787;0.5620;1.5649;
2360364340979;-5.8283;-0.0176;-0.5623;
2360374448896;-8.8705;-1.0765;-3.9640;
2360384571969;-12.0709;-1.0932;-3.8560;
2360394679885;-12.6864;-0.7842;-1.9038;
2360404787802;-11.8696;0.7442;0.4965;
2360414888531;-6.1995;-0.0778;1.5769;
2360424996448;-6.4678;-1.7474;-3.1086;
2360435104364;-12.3775;-1.3472;-6.0793;
2360445209156;-13.3454;-1.6756;-3.3936;
2360455317073;-11.0025;-0.4609;-2.5624;
2360465424989;-8.9351;-0.5997;-1.6810;
2360475535614;-8.9566;-0.7627;0.0102;
2360485643531;-10.2096;-0.6718;1.8739;
2360495751448;-9.8408;0.4807;0.4152;
2360505856344;-11.2301;0.4373;-2.2080;
2360515964260;-7.1240;-1.2538;-1.4294;
2360526072177;-8.7461;-0.4035;-3.3864;
2360536183010;-12.0733;-0.7101;-4.2706;
2360546290927;-9.8910;-0.8369;-1.8153;
2360556398844;-8.4224;-0.1041;-3.7220;
2360566507958;-11.1416;-0.0344;-4.3639;
2360576615875;-8.2789;-1.0741;0.0990;
2360586723792;-7.7279;0.1857;-1.3863;
2360596864312;-12.2554;-0.0802;-1.3337;
2360606972646;-12.1905;0.7128;-0.1190;
2360617080927;-7.8069;-0.1137;0.8797;
2360627144417;-9.9269;-0.2788;-0.6461;
2360637252802;-11.9318;-0.5686;-1.3863;
2360647361083;-7.2966;-0.7292;-0.2079;
2360657481187;-7.0116;-0.3532;-2.8956;
2360667589469;-11.4218;-1.1028;-4.8263;
2360677697802;-10.8829;-0.4155;-2.4930;
2360687799937;-9.8886;0.3942;-0.9598;
2360697908271;-12.6266;0.6673;-1.1204;
2360708016552;-10.8706;0.1164;-0.1047;
2360718124208;-7.7853;-0.7029;-0.4448;
2360728232542;-10.1713;-0.2453;-0.7851;
2360738340823;-7.0355;-0.5423;-2.8427;
2360748478271;-4.9657;-0.8731;-3.9063;
2360758586552;-10.4803;0.5644;-6.6060;
2360768694885;-15.0006;1.0699;-3.8680;
2360778759989;-8.1685;1.1106;1.5099;
2360788868323;-4.3741;0.9715;-0.6317;
2360798976656;-11.8409;0.6266;-3.1759;
2360809113687;-13.9968;0.3464;-2.1434;
2360819221969;-6.3072;-0.0248;-0.8067;
2360829330302;-7.0379;1.2808;-3.3218;
2360839419260;-13.0122;-0.2070;-3.5901;
2360849527594;-10.7270;0.3368;-1.8751;
2360859635927;-6.4199;0.6649;-0.2031;
2360869741969;-6.2545;0.5142;-0.0520;
2360879850302;-8.9973;0.3344;-0.6293;
2360889958635;-13.2685;0.4493;-1.5613;
2360900076917;-12.2315;0.4301;-2.7900;
2360910185198;-8.0943;0.5166;-1.3552;
2360920293531;-7.4429;-0.2477;-1.2667;
2360930400562;-11.5822;0.4229;-2.3901;
2360940508844;-10.7940;0.2530;-1.6881;
2360950617177;-10.0585;-1.0190;-0.7564;
2360960730927;-11.5917;-0.8130;-0.5408;
2360970839208;-9.7759;-0.3772;-0.9359;
2360980947542;-9.1579;-0.5782;-0.6532;
2360991043271;-9.4119;-1.3280;0.5133;
2361001151552;-9.9269;-0.0488;-0.3897;
2361011259885;-8.7963;-1.0765;-2.2032;
2361021367750;-7.9098;-1.6947;-3.9664;
2361031476031;-11.2253;-0.3580;-4.4118;
2361041584364;-10.1186;-0.2046;-2.5504;
2361051694208;-0.9894;-1.9558;-3.0846;
2361061802489;-13.9585;-0.7627;-4.7327;
2361071910823;-22.2637;-0.1759;-0.3634;
2361082017333;-3.1597;-1.1749;0.1708;
2361092125614;-0.5892;-1.6756;-1.5179;
2361102233948;-14.3297;-1.3065;-1.9349;
2361112342646;-16.0068;1.0196;-1.2042;
2361122450927;-5.0091;-0.7029;0.7289;
2361132559260;-5.4688;-0.6479;-1.1180;
2361142655146;-13.5153;0.9404;-3.7268;
2361152763479;-11.8002;0.1379;-1.4198;
2361162871812;-7.6152;-0.1783;-0.8354;
2361172990771;-10.8108;0.0852;-1.8727;
2361183099052;-8.2741;-0.4729;1.7303;
2361193207385;-6.5396;-1.1916;-4.9412;
2361203308948;-16.5458;-0.7819;-7.0325;
2361213417281;-10.2957;0.8112;1.0905;
2361223525614;-1.9283;0.9045;2.1159;
2361233631292;-4.1970;-0.5112;-3.4801;
2361243739625;-16.7396;0.5070;-5.5953;
2361253847958;-15.3096;1.7716;1.0642;
2361263958375;-2.5415;0.1642;1.2894;
2361274066656;-2.8531;-0.3652;-4.2634;
2361284174989;-18.6921;-0.0897;-4.0765;
2361294287177;-15.6879;1.3573;0.6380;
2361304395458;-6.3314;0.1499;0.0942;
2361314503792;-8.0441;-0.3915;-2.1314;
2361324624000;-14.9504;0.6314;-0.0784;
2361334732281;-11.4529;0.3248;0.2234;
2361344840614;-4.4581;-0.2644;1.5242;
2361354930562;-8.0656;1.1058;-0.4738;
2361365038948;-12.4301;0.6721;-2.9435;
2361375147281;-6.8943;-0.2285;-3.0966;
2361385265667;-7.2129;0.0685;-6.3835;
2361395373948;-14.0952;0.9117;-4.0502;
2361405482281;-8.7027;-0.4848;1.7375;
2361415586344;-7.6056;0.0302;-3.8177;
2361425694625;-18.3063;-0.9688;-4.8191;
2361435802958;-12.5237;1.0651;0.7193;
2361445903792;2.6566;-1.4240;2.1685;
2361456012073;-5.4736;-1.0167;-3.3482;
2361466120406;-17.4942;1.1130;-6.8551;
2361476223635;-13.0388;0.8495;-0.2749;
2361486332021;-5.6677;0.4902;1.2296;
2361496440302;-7.3828;0.3655;-2.6058;
2361506545927;-10.1833;-0.7890;-2.2391;
2361516654260;-7.8787;-0.5399;0.4534;
2361526762594;-7.7806;0.5644;-3.4537;
2361536870302;-15.4941;-0.0511;-5.1209;
2361546978687;-12.7849;0.0063;-0.1095;
2361557086969;-3.4519;0.0805;-1.9804;
2361567216708;-10.6935;-0.6311;-3.8560;
2361577325042;-13.3980;-0.0416;1.5721;
2361587433375;-6.2641;0.1020;2.2068;
2361597516344;-5.1000;-0.2764;-1.1204;
2361607624104;-10.5592;-0.7244;-3.4011;
2361617731812;-14.6533;-1.1315;-2.9124;
2361627855302;-4.8054;0.4974;-0.6843;
2361637963062;-2.7787;-0.3748;-3.4633;
2361648070823;-27.1840;-1.7139;-3.9544;
2361658182385;-15.9924;0.1881;3.4956;
2361668290146;8.1182;-0.8058;3.3951;
2361678397906;-6.8486;-2.6599;-3.3577;
2361688499208;-22.7501;-0.6550;-6.1822;
2361698606969;-10.6696;-0.5782;0.2617;
2361708714729;-3.1525;-0.7125;0.3167;
2361718817281;-10.2885;-0.5758;-2.9172;
2361728925042;-13.8317;-1.9268;-2.6465;
2361739032750;-7.9050;-1.0693;0.8919;
2361749139625;-4.5371;-0.8058;-1.0798;
2361759247385;-14.0279;-0.5255;-3.6643;
2361769355094;-7.1315;-0.6191;0.3864;
2361779465719;-5.4090;-2.0252;-7.4566;
2361789573479;-14.5765;-0.0778;-10.1204;
2361799681187;-11.3593;-0.7627;0.7576;
2361809786864;-6.7337;0.4421;2.9327;
2361819894625;-11.1440;0.8375;-3.4705;
2361830002333;-9.8910;-0.7029;-0.7660;
2361840118531;-5.3515;-1.2873;-0.0879;
2361850226292;-8.2119;-1.3519;-2.6560;
2361860334052;-13.6328;1.2135;-3.7172;
2361870437958;-11.9560;0.6625;-1.8153;
2361880545719;-9.9174;0.1834;-0.3706;
2361890653479;-7.8571;-0.0730;-0.1573;
2361900767385;-10.1139;0.6936;-0.7373;
2361910875146;-11.9342;0.3942;0.9900;
2361920982906;-8.3602;-0.1496;-0.1478;
2361931094677;-8.3459;0.1618;-2.1123;
2361941202437;-10.7294;-0.0488;-2.3423;
2361951310198;-7.1216;0.1857;-4.0406;
2361961426448;-8.5232;-0.3963;-4.7737;
2361971534208;-10.6576;0.5142;-1.2715;
2361981641969;-9.0526;1.4100;-0.1959;
2361991742073;-11.1293;0.9021;-3.0751;
2362001849833;-9.9365;-0.5686;-1.9014;
2362011957594;-9.6515;0.4373;0.6165;
2362022059260;-11.2229;1.1800;-1.1683;
2362032167021;-10.9140;-0.6072;-0.8354;
2362042274781;-7.0642;-0.3796;-1.2018;
2362052383375;-8.9853;-0.1161;-3.3864;
2362062491135;-11.6133;0.2001;-1.3983;
2362072598896;-6.9254;0.0924;-1.7001;
2362082714989;-9.9556;-0.0849;-3.5447;
2362092822750;-11.8481;0.7657;-0.9718;
2362102930510;-11.0791;0.4277;0.0485;
2362113032281;-8.1999;0.1666;-1.2544;
2362123140042;-7.5960;-1.4073;-0.4618;
2362133247802;-10.3316;0.4205;-2.7733;
2362143359156;-11.6468;-0.8082;-2.5959;
2362153466917;-8.1613;-0.2644;-1.4653;
2362163574677;-7.8500;-0.5518;-3.3625;
2362173676239;-13.3382;-0.0535;-3.3984;
2362183784000;-9.1173;-0.7125;0.2809;
2362193891760;-5.7012;-0.9042;-0.4161;
2362204009469;-10.0780;-0.3508;-2.1099;
2362214117229;-11.3019;-0.1759;-1.2954;
2362224224989;-7.1216;0.0996;-2.0955;
2362234333323;-7.9627;0.0470;-3.7747;
2362244441083;-13.0914;0.3129;-3.1902;
2362254548844;-17.9040;0.8088;-0.3084;
2362264648323;-12.0135;-0.7029;1.8452;
2362274756083;-1.9857;-2.1090;2.1829;
2362284863844;-9.3449;-1.2251;-0.7612;
2362294982073;-16.7420;-0.2357;-2.1793;
2362305089833;-7.2344;-0.6263;1.4716;
2362315197542;-4.4124;-1.2467;-2.2893;
2362325322073;-12.6194;-0.2500;-5.1808;
2362335429833;-11.8576;0.1020;-2.2271;
2362345537594;-4.4363;0.0972;-3.0392;
2362355622594;-7.3373;-0.2524;-5.1449;
2362365730354;-12.2794;-0.2237;-2.4452;
2362375838114;-12.6266;1.3908;0.6404;
2362385957177;-6.3841;-1.3041;0.1062;
2362396064937;-5.2220;-1.9917;-5.4419;
2362406172698;-13.5368;-1.0645;-6.2324;
2362416284781;-15.2809;0.5644;-0.5695;
2362426392542;-4.6639;-0.2046;1.7279;
2362436500250;-4.4363;-0.6646;-2.6345;
2362446597698;-11.7165;0.1403;-2.9506;
2362456705458;-15.9709;0.3703;-1.6810;
2362466813219;-8.5424;0.8423;-0.2198;
2362476942385;-2.4338;-0.3532;0.3407;
2362487050146;-9.9269;-0.3218;-2.7565;
2362497157906;-17.4129;0.9930;-1.4318;
2362507282125;-9.1508;0.5931;0.6165;
2362517389885;-4.0484;-0.9257;-0.5886;
2362527497646;-11.0384;-0.4226;-4.0837;
2362537560823;-13.2183;-0.2237;-2.7111;
2362547668583;-5.9862;-0.3772;0.5922;
2362557776292;-6.5707;0.2937;-2.2152;
2362567889260;-12.0541;0.2363;-3.2142;
2362577997021;-11.9848;0.2148;-1.6881;
2362588104781;-8.5735;0.0948;-0.8761;
2362598198219;-5.6725;-0.7388;-0.2677;
2362608306083;-10.4468;0.2363;-3.1472;
2362618413948;-12.6410;0.0374;-2.4763;
2362628565927;-7.0092;-0.1472;0.8318;
2362638673792;-8.0178;0.2291;-2.9004;
2362648781656;-14.7634;0.0757;-3.1110;
2362658883948;-10.8805;-0.5997;0.2067;
2362668991812;-6.7672;-0.5566;-1.0917;
2362679099677;-6.6739;-0.8345;-1.2858;
2362689209156;-11.6133;-0.4346;-1.9229;
2362699317021;-12.3392;-0.1735;-1.9134;
2362709424885;-8.4248;-0.0873;-0.9646;
2362719514989;-5.2965;-1.1533;-1.4773;
2362729622854;-10.8562;0.0159;-3.6428;
2362739730719;-11.9536;0.0900;-3.0727;
2362749844052;-10.8227;-0.7412;-0.3203;
2362759951917;-9.5605;0.3846;-0.8019;
2362770059781;-6.9781;-0.2333;-0.2605;
2362780163219;-8.8179;-1.0956;-0.2557;
2362790271083;-11.0839;-0.4202;-2.6369;
2362800378948;-10.1665;-0.5806;-2.6728;
2362810491656;-10.0561;-0.2859;-2.4763;
2362820599521;-11.1030;-0.1543;-1.8416;
2362830707385;-9.2393;-0.3314;-1.4988;
2362840807698;-7.6391;-0.0153;-0.3921;
2362850915562;-9.3855;-0.3843;-1.9995;
2362861023427;-9.7328;-0.4107;-0.9431;
2362871133635;-10.0370;0.0924;-1.5060;
2362881241500;-11.5319;0.3583;-2.8307;
2362891349364;-8.8729;-0.8827;-0.1334;
2362901458635;-7.8356;-0.5088;-1.4868;
2362911566500;-10.6552;-0.5064;-2.6106;
2362921674364;-9.9365;-0.5614;-1.5179;
2362931782906;-8.2741;-0.4920;-1.7121;
2362941890771;-10.0537;-0.2213;-2.0644;
2362951998635;-10.3029;-0.1711;-1.4318;
2362962105042;-11.9198;-0.0706;-1.9253;
2362972212906;-10.5927;-0.7125;-1.7985;
2362982320771;-9.1723;-0.6096;-0.2749;
2362992431864;-6.3864;0.0972;-1.0845;
2363002539729;-7.0355;-0.1065;-1.7575;
2363012647594;-11.2516;-0.3437;-3.6165;
2363022756656;-10.7342;0.6601;-2.7709;
2363032864521;-7.9002;0.6864;-1.0822;
2363042972385;-8.4153;-0.5590;-2.5816;
2363053102750;-12.0087;0.0876;-2.5744;
2363063210614;-10.7366;-0.3676;-0.3036;
2363073318479;-8.3076;-0.5734;-0.4786;
2363083398010;-10.5353;-0.4681;-0.3514;
2363093505875;-10.3869;0.6936;-0.7178;
2363103613739;-8.3842;-0.9473;-1.4892;
2363113727177;-9.9915;-0.2142;-1.5326;
2363123835042;-10.4468;0.4636;-2.3204;
2363133942906;-9.6610;-0.0057;-3.9015;
2363144048010;-12.6625;-0.1496;-2.1051;
2363154155875;-11.1631;0.7056;1.9169;
2363164263739;-6.2928;-0.3413;2.7652;
2363174376969;-9.0933;-0.5423;0.3649;
2363184484833;-11.2971;-0.8106;0.7552;
2363194592750;-9.5267;-0.4322;0.7624;
2363204696448;-8.8896;-0.0969;-0.6724;
2363214804312;-11.9824;-0.8297;-1.0439;
2363224912177;-10.8757;0.4181;-1.2281;
2363234992073;-8.2334;-0.9712;0.0990;
2363245099937;-9.8264;-0.0105;-0.8641;
2363255207802;-12.5812;-0.2644;1.0546;
2363265343219;-11.6468;-0.5710;2.7796;
2363275451083;-9.0909;-0.5590;0.1660;
2363285558948;-9.9221;-1.3065;0.3649;
2363295666031;-12.8112;-0.7101;1.1097;
2363305773896;-11.1559;-0.2668;0.9517;
2363315881760;-7.4572;-0.6263;0.6236;
2363326002281;-7.3205;-0.6168;-0.6796;
2363336110146;-12.8112;-0.8874;-1.8607;
2363346218010;-10.7605;0.0709;-1.9397;
2363356338323;-8.5424;0.0948;-1.5326;
2363366446187;-10.4396;0.6458;-1.2715;
2363376554052;-6.2306;-0.9209;-0.3754;
2363386642802;-7.5769;0.1427;-1.4868;
2363396750667;-12.2818;0.5716;-2.9746;
2363406858531;-12.6960;-0.2070;-1.2544;
2363416963219;-8.9901;0.5955;-0.5432;
2363427071083;-7.4788;-0.4011;-1.8583;
2363437179000;-12.5405;-0.4561;-3.1902;
2363447330198;-11.5128;0.2554;-2.2869;
2363457438114;-6.5013;0.0135;-0.0903;
2363467545927;-5.9001;-0.1113;-1.4725;
2363477592177;-8.9614;-0.4729;-3.3817;
2363487700042;-13.4172;-0.1472;-4.5796;
2363497807906;-10.6911;1.0795;-3.8943;
2363507943739;-7.1818;0.8375;-2.0907;
2363518051604;-12.4756;0.3129;-3.0535;
2363528159469;-9.1484;-0.0897;-1.3289;
2363538260823;-5.9360;1.0077;-1.1372;
2363548368687;-10.0394;0.3296;-4.1267;
2363558476552;-12.6051;0.7008;-3.5088;
2363568578844;-7.7997;0.0829;-2.2965;
2363578686708;-8.0441;0.0685;-3.4178;
2363588794573;-12.2100;0.5094;-5.2406;
2363598910094;-10.1952;0.3009;-4.3926;
2363609018271;-5.7227;0.0326;-2.3061;
2363619126396;-7.8715;0.4445;-3.0057;
2363629237281;-13.8652;-0.1854;-2.3447;
2363639345458;-11.4625;0.2219;0.4175;
2363649453583;-7.2272;0.2578;1.0164;
2363659586135;-10.3606;0.0876;-1.5565;
2363669694312;-8.4200;-0.2118;-0.3682;
2363679802437;-8.3818;0.3727;-0.7923;
2363689884885;-10.3125;-0.4872;-4.3280;
2363699993062;-11.1870;-0.7316;-2.9961;
2363710101187;-11.5319;-0.9425;0.0150;
2363720210719;-8.0130;-0.3843;-0.2892;
2363730318896;-6.7840;-1.6011;-1.9780;
2363740427021;-12.0613;-0.7053;-2.6608;
2363750527802;-16.8906;-0.4178;0.8438;
2363760635979;-10.0899;-0.6191;4.1498;
2363770744104;-5.5768;-1.0765;0.8871;
2363780853114;-8.3219;-1.6418;-1.0463;
2363790961292;-11.6109;-1.8766;-0.5647;
2363801069417;-12.2073;0.3368;-1.0654;
2363811180719;-8.2095;-0.5949;-2.1649;
2363821288896;-8.1422;-0.7412;-2.8259;
2363831397021;-9.7519;-0.4729;-2.5768;
2363841499989;-9.3712;0.5213;-2.3375;
2363851608167;-10.0298;-0.4322;-1.4318;
2363861716292;-9.5868;-0.2883;-0.8593;
2363871825302;-8.9088;-0.2333;-1.2787;
2363881933479;-11.1440;-0.2668;-1.0941;
2363892041604;-10.9594;0.5213;-1.1803;
2363902153948;-10.9714;-0.0969;-1.0726;
2363912262125;-8.3818;0.7104;0.6643;
2363922370250;-6.7217;0.1905;-0.2294;
2363932475614;-9.2201;0.4540;-4.6322;
2363942583792;-13.6520;0.8542;-5.5017;
2363952691917;-10.5568;1.4171;-3.0368;
2363962803531;-7.5410;1.1608;-0.5862;
2363972911708;-6.1804;0.3320;-0.7995;
2363983019833;-13.6807;0.7128;-0.8139;
2363993122958;-15.4029;0.8662;1.2535;
2364003231135;-6.4080;-0.1041;2.5280;
2364013339260;-6.0775;-1.3735;1.5386;
2364023447958;-11.7739;-0.7005;-1.4079;
2364033556135;-12.1953;-0.0153;-1.4151;
2364043664260;-8.3243;-0.3556;-1.5326;
2364053774364;-8.0034;-1.0406;-2.4763;
2364063882542;-7.4620;-0.8058;-3.6069;
2364073990667;-13.1178;-1.5197;-3.1567;
2364084090875;-10.8610;-0.2046;-2.2152;
2364094199052;-6.3553;-0.7675;-0.8641;
2364104307177;-10.3149;-1.8909;-1.1348;
2364114422958;-13.0098;-0.6168;-0.3945;
2364124531135;-9.1268;-0.2596;1.1264;
2364134639260;-5.8020;-1.3065;0.2856;
2364144751448;-10.2144;-0.6072;-1.6929;
2364154859625;-13.0460;-0.4370;-2.7015;
2364164967750;-8.9040;0.0254;-1.3887;
2364175061708;-7.2846;-0.6311;-1.0893;
2364185169885;-9.6371;-0.7149;-3.6619;
2364195278010;-14.0542;-0.1232;-3.2836;
2364205390875;-10.3941;-0.5255;-0.2462;
2364215499052;-7.1363;-0.1328;0.0389;
2364225607177;-10.2909;-0.1807;-0.6269;
2364235746083;-10.2359;-0.0320;-0.5791;
2364245854208;-9.7328;-0.4370;0.1995;
2364255962333;-11.1150;0.2387;-1.0175;
2364266040614;-8.0297;0.0087;-1.0080;
2364276148792;-10.1115;0.4974;-2.1314;
2364286256917;-12.0637;0.3535;-2.4643;
2364296362698;-6.8557;-0.3604;-0.8163;
2364306470875;-8.8466;0.2171;-1.9205;
2364316579000;-11.9127;0.2219;-2.6225;
2364326692281;-11.8313;0.1666;-1.4916;
2364336800458;-7.1169;0.1475;-0.0855;
2364346908583;-7.4333;-0.3027;-0.6006;
2364357004781;-10.0011;-0.0559;-1.5781;
2364367112958;-12.7271;0.0326;-1.4174;
2364377221083;-8.8370;-0.0344;-0.5408;
2364387391187;-7.0140;-0.3170;-0.9646;
2364397499312;-11.0336;-0.1113;-2.9004;
2364407607437;-10.6170;-0.6574;-2.4284;
2364417662489;-11.0145;-0.2644;-1.5589;
2364427770667;-10.2718;-0.2835;-0.2533;
2364437878792;-12.5381;-0.5542;0.2402;
2364447987073;-12.7490;0.0996;0.0628;
2364458095250;-4.2449;-0.2764;1.1554;
2364468203375;-5.0402;-1.1940;0.8390;
2364478298531;-14.4832;-0.4346;-3.1376;
2364488406708;-12.6529;1.2736;-3.1253;
2364498514833;-7.9866;0.1929;-1.5012;
2364508642542;-7.3014;0.2076;-2.0764;
2364518750667;-11.8576;-0.6287;-1.6451;
2364528858792;-10.4133;-0.4585;-1.9110;
2364538973739;-8.7532;-0.6718;-1.6331;
2364549081917;-10.6935;-0.2692;-1.0558;
2364559190042;-9.1651;0.0446;0.7409;
2364569281656;-9.4167;-0.7938;0.8390;
2364579403219;-9.1555;0.2028;-0.5073;
2364589511344;-10.7964;-0.1472;-1.1180;
2364599619469;-11.0791;0.5118;-1.9971;
2364609719208;-9.5845;-0.0320;-1.2882;
2364619827385;-8.3530;0.1714;-1.6857;
2364629935510;-10.4563;0.9858;-2.0644;
2364640042125;-10.1737;-0.3939;-1.6187;
2364650150302;-6.7026;-0.6144;-1.8248;
2364660258427;-8.2956;-0.4346;-3.9808;
2364670363635;-13.7333;0.0613;-3.4250;
2364680471812;-10.8036;0.2459;0.3431;
2364690579937;-4.0196;-0.9066;1.1073;
2364700686708;-9.7854;-0.5710;-1.3672;
2364710794885;-16.5817;0.6147;-1.0343;
2364720903010;-10.1282;0.4516;0.1373;
2364731013531;-3.6604;-0.8489;0.7672;
2364741121708;-8.2334;-1.2371;-2.1697;
2364751229833;-15.8653;0.2841;-3.4178;
2364761346031;-11.6037;0.0996;-1.2114;
2364771454208;-4.5778;-1.0956;-0.0592;
2364781562333;-8.4105;-0.5399;-1.8607;
2364791662385;-13.7644;0.8518;-2.6752;
2364801770562;-10.8156;-0.5973;-1.6714;
2364811878687;-9.5605;-0.8707;-0.5743;
2364821986552;-9.8025;0.5118;-0.6939;
2364832094729;-10.4683;0.0996;0.1636;
2364842202854;-7.5912;-0.8321;-0.3036;
2364852289625;-8.4921;-0.4968;-1.5422;
2364862397802;-10.8586;0.3751;-1.1970;
2364872505927;-9.8934;-0.7077;-1.3217;
2364882627281;-10.4444;0.0182;-2.3925;
2364892735458;-8.8442;-0.5423;-1.3935;
2364902843583;-9.7161;-1.5365;-0.7083;
2364912955094;-9.5267;-0.0969;-2.2008;
2364923063271;-8.7266;-1.0406;-0.3993;
2364933171396;-11.5104;-0.5877;-0.1047;
2364943280875;-10.1952;-0.2070;-2.0330;
2364953389052;-9.5581;-0.7771;-1.2619;
2364963497177;-9.6993;-0.8536;-0.7756;
2364973607125;-8.7556;-0.5351;-0.2462;
2364983715302;-9.4908;-1.1892;-0.8856;
2364993823427;-9.7591;0.0924;-2.4595;
2365003925927;-10.1378;-0.1902;-2.2750;
2365014034104;-11.2421;-0.3628;-2.8717;
2365024142229;-9.6610;0.0805;-1.4749;
2365034251552;-9.8910;-0.6383;-0.4834;
2365044359729;-10.1450;0.1690;-1.0487;
2365054467854;-8.9136;-0.5471;-0.5958;
2365064575406;-9.8025;-0.8441;-1.2906;
2365074683583;-11.2110;0.8207;-1.4127;
2365084791708;-9.5701;0.0805;-0.3562;
2365094901760;-8.4583;-0.3915;-0.8952;
2365105009937;-10.6696;0.0876;-1.3481;
2365115118062;-11.2110;0.2148;-1.5012;
2365125236812;-8.4440;-0.6024;-0.9526;
2365135344937;-8.8059;0.5524;-0.7828;
2365145453114;-10.9953;-0.2548;-1.0463;
2365155565979;-10.2383;0.2076;-1.7961;
2365165674104;-9.0072;0.0517;-0.9168;
2365175782229;-6.9494;-0.7627;-0.8785;
2365185874052;-7.3684;0.1642;-2.0067;
2365195982177;-18.5172;1.3860;-2.6106;
2365206090354;-10.9140;0.2363;-0.5097;
2365216197906;-2.6782;-0.4681;0.9852;
2365226306083;-8.0752;0.6912;-0.6197;
2365236414208;-15.2641;0.8734;-2.6010;
2365246522594;-11.7835;0.4516;-2.1003;
2365256630771;-5.8570;-0.2931;0.8127;
2365266738896;-10.0346;0.1570;-0.9144;
2365276874989;-12.0398;0.6003;-2.0498;
2365286983167;-8.1589;0.1068;-0.7516;
2365297091292;-7.6008;0.1762;-1.0534;
2365307171292;-11.5415;0.1522;-2.1936;
2365317279417;-9.5964;0.5309;-2.0955;
2365327387542;-9.5124;-0.3099;-0.9263;
2365337496552;-11.5822;-0.3485;-1.8272;
2365347604729;-8.6907;-0.1926;-0.2677;
2365357712854;-8.1230;-0.7986;-0.3945;
2365367870875;-8.4368;0.4469;-2.1601;
2365377979000;-12.1020;-0.2931;-1.2595;
2365388087125;-10.3391;-0.1615;-2.2104;
2365398124677;-7.7853;0.1307;-0.5312;
2365408232854;-9.3138;-0.7675;-0.7588;
2365418340979;-10.8132;0.9763;-1.7336;
2365428463323;-9.8240;-0.9138;-1.2329;
2365438571500;-8.1039;0.3392;-1.1157;
2365448679625;-10.7653;-0.6718;-1.2401;
2365458790719;-12.3703;0.0015;-0.5623;
2365468898896;-7.0235;-0.5183;0.7911;
2365479007021;-8.2621;0.2818;-2.1410;
2365489115823;-13.0795;-0.1184;-3.1519;
2365499224000;-11.3139;0.0350;-2.7182;
2365509332125;-9.8527;0.4516;-0.2318;
2365519439885;-9.0838;0.0374;0.0846;
2365529548062;-8.4392;0.6434;-0.2581;
2365539656187;-9.9939;0.1235;-0.7947;
2365549760302;-9.3664;0.3416;-1.1970;
2365559868479;-9.3568;-0.0057;-1.0869;
2365569976604;-11.8289;0.7992;-2.0498;
2365580086552;-9.8599;-0.1878;-1.6187;
2365590194521;-8.5591;-0.1400;-0.6437;
2365600302489;-12.2961;-0.6072;-0.7564;
2365610426708;-20.3976;-0.2189;0.5922;
2365620534677;-11.1054;-0.7962;4.0155;
2365630642646;0.9057;-2.0587;3.3425;
2365640734989;-3.7322;-1.6035;-1.0893;
2365650842958;-10.9546;1.2784;-6.9535;
2365660950927;-9.9844;0.5931;-5.6504;
2365671060094;-6.2282;0.9715;-5.0515;
2365681168062;-7.1674;0.5477;-5.5786;
2365691276031;-10.3917;0.2961;-3.3171;
2365701384573;-10.2670;0.8375;-1.7432;
2365711492542;-12.0852;-1.7665;-0.0090;
2365721600510;-9.7184;-0.6885;1.3253;
2365731713948;-8.5807;-0.5064;1.6750;
2365741821917;-11.1631;-0.0368;1.3516;
2365751929885;-10.6672;-0.3437;-0.2988;
2365762035406;-9.8025;-0.0826;-0.2557;
2365772143375;-8.7194;0.6147;-1.9851;
2365782251344;-11.7882;1.1417;-3.9230;
2365792363010;-10.4539;0.5213;-3.3338;
2365802470979;-7.6343;0.4783;-2.8475;
2365812578948;-7.9723;0.5668;-4.0789;
2365822686239;-9.4837;0.3727;-3.6212;
2365832794208;-10.3125;-0.0129;-3.4657;
2365842902177;-12.5261;-0.3123;-1.9828;
2365853030198;-8.3722;-0.1519;-1.2715;
2365863138167;-7.8236;-0.4035;-0.9311;
2365873246135;-10.4324;0.1905;-1.5278;
2365883331239;-10.3439;-0.4920;-1.0152;
2365893439208;-8.1374;0.3033;-1.2544;
2365903547177;-8.0608;-0.3027;-2.2415;
2365913657489;-9.5964;0.8734;-3.9377;
2365923765458;-11.6806;0.0685;-2.6201;
2365933873427;-9.7615;0.4588;-2.5146;
2365943979052;-6.0461;-0.3724;-4.3256;
2365954087021;-12.1427;0.1857;-6.0718;
2365964194989;-14.0088;-0.3290;-1.4677;
2365974304625;-8.9447;0.6123;4.0729;
2365984412594;-7.9388;1.3023;4.1282;
2365994520562;-7.6223;0.3200;2.4559;
2366004627906;-9.9054;-0.2405;1.0762;
2366014735875;-11.3186;-0.2333;0.3649;
2366024843844;-10.4779;0.0422;-1.2978;
2366034946864;-9.5605;-1.8168;-1.8775;
2366045054833;-8.7532;-1.8646;-3.9039;
2366055162802;-8.7628;-3.0601;-3.0129;
2366065276239;-8.8657;-2.0468;-4.1004;
2366075384208;-11.9656;-1.8694;-4.2395;
2366085492177;-10.5209;-2.6432;-0.0712;
2366095602594;-8.4559;-1.4958;0.1253;
2366105710562;-8.5878;-1.2778;-2.3495;
2366115818531;-9.9939;0.6864;-1.9540;
2366125933844;-10.9666;-0.6479;0.4726;
2366136041812;-11.0121;-0.2261;-0.1597;
2366146149781;-10.1833;0.6649;-1.3098;
2366156262646;-10.5927;-0.3389;-1.3169;
2366166370614;-9.4382;-0.4131;-0.7445;
2366176478583;-10.6146;-0.7244;-1.6834;
2366186577385;-10.4468;-0.3218;-2.3518;
2366196685354;-9.9604;-0.3389;-2.0859;
2366206793323;-8.5902;-0.7436;-2.1553;
2366216893531;-11.0695;-0.2764;-2.6728;
2366227001500;-9.4119;-0.6263;-2.5433;
2366237109469;-8.3578;0.3200;-1.3983;
2366247237750;-10.4635;-0.5327;-1.6499;
2366257345667;-9.6969;0.0900;-2.0569;
2366267453635;-7.7638;0.0446;-1.7312;
2366277539469;-8.4224;-0.7484;-2.1458;
2366287647437;-10.9355;0.5931;-2.5122;
2366297755406;-8.0249;-0.9257;-1.8535;
2366307881969;-8.2023;-0.8082;-2.5696;
2366317989937;-10.5401;-0.9568;-3.1759;
2366328097906;-11.6731;-0.9162;-2.4571;
2366338203531;-8.5113;-0.4896;-2.1314;
2366348311500;-8.4224;-1.7641;-0.6532;
2366358419469;-10.7438;-0.5136;-1.8990;
2366368515198;-10.1713;-0.6550;-1.9564;
2366378623167;-10.0756;-0.6431;-1.0774;
2366388731135;-9.5028;0.7319;-1.9684;
2366398842385;-9.9006;-0.4083;-1.5203;
2366408950354;-9.1268;0.1140;-1.9636;
2366419058323;-8.8992;-0.7268;-2.4978;
2366429165198;-10.1163;-0.4585;-3.0751;
2366439273167;-8.8992;-0.5279;-2.3973;
2366449381135;-10.2407;-0.6455;-2.3949;
2366459512073;-8.9758;0.2171;-2.1386;
2366469620042;-8.1924;-0.7029;-2.0210;
2366479728010;-11.2277;-0.4777;-2.5986;
2366489820614;-10.6122;0.2602;-1.2835;
2366499928583;-9.1723;-0.8417;-0.0401;
2366510036552;-9.6849;0.3153;-0.8139;
2366520145510;-8.8059;0.2243;-1.7767;
2366530253479;-10.0514;-0.5351;-2.7565;
2366540361448;-10.0633;0.2483;-2.1290;
2366550462281;-7.8117;0.1140;-2.4715;
2366560570250;-10.7964;0.4783;-3.1854;
2366570678219;-10.7677;0.6649;-1.7456;
2366580788323;-8.2765;0.9141;-1.4055;
2366590896344;-10.0322;0.9117;-2.5193;
2366601004312;-9.7854;0.0852;-1.5227;
2366611133531;-9.9389;0.5501;-1.6929;
2366621241552;-10.7270;0.1881;-0.9960;
2366631349521;-9.8408;0.1068;0.2976;
2366641442281;-8.9112;1.1154;-0.4543;
2366651550302;-7.8882;0.3392;-0.8665;
2366661658271;-10.2885;-0.7268;-2.0474;
2366671760406;-12.3823;0.2435;-2.0067;
2366681868427;-9.9987;-0.4561;-0.7277;
2366691976396;-8.0058;-0.7460;-1.3552;
2366702096552;-9.1579;-0.4585;-1.4749;
2366712204573;-10.1378;-1.4216;-1.1372;
2366722312542;-9.2536;-0.3867;-1.3792;
2366732415719;-10.0561;0.2937;-1.7264;
2366742523739;-11.8193;-0.4920;-1.9995;
2366752631708;-11.6563;0.0948;-0.5791;
2366762738323;-7.5817;-0.6168;1.1121;
2366772846344;-8.3818;-1.8598;-1.3624;
2366782954312;-10.7677;-0.6048;-2.4284;
2366793063375;-8.4945;-0.0945;-1.3265;
2366803171396;-8.7532;-0.3003;-2.5624;
2366813279364;-9.4047;0.1355;-3.4777;
2366823390042;-9.4023;0.3488;-2.9028;
2366833498062;-10.4300;0.2052;-2.5600;
2366843606031;-10.0995;1.0723;-2.2582;
2366853724208;-7.9074;0.7537;-0.9215;
2366863832229;-9.5940;0.2674;-2.2104;
2366873940198;-10.3798;0.9165;-2.5696;
2366884054364;-8.7915;0.2195;-1.0989;
2366894162385;-9.3520;-0.4202;-2.0498;
2366904270354;-10.0202;-0.3652;-2.3590;
2366914361292;-8.9399;-0.1711;-1.7503;
2366924469312;-8.0728;-0.5088;-2.6967;
2366934577281;-9.7519;-0.3508;-3.4274;
2366944691969;-9.1292;-0.4346;-2.4452;
2366954799989;-9.5773;-0.7675;-2.9746;
2366964907958;-11.0312;-0.9544;-3.4633;
2366975003739;-10.0274;-0.7196;-1.3744;
2366985111760;-10.3367;-1.9845;-0.5575;
2366995219729;-9.3497;-2.3821;-1.5781;
2367005333114;-9.5557;-2.1497;-1.4629;
2367015441135;-11.2205;-1.6131;-1.4007;
2367025549104;-9.0000;-1.5054;-1.6618;
2367035647177;-8.1781;-1.1916;-2.2606;
2367045755198;-11.1607;-0.0176;-3.2883;
2367055863167;-10.0780;0.1475;-3.4657;
2367065981292;-7.6439;-0.3748;-2.6680;
2367076089312;-8.5831;0.0829;-2.9865;
2367086197281;-10.3869;0.1642;-3.4848;
2367096303323;-10.1450;0.2841;-3.0033;
2367106411344;-9.1747;-0.0631;-2.8164;
2367116519312;-10.0418;-0.5830;-2.5720;
2367126640302;-8.6237;-0.0730;-2.2439;
2367136748323;-8.7963;-0.0921;-2.2630;
2367146856292;-10.5592;-0.1089;-3.5806;
2367156971969;-9.0861;0.1044;-3.2524;
2367167079989;-8.1494;0.5524;-2.6154;
2367177187958;-9.6802;0.6745;-3.7340;
2367187292489;-9.3353;0.7394;-3.3984;
2367197400510;-8.7580;0.6362;-2.0474;
2367207508479;-8.6285;0.0565;-3.2501;
2367217602073;-9.4645;0.1164;-3.9111;
2367227710042;-9.3975;0.5859;-3.4490;
2367237818062;-8.7963;0.2506;-4.0549;
2367247981917;-9.0957;0.3607;-4.3472;
2367258089937;-9.8169;0.5716;-2.8283;
2367268197906;-9.7807;0.0374;-2.0426;
2367278256031;-9.6969;0.1834;-1.1659;
2367288364052;-10.0851;1.6352;-0.8306;
2367298472021;-9.3640;1.1201;-1.4821;
2367308588010;-9.7113;0.8518;-2.2367;
2367318695979;-9.8575;1.6902;-1.9923;
2367328803948;-9.2970;1.4004;-2.6297;
2367338919781;-10.9259;1.1800;-2.9339;
2367349027802;-8.9040;1.7142;-1.6020;
2367359135771;-7.3493;0.5333;-2.7852;
2367369210510;-10.8467;-0.0248;-3.3864;
2367379318531;-10.0298;0.5596;-2.0617;
2367389426500;-8.8729;-0.1208;-2.1075;
2367399552906;-9.6156;-0.2261;-2.2056;
2367409660927;-7.7423;-0.3290;-1.6570;
2367419768896;-10.0298;-1.2156;-2.5696;
2367429870823;-10.5688;-0.4035;-2.6369;
2367439978844;-7.1722;0.0326;-3.3003;
2367450086812;-9.4286;-0.7531;-5.0755;
2367460198375;-10.7964;-0.5758;-4.1578;
2367470306396;-9.8121;-1.3591;-3.1014;
2367480414364;-10.1330;-1.6756;-2.7135;
2367490522489;-8.8011;-1.4719;-1.4366;
2367500630510;-9.6467;-1.6466;-2.1936;
2367510738479;-10.7988;-1.7809;-2.2606;
2367520840406;-9.1795;-1.1725;-1.7360;
2367530948427;-8.1685;-1.1124;-3.5542;
2367541056396;-11.4553;-0.8393;-4.1770;
2367551168948;-10.1904;-0.7364;-2.4045;
2367561276969;-7.8141;-0.9999;-2.9674;
2367571384937;-10.3391;-0.6694;-3.2213;
2367581510094;-10.0346;-0.4561;-1.8559;
2367591618167;-9.8192;-0.5327;-2.7996;
2367601726239;-10.6887;-0.0969;-2.3901;
2367611833323;-7.4285;0.6434;-1.8823;
2367621941396;-7.9938;0.6266;-3.7819;
2367632049417;-9.8456;1.2159;-3.8345;
2367642145042;-8.8633;1.4650;-3.9015;
2367652253062;-10.2933;0.7104;-4.2921;
2367662361083;-8.6046;0.7896;-2.6680;
2367672464677;-7.2105;0.4660;-3.0464;
2367682572750;-10.4204;0.4134;-4.5748;
2367692680823;-9.2755;0.8686;-3.2859;
2367702790198;-8.5089;0.3296;-3.4131;
2367712898271;-10.0394;0.3894;-3.2668;
2367723006344;-8.4488;0.6218;-2.5289;
2367733119781;-9.0431;0.3248;-3.8201;
2367743227854;-9.4071;0.4038;-3.8273;
2367753335927;-9.1795;0.2387;-4.0119;
2367763454781;-10.0708;-0.3099;-4.1387;
2367773562854;-9.5773;-0.0945;-3.6380;
2367783670927;-9.0861;-0.4059;-3.9039;
2367793772281;-8.5424;-0.5662;-3.4657;
2367803880354;-9.8432;-0.1687;-3.6021;
2367813988427;-9.4143;0.2865;-3.9832;
2367824099208;-8.7051;0.0829;-3.7579;
2367834207281;-9.7161;-0.1783;-3.7819;
2367844315354;-8.8346;-0.0706;-3.1496;
2367854406448;-8.1374;-0.4418;-3.3290;
2367864514521;-9.8910;-0.5901;-3.4561;
2367874622594;-9.3305;-0.1902;-3.2142;
2367884751239;-9.1125;-0.2429;-3.8201;
2367894859312;-9.4190;-0.1759;-3.5064;
2367904967385;-9.9724;-0.5638;-3.8728;
2367915036239;-9.3209;-0.3413;-3.1400;
2367925144312;-8.0991;-0.3461;-2.6584;
2367935252333;-8.9662;0.1810;-4.0262;
2367945394260;-9.7184;0.4325;-3.4633;
2367955502333;-10.2981;0.4831;-3.7795;
2367965610406;-8.8155;0.6027;-2.8068;
2367975700406;-9.1125;-0.0993;-2.4667;
2367985808479;-9.4478;0.5189;-3.3601;
2367995916552;-9.5291;0.6553;-3.6428;
2368006043948;-10.4300;0.4902;-3.7364;
2368016152021;-9.0048;0.6075;-3.1181;
2368026260042;-9.0479;0.2459;-2.9554;
2368036370719;-9.4238;0.4926;-2.6512;
2368046478792;-8.7290;0.3009;-3.0511;
2368056586864;-9.0742;0.4325;-3.4083;
2368066683114;-9.2731;0.4014;-3.7005;
2368076791187;-8.9638;0.1475;-3.8297;
2368086899208;-8.8322;0.3368;-3.6523;
2368096999260;-9.4454;0.0182;-4.0047;
2368107107333;-9.5533;0.0111;-3.7890;
2368117215406;-9.0694;-0.7603;-3.8201;
2368127338010;-9.0814;-0.8082;-3.5590;
2368137446083;-8.6548;-0.7388;-4.1674;
2368147554104;-9.2225;-0.4561;-4.2323;
2368157664052;-8.5831;-0.6168;-4.2873;
2368167772125;-9.5267;-1.1148;-4.8096;
2368177880146;-9.4549;-0.7005;-4.2754;
2368188014469;-8.1999;-0.8584;-4.0119;
2368198122489;-9.2465;-0.5782;-3.9302;
2368208230562;-9.4143;-0.6742;-3.4131;
2368218296135;-8.8513;0.3009;-4.0310;
2368228404208;-9.2034;-0.5303;-4.1530;
2368238512281;-9.7256;0.0781;-3.8824;
2368248616708;-9.6802;-0.3748;-3.8800;
2368258724781;-9.8312;0.0637;-4.2562;
2368268832854;-8.9471;0.1570;-3.5423;
2368278955823;-9.1962;0.4110;-3.6718;
2368289063896;-8.4392;0.0422;-3.4370;
2368299171969;-7.9484;0.7657;-4.0717;
2368309279469;-8.4706;0.4854;-4.6178;
2368319387542;-10.2168;0.7801;-5.3557;
2368329495614;-9.7400;0.5740;-4.3352;
2368339603635;-8.4826;0.6482;-3.6667;
2368349711708;-8.9279;0.4807;-3.6595;
2368359819781;-9.9461;0.1211;-3.2261;
2368369932698;-8.9734;0.5166;-3.0368;
2368380040771;-9.2584;0.3894;-2.3037;
2368390148844;-8.4583;0.5644;-2.4069;
2368400259364;-9.5988;0.9021;-3.3242;
2368410367437;-9.8504;0.8279;-3.6284;
2368420475510;-8.8513;1.0484;-3.8560;
2368430568583;-8.3865;0.3272;-3.9999;
2368440676656;-9.3712;0.6434;-4.9675;
2368450784729;-9.5988;0.8255;-4.6992;
2368460908635;-8.9758;1.1895;-4.0238;
2368471016708;-8.4993;0.2435;-3.7149;
2368481124781;-8.9542;0.5261;-3.1496;
2368491232073;-8.3459;0.6123;-3.2477;
2368501340146;-9.5219;0.7104;-3.7938;
2368511448219;-9.7137;0.1834;-3.3960;
2368521566969;-8.6501;-0.2716;-3.0296;
2368531675042;-8.3746;-1.1486;-3.9999;
2368541783114;-10.6170;-0.4777;-4.0382;
2368551874364;-10.7462;-0.6024;-3.2907;
2368561982437;-9.6419;-0.7531;-3.2859;
2368572090510;-7.6872;-1.1219;-3.3625;
2368582216864;-9.3975;-1.0071;-3.5614;
2368592324937;-10.9092;-0.8874;-4.3113;
2368602433010;-9.3185;-0.2668;-3.2788;
2368612538531;-9.1603;-0.7125;-3.7603;
2368622646604;-10.2359;-0.5686;-2.7996;
2368632754677;-9.9030;-0.3389;-3.0679;
2368642859260;-8.1446;-0.5375;-2.7182;
2368652967333;-9.3760;-0.7675;-3.8512;
2368663075406;-8.7844;-1.0310;-3.9592;
2368673163792;-9.0120;-0.1280;-4.6083;
2368683271864;-9.0646;-0.5997;-4.6322;
2368693379937;-8.7939;-0.6263;-4.1698;
2368703493635;-9.0455;-0.6239;-4.3256;
2368713601708;-8.9088;-0.8584;-3.6790;
2368723709833;-8.6166;-0.8994;-3.8632;
2368733813323;-9.0263;-1.2443;-3.5925;
2368743921396;-9.0024;-1.1677;-2.8884;
2368754029469;-8.4416;-1.3543;-2.9100;
2368764150719;-8.7580;-1.1916;-3.6476;
2368774258792;-9.4478;-1.5580;-4.1339;
2368784366864;-9.8719;-0.4418;-3.5638;
2368794460354;-11.4817;-0.5877;-2.8307;
2368804568375;-11.2277;0.1953;-2.3518;
2368814676448;-9.6802;-0.2381;-0.9885;
2368824793219;-6.7409;-0.7507;-1.7623;
2368834901292;-7.0666;0.0039;-3.5997;
2368845009364;-9.1555;0.8662;-7.2936;
2368855106344;-10.9403;1.1201;-6.8336;
2368865214417;-10.7246;1.2374;-4.9938;
2368875322489;-8.5735;0.1092;-2.9794;
2368885447177;-8.7389;-0.0248;-2.8116;
2368895555250;-9.6897;-0.2548;-3.0320;
2368905663323;-10.0947;0.0398;-2.8092;
2368915777958;-9.0718;0.0972;-3.0870;
2368925886031;-9.8671;0.1235;-2.8020;
2368935994052;-8.7700;0.3846;-2.5600;
2368946095458;-8.3530;0.2818;-2.8837;
2368956203531;-8.8466;0.5572;-4.2299;
2368966311604;-9.7878;0.5166;-5.2935;
2368976433167;-9.3305;-0.1854;-4.0717;
2368986541187;-8.9351;-0.1352;-2.8092;
2368996649260;-8.2286;-0.5375;-3.4394;
2369006736031;-10.1498;-0.2429;-3.6428;
2369016844104;-11.0839;-0.4298;-2.1553;
2369026952177;-9.4358;-0.2118;-2.0883;
2369037049208;-8.7652;0.0374;-1.9684;
2369047157281;-9.0646;-0.2524;-2.5361;
2369057265302;-8.7820;-0.2931;-3.4681;
2369067380094;-8.0752;-0.0105;-5.1712;
2369077488167;-9.3951;-0.3604;-6.8384;
2369087596239;-9.7400;0.2171;-6.6613;
2369097715823;-7.9412;-0.4681;-4.5604;
2369107823948;-6.7433;0.0159;-3.0942;
2369117932021;-7.2033;-0.2333;-2.6536;
2369128029156;-7.8165;-0.3939;-4.1052;
2369138137229;-8.7939;-0.2046;-4.6035;
2369148245302;-8.5567;-0.2309;-4.8790;
2369158377177;-10.0585;-0.7340;-3.6260;
2369168485250;-9.2536;-0.3867;-2.8618;
2369178593323;-10.5855;-0.6479;-3.6236;
2369188669781;-12.4205;-0.8755;-1.6738;
2369198777854;-11.0767;-0.1711;-0.5097;
2369208885927;-10.0514;-0.8850;-0.2246;
2369219022281;-8.4969;-0.6383;-0.6126;
2369229130354;-8.8609;-0.5207;-3.0248;
2369239238427;-12.1355;-0.0607;-4.0238;
2369249331344;-8.8513;0.3631;-2.8618;
2369259439417;-8.3554;0.6817;-4.7665;
2369269547489;-10.1498;0.1690;-4.8072;
2369279655302;-10.7868;-0.0320;-4.2251;
2369289763375;-8.6836;-0.0248;-3.8824;
2369299871448;-8.5208;-0.5255;-2.8546;
2369310018896;-10.4252;-0.0488;-3.0823;
2369320126917;-10.1593;0.2291;-2.3782;
2369330234989;-8.7820;0.4564;-1.3504;
2369340305042;-9.0215;0.2698;-2.2152;
2369350413114;-10.1067;-0.1352;-2.7517;
2369360521187;-9.2130;0.5357;-1.2138;
2369370637385;-7.5888;1.1201;-2.0788;
2369380745458;-9.1220;0.0087;-3.3075;
2369390853531;-9.5004;-0.0826;-3.3817;
2369400950458;-7.7901;0.7418;-3.7938;
2369411058531;-7.3325;0.0805;-4.3831;
2369421166604;-8.9183;0.4516;-5.2621;
2369431269052;-8.1302;0.0446;-6.4552;
2369441377125;-9.9939;0.0206;-6.1774;
2369451485198;-10.1569;-0.1328;-5.7269;
2369461605614;-9.4621;-0.7890;-5.4849;
2369471713687;-9.6347;-1.1797;-2.8092;
2369481821760;-10.6313;-0.0969;-1.8033;
2369491943635;-9.9197;0.0254;-1.6259;
2369502051708;-9.0311;-0.9760;-1.2090;
2369512159781;-9.0239;-0.5136;-2.0306;
2369522231969;-10.0418;0.0254;-4.6322;
2369532340042;-11.5271;-0.3437;-4.4767;
2369542448114;-9.5438;0.4711;-4.1363;
2369552576239;-8.1446;-0.3485;-4.1148;
2369562684312;-8.7796;-0.4178;-3.7364;
2369572792385;-8.2334;-0.7029;-3.5160;
2369582880406;-8.3746;-0.5160;-3.6957;
2369592988427;-9.2154;-1.0789;-4.5485;
2369603096448;-10.6265;-0.7555;-3.8800;
2369613236552;-8.3124;-0.7675;-2.4906;
2369623344573;-8.2741;-0.8874;-3.8345;
2369633452594;-9.4214;-0.8201;-3.4609;
2369643548531;-9.6108;-1.0765;-3.2668;
2369653656552;-9.8527;-1.2610;-1.6953;
2369663764573;-6.9805;-0.7866;-3.0655;
2369673870719;-9.6802;-1.2084;-4.0406;
2369683978739;-10.2670;-0.8970;-4.4237;
2369694086760;-10.9786;-0.3338;-2.7230;
2369704201969;-8.9160;-1.3711;-2.1553;
2369714309989;-8.1948;-1.0023;-3.2907;
2369724418010;-8.6118;-0.6407;-3.0870;
2369734517281;-10.6050;-0.5542;-3.7436;
2369744625302;-10.1426;-0.3075;-3.0631;
2369754733323;-7.3397;0.1068;-2.5887;
2369764843739;-7.9265;0.1116;-3.7340;
2369774951760;-8.8801;-0.2142;-5.1162;
2369785059781;-7.9193;0.0135;-4.2323;
2369795158323;-8.7099;0.0948;-5.0492;
2369805266344;-9.0120;0.0876;-3.5495;
2369815374364;-9.1771;0.2865;-3.5279;
2369825491656;-8.6405;0.3392;-2.5504;
2369835599677;-8.0824;-0.1113;-3.7866;
2369845707646;-10.1689;-0.8201;-3.7866;
2369855807802;-9.9676;-0.2764;-2.9889;
2369865915823;-9.3449;-0.0392;-1.9660;
2369876023792;-8.3387;-0.6407;-3.5231;
2369886150198;-11.5439;-0.4178;-2.4835;
2369896258219;-7.9388;0.0781;-1.7121;
2369906366187;-9.5940;0.9045;-4.0047;
2369916480094;-8.0704;0.2650;-3.4178;
2369926588114;-7.9699;0.5764;-4.3974;
2369936696135;-9.9844;0.3823;-5.8588;
2369946776969;-10.7414;0.6817;-4.6585;
2369956884989;-9.8312;0.9045;-2.7063;
2369966993010;-9.2707;0.7128;-1.0965;
2369977108219;-7.9914;-0.2812;-1.9373;
2369987216239;-9.0144;0.0063;-2.2726;
2369997324260;-9.3138;-0.3867;-1.9469;
2370007431344;-9.7854;0.1187;-2.2391;
2370017539364;-8.5902;0.4854;-2.2056;
2370027647333;-8.6405;0.2674;-2.3471;
2370037760614;-8.5759;0.4301;-4.6178;
2370047868635;-8.9136;0.1499;-4.9962;
2370057976656;-8.3435;0.3464;-4.1052;
2370068067854;-7.7734;-0.0730;-3.9087;
2370078175875;-9.8910;-0.5710;-4.4620;
2370088283896;-10.7581;-0.6168;-3.1591;
2370098422906;-10.1019;-0.3604;-1.9851;
2370108530927;-8.7194;-1.0932;-1.8559;
2370118638948;-7.1746;-1.6705;-2.8717;
2370128728114;-9.0574;-1.3017;-3.4011;
2370138836135;-10.5185;-0.7053;-3.9855;
2370148944156;-8.5065;-0.0897;-3.9087;
2370159074781;-8.0560;-0.1400;-3.5303;
2370169182802;-9.4310;-0.2453;-3.6284;
2370179290823;-9.6562;-1.3807;-3.7005;
2370189430823;-7.7495;-0.5566;-4.3639;
2370199538844;-10.4492;-1.1100;-4.0143;
2370209646864;-13.5272;-1.3783;-2.2056;
2370219699208;-8.9925;-1.0669;-0.0640;
2370229807229;-6.4319;-1.0238;-2.1147;
2370239915250;-7.6487;-1.1028;-4.5197;
2370250036344;-9.4478;-0.4920;-4.2754;
2370260144364;-9.8288;-0.2524;-4.2873;
2370270252385;-9.0407;-0.4226;-3.7029;
2370280365302;-9.1149;-0.8417;-3.2405;
2370290473323;-8.9877;-0.2907;-2.8259;
2370300581344;-8.4682;-0.3963;-2.9985;
2370310698114;-8.1015;-0.5590;-4.6920;
2370320806135;-8.4754;-0.0176;-4.6729;
2370330914156;-9.1364;0.1164;-3.8967;
2370341017802;-9.1101;0.1427;-3.4777;
2370351125823;-8.2430;0.2243;-2.2510;
2370361233844;-8.4392;0.4205;-2.9004;
2370371338844;-10.5688;0.1020;-1.8224;
2370381446864;-10.6528;0.2171;-0.9431;
2370391554885;-9.2441;-0.0344;-2.3013;
2370401658948;-8.3985;-0.3170;-3.5375;
2370411766969;-8.1805;0.5166;-3.9497;
2370421874989;-7.3158;0.5883;-4.9268;
2370431974052;-10.5042;0.3631;-6.7594;
2370442082073;-12.2411;0.2818;-4.0669;
2370452190094;-9.4143;0.7199;-0.5910;
2370462302385;-8.7266;-0.6574;0.4008;
2370472410406;-9.1029;-0.4872;-1.8751;
2370482518427;-10.2359;-0.4131;-2.4236;
2370492630198;-9.6299;-0.3700;-2.1745;
2370502738219;-8.6357;-0.3338;-2.4308;
2370512846239;-9.2321;0.3440;-3.8871;
2370522957594;-9.7208;0.2698;-4.4862;
2370533065614;-8.9040;0.3129;-3.8106;
2370543173583;-9.2082;0.0278;-2.2319;
2370553274677;-8.4033;-0.4705;-2.5986;
2370563382698;-8.5352;-0.2285;-3.2812;
2370573490667;-9.7232;-0.2548;-2.7470;
2370583617177;-9.5797;-0.5542;-3.0990;
2370593725302;-10.1163;-0.3580;-4.3974;
2370603833375;-10.1593;-0.8850;-4.6202;
2370613941708;-9.7089;-0.5447;-3.0488;
2370624049833;-7.9531;-0.3915;-1.3624;
2370634157906;-7.6777;-0.9353;-2.8813;
2370644228531;-10.2861;-0.7723;-3.9544;
2370654336656;-11.2708;-0.6885;-3.7077;
2370664444729;-10.4276;-0.2740;-3.7890;
2370674569260;-7.5912;-0.5853;-2.9913;
2370684677333;-8.6572;-0.8731;-3.4872;
2370694785406;-9.5219;-0.3147;-3.7938;
2370704893114;-8.7580;-0.3485;-4.7279;
2370715001239;-9.7998;0.2626;-4.0262;
2370725109312;-9.8647;-0.2070;-2.9530;
2370735217073;-7.7303;-0.1998;-2.8813;
2370745325198;-6.3553;-0.1639;-3.5399;
2370755433271;-7.4668;-0.1807;-5.5905;
2370765546552;-8.5711;0.1905;-5.3103;
2370775654677;-8.3291;0.2483;-5.6432;
2370785762750;-7.5027;0.0589;-5.6767;
2370795846864;-7.7351;-0.0440;-5.3151;
2370805954989;-8.2645;-0.0897;-3.8871;
2370816063062;-10.0657;-0.7723;-4.0884;
2370826188635;-10.4252;-0.5327;-2.3734;
2370836296760;-9.4597;-0.6670;-0.7253;
2370846404833;-8.0130;-0.9305;-0.8785;
2370856525823;-9.4741;-0.3461;-2.4069;
2370866633948;-11.5247;-0.2189;-3.4896;
2370876742021;-11.1464;0.1834;-2.6871;
2370886842906;-9.0431;0.0996;-2.1242;
2370896951031;-10.5616;0.1116;-1.8153;
2370907059104;-10.2287;-0.1950;-1.4701;
2370917170146;-7.9843;0.2841;-1.6570;
2370927278219;-7.8906;0.0733;-3.3529;
2370937386292;-9.0933;0.2339;-3.9039;
2370947484677;-10.0298;0.6697;-2.7757;
2370957592802;-9.7926;0.1259;-1.6307;
2370967700875;-8.2597;0.1546;-1.1779;
2370977808010;-9.3281;-0.3365;-2.0955;
2370987916135;-10.6409;-0.6359;-1.7695;
2370998024208;-10.1306;-0.5088;-1.3600;
2371008131604;-8.2430;-0.4657;-2.2199;
2371018239677;-7.0164;-1.0262;-3.4657;
2371028347750;-8.3267;-0.0176;-5.2887;
2371038459260;-10.0035;-0.1017;-5.2935;
2371048567385;-10.0490;0.2578;-3.9664;
2371058675458;-9.8145;0.1857;-3.1301;
2371068779989;-8.8633;-0.3772;-3.1567;
2371078888114;-9.1962;-0.4681;-2.7230;
2371088996187;-9.6347;-0.8177;-2.9554;
2371099112281;-10.5018;-0.7101;-3.0176;
2371109220406;-9.6156;-0.4513;-2.5887;
2371119328479;-8.7171;0.0494;-2.1625;
2371129434989;-9.9580;0.0517;-1.5565;
2371139543114;-9.4645;-0.1041;-2.2175;
2371149651187;-9.5291;-0.5423;-4.1841;
2371159746031;-9.4525;-0.1400;-5.0010;
2371169854156;-7.8643;0.3153;-4.6777;
2371179962229;-7.0211;-0.0631;-5.0204;
2371190092906;-10.3268;0.1762;-4.9340;
2371200201031;-11.6539;0.5237;-3.6981;
2371210309104;-10.6481;0.2626;-1.6546;
2371220419260;-8.2310;-0.2142;-0.5671;
2371230527385;-7.8763;-0.4298;-2.3157;
2371240635458;-8.7844;-0.4322;-4.0884;
2371250736969;-7.8595;0.4277;-4.3807;
2371260845094;-9.5916;0.5716;-3.8130;
2371270953167;-10.2814;0.0589;-3.4896;
2371281074469;-8.7509;0.0398;-2.8379;
2371291182594;-7.7973;0.0015;-3.4035;
2371301290667;-6.8919;0.0135;-3.9640;
2371311376448;-8.7748;-0.0440;-4.3591;
2371321484573;-11.4458;-0.1328;-4.2778;
2371331592646;-10.1402;-0.5351;-2.5935;
2371341689156;-7.8069;-0.2692;-1.5685;
2371351797281;-7.2655;-0.4011;-2.5337;
2371361905354;-7.4070;-0.1639;-3.9927;
2371372034573;-9.0503;0.0613;-4.9795;
2371382142698;-9.8743;0.1403;-4.5293;
2371392250771;-9.0096;0.0900;-3.9039;
2371402359573;-9.1436;-0.0559;-3.5136;
2371412467698;-9.3760;-0.4920;-2.3949;
2371422575771;-10.3220;-0.6909;-1.4127;
2371432673219;-10.3798;-0.6335;0.2210;
2371442781344;-8.4583;-1.2778;-0.1741;
2371452889417;-9.2874;-0.8922;-3.6069;
2371462994260;-11.6037;-0.9329;-3.6742;
2371473102385;-10.6409;-0.4418;-1.0487;
2371483210458;-8.6979;-0.0655;-0.3849;
2371493334156;-5.6653;-0.7531;-1.7456;
2371503442281;-7.2200;-0.6407;-5.6121;
2371513550354;-10.4109;-0.0802;-7.4375;
2371523668531;-10.3053;-0.2620;-4.9842;
2371533776656;-8.9758;-0.1232;-1.7503;
2371543884729;-7.5577;-0.3099;-0.4857;
2371553976344;-8.7027;-1.0286;-1.6259;
2371564084469;-10.9235;-1.1964;-2.7541;
2371574192542;-9.8791;-1.6226;-1.7886;
2371584296864;-8.6836;-1.4862;-1.9708;
2371594404937;-11.0145;-1.0095;-4.0071;
2371604513010;-9.1795;-0.9520;-3.2381;
2371614636552;-7.0642;-0.6981;-3.5590;
2371624744625;-8.1637;-0.4178;-5.1999;
2371634852698;-9.2489;-0.2668;-4.7231;
2371644942385;-8.5352;-0.5566;-3.4394;
2371655050458;-9.0215;-0.2405;-3.6380;
2371665158479;-9.7256;-0.5542;-3.9927;
2371675282333;-10.2431;-0.4490;-2.3758;
2371685390354;-9.5557;-0.7986;-0.9191;
2371695498427;-8.6166;-0.4705;-2.0883;
2371705600458;-8.8705;-0.9832;-2.4141;
2371715708531;-8.3100;-0.4825;-2.9267;
2371725816604;-7.4883;-0.4705;-4.2730;
2371735930198;-8.5089;-0.1472;-6.4050;
2371746038271;-10.5688;0.0876;-6.1415;
2371756146292;-9.0526;-0.2548;-2.6345;
2371766248531;-7.0427;0.2100;-3.2764;
2371776356604;-8.8777;-0.1041;-5.1903;
2371786464625;-9.2058;-0.2740;-2.8618;
2371796577385;-7.5936;-0.0129;-0.3778;
2371806685458;-9.4286;0.0398;-1.2739;
2371816793479;-11.2349;-0.2094;-2.3133;
2371826887281;-12.9045;-0.0921;-2.1936;
2371836995354;-11.8600;-0.2835;-0.9168;
2371847103427;-8.5161;-0.3147;-1.0822;
2371857212125;-7.2248;-0.8803;-3.1301;
2371867320146;-9.2201;0.3535;-4.8024;
2371877428167;-8.5328;0.4469;-3.9616;
2371887530094;-8.7987;0.7992;-3.1376;
2371897638167;-8.5926;0.8949;-2.8187;
2371907746187;-8.7580;0.5596;-3.0846;
2371917869000;-10.2766;0.3344;-4.2897;
2371927977021;-9.4741;-0.1735;-2.6824;
2371938085094;-6.9852;-0.1472;-1.8344;
2371948198167;-8.9375;-0.4083;-2.6465;
2371958306187;-10.6576;-0.0440;-3.0488;
2371968414260;-9.8791;-0.1328;-2.4787;
2371978515406;-8.4754;0.2698;-3.0583;
2371988623479;-7.3516;-0.1065;-4.7402;
2371998731500;-8.7987;-0.4131;-7.4997;
2372008816969;-9.5629;-0.0129;-6.0239;
2372018925042;-9.0168;0.6505;-2.3276;
2372029033062;-8.6836;-0.3365;-1.4988;
2372039158739;-7.3756;0.0996;-2.1147;
2372049266812;-5.1838;0.3823;-2.9506;
2372059374833;-9.6491;-0.0368;-4.4309;
2372069485927;-11.3426;0.1475;-3.6308;
2372079594000;-4.1297;-0.2644;-2.0836;
2372089702021;-7.4596;0.4926;-5.5065;
2372099794104;-16.7300;-0.3027;-3.9568;
2372109902073;-18.5530;-0.6574;1.9050;
2372120010146;-9.1340;-0.1113;3.9939;
2372130118167;-7.4333;-1.5365;-1.1348;
2372140250614;-10.9714;-1.2467;-4.2514;
2372150358687;-11.7021;-1.0645;-1.3026;
2372160466708;-9.9221;-0.5614;1.5697;
2372170572958;-9.3497;1.0101;-0.2701;
2372180681031;-11.2229;0.6266;-2.4595;
2372190789052;-12.2818;-0.4250;-2.8669;
2372200903792;-11.7069;0.5381;-1.1587;
2372211011864;-7.4333;-0.6144;1.2655;
2372221119885;-4.5610;-0.8010;-2.3638;
2372231210719;-6.9470;0.1020;-7.5715;
2372241318792;-9.3209;0.3990;-6.0479;
2372251426812;-5.8594;0.7442;-2.8669;
2372261540302;-7.1985;-0.2692;-11.1817;
2372271648375;-16.4593;-1.1291;-13.3950;
2372281756396;-14.0040;-1.0860;-0.7851;
2372291857073;-5.3348;-1.4384;2.8705;
2372301965146;-6.9876;-2.4514;-4.7689;
2372312073167;-12.6338;-2.0276;-5.9330;
2372322184417;-12.5716;-0.8608;1.8165;
2372332292489;-12.2794;-0.4657;1.7518;
2372342400510;-10.8371;-1.0071;-2.5193;
2372352488323;-7.5673;-0.5877;-2.7254;
2372362596396;-8.7628;0.1786;-4.7088;
2372372704417;-15.9012;0.7466;-5.1257;
2372382831864;-11.1535;0.0350;0.0389;
2372392939937;-5.4640;0.5070;1.6487;
2372403047958;-10.7773;-0.5925;-3.7220;
2372413165614;-11.7763;-0.4848;-2.8956;
2372423273687;-7.9340;-0.1663;-1.9014;
2372433381708;-11.5941;-0.4466;-7.5954;
2372443494989;-11.3809;-1.0023;-6.0864;
2372453603062;-6.1804;-0.5016;-1.8511;
2372463711135;-5.3922;-0.3389;-3.4274;
2372473815406;-6.5803;-0.6885;-7.5763;
2372483923479;-7.3516;-0.1017;-6.6012;
2372494031500;-8.4512;0.5524;-6.5605;
2372504142698;-12.7271;-0.4585;-6.3739;
2372514250771;-11.9560;0.1977;-1.0032;
2372524358792;-8.4057;-0.4753;0.2665;
2372534456135;-10.6481;-0.8058;-3.6260;
2372544564208;-10.7127;-1.4097;-3.1014;
2372554672281;-7.5888;-0.0730;-1.0463;
2372564790823;-9.4190;-0.1352;-4.4692;
2372574898896;-13.1943;0.2148;-4.6896;
2372584975406;-10.5592;0.5166;-3.3984;
2372595083427;-7.4309;0.2794;-2.9291;
2372605191500;-7.7877;0.8160;-2.8116;
2372615330198;-9.4597;0.1570;-1.6427;
2372625438271;-11.5176;1.2302;-1.3959;
2372635546292;-9.2106;0.8925;-0.9287;
2372645638635;-6.7241;0.7175;-1.4964;
2372655746708;-7.4022;0.5668;-5.2190;
2372665854729;-9.3832;0.7080;-7.2123;
2372675955614;-9.8456;0.5429;-5.7724;
2372686063687;-9.9772;0.8806;-3.6428;
2372696171760;-9.8839;0.1881;-3.0607;
2372706305198;-9.4095;0.5118;-1.2691;
2372716413271;-8.1733;0.3918;-0.6341;
2372726521292;-7.4189;-0.4609;-3.6619;
2372736612177;-11.0240;-0.0754;-3.7292;
2372746720250;-10.8876;0.2602;-0.9215;
2372756828271;-9.3162;0.3942;-1.2114;
2372766927906;-10.2694;0.0637;-3.5566;
2372777035979;-8.7147;-0.2668;-3.1134;
2372787144052;-8.2765;-0.1567;-2.4930;
2372797306396;-12.7056;-0.5734;-1.7049;
2372807414417;-11.7643;-1.3639;-0.1935;
2372817522437;-8.0776;-0.5064;-0.5456;
2372827581448;-7.5721;-0.2477;-3.7316;
2372837689521;-11.2277;-0.3051;-5.8612;
2372847797542;-11.2947;-1.1390;-2.2391;
2372857921239;-9.3209;-1.3878;-0.7851;
2372868029260;-10.6648;-0.8034;-2.1458;
2372878137281;-7.6920;-1.0334;-1.8488;
2372888216604;-6.2163;-0.4561;-5.0444;
2372898324677;-8.4105;-0.1543;-5.9880;
2372908432750;-12.1068;-1.3304;-2.7805;
2372918556239;-15.4295;-1.0645;-1.3026;
2372928664312;-11.1102;-1.9965;3.3784;
2372938772333;-5.2798;-2.1664;0.7433;
2372948875042;-8.3626;-2.0922;-6.9894;
2372958983114;-11.3880;-1.4767;-6.6805;
2372969091135;-7.8212;-1.3280;-1.7264;
2372979269000;-5.8810;0.1427;-2.4284;
2372989377021;-7.5793;-0.7029;-6.3305;
2372999485094;-11.0360;-0.7531;-7.4542;
2373009544469;-10.9451;-0.8560;-4.5245;
2373019652542;-8.0297;0.7561;-1.5733;
2373029760562;-9.3520;-0.7866;-1.2568;
2373039854573;-8.4057;-1.0238;-0.9622;
2373049962646;-6.4630;-0.1687;-1.8511;
2373060070667;-6.9852;-0.7938;-5.5208;
2373070183635;-12.3057;-0.8755;-8.0913;
2373080291708;-12.8279;-0.1974;-4.3472;
2373090399729;-7.8380;0.0230;-0.6078;
2373100474052;-6.1588;-0.5925;-1.1755;
2373110582073;-10.7366;-1.0454;-2.7829;
2373120690094;-10.3292;-0.0416;-1.4557;
2373130798167;-9.2082;0.4564;0.5348;
2373140952489;-9.2225;0.1475;-1.9397;
2373151060562;-10.3822;-0.5925;-3.0655;
2373161168583;-9.2683;0.3033;-2.1410;
2373171272489;-8.7413;-0.4466;-3.2955;
2373181380562;-9.3568;-0.1759;-3.7220;
2373191488635;-10.3101;0.3655;-3.0703;
2373201597073;-9.9987;0.6960;-0.4184;
2373211705146;-7.3828;0.1379;-1.0941;
2373221813167;-7.1169;-0.0033;-4.2849;
2373231908739;-10.7486;-0.0897;-4.2778;
2373242016812;-10.6816;-0.0224;-2.2917;
2373252124833;-8.3435;0.4421;-3.4681;
2373262248375;-9.1173;0.1379;-4.9436;
2373272356448;-11.3234;-0.1807;-3.6500;
2373282464469;-11.5176;0.5405;-0.5982;
2373292559469;-8.4802;0.4110;0.0078;
2373302667542;-8.1541;-0.4537;-3.0009;
2373312775562;-10.8562;-1.1267;-4.2849;
2373322904208;-12.3559;0.7152;-2.8669;
2373333012281;-9.9676;1.1058;-0.2844;
2373343120302;-6.7983;-0.1950;-1.3504;
2373353221864;-7.5362;-0.3314;-4.7785;
2373363329937;-7.2320;-0.0200;-5.0827;
2373373437958;-0.7116;0.1953;-7.7560;
2373383534364;3.2841;0.9188;-12.3075;
2373393642437;-17.4368;0.2961;-12.2836;
2373403750510;-24.3694;1.3214;0.9876;
2373413868114;-12.9691;0.9930;13.6358;
2373423976187;-6.8871;0.7008;4.5664;
2373434084208;-15.7911;-2.1377;-6.7164;
2373444185302;-6.1086;-3.5294;-1.4462;
2373454293375;-0.1244;-3.0793;-1.7025;
2373464401396;-9.2970;-1.2993;-8.6614;
2373474517177;-15.1588;0.0254;-7.2338;
2373484625198;-11.1030;1.4267;-0.6245;
2373494733219;-7.8978;1.8796;-0.5264;
2373504828896;-9.4382;1.1058;-1.8296;
2373514936969;-11.7500;1.2999;2.7963;
2373525045042;-4.2185;2.3922;10.7252;
2373535163739;1.6002;1.5897;-5.8083;
2373545271812;-9.6538;-3.7618;-27.2339;
2373555379833;-12.0302;-3.5079;-18.3945;
2373565482594;-21.3703;0.3846;-0.5743;
2373575590667;-12.9858;1.1201;9.0796;
2373585698687;-4.2281;0.7872;2.7027;
2373595816656;-9.3138;-2.6264;-0.1214;
2373605924781;-9.4238;-4.5428;1.2751;
2373616032854;-7.1818;-2.0779;-4.5078;
2373626112125;-8.7987;-0.2189;-6.6757;
2373636220250;-8.5663;-0.4155;-3.0416;
2373646328375;-9.8719;0.0781;-3.6742;
2373656452698;-10.9666;-0.0583;-3.1711;
2373666560823;-9.7304;0.0685;-1.4462;
2373676668948;-11.4553;-0.8970;0.4367;
2373686771760;-10.7845;-0.4322;3.5195;
2373696879885;0.1654;-0.2955;2.1182;
2373706988010;-7.3469;-2.7389;-17.2540;
2373717081604;-18.5004;-5.2639;-16.8900;
2373727189729;-8.1661;-0.6718;0.8749;
2373737297802;-5.9384;0.8901;0.3335;
2373747416656;-8.9782;0.3727;-0.6173;
2373757524781;-11.1512;1.0579;2.4392;
2373767632906;-10.5114;0.9045;1.3158;
2373777755094;-7.3038;0.0254;-1.0199;
2373787863271;-8.4826;-1.5126;-6.7570;
2373797971344;-12.3200;-2.1257;-7.3271;
2373808056969;-7.2392;0.1714;-3.2620;
2373818165094;-7.1049;0.3703;-4.0717;
2373828273219;-12.0446;-1.1653;-3.7340;
2373838418635;-10.3268;-0.3628;-0.3586;
2373848526760;-6.8895;0.5309;-0.7684;
2373858634937;-10.2120;-1.1557;-2.4404;
2373868718323;-9.5916;-0.0344;-4.0669;
2373878826448;-7.7853;0.5070;-4.2754;
2373888934573;-8.6046;-0.3413;-3.3314;
2373899047073;-8.6740;-0.4035;-3.7316;
2373909155198;-12.4205;0.0206;-3.5973;
2373919263323;-11.6468;1.4339;-0.3275;
2373929368531;-6.0389;1.4291;0.9948;
2373939476656;-9.7472;-0.7842;-2.4858;
2373949584781;-13.3693;-1.5269;-4.2323;
2373959712958;-7.0762;-0.7866;-3.0296;
2373969821083;-6.4391;-1.0789;-4.5628;
2373979929156;-12.4445;-0.7412;-5.0157;
2373990001864;-9.8480;1.7166;-2.0306;
2374000109989;-6.9972;0.8064;1.1674;
2374010218114;-9.0574;-0.7747;-0.6987;
2374020339469;-11.0719;-1.5317;-2.8259;
2374030447594;-10.8706;-1.1028;-3.5160;
2374040555719;-7.4524;-0.4394;-2.2008;
2374050673427;-7.7949;-0.7579;-4.3831;
2374060781552;-11.3833;-1.5341;-5.2214;
2374070889677;-8.9016;-1.4264;-3.3266;
2374080987802;-7.7566;0.4325;-3.3577;
2374091095927;-11.8959;0.3200;-2.7948;
2374101204104;-11.3354;0.9811;-0.7011;
2374111316969;-8.3507;1.5443;0.5563;
2374121425146;-9.7711;-0.0105;-1.0726;
2374131533219;-12.0805;-1.7378;-2.7278;
2374141644208;-7.9866;0.6170;-3.3840;
2374151752333;-6.5396;-0.7747;-2.3638;
2374161860458;-8.3219;0.3511;-4.8048;
2374171964677;-11.2158;0.0111;-3.9855;
2374182072802;-10.4276;0.4902;-2.4141;
2374192180927;-8.2334;0.5907;-1.5108;
2374202298219;-8.9231;-0.4346;-3.1086;
2374212406344;-10.9666;0.1020;-3.3099;
2374222514469;-8.8633;1.1225;-2.5385;
2374232612698;-8.0441;-0.0129;-2.2008;
2374242720823;-9.8264;-1.2706;-4.0095;
2374252828948;-13.5177;-0.5542;-4.2514;
2374262939052;-10.3941;1.6113;-1.2667;
2374273047177;-5.6821;0.4902;0.8318;
2374283155302;-8.1781;-0.9185;-3.2644;
2374293278531;-11.0240;-1.4862;-5.1401;
2374303386656;-8.2262;-0.0511;-4.7040;
2374313494781;-8.7123;-1.1821;-3.7771;
2374323601969;-9.7807;-1.7210;-4.3256;
2374333710094;-9.3090;-0.8560;-2.5026;
2374343818219;-7.9986;-0.5088;0.1301;
2374353899364;-9.2465;-1.5006;-1.3074;
2374364007489;-12.3033;-1.0262;-3.4035;
2374374115614;-10.6217;0.2148;-2.0115;
2374384237958;-6.2402;-0.8512;-2.0474;
2374394346083;-8.8753;-1.9822;-4.5963;
2374404454208;-10.4731;-1.6298;-4.7545;
2374414564573;-9.5797;-0.5064;-2.2582;
2374424672698;-9.0120;0.5548;-1.3481;
2374434780823;-12.3655;-0.4681;-1.2185;
2374444882281;-10.9905;1.0531;-0.9191;
2374454990406;-7.9388;1.0460;-0.3969;
2374465098531;-8.0393;0.4998;-1.9349;
2374475169573;-9.3616;-0.6048;-4.6729;
2374485277750;-11.6061;1.1369;-5.7652;
2374495385823;-6.7170;1.4530;-1.9038;
2374505532281;-6.7098;0.4469;-3.2931;
2374515640406;-11.2301;-1.2706;-4.1052;
2374525748531;-11.3928;0.2913;-2.0812;
2374535844469;-7.4644;1.0890;0.8318;
2374545952594;-9.4741;-0.5925;-2.7135;
2374556060719;-11.3186;-0.9018;-4.5341;
2374566177073;-8.4344;0.2387;-3.6188;
2374576285198;-8.0201;-0.4777;-2.4141;
2374586393323;-9.9197;-0.3556;-3.2285;
2374596506187;-11.5199;-0.6239;-3.1229;
2374606614312;-9.8192;0.0063;-0.2462;
2374616722385;-7.0834;-0.0129;-0.1358;
2374626839312;-10.5712;-2.1784;-3.8082;
2374636947437;-10.1474;-0.9353;-3.2429;
2374647055510;-6.2306;-0.6909;-3.3577;
2374657150927;-8.7700;-1.6609;-5.7174;
2374667259000;-10.7103;-2.0252;-5.2744;
2374677367073;-8.9231;-0.3915;-2.6704;
2374687470927;-9.2803;1.2087;-0.8378;
2374697579052;-9.7854;0.0254;-0.7899;
2374707687125;-11.9366;-0.5112;-2.5911;
2374717802750;-9.3592;0.7370;-2.1529;
2374727910875;-6.7744;0.5907;-1.8129;
2374738018948;-9.5148;-0.6191;-4.9364;
2374748105198;-11.4529;-0.8803;-6.0239;
2374758213323;-6.9254;1.0316;-2.5959;
2374768321396;-7.2846;-0.7555;-2.6010;
2374778407489;-13.6520;0.1211;-3.4681;
2374788515614;-11.9680;0.8303;0.3793;
2374798623687;-7.9890;2.2388;1.3469;
2374808776604;-8.8394;0.1140;-1.1850;
2374818884729;-12.0900;-1.6322;-5.4730;
2374828992802;-9.0670;-1.0143;-4.5843;
2374839089781;-4.8006;-0.0583;-2.3109;
2374849197906;-9.2010;-0.5662;-3.9473;
2374859305979;-12.3823;-1.0071;-4.2203;
2374869410510;-8.2884;0.7872;-1.9158;
2374879518635;-7.0331;-0.5375;-2.2104;
2374889626708;-9.0383;-1.4121;-4.1674;
2374899740094;-8.3865;-0.5399;-2.4045;
2374909848219;-9.0120;-1.0119;-3.2788;
2374919956292;-13.0050;-1.3496;-4.4429;
2374930069364;-13.4626;0.4134;-1.9540;
2374940177489;-7.9866;1.1489;2.0345;
2374950285562;-6.1205;-0.2740;-0.2007;
2374960386864;-10.6457;-2.4514;-4.4189;
2374970494989;-11.4099;-1.7569;-4.2730;
2374980603062;-7.5386;0.5285;-3.0990;
2374990710614;-8.3052;-0.8536;-3.4561;
2375000818739;-11.2851;-1.6011;-4.0765;
2375010926812;-8.5161;0.2483;-0.8904;
2375021033739;-7.0068;0.5022;1.2009;
2375031141864;-9.8312;-0.9712;-1.2497;
2375041249937;-12.1092;-0.6407;-5.1138;
2375051355823;-9.1244;0.0015;-4.5054;
2375061463948;-6.6906;0.0278;-4.6083;
2375071572021;-8.5567;-1.3328;-5.0539;
2375081678219;-10.7797;-1.5173;-4.0167;
2375091786344;-9.6515;1.5706;-1.4486;
2375101894417;-9.3185;1.1847;-1.0702;
2375112016656;-12.6888;0.3703;-2.7876;
2375122124781;-10.1713;0.8495;-0.4328;
2375132232854;-6.3912;0.8614;0.0485;
2375142341656;-9.2513;-0.1376;-3.0105;
2375152449781;-12.3918;-0.7316;-5.4419;
2375162557854;-8.6620;0.7152;-3.3697;
2375172657906;-5.2917;0.3703;-1.1635;
2375182766031;-10.1234;-0.5806;-5.0010;
2375192874104;-11.8792;-0.8898;-3.3051;
2375202982906;-7.1411;0.6769;-1.3720;
2375213091031;-7.2033;-0.7220;-2.8522;
2375223199104;-11.7978;-1.3089;-5.9474;
2375233309573;-9.9485;-0.5518;-3.4346;
2375243417698;-8.2071;1.0316;-0.6102;
2375253525771;-11.8863;0.2554;-0.7301;
2375263629781;-12.2315;-0.1974;-1.5302;
2375273737906;-7.0905;-0.4681;0.3239;
2375283845979;-7.6657;-1.2562;-3.1878;
2375293959625;-10.4492;-1.8000;-6.1343;
2375304067750;-8.0273;-1.3017;-4.7737;
2375314175823;-6.7576;-0.6718;-4.0238;
2375324290719;-11.1488;-0.9879;-4.4309;
2375334398844;-11.7212;0.2937;-1.4103;
2375344506917;-8.7317;1.3525;1.9627;
2375354611187;-9.2731;-0.5853;-0.1813;
2375364719260;-11.6853;-1.2802;-3.0727;
2375374827333;-10.2957;-1.5796;-4.4429;
2375384929052;-6.3242;-0.0344;-3.7196;
2375395037177;-7.9484;-0.5183;-4.9866;
2375405145250;-10.6983;-1.1773;-5.5065;
2375415256708;-7.3950;0.5859;-3.3123;
2375425364833;-7.9819;1.1465;-2.0115;
2375435472906;-13.1680;0.2028;-1.9708;
2375445565302;-10.8108;1.4506;0.0748;
2375455673427;-7.0427;1.8700;0.8797;
2375465781500;-11.8959;-1.0430;-2.3686;
2375475890406;-12.3105;-0.7890;-5.7556;
2375485998531;-7.3038;0.0733;-1.7961;
2375496106604;-6.4223;0.0111;-1.8511;
2375506222698;-8.7075;-0.0583;-5.2744;
2375516330823;-10.1880;-0.8201;-4.8885;
2375526438896;-8.5113;0.5237;-2.7159;
2375536545302;-8.4559;1.1225;-1.3887;
2375546653427;-10.7749;0.0446;-0.8809;
2375556761500;-10.3077;0.1331;-1.5108;
2375566864208;-9.1603;-0.6526;-2.1840;
2375576972333;-11.2158;-1.9077;-2.3399;
2375587080406;-9.5557;0.4493;-3.3673;
2375597203375;-7.2224;-0.2788;-2.2726;
2375607311448;-9.3185;-1.1964;-4.2203;
2375617419521;-10.7175;-1.0334;-4.1339;
2375627495198;-8.8848;-0.7938;-1.3648;
2375637603271;-8.9327;0.1810;-1.0271;
2375647711344;-10.5975;-0.6837;-2.2510;
2375657857073;-10.5879;-1.2682;-2.0067;
2375667965198;-7.7686;-0.6120;-0.9814;
2375678073271;-7.7949;-1.0549;-2.7972;
2375688153114;-10.7079;-1.5126;-4.6944;
2375698261239;-11.8241;0.3129;-3.7484;
2375708369312;-7.4836;0.5812;-0.7083;
2375718484208;-6.3912;-1.1438;-2.1051;
2375728592281;-2.9321;-2.3270;-5.4802;
2375738700406;-6.3096;-3.7762;-8.0698;
2375748806448;-17.7242;-3.2061;-7.3319;
2375758914573;-19.8921;3.5587;1.4019;
2375769022646;-10.7055;7.3196;8.7179;
2375779135406;-9.4286;5.3794;6.0494;
2375789243531;-11.1894;-0.5160;-2.0859;
2375799351604;-9.4502;-1.9364;-7.0612;
2375809522229;-4.3382;-0.8827;-5.4634;
2375819630302;-3.5955;-0.7555;-7.0134;
2375829738375;-7.1961;-1.0214;-8.5801;
2375839786031;-9.3162;-2.0611;-5.1688;
2375849894156;-10.8682;0.5883;0.7863;
2375860002229;-9.7759;3.5085;8.5358;
2375870124208;-6.3266;4.0546;2.8226;
2375880232333;-12.6171;-1.8072;-11.1841;
2375890340406;-13.7596;-6.9096;-12.7747;
2375900438948;-4.5060;-3.6302;-7.1115;
2375910547073;-5.2029;-1.1076;-2.8044;
2375920655146;-10.5473;-1.2323;0.1923;
2375930748531;-13.0531;0.6649;1.2942;
2375940856656;-13.0627;2.0495;3.0239;
2375950964729;-9.9676;0.5812;3.6371;
2375961089260;-9.1149;-0.8850;-0.4929;
2375971197385;-9.3616;-2.7583;-3.8058;
2375981305458;-8.6620;-2.9641;-6.3811;
2375991389677;-6.9230;-2.5235;-5.9665;
2376001497802;-8.6333;-3.5007;-5.1640;
2376011605875;-10.3846;-1.5341;-4.0478;
2376021736552;-10.1186;-0.3266;-0.8450;
2376031844677;-7.8284;1.4435;2.0512;
2376041952750;-9.0933;-0.0320;-1.2018;
2376052054052;-12.1235;-2.1832;-6.4146;
2376062162177;-8.5759;-0.3290;-5.2214;
2376072270250;-7.4261;0.3918;-4.7569;
2376082396760;-10.0370;0.3823;-5.6025;
2376092504885;-9.7017;0.6003;-3.3649;
2376102612958;-9.1125;2.5980;-1.7815;
2376112717229;-11.8337;1.9322;0.3335;
2376122825354;-11.4745;3.2833;-0.7035;
2376132933427;-9.0239;2.9408;-0.5647;
2376143036552;-7.5697;1.3765;-2.4763;
2376153144677;-8.9423;-1.1148;-5.8540;
2376163252750;-9.7496;-1.4145;-4.8718;
2376173341969;-6.2617;-0.4107;-3.4801;
2376183450094;-8.6022;0.0805;-3.5447;
2376193558167;-10.8419;-0.1376;-2.4930;
2376203681969;-10.1354;1.2398;-1.1444;
2376213790094;-9.7496;0.9547;0.5300;
2376223898167;-10.4659;0.2028;-0.9000;
2376234001969;-9.7304;-0.8393;-2.5887;
2376244110094;-9.1795;-1.2347;-3.5566;
2376254218167;-9.6897;-1.3519;-4.5987;
2376264322802;-7.9651;-1.1390;-2.9770;
2376274430927;-8.2334;-1.0190;-1.9564;
2376284539000;-9.7663;-0.7914;-3.2812;
2376294649989;-11.0288;-0.5518;-2.6752;
2376304758114;-8.8729;-0.2405;0.1995;
2376314866187;-8.9375;-0.0224;-0.1214;
2376324985875;-11.4482;-1.2778;-1.5709;
2376335094000;-9.3209;-0.5351;-3.3553;
2376345202073;-7.8452;-1.1892;-2.8211;
2376355287594;-9.4214;-1.5796;-4.1267;
2376365395719;-11.7284;-2.6695;-4.3926;
2376375503792;-9.6347;-1.3376;-1.7575;
2376385618948;-7.5434;-0.6407;-1.4653;
2376395727073;-9.1555;-1.2658;-2.9363;
2376405835146;-10.1521;-1.4456;-2.7087;
2376415949885;-8.5543;-0.4274;-1.9851;
2376426058010;-10.7390;-0.9640;-2.0644;
2376436166083;-9.1005;-0.1256;-1.3935;
2376446267073;-7.8978;-0.6191;-3.4944;
2376456375198;-11.7236;-0.5016;-4.3448;
2376466483271;-10.9403;0.3081;-1.6522;
2376476577542;-6.5037;-0.1926;-2.2917;
2376486685667;-8.6309;-1.3615;-4.6513;
2376496793739;-12.5142;-0.8201;-5.6815;
2376506902802;-9.5219;0.3631;-2.0258;
2376517010927;-7.4237;-0.4107;0.3577;
2376527118948;-8.3722;-0.1376;-1.4486;
2376537255250;-12.9643;-0.6790;-2.1577;
2376547363323;-10.4827;-0.4059;-1.7767;
2376557471396;-6.5611;-0.2955;-2.2175;
2376567550094;-5.9791;-0.6335;-3.4801;
2376577658167;-9.9867;-0.4155;-6.2970;
2376587766292;-11.3163;0.2650;-5.8708;
2376597895146;-9.6658;-0.1137;-3.2836;
2376608003167;-8.2047;-1.2634;-2.8068;
2376618111239;-9.8480;-0.9377;-2.9052;
2376628224208;-11.1918;-0.8417;-0.9766;
2376638332229;-10.2742;-0.7819;-0.5049;
2376648440302;-10.0370;-0.7053;-0.9168;
2376658523844;-7.7064;-0.7747;-1.4677;
2376668631917;-9.3066;0.2076;-3.7507;
2376678739989;-9.9891;-0.4657;-3.8010;
2376688862281;-7.2153;-0.0969;-2.8211;
2376698970354;-6.7672;0.4878;-3.3697;
2376709078427;-9.8623;-0.0921;-5.2047;
2376719186864;-11.6324;-0.8393;-4.8933;
2376729294937;-10.6552;0.5237;-2.2175;
2376739403010;-8.9423;-0.0488;-0.3108;
2376749523635;-8.9518;-0.7053;-2.4523;
2376759631708;-10.7198;-0.3748;-3.4705;
2376769739781;-9.4382;0.1810;-1.0223;
2376779822594;-8.5543;-0.4848;-2.5361;
2376789930667;-10.2287;-0.1041;-3.4466;
2376800038739;-9.8288;-0.0873;-1.9804;
2376810156864;-8.4200;-0.3485;-2.3228;
2376820264937;-8.8035;-0.1615;-2.4356;
2376830373010;-7.6944;-0.4585;-2.8642;
2376840475719;-9.8791;-0.0607;-4.0693;
2376850583792;-11.9318;0.0446;-3.8154;
2376860691864;-8.5639;-0.1878;-2.5600;
2376870822281;-8.3028;-0.2094;-2.6776;
2376880930354;-8.5113;-0.1711;-3.8465;
2376891038427;-11.8840;-0.7125;-3.2668;
2376901141135;-8.6166;-0.2548;-1.5757;
2376911249208;-8.6907;-0.2405;-1.9828;
2376921357281;-10.3487;-0.4322;-3.2716;
2376931466448;-9.5028;0.5142;-1.9588;
2376941574521;-9.2731;0.0757;-0.6221;
2376951682594;-10.9881;0.2028;-2.0210;
2376961793792;-8.2047;0.1642;-1.8392;
2376971901864;-9.3879;0.4612;-3.1014;
2376982009937;-8.4535;0.1953;-3.2931;
2376992108739;-6.5372;0.1235;-4.3735;
2377002216812;-9.2273;-0.0009;-4.9244;
2377012324885;-11.2493;0.2794;-2.3399;
2377022431552;-8.4706;-0.4657;-2.4404;
2377032539625;-9.0670;-0.6383;-3.7603;
2377042647698;-9.6132;-0.2812;-2.4811;
2377052742489;-9.3616;-0.2524;-0.9885;
2377062850562;-8.3937;-0.2357;-0.4280;
2377072958635;-10.8586;-0.5160;-2.6345;
2377083053427;-12.1475;0.1235;-2.0955;
2377093161500;-9.8671;-0.1567;-0.8545;
2377103269573;-10.7414;-0.3194;-1.6044;
2377113398427;-10.9068;-0.8273;0.5396;
2377123506552;-8.6285;-0.6263;-0.2940;
2377133614573;-8.5041;-0.6191;-4.0741;
2377143723219;-10.2814;-0.2429;-3.8847;
2377153831292;-11.9919;0.6386;-1.5829;
2377163939364;-8.1015;0.0470;-0.4184;
