Sensor: bmi160 Accelerometer Non-wakeup
Vendor: BOSCH
TimestampAcc [ns]; AccX [m/s^2]; AccY [m/s^2]; AccZ [m/s^2]
2495897530429541;-9.2608;-0.9425;-2.9172;
2495897540532405;-9.3066;-0.9425;-2.8669;
2495897550610791;-9.3209;-0.9712;-2.9172;
2495897560720061;-9.3162;-0.9975;-3.0272;
2495897570859905;-9.3066;-1.0310;-3.0966;
2495897580969176;-9.3090;-1.0884;-3.0511;
2495897591048030;-9.3018;-1.1315;-2.9698;
2495897601157301;-9.3305;-1.1988;-2.9267;
2495897611286259;-9.3329;-1.1533;-2.8693;
2495897621391155;-9.2922;-1.0310;-2.9172;
2495897631496884;-9.2779;-0.8874;-3.0296;
2495897641590061;-9.2489;-0.7125;-3.0703;
2495897651708916;-9.2608;-0.6287;-3.0368;
2495897661817405;-9.2922;-0.6383;-2.9746;
2495897671903082;-9.3090;-0.6814;-2.9243;
2495897682015634;-9.2755;-0.7077;-2.8980;
2495897692121363;-9.2755;-0.7603;-2.9459;
2495897702229488;-9.2632;-0.8297;-2.9794;
2495897712334541;-9.2898;-0.9018;-2.9650;
2495897722444176;-9.3401;-1.0095;-2.8813;
2495897732558082;-9.3329;-1.1653;-2.7757;
2495897742663238;-9.3377;-1.2754;-2.7733;
2495897752790582;-9.3449;-1.2538;-2.8164;
2495897762879072;-9.3377;-1.1773;-2.9028;
2495897772989488;-9.3497;-1.1004;-2.9746;
2495897783096155;-9.3520;-0.9879;-2.9387;
2495897793205582;-9.3185;-0.9712;-2.8499;
2495897803302926;-9.3305;-1.0980;-2.7517;
2495897813408291;-9.3879;-1.2682;-2.6943;
2495897823520738;-9.4095;-1.3496;-2.6776;
2495897833616155;-9.4382;-1.3639;-2.7972;
2495897843733863;-9.3975;-1.3113;-2.9172;
2495897853841780;-9.3449;-1.1916;-2.9722;
2495897863949072;-9.3209;-1.0406;-2.9195;
2495897874037197;-9.3329;-0.8898;-2.7685;
2495897884161988;-9.3185;-0.8512;-2.5863;
2495897894273863;-9.3879;-0.9329;-2.4308;
2495897904379697;-9.4047;-0.9401;-2.4763;
2495897914499176;-9.3401;-0.7627;-2.6752;
2495897924610843;-9.2779;-0.4657;-2.9937;
2495897934708603;-9.2489;-0.3652;-3.0990;
2495897944838707;-9.2850;-0.4872;-2.9339;
2495897954957509;-9.3425;-0.6670;-2.5959;
2495897965031988;-9.3760;-0.8946;-2.3037;
2495897975140218;-9.3832;-1.0286;-2.2534;
2495897985248551;-9.3736;-0.9377;-2.6345;
2495897995343343;-9.3138;-0.6120;-3.1277;
2495898005467197;-9.2656;-0.2692;-3.3529;
2495898015573551;-9.2201;-0.2022;-3.1735;
2495898025682509;-9.2513;-0.3748;-2.7159;
2495898035803186;-9.3497;-0.6598;-2.3806;
2495898045895218;-9.4143;-0.8608;-2.3590;
2495898056001207;-9.3592;-0.9712;-2.6512;
2495898066101988;-9.3353;-1.0334;-3.0153;
2495898076219124;-9.3090;-1.0406;-3.2285;
2495898086322874;-9.2850;-1.0119;-3.1783;
2495898096432457;-9.2898;-1.0071;-2.8789;
2495898106539280;-9.3544;-0.9927;-2.6297;
2495898116659957;-9.3760;-0.9353;-2.5576;
2495898126761363;-9.3449;-0.8656;-2.6991;
2495898136862561;-9.2874;-0.7842;-2.9076;
2495898146971780;-9.2874;-0.6861;-3.0392;
2495898157089905;-9.2946;-0.6455;-3.0368;
2495898167185322;-9.3090;-0.7340;-2.8522;
2495898177296780;-9.3497;-0.8225;-2.7063;
2495898187404801;-9.3664;-0.8034;-2.6130;
2495898197515374;-9.3209;-0.7292;-2.6608;
2495898207618447;-9.2922;-0.7388;-2.8164;
2495898217728551;-9.2922;-0.8034;-2.8837;
2495898227839488;-9.3568;-0.8321;-2.8116;
2495898237951728;-9.3377;-0.8512;-2.7039;
2495898248044384;-9.3209;-0.8560;-2.6465;
2495898258151676;-9.3233;-0.7699;-2.6776;
2495898268269332;-9.3353;-0.6550;-2.6991;
2495898278381416;-9.3401;-0.5518;-2.7924;
2495898288465322;-9.2922;-0.4872;-2.8211;
2495898298575478;-9.3090;-0.5303;-2.7111;
2495898308708134;-9.3377;-0.7029;-2.6656;
2495898318848916;-9.3640;-0.8632;-2.6249;
2495898328900843;-9.3640;-0.9090;-2.6536;
2495898339001936;-9.3927;-0.9018;-2.7637;
2495898349119124;-9.3473;-0.9281;-2.7996;
2495898359233499;-9.3329;-0.9162;-2.7709;
2495898369346051;-9.3353;-0.9114;-2.6608;
2495898379477718;-9.3640;-0.9114;-2.5457;
2495898389539593;-9.3903;-0.9401;-2.6297;
2495898399673238;-9.3640;-1.0190;-2.7661;
2495898409754176;-9.3401;-1.0669;-2.8741;
2495898419894801;-9.3520;-1.1052;-2.8669;
2495898429981051;-9.3640;-1.0980;-2.7541;
2495898440098030;-9.3281;-1.0167;-2.6177;
2495898450193655;-9.3473;-0.9329;-2.6201;
2495898460302926;-9.3592;-0.8656;-2.6680;
2495898470432197;-9.3544;-0.8656;-2.7446;
2495898480505947;-9.3425;-0.8970;-2.7422;
2495898490637926;-9.3425;-0.9784;-2.7326;
2495898500725322;-9.3640;-0.9688;-2.7805;
2495898510836051;-9.3544;-0.9640;-2.7302;
2495898520934384;-9.3520;-0.9736;-2.6776;
2495898531053447;-9.3640;-0.9497;-2.6632;
2495898541165791;-9.3377;-0.9377;-2.6321;
2495898551303603;-9.3544;-0.9688;-2.6249;
2495898561374697;-9.3664;-0.9951;-2.8092;
2495898571484697;-9.3473;-1.0406;-2.8116;
2495898581591207;-9.3592;-1.0382;-2.7422;
2495898591699541;-9.3640;-1.0406;-2.7159;
2495898601813447;-9.3449;-0.9999;-2.6824;
2495898611896624;-9.3640;-0.9592;-2.6273;
2495898622024488;-9.3520;-0.9090;-2.6991;
2495898632125530;-9.3568;-0.9162;-2.7087;
2495898642245947;-9.3209;-0.9497;-2.6943;
2495898652378186;-9.3353;-0.9736;-2.6991;
2495898662446988;-9.3401;-1.0071;-2.7422;
2495898672577353;-9.3664;-1.0334;-2.7278;
2495898682685322;-9.3832;-1.0167;-2.7924;
2495898692793343;-9.3473;-1.0023;-2.7470;
2495898702895322;-9.3353;-1.0549;-2.6369;
2495898713003343;-9.3520;-1.0645;-2.6824;
2495898723111363;-9.3592;-1.0860;-2.7039;
2495898733213655;-9.3712;-1.1339;-2.7230;
2495898743321676;-9.3879;-1.1414;-2.7733;
2495898753429645;-9.3473;-1.1486;-2.7589;
2495898763535113;-9.3281;-1.1219;-2.7374;
2495898773643134;-9.3879;-1.1052;-2.6919;
2495898783751155;-9.3784;-1.1148;-2.7565;
2495898793867613;-9.3473;-1.0549;-2.8164;
2495898803975634;-9.3162;-1.0645;-2.7757;
2495898814083655;-9.3520;-1.0741;-2.7733;
2495898824177197;-9.3401;-1.0310;-2.7230;
2495898834285218;-9.3209;-0.9879;-2.6752;
2495898844393238;-9.3520;-0.9425;-2.6967;
2495898854506884;-9.3808;-0.9808;-2.7733;
2495898864614905;-9.3592;-0.9329;-2.7757;
2495898874722926;-9.3257;-0.9497;-2.8235;
2495898884833447;-9.3664;-0.9736;-2.8164;
2495898894941468;-9.3520;-0.9401;-2.7206;
2495898905049436;-9.3281;-0.9425;-2.6704;
2495898915150113;-9.3544;-0.8850;-2.6536;
2495898925258082;-9.3257;-0.8010;-2.6489;
2495898935366051;-9.3305;-0.7842;-2.6273;
2495898945465947;-9.3616;-0.7962;-2.6776;
2495898955573968;-9.3784;-0.8465;-2.7494;
2495898965681988;-9.3520;-0.9162;-2.7446;
2495898975806259;-9.3616;-0.9401;-2.7781;
2495898985914280;-9.3497;-0.9257;-2.7709;
2495898996022301;-9.3401;-0.9090;-2.6871;
2495899006121468;-9.3473;-0.8850;-2.6752;
2495899016229488;-9.3592;-0.8946;-2.6225;
2495899026337509;-9.3473;-0.9185;-2.5744;
2495899036459124;-9.3449;-0.9520;-2.6393;
2495899046567145;-9.3688;-0.9808;-2.7494;
2495899056675166;-9.3688;-1.0119;-2.8092;
2495899066771988;-9.3544;-1.0238;-2.7924;
2495899076880009;-9.3951;-1.0119;-2.7613;
2495899086988030;-9.3640;-0.9760;-2.7254;
2495899097094072;-9.3473;-0.9377;-2.6824;
2495899107202093;-9.3377;-0.9473;-2.6967;
2495899117310113;-9.3449;-0.9640;-2.6895;
2495899127406259;-9.3449;-0.9688;-2.6680;
2495899137514280;-9.3473;-0.9784;-2.7159;
2495899147622249;-9.3664;-0.9855;-2.7685;
2495899157752770;-9.3784;-0.9975;-2.7039;
2495899167860791;-9.3855;-0.9640;-2.8283;
2495899177968811;-9.3449;-0.9903;-2.8741;
2495899188057822;-9.3353;-1.0167;-2.7805;
2495899198165843;-9.3640;-1.0167;-2.7063;
2495899208273863;-9.3592;-0.9951;-2.7206;
2495899218382197;-9.3162;-0.9951;-2.6656;
2495899228490218;-9.3257;-1.0214;-2.6895;
2495899238598238;-9.3760;-1.0860;-2.7661;
2495899248709749;-9.3616;-1.0932;-2.8813;
2495899258817718;-9.3138;-1.0645;-2.8908;
2495899268925738;-9.3760;-1.0645;-2.8187;
2495899279023551;-9.3808;-0.9927;-2.7159;
2495899289131572;-9.3209;-0.8994;-2.6560;
2495899299239541;-9.3281;-0.8489;-2.6560;
2495899309359176;-9.3497;-0.9114;-2.6943;
2495899319467197;-9.3520;-0.9760;-2.7637;
2495899329575218;-9.3329;-0.9855;-2.7733;
2495899339671363;-9.3592;-0.9975;-2.7565;
2495899349779384;-9.3712;-1.0143;-2.7254;
2495899359887405;-9.3497;-0.9784;-2.7637;
2495899369993759;-9.3329;-0.9377;-2.8044;
2495899380101780;-9.3664;-0.9329;-2.7733;
2495899390209801;-9.3520;-0.9066;-2.7182;
2495899400322301;-9.3473;-0.8417;-2.7015;
2495899410430322;-9.3329;-0.8082;-2.7182;
2495899420538343;-9.3377;-0.8321;-2.6824;
2495899430666051;-9.3688;-0.8297;-2.7541;
2495899440774072;-9.3401;-0.8369;-2.7900;
2495899450882093;-9.3473;-0.8584;-2.8020;
2495899460970113;-9.3473;-0.8850;-2.7589;
2495899471078134;-9.3640;-0.8994;-2.7278;
2495899481186155;-9.3401;-0.8345;-2.7470;
2495899491280218;-9.3281;-0.8321;-2.7159;
2495899501388238;-9.3449;-0.8632;-2.6489;
2495899511496207;-9.3879;-0.8560;-2.6847;
2495899521606259;-9.3425;-0.8803;-2.7302;
2495899531714280;-9.3209;-0.9018;-2.7805;
2495899541822301;-9.3473;-0.9042;-2.8211;
2495899551926363;-9.3401;-0.8946;-2.7876;
2495899562034384;-9.3425;-0.8898;-2.7302;
2495899572142405;-9.3520;-0.8441;-2.6895;
2495899582249697;-9.3281;-0.8345;-2.6680;
2495899592357718;-9.3305;-0.8441;-2.6967;
2495899602465738;-9.3377;-0.8827;-2.7446;
2495899612573551;-9.3616;-0.8560;-2.7781;
2495899622681572;-9.3401;-0.8010;-2.7924;
2495899632789593;-9.3305;-0.8297;-2.7326;
2495899642888134;-9.3305;-0.8608;-2.7302;
2495899652996155;-9.3688;-0.8680;-2.6967;
2495899663104124;-9.3497;-0.8970;-2.6680;
2495899673204228;-9.3736;-0.9138;-2.7829;
2495899683311728;-9.3449;-1.0071;-2.8140;
2495899693419176;-9.3425;-1.0717;-2.7517;
2495899703544332;-9.3999;-1.1749;-2.6967;
2495899713651832;-9.3879;-1.2108;-2.6943;
2495899723759280;-9.3736;-1.2467;-2.7015;
2495899733867770;-9.3808;-1.2227;-2.7374;
2495899743975270;-9.3808;-1.1844;-2.8044;
2495899754082718;-9.3592;-1.1916;-2.7685;
2495899764184853;-9.3999;-1.2945;-2.7589;
2495899774292301;-9.4143;-1.3543;-2.7517;
2495899784399801;-9.3975;-1.3543;-2.7159;
2495899794530061;-9.3832;-1.3161;-2.6919;
2495899804637561;-9.3855;-1.2658;-2.7422;
2495899814745009;-9.3784;-1.1797;-2.7254;
2495899824842093;-9.3760;-1.1052;-2.7039;
2495899834949541;-9.3760;-1.0286;-2.6943;
2495899845057041;-9.3544;-0.9425;-2.6919;
2495899855164176;-9.3520;-0.8970;-2.6512;
2495899865271676;-9.3568;-0.7890;-2.6369;
2495899875379124;-9.3520;-0.7436;-2.6632;
2495899885490843;-9.3473;-0.7412;-2.6967;
2495899895598291;-9.3497;-0.7316;-2.6584;
2495899905705791;-9.3353;-0.6694;-2.6560;
2495899915808603;-9.3257;-0.5973;-2.6417;
2495899925916103;-9.3185;-0.5734;-2.6249;
2495899936023551;-9.3544;-0.5183;-2.6656;
2495899946114020;-9.3305;-0.4442;-2.6895;
2495899956221520;-9.2970;-0.4418;-2.6943;
2495899966328968;-9.3329;-0.5710;-2.7015;
2495899976453082;-9.3640;-0.6861;-2.6824;
2495899986560582;-9.3592;-0.8154;-2.6417;
2495899996668030;-9.3712;-0.9353;-2.6871;
2495900006776207;-9.3568;-0.9473;-2.7254;
2495900016883655;-9.3473;-0.9305;-2.7087;
2495900026991155;-9.3688;-0.8874;-2.6680;
2495900037100374;-9.3879;-0.9353;-2.6201;
2495900047207874;-9.3999;-1.0310;-2.6034;
2495900057315322;-9.3760;-1.0789;-2.6704;
2495900067435947;-9.3808;-1.1148;-2.7852;
2495900077543395;-9.4143;-1.2108;-2.7948;
2495900087650895;-9.3951;-1.2849;-2.7182;
2495900097745166;-9.3975;-1.3328;-2.5792;
2495900107852666;-9.3975;-1.3184;-2.5217;
2495900117960113;-9.3927;-1.1629;-2.5792;
2495900128065791;-9.3808;-1.0286;-2.6560;
2495900138173291;-9.3784;-0.9377;-2.7398;
2495900148280738;-9.3712;-0.9066;-2.7733;
2495900158385999;-9.3401;-0.8898;-2.7039;
2495900168493499;-9.3616;-0.9233;-2.6130;
2495900178600895;-9.4071;-1.0095;-2.5481;
2495900188732197;-9.3999;-1.0956;-2.6034;
2495900198839749;-9.3712;-1.0932;-2.6536;
2495900208947197;-9.3664;-1.0406;-2.7326;
2495900219024645;-9.3927;-0.9855;-2.8044;
2495900229132093;-9.3927;-0.9855;-2.7422;
2495900239239593;-9.3592;-1.0262;-2.6177;
2495900249380686;-9.3712;-1.0597;-2.6489;
2495900259488186;-9.3832;-1.1267;-2.6895;
2495900269595634;-9.3855;-1.1701;-2.7111;
2495900279697249;-9.3688;-1.1414;-2.7446;
2495900289804749;-9.3712;-1.0358;-2.7996;
2495900299912197;-9.3664;-0.9377;-2.7206;
2495900310017041;-9.3616;-0.8707;-2.6369;
2495900320124488;-9.3784;-0.8536;-2.6800;
2495900330231988;-9.3497;-0.7842;-2.7182;
2495900340327145;-9.3377;-0.7268;-2.6919;
2495900350434593;-9.3377;-0.6909;-2.7135;
2495900360542093;-9.3305;-0.6933;-2.6895;
2495900370668030;-9.3473;-0.7149;-2.6512;
2495900380775530;-9.3616;-0.8058;-2.6225;
2495900390882978;-9.3640;-0.8130;-2.6752;
2495900400981936;-9.3736;-0.7723;-2.6919;
2495900411089436;-9.3329;-0.8608;-2.7398;
2495900421196884;-9.3544;-0.8680;-2.7135;
2495900431301832;-9.3808;-0.8946;-2.6584;
2495900441409332;-9.3712;-0.9592;-2.6106;
2495900451516780;-9.3808;-0.9760;-2.6584;
2495900461626416;-9.3616;-0.9449;-2.6800;
2495900471733916;-9.3688;-0.9616;-2.6632;
2495900481841363;-9.3903;-1.0430;-2.6871;
2495900491947093;-9.4454;-1.2251;-2.6800;
2495900502054593;-9.4262;-1.3998;-2.6752;
2495900512162041;-9.4334;-1.4862;-2.6584;
2495900522269020;-9.4286;-1.5269;-2.6536;
2495900532376520;-9.4190;-1.5126;-2.6489;
2495900542483968;-9.4382;-1.4408;-2.6704;
2495900552582041;-9.4190;-1.4022;-2.6560;
2495900562689541;-9.4190;-1.3567;-2.7350;
2495900572796988;-9.3999;-1.2538;-2.7661;
2495900582920270;-9.3712;-1.1414;-2.7589;
2495900593027770;-9.3736;-1.0262;-2.7326;
2495900603135218;-9.3951;-0.9736;-2.6465;
2495900613247561;-9.3784;-1.0071;-2.6369;
2495900623355061;-9.3903;-1.0023;-2.6680;
2495900633462509;-9.3616;-0.9712;-2.6895;
2495900643559957;-9.3520;-0.9090;-2.7398;
2495900653667457;-9.3760;-0.8512;-2.6919;
2495900663774905;-9.3832;-0.8154;-2.6010;
2495900673913343;-9.4023;-0.8201;-2.5935;
2495900684021363;-9.3927;-0.7819;-2.5696;
2495900694129384;-9.3712;-0.7101;-2.6010;
2495900704217457;-9.3712;-0.6359;-2.6369;
2495900714325530;-9.3592;-0.4753;-2.6967;
2495900724433551;-9.3688;-0.3532;-2.6824;
2495900734534384;-9.3927;-0.3218;-2.6034;
2495900744642457;-9.4095;-0.4107;-2.5552;
2495900754750478;-9.4143;-0.6598;-2.4212;
2495900764859801;-9.4214;-0.7819;-2.4835;
2495900774967874;-9.4047;-0.7962;-2.6608;
2495900785075895;-9.3903;-0.8850;-2.7206;
2495900795172197;-9.4143;-0.9616;-2.7063;
2495900805280270;-9.4023;-0.9353;-2.6249;
2495900815388291;-9.4119;-0.9544;-2.4236;
2495900825504905;-9.4262;-1.0286;-2.3638;
2495900835612978;-9.4621;-1.1028;-2.4691;
2495900845720999;-9.4143;-1.1725;-2.6058;
2495900855832041;-9.4095;-1.2323;-2.7111;
2495900865940113;-9.4430;-1.2251;-2.6752;
2495900876048134;-9.4238;-1.2323;-2.5816;
2495900886144280;-9.4238;-1.1797;-2.4500;
2495900896252353;-9.4238;-1.1267;-2.4595;
2495900906360374;-9.4765;-1.0238;-2.5576;
2495900916476572;-9.4214;-0.8970;-2.6560;
2495900926584645;-9.3832;-0.8803;-2.7470;
2495900936692666;-9.4286;-1.0214;-2.6943;
2495900946807197;-9.4573;-1.3208;-2.5026;
2495900956915270;-9.5100;-1.6226;-2.3710;
2495900967023291;-9.5366;-1.9125;-2.3276;
2495900977118030;-9.5390;-2.0898;-2.4260;
2495900987226103;-9.5100;-2.0396;-2.6871;
2495900997334124;-9.4478;-1.8383;-2.8594;
2495901007441624;-9.4478;-1.7258;-2.7206;
2495901017549697;-9.5028;-1.9487;-2.3853;
2495901027657718;-9.5749;-2.1784;-2.0354;
2495901037775374;-9.5749;-2.0898;-2.1027;
2495901047883447;-9.5028;-1.6059;-2.5959;
2495901057991468;-9.3688;-1.2084;-2.9961;
2495901068085634;-9.4262;-1.2419;-2.8594;
2495901078193707;-9.5267;-1.5317;-2.3949;
2495901088301728;-9.5414;-1.7043;-1.9899;
2495901098401363;-9.4813;-1.5652;-2.1266;
2495901108509436;-9.4023;-1.1988;-2.6130;
2495901118617457;-9.3664;-1.0023;-2.8475;
2495901128722926;-9.3879;-1.1100;-2.7039;
2495901138830947;-9.4765;-1.2897;-2.2702;
2495901148938968;-9.4741;-1.2873;-2.0378;
2495901159040009;-9.4023;-1.2275;-2.2343;
2495901169148030;-9.3497;-1.0717;-2.6010;
2495901179256103;-9.3760;-0.9999;-2.8283;
2495901189379228;-9.3951;-1.0406;-2.7326;
2495901199487249;-9.4023;-1.1363;-2.5146;
2495901209595270;-9.3975;-0.9760;-2.3997;
2495901219711884;-9.3473;-0.6455;-2.5457;
2495901229819905;-9.3425;-0.4059;-2.7398;
2495901239927926;-9.3281;-0.2333;-2.8813;
2495901250024645;-9.3353;-0.2429;-2.8932;
2495901260132666;-9.3162;-0.2477;-2.8259;
2495901270240738;-9.3162;-0.2046;-2.6441;
2495901280335738;-9.3305;-0.1591;-2.5481;
2495901290443811;-9.3520;-0.5016;-2.2199;
2495901300551832;-9.3975;-0.5997;-2.3734;
2495901310673551;-9.3473;-0.4537;-2.7254;
2495901320781624;-9.2707;-0.2189;-2.9028;
2495901330889645;-9.2656;-0.0009;-2.9363;
2495901340993238;-9.3138;0.1881;-2.7422;
2495901351101311;-9.3090;0.2698;-2.4284;
2495901361209332;-9.2898;0.3703;-2.2822;
2495901371328968;-9.3090;0.4926;-2.4332;
2495901381437041;-9.3233;0.6290;-2.6584;
2495901391545061;-9.2707;0.8183;-2.7781;
2495901401644488;-9.2441;1.0268;-2.8451;
2495901411752561;-9.2369;0.6075;-2.8980;
2495901421860582;-9.2656;0.7705;-2.2630;
2495901431966624;-9.2803;0.8590;-2.1936;
2495901442074697;-9.4645;0.9380;-2.5768;
2495901452182718;-9.1603;1.4818;-2.6656;
2495901462293238;-9.0766;1.4195;-2.4858;
2495901472401311;-9.4071;1.2541;-2.7087;
2495901482509332;-9.3808;1.1847;-2.6058;
2495901492611051;-9.2058;1.2470;-2.4787;
2495901502719124;-9.3209;1.4363;-2.7350;
2495901512827145;-9.3736;1.3478;-2.6560;
2495901522932613;-9.2441;1.4674;-2.3782;
2495901533040686;-9.2536;1.7213;-2.3638;
2495901543148707;-9.3209;2.0566;-2.6321;
2495901553261832;-9.2321;2.3345;-2.7781;
2495901563369905;-9.1508;2.5262;-2.6704;
2495901573477926;-9.3042;2.5262;-2.4954;
2495901583573968;-9.4382;2.6151;-2.4500;
2495901593682041;-9.2779;2.6940;-2.2917;
2495901603790061;-9.2946;2.6174;-2.3351;
2495901613900426;-9.4406;2.4401;-2.6321;
2495901624008499;-9.2779;2.3369;-2.6297;
2495901634116520;-9.2249;2.1718;-2.7230;
2495901644224072;-9.3784;1.5105;-2.7494;
2495901654332145;-9.2922;1.4411;-2.3662;
2495901664440166;-9.4717;1.4770;-1.8009;
2495901674535061;-9.7256;1.1752;-1.9947;
2495901684642509;-9.4262;1.0675;-2.4236;
2495901694749957;-9.2608;1.0026;-2.6847;
2495901704869020;-9.3879;1.5176;-2.8499;
2495901714976468;-9.3185;1.7620;-2.4332;
2495901725083916;-9.5964;1.7620;-2.0859;
2495901735197041;-9.2297;1.1512;-2.2917;
2495901745304488;-7.3110;2.2938;-3.7651;
2495901755411936;-8.8298;6.0500;-6.3138;
2495901765518811;-11.5726;3.6018;-2.7757;
2495901775626259;-11.6635;0.3559;0.9063;
2495901785733707;-9.7807;0.1211;-0.3443;
2495901795839541;-7.5769;0.2722;-3.0105;
2495901805946988;-6.8462;-0.1687;-4.4692;
2495901816054436;-9.0096;-1.2395;-4.5341;
2495901826166520;-11.4362;-2.0755;-3.4155;
2495901836273968;-11.0791;-1.4671;-1.4773;
2495901846381416;-9.0981;1.4985;-1.0941;
2495901856496832;-8.4583;1.6950;-1.2787;
2495901866604280;-9.0096;1.6041;-2.8020;
2495901876711728;-9.1771;1.7836;-2.9865;
2495901886818916;-9.7352;1.7261;-3.2955;
2495901896926363;-10.1761;1.3071;-3.4202;
2495901907033811;-9.1627;1.1058;-2.0716;
2495901917138291;-8.6070;1.2063;-1.4653;
2495901927245738;-9.4908;0.8375;-2.4356;
2495901937353186;-9.7496;0.7295;-2.9435;
2495901947464957;-9.2513;1.0914;-2.7111;
2495901957572405;-9.4334;1.4148;-2.9937;
2495901967679853;-9.4980;1.6759;-2.7781;
2495901977782978;-9.1292;1.6328;-1.7360;
2495901987890426;-9.3712;1.7022;-1.9516;
2495901997997874;-9.6826;1.7907;-2.6345;
2495902008097770;-9.2441;1.8652;-2.5672;
2495902018205218;-9.0431;2.1933;-2.7063;
2495902028312666;-9.7591;1.5033;-2.8140;
2495902038434957;-9.3688;1.3549;-2.0043;
2495902048542405;-9.2465;1.4746;-1.8272;
2495902058649801;-9.4932;1.6735;-2.3375;
2495902068775478;-9.3760;1.6950;-2.4212;
2495902078882874;-9.2994;1.5730;-2.3686;
2495902088990374;-9.4884;1.4626;-2.5911;
2495902099071103;-9.5052;1.4937;-2.5050;
2495902109178551;-9.2898;1.6184;-2.1458;
2495902119285999;-9.2850;1.7285;-2.3085;
2495902129462666;-9.4693;1.7261;-2.6536;
2495902139570113;-9.3592;1.6902;-2.5385;
2495902149677561;-9.2731;1.7692;-2.3303;
2495902159734020;-9.4956;1.8891;-2.4667;
2495902169841468;-9.3855;2.0064;-2.4188;
2495902179948916;-9.2345;1.9801;-2.3085;
2495902190033082;-9.4238;1.8413;-2.6680;
2495902200140530;-9.4884;1.6400;-2.6058;
2495902210247978;-9.3042;1.5610;-2.3423;
2495902220371832;-9.3975;1.5153;-2.5528;
2495902230479280;-9.3879;1.3430;-2.5959;
2495902240586728;-9.2082;1.3430;-2.5217;
2495902250685582;-9.3544;1.4028;-2.6608;
2495902260793030;-9.5076;1.4435;-2.6345;
2495902270900478;-9.3497;1.4506;-2.3252;
2495902281031624;-9.3855;1.4913;-2.3710;
2495902291139072;-9.4119;1.5296;-2.4643;
2495902301246520;-9.3425;1.5897;-2.4691;
2495902311345582;-9.3832;1.3143;-2.5792;
2495902321453030;-9.4190;1.2278;-2.7637;
2495902331560478;-9.3138;1.2879;-2.7398;
2495902341678291;-9.3329;1.2159;-2.5146;
2495902351785738;-9.3879;1.2709;-2.5050;
2495902361893186;-9.3760;1.3214;-2.5074;
2495902371984697;-9.3401;1.3358;-2.5122;
2495902382092145;-9.3712;1.3645;-2.6249;
2495902392199593;-9.4047;1.2422;-2.5361;
2495902402315374;-9.4334;0.8901;-2.3973;
2495902412422822;-9.4167;0.6817;-2.4619;
2495902422530270;-9.4143;0.7705;-2.6800;
2495902432639697;-9.4119;0.8710;-2.8235;
2495902442747197;-9.3616;1.0026;-2.7302;
2495902452854645;-9.3640;1.1919;-2.7111;
2495902462956832;-9.3616;1.2182;-2.5098;
2495902473064280;-9.3209;1.2206;-2.4619;
2495902483171728;-9.3449;1.3047;-2.6656;
2495902493289176;-9.3951;1.3190;-2.7254;
2495902503396624;-9.3353;1.2736;-2.7996;
2495902513504072;-9.3209;1.1106;-2.7996;
2495902523605686;-9.3066;1.3190;-2.7470;
2495902533713134;-9.3855;1.2709;-2.3853;
2495902543820582;-9.4669;1.3573;-2.5385;
2495902553902770;-9.3497;1.4076;-2.6608;
2495902564010218;-9.3401;1.2206;-2.6560;
2495902574117666;-9.4190;0.8136;-2.6441;
2495902584241207;-9.4382;0.5213;-2.6249;
2495902594348655;-9.3927;0.3176;-2.5289;
2495902604456103;-9.4382;0.3153;-2.4715;
2495902614565426;-9.4837;0.4926;-2.5528;
2495902624672874;-9.4238;0.6601;-2.4930;
2495902634780322;-9.3855;0.8112;-2.3806;
2495902644895686;-9.4454;1.0531;-2.5600;
2495902655003134;-9.4095;1.2159;-2.5986;
2495902665110582;-9.3544;1.3143;-2.5720;
2495902675217718;-9.3951;1.3310;-2.6177;
2495902685325530;-9.4310;1.2374;-2.6465;
2495902695433343;-9.4167;1.1321;-2.6321;
2495902705548655;-9.4525;1.0292;-2.6010;
2495902715656468;-9.4478;0.9308;-2.5289;
2495902725764280;-9.4382;0.9332;-2.4260;
2495902735872457;-9.4023;1.0699;-2.4811;
2495902745980270;-9.3903;1.2951;-2.5337;
2495902756088082;-9.4119;1.5610;-2.5409;
2495902766189280;-9.4358;1.7501;-2.5002;
2495902776297093;-9.4597;1.6950;-2.4667;
2495902786404905;-9.4310;1.4865;-2.3806;
2495902796515322;-9.4310;1.3525;-2.4571;
2495902806623134;-9.4143;1.2808;-2.4882;
2495902816730947;-9.4908;0.9476;-2.3614;
2495902826837509;-9.5076;0.7872;-2.3351;
2495902836945322;-9.4765;0.8231;-2.3085;
2495902847053134;-9.4549;0.7896;-2.2558;
2495902857155634;-9.4980;0.7247;-2.2104;
2495902867263447;-9.5243;0.5453;-2.1936;
2495902877371259;-9.5124;0.6936;-2.3590;
2495902887481988;-9.5172;0.8853;-2.5146;
2495902897589801;-9.4813;0.9500;-2.4523;
2495902907697613;-9.4717;0.6912;-2.1912;
2495902917825322;-9.4382;0.5309;-2.1673;
2495902927933134;-9.4238;0.4588;-2.2941;
2495902938040947;-9.4454;0.6625;-2.4141;
2495902948126988;-9.5267;0.6314;-2.4428;
2495902958234801;-9.5291;0.6529;-2.4356;
2495902968342613;-9.4095;0.7968;-2.4284;
2495902978442718;-9.3497;0.9428;-2.4691;
2495902988550530;-9.4047;1.0053;-2.5385;
2495902998658343;-9.4358;1.0795;-2.6058;
2495903008782405;-9.3736;1.1895;-2.6680;
2495903018890218;-9.3592;1.3430;-2.7326;
2495903028998030;-9.3497;1.4865;-2.7111;
2495903039097093;-9.3568;1.5467;-2.5433;
2495903049204905;-9.3999;1.5514;-2.4643;
2495903059312718;-9.3927;1.5514;-2.5289;
2495903069427249;-9.3401;1.7046;-2.7230;
2495903079535061;-9.3162;1.7118;-2.8379;
2495903089642874;-9.3449;1.7189;-2.8140;
2495903099752197;-9.3568;1.6137;-2.6393;
2495903109860009;-9.3808;1.4937;-2.5504;
2495903119967822;-9.3855;1.3262;-2.6082;
2495903130083447;-9.3855;1.1034;-2.6632;
2495903140191259;-9.3808;0.8925;-2.7039;
2495903150299072;-9.4358;0.6051;-2.6847;
2495903160398447;-9.2994;-0.0392;-2.9052;
2495903170506259;-9.5100;-0.2500;-2.4452;
2495903180614072;-9.6395;0.1857;-2.1386;
2495903190718030;-9.5725;-0.3365;-2.3566;
2495903200825843;-9.3688;-0.5136;-2.5887;
2495903210933655;-9.2513;0.0326;-2.7159;
2495903221044176;-9.5243;0.3057;-2.6058;
2495903231151988;-9.6060;0.7104;-2.5098;
2495903241259801;-9.3975;1.1608;-2.6560;
2495903251366363;-9.2393;1.2637;-2.8813;
2495903261474176;-9.2441;1.3214;-2.7278;
2495903271581988;-9.4238;1.3525;-2.4523;
2495903281672822;-9.6108;1.1154;-2.3949;
2495903291780634;-9.4525;0.8423;-2.4356;
2495903301888447;-9.2608;0.6218;-2.4787;
2495903312016520;-9.2994;0.5907;-2.6441;
2495903322124332;-9.4765;0.6649;-2.6728;
2495903332232145;-9.5004;0.7080;-2.3734;
2495903342352926;-9.4286;0.9284;-2.3037;
2495903352460738;-9.3808;1.1680;-2.5146;
2495903362568551;-9.3616;1.3645;-2.8331;
2495903372641780;-9.3114;1.5153;-2.9267;
2495903382749593;-9.4119;1.6639;-2.7733;
2495903392857405;-9.4837;1.7405;-2.4835;
2495903402981676;-9.3712;1.6711;-2.1793;
2495903413089488;-9.3090;1.4722;-2.1649;
2495903423197301;-9.3712;1.4148;-2.3901;
2495903433279176;-9.3736;1.8173;-2.8044;
2495903443386988;-9.3377;1.6735;-2.7494;
2495903453494801;-9.3760;1.7213;-2.6871;
2495903463622509;-9.3520;1.7453;-2.4763;
2495903473730322;-9.3233;1.8341;-2.3949;
2495903483838134;-9.3401;1.9705;-2.5863;
2495903493935322;-9.3233;2.0064;-2.7805;
2495903504043134;-9.2707;1.9202;-2.7135;
2495903514150947;-9.3281;1.9848;-2.6512;
2495903524260791;-9.3377;2.0495;-2.5863;
2495903534368603;-9.2536;2.1024;-2.5887;
2495903544476416;-9.2683;2.1598;-2.7039;
2495903554600634;-8.9853;2.4257;-3.3003;
2495903564708447;-9.0981;2.7203;-4.0908;
2495903574816259;-9.6036;2.3058;-2.9602;
2495903584909280;-9.6275;1.1321;-0.9383;
2495903595017093;-9.5725;1.7309;-1.5398;
2495903605124905;-9.0311;2.1263;-2.5600;
2495903615230947;-8.8418;1.7596;-2.8837;
2495903625338759;-9.5195;1.3214;-2.9865;
2495903635446572;-9.9078;1.2182;-2.7972;
2495903645557613;-9.4884;1.0077;-2.1697;
2495903655665426;-9.2225;0.8758;-1.7886;
2495903665773238;-9.3951;0.9930;-2.0306;
2495903675890009;-9.5414;1.1632;-2.1338;
2495903685997822;-9.5797;1.2206;-2.0859;
2495903696105634;-9.6012;1.2808;-2.3037;
2495903706207301;-9.4358;1.4339;-2.5241;
2495903716315113;-9.2034;1.5296;-2.4021;
2495903726422926;-9.3185;1.4124;-2.3303;
2495903736528863;-9.6251;1.0795;-2.4882;
2495903746636676;-9.5629;0.7944;-2.3997;
2495903756744488;-9.4525;0.6003;-2.3375;
2495903766851155;-9.5390;0.4807;-2.5098;
2495903776958968;-9.4095;0.4469;-2.4906;
2495903787066780;-9.1962;0.3296;-2.4571;
2495903797182509;-9.2874;0.0589;-2.4380;
2495903807290322;-9.6826;-0.2142;-2.5504;
2495903817398134;-9.6945;-0.2070;-2.4906;
2495903827502822;-9.4382;0.2674;-2.2798;
2495903837610634;-9.3401;0.5644;-2.3638;
2495903847718447;-9.4597;0.2483;-2.6249;
2495903857822822;-9.4860;-0.2716;-2.7374;
2495903867930634;-9.4980;-0.5327;-2.7326;
2495903878038447;-9.5219;-0.4011;-2.7230;
2495903888144072;-9.4502;-0.0897;-2.5720;
2495903898251884;-9.3999;0.1499;-2.3830;
2495903908359697;-9.4908;0.1475;-2.4093;
2495903918454176;-9.5845;-0.0655;-2.4882;
2495903928561988;-9.5677;-0.3123;-2.5289;
2495903938669801;-9.4645;-0.4035;-2.5935;
2495903948842613;-9.4214;-0.4083;-2.6512;
2495903958950426;-9.4502;-0.3218;-2.5217;
2495903969058238;-9.4645;-0.1472;-2.3375;
2495903979119124;-9.4980;0.0541;-2.3973;
2495903989226936;-9.5004;0.1044;-2.4595;
2495903999334749;-9.4286;0.0948;-2.4739;
2495904009473968;-9.4167;0.2363;-2.6345;
2495904019581780;-9.4334;0.3607;-2.6512;
2495904029689593;-9.4454;0.4854;-2.5528;
2495904039756988;-9.4286;0.5907;-2.5648;
2495904049864801;-9.4238;0.5189;-2.5313;
2495904059972613;-9.3784;0.4181;-2.5170;
2495904070101780;-9.3999;0.4445;-2.7135;
2495904080209593;-9.4382;0.5357;-2.7661;
2495904090317405;-9.4262;0.6505;-2.6489;
2495904100390218;-9.4167;0.7418;-2.6297;
2495904110498030;-9.3736;0.6912;-2.6345;
2495904120605843;-9.3473;0.7442;-2.5959;
2495904130728447;-9.3568;0.8901;-2.6560;
2495904140836259;-9.3927;1.0196;-2.6752;
2495904150944072;-9.3688;1.0747;-2.6560;
2495904161064697;-9.3688;0.9882;-2.7159;
2495904171172509;-9.3568;0.8614;-2.8116;
2495904181280322;-9.3425;0.8279;-2.8068;
2495904191373863;-9.3449;0.9021;-2.7206;
2495904201481676;-9.3808;1.0579;-2.6752;
2495904211589488;-9.3999;1.1656;-2.6680;
2495904221698343;-9.3425;1.1632;-2.6465;
2495904231806155;-9.3497;1.0890;-2.6512;
2495904241913968;-9.3520;1.1130;-2.7230;
2495904252026051;-9.3353;1.2350;-2.7254;
2495904262133863;-9.3449;1.2855;-2.6632;
2495904272241676;-9.3592;1.2230;-2.7350;
2495904282347093;-9.3425;1.0866;-2.8187;
2495904292454905;-9.3353;1.0388;-2.8403;
2495904302562718;-9.3544;1.1369;-2.9459;
2495904312668968;-9.3162;1.3717;-2.8980;
2495904322776780;-9.3018;1.6519;-2.8522;
2495904332884593;-9.3329;1.8365;-2.7900;
2495904342993134;-9.3784;1.9155;-2.9985;
2495904353100947;-9.3473;1.8437;-3.0272;
2495904363208759;-9.2731;1.8604;-3.1807;
2495904373322718;-9.2922;1.8628;-3.2381;
2495904383430530;-9.3616;1.6543;-3.0703;
2495904393538343;-9.2656;1.7309;-3.1253;
2495904403638551;-9.1675;2.1096;-2.9650;
2495904413746363;-9.3425;1.9178;-2.5050;
2495904423854176;-9.4502;1.5658;-2.3901;
2495904433961884;-9.3329;1.2927;-2.6393;
2495904444069697;-9.3209;0.7777;-2.7374;
2495904454177509;-9.4310;0.5955;-2.7972;
2495904464287197;-9.3832;1.1752;-2.6010;
2495904474395009;-9.4214;1.2087;-2.1577;
2495904484502822;-9.5052;1.1441;-2.5074;
2495904494608551;-9.3760;1.1393;-2.8044;
2495904504716363;-9.2755;1.0026;-2.7398;
2495904514824176;-9.5148;0.5740;-2.5504;
2495904524929957;-9.5988;0.5309;-2.4021;
2495904535037770;-9.3712;0.8997;-2.4452;
2495904545145582;-9.3497;0.8255;-2.4332;
2495904555244593;-9.4669;0.5883;-2.6130;
2495904565352405;-9.4214;0.4516;-2.6991;
2495904575460218;-9.3951;0.3870;-2.8020;
2495904585578655;-9.4837;0.3320;-2.8116;
2495904595686468;-9.4095;0.2698;-2.6249;
2495904605794280;-9.2827;0.1690;-2.4021;
2495904615902301;-9.4119;0.2578;-2.5241;
2495904626010113;-9.5390;0.4926;-2.6752;
2495904636117926;-9.4238;0.6338;-2.6895;
2495904646228707;-9.3712;0.7152;-2.8837;
2495904656336520;-9.3640;0.7271;-2.8813;
2495904666444332;-9.3185;0.8375;-2.6369;
2495904676550530;-9.4167;1.0149;-2.5986;
2495904686658238;-9.4908;1.1177;-2.6489;
2495904696765947;-9.4071;1.1273;-2.5528;
2495904706869905;-9.3544;1.0220;-2.5648;
2495904716977613;-9.3784;1.0771;-2.7278;
2495904727085322;-9.3712;1.1871;-2.7087;
2495904737206207;-9.3927;1.1919;-2.6967;
2495904747313916;-9.4573;0.9954;-2.7350;
2495904757421624;-9.3425;0.8830;-2.6297;
2495904767517301;-9.2946;1.1465;-2.6010;
2495904777625009;-9.4765;1.0436;-2.5385;
2495904787732718;-9.4573;1.0268;-2.5241;
2495904797845374;-9.4023;0.8710;-2.5385;
2495904807953082;-9.4382;0.7561;-2.5744;
2495904818060791;-9.4406;0.5979;-2.5768;
2495904828161988;-9.3951;0.5883;-2.5576;
2495904838269697;-9.4549;0.6123;-2.5528;
2495904848377405;-9.5028;0.5764;-2.4715;
2495904858483655;-9.4525;0.5453;-2.4260;
2495904868591363;-9.4190;0.5716;-2.4882;
2495904878699072;-9.4741;0.5453;-2.5600;
2495904888863655;-9.4813;0.4301;-2.5768;
2495904898971363;-9.4382;0.3344;-2.5026;
2495904909079072;-9.4573;0.1834;-2.4356;
2495904919118968;-9.4741;0.0972;-2.3830;
2495904929226676;-9.4549;0.0996;-2.4188;
2495904939334384;-9.4837;0.1929;-2.6417;
2495904949491780;-9.4741;0.2530;-2.9554;
2495904959599488;-9.3664;-0.0200;-2.4739;
2495904969707197;-9.4765;-0.0105;-2.3734;
2495904979779853;-9.5315;0.0709;-2.4547;
2495904989887561;-9.4071;0.0302;-2.3758;
2495904999995270;-9.4238;0.1953;-2.6010;
2495905010096572;-9.4549;0.2052;-2.7613;
2495905020204280;-9.4358;0.1259;-2.7182;
2495905030311988;-9.4190;0.2674;-2.5986;
2495905040422197;-9.4190;0.3583;-2.5217;
2495905050529905;-9.4573;0.4110;-2.5217;
2495905060637613;-9.4454;0.3272;-2.5576;
2495905070745843;-9.3927;0.3224;-2.6632;
2495905080853551;-9.4430;0.4253;-2.7541;
2495905090961259;-9.4358;0.4735;-2.6560;
2495905101070530;-9.4047;0.5237;-2.4882;
2495905111178238;-9.4549;0.4902;-2.5385;
2495905121285947;-9.4143;0.4902;-2.5935;
2495905131392197;-9.3640;0.5166;-2.5986;
2495905141499905;-9.4047;0.5477;-2.6656;
2495905151607613;-9.4190;0.6075;-2.6871;
2495905161717457;-9.3808;0.7223;-2.6130;
2495905171825166;-9.4214;0.7394;-2.6249;
2495905181932874;-9.4214;0.7537;-2.6752;
2495905192047405;-9.3592;0.8471;-2.6656;
2495905202155113;-9.3832;0.9069;-2.6680;
2495905212262822;-9.4238;0.8518;-2.5457;
2495905222365791;-9.3903;0.8327;-2.4954;
2495905232473499;-9.3975;0.8327;-2.5863;
2495905242581207;-9.4190;0.8016;-2.6847;
2495905252692822;-9.3855;0.7490;-2.6776;
2495905262800530;-9.3712;0.7537;-2.5816;
2495905272908238;-9.4167;0.7561;-2.5576;
2495905283018655;-9.4095;0.7561;-2.5696;
2495905293126363;-9.3951;0.7753;-2.6369;
2495905303234072;-9.3760;0.8327;-2.7135;
2495905313346155;-9.3353;0.9787;-2.7302;
2495905323453863;-9.3257;1.1967;-2.6441;
2495905333561572;-9.3520;1.3813;-2.6177;
2495905343657197;-9.4167;1.4770;-2.7182;
2495905353764905;-9.3305;1.5682;-2.8499;
2495905363872613;-9.2584;1.6878;-2.9435;
2495905373966884;-9.2970;1.7644;-3.0320;
2495905384074593;-9.2970;1.8796;-2.9267;
2495905394182301;-9.2850;2.1383;-2.8307;
2495905404329384;-9.2393;2.6318;-2.9961;
2495905414437093;-9.2536;3.0245;-3.0990;
2495905424544801;-9.1771;3.4053;-3.0344;
2495905434648343;-9.2536;3.3383;-3.0775;
2495905444756051;-9.1412;3.2378;-3.1759;
2495905454863759;-9.0431;3.7361;-3.0488;
2495905464956051;-9.2608;3.9517;-3.0105;
2495905475063759;-9.2707;4.1145;-2.9195;
2495905485171468;-9.1125;4.2248;-2.8451;
2495905495278447;-9.1555;4.1001;-2.9913;
2495905505386155;-9.1651;3.8821;-3.2764;
2495905515493863;-9.1125;3.7193;-3.2740;
2495905525590113;-9.1340;3.6353;-3.1878;
2495905535697822;-9.2106;3.5468;-3.0511;
2495905545805530;-9.2178;3.2617;-2.8283;
2495905555926780;-9.1531;2.6438;-2.6441;
2495905566034488;-9.1627;2.0495;-2.6225;
2495905576142197;-9.2779;1.7213;-2.6776;
2495905586251468;-9.2874;1.4794;-2.5193;
2495905596359176;-9.2632;1.3478;-2.3973;
2495905606466884;-9.3018;1.0675;-2.3542;
2495905616568707;-9.3162;0.5668;-2.4236;
2495905626676416;-9.2970;-0.0754;-2.5146;
2495905636784124;-9.3975;-0.6191;-2.4523;
2495905646890218;-9.4143;-0.8632;-2.1553;
2495905656997926;-9.3999;-0.8273;-1.8559;
2495905667105634;-9.4956;-0.6335;-1.9062;
2495905677210634;-9.4837;-0.5518;-2.2223;
2495905687318343;-9.4741;-0.6981;-2.3830;
2495905697425999;-9.5725;-0.6694;-2.6010;
2495905707536363;-9.4454;-1.0741;-2.1505;
2495905717644072;-9.4549;-1.2036;-1.8583;
2495905727751728;-9.5892;-1.1195;-2.2822;
2495905737849957;-9.5148;-0.8225;-2.8813;
2495905747957666;-9.3449;-0.2213;-3.3075;
2495905758065322;-9.3497;0.1092;-3.2907;
2495905768172457;-9.3640;-0.2596;-2.4619;
2495905778280166;-9.4597;-0.6790;-1.8200;
2495905788387822;-9.5533;-0.8273;-1.8870;
2495905798497197;-9.4932;-0.7388;-2.3495;
2495905808604905;-9.4549;-0.4992;-2.9889;
2495905818712561;-9.4167;-0.2620;-3.3003;
2495905828849593;-9.3855;-0.2740;-3.1352;
2495905838957301;-9.4525;-0.6814;-2.5887;
2495905849064957;-9.5342;-0.7842;-2.1147;
2495905859152405;-9.5773;-0.7507;-2.0788;
2495905869260061;-9.5315;-0.5925;-2.4954;
2495905879367718;-9.4430;-0.5136;-2.7470;
2495905889473343;-9.5291;-0.5231;-2.7589;
2495905899581103;-9.5462;-0.4992;-2.6034;
2495905909688759;-9.4502;-0.4083;-2.3351;
2495905919815738;-9.3544;-0.5877;-1.9516;
2495905929923447;-9.4765;-0.8034;-1.8440;
2495905940031103;-9.8121;-0.8489;-2.3423;
2495905950108655;-9.8288;-0.6072;-2.9076;
2495905960216363;-9.3808;-0.2812;-2.6608;
2495905970324020;-9.2417;0.1235;-2.3375;
2495905980455322;-9.4478;0.4014;-2.2558;
2495905990563030;-9.5845;0.5237;-2.1745;
2495906000670686;-9.6467;0.6505;-2.3351;
2495906010769280;-9.5653;0.7008;-2.6010;
2495906020876988;-9.3616;0.6649;-2.6369;
2495906030984645;-9.2994;0.5309;-2.5098;
2495906041091624;-9.4382;0.4110;-2.4188;
2495906051199332;-9.6036;0.1738;-2.3590;
2495906061306988;-9.6156;-0.0129;-2.2534;
2495906071418551;-9.4789;-0.0392;-2.2223;
2495906081526259;-9.4669;0.0470;-2.3351;
2495906091633916;-9.4884;0.1738;-2.4069;
2495906101731780;-9.4573;0.2435;-2.4212;
2495906111839488;-9.5148;0.2937;-2.4643;
2495906121947145;-9.5390;0.3392;-2.4117;
2495906132060843;-9.4238;0.3081;-2.2534;
2495906142168551;-9.4502;0.2195;-2.3423;
2495906152276207;-9.5342;0.1690;-2.5217;
2495906162385009;-9.4789;0.1379;-2.5409;
2495906172492718;-9.4597;0.0972;-2.5624;
2495906182600374;-9.5076;0.0230;-2.4954;
2495906192715947;-9.4669;-0.0897;-2.3157;
2495906202823655;-9.4932;-0.1902;-2.3085;
2495906212931311;-9.5486;-0.2213;-2.4787;
2495906223029384;-9.4669;-0.2620;-2.6512;
2495906233137093;-9.4358;-0.4370;-2.7039;
2495906243244749;-9.4669;-0.6574;-2.6489;
2495906253362509;-9.5076;-0.8177;-2.4021;
2495906263470218;-9.5533;-0.9090;-2.2391;
2495906273577874;-9.5868;-0.8946;-2.3133;
2495906283678863;-9.4789;-0.7771;-2.4523;
2495906293786572;-9.4669;-0.6096;-2.6225;
2495906303894228;-9.4669;-0.4801;-2.6967;
2495906313997197;-9.4765;-0.3027;-2.6895;
2495906324104905;-9.4932;-0.1400;-2.6058;
2495906334212561;-9.4741;-0.0033;-2.5361;
2495906344320374;-9.4143;0.1451;-2.5744;
2495906354428082;-9.4095;0.1594;-2.6058;
2495906364535738;-9.1508;0.4540;-2.5720;
2495906374645738;-7.7686;1.1249;-1.8176;
2495906384753447;-7.2248;2.6725;-2.1242;
2495906394861103;-9.7352;4.3947;-5.2959;
2495906404970530;-14.2508;3.7768;-11.2582;
2495906415078238;-12.0302;1.1201;-9.5791;
2495906425185895;-4.8078;-1.5389;1.7806;
2495906435290322;-5.1622;-3.8913;7.2613;
2495906445398030;-11.9465;-4.8975;4.4850;
2495906455505686;-13.7907;-1.7234;1.0187;
2495906465623551;-10.8395;2.1000;-3.7962;
2495906475731259;-8.3387;3.9541;-9.2554;
2495906485838916;-6.6380;3.1947;-8.2831;
2495906495936572;-7.0211;1.1943;-2.6249;
2495906506044280;-10.5640;-0.8154;0.3912;
2495906516151936;-12.5692;-1.5796;0.7839;
2495906526261155;-10.2790;-0.9879;0.8151;
2495906536368863;-7.8667;0.5309;-1.6475;
2495906546476520;-8.5950;0.8566;-5.2167;
2495906556595113;-9.8910;0.0159;-4.8814;
2495906566702822;-9.7878;-1.2108;-1.1563;
2495906576810478;-10.3173;-0.8249;-0.7011;
2495906586916207;-10.1330;0.0182;-1.6331;
2495906597023916;-8.3842;0.4205;-1.1611;
2495906607131572;-9.0981;0.6936;-2.7637;
2495906617236363;-10.4324;0.5333;-4.3711;
2495906627344072;-9.1508;-0.3461;-2.5863;
2495906637451728;-8.9471;-0.9233;-1.8655;
2495906647552509;-10.0514;-0.8297;-2.9698;
2495906657660218;-9.3879;-0.5183;-2.1434;
2495906667767874;-9.1675;-0.1280;-2.1745;
2495906677888447;-9.9221;-0.0655;-3.4274;
2495906687996259;-9.3712;-0.4992;-2.7494;
2495906698104124;-9.0622;-0.7436;-2.1147;
2495906708202509;-9.7519;-0.6718;-2.7589;
2495906718310322;-9.6084;-0.2883;-2.6847;
2495906728418186;-9.2010;-0.2692;-2.2965;
2495906738529801;-9.5653;-0.4322;-2.8427;
2495906748637666;-9.6012;-0.7172;-2.8451;
2495906758745478;-9.2994;-0.8058;-2.3518;
2495906768846155;-9.4406;-0.4753;-2.5098;
2495906778953968;-9.5868;0.0087;-2.7374;
2495906789061832;-9.3784;0.1834;-2.4835;
2495906799181676;-9.3927;0.0685;-2.6321;
2495906809289488;-9.5653;-0.2477;-2.8403;
2495906819397353;-9.3736;-0.4490;-2.4787;
2495906829490426;-9.3712;-0.3867;-2.4021;
2495906839598238;-9.6251;-0.2500;-2.7470;
2495906849706103;-9.4932;-0.3003;-2.6847;
2495906859798447;-9.3305;-0.5303;-2.4954;
2495906869906259;-9.5052;-0.7388;-2.5935;
2495906880014124;-9.5219;-0.7077;-2.4141;
2495906890133759;-9.3975;-0.4490;-2.3495;
2495906900241572;-9.5243;-0.1974;-2.6082;
2495906910349436;-9.5028;-0.0296;-2.6800;
2495906920481884;-9.3712;-0.0320;-2.5050;
2495906930589697;-9.5124;-0.0631;-2.5337;
2495906940697561;-9.5845;0.0182;-2.5385;
2495906950788134;-9.4382;0.0757;-2.4476;
2495906960895947;-9.4765;0.0230;-2.4595;
2495906971003811;-9.5148;-0.1639;-2.4141;
2495906981101624;-9.4334;-0.3891;-2.3204;
2495906991209436;-9.4980;-0.4513;-2.4404;
2495907001317301;-9.5701;-0.4083;-2.5146;
2495907011457874;-9.5100;-0.2166;-2.4715;
2495907021565686;-9.4908;-0.1567;-2.3949;
2495907031673551;-9.5390;-0.2429;-2.4021;
2495907041762613;-9.5076;-0.2835;-2.4021;
2495907051870426;-9.4597;-0.2692;-2.4165;
2495907061978291;-9.5390;-0.1448;-2.5193;
2495907072081988;-9.5243;-0.0176;-2.4835;
2495907082189801;-9.4502;0.0374;-2.4117;
2495907092297666;-9.4860;-0.0200;-2.4643;
2495907102407301;-9.5076;-0.0778;-2.3877;
2495907112515113;-9.4621;-0.0272;-2.3399;
2495907122622978;-9.5315;0.0829;-2.4571;
2495907132729801;-9.5267;0.1403;-2.4882;
2495907142837613;-9.4478;0.0948;-2.4284;
2495907152945478;-9.4645;0.0159;-2.4595;
2495907163057041;-9.5052;-0.0105;-2.4787;
2495907173164853;-9.5004;0.0039;-2.4763;
2495907183272718;-9.4789;-0.0153;-2.4978;
2495907193392770;-9.4621;-0.0802;-2.5433;
2495907203500582;-9.4358;-0.1807;-2.5193;
2495907213608447;-9.4238;-0.2620;-2.4715;
2495907223698863;-9.5028;-0.2979;-2.5241;
2495907233806676;-9.5195;-0.3147;-2.5146;
2495907243914541;-9.4860;-0.3027;-2.5337;
2495907254027093;-9.5052;-0.2931;-2.5504;
2495907264134905;-9.4837;-0.2979;-2.5122;
2495907274242718;-9.4430;-0.2812;-2.4691;
2495907284339072;-9.4741;-0.2166;-2.4667;
2495907294446884;-9.5124;-0.1687;-2.4715;
2495907304554749;-9.4525;-0.0706;-2.3782;
2495907314686936;-9.4549;-0.0344;-2.6321;
2495907324794749;-9.4454;-0.0200;-2.6680;
2495907334902613;-9.4789;0.1211;-2.6608;
2495907345006051;-9.5028;0.2889;-2.5911;
2495907355113863;-9.4454;0.3751;-2.4739;
2495907365221676;-9.3664;0.4062;-2.5265;
2495907375316363;-9.3760;0.3966;-2.6177;
2495907385424228;-9.3879;0.4205;-2.6393;
2495907395532041;-9.3999;0.5022;-2.5887;
2495907405640322;-9.3975;0.6194;-2.5528;
2495907415748134;-9.3855;0.7295;-2.6034;
2495907425855999;-9.4047;0.7920;-2.6632;
2495907435964801;-9.4119;0.7466;-2.7278;
2495907446072613;-9.3999;0.7128;-2.7350;
2495907456180478;-9.4214;0.7175;-2.6704;
2495907466297822;-9.4119;0.7247;-2.6010;
2495907476405634;-9.4095;0.6864;-2.5337;
2495907486513499;-9.4167;0.6601;-2.5481;
2495907496620843;-9.4119;0.6577;-2.6345;
2495907506728655;-9.4071;0.6505;-2.6273;
2495907516836520;-9.4262;0.6840;-2.5986;
2495907526930426;-9.4549;0.7295;-2.6130;
2495907537038238;-9.4645;0.6697;-2.6058;
2495907547146103;-9.4454;0.6218;-2.6225;
2495907557254488;-9.3808;0.6051;-2.6297;
2495907567362301;-9.3927;0.6194;-2.5576;
2495907577470166;-9.4334;0.6482;-2.5122;
2495907587580530;-9.4454;0.6290;-2.4452;
2495907597688343;-9.4860;0.6027;-2.5863;
2495907607796155;-9.4837;0.5883;-2.7039;
2495907617902197;-9.3975;0.5453;-2.6489;
2495907628010009;-9.4047;0.5453;-2.5552;
2495907638117874;-9.4669;0.5166;-2.4380;
2495907648223343;-9.4669;0.4902;-2.3566;
2495907658331155;-9.4310;0.4373;-2.4643;
2495907668439020;-9.4430;0.3990;-2.6536;
2495907678523082;-9.4406;0.4134;-2.6417;
2495907688630530;-9.5148;0.3511;-2.5217;
2495907698738030;-9.5243;0.2937;-2.5193;
2495907708871468;-9.4717;0.2913;-2.4476;
2495907718979020;-9.4693;0.2674;-2.4093;
2495907729086520;-9.5100;0.2937;-2.5050;
2495907739199436;-9.5052;0.2674;-2.5146;
2495907749306936;-9.4789;0.2889;-2.4619;
2495907759414436;-9.5004;0.2674;-2.4476;
2495907769507874;-9.4837;0.2267;-2.4188;
2495907779615374;-9.4717;0.2195;-2.3638;
2495907789722874;-9.4741;0.2100;-2.4045;
2495907799868395;-9.5462;0.2363;-2.5744;
2495907809975895;-9.5291;0.2435;-2.6225;
2495907820083395;-9.4884;0.2339;-2.5911;
2495907830153499;-9.4741;0.2554;-2.5026;
2495907840260999;-9.4430;0.2435;-2.4236;
2495907850368499;-9.4358;0.2913;-2.3614;
2495907860485166;-9.4741;0.2818;-2.4691;
2495907870592666;-9.4956;0.2578;-2.5911;
2495907880700166;-9.4549;0.2267;-2.6680;
2495907890825166;-9.4525;0.2028;-2.6106;
2495907900932666;-9.4765;0.2001;-2.5146;
2495907911040166;-9.4549;0.2052;-2.4547;
2495907921136936;-9.4454;0.2148;-2.4930;
2495907931244436;-9.4454;0.1738;-2.6369;
2495907941351936;-9.4573;0.1403;-2.7254;
2495907951461624;-9.4286;0.1427;-2.7039;
2495907961569124;-9.4454;0.1834;-2.6417;
2495907971676624;-9.4143;0.2578;-2.5457;
2495907981782874;-9.4071;0.3990;-2.5744;
2495907991890374;-9.4167;0.5333;-2.6560;
2495908001997874;-9.4214;0.6099;-2.7446;
2495908012113186;-9.4406;0.6864;-2.7422;
2495908022220686;-9.3975;0.7681;-2.7039;
2495908032328186;-9.3784;0.8471;-2.6321;
2495908042427978;-9.3688;0.9308;-2.6154;
2495908052535478;-9.4119;0.9954;-2.6824;
2495908062642978;-9.4478;1.0077;-2.7924;
2495908072748968;-9.3832;1.0101;-2.7709;
2495908082856520;-9.3592;1.0196;-2.6560;
2495908092964020;-9.3784;1.0077;-2.5385;
2495908103074228;-9.4071;1.0002;-2.4882;
2495908113181728;-9.4525;0.9787;-2.6034;
2495908123289228;-9.4310;0.9428;-2.6776;
2495908133395791;-9.3975;0.8997;-2.6608;
2495908143503291;-9.4190;0.8207;-2.5552;
2495908153610791;-9.4956;0.8136;-2.4069;
2495908163720791;-9.5172;0.7801;-2.3276;
2495908173828291;-9.4478;0.7175;-2.4045;
2495908183935791;-9.4382;0.7008;-2.5146;
2495908194035686;-9.4837;0.6505;-2.5409;
2495908204143186;-9.5100;0.5883;-2.4739;
2495908214250686;-9.4669;0.5835;-2.2989;
2495908224373707;-9.4765;0.5788;-2.2343;
2495908234481207;-9.5028;0.5644;-2.3399;
2495908244588707;-9.5195;0.5429;-2.4978;
2495908254693291;-9.4813;0.4974;-2.5816;
2495908264800791;-9.4789;0.4612;-2.5265;
2495908274908291;-9.4525;0.4325;-2.3614;
2495908285016676;-9.4741;0.4086;-2.2558;
2495908295124176;-9.5076;0.3775;-2.3228;
2495908305231676;-9.5028;0.3248;-2.4978;
2495908315332666;-9.4621;0.2339;-2.6130;
2495908325440166;-9.4549;0.1618;-2.6130;
2495908335547666;-9.4334;0.1259;-2.5193;
2495908345651832;-9.4765;0.0972;-2.4165;
2495908355759332;-9.5172;0.1092;-2.4643;
2495908365866832;-9.4932;0.1140;-2.6010;
2495908375986311;-9.4406;0.1116;-2.6728;
2495908386093811;-9.4286;0.0900;-2.6393;
2495908396201311;-9.4573;0.1068;-2.5289;
2495908406318186;-9.5533;0.1283;-2.4571;
2495908416425634;-9.5342;0.1307;-2.5002;
2495908426533186;-9.4932;0.0996;-2.5887;
2495908436635582;-9.4358;0.0637;-2.6560;
2495908446743082;-9.4262;0.0517;-2.6034;
2495908456850582;-9.4693;0.0637;-2.5002;
2495908466975426;-9.5100;0.0517;-2.4643;
2495908477082978;-9.4813;0.1092;-2.4667;
2495908487190478;-9.4645;0.1642;-2.5935;
2495908497292145;-9.4884;0.2459;-2.6967;
2495908507399645;-9.4382;0.3296;-2.6752;
2495908517507145;-9.4119;0.3918;-2.5863;
2495908527605374;-9.4645;0.4014;-2.5409;
2495908537712874;-9.4358;0.4421;-2.5457;
2495908547820374;-9.3808;0.4902;-2.6154;
2495908557927249;-9.3736;0.5692;-2.6800;
2495908568034749;-9.4095;0.6386;-2.7111;
2495908578142249;-9.4525;0.6721;-2.6943;
2495908588247926;-9.4143;0.6840;-2.6991;
2495908598355426;-9.3784;0.6721;-2.6776;
2495908608462926;-9.3736;0.6936;-2.6728;
2495908618568655;-9.3688;0.7295;-2.7015;
2495908628676155;-9.4214;0.7944;-2.6967;
2495908638783655;-9.4262;0.8423;-2.6943;
2495908648895322;-9.3760;0.8566;-2.6297;
2495908659002822;-9.4047;0.8997;-2.5768;
2495908669110374;-9.4525;0.9452;-2.6249;
2495908679211259;-9.4262;0.9595;-2.6512;
2495908689319124;-9.3736;0.9547;-2.6201;
2495908699427041;-9.3951;0.9093;-2.5863;
2495908709541884;-9.4167;0.8901;-2.5624;
2495908719649749;-9.4190;0.8423;-2.5074;
2495908729757666;-9.4262;0.7681;-2.4954;
2495908739888863;-9.4382;0.7056;-2.5122;
2495908749996780;-9.4597;0.6577;-2.5409;
2495908760104645;-9.4789;0.6505;-2.5672;
2495908770208759;-9.4717;0.6314;-2.5193;
2495908780316676;-9.4478;0.6434;-2.4667;
2495908790424541;-9.4190;0.6458;-2.4284;
2495908800515218;-9.4597;0.6338;-2.4547;
2495908810623082;-9.4741;0.5979;-2.4954;
2495908820730947;-9.4669;0.5501;-2.4978;
2495908830841780;-9.4789;0.5189;-2.5074;
2495908840949645;-9.4956;0.5381;-2.4906;
2495908851057561;-9.4693;0.5668;-2.4715;
2495908861164072;-9.4549;0.5931;-2.4811;
2495908871271936;-9.4454;0.5883;-2.5624;
2495908881379801;-9.4167;0.5692;-2.6225;
2495908891469801;-9.4358;0.5094;-2.6058;
2495908901577666;-9.4765;0.3846;-2.6058;
2495908911685530;-9.4478;0.3344;-2.5576;
2495908921822301;-9.4406;0.2530;-2.5074;
2495908931930166;-9.4382;0.1786;-2.5074;
2495908942038082;-9.4430;0.0757;-2.5600;
2495908952131259;-9.4837;-0.0392;-2.6273;
2495908962239124;-9.5100;-0.1065;-2.6201;
2495908972346988;-9.4860;-0.1352;-2.5576;
2495908982454280;-9.4669;-0.0802;-2.4954;
2495908992562197;-9.4765;-0.0248;-2.5241;
2495909002670061;-9.4813;-0.0081;-2.5552;
2495909012804176;-9.4669;-0.0224;-2.5576;
2495909022912093;-9.4860;-0.0631;-2.5552;
2495909033019957;-9.4789;-0.1113;-2.5074;
2495909043098030;-9.4789;-0.1448;-2.4404;
2495909053205895;-9.5172;-0.1711;-2.4380;
2495909063313811;-9.5701;-0.1615;-2.5074;
2495909073422353;-9.5148;-0.1352;-2.5265;
2495909083530218;-9.4502;-0.1232;-2.4643;
2495909093638134;-9.5052;-0.0802;-2.3734;
2495909103747041;-9.5243;-0.0368;-2.3542;
2495909113854905;-9.5172;-0.0057;-2.3925;
2495909123962822;-9.5291;0.0517;-2.5122;
2495909134077509;-9.5148;0.0757;-2.5744;
2495909144185374;-9.4502;0.1164;-2.5409;
2495909154293238;-9.4310;0.1618;-2.4595;
2495909164399228;-9.4669;0.2219;-2.3925;
2495909174507041;-9.4932;0.2650;-2.4428;
2495909184614905;-9.4789;0.3009;-2.5122;
2495909194722770;-9.4765;0.3200;-2.6249;
2495909204829488;-9.4693;0.3679;-2.6560;
2495909214937353;-9.4502;0.4086;-2.5600;
2495909225045270;-9.4071;0.4397;-2.4811;
2495909235144541;-9.4119;0.4612;-2.4332;
2495909245252405;-9.4669;0.4783;-2.5409;
2495909255360322;-9.4573;0.5022;-2.6512;
2495909265486988;-9.4310;0.5285;-2.6536;
2495909275594853;-9.4382;0.5572;-2.5839;
2495909285702770;-9.4430;0.6314;-2.5768;
2495909295796051;-9.4597;0.6960;-2.5217;
2495909305903916;-9.4023;0.7394;-2.5911;
2495909316011780;-9.3855;0.7609;-2.6752;
2495909326126468;-9.3999;0.7609;-2.7230;
2495909336234332;-9.4262;0.7681;-2.6895;
2495909346342197;-9.3832;0.7681;-2.5816;
2495909356442041;-9.3855;0.8183;-2.4978;
2495909366549905;-9.4214;0.8853;-2.5768;
2495909376657822;-9.4190;0.9332;-2.6991;
2495909386765218;-9.4143;0.9906;-2.7829;
2495909396873134;-9.3927;1.0077;-2.7637;
2495909406980999;-9.3640;1.0172;-2.6943;
2495909417099124;-9.3712;1.0125;-2.6465;
2495909427206988;-9.3855;1.0172;-2.6106;
2495909437314905;-9.3760;1.0101;-2.6249;
2495909447417405;-9.3927;0.9811;-2.6895;
2495909457525270;-9.4214;0.9882;-2.6943;
2495909467633186;-9.4047;1.0026;-2.6465;
2495909477738759;-9.4167;1.0026;-2.6058;
2495909487846624;-9.3951;0.9643;-2.5433;
2495909497954541;-9.4119;0.9691;-2.5409;
2495909508054905;-9.3999;0.9308;-2.5768;
2495909518162770;-9.4071;0.8853;-2.6201;
2495909528270634;-9.4502;0.8471;-2.5986;
2495909538377301;-9.4669;0.8136;-2.6010;
2495909548485166;-9.4310;0.7561;-2.5672;
2495909558593082;-9.4167;0.7247;-2.4835;
2495909568718030;-9.4669;0.6864;-2.4906;
2495909578825947;-9.4908;0.6697;-2.5217;
2495909588933811;-9.4765;0.6218;-2.5433;
2495909599044697;-9.4789;0.6314;-2.5170;
2495909609152561;-9.4645;0.6482;-2.4882;
2495909619260426;-9.4525;0.6194;-2.4452;
2495909629357718;-9.4430;0.5620;-2.4380;
2495909639465634;-9.4573;0.4950;-2.4595;
2495909649573499;-9.4597;0.3775;-2.5241;
2495909659680843;-9.4645;0.2674;-2.5504;
2495909669788759;-9.4693;0.1762;-2.5098;
2495909679896624;-9.4789;0.1475;-2.4763;
2495909689993134;-9.4860;0.1475;-2.4978;
2495909700100999;-9.5004;0.1235;-2.5193;
2495909710208811;-9.4980;0.1044;-2.5696;
2495909720335009;-9.4406;0.1020;-2.5839;
2495909730442874;-9.4286;0.0996;-2.5409;
2495909740550686;-9.4645;0.1116;-2.4882;
2495909750644280;-9.4765;0.1881;-2.4858;
2495909760752145;-9.4908;0.2459;-2.5504;
2495909770859957;-9.5052;0.2435;-2.6752;
2495909780967301;-9.4190;0.3081;-2.6608;
2495909791075166;-9.4119;0.3248;-2.6345;
2495909801182978;-9.4789;0.3224;-2.5720;
2495909811289593;-9.4573;0.3583;-2.5265;
2495909821397457;-9.4167;0.4158;-2.5696;
2495909831505270;-9.3999;0.4783;-2.6512;
2495909841612301;-9.4430;0.5405;-2.7470;
2495909851720166;-9.4190;0.5979;-2.7087;
2495909861827978;-9.4023;0.6194;-2.6608;
2495909871939488;-9.4286;0.6147;-2.6010;
2495909882047353;-9.4525;0.6721;-2.5986;
2495909892155166;-9.4406;0.7295;-2.7063;
2495909902258968;-9.4071;0.7753;-2.7470;
2495909912366832;-9.3903;0.8088;-2.7111;
2495909922474645;-9.3832;0.8566;-2.6824;
2495909932583863;-9.4119;0.9021;-2.6441;
2495909942691728;-9.4119;0.9404;-2.6465;
2495909952799541;-9.3832;0.9691;-2.6919;
2495909962903655;-9.3903;0.9667;-2.7159;
2495909973011520;-9.3760;0.9188;-2.6943;
2495909983119332;-9.3592;0.9404;-2.6632;
2495909993261259;-9.3664;0.9260;-2.5959;
2495910003369124;-9.4214;0.9667;-2.6441;
2495910013476936;-9.4597;0.9547;-2.7159;
2495910023553447;-9.4143;0.9332;-2.7565;
2495910033661311;-9.3520;0.9667;-2.7182;
2495910043769124;-9.3616;0.9763;-2.6871;
2495910053873291;-9.3927;0.9308;-2.6847;
2495910063981155;-9.3951;0.9332;-2.6728;
2495910074088968;-9.3520;0.9045;-2.7039;
2495910084203447;-9.3138;0.8686;-2.6967;
2495910094311311;-9.3353;0.8255;-2.6776;
2495910104419124;-9.3903;0.7825;-2.6536;
2495910114540218;-9.4765;0.7295;-2.6608;
2495910124648082;-9.4645;0.6960;-2.6824;
2495910134755895;-9.3999;0.6625;-2.6704;
2495910144849072;-9.3353;0.6745;-2.5696;
2495910154956884;-9.3832;0.6553;-2.5098;
2495910165064801;-9.4837;0.6362;-2.5409;
2495910175176363;-9.4549;0.6290;-2.4930;
2495910185284228;-9.4310;0.6218;-2.4930;
2495910195392041;-9.4382;0.6266;-2.5193;
2495910205500322;-9.4262;0.6290;-2.4667;
2495910215608186;-9.4310;0.6458;-2.3495;
2495910225715999;-9.5148;0.6817;-2.3447;
2495910235826884;-9.5366;0.7128;-2.3973;
2495910245934749;-9.4860;0.7681;-2.3758;
2495910256042561;-9.4262;0.8207;-2.3204;
2495910266133551;-9.4214;0.8518;-2.2822;
2495910276241416;-9.4669;0.8662;-2.2152;
2495910286349228;-9.5438;0.8662;-2.2391;
2495910296468030;-9.5677;0.8973;-2.3085;
2495910306575895;-9.5845;0.9284;-2.3447;
2495910316683707;-9.5076;0.9811;-2.2941;
2495910326789488;-9.4645;1.0603;-2.1912;
2495910336897353;-9.5100;1.1417;-2.1601;
2495910347005166;-9.5291;1.1632;-2.2534;
2495910357111468;-9.4573;1.1560;-2.3133;
2495910367219332;-9.4238;1.1154;-2.4117;
2495910377327145;-9.4238;1.1321;-2.4595;
2495910387438030;-9.4310;1.1393;-2.4260;
2495910397545895;-9.4908;1.1297;-2.4260;
2495910407653707;-9.4597;1.1225;-2.4667;
2495910417765947;-9.3903;1.1249;-2.5122;
2495910427873811;-9.3951;1.1177;-2.5959;
2495910437981624;-9.3999;1.1249;-2.6489;
2495910448081884;-9.3832;1.1225;-2.6130;
2495910458189749;-9.4119;1.1297;-2.5839;
2495910468297561;-9.3736;1.0938;-2.6082;
2495910478407197;-9.3568;1.0603;-2.6393;
2495910488515061;-9.3592;1.0244;-2.7063;
2495910498622874;-9.3736;1.0340;-2.7278;
2495910508761884;-9.3903;1.0747;-2.7302;
2495910518869749;-9.3855;1.1177;-2.7182;
2495910528977561;-9.3951;1.1608;-2.7230;
2495910539067405;-9.3449;1.1871;-2.7374;
2495910549175218;-9.2755;1.1752;-2.7517;
2495910559283082;-9.2513;1.1584;-2.7087;
2495910569399176;-9.3497;1.1010;-2.6967;
2495910579507041;-9.3975;1.0412;-2.7039;
2495910589614853;-9.4047;1.0101;-2.7135;
2495910599695218;-9.3592;0.9595;-2.7326;
2495910609803082;-9.3712;0.8949;-2.6943;
2495910619910895;-9.3927;0.8399;-2.6704;
2495910630044801;-9.4693;0.7825;-2.7159;
2495910640152666;-9.4238;0.7418;-2.6560;
2495910650260478;-9.3712;0.7104;-2.5935;
2495910660343134;-9.4143;0.6984;-2.6058;
2495910670450999;-9.4382;0.6864;-2.6010;
2495910680558811;-9.4334;0.6793;-2.5385;
2495910690676780;-9.4454;0.6625;-2.4787;
2495910700784697;-9.4549;0.6458;-2.4930;
2495910710892613;-9.4478;0.6290;-2.4691;
2495910721021572;-9.4573;0.6242;-2.4547;
2495910731129488;-9.4741;0.6434;-2.4643;
2495910741237405;-9.4693;0.6673;-2.4380;
2495910751315791;-9.4549;0.6984;-2.3830;
2495910761423707;-9.4717;0.7056;-2.4045;
2495910771531624;-9.4860;0.7056;-2.4595;
2495910781637041;-9.4645;0.7152;-2.4954;
2495910791744957;-9.4502;0.7008;-2.5217;
2495910801852874;-9.3975;0.6649;-2.4595;
2495910811974697;-9.4190;0.6410;-2.4308;
2495910822082613;-9.4884;0.5692;-2.4835;
2495910832190530;-9.5100;0.4759;-2.5672;
2495910842286988;-9.4717;0.4038;-2.6010;
2495910852394905;-9.4454;0.3990;-2.6225;
2495910862502822;-9.4454;0.4349;-2.5816;
2495910872610530;-9.4023;0.4612;-2.4571;
2495910882718447;-9.4214;0.4588;-2.4236;
2495910892826363;-9.4813;0.4062;-2.5768;
2495910902935113;-9.5267;0.3416;-2.7541;
2495910913043030;-9.4669;0.3176;-2.7972;
2495910923150947;-9.3951;0.3344;-2.6728;
2495910933255947;-9.4047;0.4229;-2.5337;
2495910943363863;-9.4597;0.4878;-2.4930;
2495910953471780;-9.4837;0.5429;-2.5816;
2495910963580530;-9.4190;0.5644;-2.6871;
2495910973688447;-9.3497;0.6099;-2.7350;
2495910983796363;-9.3736;0.6338;-2.7182;
2495910993884801;-9.4525;0.6625;-2.6130;
2495911003992718;-9.4286;0.6817;-2.5122;
2495911014100634;-9.3903;0.7056;-2.5146;
2495911024231884;-9.3855;0.7319;-2.6345;
2495911034339801;-9.4119;0.7442;-2.7111;
2495911044447718;-9.4382;0.7705;-2.6704;
2495911054550374;-9.4478;0.7729;-2.5887;
2495911064658291;-9.4190;0.7920;-2.4882;
2495911074766207;-9.3879;0.7801;-2.4523;
2495911084881207;-9.4382;0.7609;-2.5409;
2495911094989124;-9.4765;0.7753;-2.6345;
2495911105097041;-9.4502;0.7848;-2.6201;
2495911115193238;-9.4190;0.8351;-2.5839;
2495911125301155;-9.4167;0.8638;-2.4978;
2495911135409072;-9.4071;0.9021;-2.4547;
2495911145512509;-9.4190;0.9643;-2.4811;
2495911155620426;-9.4262;0.9930;-2.5289;
2495911165728343;-9.4502;0.9978;-2.6082;
2495911175845634;-9.4645;1.0244;-2.6010;
2495911185953551;-9.4190;1.0340;-2.4906;
2495911196061468;-9.4430;1.0675;-2.4476;
2495911206163030;-9.4238;1.1058;-2.4954;
2495911216270947;-9.3879;1.0866;-2.5170;
2495911226378811;-9.3951;1.0579;-2.5600;
2495911236490530;-9.4382;1.0292;-2.5744;
2495911246598447;-9.4262;1.0172;-2.5696;
2495911256706363;-9.3951;0.9691;-2.5122;
2495911266824124;-9.3951;0.9404;-2.5170;
2495911276932041;-9.4095;0.8542;-2.5361;
2495911287039957;-9.4095;0.7872;-2.5839;
2495911297143863;-9.4238;0.7609;-2.6082;
2495911307251780;-9.4430;0.7056;-2.6130;
2495911317359697;-9.4382;0.6458;-2.5935;
2495911327466572;-9.4310;0.6075;-2.5289;
2495911337574488;-9.4119;0.6266;-2.5170;
2495911347682405;-9.4430;0.6218;-2.5457;
2495911357787197;-9.4932;0.6218;-2.6130;
2495911367895113;-9.4860;0.5979;-2.6297;
2495911378003030;-9.4525;0.5692;-2.5289;
2495911388105843;-9.4406;0.5883;-2.4380;
2495911398213759;-9.4454;0.6170;-2.4476;
2495911408321676;-9.4502;0.6505;-2.4763;
2495911418443968;-9.4454;0.6362;-2.5600;
2495911428551884;-9.4406;0.5572;-2.6177;
2495911438659801;-9.4382;0.4831;-2.6249;
2495911448770738;-9.4023;0.4325;-2.5552;
2495911458878655;-9.3903;0.4469;-2.4763;
2495911468986572;-9.4741;0.4277;-2.5624;
2495911479105738;-9.4789;0.4253;-2.7206;
2495911489213655;-9.4262;0.4134;-2.7589;
2495911499321572;-9.4262;0.3846;-2.7446;
2495911509431832;-9.4454;0.3727;-2.6225;
2495911519539749;-9.4286;0.4014;-2.4835;
2495911529647666;-9.4478;0.4588;-2.4739;
2495911539736572;-9.4478;0.4759;-2.5552;
2495911549844488;-9.4167;0.4902;-2.6273;
2495911559952405;-9.4262;0.4950;-2.6369;
2495911570044384;-9.4693;0.4831;-2.5696;
2495911580152301;-9.4837;0.4807;-2.5098;
2495911590260218;-9.4621;0.4878;-2.4595;
2495911600373343;-9.4430;0.5070;-2.4930;
2495911610481259;-9.4478;0.5285;-2.5217;
2495911620589176;-9.4478;0.5285;-2.5433;
2495911630697041;-9.4765;0.5524;-2.5457;
2495911640804957;-9.4621;0.5931;-2.4882;
2495911650912874;-9.4621;0.6362;-2.5002;
2495911661022874;-9.4765;0.7032;-2.5122;
2495911671130791;-9.4525;0.7295;-2.5552;
2495911681238707;-9.4286;0.7992;-2.5744;
2495911691349176;-9.4621;0.8088;-2.5289;
2495911701456988;-9.4478;0.8351;-2.5074;
2495911711564853;-9.4143;0.8614;-2.4882;
2495911721674697;-9.4214;0.8758;-2.5217;
2495911731782509;-9.4430;0.9188;-2.5696;
2495911741890374;-9.4454;0.9428;-2.6154;
2495911751999176;-9.4478;0.9643;-2.5986;
2495911762106988;-9.4286;1.0077;-2.5481;
2495911772214853;-9.4167;1.0603;-2.5241;
2495911782318551;-9.3975;1.0962;-2.5361;
2495911792426363;-9.4023;1.1058;-2.5552;
2495911802534228;-9.3927;1.1058;-2.6177;
2495911812621103;-9.4143;1.0795;-2.6728;
2495911822728916;-9.4214;1.0101;-2.6728;
2495911832836780;-9.3975;0.9571;-2.6441;
2495911842963030;-9.3497;0.9452;-2.5672;
2495911853070843;-9.3999;0.9500;-2.5911;
2495911863178707;-9.4430;0.9141;-2.6345;
2495911873285426;-9.4023;0.8949;-2.6847;
2495911883393291;-9.3760;0.8925;-2.6991;
2495911893501103;-9.4095;0.8662;-2.6752;
2495911903609593;-9.4238;0.8518;-2.6393;
2495911913717405;-9.3879;0.8040;-2.6154;
2495911923825270;-9.3592;0.7657;-2.5986;
2495911933940843;-9.4214;0.7513;-2.6776;
2495911944048655;-9.4262;0.6960;-2.6824;
2495911954156520;-9.4286;0.6745;-2.6154;
2495911964264957;-9.4693;0.6721;-2.5600;
2495911974372770;-9.4454;0.6721;-2.5074;
2495911984480634;-9.3903;0.6984;-2.4930;
2495911994600322;-9.4358;0.7032;-2.5241;
2495912004708186;-9.4549;0.6840;-2.5624;
2495912014815999;-9.4645;0.6577;-2.5959;
2495912024906988;-9.4621;0.6003;-2.5481;
2495912035014801;-9.4502;0.5261;-2.4643;
2495912045122666;-9.4406;0.5094;-2.4356;
2495912055233238;-9.4525;0.4759;-2.4643;
2495912065341051;-9.4669;0.4469;-2.4978;
2495912075448916;-9.4525;0.4014;-2.5481;
2495912085557509;-9.4789;0.3129;-2.5504;
2495912095665322;-9.4621;0.2746;-2.4906;
2495912105773186;-9.4741;0.2267;-2.4691;
2495912115876155;-9.4621;0.2339;-2.4715;
2495912125983968;-9.4717;0.2937;-2.5241;
2495912136091832;-9.4837;0.3775;-2.6154;
2495912146188291;-9.4956;0.3990;-2.6393;
2495912156296103;-9.4478;0.4038;-2.5361;
2495912166403968;-9.4095;0.4854;-2.4571;
2495912176525322;-9.4358;0.5237;-2.4547;
2495912186633134;-9.4765;0.5668;-2.5528;
2495912196740999;-9.4573;0.6123;-2.6512;
2495912206845738;-9.4502;0.6482;-2.6082;
2495912216953551;-9.4262;0.6625;-2.5481;
2495912227061416;-9.4310;0.7199;-2.5265;
2495912237175113;-9.4645;0.7968;-2.5098;
2495912247282926;-9.4143;0.8279;-2.5696;
2495912257390791;-9.3879;0.8447;-2.6225;
2495912267502613;-9.4334;0.8638;-2.6417;
2495912277610426;-9.4525;0.8423;-2.5935;
2495912287718291;-9.4143;0.8471;-2.5481;
2495912297821572;-9.3999;0.8447;-2.5002;
2495912307929384;-9.4023;0.8518;-2.5241;
2495912318037249;-9.4119;0.8590;-2.5911;
2495912328134384;-9.4382;0.8471;-2.6776;
2495912338242197;-9.4286;0.8399;-2.6680;
2495912348350061;-9.4119;0.8112;-2.6034;
2495912358458863;-9.4262;0.7825;-2.5576;
2495912368566728;-9.4406;0.7681;-2.5911;
2495912378674541;-9.4310;0.7343;-2.5839;
2495912388847509;-9.4214;0.7223;-2.5911;
2495912398955374;-9.4358;0.6984;-2.6130;
2495912409063186;-9.4430;0.6769;-2.5624;
2495912419091676;-9.4406;0.6840;-2.5217;
2495912429199488;-9.4478;0.7295;-2.5313;
2495912439307301;-9.4645;0.7319;-2.5816;
2495912449473968;-9.4334;0.7104;-2.5839;
2495912459581832;-9.4095;0.7032;-2.5624;
2495912469689645;-9.4047;0.6601;-2.5170;
2495912479756520;-9.4454;0.6314;-2.4428;
2495912489864332;-9.4621;0.5859;-2.4858;
2495912499972197;-9.4741;0.5357;-2.5385;
2495912510085270;-9.4860;0.4564;-2.5986;
2495912520193082;-9.4406;0.3990;-2.5528;
2495912530300947;-9.4358;0.3894;-2.4739;
2495912540405634;-9.4549;0.3511;-2.4404;
2495912550513447;-9.4860;0.3344;-2.4188;
2495912560621311;-9.4717;0.3488;-2.4739;
2495912570742509;-9.4525;0.3511;-2.5792;
2495912580850322;-9.4860;0.3488;-2.6106;
2495912590958186;-9.4908;0.3775;-2.5696;
2495912601061207;-9.4645;0.3799;-2.5050;
2495912611169020;-9.4454;0.4134;-2.4595;
2495912621276884;-9.4478;0.4038;-2.4858;
2495912631375426;-9.4549;0.3990;-2.5600;
2495912641483238;-9.4406;0.3942;-2.6201;
2495912651591103;-9.4167;0.3583;-2.5792;
2495912661698291;-9.4406;0.3727;-2.4835;
2495912671806103;-9.4813;0.3823;-2.4811;
2495912681913968;-9.4741;0.4062;-2.5409;
2495912692024801;-9.4765;0.4134;-2.6297;
2495912702132666;-9.4382;0.4540;-2.6249;
2495912712240478;-9.4143;0.5381;-2.5696;
2495912722349801;-9.4334;0.5812;-2.4978;
2495912732457666;-9.4286;0.6410;-2.4811;
2495912742565478;-9.4238;0.6721;-2.4978;
2495912752669905;-9.4478;0.7223;-2.6106;
2495912762777770;-9.4573;0.7896;-2.6943;
2495912772885582;-9.4454;0.8447;-2.6632;
2495912782995322;-9.4047;0.9308;-2.5600;
2495912793103186;-9.3808;1.0244;-2.5098;
2495912803210999;-9.3640;1.0579;-2.5385;
2495912813339176;-9.3832;1.0507;-2.6058;
2495912823447041;-9.3736;1.0484;-2.6752;
2495912833554853;-9.4119;1.0388;-2.7039;
2495912843643968;-9.3999;0.9930;-2.7159;
2495912853751832;-9.3808;0.9643;-2.6249;
2495912863859645;-9.4071;0.9523;-2.6201;
2495912873962353;-9.3808;0.9308;-2.6680;
2495912884070218;-9.3257;0.9117;-2.6943;
2495912894178030;-9.3592;0.9284;-2.7015;
2495912904286468;-9.4214;0.8662;-2.6895;
2495912914394332;-9.4525;0.8327;-2.6704;
2495912924502145;-9.4525;0.7992;-2.6512;
2495912934614280;-9.4573;0.7777;-2.6154;
2495912944722145;-9.3903;0.7657;-2.5289;
2495912954829957;-9.3664;0.7729;-2.4930;
2495912964933291;-9.4454;0.7008;-2.5098;
2495912975041155;-9.4908;0.6170;-2.5696;
2495912985148968;-9.4860;0.5285;-2.6249;
2495912995255634;-9.4765;0.4205;-2.5839;
2495913005363499;-9.4597;0.3416;-2.4978;
2495913015471311;-9.4502;0.3105;-2.3949;
2495913025586572;-9.4932;0.3129;-2.3758;
2495913035694436;-9.5219;0.3033;-2.4404;
2495913045802249;-9.4789;0.2363;-2.4978;
2495913055911311;-9.4334;0.1451;-2.4811;
2495913066019176;-9.4884;0.0829;-2.4571;
2495913076126988;-9.5243;0.0613;-2.4284;
2495913086235530;-9.5291;0.0422;-2.4476;
2495913096343395;-9.4908;0.0470;-2.5313;
2495913106451207;-9.4645;0.0613;-2.5911;
2495913116564488;-9.4406;0.0781;-2.5696;
2495913126672353;-9.4382;0.1140;-2.5074;
2495913136780166;-9.4406;0.1451;-2.4595;
2495913146881363;-9.4525;0.1929;-2.5217;
2495913156989228;-9.4358;0.2315;-2.6130;
2495913167097041;-9.4693;0.2841;-2.7182;
2495913177213707;-9.4286;0.3488;-2.7206;
2495913187321572;-9.3975;0.3535;-2.5816;
2495913197429384;-9.4310;0.3846;-2.5457;
2495913207533291;-9.4549;0.4540;-2.5863;
2495913217641155;-9.4143;0.4926;-2.6656;
2495913227748968;-9.3951;0.5309;-2.7326;
2495913237858655;-9.3975;0.5668;-2.6704;
2495913247966520;-9.4358;0.6170;-2.5887;
2495913258074332;-9.4669;0.6529;-2.5385;
2495913268168968;-9.4478;0.6769;-2.5457;
2495913278276832;-9.4286;0.7370;-2.6058;
2495913288384645;-9.4286;0.8040;-2.6560;
2495913298487457;-9.4597;0.8877;-2.6154;
2495913308595322;-9.4358;0.9667;-2.5217;
2495913318703134;-9.3903;1.0388;-2.4571;
2495913328847301;-9.4190;1.0771;-2.5146;
2495913338955166;-9.4071;1.1177;-2.5624;
2495913349062978;-9.4143;1.1417;-2.5528;
2495913359140113;-9.3975;1.1704;-2.5552;
2495913369247978;-9.3879;1.2015;-2.4739;
2495913379355791;-9.3975;1.1752;-2.4069;
2495913389466676;-9.4143;1.1824;-2.4452;
2495913399574541;-9.4430;1.1895;-2.5337;
2495913409682353;-9.4143;1.1680;-2.5170;
2495913419811884;-9.4119;1.1728;-2.4930;
2495913429919749;-9.4478;1.1465;-2.4906;
2495913440027561;-9.4573;1.1321;-2.5074;
2495913450110009;-9.4238;1.1512;-2.5528;
2495913460217874;-9.4095;1.1584;-2.6441;
2495913470325686;-9.3832;1.0962;-2.6680;
2495913480435738;-9.3736;1.0412;-2.6417;
2495913490543603;-9.3951;0.9691;-2.6106;
2495913500651416;-9.4167;0.8710;-2.5887;
2495913510781884;-9.4047;0.7992;-2.6034;
2495913520889749;-9.3927;0.7609;-2.6560;
2495913530997561;-9.4190;0.7609;-2.7350;
2495913541081468;-9.4597;0.7490;-2.7637;
2495913551189332;-9.4430;0.7223;-2.7398;
2495913561297145;-9.3927;0.7247;-2.6034;
2495913571400738;-9.3736;0.7394;-2.5170;
2495913581508603;-9.4047;0.7609;-2.4835;
2495913591616416;-9.4765;0.7872;-2.5481;
2495913601743134;-9.4980;0.8351;-2.6680;
2495913611850999;-9.3903;0.8973;-2.7159;
2495913621958811;-9.3592;0.9236;-2.6991;
2495913632059280;-9.4023;0.9571;-2.6369;
2495913642167145;-9.3736;1.0149;-2.5337;
2495913652274957;-9.3736;1.1082;-2.5146;
2495913662388655;-9.3544;1.1800;-2.6058;
2495913672496520;-9.3712;1.1919;-2.6704;
2495913682604332;-9.4047;1.1441;-2.6824;
2495913692711051;-9.4119;1.0962;-2.6536;
2495913702818968;-9.3903;1.0531;-2.5720;
2495913712926936;-9.3855;1.0196;-2.5074;
2495913723034488;-9.4023;0.9619;-2.5433;
2495913733142405;-9.4382;0.9500;-2.6536;
2495913743250322;-9.4119;0.9332;-2.6297;
2495913753360738;-9.3784;0.8973;-2.5481;
2495913763468707;-9.4310;0.8614;-2.4500;
2495913773576624;-9.4430;0.8734;-2.3758;
2495913783677718;-9.4645;0.8542;-2.4141;
2495913793785686;-9.5315;0.8566;-2.5457;
2495913803893551;-9.5315;0.8327;-2.6704;
2495913814004072;-9.4597;0.7801;-2.6441;
2495913824111988;-9.3975;0.8566;-2.4691;
2495913834219905;-9.4119;0.9212;-2.3471;
2495913844325374;-9.4119;0.9356;-2.3375;
2495913854433291;-9.4214;0.9452;-2.4356;
2495913864541207;-9.4430;0.9332;-2.6345;
2495913874670270;-9.4549;0.8901;-2.6895;
2495913884778186;-9.4430;0.8495;-2.5911;
2495913894886155;-9.4310;0.8064;-2.4667;
2495913904976363;-9.4047;0.7920;-2.3997;
2495913915084280;-9.4023;0.7777;-2.4500;
2495913925192197;-9.4190;0.7295;-2.6321;
2495913935300218;-9.4262;0.6242;-2.7135;
2495913945408134;-9.4478;0.4974;-2.7063;
2495913955516051;-9.4884;0.4445;-2.5935;
2495913965616363;-9.4525;0.4469;-2.5050;
2495913975724280;-9.4047;0.4783;-2.4667;
2495913985832197;-9.4167;0.4998;-2.5409;
2495913995945530;-9.4741;0.4878;-2.6919;
2495914006053447;-9.4525;0.4445;-2.7230;
2495914016161363;-9.4047;0.3846;-2.6297;
2495914026274541;-9.4669;0.3368;-2.5337;
2495914036382457;-9.4884;0.3392;-2.4643;
2495914046490374;-9.4837;0.4110;-2.5217;
2495914056590947;-9.4286;0.4469;-2.6201;
2495914066698863;-9.4286;0.4445;-2.6824;
2495914076806780;-9.4597;0.4134;-2.6417;
2495914086921051;-9.4262;0.4014;-2.5170;
2495914097028968;-9.4645;0.3942;-2.4930;
2495914107136884;-9.4645;0.4493;-2.5672;
2495914117243238;-9.4214;0.4421;-2.6034;
2495914127351155;-9.4167;0.4158;-2.6321;
2495914137459072;-9.4310;0.3655;-2.6201;
2495914147561155;-9.4597;0.2937;-2.5241;
2495914157669072;-9.4741;0.2459;-2.4906;
2495914167776988;-9.4621;0.2195;-2.4954;
2495914177894280;-9.4430;0.2219;-2.5265;
2495914188002197;-9.4597;0.2291;-2.6082;
2495914198110113;-9.5124;0.2052;-2.6345;
2495914208207613;-9.4956;0.1570;-2.5600;
2495914218315530;-9.4358;0.1427;-2.4691;
2495914228423447;-9.4717;0.1594;-2.4428;
2495914238531676;-9.4860;0.1881;-2.4739;
2495914248639645;-9.5004;0.2267;-2.5720;
2495914258747561;-9.5052;0.2291;-2.6393;
2495914268863447;-9.4621;0.2435;-2.5624;
2495914278971363;-9.3975;0.2865;-2.4380;
2495914289079280;-9.4525;0.3009;-2.3901;
2495914299155218;-9.4789;0.3129;-2.4787;
2495914309263134;-9.4573;0.3535;-2.5816;
2495914319371103;-9.4478;0.4516;-2.6489;
2495914329500322;-9.4813;0.5022;-2.6130;
2495914339608238;-9.4669;0.5524;-2.5050;
2495914349716155;-9.4262;0.6314;-2.4165;
2495914359848447;-9.4190;0.6912;-2.4476;
2495914369956363;-9.4167;0.7848;-2.5696;
2495914380064280;-9.4214;0.8590;-2.6273;
2495914390180061;-9.4430;0.9260;-2.6201;
2495914400287978;-9.4382;0.9523;-2.5911;
2495914410395895;-9.4382;1.0196;-2.5074;
2495914420510113;-9.3999;1.0842;-2.4787;
2495914430618030;-9.3951;1.1632;-2.5265;
2495914440725999;-9.3736;1.2206;-2.5672;
2495914450804072;-9.3784;1.2565;-2.6058;
2495914460911988;-9.3975;1.2661;-2.5935;
2495914471019905;-9.4095;1.2927;-2.5959;
2495914481121468;-9.3808;1.3190;-2.6010;
2495914491229384;-9.3903;1.3190;-2.6010;
2495914501337301;-9.3688;1.3167;-2.6441;
2495914511457041;-9.3592;1.3238;-2.6345;
2495914521564957;-9.3688;1.3262;-2.6321;
2495914531672874;-9.3927;1.3071;-2.6393;
2495914541771780;-9.3832;1.2855;-2.6512;
2495914551879697;-9.3664;1.2565;-2.6441;
2495914561987613;-9.4023;1.2350;-2.6560;
2495914572100218;-9.3855;1.2613;-2.6608;
2495914582208134;-9.3568;1.2637;-2.6369;
2495914592316051;-9.3855;1.2326;-2.6345;
2495914602419697;-9.4143;1.2015;-2.6632;
2495914612527613;-9.3832;1.1704;-2.6728;
2495914622635530;-9.3616;1.1273;-2.6273;
2495914632736884;-9.3808;1.0938;-2.6154;
2495914642844801;-9.3879;1.0531;-2.5792;
2495914652952718;-9.4214;0.9811;-2.5672;
2495914663077405;-9.4358;0.9356;-2.6010;
2495914673185322;-9.4382;0.8590;-2.6130;
2495914683293238;-9.3903;0.7825;-2.5528;
2495914693389072;-9.4071;0.7681;-2.5170;
2495914703496988;-9.4621;0.7490;-2.5217;
2495914713604905;-9.4717;0.7343;-2.5576;
2495914723716259;-9.4693;0.7032;-2.5600;
2495914733824176;-9.4262;0.6649;-2.5337;
2495914743932093;-9.3999;0.6529;-2.5026;
2495914754025843;-9.4454;0.6482;-2.4835;
2495914764133759;-9.4573;0.6721;-2.4643;
2495914774241676;-9.4119;0.6936;-2.4739;
2495914784365009;-9.4023;0.6864;-2.5170;
2495914794472926;-9.4741;0.7056;-2.5959;
2495914804580843;-9.4813;0.6673;-2.6417;
2495914814688238;-9.4525;0.6529;-2.5768;
2495914824796155;-9.4238;0.6482;-2.5433;
2495914834904072;-9.4286;0.6458;-2.5409;
2495914845011155;-9.4190;0.6338;-2.5648;
2495914855119072;-9.4525;0.6170;-2.6297;
2495914865226988;-9.4525;0.5740;-2.6393;
2495914875328291;-9.4765;0.5381;-2.6512;
2495914885436207;-9.4478;0.5261;-2.6154;
2495914895544124;-9.3688;0.4998;-2.5576;
2495914905654801;-9.3832;0.4636;-2.5361;
2495914915762770;-9.4095;0.4469;-2.5863;
2495914925870634;-9.4621;0.3990;-2.6441;
2495914935976780;-9.4837;0.3655;-2.6776;
2495914946084697;-9.4717;0.3990;-2.6417;
2495914956192613;-9.4908;0.4684;-2.5887;
2495914966306051;-9.4597;0.5333;-2.5026;
2495914976413968;-9.4143;0.5644;-2.4547;
2495914986521884;-9.4190;0.5596;-2.4906;
2495914996634280;-9.4310;0.5859;-2.5986;
2495915006742197;-9.4310;0.5644;-2.5720;
2495915016850113;-9.4789;0.5620;-2.5409;
2495915026950895;-9.4860;0.6147;-2.5361;
2495915037058811;-9.4262;0.6936;-2.4739;
2495915047166728;-9.4167;0.7295;-2.4811;
2495915057275322;-9.4430;0.7609;-2.5672;
2495915067383238;-9.4717;0.7777;-2.6082;
2495915077491155;-9.4669;0.7729;-2.6249;
2495915087604593;-9.4143;0.7944;-2.5792;
2495915097712509;-9.4238;0.8040;-2.5337;
2495915107820426;-9.4214;0.8303;-2.5265;
2495915117925426;-9.4167;0.8518;-2.5672;
2495915128033343;-9.4382;0.8638;-2.6106;
2495915138141259;-9.4047;0.8662;-2.6249;
2495915148246207;-9.4262;0.8877;-2.6058;
2495915158354124;-9.4645;0.8997;-2.6154;
2495915168462041;-9.4382;0.8710;-2.6010;
2495915178578759;-9.4047;0.8566;-2.6082;
2495915188686676;-9.3832;0.8351;-2.5986;
2495915198794593;-9.4071;0.8447;-2.5744;
2495915208901259;-9.4286;0.8207;-2.5720;
2495915219009176;-9.4286;0.7537;-2.5816;
2495915229117093;-9.4119;0.6864;-2.6082;
2495915239228343;-9.4023;0.6410;-2.6225;
2495915249336259;-9.4190;0.6075;-2.6321;
2495915259444176;-9.4502;0.6075;-2.6201;
2495915269546103;-9.4406;0.6362;-2.5839;
2495915279654020;-9.4310;0.6673;-2.6201;
2495915289761936;-9.4238;0.6912;-2.6249;
2495915299901259;-9.3927;0.7128;-2.5887;
2495915310009176;-9.4454;0.7418;-2.5887;
2495915320117093;-9.4717;0.7729;-2.5887;
2495915330203134;-9.4334;0.8088;-2.5552;
2495915340311051;-9.4071;0.8662;-2.5385;
2495915350418968;-9.4095;0.8949;-2.5409;
2495915360513134;-9.4454;0.9380;-2.5576;
2495915370621051;-9.4478;0.9404;-2.5816;
2495915380728968;-9.4454;0.9547;-2.5600;
2495915390859905;-9.4143;0.9643;-2.4571;
2495915400967822;-9.4310;1.0002;-2.5959;
2495915411075738;-9.4238;0.9954;-2.4500;
2495915421175738;-9.4334;1.0002;-2.4667;
2495915431283655;-9.4286;0.9093;-2.4858;
2495915441391572;-9.4334;0.9332;-2.5816;
2495915451485530;-9.4597;0.9380;-2.5600;
2495915461593447;-9.4358;0.9523;-2.5074;
2495915471701363;-9.4071;1.0002;-2.5050;
2495915481823238;-9.3855;0.9523;-2.4978;
2495915491931155;-9.4238;0.9643;-2.5600;
2495915502039072;-9.4238;0.9691;-2.5672;
2495915512131363;-9.4119;0.9260;-2.5600;
2495915522239280;-9.4478;0.9428;-2.5648;
2495915532347197;-9.4262;0.8710;-2.5193;
2495915542458863;-9.4047;0.9021;-2.4930;
2495915552566780;-9.4214;0.8830;-2.5385;
2495915562674697;-9.4382;0.8136;-2.5504;
2495915572781363;-9.4190;0.8447;-2.5744;
2495915582889280;-9.4214;0.8183;-2.6130;
2495915592997197;-9.4406;0.7633;-2.5959;
2495915603102301;-9.4095;0.7223;-2.6010;
2495915613210218;-9.4358;0.6577;-2.5576;
2495915623318134;-9.4238;0.6147;-2.5457;
2495915633461363;-9.4095;0.6123;-2.5768;
2495915643569280;-9.4334;0.5357;-2.5935;
2495915653677197;-9.4262;0.4735;-2.6225;
2495915663749801;-9.4167;0.3823;-2.6106;
2495915673857718;-9.4334;0.3009;-2.5696;
2495915683965634;-9.4525;0.2387;-2.6034;
2495915694078447;-9.4693;0.1618;-2.5768;
2495915704186363;-9.4597;0.1379;-2.5911;
2495915714294280;-9.4597;0.1068;-2.6249;
2495915724404488;-9.4860;0.0541;-2.6489;
2495915734512405;-9.4597;0.0374;-2.6154;
2495915744620374;-9.4454;0.0302;-2.5576;
2495915754742093;-9.4382;0.0422;-2.5481;
2495915764850009;-9.4980;0.0494;-2.5528;
2495915774957978;-9.5052;0.0685;-2.6154;
2495915785057405;-9.4717;0.0829;-2.6249;
2495915795165322;-9.4286;0.0924;-2.5504;
2495915805273291;-9.4525;0.1475;-2.4787;
2495915815379697;-9.4980;0.2363;-2.4787;
2495915825487613;-9.4860;0.3129;-2.5098;
2495915835595582;-9.4669;0.4134;-2.5959;
2495915845701259;-9.4334;0.4612;-2.6201;
2495915855809176;-9.4549;0.5309;-2.5624;
2495915865917093;-9.4789;0.6027;-2.4954;
2495915876021884;-9.4071;0.6410;-2.4476;
2495915886129801;-9.4238;0.7056;-2.4954;
2495915896237770;-9.4645;0.7585;-2.5839;
2495915906345530;-9.4238;0.7992;-2.6680;
2495915916453447;-9.4023;0.8782;-2.6249;
2495915926561416;-9.3999;0.9667;-2.5265;
2495915936674905;-9.4238;1.0292;-2.5026;
2495915946782822;-9.4190;1.0531;-2.5720;
2495915956890738;-9.4167;1.0795;-2.6728;
2495915966989801;-9.3855;1.0771;-2.7302;
2495915977097718;-9.3832;1.0675;-2.7135;
2495915987205686;-9.4071;1.0795;-2.5768;
2495915997313655;-9.4047;1.1177;-2.5624;
2495916007421572;-9.3951;1.1512;-2.6058;
2495916017529541;-9.3736;1.1728;-2.6871;
2495916027637822;-9.3808;1.1536;-2.7517;
2495916037745738;-9.3760;1.1393;-2.6943;
2495916047853707;-9.3784;1.1130;-2.5839;
2495916057963759;-9.4214;1.0842;-2.5816;
2495916068071676;-9.4334;1.0340;-2.5863;
2495916078179645;-9.3688;0.9691;-2.6082;
2495916088284072;-9.3975;0.9284;-2.6273;
2495916098391988;-9.4334;0.9188;-2.6010;
2495916108499957;-9.4597;0.9093;-2.5002;
2495916118612666;-9.4573;0.8877;-2.4715;
2495916128720582;-9.4406;0.8853;-2.5241;
2495916138828499;-9.4478;0.8471;-2.5289;
2495916148929176;-9.4190;0.8160;-2.4930;
2495916159037093;-9.4478;0.7609;-2.4667;
2495916169145009;-9.5004;0.7152;-2.4117;
2495916179309072;-9.4789;0.6960;-2.3973;
2495916189417041;-9.4837;0.6697;-2.4284;
2495916199524957;-9.4813;0.6362;-2.4523;
2495916209575218;-9.4813;0.5931;-2.4691;
2495916219683134;-9.4717;0.5405;-2.4452;
2495916229791103;-9.4837;0.5022;-2.4117;
2495916239928968;-9.4741;0.4831;-2.4188;
2495916250036884;-9.4478;0.4831;-2.4476;
2495916260144853;-9.4765;0.4878;-2.5217;
2495916270226780;-9.5028;0.4854;-2.5816;
2495916280334697;-9.4645;0.4277;-2.5576;
2495916290442613;-9.4358;0.4158;-2.5074;
2495916300571363;-9.4238;0.3990;-2.4500;
2495916310679280;-9.4286;0.4253;-2.4882;
2495916320787249;-9.4813;0.4445;-2.5672;
2495916330912718;-9.4645;0.4421;-2.6441;
2495916341020686;-9.4597;0.4445;-2.6800;
2495916351128603;-9.4621;0.4445;-2.6919;
2495916361198863;-9.4525;0.4469;-2.6130;
2495916371306780;-9.4143;0.4469;-2.5576;
2495916381414697;-9.4143;0.4564;-2.5986;
2495916391527718;-9.4190;0.4711;-2.6704;
2495916401635634;-9.4430;0.4735;-2.7111;
2495916411743551;-9.4334;0.4493;-2.7015;
2495916421864488;-9.4382;0.4660;-2.6943;
2495916431972457;-9.4430;0.4902;-2.6273;
2495916442080374;-9.4023;0.5118;-2.6321;
2495916452175947;-9.4047;0.5166;-2.6297;
2495916462283863;-9.4238;0.5261;-2.6728;
2495916472391780;-9.3999;0.5237;-2.6704;
2495916482504541;-9.4310;0.5094;-2.6321;
2495916492612457;-9.4525;0.4831;-2.6345;
2495916502720426;-9.4406;0.4711;-2.6034;
2495916512896832;-9.4358;0.4807;-2.5935;
2495916523004697;-9.4406;0.4974;-2.5887;
2495916533112666;-9.4406;0.4711;-2.5986;
2495916543150634;-9.4525;0.4062;-2.5600;
2495916553258551;-9.4645;0.3655;-2.5648;
2495916563366468;-9.4669;0.3727;-2.5337;
2495916573466884;-9.4765;0.4014;-2.5433;
2495916583574801;-9.4597;0.4636;-2.5409;
2495916593682718;-9.4454;0.4998;-2.5528;
2495916603793968;-9.4549;0.5548;-2.5744;
2495916613901884;-9.4502;0.5548;-2.5744;
2495916624009801;-9.4693;0.5644;-2.5409;
2495916634140218;-9.4597;0.5788;-2.5337;
2495916644248134;-9.4358;0.6266;-2.5026;
2495916654356103;-9.4502;0.6601;-2.5074;
2495916664453238;-9.4597;0.7008;-2.5385;
2495916674561155;-9.4669;0.6888;-2.5720;
2495916684669124;-9.4334;0.6697;-2.6010;
2495916694771676;-9.4358;0.6625;-2.5600;
2495916704879645;-9.4382;0.6769;-2.4930;
2495916714987561;-9.4693;0.7032;-2.5552;
2495916725103759;-9.4406;0.7152;-2.5337;
2495916735211728;-9.4262;0.7466;-2.5074;
2495916745319645;-9.4597;0.7418;-2.5313;
2495916755420113;-9.4645;0.7729;-2.5313;
2495916765528082;-9.4310;0.7944;-2.4978;
2495916775635999;-9.4095;0.7872;-2.4500;
2495916785738030;-9.4478;0.8016;-2.4523;
2495916795845999;-9.5004;0.7872;-2.4930;
2495916805953916;-9.4454;0.7466;-2.5552;
2495916816069384;-9.4454;0.7032;-2.5385;
2495916826177353;-9.4573;0.6793;-2.5026;
2495916836285270;-9.4478;0.6745;-2.4571;
2495916846390738;-9.4310;0.6984;-2.4141;
2495916856498707;-9.4573;0.6458;-2.4882;
2495916866606624;-9.4573;0.5668;-2.5816;
2495916876709124;-9.5004;0.4711;-2.6273;
2495916886817093;-9.4478;0.4277;-2.5696;
2495916896925009;-9.4214;0.4325;-2.4835;
2495916907032041;-9.4597;0.4564;-2.4882;
2495916917140009;-9.4717;0.4998;-2.5839;
2495916927247926;-9.4813;0.4950;-2.6776;
2495916937363551;-9.4406;0.4636;-2.7111;
2495916947471520;-9.3975;0.4325;-2.6249;
2495916957579436;-9.4358;0.4660;-2.5696;
2495916967681884;-9.4310;0.5046;-2.5457;
2495916977789853;-9.4047;0.5429;-2.5816;
2495916987897770;-9.4382;0.5237;-2.6680;
2495916998008134;-9.4406;0.5046;-2.7254;
2495917008116103;-9.4310;0.4807;-2.7015;
2495917018224020;-9.4454;0.4735;-2.6249;
2495917028326363;-9.4430;0.4564;-2.5241;
2495917038434332;-9.3855;0.4759;-2.5337;
2495917048542249;-9.4095;0.5357;-2.6082;
2495917058649176;-9.4813;0.5261;-2.7422;
2495917068757093;-9.4669;0.4759;-2.6919;
2495917078865009;-9.4190;0.4660;-2.5696;
2495917088980738;-9.4167;0.5118;-2.4715;
2495917099088707;-9.4645;0.5118;-2.4787;
2495917109196624;-9.4693;0.5453;-2.5409;
2495917119319280;-9.4286;0.5548;-2.5986;
2495917129427249;-9.4669;0.5142;-2.6800;
2495917139535166;-9.4334;0.5309;-2.6082;
2495917149616676;-9.4358;0.5501;-2.5217;
2495917159724645;-9.4430;0.5955;-2.5002;
2495917169832561;-9.4430;0.6386;-2.5481;
2495917179976884;-9.4071;0.6410;-2.6177;
2495917190084853;-9.4214;0.6386;-2.6728;
2495917200192770;-9.4502;0.6218;-2.6201;
2495917210282093;-9.4525;0.6099;-2.5600;
2495917220390061;-9.4214;0.5907;-2.5170;
2495917230497978;-9.4334;0.6003;-2.5552;
2495917240615634;-9.4023;0.6242;-2.5839;
2495917250723603;-9.4286;0.6051;-2.5887;
2495917260831520;-9.4980;0.5668;-2.6082;
2495917270945738;-9.5028;0.5261;-2.5935;
2495917281053707;-9.4669;0.5357;-2.5409;
2495917291161624;-9.4167;0.5596;-2.5074;
2495917301254280;-9.4502;0.5309;-2.5146;
2495917311362249;-9.4741;0.5213;-2.5313;
2495917321470166;-9.4334;0.5189;-2.4930;
2495917331573238;-9.4502;0.5046;-2.4356;
2495917341681207;-9.5004;0.4807;-2.4332;
2495917351789124;-9.4860;0.4926;-2.4260;
2495917361900947;-9.4669;0.5070;-2.4811;
2495917372008916;-9.4382;0.5166;-2.4858;
2495917382116832;-9.4406;0.5477;-2.4691;
2495917392217718;-9.4765;0.5668;-2.5026;
2495917402325686;-9.4765;0.5883;-2.5624;
2495917412433603;-9.4238;0.5931;-2.5457;
2495917422559384;-9.4071;0.5788;-2.5552;
2495917432667353;-9.4454;0.5596;-2.5863;
2495917442775270;-9.4502;0.5668;-2.6010;
2495917452869593;-9.4238;0.5572;-2.5792;
2495917462977561;-9.3975;0.5644;-2.5768;
2495917473085478;-9.3975;0.5931;-2.5935;
2495917483195738;-9.4238;0.6003;-2.6465;
2495917493303707;-9.4430;0.5835;-2.6991;
2495917503411624;-9.4382;0.5740;-2.7206;
2495917513525218;-9.3999;0.5453;-2.6608;
2495917523633186;-9.4047;0.5859;-2.6584;
2495917533741103;-9.4334;0.5979;-2.6273;
2495917543841780;-9.4190;0.6027;-2.6273;
2495917553949749;-9.4071;0.6027;-2.6584;
2495917564057666;-9.4693;0.5907;-2.6489;
2495917574164593;-9.4597;0.5955;-2.6321;
2495917584272561;-9.4310;0.6003;-2.5504;
2495917594380478;-9.4286;0.6242;-2.5146;
2495917604490634;-9.4382;0.6912;-2.4954;
2495917614598603;-9.4167;0.7466;-2.5457;
2495917624706520;-9.4573;0.7561;-2.6034;
2495917634826155;-9.4860;0.7128;-2.6465;
2495917644934124;-9.4549;0.6673;-2.5935;
2495917655042041;-9.4406;0.6649;-2.4763;
2495917665135634;-9.4430;0.6840;-2.4476;
2495917675243499;-9.4502;0.7319;-2.4787;
2495917685351468;-9.4214;0.7633;-2.5337;
2495917695448968;-9.4143;0.7609;-2.5887;
2495917705556884;-9.4573;0.7490;-2.6106;
2495917715664853;-9.4765;0.7247;-2.5265;
2495917725788030;-9.4262;0.7032;-2.4787;
2495917735895947;-9.4143;0.7056;-2.5098;
2495917746003863;-9.4095;0.7008;-2.5720;
2495917756109801;-9.4549;0.7104;-2.6249;
2495917766217718;-9.4454;0.6673;-2.6345;
2495917776325634;-9.4430;0.6458;-2.6058;
2495917786430634;-9.4190;0.6458;-2.5552;
2495917796496207;-9.4573;0.6434;-2.5672;
2495917806604124;-9.4358;0.6290;-2.5768;
2495917816712041;-9.4310;0.6673;-2.5887;
2495917826862509;-9.4358;0.6625;-2.6321;
2495917836970426;-9.4430;0.6601;-2.5816;
2495917847078395;-9.4023;0.6553;-2.5337;
2495917857188759;-9.4406;0.6649;-2.5504;
2495917867296676;-9.4669;0.6338;-2.5744;
2495917877404645;-9.4549;0.6266;-2.6297;
2495917887507457;-9.4262;0.6123;-2.6249;
2495917897615374;-9.4382;0.5596;-2.5935;
2495917907723343;-9.4286;0.5668;-2.5863;
2495917917830113;-9.4190;0.5716;-2.5217;
2495917927938030;-9.4214;0.5883;-2.5265;
2495917938045999;-9.4430;0.5883;-2.5911;
2495917948157301;-9.4262;0.5907;-2.6177;
2495917958265218;-9.4286;0.5764;-2.5600;
2495917968373134;-9.4573;0.5572;-2.5576;
2495917978478447;-9.4645;0.5835;-2.5265;
2495917988586363;-9.4358;0.6194;-2.5289;
2495917998694332;-9.4358;0.6458;-2.5528;
2495918008865009;-9.4358;0.6793;-2.6010;
2495918018972874;-9.4334;0.6745;-2.6106;
2495918029080843;-9.4382;0.6673;-2.5552;
2495918039125634;-9.4143;0.6912;-2.5672;
2495918049233551;-9.4143;0.6721;-2.5648;
2495918059341468;-9.4430;0.6817;-2.6154;
2495918069518082;-9.4286;0.6769;-2.6441;
2495918079625999;-9.4382;0.6673;-2.6249;
2495918089733916;-9.4573;0.6649;-2.6154;
2495918099769801;-9.4214;0.6458;-2.5361;
2495918109877718;-9.4167;0.6386;-2.5504;
2495918119985686;-9.4454;0.6218;-2.5672;
2495918130102405;-9.4860;0.5931;-2.5768;
2495918140210322;-9.4813;0.6051;-2.5986;
2495918150318291;-9.4525;0.6027;-2.5504;
2495918160429384;-9.4167;0.6242;-2.5002;
2495918170537301;-9.4119;0.6410;-2.4930;
2495918180645270;-9.4262;0.6649;-2.5074;
2495918190744176;-9.4669;0.6338;-2.5504;
2495918200852093;-9.4860;0.5931;-2.6106;
2495918210960061;-9.4478;0.5548;-2.6225;
2495918221064384;-9.4262;0.5668;-2.5744;
2495918231172301;-9.4334;0.6625;-2.5265;
2495918241280270;-9.4190;0.7394;-2.5217;
2495918251402822;-9.4143;0.7825;-2.5935;
2495918261510738;-9.4214;0.7920;-2.6536;
2495918271618707;-9.4286;0.7729;-2.6752;
2495918281725634;-9.4095;0.7175;-2.6273;
2495918291833551;-9.4119;0.7418;-2.5528;
2495918301941520;-9.4525;0.7705;-2.5241;
2495918312046363;-9.4358;0.7920;-2.5863;
2495918322154280;-9.4406;0.7920;-2.6752;
2495918332262249;-9.4238;0.8255;-2.6895;
2495918342368707;-9.3808;0.8447;-2.6058;
2495918352476624;-9.3903;0.8830;-2.5552;
2495918362584541;-9.4334;0.9356;-2.5409;
2495918372693655;-9.4549;0.9643;-2.6441;
2495918382801572;-9.4143;0.9667;-2.7230;
2495918392909541;-9.3808;0.9571;-2.6776;
2495918403022041;-9.3808;0.9404;-2.5696;
2495918413129957;-9.4238;0.9763;-2.4954;
2495918423237926;-9.4525;0.9858;-2.5002;
2495918433346676;-9.4406;1.0220;-2.5911;
2495918443454645;-9.3951;1.0340;-2.6919;
2495918453562561;-9.4023;1.0125;-2.6584;
2495918463663707;-9.4334;0.9500;-2.5385;
2495918473771676;-9.4406;0.9260;-2.4332;
2495918483879593;-9.4119;0.8997;-2.4284;
2495918493992197;-9.4406;0.8399;-2.5433;
2495918504100113;-9.4382;0.7992;-2.6177;
2495918514208030;-9.4430;0.7319;-2.6345;
2495918524308968;-9.4597;0.6721;-2.5528;
2495918534416884;-9.4693;0.6003;-2.4428;
2495918544524853;-9.4502;0.5501;-2.3877;
2495918554656259;-9.4621;0.5166;-2.4739;
2495918564764228;-9.4549;0.4854;-2.5648;
2495918574872145;-9.4406;0.4038;-2.6177;
2495918584963134;-9.4334;0.3344;-2.5409;
2495918595071051;-9.4789;0.2841;-2.4739;
2495918605179020;-9.4765;0.2650;-2.4308;
2495918615281884;-9.4334;0.2913;-2.4882;
2495918625389801;-9.4310;0.2841;-2.5576;
2495918635497718;-9.4813;0.2602;-2.6106;
2495918645604593;-9.4789;0.2291;-2.5768;
2495918655712509;-9.4621;0.1881;-2.4882;
2495918665820478;-9.4813;0.1475;-2.4643;
2495918675937093;-9.4884;0.0900;-2.4739;
2495918686045009;-9.4406;0.0852;-2.4930;
2495918696152926;-9.4525;0.0829;-2.5074;
2495918706255634;-9.4837;0.1068;-2.5193;
2495918716363551;-9.4956;0.1020;-2.5217;
2495918726471468;-9.5028;0.1427;-2.5170;
2495918736579176;-9.4813;0.1666;-2.5026;
2495918746687093;-9.4238;0.2219;-2.5026;
2495918756795009;-9.4430;0.2291;-2.5002;
2495918766903238;-9.4717;0.2459;-2.5337;
2495918777013030;-9.4741;0.2530;-2.6201;
2495918787120947;-9.4549;0.1977;-2.5792;
2495918797228863;-9.4454;0.1307;-2.5792;
2495918807335947;-9.4597;0.1211;-2.5887;
2495918817443863;-9.5028;0.1666;-2.5911;
2495918827551832;-9.4573;0.2339;-2.5986;
2495918837659280;-9.4502;0.3081;-2.6441;
2495918847767249;-9.4334;0.3799;-2.6871;
2495918857875166;-9.4406;0.4205;-2.6417;
2495918867988030;-9.4525;0.4636;-2.5863;
2495918878095999;-9.4358;0.5070;-2.5648;
2495918888203863;-9.4334;0.5477;-2.5887;
2495918898302718;-9.4502;0.5931;-2.6321;
2495918908410634;-9.4262;0.6314;-2.6800;
2495918918518603;-9.4143;0.6745;-2.6393;
2495918928632874;-9.4358;0.7442;-2.6034;
2495918938740791;-9.4190;0.8136;-2.5744;
2495918948848707;-9.3999;0.8997;-2.5839;
2495918958965322;-9.4358;0.9954;-2.6225;
2495918969073238;-9.4358;1.0268;-2.6704;
2495918979181155;-9.4167;1.0507;-2.6273;
2495918989286884;-9.4023;1.0699;-2.5313;
2495918999394853;-9.3951;1.1106;-2.4715;
2495919009502770;-9.4071;1.1943;-2.4954;
2495919019594801;-9.4238;1.2326;-2.5887;
2495919029702770;-9.3879;1.2661;-2.6560;
2495919039810686;-9.3760;1.2903;-2.6895;
2495919049964593;-9.4047;1.3071;-2.6058;
2495919060072561;-9.4047;1.2903;-2.5457;
2495919070180478;-9.3544;1.2685;-2.5313;
2495919080244176;-9.3401;1.2398;-2.5600;
2495919090352093;-9.3832;1.2206;-2.6536;
2495919100460009;-9.4143;1.2254;-2.7206;
2495919110577874;-9.3640;1.1847;-2.6608;
2495919120685791;-9.3449;1.1393;-2.6154;
2495919130793707;-9.4286;1.0866;-2.6249;
2495919140898655;-9.4525;1.0340;-2.6273;
2495919151006572;-9.4071;0.9858;-2.6489;
2495919161114488;-9.3855;0.9356;-2.6967;
2495919171232509;-9.3855;0.8734;-2.6441;
2495919181340426;-9.4095;0.8423;-2.5600;
2495919191448395;-9.4286;0.7657;-2.5170;
2495919201569280;-9.4860;0.6840;-2.5648;
2495919211677249;-9.4693;0.6027;-2.5911;
2495919221785166;-9.4262;0.5477;-2.5624;
2495919231879697;-9.4119;0.5213;-2.4787;
2495919241987613;-9.4454;0.4974;-2.3734;
2495919252095582;-9.4884;0.4421;-2.4141;
2495919262201676;-9.5148;0.3799;-2.4978;
2495919272309593;-9.4502;0.3392;-2.4978;
2495919282417561;-9.4334;0.3129;-2.4452;
2495919292524905;-9.4884;0.3583;-2.3710;
2495919302632822;-9.5390;0.3535;-2.3180;
2495919312740791;-9.5366;0.3153;-2.3806;
2495919322844280;-9.4621;0.3009;-2.4547;
2495919332952197;-9.4382;0.2530;-2.4882;
2495919343060166;-9.4860;0.2243;-2.4739;
2495919353177613;-9.5243;0.2339;-2.4332;
2495919363285582;-9.5076;0.2339;-2.4356;
2495919373393499;-9.4860;0.2411;-2.5241;
2495919383501051;-9.4310;0.2435;-2.5887;
2495919393608968;-9.4525;0.2001;-2.6106;
2495919403716936;-9.4693;0.1594;-2.5986;
2495919413814697;-9.4645;0.1403;-2.5481;
2495919423922613;-9.4932;0.1451;-2.5648;
2495919434030530;-9.4717;0.1834;-2.6130;
2495919444145843;-9.4143;0.2483;-2.6297;
2495919454253759;-9.4382;0.2794;-2.6441;
2495919464361728;-9.4334;0.3200;-2.6465;
2495919474491259;-9.4358;0.3320;-2.6225;
2495919484599228;-9.4310;0.3583;-2.6177;
2495919494707145;-9.4310;0.3990;-2.6225;
2495919504796363;-9.4214;0.4636;-2.6584;
2495919514904280;-9.4358;0.5070;-2.6800;
2495919525012249;-9.4190;0.5285;-2.6584;
2495919535117301;-9.3975;0.5429;-2.6489;
2495919545225218;-9.3975;0.5788;-2.6225;
2495919555333134;-9.4406;0.6003;-2.6034;
2495919565445322;-9.4382;0.6242;-2.6273;
2495919575553238;-9.4502;0.6266;-2.6608;
2495919585661207;-9.4238;0.6003;-2.6608;
2495919595764280;-9.4023;0.5979;-2.5887;
2495919605872197;-9.4549;0.6147;-2.5289;
2495919615980166;-9.4597;0.6505;-2.5170;
2495919626091572;-9.4478;0.6577;-2.5744;
2495919636199488;-9.4669;0.7104;-2.6465;
2495919646307457;-9.4214;0.7319;-2.6369;
2495919656430843;-9.4310;0.7801;-2.5672;
2495919666538759;-9.4789;0.8303;-2.5146;
2495919676646728;-9.4382;0.8495;-2.4787;
2495919686741155;-9.3927;0.8590;-2.4715;
2495919696849072;-9.4167;0.8542;-2.5624;
2495919706956988;-9.4454;0.8518;-2.6010;
2495919717068968;-9.4573;0.8566;-2.5433;
2495919727176884;-9.4693;0.8495;-2.5170;
2495919737284853;-9.4430;0.8542;-2.4954;
2495919747384384;-9.4214;0.8710;-2.4882;
2495919757492301;-9.4167;0.8734;-2.5122;
2495919767600270;-9.4549;0.9045;-2.5528;
2495919777719541;-9.4454;0.8614;-2.5457;
2495919787827509;-9.4262;0.8447;-2.4811;
2495919797935478;-9.4525;0.8160;-2.5026;
2495919808034176;-9.4573;0.8088;-2.5193;
2495919818142145;-9.4454;0.8183;-2.5600;
2495919828250113;-9.4167;0.8327;-2.5744;
2495919838358030;-9.4167;0.8351;-2.5816;
2495919848465999;-9.4262;0.8160;-2.5457;
2495919858573968;-9.4382;0.8088;-2.5911;
2495919868701936;-9.4334;0.7872;-2.5959;
2495919878809905;-9.4190;0.8040;-2.6177;
2495919888917822;-9.4143;0.7968;-2.6321;
2495919898988499;-9.3999;0.8471;-2.6177;
2495919909096468;-9.4334;0.8423;-2.6034;
2495919919204436;-9.3951;0.8662;-2.6225;
2495919929337613;-9.3855;0.8901;-2.6225;
2495919939445582;-9.4238;0.9212;-2.6321;
2495919949553551;-9.3903;0.9188;-2.6249;
2495919959664697;-9.3808;0.9547;-2.6177;
2495919969772718;-9.4095;0.9619;-2.6058;
2495919979880634;-9.4095;0.9595;-2.6058;
2495919989972822;-9.4167;0.9476;-2.6130;
2495920000080791;-9.4430;0.9428;-2.6249;
2495920010188759;-9.3951;0.9428;-2.6273;
2495920020281363;-9.3927;0.9667;-2.6106;
2495920030389332;-9.4167;0.9954;-2.5552;
2495920040497301;-9.4023;1.0101;-2.5816;
2495920050625009;-9.4238;1.0316;-2.5887;
2495920060732978;-9.4047;1.0555;-2.6201;
2495920070840947;-9.3903;1.0531;-2.5863;
2495920080945426;-9.3855;1.0531;-2.5385;
2495920091053395;-9.4071;1.0412;-2.5552;
2495920101161363;-9.4573;1.0460;-2.5839;
2495920111270113;-9.4071;1.0579;-2.6058;
2495920121378082;-9.4119;1.0938;-2.6106;
2495920131486051;-9.4238;1.1010;-2.5696;
2495920141599488;-9.3879;1.1058;-2.5385;
2495920151707457;-9.3903;1.0771;-2.5241;
2495920161815426;-9.4143;1.0196;-2.5624;
2495920171898447;-9.4167;0.9500;-2.5744;
2495920182006416;-9.4143;0.8782;-2.5863;
2495920192114384;-9.4310;0.8327;-2.6010;
2495920202244697;-9.4334;0.8112;-2.6034;
2495920212352666;-9.4071;0.8088;-2.5887;
2495920222460634;-9.4095;0.7968;-2.5648;
2495920232569280;-9.4214;0.7633;-2.5935;
2495920242677249;-9.4286;0.7152;-2.6417;
2495920252785218;-9.4095;0.6386;-2.5986;
2495920262894124;-9.4167;0.5907;-2.5959;
2495920273002093;-9.4669;0.5405;-2.6010;
2495920283110061;-9.4502;0.4831;-2.5863;
2495920293219541;-9.4143;0.4564;-2.5528;
2495920303327509;-9.4190;0.4588;-2.5600;
2495920313435478;-9.4430;0.4711;-2.5098;
2495920323536363;-9.4837;0.4540;-2.5193;
2495920333644332;-9.4741;0.3775;-2.5481;
2495920343752301;-9.4597;0.3224;-2.5576;
2495920353887509;-9.4693;0.2530;-2.5457;
2495920363995530;-9.4645;0.2052;-2.5241;
2495920374103447;-9.4693;0.2076;-2.4978;
2495920384193863;-9.4597;0.2124;-2.4835;
2495920394301832;-9.4573;0.2195;-2.5481;
2495920404409801;-9.4645;0.2100;-2.5696;
2495920414534436;-9.4525;0.2195;-2.5385;
2495920424642405;-9.4502;0.2243;-2.5050;
2495920434750374;-9.4549;0.2001;-2.5026;
2495920444848707;-9.4956;0.1666;-2.5026;
2495920454956676;-9.4645;0.1546;-2.5193;
2495920465064645;-9.4382;0.1570;-2.5409;
2495920475159384;-9.4669;0.1331;-2.5552;
2495920485267353;-9.4932;0.1475;-2.5552;
2495920495375322;-9.4669;0.1881;-2.5744;
2495920505493238;-9.4669;0.2578;-2.6249;
2495920515601207;-9.4382;0.3224;-2.6297;
2495920525709176;-9.4119;0.3751;-2.5935;
2495920535810947;-9.4190;0.4110;-2.5385;
2495920545918916;-9.4358;0.4588;-2.5720;
2495920556026884;-9.4597;0.5309;-2.6201;
2495920566142405;-9.4286;0.5979;-2.6082;
2495920576250374;-9.4095;0.6553;-2.6249;
2495920586358343;-9.4167;0.7056;-2.5959;
2495920596465843;-9.4119;0.7442;-2.5409;
2495920606573811;-9.4167;0.7825;-2.5337;
2495920616681780;-9.4310;0.7729;-2.5911;
2495920626789384;-9.4286;0.7920;-2.6297;
2495920636897353;-9.4023;0.7992;-2.6369;
2495920647005322;-9.4190;0.8303;-2.6201;
2495920657126155;-9.3999;0.8614;-2.5289;
2495920667234124;-9.3975;0.9021;-2.5074;
2495920677342093;-9.4095;0.9547;-2.5648;
2495920687430218;-9.4071;0.9930;-2.6201;
2495920697538186;-9.4406;1.0002;-2.6393;
2495920707646155;-9.4119;0.9858;-2.5816;
2495920717760530;-9.4095;1.0026;-2.5457;
2495920727868499;-9.4190;1.0053;-2.5002;
2495920737976468;-9.4047;0.9763;-2.5385;
2495920748076988;-9.4143;0.9547;-2.6106;
2495920758184957;-9.4310;0.9260;-2.6441;
2495920768292926;-9.4143;0.8973;-2.6536;
2495920778396988;-9.4334;0.8901;-2.5792;
2495920788504957;-9.4143;0.9380;-2.5409;
2495920798612926;-9.4143;0.9452;-2.5481;
2495920808761676;-9.3951;0.9715;-2.6058;
2495920818869645;-9.4214;1.0101;-2.6608;
2495920828977613;-9.4119;0.9906;-2.6608;
2495920839040426;-9.4047;0.9691;-2.6130;
2495920849148395;-9.4190;0.9380;-2.5504;
2495920859256311;-9.4262;0.9141;-2.5648;
2495920869402666;-9.4478;0.8638;-2.6034;
2495920879510634;-9.4143;0.8303;-2.6393;
2495920889618603;-9.4238;0.7992;-2.6345;
2495920899716155;-9.4310;0.7633;-2.5672;
2495920909824124;-9.4262;0.7537;-2.4811;
2495920919932093;-9.4310;0.7729;-2.4643;
2495920930045530;-9.4837;0.8040;-2.5265;
2495920940153499;-9.4454;0.8016;-2.5839;
2495920950261468;-9.4023;0.7896;-2.5361;
2495920960343968;-9.4645;0.7753;-2.4978;
2495920970451936;-9.4573;0.7801;-2.4882;
2495920980559853;-9.4286;0.7657;-2.4739;
2495920990685009;-9.4430;0.7609;-2.5146;
2495921000792978;-9.4214;0.7466;-2.6010;
2495921010900895;-9.4262;0.7271;-2.6225;
2495921021019853;-9.4190;0.6721;-2.5433;
2495921031127822;-9.4095;0.6075;-2.4906;
2495921041235791;-9.4310;0.5931;-2.5337;
2495921051327822;-9.4525;0.5859;-2.6417;
2495921061435791;-9.4406;0.5979;-2.6560;
2495921071543707;-9.4143;0.5979;-2.6297;
2495921081645947;-9.4214;0.5812;-2.6010;
2495921091753916;-9.4454;0.5764;-2.5457;
2495921101861832;-9.4430;0.5644;-2.5648;
2495921111974488;-9.4286;0.5668;-2.6297;
2495921122082457;-9.4358;0.5692;-2.6847;
2495921132190374;-9.4095;0.5788;-2.6321;
2495921142297405;-9.4071;0.5859;-2.6177;
2495921152405374;-9.4119;0.5429;-2.6177;
2495921162513291;-9.4358;0.4878;-2.5935;
2495921172636884;-9.4406;0.4831;-2.6369;
2495921182744853;-9.4095;0.3751;-2.5816;
2495921192852822;-9.4502;0.2913;-2.5672;
2495921202946363;-9.5124;0.3607;-2.5648;
2495921213054332;-9.4765;0.3296;-2.4523;
2495921223162249;-9.4956;0.3966;-2.5026;
2495921233234853;-9.5028;0.4516;-2.4978;
2495921243342822;-9.4286;0.3679;-2.4954;
2495921253450791;-9.4190;0.4134;-2.6249;
2495921263594280;-9.4549;0.4902;-2.5887;
2495921273702249;-9.5195;0.5429;-2.4523;
2495921283810166;-9.5315;0.5668;-2.3758;
2495921293919801;-9.4621;0.5979;-2.3949;
2495921304027770;-9.4693;0.6266;-2.5002;
2495921314135686;-9.4478;0.6864;-2.5696;
2495921324235634;-9.4406;0.7513;-2.5744;
2495921334343603;-9.4549;0.7609;-2.5193;
2495921344451572;-9.4143;0.8016;-2.4571;
2495921354579176;-9.4071;0.7968;-2.4835;
2495921364687145;-9.4334;0.7992;-2.5911;
2495921374795113;-9.4334;0.7825;-2.7039;
2495921384877561;-9.4119;0.7848;-2.7374;
2495921394985530;-9.4023;0.7801;-2.6656;
2495921405093447;-9.3832;0.7944;-2.5935;
2495921415211676;-9.4167;0.8064;-2.5887;
2495921425319593;-9.3951;0.8279;-2.6560;
2495921435427509;-9.3544;0.7848;-2.7494;
2495921445535478;-9.3855;0.7490;-2.7924;
2495921455649801;-9.4334;0.7319;-2.7685;
2495921465757770;-9.4143;0.6888;-2.6776;
2495921475865686;-9.3832;0.7271;-2.6321;
2495921485979072;-9.4023;0.7825;-2.5744;
2495921496087041;-9.4167;0.7753;-2.6489;
2495921506194957;-9.4119;0.6960;-2.7111;
2495921516303447;-9.4023;0.6003;-2.6273;
2495921526411416;-9.4741;0.5668;-2.5265;
2495921536519332;-9.5052;0.5166;-2.5026;
2495921546630686;-9.4717;0.4878;-2.4667;
2495921556738655;-9.4741;0.4684;-2.4619;
2495921566846624;-9.4693;0.4445;-2.5457;
2495921576941051;-9.4645;0.4445;-2.5409;
2495921587049020;-9.4789;0.4783;-2.5122;
2495921597156936;-9.4789;0.5094;-2.5002;
2495921607267718;-9.4645;0.4783;-2.5265;
2495921617375686;-9.4310;0.4349;-2.6130;
2495921627483603;-9.4334;0.6218;-2.5241;
2495921637587926;-9.4717;0.7561;-2.4643;
2495921647695895;-9.4358;0.7753;-2.4476;
2495921657803811;-9.4167;0.8183;-2.5481;
2495921667928655;-9.4214;0.8303;-2.6321;
2495921678036624;-9.4310;0.8614;-2.6201;
2495921688144541;-9.4334;0.8471;-2.5385;
2495921698228551;-9.4549;0.8375;-2.4858;
2495921708336520;-9.4334;0.8423;-2.5241;
2495921718444436;-9.3832;0.8495;-2.5887;
2495921728551676;-9.4238;0.8710;-2.6465;
2495921738659645;-9.4214;0.8375;-2.6225;
2495921748767613;-9.4143;0.7920;-2.5720;
2495921758891311;-9.4214;0.7418;-2.6154;
2495921768999280;-9.4167;0.7223;-2.6369;
2495921779107197;-9.4310;0.6577;-2.6082;
2495921789234280;-9.4525;0.6123;-2.6201;
2495921799342353;-9.4502;0.5572;-2.5986;
2495921809450374;-9.4286;0.5142;-2.5648;
2495921819530113;-9.4382;0.4564;-2.5576;
2495921829638186;-9.4406;0.4397;-2.5504;
2495921839746207;-9.4406;0.3823;-2.5074;
2495921849875530;-9.4621;0.3488;-2.5170;
2495921859983603;-9.4837;0.3224;-2.5792;
2495921870091624;-9.4549;0.3248;-2.6058;
2495921880203759;-9.4621;0.2650;-2.5600;
2495921890311832;-9.4549;0.2339;-2.5600;
2495921900419853;-9.4765;0.1786;-2.5457;
2495921910516259;-9.4693;0.1738;-2.5337;
2495921920624332;-9.4549;0.2052;-2.5122;
2495921930732353;-9.4741;0.2483;-2.5744;
2495921940824697;-9.4908;0.2722;-2.5457;
2495921950932770;-9.4956;0.2818;-2.5289;
2495921961040791;-9.5052;0.2913;-2.5481;
2495921971143655;-9.4645;0.3009;-2.5504;
2495921981251676;-9.4430;0.3033;-2.5241;
2495921991359749;-9.4645;0.3081;-2.5217;
2495922001492197;-9.4765;0.3200;-2.5313;
2495922011600270;-9.4980;0.3176;-2.5313;
2495922021708291;-9.4741;0.3057;-2.5098;
2495922031812718;-9.5052;0.2937;-2.4882;
2495922041920791;-9.4717;0.2865;-2.5552;
2495922052028811;-9.4262;0.3153;-2.6776;
2495922062132301;-9.4023;0.2841;-2.6871;
2495922072240322;-9.4262;0.2124;-2.6249;
2495922082348395;-9.4789;0.2483;-2.5672;
2495922092446884;-9.4693;0.4588;-2.6034;
2495922102554957;-9.3927;0.5453;-2.6321;
2495922112662978;-9.3951;0.5309;-2.5887;
2495922122778134;-9.4143;0.5333;-2.6656;
2495922132886207;-9.4167;0.5070;-2.6871;
2495922142994228;-9.4262;0.5046;-2.6919;
2495922153068238;-9.4214;0.4831;-2.6847;
2495922163176259;-9.4262;0.4038;-2.6345;
2495922173284332;-9.4214;0.4421;-2.6106;
2495922183431207;-9.4597;0.4783;-2.5816;
2495922193539228;-9.4765;0.5285;-2.6249;
2495922203647301;-9.4358;0.5477;-2.6536;
2495922213737926;-9.4119;0.5524;-2.6010;
2495922223845999;-9.4143;0.5453;-2.5170;
2495922233954020;-9.4454;0.5357;-2.4452;
2495922244072822;-9.4645;0.4950;-2.4643;
2495922254180895;-9.4789;0.5285;-2.5624;
2495922264288916;-9.4908;0.5405;-2.6034;
2495922274385374;-9.4765;0.5477;-2.6010;
2495922284493447;-9.4549;0.5716;-2.5409;
2495922294601468;-9.4549;0.5692;-2.4452;
2495922304725113;-9.4621;0.6314;-2.4236;
2495922314833134;-9.4621;0.6625;-2.5074;
2495922324941207;-9.4765;0.6601;-2.6010;
2495922335045843;-9.4621;0.6721;-2.6249;
2495922345153863;-9.4190;0.6673;-2.5792;
2495922355261936;-9.4190;0.6458;-2.4978;
2495922365372509;-9.4478;0.6027;-2.4404;
2495922375480530;-9.4478;0.5524;-2.4667;
2495922385588603;-9.4837;0.5309;-2.6154;
2495922395706884;-9.4717;0.4636;-2.6704;
2495922405814957;-9.4645;0.3918;-2.6154;
2495922415922978;-9.4454;0.3655;-2.5026;
2495922426025634;-9.4597;0.4086;-2.4715;
2495922436133707;-9.4454;0.4397;-2.4930;
2495922446241728;-9.4430;0.3966;-2.5816;
2495922456348134;-9.4334;0.3607;-2.6776;
2495922466456207;-9.4621;0.3272;-2.6871;
2495922476564228;-9.4717;0.3033;-2.5672;
2495922486664801;-9.4502;0.3248;-2.5146;
2495922496772874;-9.4597;0.3607;-2.5098;
2495922506880895;-9.4143;0.3799;-2.6010;
2495922516989957;-9.4119;0.3990;-2.6752;
2495922527098030;-9.4358;0.4205;-2.6225;
2495922537206051;-9.4430;0.4086;-2.5986;
2495922547310738;-9.4956;0.4134;-2.6034;
2495922557418811;-9.4669;0.3870;-2.5959;
2495922567526832;-9.4310;0.3751;-2.6154;
2495922577640113;-9.3951;0.3655;-2.5768;
2495922587748134;-9.4525;0.3535;-2.5337;
2495922597856207;-9.5052;0.4086;-2.5289;
2495922607961259;-9.4789;0.4253;-2.5481;
2495922618069332;-9.4525;0.4759;-2.5624;
2495922628177353;-9.4573;0.5309;-2.5816;
2495922638281572;-9.4454;0.6194;-2.5744;
2495922648389593;-9.4190;0.6984;-2.5337;
2495922658497666;-9.4214;0.7466;-2.5002;
2495922668644020;-9.4454;0.7968;-2.5337;
2495922678752041;-9.4454;0.8136;-2.5839;
2495922688860061;-9.4382;0.8901;-2.6154;
2495922698928134;-9.4190;0.9571;-2.5576;
2495922709036207;-9.4358;1.0172;-2.5241;
2495922719144228;-9.4430;1.0699;-2.5361;
2495922729274853;-9.4119;1.0938;-2.5433;
2495922739382926;-9.3688;1.0819;-2.5696;
2495922749490947;-9.3927;1.0484;-2.6058;
2495922759572093;-9.4286;1.0077;-2.6369;
2495922769680113;-9.4190;0.9954;-2.6177;
2495922779788186;-9.3999;0.9882;-2.5528;
2495922789914853;-9.3951;0.9930;-2.5624;
2495922800022874;-9.4310;0.9978;-2.6130;
2495922810130895;-9.4190;0.9715;-2.6608;
2495922820229384;-9.4047;0.9476;-2.6584;
2495922830337405;-9.3951;0.9476;-2.6249;
2495922840445426;-9.3999;0.9356;-2.5816;
2495922850567613;-9.4095;0.9188;-2.5672;
2495922860675634;-9.4047;0.8901;-2.5600;
2495922870783655;-9.4023;0.8638;-2.6225;
2495922880876884;-9.4334;0.8662;-2.6728;
2495922890984905;-9.4549;0.8518;-2.6321;
2495922901092926;-9.4238;0.8590;-2.5528;
2495922911225426;-9.4023;0.8830;-2.5241;
2495922921333447;-9.4286;0.8830;-2.5696;
2495922931441468;-9.4286;0.8973;-2.6201;
2495922941523863;-9.4023;0.8662;-2.6632;
2495922951631884;-9.4119;0.8375;-2.5986;
2495922961739905;-9.4262;0.7777;-2.5193;
2495922971854280;-9.4454;0.6840;-2.5026;
2495922981962301;-9.4406;0.6147;-2.4978;
2495922992070322;-9.4502;0.5979;-2.5839;
2495923002178707;-9.4502;0.5524;-2.6800;
2495923012286728;-9.4358;0.5261;-2.6417;
2495923022394749;-9.4286;0.5070;-2.5672;
2495923032504280;-9.4621;0.5094;-2.5193;
2495923042612301;-9.4502;0.4902;-2.5265;
2495923052720322;-9.4238;0.4807;-2.5863;
2495923062826468;-9.4406;0.4397;-2.6560;
2495923072934488;-9.4454;0.4134;-2.5959;
2495923083042509;-9.4621;0.4038;-2.5576;
2495923093149384;-9.4765;0.3727;-2.5385;
2495923103257405;-9.4837;0.3583;-2.5552;
2495923113365374;-9.4502;0.3703;-2.6154;
2495923123468655;-9.4238;0.4086;-2.6034;
2495923133576676;-9.4454;0.4759;-2.5792;
2495923143684697;-9.4382;0.5285;-2.5313;
2495923153827041;-9.4478;0.5261;-2.5385;
2495923163935009;-9.4358;0.5333;-2.5720;
2495923174043030;-9.4190;0.5261;-2.5744;
2495923184129593;-9.4190;0.5477;-2.5457;
2495923194237613;-9.4573;0.5668;-2.5146;
2495923204345634;-9.4837;0.5907;-2.4811;
2495923214460218;-9.4621;0.6194;-2.5457;
2495923224568238;-9.4382;0.6386;-2.6082;
2495923234676259;-9.4430;0.6888;-2.5959;
2495923244766884;-9.4190;0.7319;-2.5648;
2495923254874905;-9.4286;0.7801;-2.5122;
2495923264982926;-9.4525;0.7992;-2.5481;
2495923275090113;-9.4334;0.8303;-2.5911;
2495923285198134;-9.4119;0.8327;-2.6154;
2495923295306155;-9.4167;0.8447;-2.6130;
2495923305421884;-9.4358;0.8542;-2.6082;
2495923315529905;-9.4310;0.8447;-2.5600;
2495923325637926;-9.4573;0.8471;-2.5672;
2495923335748030;-9.4262;0.8758;-2.6249;
2495923345856051;-9.4023;0.8997;-2.6082;
2495923355964072;-9.4023;0.8973;-2.5911;
2495923366071676;-9.4286;0.8806;-2.5433;
2495923376179697;-9.4119;0.8375;-2.5696;
2495923386287718;-9.4382;0.7490;-2.5911;
2495923396410530;-9.4454;0.6888;-2.6010;
2495923406518551;-9.4334;0.7008;-2.6345;
2495923416626572;-9.4430;0.7080;-2.5744;
2495923426724905;-9.4334;0.7032;-2.5170;
2495923436832926;-9.4573;0.7032;-2.5337;
2495923446940947;-9.4573;0.6721;-2.6130;
2495923457048863;-9.4717;0.6314;-2.6225;
2495923467156884;-9.4573;0.6434;-2.5696;
2495923477264905;-9.4262;0.6840;-2.4978;
2495923487371676;-9.4262;0.7128;-2.4523;
2495923497479697;-9.4525;0.7152;-2.5217;
2495923507587718;-9.4597;0.7247;-2.5863;
2495923517697301;-9.4286;0.6840;-2.6154;
2495923527805322;-9.4502;0.6027;-2.5986;
2495923537913343;-9.4860;0.5596;-2.4858;
2495923548007301;-9.4717;0.5716;-2.4523;
2495923558115322;-9.4669;0.5716;-2.4930;
2495923568223343;-9.4334;0.5692;-2.5839;
2495923578328759;-9.4214;0.5740;-2.5986;
2495923588436780;-9.4621;0.5788;-2.5696;
2495923598544801;-9.4813;0.5548;-2.5481;
2495923608652666;-9.4358;0.5381;-2.5385;
2495923618760634;-9.4262;0.4998;-2.5624;
2495923628868655;-9.4430;0.5237;-2.5792;
2495923638972405;-9.4789;0.5477;-2.6465;
2495923649080426;-9.4334;0.5548;-2.6297;
2495923659188395;-9.4358;0.5501;-2.5911;
2495923669283863;-9.4334;0.5333;-2.5986;
2495923679391884;-9.3999;0.5668;-2.6130;
2495923689499905;-9.3879;0.6386;-2.6249;
2495923699620218;-9.4238;0.6960;-2.6824;
2495923709728238;-9.3879;0.7466;-2.6656;
2495923719836259;-9.3855;0.7561;-2.6489;
2495923729972197;-9.4502;0.7848;-2.6704;
2495923740080218;-9.4143;0.8471;-2.6560;
2495923750188238;-9.3473;0.8949;-2.6584;
2495923760295843;-9.3736;0.9428;-2.6417;
2495923770403863;-9.4119;0.9667;-2.6536;
2495923780511884;-9.4190;0.9930;-2.6584;
2495923790616988;-9.3879;0.9787;-2.6584;
2495923800725061;-9.4262;0.9619;-2.6512;
2495923810833030;-9.4214;0.9452;-2.6130;
2495923820944280;-9.3927;0.9619;-2.5648;
2495923831052301;-9.4047;0.9643;-2.5409;
2495923841160322;-9.4286;0.9619;-2.5986;
2495923851239072;-9.3951;0.9165;-2.6106;
2495923861347093;-9.4238;0.8686;-2.5839;
2495923871455113;-9.4382;0.8495;-2.5696;
2495923881579072;-9.4358;0.8207;-2.5624;
2495923891687093;-9.4214;0.7801;-2.5409;
2495923901795113;-9.4262;0.7537;-2.4930;
2495923911900530;-9.4549;0.7223;-2.5026;
2495923922008551;-9.4621;0.6338;-2.5433;
2495923932116572;-9.4430;0.5357;-2.5002;
2495923942227613;-9.4406;0.4493;-2.4787;
2495923952335634;-9.4765;0.3655;-2.4715;
2495923962443655;-9.5052;0.3344;-2.4954;
2495923972540322;-9.5028;0.2961;-2.5050;
2495923982648343;-9.5028;0.2626;-2.5313;
2495923992756416;-9.4884;0.2052;-2.5217;
2495924002870374;-9.4741;0.1546;-2.4811;
2495924012978395;-9.4693;0.1044;-2.4571;
2495924023086416;-9.5028;0.0661;-2.5026;
2495924033218082;-9.5004;0.0350;-2.5457;
2495924043326155;-9.4693;-0.0105;-2.5361;
2495924053434176;-9.4908;-0.0272;-2.5648;
2495924063518759;-9.5219;0.0063;-2.5385;
2495924073626780;-9.4980;0.0326;-2.5170;
2495924083734801;-9.4430;0.0852;-2.5241;
2495924093846988;-9.4573;0.1259;-2.5289;
2495924103955009;-9.4430;0.1259;-2.5935;
2495924114063030;-9.4884;0.1044;-2.6010;
2495924124171155;-9.4837;0.0829;-2.6106;
2495924134279176;-9.4573;0.1116;-2.6154;
2495924144387197;-9.4478;0.1810;-2.6082;
2495924154510218;-9.4310;0.2650;-2.6441;
2495924164618238;-9.4119;0.3200;-2.6201;
2495924174726311;-9.4095;0.3607;-2.6441;
2495924184821155;-9.4262;0.4373;-2.6752;
2495924194929176;-9.4095;0.5189;-2.6752;
2495924205037197;-9.4095;0.6147;-2.6847;
2495924215142874;-9.4071;0.7199;-2.6441;
2495924225250895;-9.4047;0.7896;-2.6680;
2495924235358916;-9.4119;0.8231;-2.6800;
2495924245474280;-9.4190;0.8830;-2.6632;
2495924255582301;-9.3999;0.9547;-2.6752;
2495924265690322;-9.3832;1.0220;-2.6656;
2495924275796780;-9.3999;1.0986;-2.6225;
2495924285904801;-9.4119;1.1991;-2.6249;
2495924296012822;-9.3951;1.2326;-2.6489;
2495924306117405;-9.4047;1.2230;-2.6225;
2495924316225426;-9.4095;1.2230;-2.5863;
2495924326333447;-9.3879;1.1632;-2.5289;
2495924336446468;-9.4143;1.1034;-2.4978;
2495924346554488;-9.4430;1.0220;-2.5385;
2495924356662509;-9.4645;0.9476;-2.5911;
2495924366768551;-9.4502;0.8806;-2.5528;
2495924376876624;-9.4262;0.8638;-2.5050;
2495924386984593;-9.4693;0.8423;-2.5002;
2495924397115113;-9.4932;0.8160;-2.5098;
2495924407223134;-9.4334;0.7753;-2.4547;
2495924417331207;-9.4119;0.7370;-2.4452;
2495924427425843;-9.4884;0.7080;-2.4835;
2495924437533863;-9.5004;0.6601;-2.4667;
2495924447641884;-9.4693;0.6362;-2.4117;
2495924457737093;-9.4406;0.6194;-2.4284;
2495924467845113;-9.4549;0.5979;-2.4691;
2495924477953186;-9.4717;0.6075;-2.5361;
2495924488071363;-9.4597;0.5955;-2.5624;
2495924498179384;-9.4454;0.5596;-2.5600;
2495924508287405;-9.4286;0.4854;-2.5839;
2495924518382509;-9.4454;0.4684;-2.5648;
2495924528490530;-9.4669;0.4301;-2.5768;
2495924538598603;-9.4597;0.4086;-2.6465;
2495924548713707;-9.4454;0.3870;-2.6871;
2495924558821728;-9.4310;0.3918;-2.6800;
2495924568929749;-9.4573;0.3990;-2.6656;
2495924579045738;-9.4478;0.4205;-2.6465;
2495924589153759;-9.4478;0.3990;-2.6584;
2495924599261780;-9.4502;0.3631;-2.6824;
2495924609365270;-9.4095;0.3655;-2.6752;
2495924619473291;-9.4358;0.3440;-2.6201;
2495924629581311;-9.4645;0.3464;-2.6417;
2495924639697197;-9.4454;0.2961;-2.6393;
2495924649805270;-9.4214;0.2865;-2.6201;
2495924659913291;-9.4262;0.3153;-2.5528;
2495924670012770;-9.4358;0.3655;-2.5433;
2495924680120738;-9.5004;0.4038;-2.5911;
2495924690228759;-9.4693;0.4277;-2.5792;
2495924700321468;-9.4334;0.4277;-2.5504;
2495924710429488;-9.4525;0.4612;-2.5337;
2495924720537509;-9.4813;0.4974;-2.4906;
2495924730670009;-9.4813;0.4974;-2.4906;
2495924740778082;-9.4908;0.5883;-2.5313;
2495924750886103;-9.4573;0.6410;-2.4978;
2495924760977874;-9.4047;0.7295;-2.4284;
2495924771085895;-9.4310;0.7968;-2.4595;
2495924781193916;-9.4358;0.9188;-2.4882;
2495924791299384;-9.4262;1.0026;-2.5313;
2495924801407405;-9.4286;1.0555;-2.5839;
2495924811515426;-9.4167;1.0436;-2.5839;
2495924821622197;-9.4214;1.0555;-2.5600;
2495924831730218;-9.4190;1.0842;-2.5696;
2495924841838238;-9.4071;1.0771;-2.5839;
2495924851946572;-9.3784;1.0292;-2.6632;
2495924862054593;-9.3879;0.9930;-2.7206;
2495924872162561;-9.4071;0.9332;-2.7422;
2495924882269905;-9.4334;0.8949;-2.6847;
2495924892377926;-9.4023;0.8495;-2.6201;
2495924902485947;-9.3903;0.7968;-2.5911;
2495924912587301;-9.3999;0.7896;-2.6369;
2495924922695322;-9.4262;0.7657;-2.7087;
2495924932803291;-9.4741;0.6960;-2.7446;
2495924942923343;-9.4334;0.6194;-2.6656;
2495924953031363;-9.3855;0.6075;-2.5409;
2495924963139384;-9.4262;0.6362;-2.4930;
2495924973253968;-9.4430;0.6745;-2.5193;
2495924983361988;-9.4334;0.6960;-2.5863;
2495924993469957;-9.4454;0.6817;-2.5744;
2495925003573343;-9.4454;0.7128;-2.5816;
2495925013681363;-9.4525;0.7825;-2.5146;
2495925023789384;-9.4286;0.8495;-2.4954;
2495925033883655;-9.4143;0.8901;-2.4763;
2495925043991676;-9.4095;0.9141;-2.5409;
2495925054099697;-9.4214;0.8901;-2.6369;
2495925064224176;-9.4454;0.8590;-2.6369;
2495925074332197;-9.4382;0.8495;-2.5576;
2495925084440218;-9.4238;0.8327;-2.5433;
2495925094541468;-9.4238;0.8183;-2.5409;
2495925104649488;-9.4238;0.7753;-2.5863;
2495925114757457;-9.4334;0.7295;-2.6512;
2495925124868238;-9.4071;0.6840;-2.6489;
2495925134976259;-9.4095;0.6051;-2.6058;
2495925145084228;-9.4238;0.5118;-2.5839;
2495925155206676;-9.4765;0.4516;-2.5600;
2495925165314697;-9.4789;0.4181;-2.5986;
2495925175422718;-9.4741;0.3583;-2.6345;
2495925185514905;-9.4286;0.2913;-2.5720;
2495925195622926;-9.4334;0.2889;-2.4978;
2495925205730947;-9.4741;0.2554;-2.4428;
2495925215845218;-9.4837;0.2171;-2.4763;
2495925225953238;-9.5195;0.1929;-2.4978;
2495925236061259;-9.5052;0.1594;-2.5122;
2495925246168863;-9.4645;0.1905;-2.4332;
2495925256276884;-9.5148;0.2387;-2.3782;
2495925266384905;-9.5219;0.3296;-2.3447;
2495925276502197;-9.4884;0.3918;-2.3758;
2495925286610218;-9.4884;0.5118;-2.4069;
2495925296718238;-9.4813;0.5716;-2.4787;
2495925306821051;-9.4717;0.6242;-2.4858;
2495925316929072;-9.4669;0.6793;-2.4691;
2495925327037093;-9.4382;0.7319;-2.4739;
2495925337145009;-9.4071;0.7848;-2.4428;
2495925347253030;-9.4095;0.8255;-2.5672;
2495925357361051;-9.3832;0.8590;-2.7565;
2495925367469280;-9.3951;0.8782;-2.8642;
2495925377577301;-9.3903;0.8949;-2.7350;
2495925387685270;-9.3401;0.9236;-2.5337;
2495925397794072;-9.3784;0.9715;-2.5193;
2495925407902093;-9.3999;1.0149;-2.7087;
2495925418010113;-9.3975;1.0340;-2.8717;
2495925428113551;-9.3305;1.0316;-2.8813;
2495925438221572;-9.3520;1.0675;-2.7709;
2495925448329593;-9.4310;1.1201;-2.6177;
2495925458432197;-9.3927;1.1919;-2.5863;
2495925468540218;-9.3162;1.2422;-2.6465;
2495925478648238;-9.3329;1.3047;-2.7733;
2495925488777093;-9.3712;1.3693;-2.8092;
2495925498885113;-9.3975;1.4243;-2.7350;
2495925508993134;-9.4095;1.4459;-2.6082;
2495925519085426;-9.4047;1.4554;-2.5385;
2495925529193447;-9.3688;1.4506;-2.5911;
2495925539301416;-9.3832;1.4267;-2.6704;
2495925549421155;-9.3951;1.4004;-2.6967;
2495925559529176;-9.3760;1.3573;-2.6536;
2495925569637197;-9.3640;1.3238;-2.5409;
2495925579741884;-9.3832;1.2855;-2.5193;
2495925589849905;-9.3927;1.2760;-2.5720;
2495925599957926;-9.3951;1.2230;-2.6393;
2495925610056936;-9.3688;1.1393;-2.6728;
2495925620164957;-9.3688;1.0484;-2.6034;
2495925630272978;-9.3784;0.9811;-2.5576;
2495925640391572;-9.4238;0.9165;-2.5098;
2495925650499593;-9.4023;0.8830;-2.5193;
2495925660607613;-9.4478;0.8375;-2.5385;
2495925670688030;-9.4286;0.7537;-2.5744;
2495925680796051;-9.4214;0.6553;-2.5002;
2495925690904072;-9.4525;0.5261;-2.4404;
2495925701051884;-9.4645;0.4325;-2.4021;
2495925711159905;-9.4813;0.3703;-2.4595;
2495925721267926;-9.5148;0.3344;-2.5289;
2495925731346884;-9.4860;0.2746;-2.5193;
2495925741454905;-9.4573;0.2001;-2.4236;
2495925751562926;-9.4717;0.1762;-2.3638;
2495925761673863;-9.5315;0.0733;-2.3686;
2495925771781884;-9.5267;0.0398;-2.4500;
2495925781889905;-9.5100;0.0494;-2.4954;
2495925792003863;-9.4980;0.0829;-2.5504;
2495925802111884;-9.5028;0.0805;-2.5217;
2495925812219905;-9.4956;0.1020;-2.4571;
2495925822332718;-9.4645;0.1355;-2.4619;
2495925832440738;-9.4406;0.1618;-2.5146;
2495925842548811;-9.4717;0.2243;-2.5816;
2495925852646884;-9.4837;0.2698;-2.6704;
2495925862754905;-9.4693;0.3009;-2.6560;
2495925872862978;-9.4286;0.3224;-2.5911;
2495925882960738;-9.4071;0.3583;-2.5720;
2495925893068759;-9.4478;0.3942;-2.6034;
2495925903176780;-9.4214;0.4636;-2.6512;
2495925913313343;-9.4214;0.5070;-2.6441;
2495925923421416;-9.4238;0.5453;-2.6369;
2495925933529436;-9.3927;0.6362;-2.6010;
2495925943619488;-9.4334;0.6529;-2.5839;
2495925953727509;-9.4430;0.6936;-2.6393;
2495925963835582;-9.3951;0.7537;-2.6895;
2495925973949072;-9.4095;0.7801;-2.7135;
2495925984057145;-9.3784;0.8399;-2.6680;
2495925994165113;-9.3927;0.9093;-2.6584;
2495926004273343;-9.4262;0.9523;-2.6034;
2495926014381363;-9.3975;0.9500;-2.6489;
2495926024489436;-9.3855;0.9452;-2.7063;
2495926034609072;-9.3760;0.9404;-2.6584;
2495926044717145;-9.4023;0.9500;-2.6177;
2495926054825166;-9.4382;0.9523;-2.5863;
2495926064926207;-9.4214;0.9500;-2.5768;
2495926075034228;-9.4095;0.9595;-2.5863;
2495926085142301;-9.4262;0.9715;-2.6584;
2495926095231311;-9.4430;0.9739;-2.6393;
2495926105339332;-9.4143;0.9715;-2.5552;
2495926115447405;-9.4214;0.9571;-2.5170;
2495926125567041;-9.4262;0.9404;-2.5002;
2495926135675061;-9.4310;0.9404;-2.5289;
2495926145783082;-9.4358;0.9165;-2.5552;
2495926155908968;-9.4454;0.8949;-2.5839;
2495926166016988;-9.4286;0.8686;-2.5146;
2495926176125061;-9.4669;0.8542;-2.4332;
2495926186232093;-9.4573;0.8566;-2.4212;
2495926196340113;-9.4597;0.8638;-2.4452;
2495926206448134;-9.4573;0.8423;-2.4930;
2495926216553707;-9.4597;0.7944;-2.4858;
2495926226661728;-9.4549;0.7537;-2.4858;
2495926236769801;-9.4597;0.7247;-2.4691;
2495926246870374;-9.4573;0.7418;-2.4882;
2495926256978395;-9.4549;0.6936;-2.5409;
2495926267086468;-9.4190;0.6577;-2.5768;
2495926277188238;-9.4095;0.6458;-2.6058;
2495926287296311;-9.4071;0.6123;-2.5887;
2495926297404332;-9.4023;0.5644;-2.5887;
2495926307512093;-9.3927;0.5309;-2.6154;
2495926317620113;-9.4190;0.5094;-2.6752;
2495926327728186;-9.4525;0.5166;-2.7685;
2495926337827405;-9.4214;0.4854;-2.7422;
2495926347935426;-9.3760;0.4588;-2.6871;
2495926358043499;-9.4047;0.4516;-2.6465;
2495926368162718;-9.4262;0.3894;-2.6321;
2495926378270738;-9.4334;0.3655;-2.6489;
2495926388378811;-9.4597;0.3990;-2.7039;
2495926398481363;-9.4621;0.4711;-2.7135;
2495926408589436;-9.4262;0.5572;-2.6369;
2495926418697457;-9.3927;0.5764;-2.5481;
2495926428864957;-9.3975;0.6482;-2.5146;
2495926438972978;-9.4214;0.6482;-2.5409;
2495926449080999;-9.4573;0.6697;-2.5528;
2495926459111572;-9.4645;0.6888;-2.5792;
2495926469219593;-9.4190;0.7080;-2.5528;
2495926479327613;-9.3832;0.7343;-2.4212;
2495926489510582;-9.4597;0.7633;-2.4141;
2495926499618603;-9.4956;0.7609;-2.4858;
2495926509726624;-9.4262;0.7825;-2.5289;
2495926519771363;-9.4262;0.7992;-2.5911;
2495926529879384;-9.4741;0.8064;-2.6106;
2495926539987457;-9.4478;0.8279;-2.5313;
2495926550154332;-9.4190;0.8423;-2.4667;
2495926560262301;-9.4071;0.8686;-2.4930;
2495926570370374;-9.3975;0.8997;-2.5504;
2495926580440530;-9.4119;0.9332;-2.6489;
2495926590548551;-9.4119;0.9739;-2.6895;
2495926600656624;-9.4286;1.0412;-2.6632;
2495926610762353;-9.3688;1.0771;-2.5696;
2495926620870374;-9.3209;1.1201;-2.4930;
2495926630978447;-9.3808;1.1489;-2.5409;
2495926641094436;-9.4167;1.1871;-2.6752;
2495926651202457;-9.4047;1.2182;-2.7422;
2495926661310530;-9.3879;1.2350;-2.7398;
2495926671419801;-9.3879;1.2422;-2.6608;
2495926681527822;-9.3449;1.2808;-2.5552;
2495926691635895;-9.3712;1.2855;-2.5528;
2495926701734593;-9.3568;1.3119;-2.6177;
2495926711842613;-9.3592;1.3095;-2.7015;
2495926721950686;-9.4047;1.3190;-2.7278;
2495926732048238;-9.3927;1.3190;-2.6536;
2495926742156259;-9.3449;1.3119;-2.5241;
2495926752264280;-9.3544;1.3502;-2.4763;
2495926762371780;-9.3975;1.3549;-2.5887;
2495926772479801;-9.3927;1.3573;-2.6943;
2495926782587822;-9.3760;1.3167;-2.7111;
2495926792703082;-9.3832;1.2685;-2.6297;
2495926802811103;-9.3520;1.2760;-2.5265;
2495926812919124;-9.3760;1.2661;-2.4428;
2495926823021155;-9.4286;1.2565;-2.4835;
2495926833129228;-9.4214;1.2278;-2.6345;
2495926843237249;-9.3879;1.1728;-2.6800;
2495926853335791;-9.3832;1.1536;-2.6201;
2495926863443863;-9.4382;1.1417;-2.5313;
2495926873551884;-9.4358;1.1680;-2.4595;
2495926883678655;-9.4190;1.1776;-2.4835;
2495926893786728;-9.4119;1.2159;-2.5887;
2495926903894749;-9.3832;1.2087;-2.6536;
2495926914013030;-9.3975;1.2111;-2.5935;
2495926924121103;-9.3927;1.2278;-2.4811;
2495926934229124;-9.4406;1.2470;-2.4571;
