Sensor: bmi160 Accelerometer Non-wakeup
Vendor: BOSCH
TimestampAcc [ns]; AccX [m/s^2]; AccY [m/s^2]; AccZ [m/s^2]
1192093526255366;-9.4837;0.3200;-2.4452;
1192093536355366;-9.4908;0.3727;-2.4045;
1192093546534949;-9.4884;0.4253;-2.3303;
1192093556634949;-9.4669;0.5022;-2.3133;
1192093566744012;-9.4478;0.5285;-2.3013;
1192093576803543;-9.4765;0.5309;-2.3518;
1192093586995782;-9.4741;0.5261;-2.4141;
1192093597090782;-9.4837;0.5094;-2.4476;
1192093607189637;-9.4765;0.5142;-2.3830;
1192093617301303;-9.4789;0.4684;-2.3495;
1192093627376355;-9.4884;0.4397;-2.3157;
1192093637482918;-9.5076;0.4540;-2.2822;
1192093647594637;-9.5148;0.4540;-2.3013;
1192093657711199;-9.4765;0.4397;-2.3276;
1192093667814012;-9.4956;0.4134;-2.3590;
1192093677909220;-9.4837;0.3703;-2.3566;
1192093688007189;-9.4956;0.2841;-2.3228;
1192093698112293;-9.5076;0.2243;-2.3614;
1192093708244324;-9.5100;0.1786;-2.3566;
1192093718320001;-9.5148;0.0924;-2.3853;
1192093728452762;-9.5028;0.0374;-2.3686;
1192093738536720;-9.5195;-0.0631;-2.3614;
1192093748648387;-9.5315;-0.1161;-2.3518;
1192093758793387;-9.5243;-0.1232;-2.3806;
1192093768841459;-9.5172;-0.1854;-2.3949;
1192093778933387;-9.5486;-0.1902;-2.4212;
1192093789039220;-9.5291;-0.1519;-2.4356;
1192093799166199;-9.4908;-0.1543;-2.4236;
1192093809276668;-9.5028;-0.1998;-2.3710;
1192093819405262;-9.5629;-0.2142;-2.3542;
1192093829497918;-9.5100;-0.2453;-2.3686;
1192093839581564;-9.5486;-0.2859;-2.3901;
1192093849690782;-9.5605;-0.3604;-2.4356;
1192093859781564;-9.5148;-0.4011;-2.4739;
1192093869890730;-9.5076;-0.3843;-2.4978;
1192093880020001;-9.4789;-0.4513;-2.5959;
1192093890089376;-9.4502;-0.5160;-2.5720;
1192093900206147;-9.5052;-0.5399;-2.5289;
1192093910302293;-9.5629;-0.5758;-2.3566;
1192093920415834;-9.6371;-0.5853;-2.2487;
1192093930522189;-9.5845;-0.7005;-2.2510;
1192093940629064;-9.4765;-0.8994;-2.4571;
1192093950732084;-9.4645;-1.0262;-2.6967;
1192093960867293;-9.5219;-1.0023;-2.7087;
1192093970938751;-9.5892;-1.0214;-2.5241;
1192093981048595;-9.6275;-1.0406;-2.3423;
1192093991147814;-9.5916;-0.9425;-2.2774;
1192094001247918;-9.4980;-0.8874;-2.2510;
1192094011361512;-9.4932;-0.8779;-2.3566;
1192094021464376;-9.5629;-0.7723;-2.4404;
1192094031568334;-9.5267;-0.5758;-2.4141;
1192094041664897;-9.4956;-0.4155;-2.3734;
1192094051773647;-9.4741;-0.2812;-2.3327;
1192094061886928;-9.4334;-0.0945;-2.2893;
1192094071990991;-9.3855;0.1068;-2.2678;
1192094082092970;-9.4262;0.3153;-2.2869;
1192094092192501;-9.4454;0.5022;-2.2534;
1192094102302032;-9.3999;0.6697;-2.2247;
1192094112403543;-9.3425;0.8303;-2.2128;
1192094122508126;-9.3592;1.0101;-2.2391;
1192094132616720;-9.3520;1.2206;-2.2463;
1192094142719376;-9.3377;1.3813;-2.2534;
1192094152821772;-9.3329;1.5057;-2.2893;
1192094162910991;-9.3305;1.5993;-2.2869;
1192094173036720;-9.3209;1.7022;-2.2367;
1192094183143387;-9.3114;1.7979;-2.2199;
1192094193238543;-9.2946;1.8437;-2.2415;
1192094203349116;-9.2827;1.8987;-2.2534;
1192094213449897;-9.2465;1.9992;-2.2845;
1192094223560678;-9.2536;2.0471;-2.3351;
1192094233670053;-9.2827;2.1574;-2.3518;
1192094243765418;-9.2683;2.1814;-2.3375;
1192094253868543;-9.2656;2.2196;-2.3061;
1192094263979116;-9.2489;2.2890;-2.2822;
1192094274078126;-9.2536;2.3082;-2.2941;
1192094284191512;-9.2417;2.3130;-2.3109;
1192094294293699;-9.2536;2.3417;-2.3133;
1192094304407449;-9.2608;2.3970;-2.3351;
1192094314500470;-9.2803;2.4329;-2.2941;
1192094324604532;-9.2731;2.4568;-2.2295;
1192094334713699;-9.3090;2.4760;-2.2319;
1192094344814845;-9.2946;2.4855;-2.2343;
1192094354919480;-9.2803;2.5143;-2.2510;
1192094365020522;-9.3138;2.5334;-2.2295;
1192094375125053;-9.3114;2.5214;-2.2104;
1192094385235574;-9.3185;2.5382;-2.1601;
1192094395346512;-9.2898;2.5406;-2.3013;
1192094405443022;-9.2922;2.4999;-2.2941;
1192094415552501;-9.3138;2.4305;-2.1840;
1192094425648803;-9.3544;2.4425;-2.2008;
1192094435761199;-9.3305;2.4281;-2.1577;
1192094445857501;-9.2707;2.3827;-2.2702;
1192094455963126;-9.3138;2.2723;-2.2822;
1192094466072137;-9.2922;2.2651;-2.6225;
1192094476174272;-9.2513;2.0686;-2.5648;
1192094486278803;-9.1364;2.1335;-3.0153;
1192094496409012;-8.8992;1.7429;-3.2453;
1192094506479168;-9.7232;1.8197;-1.7551;
1192094516594116;-10.0633;1.3454;-1.8559;
1192094526693959;-8.9566;2.4497;-3.0535;
1192094536787918;-8.4658;2.8041;-3.4801;
1192094546907084;-8.9566;2.6414;-3.4872;
1192094557004064;-9.4908;1.9609;-2.6393;
1192094567114376;-9.5821;1.3956;-1.8966;
1192094577239949;-9.3640;1.3980;-2.2630;
1192094587332605;-9.1412;1.8580;-3.1735;
1192094597428387;-9.0287;1.9059;-3.3003;
1192094607535001;-9.0383;1.9107;-3.0535;
1192094617662553;-9.1890;1.7237;-3.0679;
1192094627744376;-9.3832;1.5467;-3.0655;
1192094637851095;-9.1866;1.6256;-2.9148;
1192094647946720;-9.0861;1.8532;-2.8789;
1192094658159949;-9.1795;1.9633;-2.9889;
1192094668174376;-9.0885;1.8891;-3.1205;
1192094678270262;-8.9471;1.8843;-3.1229;
1192094688366199;-9.1531;1.8867;-3.1902;
1192094698479532;-9.4549;1.9466;-3.3577;
1192094708575470;-9.4047;1.8173;-2.9387;
1192094718671355;-9.2417;1.9011;-3.0440;
1192094728786147;-9.2441;1.9609;-2.6154;
1192094738882084;-9.2707;1.8556;-2.6417;
1192094748978022;-9.0574;1.8269;-3.1181;
1192094759105209;-8.8298;2.1622;-3.4705;
1192094769201147;-8.8226;2.4090;-3.7292;
1192094779297032;-9.1173;2.3417;-3.7101;
1192094789419220;-9.3018;2.1933;-3.1783;
1192094799515157;-9.1196;1.8221;-2.3949;
1192094809611043;-9.0909;1.7692;-2.9674;
1192094819762449;-9.1771;2.3922;-3.9111;
1192094829858387;-8.8442;2.3874;-3.0846;
1192094839954272;-8.9016;2.1215;-2.6704;
1192094850036147;-9.4837;2.4736;-3.7795;
1192094860132084;-9.4334;2.5693;-3.7340;
1192094870227970;-8.7772;2.2819;-2.5433;
1192094880351720;-8.7266;2.0904;-2.4236;
1192094890447657;-9.0861;1.9872;-2.7733;
1192094900543543;-9.2874;2.0662;-3.1854;
1192094910694793;-9.0670;2.0976;-3.6643;
1192094920790730;-8.9231;2.0785;-3.8465;
1192094930886616;-9.6251;2.0136;-3.5088;
1192094941007970;-9.8097;1.8891;-2.8331;
1192094951103907;-9.3329;1.7764;-2.9578;
1192094961199793;-8.6309;1.9322;-3.4513;
1192094971307084;-8.1206;1.7501;-2.9435;
1192094981403022;-8.0489;1.5706;-2.7589;
1192094991498907;-8.7147;1.4889;-3.6790;
1192095001616876;-10.0657;1.5057;-4.4982;
1192095011712814;-10.5281;1.4148;-4.0502;
1192095021808699;-9.6921;1.2230;-2.7924;
1192095031923230;-8.4153;1.1824;-2.5863;
1192095042019116;-8.4440;1.2015;-3.0751;
1192095052115053;-8.8992;1.1106;-2.5265;
1192095062251147;-9.2201;1.0866;-2.4667;
1192095072347032;-10.0828;1.0603;-3.5183;
1192095082442970;-9.9413;1.0172;-3.5853;
1192095092553439;-8.8633;1.1656;-3.6766;
1192095102649376;-8.6859;1.1656;-4.1267;
1192095112745262;-8.6453;1.0579;-3.6380;
1192095122871564;-9.2225;1.0172;-3.2740;
1192095132967449;-9.5076;0.8925;-3.3003;
1192095143063387;-8.9806;0.8207;-3.7460;
1192095153186147;-9.2827;0.9667;-4.6178;
1192095163282032;-9.8145;1.2589;-3.5327;
1192095173377970;-9.0814;1.3932;-1.6331;
1192095183511303;-8.1159;1.7094;-2.0617;
1192095193607241;-9.1029;1.9346;-2.7278;
1192095203703126;-8.7844;2.0614;-2.5098;
1192095213824480;-9.1220;2.2914;-3.0942;
1192095223920418;-10.1976;2.5980;-4.0430;
1192095234016303;-9.9676;2.5310;-3.8512;
1192095244139480;-8.6572;2.1837;-2.6393;
1192095254235418;-8.6309;2.3444;-2.2606;
1192095264331303;-8.6931;2.8759;-2.8044;
1192095274444897;-8.6046;2.7849;-3.8871;
1192095284540834;-10.0442;2.5167;-5.1784;
1192095294636720;-9.8671;2.5525;-4.8120;
1192095304760834;-9.1460;2.5549;-3.7890;
1192095314856772;-9.0670;2.8065;-2.0210;
1192095324952657;-7.3708;3.5300;-0.9383;
1192095335065001;-8.2190;4.0690;-2.8499;
1192095345160939;-10.6409;3.3838;-3.2118;
1192095355256824;-10.6911;3.4606;-2.6225;
1192095365390470;-8.9614;4.0953;-2.4308;
1192095375486355;-7.7447;3.6784;-2.8068;
1192095385582293;-9.2560;3.8031;-4.6848;
1192095395701668;-10.6911;3.1202;-2.8956;
1192095405797553;-8.7099;3.4295;-1.3744;
1192095415893491;-7.9292;3.6906;-2.5600;
1192095426021668;-9.2683;3.6329;-3.8177;
1192095436117553;-9.1962;3.5803;-3.4609;
1192095446213491;-9.0191;3.4128;-2.1434;
1192095456308491;-9.5195;3.6281;-1.5805;
1192095466404428;-9.0431;3.1202;-1.1324;
1192095476500314;-8.8825;3.3646;-2.2845;
1192095486643439;-9.7304;3.6090;-3.2907;
1192095496739324;-9.6826;3.1636;-3.1400;
1192095506835262;-8.6740;3.1923;-3.3601;
1192095516952137;-7.6008;2.9169;-2.6177;
1192095527048022;-7.5577;2.7730;-2.8837;
1192095537143959;-9.2755;2.8328;-4.0717;
1192095547265834;-10.8275;2.6773;-3.7795;
1192095557361720;-8.6955;2.5071;-2.6847;
1192095567457657;-8.0728;3.4965;-3.8369;
1192095577608699;-9.9437;3.4101;-4.5843;
1192095587704637;-8.9542;3.7146;-3.5423;
1192095597800522;-7.4261;4.1671;-2.9985;
1192095607896459;-9.0646;4.0762;-3.3840;
1192095617992345;-8.5376;3.4439;-2.9794;
1192095628088282;-9.1125;3.2258;-3.8824;
1192095638236147;-9.6634;3.3383;-4.5796;
1192095648332032;-8.2286;3.7146;-4.8000;
1192095658427970;-6.4822;5.0560;-5.0324;
1192095668528595;-7.8069;3.3311;-4.7016;
1192095678631407;-9.4167;3.8844;-4.9316;
1192095688734272;-11.6587;3.9060;-5.7245;
1192095698845262;-9.7543;3.0939;-5.5256;
1192095708948126;-7.8643;3.0748;-5.1090;
1192095719050991;-7.3998;2.7778;-3.6547;
1192095729181668;-7.7518;2.5765;-2.5552;
1192095739284532;-8.4153;1.8843;-3.4418;
1192095749387397;-10.4779;1.7381;-4.3998;
1192095759462345;-10.6098;1.9442;-4.7426;
1192095769565157;-9.8647;2.0761;-5.2887;
1192095779668022;-7.3493;2.0590;-5.1209;
1192095789805366;-5.3348;2.2675;-5.3581;
1192095799908230;-6.1804;2.3034;-6.4050;
1192095810011043;-7.5601;2.6677;-6.4935;
1192095820088595;-9.5868;4.0044;-6.0168;
1192095830191459;-9.5100;4.0666;-5.1975;
1192095840294324;-8.9853;4.2751;-4.3017;
1192095850407553;-8.4897;4.8117;-3.0272;
1192095860510418;-8.1302;3.9565;-2.3471;
1192095870613282;-9.8551;4.4450;-4.3208;
1192095880720574;-10.6672;3.9900;-5.5953;
1192095890823439;-8.8202;2.6246;-3.2142;
1192095900926303;-6.3960;1.8580;0.4774;
1192095911036512;-6.2593;1.6567;-0.4714;
1192095921139376;-9.8169;2.6964;-2.9626;
1192095931242241;-11.2612;2.1814;0.0102;
1192095941358491;-7.5147;1.1249;0.2330;
1192095951461355;-8.3602;3.2904;-5.4778;
1192095961564168;-12.0661;2.3444;-4.0837;
1192095971667866;-9.9987;0.5166;-0.6508;
1192095981770730;-9.3832;0.8566;-2.8116;
1192095991873595;-11.6587;-0.5136;-1.1180;
1192096001992241;-9.0263;-1.9678;1.7806;
1192096012095105;-8.2334;-2.4012;0.4774;
1192096022197970;-12.0398;-3.0482;0.2665;
1192096032296928;-12.0589;-3.8339;2.0680;
1192096042399793;-8.9566;-3.2563;0.7839;
1192096052502657;-10.1976;-1.3926;-1.2090;
1192096062615366;-9.8025;-1.6633;-1.7743;
1192096072718230;-10.0585;-2.2720;-2.3949;
1192096082821095;-9.5653;-3.2731;-2.5768;
1192096092928699;-9.8839;-2.3031;-3.2070;
1192096103031564;-9.3784;-1.2778;-3.1400;
1192096113134428;-9.1675;-1.4049;-2.1386;
1192096123243282;-10.4994;-1.7761;-1.4246;
1192096133346147;-8.3985;-0.6598;-1.3361;
1192096143449012;-8.0680;0.1499;-3.1735;
1192096153552553;-12.5955;-0.0897;-3.3075;
1192096163655418;-9.8360;-0.2166;-0.9837;
1192096173758230;-6.1636;1.5344;-4.1865;
1192096183873699;-10.3077;0.8806;-4.9771;
1192096193976564;-10.8757;-0.3508;-2.3542;
1192096204079428;-8.4009;0.7633;-2.8259;
1192096214184428;-7.9771;1.1465;-4.1746;
1192096224287293;-9.1795;0.8447;-3.9497;
1192096234390105;-8.9375;1.0699;-3.7196;
1192096244495730;-8.6070;1.2206;-3.3817;
1192096254598595;-9.3903;0.5524;-4.1650;
1192096264701407;-10.1928;-0.3437;-3.9425;
1192096274806407;-8.4081;-0.7005;-2.9076;
1192096284909272;-8.0847;-0.5255;-3.6694;
1192096295012084;-8.0489;-0.8201;-4.4839;
1192096305131928;-8.9207;-0.6670;-4.8215;
1192096315234793;-10.4803;-0.7484;-3.9302;
1192096325337657;-9.5390;-0.7196;-3.3553;
1192096335432084;-8.3746;0.0446;-5.0563;
1192096345534949;-8.2190;0.0087;-5.1999;
1192096355637814;-9.1962;-0.4059;-6.1152;
1192096365756720;-8.6524;-0.0826;-6.9727;
1192096375859584;-7.3110;-0.2237;-6.5222;
1192096385962449;-9.9867;-0.1783;-7.0325;
1192096396063595;-9.0048;0.0159;-6.9655;
1192096406166459;-7.2679;0.5596;-7.3295;
1192096416269324;-10.0202;1.8796;-9.2940;
1192096426376980;-8.1924;1.7357;-6.8192;
1192096436479845;-7.6657;0.7295;-5.8636;
1192096446582657;-9.3879;0.5620;-7.5978;
1192096456698387;-8.5208;0.7295;-6.4744;
1192096466801251;-7.4955;0.6697;-6.2228;
1192096476904064;-7.7925;0.5740;-8.2639;
1192096487013178;-8.9016;0.3894;-5.6575;
1192096497116043;-8.4682;-0.7077;-5.8732;
1192096507218907;-10.4755;-0.5686;-6.8001;
1192096517322762;-9.6682;-0.3003;-4.5508;
1192096527425626;-7.6920;-1.1486;-3.5064;
1192096537528491;-8.7461;-0.0511;-4.4405;
1192096547641147;-8.6979;-0.0368;-4.3902;
1192096557744012;-10.0681;0.6099;-3.3649;
1192096567828855;-7.0929;0.2315;-4.0860;
1192096577931720;-8.9710;-0.0778;-5.4443;
1192096588034584;-10.1545;0.2506;-5.7389;
1192096598153230;-9.9030;0.6051;-3.0870;
1192096608256095;-7.1291;0.8638;-3.7531;
1192096618358907;-9.2417;-0.1735;-4.6777;
1192096628469637;-10.3367;-0.0464;-3.9903;
1192096638572449;-9.2297;-0.1543;-2.3013;
1192096648675314;-8.1446;-0.6239;-3.0775;
1192096658782866;-8.5926;-2.2313;-2.3495;
1192096668885626;-9.6634;-1.8072;-3.4035;
1192096678988491;-10.3582;-2.2098;-3.0488;
1192096689091355;-7.9962;-1.5652;-1.9421;
1192096699207189;-9.8647;-1.6780;-2.3495;
1192096709310053;-10.8251;-1.1171;-2.6847;
1192096719412866;-10.1833;-0.5710;-1.1396;
1192096729513491;-8.6405;0.1403;-1.9828;
1192096739616303;-9.7400;-1.0884;-3.1253;
1192096749719168;-9.5533;-0.5279;-2.3399;
1192096759880470;-9.1005;-0.0511;-2.0521;
1192096769983282;-8.9518;0.1905;-2.3853;
1192096780086147;-7.9026;-0.3843;-3.7412;
1192096790140574;-10.8829;-0.3843;-4.6394;
1192096800243439;-10.3487;0.0565;-3.5016;
1192096810346303;-8.9830;0.1714;-2.4236;
1192096820468387;-6.5611;0.7992;-4.0813;
1192096830571251;-9.1579;0.8399;-5.2863;
1192096840674116;-9.4310;0.2578;-4.9029;
1192096850794741;-10.6648;1.4052;-4.9484;
1192096860897605;-7.9412;1.3502;-4.3711;
1192096871000418;-7.4596;2.0351;-4.9292;
1192096881090262;-8.7891;1.3908;-5.7102;
1192096891193126;-9.6084;1.8461;-4.3567;
1192096901295991;-8.7365;1.7477;-5.0085;
1192096911399532;-9.5988;2.0255;-5.0587;
1192096921502397;-9.2393;0.8471;-3.6045;
1192096931605262;-8.5376;1.6543;-4.3519;
1192096941725001;-8.4440;0.3153;-4.0023;
1192096951827866;-9.7328;0.7896;-4.4815;
1192096961930730;-9.4717;0.7825;-3.5399;
1192096972039428;-7.0857;1.3286;-2.7374;
1192096982142293;-9.5773;-0.7723;-5.4778;
1192096992245105;-9.9652;0.2124;-4.0980;
1192097002356824;-7.5218;-0.5614;-4.1913;
1192097012459689;-8.5878;-0.2453;-6.2013;
1192097022562501;-9.4214;-0.6239;-5.5184;
1192097032672866;-8.5184;-1.4192;-2.3973;
1192097042775730;-7.9241;-1.0621;-3.0153;
1192097052878543;-9.3760;-2.5834;-3.6957;
1192097062995470;-10.3029;-1.8335;-2.7374;
1192097073098334;-9.8480;-2.2337;-2.6967;
1192097083201147;-9.9676;-1.6322;-3.2668;
1192097093291564;-10.3316;-2.1066;-2.6919;
1192097103394428;-9.6108;-1.9101;-2.7589;
1192097113497241;-9.7137;-1.4360;-3.0535;
1192097123614012;-9.0335;-2.2816;-3.7507;
1192097133716876;-10.1498;-1.6059;-2.9889;
1192097143819689;-8.7242;-2.2289;-2.7589;
1192097153924324;-8.1829;-1.0717;-3.6619;
1192097164027189;-7.6534;-1.2730;-4.9962;
1192097174130001;-8.9160;-0.9832;-5.5834;
1192097184259845;-10.1115;-0.4059;-4.1339;
1192097194362709;-9.1364;-0.2070;-4.1076;
1192097204465522;-9.6754;0.4588;-3.7029;
1192097214558178;-8.9830;-0.1974;-2.2510;
1192097224661043;-8.2406;0.4349;-3.4801;
1192097234763855;-10.6840;0.9332;-3.8273;
1192097244872241;-10.1976;1.7022;-2.6847;
1192097254975105;-7.8715;1.9346;-2.8259;
1192097265077970;-8.5496;1.7931;-4.8168;
1192097275186564;-9.2130;2.2890;-4.8239;
1192097285289428;-8.0273;1.9490;-2.9387;
1192097295392241;-5.4592;1.8341;-4.0765;
1192097305493491;-9.7807;1.5921;-5.2621;
1192097315596355;-12.8495;1.5778;-3.1639;
1192097325699168;-9.6299;1.9872;-2.6465;
1192097335813126;-7.7471;1.0699;-3.3505;
1192097345915939;-9.2683;-0.1831;-3.2046;
1192097356018803;-9.5124;0.2698;-3.3194;
1192097366121928;-10.0298;0.5381;-4.2945;
1192097376224793;-12.4998;0.6960;-3.4298;
1192097386327657;-7.6657;0.2243;-1.6953;
1192097396435157;-7.8021;0.0039;-3.9927;
1192097406538022;-10.8491;-0.2477;-4.5652;
1192097416640887;-10.1258;-1.0717;-2.4380;
1192097426758491;-9.3760;-0.2692;-1.7192;
1192097436861355;-8.8633;-1.1916;-3.1687;
1192097446964168;-7.8523;-1.8766;-3.3171;
1192097457085157;-8.2310;-1.9053;-3.4633;
1192097467187970;-10.3125;-2.2528;-4.7593;
1192097477290834;-11.2851;-1.8814;-4.2156;
1192097487388282;-9.9150;-1.5485;-3.0823;
1192097497491147;-9.9796;-0.9281;-3.0033;
1192097507593959;-9.0287;-1.1390;-1.3289;
1192097517694012;-8.1135;-1.1028;-2.7326;
1192097527796876;-9.1388;-0.7077;-3.9927;
1192097537899741;-10.2479;-1.4743;-3.3027;
1192097547996043;-9.7759;-1.7880;-1.5972;
1192097558098907;-6.2521;-1.1701;-3.4920;
1192097568201772;-7.4740;-0.7627;-7.7393;
1192097578319376;-9.6132;-1.0047;-5.8059;
1192097588423855;-9.6227;-0.7364;-4.8503;
1192097598528387;-11.7547;-0.4657;-3.3960;
1192097608645626;-10.2670;0.5237;-2.4476;
1192097618750105;-7.9146;0.2243;-2.9459;
1192097628854584;-7.9436;0.7490;-3.0344;
1192097638932293;-9.0503;0.7032;-4.6202;
1192097649036824;-10.2646;0.0230;-3.0511;
1192097659141303;-10.1809;0.4134;-2.7302;
1192097669280939;-9.1866;0.2818;-2.5504;
1192097679385418;-8.4706;0.1905;-4.2347;
1192097689489949;-9.7328;0.8877;-3.2142;
1192097699560626;-8.7915;1.0220;-2.8307;
1192097709665105;-7.3062;0.4349;-3.8728;
1192097719769637;-9.4525;1.2254;-4.9603;
1192097729881147;-9.9437;0.4253;-3.4872;
1192097739985626;-9.6132;0.6051;-3.4059;
1192097750090157;-10.5425;1.1441;-3.8489;
1192097760219584;-9.1866;1.1345;-1.8631;
1192097770324064;-9.1220;1.0555;-2.0617;
1192097780428595;-9.7448;0.9021;-1.9086;
1192097790541355;-9.3736;1.0627;-3.2046;
1192097800645834;-8.0895;0.1714;-2.1075;
1192097810750366;-8.5280;0.4902;-2.7446;
1192097820834845;-8.2860;-0.0368;-2.8956;
1192097830939376;-8.1829;-0.0778;-6.1032;
1192097841043855;-8.7341;-0.3652;-5.5881;
1192097851144480;-10.7845;-0.0921;-3.9111;
1192097861248959;-9.7663;-0.2429;-0.5791;
1192097871353491;-7.4620;-0.1208;-1.9636;
1192097881466251;-7.9555;-0.2692;-3.1062;
1192097891570782;-9.1986;-0.4490;-4.3615;
1192097901675262;-10.0851;-0.3413;-3.4513;
1192097911798439;-10.6768;0.1307;-2.8379;
1192097921902970;-9.2608;0.1762;-1.7910;
1192097932007449;-7.8356;-0.1208;-2.6632;
1192097942104897;-7.0068;-0.2620;-3.0392;
1192097952209376;-8.6046;-0.8560;-4.3974;
1192097962313907;-10.8972;-0.9568;-4.3519;
1192097972412918;-12.0781;-0.3413;-4.1530;
1192097982517397;-9.0215;0.4807;-2.6297;
1192097992621928;-8.9686;0.5118;-2.8594;
1192098002723543;-9.5486;0.3607;-2.7685;
1192098012828022;-9.8312;-0.0296;-2.7135;
1192098022932553;-11.1197;0.2530;-2.8669;
1192098033048855;-9.5366;0.0661;-1.0439;
1192098043153334;-8.1326;-0.1184;-2.9124;
1192098053257866;-6.7600;-0.6191;-4.0645;
1192098063365001;9.7304;-1.4097;-6.6517;
1192098073469532;-0.6658;-4.0902;-12.4750;
1192098083574012;-32.1069;-4.9813;-7.1330;
1192098093676043;-28.4872;-0.5112;5.2923;
1192098103780522;-11.2086;3.9203;8.2053;
1192098113885053;-0.1555;5.0249;4.8275;
1192098123990418;0.0215;2.3922;-5.4371;
1192098134094897;-9.2082;0.1092;-11.1096;
1192098144199428;-12.2794;0.6242;-7.8063;
1192098154306043;-10.0418;1.2374;-4.5365;
1192098164410522;-8.6237;-0.4370;-1.2882;
1192098174515053;-2.9608;-0.4322;-3.0655;
1192098184629168;-6.7265;-0.2620;-7.9693;
1192098194733647;-19.3866;-0.4920;-5.5762;
1192098204838178;-13.8341;0.2674;0.7217;
1192098214931251;-4.9923;1.8221;-1.1276;
1192098225035730;-5.4688;1.5272;-5.7604;
1192098235140262;-6.5611;0.3799;-6.1008;
1192098245242605;-12.1475;0.3009;-5.3175;
1192098255347084;-13.0122;0.3559;-2.7015;
1192098265451616;-10.7964;0.3176;-0.9790;
1192098275546147;-10.9331;-0.1854;6.4373;
1192098285650626;1.6792;-2.0157;14.8098;
1192098295755105;-2.9417;-1.7402;-16.0038;
1192098305866928;-23.6842;0.3344;-36.3990;
1192098315971407;-12.3057;2.9025;-1.8775;
1192098326075939;1.1641;4.6750;6.8614;
1192098336176668;-5.3420;4.2416;-6.9870;
1192098346281147;-12.4325;0.5405;-3.4298;
1192098356385678;-14.8639;0.6649;0.3191;
1192098366499689;-9.1627;1.2927;0.2115;
1192098376604220;-5.9169;-0.3194;-2.4906;
1192098386708699;-7.1865;-0.9736;-1.4414;
1192098396827084;-5.5071;-2.3797;-3.5351;
1192098406931616;-14.2747;-0.8994;-12.8178;
1192098417036095;-11.9270;-0.4968;-5.0970;
1192098427128751;-4.1249;-0.5207;1.9193;
1192098437233230;-8.0010;0.3009;-2.7398;
1192098447337762;-13.7644;-1.3639;-2.0545;
1192098457466147;-9.2393;-0.7029;-2.0955;
1192098467570626;-7.5266;0.8327;-5.0492;
1192098477675157;-11.5846;0.1092;-3.9087;
1192098487753959;-8.3411;0.0470;-0.5695;
1192098497858439;-9.2010;0.0135;-3.4035;
1192098507962970;-11.4242;-0.4729;-3.2261;
1192098518069584;-7.9914;-0.5542;-1.0654;
1192098528174116;-7.9265;-0.9688;-3.7938;
1192098538278595;-9.8336;-1.2419;-2.4811;
1192098548373959;-10.9235;-1.4575;-2.6991;
1192098558478439;-10.5951;-0.8850;-2.8522;
1192098568582918;-7.9866;-1.0597;-1.8559;
1192098578739949;-7.8045;-1.4934;-3.0200;
1192098588845053;-10.4731;-1.1821;-3.2836;
1192098598950157;-10.3367;-1.0310;-3.4107;
1192098609009376;-9.4334;-0.5901;-1.9540;
1192098619114480;-8.6740;-0.4226;-2.5887;
1192098629219532;-8.9638;-0.4848;-2.1458;
1192098639322866;-9.3688;-0.6431;-4.1626;
1192098649428022;-8.1852;0.1714;-4.0621;
1192098659533126;-9.6921;0.1881;-3.6260;
1192098669618803;-10.0899;-0.0009;-2.5241;
1192098679723959;-9.5342;0.3799;-3.7244;
1192098689829064;-9.2178;0.0302;-3.7220;
1192098699969324;-6.4152;0.0709;-3.4657;
1192098710074428;-8.1948;0.6984;-5.3294;
1192098720179584;-12.2315;0.1594;-4.7545;
1192098730266303;-11.2828;0.4134;-1.3433;
1192098740371459;-7.4022;0.0876;-1.4079;
1192098750476564;-7.6247;0.6434;-4.1387;
1192098760569689;-9.9293;-0.0802;-5.1592;
1192098770674793;-9.5916;0.3775;-2.5385;
1192098780779897;-9.1196;0.6769;-3.2237;
1192098790897032;-10.0875;0.4564;-3.1376;
1192098801002189;-9.6419;0.9093;-3.5710;
1192098811107293;-8.8322;0.7992;-4.2921;
1192098821211876;-7.1411;1.3932;-3.0296;
1192098831317032;-8.2765;0.9906;-4.0167;
1192098841422137;-11.1365;0.5237;-2.1960;
1192098851521720;-10.6768;0.1834;-1.8344;
1192098861626876;-9.0431;0.4564;-3.2716;
1192098871731980;-7.9388;0.9500;-3.9159;
1192098881838178;-9.0144;0.6936;-4.2634;
1192098891943334;-10.1569;0.6817;-3.0631;
1192098902048439;-9.1460;0.0805;-2.1051;
1192098912166876;-8.6094;0.5357;-3.4250;
1192098922272032;-9.7256;0.6888;-4.2538;
1192098932377137;-9.1819;0.1451;-2.8813;
1192098942474793;-9.1029;0.0374;-2.8741;
1192098952579897;-8.1063;-0.0296;-3.1807;
1192098962685001;-9.3329;-0.2285;-3.7866;
1192098972777709;-10.7127;-0.0945;-4.0789;
1192098982882866;-10.3941;0.3105;-3.0464;
1192098992987970;-9.8743;0.3727;-2.3566;
1192099003100262;-8.5902;0.0039;-1.8559;
1192099013205418;-8.8298;-0.1089;-2.3949;
1192099023310522;-8.4969;-0.5423;-2.9841;
1192099033418699;-7.9026;-0.7603;-4.3424;
1192099043523855;-9.0072;-0.6814;-5.2358;
1192099053628907;-9.3497;-0.6837;-5.1544;
1192099063750991;-10.8084;-0.5351;-5.1114;
1192099073856147;-9.4071;-0.5495;-2.1529;
1192099083961251;-6.5204;-0.3724;-1.9301;
1192099094042449;-8.7389;-0.5566;-4.0190;
1192099104147605;-11.6806;-0.9784;-3.1352;
1192099114252709;-8.4057;-1.1462;-1.8464;
1192099124353074;-8.4320;-0.7436;-3.0464;
1192099134458230;-10.8036;-0.7101;-4.6250;
1192099144563334;-9.9604;0.2961;-2.9339;
1192099154652709;-8.9231;0.3248;-2.9243;
1192099164757814;-8.1350;-0.1089;-2.7039;
1192099174862918;-8.9207;0.0494;-3.7747;
1192099184985053;-11.6611;0.1259;-3.7723;
1192099195090209;-10.0875;-0.2859;-2.1051;
1192099205195314;-5.4975;0.4253;-3.2931;
1192099215336616;-8.6979;0.2100;-4.6202;
1192099225441772;-12.2435;0.0757;-3.7986;
1192099235546876;-9.0981;-0.2668;-1.6331;
1192099245619116;-7.5027;-0.1113;-2.9794;
1192099255724220;-8.7075;-0.2812;-3.9520;
1192099265829376;-10.6552;-0.0969;-3.2955;
1192099275921043;-9.8169;-0.0802;-2.0067;
1192099286026147;-6.4032;0.4636;-2.8044;
1192099296131251;-9.1436;0.4564;-5.1903;
1192099306239897;-10.9427;0.7992;-3.4250;
1192099316345001;-10.9666;1.4339;-2.7805;
1192099326450105;-8.2190;1.0172;-2.1577;
1192099336569272;-8.1159;0.9547;-2.2271;
1192099346674428;-8.8322;1.0723;-3.5542;
1192099356779480;-10.2144;0.7681;-3.4944;
1192099366873126;-9.7041;0.8806;-4.6274;
1192099376978282;-9.5821;0.7199;-3.9616;
1192099387083387;-8.9638;0.3440;-1.6044;
1192099397192970;-7.3588;0.7271;-3.4753;
1192099407298126;-8.6859;0.2506;-5.1688;
1192099417403230;-9.5533;0.0159;-3.4633;
1192099427507449;-10.9235;-0.3218;-1.3911;
1192099437612605;-10.2239;-0.2835;-1.9564;
1192099447717709;-6.9852;0.3942;-3.8632;
1192099457821616;-8.7413;0.5237;-4.8885;
1192099467926772;-10.9714;0.1164;-2.1697;
1192099478031876;-7.8404;-0.2285;-0.8809;
1192099488130470;-11.4721;-0.1591;-4.3304;
1192099498235574;-12.5644;0.0015;-2.9841;
1192099508340730;-8.5543;-0.2429;0.0485;
1192099518443387;-6.3024;0.6577;-2.9865;
1192099528548491;-5.3157;0.1020;-6.5390;
1192099538653595;-9.1316;-0.4992;-6.7403;
1192099548779741;-12.6218;-1.1363;-3.9879;
1192099558884845;-6.4391;-0.9377;-1.8176;
1192099568989949;9.4696;-1.8287;-6.9511;
1192099579045418;-18.2369;-2.4586;-8.7718;
1192099589149741;-36.4068;-2.8373;4.8658;
1192099599254012;-14.0662;0.2195;10.1192;
1192099609422918;1.1354;4.0140;-0.6915;
1192099619527189;1.4372;1.8820;-8.8460;
1192099629631459;-6.6500;0.0733;-6.7929;
1192099639691355;-13.6017;-0.4561;-4.4620;
1192099649795626;-15.8868;-0.5973;-2.7709;
1192099659899949;-9.8551;-0.5088;-1.7838;
1192099670010314;-4.8269;0.1235;-3.7651;
1192099680114584;-3.2124;-0.0057;-6.4002;
1192099690218907;-8.3889;-0.2094;-7.2482;
1192099700329012;-15.1612;-0.4896;-2.2199;
1192099710433282;-11.7356;-0.5877;0.3072;
1192099720537605;-10.0107;0.0111;-1.7719;
1192099730641876;-8.0560;-1.1533;2.2310;
1192099740746147;-0.8001;-2.1544;10.2583;
1192099750850470;-2.3067;-2.1042;-12.6619;
1192099760940105;-24.2471;0.5357;-34.4851;
1192099771044376;-15.8677;3.0676;-2.1553;
1192099781148699;-1.6313;3.4128;15.0156;
1192099791269168;-0.7905;3.0939;0.1134;
1192099801373439;-11.9175;-0.0682;-8.7452;
1192099811477762;-17.6333;0.7872;-2.8020;
1192099821586668;-10.3268;1.9035;3.0165;
1192099831690939;-4.0220;1.7142;-4.0430;
1192099841795262;-7.4668;0.2219;-7.3056;
1192099851896876;-7.7327;-1.8766;-0.3347;
1192099862001147;-9.1436;-2.0994;-3.2477;
1192099872105470;-15.3981;-0.4394;-7.2362;
1192099882212709;-10.5305;-0.0368;0.0245;
1192099892316980;-5.4377;0.6505;-1.4557;
1192099902421303;-9.1125;0.5381;-5.9952;
1192099912544272;-8.6883;0.2028;-2.0474;
1192099922648543;-9.2225;0.6314;-2.2558;
1192099932752866;-11.4793;1.1010;-3.4801;
1192099942846095;-7.6753;0.0254;-0.8186;
1192099952950366;-7.9962;-0.0655;-3.7460;
1192099963054689;-10.6696;1.0172;-6.1367;
1192099973158126;-8.4320;0.1116;-2.4069;
1192099983262397;-6.9589;0.4926;-4.1219;
1192099993366720;-11.0240;0.9069;-5.1879;
1192100003474584;-9.7256;0.0757;-1.6187;
1192100013578855;-9.1866;0.9954;-1.4797;
1192100023683178;-9.8240;0.8327;-3.1376;
1192100033793439;-9.3616;0.5261;-3.0344;
1192100043897709;-8.6357;0.6649;-4.2873;
1192100054002032;-8.5232;1.2999;-4.5915;
1192100064120939;-10.5951;1.0412;-2.3423;
1192100074225209;-11.1464;0.4807;-1.8966;
1192100084329532;-9.4454;0.2243;-2.2223;
1192100094421459;-6.5803;0.1929;-3.0703;
1192100104525730;-7.6128;0.4612;-4.4910;
1192100114630053;-10.8924;0.2602;-4.1315;
1192100124729168;-9.5964;0.4878;-2.5074;
1192100134833491;-7.5027;0.1738;-2.3925;
1192100144937762;-8.8035;-0.3003;-4.3496;
1192100155055418;-9.8815;-0.2716;-4.3472;
1192100165159689;-9.8097;-0.2596;-2.1745;
1192100175264012;-9.4143;0.3033;-3.2812;
1192100185373543;-9.5845;1.0723;-5.2406;
1192100195477814;-6.4176;0.6960;-3.7866;
1192100205582137;-4.7288;0.5931;-2.6010;
1192100215654272;1.8206;-0.4394;-4.8359;
1192100225758595;-22.0026;-0.4585;-6.9894;
1192100235862866;-30.8037;-0.8417;1.7806;
1192100246001928;-17.4392;2.8543;7.9035;
1192100256106199;3.5668;5.6237;1.9217;
1192100266210522;9.5701;0.4421;-7.0923;
1192100276295105;-6.8342;-4.1644;-12.2139;
1192100286399376;-20.5822;-1.1677;-8.6542;
1192100296503699;-17.1541;-0.6694;3.3664;
1192100306613959;-7.4070;-0.1950;0.7050;
1192100316718230;-2.1344;-0.1280;-5.3198;
1192100326822553;-5.3492;0.0398;-7.6002;
1192100336912189;-11.2373;-0.5088;-5.4897;
1192100347016459;-13.0244;-0.1448;-1.0056;
1192100357120782;-11.8505;0.4181;0.3144;
1192100367234584;-8.3387;-0.7029;2.3602;
1192100377338907;1.3080;-2.8062;3.2393;
1192100387443178;-8.8753;-0.2405;-20.7996;
1192100397559376;-21.5043;1.6615;-22.6223;
1192100407663647;-12.0972;3.0221;4.4898;
1192100417767970;-4.1680;2.2005;8.9432;
1192100427872814;-2.7093;1.4794;0.4989;
1192100437977084;-11.9704;1.0053;-6.0888;
1192100448081407;-17.3794;-0.4322;-2.7613;
1192100458213959;-9.0742;0.3176;1.8188;
1192100468318230;-4.2473;1.0890;-3.3266;
1192100478422553;-6.3314;-0.6048;-6.1534;
1192100488491043;-7.1267;-1.5485;-2.2104;
1192100498595314;-12.4277;-0.8034;-4.2419;
1192100508699637;-15.2450;-0.3099;-4.7856;
1192100518826668;-9.1364;1.0220;-0.2868;
1192100528930939;-4.8126;0.4469;-3.2405;
1192100539035262;-3.9574;0.5070;-4.5221;
1192100549131668;-6.5396;-0.0224;-5.0133;
1192100559235939;-13.2709;0.4469;-6.7427;
1192100569340262;-14.0952;0.6147;-1.9564;
1192100579422501;-10.6744;0.4612;1.2296;
1192100589526824;-7.9914;1.2832;-1.3193;
1192100599631095;-8.8729;1.6950;-5.1114;
1192100609749689;-5.6151;0.9571;-3.1253;
1192100619853959;-6.2234;0.8518;-0.5192;
1192100629958282;-12.6410;-0.4585;-3.3314;
1192100640084168;-12.4974;0.1307;-1.5613;
1192100650188491;-8.1975;0.0326;-2.0186;
1192100660292762;-9.0766;1.0914;-5.8205;
1192100670394272;-10.5760;0.9476;-3.3840;
1192100680498543;-5.2077;0.1786;-1.5203;
1192100690602866;-8.4706;0.6410;-3.2716;
1192100700710209;-10.7892;-0.9353;-4.0837;
1192100710814532;-7.2990;-0.9903;-0.8163;
1192100720918803;-7.5577;-0.5734;-5.1879;
1192100731016459;-20.0073;0.8303;-5.5017;
1192100741120730;-17.9638;1.2975;2.2525;
1192100751225053;-4.5921;1.8867;4.2670;
1192100761331876;-5.2941;1.4076;-1.1085;
1192100771436147;-9.8958;-0.4083;-3.4107;
1192100781540470;-14.8448;0.3559;-2.7565;
1192100791643126;-14.7156;0.5668;-1.8176;
1192100801747397;-7.9603;0.7944;0.4654;
1192100811851720;-4.2664;-0.6550;-3.7484;
1192100821963022;-6.6093;-0.8898;-6.6541;
1192100832067293;-9.3664;-1.3184;-6.5557;
1192100842171616;-10.2072;-1.4216;-2.5600;
1192100852271772;-8.2310;-1.6804;-3.6694;
1192100862376043;-7.8452;-1.1148;-4.5580;
1192100872480366;-6.0870;-0.3027;-4.2443;
1192100882602189;-8.5854;-0.2524;-8.0937;
1192100892706459;-14.2173;1.5395;-8.0004;
1192100902810782;-11.5606;1.4171;0.6954;
1192100912898334;-6.3144;2.4616;-0.9239;
1192100923002657;-9.0526;2.6028;-8.3022;
1192100933106928;-9.0335;2.2149;-5.0468;
1192100943225418;-7.3373;1.1895;-1.9780;
1192100953329689;-7.6872;1.1752;-3.6595;
1192100963434012;-12.1810;0.2506;-4.7665;
1192100973543751;-13.5129;-0.0682;0.4654;
1192100983648022;-9.6993;0.4373;1.2392;
1192100993752345;-7.2631;0.3966;-2.2558;
1192101003837605;-7.1121;-1.0214;-3.2668;
1192101013941876;-8.6477;-0.8584;-1.3361;
1192101024046199;-10.6648;-1.2084;-2.1769;
1192101034173855;-9.8695;-1.2873;-2.6441;
1192101044278126;-9.0981;-0.8393;-5.4275;
1192101054382449;-10.5090;-0.7819;-4.5269;
1192101064497501;-6.7313;-0.5662;-2.3133;
1192101074601772;-5.0641;-0.1543;-3.2118;
1192101084706095;-8.4849;-1.0143;-5.0874;
1192101094805001;-10.8203;-0.7962;-1.4749;
1192101104909272;-10.7151;0.1499;-2.8475;
1192101115013595;-11.1823;0.9260;-3.5399;
1192101125096147;-11.4048;0.9212;-3.2883;
1192101135200418;-11.2086;1.6998;-1.1300;
1192101145304741;-7.1818;1.2302;0.1588;
1192101155423074;-5.7538;0.4831;-2.5744;
1192101165527345;-8.8298;-0.2740;-4.6394;
1192101175631668;-9.3808;-0.3437;-4.2299;
1192101185740314;-9.9437;0.7753;-3.4274;
1192101195844584;-8.7772;0.5261;-4.4524;
1192101205948907;-9.0861;-0.0057;-3.5614;
1192101216043543;-10.0131;-0.1017;-1.8655;
1192101226147814;-8.7485;-0.0631;-1.0606;
1192101236252137;-9.4597;-0.2955;-3.2237;
1192101246359428;-11.3952;-0.8441;-4.3902;
1192101256463751;-10.8012;-0.1783;-1.9493;
1192101266568022;-7.9508;-0.0153;-1.8511;
1192101276665314;-7.6920;-0.6598;-4.1435;
1192101286769584;-10.4204;0.2076;-4.5700;
1192101296873907;-10.7079;0.2387;-3.1086;
1192101306981459;-8.8274;1.1058;-1.0319;
1192101317085730;-8.2382;0.7295;-1.8703;
1192101327190053;-7.3469;-0.3027;-2.5935;
1192101337325157;-8.3459;-0.7412;-3.0440;
1192101347429428;-11.1799;-0.3003;-4.0765;
1192101357533751;-10.3965;0.1953;-3.7125;
1192101367624376;-8.1900;1.4841;-5.3055;
1192101377728699;-9.6084;1.4985;-5.5810;
1192101387832970;-9.8623;2.4640;-2.6249;
1192101397925522;-6.7600;2.9097;-1.9732;
1192101408029793;-9.3903;1.5200;-3.8154;
1192101418134116;-11.7763;2.1790;-3.3936;
1192101428246668;-9.1196;2.0833;-1.7551;
1192101438350939;-8.3913;2.0327;-3.0535;
1192101448455262;-10.0732;1.1536;-3.3888;
1192101458582397;-9.6227;0.5764;-2.7063;
1192101468686720;-7.7614;1.1441;-2.6800;
1192101478790991;-7.6367;1.2302;-4.4596;
1192101488886043;-9.3688;1.5778;-6.0072;
1192101498990314;-10.5927;1.9513;-5.0779;
1192101509094637;-9.0287;1.5514;-1.5996;
1192101519236876;-6.6045;1.9322;-1.9110;
1192101529341147;-9.5821;1.0962;-5.7963;
1192101539445470;-12.0781;1.0914;-2.9937;
1192101549491668;-9.9509;1.7285;-1.1013;
1192101559595991;-8.0130;1.7812;-3.7005;
1192101569700262;-7.1722;0.6051;-3.9449;
1192101579797397;-7.1435;0.0063;-3.3817;
1192101589901668;-8.0249;0.2387;-4.4958;
1192101600005991;-11.1150;0.2195;-3.9350;
1192101610125522;-12.3966;1.0986;-3.4178;
1192101620229793;-11.3234;1.8700;-1.2858;
1192101630334116;-6.3096;0.9332;0.7816;
1192101640458543;-6.1875;0.4205;-2.6895;
1192101650562814;-10.5281;-1.1315;-3.2501;
1192101660667137;-10.0923;-0.9903;-2.1290;
1192101670759480;-9.7496;0.0135;-3.9664;
1192101680863803;-8.7290;-0.2381;-4.0119;
1192101690968074;-8.5256;-0.7531;-4.3328;
1192101701073751;-8.6046;-1.3926;-2.8932;
1192101711178022;-6.2904;-1.7545;-1.0319;
1192101721282345;-9.4980;-1.5843;-4.0310;
1192101731397345;-13.2589;-1.1916;-3.8010;
1192101741501616;-7.1459;-0.8273;-2.0306;
1192101751605939;-3.9239;-0.5279;-4.7064;
1192101761716512;-4.8078;-1.4121;-5.7341;
1192101771820782;-2.7284;-2.9019;-4.6561;
1192101781925105;-28.8921;-1.0717;-2.8522;
1192101792014480;-31.9870;-0.3963;6.5405;
1192101802118751;-8.1159;3.1780;10.8165;
1192101812223074;3.1310;6.1819;-0.5815;
1192101822333439;1.2338;-2.1640;-9.0111;
1192101832437709;-4.9107;-4.6819;-7.7895;
1192101842542032;-12.9906;-1.8885;-6.8264;
1192101852644897;-15.5851;-0.6718;-1.4222;
1192101862749168;-11.1221;-0.0682;-1.7527;
1192101872853491;-5.6533;0.4158;-2.7230;
1192101882960418;-4.6926;0.0900;-0.4738;
1192101893064741;-8.4105;-0.4681;-1.8392;
1192101903169012;-10.2287;-0.6837;0.2115;
1192101913271564;-2.4625;-0.9305;-3.5997;
1192101923375887;-15.2857;1.3190;-26.1918;
1192101933480157;-19.0131;3.0413;-12.9135;
1192101943604376;-4.9131;3.5276;8.0590;
1192101953708647;-4.1680;5.2187;1.4405;
1192101963812970;-10.9786;3.2258;0.6114;
1192101973907189;-15.1226;1.6831;2.4296;
1192101984011459;-11.8863;1.7836;1.3828;
1192101994115782;-4.9585;1.5081;-0.6532;
1192102004223230;-6.0870;-0.5112;-6.0793;
1192102014327501;-9.1819;-2.5068;-4.2467;
1192102024431824;-10.4587;-0.1735;-3.7675;
1192102034542345;-12.2961;1.1177;-5.3629;
1192102044646616;-8.5113;0.2243;-0.9984;
1192102054750939;-6.1110;0.6769;-1.2497;
1192102064863959;-8.7820;0.6721;-7.6552;
1192102074968230;-7.5410;0.2001;-4.2371;
1192102085072553;-6.7624;0.3846;-4.4692;
1192102095161043;-13.3262;1.6831;-8.8795;
1192102105265314;-12.4732;1.1824;-2.1745;
1192102115369637;-6.5444;1.1177;1.4812;
1192102125475939;-5.9982;1.6902;-2.6058;
1192102135580262;-10.2790;1.0627;-2.8669;
1192102145684532;-12.6266;0.5955;-0.7155;
1192102155793022;-12.3655;1.4124;-1.7240;
1192102165897293;-9.8623;0.5213;-1.6211;
1192102176001616;-6.3577;0.8997;-1.3504;
1192102186100314;-5.4808;-0.2788;-5.1042;
1192102196204584;-7.9962;-0.6239;-5.5280;
1192102206308907;-10.5568;-0.4872;-3.9111;
1192102216434376;-10.7486;-0.2907;-2.7350;
1192102226538647;-9.6802;0.0781;-1.9947;
1192102236642970;-9.8743;-0.4825;-2.7182;
1192102246739272;-9.9413;-0.3772;-1.8009;
1192102256843595;-9.9987;-0.3628;-0.5838;
1192102266947866;-9.1651;0.3296;-2.5863;
1192102277052293;-6.7313;0.4878;-4.8598;
1192102287156564;-6.1804;-0.4322;-5.2887;
1192102297260887;-10.5927;-0.5447;-5.4849;
1192102307361980;-10.9307;-0.9305;-1.1731;
1192102317466251;-9.4502;-0.3724;-1.2906;
1192102327570574;-11.1245;0.0206;-2.3276;
1192102337672918;-11.4673;-0.1735;-0.3634;
1192102347777189;-10.0947;0.5166;1.2153;
1192102357881512;-8.0919;0.0661;-1.5709;
1192102367979428;-8.4392;0.3823;-5.9210;
1192102378083699;-10.5616;0.2626;-5.7963;
1192102388188022;-10.9690;0.4205;-2.5792;
1192102398295834;-9.8216;0.0781;-2.2606;
1192102408400157;-7.7471;-0.3652;-1.1396;
1192102418504480;-8.5065;-1.7210;-0.0401;
1192102428630991;-5.9384;-2.0898;-2.4715;
1192102438735262;-9.8216;-1.2921;-6.9942;
1192102448839532;-12.8638;-1.6609;-4.3543;
1192102458929689;-11.0719;-1.3878;-0.8761;
1192102469034012;-8.7604;-0.3796;-3.0870;
1192102479138334;-10.0346;0.4612;-4.6609;
1192102489267501;-9.0072;0.5883;-2.1697;
1192102499371772;-8.1948;0.5046;-2.2487;
1192102509476095;-9.3138;0.3631;-3.7531;
1192102519549897;-10.3292;0.2818;-3.5997;
1192102529654168;-10.9570;-0.3796;-1.9445;
1192102539758491;-6.4487;-0.7388;-1.9325;
1192102549894064;-6.0054;-0.1783;-5.3222;
1192102559998334;-11.3426;-1.0358;-5.8301;
1192102570064220;-9.9724;-1.1964;-0.3610;
1192102580168491;-11.7523;-0.6359;-3.0272;
1192102590272814;-12.3344;0.1642;-4.0358;
1192102600414793;-8.4802;0.8112;-2.4284;
1192102610519064;-7.5625;1.2760;-2.7015;
1192102620623387;-8.5280;0.6649;-3.4896;
1192102630737501;-8.9447;0.3607;-3.2812;
1192102640841772;-10.2144;-0.0754;-3.0224;
1192102650946095;-8.4921;-0.1902;-1.7408;
1192102661015834;-7.1049;0.4325;-4.0430;
1192102671120105;-11.0264;-0.0176;-5.0324;
1192102681224428;-10.6911;0.0206;-0.9718;
1192102691341355;-7.4070;0.6482;-0.6413;
1192102701445626;-7.9771;0.5429;-4.1243;
1192102711549949;-9.2465;0.6553;-5.9402;
1192102721662709;-13.1369;1.2951;-5.1497;
1192102731766980;-10.4085;1.8700;-1.1850;
1192102741871303;-5.3563;1.9633;-0.7804;
1192102751975834;-9.1795;1.4363;-3.9087;
1192102762080105;-11.2851;0.5022;-2.1864;
1192102772184428;-7.3708;1.1201;-1.9851;
1192102782286251;-8.0752;0.9619;-4.7498;
1192102792390522;-10.0708;0.4205;-3.4394;
1192102802494845;-11.0886;0.7223;-1.8440;
1192102812601459;-11.9824;0.9308;-1.7480;
1192102822705730;-10.4348;0.9595;-1.8559;
1192102832810053;-7.5314;1.5176;-2.3351;
1192102842917345;-8.2860;1.3908;-3.8824;
1192102853021616;-11.6973;1.1058;-4.7976;
1192102863125939;-11.0910;0.4253;-0.9335;
1192102873233699;-7.2416;0.5477;0.2976;
1192102883338022;-7.2870;0.3799;-5.5522;
1192102893442293;-4.5060;0.0996;-6.8818;
1192102903567397;-5.8140;-0.7244;-3.7077;
1192102913671668;-19.6502;-1.2969;-2.1577;
1192102923775991;-16.5793;-0.3461;2.0536;
1192102933866876;-4.7910;1.9059;-0.4857;
1192102943971147;-3.0446;1.5129;-6.8818;
1192102954075470;-8.9710;0.7609;-7.0636;
1192102964188751;-10.8036;-0.6790;-2.5600;
1192102974293022;-12.3153;-0.4250;-2.2965;
1192102984397345;-8.5472;0.6482;-1.7049;
1192102994492397;-5.8762;0.0781;-3.4466;
1192103004596668;-8.5352;-0.4968;-4.9125;
1192103014700991;-11.6061;-1.3328;-2.5313;
1192103024811043;-9.4860;-0.9927;4.5377;
1192103034915314;-7.2631;-1.7880;-0.5671;
1192103045019637;-17.2044;-1.4192;-13.2224;
1192103055114480;-13.1608;-0.1041;-3.0009;
1192103065218751;-2.0336;0.6697;7.0146;
1192103075323074;-7.6176;-0.0826;-4.3280;
1192103085437501;-14.4999;-2.1688;-6.8216;
1192103095541824;-10.5473;-1.9774;1.0092;
1192103105646095;-9.0742;-0.4705;-1.1683;
1192103115751876;-8.9375;-0.9760;-4.0454;
1192103125856147;-7.5075;-1.4145;-1.4725;
1192103135960470;-8.4009;-2.2911;-1.8129;
1192103146060939;-9.8097;-1.9798;-4.7952;
1192103156165209;-10.5568;-1.9172;-5.7437;
1192103166269532;-9.4980;-0.9473;-4.4453;
1192103176368959;-6.8680;-0.3508;-4.4142;
1192103186473230;-9.2632;-0.4585;-4.1507;
1192103196577553;-8.8609;-0.5877;-1.4725;
1192103206691355;-7.7279;-0.1065;-4.1363;
1192103216795678;-11.4099;0.5764;-6.4911;
1192103226899949;-9.1077;0.9380;-0.2509;
1192103237000939;-7.5003;0.8830;-1.4821;
1192103247105209;-12.4182;0.9858;-4.4743;
1192103257209532;-11.7547;0.4878;-0.5647;
1192103267336355;-8.0321;1.4578;-1.6427;
1192103277440626;-5.8475;1.0699;-3.8465;
1192103287544949;-6.4606;-0.2189;-3.6452;
1192103297615522;-10.7486;-0.3796;-4.3137;
1192103307719793;-12.8877;0.6458;-0.9885;
1192103317824116;-9.4693;1.4171;-1.6427;
1192103327955730;-8.3842;1.4674;-2.9291;
1192103338060001;-5.7227;0.7681;-2.1721;
1192103348164324;-8.7461;1.0077;-3.6790;
1192103358258126;-10.4970;0.7418;-3.8225;
1192103368362397;-9.2321;1.3813;-4.8215;
1192103378466772;-9.7424;3.0437;-4.4501;
1192103388579897;-7.5147;1.8724;-2.8283;
1192103398684116;-11.3330;1.9274;-2.3710;
1192103408788491;-11.1727;1.7166;0.5970;
1192103418908959;-7.0307;1.6663;0.2186;
1192103429013282;-8.7748;2.2866;-6.4768;
1192103439117553;-9.0239;0.9308;-4.9149;
1192103449218647;-8.0273;1.2879;-1.5470;
1192103459322918;-10.7007;2.1383;-3.7388;
1192103469427241;-11.7954;1.4363;-3.0320;
1192103479522605;-9.9078;1.7524;-2.4476;
1192103489626928;-9.3927;1.7812;-1.2377;
1192103499731199;-7.5290;0.9021;-1.1492;
1192103509862241;-8.9495;1.0340;-3.3362;
1192103519966512;-7.2009;-0.4011;-3.1301;
1192103530070834;-9.3042;0.4038;-5.8397;
1192103540160209;-13.4842;0.5907;-4.9484;
1192103550264480;-8.9088;1.1225;0.1349;
1192103560368803;-5.6486;1.2350;-1.0606;
1192103570455887;-7.7949;0.5285;-5.0228;
1192103580560730;-10.0756;-0.2046;-4.0621;
1192103590665626;-10.8299;0.5548;-2.9722;
1192103600768959;-10.1521;1.3765;-3.9326;
1192103610873803;-8.5448;0.8495;-3.0368;
1192103620978699;-7.8739;0.9428;-1.8153;
1192103631114012;-10.5281;0.7848;-1.9349;
1192103641218907;-12.4349;0.7008;-2.2965;
1192103651323699;-8.6955;0.8183;0.2402;
1192103661419845;-4.8150;0.5381;-2.6058;
1192103671524689;-8.4921;-0.0945;-6.1223;
1192103681629532;-10.0923;-0.4920;-3.3577;
1192103691704637;-12.3200;-0.7866;-1.6738;
1192103701809532;-10.6768;-0.0511;-0.6197;
1192103711914324;-8.0680;-0.7579;-1.5179;
1192103722024584;-9.1125;-0.5566;-3.2548;
1192103732129480;-8.7891;-0.6981;-1.8320;
1192103742234272;-7.5482;-0.6239;-2.3710;
1192103752337241;-12.3488;0.1020;-6.2994;
1192103762442137;-11.8241;0.1786;-2.1434;
1192103772546928;-7.6777;0.2435;-0.2031;
1192103782655678;-7.4429;-0.2477;-2.6512;
1192103792760522;-8.4009;0.1475;-3.4131;
1192103802865366;-11.1535;-0.7842;-3.1950;
1192103812973178;-10.8805;-0.5303;-1.6953;
1192103823078022;-9.5267;-0.2309;-3.2716;
1192103833182866;-12.2507;-0.2764;-3.2859;
1192103843283491;-8.6477;-0.2716;0.0150;
1192103853388334;-8.5567;0.3344;-3.2548;
1192103863493178;-10.6959;-0.1711;-3.5064;
1192103873598803;-8.6692;-0.6335;-1.3528;
1192103883703699;-9.4167;-0.1854;-3.4657;
1192103893808543;-9.7400;-0.9473;-4.6035;
1192103903920834;-10.8275;-0.4848;-2.9841;
1192103914025678;-9.6299;-0.7962;-0.1693;
1192103924130522;-10.2000;-1.2443;-2.7637;
1192103934238543;-11.0743;-0.4418;-3.9951;
1192103944343387;-7.0642;-0.4155;-0.9718;
1192103954448230;-7.2990;-1.0071;-6.1534;
1192103964547762;-11.7667;-0.8130;-6.5222;
1192103974652605;-7.2703;-0.1926;-0.9502;
1192103984757449;-7.8523;-0.2022;-4.5078;
1192103994858230;-11.1703;-0.5399;-4.9364;
1192104004963074;-10.1043;-0.0272;-2.8235;
1192104015067918;-9.5653;0.5812;-2.0931;
1192104025178022;-7.7997;0.3224;-1.8129;
1192104035282866;-8.3889;-0.7053;-4.4958;
1192104045387657;-10.5233;-0.7268;-4.8455;
1192104055493959;-8.4512;0.3511;-3.0440;
1192104065598803;-11.1679;1.3119;-2.9865;
1192104075703595;-8.4849;1.4459;-1.8248;
1192104085803022;-1.1785;0.4854;-0.8067;
1192104095907866;-3.3488;-1.9989;-6.0000;
1192104106012657;-4.1489;-2.9809;-9.2916;
1192104116114480;-12.8207;-0.5877;-6.2587;
1192104126219272;-34.3179;2.0327;0.8991;
1192104136324116;-21.5258;7.9280;6.2288;
1192104146433387;6.1588;10.2733;10.7827;
1192104156538178;2.6088;1.2159;0.2689;
1192104166643074;-14.3321;-4.8494;-12.9111;
1192104176730678;-15.0820;-3.3332;-9.3682;
1192104186835574;-7.8236;1.1010;-2.1434;
1192104196940418;-6.1373;0.7175;1.1818;
1192104207058855;-5.4784;0.7271;3.2489;
1192104217163647;-7.9675;1.0484;1.8332;
1192104227268491;-6.9972;-1.2514;0.3912;
1192104237374272;-2.6997;-3.6757;-8.8292;
1192104247479116;-12.8614;-4.7201;-26.3163;
1192104257583907;-19.3484;-2.1473;-14.3845;
1192104267694168;-3.9239;1.1130;6.6721;
1192104277799012;-2.3189;6.2369;5.7260;
1192104287903855;-15.8222;4.2799;2.1182;
1192104298011876;-19.9137;1.1824;-1.4198;
1192104308116668;-8.1876;1.6878;-0.1549;
1192104318221564;-1.2936;-0.6455;-0.4376;
1192104328311199;-8.7676;-6.2318;-4.9149;
1192104338416095;-12.3392;-4.9645;-3.7986;
1192104348520939;-6.5925;-1.1988;1.1097;
1192104358634793;-7.6271;-0.6718;-1.6164;
1192104368739637;-17.5301;-0.6861;-1.7815;
1192104378844480;-13.4985;2.7395;1.7949;
1192104388939637;-9.1962;2.6438;-0.3754;
1192104399044428;-7.7949;0.9428;-2.8741;
1192104409149324;-7.0283;-0.6574;-5.6216;
1192104419263491;-11.5271;-0.1615;-8.5944;
1192104429368387;-11.4625;2.5597;-3.6742;
1192104439473178;-3.2626;3.8103;1.3612;
1192104449560782;-7.0546;0.8136;-1.9780;
1192104459665678;-13.2206;0.7729;-3.3482;
1192104469770470;-10.8829;2.5860;-1.5374;
1192104479900366;-7.8404;2.8857;-1.0032;
1192104490005262;-8.5878;1.8772;-4.8526;
1192104500110105;-4.3430;-0.4250;-8.5537;
1192104510203022;-8.7963;-0.5495;-10.0220;
1192104520307866;-13.0149;1.4004;-5.4036;
1192104530412657;-8.8274;5.3602;0.0030;
1192104540531720;-11.3521;5.6213;1.7327;
1192104550636564;-13.9466;1.9848;0.6954;
1192104560741407;-6.5997;1.9466;1.1506;
1192104570831512;-3.9093;-1.7234;-3.3338;
1192104580936355;-12.6338;-4.8302;-9.8330;
1192104591041147;-13.1034;-2.7511;-6.4816;
1192104601145209;-8.0943;1.8485;0.6906;
1192104611250105;-7.2033;3.5252;3.3018;
1192104621354897;-7.7160;0.5596;-1.2619;
1192104631459741;-10.1713;-1.7761;-5.7317;
1192104641564584;-9.5124;-2.3701;-7.6337;
1192104651669376;-8.9806;-1.4862;-6.4313;
1192104661771980;-8.8801;-0.1113;-2.4093;
1192104671876824;-9.3832;1.2999;-0.6556;
1192104681981616;-11.3354;1.4985;-0.1095;
1192104692087293;-10.4181;2.0638;0.9111;
1192104702192189;-8.9614;1.7883;-2.3327;
1192104712296980;-12.7176;-0.7053;-7.6600;
1192104722410939;-10.3989;-1.1749;-7.1258;
1192104732515782;-3.2722;0.4301;-0.7636;
1192104742620574;-4.6567;0.9165;0.2880;
1192104752717293;-12.9954;-1.6466;-4.6825;
1192104762822084;-11.7356;0.1929;-2.6225;
1192104772926876;-8.0919;0.8614;-0.7107;
1192104783037189;-12.4493;0.3440;-2.2558;
1192104793142032;-11.2995;0.4711;-0.6054;
1192104803246824;-5.9839;1.3525;-0.0281;
1192104813345730;-5.7060;-0.5806;-3.7101;
1192104823450574;-9.6515;-2.8349;-11.0043;
1192104833555366;-13.6400;-2.5714;-8.4099;
1192104843661459;-8.6501;2.4497;0.5133;
1192104853766303;-7.2775;4.3325;5.0982;
1192104863871043;-13.0603;2.2890;1.5817;
1192104873969637;-11.9318;0.9787;-1.7934;
1192104884074480;-5.2750;-0.7795;-3.6045;
1192104894179324;-6.1756;-2.0539;-6.3882;
1192104904292293;-8.3148;-3.4552;-9.1190;
1192104914397137;-6.6619;-1.8694;-6.0000;
1192104924501928;-10.2383;0.7128;-1.7886;
1192104934600939;-18.9150;3.7863;1.6104;
1192104944705782;-17.7099;7.9472;6.7606;
1192104954810574;-8.7389;7.7725;5.3928;
1192104964920418;-4.2305;1.9442;-1.7360;
1192104975025262;-6.7505;-4.4686;-12.2477;
1192104985130053;-8.4730;-5.9345;-13.6131;
1192104995232501;-5.5816;-2.7511;-4.5891;
1192105005337345;-5.1957;1.4100;2.0249;
1192105015442137;-10.4324;3.4606;2.1972;
1192105025544428;-16.1767;2.9336;0.5922;
1192105035649324;-10.1306;2.8424;0.3840;
1192105045754116;-5.7395;0.7128;-3.2429;
1192105055848074;-9.5100;-3.9009;-12.8010;
1192105065952918;-11.0097;-4.5906;-11.9408;
1192105076057762;-6.7098;0.0111;-1.8033;
1192105086179584;-7.3110;4.3588;3.3138;
1192105096284376;-14.4281;4.2102;3.6036;
1192105106389220;-13.6089;3.2450;1.9504;
1192105116487918;-7.5051;1.8843;0.8749;
1192105126592709;-8.2693;-2.4900;-4.1243;
1192105136697501;-9.5414;-5.6853;-8.2854;
1192105146804376;-5.1550;-3.9416;-5.6145;
1192105156909168;-5.5241;-3.3117;-4.7279;
1192105167014012;-9.8862;-2.3246;-4.0932;
1192105177137605;-13.6017;0.5931;-1.5565;
1192105187242449;-10.8515;3.5850;0.7409;
1192105197347293;-9.1316;2.8041;2.2430;
1192105207433178;-8.2023;0.3272;-1.6259;
1192105217537970;-7.9412;-2.1209;-5.7676;
1192105227642814;-11.1078;-3.3811;-8.7526;
1192105237742605;-11.8337;-1.3807;-5.8277;
1192105247847449;-9.0909;2.2747;0.5635;
1192105257952241;-7.2153;2.8113;2.9207;
1192105268062189;-8.5113;0.9691;-0.0162;
1192105278166980;-15.1780;0.3631;-3.0511;
1192105288271824;-12.2674;1.3334;-2.5337;
1192105298375314;-7.0307;2.3177;0.1588;
1192105308480105;-4.0795;0.2698;-1.1611;
1192105318584949;-5.7948;-2.2839;-6.6108;
1192105328704584;-11.2899;-2.4227;-8.4745;
1192105338809376;-10.9546;0.2459;-5.3892;
1192105348914220;-9.4765;2.3874;-1.4127;
1192105359008543;-10.2790;3.9805;0.3455;
1192105369113334;-10.1139;2.0904;0.4726;
1192105379218178;-10.3654;2.3539;-0.6580;
1192105389332137;-9.7232;1.2159;-2.4930;
1192105399436928;-10.2072;0.1020;-5.9833;
1192105409541772;-7.0068;0.1427;-4.3065;
1192105419640834;-5.5696;0.5979;-1.7049;
1192105429745626;-10.8900;0.7490;-2.4428;
1192105439850418;-12.3655;1.4076;-1.2425;
1192105449967762;-9.8288;1.6567;-0.2557;
1192105460072605;-9.7854;0.1140;-1.2835;
1192105470177397;-9.5533;-0.8345;-2.9674;
1192105480277970;-8.9447;0.1451;-3.6766;
1192105490382814;-6.9757;-0.7101;-3.3314;
1192105500487605;-8.3483;-0.4155;-3.8776;
1192105510592605;-9.5964;-0.5901;-3.6619;
1192105520697449;-9.4143;0.0111;-2.0426;
1192105530802241;-10.4635;1.3238;-0.2629;
1192105540888387;-11.6013;0.6984;-1.3983;
1192105550993282;-10.7294;-0.1902;-1.7838;
1192105561098022;-10.3340;0.1068;-1.7336;
1192105571207293;-8.7532;-0.3242;-3.3721;
1192105581312084;-9.8839;0.2052;-4.4910;
1192105591416928;-9.8815;0.1499;-3.8249;
1192105601516199;-8.7123;1.3214;0.8991;
1192105611621043;-8.2741;1.1465;-0.0090;
1192105621725834;-7.4979;-0.2070;-4.0406;
1192105631833334;-9.9054;-1.6732;-5.6216;
1192105641938126;-9.7519;-0.5183;-5.3151;
1192105652042918;-8.0369;0.2937;-3.4609;
1192105662155262;-10.4444;0.3751;-2.6680;
1192105672260053;-9.7974;0.9236;-1.9445;
1192105682364897;-11.7835;1.5009;-3.2070;
1192105692462032;-10.3101;1.1010;-1.5422;
1192105702566928;-7.4381;2.4281;0.4869;
1192105712671720;-8.0297;1.0026;-1.8559;
1192105722775730;-9.8216;-1.1629;-5.2525;
1192105732880574;-9.5629;-0.6574;-5.0300;
1192105742985366;-6.8871;0.5357;-2.1434;
1192105753090991;-10.2096;0.8590;-2.5504;
1192105763195834;-11.8170;0.6051;-1.4438;
1192105773300678;-8.4392;0.6147;-0.2605;
1192105783409012;-8.5352;0.6075;-3.6404;
1192105793513855;-8.3483;-0.7101;-4.9962;
1192105803618647;-8.1829;0.4134;-2.4476;
1192105813725209;-7.7112;0.6936;-3.2022;
1192105823830053;-9.5052;0.6458;-3.5877;
1192105833934845;-11.7093;0.3942;-3.8704;
1192105844043959;-8.9327;0.9571;-0.9742;
1192105854148751;-9.0885;-0.2070;-0.4690;
1192105864253595;-11.1341;-0.4705;-2.1625;
1192105874347553;-10.8275;-0.1854;-1.7384;
1192105884452449;-10.9451;0.5955;-3.1301;
1192105894557241;-9.3233;1.0364;-0.5575;
1192105904668543;-8.7676;0.4349;1.0379;
1192105914773387;-6.5949;0.0446;-1.5203;
1192105924878178;-7.1097;-1.3496;-5.1903;
1192105934987918;-11.0216;-2.6767;-6.3906;
1192105945092709;-10.8996;-1.1557;-3.1998;
1192105955197501;-11.4338;1.2063;-0.8928;
1192105965289845;-9.7974;1.9298;0.8581;
1192105975394689;-10.6074;0.8638;-1.5685;
1192105985499532;-12.3177;0.4158;-5.5810;
1192105995612293;-6.9613;0.5955;-0.5480;
1192106005717137;-7.1315;1.5296;-2.4380;
1192106015821876;-9.6443;-0.0488;-4.8622;
1192106025917345;-14.3178;0.6912;-3.7699;
1192106036022241;-10.2311;1.8867;-0.0855;
1192106046126980;-3.4400;1.1177;0.5468;
1192106056219637;-9.0407;-0.9425;-5.0061;
1192106066324480;-12.6984;-0.7507;-5.8110;
1192106076429324;-10.5401;2.3130;-3.7172;
1192106086543178;-10.9211;1.9226;-3.5255;
1192106096648022;-9.0814;2.6270;-0.3897;
1192106106752866;-8.4849;2.0761;0.1253;
1192106116855366;-8.6548;0.7466;-2.3447;
1192106126960262;-8.8609;0.2124;-4.2802;
1192106137065001;-8.4802;0.2387;-4.8885;
1192106147174532;-10.8467;1.7477;-4.6920;
1192106157279376;-8.9399;1.0651;-1.2787;
1192106167384220;-6.6308;1.8245;0.1229;
1192106177522449;-9.6586;1.2903;-4.9579;
1192106187627293;-9.4980;-0.0849;-4.4142;
1192106197732137;-5.4736;1.4052;-1.8440;
1192106207816095;-6.2282;0.8758;-5.2143;
1192106217920939;-5.8092;0.5381;-5.6025;
1192106228025730;-31.1151;1.8867;-2.5935;
1192106238117814;-25.8859;3.6760;8.4712;
1192106248222657;7.5051;2.6509;6.1140;
1192106258327449;8.2621;-4.7345;-2.9267;
1192106268436147;-10.9857;-2.4514;-6.4026;
1192106278540939;-21.9165;1.2302;-6.7810;
1192106288645782;-15.1971;2.9336;-1.7097;
1192106298778230;0.2109;1.2039;0.6236;
1192106308883022;-2.2301;-1.6633;-3.2764;
1192106318987866;-9.6969;-1.5963;-3.8441;
1192106329057345;-12.3105;-0.5949;-2.4619;
1192106339162189;-3.6099;-0.6263;-8.9106;
1192106349266980;-16.0044;2.3994;-23.0369;
1192106359419584;-16.7563;3.2856;0.3912;
1192106369524376;-1.9211;3.3503;15.5833;
1192106379629220;-8.9183;1.5320;-0.3203;
1192106389711355;-14.5454;-2.2839;-4.0717;
1192106399816147;-10.8610;-0.1065;0.5468;
1192106409920939;-5.1598;1.6711;2.6381;
1192106420002241;-1.4683;-0.6790;-2.1266;
1192106430107084;-13.0244;-0.9329;-10.0244;
1192106440211876;-14.0734;-0.4920;-4.3400;
1192106450326564;-7.8978;0.2865;0.1851;
1192106460431355;-10.5832;0.5596;-3.4226;
1192106470536147;-10.3869;-0.4322;-1.2114;
1192106480652762;-8.7099;0.8136;-0.9936;
1192106490757605;-7.5721;0.1881;-5.3892;
1192106500862449;-8.9518;0.8710;-2.3180;
1192106510974428;-8.4177;0.4878;-2.2822;
1192106521079272;-12.3990;0.1977;-2.5768;
1192106531184116;-10.7366;-0.5734;1.7542;
1192106541261824;-9.4525;-0.5734;-0.5168;
1192106551366668;-11.2349;-0.1352;-3.9159;
1192106561471512;-7.4572;-0.6263;0.0341;
1192106571584428;-6.4510;0.0924;-5.2071;
1192106581689272;-12.8806;0.7777;-7.7489;
1192106591794064;-12.2530;0.0996;-1.4342;
1192106601891199;-8.3052;0.6673;0.8222;
1192106611996095;-5.4879;-0.0945;-2.1529;
1192106622100834;-7.4357;-0.7316;-3.9712;
1192106632207241;-11.4290;-0.8297;-4.4886;
1192106642312084;-13.3334;-0.4346;-4.7976;
1192106652416876;-11.3067;-0.4418;-0.3682;
1192106662529064;-6.7600;-0.0802;-1.8990;
1192106672633907;-7.7949;-0.2644;-3.9473;
1192106682738699;-11.6085;0.5668;-1.3504;
1192106692835314;-9.9700;-0.5207;1.0953;
1192106702940157;-7.9460;-0.2788;-3.0607;
1192106713044949;-8.3004;-0.1304;-4.5580;
1192106723154168;-9.2970;-0.3628;-1.7432;
1192106733259012;-10.8203;-0.7531;-1.7384;
1192106743363751;-10.8203;-0.4035;-4.4429;
1192106753462657;-9.2755;-0.6120;-2.8837;
1192106763567501;-7.9866;-0.1113;-3.6694;
1192106773672293;-9.3329;0.3009;-3.5542;
1192106783779584;-11.6563;0.2650;-1.5876;
1192106793884428;-9.7687;-0.0921;1.1145;
1192106803989220;-7.3756;0.1331;-2.1410;
1192106814112397;-9.0526;-0.0849;-4.6825;
1192106824217241;-9.8815;-0.0993;-1.7049;
1192106834322032;-10.0732;-0.3338;-1.2401;
1192106844416043;-10.6648;-0.3508;-4.7665;
1192106854520834;-8.1733;-0.0224;-3.0918;
1192106864625678;-6.4104;0.6027;-3.1181;
1192106874732345;-12.6075;0.9595;-3.9350;
1192106884837189;-12.2746;0.8662;-0.2366;
1192106894941980;-5.7876;-0.0344;1.1049;
1192106905036824;-7.5123;0.7992;-5.0563;
1192106915141720;-10.5018;-0.1950;-5.0515;
1192106925246512;-9.2946;0.2841;-0.8809;
1192106935368022;-9.6945;0.5333;-2.8403;
1192106945472866;-11.2995;0.2985;-4.0310;
1192106955577657;-10.2239;0.4205;-1.6403;
1192106965682501;-9.2058;0.7370;-0.1454;
1192106975787293;-8.3411;0.8830;-1.6307;
1192106985892084;-8.6692;0.6218;-2.0450;
1192106995983126;-10.9020;0.4540;-3.8058;
1192107006087970;-8.7724;0.4038;-0.7397;
1192107016192762;-6.6811;0.0182;-2.5122;
1192107026290157;-9.5172;0.3918;-5.0515;
1192107036395053;-10.9618;-0.0631;-3.5710;
1192107046499793;-10.5209;0.2961;-2.1027;
1192107056614845;-9.0048;0.0637;-1.1372;
1192107066719741;-7.7399;0.8447;-3.8058;
1192107076824532;-10.3463;0.9547;-4.8311;
1192107086926459;-9.2803;0.3607;1.3086;
1192107097031251;-8.6740;0.2219;-0.8737;
1192107107136043;-11.0049;0.2722;-3.7220;
1192107117240678;-8.0225;0.0326;-2.3204;
1192107127345522;-8.0489;-0.2094;-1.8153;
1192107137450262;-10.8467;0.0446;-3.5112;
1192107147550470;-11.4577;-0.3580;-2.5696;
1192107157655314;-9.3664;-0.2333;-1.7480;
1192107167760157;-7.8500;0.9093;-3.6500;
1192107177856720;-9.6897;0.5788;-2.4117;
1192107187961616;-8.3243;0.2339;0.0846;
1192107198066407;-10.5329;-0.0248;-2.2008;
1192107208184689;-9.5028;-0.3485;-2.4978;
1192107218289532;-7.9146;0.3631;-3.6356;
1192107228394324;-8.0417;-0.1519;-2.7541;
1192107238488855;-10.1545;0.6242;-3.0942;
1192107248593647;-11.4769;-0.2309;-3.1543;
1192107258698491;-10.8347;0.6984;-1.6331;
1192107268819064;-9.2130;1.0292;-2.4930;
1192107278923907;-8.9136;0.6434;-1.1468;
1192107289028699;-7.3373;0.1786;0.6380;
1192107299121616;-10.5640;0.4349;-3.4490;
1192107309226459;-10.0681;0.5118;-3.2572;
1192107319331303;-8.0871;0.4493;-3.0775;
1192107329435053;-7.5769;0.4038;-2.8522;
1192107339539897;-10.4300;-0.2213;-3.7914;
1192107349644689;-11.5965;0.5620;-1.8320;
1192107359744116;-9.5749;0.4038;-2.4236;
1192107369848959;-9.3425;1.3956;-3.2405;
1192107379953751;-10.3941;0.9739;-1.1659;
1192107390056199;-8.6309;0.5309;-0.1693;
1192107400161043;-9.1077;0.9523;-1.2691;
1192107410265834;-9.3042;0.1690;-4.4022;
1192107420400418;-7.6825;0.5692;-2.2702;
1192107430505209;-8.7290;-0.1807;-2.8594;
1192107440610001;-12.0852;-0.1113;-2.9243;
1192107450696928;-9.8504;-0.2955;-1.2425;
1192107460801772;-7.7399;0.9547;-3.2716;
1192107470906564;-8.7939;0.1857;-4.4572;
1192107481031199;-8.9231;0.5405;-0.9790;
1192107491136095;-9.9915;0.3607;-2.0091;
1192107501240887;-10.1880;0.6697;-2.5361;
1192107511330626;-8.8825;0.9811;-3.0488;
1192107521435470;-7.6223;0.3918;-2.2822;
1192107531540209;-12.0183;-0.0272;-1.7767;
1192107541646668;-13.1297;0.6027;-0.9120;
1192107551751512;-8.3339;0.4181;-0.6341;
1192107561856251;-8.1230;0.7343;-4.6202;
1192107571956772;-10.1282;0.5979;-3.2501;
1192107582061564;-10.4516;0.0470;0.3120;
1192107592166303;-9.2417;0.2818;-1.2691;
1192107602273334;-8.8801;0.1522;-2.8283;
1192107612378126;-7.4812;-0.1615;-4.7928;
1192107622482918;-8.9590;0.1020;-3.7340;
1192107632585678;-11.2851;-0.5566;-2.2319;
1192107642690418;-9.0766;-0.4370;-3.2285;
1192107652795209;-9.4143;0.5022;-5.7748;
1192107662889324;-12.2124;1.2159;-4.0502;
1192107672994116;-11.0504;1.3023;0.7744;
1192107683098907;-7.2775;1.2015;-0.0760;
1192107693212345;-7.0451;0.0015;-2.8693;
1192107703317137;-12.3368;0.8303;-3.5877;
1192107713421928;-10.1091;0.3105;-1.8703;
1192107723539272;-5.2798;0.1475;-1.6379;
1192107733644012;-6.6093;-0.5183;-5.5522;
1192107743748855;-10.2287;-0.9951;-5.3892;
1192107753845626;-11.4075;0.2076;-3.8704;
1192107763950418;-7.5864;0.6745;-2.6417;
1192107774055209;-7.1240;0.2674;-2.1888;
1192107784163334;-4.3789;0.1092;-5.2143;
1192107794268126;-26.8535;0.2985;-1.0415;
1192107804372918;-24.7645;1.7524;10.4354;
1192107814473334;0.3329;3.5827;6.1427;
1192107824578126;3.5022;1.1225;-9.6102;
1192107834682918;-6.6643;-2.0874;-9.4496;
1192107844786772;-11.6324;-0.9209;-3.0272;
1192107854891564;-12.9571;-0.6072;-1.9301;
1192107864996355;-13.1704;0.3846;-2.6704;
1192107875100209;-7.8404;0.0948;1.1841;
1192107885205053;-6.0197;-0.4920;0.3984;
1192107895309845;-8.7099;-0.7819;-2.1864;
1192107905410782;-4.3741;-1.2921;-6.5270;
1192107915515626;-15.4149;2.2268;-22.6367;
1192107925620418;-15.2785;2.8711;-4.5676;
1192107935710053;-1.6337;1.4315;12.0930;
1192107945814845;-6.5276;2.6581;-0.8426;
1192107955919689;-15.1588;0.8303;-4.8359;
1192107966039793;-12.8423;-0.3867;3.2465;
1192107976144637;-7.1602;-0.6718;2.9949;
1192107986249376;-6.0174;-0.5518;-4.8479;
1192107996353647;-9.5533;-0.1256;-8.2038;
1192108006458387;-10.9546;-0.3724;-2.0043;
1192108016563178;-7.8882;-0.4825;-0.8474;
1192108026667866;-12.8638;0.9452;-6.0359;
1192108036772709;-10.8876;0.1929;-0.8545;
1192108046877449;-5.4592;0.4974;1.4931;
1192108057000522;-11.4936;0.5859;-4.9938;
1192108067105366;-11.7236;-0.6072;-1.7145;
1192108077210157;-7.7997;0.7442;1.2440;
1192108087297657;-10.2239;-0.0464;-4.4815;
1192108097402501;-10.0011;0.3846;-2.9698;
1192108107507293;-8.5663;0.0924;-0.6843;
1192108117610418;-7.6080;0.3440;-3.4633;
1192108127715209;-7.7901;-0.3963;-4.5556;
1192108137819949;-9.0335;0.5285;-5.1760;
1192108147929168;-10.5688;0.4711;-4.6418;
1192108158033907;-7.0499;0.4684;-2.0067;
1192108168138751;-5.9264;0.3870;-3.3529;
1192108178261355;-23.7251;0.6386;-2.7829;
1192108188366095;-15.4630;0.3488;6.2530;
1192108198470939;0.4648;2.0375;1.9819;
1192108208563230;-5.7706;1.1130;-9.0688;
1192108218668022;-11.1440;-1.1533;-5.0779;
1192108228772814;-10.9451;-0.1687;-1.1946;
1192108238867032;-11.9318;-0.0009;-0.6604;
1192108248971824;-7.8165;0.1618;-0.6317;
1192108259076564;-7.0594;-0.2142;-3.1352;
1192108269235887;-8.7867;-0.5566;-1.6810;
1192108279340730;-8.4969;-1.7306;0.7122;
1192108289445470;-5.4832;-0.5518;-8.1057;
1192108299493803;-16.1623;1.4052;-15.7041;
1192108309598595;-12.5333;0.9715;2.1015;
1192108319703387;-3.4591;0.8351;6.1953;
1192108329828387;-10.4994;1.7524;-4.9579;
1192108339933230;-14.1335;0.6458;-4.7231;
1192108350038022;-10.4563;0.4564;2.5854;
1192108360140574;-7.8691;0.8638;-0.1095;
1192108370245418;-6.2569;0.4878;-2.3061;
1192108380350209;-10.9690;0.2506;-3.9039;
1192108390439220;-8.9423;-0.6622;-1.0247;
1192108400544012;-11.4960;0.6075;-2.8546;
1192108410648855;-9.8432;0.0206;-2.8884;
1192108420766251;-4.2257;-0.2285;-2.4787;
1192108430871043;-8.8561;-0.2118;-6.7331;
1192108440975782;-13.7022;0.0111;-5.6432;
1192108451071251;-11.9007;0.5453;-0.6843;
1192108461175991;-7.8356;1.5296;-1.1276;
1192108471280834;-9.6419;0.2985;-1.9612;
1192108481387918;-7.9484;0.1810;0.8414;
1192108491492709;-7.5625;-0.1496;-2.8570;
1192108501597501;-11.1966;0.7295;-5.0324;
1192108511705939;-8.4535;-0.3075;-1.4151;
1192108521810730;-9.0335;0.1355;-3.6814;
1192108531915522;-10.6457;-0.0993;-3.9326;
1192108542026459;-9.0598;-0.3461;0.1038;
1192108552131199;-9.9700;0.8183;-5.0396;
1192108562236043;-10.7390;0.7681;-3.3266;
1192108572326980;-6.8151;-0.1448;0.3769;
1192108582431772;-8.7027;0.5094;-4.1267;
1192108592536512;-11.6157;-0.0153;-3.6093;
1192108602641459;-10.8900;-0.0535;-0.0449;
1192108612746251;-6.7146;-0.2381;-0.4786;
1192108622850991;-7.1145;-0.0344;-3.4011;
1192108632959689;-9.5653;-0.6072;-5.0539;
1192108643064480;-10.5401;-0.1831;-2.5935;
1192108653169220;-9.0144;0.2339;-3.4178;
1192108663284689;-9.3999;0.3488;-2.2630;
1192108673389480;-11.2086;0.4902;0.1253;
1192108683494220;-11.2995;0.0852;-0.8043;
1192108693592762;-8.5639;0.3607;-0.8330;
1192108703697501;-7.2894;0.2267;-3.2859;
1192108713802293;-0.6826;0.3799;-5.7748;
1192108723906043;4.0460;-0.7531;-9.5285;
1192108734010834;-24.4771;-1.9702;-7.9020;
1192108744115574;-45.1816;-0.3963;8.3297;
1192108754216928;-8.6046;3.7887;19.3155;
1192108764321720;16.0188;2.4377;3.7041;
1192108774426459;1.6026;-0.3389;-16.7486;
1192108784535209;-10.0370;-0.8058;-16.0469;
1192108794640001;-14.7251;-1.0095;-6.5127;
1192108804744741;-17.0222;-1.2945;1.2703;
1192108814849012;-13.0002;1.7237;2.5974;
1192108824953803;-9.4549;0.7466;4.6600;
1192108835058543;-6.7146;-2.0994;9.1851;
1192108845155678;0.7953;-4.8927;-1.7575;
1192108855260418;-13.0747;1.2015;-33.8931;
1192108865365209;-21.3799;4.8571;-19.2856;
1192108875485262;-6.6906;1.0002;20.3049;
1192108885590053;0.4313;3.7983;7.1680;
1192108895694793;-0.8934;1.4148;-11.2247;
1192108905791251;-8.6979;-2.3079;-5.8851;
1192108915896043;-25.3660;-3.1128;5.1389;
1192108926000782;-18.3230;-0.5997;3.7519;
1192108936100626;-3.4280;2.3659;-7.3750;
1192108946205366;-0.9461;2.4568;-7.7273;
1192108956310157;-3.2004;-0.5136;-4.1100;
1192108966434637;-14.0423;-0.0416;-6.0096;
1192108976539428;-18.4023;0.0781;0.4080;
1192108986644168;-6.7600;1.1847;5.2684;
1192108996730626;-6.9422;2.2890;-3.7938;
1192109006835366;-12.3942;-0.6455;2.3411;
1192109016940157;-1.6289;-2.3868;11.8295;
1192109027046355;-5.2220;-2.0133;-15.7834;
1192109037151147;-18.7400;1.2951;-27.4110;
1192109047255887;-8.9542;0.4711;4.1354;
1192109057383647;-6.9087;2.8519;10.0953;
1192109067488387;-11.4171;3.6616;-1.9516;
1192109077593178;-12.3559;1.5224;-1.4031;
1192109087679376;-10.2096;1.3023;0.0078;
1192109097784168;-8.0991;1.0986;-1.9923;
1192109107888907;-5.8451;-0.3003;-3.3338;
1192109117990418;-5.2268;-0.2046;-6.5653;
1192109128095209;-10.9857;-0.4155;-6.3257;
1192109138199949;-12.5692;-0.3027;-2.3013;
1192109148294584;-12.6960;1.4913;-0.9646;
1192109158399376;-7.6439;0.8016;3.0790;
1192109168504116;-7.0331;-0.2094;-1.4174;
1192109178642084;-14.2268;0.2722;-6.8049;
1192109188746824;-7.6128;-0.1807;-0.4304;
1192109198851616;-7.5314;0.7008;-3.6021;
1192109208918751;-12.1786;0.8160;-4.5915;
1192109219023543;-8.0560;-0.3437;-0.0114;
1192109229128282;-9.5701;-0.1831;-0.5958;
1192109239233387;-10.7725;-0.1687;-2.6967;
1192109249338230;-10.6887;-0.1496;-2.6345;
1192109259442970;-5.9169;0.1403;-1.8033;
1192109269557814;-1.4946;-0.4633;-5.2454;
1192109279662553;-13.8147;-0.4896;-6.1176;
1192109289767345;-20.5798;0.4759;-2.9195;
1192109299899689;-8.1829;1.7572;2.8729;
1192109310004428;1.4447;1.3238;0.6066;
1192109320109220;-4.7982;0.1116;-9.4711;
1192109330187762;-13.7716;-1.2132;-7.6074;
1192109340292553;-14.3587;-0.4896;-0.1454;
1192109350397293;-13.8075;2.2555;-1.3839;
1192109360517605;-7.9508;2.7227;0.7169;
1192109370622397;-6.4295;0.8160;1.8428;
1192109380727137;-10.8275;-0.4394;-0.3060;
1192109390815418;-8.6716;-1.3161;-0.9574;
1192109400920209;-13.8700;1.4674;-10.4892;
1192109411024949;-12.1522;1.6878;-4.2036;
1192109421146928;-4.0819;-0.1017;6.0063;
1192109431251720;-6.7744;0.2818;-2.0474;
1192109441356459;-11.6925;0.1259;-7.8517;
1192109451447501;-12.0183;0.3320;-3.9879;
1192109461552293;-8.1350;0.5046;-1.2906;
1192109471657032;-5.5095;0.9332;-3.3027;
1192109481760209;-9.2755;-0.0296;-5.9258;
1192109491865001;-12.1355;0.4134;-3.0894;
1192109501969741;-8.0919;0.3176;-2.0907;
1192109512080001;-6.4247;1.1297;-4.8885;
1192109522184793;-7.8069;0.1977;-4.6418;
1192109532289532;-10.1091;-0.1065;-2.9148;
1192109542390834;-17.6812;1.8700;-2.8379;
1192109552495626;-13.4195;0.7633;2.3961;
1192109562600366;-4.5443;0.8901;4.9283;
1192109572705574;-6.2330;0.0063;-4.2754;
1192109582810470;-10.3125;0.0709;-5.5232;
1192109592915262;-8.4969;-0.8297;-2.0210;
1192109603020626;-10.8900;-0.2213;-2.6608;
1192109613125522;-8.8035;-0.1208;-2.2845;
1192109623230314;-6.8967;-1.2634;-0.9407;
1192109633336199;-12.0709;-0.6574;-2.5098;
1192109643441095;-11.6204;-0.6383;-2.9028;
1192109653545834;-7.2846;0.7295;-3.4729;
1192109663662293;-8.6644;0.9236;-5.2597;
1192109673767137;-10.1521;0.3990;-1.8392;
1192109683871876;-10.1139;1.0101;-2.4332;
1192109693973855;-11.5558;0.9500;-1.0822;
1192109704078699;-9.2922;0.3129;1.1602;
1192109714183491;-5.4520;0.2387;-2.2104;
1192109724280939;-7.9217;0.5572;-5.0515;
1192109734385730;-10.5903;-0.7914;-4.0310;
1192109744490522;-13.6017;0.8231;-4.4839;
1192109754594168;-12.0039;0.7370;-1.5709;
1192109764698959;-7.1315;0.5189;1.4620;
1192109774803803;-8.8681;0.8542;-1.5996;
1192109784904324;-11.5463;0.3129;-4.4477;
1192109795009220;-8.1087;0.1642;-0.9837;
1192109805113959;-6.6811;-0.0488;-3.4346;
1192109815224272;-9.7472;-0.3266;-3.7627;
1192109825329064;-10.2598;-0.8441;-2.4236;
1192109835433907;-9.9987;-0.3413;-1.5446;
1192109845538126;-8.6405;0.1834;-3.1543;
1192109855642970;-9.3520;0.3464;-2.7446;
1192109865747709;-9.7615;0.2913;-2.3662;
1192109875848803;-9.5172;0.5477;-1.9181;
1192109885953647;-9.1579;1.3789;-3.0846;
1192109896058491;-11.5415;0.4253;-3.8752;
1192109906167970;-11.3474;0.6482;-0.2605;
1192109916272866;-6.9182;0.2028;0.8725;
1192109926377657;-5.4066;0.1020;-2.8427;
1192109936520834;-9.8216;-0.0033;-6.5462;
1192109946625626;-12.9954;-0.3290;-3.6069;
1192109956730470;-11.5558;-0.1831;0.8991;
1192109966794428;-6.6739;0.2554;-0.0473;
1192109976899220;-7.5888;-0.1041;-4.3926;
1192109987004064;-11.5822;0.2001;-3.8106;
1192109997110939;-9.5052;-0.1352;-0.9096;
1192110007215782;-9.1005;0.3153;-2.8092;
1192110017320574;-9.5916;0.1881;-3.8704;
1192110027428178;-8.9447;0.0470;-1.8511;
1192110037533022;-10.4085;0.7537;-3.0607;
1192110047637814;-8.5424;0.3799;-0.6867;
1192110057744168;-7.9146;-0.0464;-0.7875;
1192110067849012;-10.8443;0.0565;-4.2897;
1192110077953751;-11.5008;0.2291;-2.7517;
1192110088049741;-10.0828;0.4854;-0.9239;
1192110098154637;-7.5386;-0.1543;-1.9445;
1192110108259376;-10.1569;0.1546;-3.7914;
1192110118366355;-10.5114;-0.7220;-1.2811;
1192110128471199;-7.2224;0.1570;-3.1902;
1192110138575991;-3.6532;0.7418;-6.7977;
1192110148713751;-1.4180;-0.1878;-7.0421;
1192110158818595;-23.7826;-1.1315;-3.6452;
1192110168923387;-26.0869;-0.1591;8.0471;
1192110179011668;0.1199;1.9681;7.6424;
1192110189116459;4.0340;1.6376;-7.7034;
1192110199221303;-8.5878;-0.3963;-12.5279;
1192110209339272;-16.2703;-0.9138;-4.8885;
1192110219444064;-12.1738;-0.2166;2.5496;
1192110229548907;-6.8270;2.3779;-2.7948;
1192110239641095;-8.3459;1.4339;-4.9579;
1192110249745939;-11.7571;0.0637;1.9481;
1192110259850730;-11.1679;-1.2538;7.2494;
1192110269937814;-3.3464;-0.7603;-0.2294;
1192110280042605;-13.1728;1.7094;-22.8667;
1192110290147397;-16.4354;2.4257;-7.3247;
1192110300262605;-1.6935;-0.2022;15.3799;
1192110310367397;-6.1349;0.8590;-2.3853;
1192110320472189;-11.9414;1.0053;-10.5515;
1192110330561407;-11.1221;-0.2500;-3.2213;
1192110340666303;-8.3124;0.4493;1.0857;
1192110350771043;-5.0569;0.9619;-1.8631;
1192110360873907;-10.2503;0.0565;-5.9402;
1192110370978803;-11.8720;-0.2429;-2.8499;
1192110381083595;-10.3798;1.2855;-2.7517;
1192110391194949;-10.2287;1.7979;-3.1062;
1192110401299793;-8.2047;0.9093;0.8462;
1192110411404637;-9.2513;1.2589;-1.3863;
1192110421516251;-9.4119;0.2770;-3.7268;
1192110431621043;-9.3760;0.8447;-2.4117;
1192110441725887;-9.6036;0.7223;-1.3672;
1192110451824793;-10.5233;0.5094;-1.1276;
1192110461929637;-9.4119;-0.4346;0.3625;
1192110472034428;-5.2989;-0.1137;-2.2726;
1192110482144168;-10.8586;0.2698;-6.4792;
1192110492249012;-10.1067;-0.3338;-2.4954;
1192110502353803;-8.8107;0.1738;-1.3552;
1192110512468959;-13.5730;0.7418;-3.6766;
1192110522573803;-9.2970;0.3105;-0.1813;
1192110532678595;-7.0116;1.1560;-3.1711;
1192110542778022;-10.3989;0.7753;-4.4692;
1192110552882866;-10.0298;0.1379;0.0030;
1192110562987657;-8.9542;-0.0296;-0.2653;
1192110573079428;-11.0575;0.2435;-5.3055;
1192110583184220;-11.2014;-0.0488;-0.4065;
1192110593289012;-7.5841;-0.5806;-0.3969;
1192110603393803;-8.8370;-0.0535;-3.7723;
1192110613498647;-10.1474;-1.1677;-2.7374;
1192110623603387;-9.3760;-0.3290;-4.0837;
1192110633713230;-12.7753;0.9500;-6.6805;
1192110643817970;-9.6538;0.2937;-0.5264;
1192110653922762;-6.3024;-0.0200;-0.0664;
1192110664036772;-9.1531;-0.6574;-3.4346;
1192110674141564;-12.3775;0.1977;-3.2740;
1192110684246355;-12.9260;0.1881;-1.5805;
1192110694343022;-7.1267;-0.2477;0.0724;
1192110704447814;-7.0977;0.0661;-4.0717;
1192110714552605;-9.4238;-0.7412;-4.2009;
1192110724661876;-6.7600;-0.2453;-3.2405;
1192110734766668;-10.7079;0.3272;-6.8719;
1192110744871459;-12.7561;1.1441;-3.5518;
1192110754980418;-9.3305;0.2435;0.5779;
1192110765085209;-7.0187;1.2230;0.0870;
1192110775190001;-7.8930;0.5883;-4.4213;
1192110785299012;-11.1006;0.3751;-3.4633;
1192110795403751;-9.7280;0.2722;-2.5313;
1192110805508595;-11.2014;0.9787;-2.3423;
1192110815598959;-8.7461;0.7442;-0.6772;
1192110825703751;-4.9633;1.0388;-2.4452;
1192110835808543;-11.0073;0.6099;-4.9101;
1192110845914324;-12.5213;0.0685;-0.5886;
1192110856019116;-10.8108;1.0196;0.2521;
1192110866123959;-8.8825;1.1154;-2.8813;
1192110876232189;-7.7710;1.0842;-2.1410;
1192110886336980;-11.4218;0.5142;-2.6536;
1192110896441772;-11.5750;0.6697;-1.2643;
1192110906538543;-9.0383;0.6266;-1.6068;
1192110916643387;-4.9178;0.8566;-3.2381;
1192110926748178;-6.5180;0.6697;-6.2204;
1192110936859428;-9.3209;0.6553;-5.2645;
1192110946964272;-6.8680;0.1881;-1.5661;
1192110957069064;-0.4214;0.1403;-5.3916;
1192110967166251;1.8661;-0.9568;-10.9110;
1192110977271043;-52.6508;0.1068;-2.2271;
1192110987375887;-35.8200;3.8533;21.8190;
1192110997490834;21.9524;6.2943;14.0791;
1192111007595626;13.0340;-0.1017;-17.2875;
1192111017700366;-10.1928;-1.8718;-18.7825;
1192111027801355;-19.8227;-0.0153;-7.8206;
1192111037906147;-16.0020;-2.2313;6.5405;
1192111048010939;-8.0752;1.2326;3.7448;
1192111058119689;-3.4783;1.9394;0.0030;
1192111068224428;-5.0186;-2.1257;0.6114;
1192111078329220;-7.6633;-3.7690;3.2608;
1192111088420209;-0.1484;-3.2085;-13.2535;
1192111098525001;-27.6320;4.1575;-45.7271;
1192111108629793;-18.3832;2.8280;5.8409;
1192111118752084;8.1039;2.7227;28.3035;
1192111128856876;-6.8656;5.5253;-3.0057;
1192111138961668;-19.3053;0.3440;-9.8761;
1192111149056303;-14.0495;-2.0037;5.1508;
1192111159161147;-5.0904;-1.7210;7.2661;
1192111169265939;-3.6891;0.1642;-6.7786;
1192111179412032;-11.6013;0.6912;-11.5505;
1192111189516824;-11.1054;-2.3964;0.9996;
1192111199621616;-6.7146;-1.2299;0.6114;
1192111209689741;-15.0245;1.4076;-9.5791;
1192111219794480;-8.0321;0.3894;2.8561;
1192111229899324;-2.7882;-0.0826;-1.8105;
1192111240000209;-12.7223;1.1728;-12.3099;
1192111250104949;-10.9666;-1.1052;1.5577;
1192111260209793;-5.8618;-0.5614;1.8667;
1192111270325939;-11.5893;1.4411;-8.7260;
1192111280430730;-11.0312;0.0230;1.0140;
1192111290535522;-6.4271;-0.0802;2.0177;
1192111300632657;-13.6472;0.6793;-5.4371;
1192111310737449;-12.8112;0.2339;0.2713;
1192111320842241;-6.4056;0.6505;0.0126;
1192111330958439;-10.3846;2.0542;-6.2085;
1192111341063230;-10.2790;0.2243;-1.5709;
1192111351168022;-7.8643;-0.3939;0.1373;
1192111361280887;-11.1030;0.4086;-3.8919;
1192111371385730;-9.8432;-0.9736;-1.3552;
1192111381490522;-7.0762;-0.3266;-2.0931;
1192111391574168;-9.8886;-0.8827;-4.6250;
1192111401678907;-12.0206;-1.4408;-1.0080;
1192111411783751;-10.4731;-0.5231;-2.2439;
1192111421901564;-9.0383;0.5261;-5.1281;
1192111432006355;-7.1192;1.2565;-3.3171;
1192111442111147;-8.1446;0.2171;-3.0153;
1192111452212293;-11.2134;0.4469;-2.5170;
1192111462317084;-11.6037;0.0278;-1.4174;
1192111472421876;-9.2249;0.5237;-1.2787;
1192111482527605;-7.5003;0.6864;-2.5839;
1192111492632397;-9.5892;-0.3604;-2.6417;
1192111502737189;-10.4827;-0.0778;-1.9014;
1192111512843855;-9.5845;-0.1089;-2.6943;
1192111522948647;-8.9590;0.5166;-5.4873;
1192111533053439;-9.1795;0.9093;-3.9520;
1192111543154793;-9.2034;0.5596;-1.1946;
1192111553259584;-7.9555;-0.0224;-0.9120;
1192111563364324;-12.1618;-0.0081;-2.8068;
1192111573465991;-12.1235;0.6721;-1.8583;
1192111583570887;-7.5960;0.5333;-0.2294;
1192111593675782;-6.4582;0.4612;-2.6465;
1192111603780782;-9.8288;-0.3772;-3.9879;
1192111613885678;-12.0565;0.3942;-3.2094;
1192111623990574;-8.3028;1.0699;-2.9506;
1192111634092762;-7.7231;1.2661;-3.5782;
1192111644197657;-7.6872;0.6840;-1.7767;
1192111654302553;-9.2034;0.1355;-2.9052;
1192111664418699;-10.8805;0.3440;-2.8044;
1192111674523595;-7.6415;0.9476;-2.2104;
1192111684628491;-9.1555;1.0436;-4.8048;
1192111694724220;-11.6830;0.5979;-2.6680;
1192111704829116;-10.5999;0.3033;1.0092;
1192111714934012;-9.8240;0.9188;-1.4797;
1192111725030887;-9.3090;1.8532;-3.4418;
1192111735135834;-8.1924;1.0651;-2.7015;
1192111745240678;-9.3377;-0.0009;-0.4232;
1192111755347970;-9.8408;0.2052;-1.7503;
1192111765452866;-11.4577;0.0063;-2.2199;
1192111775557762;-10.2479;0.2578;-1.4844;
1192111785655470;-8.6429;0.4229;-1.3313;
1192111795760366;-8.9710;-0.5375;-1.7862;
1192111805865262;-9.2994;-0.0706;-3.8273;
1192111815974845;-8.9231;-0.1567;-4.9747;
1192111826079741;-9.7567;0.7418;-5.4347;
1192111836184637;-7.7279;1.0077;-2.7565;
1192111846288959;-6.5901;0.1977;-2.1170;
1192111856393855;-14.1024;0.2530;-3.3290;
1192111866498751;-13.0436;0.2506;-0.2701;
1192111876606303;-4.6304;0.5429;0.0245;
1192111886711199;-5.9360;0.5453;-5.4108;
1192111896816095;-13.2975;-0.4585;-5.3653;
1192111906927241;-11.8170;0.2028;-0.5264;
1192111917032137;-9.2441;0.9595;-1.3265;
1192111927137032;-8.1975;0.5548;-3.1926;
1192111937255366;-8.5352;0.2028;-1.3433;
1192111947360262;-10.3268;-0.4274;-1.8153;
1192111957465157;-9.6826;-0.5231;-0.1047;
1192111967557137;-7.5051;-0.8177;-3.7149;
1192111977662032;-10.4539;0.2411;-6.9918;
1192111987766928;-11.1799;-0.4992;-1.0845;
1192111997867657;-8.3794;-0.5710;1.6056;
1192112007972553;-6.9182;0.4062;-3.0464;
1192112018077449;-10.6217;0.4759;-5.9856;
1192112028185782;-11.0480;0.1379;-1.8870;
1192112038290678;-7.1913;0.4878;-0.5815;
1192112048395574;-9.1627;1.0077;-3.1400;
1192112058503022;-10.7821;0.5285;-3.8082;
1192112068607918;-10.1569;0.5572;-1.5132;
1192112078712814;-8.7242;0.9667;-1.2090;
1192112088817293;-11.0551;0.1116;-2.1577;
1192112098922189;-11.0671;0.1020;-1.4773;
1192112109027032;-7.9531;0.6840;-1.4222;
1192112119137084;-9.4525;1.1824;-4.1435;
1192112129241980;-9.1125;-0.3915;-1.4940;
1192112139346876;-7.4453;-0.1161;-2.7206;
1192112149424272;-10.1067;-0.1472;-4.4022;
1192112159529220;-10.7103;0.1403;-2.5217;
1192112169634064;-10.3702;0.3129;-1.4725;
1192112179738855;-8.0584;0.4134;-2.5672;
1192112189843751;-7.7853;-0.0224;-2.8427;
1192112199948647;-10.5042;-0.0511;-3.3410;
1192112210100470;-13.6137;0.8758;-2.9195;
1192112220205366;-11.4338;1.4506;-1.3672;
1192112230310262;-7.0211;1.0938;-0.4519;
1192112240394637;-6.7624;0.4783;-2.2869;
1192112250499532;-8.5472;-0.0081;-4.4548;
1192112260604428;-11.2038;-0.3437;-2.9076;
1192112270689949;-9.5940;0.4564;-2.1649;
1192112280794845;-7.7375;-0.0945;-4.1148;
1192112290899741;-9.9748;-0.0802;-3.7938;
1192112301011043;-9.9772;-0.2883;-1.1850;
1192112311115939;-8.6261;0.2171;-1.4198;
1192112321220834;-9.6658;0.6362;-5.9450;
1192112331319220;-9.1244;0.6505;-3.7819;
1192112341424116;-8.3076;0.5548;-1.0582;
1192112351529012;-10.0035;0.4253;-3.2094;
1192112361634116;-11.1006;0.8255;-1.4366;
1192112371739012;-9.2034;-0.1591;-0.6341;
1192112381843907;-8.6859;0.6553;-1.6211;
1192112391952970;-9.9221;0.3248;-2.1242;
1192112402057866;-9.7137;-0.4346;-1.3217;
1192112412162762;-9.1651;0.5118;-3.3171;
1192112422266772;-10.4444;0.5620;-4.0406;
1192112432371616;-8.6022;0.7466;-2.0043;
1192112442476512;-8.2645;0.2435;-1.5685;
1192112452583907;-10.0899;0.3535;-3.4801;
1192112462688803;-10.9594;0.3344;-3.5925;
1192112472793699;-10.1474;0.3679;-0.8856;
1192112482900366;-8.0728;0.4229;-1.0295;
1192112493005262;-9.4549;0.4038;-3.5901;
1192112503110157;-9.1268;0.2913;-1.7456;
1192112513215887;-10.3415;0.4134;-3.5901;
1192112523320834;-12.3129;0.6242;-3.2333;
1192112533425678;-3.5142;0.7609;-0.7851;
1192112543521616;-5.0952;0.3200;-4.9196;
1192112553626512;-18.8237;0.4516;-4.3496;
1192112563731407;-13.4578;-0.0057;1.4067;
1192112573835782;-2.8313;1.3214;0.3335;
1192112583940626;-2.7308;0.2889;-6.2492;
1192112594045418;-11.3115;-0.5447;-6.1606;
1192112604152866;-14.7562;-0.8417;-1.3361;
1192112614257657;-11.7523;0.9476;-0.0688;
1192112624362449;-7.8715;1.8245;-1.2449;
1192112634468022;-5.5792;0.3894;-2.0019;
1192112644572762;-10.8996;-0.2740;-3.0105;
1192112654677553;-11.0049;-0.8058;0.3072;
1192112664790626;-8.4945;-0.0559;-3.6284;
1192112674895418;-12.1427;1.3334;-7.3032;
1192112685000209;-8.7461;0.1355;0.4630;
1192112695100678;-7.7040;-0.0778;2.1111;
1192112705205470;-8.8202;-0.0535;-2.5672;
1192112715310262;-11.7667;0.1522;-5.1353;
1192112725413699;-11.8600;0.5859;-2.7876;
1192112735518491;-4.6759;0.0685;-0.1813;
1192112745623282;-6.2139;-0.1113;-4.1674;
1192112755728022;-11.8576;0.4277;-6.7618;
1192112765832762;-12.5572;-0.1352;-1.9660;
1192112775937553;-10.2024;0.8901;-0.0401;
1192112786032241;-7.6152;0.8758;-2.6919;
1192112796137032;-8.9088;0.3081;-1.3385;
1192112806241876;-9.7783;-0.6048;-1.9947;
1192112816356147;-12.6912;0.7394;-3.5064;
1192112826460939;-8.5304;0.9476;-1.5227;
1192112836565678;-5.8881;0.5692;-2.5986;
1192112846670209;-9.2803;0.3894;-3.3099;
1192112856774949;-9.8839;-0.5949;-1.9995;
1192112866879741;-11.2756;-0.2022;-3.0296;
1192112876985939;-11.0360;-0.3604;-1.9588;
1192112887090730;-7.8212;0.0924;-1.4964;
1192112897195470;-9.8169;-0.3628;-2.3853;
1192112907300626;-9.2827;0.1499;-2.5911;
1192112917405418;-10.1569;0.3248;-3.0799;
1192112927510157;-10.0708;1.1034;-2.9243;
1192112937609428;-7.8308;0.7681;-1.5852;
1192112947714220;-8.1999;0.2028;-1.6881;
1192112957819012;-9.6012;0.2985;-3.8225;
1192112967928439;-10.1210;0.2339;-3.6045;
1192112978033230;-10.9642;0.2339;-1.1492;
1192112988137970;-10.1641;0.5955;-2.1434;
1192112998236824;-9.6969;0.5046;-1.5541;
1192113008341616;-9.2393;0.7295;-3.0081;
1192113018446407;-10.0732;1.2159;-4.1052;
1192113028554272;-10.3220;1.1106;-1.7073;
1192113038659064;-6.3673;0.8255;-1.0439;
1192113048763855;-8.3052;0.1929;-3.3864;
1192113058862605;-10.1498;0.4062;-4.1028;
1192113068967397;-9.5390;0.3655;-2.7924;
1192113079072137;-10.5999;0.2483;-0.4161;
1192113089236095;-8.8179;0.5692;-2.6680;
1192113099340939;-10.3678;0.4229;-3.3817;
1192113109445626;-8.7027;0.6314;-3.4681;
1192113119488699;-9.8910;1.5658;-3.3936;
1192113129593491;-10.7749;1.1919;-1.6092;
1192113139698282;-8.4296;0.9835;-1.0822;
1192113149846303;-8.7700;0.5979;-3.1926;
1192113159951095;-10.6696;0.5309;-3.2166;
1192113170055887;-10.8948;0.0182;-0.9984;
1192113180129793;-9.5342;0.3846;-0.5671;
1192113190234584;-7.8021;-0.5997;-3.1639;
1192113200339324;-9.1364;0.0015;-4.0095;
1192113210467449;-8.4778;0.0876;-4.2897;
1192113220572293;-9.9676;0.6410;-3.9760;
1192113230677032;-10.0179;0.5309;-1.4366;
1192113240786095;-7.6128;0.2865;-2.3853;
1192113250890887;-7.9388;0.4134;-3.1181;
1192113260995678;-9.7280;0.4373;-4.8718;
1192113271081251;-10.1306;0.3942;-1.7671;
1192113281186043;-9.6778;0.5094;-1.7192;
1192113291290782;-10.7222;0.4229;-3.5662;
1192113301389480;-11.0169;0.7080;-0.5025;
1192113311494220;-8.9638;0.6912;-0.6820;
1192113321599064;-9.7424;1.1345;-1.8775;
1192113331713022;-9.0838;0.1403;-0.9168;
1192113341817814;-7.4620;-0.3147;-2.0019;
1192113351922553;-9.6443;-0.4681;-3.6957;
1192113362030939;-12.1235;0.0398;-3.6957;
1192113372135730;-9.1436;0.0613;-0.8713;
1192113382240522;-8.6405;0.4397;-1.3122;
1192113392334480;-10.4324;-0.4633;-3.8632;
1192113402439220;-10.1258;0.5596;-1.4725;
1192113412544064;-7.8428;0.3703;-4.0669;
1192113422658647;-10.2933;1.0101;-3.9855;
1192113432763439;-8.0465;0.6218;-1.5132;
1192113442868230;-6.2665;0.3105;-2.9459;
1192113452956720;-11.0982;0.3368;-4.2156;
1192113463061564;-11.9632;0.2195;-2.3252;
1192113473166355;-9.8192;0.8830;-1.2162;
1192113483283022;-8.3172;0.6505;-1.7623;
1192113493387814;-8.2860;0.0757;-2.9961;
1192113503492605;-10.2838;0.3057;-3.3984;
1192113513597605;-10.9020;0.7705;-3.3171;
1192113523702397;-10.5257;1.4746;-1.5661;
1192113533807189;-8.3243;0.5237;-0.2198;
1192113543906095;-5.6151;0.2171;-1.9134;
1192113554010887;-8.8370;-0.6263;-3.7938;
1192113564115626;-11.5104;0.1594;-3.6117;
1192113574220939;-8.9758;-0.2166;-2.3758;
1192113584325834;-7.5912;0.2913;-3.6165;
1192113594430678;-7.8595;-0.0320;-3.9473;
1192113604542501;-7.9050;0.3344;-2.4476;
1192113614647397;-5.8690;0.6936;-4.8861;
1192113624752241;-3.9335;0.4134;-5.1808;
1192113634857345;-1.5165;-0.4394;-4.8550;
1192113644962189;0.2515;-1.3304;-7.9741;
1192113655067084;2.6447;-1.5461;-9.8641;
1192113665183959;-20.9916;-0.1711;-5.9426;
1192113675288855;-52.6146;1.6448;10.9361;
1192113685393699;-25.1719;5.5062;26.6052;
1192113695486980;10.0851;9.8997;17.7467;
1192113705591876;1.9451;7.3220;-12.9589;
1192113715696772;-16.7324;-0.6670;-22.1025;
1192113725796251;-16.9074;-3.4983;-1.6953;
1192113735901095;-7.3828;-1.4647;13.5233;
1192113746005991;-3.5501;-1.5006;7.8314;
1192113756108855;-9.0359;-3.6039;-0.6724;
1192113766213751;-12.2770;-4.2506;2.4392;
1192113776318595;-2.7284;-5.6952;6.3129;
1192113786421772;-7.7495;-4.2745;-28.8987;
1192113796526668;-28.4465;2.3058;-42.8381;
1192113806631512;-4.4916;2.5908;7.8003;
1192113816756616;6.6141;4.4979;14.2875;
1192113826861564;-17.2092;7.6645;-16.8565;
1192113836966407;-21.5378;3.4510;-6.7187;
1192113847056043;-7.2751;0.7777;9.1851;
1192113857160939;-3.4424;0.5812;3.9939;
1192113867265782;-9.1819;-1.3208;-6.5821;
1192113877356407;-11.8983;-0.9832;-7.2649;
1192113887461355;-6.1684;-1.8311;-2.4811;
1192113897566199;-7.9364;-1.0573;-5.4179;
1192113907670209;-14.6940;-0.7149;-4.1507;
1192113917775157;-8.8896;-1.9822;1.4548;
1192113927880001;-6.9613;-1.4049;-1.6738;
1192113938002814;-10.4396;-1.6971;-4.3304;
1192113948107709;-4.5586;-2.8205;0.1612;
1192113958212553;-7.1315;-2.5283;-5.7843;
1192113968305939;-13.0579;-2.2672;-7.8039;
1192113978410834;-9.3927;-2.4419;-0.3969;
1192113988515678;-9.3855;-0.4729;-2.1170;
1192113998635105;-10.2503;0.1762;-0.1860;
1192114008740001;-7.0929;-0.1639;2.9542;
1192114018844845;-8.0082;0.9523;-4.7761;
1192114028949897;-11.9871;0.8901;-6.2635;
1192114039054793;-7.7040;-0.0368;2.1948;
1192114049159637;-5.8738;0.7490;-0.6652;
1192114059270053;-12.3416;1.7285;-7.6914;
1192114069374949;-10.0490;1.9083;-0.1047;
1192114079479793;-7.3684;1.4506;-0.3084;
1192114089554012;-11.4147;2.4736;-5.8253;
1192114099658907;-8.1470;1.7501;-0.9048;
1192114109763751;-7.9627;2.2436;-2.6632;
1192114119868439;-11.9222;3.0485;-5.0898;
1192114129973334;-11.1392;1.9896;1.3995;
1192114140078178;-10.1019;1.6376;1.6750;
1192114150188126;-7.1722;1.6543;-1.8942;
1192114160293074;-8.0321;0.7466;-3.9039;
1192114170397918;-10.5090;-0.0081;-3.5566;
1192114180529428;-10.2981;0.3511;-1.5108;
1192114190634324;-8.7003;0.3559;-1.8870;
1192114200739220;-8.9303;0.0733;-3.1998;
1192114210812918;-10.3511;0.5118;-2.9028;
1192114220917814;-9.3832;0.7681;-2.2726;
1192114231022657;-8.2860;0.3153;-1.2305;
1192114241143959;-9.8169;-0.1352;-1.9516;
1192114251248855;-9.6706;0.8782;-4.6322;
1192114261353699;-12.0972;0.6721;-3.5016;
1192114271454897;-8.8825;0.3344;-0.6604;
1192114281559793;-6.6787;0.4902;-2.2558;
1192114291664637;-10.0250;-0.4131;-4.3184;
1192114301777918;-9.8695;-0.5949;-1.8296;
1192114311882814;-10.6935;-0.1400;-2.5744;
1192114321987657;-11.0432;0.1451;-1.9349;
1192114332094793;-9.4406;-0.5375;-0.1334;
1192114342199689;-10.3077;-0.6837;-0.3873;
1192114352304532;-7.3926;-0.4992;-2.8211;
1192114362411355;-9.1484;-0.1663;-6.6876;
1192114372516251;-10.0298;-0.4107;-4.7112;
1192114382621147;-9.5797;0.0852;-3.2572;
1192114392712293;-12.1522;-0.1591;-0.4472;
1192114402817137;-7.9531;-0.1974;0.3120;
1192114412922032;-8.4682;0.5285;-3.1205;
1192114423037762;-8.9231;-0.0296;-3.4490;
1192114433142657;-8.2167;-0.0849;-2.3566;
1192114443247501;-7.8093;-0.4083;-3.2620;
1192114453346459;-9.1077;0.0829;-5.6527;
1192114463451355;-15.8940;0.5955;-3.9015;
1192114473556199;-11.2899;1.5272;1.0570;
1192114483659012;-6.4678;1.6208;-0.1478;
1192114493763907;-6.8198;0.4902;-2.9243;
1192114503868751;-8.7051;-0.5423;-3.7244;
1192114513981043;-10.9762;0.5237;-4.9962;
1192114524085939;-12.4445;0.4660;-1.6116;
1192114534190782;-7.1025;0.6864;1.0929;
1192114544291564;-6.8079;0.0517;-1.6211;
1192114554396459;-9.2922;-0.5495;-3.8369;
1192114564501303;-10.8996;-0.3724;-1.7121;
1192114574593907;-9.1890;-0.1113;-3.8608;
1192114584698855;-10.2359;1.0771;-7.2362;
1192114594803699;-8.9255;0.2315;-1.2739;
1192114604913439;-8.4945;0.5524;-0.7804;
1192114615018334;-13.1967;0.9691;-2.7876;
1192114625123178;-10.7605;1.0388;0.5348;
1192114635229897;-7.9217;1.2613;0.5803;
1192114645334741;-7.9603;0.1331;-3.1687;
1192114655439637;-7.1770;-0.0224;-3.4490;
1192114665558543;-9.1125;-0.4657;-4.8239;
1192114675663387;-10.9546;-0.4155;-4.5030;
1192114685768230;-12.0230;1.0125;-4.1124;
1192114695820105;-11.3115;0.0685;-0.0808;
1192114705925001;-9.0144;1.4243;1.0905;
1192114716029845;-10.9092;1.6065;-2.7398;
1192114726176772;-9.9987;0.7825;-2.7254;
1192114736281668;-6.1660;0.7585;-1.5733;
1192114746386512;-6.6906;-0.5064;-4.5843;
1192114756483387;-8.9088;0.5118;-4.9173;
1192114766588334;-10.8275;-0.1256;-3.3721;
1192114776693178;-10.7533;0.2554;-1.0630;
1192114786793959;-8.5783;0.1259;-2.1769;
1192114796898907;-8.4153;0.0757;-2.2391;
1192114807003751;-7.3516;0.6673;-4.2060;
1192114817129637;-11.7404;1.1130;-5.6097;
1192114827234532;-11.8600;1.5849;-2.4811;
1192114837339376;-10.7342;2.1981;-0.4089;
1192114847440522;-11.8983;1.4650;0.5085;
1192114857545366;-9.1173;1.1800;1.8356;
1192114867650262;-8.4248;0.8590;-1.2978;
1192114877749376;-8.7796;-0.5399;-2.9100;
1192114887854272;-9.5438;-0.6479;-4.1291;
1192114897959116;-7.4142;-0.4896;-3.5088;
1192114908061980;-5.4473;-0.2883;-4.6777;
1192114918166876;-9.5195;-0.3003;-6.1558;
1192114928271720;-10.8634;0.5405;-2.2965;
1192114938392605;-7.3564;0.0852;-1.0391;
1192114948497501;-7.5817;0.5907;-3.7795;
1192114958602345;-9.0407;0.6266;-5.3294;
1192114968709428;-10.5162;0.4854;-4.8742;
1192114978814272;-11.0671;0.9476;-2.6512;
1192114988919168;-9.0838;1.0053;-1.7623;
1192114998976147;-9.9341;0.8160;-0.4400;
1192115009080991;-13.7094;1.0723;0.1780;
1192115019185834;-13.1417;1.0675;2.2645;
1192115029328543;-6.5707;0.6553;3.1890;
1192115039433387;-5.0856;-0.0802;-2.6297;
1192115049538230;-10.1569;-1.1773;-6.3547;
1192115059623855;-10.1952;-1.6633;-2.5839;
1192115069728699;-7.7518;-0.9042;-2.6417;
1192115079833543;-8.2262;-0.6694;-5.4275;
1192115089960782;-10.1258;-0.8850;-4.7785;
1192115100065678;-10.7653;-0.8201;-0.9191;
1192115110170522;-6.4678;0.1762;-1.8464;
1192115120260209;-8.0417;0.9165;-6.7810;
1192115130365053;-12.3200;1.1393;-4.8814;
1192115140469897;-10.2503;0.6003;0.1899;
1192115150574584;-9.1603;1.3119;0.2593;
1192115160679428;-8.1230;1.0436;-1.6642;
1192115170784272;-6.1229;0.4878;-3.4418;
1192115180881512;-11.9895;0.1977;-4.1411;
1192115190986459;-16.2990;-0.1807;-0.3706;
1192115201091303;-10.6217;0.4831;2.8537;
1192115211205001;-6.0894;1.1369;-2.4188;
1192115221309897;-8.1685;0.4325;-5.0444;
1192115231414741;-8.5711;-0.3194;-1.4318;
1192115241520001;-8.7987;-0.3508;-2.0883;
1192115251624897;-10.6193;-0.1472;-4.2108;
1192115261729689;-8.9542;-0.1974;-3.6766;
1192115271835262;-8.6620;0.1738;-2.6991;
1192115281940157;-9.1771;-0.3724;-1.8416;
1192115292044949;-8.3339;-0.6096;-2.1075;
1192115302154480;-8.2262;0.4684;-4.8885;
1192115312259376;-7.6801;1.0699;-7.0612;
1192115322364220;-8.2932;1.5033;-5.1281;
1192115332459689;-10.2191;1.0890;-0.6915;
1192115342564532;-11.5319;0.4759;0.3745;
1192115352669428;-8.2717;1.2637;-0.1860;
1192115362790470;-5.2173;1.0986;-3.3075;
1192115372895366;-11.6348;0.9691;-2.8522;
1192115383000209;-13.4124;-0.0081;-2.0474;
1192115393097866;-11.0910;0.5644;-1.5733;
1192115403202762;-8.4368;1.0077;-0.4857;
1192115413307605;-10.2814;0.9165;-1.9708;
1192115423414689;-13.1321;0.8614;-1.0822;
1192115433519584;-10.4109;-0.2572;3.5988;
1192115443624428;-6.1851;-1.2227;0.9470;
1192115453729272;-6.1756;-0.7531;-5.3725;
1192115463834168;-10.4420;-0.9042;-7.4997;
1192115473939012;-11.6013;-1.3137;-0.9287;
1192115484036668;-10.3101;-1.8598;0.2282;
1192115494141564;-11.8193;0.2841;-6.4983;
1192115504246407;-13.3167;0.6553;-3.2166;
1192115514358022;-13.7094;0.8064;1.6702;
1192115524462918;-9.7017;2.0112;-1.3361;
1192115534567762;-7.7662;2.3130;-3.9568;
1192115544661980;-9.0790;0.2985;-3.6165;
1192115554766876;-9.3353;0.4014;-3.1448;
1192115564871720;-7.8882;0.5285;-3.1158;
1192115574978751;-5.2822;-0.0826;-3.9111;
1192115585083647;-7.0403;-1.4097;-6.1080;
1192115595188491;-8.4706;-1.3448;-8.6710;
1192115605297709;-9.2297;-0.8082;-5.5929;
1192115615402553;-8.9375;0.0948;-4.0860;
1192115625507397;-8.9255;1.5272;-7.0971;
1192115635599376;-9.0957;2.4162;-4.3137;
1192115645704324;-6.2880;1.0986;0.6452;
1192115655809116;-6.4152;0.7992;-1.4533;
1192115665934168;-9.9844;1.5105;-4.7207;
1192115676039012;-21.2049;0.0781;1.9217;
1192115686143907;-33.6592;1.2999;11.7099;
1192115696244689;-5.5385;6.4813;14.1820;
1192115706349637;8.7867;5.4679;-3.2142;
1192115716454480;-2.4075;-5.3931;-12.4391;
1192115726559324;-11.1488;-4.2099;-11.4209;
1192115736633178;-14.4568;-1.8479;-3.8154;
1192115746738126;-10.0780;-1.5556;3.9341;
1192115756842970;-7.0786;0.1092;1.4043;
1192115766969480;-7.4716;0.5931;-2.1697;
1192115777074324;-3.7848;0.1283;-3.8010;
1192115787179168;-5.7876;-1.2802;-7.7943;
1192115797283178;-12.8782;1.2685;-21.2187;
1192115807388074;-20.7787;4.4234;-14.1879;
1192115817492866;-7.2416;5.2187;9.7023;
1192115827594012;-4.2520;6.1220;8.1239;
1192115837698907;-12.2049;4.2440;0.6308;
1192115847803751;-12.3918;0.7825;1.0331;
1192115857907709;-8.8250;-0.5255;0.9900;
1192115868012605;-5.6844;0.0637;-2.0474;
1192115878117397;-6.4008;-0.0320;-8.7069;
1192115888226459;-12.9595;-1.5939;-5.6695;
1192115898331355;-10.2239;-2.8397;2.6405;
1192115908436199;-8.0465;-0.9664;-3.6428;
1192115918566980;-11.9800;0.5142;-6.0670;
1192115928671824;-8.0608;-0.8946;0.3024;
1192115938776720;-7.4788;-0.5877;-1.7192;
1192115948855105;-9.8695;-0.8512;-4.7952;
1192115958960001;-9.5366;-0.7053;-2.3495;
1192115969064793;-11.3210;0.1259;-1.7647;
1192115979165470;-8.4296;0.3631;-0.4738;
1192115989270366;-5.9264;0.4038;-1.8488;
1192115999375209;-11.4506;0.1283;-5.0180;
1192116009474012;-13.1680;0.0661;-2.2510;
1192116019578907;-10.8299;1.1776;-0.4256;
1192116029683803;-8.8322;1.7955;-2.2008;
1192116039809376;-8.3530;1.2927;-0.8498;
1192116049914220;-7.1049;0.3129;-2.2032;
1192116060019064;-10.2957;0.6625;-6.1654;
1192116070105366;-9.9389;0.2602;-2.7781;
1192116080210262;-6.4654;0.0733;-1.3433;
1192116090315105;-9.4549;-0.1807;-6.0550;
1192116100448491;-11.2995;-0.7747;-2.0330;
1192116110553387;-8.3842;-0.1783;-0.3467;
1192116120658230;-9.5725;0.1020;-5.0922;
1192116130740834;-11.6348;0.2506;-2.0931;
1192116140845678;-9.1005;0.8806;0.1684;
1192116150950522;-8.5998;0.3344;-1.9804;
1192116161039845;-8.8681;0.5429;-2.2678;
1192116171144689;-8.5256;0.2339;-2.4188;
1192116181249584;-7.7303;-0.0754;-2.2558;
1192116191368334;-8.8322;-0.3532;-3.5901;
1192116201473230;-11.5869;-0.2405;-3.1277;
1192116211578074;-11.2277;0.3846;-1.4079;
1192116221687709;-8.9949;0.6529;-2.7398;
1192116231792605;-8.0513;0.4854;-1.5829;
1192116241897449;-8.8992;0.6745;-2.3133;
1192116251999845;-10.6409;0.5572;-3.6643;
1192116262104741;-11.9871;0.9691;-1.8559;
1192116272209584;-10.8805;1.1465;-1.0367;
1192116282319793;-8.7915;0.4807;0.0604;
1192116292424689;-7.8667;0.3894;-1.8703;
1192116302529532;-8.6572;-0.8225;-2.6489;
1192116312639793;-8.3746;-0.6311;-4.1100;
1192116322744637;-9.6108;0.2171;-6.6108;
1192116332849480;-11.7476;0.2291;-2.7805;
1192116342961355;-8.7628;0.2148;1.0810;
1192116353066251;-8.3363;0.7753;-2.4308;
1192116363171043;-12.2148;0.5094;-2.5409;
1192116373260105;-8.0800;0.7753;-1.9756;
1192116383364949;-7.1145;0.5118;-4.5748;
1192116393469793;-10.3750;0.4564;-5.6695;
1192116403588282;-11.2373;0.5453;-3.1687;
1192116413693230;-9.6275;1.2063;-1.5108;
1192116423798074;-11.1440;0.9236;-1.8990;
1192116433902189;-8.1326;0.6769;0.3191;
1192116444007084;-6.6930;0.2483;-0.9000;
1192116454111928;-9.5414;0.3966;-5.0420;
1192116464225939;-14.4018;-0.1208;-2.3758;
1192116474330834;-10.7486;0.7513;-0.9000;
1192116484435678;-7.1315;0.3870;-2.6824;
1192116494527709;-6.8438;0.6984;-3.1711;
1192116504632605;-9.5076;-0.2453;-3.9497;
1192116514737449;-9.8575;0.3464;-4.8909;
1192116524835834;-9.5028;0.3727;-3.8082;
1192116534940730;-10.1282;0.6338;-2.2343;
1192116545045574;-9.1412;0.8949;0.0485;
1192116555142762;-6.9254;0.3057;-1.4557;
1192116565247709;-9.2154;0.0541;-3.3625;
1192116575352553;-10.2574;-0.1065;-3.1376;
1192116585456772;-10.4085;0.7271;-5.5690;
1192116595561616;-10.5712;0.7008;-3.0511;
1192116605666459;-10.1617;0.8997;-0.5671;
1192116615750782;-10.7773;1.3167;-2.6512;
1192116625855678;-12.5237;1.3932;-2.2487;
1192116635960522;-8.6022;0.6984;1.7830;
1192116646081459;-4.9513;-0.2213;-0.2366;
1192116656186303;-8.4921;-0.7938;-6.7738;
1192116666291199;-11.4960;-0.9760;-4.3567;
1192116676399845;-8.9853;-0.4801;-0.1741;
1192116686504637;-6.9637;-0.6742;-3.4537;
1192116696609532;-8.2525;-0.8417;-5.6480;
1192116706715626;-11.5726;-0.2764;-2.3662;
1192116716820470;-10.3965;0.0685;-3.2644;
1192116726925314;-10.0609;1.1345;-4.0597;
1192116737047866;-10.7007;1.5105;-2.4691;
1192116747152762;-10.0202;0.7343;-0.1095;
1192116757257553;-11.5128;1.1082;0.4152;
1192116767347709;-8.2860;0.2124;-0.6485;
1192116777452501;-9.0622;-0.0682;-1.7432;
1192116787557397;-7.2320;-0.5973;-3.6981;
1192116797659584;-6.4487;-0.9209;-3.5925;
1192116807764428;-9.6754;-0.8850;-4.5676;
1192116817869272;-10.5329;-0.5279;-5.0946;
1192116827977084;-12.1786;0.5237;-4.3161;
1192116838081876;-8.3387;0.7128;-0.0664;
1192116848186772;-6.9063;0.6314;-0.5384;
1192116858291355;-10.7438;0.6266;-4.7928;
1192116868396199;-11.6925;0.9021;-3.3314;
1192116878501043;-10.7438;1.0699;-0.1310;
1192116888612084;-8.4368;0.7777;-1.4438;
1192116898716928;-8.2286;0.3009;-2.2439;
1192116908821772;-8.3459;-0.9616;-1.1372;
1192116918929272;-9.0718;-0.0464;-3.3171;
1192116929034168;-9.7352;0.6147;-3.7627;
1192116939138959;-6.3434;0.1259;-2.2845;
1192116949260418;-5.4401;-0.1926;-3.3529;
1192116959365262;-11.9584;0.2985;-5.3127;
1192116969470053;-22.0505;0.6290;-1.1994;
1192116979528282;-11.8122;2.0303;3.8288;
1192116989633178;0.1606;2.1598;0.4845;
1192116999738022;-4.5227;1.3262;-8.0722;
1192117009879637;-11.8289;-0.9090;-7.4686;
1192117019984532;-13.5850;-0.0511;-1.6642;
1192117030089324;-11.0192;1.4028;-0.4519;
1192117040164012;-6.5683;0.7801;1.3516;
1192117050268855;-5.0641;-0.2596;-0.1047;
1192117060373751;-9.7400;-0.4872;-3.7460;
1192117070480366;-11.2540;-0.5566;-1.7671;
1192117080585209;-8.2023;0.2195;-6.2946;
1192117090690105;-11.9560;1.0842;-11.2415;
1192117100795782;-8.3507;0.6745;-0.4232;
1192117110900626;-6.4750;0.7561;1.5099;
1192117121005522;-10.9618;0.8758;-4.5078;
1192117131127241;-12.3105;0.5979;-2.0426;
1192117141232137;-9.7759;0.9141;2.2116;
1192117151336980;-6.2354;-0.1208;0.9015;
1192117161441459;-9.6443;-0.3508;-4.4453;
1192117171546303;-13.6687;-0.4274;-3.0129;
1192117181651147;-11.5319;-0.1902;1.0666;
1192117191749012;-8.4488;0.0709;-1.9373;
1192117201853855;-5.3539;0.3081;-4.4572;
1192117211958699;-5.7514;-0.7819;-4.0837;
1192117222073439;-10.1354;-0.7101;-7.0277;
1192117232178282;-13.7740;0.1283;-4.2849;
1192117242283126;-8.2837;-0.5255;2.0154;
1192117252384428;-4.9923;0.1331;-1.8224;
1192117262489272;-10.0131;0.0302;-5.4323;
1192117272594116;-10.8515;-0.5734;-2.1170;
1192117282703751;-8.5041;0.1068;-2.0306;
1192117292808595;-9.7639;0.6817;-5.8011;
1192117302913439;-9.9652;0.9021;-3.1086;
1192117313028439;-9.2130;0.7295;-1.2882;
1192117323133282;-11.1655;1.2063;-1.4127;
1192117333238126;-10.9092;0.7609;0.4391;
1192117343334793;-10.5855;0.0876;0.0269;
1192117353439584;-9.0957;-0.0993;-0.4519;
1192117363544480;-9.9365;-0.3027;-1.6570;
1192117373627866;-9.8623;-0.1184;-3.5566;
1192117383732762;-7.5745;-0.8417;-3.1376;
1192117393837605;-7.2320;-0.7986;-3.7316;
1192117403967241;-9.8025;-0.8970;-4.9651;
1192117414072137;-11.9055;-0.6933;-2.5504;
1192117424176980;-9.8408;0.5572;-3.5088;
1192117434266772;-9.1890;1.1584;-3.0081;
1192117444371616;-7.6582;0.5644;-0.0736;
1192117454476459;-7.8356;0.5142;-3.7699;
1192117464593855;-10.7390;0.4445;-5.1927;
1192117474698699;-10.2981;1.0388;-2.6225;
1192117484803543;-11.3474;1.3406;-2.0692;
1192117494901876;-10.7557;1.4339;-0.9287;
1192117505006720;-5.3228;0.3846;0.1540;
1192117515111564;-7.9555;-0.0706;-4.4022;
1192117525218543;-12.5022;0.4540;-6.6012;
1192117535323387;-13.0244;0.6338;-2.2750;
1192117545428230;-7.9170;1.0101;2.0297;
1192117555514220;-5.4233;0.4759;-2.3252;
1192117565619064;-9.4310;0.3966;-5.6240;
1192117575723959;-11.0432;-0.2668;-2.2295;
1192117585838178;-9.0838;-0.3556;-0.2127;
1192117595943022;-8.7461;0.2722;-3.7005;
1192117606047866;-9.0981;0.6338;-4.5700;
1192117616155470;-9.1675;0.2746;-2.3638;
1192117626260366;-10.4516;0.9332;-2.7613;
1192117636365209;-11.2421;1.2374;-1.7647;
1192117646458907;-9.4071;1.2446;-0.6006;
1192117656563803;-8.2023;1.4387;-2.6465;
1192117666668699;-9.2178;1.1800;-3.1687;
1192117676779376;-9.5510;0.8853;-1.5541;
1192117686884220;-9.5148;0.4759;-2.2965;
1192117696989064;-10.2574;0.2219;-2.6824;
1192117707096928;-7.5362;0.3057;-2.4332;
1192117717201772;-9.8743;0.5501;-4.4142;
1192117727306668;-12.1211;0.6027;-3.0942;
1192117737427553;-9.7926;1.6735;-1.7049;
1192117747532449;-7.9146;1.0340;-0.7780;
1192117757637293;-7.9265;0.3918;-2.4332;
1192117767722709;-10.5664;0.3200;-4.5485;
1192117777827553;-10.6792;0.6936;-1.6116;
1192117787932449;-10.0756;0.6936;-0.4929;
1192117798028074;-10.6385;-0.1352;-1.6594;
1192117808132970;-7.7088;-0.0320;-1.8416;
1192117818237866;-7.5003;-0.0583;-4.5772;
1192117828344376;-10.2048;0.1499;-5.1975;
1192117838449220;-9.8121;0.6601;-3.0224;
1192117848554064;-7.6657;0.6075;-2.3303;
1192117858696459;-6.8533;0.7729;-3.0033;
1192117868801303;-8.1494;-0.0320;-4.5365;
1192117878906199;-8.0034;-0.0897;-2.9794;
1192117888967553;-4.8078;-0.6144;-3.0918;
1192117899072397;-6.9446;-0.9568;-5.9976;
1192117909177241;-8.7748;-0.5183;-5.7915;
1192117919295314;-8.9040;0.3488;-4.8311;
1192117929400105;-12.8399;1.0962;-2.1290;
1192117939504949;-14.5765;2.1646;2.5567;
1192117949608074;-13.3430;2.6844;4.7222;
1192117959712918;-11.5702;2.8591;4.1234;
1192117969817814;-11.8050;2.8352;0.2091;
1192117979940053;-13.0074;0.7080;-0.8833;
1192117990044897;-8.7676;-1.0813;0.5659;
1192118000149793;-5.5672;-0.5423;-0.1238;
1192118010233959;-1.6169;-2.0539;-1.3672;
1192118020338803;-0.0694;-2.0468;-8.8484;
1192118030443647;-31.7067;-1.7330;-8.6231;
1192118040546616;-74.2989;-0.2620;21.3924;
1192118050651512;4.9325;10.9274;18.7334;
1192118060756355;54.6700;1.2903;0.0389;
1192118070892345;8.3674;-6.8545;-11.2295;
1192118080997189;-34.7061;-0.2668;-26.6854;
1192118091102084;-23.1189;-2.7293;-13.6250;
1192118101181668;-1.7390;2.5071;-12.4439;
1192118111286512;10.3487;4.2296;-8.8244;
1192118121391407;1.2170;0.5357;-0.6987;
1192118131496095;-13.0149;-1.4886;1.5505;
1192118141600939;-8.7532;-2.6073;-1.1587;
1192118151705834;-13.3262;1.8126;-40.6032;
1192118161872189;-39.1831;12.4508;-26.9103;
1192118171977032;-5.9504;7.7510;36.7403;
1192118182081876;11.1894;6.2489;21.9242;
1192118192124272;-13.5129;0.4926;-5.1903;
1192118202229116;-18.7089;-6.6556;-3.5183;
1192118212334012;-6.6523;-4.3513;12.5889;
1192118222450001;1.2505;-2.0204;5.6731;
1192118232554845;-7.8715;-3.0793;-11.1431;
1192118242659741;-15.9876;-5.4317;-9.0209;
1192118252750522;-3.1044;-5.8866;5.3904;
1192118262855418;-5.7514;-3.1534;-8.4147;
1192118272960262;-19.8921;-1.5126;-19.9896;
1192118283066251;-6.6141;-2.1688;5.4721;
1192118293171095;-0.1077;0.9404;1.8236;
1192118303275991;-16.6439;2.3731;-12.7481;
1192118313380626;-7.4788;0.0350;3.8237;
1192118323485470;-5.2005;2.0136;-2.6608;
1192118333590366;-16.1982;3.9251;-13.7016;
1192118343697918;-5.5911;2.9192;6.6290;
1192118353802762;-5.9312;2.6844;4.6481;
1192118363907657;-15.3431;3.1322;-8.7550;
1192118374012293;-10.4492;2.8496;-1.7480;
1192118384117137;-8.4754;2.8639;0.2450;
1192118394222032;-11.9848;3.5420;-3.8895;
1192118404321980;-7.6439;1.4124;0.4750;
1192118414426824;-6.4774;0.8782;-4.6609;
1192118424531720;-10.7246;0.9308;-7.2434;
1192118434644376;-9.5195;-1.1892;0.0078;
1192118444749220;-12.3153;-1.3950;-0.8450;
1192118454854116;-9.9293;-1.1557;0.7528;
1192118464960626;-6.1229;-1.6995;1.1240;
1192118475065470;-10.8491;-1.5006;-5.8373;
1192118485170366;-11.6348;-2.0444;-1.1228;
1192118495278595;-8.0489;-1.2227;0.1899;
1192118505383439;-10.5066;-0.6024;-5.7078;
1192118515488334;-7.2033;-1.1844;-2.0402;
1192118525583230;-6.4319;-0.4729;-2.5193;
1192118535688074;-11.2660;-0.9281;-4.1411;
1192118545792918;-12.0398;-1.8144;-0.2605;
1192118555920939;-9.6203;-1.1076;-1.3457;
1192118566025782;-10.3654;0.4325;-4.7761;
1192118576130678;-9.2608;-0.0464;-2.3710;
1192118586212709;-7.6104;0.0039;-2.2128;
1192118596317501;-10.9570;-0.1567;-4.4743;
1192118606422345;-11.4362;-0.8321;-3.3123;
1192118616526824;-8.2741;-0.0033;-2.1769;
1192118626631668;-8.5424;-0.1424;-3.7244;
1192118636736512;-10.4300;-1.0286;-0.3227;
1192118646841459;-9.6969;-1.3543;0.9135;
1192118656946303;-10.1761;-1.0023;-2.4045;
1192118667051147;-10.0322;-1.0956;-3.2046;
1192118677155209;-10.3582;-0.6742;-2.5744;
1192118687260053;-8.1805;-0.6861;-2.6010;
1192118697364845;-6.6141;-0.1615;-2.0979;
1192118707467762;-7.7614;-0.8273;-3.8249;
1192118717572553;-9.4525;-0.6263;-4.2610;
1192118727677449;-9.6945;0.1953;-4.5197;
1192118737783178;-8.8848;0.8207;-1.9110;
1192118747888022;-7.4668;1.0340;-0.1669;
1192118757992866;-10.8610;0.7896;-3.7866;
1192118768090887;-11.9967;1.2302;-3.0679;
1192118778195782;-8.8394;1.8197;-0.0544;
1192118788300574;-7.9388;2.3994;-3.8704;
1192118798402345;-8.5783;1.6878;-3.4394;
1192118808507241;-9.2465;0.7442;-2.2295;
1192118818612084;-9.1220;0.9141;-1.0367;
1192118828776668;-9.5940;0.4014;-3.5710;
1192118838881512;-10.8634;0.9858;-2.3157;
1192118848986355;-7.1363;0.7032;0.0245;
1192118859054949;-5.2149;0.0135;-2.0139;
1192118869159793;-10.2191;-0.2716;-5.9378;
1192118879264637;-15.6688;0.3727;-4.2108;
1192118889397501;-10.4204;1.2254;0.5324;
1192118899502345;-5.7132;1.1656;-0.6700;
1192118909607189;-6.9159;0.9045;-3.1038;
1192118919678699;-8.4200;0.2578;-3.6045;
1192118929783543;-10.5257;0.7080;-4.2562;
1192118939888387;-11.1823;0.3535;-1.8033;
1192118949983959;-10.7821;1.0172;-1.6283;
1192118960088751;-11.5534;0.5883;-0.1310;
1192118970193595;-11.9414;1.4363;1.3780;
1192118980315366;-10.8876;0.4974;0.0700;
1192118990420262;-7.3564;1.2709;-3.5806;
1192119000525053;-7.1025;-0.2955;-5.8277;
1192119010635209;-8.7604;-0.1400;-3.7986;
1192119020740053;-9.9700;-0.3437;-3.8895;
1192119030844845;-8.8585;0.1642;-3.2907;
1192119040951824;-7.4189;0.3153;-2.6225;
1192119051056720;-5.7802;-0.4968;-3.1950;
1192119061161564;-5.7251;-0.6981;-5.5977;
1192119071247605;-8.4873;-0.3338;-8.0794;
1192119081352397;-9.5629;-0.4968;-5.7006;
1192119091457293;-10.0442;0.6266;-4.5126;
1192119101565939;-14.7778;0.7561;-1.6475;
1192119111670730;-15.3168;1.4650;5.5606;
1192119121775626;-8.7389;2.2196;5.7547;
1192119131878959;-6.7840;2.6270;-3.0248;
1192119141983751;-8.2334;-0.0344;-5.3103;
1192119152088647;-8.7461;-1.6923;-1.0917;
1192119162246512;-9.3879;-0.7436;-1.9397;
1192119172351355;-12.8375;-0.9305;-2.0545;
1192119182456147;-11.3641;-1.0502;2.2020;
1192119192498959;-10.2431;-0.3508;0.6858;
1192119202603803;-8.2717;-0.7484;-2.2606;
1192119212708647;-6.9063;-1.0143;-4.2658;
1192119222825418;-11.9222;0.1618;-8.9943;
1192119232930262;-13.4387;1.4674;-7.8422;
1192119243035105;-5.8307;1.7836;-0.2701;
1192119253127709;-7.1339;1.1273;-1.4486;
1192119263232553;-9.9054;0.7561;-3.1615;
1192119273337397;-12.9667;0.7128;-1.6307;
1192119283443647;-9.8719;1.4889;-0.1143;
1192119293548491;-6.1373;0.6338;-3.1998;
1192119303653334;-8.4129;1.0364;-6.2204;
1192119313762814;-10.6887;0.4974;-3.8536;
1192119323867657;-10.0732;1.3525;-3.8058;
1192119333972501;-10.5520;1.6304;-3.9879;
1192119344080522;-12.7343;1.5443;-3.3745;
1192119354185366;-9.8982;1.0938;1.1770;
1192119364290209;-5.1742;0.3296;0.8871;
1192119374389168;-9.9126;0.6242;-5.7628;
1192119384494012;-12.1044;-1.1844;-1.8153;
1192119394598855;-11.8863;0.5070;-1.5012;
1192119404719012;-8.8179;-0.1161;-1.4174;
1192119414823907;-4.8126;-0.8731;-0.4786;
1192119424928751;-7.5673;-0.2189;-5.8995;
1192119435019168;-9.8910;-0.8417;-5.8011;
1192119445124012;-9.6275;-0.2835;-1.9134;
1192119455228855;-9.2010;0.6745;-5.4538;
1192119465344480;-9.2345;1.5033;-4.4094;
1192119475449324;-7.6872;0.8207;-1.8033;
1192119485554168;-9.1173;0.5213;-1.7551;
1192119495629428;-10.8924;0.9619;-2.5935;
1192119505734272;-10.6600;1.0555;-2.9530;
1192119515839116;-10.0083;2.6773;-2.7446;
1192119525950470;-8.2454;1.3382;-0.6532;
1192119536055314;-7.4118;0.9141;-0.9646;
1192119546160157;-11.1847;0.2363;-1.6738;
1192119556269741;-9.0622;-0.1161;-1.6690;
1192119566374637;-9.4071;0.6673;-2.8669;
1192119576479428;-8.2837;0.4158;-2.6345;
1192119586582137;-5.6270;-0.2955;-1.7097;
1192119596687032;-10.6241;-0.2740;-5.2071;
1192119606791824;-12.2195;-0.3700;-2.2869;
1192119616886928;-10.6122;0.7008;-0.8091;
1192119626991824;-9.7232;1.6256;-2.8331;
1192119637096616;-9.8025;1.0026;-0.6580;
1192119647222918;-7.9122;0.6194;-0.0544;
1192119657327709;-8.9782;0.9715;-3.5112;
1192119667432553;-14.1479;0.7896;-3.1567;
1192119677528126;-12.6003;0.4902;1.2176;
1192119687632970;-6.4534;1.3525;0.7600;
1192119697737762;-3.1478;0.3200;-3.8010;
1192119707850678;-4.5706;-0.9449;-5.4921;
1192119717955522;-11.9222;-0.9712;-7.1330;
1192119728060314;-15.2641;-0.8177;-4.5939;
1192119738158595;-10.5114;1.0962;0.0293;
1192119748263439;-6.5515;1.4004;-1.7384;
1192119758368230;-8.1039;1.0316;-3.3864;
1192119768473230;-9.6203;0.1187;-2.1529;
1192119778578022;-10.0609;0.1164;-2.9291;
1192119788682866;-11.9848;0.9858;-4.2419;
1192119798792866;-9.2489;0.6170;-3.2644;
1192119808897709;-5.8762;0.1427;3.2560;
1192119819002501;-5.7251;-0.7627;0.3673;
1192119829098959;-7.4261;-1.3591;-6.0168;
1192119839203751;-7.9627;-2.0563;-4.8885;
1192119849308595;-9.5964;-1.7833;-5.2095;
1192119859411616;-7.3540;-0.2453;-4.7016;
1192119869516459;-0.0383;-0.1639;-4.5556;
1192119879621251;-15.3120;-0.8922;-5.8035;
1192119889718855;-46.1683;0.4229;7.0217;
1192119899823699;-22.6496;4.1934;19.7970;
1192119909928491;9.5581;12.4962;8.5143;
1192119920038439;7.1243;1.1847;-12.7193;
1192119930143230;-10.1617;-5.2232;-12.3553;
1192119940248022;-13.8341;-2.4876;-4.9507;
1192119950381824;-8.0201;-1.5437;1.6920;
1192119960486668;-9.2898;-0.9138;-0.9048;
1192119970591459;-10.4204;-1.4767;-3.3171;
1192119980697345;-5.8738;-2.1951;2.5472;
1192119990802241;-0.5868;-2.0635;1.6128;
1192120000906980;-6.8270;-1.9268;-25.4755;
1192120011006407;-25.9600;2.3946;-32.5974;
1192120021111303;-14.4090;5.8992;6.9356;
1192120031216043;-3.0565;8.2179;13.4249;
1192120041302032;-7.2272;6.8118;2.6429;
1192120051406928;-13.1871;1.7596;-1.0199;
1192120061511720;-9.3377;-0.7268;2.8226;
1192120071617189;-5.8020;-0.8946;0.2282;
1192120081722032;-6.8776;-0.9449;-8.0435;
1192120091826824;-11.4912;-1.9965;-5.9091;
1192120101943855;-9.5028;-2.5618;1.4692;
1192120112048699;-7.6801;-1.9220;-1.4079;
1192120122153491;-10.8036;-1.1486;-7.1186;
1192120132247189;-7.6777;-0.7914;-3.2189;
1192120142352032;-4.2401;0.0757;-4.2156;
1192120152456824;-9.4095;-0.0105;-8.5585;
1192120162564480;-17.2020;-0.6287;-1.9110;
1192120172669324;-13.0220;0.9212;4.5377;
1192120182774116;-4.9322;1.0603;2.1685;
1192120192877189;-4.1728;0.3129;-3.2118;
1192120202982032;-9.6467;-0.6502;-6.4265;
1192120213086824;-11.8002;-0.5686;-2.6871;
1192120223195626;-12.3703;1.0651;-1.5302;
1192120233300470;-10.2383;1.5129;-1.7001;
1192120243405262;-6.2713;1.6232;1.3540;
1192120253507605;-6.3960;0.3535;-2.0931;
1192120263612449;-11.6973;-0.8034;-5.1903;
1192120273717189;-11.6806;0.3799;-3.5758;
1192120283821772;-9.3209;1.3717;-4.9292;
1192120293926616;-9.9006;1.5491;-3.0009;
1192120304031407;-11.5798;0.1259;0.3120;
1192120314139012;-7.0211;0.4974;1.9002;
1192120324243855;-7.9531;0.3344;-5.3079;
1192120334348647;-11.1006;-0.6502;-5.0133;
1192120344457709;-6.9948;-0.2429;0.4032;
1192120354562553;-9.0024;0.0111;-3.7866;
1192120364667345;-13.4626;-0.1113;-3.0320;
1192120374766459;-8.4754;-0.5806;0.9254;
1192120384871303;-7.2990;0.2124;-3.2070;
1192120394976095;-13.5296;0.3607;-4.5532;
1192120405084168;-11.7428;0.5381;0.5635;
1192120415189012;-7.8500;1.2254;-1.7169;
1192120425293803;-9.9915;1.8652;-5.5065;
1192120435393178;-8.7963;0.5429;-0.8378;
1192120445498022;-4.5012;0.0733;-0.5336;
1192120455602814;-12.2578;-0.0488;-5.8253;
1192120465710001;-13.9729;-0.4825;-2.2032;
1192120475814845;-8.9423;0.8614;-0.5432;
1192120485919637;-5.9169;0.2937;-2.9674;
1192120496008022;-7.3612;-0.7388;-3.4250;
1192120506112866;-10.3196;-0.2524;-4.3687;
1192120516217709;-11.1679;0.3894;-4.6322;
1192120526322553;-9.3090;0.9069;-3.6476;
1192120536418387;-5.3850;0.6601;-1.4533;
1192120546523230;-5.5023;-0.3242;-2.5863;
1192120556628022;-19.5497;-0.1496;-2.9004;
1192120566749272;-15.9709;-0.0224;3.0861;
1192120576854064;-4.0316;1.7931;0.4798;
1192120586958907;-5.6605;1.3454;-5.3940;
1192120597063387;-11.9632;-0.9233;-3.9135;
1192120607168230;-14.0303;-0.3123;0.6428;
1192120617273022;-10.1593;1.1225;-0.9335;
1192120627380887;-6.3191;0.7513;-3.4633;
1192120637485730;-5.4162;-0.4753;-2.1960;
1192120647590522;-9.6251;-0.6120;-1.6905;
1192120657687866;-13.6998;-0.6981;-2.7254;
1192120667792762;-8.7556;-0.7172;-4.6131;
1192120677897501;-6.5180;1.2951;-9.3419;
1192120688004220;-8.6620;0.3440;-4.7833;
1192120698109116;-8.9949;0.5859;2.3865;
1192120708213855;-12.8255;0.8949;-3.0296;
1192120718316303;-12.4493;1.6735;-4.8598;
1192120728421199;-11.4482;2.3707;-0.8617;
1192120738525991;-6.4439;1.3597;3.3855;
1192120748645314;-5.4473;0.6840;-0.3108;
1192120758750157;-12.9380;-0.3338;-7.7967;
1192120768854949;-12.6218;-0.8297;-3.7460;
1192120778937553;-8.5759;0.2961;-1.6355;
1192120789042345;-7.8523;0.4110;-1.2763;
1192120799147189;-7.3110;-0.6766;-0.6221;
1192120809273022;-8.1589;-0.4466;-3.5279;
1192120819377814;-11.7787;-0.2213;-7.3152;
1192120829482605;-13.3119;0.5764;-2.7757;
1192120839595574;-7.4285;1.1441;0.9302;
1192120849700418;-4.9875;0.2076;-3.0081;
1192120859805209;-9.7639;-0.3796;-5.2669;
1192120869927553;-12.1522;-0.0730;-4.0190;
1192120880032449;-10.2359;0.4807;-1.3863;
1192120890137189;-7.6848;0.5716;-0.8043;
1192120900229845;-10.0394;-0.2046;-2.0019;
1192120910334741;-9.8934;0.1379;-1.4390;
1192120920439480;-8.1948;0.7418;-2.5481;
1192120930537137;-10.4874;0.5477;-2.9172;
1192120940641980;-9.2850;0.2052;-0.8378;
1192120950746772;-8.8561;-0.0583;-3.7938;
1192120960872137;-10.2790;0.4878;-4.1124;
1192120970976980;-8.7891;0.5692;-2.0474;
1192120981081772;-8.7194;-0.2477;-2.2487;
1192120991157605;-9.9820;0.0159;-1.7647;
1192121001262449;-9.2731;-0.6502;-1.1731;
1192121011367189;-11.6973;0.0900;-2.1793;
1192121021462553;-11.7117;0.7175;-3.0990;
1192121031567449;-9.3449;0.3655;-0.2270;
1192121041672189;-4.8652;0.7175;0.6332;
1192121051781512;-8.1159;-0.3485;-6.4241;
1192121061886355;-13.2613;-0.3461;-5.7197;
1192121071991147;-9.2321;0.5859;-2.6034;
1192121082100105;-7.9241;0.7896;-0.8928;
1192121092204949;-8.4488;0.3655;-3.4155;
1192121102309741;-11.3904;-0.0778;-2.2152;
1192121112417397;-10.9068;0.4493;-0.8282;
1192121122522241;-8.7891;1.0651;-4.0358;
1192121132627032;-9.4454;1.2565;-3.8369;
1192121142722449;-5.9288;0.1140;-1.2568;
1192121152827345;-8.2071;-0.0826;-3.8656;
1192121162932137;-13.0890;0.0781;-3.9425;
1192121173049689;-12.6410;0.4301;-1.8200;
1192121183154480;-7.3277;0.5429;0.9996;
1192121193259272;-5.4233;0.0637;-2.4212;
1192121203351407;-11.2086;-0.6072;-4.1650;
1192121213456303;-11.2325;0.7032;-1.9971;
1192121223561095;-9.8647;0.7319;-3.7651;
1192121233671928;-10.9140;1.2975;-1.8727;
1192121243776772;-6.3553;0.4469;-0.5910;
1192121253881564;-6.4630;0.6912;-3.2644;
1192121263991355;-9.7280;-0.2812;-4.6370;
1192121274096199;-12.6218;0.8136;-3.1878;
1192121284200991;-10.5090;0.3846;-1.9277;
1192121294299689;-8.6405;1.0316;-2.5911;
1192121304404532;-7.7949;1.1441;-0.3849;
1192121314509324;-8.0871;0.7872;-4.0119;
1192121324620262;-12.3129;1.2254;-5.5208;
1192121334725105;-10.0609;1.2927;0.8967;
1192121344829845;-4.7216;0.7896;-0.9984;
1192121354934584;-9.6706;1.3621;-6.6135;
1192121365039428;-13.7166;0.5094;-2.8044;
1192121375144220;-8.2549;0.9284;0.5228;
1192121385245678;-7.1459;0.1762;-1.8535;
1192121395350522;-10.1904;0.3799;-5.1544;
1192121405455314;-11.3306;0.1570;-1.8751;
1192121415573855;-9.3185;0.8590;-1.1013;
1192121425678699;-8.4057;1.3765;-3.3314;
1192121435783491;-6.5659;0.1499;-1.8918;
1192121445871043;-7.7542;-0.3939;-2.7494;
1192121455975834;-9.0909;-0.5710;-3.9832;
1192121466080626;-11.8122;-0.3556;-4.5724;
1192121476196512;-8.9112;0.4564;-2.3423;
1192121486301355;-3.2746;0.3966;-3.2883;
1192121496406147;-11.6468;-0.3051;-4.2108;
1192121506503334;-23.3776;-0.4298;0.9996;
1192121516608178;-10.7988;2.5143;3.7448;
1192121526712970;-2.5295;3.7098;-1.1515;
1192121536815105;-5.3515;0.3894;-4.0621;
1192121546919949;-8.5807;-2.0157;-2.4356;
1192121557024741;-10.5209;-1.3017;-4.1985;
1192121567123803;-12.1690;-0.3314;-4.1602;
1192121577228647;-7.3926;-0.4298;-0.5312;
1192121587333491;-8.4488;-0.3556;-2.8044;
1192121597440209;-10.9211;-1.0167;-0.6365;
1192121607545053;-6.1875;-1.1749;0.9159;
1192121617649793;-10.7151;1.4243;-12.7289;
1192121627750574;-16.3469;1.5057;-9.9191;
1192121637855470;-7.1240;1.7237;7.3884;
1192121647960209;-4.3478;1.9729;2.5854;
1192121658094845;-9.9437;0.8255;-8.1224;
1192121668199741;-13.3837;-0.5495;-3.5566;
1192121678304532;-9.7137;0.5142;1.4163;
1192121688380834;-6.9589;0.7705;0.0823;
1192121698485678;-9.7232;-0.3123;-4.3232;
1192121708590470;-11.9680;0.1762;-3.3529;
1192121718720105;-9.8121;0.1786;-0.9790;
1192121728824949;-9.6826;1.3214;-4.0597;
1192121738929741;-9.0646;1.3047;-1.7910;
1192121749006980;-5.5481;0.3703;-1.1133;
1192121759111772;-7.7399;0.6697;-7.0564;
1192121769216616;-11.6877;0.1522;-4.4261;
1192121779353699;-10.2981;-0.0559;0.4032;
1192121789458543;-9.7639;0.7777;-1.8511;
1192121799563334;-8.9590;0.6864;-1.9229;
1192121809631355;-9.4693;0.7080;-1.5084;
1192121819736199;-11.6085;1.3813;-4.0119;
1192121829840939;-10.1186;1.1177;-1.8224;
1192121839951824;-7.3636;1.1824;-0.4208;
1192121850056668;-6.9446;1.0460;-3.8895;
1192121860161459;-10.1330;0.3176;-4.7545;
1192121870288699;-12.5285;0.4469;-1.3624;
1192121880393543;-9.0622;0.1762;0.4582;
1192121890498334;-9.2656;0.0422;-2.7781;
1192121900611512;-9.4478;0.2961;-2.7446;
1192121910716355;-8.8011;0.3870;-2.4141;
1192121920821147;-9.2010;0.5788;-4.4453;
1192121930921980;-8.7556;0.8830;-3.1158;
1192121941026772;-8.8107;0.6242;-2.0907;
1192121951131616;-7.1240;0.4831;-2.7733;
1192121961205574;-9.8767;0.2602;-4.6131;
1192121971310470;-12.0206;0.0350;-1.8320;
1192121981415262;-9.8647;0.8806;-0.8043;
1192121991530678;-9.8839;0.2937;-2.1099;
1192122001635522;-9.5438;1.0149;-2.1888;
1192122011740314;-10.9116;0.9978;-2.5504;
1192122021845209;-9.9915;1.3119;-1.7575;
1192122031950053;-8.2908;1.0388;-1.3146;
1192122042054845;-8.4658;0.6458;-1.2162;
1192122052157293;-6.4941;0.3631;-2.1936;
1192122062262189;-9.1986;-0.5016;-6.0574;
1192122072366980;-13.8724;-0.4274;-2.5768;
1192122082481355;-10.8251;0.0924;0.3817;
1192122092586199;-9.5124;1.0002;-2.4811;
1192122102690991;-8.1757;0.3488;-3.1591;
1192122112791928;-8.0632;0.6218;-3.4131;
1192122122896772;-10.3125;0.9787;-5.0468;
1192122133001512;-10.5114;0.8351;-2.0498;
1192122143133595;-10.9187;0.8399;0.4869;
1192122153238439;-6.2091;0.4373;-1.5924;
1192122163343282;-8.1999;0.1283;-4.7375;
1192122173420522;-10.6887;-0.1328;-2.7972;
1192122183525366;-8.8585;-0.6359;-3.3745;
1192122193630157;-12.4684;0.7513;-4.4501;
1192122203737709;-9.7878;-0.1400;-1.7985;
1192122213842553;-9.7472;1.2182;-3.0655;
1192122223947345;-8.7437;0.9021;-1.8392;
1192122234053178;-8.8107;0.6769;-1.4677;
1192122244158022;-8.4873;0.1235;-1.4605;
1192122254262762;-8.0082;-0.2405;-3.7436;
1192122264373959;-12.9404;0.2387;-3.6284;
1192122274478803;-11.3139;-0.6263;-0.8928;
1192122284583595;-7.5625;0.1403;-0.9550;
1192122294677605;-8.6285;-0.4729;-2.7182;
1192122304782449;-11.4000;-0.6981;-4.8455;
1192122314887241;-11.3665;0.5907;-2.3877;
1192122325005626;-8.9901;0.2865;-2.2893;
1192122335110470;-8.1900;1.1082;-0.7780;
1192122345215262;-7.5003;-0.5040;-2.5696;
1192122355314376;-8.3530;-0.1041;-4.0119;
1192122365419220;-10.4492;-0.4896;-3.5303;
1192122375524012;-9.9796;-0.1567;-3.0416;
1192122385612970;-10.4492;0.1211;-3.9063;
1192122395717866;-9.6347;0.5740;-1.4892;
1192122405822657;-9.0838;0.3679;-1.6235;
1192122415953282;-11.4529;1.5129;-3.8321;
1192122426058126;-10.4300;1.0484;-2.0067;
1192122436162970;-8.1470;0.5501;0.9996;
1192122446255001;-8.0776;0.1020;-3.1253;
1192122456359845;-8.3195;-0.0969;-4.3352;
1192122466464637;-9.4047;-0.1783;-2.3204;
1192122476568855;-10.7031;-0.7747;-2.9172;
1192122486673699;-11.0743;0.3129;-2.7541;
1192122496778491;-7.4931;0.2578;-1.3744;
1192122506877918;-7.0331;0.3535;-3.1253;
1192122516982762;-12.5022;0.7753;-5.1114;
1192122527087553;-12.2602;1.1776;-0.4570;
1192122537205678;-9.1460;1.2398;0.5563;
1192122547310574;-8.0321;1.8150;-2.4188;
1192122557415366;-8.5400;0.6003;-3.8895;
1192122567511095;-10.5712;0.2267;-2.0474;
1192122577615887;-8.8992;-0.0057;-1.9229;
1192122587720678;-9.8958;0.0972;-3.5997;
1192122597821459;-9.6156;0.6960;-2.4380;
1192122607926251;-9.7280;0.6793;-2.6967;
1192122618031147;-10.0466;1.4483;-2.4547;
1192122628130782;-8.7194;0.5548;-0.9984;
