Sensor: bmi160 Accelerometer Non-wakeup
Vendor: BOSCH
TimestampAcc [ns]; AccX [m/s^2]; AccY [m/s^2]; AccZ [m/s^2]
597518460808081;-9.5390;0.3894;-2.2726;
597518470936675;-9.5629;0.4038;-2.2175;
597518481065269;-9.5315;0.3894;-2.1123;
597518491185633;-9.5414;0.3631;-1.9923;
597518501282248;-9.5653;0.3511;-1.9732;
597518511413862;-9.5773;0.3823;-2.0545;
597518521510477;-9.5916;0.3846;-2.1051;
597518531625842;-9.5701;0.4014;-2.1290;
597518541722456;-9.5510;0.4349;-2.1482;
597518551859956;-9.5605;0.4588;-2.1625;
597518561965425;-9.5172;0.4540;-2.1194;
597518572068029;-9.5076;0.5094;-2.1099;
597518582121258;-9.5267;0.5477;-2.0859;
597518592273237;-9.5172;0.5405;-2.0716;
597518602402404;-9.5414;0.5524;-2.0740;
597518612540685;-9.5773;0.5620;-2.0234;
597518622555529;-9.5725;0.5931;-2.0931;
597518632664331;-9.5629;0.6099;-2.1099;
597518642756675;-9.5366;0.5812;-2.1003;
597518652891779;-9.5076;0.5835;-2.1338;
597518662995425;-9.5148;0.5907;-2.1410;
597518673134019;-9.4980;0.5429;-2.1170;
597518683186414;-9.4884;0.5572;-2.1338;
597518693317300;-9.5438;0.5405;-2.1338;
597518703404644;-9.5557;0.4759;-2.1290;
597518713521102;-9.5581;0.4110;-2.1027;
597518723636414;-9.5342;0.3631;-2.1649;
597518733756519;-9.5414;0.2865;-2.1840;
597518743816831;-9.5581;0.1881;-2.1769;
597518753943602;-9.5581;0.1164;-2.2175;
597518764039279;-9.5342;0.0541;-2.2319;
597518774167300;-9.5462;0.0278;-2.2391;
597518784236623;-9.5438;0.0135;-2.2822;
597518794348185;-9.5390;0.0278;-2.2869;
597518804445946;-9.5462;0.0135;-2.2415;
597518814588706;-9.5653;0.0135;-2.2128;
597518824663289;-9.5605;0.0087;-2.2056;
597518834766102;-9.5749;0.0254;-2.1793;
597518844871727;-9.5868;0.0254;-2.1817;
597518855004539;-9.6012;0.0613;-2.2008;
597518865082456;-9.5797;0.0613;-2.2510;
597518875185373;-9.5315;0.0470;-2.2869;
597518885286935;-9.4932;0.0805;-2.3157;
597518895406675;-9.4980;0.0541;-2.2917;
597518905503758;-9.5219;0.0302;-2.2869;
597518915610529;-9.5172;0.0326;-2.2702;
597518925717925;-9.5342;0.0733;-2.2965;
597518935821258;-9.5629;0.0805;-2.2989;
597518945927821;-9.5581;0.0829;-2.3276;
597518956029175;-9.5390;0.0565;-2.3590;
597518966137300;-9.4837;0.0613;-2.3901;
597518976230789;-9.5052;0.0876;-2.2893;
597518986341050;-9.5605;0.0876;-2.2965;
597518996445998;-9.5462;0.1307;-2.2845;
597519006546102;-9.5677;0.1953;-2.2415;
597519016654852;-9.5390;0.3033;-2.3013;
597519026765321;-9.5243;0.3607;-2.2941;
597519036865998;-9.4932;0.3775;-2.4045;
597519046973237;-9.4334;0.4926;-2.4236;
597519057078758;-9.4358;0.5955;-2.4356;
597519067186050;-9.4454;0.6338;-2.4117;
597519077283081;-9.4549;0.7199;-2.3614;
597519087387925;-9.4837;0.7537;-2.2750;
597519097496154;-9.5100;0.7944;-2.2391;
597519107597508;-9.4908;0.8040;-2.2056;
597519117722508;-9.4789;0.8088;-2.2152;
597519127825269;-9.4717;0.8040;-2.2630;
597519137894904;-9.4693;0.7633;-2.3542;
597519148022092;-9.4789;0.7056;-2.4284;
597519158128446;-9.4310;0.6888;-2.4188;
597519168231362;-9.4214;0.6553;-2.4308;
597519178337508;-9.4645;0.6123;-2.4021;
597519188440112;-9.5100;0.5644;-2.3495;
597519198549487;-9.4932;0.4878;-2.3471;
597519208652404;-9.5195;0.4373;-2.3806;
597519218762248;-9.5342;0.3535;-2.4069;
597519228865425;-9.5076;0.2794;-2.5146;
597519238960477;-9.4669;0.2411;-2.5026;
597519249070842;-9.4502;0.2243;-2.4835;
597519259173654;-9.4741;0.2530;-2.5433;
597519269276154;-9.5195;0.2243;-2.5552;
597519279375946;-9.5052;0.2650;-2.5433;
597519289485321;-9.5124;0.2841;-2.5504;
597519299592196;-9.5028;0.2770;-2.5313;
597519309699071;-9.4741;0.2674;-2.5528;
597519319809279;-9.4717;0.2363;-2.4523;
597519329910529;-9.4813;0.2243;-2.4308;
597519340010373;-9.4549;0.2100;-2.5193;
597519350125529;-9.4860;0.1786;-2.5768;
597519360223237;-9.4980;0.1522;-2.6177;
597519370328758;-9.4190;0.1738;-2.6680;
597519380449175;-9.4023;0.1187;-2.7015;
597519390551467;-9.5052;0.0446;-2.7111;
597519400645998;-9.6132;0.0135;-2.5720;
597519410749279;-9.6132;0.0876;-2.4069;
597519420817977;-9.5653;0.1140;-2.2869;
597519430955946;-9.5486;0.1092;-2.3782;
597519441062352;-9.5438;0.0374;-2.5146;
597519451161831;-9.4932;0.0039;-2.6608;
597519461288706;-9.4573;0.0302;-2.7470;
597519471367196;-9.4454;0.0876;-2.7781;
597519481473810;-9.3784;0.0972;-2.6919;
597519491579123;-9.3760;0.1522;-2.7398;
597519501679696;-9.3784;0.2076;-2.7374;
597519511785581;-9.2803;0.3033;-2.5720;
597519521886727;-9.2465;0.3918;-2.5624;
597519531987039;-9.3114;0.4301;-2.6752;
597519542096779;-9.3138;0.4588;-2.7063;
597519552204331;-9.4119;0.5644;-2.9483;
597519562346779;-9.6538;0.5548;-3.0535;
597519572441883;-9.6060;0.4421;-2.7589;
597519582517404;-9.4238;0.4998;-2.5696;
597519592629800;-9.5462;0.5070;-2.5289;
597519602722821;-9.5581;0.4205;-2.5504;
597519612849279;-9.3209;0.3751;-2.5528;
597519622936467;-9.2010;0.3200;-2.6560;
597519633079487;-9.5821;0.1427;-2.9387;
597519643154800;-9.7759;-0.0945;-2.9291;
597519653258185;-9.5677;-0.1878;-2.8908;
597519663361571;-9.2465;-0.2046;-3.0176;
597519673453394;-9.0742;-0.3027;-3.1325;
597519683556727;-9.1316;-0.3338;-3.0105;
597519693660112;-9.3185;-0.1974;-2.7781;
597519703770373;-9.6873;0.0039;-2.5911;
597519713873706;-9.7424;0.2674;-2.5265;
597519723977092;-9.5390;0.6745;-2.7541;
597519734110633;-9.2441;0.8351;-2.8235;
597519744214019;-9.0239;0.9212;-2.7948;
597519754317404;-8.8657;1.0149;-2.7063;
597519764425946;-8.9088;1.2685;-2.6967;
597519774529331;-9.3066;1.5153;-2.9770;
597519784632717;-9.7184;1.5395;-3.0870;
597519794749175;-9.8862;1.4028;-2.7015;
597519804852560;-9.4860;1.4889;-2.3252;
597519814955946;-9.1508;1.6256;-2.3375;
597519825038394;-9.3209;1.6615;-2.9124;
597519835141727;-9.5581;1.4459;-3.2644;
597519845245112;-9.3305;1.0651;-2.9985;
597519855370321;-8.5472;1.5921;-4.5054;
597519865473706;-8.9782;0.3775;-2.3447;
597519875577092;-9.0933;1.1273;-3.7962;
597519885688342;-8.9877;0.9093;-4.0478;
597519895791727;-9.3377;0.3966;-4.2610;
597519905895112;-9.9102;0.3153;-2.9148;
597519915992404;-10.0418;0.9069;-1.2114;
597519926095789;-9.6682;2.1239;-1.8918;
597519936199175;-8.7099;2.1814;-1.6834;
597519946295373;-8.3770;3.1346;-2.8427;
597519956398706;-8.8179;3.8701;-5.3175;
597519966502092;-8.6357;3.8509;-5.9856;
597519976613862;-8.2334;2.8759;-5.0492;
597519986717248;-9.2874;2.0833;-4.1028;
597519996820633;-9.5749;1.7859;-2.9841;
597520006928289;-9.2898;2.0447;-2.2199;
597520017031675;-9.2608;2.7012;-2.7733;
597520027135060;-9.2058;3.0054;-3.0272;
597520037240998;-9.6299;2.6581;-2.5624;
597520047344331;-10.0322;2.2244;-2.2774;
597520057447717;-9.1316;2.8857;-2.9530;
597520067557664;-7.7830;3.2833;-3.4537;
597520077660998;-8.5184;3.3120;-3.7962;
597520087764383;-9.5821;3.2474;-3.7053;
597520097886362;-9.3281;3.2593;-3.3505;
597520107989748;-9.7567;3.1804;-3.4466;
597520118093133;-9.4980;3.4343;-3.9302;
597520128201987;-8.8394;3.8103;-4.1363;
597520138305373;-8.7748;3.2952;-3.0894;
597520148408758;-8.7171;2.3803;-1.5781;
597520158489435;-8.8466;1.8628;-1.4174;
597520168592769;-8.7171;2.2890;-2.2989;
597520178696154;-9.5438;2.9480;-3.9230;
597520188811831;-10.1426;3.2115;-3.9135;
597520198915164;-9.0000;2.2795;-2.2558;
597520209018550;-8.9231;1.3597;-1.2114;
597520219135737;-10.2646;1.5344;-2.9243;
597520229239175;-8.9423;1.9490;-2.9530;
597520239342560;-8.1876;2.0856;-2.8475;
597520249440008;-8.9255;2.4042;-3.7555;
597520259543394;-9.7304;1.5730;-2.8259;
597520269646779;-9.3520;0.8207;-2.0354;
597520279751623;-8.8394;1.0795;-2.8259;
597520289835529;-9.7161;2.1718;-4.8622;
597520299938914;-9.9963;1.6711;-3.7747;
597520310042300;-9.4884;0.5189;-1.0630;
597520320183029;-8.5950;0.0661;-0.7540;
597520330286414;-8.9495;1.2637;-3.7101;
597520340389800;-9.1651;2.4879;-4.6753;
597520350493237;-9.1436;1.7620;-3.0775;
597520360596623;-9.8216;1.2855;-2.9626;
597520370700008;-9.5533;1.6878;-3.6476;
597520380823029;-9.2707;2.3683;-3.8560;
597520390926414;-9.2249;2.1550;-3.1277;
597520401029800;-9.1555;1.0340;-1.7575;
597520411123446;-9.3257;1.4076;-2.5265;
597520421226831;-9.1125;1.5443;-3.7268;
597520431330217;-9.3090;2.2364;-4.1722;
597520441458446;-9.4358;2.0590;-3.2524;
597520451561831;-9.9461;1.4315;-2.0521;
597520461665217;-8.8179;1.5105;-2.1793;
597520471741519;-8.4392;1.9825;-3.4633;
597520481844852;-9.3951;2.1168;-4.2227;
597520491948237;-10.0561;1.8724;-3.7053;
597520502063133;-9.8815;1.7094;-2.9865;
597520512166519;-8.5639;1.8413;-3.0105;
597520522269956;-8.7987;1.9561;-3.5136;
597520532389539;-9.8982;0.9069;-3.3553;
597520542492925;-7.3660;1.6400;-2.2965;
597520552596310;-3.1765;2.8759;-3.7220;
597520562679904;-10.8562;3.9565;-7.0636;
597520572783237;-15.3598;2.8687;-5.1257;
597520582886623;-10.5832;3.2545;-3.1400;
597520593015321;-8.7604;3.4029;-3.9206;
597520603118706;-7.0307;1.7261;-0.9766;
597520613222092;-6.1804;1.5849;0.8366;
597520623333654;-7.4836;2.2819;-0.4714;
597520633437039;-10.4324;2.7634;-1.9349;
597520643540425;-10.6146;3.6712;-2.3423;
597520653658654;-7.5912;5.3339;-2.3447;
597520663762039;-7.4644;6.2177;-3.3458;
597520673865425;-9.4741;5.4224;-2.4236;
597520683963342;-9.0407;4.9241;-1.2715;
597520694066727;-8.4272;5.4368;-2.9052;
597520704170112;-9.2584;5.2980;-4.8479;
597520714265529;-11.0886;5.2092;-4.4767;
597520724368914;-9.5100;3.7863;-2.3758;
597520734472300;-6.7170;2.5789;-3.3553;
597520744580321;-8.4081;0.1331;-4.3065;
597520754683706;-10.5233;-2.8684;-2.9650;
597520764787092;-8.2358;-4.6842;-2.2152;
597520774901258;-7.7088;-6.2222;-3.5351;
597520785004644;-11.2253;-8.1888;-3.7388;
597520795108029;-11.0743;-9.5495;-2.1864;
597520805205373;-7.9819;-9.0942;-2.1888;
597520815308706;-9.3784;-9.0942;-3.6571;
597520825412092;-11.6516;-8.9937;-3.5399;
597520835521727;-10.1761;-7.7240;-2.6536;
597520845625060;-9.1149;-6.5192;-3.0296;
597520855728446;-10.2622;-5.3979;-3.8058;
597520865838289;-10.0442;-4.9167;-2.7805;
597520875941675;-8.9686;-3.9033;-2.7326;
597520886045060;-9.9293;-3.0434;-3.3051;
597520896156987;-10.3893;-2.7511;-1.9588;
597520906260373;-8.2167;-2.1999;-1.7599;
597520916363758;-8.3195;-1.8766;-3.0153;
597520926465373;-9.9820;-1.1749;-3.4202;
597520936568706;-8.9447;-0.3075;-2.8570;
597520946672092;-8.0082;0.0470;-3.9087;
597520956783342;-8.9518;0.6553;-4.8574;
597520966886727;-9.2755;1.2832;-4.2562;
597520976990112;-8.4033;1.3358;-3.9206;
597520987099383;-8.9614;1.2565;-4.0669;
597520997202769;-9.0120;1.6113;-3.6814;
597521007306154;-8.7147;2.1407;-3.5471;
597521017412300;-9.3784;1.6926;-3.3960;
597521027515685;-9.5267;1.3262;-2.9961;
597521037619071;-8.3052;1.6711;-2.9818;
597521047726623;-8.4009;1.6328;-3.8177;
597521057829956;-9.8456;1.4363;-4.9316;
597521067933342;-9.5749;1.6161;-4.8455;
597521078039539;-8.0943;1.7094;-4.9723;
597521088142873;-9.7328;1.0484;-5.6169;
597521098246258;-9.6969;1.7716;-4.4429;
597521108372196;-7.5769;1.9107;-2.8908;
597521118475581;-8.2478;1.1895;-4.4022;
597521128578967;-9.2779;1.2063;-4.6657;
597521138690737;-8.1565;1.6926;-4.4381;
597521148794071;-9.1125;1.2470;-5.2768;
597521158897456;-10.0923;1.1824;-5.2549;
597521168984956;-7.9098;1.0675;-4.5197;
597521179088342;-8.7700;0.3320;-5.1832;
597521189191727;-9.1268;0.0709;-4.5245;
597521199295060;-7.7207;0.0278;-5.0803;
597521209398394;-9.9509;-0.7172;-5.4682;
597521219501779;-8.4802;0.2506;-4.3926;
597521229610164;-7.3564;-0.0392;-4.9795;
597521239713498;-10.5927;-0.1137;-5.0252;
597521249816883;-8.0800;0.1953;-3.5064;
597521259962196;-8.2071;-0.7603;-4.3591;
597521270065581;-9.9556;-1.2323;-4.2754;
597521280168967;-9.0000;-1.2179;-4.1028;
597521290238862;-9.9030;-1.9558;-4.9986;
597521300343602;-8.4464;-1.6681;-3.6045;
597521310448342;-8.8681;-2.1114;-4.8024;
597521320557925;-10.1976;-1.8455;-5.1425;
597521330662664;-8.6548;-2.0803;-3.3817;
597521340767404;-8.4033;-2.3892;-4.1339;
597521350867925;-8.0895;-2.7173;-3.7531;
597521360972664;-9.5653;-2.5762;-4.2921;
597521371077404;-9.2707;-2.2170;-4.4692;
597521381211050;-9.0574;-1.8718;-4.2156;
597521391315789;-8.8274;-0.7292;-4.4094;
597521401420529;-8.7290;0.3320;-3.0464;
597521411501571;-9.5124;2.5262;-2.7302;
597521421606310;-8.1781;3.0580;-2.7446;
597521431711050;-10.6170;3.4989;-4.6370;
597521441809696;-10.7198;3.4630;-4.1985;
597521451914435;-10.0490;1.6878;-3.4585;
597521462019175;-8.8609;1.1154;-3.3099;
597521472129071;-8.3172;-0.1926;-3.6404;
597521482233810;-8.8848;0.7896;-4.7303;
597521492338550;-7.7638;0.3775;-4.4767;
597521502499592;-8.6261;1.1847;-5.7724;
597521512604331;-8.9088;0.6362;-3.3984;
597521522709071;-9.3592;0.8782;-3.5423;
597521532737196;-8.1015;0.5142;-2.8403;
597521542841935;-10.6911;-0.0248;-3.4561;
597521552946675;-9.7519;0.7657;-3.2477;
597521563113550;-10.1450;-0.1783;-3.0894;
597521573218289;-9.1484;0.9165;-3.0176;
597521583323029;-9.0144;0.0781;-2.2032;
597521593390842;-9.9437;0.7128;-3.3553;
597521603495581;-10.0923;-0.6837;-2.1912;
597521613600321;-9.2321;-0.1280;-3.1878;
597521623691467;-9.2608;-1.3400;-2.8355;
597521633796206;-9.6945;-0.8417;-3.9975;
597521643900946;-9.8862;-1.8168;-3.4107;
597521654031467;-8.9662;-2.0180;-3.3888;
597521664136206;-8.7051;-2.7030;-2.9243;
597521674240946;-9.6156;-1.7809;-4.0430;
597521684329800;-9.5267;-1.8000;-3.5830;
597521694434539;-9.9006;-0.0754;-3.9401;
597521704539279;-8.4296;-0.4944;-1.9540;
597521714670946;-9.5940;-0.6861;-2.2175;
597521724775685;-9.2393;-0.5088;-2.1386;
597521734880425;-10.7007;0.5453;-3.4681;
597521744954539;-9.8049;0.2913;-2.4212;
597521755059279;-9.0407;0.4301;-3.0583;
597521765164019;-7.0690;-0.2166;-4.1507;
597521775294175;-9.4238;0.0039;-6.3643;
597521785398914;-9.1364;-0.5877;-4.7952;
597521795503654;-8.8872;-0.5973;-4.8766;
597521805617196;-8.0249;-1.2562;-4.6609;
597521815721935;-9.6993;-0.6885;-4.4743;
597521825826675;-9.0814;-1.7067;-3.7316;
597521835894487;-9.3951;-1.7952;-3.8824;
597521845999227;-9.1053;-1.5173;-3.3673;
597521856103967;-8.7290;-0.8970;-4.4285;
597521866229800;-9.6586;-0.8803;-3.9832;
597521876334539;-9.2345;-0.9353;-3.9520;
597521886439279;-9.6347;-1.7426;-3.4968;
597521896540737;-9.5701;-0.9473;-4.4668;
597521906645477;-10.5808;-1.3472;-4.0502;
597521916750217;-10.0851;-1.5054;-3.7149;
597521926846206;-9.5773;-1.5461;-3.0607;
597521936950946;-7.6152;-2.0109;-3.7005;
597521947055685;-9.3209;-0.8731;-5.8083;
597521957162821;-9.7304;-1.3089;-5.4897;
597521967267560;-8.8992;-0.8560;-4.4213;
597521977372300;-8.9255;-2.1425;-2.8164;
597521987476050;-8.8585;-2.3605;-2.3204;
597521997580789;-9.8527;-2.0468;-3.4011;
597522007685529;-9.4525;-1.0621;-4.5006;
597522017792196;-9.9580;-0.6239;-3.5758;
597522027896935;-8.9686;-0.7747;-2.9602;
597522038001675;-8.7580;-0.1831;-4.1889;
597522048107612;-10.0708;-0.4633;-3.5279;
597522058212352;-8.7604;-0.0706;-2.5457;
597522068317092;-9.4789;0.2267;-2.9841;
597522078426362;-9.8910;0.1522;-3.4753;
597522088531102;-9.5797;0.1618;-2.6895;
597522098635842;-8.8202;0.2411;-2.6560;
597522108751779;-8.4464;0.7295;-3.9063;
597522118856519;-9.2656;0.4636;-4.1650;
597522128961258;-9.8480;0.2937;-3.4178;
597522139082925;-9.2898;0.3248;-2.9841;
597522149187664;-9.2369;0.3057;-3.1472;
597522159292404;-9.6586;0.6458;-2.9913;
597522169365477;-9.8121;0.2578;-2.3399;
597522179470217;-8.7171;0.3918;-2.7685;
597522189574956;-9.6778;0.6458;-3.4896;
597522199684175;-10.2790;0.6960;-4.5796;
597522209788914;-9.6108;1.0026;-4.6226;
597522219893654;-9.0072;0.4445;-1.9038;
597522229993862;-9.0694;0.3248;-1.8248;
597522240098602;-10.2981;0.0900;-3.0511;
597522250203342;-9.6371;-0.5518;-3.3003;
597522260298862;-9.0885;-1.1390;-2.2534;
597522270403602;-8.3554;-1.5485;-2.6560;
597522280508342;-8.4969;-0.7962;-4.6202;
597522290616623;-9.4884;-1.4264;-4.4767;
597522300721467;-8.8872;-2.3366;-2.9100;
597522310826258;-9.0287;-1.4599;-3.7962;
597522320949383;-9.8623;-1.5413;-4.6896;
597522331054175;-8.9853;-1.0119;-3.8632;
597522341158967;-9.0933;-0.0081;-3.5016;
597522351254748;-9.1196;-0.3099;-2.9315;
597522361359592;-9.7998;-0.5710;-2.6201;
597522371464435;-10.0490;-0.7579;-2.2654;
597522381595789;-9.2082;-0.7986;-3.1062;
597522391700633;-9.3544;-0.0607;-4.2514;
597522401805425;-9.0574;-0.3508;-3.7555;
597522411886623;-8.5424;-0.1161;-4.1363;
597522421991414;-9.2994;-0.2835;-4.6442;
597522432096258;-9.6826;-0.2189;-4.4333;
597522442224383;-9.7567;0.3464;-4.5054;
597522452329175;-9.0766;-0.0778;-2.1673;
597522462434019;-8.5041;-0.2022;-1.7288;
597522472519331;-9.7496;0.6051;-5.2911;
597522482624175;-10.2622;0.3511;-3.8943;
597522492728967;-9.1268;0.3703;-2.1888;
597522502829539;-8.7891;1.1536;-3.6814;
597522512934383;-8.8083;0.6817;-3.4442;
597522523039175;-8.5902;0.5979;-3.3960;
597522533175894;-9.0072;0.7175;-4.1243;
597522543280685;-9.6897;0.4902;-3.9712;
597522553385529;-9.7974;0.5022;-4.0908;
597522563452456;-8.8083;0.1235;-2.4332;
597522573557300;-8.8681;-0.0778;-2.6441;
597522583662092;-9.4119;0.1881;-4.2443;
597522593796154;-9.5414;-0.1974;-2.8908;
597522603900998;-8.7461;-0.1065;-2.5385;
597522614005842;-8.3722;0.1738;-4.6274;
597522624112977;-8.5759;-0.3075;-4.2299;
597522634217821;-8.6644;-0.6885;-4.0765;
597522644322664;-9.6443;-0.6933;-4.7136;
597522654419539;-10.1713;-0.9927;-3.2812;
597522664524383;-8.9160;-1.2156;-2.3375;
597522674629175;-8.7242;-1.3663;-1.5541;
597522684708602;-8.7389;-1.7713;-2.4715;
597522694813498;-9.8384;-1.4551;-4.1626;
597522704918289;-10.8132;-1.4480;-3.7077;
597522715075633;-9.9556;-1.1749;-2.0931;
597522725180425;-8.0919;-0.6311;-2.6441;
597522735285269;-8.5854;-0.1663;-4.5197;
597522745354800;-9.5916;-0.8130;-3.7436;
597522755459644;-9.0000;-0.3939;-4.2562;
597522765564435;-10.2239;-0.2620;-4.3017;
597522775669696;-9.6395;-0.2812;-2.0716;
597522785774487;-8.8059;-0.2931;-3.0464;
597522795879279;-9.0742;0.0781;-2.7733;
597522805997144;-8.8681;-0.1807;-3.0009;
597522816101987;-9.9197;-0.2261;-3.8584;
597522826206831;-9.7352;0.0446;-2.9841;
597522836299539;-9.3257;-0.2716;-2.6345;
597522846404383;-9.0096;-0.2237;-2.6776;
597522856509123;-8.8513;0.1762;-3.3458;
597522866623394;-9.8408;-0.1352;-2.6034;
597522876728237;-8.9590;-0.2716;-2.8235;
597522886833029;-8.3650;-0.4059;-2.0450;
597522896946154;-9.1531;-0.9544;-3.0105;
597522907050946;-9.7759;-0.6837;-5.0420;
597522917155789;-9.5533;-0.6646;-2.9937;
597522927244487;-8.5065;-1.2491;-2.5504;
597522937349331;-8.2932;-0.8369;-3.8584;
597522947454123;-8.8298;-0.4322;-4.6035;
597522957552717;-10.1665;-0.9927;-3.4035;
597522967657560;-8.8274;-0.7986;-3.7555;
597522977762352;-9.4382;-0.2309;-3.9808;
597522987869904;-10.2311;-0.2524;-2.8116;
597522997974748;-8.6788;-0.5758;-2.5600;
597523008079539;-8.0728;-0.2931;-2.7685;
597523018188029;-9.6610;-0.9425;-4.0262;
597523028292873;-9.9796;-0.8536;-3.2883;
597523038397664;-8.0704;-0.6383;-3.9712;
597523048510112;-9.2345;-0.8707;-3.8489;
597523058614956;-8.5472;-1.7689;-3.8560;
597523068719748;-9.0622;-0.9903;-4.4548;
597523078823862;-9.5100;-0.7914;-5.1114;
597523088928706;-9.7161;-1.0095;-2.8618;
597523099033498;-8.2597;-0.6263;-2.8355;
597523109132821;-9.5557;-0.5973;-3.3242;
597523119237612;-10.3125;-0.6646;-3.7914;
597523129342404;-9.9174;-0.5327;-2.6417;
597523139419019;-7.5745;-0.1807;-3.0033;
597523149523862;-8.6931;-0.7962;-3.5949;
597523159628706;-8.9183;-1.3950;-3.7220;
597523169765321;-8.3626;-0.9473;-3.6523;
597523179870164;-8.8131;-1.1195;-5.1042;
597523189974956;-9.4310;-1.4815;-4.0741;
597523200081987;-8.6836;-1.4982;-3.0105;
597523210186831;-8.5998;-0.8827;-2.4212;
597523220291571;-9.1962;-1.3256;-3.3984;
597523230400425;-10.7127;-0.8731;-3.0081;
597523240505217;-9.9509;-0.4968;-2.0668;
597523250610060;-9.2946;-0.4537;-1.5132;
597523260723498;-9.2970;-1.1148;-2.7709;
597523270828342;-9.6060;-0.3867;-2.9148;
597523280933133;-9.8360;0.2171;-3.6332;
597523291018081;-9.3688;-0.2070;-2.7135;
597523301123133;-8.4849;-0.3796;-3.3147;
597523311228133;-9.1268;-0.3314;-4.4189;
597523321332821;-11.1341;-0.2835;-3.9182;
597523331437821;-8.8418;-0.4561;-2.9746;
597523341542821;-7.8787;0.2219;-3.9278;
597523351641935;-8.8848;0.4735;-4.6394;
597523361746987;-9.2082;0.5118;-3.0009;
597523371851987;-8.3267;0.3727;-4.2514;
597523381959748;-9.2130;0.9571;-5.1401;
597523392064800;-10.3173;1.2015;-4.0167;
597523402169800;-8.5496;0.7223;-2.4978;
597523412269904;-8.2478;0.3679;-3.1325;
597523422374904;-9.2827;0.2001;-4.3448;
597523432479904;-10.4157;-0.3508;-3.1807;
597523442586414;-9.5749;-1.4551;-2.8765;
597523452691467;-7.4644;-1.5054;-4.0095;
597523462796497;-8.7461;-1.5508;-6.5821;
597523472954049;-10.3774;-2.1162;-5.6671;
597523483059101;-9.1316;-2.1688;-3.3266;
597523493164101;-8.4706;-2.5738;-2.9530;
597523503212069;-8.7556;-2.8062;-3.5590;
597523513317122;-11.2684;-2.8014;-3.3769;
597523523422122;-9.4143;-3.3308;-2.4069;
597523533542278;-7.0929;-3.2973;-3.1711;
597523543647330;-9.0526;-3.5151;-5.2214;
597523553752330;-10.1713;-3.6039;-4.8144;
597523563842174;-10.0298;-3.2901;-3.9616;
597523573947226;-9.2321;-3.7714;-4.8694;
597523584052226;-8.8370;-2.3366;-3.8273;
597523594176340;-7.4836;-0.8225;-1.5661;
597523604281392;-8.5137;-0.8970;-3.4609;
597523614386392;-9.7807;-0.0607;-5.3222;
597523624494257;-9.4214;1.2661;-4.1650;
597523634599309;-8.1924;1.1417;-4.7474;
597523644704309;-8.0608;1.4004;-5.4634;
597523654820247;-10.6074;1.0771;-6.4600;
597523664925299;-10.8562;0.7394;-3.5566;
597523675030299;-9.0790;0.2865;-1.1683;
597523685103528;-9.3066;0.5572;-3.0942;
597523695208580;-9.8504;0.0541;-2.5050;
597523705313580;-8.1589;-0.4753;-2.0258;
597523715429986;-7.8188;-0.2333;-2.6177;
597523725535038;-8.3124;-0.7412;-4.7976;
597523735640038;-8.7003;0.2913;-4.8718;
597523745753111;-9.2201;0.6625;-4.5102;
597523755858163;-9.2850;1.1225;-3.4585;
597523765963163;-9.1819;1.1919;-2.3109;
597523776068684;-10.1043;0.9380;-2.7302;
597523786173736;-10.3391;1.8365;-1.7695;
597523796278736;-10.3606;1.7955;-3.1543;
597523806369517;-9.9221;1.7429;-1.2401;
597523816474569;-9.0024;0.4612;-1.2715;
597523826579569;-9.5438;1.0819;-3.2931;
597523836691549;-10.2048;1.1608;-4.0143;
597523846796601;-9.2489;0.7199;-0.7636;
597523856901601;-8.0297;-0.0153;-1.7336;
597523867013632;-9.5291;-0.8417;-3.7771;
597523877118684;-9.2922;-1.0741;-3.2620;
597523887223736;-8.6644;-0.5207;-3.8536;
597523897301549;-9.3473;-0.0682;-2.7637;
597523907406601;-8.7604;-0.6431;-3.1038;
597523917511601;-9.5438;-0.3772;-2.0282;
597523927648632;-9.4406;-0.8874;-2.1864;
597523937753684;-8.9638;-0.1902;-1.8679;
597523947858684;-9.1268;-0.6311;-2.2223;
597523957950351;-10.3125;-0.5255;-2.4643;
597523968055403;-9.7974;-0.4035;-2.6082;
597523978160455;-9.4167;-0.2907;-4.5030;
597523988263267;-8.9542;-0.0320;-3.1615;
597523998368319;-9.5557;0.2483;-4.8574;
597524008473319;-10.3582;0.6984;-4.1459;
597524018580611;-10.3292;0.0015;-2.2223;
597524028685663;-9.8025;0.1044;-0.5480;
597524038790663;-10.0155;-0.0826;-2.1697;
597524048900403;-9.2707;-0.6215;-2.9818;
597524059005455;-7.9050;-0.3652;-2.2558;
597524069110455;-8.5615;-0.9497;-3.5901;
597524079207903;-9.0933;-0.8177;-3.2596;
597524089312955;-8.8274;-0.8707;-4.9292;
597524099417955;-9.3879;-0.5710;-4.5748;
597524109512694;-8.7461;-0.5973;-4.0430;
597524119617747;-8.4368;-0.0583;-3.4442;
597524129722747;-10.0107;-0.3508;-2.9267;
597524139809205;-10.0298;-0.1854;-1.9732;
597524149914205;-8.6979;0.0733;-2.9961;
597524160019205;-8.9566;0.2315;-4.2658;
597524170155299;-8.3602;0.4397;-4.2443;
597524180260351;-9.8145;0.5955;-5.1329;
597524190365351;-10.3774;0.8303;-3.2166;
597524200455403;-9.1268;0.2626;-2.0186;
597524210560455;-10.1354;-0.0129;-3.1615;
597524220665455;-11.0073;-0.8082;-2.2917;
597524230784257;-9.7902;-0.5255;-2.5002;
597524240889309;-9.0598;-0.0416;-3.2668;
597524250994309;-9.0215;-0.5399;-3.1831;
597524261107382;-9.1508;-0.0631;-2.8837;
597524271212434;-10.2215;-0.2979;-4.0813;
597524281317434;-9.6419;0.0206;-2.0186;
597524291401601;-8.3842;-0.3027;-2.6082;
597524301506549;-8.3219;-0.1496;-3.3864;
597524311611444;-8.4921;-0.1161;-4.2969;
597524321728528;-8.8131;0.2746;-4.4501;
597524331833476;-8.8394;0.2746;-4.6537;
597524341938372;-9.6467;0.0039;-4.7880;
597524352016028;-10.4755;0.2243;-3.1110;
597524362120976;-10.2503;0.0446;-1.6283;
597524372225924;-9.4573;-0.0320;-0.5312;
597524382387017;-9.7543;0.1379;-2.7852;
597524392491913;-10.4898;-0.1663;-3.3003;
597524402596861;-8.3100;-0.6191;-2.7829;
597524412637747;-8.0656;0.1403;-4.4094;
597524422742642;-9.0048;0.4253;-4.7928;
597524432847538;-9.2874;0.1499;-4.6274;
597524442990715;-9.8145;-0.1161;-4.9029;
597524453095611;-9.3951;-0.0778;-3.2572;
597524463200559;-8.4993;-0.4657;-1.8990;
597524473283424;-9.3544;-0.7244;-2.5433;
597524483388372;-10.1402;-0.8731;-3.6766;
597524493493267;-8.8872;-1.0190;-2.9339;
597524503589153;-8.5878;-0.8297;-2.9363;
597524513694101;-9.2154;-0.6526;-4.0813;
597524523798997;-10.0923;-0.6096;-3.9592;
597524533915090;-9.7974;-0.7555;-2.0836;
597524544020038;-9.8839;-0.4872;-2.0282;
597524554124934;-8.8705;0.0350;-3.7484;
597524564221549;-9.9556;-0.5614;-4.9268;
597524574326497;-7.8188;-0.4250;-3.6571;
597524584431392;-8.2143;-0.1304;-3.8321;
597524594558163;-9.1484;-0.6526;-4.0023;
597524604663111;-9.4693;-0.8106;-3.5327;
597524614768007;-10.3630;-0.5160;-2.9746;
597524624858215;-9.1771;-0.9449;-1.8176;
597524634963163;-9.0550;-0.8297;-1.9660;
597524645068111;-9.7543;-0.5399;-2.5217;
597524655168528;-10.1833;-0.4896;-3.1591;
597524665273476;-9.4717;-0.5662;-2.6608;
597524675378372;-8.4105;-0.2094;-2.8044;
597524685488944;-9.4047;0.2243;-4.6490;
597524695593892;-8.9710;0.0685;-3.9855;
597524705698788;-8.4081;-0.0464;-2.7494;
597524715816028;-9.0957;0.1116;-4.3041;
597524725920976;-9.6108;-0.1567;-4.4453;
597524736025872;-8.6022;-0.6144;-2.9937;
597524746129986;-8.7437;-0.3194;-3.1902;
597524756234934;-9.0909;-0.8369;-2.5648;
597524766339830;-10.0875;-0.4202;-2.7709;
597524776447278;-10.4444;-0.6024;-2.6967;
597524786552226;-10.1115;0.0613;-2.1577;
597524796657122;-9.2273;0.0063;-1.1372;
597524806749049;-9.3233;-0.4585;-1.9564;
597524816853997;-10.3029;-0.2931;-3.2716;
597524826958892;-9.8504;0.1834;-3.8345;
597524837066340;-8.5161;-0.0655;-3.9350;
597524847171288;-8.5280;0.3511;-5.1951;
597524857276184;-9.8240;0.4493;-5.2840;
597524867398944;-9.2898;0.2841;-2.5193;
597524877503892;-8.7796;0.5381;-1.7169;
597524887608840;-10.3917;0.0135;-2.6871;
597524897716965;-9.4932;-0.7005;-2.4069;
597524907821913;-7.8069;-0.6144;-2.7900;
597524917926809;-8.3530;-0.8369;-3.4394;
597524928017903;-8.7772;-0.6311;-4.0837;
597524938122851;-9.6921;-0.4490;-4.6848;
597524948227747;-9.6203;0.1475;-3.9350;
597524958332278;-8.3746;0.5716;-3.0535;
597524968437226;-9.4621;0.8853;-3.7268;
597524978542122;-9.8480;0.4783;-3.9230;
597524988646601;-9.6945;0.5835;-4.4862;
597524998751549;-9.4143;0.4684;-3.9377;
597525008856444;-9.9532;0.6147;-3.6595;
597525018966913;-11.5199;0.7199;-3.3888;
597525029071809;-10.2885;0.6769;-1.0295;
597525039176705;-9.0838;0.5548;-0.4834;
597525049283944;-10.0681;0.4086;-2.4093;
597525059388892;-9.1125;-0.2668;-2.8813;
597525069493788;-7.7686;-0.3987;-3.6428;
597525079592069;-8.6453;-0.5877;-4.6801;
597525089697017;-8.8226;-0.1280;-4.8861;
597525099801913;-10.3125;-0.2166;-4.9029;
597525109904882;-10.2191;0.0446;-3.4298;
597525120009830;-8.1063;-0.2548;-1.9636;
597525130114726;-8.2741;-0.4083;-2.5816;
597525140198319;-9.1484;-0.4490;-3.1854;
597525150303267;-9.5510;-0.6574;-3.5112;
597525160408163;-9.7519;-0.7388;-3.6021;
597525170531340;-9.4621;-0.7053;-3.6452;
597525180636288;-8.5974;-0.5375;-4.4644;
597525190741184;-8.0536;-0.3413;-3.8800;
597525200843424;-8.9734;-0.5064;-4.3065;
597525210948372;-11.2899;-0.4777;-5.1185;
597525221053267;-9.7950;-0.7699;-3.1400;
597525231161861;-8.0489;-0.8058;-2.3276;
597525241266809;-9.1771;-0.4609;-2.3997;
597525251371705;-10.4635;-0.6287;-2.9698;
597525261462799;-11.1006;-0.5064;-2.9841;
597525271567747;-8.7844;-0.2812;-2.0931;
597525281672642;-7.7782;-0.1998;-2.8259;
597525291784569;-9.6012;0.0996;-4.0286;
597525301889413;-10.6265;0.0613;-3.3888;
597525311994361;-9.6586;-0.1041;-2.6273;
597525322107017;-7.0618;-0.1974;-3.1591;
597525332211913;-7.5864;0.1905;-5.0492;
597525342316809;-10.0131;0.4014;-4.7351;
597525352421809;-9.9820;0.3392;-2.4212;
597525362526705;-10.2550;0.1881;-2.6632;
597525372631601;-10.7318;0.1905;-2.3180;
597525382740872;-8.4200;-0.1448;-0.8809;
597525392845715;-8.6740;0.0494;-2.6297;
597525402950611;-9.2465;0.3703;-3.9425;
597525413050559;-9.0909;0.3942;-3.5542;
597525423155403;-9.5486;0.6817;-4.1291;
597525433260299;-8.5807;0.4134;-4.0908;
597525443377330;-8.0441;0.4421;-4.2538;
597525453482174;-8.6070;0.3703;-4.1913;
597525463587069;-8.6907;0.0278;-3.2955;
597525473680663;-9.2058;-0.4992;-3.0200;
597525483785559;-9.6395;-0.7603;-3.5710;
597525493890455;-10.1306;-0.5566;-4.1698;
597525504001653;-9.9197;-0.2477;-2.1721;
597525514106549;-8.2167;-0.4848;0.0604;
597525524211392;-9.0933;-0.7531;-2.1529;
597525534316028;-9.6778;-1.2730;-4.5054;
597525544420924;-8.4272;-0.6168;-4.5413;
597525554525819;-8.1159;-0.3051;-3.9087;
597525564631028;-9.1388;-0.3508;-4.8574;
597525574735924;-10.9522;-0.5327;-5.1209;
597525584840819;-10.6552;-0.3580;-2.2032;
597525594970663;-9.1843;-0.2453;-0.6173;
597525605075507;-8.8585;-0.4968;-1.5156;
597525615180403;-9.0479;-1.0310;-1.9229;
597525625246913;-9.8192;-1.2562;-2.0644;
597525635351757;-9.5486;-1.6011;-1.9229;
597525645456705;-9.0311;-1.4623;-3.0200;
597525655563163;-9.3329;-0.9664;-4.4381;
597525665668059;-8.4778;-0.9281;-3.8800;
597525675772955;-8.6764;-1.0119;-4.2060;
597525685894726;-10.1091;-0.5136;-4.1387;
597525695999622;-9.2465;-0.5782;-2.3566;
597525706104517;-8.9758;-0.4896;-1.8655;
597525716194726;-10.5712;-0.3051;-2.0306;
597525726299622;-11.1464;-0.3170;-1.9564;
597525736404517;-10.5712;-0.1328;-2.4811;
597525746514622;-8.9016;0.0470;-2.3566;
597525756619517;-8.1852;0.4253;-3.0464;
597525766724413;-8.6692;0.0254;-3.9855;
597525776863788;-8.4873;-0.2142;-3.8776;
597525786968684;-8.5400;-0.4131;-4.1411;
597525797073580;-8.2023;-0.9640;-4.6059;
597525807146809;-8.6979;-0.8755;-5.7150;
597525817251705;-9.8910;-0.4968;-3.7388;
597525827356601;-9.8575;0.4325;-1.6642;
597525837458892;-10.1976;0.6553;-1.7121;
597525847563788;-9.3138;-0.0706;-2.2008;
597525857668632;-7.2153;-0.3891;-3.1998;
597525867762486;-8.2214;-0.2548;-4.1722;
597525877867330;-9.1866;0.1953;-4.5748;
597525887972226;-10.2168;0.6123;-4.6944;
597525898067434;-9.8456;1.3047;-4.1100;
597525908172278;-8.2334;0.9021;-3.4513;
597525918277174;-9.0335;1.0699;-3.9855;
597525928402642;-10.0298;1.0962;-3.3649;
597525938507538;-9.8671;0.6745;-2.5193;
597525948612434;-9.4502;-0.2500;-1.4701;
597525958720559;-9.4406;-0.3867;-2.1027;
597525968825455;-10.1115;-0.5614;-2.3566;
597525978930351;-8.4607;-1.0836;-1.3217;
597525989022017;-8.5567;-0.8225;-2.4667;
597525999126913;-9.6754;-0.5399;-4.5652;
597526009231809;-8.5041;-0.9568;-4.5485;
597526019345038;-7.9265;-0.5710;-4.3902;
597526029449934;-8.3937;-0.4394;-4.1459;
597526039554830;-9.6084;-0.0368;-4.0597;
597526049651809;-10.2646;-0.0607;-3.5375;
597526059756653;-8.8609;-0.3194;-1.9062;
597526069861601;-8.3507;-0.2979;-2.1553;
597526079959049;-9.0503;-0.5853;-3.0009;
597526090063997;-9.1579;-0.4011;-3.6380;
597526100168840;-9.0861;-0.7005;-3.3051;
597526110286184;-9.0479;-0.7507;-3.1735;
597526120391028;-9.6323;-0.3051;-4.0310;
597526130495976;-10.3702;-0.5518;-2.5935;
597526140617851;-10.3726;-0.4872;-1.3481;
597526150722747;-11.4697;0.0637;-2.3830;
597526160827642;-9.7759;-0.1208;-1.9660;
597526170914413;-7.7375;-0.6287;-1.9636;
597526181019257;-8.2334;-0.5590;-3.5064;
597526191124205;-8.2884;-0.6455;-4.3807;
597526201224934;-9.5533;-0.5303;-4.9795;
597526211329882;-9.5581;-0.3891;-3.4633;
597526221434726;-9.3736;-0.4848;-2.4906;
597526231537174;-10.0107;-0.4370;-2.8765;
597526241642122;-9.0885;-0.2237;-2.5863;
597526251747017;-8.8585;-0.3843;-2.7422;
597526261858163;-9.3185;-0.4418;-3.2644;
597526271963059;-9.2922;-0.0945;-3.4896;
597526282067903;-9.5076;-0.0897;-2.9219;
597526292170976;-9.4502;-0.3027;-2.2750;
597526302275872;-9.9796;-0.3891;-2.9004;
597526312380819;-9.1699;-0.4992;-3.9182;
597526322472747;-8.3961;-0.1113;-5.0539;
597526332577694;-9.5219;0.0230;-4.5676;
597526342682590;-9.6921;-0.2070;-4.1076;
597526352810663;-11.1464;-0.0200;-3.9688;
597526362915611;-10.4779;-0.1783;-0.9072;
597526373020507;-8.3818;-0.9520;1.3229;
597526383105194;-9.5172;-1.3615;-1.6929;
597526393210142;-9.7089;-0.9425;-4.6753;
597526403315038;-8.7218;-0.6694;-4.9914;
597526413428632;-8.4535;-0.3027;-4.4118;
597526423533580;-9.0072;-0.2764;-4.5580;
597526433638476;-9.6060;-0.5327;-3.7340;
597526443748424;-9.3497;-0.3748;-1.9971;
597526453853372;-10.5808;-0.6622;-2.4500;
597526463958267;-9.8886;-1.1940;-2.4332;
597526474055507;-7.9508;-0.8512;-3.2237;
597526484160455;-9.3568;-0.5040;-3.5399;
597526494265351;-9.3377;-0.7507;-3.7484;
597526504371028;-9.4382;-0.1519;-4.4189;
597526514475976;-8.8729;-0.2094;-3.9616;
597526524580872;-8.5089;-0.1041;-3.4490;
597526534698736;-9.2874;-0.3987;-3.4729;
597526544803684;-8.4969;-0.6024;-3.1974;
597526554908580;-8.3172;-0.5901;-4.1387;
597526565002694;-9.3233;-0.7268;-4.4285;
597526575107642;-9.6897;-0.3389;-3.8632;
597526585212538;-9.4334;-0.1089;-2.8908;
597526595305403;-8.9686;-0.2955;-1.7838;
597526605410351;-9.6945;-0.0873;-2.7446;
597526615515247;-9.2345;-0.4920;-3.0942;
597526625636340;-8.0847;-0.3365;-3.5566;
597526635741288;-9.2632;-0.1472;-4.1865;
597526645846184;-9.5243;-0.0945;-4.2778;
597526655950299;-10.3463;0.2171;-4.0860;
597526666055247;-10.0059;0.8351;-3.2261;
597526676160142;-9.1460;0.8949;-1.8799;
597526686256444;-9.2297;0.6170;-2.1147;
597526696361392;-8.6692;0.1905;-2.5576;
597526706466340;-8.1565;-0.4537;-3.1181;
597526716581965;-7.9340;-0.6957;-3.9111;
597526726686913;-8.5161;0.0230;-5.2047;
597526736791809;-9.3138;0.1762;-4.2179;
597526746894882;-8.8992;-0.4442;-2.1482;
597526756999830;-9.9030;-0.3532;-3.0392;
597526767104726;-9.9963;-0.7890;-3.6260;
597526777210924;-7.7638;-0.8827;-2.7685;
597526787315872;-8.4033;-0.4992;-3.1615;
597526797420767;-9.3449;-0.3413;-3.5710;
597526807530924;-10.5999;-0.1567;-3.8345;
597526817635872;-10.2191;-0.2620;-2.7015;
597526827740767;-9.3832;-0.3867;-1.7719;
597526837838528;-9.9939;-0.0706;-2.9554;
597526847943476;-11.1317;-0.1472;-3.3888;
597526858048372;-10.8781;-0.5064;-1.8272;
597526868174882;-7.9962;-0.5638;-1.4007;
597526878279830;-8.8131;-0.3194;-3.4490;
597526888384726;-10.6313;-0.6646;-3.0105;
597526898481861;-10.6863;-1.4169;-0.6126;
597526908586809;-9.4238;-1.4121;-0.7851;
597526918691705;-7.1602;-1.1797;-3.7268;
597526928778632;-7.2775;-0.8106;-5.5834;
597526938883580;-9.4406;-0.8560;-4.8096;
597526948988476;-10.1354;-1.0358;-3.8441;
597526959095299;-10.9331;-0.9209;-3.3649;
597526969200247;-9.0000;-0.2094;-1.7623;
597526979305194;-7.5099;-0.1496;-1.7551;
597526989402799;-8.0106;-0.1328;-3.5949;
597526999507747;-8.3746;-0.1352;-4.4982;
597527009612642;-9.3879;-0.0730;-4.8263;
597527019715507;-9.2393;-0.2668;-4.3280;
597527029820403;-9.7472;0.2459;-5.2190;
597527039925351;-10.5664;0.4998;-3.0775;
597527050039153;-9.1149;0.1522;-0.2773;
597527060144101;-9.9748;0.1546;-1.5972;
597527070248997;-9.4310;-0.3628;-2.8594;
597527080358944;-9.8121;-0.5614;-2.0764;
597527090463892;-9.6491;0.1379;-1.9875;
597527100568788;-11.0886;0.6338;-3.6571;
597527110661184;-10.1761;0.2841;-2.6656;
597527120766132;-8.3794;0.8423;-2.4452;
597527130871028;-7.6271;0.4373;-3.0583;
597527140978736;-9.0694;0.0398;-4.8215;
597527151083684;-8.7628;-0.2788;-4.1841;
597527161188580;-7.1121;-0.6790;-2.8932;
597527171302799;-7.9890;-0.5590;-4.0286;
597527181407747;-9.3832;-0.7938;-4.2993;
597527191512642;-8.8490;-1.0310;-2.7422;
597527201613840;-9.1484;-0.8130;-2.7924;
597527211718788;-10.0828;-0.7077;-3.6861;
597527221823684;-8.4440;-0.3461;-3.0272;
597527231919674;-8.5926;-0.2788;-3.7029;
597527242024622;-9.6156;-0.1352;-3.7436;
597527252129517;-10.2215;0.3176;-3.6742;
597527262245142;-10.5138;0.7825;-3.8680;
597527272350038;-9.2297;0.5477;-2.8283;
597527282454986;-10.0107;0.6888;-2.8813;
597527292555247;-10.8251;0.3057;-2.1625;
597527302660142;-9.9197;-0.0511;-1.5996;
597527312764986;-7.9146;-0.2979;-1.3361;
597527322865403;-8.7099;-0.5088;-3.0057;
597527332970299;-9.4789;-0.8680;-3.1062;
597527343075194;-8.6333;-0.9592;-1.6666;
597527353186549;-9.0455;-0.7579;-3.0105;
597527363291444;-9.2731;-1.0071;-4.0478;
597527373396392;-7.4261;-1.0549;-3.9688;
597527383503163;-8.1975;-0.6814;-4.5676;
597527393608059;-9.9030;-0.3099;-4.5772;
597527403712955;-11.1440;0.0637;-3.7627;
597527413805403;-10.1976;0.7152;-2.2463;
597527423910299;-8.9327;0.8016;-1.4318;
597527434015194;-9.3449;0.6769;-2.4404;
597527444131861;-8.4583;0.4998;-3.0272;
597527454236757;-8.9399;-0.1184;-3.5710;
597527464341653;-10.1258;-0.1041;-4.1315;
597527474447590;-10.8634;-0.1950;-3.9302;
597527484552486;-10.2000;-0.0993;-1.7312;
597527494657382;-8.3770;-0.3580;-0.7995;
597527504768632;-9.9030;-0.4777;-2.9411;
597527514873528;-9.0096;-0.7507;-3.2429;
597527524978424;-7.9579;-0.7627;-3.1062;
597527535076965;-8.2884;-0.7005;-3.6356;
597527545181861;-8.9040;-0.6574;-4.3448;
597527555286757;-10.1402;-0.1591;-4.4333;
597527565389674;-9.6945;0.2363;-3.3266;
597527575494569;-9.5052;0.3105;-2.9865;
597527585599465;-10.2766;0.4277;-3.0320;
597527595710351;-9.5438;0.5429;-2.6273;
597527605815247;-8.6477;0.2985;-2.7087;
597527615920090;-8.7147;0.0589;-3.0511;
597527626021340;-9.4525;-0.0993;-3.3529;
597527636126236;-9.9628;-0.2931;-2.8355;
597527646231132;-9.6371;-0.1543;-2.8837;
597527656333267;-9.3042;-0.2668;-3.5686;
597527666438163;-8.2238;-0.5542;-3.4561;
597527676543059;-9.0359;-0.5040;-3.4896;
597527686651861;-8.8681;-0.1902;-3.7890;
597527696756757;-8.6477;-0.3170;-3.9520;
597527706861705;-8.7194;0.1259;-3.9975;
597527716965507;-8.5496;-0.2213;-2.5959;
597527727070403;-8.7051;-0.1974;-2.6154;
597527737175299;-9.3927;0.0182;-3.9377;
597527747288840;-10.0226;-0.3003;-4.0478;
597527757393736;-9.6682;-0.1448;-3.2788;
597527767498632;-10.3558;0.5788;-3.2716;
597527777590194;-10.4061;0.6745;-1.5084;
597527787695090;-9.2898;0.3009;-0.2557;
597527797800038;-9.8767;0.4229;-2.1505;
597527807909257;-8.9638;-0.4896;-2.9578;
597527818014153;-8.8705;-0.8010;-3.2070;
597527828119049;-9.4358;-0.3266;-3.0631;
597527838218736;-9.6227;-0.0320;-3.7651;
597527848323632;-10.2407;0.0996;-4.2443;
597527858428528;-10.2072;0.5046;-2.8116;
597527868554830;-8.3794;0.2124;-1.0487;
597527878659726;-6.9996;0.0589;-2.1410;
597527888764674;-7.4859;-0.4274;-4.6083;
597527898857434;-8.2119;-0.7842;-5.1114;
597527908962278;-9.4478;-0.4178;-4.9077;
597527919067174;-10.2191;0.1570;-3.9712;
597527929170507;-10.3029;0.2961;-2.2295;
597527939275455;-11.2493;0.4711;-2.0740;
597527949380299;-10.5162;0.4134;-1.5589;
597527959484882;-8.1063;0.2219;-1.9277;
597527969589778;-8.8968;-0.0009;-3.1424;
597527979694726;-9.7974;-0.0129;-3.7388;
597527989799778;-10.1904;0.0948;-4.1770;
597527999904674;-9.9987;0.5596;-3.3242;
597528010009569;-9.1914;0.3464;-2.0812;
597528020140611;-9.2225;0.1020;-2.8475;
597528030245507;-9.4214;-0.3266;-4.5796;
597528040350455;-8.9016;-0.5901;-3.4131;
597528050420507;-8.8848;-0.5925;-2.5026;
597528060525455;-9.8671;-0.3796;-3.0009;
597528070630299;-9.6538;-0.6550;-2.0788;
597528080735299;-8.7724;-0.2812;-2.0450;
597528090840194;-9.4143;-0.4537;-4.5126;
597528100945090;-8.0034;-0.1854;-5.1185;
597528111052278;-8.6644;-0.0631;-5.2286;
597528121157226;-9.4167;0.0470;-5.2023;
597528131262069;-9.8623;0.6817;-4.3543;
597528141390715;-9.7519;0.7777;-2.8475;
597528151495611;-8.5065;0.2841;-1.5156;
597528161600507;-8.7987;-0.1902;-2.3061;
597528171684465;-9.1340;-0.4609;-3.6452;
597528181789361;-8.7580;-0.5183;-3.3769;
597528191894257;-9.3592;-0.3508;-3.5040;
597528201990090;-9.5243;-0.0559;-3.6694;
597528212094986;-10.2096;-0.2261;-2.9961;
597528222199934;-8.8466;0.0829;-2.0593;
597528232317851;-9.1340;0.0517;-3.5327;
597528242422694;-8.0273;-0.3652;-4.0143;
597528252527642;-7.3158;-0.1687;-3.6212;
597528262632434;-8.7003;-0.2237;-4.5796;
597528272737330;-10.0131;-0.3532;-4.0645;
597528282842226;-9.8910;0.2339;-3.3242;
597528292936340;-9.5486;0.0972;-1.7767;
597528303041236;-9.2178;-0.1256;-1.3768;
597528313146080;-8.7147;0.2602;-2.0186;
597528323244153;-8.5615;-0.4155;-3.3601;
597528333349101;-8.5376;-0.5662;-3.1301;
597528343453892;-9.6323;-0.3051;-3.9592;
597528353573944;-10.4252;-0.3170;-3.2357;
597528363678892;-8.9495;0.3272;-1.8488;
597528373783684;-8.3219;0.3176;-2.2510;
597528383876236;-8.8442;-0.5806;-3.6547;
597528393981184;-10.3053;-0.4705;-3.6308;
597528404086028;-10.3702;-0.4250;-1.9564;
597528414194049;-9.4262;-0.1113;-1.5900;
597528424298997;-9.4669;-0.1184;-2.1434;
597528434403788;-9.0455;0.0852;-2.3037;
597528444513372;-8.5663;-0.0849;-2.6776;
597528454618215;-8.9542;0.1857;-3.7029;
597528464723059;-9.3760;-0.1208;-4.0095;
597528474821340;-9.7926;-0.3508;-3.1783;
597528484926236;-10.1761;-0.0081;-2.8860;
597528495031080;-10.7270;0.3153;-2.0282;
597528505141601;-10.1067;0.2770;-0.8402;
597528515246549;-10.3965;0.2124;-1.7815;
597528525351392;-9.7926;-0.1424;-2.8860;
597528535460976;-9.0239;-0.3242;-2.1290;
597528545565872;-9.3018;-0.1974;-2.1697;
597528555670715;-9.8551;-0.1543;-4.1028;
597528565777747;-9.8049;0.1666;-5.0587;
597528575882590;-8.1015;0.5955;-4.0789;
597528585987486;-8.3267;0.2913;-3.6093;
597528596089049;-9.0048;0.1810;-3.6933;
597528606193997;-9.7113;-0.1543;-3.5758;
597528616298840;-9.1364;-0.2788;-2.7278;
597528626416340;-8.6142;0.0996;-3.3099;
597528636521236;-9.4717;0.0685;-4.2323;
597528646626132;-9.0838;-0.2812;-2.7852;
597528656736184;-9.3090;0.1140;-3.7268;
597528666841080;-8.8083;-0.0464;-5.1664;
597528676945924;-8.4945;0.4086;-4.4668;
597528687036601;-10.3463;0.7319;-3.8465;
597528697141497;-9.0431;0.8040;-3.7388;
597528707246288;-8.5950;1.0436;-4.3400;
597528717348944;-9.2034;0.8901;-4.0478;
597528727453840;-9.4789;0.4062;-2.1673;
597528737558736;-9.7113;0.2124;-1.5565;
597528747670455;-9.5677;-0.3963;-1.8966;
597528757775351;-8.4754;-1.4169;-1.9014;
597528767880194;-9.0718;-0.6526;-3.8106;
597528777985663;-9.7424;-0.6072;-4.1243;
597528788090559;-9.2632;0.1044;-2.4356;
597528798195403;-9.7208;-0.0826;-2.7326;
597528808296497;-9.5124;-0.6096;-3.4155;
597528818401392;-8.3507;-0.5064;-2.5959;
597528828506236;-8.6166;-0.3867;-2.6632;
597528838618163;-9.0814;-0.2309;-3.3410;
597528848723059;-9.2707;-0.3338;-4.9077;
597528858827903;-9.6849;0.3727;-4.1913;
597528868929830;-8.8753;-0.2812;-1.2401;
597528879034674;-9.0263;-0.4059;-1.5251;
597528889139517;-8.8107;-0.7914;-3.1854;
597528899234309;-7.8284;-1.3998;-3.3386;
597528909339205;-8.2525;-0.8994;-4.5269;
597528919444049;-10.1186;-0.3676;-4.7521;
597528929554517;-10.2646;-0.3963;-2.3085;
597528939659413;-11.0815;-0.6263;-1.7695;
597528949764205;-9.7974;-0.7149;-1.7599;
597528959867955;-9.0239;-0.6431;-1.7815;
597528969972851;-9.1914;-0.6311;-3.0200;
597528980077694;-10.7533;-0.2429;-4.0908;
597528990188059;-11.3689;-0.0057;-3.1687;
597529000292955;-9.7663;0.5764;-0.9239;
597529010397799;-8.5639;-0.1376;-0.2366;
597529020501861;-8.5735;-0.5877;-3.1062;
597529030606757;-8.6883;-0.8680;-4.3783;
597529040711601;-8.4177;-0.8154;-3.6933;
597529050810090;-7.8906;-0.2357;-4.7880;
597529060914986;-10.2048;-0.6861;-4.4934;
597529071019882;-10.2455;-0.9760;-1.1803;
597529081128267;-9.0790;-0.4801;-1.4222;
597529091233111;-8.7939;-0.5112;-3.1062;
597529101337955;-7.7327;-0.9377;-3.8249;
597529111440767;-9.8767;-0.2907;-4.8718;
597529121545663;-16.2775;0.2841;-4.0071;
597529131650507;-15.0437;0.4253;0.6356;
597529141766809;-6.9182;1.5200;1.9361;
597529151871653;-5.1550;0.8518;-2.9148;
597529161976497;-7.4955;-0.3748;-6.8818;
597529172065611;-8.3172;-0.7507;-6.4098;
597529182170559;-8.4464;-1.3017;-3.9616;
597529192275403;-8.0776;0.0182;-3.7125;
597529202417226;-8.8250;-0.0706;-2.7733;
597529212522122;-7.6633;-1.4815;-1.8846;
597529222626965;-8.7532;-1.9029;-4.5963;
597529232693892;-8.9806;-1.4503;-5.4658;
597529242798736;-8.6859;-0.9903;-3.8345;
597529252903632;-7.2535;-0.3580;-4.0717;
597529263017330;-8.2669;-0.2213;-5.3079;
597529273122174;-8.7003;0.3679;-4.8000;
597529283227017;-9.7591;1.0388;-4.7856;
597529293335611;-11.4218;0.9284;-4.8215;
597529303412955;-11.7715;1.0053;-1.7145;
597529313517955;-11.1775;0.3320;1.8691;
597529323622955;-9.8910;0.2076;2.4416;
597529333753424;-9.4908;0.2243;-0.5001;
597529343858476;-10.0418;-0.3867;-2.1194;
597529353963476;-9.9269;-0.2572;-1.0080;
597529364070090;-9.1220;-0.4968;-1.2835;
597529374175142;-7.9241;-0.9999;-3.5710;
597529384280142;-7.9265;-0.4561;-4.9436;
597529394370299;-7.4740;-0.0224;-5.4682;
597529404475351;-8.6524;0.4588;-5.8540;
597529414580351;-8.4440;0.3751;-5.0157;
597529424701861;-7.6681;1.1967;-2.2630;
597529434806913;-8.0345;0.8136;-0.9168;
597529444911913;-9.0526;1.0460;-2.4500;
597529455008372;-10.3511;-0.0583;-3.7603;
597529465113372;-10.8757;0.1953;-4.1507;
597529475218372;-10.6433;1.3214;-3.7675;
597529485323319;-10.0466;1.3956;-2.0668;
597529495428319;-9.8121;2.1335;-1.9349;
597529505533319;-8.8035;1.2470;-1.7934;
597529515643632;-8.9351;0.8782;-3.5088;
597529525748684;-10.3558;0.2818;-4.3759;
597529535853684;-9.9078;-0.0511;-3.1277;
597529545957694;-9.6562;0.7992;-2.4978;
597529556062747;-8.5854;1.1632;-2.1099;
597529566167747;-8.1015;0.1020;-2.5768;
597529576271444;-7.7877;-0.1184;-3.0894;
597529586376497;-7.2775;-0.3099;-3.3338;
597529596481497;-8.2478;-1.2203;-4.5078;
597529606574413;-10.0708;-0.6383;-5.1975;
597529616679413;-11.3569;-0.0057;-3.7890;
597529626784413;-10.7653;0.2961;-2.9148;
597529636914153;-8.5184;0.6027;-2.8789;
597529647019153;-6.5755;0.7537;-3.1639;
597529657124205;-8.6501;0.2315;-3.4920;
597529667220507;-11.6109;-0.6263;-3.0224;
597529677325559;-11.5080;-0.0320;-1.8224;
597529687430559;-8.9016;0.2913;-1.7647;
597529697535507;-5.8953;-0.4633;-3.4944;
597529707640559;-6.0221;-0.8922;-4.4548;
597529717745559;-8.6477;-1.0358;-5.3653;
597529727849257;-10.4276;-1.8598;-3.9832;
597529737954309;-10.6672;-2.1903;-2.0716;
597529748059309;-8.6309;-1.3089;-0.8043;
597529758172174;-7.7423;-1.2586;-2.6441;
597529768277226;-8.4559;-1.1291;-4.6992;
597529778382226;-10.6983;-0.6383;-4.4166;
597529788470924;-11.7260;-0.6431;-2.6656;
597529798575976;-12.7008;-0.5231;-0.8019;
597529808680976;-11.5032;0.3057;1.7518;
597529818794049;-8.7147;0.5237;-1.4198;
597529828899101;-7.0044;0.5285;-6.2157;
597529839004101;-9.8671;-0.1639;-5.0492;
597529849104049;-10.6361;-0.0921;-1.8679;
597529859209049;-8.4849;-0.5399;-0.0736;
597529869314101;-7.3804;-0.8106;0.0365;
597529879414413;-7.5745;-1.4982;-4.0071;
597529889519413;-9.9461;-1.8718;-6.8743;
597529899624413;-11.1990;-0.8441;-3.6838;
597529909739986;-9.9891;-0.5255;-1.9828;
597529919845038;-7.5051;-0.3580;-2.9267;
597529929950038;-7.1001;0.3846;-3.1998;
597529940061549;-7.6705;-0.7077;-5.6647;
597529950166549;-8.9590;0.3966;-7.2888;
597529960271601;-9.6634;1.5658;-6.7905;
597529970356184;-9.5845;1.6567;-5.0157;
597529980461184;-8.7604;1.9537;-1.0391;
597529990566184;-8.7700;0.9930;-1.2162;
597530000675090;-10.0202;-0.5518;-2.5481;
597530010780090;-9.5605;-0.5949;-0.9024;
597530020885142;-10.0780;-0.6526;-2.4715;
597530030989257;-11.5271;-1.0214;-1.7312;
597530041094309;-10.6816;-0.3485;0.1851;
597530051199309;-7.9699;-0.7699;-3.2309;
597530061292017;-8.8107;-0.4131;-5.2693;
597530071397017;-11.1990;-0.1735;-4.4094;
597530081502017;-10.9259;0.1642;-2.7781;
597530091614622;-8.6836;0.8614;-0.8809;
597530101719622;-6.8871;0.1283;-2.8642;
597530111824622;-7.4548;-0.5901;-3.3864;
597530121944101;-8.0824;-0.3147;-1.9158;
597530132049153;-8.8418;-1.2443;-3.3266;
597530142154153;-10.5640;-1.4527;-2.3949;
597530152246236;-11.0216;-1.0717;-2.6225;
597530162351288;-11.9390;-0.4442;-3.6332;
597530172456288;-9.6778;0.5405;-0.2629;
597530182562955;-6.9541;0.3727;-3.3242;
597530192668007;-7.3540;0.5955;-5.8588;
597530202773007;-9.1412;0.0613;-5.2119;
597530212861809;-9.3138;0.3894;-4.0621;
597530222966809;-9.4597;0.7032;-3.0727;
597530233071809;-11.6228;-0.0224;-5.3246;
597530243188319;-13.1871;0.4612;-1.2930;
597530253293372;-11.2349;-0.2477;2.2262;
597530263398372;-10.1856;-0.1687;1.3349;
597530273518528;-10.3726;-0.6359;-0.0975;
597530283623580;-8.2813;-1.0095;-3.1663;
597530293728580;-7.8452;-0.4322;-4.8359;
597530303808892;-8.9471;-0.4274;-6.7331;
597530313913892;-8.0010;-0.4585;-5.9139;
597530324018892;-6.7457;-0.2405;-5.7867;
597530334130559;-8.6668;-0.2740;-5.0874;
597530344235559;-9.8025;-0.6837;-2.0163;
597530354340559;-9.1555;-1.3902;-3.1567;
597530364467799;-9.2058;-0.3485;-2.2822;
597530374572851;-10.5066;-0.8874;-1.8559;
597530384677851;-10.6911;-0.0200;-0.3060;
597530394785507;-10.7892;0.4735;-1.9851;
597530404890559;-10.7701;0.0781;-5.3438;
597530414995559;-9.0766;1.1967;-4.6226;
597530425081861;-10.1378;1.4650;-5.5352;
597530435186913;-11.8193;2.1574;-1.9014;
597530445291913;-11.0599;0.6027;0.4175;
597530455396549;-9.0431;-0.2261;0.6523;
597530465501601;-9.0598;-1.0406;-1.7192;
597530475606601;-9.0694;-2.3533;-2.0979;
597530485709517;-7.7231;-2.3438;-2.3686;
597530495814517;-8.6716;-2.1664;-5.7939;
597530505919517;-8.7290;-1.6561;-4.1722;
597530516020976;-6.7935;-2.0515;-4.0095;
597530526125976;-7.0044;-1.2849;-5.2238;
597530536230976;-8.0656;-1.7761;-7.2194;
597530546334830;-8.1326;-0.9999;-6.5198;
597530556439830;-9.9796;0.1379;-5.6791;
597530566544830;-12.7080;0.3751;-3.1687;
597530576647226;-12.6721;0.8734;1.1794;
597530586752226;-10.0804;0.2889;0.8031;
597530596857226;-9.1866;1.0842;-1.0893;
597530606971132;-9.9556;0.0039;-4.2227;
597530617076184;-10.6983;0.2841;-3.7244;
597530627181184;-12.2339;0.3894;-3.0511;
597530637297278;-12.2339;0.2387;-0.5336;
597530647402278;-8.4033;-0.0754;0.6858;
597530657507330;-7.2296;-0.7268;-2.8693;
597530667603111;-7.9241;-1.7163;-4.0502;
597530677708163;-7.7710;-1.8287;-4.4070;
597530687813163;-9.7184;-1.5006;-3.8010;
597530697914778;-10.9762;-1.7641;-3.1134;
597530708019830;-9.9197;-0.8201;-0.8043;
597530718124830;-9.7974;-1.0836;-4.2227;
597530728233944;-10.5114;0.3416;-6.0984;
597530738338997;-8.4607;0.1594;-5.0515;
597530748443997;-6.8752;0.8590;-4.1794;
597530758544205;-7.7423;0.9021;-5.5714;
597530768649205;-9.3544;1.0747;-4.3280;
597530778754205;-9.1962;0.5285;-2.7398;
597530788855403;-9.5100;0.5309;-4.1722;
597530798960403;-9.5390;-0.7460;-3.9063;
597530809065403;-8.2956;-0.8130;-2.7182;
597530819179882;-10.6983;-0.3939;-2.7948;
597530829284934;-10.6193;-0.7747;-1.3409;
597530839389934;-6.8486;-0.9401;-0.4256;
597530849483997;-7.9627;-1.2706;-5.8083;
597530859588997;-10.8634;-1.1052;-5.7485;
597530869693997;-11.1126;-0.1208;-4.8263;
597530879799205;-10.1163;1.2879;-3.7484;
597530889904205;-9.3042;1.5945;-3.7962;
597530900009205;-8.9351;1.8556;-0.2486;
597530910122278;-7.7136;0.5812;-0.1645;
597530920227330;-8.4512;0.2291;-1.3337;
597530930332330;-10.1402;-0.8273;-3.2740;
597530940425559;-9.5390;-0.4801;-2.7996;
597530950530507;-10.2957;0.1834;-2.4045;
597530960635559;-10.4085;0.4998;-2.5241;
597530970751236;-6.9206;0.4493;-1.7216;
597530980856288;-6.9015;0.1977;-5.4299;
597530990961288;-8.6644;0.3918;-4.5413;
597531001064361;-9.8743;0.3631;-3.7316;
597531011169413;-9.9700;1.2350;-2.8331;
597531021274413;-11.1392;1.1321;-5.1090;
597531031379257;-11.1269;1.6591;-1.4509;
597531041484309;-8.2621;1.3143;0.0078;
597531051589309;-9.2536;1.1632;-1.7240;
597531061691132;-11.5367;-0.4801;-2.5935;
597531071796184;-9.8815;-0.0583;-0.9359;
597531081901184;-9.6467;0.2028;-3.4322;
597531091997642;-9.7328;0.2315;-3.2716;
597531102102642;-6.9039;-0.3676;-2.7422;
597531112207642;-8.3530;-0.5183;-5.8134;
597531122383997;-10.4300;-0.9760;-3.9182;
597531132488997;-9.4669;-1.4838;-1.6164;
597531142593997;-8.9638;-0.5830;-2.1003;
597531152649778;-8.8561;-0.9592;-4.3926;
597531162754830;-9.0718;-0.7531;-3.0272;
597531172859830;-9.0933;-0.1998;-3.5160;
597531182975403;-8.8131;-0.2524;-3.5399;
597531193080403;-9.4478;-0.9688;-4.4548;
597531203185455;-8.4945;-0.1448;-2.2510;
597531213251861;-9.8408;-0.2907;-4.6920;
597531223356913;-11.2564;0.5764;-3.2046;
597531233461913;-8.8155;-0.3939;-1.6522;
597531243581392;-7.7088;-0.4513;-2.3252;
597531253686392;-9.6251;-0.9568;-2.2582;
597531263791392;-9.7998;-1.5437;-2.2223;
597531273907069;-9.1220;-1.0765;-2.7996;
597531284012122;-9.1388;-0.7842;-4.8024;
597531294117122;-10.0828;-0.3218;-2.3758;
597531304210976;-10.1282;-0.6790;-2.0740;
597531314316028;-9.9915;-0.1184;-1.6618;
597531324421080;-10.5688;-0.9018;-2.5074;
597531334520247;-10.7725;0.0613;-1.7551;
597531344625299;-11.1293;0.4397;-1.7985;
597531354730351;-11.0958;0.6984;-1.2305;
597531364855247;-8.0847;0.4325;-0.4834;
597531374960351;-6.7265;0.0852;-4.6753;
597531385065403;-7.6008;-0.5231;-4.8072;
597531395173944;-9.2201;-1.7091;-4.9364;
597531405279049;-9.9389;-0.8560;-3.5614;
597531415384101;-10.0370;-0.5997;-4.6155;
597531425465403;-8.9614;0.2195;-2.1745;
597531435570455;-6.9685;0.0374;-1.9851;
597531445675507;-7.4094;-0.4226;-4.6418;
597531455782069;-9.0622;-1.3998;-5.8181;
597531465887122;-10.6023;-1.0502;-4.9842;
597531475992174;-13.4435;0.3081;-2.9937;
597531486101861;-10.8900;1.5754;-1.4821;
597531496206965;-4.3908;1.3980;-2.0282;
597531506312017;-4.3358;-0.2524;-7.3008;
597531516415403;-8.4634;-0.3413;-7.7010;
597531526520507;-11.5199;-1.1076;-3.7125;
597531536625559;-13.2879;-0.4537;0.9852;
597531546736340;-12.5548;-0.6885;1.4620;
597531556841444;-10.1210;0.2001;0.0772;
597531566946497;-7.1770;0.5022;-2.3013;
597531577044465;-6.6954;-0.2716;-5.6288;
597531587149569;-9.2850;-1.3807;-4.3591;
597531597254622;-10.8467;-0.5471;-3.5542;
597531607361965;-10.9522;1.3597;-0.5958;
597531617467069;-10.1426;0.6793;-2.1984;
597531627572122;-9.7783;1.2278;-3.7388;
597531637654309;-10.9522;0.8255;-5.2792;
597531647759309;-9.9676;0.4014;-0.7660;
597531657864413;-6.4223;-0.1639;1.4620;
597531667969465;-6.3096;-0.5566;-1.9564;
597531678095819;-9.7137;-1.2156;-4.8718;
597531688200924;-11.9536;-1.3161;-5.8158;
597531698305976;-10.6098;0.3320;-3.8895;
597531708423580;-9.9413;0.1834;-5.3677;
597531718528632;-11.7906;0.5859;-2.5170;
597531728633736;-11.2780;0.8949;-0.7732;
597531738731861;-10.5640;1.8437;-0.0066;
597531748836965;-9.1460;1.1824;-2.5672;
597531758942017;-5.4425;-0.6239;-2.6345;
597531769052590;-5.1933;-1.7856;-6.3233;
597531779157642;-7.8332;-0.7029;-7.9932;
597531789262747;-9.0479;-1.5867;-7.1716;
597531799349569;-9.4023;-0.3891;-5.1497;
597531809454622;-9.1340;-0.5853;-3.2788;
597531819559674;-7.3062;-0.7484;-1.5924;
597531829671236;-5.8235;-1.4432;-2.5433;
597531839776288;-7.2703;-1.2706;-6.3978;
597531849881392;-9.4645;-0.8417;-5.8780;
597531859995819;-7.6199;-1.4767;-4.8933;
597531870100924;-7.8476;1.1369;-4.5389;
597531880205976;-10.4779;1.4650;-5.7221;
597531890318319;-10.6624;1.8317;-2.2630;
597531900423424;-11.6372;1.5224;-1.1994;
597531910528476;-12.7872;0.9906;1.9555;
597531920634465;-9.4430;-0.2979;4.2000;
597531930739569;-5.4090;-0.5973;-0.7397;
597531940844622;-7.1387;-0.5710;-5.1473;
597531950924413;-8.2358;-1.8503;-5.4132;
597531961029465;-8.8131;-0.9138;-1.5661;
597531971134517;-10.0442;-0.4729;-2.6082;
597531981243111;-11.1775;-0.8321;-3.3194;
597531991348215;-10.6409;-0.4729;-1.0319;
597532001453267;-10.6050;-0.2094;-1.9349;
597532011556236;-11.1823;0.8136;0.3984;
597532021661288;-8.8920;0.4612;0.6284;
597532031766392;-6.3410;1.1895;-1.0582;
597532041893215;-8.4296;0.1451;-5.2430;
597532051998319;-9.1699;0.2602;-6.3377;
597532062103372;-8.7939;0.7199;-6.4265;
597532072187486;-10.8203;1.7979;-6.1439;
597532082292590;-11.9536;1.6304;-1.3935;
597532092397642;-10.1952;0.6266;2.4846;
597532102488319;-9.8025;-0.7699;1.3229;
597532112593424;-11.1559;-1.0262;-1.8751;
597532122698528;-8.5950;-0.6550;-2.3853;
597532132811497;-9.5219;-0.7747;-5.6862;
597532142916549;-10.8180;-0.4705;-5.2840;
597532153021601;-9.9030;-0.4131;-4.4309;
597532163125090;-8.4730;0.5285;-3.7675;
597532173230142;-10.4013;0.1905;-4.5174;
597532183335247;-11.0216;-0.2764;-1.7360;
597532193448111;-9.3162;-0.5303;-1.8942;
597532203553215;-7.7925;-0.1256;-1.8344;
597532213658267;-7.2942;-1.0813;-3.1711;
597532223759049;-6.7241;-0.9401;-2.6393;
597532233864153;-6.9613;-1.3711;-5.6240;
597532243969205;-9.8958;-1.3424;-5.6097;
597532254073215;-11.2995;-1.1438;-5.4036;
597532264178319;-12.9906;0.3990;-4.3783;
597532274283372;-12.4783;0.8064;-1.4581;
597532284405663;-7.9914;0.9188;1.5625;
597532294510767;-5.0880;0.6673;-1.4079;
597532304615976;-6.6978;-0.3027;-5.6551;
597532314721028;-11.1535;-0.7627;-5.2167;
597532324826080;-15.2617;-0.7364;-2.7494;
597532334927694;-15.8557;0.8279;0.2115;
597532345032799;-11.7045;0.2554;0.8366;
597532355137851;-6.9565;1.0101;1.5386;
597532365233007;-7.0020;-0.4011;-1.8320;
597532375338111;-8.8083;-1.8933;-3.5423;
597532385443163;-8.3411;-1.7713;-1.9445;
597532395564934;-9.0550;-1.9702;-4.1818;
597532405670038;-9.0766;-0.6670;-5.3342;
597532415775090;-7.9193;-0.9616;-7.3917;
597532425870194;-7.3516;-0.2094;-6.2898;
597532435975299;-8.6261;-0.1783;-6.0072;
597532446080351;-9.8695;-0.2118;-3.5351;
597532456175194;-9.2970;-0.0631;-0.3682;
597532466280299;-6.7672;-0.2022;-0.9144;
597532476385351;-5.9073;0.1618;-3.4729;
597532486483788;-9.2994;-1.0430;-8.7093;
597532496588840;-12.5907;0.1331;-8.0507;
597532506693892;-11.9871;0.6099;-3.4274;
597532516808684;-10.2335;1.4865;-0.7947;
597532526913788;-10.9690;1.8820;-0.3156;
597532537018840;-11.5080;0.3057;0.2545;
597532547122278;-9.1125;-0.1496;0.8007;
597532557227382;-7.7279;-1.0573;-2.7350;
597532567332434;-9.0503;-1.8909;-4.3926;
597532577433007;-8.3674;-1.1339;-2.4691;
597532587538111;-7.6729;-0.9066;-5.1951;
597532597643163;-9.1364;-0.1974;-5.1042;
597532607762747;-10.2646;-0.0296;-4.5772;
597532617867851;-11.9848;0.6051;-2.1051;
597532627972903;-11.3833;1.4028;1.3469;
597532638074361;-9.0790;0.9835;-0.0975;
597532648179361;-6.5827;1.2422;-1.2930;
597532658284413;-4.8867;-0.4394;-5.8397;
597532668389517;-7.1145;-0.4920;-8.0650;
597532678486861;-7.4285;1.0172;-7.2864;
597532688591965;-6.4726;1.0938;-6.8865;
597532698697017;-9.1196;0.9739;-5.2597;
597532708799517;-11.2325;-0.6168;-5.1305;
597532718904622;-11.4482;-0.0754;-1.1420;
597532729009674;-11.3713;-0.4968;-0.6293;
597532739134153;-9.5533;0.4253;1.1506;
597532749239257;-7.0594;0.0924;0.8055;
597532759344309;-8.2454;-0.5638;-4.9053;
597532769438528;-10.5568;-0.9616;-5.3151;
597532779543632;-12.1140;-1.1339;-6.0455;
597532789648684;-12.6410;1.1106;-4.7136;
597532799746340;-10.7677;2.3683;-1.7791;
597532809851444;-9.0191;1.4698;1.0762;
597532819956497;-7.0881;-0.2213;2.2214;
597532830070090;-6.8991;-1.8048;-1.6187;
597532840175142;-9.3951;-1.8431;-2.1625;
597532850280247;-9.8360;-2.8253;-2.7876;
597532860377694;-8.2789;-1.7761;-4.8838;
597532870482799;-8.6740;-0.8201;-7.1019;
597532880587851;-8.6955;-0.6335;-7.3032;
597532890688840;-8.7580;0.7128;-4.4046;
597532900793944;-8.9782;0.6314;-3.5542;
597532910898997;-8.6285;0.5740;-0.1382;
597532921017486;-8.0560;0.0805;-2.5935;
597532931122590;-11.8648;0.4277;-4.0765;
597532941227642;-14.1742;0.9069;-2.3157;
597532951318007;-11.9489;1.0842;-1.0630;
597532961423111;-7.4046;1.5586;0.0413;
597532971528163;-7.0810;0.2435;-2.6512;
597532981643944;-10.0083;0.2770;-2.1721;
597532991749049;-9.6754;-0.6359;-3.3194;
597533001854101;-10.8876;0.1235;-4.0143;
597533011950090;-11.0527;0.1044;-2.6369;
597533022055194;-8.1087;0.2195;-2.0306;
597533032160247;-7.6319;-0.1017;-2.0569;
597533042281444;-8.7461;-1.7043;-4.0406;
597533052386549;-8.5352;-0.6526;-3.5351;
597533062491549;-10.2526;-0.4131;-4.6418;
597533072583736;-10.6887;-0.0464;-3.3051;
597533082688840;-7.4859;0.5883;-1.5637;
597533092793892;-6.9733;-0.4346;-5.4132;
597533102885142;-9.5390;-0.0464;-6.2420;
597533112990142;-11.2421;0.0829;-3.7747;
597533123095247;-10.5808;0.3488;-2.1075;
597533133198944;-8.7147;0.7319;-0.2844;
597533143304049;-9.4669;-0.9281;-2.6201;
597533153409101;-9.4382;-0.6790;-1.7671;
597533163529778;-7.7112;-0.6407;-1.8942;
597533173634830;-9.3425;-1.8479;-5.1736;
597533183739934;-9.5581;-1.1725;-3.1759;
597533193828736;-9.3712;-1.1605;-2.9554;
597533203933788;-11.3641;-0.9855;-3.4274;
597533214038840;-9.3784;-0.7890;-0.6461;
597533224135142;-6.9996;-1.5867;-3.2094;
597533234240194;-9.2369;-1.4527;-5.2454;
597533244345247;-10.8227;-0.8441;-2.2893;
597533254462174;-9.1125;-0.6814;-2.4452;
597533264567278;-8.5184;-0.0873;-3.2740;
597533274672330;-9.7328;0.0733;-3.9015;
597533284775142;-9.3377;0.1642;-3.7866;
597533294880194;-8.9949;1.0026;-2.0426;
597533304985247;-8.9590;0.4926;-3.3290;
597533315119569;-9.5366;0.1666;-3.6428;
597533325224622;-10.5473;0.7466;-1.9875;
597533335329674;-11.6707;0.5477;-2.6560;
597533345413684;-10.1976;0.8901;-1.1515;
597533355518736;-6.9206;0.8112;-0.9742;
597533365623788;-8.4081;-0.6287;-4.9890;
597533375718997;-11.1847;-0.5830;-4.3400;
597533385823997;-9.7735;0.6386;-2.5986;
597533395929049;-8.3172;0.1427;-4.5556;
597533406039569;-9.8216;0.8471;-4.4719;
597533416144622;-9.5462;0.1522;-2.5265;
597533426249674;-7.9723;0.3775;-1.9325;
597533436358215;-9.4525;0.1116;-2.3351;
597533446463267;-10.0995;-1.2826;-3.4442;
597533456568319;-9.2393;-0.5495;-2.8546;
597533466677174;-10.3750;-0.4131;-2.2104;
597533476782226;-10.0418;-0.8154;-3.1352;
597533486887278;-8.3507;-0.8273;-2.6225;
597533496983840;-9.0168;-1.1701;-4.0119;
597533507088892;-10.3941;-1.5796;-4.4692;
597533517193944;-10.6122;-1.0502;-1.1970;
597533527300819;-9.1508;-1.7139;-1.7240;
597533537405872;-9.7591;-1.5843;-4.5269;
597533547510924;-10.2814;-0.9975;-1.5637;
597533557616236;-8.8992;-1.5867;0.1277;
597533567721288;-8.3483;-2.0635;-2.6225;
597533577826340;-9.5028;-2.6360;-3.3529;
597533587929778;-8.4826;-2.6767;-2.1649;
597533598034830;-8.2047;-2.8995;-4.3041;
597533608139882;-10.4468;-2.5786;-4.5652;
597533618238267;-9.0024;-2.2983;-1.2257;
597533628343267;-7.0594;-2.7245;-1.7599;
597533638448319;-9.0263;-2.2337;-3.7101;
597533648571184;-10.6433;-1.1148;-2.8884;
597533658676236;-10.6074;-0.5662;-1.9110;
597533668781288;-9.0766;0.1594;-3.7316;
597533678876601;-8.9447;0.5596;-4.3663;
597533688981653;-10.3965;1.4674;-3.1519;
597533699086705;-9.3473;2.2292;-1.3528;
597533709178372;-7.6367;2.4138;-2.8092;
597533719283372;-9.2970;1.6328;-4.3567;
597533729388424;-9.7017;2.0976;-3.0775;
597533739496236;-9.4310;2.9527;-2.6560;
597533749601288;-10.4539;2.8113;-1.9828;
597533759706340;-7.9026;2.3539;-1.5637;
597533769829257;-6.0966;1.8293;-3.8489;
597533779934309;-9.4406;1.6831;-5.0444;
597533790039361;-11.0623;2.6270;-4.1148;
597533800129569;-9.0383;2.4520;-5.0157;
597533810234569;-9.0000;2.1694;-6.5366;
597533820339622;-9.6897;2.0686;-5.2840;
597533830451653;-8.8226;1.4124;-3.5877;
597533840556757;-7.6199;0.6864;-2.7398;
597533850661757;-7.3684;0.2913;-2.6154;
597533860776497;-8.8729;-0.2764;-3.3194;
597533870881549;-9.4023;-0.0969;-3.8608;
597533880986601;-10.0585;0.1499;-4.9077;
597533891070924;-11.4075;0.8231;-3.2213;
597533901175976;-7.3493;-0.0730;-1.8655;
597533911281028;-7.1698;-0.7603;-4.7809;
597533921420194;-10.0274;-0.9185;-4.1028;
597533931525247;-9.8575;-0.6622;-1.8846;
597533941630299;-7.2559;-1.0190;-2.8546;
597533951702122;-8.0465;-0.8584;-4.9603;
597533961807122;-13.0890;-0.2166;-3.6260;
597533971912174;-12.8949;-0.3820;-1.2138;
597533982027069;-7.8739;-0.7172;-0.2653;
597533992132122;-7.2368;-1.2419;-0.1382;
597534002237174;-10.9738;-0.6957;-0.7469;
597534012344934;-11.1894;0.0422;-2.3710;
597534022449986;-9.6969;0.4158;-2.5792;
597534032555038;-9.3927;0.9021;-2.6177;
597534042643684;-7.2870;-0.1926;-3.7244;
597534052748684;-8.3937;-0.3027;-5.2959;
597534062853736;-9.4358;-0.6957;-4.3639;
597534072979882;-9.0455;-0.6168;-2.6967;
597534083084934;-7.9962;-0.6766;-2.9028;
597534093189986;-9.7184;-0.5949;-3.0081;
597534103263528;-11.6492;-0.8273;-1.8009;
597534113368580;-9.3329;-0.8608;-0.5934;
597534123473632;-8.0489;-1.0765;-1.3768;
597534133603111;-10.2790;-1.3926;-5.1090;
597534143708163;-11.9489;-1.1267;-4.7498;
597534153813215;-9.3425;-0.6168;-4.0837;
597534163929778;-8.6883;-0.5614;-4.2443;
597534174034830;-9.1986;-0.8369;-3.9159;
597534184139882;-7.4524;-1.2012;-3.9616;
597534194241861;-8.2621;-1.3639;-3.7938;
597534204346913;-8.9279;-1.3328;-3.2836;
597534214451965;-8.2956;-1.4432;-2.9339;
597534224575819;-7.2392;-0.9592;-4.4046;
597534234680872;-8.3626;-0.5973;-4.8885;
597534244785924;-10.0394;-0.8058;-5.1425;
597534254855090;-10.0035;-0.5518;-5.0492;
597534264960142;-8.7772;-0.7723;-4.7088;
597534275065194;-9.1819;-0.9664;-4.5102;
597534285169778;-9.0574;-0.2094;-4.1530;
597534295274830;-9.0694;0.1594;-5.1209;
597534305379882;-10.6959;0.0182;-4.9699;
597534315490455;-9.0838;0.5907;-3.0990;
597534325595247;-6.2785;0.5405;-3.2979;
597534335700038;-7.9723;-0.1400;-5.7389;
597534345809517;-10.2168;-0.0826;-5.4036;
597534355914309;-9.3377;0.3918;-3.9350;
597534366019153;-8.4392;0.1905;-5.4419;
597534376115872;-9.7902;-0.2979;-6.2037;
597534386220663;-10.4348;-0.0176;-3.7436;
597534396325507;-8.1446;-0.7101;-4.0286;
597534406441080;-7.9675;-0.9401;-4.6442;
597534416545924;-8.9590;-0.9209;-4.2682;
597534426650715;-10.0708;-0.7651;-5.9689;
597534436757226;-11.3521;0.6242;-4.3543;
597534446862069;-9.7735;0.7513;-4.1004;
597534456966809;-5.3827;0.4277;-3.7531;
597534467063684;-3.8495;-0.0033;-4.0573;
597534477168528;-4.0723;-1.1339;-4.5556;
597534487273319;-4.3286;-1.5006;-3.3840;
597534497374309;-4.8126;-1.9726;-6.7116;
597534507479153;-8.4682;-0.7484;-5.7796;
597534517583892;-12.7343;0.6745;-6.0311;
597534527687590;-14.7802;3.5946;-2.0716;
597534537792486;-11.3474;4.4115;0.2354;
597534547897226;-11.5367;3.4077;1.1432;
597534557997434;-12.4134;2.4975;2.6979;
597534568102278;-12.3057;0.3846;1.7279;
597534578207069;-10.0107;1.0026;3.9796;
597534588314882;-6.3362;-0.3915;0.5396;
597534598419726;-10.1617;-1.1605;-3.4848;
597534608524517;-13.1943;-0.3365;-3.1639;
597534618625819;-12.7705;-0.8731;-4.0382;
597534628730715;-9.3233;0.2100;-3.9784;
597534638835455;-8.4945;1.0771;-3.5662;
597534648960663;-10.0250;-0.5231;-3.8728;
597534659065507;-7.9460;0.1427;-2.1960;
597534669170299;-6.5276;-0.3413;-1.3768;
597534679278267;-9.7735;-1.6971;-2.8908;
597534689383111;-11.7523;-1.4551;-2.0019;
597534699487851;-11.3928;-1.0095;-0.8641;
597534709577747;-13.5969;-0.8106;-1.3050;
597534719682590;-13.6998;-0.8850;0.5061;
597534729787382;-11.0145;-0.7101;0.4798;
597534739885507;-10.1282;-0.7723;-0.4328;
597534749990403;-8.0297;-1.1677;-1.0056;
597534760095194;-5.2606;-0.9712;-3.4585;
597534770222017;-5.2029;-0.5088;-5.9952;
597534780326809;-7.3110;-0.4561;-7.2194;
597534790431653;-7.9675;-0.2453;-7.1477;
597534800537434;-7.8787;0.3057;-6.2276;
597534810642278;-8.6716;0.1403;-5.8035;
597534820747069;-9.4693;-0.5853;-3.0081;
597534830844413;-7.7710;-0.2405;-1.0128;
597534840949257;-7.9531;-0.0969;-2.0354;
597534851054049;-12.2530;-0.3051;-2.3133;
597534861189101;-9.7472;-0.4346;-0.4738;
597534871293892;-5.8187;-0.2022;-2.3204;
597534881398736;-7.5745;-0.3365;-6.5462;
597534891478997;-9.6251;0.2530;-9.2842;
597534901583840;-9.8743;0.5644;-9.1789;
597534911688632;-8.4033;1.1967;-6.8408;
597534921794413;-9.0694;1.2039;-3.1301;
597534931899257;-11.1847;0.5692;1.3493;
597534942004049;-11.3258;0.5429;4.3654;
597534952100351;-11.2373;0.4974;5.2325;
597534962205194;-11.1102;0.3823;3.6682;
597534972309986;-9.6634;0.4540;0.0799;
597534982433267;-9.0311;0.8758;-4.0095;
597534992538111;-12.4660;1.4889;-4.7375;
597535002642903;-10.2838;1.7740;-2.9028;
597535012733840;-6.0054;1.3214;-4.3926;
597535022838632;-8.9614;0.4349;-5.6073;
597535032943424;-10.9475;0.1427;-4.3065;
597535043084049;-8.8059;0.1283;-2.0859;
597535053188840;-5.0737;0.0039;-1.3600;
597535063293632;-6.3912;-0.4777;-2.5528;
597535073336913;-10.2526;-0.4035;-3.4131;
597535083441757;-11.2014;0.0374;-3.6957;
597535093546549;-10.3989;0.0470;-5.6623;
597535103658684;-12.5118;-0.4992;-7.2984;
597535113763528;-13.2709;-0.6287;-6.0263;
597535123868319;-8.1924;-0.3652;-4.3184;
597535133986132;-7.2559;-0.4107;-3.7627;
597535144091028;-7.6056;-0.8321;-2.3806;
597535154195767;-5.6151;-0.5040;-2.3423;
597535164320194;-7.3229;-0.4513;-4.7064;
597535174425038;-8.4248;-0.4418;-6.2085;
597535184529882;-8.3889;-0.4011;-7.5643;
597535194637069;-9.5004;-0.4418;-10.0436;
597535204741965;-10.4683;-0.0921;-9.1741;
597535214846705;-9.7280;0.3488;-5.2406;
597535224938997;-5.8618;0.6553;-1.5060;
597535235043840;-4.8485;0.1738;-1.1803;
597535245148632;-8.9303;0.3727;-3.8871;
597535255250663;-10.8515;1.3860;-4.7426;
597535265355455;-10.0466;1.6017;-5.8110;
597535275460299;-12.1211;1.5826;-7.8781;
597535285561497;-11.5247;1.7022;-5.0922;
597535295666288;-7.7542;1.8341;-3.7053;
597535305764101;-7.0786;1.9705;-5.1138;
597535315868944;-8.7317;2.7419;-4.7303;
597535325973736;-7.2416;3.1636;-3.4968;
597535336093163;-6.3745;2.3492;-4.4405;
597535346198007;-7.4979;2.2914;-2.8765;
597535356302799;-7.7495;1.9298;-2.6441;
597535366401184;-8.1685;0.6649;-4.1219;
597535376506028;-10.6648;0.8542;-3.7603;
597535386610819;-11.5463;-0.4011;-5.3270;
597535396706497;-10.8395;-0.0631;-5.6599;
597535406811340;-11.1918;0.2148;-4.8431;
597535416916132;-9.0311;-0.7316;-4.5197;
597535427057538;-6.5515;-0.2883;-3.9278;
597535437162382;-7.4094;-0.6455;-6.2372;
597535447267174;-7.7590;-0.2046;-4.4453;
597535457353892;-5.7586;0.0398;-3.8130;
597535467458736;-4.3023;1.4865;-4.0238;
597535477563528;-7.3086;1.5634;-7.1812;
597535487665247;-12.0613;2.5908;-4.6178;
597535497770090;-12.1427;1.9274;-2.7039;
597535507874830;-10.0780;1.9059;-0.7540;
597535517978684;-8.1494;-0.1926;-0.4642;
597535528083528;-7.7973;-1.1964;-0.1573;
597535538188319;-7.9555;-2.3725;-1.0917;
597535548292226;-8.2071;-3.6302;-0.4618;
597535558397017;-8.7963;-4.4566;-2.5122;
597535568501861;-10.6074;-3.7642;-3.1448;
597535578608319;-12.4783;-2.5546;-3.7196;
597535588713163;-12.2913;0.6577;-1.9732;
597535598817903;-9.6873;2.6653;-2.2487;
597535608921497;-8.8777;4.2727;-1.5012;
597535619026288;-9.1292;3.8079;-0.4065;
597535629131132;-8.7266;1.2879;-0.7588;
597535639225976;-11.4721;-0.8970;-1.6283;
597535649330767;-14.4736;-2.9952;-2.2726;
597535659435559;-13.2709;-1.9893;-0.8091;
597535669545767;-11.1775;-1.7354;0.3096;
597535679650663;-8.0680;-0.4107;-0.5934;
597535689755455;-6.7863;0.2387;-0.6987;
597535699859778;-9.2249;0.0470;-1.8272;
597535709964674;-9.0766;-0.1089;-2.1314;
597535720069413;-8.3602;-0.1232;-1.6379;
597535730189205;-10.7246;-0.0802;-3.2189;
597535740293997;-12.6745;-0.9497;-3.6212;
597535750398788;-11.9198;-0.4537;-2.4811;
597535760493944;-8.7389;-0.5877;-0.7540;
597535770598840;-6.6811;-0.6622;-0.1693;
597535780703580;-6.9852;-1.1267;-0.4519;
597535790815247;-7.6582;-1.6537;-1.4605;
597535800920090;-9.6969;-1.1243;-2.9243;
597535811024882;-12.0206;-1.1462;-3.5495;
597535821162122;-10.4444;-1.0884;-3.0344;
597535831266965;-8.0704;-1.3591;-4.4596;
597535841371705;-8.9495;-1.3950;-5.0180;
597535851435767;-10.1091;-0.8154;-3.7555;
597535861540611;-8.5065;-0.4585;-2.7350;
597535871645455;-7.1770;0.1451;-2.9698;
597535881751653;-9.2994;0.2626;-3.0846;
597535891856497;-10.4276;0.5907;-3.1567;
597535901961288;-10.0780;0.7609;-2.4476;
597535912065090;-8.8561;0.4926;-2.5217;
597535922169934;-9.2608;0.3511;-3.6838;
597535932274778;-10.1641;0.2602;-4.2849;
597535942384830;-10.1904;0.9236;-4.0693;
597535952489674;-9.6060;1.6137;-3.0799;
597535962594465;-8.0560;1.4387;-2.1625;
597535972704205;-7.5864;1.6926;-3.7938;
597535982808997;-10.2718;1.5248;-4.5748;
597535992913788;-10.3367;1.5033;-4.0693;
597536003026965;-8.3650;1.5682;-2.6273;
597536013131809;-7.1578;1.5706;-4.0382;
597536023236601;-10.2144;1.1082;-5.9569;
597536033334674;-11.4601;1.6328;-5.0707;
597536043439517;-7.3397;1.3190;-2.8403;
597536053544309;-5.9336;0.6194;-2.5217;
597536063634049;-9.1364;0.2028;-4.3400;
597536073738892;-10.2096;0.5213;-4.6944;
597536083843684;-9.3879;0.5644;-3.9520;
597536093976236;-9.5366;0.4783;-3.5853;
597536104081132;-8.2741;-0.4920;-3.8130;
597536114185924;-7.6367;-0.2166;-4.5652;
597536124269257;-9.8743;-0.3314;-4.7255;
597536134374101;-10.1402;-0.1711;-4.6872;
597536144478944;-7.7782;-0.9544;-5.2887;
597536154615247;-6.8895;-0.5614;-5.8325;
597536164720038;-10.3750;-0.3075;-6.1104;
597536174824882;-10.3367;-0.3796;-5.5786;
597536184908267;-7.7853;-0.1304;-4.8024;
597536195013059;-9.0742;-0.0153;-3.8776;
597536205117903;-9.9604;-0.3796;-3.3458;
597536215224934;-8.2143;0.3440;-1.5517;
597536225329726;-8.5161;0.3607;-1.7240;
597536235434569;-10.6074;-0.1950;-3.6742;
597536245538684;-8.6931;0.1068;-2.1170;
597536255643528;-7.2679;-0.3891;-1.6522;
597536265748319;-9.8408;-1.2706;-4.1530;
597536275847642;-11.5726;-1.7474;-2.6465;
597536285952434;-9.0598;-1.3232;-1.9397;
597536296057278;-9.2130;-1.8861;-4.1841;
597536306168111;-11.4625;-0.8560;-3.2620;
597536316273163;-10.6170;-0.3338;-1.1563;
597536326378215;-7.8787;-0.4753;-1.3002;
597536336484361;-8.3267;-0.6861;-1.6738;
597536346589413;-9.2584;-0.2883;-1.4725;
597536356694465;-9.5315;0.2459;-3.0488;
597536366793163;-10.5114;0.2100;-3.9832;
597536376898163;-8.3985;0.3607;-2.6871;
597536387003215;-6.6882;0.0972;-3.8201;
597536397130090;-9.2034;-0.3676;-5.4395;
597536407235142;-9.5773;-0.3389;-3.8584;
597536417340194;-8.9662;0.0494;-2.6489;
597536427430924;-7.5051;-0.5662;-3.2764;
597536437535976;-9.2201;-1.0884;-5.5857;
597536447641028;-11.5846;-0.6574;-4.4791;
597536457736861;-9.6012;-0.4896;-1.5350;
597536467841913;-7.0690;-0.8154;-2.0450;
597536477946965;-7.9002;-0.7579;-3.7866;
597536488054153;-10.1713;-0.1280;-3.1950;
597536498159205;-10.9857;0.5979;-2.9339;
597536508264257;-10.2024;1.9561;-3.0200;
597536518368111;-7.1985;2.1598;-1.5108;
597536528473163;-8.5232;1.4770;-3.1711;
597536538578215;-11.0264;1.0531;-5.3653;
597536548683892;-10.3774;2.1024;-3.6188;
597536558788892;-7.9819;2.4999;-2.1936;
597536568893944;-7.4166;0.7513;-3.8824;
597536579031132;-9.1005;1.3334;-5.5977;
597536589136184;-9.5988;2.3874;-3.7125;
597536599241236;-8.4512;1.9729;-3.2405;
597536609307851;-9.5677;1.2951;-4.6298;
597536619412851;-10.3654;1.1512;-2.6776;
597536629517903;-10.3077;1.1082;-1.0726;
597536639628736;-11.9943;2.2795;-2.1769;
597536649733788;-9.9413;1.6615;-0.9431;
597536659838840;-6.1277;1.0101;-0.8737;
597536669947174;-7.5936;-0.4442;-4.3208;
597536680052226;-8.7748;-0.5136;-5.5161;
597536690157278;-8.3746;0.6936;-4.4791;
597536700275507;-8.1975;1.1512;-5.1257;
597536710380559;-9.6562;0.6840;-6.2922;
597536720485559;-12.5357;1.2135;-3.5016;
597536730576340;-10.8299;0.7032;0.2785;
597536740681392;-8.0178;-0.7101;0.5133;
597536750786444;-8.5113;-1.4456;-0.8139;
597536760895299;-8.5807;-1.5365;-1.0678;
597536771000351;-8.9830;-0.9879;-3.3171;
597536781105403;-11.9127;0.2001;-5.4873;
597536791208840;-9.4214;0.9045;-3.5088;
597536801313892;-7.6152;1.1369;-3.4250;
597536811418944;-10.6624;0.8566;-5.6839;
597536821514674;-11.3545;0.4516;-3.2094;
597536831619726;-7.9508;0.9763;-0.1047;
597536841724778;-6.8486;0.2722;-0.6150;
597536851829413;-9.9915;-0.4537;-2.1266;
597536861934413;-10.7318;-0.2955;-2.1505;
597536872039465;-8.2765;-0.0849;-1.6594;
597536882172122;-8.1063;-0.3314;-4.0717;
597536892277226;-10.4683;0.0398;-6.2659;
597536902382226;-10.2168;0.5548;-4.3113;
597536912520403;-9.9604;1.3669;-3.3553;
597536922625455;-10.3630;1.3238;-2.6441;
597536932730507;-6.7816;0.3846;-0.1167;
597536942772486;-7.5960;0.5285;-2.3085;
597536952877538;-11.4577;-0.1639;-4.5293;
597536962982590;-10.6409;-0.5375;-3.6742;
597536973136340;-7.5625;0.1594;-3.2477;
597536983241392;-8.0465;0.8782;-4.3591;
597536993346444;-10.4779;0.8183;-4.3711;
597537003420924;-9.5964;1.2278;-2.4260;
597537013525976;-7.6729;1.2832;-2.6752;
597537023631028;-10.0585;1.0077;-3.9712;
597537033723580;-11.6300;0.4540;-2.8741;
597537043828632;-9.9437;1.0220;-1.5302;
597537053933684;-9.3233;1.9466;-3.1639;
597537064089049;-9.4047;1.3717;-2.8451;
597537074194101;-7.3516;1.7118;-2.3180;
597537084299153;-9.5821;1.2350;-4.9627;
597537094364361;-10.6959;0.8351;-5.0683;
597537104469413;-8.9662;1.2589;-3.0727;
597537114574465;-7.2105;1.7429;-2.7996;
597537124655819;-8.8490;1.2709;-5.3701;
597537134760819;-9.2058;0.9093;-5.1832;
597537144865872;-7.5386;1.3214;-3.2548;
597537154983632;-8.0847;0.7104;-2.9483;
597537165088684;-9.8647;-0.1113;-3.7579;
597537175193736;-9.9987;-0.3051;-2.4978;
597537185301965;-9.6084;0.4181;-1.8655;
597537195407017;-10.5616;0.8112;-3.8752;
597537205512069;-9.8264;0.4735;-3.8560;
597537215617174;-7.1794;0.6984;-2.4595;
597537225722226;-8.8633;0.5716;-3.5853;
597537235827278;-10.1665;0.2243;-4.4453;
597537245932799;-9.7232;0.1666;-3.1325;
597537256037851;-9.5653;0.7056;-2.6058;
597537266142903;-10.7916;0.1020;-2.3157;
597537276246236;-10.7964;0.2387;-1.8392;
597537286351288;-8.8298;-0.1424;-0.4834;
597537296456340;-8.4296;-0.5375;-1.1515;
597537306599934;-8.4392;-0.9951;-1.8727;
597537316705247;-8.3339;-1.2610;-3.1878;
597537326810559;-10.7175;-0.4394;-4.7737;
597537336880559;-11.1799;0.3200;-3.2381;
597537346985819;-7.4716;0.4158;-1.4438;
597537357091132;-6.8366;-0.4466;-3.3960;
597537367189101;-9.0407;-0.6335;-6.0841;
597537377294413;-10.7031;-0.0105;-4.2802;
597537387399674;-9.1292;0.1546;-0.9766;
597537397508580;-8.2549;-0.2477;-1.6020;
597537407613840;-10.9690;-0.7651;-3.5638;
597537417719153;-12.2411;-0.0392;-2.3901;
597537427827330;-9.4693;0.2435;-0.6389;
597537437932590;-7.7160;-0.4609;-2.8669;
597537448037903;-8.6237;-0.8994;-4.4719;
597537458132903;-9.4837;-0.3820;-3.8297;
597537468238163;-9.8599;0.6721;-2.8140;
597537478343476;-9.4238;0.5142;-2.9004;
597537488442069;-7.7040;-0.4274;-2.7135;
597537498547330;-8.2454;-0.4561;-4.1674;
597537508652642;-10.4659;-0.7460;-4.9029;
597537518764986;-11.0336;-0.5136;-3.3147;
597537528870247;-8.9901;0.2243;-1.3289;
597537538975559;-7.3564;0.2001;-1.8918;
597537549074101;-9.1388;-0.3075;-4.5891;
597537559179413;-10.4204;0.0757;-4.4791;
597537569284674;-8.1278;0.5716;-2.6417;
597537579388059;-7.4237;0.7223;-4.3950;
597537589493319;-10.3582;0.4878;-5.7891;
597537599598632;-11.2636;0.6362;-3.3266;
597537609709934;-10.4109;2.1000;-1.3768;
597537619815247;-9.5124;2.0136;-1.1563;
597537629920507;-6.9087;0.5716;-1.4198;
597537639984101;-7.8691;0.2052;-4.1363;
597537650089361;-9.8982;-0.3147;-5.1616;
597537660194674;-10.5808;-0.5662;-3.7651;
597537670342642;-9.8934;0.7295;-2.5433;
597537680447903;-8.9614;0.5907;-2.6058;
597537690553215;-10.0226;0.0446;-4.0286;
597537700671080;-10.1282;0.3751;-3.2836;
597537710776340;-8.1733;0.6386;-1.8823;
597537720881653;-8.0225;0.1977;-2.7374;
597537730975767;-9.5172;-0.1328;-3.7316;
597537741081080;-10.0346;-0.7699;-2.5241;
597537751186340;-9.1579;0.1307;-2.9841;
597537761283476;-9.5148;0.1834;-4.0597;
597537771388788;-7.8476;-0.7101;-3.2261;
597537781494049;-8.2621;-0.3796;-4.1219;
597537791604726;-10.1904;-0.2309;-4.5413;
597537801710038;-10.8805;-0.8608;-2.5839;
597537811815299;-9.3257;-0.6670;-1.0415;
597537821922955;-7.9938;-0.5662;-2.8499;
597537832028215;-8.6644;-0.6383;-5.4036;
597537842133528;-10.0947;0.4325;-5.5834;
597537852248840;-9.4262;0.3990;-2.5986;
597537862354153;-9.5100;0.1570;-1.9110;
597537872459465;-10.1904;0.5213;-3.1950;
597537882544934;-10.4324;-0.2596;-1.5541;
597537892650194;-9.8958;0.4038;-1.7336;
597537902755507;-8.8466;0.4181;-3.9230;
597537912853892;-6.6428;-0.2524;-3.5997;
597537922959205;-7.6128;0.0470;-3.9855;
597537933064465;-10.2311;0.0876;-5.3725;
597537943164205;-10.5520;-0.0559;-3.5877;
597537953269465;-8.8872;-0.3532;-1.5374;
597537963374778;-8.3818;0.0805;-2.7470;
597537973491184;-9.7854;-0.0849;-5.2214;
597537983596497;-9.9939;0.2315;-4.4189;
597537993701757;-9.1508;-0.0129;-1.0798;
597538003795038;-9.2994;-0.3266;-0.3036;
597538013900351;-10.2335;-0.6024;-2.0450;
597538024005611;-9.5390;-0.7555;-3.0176;
597538034105767;-9.3185;-0.0826;-3.5997;
597538044211028;-11.4410;-0.6933;-3.9015;
597538054316340;-8.3770;0.2818;-2.4667;
597538064449413;-7.3875;0.3081;-2.4882;
597538074554674;-10.1689;-0.7220;-3.7484;
597538084659986;-11.0432;-0.8489;-2.1864;
597538094744517;-9.8839;-1.0908;-0.7253;
597538104849830;-8.3459;-0.9664;-2.4117;
597538114955090;-8.7099;-0.8970;-5.1042;
597538125062851;-10.2622;-0.5614;-4.4934;
597538135168163;-9.7974;-0.4035;-1.5541;
597538145273424;-9.5581;-0.5758;-1.7456;
597538155383997;-9.1651;-0.9018;-2.5720;
597538165489257;-9.4286;-0.8922;-3.1735;
597538175594569;-9.8025;0.0063;-3.3649;
597538185706601;-9.1914;0.4421;-4.0167;
597538195811861;-7.7279;-0.5327;-3.2213;
597538205917174;-7.7830;-0.5782;-3.2381;
597538216017330;-10.6433;-0.3604;-5.5304;
597538226122590;-10.9331;-0.7603;-1.8033;
597538236227903;-7.9050;-1.1725;0.4343;
597538246325872;-8.9590;-0.7436;-4.2491;
597538256431132;-9.7352;-0.8082;-5.9091;
597538266536444;-9.6347;0.1307;-3.9568;
597538276636392;-8.9973;0.1594;-1.4007;
597538286741705;-8.2214;-0.6431;-1.7743;
597538296841288;-9.8504;-0.1448;-4.3496;
597538306946549;-10.1474;-0.1854;-3.4896;
597538317051861;-10.2239;-0.3556;-2.0426;
597538327172747;-10.5640;0.3392;-2.7589;
597538337278007;-8.2238;-0.2955;-2.6991;
597538347383319;-7.9146;-0.2166;-3.1301;
597538357475142;-9.5557;-0.4657;-3.7675;
597538367580403;-9.0024;-0.3891;-3.4537;
597538377685715;-8.6548;-0.5806;-3.6933;
597538387784986;-9.0048;-0.7125;-3.8824;
597538397890299;-8.8848;-0.2644;-4.0549;
597538407995559;-9.7783;-0.0969;-4.2108;
597538418112486;-9.2273;-0.0802;-3.4394;
597538428217747;-8.2549;-0.0945;-2.3830;
597538438323059;-8.5783;-0.2118;-2.5313;
597538448420559;-9.2058;-0.3242;-3.2166;
597538458525819;-9.8360;-0.6909;-2.4978;
597538468631132;-9.5100;0.3655;-3.0009;
597538478731913;-9.0670;-0.0706;-3.9087;
597538488837174;-7.6968;-0.2166;-3.6909;
597538498942486;-8.3985;0.4397;-3.9568;
597538509042747;-10.6409;0.0470;-4.5054;
597538519148007;-10.7557;-0.0129;-3.0607;
597538529253319;-9.7161;-0.1783;-1.5422;
597538539353319;-8.5184;0.1044;-1.7360;
597538549458580;-9.3808;-0.2524;-3.3290;
597538559563892;-9.6730;0.0111;-3.9473;
597538569689622;-8.7075;-0.0730;-2.4835;
597538579794882;-8.8896;-0.4609;-2.6776;
597538589900194;-9.9867;-0.1543;-3.5495;
597538599989934;-10.4755;-0.0778;-2.2223;
597538610095194;-9.4908;0.3464;-1.8846;
597538620200507;-8.6859;0.3272;-3.7460;
597538630308580;-8.2310;-0.1759;-3.9664;
597538640413892;-8.3004;-0.1161;-2.8741;
597538650519153;-8.4921;0.0159;-3.7029;
597538660645455;-9.5076;0.0494;-3.9449;
597538670750715;-9.5438;-0.2046;-3.0511;
597538680856028;-8.8705;-0.0754;-2.6082;
597538690940767;-8.6189;-0.0921;-3.6188;
597538701046080;-9.3042;-0.0730;-5.2669;
597538711151340;-8.9542;-0.0129;-3.5207;
597538721267955;-8.6022;0.0326;-2.0426;
597538731373267;-10.2981;0.0852;-2.6560;
597538741478528;-10.8538;-0.4250;-2.3471;
597538751564622;-10.2933;-0.3123;-1.3481;
597538761669934;-10.7725;0.0805;-2.4117;
597538771775194;-9.2513;0.0374;-3.2788;
597538781879830;-7.7183;0.3176;-1.9205;
597538791985142;-9.1890;0.3368;-3.0918;
597538802090403;-9.7831;0.0039;-4.3448;
597538812188580;-10.2574;-0.5399;-3.2788;
597538822293840;-8.2358;-0.0488;-2.2774;
597538832399153;-7.8571;-0.2764;-2.9818;
597538842501809;-10.5449;-0.3939;-4.7088;
597538852607122;-10.2550;0.0422;-4.0406;
597538862712382;-7.9412;0.0781;-1.5470;
597538872808632;-7.9699;-0.3580;-1.9636;
597538882913944;-8.5831;-0.3075;-3.5782;
597538893019205;-8.9925;-0.5830;-3.6428;
597538903143788;-9.7041;0.2171;-3.6909;
597538913249049;-10.1258;0.4950;-4.4213;
597538923354361;-9.0144;0.7175;-3.4753;
597538933456497;-8.8729;0.3200;-2.9770;
597538943561757;-10.0011;0.0589;-3.3912;
597538953667069;-10.2885;-0.2405;-2.9674;
597538963775559;-8.9255;-0.3796;-2.2247;
597538973880872;-8.1975;-0.6335;-2.1434;
597538983986132;-8.7437;-0.5949;-4.3974;
597538994100247;-9.0000;-0.2046;-5.3462;
597539004205507;-8.8394;-0.1663;-2.9722;
597539014310819;-10.5999;-0.2477;-2.6489;
597539024419413;-10.8924;-0.2692;-2.0788;
597539034524674;-9.9532;-0.6311;-1.1970;
597539044629986;-9.4597;-0.7579;-0.9096;
597539054710142;-9.5076;-0.1711;-2.7039;
597539064815455;-9.4286;0.1762;-3.4609;
597539074920715;-8.2238;0.0709;-2.3303;
597539085031653;-9.0479;-0.1591;-3.9401;
597539095136965;-10.0418;-0.2979;-4.7856;
597539105242226;-9.2970;0.1283;-4.1818;
597539115346497;-8.3507;-0.1448;-3.3362;
597539125451809;-8.5639;-0.1424;-3.5279;
597539135557069;-9.8647;-0.4035;-3.5112;
597539145688997;-8.9207;-0.3820;-2.6369;
597539155794257;-8.6166;-0.9497;-1.7432;
597539165899569;-8.1446;-1.3089;-1.7121;
597539175986497;-8.4153;-1.1773;-3.3936;
597539186091757;-10.1928;-1.3663;-4.4668;
597539196197069;-10.3822;-0.4848;-4.8957;
597539206304153;-9.7472;0.3440;-4.9173;
597539216409413;-8.6285;0.2722;-3.0344;
597539226514726;-8.1948;0.1092;-2.2271;
597539236615403;-9.8886;-0.0105;-3.0559;
597539246720663;-10.3173;-0.5662;-3.5112;
597539256825976;-9.4143;-0.2812;-3.2142;
597539266933059;-9.0838;-0.3915;-2.9052;
597539277038319;-9.2994;-0.2118;-3.2740;
597539287143632;-10.0322;-0.1089;-3.6380;
597539297234309;-9.8671;0.0206;-2.4715;
597539307339517;-8.0895;-0.3532;-1.5924;
597539317444778;-8.8561;-0.2883;-2.8187;
597539327562642;-9.1196;-0.7603;-3.3147;
597539337667851;-10.1809;-0.6263;-2.7613;
597539347773111;-9.9341;-0.1304;-2.1099;
597539357867538;-8.3172;-0.1208;-3.3649;
597539367972747;-7.7973;0.2865;-4.1841;
597539378078007;-8.2071;0.0661;-4.2897;
597539388201392;-10.2168;-0.0849;-4.2849;
597539398306601;-10.3125;-0.0826;-3.4633;
597539408411861;-8.7437;-0.0945;-2.3423;
597539418504569;-9.3377;0.1164;-2.7230;
597539428609778;-9.9437;-0.2166;-3.2883;
597539438715038;-9.3257;0.4062;-3.8728;
597539448821080;-8.9088;0.2506;-2.6991;
597539458926288;-8.7987;-0.1232;-2.0907;
597539469031549;-9.2201;0.1164;-3.5638;
597539479140872;-10.4085;-0.1496;-3.4035;
597539489246080;-10.9283;0.1259;-2.3276;
597539499351340;-10.0035;0.1929;-2.1386;
597539509441080;-8.0871;0.3248;-2.8331;
597539519546288;-8.2454;0.5429;-3.5877;
597539529651549;-9.6491;0.3535;-4.0310;
597539539763163;-9.7376;-0.1280;-3.5877;
597539549868372;-8.5902;0.0613;-3.2788;
597539559973632;-8.8298;0.1738;-3.4872;
597539570076288;-8.9662;-0.2357;-3.5231;
597539580181497;-9.2393;-0.3508;-3.6045;
597539590286757;-10.1976;-0.0969;-3.5877;
597539600392747;-9.0215;-0.2309;-2.3518;
597539610497955;-9.6706;-0.3338;-1.6499;
597539620603215;-9.6036;-0.2596;-2.1912;
597539630718892;-9.8695;-0.7962;-2.2726;
597539640824101;-9.0503;0.1092;-2.7517;
597539650929361;-9.0000;0.0111;-4.0190;
597539661036601;-8.0656;0.1522;-4.9771;
597539671141809;-7.2631;0.3033;-5.0779;
597539681247069;-8.8011;0.0852;-5.5810;
597539691334413;-10.4133;-0.2118;-4.0454;
597539701439622;-9.5868;-0.7149;-2.5050;
597539711544882;-9.1364;-0.4633;-1.7910;
597539721648892;-9.4095;-0.5423;-2.5600;
597539731754101;-9.2874;-0.4513;-2.9267;
597539741859361;-9.0048;-0.4274;-3.3601;
597539751958997;-8.8585;-0.3796;-3.1301;
597539762064205;-9.1843;-0.2381;-3.4490;
597539772169465;-9.5315;-0.0655;-3.2931;
597539782288319;-9.8695;-0.3170;-2.6871;
597539792393580;-9.9724;0.2052;-3.3553;
597539802498840;-9.2827;0.1259;-3.6165;
597539812582122;-8.2980;0.2770;-3.1062;
597539822687330;-8.3243;0.0876;-2.4284;
597539832792590;-9.8216;-0.4705;-3.7531;
597539842960715;-10.2526;-0.7244;-3.1181;
597539853065976;-8.4849;-0.7747;-1.8296;
597539863171236;-7.7064;-0.5566;-2.7254;
597539873219934;-8.9447;-0.6526;-4.5293;
597539883325142;-10.1091;-0.5040;-4.2730;
597539893430403;-8.9255;0.0087;-2.7900;
597539903556080;-8.6931;-0.1137;-2.6321;
597539913661288;-8.6859;-0.3027;-2.7541;
597539923766549;-8.5687;-0.1208;-3.1277;
597539933848736;-10.3220;-0.5734;-2.7015;
597539943953944;-10.4492;0.2100;-2.1840;
597539954059205;-9.8264;-0.0129;-2.5600;
597539964175767;-7.7806;-0.1304;-2.7781;
597539974280976;-8.3961;-0.2094;-2.9554;
597539984386236;-9.1077;-0.1807;-3.8608;
597539994486601;-9.2489;-0.1974;-4.0525;
597540004591809;-9.6060;-0.3194;-3.6694;
597540014697069;-8.7099;-0.2166;-2.6871;
597540024843319;-8.5208;-0.3338;-3.0320;
597540034948580;-9.7352;-0.0849;-3.7675;
597540045053840;-9.7543;0.1642;-2.5002;
597540055111601;-9.6084;-0.1687;-1.3839;
597540065216809;-10.0971;-0.0224;-1.8511;
597540075322069;-9.3449;-0.0009;-2.2415;
597540085430351;-9.1340;-0.2716;-2.6393;
597540095535559;-10.3750;0.7394;-2.8092;
597540105640819;-10.4444;0.5692;-2.6824;
597540115752903;-8.2023;0.3344;-2.4332;
597540125858111;-7.7973;0.6505;-4.0262;
597540135963372;-10.2144;0.6003;-4.6848;
597540146083580;-10.3029;0.2841;-3.2309;
597540156188788;-9.0526;0.1259;-2.4715;
597540166294049;-8.7891;-0.2094;-2.2869;
597540176386601;-8.2813;-0.1543;-2.8164;
597540186491809;-10.4874;-0.1735;-4.2802;
597540196597069;-10.8132;0.3057;-2.8259;
597540206682851;-8.3195;-0.3652;-1.0056;
597540216788059;-8.3602;0.3224;-3.4202;
597540226893319;-8.8729;0.0182;-4.2419;
597540237020455;-10.4085;0.3296;-3.9473;
597540247125663;-10.8371;0.9308;-3.5279;
597540257230924;-8.8083;0.7008;-3.0033;
597540267332226;-7.0164;0.5094;-2.8092;
597540277437434;-8.5974;0.3129;-3.7364;
597540287542694;-11.0575;0.2961;-4.9196;
597540297627434;-10.5855;-0.0392;-3.5112;
597540307732590;-8.5854;-0.0272;-2.2391;
597540317837799;-8.8059;-0.3365;-2.6225;
597540327963476;-9.3832;-0.2166;-3.7819;
597540338068632;-9.6849;0.3392;-3.7101;
597540348173840;-9.8384;0.4325;-2.6680;
597540358283684;-8.6022;0.0876;-2.4069;
597540368388840;-8.7389;0.2219;-3.5495;
597540378494049;-9.3257;0.2195;-4.1100;
597540388557538;-10.3893;0.1618;-2.9076;
597540398662694;-9.8121;0.6170;-2.2391;
597540408767903;-9.1173;0.4735;-3.0870;
597540418873059;-8.7796;0.1905;-3.0488;
597540429008163;-8.4634;0.0494;-2.3252;
597540439113319;-9.3497;0.0374;-3.4322;
597540449218528;-10.0780;-0.3218;-3.7101;
597540459287851;-9.5148;-0.1854;-3.3027;
597540469393007;-8.7075;-0.1998;-2.8837;
597540479498215;-8.5089;-0.3700;-3.3817;
597540489650299;-10.0035;0.0565;-4.4333;
597540499755507;-10.3077;0.0924;-3.0464;
597540509860663;-9.1125;0.1427;-1.6666;
597540519944726;-9.1364;-0.2859;-2.1649;
597540530049882;-9.2369;-0.1065;-3.2692;
597540540155090;-9.7376;-0.2261;-2.9028;
597540550258059;-10.3869;0.1546;-2.3973;
597540560363215;-9.0742;0.3105;-3.0679;
597540570468424;-8.1924;0.1834;-3.1878;
597540580596601;-8.1517;0.2052;-3.1325;
597540590701757;-8.8561;-0.1448;-4.5485;
597540600806965;-10.5568;-0.3604;-4.7689;
597540610883319;-10.5138;-0.3027;-2.6967;
597540620988476;-8.6764;-0.3413;-1.5251;
597540631093684;-8.5472;-0.3003;-3.1448;
597540641148163;-10.0466;-0.3796;-4.5102;
597540651253319;-9.8695;-0.3242;-2.4380;
597540661358528;-8.8418;-0.3242;-1.6259;
597540671530767;-9.3688;-0.3099;-3.2644;
597540681635924;-9.5028;-0.2955;-3.4011;
597540691741132;-9.1890;-0.5231;-2.8403;
597540701825976;-9.3042;-0.0440;-3.5279;
597540711931132;-9.8910;0.0182;-3.7723;
597540722036340;-9.2225;-0.1615;-2.4093;
597540732151080;-8.7676;-0.0559;-2.5696;
597540742256236;-9.2632;-0.2692;-3.8249;
597540752361444;-9.9580;-0.5901;-3.7675;
597540762530715;-9.0024;-0.1615;-2.8307;
597540772635924;-9.0933;-0.4992;-2.7254;
597540782741132;-11.2182;-0.3532;-3.2931;
597540792775663;-11.0360;0.1977;-3.7651;
597540802880819;-9.3114;0.4397;-2.5217;
597540812986028;-8.1852;0.3200;-1.9732;
597540823135819;-9.4980;0.1642;-2.9889;
597540833241028;-9.5988;0.0374;-3.6069;
597540843346236;-9.6945;-0.2118;-3.1253;
597540853418580;-10.1378;0.2052;-3.0440;
597540863523736;-9.1699;-0.0464;-3.3051;
597540873628944;-7.6681;-0.0248;-3.3673;
597540883732330;-6.0703;0.2746;-3.2189;
597540893837486;-7.5769;-0.3485;-5.9330;
597540903942694;-10.4133;-0.4490;-6.6108;
597540914054569;-10.3534;-0.1639;-4.0908;
597540924159726;-8.4658;0.2913;-1.9875;
597540934264934;-7.9050;-0.0416;-3.0200;
597540944376392;-9.3353;0.2889;-3.9377;
597540954481549;-10.6193;0.5668;-3.7747;
597540964586757;-11.0575;0.5213;-2.7637;
597540974682538;-8.2837;0.6960;-2.2558;
597540984787694;-6.8656;0.7537;-2.8884;
597540994892903;-10.1330;-0.0921;-3.1038;
597541004992851;-12.1594;0.3559;-3.0320;
597541015098007;-9.6203;0.6840;-2.6752;
597541025203215;-6.4510;0.3775;-2.8741;
597541035329986;-7.3875;-0.1184;-3.9087;
597541045435142;-9.3473;-0.4705;-4.6274;
597541055540351;-10.6505;-0.3027;-3.3936;
597541065610559;-9.4908;-0.2716;-1.4198;
597541075715715;-7.7806;-0.6263;-0.7612;
597541085820924;-7.9146;-0.6287;-3.4083;
597541095938892;-10.0131;-0.5806;-5.3079;
597541106044049;-10.8634;0.3272;-3.8608;
597541116149257;-9.5581;0.6051;-0.7325;
597541126263788;-9.7280;0.4878;-1.6905;
597541136368944;-9.8288;0.3176;-3.1519;
597541146474153;-10.5592;0.2387;-3.5160;
597541156559934;-12.0709;0.4038;-1.4797;
597541166665090;-9.9556;0.5333;0.0269;
597541176770299;-7.2200;0.3511;-2.3037;
597541186880819;-7.2775;-0.4274;-5.1832;
597541196985976;-7.3421;-0.5758;-5.4299;
597541207091184;-8.3842;-0.4370;-5.0874;
597541217207747;-9.6108;-0.8560;-4.4166;
597541227312903;-8.7676;-0.6359;-3.7172;
597541237418111;-7.2942;-0.5160;-3.7005;
597541247513476;-8.7556;-0.6144;-4.5820;
597541257618632;-10.2526;-0.3218;-4.1195;
597541267723840;-10.3534;-0.1902;-2.5074;
597541277831705;-9.4167;-0.4370;-1.5996;
597541287936861;-9.3425;0.0565;-2.2439;
597541298042069;-10.2885;-0.0009;-3.1591;
597541308143944;-10.8658;0.0326;-2.9219;
597541318249153;-10.7366;0.8064;-3.0751;
597541328354361;-8.6812;0.6242;-2.8044;
597541338452590;-7.8763;0.2937;-3.4561;
597541348557799;-10.1665;0.2387;-3.8082;
597541358663007;-10.4157;-0.0921;-3.3601;
597541368781236;-9.2106;-0.4178;-1.7480;
597541378886444;-7.9723;-0.9640;-1.0415;
597541388991653;-8.1206;-1.4480;-2.7374;
597541399086340;-8.7266;-1.3280;-4.5724;
597541409191549;-9.0455;-0.9544;-4.8814;
597541419296705;-8.8825;-0.1735;-3.8082;
597541429394882;-8.4224;-0.1424;-2.9722;
597541439500090;-9.0335;0.0446;-4.0932;
597541449605299;-9.3425;0.5979;-4.5102;
597541459713215;-9.7687;0.6553;-3.0105;
597541469818424;-8.8442;0.9835;-2.7494;
597541479923580;-8.9925;1.0675;-4.0884;
597541490019413;-9.3425;0.7609;-4.4142;
597541500124622;-9.2707;0.8686;-2.2104;
597541510229830;-9.8049;0.6482;-2.6608;
597541520332747;-10.0202;-0.2740;-3.0679;
597541530437903;-9.0861;-0.3147;-2.4691;
597541540543111;-8.5137;-0.3676;-2.8020;
597541550652694;-8.9949;-0.4274;-3.1110;
597541560757903;-10.0804;-0.4657;-3.7316;
597541570863059;-9.7208;0.0900;-3.0655;
597541580987747;-7.9292;0.0111;-2.1601;
597541591092955;-8.0776;-0.2835;-2.8570;
597541601198111;-8.7317;-0.1017;-3.7507;
597541611276601;-9.2225;-0.1304;-3.6981;
597541621381757;-11.7787;0.3368;-3.4633;
597541631486965;-11.9441;0.5524;-2.6058;
597541641577069;-7.9914;0.7513;-1.4174;
597541651682278;-6.5731;0.6458;-2.3853;
597541661787486;-7.5434;-0.0392;-3.9497;
597541671905455;-9.6562;-0.0631;-4.7545;
597541682010611;-11.0097;-0.0921;-3.6571;
597541692115819;-9.5366;-0.3218;-2.1601;
597541702220924;-9.0718;-0.4178;-2.4858;
597541712326132;-9.4956;-0.7149;-3.5590;
597541722431288;-9.5868;-0.2859;-2.8693;
597541732541861;-8.6692;0.0876;-2.6512;
597541742647069;-9.2201;-0.3820;-2.8956;
597541752752278;-9.1436;-0.2859;-3.2118;
597541762864257;-8.7604;-0.2979;-3.1639;
597541772969465;-10.1258;-0.6383;-3.0129;
597541783074622;-10.1833;-0.0706;-2.7637;
597541793160611;-8.5137;-0.0655;-3.0344;
597541803265819;-7.9098;-0.2118;-4.3711;
597541813371028;-9.2755;0.1642;-4.9914;
597541823524361;-10.0923;0.0924;-4.4620;
597541833629569;-8.8179;-0.0873;-2.9052;
597541843734778;-8.5950;-0.2979;-2.5265;
597541853795142;-8.8083;-0.9736;-2.5986;
597541863900299;-9.3185;-0.8154;-3.1663;
597541874005507;-9.6395;-0.4801;-3.9182;
597541884113580;-9.0981;-0.3604;-3.3769;
597541894218736;-9.1627;0.0230;-3.1086;
597541904323892;-9.2106;-0.2644;-2.7206;
597541914429465;-8.5424;-0.0849;-3.2357;
597541924534622;-9.1938;-0.4155;-3.4992;
597541934639778;-9.9126;-0.3051;-2.8765;
597541944764153;-9.7615;0.0589;-2.8765;
597541954869361;-8.4105;-0.1759;-3.6909;
597541964974569;-8.5878;-0.2548;-3.0559;
597541975066340;-8.8801;-0.0682;-3.0248;
597541985171549;-9.4789;-0.2142;-3.8201;
597541995276757;-10.0155;0.0159;-4.0023;
597542005363788;-9.0790;-0.0921;-2.6177;
597542015468944;-9.1053;-0.0081;-2.0210;
597542025574153;-9.0191;-0.1280;-2.8331;
597542035690142;-9.5988;-0.0897;-3.6790;
597542045795299;-9.6515;-0.0320;-3.3123;
597542055900507;-8.9853;0.1427;-2.4882;
597542066029986;-8.6692;0.0230;-2.9602;
597542076135194;-8.2837;0.0135;-3.4322;
597542086240351;-9.4167;-0.0224;-3.3505;
597542096319257;-10.3029;-0.0320;-2.8331;
597542106424465;-8.7556;0.1140;-2.6632;
597542116529674;-7.5410;0.0446;-3.4872;
597542126654569;-8.5735;0.0039;-3.5207;
597542136759778;-10.0995;0.1235;-3.5973;
597542146864934;-10.7581;0.2195;-3.3194;
597542156955299;-10.1904;0.3511;-2.6919;
597542167060507;-9.5148;0.1522;-2.0859;
597542177165715;-8.6955;-0.0176;-2.0043;
597542187279361;-9.5581;0.0159;-3.5207;
597542197384569;-10.0107;0.1164;-3.8058;
597542207489778;-9.1316;0.1666;-2.9004;
597542217583319;-9.6036;-0.1783;-2.5289;
597542227688528;-9.7759;-0.3724;-3.0631;
597542237793736;-9.5052;-0.5495;-3.1352;
597542247905507;-9.5988;-0.5662;-2.5816;
597542258010715;-8.5400;-0.1543;-3.0607;
597542268115924;-8.1613;-0.1783;-3.7220;
597542278216340;-8.5687;-0.0440;-3.5375;
597542288321549;-8.1757;-0.2812;-2.8546;
597542298426757;-8.2023;-0.1304;-4.1028;
597542308548528;-9.0191;-0.5734;-5.1185;
597542318653736;-8.8346;-0.4250;-4.6107;
597542328758892;-8.9542;-0.0488;-4.4743;
597542338844882;-9.0814;-0.0248;-4.4453;
597542348950090;-10.0732;0.4759;-4.3208;
597542359055247;-9.9221;0.5931;-2.8331;
597542369177330;-7.8547;0.3727;-1.5589;
597542379282486;-8.7628;-0.1615;-2.4212;
597542389387694;-9.8049;-0.1352;-2.7924;
597542399482174;-9.9485;-0.3290;-2.7637;
597542409587382;-10.8757;-0.1376;-2.9506;
597542419692538;-10.2838;0.1451;-3.1038;
597542429790924;-8.2932;0.2530;-2.9794;
597542439896132;-8.0393;0.4205;-2.8522;
597542450001288;-9.0526;0.3727;-3.4442;
597542460118944;-10.0179;0.0206;-4.4094;
597542470224153;-9.2178;0.0494;-3.5901;
597542480329309;-7.4764;0.0446;-2.5098;
597542490435611;-7.3516;-0.3939;-3.3027;
597542500540819;-9.1938;-0.0511;-4.5341;
597542510645976;-10.3149;-0.0464;-4.0837;
597542520726028;-9.4884;0.4878;-2.4165;
597542530831236;-8.2669;0.0422;-2.0716;
597542540936392;-8.6429;0.1331;-2.9722;
597542551044309;-9.4143;0.1690;-3.1014;
597542561149465;-10.0995;0.1427;-2.1817;
597542571254622;-10.2742;0.7295;-2.7230;
597542581354726;-8.6955;0.3870;-3.3003;
597542591459882;-7.8260;-0.0368;-3.4872;
597542601565038;-9.9102;0.0565;-3.6957;
597542611685507;-10.8538;0.2746;-4.3208;
597542621790715;-9.8671;0.2913;-3.4370;
597542631895872;-7.7734;-0.0416;-2.4667;
597542641992174;-7.2751;-0.3652;-3.9449;
597542652097382;-8.6477;-0.3365;-4.4237;
597542662202538;-9.5701;-0.3194;-3.7603;
597542672313007;-9.2345;0.1499;-3.1277;
597542682418215;-8.3985;-0.3843;-2.9602;
597542692523372;-8.9160;-0.4155;-3.2285;
597542702622955;-9.2225;-0.0778;-3.0990;
597542712728111;-10.3367;-0.2261;-3.1205;
597542722833267;-9.3018;-0.0921;-2.5744;
597542732944153;-8.5113;0.2626;-3.2405;
597542743049309;-9.0838;0.1379;-4.1746;
597542753154517;-10.6816;0.1307;-2.6967;
597542763245611;-10.0083;0.0326;-1.8942;
597542773350819;-8.9925;-0.0969;-2.9172;
597542783455976;-9.2536;-0.2213;-3.5447;
597542793594153;-10.0466;-0.2812;-4.0047;
597542803699361;-10.4037;-0.4657;-2.4236;
597542813804517;-9.7041;-0.0730;-2.5816;
597542823871288;-9.3975;-0.0730;-2.7709;
597542833976444;-7.8906;-0.3218;-2.0836;
597542844081601;-8.3148;-0.5160;-2.8044;
597542854194465;-9.0455;-0.6120;-3.7340;
597542864299674;-9.2827;-0.6096;-3.7699;
597542874404830;-9.5291;-0.5183;-3.7555;
597542884524674;-9.1364;-0.0706;-3.8130;
597542894629882;-7.8500;0.0470;-4.4596;
597542904735038;-8.4105;0.2124;-4.1913;
597542914846497;-8.6907;0.4998;-2.2534;
597542924951705;-9.3162;0.1618;-3.5997;
597542935056861;-10.4324;-0.2453;-4.8622;
597542945159778;-11.5965;0.2076;-3.5542;
597542955264986;-11.8816;0.2315;-1.2353;
597542965370142;-11.8648;0.3200;-0.5025;
597542975479986;-12.1522;0.6625;-1.5517;
597542985585194;-10.6241;0.4445;-1.4390;
597542995690351;-7.5793;0.4397;-2.0067;
597543005788215;-6.0413;-0.0296;-3.6045;
597543015893424;-6.1301;-0.3242;-5.7078;
597543025998580;-7.5242;-0.8177;-5.6599;
597543036105403;-9.4190;-0.5423;-4.6657;
597543046210611;-8.7218;-1.2610;-4.5054;
597543056315767;-7.3134;-1.2203;-6.0072;
597543066420507;-8.3842;-1.4121;-4.3256;
597543076525663;-9.0239;-1.4240;-3.3410;
597543086630872;-9.8240;-0.6455;-3.1902;
597543096721861;-9.6443;-0.5997;-2.8044;
597543106827069;-9.1795;-0.2357;-2.8522;
597543116932226;-9.3353;-0.2883;-2.9722;
597543127051861;-10.4013;-0.1328;-4.3113;
597543137157069;-10.9834;0.5764;-5.2310;
597543147262226;-10.6720;0.9619;-3.8752;
597543157358632;-10.4252;0.8183;-2.7398;
597543167463840;-10.0804;0.6362;-3.1062;
597543177568997;-10.3678;0.0781;-1.7985;
597543187665715;-10.0681;-0.6885;0.8486;
597543197770924;-8.8968;-1.2275;1.2990;
597543207876080;-7.8428;-1.8407;-1.0199;
597543217989934;-8.6477;-1.7976;-2.7709;
597543228095142;-8.5783;-1.8646;-3.3936;
597543238200299;-9.4238;-1.5317;-4.6011;
597543248296653;-9.4932;-1.1243;-5.1664;
597543258401861;-9.2201;-0.3724;-4.7617;
597543268507017;-9.3209;0.0470;-3.6595;
597543278622590;-8.4440;0.7466;-2.7541;
597543288727799;-8.6524;1.0819;-3.5064;
597543298832955;-9.3712;1.4937;-3.0009;
597543308916861;-10.0346;1.1249;-1.8296;
597543319021965;-10.1593;1.6089;-2.1553;
597543329127069;-9.4143;1.5730;-2.0019;
597543339240142;-10.2383;1.4459;-2.5935;
597543349345194;-10.5281;2.1455;-2.1147;
597543359450299;-9.3377;1.7788;-2.4021;
597543369569257;-8.8968;1.3693;-2.8307;
597543379674361;-9.2994;0.5524;-2.4117;
597543389779413;-10.4659;0.2100;-3.5399;
597543399888632;-11.0169;-0.0826;-3.7196;
597543409993736;-9.5749;-0.1184;-2.5337;
597543420098840;-8.5639;-0.0802;-2.1745;
597543430191757;-8.5878;-0.2381;-2.7063;
597543440296861;-10.0035;0.0613;-3.0272;
597543450401965;-10.2909;0.1331;-2.5720;
597543460497174;-8.6620;0.1977;-2.2726;
597543470602278;-8.2310;-0.2979;-2.6752;
597543480707330;-7.3899;-0.1424;-3.1735;
597543490809674;-8.3985;-0.3676;-4.3496;
597543500914778;-9.7496;-0.7460;-4.5413;
597543511019882;-9.2082;-0.7436;-4.1435;
597543521137694;-8.3507;-0.8970;-3.7531;
597543531242799;-9.0144;-1.5532;-2.6824;
597543541347903;-10.0851;-1.9534;-2.2295;
597543551434309;-9.9748;-2.6695;-2.8884;
597543561539361;-9.9485;-2.7440;-2.8355;
597543571644465;-9.1603;-2.2313;-3.0918;
597543581759153;-9.3042;-2.3414;-3.3625;
597543591864257;-9.6180;-2.3222;-3.6165;
597543601969361;-9.2417;-1.5676;-3.7388;
597543612060559;-9.4047;-0.9209;-3.3290;
597543622165611;-8.2334;-0.8106;-2.9722;
597543632270715;-8.7580;-0.4250;-3.7125;
597543642430767;-10.6023;-0.1663;-3.9903;
597543652535819;-10.6433;0.1857;-3.2668;
597543662640872;-9.1531;0.2746;-2.5313;
597543672695455;-8.7194;0.9882;-2.8522;
597543682800507;-8.9351;0.7199;-3.7268;
597543692905611;-9.8049;0.7418;-3.8560;
597543703022330;-7.9170;0.8853;-3.5614;
597543713127434;-7.7160;0.5118;-5.7796;
597543723232538;-10.2670;0.3392;-6.7331;
597543733335715;-9.3544;0.6697;-5.9354;
597543743440819;-7.9843;0.6218;-4.5508;
597543753545924;-9.1268;0.5166;-4.1889;
597543763650351;-9.0359;0.9045;-3.6814;
597543773755455;-7.6487;0.9428;-3.1878;
597543783860559;-8.4873;1.2135;-2.9267;
597543793953476;-10.1186;1.1441;-2.7015;
597543804058528;-9.7998;0.9906;-3.1253;
597543814163632;-9.1340;0.4516;-3.3888;
597543824280194;-9.3042;0.4086;-4.1219;
597543834385299;-9.5243;0.1690;-5.4706;
597543844490403;-8.7748;0.2578;-5.5113;
597543854586236;-8.9686;0.2674;-4.0023;
597543864691288;-8.6477;0.0637;-4.5772;
597543874796392;-9.6873;-0.5160;-4.8694;
597543884890038;-9.9245;-0.8680;-3.3003;
597543894995090;-8.7987;-0.8201;-1.8703;
597543905100194;-8.9183;-1.2347;-2.3037;
597543915207330;-11.3258;-1.0908;-2.7063;
597543925312382;-11.5199;-0.8632;-2.1721;
597543935417486;-8.6788;-1.1964;-1.3959;
597543945546184;-8.2478;-1.3807;-2.3471;
597543955651288;-9.6586;-1.2443;-2.4021;
597543965756392;-9.1005;-1.0095;-2.6704;
597543975859674;-8.0728;-0.5542;-4.0597;
597543985964778;-9.2874;0.2100;-5.2768;
597543996069882;-9.6969;0.5740;-4.6083;
597544006172590;-9.1173;0.5118;-2.7182;
597544016277694;-8.3243;0.2985;-2.7039;
597544026382799;-9.0000;0.1714;-3.1400;
597544036481965;-9.6515;0.0613;-2.7111;
597544046587069;-9.6419;0.1738;-2.9961;
597544056692174;-9.1819;0.1642;-2.6967;
597544066806653;-8.8394;0.3153;-3.2620;
597544076911757;-9.4956;0.7466;-3.8273;
597544087016861;-9.7711;0.8231;-3.3075;
597544097113111;-8.4033;0.7466;-3.4801;
597544107218215;-8.5591;0.8447;-4.0813;
597544117323319;-9.1627;0.8112;-3.8704;
597544127445194;-9.9509;0.5644;-2.5959;
597544137550299;-9.1340;0.8590;-2.6560;
597544147655351;-8.3507;1.0101;-3.5207;
597544157751549;-7.8500;0.9045;-3.3242;
597544167856653;-7.7160;0.6147;-2.7398;
597544177961757;-8.4296;0.6410;-3.6861;
597544188062278;-9.7256;0.1211;-4.9938;
597544198167382;-10.3702;0.0278;-3.8297;
597544208272486;-9.0742;0.1594;-2.2654;
597544218373319;-8.0106;0.3751;-1.9301;
597544228478424;-8.9686;0.6482;-3.2692;
597544238583528;-10.2742;0.3846;-3.0559;
597544248684153;-9.6634;0.8279;-2.0859;
597544258789257;-9.0215;0.5883;-2.3085;
597544268894361;-8.4730;0.5070;-3.0081;
597544279006444;-9.0933;0.4807;-3.4513;
597544289111549;-10.2168;0.0661;-2.3758;
597544299216653;-9.7519;0.2267;-1.6953;
597544309314882;-9.2201;0.1259;-3.2285;
597544319419986;-8.8896;-0.0392;-3.4729;
597544329525038;-8.4607;-0.5949;-1.6403;
597544339628111;-8.5376;-1.2012;-1.8846;
597544349733215;-9.7519;-2.1903;-2.8092;
597544359838267;-9.4621;-2.5116;-2.1003;
597544369943632;-9.1340;-2.2768;-2.2726;
597544380048736;-9.0287;-2.3103;-3.2740;
597544390153788;-9.6586;-1.9510;-3.7603;
597544400267590;-10.1019;-1.5676;-3.2213;
597544410372694;-9.3185;-1.2682;-2.1147;
597544420477747;-9.3760;-1.2132;-1.8870;
597544430574569;-8.8944;-1.0358;-3.0583;
597544440679674;-8.6333;-0.3413;-3.8106;
597544450784726;-9.8934;-0.5375;-3.6069;
597544460906132;-10.0756;0.1546;-2.8980;
597544471011236;-9.2656;0.2578;-3.5758;
597544481116288;-8.8633;0.3224;-4.7450;
597544491207590;-8.9758;-0.3123;-3.3505;
597544501312694;-9.4214;-0.7507;-3.1759;
597544511417747;-10.4396;-1.0765;-4.3831;
597544521533267;-10.3846;-0.9257;-3.6188;
597544531638372;-8.5472;-0.4681;-2.7996;
597544541743424;-8.0895;-0.4944;-3.2668;
597544551833632;-9.5315;-0.5207;-4.1291;
597544561938736;-10.0609;-0.2070;-3.6404;
597544572043788;-8.7915;0.6027;-3.0320;
597544582150715;-8.3124;0.5261;-3.7651;
597544592255819;-8.2406;0.5237;-4.1387;
597544602360924;-7.9074;0.6529;-3.8201;
597544612520767;-9.4621;0.4612;-3.7029;
597544622625872;-10.2646;0.6147;-3.3218;
597544632730924;-8.6429;0.7992;-3.0344;
597544642754205;-7.9890;0.6290;-3.0894;
597544652859257;-8.8442;0.2052;-2.2702;
597544662964309;-9.7400;0.0063;-3.2524;
597544673143319;-9.6778;0.1307;-3.6212;
597544683248424;-9.1890;0.0805;-3.6117;
597544693353476;-10.0657;0.2052;-3.4322;
597544703412590;-9.4047;-0.2524;-2.8092;
597544713517694;-9.0096;0.0829;-3.2812;
597544723622747;-8.6142;-0.0224;-3.1229;
597544733728319;-8.5017;-0.1711;-2.4858;
597544743833424;-9.5052;-0.8201;-2.7494;
597544753938476;-9.7831;-0.8707;-3.4274;
597544764020351;-9.4286;-0.6239;-3.1543;
597544774125403;-9.6515;-0.9353;-1.9445;
597544784230455;-9.0933;-1.0621;-1.5757;
597544794359361;-8.7147;-1.0717;-2.4308;
597544804464465;-8.1975;-1.0262;-3.0966;
597544814569517;-8.3889;-1.0262;-3.3099;
597544824671028;-9.4884;-1.2562;-4.1052;
597544834776132;-10.3367;-1.4791;-4.2778;
597544844881184;-9.8791;-1.2132;-3.5806;
597544854966601;-8.9447;-0.8034;-2.9937;
597544865071653;-8.4464;-0.8489;-2.7111;
597544875176705;-9.0550;-0.7531;-3.3697;
597544885315767;-9.5414;-0.6670;-3.7938;
597544895420872;-9.2898;-0.8106;-2.7135;
597544905525924;-8.9542;-1.2347;-2.3495;
597544915606080;-8.3626;-1.1797;-2.7541;
597544925711132;-8.8848;-1.2682;-3.5542;
597544935816184;-10.1306;-1.7234;-3.6981;
597544945944361;-10.0828;-1.2179;-3.1301;
597544956049465;-9.0503;-0.8106;-3.1974;
597544966154517;-8.3650;-1.0310;-2.8211;
597544976252851;-8.5472;-1.1195;-1.7767;
597544986357955;-9.5195;-0.9066;-3.5255;
597544996463007;-11.0767;-0.9425;-3.5495;
597545006549726;-10.5473;-0.8970;-2.0306;
597545016654778;-9.2010;-0.3365;-2.3566;
597545026759830;-8.3913;-0.5231;-3.2453;
597545036873944;-8.9566;-0.2357;-4.2945;
597545046979049;-10.0179;0.1140;-3.4585;
597545057084101;-8.9136;-0.2716;-2.1386;
597545067194778;-8.3578;-0.2955;-2.7350;
597545077299882;-8.3004;-0.4394;-3.2883;
597545087404934;-8.4129;-0.8321;-3.7747;
597545097507590;-9.7902;-1.2251;-3.3697;
597545107612694;-9.8456;-0.7699;-2.2965;
597545117717747;-9.3879;-0.7842;-3.1400;
597545127802226;-8.6142;-0.5160;-3.2596;
597545137907278;-8.3291;-0.2931;-2.0426;
597545148012330;-8.3100;-0.2333;-3.6595;
597545158123944;-10.1737;-0.4131;-4.8933;
597545168229049;-10.2694;-0.3748;-3.6308;
597545178334101;-9.9054;0.1786;-2.7924;
597545188466236;-8.8226;0.0589;-3.4059;
597545198571340;-8.5639;0.2626;-4.6346;
597545208676392;-7.8763;0.5189;-5.0010;
597545218768215;-6.4750;0.5261;-4.0860;
597545228873319;-7.5123;-0.0730;-4.2060;
597545238978372;-10.4755;-0.8707;-4.1602;
597545249083319;-12.0183;-0.9497;-2.5457;
597545259188424;-11.3234;-0.9784;-0.8737;
597545269293476;-9.0120;-0.5566;-0.5288;
597545279386653;-8.4033;0.2722;-1.9038;
597545289491757;-8.4009;-0.2189;-3.6165;
597545299596809;-8.0321;-0.3796;-3.5806;
597545309715090;-8.1709;0.1546;-4.1387;
597545319820194;-9.0526;-0.1352;-5.4443;
597545329925247;-9.2130;-0.1687;-4.6059;
597545340013319;-8.0919;0.1020;-3.3577;
597545350118424;-8.7963;0.2794;-3.8824;
597545360223476;-10.1450;-0.2309;-4.6944;
597545370346028;-10.0083;0.4660;-4.1841;
597545380451132;-10.0466;1.0460;-2.7781;
597545390556184;-9.3951;0.5501;-0.6724;
597545400662851;-9.3664;0.2001;0.3577;
597545410767955;-8.7171;-0.2500;0.4128;
597545420873007;-8.3554;-0.4035;-1.3863;
597545430963632;-9.3832;-0.4155;-4.9125;
597545441068736;-10.9762;-0.2883;-6.8961;
597545451173788;-10.2957;0.6027;-5.2334;
597545461268684;-8.2214;0.7705;-2.1864;
597545471373736;-7.2870;0.6553;-2.8020;
597545481478788;-8.9255;0.2339;-4.4815;
597545491590819;-10.1282;-0.1400;-3.3529;
597545501695872;-9.3640;-0.2812;-2.2104;
597545511800924;-8.7389;-0.3437;-2.0043;
597545521934778;-9.3185;-0.5566;-3.1831;
597545532039882;-9.8527;-0.3724;-3.5997;
597545542144934;-9.1986;0.2841;-3.4585;
597545552216757;-8.9925;0.1810;-3.4250;
597545562321861;-9.8695;0.0661;-3.1352;
597545572426965;-9.6491;0.2148;-3.1615;
597545582546288;-8.7242;-0.2166;-3.1205;
597545592651444;-8.3770;0.4014;-3.4226;
597545602756444;-8.9877;0.3583;-4.2323;
597545612855403;-8.8298;-0.0849;-3.8824;
597545622960507;-8.6524;-0.7436;-2.7015;
597545633065559;-10.3077;-0.5973;-3.5375;
597545643176965;-11.6806;-0.5447;-3.9087;
597545653282069;-10.5162;-0.2692;-2.3758;
597545663387122;-8.7341;-0.2835;-1.4414;
597545673467799;-8.4368;-0.4490;-1.8823;
597545683572851;-9.0957;-0.3266;-4.0717;
597545693677903;-10.4779;-0.0706;-4.6466;
597545703799778;-9.8216;-0.0440;-2.8522;
597545713904882;-8.8442;-0.4777;-2.6847;
597545724009934;-9.4071;-0.5853;-3.1615;
597545734111184;-9.0742;-0.4155;-3.1253;
597545744216236;-9.4430;-0.7842;-3.2572;
597545754321288;-10.4396;-0.5303;-3.3410;
597545764448215;-10.1952;-0.3796;-3.3601;
597545774553319;-7.9866;-0.0655;-2.1505;
597545784658372;-6.5396;-0.3891;-2.1697;
597545794743788;-8.3363;-0.7220;-4.4022;
597545804848840;-9.9700;-1.0286;-4.4429;
597545814953892;-9.1340;-0.8130;-4.1507;
597545825064101;-9.2130;-0.4872;-5.7580;
597545835169205;-9.6156;-0.5638;-4.9531;
597545845274257;-11.0121;0.0852;-3.3649;
597545855378007;-11.7547;0.4062;-2.1601;
597545865483111;-10.4204;0.7896;-0.9861;
597545875588163;-8.1159;0.3535;-0.8569;
597545885709257;-7.2129;-0.3003;-2.4691;
597545895814361;-8.7676;-0.3051;-4.6609;
597545905919413;-9.8169;-0.6383;-4.1483;
597545916013111;-8.9088;-0.1567;-3.7890;
597545926118215;-9.4884;-0.4202;-4.6801;
597545936223267;-9.7711;-0.6957;-4.4357;
597545946331757;-8.8394;-0.0248;-2.6441;
597545956436861;-9.8480;-0.3123;-3.0176;
597545966541913;-10.5257;-0.3963;-3.2453;
597545976640299;-8.7290;-0.3891;-1.1946;
597545986745403;-7.6080;-0.3027;-2.3590;
597545996850455;-8.9279;-0.4346;-4.3854;
597546006953424;-8.5448;-0.6861;-4.3783;
597546017058528;-8.4224;0.0494;-4.6633;
597546027163580;-8.5208;0.0254;-5.2430;
597546037270611;-9.6299;0.1834;-4.8885;
597546047375715;-10.0011;0.2794;-4.1483;
597546057480767;-9.3903;0.1714;-3.5040;
597546067596444;-9.2178;-0.1711;-2.0043;
597546077701549;-9.0287;0.1977;-1.3504;
597546087806601;-9.7878;-0.1161;-2.1338;
597546097905142;-8.8896;-0.3724;-2.3710;
597546108010247;-7.6439;-0.8803;-1.7121;
597546118115299;-8.6189;-0.6383;-3.9808;
597546128203580;-9.9963;-0.5997;-6.4313;
597546138308632;-9.7543;-0.1735;-4.9316;
597546148413684;-8.9638;0.1331;-3.7531;
597546158546132;-9.0598;-0.0320;-3.8010;
597546168651236;-8.7915;-0.0488;-3.5399;
597546178756288;-8.1709;0.1283;-2.5122;
597546188849778;-8.5208;-0.3437;-2.6512;
597546198954882;-9.4765;-0.8345;-2.2223;
597546209059934;-8.8131;-0.9042;-1.8440;
597546219167903;-8.5400;-0.5351;-2.8068;
597546229273007;-10.0756;-1.0573;-4.0525;
597546239378059;-10.1091;-0.2548;-3.3888;
597546249470924;-9.4454;0.0206;-3.2166;
597546259576028;-8.8633;-0.2979;-2.7661;
597546269681080;-8.0465;-0.2405;-1.7985;
597546279795194;-8.8777;-0.3772;-4.0837;
597546289900299;-10.9905;-0.5088;-4.2969;
597546300005351;-10.3678;-0.5064;-2.3157;
597546310113632;-8.7003;-0.5399;-1.7886;
597546320218736;-7.8595;-0.6479;-2.8717;
597546330323788;-9.8240;-0.3194;-3.6404;
597546340400351;-10.6074;-0.1017;-3.5949;
597546350505403;-9.0670;0.0278;-2.5313;
597546360610455;-8.7652;-0.6048;-2.0979;
597546370732278;-9.0072;-0.8922;-2.5337;
597546380837382;-9.0311;-0.4561;-2.9076;
597546390942434;-9.5342;-0.5901;-3.2189;
597546401051757;-9.3640;-0.1567;-2.8020;
597546411156861;-9.1101;-0.0511;-3.5542;
597546421261913;-8.8896;-0.1280;-3.3553;
597546431352642;-8.0584;-0.2477;-2.2439;
597546441457694;-8.2813;0.0422;-4.3280;
597546451562747;-9.9772;-0.0081;-5.4849;
597546461669830;-9.6467;0.0637;-3.2501;
597546471774882;-8.3124;-0.0706;-3.1062;
597546481879934;-9.0024;0.0494;-4.2084;
597546491984517;-10.1809;0.4181;-3.7986;
597546502089569;-9.7783;0.6769;-1.9875;
597546512194622;-9.2683;0.3440;-2.1673;
597546522307538;-9.1555;0.0374;-3.0057;
597546532412538;-9.3640;-0.1041;-2.8044;
597546542517642;-9.9509;-0.2740;-2.2223;
597546552617851;-9.5315;-0.6598;-2.9291;
597546562722903;-9.3233;0.1092;-4.0095;
597546572827955;-9.3473;0.0805;-3.3793;
597546582930090;-8.7532;-0.1639;-2.0306;
597546593035142;-8.2956;-0.2572;-2.2271;
597546603140247;-9.1579;-0.1639;-4.8574;
597546613238840;-9.5195;-0.2907;-4.7713;
597546623343892;-9.8312;-0.3604;-2.9722;
597546633448997;-9.0455;-0.5136;-2.3901;
597546643569986;-8.0010;-0.2261;-3.5734;
597546653675038;-8.3315;-0.0873;-4.4166;
597546663780142;-8.4945;0.0063;-3.5279;
597546673888736;-7.8428;0.1403;-3.3362;
597546683993840;-9.2321;-0.3987;-3.7101;
597546694098892;-10.0732;-0.2524;-3.1998;
597546704202434;-11.6611;-0.5662;-2.9100;
597546714307486;-11.5439;-0.2692;-1.4653;
597546724412590;-8.9255;0.5070;-1.8153;
597546734498892;-8.3028;0.2459;-3.4944;
597546744603944;-7.9002;-0.0176;-2.6489;
597546754708997;-9.1244;-0.1208;-2.3303;
597546764838997;-10.3917;-0.2022;-4.1172;
597546774944049;-9.7783;-0.4920;-4.4910;
597546785049153;-8.3578;-0.2237;-3.4226;
597546795124413;-8.0919;-0.6072;-2.9291;
597546805229465;-9.0215;-0.5806;-4.5317;
597546815334517;-10.7940;-0.4346;-4.8263;
597546825459465;-10.0899;-0.0778;-2.4404;
597546835564569;-8.0369;-0.0224;-1.0869;
597546845669622;-8.3243;-0.3628;-1.7097;
597546855780403;-8.3985;-0.7053;-2.3037;
597546865885455;-8.7748;-0.6694;-2.5720;
597546875990559;-10.2838;-0.6646;-3.4968;
597546886093944;-10.1569;-0.1974;-4.7498;
597546896198997;-9.2417;0.3679;-5.1114;
597546906304101;-8.1565;0.3583;-3.5734;
597546916406184;-8.1015;0.3655;-2.6847;
597546926511288;-9.7807;0.0063;-3.6742;
597546936616340;-10.1210;-0.1352;-2.9530;
597546946698267;-9.8360;-0.2596;-2.6082;
597546956803319;-9.1531;-0.5542;-2.2869;
597546966908372;-9.0120;-0.5686;-2.4787;
597546977035403;-9.2058;-0.3724;-3.2189;
597546987140507;-9.7065;0.0159;-3.2668;
597546997245559;-9.2154;-0.4083;-2.8546;
597547007345194;-8.9710;-0.4155;-3.3673;
597547017450299;-8.8418;-0.2883;-3.7220;
597547027555351;-9.3066;-0.3147;-2.9865;
597547037649517;-9.3784;0.0781;-2.5026;
597547047754569;-9.2922;0.1068;-3.4490;
597547057859622;-8.3459;-0.1304;-3.1663;
597547067984049;-7.7255;0.0039;-2.9483;
597547078089153;-8.6477;-0.1496;-3.6885;
597547088194205;-9.9102;-0.0224;-4.1865;
597547098300194;-9.3832;-0.2524;-3.4011;
597547108405299;-8.4969;-0.0248;-3.5064;
597547118510351;-9.7448;-0.1161;-3.4418;
597547128615924;-10.8682;-0.3051;-3.2309;
597547138720976;-9.5964;0.2578;-2.7757;
597547148826080;-8.0800;0.3392;-2.5624;
597547158933111;-8.0776;-0.1974;-2.6991;
597547169038215;-9.1029;-0.3194;-3.0057;
597547179143267;-10.6361;-0.3266;-3.1543;
597547189240090;-10.0947;-0.5471;-2.7422;
597547199345142;-9.2393;0.0876;-2.9100;
597547209450247;-9.4765;-0.3027;-3.6547;
597547219569986;-8.6836;-0.1017;-3.4537;
597547229675038;-8.6668;-0.3485;-2.1458;
597547239780142;-9.3090;-0.6144;-3.6885;
597547249869257;-9.5940;-0.4466;-4.2009;
597547259974361;-8.3818;-0.5782;-2.8211;
597547270079413;-8.5807;-0.5207;-3.2429;
597547280179465;-9.7161;-0.9401;-3.4633;
597547290284569;-10.0875;-0.0682;-3.3769;
597547300389622;-9.5605;-0.2166;-3.3099;
597547310495194;-8.6740;0.0350;-3.8201;
597547320600247;-9.2803;-0.3939;-3.7316;
597547330705247;-8.8968;-0.3891;-2.2343;
597547340822382;-8.1781;-0.2046;-2.2295;
597547350927434;-9.7711;-0.6718;-3.4705;
597547361032434;-11.0527;-0.2500;-3.3123;
597547371126757;-12.4086;-0.1519;-2.6632;
597547381231809;-10.0083;-0.4968;-0.5862;
597547391336809;-8.9806;0.1810;-0.9885;
597547401444205;-10.7868;-0.1591;-3.2812;
597547411549257;-10.7366;-0.0176;-3.9063;
597547421654257;-9.1819;0.1714;-2.7565;
597547431738788;-7.5410;-0.1543;-2.8860;
597547441843788;-8.3267;-0.2931;-4.5078;
597547451948788;-9.6275;-0.4633;-5.1305;
597547462071965;-9.9676;-0.0583;-3.7699;
597547472177017;-9.5390;-0.1304;-3.3386;
597547482282017;-9.3688;-0.1496;-3.4920;
597547492398788;-8.0847;-0.3580;-2.9985;
597547502503840;-8.8729;-0.2405;-2.6967;
597547512608788;-10.5832;-0.3700;-2.9148;
597547522690351;-9.8073;0.2483;-2.6871;
597547532795351;-8.1494;0.2291;-2.6321;
597547542900351;-8.2932;0.1451;-3.5207;
597547553020507;-9.1675;-0.0320;-4.9675;
597547563125559;-10.0561;0.1666;-6.2204;
597547573230559;-9.3544;0.6745;-5.3270;
597547583329361;-8.1876;0.8853;-4.6322;
597547593434413;-8.6333;0.4086;-4.5772;
597547603539413;-10.1833;0.1594;-4.3089;
597547613623840;-9.6921;0.0494;-2.2965;
597547623728892;-7.7830;-0.2070;-1.2930;
597547633833892;-6.9111;-0.7244;-2.3542;
597547643951861;-8.5926;-1.1581;-3.9520;
597547654056913;-10.7414;-1.1773;-4.2156;
597547664161913;-11.1990;-1.0214;-2.9411;
597547674273215;-9.9796;0.1738;-2.8741;
597547684378267;-8.4607;-0.0682;-2.7805;
597547694483267;-6.7122;0.3799;-3.2213;
597547704611236;-8.5089;0.4711;-3.1038;
597547714716288;-9.8432;0.0470;-3.6547;
597547724821288;-9.9676;0.0230;-4.3328;
597547734901601;-9.8934;0.0374;-3.7651;
597547745006653;-9.1101;-0.5806;-2.4165;
597547755111653;-7.9819;-0.0993;-2.9172;
597547765217278;-8.7963;0.0063;-2.9052;
597547775322330;-9.3568;-0.0224;-2.8379;
597547785427330;-9.8647;-0.4274;-2.2104;
597547795535611;-9.9772;-0.3987;-2.2104;
597547805640663;-8.6572;-0.4035;-2.2271;
597547815745663;-8.7171;-0.6263;-1.9277;
597547825851601;-8.7365;-0.3987;-2.0859;
597547835956653;-8.6046;0.0494;-4.3496;
597547846061653;-9.2922;0.0063;-5.1353;
597547856177278;-8.0608;0.1164;-3.1543;
597547866282330;-8.2573;0.2363;-3.7268;
597547876387330;-9.3975;0.1307;-4.9173;
597547886490611;-9.1771;-0.1352;-3.4083;
597547896595663;-9.5438;0.0278;-3.0823;
597547906700663;-10.2598;-0.1759;-2.6465;
597547916805090;-10.2024;0.0230;-2.4284;
597547926910142;-9.9628;0.2052;-3.0296;
597547937015142;-8.8537;0.6984;-2.2032;
597547947119674;-7.9603;0.0135;-1.3002;
597547957224726;-9.1866;-0.2500;-2.8187;
597547967329726;-8.8944;-0.0272;-3.4992;
597547977423840;-9.9174;-0.3843;-3.9254;
597547987528892;-10.1689;-0.1687;-3.6766;
597547997633892;-9.5243;0.3846;-3.7699;
597548007747590;-7.7758;-0.1854;-3.0033;
597548017852642;-7.2918;-0.3194;-2.6489;
597548027957642;-8.1470;-0.5566;-3.6404;
597548038047799;-10.7581;-0.4944;-4.3041;
597548048152851;-11.1341;-0.4131;-3.1134;
597548058257851;-8.2884;-0.3314;-1.7288;
597548068377174;-6.5997;0.1044;-3.5614;
597548078482226;-9.2345;-0.2620;-5.0539;
597548088587226;-9.5988;0.4516;-4.4620;
597548098674257;-9.7161;0.6793;-3.5949;
597548108779309;-9.6945;0.2794;-2.6321;
597548118884309;-8.6357;0.0254;-2.2702;
597548129008944;-8.4873;0.0230;-2.5170;
597548139113997;-10.0804;-0.0440;-2.7924;
597548149218997;-10.9427;0.1164;-2.4763;
597548159325090;-9.7663;-0.1137;-2.3303;
