Sensor: bmi160 Gyroscope Non-wakeup
Vendor: BOSCH
TimestampGyro [ns]; GyroX [rad/s]; GyroY [rad/s]; GyroZ [rad/s]
83886407473726;-0.1715;-0.1356;0.0594;
83886417582059;-0.1779;-0.1345;0.0573;
83886427692997;-0.1758;-0.1164;0.0679;
83886437778465;-0.1736;-0.1206;0.0700;
83886447881070;-0.1044;-0.1036;0.0859;
83886457994559;0.1342;-0.0015;0.1200;
83886468091174;0.3961;0.1104;0.1573;
83886478220601;0.5559;0.1722;0.1594;
83886488303205;0.5751;0.2126;0.1509;
83886498394976;0.3686;0.1818;0.1455;
83886508504872;-0.0586;0.0358;0.1285;
83886518641486;-0.3578;-0.1228;0.1232;
83886528731851;-0.2099;-0.1260;0.1423;
83886538853257;-0.1555;-0.0876;0.1445;
83886548949038;-0.2236;-0.1270;0.1274;
83886559048674;-0.1566;-0.1174;0.1423;
83886569179715;0.0352;-0.0132;0.1530;
83886579259038;0.2407;0.0763;0.1668;
83886589368205;0.2482;0.0869;0.1732;
83886599451643;0.1087;0.0603;0.1679;
83886609572268;-0.0224;0.0614;0.1306;
83886619676018;-0.1672;0.0411;0.1051;
83886629780809;-0.2971;-0.0493;0.1051;
83886639887632;-0.2067;-0.0929;0.1434;
83886649984872;-0.1310;-0.0652;0.1786;
83886660100965;0.0437;0.0305;0.1775;
83886670205757;0.1960;0.1040;0.1658;
83886680317372;0.1630;0.0869;0.1455;
83886690421955;0.0426;0.0465;0.1210;
83886700525913;-0.0948;0.0145;0.1157;
83886710616538;-0.2300;-0.0302;0.1264;
83886720732580;-0.2077;-0.0387;0.1210;
83886730837528;-0.1704;-0.0025;0.1072;
83886740945705;-0.1577;0.0539;0.0923;
83886751059247;-0.1971;0.0646;0.0880;
83886761160705;-0.2555;-0.0238;0.0880;
83886771267788;-0.1885;-0.0684;0.0997;
83886781367007;-0.1204;0.0060;0.0965;
83886791476955;0.0064;0.1200;0.0806;
83886801577580;0.0586;0.1296;0.0827;
83886811684663;-0.0447;0.0539;0.0838;
83886821777788;-0.1278;0.0401;0.0774;
83886831896538;-0.1758;0.0358;0.0615;
83886842014038;-0.2003;0.0071;0.0370;
83886852110601;-0.1758;0.0092;0.0328;
83886862220861;-0.1928;-0.0228;0.0445;
83886872318934;-0.1609;-0.0451;0.0466;
83886882429351;-0.1363;0.0230;0.0178;
83886892534507;-0.1854;0.1093;0.0146;
83886902644195;-0.1726;0.1455;-0.0397;
83886912744768;-0.2257;0.0987;-0.0184;
83886922861122;-0.1790;0.0997;0.0093;
83886932944768;-0.1672;0.0859;0.0019;
83886943066278;-0.1907;-0.0132;-0.0109;
83886953164507;-0.1555;-0.0748;-0.0130;
83886963295601;-0.1246;-0.0249;-0.0162;
83886973394038;-0.0511;0.0635;-0.0290;
83886983502268;0.0160;0.1242;-0.0461;
83886993597268;0.0437;0.1700;-0.0663;
83887003708934;0.0277;0.2137;-0.0812;
83887013802268;-0.1683;0.1370;-0.0823;
83887023930757;-0.2513;-0.0482;-0.0365;
83887034018518;-0.1055;-0.0503;0.0029;
83887044134559;-0.1087;0.0422;-0.0109;
83887054231747;-0.1747;0.0007;-0.0397;
83887064298778;-0.1385;-0.0727;-0.0386;
83887074439976;-0.1225;-0.0844;-0.0493;
83887084540340;-0.1822;-0.0727;-0.0855;
83887094648101;-0.2130;-0.1153;-0.0748;
83887104756434;-0.1427;-0.1718;-0.0258;
83887114862268;-0.0064;-0.0324;0.0370;
83887124985705;0.3324;0.2276;0.0573;
83887135066122;0.4473;0.2787;0.0530;
83887145179247;0.1161;0.1477;0.0178;
83887155277372;-0.1917;0.0646;0.0264;
83887165382476;-0.2088;0.0486;0.0413;
83887175489507;-0.1790;0.0017;0.0360;
83887185589872;-0.1363;-0.0493;0.0711;
83887195703726;0.0021;-0.0142;0.0891;
83887205813674;0.2407;0.0656;0.1104;
83887215906486;0.3771;0.0880;0.1157;
83887226029976;0.3654;0.0624;0.1157;
83887236126851;0.2152;-0.0089;0.1083;
83887246237997;-0.0085;-0.0706;0.1157;
83887256326018;-0.1747;-0.0706;0.0976;
83887266443726;-0.1534;-0.0270;0.0838;
83887276546122;-0.1257;-0.0185;0.0626;
83887286649872;-0.1150;-0.0482;0.0583;
83887296760288;-0.0980;-0.0164;0.0434;
83887306867372;-0.1427;0.0060;0.0274;
83887316984768;-0.2651;-0.0812;0.0157;
83887327069820;-0.6624;-0.1803;-0.0109;
83887337187111;-1.0437;-0.1750;-0.0269;
83887347290028;-1.0937;-0.1515;-0.1025;
83887357392528;-1.1289;-0.0961;-0.1686;
83887367506851;-1.2482;0.0103;-0.2005;
83887377597997;-1.3568;0.1083;-0.2442;
83887387767945;-1.4048;0.2542;-0.2857;
83887397790393;-1.4803;0.2798;-0.3124;
83887407902268;-1.4760;0.1242;-0.3465;
83887418031851;-1.2876;0.0550;-0.3848;
83887428170236;-1.0927;0.1168;-0.4029;
83887438235184;-0.9062;0.2095;-0.4104;
83887448350340;-0.7839;0.1711;-0.4221;
83887458439455;-0.7349;0.0752;-0.4019;
83887468563257;-0.7210;0.1296;-0.4019;
83887478666590;-0.7892;0.1668;-0.4498;
83887488769924;-0.7690;0.1285;-0.4551;
83887498897111;-0.6347;0.1274;-0.3774;
83887509000445;-0.5580;0.1754;-0.2783;
83887519103778;-0.4590;0.2382;-0.2261;
83887529224403;-0.4185;0.2009;-0.2293;
83887539327736;-0.4100;0.1722;-0.2389;
83887549431070;-0.4079;0.1754;-0.2357;
83887559507840;-0.4483;0.1253;-0.2442;
83887569611174;-0.4782;0.0880;-0.2453;
83887579714507;-0.4867;0.1104;-0.1909;
83887589829299;-0.4824;0.0923;-0.1877;
83887599932632;-0.4867;0.0071;-0.2240;
83887610035965;-0.4771;0.0230;-0.2495;
83887620144403;-0.4899;0.0678;-0.2634;
83887630247736;-0.4867;0.0912;-0.2772;
83887640351070;-0.4228;0.1178;-0.2921;
83887650471382;-0.3471;0.0742;-0.2826;
83887660574715;-0.2024;0.1402;-0.2857;
83887670678049;-0.1140;0.2403;-0.2964;
83887680778778;-0.0075;0.2457;-0.2889;
83887690882111;0.2578;0.2063;-0.2943;
83887700985445;0.4792;0.1541;-0.2431;
83887711090549;0.5815;0.1786;-0.2112;
83887721193882;0.6933;0.2286;-0.2612;
83887731297215;0.8158;0.1487;-0.2857;
83887741408257;1.0234;0.0433;-0.2314;
83887751511590;1.1683;0.0933;-0.1537;
83887761614924;1.1140;0.0688;-0.1068;
83887771728361;1.1896;-0.0100;-0.0972;
83887781831747;1.2290;-0.0015;-0.0557;
83887791935028;1.0831;0.0848;-0.0780;
83887802048674;1.0074;0.0742;-0.0567;
83887812152007;0.9937;0.0337;-0.1121;
83887822255340;0.9330;0.0465;-0.1313;
83887832365653;0.7572;0.0603;-0.1601;
83887842468986;0.6145;0.0316;-0.1068;
83887852572320;0.4931;0.0433;-0.0887;
83887862657736;0.3430;0.0635;-0.0738;
83887872761070;0.0873;0.1573;-0.0908;
83887882864403;-0.0554;0.2702;-0.1547;
83887892995445;-0.0767;0.3437;-0.1984;
83887903098830;-0.0202;0.0795;-0.2005;
83887913202111;0.0692;-0.1441;-0.1920;
83887923308101;0.0671;-0.0356;-0.1601;
83887933411434;-0.0394;0.3650;-0.2250;
83887943514768;0.1406;0.4097;-0.2517;
83887953635028;0.4899;0.0997;-0.2921;
83887963738361;0.4100;-0.1142;-0.3102;
83887973841695;0.2141;-0.2708;-0.2804;
83887983980236;0.3185;-0.3880;-0.1356;
83887994083570;0.2802;-0.2272;-0.0109;
83888004186903;0.3505;-0.0706;-0.0258;
83888014271747;0.4462;0.0529;-0.0578;
83888024375080;0.5996;0.1115;-0.0493;
83888034478413;0.6987;0.1818;-0.0290;
83888044591486;0.6827;0.2904;-0.0269;
83888054694820;0.7636;0.3799;-0.0525;
83888064798153;0.7093;0.3565;-0.1441;
83888074903257;0.6539;0.3607;-0.0727;
83888085006590;0.4995;0.2095;-0.0322;
83888095109924;0.4292;-0.0217;0.0487;
83888105236070;0.1065;-0.0004;0.0189;
83888115354611;0.0138;-0.0567;-0.0237;
83888125457945;-0.0884;-0.1824;-0.0525;
83888135561226;-0.3120;-0.0535;-0.0866;
83888145658674;-0.4164;0.1125;-0.1824;
83888155762007;-0.3418;-0.0249;-0.1334;
83888165865340;-0.2523;-0.0929;-0.0770;
83888175970861;-0.2896;-0.0780;-0.0439;
83888186074195;-0.3077;-0.0599;-0.0620;
83888196177528;-0.4387;-0.0525;-0.0855;
83888206282059;-0.4632;-0.0802;-0.1611;
83888216385393;-0.5527;0.0039;-0.2282;
83888226494559;-0.6177;0.0326;-0.2229;
83888236597893;-0.5666;-0.0844;-0.1846;
83888246701226;-0.5261;-0.0961;-0.2122;
83888256800080;-0.5208;-0.0121;-0.2346;
83888266903465;-0.4814;0.0518;-0.2804;
83888277006747;-0.4387;0.1178;-0.2921;
83888287179038;-0.3610;0.1690;-0.3198;
83888297282372;-0.2630;0.1168;-0.3113;
83888307385705;-0.1353;-0.0387;-0.3166;
83888317422528;-0.0064;-0.2059;-0.3156;
83888327525913;0.0181;-0.3369;-0.2975;
83888337629195;0.0426;-0.2698;-0.3017;
83888347788986;0.0522;-0.1132;-0.2538;
83888357892320;0.0895;-0.0770;-0.2762;
83888367995653;0.1278;-0.0727;-0.2740;
83888378060653;0.1246;-0.0897;-0.2474;
83888388163986;0.1726;0.0603;-0.2069;
83888398267320;0.1427;0.0688;-0.2336;
83888408382215;0.2663;-0.1206;-0.2154;
83888418485549;0.2471;-0.1941;-0.2250;
83888428588882;0.2855;-0.1664;-0.2250;
83888438699403;0.3366;-0.1196;-0.1920;
83888448802788;0.3238;-0.0961;-0.1632;
83888458906070;0.3803;-0.0387;-0.1728;
83888469016174;0.4068;-0.0036;-0.1728;
83888479119507;0.4121;-0.0079;-0.1824;
83888489222840;0.4824;0.0145;-0.1909;
83888499329820;0.5367;0.0454;-0.1601;
83888509433153;0.5868;0.2222;-0.1462;
83888519536486;0.5527;0.2979;-0.1611;
83888529655340;0.6624;0.3202;-0.1824;
83888539758674;0.7359;0.2414;-0.1441;
83888549862059;0.8212;-0.1494;-0.1569;
83888559979195;0.8595;-0.3955;-0.1100;
83888570082528;0.7892;-0.3039;-0.0439;
83888580185861;0.7604;-0.1324;-0.0482;
83888590283830;0.8350;-0.1292;0.0104;
83888600387163;0.7402;-0.0802;0.0658;
83888610490497;0.5879;0.1796;-0.0056;
83888620612945;0.5410;0.2830;-0.0482;
83888630716278;0.4590;0.0443;-0.0237;
83888640819611;0.2727;-0.2197;-0.0237;
83888650922788;0.1768;-0.1121;-0.0802;
83888661026070;0.2706;0.0390;-0.0482;
83888671129403;0.2748;0.1083;0.0051;
83888681246070;0.2908;0.1434;0.0083;
83888691349403;0.3302;0.1477;0.0253;
83888701452736;0.2940;0.1700;0.0253;
83888711506382;0.3057;0.2254;0.0104;
83888721609715;0.3047;0.1636;0.0072;
83888731713049;0.3345;0.0987;0.0232;
83888741929872;0.3206;-0.0238;0.0754;
83888752033205;0.3217;-0.1728;0.0732;
83888762136486;0.3185;-0.2602;0.0891;
83888772192840;0.2557;0.0039;0.0455;
83888782296226;0.3728;-0.0292;0.0242;
83888792379455;0.3377;-0.1121;0.1019;
83888802482788;0.2770;0.1264;0.1189;
83888812586122;0.4249;0.0220;0.1498;
83888822711070;0.3015;-0.0780;0.1807;
83888832814403;0.2375;0.1466;0.0944;
83888842917736;0.2929;0.2947;0.1221;
83888853026174;0.3739;0.2734;0.1562;
83888863129559;0.2834;0.2616;0.1850;
83888873232840;0.2269;0.1189;0.2116;
83888883362215;0.2088;0.0635;0.1210;
83888893465549;0.1630;0.1402;0.0242;
83888903568882;0.1651;-0.0567;0.0370;
83888913675653;0.1427;-0.1835;0.0891;
83888923778986;0.0352;-0.2133;0.2467;
83888933882320;0.0415;-0.3965;0.2755;
83888944014403;0.0128;-0.2016;0.2350;
83888954117788;-0.3429;0.2925;0.1881;
83888964221070;-0.4047;0.5088;0.1764;
83888974313570;0.1044;0.3394;0.1285;
83888984416903;0.1662;-0.0111;0.1573;
83888994520236;-0.3312;-0.1920;0.1839;
83889004631174;-0.4569;-0.3582;0.1402;
83889014734507;-0.4121;-0.5712;0.1125;
83889024837840;-0.3770;-0.4594;0.0509;
83889034946070;-0.3727;-0.0036;-0.0439;
83889045049403;-0.4792;0.1189;-0.1111;
83889055152788;-0.1502;-0.1537;-0.1462;
83889065259924;0.0075;-0.0068;-0.1185;
83889075363257;-0.1875;-0.1356;-0.1292;
83889085466590;-0.0692;-0.2133;-0.1888;
83889095573882;0.1161;0.0869;-0.2985;
83889105677215;0.2056;0.1924;-0.2676;
83889115780549;0.2876;0.1519;-0.1931;
83889125896643;0.3089;-0.0132;-0.1366;
83889135999976;0.2961;-0.2527;-0.1004;
83889146103257;0.1566;-0.1057;-0.0802;
83889156217320;0.0937;0.1668;-0.1217;
83889166320653;0.1502;-0.0228;-0.1025;
83889176423934;0.1342;-0.1654;-0.0802;
83889186526903;0.0021;-0.2762;-0.0684;
83889196630236;-0.1118;-0.3763;-0.1142;
83889206733570;-0.0948;0.0305;-0.0770;
83889216834559;-0.2150;0.4310;-0.1004;
83889226937893;-0.1640;0.3799;-0.1068;
83889237041226;0.1630;0.2467;-0.0812;
83889247164768;0.0863;0.0976;-0.0471;
83889257268101;-0.0511;-0.0111;-0.0450;
83889267371434;-0.1108;0.0486;-0.0855;
83889277492111;-0.1715;-0.0919;-0.0929;
83889287595445;-0.1268;-0.1856;-0.0961;
83889297698726;-0.0394;-0.0345;-0.1398;
83889307798674;-0.0660;-0.0206;-0.2059;
83889317902007;0.0533;0.0060;-0.2399;
83889328005340;0.1150;0.1093;-0.2144;
83889338105653;0.0810;-0.0451;-0.1664;
83889348208986;0.2045;-0.1249;-0.1867;
83889358312320;0.1854;-0.0535;-0.1483;
83889368433361;0.1640;-0.0121;-0.1814;
83889378536695;0.3334;-0.0620;-0.1569;
83889388640028;0.3387;-0.0557;-0.1249;
83889398760236;0.3228;0.0103;-0.0834;
83889408863570;0.3355;0.0614;-0.0631;
83889418966903;0.3302;0.1008;-0.0855;
83889429060340;0.2951;0.0656;-0.0461;
83889439163674;0.2748;0.0433;-0.0194;
83889449267007;0.1672;0.0550;-0.0344;
83889459369924;0.0767;0.0944;-0.0301;
83889469473257;0.1225;0.0997;-0.0290;
83889479576590;0.1342;0.1370;0.0178;
83889489712580;0.1374;0.0230;0.0093;
83889499815913;0.0842;-0.0313;-0.0024;
83889509919247;0.0884;-0.0770;0.0019;
83889520007215;0.0501;-0.1707;0.0306;
83889530110549;0.0426;-0.0887;-0.0056;
83889540213882;0.0895;0.0561;-0.0557;
83889550340913;0.1353;0.0667;-0.0237;
83889560444247;0.1672;0.0880;-0.0099;
83889570547580;0.1672;-0.0589;0.0083;
83889580660757;0.1768;-0.0780;-0.0077;
83889590764090;0.1182;0.1306;0.0051;
83889600867424;0.1363;0.1242;-0.0333;
83889610971486;0.1768;-0.0684;-0.0120;
83889621074820;0.3142;-0.0834;0.0381;
83889631178153;0.4387;0.0262;0.0157;
83889641289715;0.3228;0.0017;-0.0301;
83889651393049;0.3664;-0.0652;-0.0642;
83889661496382;0.6049;0.0944;-0.0152;
83889671623778;0.6166;0.1029;0.0328;
83889681727111;0.5921;-0.1004;0.0509;
83889691830445;0.6944;-0.1324;0.0923;
83889701918934;0.7061;0.1178;0.1210;
83889712022268;0.5804;0.2638;0.1146;
83889722125601;0.4973;0.0838;0.1455;
83889732239090;0.5367;-0.0121;0.2063;
83889742342424;0.5495;-0.0047;0.2222;
83889752445757;0.3771;-0.0377;0.2670;
83889762559611;0.2865;0.2222;0.2489;
83889772662945;0.3089;0.4001;0.2648;
83889782766278;0.3387;0.0838;0.2361;
83889792863986;0.2844;-0.2016;0.3064;
83889802969351;0.1523;-0.1899;0.3032;
83889813074715;0.2067;0.0795;0.2318;
83889823179663;-0.0064;0.0252;0.2553;
83889833285028;-0.0724;-0.1909;0.2446;
83889843390393;0.1630;-0.0802;0.2041;
83889853512997;0.1023;0.0869;0.1764;
83889863618361;0.0501;0.0795;0.1967;
83889873723726;0.1822;0.1754;0.1924;
83889883811695;0.2418;0.2180;0.1743;
83889893917059;0.2589;0.0848;0.1999;
83889904022424;0.2344;-0.0430;0.2233;
83889914139403;0.2067;0.0443;0.1935;
83889924244768;0.1704;0.1125;0.1722;
83889934350132;0.1822;0.0656;0.1881;
83889944459403;0.2727;0.0784;0.2201;
83889954564768;0.2354;-0.0377;0.1967;
83889964670132;0.1885;-0.1281;0.1881;
83889974789195;0.1811;0.0177;0.1967;
83889984894559;0.2418;0.1860;0.1796;
83889994999924;0.2706;0.0720;0.2126;
83890005101695;0.2407;-0.0546;0.2041;
83890015207059;0.2322;-0.0153;0.2531;
83890025312424;0.1747;0.0497;0.2308;
83890035408674;0.1704;-0.0940;0.2148;
83890045514038;0.2152;-0.0270;0.2201;
83890055619403;0.1981;0.1668;0.2563;
83890065713361;0.0820;0.0422;0.2446;
83890075818726;0.1640;-0.0398;0.2308;
83890085924090;0.2003;0.0891;0.2180;
83890096041747;0.1172;0.0507;0.2041;
83890106147111;0.0682;-0.0461;0.2680;
83890116252476;0.1513;0.0166;0.3554;
83890126376330;0.1790;0.0465;0.3362;
83890136481695;0.1278;0.2041;0.3043;
83890146587059;0.0618;0.1583;0.3383;
83890156680028;0.1055;0.0529;0.3501;
83890166785393;0.1481;0.0401;0.3138;
83890176890757;-0.0085;0.0092;0.2893;
83890187008205;-0.0810;-0.0025;0.2936;
83890197113622;-0.0447;0.1264;0.3096;
83890207218986;-0.0405;0.1104;0.2947;
83890217290549;-0.0682;0.0614;0.3149;
83890227395913;-0.1246;0.0593;0.3288;
83890237501330;-0.1811;0.0784;0.2872;
83890247641695;-0.2917;0.0103;0.2808;
83890257747059;-0.3290;0.0273;0.2052;
83890267852424;-0.3301;0.0933;0.1573;
83890277924195;-0.4068;0.0997;0.1881;
83890288029559;-0.4792;0.0039;0.2244;
83890298134924;-0.4121;0.0007;0.2254;
83890308250757;-0.5090;0.0507;0.2169;
83890318356122;-0.6624;0.0220;0.1594;
83890328461486;-0.7338;-0.0482;0.0626;
83890338601486;-0.7775;-0.1196;-0.0162;
83890348706851;-0.6763;-0.0993;-0.0482;
83890358812215;-0.6316;-0.0185;-0.0759;
83890368916382;-0.5751;0.0784;-0.1089;
83890379021747;-0.4750;0.0965;-0.1398;
83890389127111;-0.4142;0.0017;-0.1270;
83890399243882;-0.3482;-0.0557;-0.1398;
83890409349247;-0.3695;-0.0738;-0.1632;
83890419454611;-0.3855;-0.1153;-0.1718;
83890429530965;-0.3216;-0.2069;-0.1846;
83890439636330;-0.1939;-0.0100;-0.1899;
83890449741695;-0.1939;0.2212;-0.1771;
83890459834299;-0.1726;0.2467;-0.1782;
83890469939663;-0.1161;0.1636;-0.1984;
83890480045028;-0.0959;0.0646;-0.1622;
83890490169195;-0.1182;-0.1324;-0.1931;
83890500274559;-0.1353;-0.1877;-0.1995;
83890510379924;-0.1470;0.0273;-0.1718;
83890520481903;-0.0991;0.1903;-0.1899;
83890530587268;0.0117;0.0816;-0.1494;
83890540692632;0.0895;-0.1174;-0.1398;
83890550812111;0.0991;-0.2133;-0.1089;
83890560917476;0.0032;-0.1664;-0.0663;
83890571022840;-0.0096;-0.0377;-0.0013;
83890581122007;-0.1044;-0.0844;0.0210;
83890591227372;-0.1012;-0.0844;-0.0258;
83890601332736;-0.0607;0.1360;-0.0503;
83890611442736;-0.1129;0.3394;-0.0663;
83890621548101;-0.1225;0.2702;0.0232;
83890631653465;-0.1715;-0.1856;-0.0237;
83890641764403;-0.2491;-0.3720;-0.0791;
83890651869768;-0.2917;-0.1760;-0.0983;
83890661975132;-0.3578;0.0348;-0.1057;
83890672069299;-0.2555;0.0230;-0.0812;
83890682174663;-0.1662;0.1349;-0.1228;
83890692280028;-0.1790;0.0742;-0.1451;
83890702386903;-0.1619;-0.0441;-0.1324;
83890712492215;-0.1193;0.1668;-0.1015;
83890722597632;-0.1534;0.1072;-0.1622;
83890732706382;-0.1300;0.1115;-0.2005;
83890742811747;-0.1278;0.4012;-0.1643;
83890752917111;-0.0927;0.2148;-0.1579;
83890763023049;-0.1321;-0.1526;-0.1931;
83890773128413;-0.1438;-0.1579;-0.1473;
83890783233778;-0.1726;-0.1771;-0.1164;
83890793339195;-0.1598;-0.2399;-0.1228;
83890803444924;-0.1747;-0.1622;-0.1846;
83890813550653;-0.1246;-0.1015;-0.2027;
83890823673674;-0.0522;-0.0089;-0.1835;
83890833779455;0.0554;0.0273;-0.1569;
83890843885184;-0.0266;0.0731;-0.1142;
83890853964143;-0.0479;0.1370;-0.2261;
83890864069924;0.0724;-0.0196;-0.3156;
83890874175653;0.1960;-0.0780;-0.2602;
83890884285340;0.1726;0.0124;-0.1984;
83890894391018;0.1150;0.0752;-0.1835;
83890904496799;0.1278;0.0497;-0.2229;
83890914606174;0.2439;-0.0260;-0.2037;
83890924711903;0.2983;-0.1803;-0.1771;
83890934817632;0.3313;-0.1867;-0.0812;
83890944922424;0.3718;-0.1121;-0.0344;
83890955028153;0.3345;-0.1483;-0.0045;
83890965133882;0.3270;-0.0324;0.0157;
83890975244611;0.0937;0.2989;0.0115;
83890985350340;0.0469;0.2116;-0.0397;
83890995456070;0.3292;-0.0025;-0.0056;
83891005560340;0.5453;0.1040;0.0901;
83891015666070;0.3760;-0.0844;0.0754;
83891025771799;0.1587;-0.3997;0.0413;
83891035873049;0.1012;-0.0663;0.0615;
83891045978778;0.0341;0.0710;0.0445;
83891056084507;0.0501;-0.1494;0.0168;
83891066188049;0.0107;-0.2559;-0.0013;
83891076293778;-0.0639;-0.0281;-0.0099;
83891086399507;-0.1108;0.1125;-0.0120;
83891096504455;0.0628;0.0348;-0.0589;
83891106610236;0.1023;0.2063;-0.0535;
83891116715965;0.0586;0.4289;-0.0567;
83891126835549;0.2162;0.2521;-0.0525;
83891136941278;0.3515;-0.0036;-0.0141;
83891147047007;0.3728;-0.0206;-0.0226;
83891157155497;0.1896;0.0294;-0.0525;
83891167261226;0.0511;0.0316;-0.0557;
83891177366955;0.1214;0.0827;-0.0578;
83891187459351;0.1417;-0.0164;-0.0173;
83891197565080;0.1278;-0.1643;0.0157;
83891207670861;0.1257;0.0252;0.0178;
83891217827840;0.0884;0.1690;0.0029;
83891227933518;0.0660;0.0763;-0.0067;
83891238039247;0.1342;0.0688;-0.0471;
83891248076434;0.1385;0.2084;-0.0344;
83891258182163;0.2312;0.3064;-0.0599;
83891268287945;0.3270;0.1146;-0.1111;
83891278427007;0.4132;-0.2676;-0.1217;
83891288532684;0.2716;-0.3028;-0.0983;
83891298638465;0.0937;-0.0196;-0.1270;
83891308742215;0.1694;-0.0004;-0.1441;
83891318847893;0.2386;-0.2740;-0.1206;
83891328953622;0.1694;-0.5094;-0.0375;
83891339051903;0.1694;-0.6584;0.0317;
83891349157632;0.1609;-0.6074;0.0732;
83891359263361;0.0788;-0.1132;0.0541;
83891369374247;0.0724;0.2840;-0.0056;
83891379479976;0.0373;0.1381;-0.0397;
83891389585757;0.1374;-0.0302;-0.0663;
83891399677736;0.2258;-0.1356;-0.1089;
83891409783465;0.1427;-0.5339;-0.0983;
83891419889195;0.0842;-0.7138;-0.1281;
83891429999715;-0.0937;-0.2868;-0.1079;
83891440105445;-0.1960;0.2659;-0.1174;
83891450211174;-0.0277;0.3106;-0.1473;
83891460318934;0.2035;-0.0100;-0.1515;
83891470424611;0.2045;-0.0951;-0.0961;
83891480530340;0.1939;0.0486;-0.1089;
83891490636070;0.3324;0.3000;-0.0205;
83891500739090;0.6316;0.7334;0.0370;
83891510844820;0.7977;0.6855;0.0690;
83891520950549;0.6529;-0.0015;0.1541;
83891531081851;0.4888;-0.1121;0.2297;
83891541187632;0.3196;0.3469;0.2723;
83891551293361;0.1289;0.1881;0.2734;
83891561372632;0.2514;-0.1004;0.1903;
83891571478361;0.5378;0.1892;0.1988;
83891581584090;0.6166;0.3320;0.1892;
83891591694507;0.3972;0.1200;0.2723;
83891601800236;0.2897;-0.0430;0.3543;
83891611906410;0.1864;0.0838;0.3043;
83891622002296;0.1587;0.1562;0.2915;
83891632108025;0.0575;0.0230;0.3746;
83891642213754;-0.0714;-0.0281;0.3937;
83891652322192;-0.0320;0.0720;0.3660;
83891662427921;-0.0405;-0.0036;0.3714;
83891672533702;-0.1545;-0.0610;0.4555;
83891682640056;-0.2310;0.0337;0.5130;
83891692745733;-0.3663;-0.0345;0.4896;
83891702851515;-0.4750;-0.0377;0.3682;
83891712944119;-0.5815;-0.0292;0.2936;
83891723049848;-0.6497;-0.0940;0.2521;
83891733155577;-0.6337;-0.0631;0.2585;
83891743294379;-0.5644;0.1413;0.2297;
83891753400160;-0.4877;0.1434;0.2222;
83891763505890;-0.4909;0.0752;0.1860;
83891773599223;-0.6220;-0.1664;0.1381;
83891783704900;-0.6422;-0.1760;0.1093;
83891793810681;-0.3738;0.2979;0.1115;
83891803908390;-0.3418;0.2031;0.0360;
83891814014067;-0.2853;-0.0748;0.0210;
83891824119796;-0.1534;0.0337;0.0221;
83891834226723;-0.2035;0.0049;-0.0130;
83891844332400;-0.1939;-0.0079;-0.0301;
83891854438129;-0.1609;-0.0206;-0.0876;
83891864545785;-0.1214;-0.0419;-0.1270;
83891874651463;-0.1140;-0.0302;-0.1324;
83891884757192;-0.0703;-0.0642;-0.1686;
83891894848077;-0.0650;0.0060;-0.1356;
83891904953754;-0.0511;0.0550;-0.1430;
83891915059483;-0.0277;-0.0079;-0.1622;
83891925185681;0.0053;-0.0089;-0.1473;
83891935291358;-0.0341;0.0454;-0.1313;
83891945397088;-0.0554;-0.0153;-0.1196;
83891955504119;-0.0756;-0.0610;-0.1260;
83891965609796;-0.0714;-0.0324;-0.1057;
83891975715525;-0.0810;-0.0525;-0.0802;
83891985814015;-0.0650;-0.0217;-0.1185;
83891995919692;-0.0469;0.0571;-0.1270;
83892006025421;-0.0107;0.0348;-0.1057;
83892016125473;0.0383;-0.0356;-0.1100;
83892026231150;0.1385;0.1083;-0.0759;
83892036336879;0.1300;0.1019;-0.0738;
83892046438025;0.1278;0.0209;-0.0386;
83892056543702;0.1800;0.0507;-0.0301;
83892066649431;0.1118;0.0007;-0.0333;
83892076764744;0.1374;-0.0004;-0.0407;
83892086870421;0.1960;0.0134;0.0040;
83892096976098;0.1619;0.0252;0.0605;
83892107144223;0.1449;-0.0036;0.0445;
83892117249900;0.1193;-0.0260;0.0498;
83892127355577;0.0565;-0.0228;0.0615;
83892137382973;0.0138;-0.0196;0.0402;
83892147488598;0.0224;-0.0132;0.0093;
83892157594327;0.0373;-0.0249;0.0349;
83892167771150;0.0277;0.0294;0.0264;
83892177876827;-0.0138;-0.0174;-0.0013;
83892187982504;-0.0234;-0.0557;-0.0205;
83892198042608;-0.0085;-0.0185;-0.0173;
83892208148338;-0.0053;-0.0313;0.0200;
83892218254015;-0.0107;-0.0738;0.0519;
83892228355994;0.0021;-0.0324;0.0402;
83892238461619;-0.0053;-0.0111;0.0498;
83892248567348;-0.0075;-0.0770;0.0519;
83892258688181;0.0330;-0.0419;0.0413;
83892268793858;-0.0053;0.0401;0.0253;
83892278899588;0.0298;0.0433;0.0573;
83892289001098;0.0181;-0.0441;0.0423;
83892299106775;0.0746;-0.0121;0.0466;
83892309212504;0.0202;0.0220;0.0328;
83892319297140;0.0405;0.0081;0.0423;
83892329402817;0.0511;-0.0185;0.0391;
83892339508546;0.0682;0.0593;0.0487;
83892349619952;0.0703;0.0688;0.0658;
83892359725629;0.0543;-0.0419;0.0891;
83892369831358;0.0085;-0.0770;0.0838;
83892379932973;0.0075;-0.0802;0.1189;
83892390038650;-0.0202;-0.1238;0.0806;
83892400144379;0.0064;-0.1100;0.0795;
83892410247973;0.0032;-0.0695;0.0743;
83892420353650;-0.0128;-0.0652;0.0338;
83892430459379;0.0021;-0.0610;0.0573;
83892440563598;0.0011;0.0603;0.0754;
83892450669275;-0.0128;0.1306;0.0157;
83892460774952;-0.0138;0.0518;-0.0269;
83892470897192;0.0234;0.0092;0.0029;
83892481002869;0.0426;0.0348;0.0157;
83892491108598;0.0533;0.0220;0.0189;
83892501205785;0.0383;0.0326;0.0413;
83892511311463;0.0405;0.0465;0.0722;
83892521417192;0.0266;0.0198;0.0594;
83892531511619;0.0245;-0.0089;0.0615;
83892541617296;0.0352;0.0965;0.1115;
83892551722973;0.0501;0.1338;0.1019;
83892561840577;0.0000;0.0294;0.0987;
83892571946254;-0.0256;0.0678;0.0636;
83892582051931;0.0149;0.0848;0.1850;
83892592150577;-0.0628;-0.0302;0.1072;
83892602256254;-0.0383;-0.1068;0.0210;
83892612361983;-0.0703;-0.0866;0.0232;
83892622472660;-0.0895;-0.0503;0.0146;
83892632578338;-0.0426;0.0529;0.0264;
83892642684015;-0.0352;0.0134;0.0370;
83892652800369;-0.0224;0.0092;0.0338;
83892662906046;-0.0043;0.0529;0.0509;
83892673011775;0.0011;0.0635;0.0700;
83892683099327;0.0138;0.0656;0.0795;
83892693205004;0.0085;0.0593;0.0690;
83892703310681;-0.0266;-0.0206;0.0573;
83892713418390;-0.0085;0.0071;0.0711;
83892723524067;-0.0522;0.0071;0.0498;
83892733629796;-0.0767;-0.0855;0.0083;
83892743763077;-0.0330;-0.0398;0.0455;
83892753868754;-0.0107;0.1850;0.1061;
83892763974483;-0.0607;0.0891;0.0944;
83892774055160;-0.0405;-0.1537;0.1029;
83892784160838;-0.0554;-0.1047;0.0838;
83892794266567;-0.0394;0.1360;0.0816;
83892804384483;-0.0511;0.1360;0.0955;
83892814490265;-0.0320;0.0060;0.1349;
83892824596046;-0.0533;-0.0292;0.1306;
83892834692608;-0.0873;-0.0302;0.0923;
83892844798390;-0.0842;-0.0174;0.1051;
83892854904171;-0.0852;-0.0015;0.1083;
83892865023963;-0.1129;-0.0228;0.1104;
83892875129796;-0.1470;-0.0525;0.1210;
83892885235525;-0.1630;-0.0228;0.1221;
83892895320733;-0.1992;0.0007;0.1306;
83892905426515;-0.2406;-0.0652;0.1679;
83892915532296;-0.2651;-0.0919;0.1061;
83892925663650;-0.2566;0.0166;0.0743;
83892935769431;-0.3386;0.0252;0.0690;
83892945875213;-0.3525;-0.0748;0.0763;
83892955978025;-0.2779;-0.0047;0.0551;
83892966083806;-0.3280;0.0316;0.0104;
83892976189640;-0.3812;-0.0004;-0.0035;
83892986284171;-0.3461;0.0337;-0.0205;
83892996389952;-0.3056;0.0188;-0.0461;
83893006495733;-0.2257;0.0912;-0.0514;
83893016589692;-0.2003;0.0561;-0.0322;
83893026695473;-0.1854;-0.0471;-0.0003;
83893036801306;-0.1907;-0.0674;-0.0258;
83893046907452;-0.1726;-0.0409;-0.0546;
83893057013233;-0.1747;0.0060;-0.0610;
83893067119015;-0.1672;0.0049;-0.0620;
83893077206254;-0.1683;-0.0111;-0.0908;
83893087312035;-0.1651;0.1019;-0.0940;
83893097417817;-0.1768;0.0955;-0.1079;
83893107548025;-0.1683;-0.0334;-0.1238;
83893117653806;-0.1257;0.0422;-0.1206;
83893127759588;-0.1332;0.1072;-0.1494;
83893137858650;-0.1300;0.0507;-0.1270;
83893147964431;-0.1108;-0.0196;-0.1068;
83893158070213;-0.0778;-0.0356;-0.0759;
83893168182088;-0.0959;-0.0015;-0.1142;
83893178287869;0.0107;0.0752;-0.1228;
83893188393650;0.0075;0.0933;-0.0716;
83893198508963;-0.0160;0.0561;-0.0322;
83893208614744;-0.0277;-0.0015;-0.0546;
83893218720525;-0.1214;-0.0631;-0.0557;
83893228827400;-0.1523;-0.1047;-0.0407;
83893238933181;-0.1214;-0.0482;-0.0589;
83893249038963;-0.1246;-0.0377;-0.0866;
83893259153702;-0.1150;-0.1089;-0.0876;
83893269259483;-0.0799;-0.0929;-0.0770;
83893279365265;-0.0959;-0.0366;-0.0748;
83893289449900;-0.0682;0.0678;-0.0940;
83893299555681;-0.0575;0.1168;-0.1111;
83893309661463;-0.0618;0.0454;-0.1047;
83893319778754;0.0011;0.0071;-0.1025;
83893329884535;0.0778;0.0497;-0.1270;
83893339990317;0.0202;0.0177;-0.1164;
83893350087713;-0.0916;-0.0525;-0.1121;
83893360193546;-0.0554;-0.0260;-0.0812;
83893370299275;-0.0586;-0.0493;-0.0908;
83893380401150;-0.0586;-0.0844;-0.0961;
83893390506931;-0.0810;-0.0652;-0.0716;
83893400612713;-0.0650;0.0113;-0.0546;
83893410721983;-0.0692;-0.0057;-0.0812;
83893420827765;-0.0437;-0.0238;-0.0993;
83893430933546;-0.0650;-0.0419;-0.1377;
83893441045890;0.0160;0.0071;-0.1398;
83893451151671;-0.0170;-0.0068;-0.1803;
83893461257504;-0.0288;-0.0674;-0.1643;
83893471369275;0.0000;-0.0292;-0.1686;
83893481475056;0.0927;0.0827;-0.1398;
83893491580838;0.1758;0.1264;-0.1377;
83893501697713;0.2024;0.0411;-0.1089;
83893511803442;0.1662;-0.0164;-0.0855;
83893521909223;0.1971;0.0337;0.0136;
83893531989171;0.2184;0.1008;0.0008;
83893542095004;0.1332;0.0273;-0.0269;
83893552200733;0.0138;-0.0345;-0.0578;
83893562303129;0.0085;-0.0482;-0.0589;
83893572408910;0.0320;-0.0610;-0.0493;
83893582514692;0.0160;-0.0409;-0.0439;
83893592624171;0.0202;0.0241;-0.0461;
83893602729952;0.0320;0.0422;-0.0514;
83893612835733;0.0405;0.0241;-0.0461;
83893622943338;0.0394;0.0188;-0.0397;
83893633049119;0.0522;0.0017;0.0019;
83893643154900;0.0969;0.0901;0.0019;
83893653254171;0.0692;0.1008;-0.0130;
83893663359952;0.0383;0.0092;-0.0557;
83893673465733;0.0724;-0.0238;-0.0237;
83893683572296;0.0735;0.0060;-0.0280;
83893693678077;0.0586;0.0284;-0.0525;
83893703783858;0.0628;0.0827;-0.0184;
83893713902504;0.0458;0.0411;0.0125;
83893724008285;0.0522;0.0007;0.0178;
83893734114067;0.0309;-0.0047;0.0093;
83893744207088;0.0170;-0.0430;-0.0120;
83893754312869;0.0213;-0.0377;0.0391;
83893764418650;0.0320;-0.0419;0.0445;
83893774536671;0.0138;-0.0642;0.0360;
83893784613650;-0.0415;-0.1047;-0.0184;
83893794719379;-0.0607;-0.0589;-0.0535;
83893804825160;-0.0383;0.0401;-0.0557;
83893814930942;0.0021;0.0827;-0.0375;
83893825055473;-0.0245;0.0369;0.0040;
83893835161254;0.0021;-0.0812;0.0264;
83893845267035;-0.0192;-0.0047;0.0093;
83893855377504;-0.0224;0.2095;0.0061;
83893865483285;0.0373;0.2222;0.0200;
83893875589067;0.0490;0.1370;0.0477;
83893885694067;0.0394;0.1328;0.0636;
83893895799848;-0.0096;0.0656;0.0732;
83893905905629;-0.0181;0.0635;0.0328;
83893916006671;-0.0298;0.0912;0.0317;
83893926112504;-0.0597;-0.0174;0.0466;
83893936218233;-0.0533;-0.0652;0.0700;
83893946325317;-0.0692;-0.0228;0.0784;
83893956431098;-0.0692;0.0507;0.0594;
83893966536879;-0.0341;0.1636;0.0338;
83893976639067;0.0096;0.0933;0.0413;
83893986744848;-0.0501;-0.1494;0.0061;
83893996850629;-0.0724;-0.2240;0.0296;
83894006956515;-0.1033;-0.2037;-0.0013;
83894017062296;-0.1363;-0.1973;-0.0610;
83894027168077;-0.1545;-0.1196;-0.1387;
83894037280681;-0.1246;-0.0089;-0.1558;
83894047386410;-0.0341;0.0316;-0.1856;
83894057492244;0.0479;0.0742;-0.1814;
83894067553546;0.0011;0.0305;-0.1803;
83894077659327;0.0501;-0.0706;-0.2101;
83894087765108;0.0831;-0.0482;-0.2080;
83894097902608;0.0735;-0.0897;-0.2144;
83894108008390;0.1459;-0.0759;-0.2112;
83894118114171;0.2013;0.0656;-0.1622;
83894128235421;0.1960;0.0774;-0.1462;
83894138341202;0.2620;0.0731;-0.1590;
83894148446983;0.2269;0.1338;-0.1537;
83894158554379;0.1577;0.0944;-0.1153;
83894168660160;0.1214;0.0571;-0.0866;
83894178765942;0.1012;0.0486;-0.0876;
83894188863390;0.0671;0.0134;-0.0631;
83894198969171;0.1033;0.0316;-0.0290;
83894209074952;0.0969;0.0273;-0.0109;
83894219185838;0.0810;-0.0972;0.0136;
83894229291619;0.0256;-0.1654;0.0360;
83894239397400;0.0043;-0.2485;0.0519;
83894249498025;-0.0298;-0.2996;0.0754;
83894259603806;-0.0873;-0.2240;0.0253;
83894269709588;-0.0991;-0.1047;0.0019;
83894279800890;-0.1182;0.0081;-0.0162;
83894289906671;-0.1140;0.0262;-0.0589;
83894300012452;-0.0575;0.0933;-0.0684;
83894310135838;-0.0117;0.2095;-0.0482;
83894320241619;0.0192;0.1935;-0.0461;
83894330347452;0.0341;0.0838;-0.0130;
83894340447921;0.0181;0.0113;0.0019;
83894350553702;0.0245;0.0529;0.0455;
83894360659535;0.0202;0.0720;0.0477;
83894370771150;-0.0181;0.0145;0.0391;
83894380876931;-0.0181;0.0166;0.0061;
83894390982713;0.0170;0.0529;0.0189;
83894401077140;0.0181;0.0028;0.0146;
83894411182921;0.0107;-0.0589;-0.0109;
83894421288702;-0.0021;-0.0557;-0.0173;
83894431399483;-0.0266;-0.1377;-0.0684;
83894441505265;-0.0011;-0.1899;-0.0493;
83894451611046;0.0511;-0.0111;-0.0280;
83894461681983;0.0341;0.0614;-0.0620;
83894471787765;0.0799;0.0646;-0.0418;
83894481893546;0.1342;0.0838;-0.0194;
83894492038442;0.1417;0.0571;-0.0493;
83894502144223;0.1609;0.1072;0.0104;
83894512250004;0.1172;0.1210;0.0402;
83894522372556;0.0767;0.0859;0.0104;
83894532478285;0.0639;0.0230;0.0391;
83894542584067;0.0735;0.0369;0.0987;
83894552665317;0.0405;0.0294;0.0806;
83894562771098;0.0266;0.0571;0.0711;
83894572876879;0.0362;-0.1036;0.1338;
83894583019067;0.0128;-0.2453;0.1658;
83894593124848;0.0107;-0.0366;0.1477;
83894603230629;-0.0245;0.1605;0.1040;
83894613299223;-0.0096;0.1317;0.0997;
83894623405004;0.0256;0.0571;0.0933;
83894633510785;0.0330;0.0284;0.1189;
83894643620056;0.0202;0.0390;0.0901;
83894653725838;0.0341;0.1242;0.1040;
83894663831671;0.0138;0.1285;0.1008;
83894673930838;0.0288;-0.0185;0.1029;
83894684036619;0.0213;-0.0961;0.1157;
83894694142400;0.0021;-0.0887;0.1509;
83894704243754;0.0341;0.1178;0.1903;
83894714349535;0.0842;0.2616;0.2361;
83894724455317;-0.1321;-0.2602;0.2180;
83894734570890;-0.0799;-0.2751;0.1370;
83894744676671;-0.0277;0.0422;0.1477;
83894754782452;-0.0618;0.0092;0.0987;
83894764900629;-0.0224;-0.0068;0.0912;
83894775006410;-0.0650;0.0379;0.0774;
83894785112244;-0.0277;0.1146;0.1168;
83894795202817;0.0096;0.1647;0.1157;
83894805308702;0.0245;0.1210;0.1338;
83894815414588;0.0170;0.1146;0.1626;
83894825523806;0.0192;0.0316;0.2137;
83894835629692;-0.0288;-0.0441;0.2627;
83894845735577;-0.0373;-0.0589;0.1881;
83894855838338;-0.0618;-0.0684;0.2020;
83894865944223;-0.0746;-0.1387;0.2382;
83894876050108;-0.0959;-0.1739;0.2052;
83894886145108;-0.1023;-0.0727;0.1754;
83894896250994;-0.1747;-0.0206;0.1509;
83894906356879;-0.2236;-0.0153;0.1583;
83894916467400;-0.1257;-0.0142;0.1871;
83894926573285;-0.0682;-0.0302;0.1562;
83894936679171;-0.0415;0.0316;0.1360;
83894946791358;-0.0575;0.0465;0.1477;
83894956897244;-0.0799;-0.0356;0.1360;
83894967003129;-0.0671;-0.0281;0.1402;
83894977172192;-0.0980;-0.0079;0.1200;
83894987278025;-0.0959;-0.0100;0.0679;
83894997383910;-0.0394;0.0976;0.1019;
83895007417192;-0.0756;0.1391;0.0912;
83895017523077;-0.0660;-0.0356;0.0583;
83895027628963;-0.0628;-0.0780;0.0647;
83895037794483;-0.1044;0.0166;0.0146;
83895047900369;-0.0597;0.0539;0.0413;
83895058006202;-0.0522;0.0497;0.0763;
83895068055785;-0.0469;0.0220;0.0296;
83895078161671;-0.0660;-0.0249;-0.0045;
83895088267556;-0.0586;-0.0578;-0.0109;
83895098391254;-0.0746;0.0028;-0.0141;
83895108497140;-0.1108;0.0294;-0.0780;
83895118603025;-0.0724;-0.0471;-0.1036;
83895128708754;-0.0895;-0.0419;-0.0866;
83895138814640;-0.0479;0.0742;-0.0716;
83895148920525;-0.0383;0.0923;-0.0897;
83895159023233;-0.0064;0.0348;-0.0812;
83895169129119;-0.0479;-0.0503;-0.0716;
83895179235004;-0.0288;-0.0206;-0.0525;
83895189350369;-0.0692;-0.0345;-0.0663;
83895199456254;-0.0224;-0.0206;-0.0461;
83895209562088;-0.0415;0.0422;-0.0610;
83895219652556;0.0032;0.0465;-0.0557;
83895229758442;-0.0341;-0.0174;-0.0738;
83895239864327;-0.0288;-0.0302;-0.0429;
83895249972400;-0.0341;0.0092;-0.0130;
83895260078285;-0.0266;-0.0409;-0.0450;
83895270184171;-0.0256;-0.0589;-0.0461;
83895280288754;-0.0341;-0.0068;0.0115;
83895290394640;-0.0458;0.0305;0.0328;
83895300500525;-0.0543;0.0103;0.0093;
83895310605213;-0.0724;-0.0121;-0.0173;
83895320711098;-0.0628;0.0262;-0.0077;
83895330816983;-0.0810;0.0007;0.0115;
83895340919379;-0.1076;-0.0302;-0.0024;
83895351025265;-0.1150;0.0103;0.0019;
83895361131150;-0.1619;0.0017;0.0029;
83895371230733;-0.1928;-0.0451;0.0061;
83895381336619;-0.1758;-0.0238;0.0115;
83895391442504;-0.1811;-0.0089;0.0115;
83895401546046;-0.1438;-0.0281;0.0360;
83895411651931;-0.1459;-0.0791;0.0221;
83895421757817;-0.1150;-0.0812;0.0146;
83895431863806;-0.1342;-0.0164;-0.0216;
83895441969692;-0.1342;-0.0121;-0.0386;
83895452075577;-0.1055;0.0198;-0.0237;
83895462187973;-0.0895;0.0955;-0.0344;
83895472293858;-0.0778;0.0710;-0.0461;
83895482399744;-0.0788;0.0134;-0.0471;
83895492500213;-0.0767;-0.0430;-0.0674;
83895502606098;-0.0884;-0.0919;-0.0951;
83895512711983;-0.0692;-0.0324;-0.0471;
83895522824796;-0.0724;0.0603;-0.0301;
83895532930681;-0.0660;-0.0174;-0.0684;
83895543036567;-0.0277;-0.0217;-0.0706;
83895553126879;0.0000;0.0262;-0.0876;
83895563232765;-0.0117;-0.0206;-0.1206;
83895573338650;0.0565;-0.0121;-0.1079;
83895583468858;0.0597;-0.0377;-0.1068;
83895593574744;0.0362;-0.1356;-0.0940;
83895603680577;0.0138;-0.0185;-0.1228;
83895613774483;0.0490;0.1061;-0.0770;
83895623880369;0.0895;0.1253;-0.0514;
83895633986254;0.1747;0.0252;-0.0344;
83895644089483;0.2557;-0.1696;-0.0141;
83895654195369;0.1854;-0.1430;-0.0461;
83895664301254;0.0213;-0.0142;-0.0344;
83895674408129;-0.0160;-0.0142;0.0072;
83895684514015;0.0202;-0.0642;-0.0450;
83895694619900;0.0149;0.0390;-0.0557;
83895704727296;0.0096;0.0987;-0.0503;
83895714833181;0.0511;0.0475;-0.0578;
83895724939015;0.0884;0.0284;-0.0226;
83895735054640;0.0543;-0.0324;-0.0514;
83895745160525;0.0724;-0.1174;-0.0301;
83895755266410;0.0586;-0.0706;-0.0333;
83895765351567;0.0107;-0.0409;-0.0322;
83895775457452;0.0075;-0.0302;-0.0599;
83895785563338;-0.0192;0.0209;-0.0748;
83895795680629;0.0149;0.0582;-0.0599;
83895805786463;0.0533;0.0933;-0.0557;
83895815892296;0.0703;0.0433;-0.0471;
83895825996463;0.1438;-0.0876;-0.0663;
83895836102296;0.2865;-0.0249;-0.0812;
83895846208129;0.1960;0.0039;-0.0461;
83895856299588;0.1385;-0.1089;-0.0248;
83895866405421;0.2706;-0.0738;0.0125;
83895876511254;0.1609;0.0145;0.0157;
83895886620317;0.0991;0.0379;0.0221;
83895896726150;0.1843;0.1296;0.0434;
83895906831983;0.3015;0.1381;0.0562;
83895916934223;0.3292;-0.0228;0.0626;
83895927040004;0.3355;0.0177;0.0912;
83895937145838;0.2727;0.0806;0.0901;
83895947264067;0.1875;0.0443;0.1242;
83895957369900;0.1790;0.0092;0.1892;
83895967475733;0.1246;0.0348;0.2265;
83895977582608;0.0607;0.0497;0.2063;
83895987688442;-0.0298;0.0071;0.1945;
83895997794327;-0.1545;-0.0716;0.2116;
83896007881463;-0.2811;-0.0620;0.1828;
83896017987296;-0.4718;-0.0047;0.1232;
83896028093129;-0.6571;0.0124;0.0562;
83896038218338;-0.6667;0.0071;0.0360;
83896048324171;-0.6688;-0.0578;-0.0631;
83896058430004;-0.6433;-0.0706;-0.1377;
83896068550525;-0.5825;0.0763;-0.1888;
83896078656358;-0.5474;0.1541;-0.1941;
83896088762192;-0.5154;0.0337;-0.2794;
83896098851254;-0.2885;0.0262;-0.3166;
83896108957088;-0.1545;0.1509;-0.3262;
83896119062921;-0.1832;0.1029;-0.3209;
83896129155317;-0.1268;-0.0089;-0.3454;
83896139261150;-0.0234;-0.0578;-0.3081;
83896149366983;-0.0330;-0.1153;-0.3390;
83896159509171;0.0309;-0.1111;-0.3166;
83896169615004;0.1023;-0.0302;-0.3166;
83896179720838;0.2716;0.0113;-0.2932;
83896189798129;0.3441;-0.1281;-0.2900;
83896199903963;0.4877;-0.1142;-0.2868;
83896210009796;0.5495;-0.0674;-0.2431;
83896220129900;0.5218;-0.0620;-0.1537;
83896230235733;0.5655;-0.0748;-0.1164;
83896240341567;0.5815;-0.0334;-0.0972;
83896250436254;0.5889;0.0901;-0.0407;
83896260542088;0.5591;0.1434;0.0498;
83896270647921;0.5122;0.0891;0.0869;
83896280751983;0.5016;0.0103;0.1200;
83896290857817;0.4281;-0.0461;0.1711;
83896300963650;0.3206;-0.0589;0.2382;
83896311071046;0.1662;-0.0004;0.2627;
83896321176879;0.1065;-0.0185;0.2489;
83896331282713;0.0479;-0.0525;0.2499;
83896341378754;-0.0107;0.1264;0.2435;
83896351484588;-0.1342;0.1487;0.2222;
83896361590421;-0.1662;0.0113;0.2350;
83896371696567;-0.1513;-0.0047;0.2084;
83896381802400;-0.2161;-0.0238;0.1562;
83896391908233;-0.3226;0.0401;0.1008;
83896402014900;-0.3471;0.0784;0.1242;
83896412120733;-0.2513;0.0124;0.0784;
83896422226567;-0.1310;-0.0196;0.0264;
83896432335890;-0.2056;-0.0866;-0.0280;
83896442441723;-0.1449;-0.0217;0.0636;
83896452547556;-0.1332;0.1434;0.0296;
83896462650369;-0.1214;0.0923;-0.0631;
83896472756202;-0.0373;-0.0111;-0.0887;
83896482862035;-0.0117;-0.0844;-0.0599;
83896492969067;0.0288;-0.0196;-0.0130;
83896503074900;0.0671;0.1349;-0.0226;
83896513180733;0.0575;0.0667;-0.0162;
83896523296463;0.0415;-0.1579;-0.0184;
83896533402296;0.1513;-0.0791;-0.0056;
83896543508129;0.0799;0.0337;-0.0024;
83896553604379;0.0618;0.0997;-0.0194;
83896563710213;0.1342;0.0731;-0.0099;
83896573816046;0.0043;-0.1771;0.0125;
83896583948650;0.0117;-0.1345;0.0274;
83896594054483;0.0511;0.0656;0.0285;
83896604160317;0.0447;0.0326;-0.0024;
83896614239483;0.0373;0.0081;0.0562;
83896624345317;-0.0149;-0.1089;0.0869;
83896634451150;0.0458;-0.0377;0.1146;
83896644551046;0.0469;0.1573;0.0827;
83896654656879;-0.0160;0.0561;0.0679;
83896664762713;-0.0469;-0.0642;0.0965;
83896674870525;-0.0426;0.0539;0.0816;
83896684976358;-0.0426;0.1200;0.0583;
83896695082192;-0.0714;0.0987;0.0743;
83896705188963;-0.1545;-0.0079;0.0933;
83896715294796;-0.1236;-0.0663;0.1306;
83896725400629;-0.0192;0.1466;0.1136;
83896735521671;-0.0447;0.1743;0.0912;
83896745627504;-0.2268;-0.0961;0.0541;
83896755733338;-0.2502;-0.1547;0.0869;
83896765840056;-0.0991;-0.0503;0.1115;
83896775945890;-0.0959;0.0348;0.0413;
83896786051723;-0.1204;0.0103;0.0317;
83896796130160;-0.1118;-0.0535;0.0210;
83896806235785;-0.1055;0.0401;0.0093;
83896816341358;-0.1268;0.0603;-0.0727;
83896826458910;-0.1055;0.0241;-0.0557;
83896836564535;-0.0245;0.1115;0.0445;
83896846670108;-0.0756;-0.0461;0.0562;
83896856769015;-0.0831;-0.1313;0.0519;
83896866874588;-0.0490;0.1466;0.0328;
83896876980213;-0.0373;0.2308;0.0413;
83896887149223;-0.1118;-0.0972;0.0445;
83896897254796;-0.0842;-0.1217;0.0455;
83896907360421;-0.0842;0.0156;0.0445;
83896917415160;-0.1321;-0.0441;0.0402;
83896927520733;-0.1949;-0.2261;0.0477;
83896937626358;-0.2130;-0.1196;0.0381;
83896947765681;-0.1289;0.1189;0.0402;
83896957871254;-0.1523;-0.0812;-0.0013;
83896967976879;-0.1971;-0.2059;-0.0205;
83896978049535;-0.1640;-0.0089;0.0189;
83896988155108;-0.1800;-0.0578;0.0168;
83896998260733;-0.1758;-0.0727;-0.0141;
83897008352452;-0.1065;0.1423;-0.0407;
83897018458025;-0.1214;0.2126;-0.0578;
83897028563650;-0.1204;0.0912;-0.0333;
83897038674952;-0.1502;0.0209;-0.0535;
83897048780577;-0.1118;0.0305;-0.0258;
83897058886150;-0.0937;0.0081;0.0072;
83897069015785;-0.1268;-0.0876;0.0029;
83897079121358;-0.0671;-0.1856;0.0722;
83897089226983;-0.0170;-0.1068;0.1370;
83897099308702;0.0522;0.0198;0.1839;
83897109414275;0.1640;0.2830;0.1445;
83897119519900;-0.1012;0.3724;0.0722;
83897129632348;-0.0341;0.2553;0.0763;
83897139737921;0.0543;0.0816;0.0763;
83897149843546;0.1140;-0.0514;0.0754;
83897159943702;0.1225;0.1477;0.0370;
83897170049327;0.0032;0.0806;0.0722;
83897180154900;-0.0298;-0.1643;0.1296;
83897190267973;-0.0533;-0.0068;0.1051;
83897200373546;-0.0650;0.2276;0.1636;
83897210479171;-0.1033;0.2744;0.2286;
83897220601515;-0.2172;0.1210;0.1040;
83897230707088;-0.1033;0.0252;0.0923;
83897240812713;-0.1502;-0.3806;0.0923;
83897250906202;-0.1971;-0.6522;-0.0162;
83897261011775;-0.2278;-0.1750;-0.0407;
83897271117400;-0.3802;0.2425;-0.0216;
83897281219431;-0.4995;0.0326;-0.0237;
83897291325004;-0.2694;-0.0345;0.0104;
83897301430629;0.0213;0.2904;-0.0109;
83897311536306;-0.0639;-0.0419;0.0827;
83897321641879;-0.0895;-0.3848;0.0157;
83897331747504;0.0032;-0.1174;0.0019;
83897341913181;-0.3684;-0.4679;-0.1324;
83897352018754;-0.2321;-0.4509;-0.2112;
83897362124379;-0.1193;0.2095;-0.2091;
83897372177244;-0.3344;0.1807;-0.2314;
83897382282869;-0.3652;-0.1100;-0.2410;
83897392388442;0.0415;-0.0451;-0.2250;
83897402483285;0.2354;0.1711;-0.2389;
83897412588910;0.2493;0.3639;-0.2037;
83897422694483;0.2194;0.2542;-0.1249;
83897432803285;0.3526;0.2084;-0.0727;
83897442908910;0.4728;0.2244;-0.0503;
83897453014483;0.3643;-0.2059;-0.0130;
83897463121931;0.2567;-0.3007;-0.0226;
83897473227504;-0.0085;-0.0260;-0.0216;
83897483333129;-0.1630;-0.0866;-0.0770;
83897493460890;0.0075;-0.0834;-0.0631;
83897503566515;0.0618;0.0241;-0.0716;
83897513672088;-0.0575;-0.1515;-0.1302;
83897523765265;0.0064;-0.0631;-0.0855;
83897533870890;0.0085;0.0955;-0.0429;
83897543976463;-0.0149;-0.0419;-0.0823;
83897554073285;0.0320;-0.0471;-0.1089;
83897564178858;0.0650;0.2212;-0.0855;
83897574284483;0.0511;0.2148;-0.0642;
83897584391931;0.1055;-0.1473;-0.0013;
83897594497504;0.2088;-0.1760;0.0029;
83897604603129;0.0810;-0.0695;0.0413;
83897614709952;-0.0288;-0.0228;0.0338;
83897624815525;0.0075;0.0688;-0.0407;
83897634921150;0.0181;0.0284;0.0019;
83897645027244;0.0192;-0.1079;0.0221;
83897655132817;0.0117;-0.1409;-0.0205;
83897665238442;-0.0533;-0.2623;-0.0141;
83897675342608;-0.1438;-0.1079;-0.0290;
83897685448181;-0.3109;0.2659;-0.1004;
83897695553806;-0.4686;0.2201;-0.1601;
83897705657608;-0.1800;0.2105;-0.1047;
83897715763181;0.1704;0.1541;-0.0791;
83897725868806;0.1854;-0.1217;-0.0951;
83897735993806;0.2887;-0.0142;-0.1153;
83897746099379;0.1321;0.0624;-0.0226;
83897756205004;-0.0373;-0.0025;-0.0205;
83897766289744;0.0128;0.0369;-0.0354;
83897776395317;0.0298;0.1892;-0.0354;
83897786500942;0.0543;0.2819;0.0413;
83897796604171;-0.0362;-0.1270;0.0487;
83897806709952;-0.0170;-0.4562;0.0178;
83897816815733;-0.0245;-0.1899;-0.0045;
83897826935369;-0.1161;-0.0398;-0.0439;
83897837041098;-0.1374;0.0305;-0.1036;
83897847146879;-0.0884;0.1008;-0.0610;
83897857226879;-0.0660;0.0731;-0.0493;
83897867332608;0.0021;0.0571;-0.0514;
83897877438338;-0.0085;0.0379;-0.0514;
83897887611358;0.0224;0.1083;-0.0258;
83897897717140;0.0192;0.1104;0.0115;
83897907822869;-0.0043;0.0092;0.0413;
83897917875733;-0.0170;0.0156;0.0498;
83897927981463;0.0032;0.1061;0.0423;
83897938087244;-0.0810;0.0198;0.0136;
83897948215004;-0.0778;-0.2091;0.0402;
83897958320733;-0.0831;-0.2506;0.0573;
83897968426515;-0.0863;-0.0631;-0.0141;
83897978507713;-0.1971;-0.0940;-0.0546;
83897988613494;-0.0863;-0.2474;0.0434;
83897998719223;0.0224;-0.0631;0.0413;
83898008830942;-0.0660;0.1626;-0.0354;
83898018936723;-0.1204;0.2595;0.0029;
83898029042504;-0.0479;0.0198;0.0477;
83898039173858;0.0799;-0.2644;0.0477;
83898049279588;0.2237;-0.0652;0.0232;
83898059385369;0.0948;0.1967;-0.0035;
83898069505577;0.0043;0.2265;0.0987;
83898079611306;0.0128;-0.0089;0.0636;
83898089717088;0.0202;-0.3220;0.0242;
83898099781983;0.0373;0.2169;-0.0503;
83898109887765;-0.0138;0.6940;0.0690;
83898119993494;-0.2864;-0.0557;0.0541;
83898130107556;-0.0905;-0.5158;0.0157;
83898140213285;0.2557;-0.0302;0.0328;
83898150319067;-0.0895;0.2350;-0.0077;
83898160423077;-0.2555;0.0827;-0.0120;
83898170528806;-0.1992;-0.1132;-0.0024;
83898180634535;-0.0618;-0.0940;-0.0738;
83898190740681;-0.0682;0.0401;-0.0301;
83898200846410;-0.0724;0.1370;-0.0099;
83898210952140;-0.0202;0.1349;0.0146;
83898221066098;-0.0735;-0.1739;-0.0674;
83898231171827;0.0075;-0.2048;-0.0546;
83898241277608;-0.0064;0.0401;-0.0599;
83898251383702;0.0043;-0.1398;-0.0301;
83898261489431;-0.0746;-0.2900;-0.1206;
83898271595213;-0.0575;0.1157;-0.1206;
83898281700108;-0.0309;0.2851;-0.0578;
83898291805838;-0.0650;-0.0121;-0.1132;
83898301911619;0.0447;0.0252;-0.1643;
83898312005473;0.1971;0.2819;-0.1324;
83898322111202;0.1321;0.0624;-0.0493;
83898332216983;0.1907;-0.1632;-0.0152;
83898342320108;0.2684;0.0262;-0.0237;
83898352425890;0.0895;0.0997;0.0317;
83898362531671;0.0160;-0.0356;0.0413;
83898372640265;0.1278;0.2808;0.0774;
83898382745994;0.0437;0.1370;0.0626;
83898392851775;-0.0437;-0.4221;0.0274;
83898402952608;0.0575;-0.1281;0.0636;
83898413058390;-0.1055;0.1232;0.0061;
83898423164119;-0.2406;-0.1515;-0.0226;
83898433277869;-0.0650;-0.1238;-0.0322;
83898443383598;0.0565;0.1466;-0.0652;
83898453489379;0.0256;0.1562;-0.0333;
83898463609431;-0.0320;-0.0409;0.0019;
83898473715160;-0.0011;-0.0929;0.0051;
83898483820942;0.0288;0.1541;0.0221;
83898493909327;-0.0501;0.0230;0.0157;
83898504015056;-0.0447;-0.1941;-0.0109;
83898514120785;-0.0128;0.0390;-0.0130;
83898524225421;-0.0682;0.0624;0.0029;
83898534331202;-0.0863;-0.1079;-0.0482;
83898544436983;-0.0394;0.0422;-0.0482;
83898554546619;-0.0383;0.1157;-0.0237;
83898564652348;-0.0160;0.0113;-0.0173;
83898574758129;-0.0053;0.0401;-0.0194;
83898584864848;-0.0202;0.0965;-0.0344;
83898594970577;-0.0202;0.0774;-0.0439;
83898605076358;-0.0256;0.0316;-0.0535;
83898615177192;-0.0192;0.0316;-0.0557;
83898625282921;-0.0011;0.0284;-0.0312;
83898635388702;-0.0288;-0.0249;-0.0322;
83898645497140;-0.0266;-0.0919;-0.0375;
83898655602869;0.0043;-0.0738;-0.0365;
83898665708598;0.0053;-0.1451;-0.0546;
83898675813285;0.0362;-0.1579;-0.0589;
83898685919015;-0.0107;0.0028;-0.0748;
83898696024744;-0.0266;-0.0525;-0.0631;
83898706128077;-0.0160;-0.0770;-0.0301;
83898716233858;-0.0511;-0.0398;-0.0642;
83898726339588;-0.0128;-0.0153;-0.0589;
83898736446098;-0.0138;0.0571;-0.0770;
83898746551827;0.0021;0.1136;-0.0727;
83898756657556;0.0394;0.0859;-0.0503;
83898766764015;0.0352;0.0134;-0.0344;
83898776869744;0.0341;-0.0121;-0.0205;
83898786975525;0.0234;0.0486;-0.0301;
83898797143598;-0.0117;0.1008;-0.0120;
83898807249952;-0.0075;0.0795;-0.0099;
83898817356254;-0.0234;0.0134;-0.0194;
83898827388129;-0.0256;-0.0578;-0.0152;
83898837494483;-0.0245;-0.0461;-0.0045;
83898847600785;-0.0352;-0.0908;-0.0013;
83898857770525;-0.0426;-0.1814;-0.0237;
83898867876879;-0.0575;-0.1324;-0.0333;
83898877983181;-0.0053;-0.0324;-0.0354;
83898888044535;0.0085;-0.0770;-0.0439;
83898898150890;-0.0234;-0.1196;-0.0503;
83898908257192;-0.0298;-0.0631;-0.0120;
83898918342921;-0.0256;-0.0121;-0.0120;
83898928449275;-0.0202;0.0763;-0.0631;
83898938555577;-0.0245;0.1264;-0.0844;
83898948657973;-0.0021;0.1210;-0.0567;
83898958764327;-0.0064;0.0955;-0.0269;
83898968870629;0.0107;0.0731;-0.0184;
83898978982921;0.0352;0.1274;0.0093;
83898989089275;0.0266;0.0880;-0.0130;
83898999195577;0.0011;0.0220;-0.0248;
83899009289223;0.0043;0.0976;0.0008;
83899019395577;-0.0320;0.0539;0.0083;
83899029501879;-0.0298;-0.0345;-0.0035;
83899039619796;-0.0415;-0.0302;-0.0024;
83899049726150;-0.0756;-0.1803;-0.0503;
83899059832452;-0.0426;-0.1281;-0.0599;
83899069927608;-0.0245;0.0422;-0.0620;
83899080033963;-0.0138;-0.0535;-0.0631;
83899090140265;0.0501;-0.0940;-0.0578;
83899100254067;0.0000;-0.0441;-0.0855;
83899110360421;0.0075;0.0465;-0.1153;
83899120466723;0.0000;0.0774;-0.0929;
83899130566410;0.0437;0.0241;-0.0866;
83899140672765;0.1332;0.0497;-0.0887;
83899150779067;0.1310;0.0624;-0.0727;
83899160889900;0.0927;-0.0292;-0.0684;
83899170996254;0.0842;-0.0451;-0.0674;
83899181102556;0.0362;-0.0557;-0.0471;
83899191211723;0.0565;-0.0716;-0.0631;
83899201318077;0.0767;-0.0121;-0.0620;
83899211424379;0.0256;0.0379;-0.1025;
83899221529067;0.0394;0.0316;-0.0940;
83899231635421;0.0383;-0.0185;-0.1068;
83899241741723;0.0469;-0.1079;-0.1387;
83899251842400;0.0352;-0.0738;-0.1569;
83899261948754;0.0373;-0.0164;-0.1494;
83899272055056;0.0575;-0.0089;-0.1590;
83899282155473;0.0916;0.0017;-0.1398;
83899292261827;0.1140;0.0007;-0.1569;
83899302368129;0.1502;0.0390;-0.1547;
83899312478546;0.1353;0.0145;-0.1601;
83899322584900;0.1736;-0.0812;-0.1792;
83899332691202;0.2045;-0.0111;-0.1877;
83899342779275;0.1459;-0.0366;-0.1622;
83899352885629;0.1268;-0.0471;-0.1462;
83899362991931;0.1470;0.0284;-0.1537;
83899373107817;0.1385;0.0561;-0.1632;
83899383214171;0.1715;0.0358;-0.1505;
83899393320473;0.2173;-0.0260;-0.0919;
83899403422400;0.2471;0.0039;-0.0780;
83899413528754;0.2759;0.1093;-0.0993;
83899423635056;0.2599;0.0901;-0.0908;
83899433741358;0.2535;-0.0057;-0.0290;
83899443847713;0.3142;0.0081;0.0370;
83899453954015;0.2280;-0.0748;0.0253;
83899464041983;0.2035;0.0326;0.0413;
83899474148338;0.1534;0.0582;0.0605;
83899484254640;0.1459;-0.0281;0.0743;
83899494384692;0.1672;-0.0292;0.1051;
83899504491046;0.1715;0.0028;0.1370;
83899514597348;0.1875;-0.0004;0.1700;
83899524702608;0.1300;-0.0249;0.1690;
83899534808963;0.1278;0.0134;0.1892;
83899544915265;0.0831;0.0348;0.1924;
83899555017817;0.0724;-0.0599;0.1881;
83899565124171;0.0746;-0.0993;0.2148;
83899575230473;0.0905;-0.0599;0.2425;
83899585330838;0.0320;-0.0631;0.2489;
83899595437192;0.0128;-0.0089;0.2499;
83899605543494;0.0288;0.0720;0.2531;
83899615654379;0.0575;0.1072;0.2393;
83899625760733;0.0288;0.0220;0.2350;
83899635867035;-0.0053;-0.0174;0.2308;
83899645976775;-0.0053;0.0827;0.2393;
83899656083129;-0.0181;0.0326;0.2105;
83899666189431;-0.0032;0.0049;0.1850;
83899676291358;0.0117;0.1221;0.1999;
83899686397713;0.0053;0.1562;0.2169;
83899696504015;0.0021;0.1178;0.2403;
83899706597921;-0.0085;0.0369;0.2606;
83899716704275;-0.0415;-0.1164;0.2254;
83899726810577;-0.0320;-0.1185;0.1679;
83899736920733;-0.0671;-0.0674;0.1338;
83899747027088;-0.1257;-0.1174;0.1317;
83899757133390;-0.1427;-0.1164;0.0987;
83899767230213;-0.1768;-0.1430;0.0498;
83899777336567;-0.1534;-0.0589;0.0360;
83899787442869;-0.1374;0.0859;0.0328;
83899797544223;-0.1140;0.0262;0.0360;
83899807649588;-0.0128;-0.0334;0.0605;
83899817754900;0.0277;-0.0482;0.0626;
83899827861515;0.0266;-0.0503;0.0763;
83899837966827;-0.0043;-0.0036;0.0381;
83899848072140;-0.0341;0.0401;0.0445;
83899858201671;-0.0447;0.0390;0.0551;
83899868306931;-0.0469;-0.0025;0.0402;
83899878412296;-0.0554;-0.0557;-0.0024;
83899888496515;-0.0309;0.0049;0.0072;
83899898601827;-0.0447;0.0230;0.0040;
83899908707140;-0.0245;-0.0334;0.0146;
83899918809431;0.0064;0.0379;0.0498;
83899928914744;0.0309;0.1200;0.0509;
83899939020056;0.0075;0.0646;0.0189;
83899949160473;0.0000;0.0103;0.0338;
83899959265785;0.0021;-0.0068;0.0658;
83899969371098;-0.0256;-0.0642;0.0509;
83899979455942;-0.0671;-0.0812;0.0466;
83899989561254;-0.0437;-0.0164;0.0530;
83899999666567;-0.0245;0.0465;0.0487;
83900009775056;-0.0373;0.0561;0.0434;
83900019880369;-0.0107;0.0273;0.0754;
83900029985681;0.0138;0.0316;0.1178;
83900040095108;0.0021;0.0316;0.1189;
83900050200421;-0.0181;-0.0196;0.1051;
83900060305733;-0.0373;0.0198;0.1146;
83900070419275;-0.0543;0.0603;0.1328;
83900080524588;-0.0820;-0.0302;0.1061;
83900090629900;-0.1001;-0.0493;0.1168;
83900100728702;-0.0884;0.0028;0.1349;
83900110833963;-0.1459;-0.0324;0.1242;
83900120939327;-0.1758;-0.0302;0.1349;
83900131036410;-0.1928;-0.0142;0.1200;
83900141141723;-0.1832;-0.0036;0.1019;
83900151246983;-0.1683;0.0209;0.0754;
83900161361931;-0.1609;0.0103;0.0763;
83900171467244;-0.1662;-0.0270;0.0806;
83900181572556;-0.1843;-0.0652;0.0530;
83900191666515;-0.2067;-0.0972;0.0455;
83900201771827;-0.2161;-0.0770;0.0413;
83900211877140;-0.2161;-0.0471;0.0104;
83900222020056;-0.2045;-0.0313;-0.0056;
83900232125369;-0.1992;-0.0260;-0.0056;
83900242230681;-0.1545;0.0071;-0.0077;
83900252317765;-0.1065;0.0028;-0.0716;
83900262423077;-0.1065;-0.0334;-0.0759;
83900272528390;-0.1161;0.0103;-0.0631;
83900282634119;-0.1076;-0.0111;-0.0663;
83900292739431;-0.1406;-0.1153;-0.0748;
83900302844744;-0.0756;0.0550;-0.0866;
83900312934535;-0.0170;0.3373;-0.1079;
83900323039848;-0.0565;0.1807;-0.1079;
83900333145160;-0.1118;-0.2336;-0.0748;
83900343254171;-0.0234;-0.2581;-0.0567;
83900353359431;0.0107;-0.0068;-0.1047;
83900363464796;-0.0565;0.0923;-0.1558;
83900373582035;-0.0394;0.0987;-0.1483;
83900383687348;0.0458;0.0571;-0.1281;
83900393792660;0.0213;-0.0684;-0.1494;
83900403895785;0.0873;-0.0174;-0.1398;
83900414001098;0.1321;0.0656;-0.1292;
83900424106410;0.0170;-0.1707;-0.1537;
83900434210369;0.0128;-0.2602;-0.1334;
83900444315681;0.1470;0.0944;-0.1068;
83900454420994;0.1949;0.2734;-0.1366;
83900464553598;0.1385;0.0241;-0.1334;
83900474658858;0.0884;-0.1228;-0.0855;
83900484764171;0.1363;0.0113;-0.0727;
83900494851515;0.1033;-0.0313;-0.0908;
83900504956827;0.0277;-0.1803;-0.0844;
83900515062140;0.0959;-0.0196;-0.0567;
83900525185056;0.1310;0.1115;-0.0610;
83900535290369;0.0980;0.0443;-0.0631;
83900545395681;0.0746;0.0007;-0.0120;
83900555489848;0.0778;-0.0047;0.0072;
83900565595160;0.0810;-0.0366;-0.0322;
83900575700473;0.0639;-0.0451;-0.0205;
83900585799223;0.0277;-0.0281;0.0083;
83900595904535;0.0330;-0.0471;0.0008;
83900606009848;0.0341;-0.0174;-0.0045;
83900616126306;0.0756;0.0869;-0.0109;
83900626231619;0.0447;0.0348;-0.0162;
83900636336931;0.0415;-0.0823;0.0083;
83900646429535;0.0522;-0.0855;0.0541;
83900656534848;0.0767;-0.0270;0.0605;
83900666640160;0.1033;0.0337;0.0338;
83900676758442;0.0916;0.0337;0.0423;
83900686863702;0.0447;-0.0185;0.0455;
83900696969015;0.1246;0.1104;0.0605;
83900707093233;0.0703;0.0923;0.0668;
83900717198546;0.0053;-0.0695;0.0690;
83900727303858;0.0245;-0.0972;0.0763;
83900737382713;0.0383;-0.0409;0.0754;
83900747488025;0.0383;0.0220;0.0955;
83900757593338;0.0437;0.0188;0.1210;
83900767733442;-0.0053;-0.0748;0.1242;
83900777838806;-0.0128;-0.0631;0.0784;
83900787944119;0.0256;-0.0100;0.0562;
83900798004535;-0.0138;-0.0217;0.0722;
83900808110108;-0.0405;-0.0196;0.0530;
83900818215681;-0.0479;-0.0398;0.0605;
83900828362035;-0.0895;-0.0461;0.0679;
83900838467608;-0.0650;0.0145;0.0285;
83900848573181;-0.0362;0.0401;0.0221;
83900858660265;-0.0820;0.0241;0.0519;
83900868765838;-0.0373;0.0273;0.0774;
83900878871410;-0.0032;0.0465;0.0498;
83900888974640;0.0288;0.1146;0.0115;
83900899080213;-0.0234;0.0731;0.0296;
83900909185785;-0.0234;-0.0281;0.0328;
83900919316931;-0.0170;-0.0356;0.0455;
83900929422504;-0.0554;-0.0812;0.0317;
83900939528077;-0.0607;-0.2453;0.0391;
83900949611775;-0.0735;-0.2122;0.0083;
83900959717348;-0.0341;-0.0461;0.0029;
83900969822921;-0.0298;0.0188;0.0264;
83900979933181;-0.0245;0.0358;0.0221;
83900990038754;-0.0522;0.0486;-0.0322;
83901000144327;-0.0160;0.0358;-0.0397;
83901010240577;-0.0373;-0.0111;-0.0493;
83901020346150;-0.0043;0.0230;-0.0226;
83901030451723;-0.0362;0.0305;-0.0109;
83901040564535;-0.0383;-0.0727;-0.0194;
83901050670108;-0.0309;-0.0887;-0.0173;
83901060775681;0.0213;0.0880;-0.0226;
83901070886775;0.0170;0.1530;0.0072;
83901080992348;-0.0096;-0.0079;0.0455;
83901091097921;-0.0181;-0.0546;0.0221;
83901101197348;0.0181;-0.0004;-0.0471;
83901111302921;-0.0202;0.0039;-0.0312;
83901121408494;-0.0298;-0.0228;-0.0205;
83901131513077;-0.0224;-0.0493;-0.0290;
83901141618650;-0.0160;-0.0121;-0.0237;
83901151724223;-0.0277;0.0252;-0.0045;
83901161825942;-0.0075;0.0699;-0.0269;
83901171931515;-0.0021;0.0944;-0.0216;
83901182037088;0.0021;0.0561;0.0029;
83901192149952;0.0032;-0.0185;0.0328;
83901202255525;-0.0021;-0.0356;0.0168;
83901212361098;0.0266;0.0092;-0.0258;
83901222488702;0.0181;-0.0015;-0.0514;
83901232594275;0.0277;-0.0313;-0.0344;
83901242699848;-0.0075;0.0049;-0.0290;
83901252785369;0.0298;0.0859;-0.0333;
83901262890942;-0.0064;0.0241;-0.0130;
83901272996515;-0.0160;-0.0503;-0.0184;
83901283101619;0.0298;0.0209;-0.0088;
83901293207192;0.0202;0.0486;0.0136;
83901303312765;0.0650;0.0390;0.0200;
83901313412192;0.0320;0.0230;0.0040;
83901323517765;0.0320;0.0113;-0.0109;
83901333623338;0.0170;-0.0419;-0.0088;
83901343753285;0.0224;-0.1079;-0.0130;
83901353858858;0.0053;-0.0503;-0.0152;
83901363964431;0.0011;0.0316;-0.0141;
83901374052973;-0.0032;-0.0142;-0.0205;
83901384158546;-0.0160;-0.0441;-0.0269;
83901394264119;0.0149;0.0475;0.0136;
83901404364640;0.0138;0.0518;0.0306;
83901414470213;0.0320;-0.0132;0.0178;
83901424575785;0.0128;-0.0174;-0.0024;
83901434684535;0.0352;-0.0079;-0.0130;
83901444790108;0.0373;0.0198;0.0200;
83901454895681;0.0383;0.0294;0.0200;
83901465007869;0.0426;0.0379;-0.0184;
83901475113442;0.0277;0.0305;0.0232;
83901485219015;-0.0107;0.0007;0.0551;
83901495319535;-0.0011;-0.0398;0.0445;
83901505425108;0.0096;0.0113;0.0349;
83901515530681;0.0107;0.0379;0.0434;
83901525644640;0.0202;0.0348;0.0594;
83901535750213;0.0096;0.0422;0.0690;
83901545855785;0.0138;0.0582;0.0306;
83901555954015;0.0096;0.1157;0.0455;
83901566059588;0.0096;0.0987;0.0615;
83901576165160;0.0064;-0.0079;0.0605;
83901586270056;-0.0170;-0.0377;0.0477;
83901596375629;-0.0383;-0.0015;0.0455;
83901606481202;-0.0415;0.0081;0.0583;
83901616592452;-0.0714;-0.0546;0.0615;
83901626698025;-0.0724;-0.0897;0.0605;
83901636803598;-0.0937;-0.0324;0.0806;
83901646900681;-0.1182;-0.0345;0.0636;
83901657006254;-0.1204;-0.0451;0.0061;
83901667111827;-0.0937;-0.0047;-0.0216;
83901677227035;-0.1001;0.0177;-0.0045;
83901687332608;-0.1172;0.0411;-0.0024;
83901697438233;-0.1321;-0.0503;-0.0525;
83901707553806;-0.0788;-0.0260;-0.0503;
83901717659379;-0.0948;0.0816;-0.0280;
83901727764952;-0.1044;0.0326;-0.0375;
83901737852348;-0.0660;-0.0292;-0.0344;
83901747957921;-0.0650;0.0049;-0.0354;
83901758063494;-0.0469;0.0337;-0.0226;
83901768192921;-0.0256;0.0177;-0.0407;
83901778298494;-0.0256;-0.0089;-0.0439;
83901788404067;-0.0341;0.0039;-0.0493;
83901798507452;-0.0266;0.0124;-0.0610;
83901808613442;-0.0266;-0.0036;-0.0759;
83901818719431;-0.0128;-0.0132;-0.0802;
83901828812296;-0.0469;-0.0079;-0.0546;
83901838918285;-0.0202;0.0166;-0.0599;
83901849024275;-0.0447;0.0092;-0.0642;
83901859132088;-0.0501;0.0252;-0.0439;
83901869238077;-0.0352;0.0273;-0.0194;
83901879344067;-0.0064;0.0550;-0.0077;
83901889441463;0.0011;0.0869;-0.0375;
83901899547452;0.0128;0.1434;-0.0738;
83901909653442;-0.0202;0.1626;-0.0770;
83901919786879;-0.0128;0.0486;-0.0642;
83901929892869;-0.0288;-0.0153;-0.0493;
83901939998858;-0.0522;0.0071;-0.0482;
83901950069275;-0.0522;-0.0461;-0.0652;
83901960175265;-0.0575;-0.1196;-0.0695;
83901970281254;-0.0522;-0.0706;-0.0908;
83901980396150;-0.0469;-0.1111;-0.0535;
83901990502140;-0.0607;-0.0727;-0.0344;
83902000608129;-0.0085;0.1210;-0.0684;
83902010710213;-0.0437;0.0571;-0.1068;
83902020816202;-0.0373;-0.0706;-0.1387;
83902030922192;-0.0405;-0.0142;-0.1387;
83902041026931;-0.0458;0.0262;-0.1771;
83902051132921;-0.0043;0.0028;-0.1888;
83902061238910;0.0138;0.0156;-0.1909;
83902071356254;0.0330;0.0593;-0.1760;
83902081462244;0.0394;-0.0270;-0.1760;
83902091568233;0.1023;-0.0196;-0.1867;
83902101657504;0.1832;0.0944;-0.1558;
83902111763494;0.1385;0.0284;-0.1153;
83902121869483;0.1651;-0.0535;-0.1174;
83902131995213;0.2109;-0.0993;-0.1345;
83902142101202;0.1704;-0.1782;-0.1601;
83902152207192;0.2162;0.0060;-0.1387;
83902162297973;0.1587;0.0326;-0.1079;
83902172403963;0.1278;-0.1217;-0.1419;
83902182509952;0.2056;-0.0652;-0.1601;
83902192618390;0.1832;0.0071;-0.1654;
83902202724379;0.1577;-0.0100;-0.1238;
83902212830369;0.1555;-0.0366;-0.1196;
83902222945369;0.2013;0.0060;-0.1047;
83902233051358;0.2152;0.0710;-0.0706;
83902243157348;0.1545;-0.0217;-0.0695;
83902253256463;0.1758;-0.0663;-0.0738;
83902263362452;0.2099;0.0795;-0.0812;
83902273468442;0.1406;0.0624;-0.0716;
83902283565421;0.1225;-0.0546;-0.0493;
83902293671410;0.1672;0.0177;-0.0535;
83902303777400;0.1300;0.0348;-0.0514;
83902313887504;0.1044;-0.0270;-0.0482;
83902323993494;0.1140;0.0241;-0.0290;
83902334099483;0.0991;0.0103;-0.0216;
83902344197608;0.0873;-0.0503;-0.0120;
83902354303598;0.0927;0.0060;0.0168;
83902364409588;0.0767;-0.0174;0.0381;
83902374525629;0.0714;-0.0791;0.0168;
83902384631619;0.0810;-0.0217;-0.0280;
83902394737608;0.0671;0.0337;-0.0312;
83902404836879;0.0671;-0.0228;-0.0312;
83902414942869;0.0692;-0.0780;-0.0418;
83902425048858;0.0746;-0.0174;-0.0738;
83902435150473;0.0533;0.0955;-0.0418;
83902445256463;0.0788;-0.0164;-0.0599;
83902455362452;0.0873;-0.1462;-0.0695;
83902465469171;0.0554;-0.0387;-0.0599;
83902475575160;0.0842;0.0976;-0.0429;
83902485681150;0.1182;0.0571;-0.0386;
83902495786879;0.1257;-0.0132;-0.0386;
83902505892869;0.1321;0.0145;-0.0397;
83902515998858;0.0895;0.1061;-0.0642;
83902526117192;0.1182;0.1360;-0.0695;
83902536223181;0.1310;0.1061;-0.0663;
83902546329171;0.1491;0.0688;-0.0823;
83902556423025;0.1268;0.0369;-0.0770;
83902566529015;0.1097;0.0198;-0.0706;
83902576635004;0.1001;-0.1089;-0.1047;
83902586744067;0.0937;-0.0716;-0.1302;
83902596850056;0.1342;0.1573;-0.1025;
83902606956046;0.1087;0.0230;-0.0855;
83902617072608;0.1214;-0.1228;-0.0929;
83902627178598;0.1108;-0.0217;-0.0897;
83902637284588;0.0991;0.0507;-0.1302;
83902647385317;0.1225;0.0284;-0.1569;
83902657491306;0.1278;-0.0068;-0.1526;
83902667597296;0.1555;0.0017;-0.1579;
83902677733025;0.1204;-0.0164;-0.1739;
83902687839015;0.1342;-0.0770;-0.1750;
83902697945004;0.1289;-0.0377;-0.1952;
83902707990317;0.1577;0.0390;-0.1899;
83902718096306;0.1385;-0.0345;-0.1803;
83902728202296;0.1736;-0.0471;-0.1590;
83902738354588;0.2035;-0.0015;-0.1238;
83902748460577;0.2013;-0.0514;-0.1185;
83902758566567;0.2301;-0.0897;-0.1409;
83902768647817;0.2791;-0.0196;-0.1750;
83902778753806;0.2983;0.0113;-0.1643;
83902788859796;0.3142;-0.0100;-0.1505;
83902798981983;0.4025;0.0124;-0.1281;
83902809087817;0.4473;0.0379;-0.1206;
83902819193650;0.4398;0.0529;-0.1025;
83902829283233;0.4739;0.1051;-0.0844;
83902839389067;0.4782;0.1008;-0.0567;
83902849494900;0.4686;0.0273;-0.0365;
83902859592713;0.4654;-0.0004;-0.0109;
83902869698546;0.4867;0.0337;0.0189;
83902879804379;0.4803;0.0720;0.0519;
83902889913650;0.4121;0.0401;0.0784;
83902900019483;0.3590;0.0326;0.0615;
83902910125317;0.3302;0.1136;0.0690;
83902920226723;0.3015;0.1264;0.0530;
83902930332556;0.2844;0.0955;0.0445;
83902940438390;0.2706;0.1029;0.0594;
83902950549588;0.2897;0.0465;0.0806;
83902960655473;0.3047;-0.0068;0.0923;
83902970761254;0.2748;0.0198;0.0891;
83902980872296;0.2791;0.0358;0.1232;
83902990978129;0.2418;0.0156;0.1455;
83903001083963;0.2695;0.0603;0.1626;
83903011191150;0.2631;0.0731;0.1871;
83903021296983;0.2482;0.0166;0.1455;
83903031402817;0.2642;0.0039;0.1242;
83903041505733;0.2557;0.0294;0.1200;
83903051611567;0.2024;0.1072;0.0838;
83903061717452;0.1736;0.1051;0.1253;
83903071821150;0.1523;-0.0206;0.1200;
83903081926983;0.2173;0.0134;0.1168;
83903092032817;0.2216;0.0976;0.1104;
83903102112713;0.1779;0.0976;0.0891;
83903112218546;0.2152;0.2041;0.1360;
83903122324379;0.1726;0.2265;0.1445;
83903132466671;0.1310;0.0454;0.1349;
83903142572504;0.1555;-0.0610;0.1210;
83903152678338;0.1395;-0.0142;0.1125;
83903162770942;0.0703;0.0305;0.1040;
83903172876775;0.0511;0.0198;0.0668;
83903182982608;0.0554;-0.0004;0.0541;
83903193078806;0.0011;-0.0430;0.0360;
83903203184640;-0.0117;-0.0100;0.0125;
83903213290473;0.0117;0.0316;0.0168;
83903223430942;0.0277;0.0518;-0.0035;
83903233536775;0.0192;0.0220;-0.0184;
83903243642608;0.0160;-0.0196;0.0008;
83903253735004;-0.0224;-0.1590;-0.0099;
83903263840890;0.0170;-0.1792;-0.0290;
83903273946671;0.1395;0.1168;-0.0450;
83903284055838;0.1300;0.1636;-0.0578;
83903294161671;0.0916;0.0252;-0.0482;
83903304267504;0.1395;0.0720;-0.0280;
83903314371775;0.1449;0.1178;0.0008;
83903324477608;0.1204;0.0433;0.0125;
83903334583442;0.1161;-0.0121;0.0040;
83903344686046;0.1214;-0.0313;0.0051;
83903354791879;0.1001;-0.0525;0.0221;
83903364897713;0.0916;-0.0589;0.0381;
83903374997921;0.0756;-0.0206;0.0455;
83903385103754;0.0948;-0.0036;0.0806;
83903395209588;0.0607;-0.0366;0.0391;
83903405314692;0.1033;0.0209;0.0285;
83903415420525;0.0959;0.0784;0.0647;
83903425526358;0.0820;-0.0132;0.0700;
83903435632817;0.0895;-0.0004;0.0349;
83903445738650;0.1087;0.0720;0.0605;
83903455844483;0.0831;0.0007;0.0498;
83903465947921;0.0969;-0.0249;0.0774;
83903476053754;0.0948;0.0518;0.0827;
83903486159588;0.0842;-0.0217;0.1168;
83903496263546;0.0884;-0.1547;0.1860;
83903506369379;0.1087;-0.0951;0.2137;
83903516475213;0.0586;0.0305;0.1551;
83903526602192;0.0309;0.0571;0.0987;
83903536708025;0.0501;0.0166;0.1210;
83903546813858;0.0991;-0.0025;0.1210;
83903556897296;0.0980;0.0401;0.1360;
83903567003181;0.0895;0.0806;0.1328;
83903577108963;0.0628;0.0933;0.1136;
83903587221671;0.0831;0.0390;0.1647;
83903597327556;0.0618;0.0124;0.1658;
83903607433338;0.0607;0.0166;0.1764;
83903617542296;0.0256;-0.0398;0.1956;
83903627648129;0.0628;0.0752;0.1924;
83903637753963;0.0575;0.1935;0.1988;
83903647840525;-0.0873;-0.0972;0.1690;
83903657946358;-0.1438;-0.2005;0.1317;
83903668052192;0.0000;0.0901;0.1210;
83903678192296;0.0149;0.0912;0.0816;
83903688298129;-0.1236;-0.0972;0.0647;
83903698403963;-0.1459;-0.0876;0.0274;
83903708485213;-0.0032;0.0507;0.0722;
83903718591046;-0.0021;0.0582;0.0541;
83903728696879;-0.0298;0.0017;0.0434;
83903738811983;0.0277;-0.0356;0.0933;
83903748917817;0.0607;0.0305;0.1072;
83903759023650;-0.0085;-0.0249;0.0615;
83903769118442;-0.0277;-0.0249;-0.0525;
83903779224275;0.0149;0.1381;-0.0354;
83903789330108;0.0213;0.0624;-0.0067;
83903799427765;0.0479;-0.0610;-0.0344;
83903809533338;0.0330;0.0348;-0.0375;
83903819638910;0.0352;0.0092;-0.0429;
83903829757973;0.0660;0.0071;-0.0706;
83903839863546;0.0788;0.0965;-0.0429;
83903849969119;0.0309;0.0081;-0.0503;
83903860076098;0.0671;-0.0409;-0.0493;
83903870181671;0.0458;-0.0461;-0.0141;
83903880287244;0.0192;-0.0887;-0.0226;
83903890397192;0.0032;-0.1164;-0.0439;
83903900502765;0.0192;-0.0780;-0.0599;
83903910608338;0.0501;-0.0929;-0.0663;
83903920707973;0.0373;-0.0823;-0.0695;
83903930813546;0.0607;-0.0089;-0.0674;
83903940919119;0.0405;-0.0377;-0.0919;
83903951023702;0.0554;-0.1387;-0.0780;
83903961129275;0.1033;-0.0855;-0.0567;
83903971234848;0.0703;0.1402;-0.0716;
83903981342035;0.0607;0.2425;-0.0620;
83903991447608;0.0778;0.0955;-0.0684;
83904001553181;0.0810;-0.0620;-0.0706;
83904011658858;0.1363;0.0039;-0.1004;
83904021764431;0.1811;0.1210;-0.0823;
83904031870004;0.1300;0.1157;-0.1057;
83904041985681;0.1651;0.0933;-0.1217;
83904052091254;0.1406;0.0965;-0.1249;
83904062196827;0.1246;0.0316;-0.0929;
83904072294015;0.1385;-0.0366;-0.0812;
83904082399588;0.2024;0.0635;-0.0525;
83904092505160;0.2312;0.1232;0.0072;
83904102632765;0.1800;-0.1238;0.0040;
83904112738338;0.1715;-0.2655;-0.0258;
83904122843910;0.1502;-0.1313;-0.0802;
83904132934952;0.1332;-0.0514;-0.0961;
83904143040525;0.2173;-0.0217;-0.0503;
83904153146098;0.2983;-0.0642;-0.0876;
83904163245265;0.3845;0.0039;-0.0834;
83904173350838;0.3270;0.0571;-0.0482;
83904183456410;0.3579;-0.0015;-0.0663;
83904193572608;0.4909;0.0529;-0.0194;
83904203678181;0.4728;0.0316;-0.0035;
83904213783754;0.4675;-0.0514;0.0541;
83904223904119;0.4984;-0.0281;0.1210;
83904234009692;0.4047;-0.0663;0.1349;
83904244115265;0.3473;-0.1334;0.1083;
83904254203181;0.3089;-0.1036;0.0965;
83904264308754;0.2940;-0.0111;0.0859;
83904274414327;0.3387;0.0039;0.0944;
83904284520577;0.3993;0.0497;0.1626;
83904294626150;0.3856;0.0987;0.1296;
83904304731723;0.3579;0.0529;0.0679;
83904314831931;0.4164;-0.0228;0.1093;
83904324937504;0.4451;-0.1473;0.1285;
83904335043077;0.4345;-0.1174;0.1722;
83904345150890;0.3196;0.0156;0.2350;
83904355256463;0.2844;0.0220;0.2105;
83904365362035;0.3238;0.0252;0.1700;
83904375473702;0.3132;0.0241;0.1626;
83904385579275;0.3164;0.0113;0.1796;
83904395684848;0.3324;0.0166;0.1647;
83904405787140;0.3015;0.0486;0.2148;
83904415892713;0.3142;0.0348;0.2276;
83904425998285;0.3206;-0.0313;0.2638;
83904436097660;0.3302;0.0071;0.2851;
83904446203233;0.3100;0.0699;0.3011;
83904456308806;0.3185;0.0816;0.3351;
83904466442556;0.2951;0.0188;0.3724;
83904476548129;0.2461;-0.1206;0.3948;
83904486653702;0.2578;0.0262;0.3873;
83904496730108;0.2620;0.1253;0.4001;
83904506835681;0.2407;0.0305;0.4300;
83904516941254;0.2365;0.0348;0.4683;
83904527076306;0.2290;0.1146;0.5056;
83904537181879;0.1374;0.0571;0.5067;
83904547287452;0.0352;-0.0068;0.5226;
83904557387452;-0.0447;0.0145;0.5120;
83904567493025;-0.0916;0.0028;0.5429;
83904577598598;-0.1470;-0.0174;0.5833;
83904587688077;-0.1619;0.0379;0.5919;
83904597793598;-0.2257;0.0635;0.5450;
83904607899223;-0.2907;0.0667;0.5003;
83904617991306;-0.3098;0.0699;0.5237;
83904628096879;-0.3791;0.0838;0.4832;
83904638202452;-0.3663;0.0976;0.4747;
83904648307140;-0.4324;0.0071;0.4736;
83904658412713;-0.3908;0.0774;0.4758;
83904668518285;-0.3482;0.3767;0.4033;
83904678636931;-0.4057;0.2467;0.3746;
83904688742504;-0.4760;-0.0493;0.3969;
83904698848077;-0.4451;-0.0228;0.4225;
83904708963077;-0.4686;0.0252;0.4161;
83904719068650;-0.5101;-0.0748;0.3522;
83904729174223;-0.4441;-0.1387;0.3202;
83904739262869;-0.4366;-0.0887;0.3256;
83904749368442;-0.4174;-0.0132;0.2638;
83904759474015;-0.3951;-0.0249;0.2190;
83904769594431;-0.3652;0.0092;0.2063;
83904779700004;-0.3322;0.0869;0.2265;
83904789805577;-0.3237;0.1264;0.1807;
83904799914379;-0.3354;-0.1057;0.1338;
83904810020213;-0.2822;-0.0684;0.1583;
83904820126098;-0.2099;0.1775;0.1679;
83904830239588;-0.2161;0.1253;0.1264;
83904840345421;-0.2077;0.1040;0.1189;
83904850451306;-0.1917;0.1477;0.1647;
83904860549067;-0.1598;0.0763;0.2297;
83904870654900;-0.1182;0.0465;0.1988;
83904880760785;-0.1012;0.0060;0.2244;
83904890868650;-0.1822;-0.0398;0.1945;
83904900974483;-0.2099;-0.0748;0.2201;
83904911080369;-0.2332;-0.0430;0.1828;
83904921191046;-0.2875;-0.0525;0.1743;
83904931296879;-0.2917;-0.0260;0.1647;
83904941402765;-0.3461;-0.0132;0.1423;
83904951496358;-0.3876;-0.0111;0.0880;
83904961602244;-0.3695;0.0433;0.0477;
83904971708077;-0.4196;0.0273;0.0306;
83904981826254;-0.4228;-0.0015;-0.0013;
83904991932088;-0.3130;0.1146;-0.0269;
83905002037973;-0.3514;0.1072;-0.0194;
83905012126983;-0.3045;0.0294;-0.0194;
83905022232869;-0.2513;0.0326;-0.0205;
83905032338702;-0.2268;0.0667;-0.0461;
83905042448754;-0.2003;0.0763;-0.0354;
83905052554588;-0.2120;0.0518;-0.0503;
83905062660473;-0.1928;0.0454;-0.0429;
83905072767817;-0.1672;0.0699;-0.0493;
83905082873650;-0.1438;0.1477;-0.0503;
83905092979535;-0.1545;0.1338;-0.0599;
83905103068233;-0.2003;-0.0706;-0.0354;
83905113174067;-0.1640;-0.0111;-0.0173;
83905123279952;-0.1864;0.0390;-0.0045;
83905133396463;-0.1971;-0.0919;0.0008;
83905143502296;-0.1747;-0.0302;-0.0120;
83905153608181;-0.1992;0.0156;-0.0312;
83905163720838;-0.2045;0.0049;-0.0322;
83905173826671;-0.2088;0.0230;-0.0461;
83905183932556;-0.2640;-0.0249;-0.0567;
83905194036983;-0.2470;0.0465;-0.0716;
83905204142817;-0.2715;0.0678;-0.0908;
83905214248702;-0.3098;0.0316;-0.1121;
83905224348233;-0.2427;0.1104;-0.1153;
83905234454067;-0.1609;0.3703;-0.0493;
83905244559952;-0.2045;0.2542;0.0040;
83905254679588;-0.1715;0.0933;0.0626;
83905264785421;-0.1747;0.1551;0.0901;
83905274891306;-0.1971;0.0475;0.1019;
83905284989588;-0.2204;-0.0281;0.0976;
83905295095421;-0.2470;0.0348;0.0434;
83905305201306;-0.2758;0.0422;0.0487;
83905315318129;-0.2971;0.0710;0.0391;
83905325424015;-0.2811;0.0433;0.0157;
83905335529848;-0.2726;0.0784;-0.0067;
83905345629692;-0.2726;0.1029;-0.0258;
83905355735525;-0.2608;0.0720;-0.0407;
83905365841410;-0.2099;0.0561;-0.0152;
83905375945629;-0.2024;0.0529;-0.0120;
83905386051463;-0.1875;0.0103;0.0115;
83905396157348;-0.2024;-0.0068;-0.0077;
83905406260629;-0.2024;0.0145;0.0115;
83905416366463;-0.2513;-0.0387;0.0008;
83905426472348;-0.2459;-0.0663;-0.0184;
83905436566567;-0.2342;0.0241;-0.0312;
83905446672400;-0.2417;0.0635;-0.0834;
83905456778285;-0.2438;0.0177;-0.0695;
83905466924015;-0.2513;0.0401;-0.0312;
83905477029848;-0.2694;-0.0324;-0.0194;
83905487135733;-0.2545;0.0241;-0.0525;
83905497213754;-0.2321;0.1125;-0.0130;
83905507319588;-0.2353;0.0539;0.0178;
83905517425473;-0.2130;0.0188;0.0402;
83905527534431;-0.2566;0.0230;-0.0013;
83905537640265;-0.2598;0.0198;-0.0024;
83905547746150;-0.2598;0.0166;0.0178;
83905557855317;-0.2811;0.0177;-0.0205;
83905567961150;-0.2758;0.0241;-0.0535;
83905578067035;-0.2768;-0.0025;-0.0397;
83905588193702;-0.2555;0.0422;0.0104;
83905598299535;-0.2427;0.1115;-0.0152;
83905608405421;-0.2268;0.1658;-0.0099;
83905618465525;-0.2534;0.1434;-0.0226;
83905628571358;-0.2577;0.0880;0.0061;
83905638677244;-0.2577;0.1818;-0.0013;
83905648797192;-0.2587;0.1807;0.0168;
83905658903025;-0.2566;0.1232;0.0519;
83905669008910;-0.2449;0.1509;0.0296;
83905679115525;-0.2981;0.1232;-0.0013;
83905689221358;-0.2736;0.1200;0.0232;
83905699327244;-0.2598;0.0838;0.0381;
83905709431463;-0.2481;0.0411;0.0402;
83905719537296;-0.2577;0.0720;0.0381;
83905729643181;-0.2502;0.1221;0.0029;
83905739746254;-0.2736;0.0816;0.0168;
83905749852088;-0.2747;0.0518;0.0008;
83905759957973;-0.3152;0.0071;-0.0248;
83905770071150;-0.3035;-0.0674;-0.0365;
83905780176983;-0.3162;-0.0471;-0.0248;
83905790282869;-0.3141;-0.0281;-0.0652;
83905800390838;-0.3397;-0.0132;-0.1228;
83905810496671;-0.3194;-0.0356;-0.0557;
83905820602556;-0.3301;-0.0345;-0.0887;
83905830712504;-0.2459;0.1370;-0.0738;
83905840818338;-0.2694;0.1807;-0.0674;
83905850924223;-0.2864;-0.0451;-0.0951;
83905861030108;-0.2598;-0.1419;-0.0919;
83905871135942;-0.3013;0.0593;-0.1153;
83905881241827;-0.3162;0.0433;-0.1047;
83905891340733;-0.2992;-0.0270;-0.1270;
83905901446567;-0.2715;0.1008;-0.1377;
83905911552452;-0.2726;0.1615;-0.1377;
83905921654327;-0.2662;0.0390;-0.0844;
83905931760108;-0.2491;-0.0004;-0.0929;
83905941866046;-0.2640;-0.0100;-0.1174;
83905951969379;-0.2758;-0.0567;-0.1441;
83905962075213;-0.3013;-0.0514;-0.1579;
83905972181098;-0.2747;-0.0281;-0.1558;
83905982284692;-0.2758;0.0316;-0.2037;
83905992390525;-0.2662;0.0443;-0.2059;
83906002496410;-0.2587;0.0443;-0.2037;
83906012606254;-0.2598;0.0486;-0.1877;
83906022712088;-0.2577;0.0369;-0.1909;
83906032817973;-0.2534;-0.0142;-0.2122;
83906042932192;-0.2353;-0.0079;-0.2059;
83906053038025;-0.2342;-0.0196;-0.2005;
83906063143910;-0.2172;-0.0461;-0.2016;
83906073236358;-0.2088;0.0486;-0.1569;
83906083342192;-0.2257;0.0305;-0.1654;
83906093448077;-0.2577;-0.0441;-0.2442;
83906103574535;-0.1875;0.0571;-0.1920;
83906113680369;-0.2246;0.0092;-0.1473;
83906123786254;-0.2067;-0.0525;-0.1963;
83906133894692;-0.2214;0.0369;-0.2357;
83906144000525;-0.2513;0.0933;-0.2389;
83906154106410;-0.2300;0.0965;-0.2197;
83906164196671;-0.1811;0.1626;-0.2176;
83906174302504;-0.1321;0.1839;-0.2367;
83906184408390;-0.0788;0.1093;-0.2016;
83906194515942;-0.0352;0.0156;-0.1558;
83906204621775;-0.0703;0.0092;-0.2623;
83906214727660;-0.0863;0.0656;-0.2474;
83906224847713;-0.1214;0.0241;-0.2144;
83906234953546;-0.0863;0.0656;-0.2293;
83906245059431;-0.0788;0.1104;-0.2644;
83906255163754;-0.0682;0.1083;-0.2059;
83906265269588;-0.0714;0.0624;-0.1931;
83906275375473;-0.0554;0.0699;-0.2218;
83906285468233;-0.0490;0.0518;-0.2229;
83906295574067;-0.0501;0.0124;-0.2197;
83906305679952;-0.0224;0.0060;-0.2154;
83906315790213;-0.0320;0.1029;-0.2293;
83906325896046;-0.0586;0.0838;-0.2197;
83906336001931;-0.0160;0.0220;-0.2048;
83906346115004;0.0405;0.0497;-0.1824;
83906356220838;-0.0234;0.0337;-0.2112;
83906366326723;-0.0394;0.0007;-0.2059;
83906376412296;-0.0160;0.0539;-0.1771;
83906386518129;-0.0330;0.0060;-0.1537;
83906396624015;-0.0501;-0.0503;-0.2027;
83906406722088;-0.0469;-0.1249;-0.1814;
83906416827921;-0.0437;-0.0727;-0.1696;
83906426933806;-0.0554;0.0156;-0.1941;
83906437070473;-0.0586;0.0262;-0.2431;
83906447176358;-0.0192;0.0060;-0.2304;
83906457282192;0.0437;0.0678;-0.2165;
83906467365369;0.0756;0.1083;-0.1909;
83906477471202;0.0980;0.0358;-0.2069;
83906487577035;0.1342;0.0230;-0.1771;
83906497680525;0.1044;-0.0206;-0.1814;
83906507786358;0.1118;-0.0525;-0.1643;
83906517892244;0.1374;0.0092;-0.1302;
83906527989692;0.1225;-0.0334;-0.1164;
83906538095525;0.1449;-0.0578;-0.1153;
83906548201410;0.1300;-0.0684;-0.0802;
83906558320421;0.0820;-0.1366;-0.0546;
83906568426254;0.0618;-0.1366;-0.0546;
83906578532140;0.0043;-0.1281;-0.0993;
83906588632921;0.0277;-0.0706;-0.0929;
83906598738754;0.0138;-0.0599;-0.0503;
83906608844640;0.0245;-0.1164;-0.0312;
83906618959067;0.0447;-0.0610;-0.0386;
83906629064900;0.0554;0.0294;-0.0290;
83906639170785;0.0394;-0.0493;-0.0109;
83906649264275;0.0192;-0.1100;-0.0184;
83906659370108;-0.0064;-0.0503;-0.0152;
83906669475994;-0.0149;-0.0482;0.0072;
83906679577713;0.0021;-0.0493;0.0040;
83906689683546;0.0053;-0.0366;0.0146;
83906699789431;-0.0075;-0.0121;0.0125;
83906709936879;-0.0202;-0.0345;0.0562;
83906720042713;-0.0501;-0.0716;0.0328;
83906730148598;0.0032;0.0561;0.0434;
83906740227817;-0.0288;0.0699;0.0562;
83906750333650;-0.1193;-0.1111;0.0349;
83906760439535;-0.1427;-0.1419;0.0328;
83906770565890;-0.1374;-0.0036;0.0189;
83906780671723;-0.1662;-0.0270;0.0253;
83906790777608;-0.2502;-0.1164;0.0125;
83906800863963;-0.2257;-0.0461;-0.0173;
83906810969796;-0.1683;0.0241;-0.0258;
83906821075629;-0.2225;-0.0535;-0.0525;
83906831181254;-0.2236;-0.1217;-0.0290;
83906841287088;-0.1917;-0.0929;-0.0535;
83906851392921;-0.1971;-0.1430;-0.0514;
83906861487504;-0.1598;-0.1846;-0.0652;
83906871593338;-0.0842;-0.0366;-0.0706;
83906881699171;-0.1161;-0.0036;-0.1356;
83906891805421;-0.1044;-0.0111;-0.1515;
83906901911254;-0.0565;-0.0142;-0.0834;
83906912017088;-0.0618;-0.0206;-0.1206;
83906922139379;-0.0085;0.0060;-0.1260;
83906932245213;-0.0096;-0.0270;-0.1164;
83906942351046;0.0053;-0.0313;-0.1313;
83906952445004;0.0479;0.0007;-0.0972;
83906962550838;0.0160;-0.0228;-0.0812;
83906972656671;0.0096;-0.0791;-0.0770;
83906982749275;0.0341;-0.0695;-0.0748;
83906992855108;0.0138;-0.0164;-0.1057;
83907002960942;-0.0138;-0.0887;-0.0993;
83907013080890;0.0469;-0.0631;-0.0194;
83907023186723;-0.0075;0.0337;-0.1760;
83907033292556;0.0075;0.1296;-0.1590;
83907043409223;-0.0650;0.0198;-0.0961;
83907053515056;-0.0415;-0.1579;-0.0599;
83907063620890;-0.0075;-0.0313;-0.0908;
83907073727400;-0.0021;0.0912;-0.0823;
83907083833233;-0.0330;-0.0004;-0.0663;
83907093939067;-0.0405;-0.0345;-0.0429;
83907104022504;-0.0437;0.0326;-0.0312;
83907114128338;-0.0533;0.0049;-0.0056;
83907124234223;-0.0501;0.0294;-0.0567;
83907134347921;-0.0543;0.0923;-0.0738;
83907144453754;-0.0660;0.0475;-0.0578;
83907154559588;-0.0905;-0.0270;-0.0365;
83907164674640;-0.0234;0.0475;-0.0535;
83907174780473;0.0565;0.3202;-0.0365;
83907184886306;-0.0639;0.0720;-0.0120;
83907194977608;-0.0799;-0.1121;0.0083;
83907205083442;-0.0224;0.0838;-0.0120;
83907215189275;-0.0437;0.1051;-0.0035;
83907225315838;-0.0522;-0.0132;0.0285;
83907235421671;-0.0352;0.0028;0.0349;
83907245527504;-0.0586;0.0209;0.0242;
83907255643233;-0.0618;0.0241;-0.0194;
83907265749067;-0.0842;0.0497;-0.0216;
83907275854900;-0.0724;0.0539;-0.0333;
83907285940733;-0.0533;0.0582;0.0051;
83907296046567;-0.0767;0.0039;0.0168;
83907306152400;-0.0607;-0.0567;0.0317;
83907316252921;-0.0639;-0.0631;0.0306;
83907326358754;-0.0820;-0.0759;0.0466;
83907336464588;-0.0927;-0.0780;0.0285;
83907346572296;-0.0692;-0.0228;-0.0120;
83907356678129;-0.0671;-0.0377;-0.0184;
83907366783963;-0.0905;-0.0748;0.0253;
83907376890004;-0.1001;-0.0366;0.0242;
83907386995890;-0.1129;-0.0855;-0.0493;
83907397101671;-0.0660;-0.0546;-0.0248;
83907407196983;-0.0309;0.0177;0.0008;
83907417302817;-0.0714;-0.0727;-0.0024;
83907427408650;-0.0682;-0.0514;-0.0322;
83907437542296;-0.0565;0.1093;-0.0099;
83907447648129;-0.0575;0.0358;0.0146;
83907457753963;-0.0437;-0.0876;-0.0184;
83907467817817;-0.0128;-0.0324;-0.0056;
83907477923650;-0.0373;-0.0430;-0.0344;
83907488029483;0.0170;0.0113;-0.0280;
83907498167296;0.0905;0.1658;-0.0088;
83907508273129;0.0032;0.0071;0.0466;
83907518378963;0.0170;-0.1622;0.0381;
83907528458129;0.0842;-0.1185;0.0605;
83907538563963;0.0352;-0.0132;-0.0067;
83907548669796;0.0586;0.0475;0.0285;
83907558794483;-0.0011;-0.0302;0.0933;
83907568900317;-0.0224;-0.1068;0.0658;
83907579006150;0.0330;0.0103;0.0370;
83907589116254;-0.0202;0.0763;0.0509;
83907599222088;-0.0586;0.0348;0.0615;
83907609327921;-0.0309;0.0166;0.0869;
83907619422713;-0.0959;-0.1324;0.1040;
83907629528546;-0.1087;-0.2144;0.0880;
83907639634379;-0.0660;-0.0057;0.0997;
83907649755994;-0.1672;0.0166;0.0690;
83907659861827;-0.1300;-0.0345;0.0615;
83907669967660;-0.1363;0.0007;0.0880;
83907680063546;-0.2225;0.0134;0.0477;
83907690169379;-0.1854;0.0603;-0.0013;
83907700275213;-0.2150;0.0635;-0.0205;
83907710368702;-0.2704;0.0007;0.0019;
83907720474483;-0.2800;0.0156;0.0083;
83907730580369;-0.2832;0.0188;0.0008;
83907740686150;-0.2491;-0.0260;-0.0301;
83907750804588;-0.1779;0.0028;0.0008;
83907760910421;-0.2204;0.0348;-0.0610;
83907771016254;-0.1385;0.0944;-0.0929;
83907781129640;-0.1406;0.0742;-0.1004;
83907791235473;-0.1630;-0.0111;-0.1334;
83907801341306;-0.1534;0.0049;-0.1473;
83907811442504;-0.1257;-0.0025;-0.1494;
83907821548338;-0.0905;-0.0345;-0.1387;
83907831654171;-0.0767;-0.0004;-0.1675;
83907841771879;-0.0554;0.0060;-0.1686;
83907851877765;-0.0352;-0.0089;-0.1505;
83907861983598;0.0597;0.0305;-0.1867;
83907872069379;0.1001;0.0369;-0.2037;
83907882175213;0.1097;0.0678;-0.1750;
83907892281046;0.0948;0.0358;-0.1675;
83907902394431;0.1055;-0.0281;-0.1867;
83907912500265;0.0991;0.0145;-0.1750;
83907922606098;0.0501;0.0113;-0.2165;
83907932702817;0.0767;-0.0004;-0.2346;
83907942808702;0.0948;0.0880;-0.2091;
83907952914535;0.0394;0.0103;-0.1654;
83907963022817;0.0873;-0.0366;-0.1377;
83907973128650;0.1342;0.0550;-0.1664;
83907983234483;0.0405;-0.0100;-0.2431;
83907993329379;0.0490;-0.1100;-0.1973;
83908003435213;0.0788;-0.0419;-0.1675;
83908013541046;0.0490;-0.0153;-0.1739;
83908023685108;0.0341;0.0294;-0.2197;
83908033790942;0.0309;0.1509;-0.2570;
83908043896775;0.0618;0.2031;-0.2868;
83908053989535;0.0746;0.2031;-0.2740;
83908064095317;0.0820;0.1434;-0.2282;
83908074201150;0.1097;0.1328;-0.2389;
83908084298233;0.1406;0.1881;-0.2240;
83908094404067;0.1097;0.1274;-0.2293;
83908104509900;0.1055;0.0401;-0.2367;
83908114614223;0.1992;0.1786;-0.2122;
83908124720056;0.1843;0.1381;-0.1909;
83908134825890;0.1406;-0.1100;-0.1824;
83908144927921;0.1747;-0.1260;-0.1728;
83908155033806;0.1417;-0.1483;-0.1387;
83908165139588;0.1055;-0.2314;-0.2027;
83908175243390;0.1321;-0.1877;-0.1728;
83908185349223;0.1587;-0.0770;-0.1675;
83908195455056;0.2088;-0.0057;-0.1867;
83908205545629;0.2429;-0.0142;-0.1941;
83908215651515;0.2620;-0.0260;-0.1750;
83908225757296;0.2940;0.0497;-0.1537;
83908235894588;0.2897;0.0465;-0.1057;
83908246000421;0.2365;-0.0929;-0.0993;
83908256106306;0.2397;-0.0461;-0.0706;
83908266208546;0.2035;0.0454;-0.0035;
83908276314379;0.1896;0.0475;0.0146;
83908286420213;0.2077;0.0454;0.0210;
83908296515004;0.1875;0.0550;0.0232;
83908306620838;0.1843;-0.0068;0.0274;
83908316726671;0.1609;0.0124;0.0423;
83908326824327;0.1278;0.0390;0.0370;
83908336930160;0.1150;-0.0642;0.0477;
83908347035994;0.0959;-0.1356;0.0498;
83908357162556;0.0991;-0.0983;0.0328;
83908367268338;0.1268;0.0198;0.0541;
83908377374223;0.1427;0.0976;0.0232;
83908387446879;0.1129;0.0603;0.0242;
83908397552713;0.1481;0.0273;0.0711;
83908407658546;0.1545;0.0252;0.0987;
83908417782192;0.1577;0.0262;0.0806;
83908427888025;0.1150;0.0156;0.0338;
83908437993858;0.1055;0.0145;0.0573;
83908448091202;0.1087;-0.0121;0.0859;
83908458197035;0.1023;-0.0356;0.0413;
83908468302921;0.1097;0.0124;0.0445;
83908478418754;0.1427;0.0593;0.0573;
83908488524588;0.1481;0.0933;0.0573;
83908498630421;0.1587;0.0997;0.0551;
83908508745629;0.1577;0.0720;0.0869;
83908518851463;0.1683;0.0316;0.0795;
83908528957296;0.1747;0.0326;0.0806;
83908539064171;0.1459;-0.0057;0.0498;
83908549170004;0.1118;0.0113;0.0754;
83908559275838;0.1118;0.0539;0.0573;
83908569389379;0.1001;-0.0281;0.0423;
83908579495213;0.0948;-0.0823;0.0679;
83908589601046;0.1012;-0.0780;0.0647;
83908599686358;0.0714;-0.1260;0.0413;
83908609792192;0.0650;-0.1164;0.0445;
83908619898025;0.0490;-0.1238;0.0157;
83908630010317;0.0362;-0.1356;0.0264;
83908640116150;0.1087;-0.1451;0.0413;
83908650221983;0.1427;0.0007;-0.0322;
83908660330629;0.1300;0.1413;-0.0333;
83908670436463;0.1172;0.0763;-0.0258;
83908680542296;0.1044;-0.0589;-0.0162;
83908690628963;0.1055;-0.0387;0.0157;
83908700734796;0.1481;0.0635;0.0349;
83908710840629;0.1513;0.0678;0.0285;
83908720956358;0.1417;0.0869;0.0477;
83908731062192;0.1481;0.0742;0.0901;
83908741168025;0.1406;-0.0228;0.1083;
83908751282400;0.1363;-0.0567;0.0912;
83908761388233;0.1374;0.0337;0.0987;
83908771494067;0.0565;-0.0684;0.0838;
83908781593806;0.0383;-0.1526;0.0933;
83908791699588;0.0309;-0.1025;0.1019;
83908801805421;0.0948;0.0358;0.0774;
83908811918129;0.0628;0.0869;0.0901;
83908822024015;0.0586;0.0720;0.0816;
83908832129796;0.0607;0.0838;0.1157;
83908842224379;0.0490;-0.0036;0.1360;
83908852330213;0.1097;-0.0079;0.1434;
83908862436046;0.1108;0.0869;0.1125;
83908872542713;0.0714;0.0933;0.1232;
83908882648546;0.0543;-0.0121;0.1306;
83908892754379;0.0469;-0.0663;0.1434;
83908902877504;0.0479;-0.0482;0.1466;
83908912983338;0.0575;-0.0228;0.1391;
83908923089171;0.0650;-0.0249;0.1349;
83908933179796;0.0618;-0.0121;0.1338;
83908943285629;0.0778;0.0092;0.1647;
83908953391463;0.0895;-0.0111;0.1700;
83908963501306;0.0927;0.0284;0.1370;
83908973607140;0.0735;0.0209;0.1168;
83908983712973;0.0650;-0.0079;0.1349;
83908993803129;0.0224;-0.0036;0.1658;
83909003908963;0.0320;0.0486;0.1221;
83909014014796;0.0032;0.0284;0.1296;
83909024121046;-0.0320;-0.0567;0.1093;
83909034226879;-0.0842;-0.0929;0.1019;
83909044332713;-0.1395;-0.0409;0.1083;
83909054457400;-0.1630;0.0209;0.0838;
83909064563233;-0.1023;0.0539;0.0955;
83909074669067;-0.0469;0.0582;0.0509;
83909084769900;-0.0149;0.0475;0.0455;
83909094875733;-0.0266;0.0401;0.0647;
83909104981567;-0.0394;0.0337;0.0690;
83909115098129;-0.0948;-0.0706;0.0763;
83909125203963;-0.1598;-0.1142;0.0477;
83909135309796;-0.1609;-0.0324;0.0136;
83909145384692;-0.1140;0.0348;-0.0024;
83909155490525;-0.0415;0.0635;0.0391;
83909165596358;-0.0373;-0.0419;0.0306;
83909175733806;-0.0192;-0.0599;0.0200;
83909185839640;-0.0415;-0.0164;-0.0312;
83909195945473;-0.0138;0.0827;-0.0344;
83909206059275;-0.0075;0.1477;-0.0162;
83909216165108;0.0107;0.0987;-0.0109;
83909226270942;-0.0085;0.0656;-0.0035;
83909236354171;-0.0383;0.1051;0.0125;
83909246460004;-0.0224;0.0720;0.0061;
83909256565838;-0.0234;0.0241;0.0083;
83909266685838;-0.0202;-0.0004;0.0445;
83909276791671;0.0053;0.0486;0.0605;
83909286897556;0.0170;0.0475;0.0264;
83909297006931;0.0117;0.0624;0.0029;
83909307112765;-0.0053;0.0188;-0.0003;
83909317218598;-0.0277;-0.1164;-0.0099;
83909327310785;-0.0671;-0.1473;0.0019;
83909337416567;-0.0522;-0.0812;-0.0109;
83909347522400;-0.0149;-0.0100;-0.0205;
83909357635317;0.0085;-0.0121;-0.0503;
83909367741150;-0.0085;-0.0324;-0.0322;
83909377846983;0.0096;-0.0525;-0.0120;
83909387928858;0.0170;-0.0057;-0.0365;
83909398034692;0.0352;0.0348;-0.0951;
83909408140525;0.0277;-0.0738;-0.0780;
83909418292608;0.0032;-0.1164;-0.0525;
83909428398442;-0.0096;0.1690;-0.0940;
83909438504275;0.0309;0.2723;-0.1089;
83909448565056;0.1246;0.0582;-0.1025;
83909458670942;0.1790;-0.1036;-0.0972;
83909468776775;-0.0011;0.0103;-0.0876;
83909478898650;0.0160;0.1519;-0.0780;
83909489004483;0.0916;0.0667;-0.0429;
83909499110317;0.1150;0.0486;-0.0716;
83909509242192;0.0554;-0.0100;-0.1206;
83909519348025;0.0650;0.0774;-0.0844;
83909529453858;0.0959;0.2126;-0.0738;
83909539512400;0.0714;0.0113;-0.0791;
83909549618233;-0.0181;-0.3209;-0.1260;
83909559724119;-0.0511;-0.1238;-0.1430;
83909569865525;-0.0160;0.1668;-0.1537;
83909579971358;0.0873;0.0475;-0.0738;
83909590077192;0.1417;-0.1132;-0.0024;
83909600168390;0.1204;-0.0631;-0.0141;
83909610274223;0.1385;-0.0228;-0.0290;
83909620380056;0.0778;0.0017;-0.0706;
83909630487140;0.1363;0.0731;-0.0642;
83909640592973;0.0905;0.0305;-0.0439;
83909650698806;0.0352;-0.1047;-0.0418;
83909660798702;0.0447;-0.1036;-0.0248;
83909670904483;0.0660;0.0294;-0.0109;
83909681010317;0.0703;0.0465;-0.0354;
83909691133233;0.0565;-0.0802;-0.0056;
83909701239067;0.0895;-0.0217;0.0200;
83909711344900;0.0937;0.0806;0.0136;
83909721422556;0.1268;0.1573;-0.0003;
83909731528338;0.1087;0.0827;0.0125;
83909741634223;0.0298;-0.0589;-0.0248;
83909751750004;0.0405;0.0252;-0.0035;
83909761855890;0.0362;0.0582;0.0168;
83909771961671;0.0660;0.0124;0.0029;
83909782063910;0.0778;0.0529;0.0136;
83909792169692;0.0703;0.0848;0.0221;
83909802275525;0.0756;-0.0100;0.0413;
83909812389900;0.0788;-0.0631;0.0253;
83909822495733;0.0597;-0.0132;-0.0322;
83909832601515;0.0426;-0.0185;-0.0077;
83909842694796;0.0117;-0.0748;-0.0141;
83909852800629;0.0138;-0.0546;-0.0130;
83909862906410;0.0447;-0.0217;-0.0130;
83909873015525;0.0533;-0.0100;-0.0099;
83909883121358;0.0778;0.0433;-0.0130;
83909893227140;0.0692;0.0593;-0.0099;
83909903320785;0.0767;0.0198;0.0125;
83909913426619;0.0756;0.0007;0.0061;
83909923532400;0.1118;0.0848;-0.0035;
83909933650473;0.0842;0.0848;0.0168;
83909943756306;0.0394;-0.0025;-0.0130;
83909953862088;0.0277;-0.0025;0.0178;
83909963986567;0.0160;-0.0132;-0.0035;
83909974092400;0.0000;-0.0897;-0.0109;
83909984198181;-0.0011;-0.0716;-0.0077;
83909994288754;0.0277;-0.0153;0.0008;
83910004394588;0.0437;-0.0057;0.0146;
83910014500369;0.0746;0.0230;0.0168;
83910024616567;0.0905;0.0774;-0.0312;
83910034722400;0.0788;0.1019;-0.0386;
83910044828181;0.0437;0.0593;-0.0322;
83910054928806;0.0352;0.0401;-0.0301;
83910065034640;0.0266;0.0081;-0.0184;
83910075140421;0.0309;-0.0345;-0.0035;
83910085232817;0.0415;-0.0567;-0.0035;
83910095338650;0.0639;-0.0249;0.0051;
83910105444431;0.0778;-0.0025;0.0264;
83910115559483;0.0852;-0.0727;0.0477;
83910125665317;0.0628;-0.1004;0.0051;
83910135771098;0.0969;-0.0270;0.0008;
83910145860056;0.0565;-0.0525;-0.0067;
83910155965890;0.0479;-0.1228;-0.0386;
83910166071723;0.0383;-0.0876;-0.0226;
83910176189483;0.0256;-0.0567;0.0029;
83910186295317;0.0650;0.0262;-0.0450;
83910196401098;0.0724;0.0550;-0.0642;
83910206520733;0.0980;0.0411;-0.0088;
83910216626567;0.0895;0.1008;-0.0013;
83910226732348;0.1204;0.1509;-0.0418;
83910236817035;0.1278;0.1775;-0.0493;
83910246922817;0.1172;0.1029;-0.0258;
83910257028650;0.0852;-0.0036;-0.0205;
83910267158077;0.0469;0.0411;-0.0109;
83910277263910;0.0245;0.0209;-0.0045;
83910287369692;0.0724;0.0134;0.0136;
83910297455629;0.0501;0.0390;0.0093;
83910307561463;0.0810;-0.0292;-0.0056;
83910317667244;0.0842;0.0390;0.0189;
83910327765629;0.0810;-0.0185;0.0093;
83910337871463;0.0884;-0.0620;-0.0024;
83910347977244;0.0714;-0.0249;-0.0109;
83910358086567;0.0820;-0.0281;-0.0386;
83910368192400;0.0714;0.0092;-0.0194;
83910378298181;0.0586;0.0124;0.0029;
83910388405733;0.0586;-0.0503;-0.0013;
83910398511567;0.0884;-0.0324;0.0061;
83910408617348;0.0969;-0.0004;0.0285;
83910418738754;0.1236;0.0081;0.0487;
83910428844588;0.1204;-0.0100;0.0381;
83910438950369;0.1374;-0.0270;0.0115;
83910449034067;0.1342;-0.0324;0.0349;
83910459139900;0.1374;-0.0525;0.0360;
83910469245681;0.1417;-0.0610;0.0413;
83910479384796;0.1087;-0.0652;0.0498;
83910489490629;0.0788;-0.0663;0.0573;
83910499596410;0.0927;-0.0238;0.0519;
83910509666150;0.1374;0.0369;0.0594;
83910519771983;0.1278;0.0561;0.0912;
83910529877765;0.1118;-0.0324;0.0880;
83910540003754;0.0948;-0.0610;0.0445;
83910550109588;0.1204;0.0241;0.0551;
83910560215369;0.1044;0.0465;0.0583;
83910570325473;0.1097;0.0348;0.0519;
83910580431306;0.0756;0.0603;0.0605;
83910590537088;0.0660;-0.0057;0.0869;
83910600636358;0.0746;-0.0642;0.0795;
83910610742192;0.1161;0.0252;0.0869;
83910620847973;0.1140;0.0273;0.0891;
83910630957504;0.0873;-0.0313;0.0869;
83910641063338;0.0948;-0.0557;0.0658;
83910651169119;0.1150;0.0113;0.0784;
83910661279379;0.1214;0.0593;0.0827;
83910671385213;0.0873;0.0326;0.0636;
83910681490994;0.0682;-0.0121;0.0700;
83910691600213;0.0660;-0.0356;0.1040;
83910701706046;0.0682;-0.0493;0.1061;
83910711811827;0.0863;0.0081;0.1019;
83910721924223;0.0639;0.0113;0.0891;
83910732030004;0.0607;-0.0482;0.0955;
83910742135838;0.0543;-0.0503;0.0891;
83910752222713;0.0863;0.0060;0.0722;
83910762328546;0.1108;0.0561;0.0615;
83910772434327;0.0714;0.0465;0.0562;
83910782539171;0.0501;0.0422;0.0605;
83910792645004;0.0330;0.0348;0.0690;
83910802750785;0.0341;-0.0281;0.0743;
83910812848754;0.0522;-0.0345;0.0848;
83910822954535;0.0586;-0.0441;0.1019;
83910833060317;0.0469;-0.1228;0.1242;
83910843167192;0.0565;-0.1025;0.1125;
83910853272973;0.0692;-0.0652;0.0679;
83910863378806;0.0756;-0.0482;0.0700;
83910873481671;0.0501;-0.0599;0.0626;
83910883587452;0.0341;-0.1196;0.0795;
83910893693233;0.0170;-0.0993;0.0551;
83910903821463;0.0075;-0.1142;0.0562;
83910913927244;-0.0085;-0.2133;0.0626;
83910924033025;0.0778;-0.0642;0.1029;
83910934115056;0.1342;0.1903;0.0987;
83910944220838;0.0831;0.1892;0.0615;
83910954326619;0.0586;0.0838;0.0498;
83910964424171;0.0682;0.0582;0.0923;
83910974529952;0.0586;0.1029;0.0754;
83910984635733;0.0309;0.0838;0.0711;
83910994747296;-0.0043;0.0369;0.0997;
83911004853077;0.0096;0.0028;0.1317;
83911014958858;-0.0075;-0.0334;0.1168;
83911025078233;0.0788;0.1732;0.1423;
83911035184015;0.0405;0.1541;0.1786;
83911045289796;-0.1257;-0.1931;0.1636;
83911055394640;-0.1342;-0.1675;0.1232;
83911065500421;-0.0096;0.0561;0.1157;
83911075606202;0.0075;0.0284;0.0774;
83911085720421;-0.0959;-0.0514;0.0541;
83911095826202;-0.1023;-0.0121;0.0658;
83911105931983;-0.0682;0.0198;0.0816;
83911116037921;-0.0682;-0.0079;0.0679;
83911126143702;-0.0405;0.0188;0.0859;
83911136249483;-0.0234;0.0731;0.1008;
83911146344379;-0.0320;0.0134;0.0806;
83911156450160;-0.0234;-0.0121;0.0795;
83911166555942;0.0117;0.0774;0.0901;
83911176666358;-0.0085;0.0507;0.0700;
83911186772140;-0.0362;-0.0398;0.0636;
83911196877973;-0.0362;0.0124;0.0933;
83911207001619;-0.0511;0.0113;0.1019;
83911217107400;-0.0618;-0.0727;0.0869;
83911227213181;-0.0298;0.0007;0.1072;
83911237282244;0.0107;0.0518;0.1328;
83911247387973;-0.0352;-0.0047;0.1115;
83911257493754;-0.0554;0.0124;0.0530;
83911267625942;-0.0320;0.0561;0.0594;
83911277731723;-0.0511;0.0177;0.0668;
83911287837504;-0.0426;0.0550;0.0423;
83911297920733;-0.0735;0.1061;0.0509;
83911308026515;-0.0937;0.0497;0.0690;
83911318132296;-0.0714;0.0529;0.0923;
83911328280942;-0.0948;0.0869;0.0976;
83911338386723;-0.0554;0.0795;0.1008;
83911348492504;-0.0650;0.1189;0.0944;
83911358556879;-0.0703;0.1338;0.0360;
83911368662660;-0.0842;0.1264;0.0594;
83911378768442;-0.0873;0.1115;0.0562;
83911388877556;-0.1044;0.0603;0.0551;
83911398983338;-0.1012;0.0443;0.0402;
83911409089119;-0.1097;0.0635;0.0402;
83911419217035;-0.1193;0.0997;0.0146;
83911429322817;-0.0522;0.1061;0.0880;
83911439428598;-0.1108;0.0561;0.0806;
83911449506463;-0.0884;0.0731;0.0146;
83911459612244;-0.0969;0.0795;-0.0450;
83911469718025;-0.0692;0.0561;-0.0088;
83911479827713;-0.0597;0.0017;-0.0173;
83911489933494;-0.0703;-0.0684;-0.0141;
83911500039275;-0.0852;-0.0482;-0.0141;
83911510141463;-0.1012;-0.0738;0.0040;
83911520247244;-0.0469;-0.0249;0.0029;
83911530353077;-0.1140;-0.0972;-0.0450;
83911540458233;-0.0565;-0.1920;-0.0184;
83911550564015;-0.0650;-0.2325;-0.0322;
83911560669796;-0.0767;-0.2794;-0.0514;
83911570783129;-0.0842;-0.1675;-0.0631;
83911580888910;-0.0501;0.0305;-0.0823;
83911590994692;-0.0330;-0.0100;-0.1228;
83911601095108;-0.0320;-0.0398;-0.0983;
83911611200890;-0.0362;0.0113;-0.1025;
83911621306671;-0.0309;-0.0153;-0.1260;
83911631416567;-0.0170;-0.0057;-0.1089;
83911641522348;-0.0192;-0.0206;-0.1057;
83911651628129;0.0916;0.1924;-0.1206;
83911661737140;0.1172;0.2265;-0.0834;
83911671842921;0.0043;0.0390;-0.0589;
83911681948650;-0.0064;-0.0525;-0.0802;
83911692051046;0.0011;-0.0111;-0.1111;
83911702156827;-0.0032;0.0337;-0.1047;
83911712262608;-0.0011;0.0593;-0.1057;
83911722379223;-0.0373;0.0166;-0.1057;
83911732485004;0.0043;0.0209;-0.0844;
83911742590785;0.0394;0.1019;-0.0919;
83911752685004;0.0437;0.0539;-0.0812;
83911762790785;0.0788;0.0752;-0.0972;
83911772896567;0.1310;0.1328;-0.0780;
83911782995785;0.1694;0.1541;-0.0652;
83911793101567;0.1758;0.1210;-0.0045;
83911803207348;0.1118;0.0422;0.0328;
83911813316358;0.0905;-0.0068;0.0242;
83911823422140;0.0149;-0.0897;0.0200;
83911833527921;0.0138;-0.1089;0.0690;
83911843631671;0.0671;-0.0972;0.1051;
83911853737452;0.0309;-0.0260;0.0880;
83911863843233;0.0660;0.0752;0.0455;
83911873940681;0.0639;0.1051;0.0455;
83911884046410;0.0703;0.0710;0.0869;
83911894152192;0.0021;-0.0036;0.0827;
83911904294588;0.0107;-0.0441;0.0816;
83911914400421;-0.0298;-0.0238;0.1072;
83911924506150;-0.0373;-0.0121;0.0944;
83911934584796;-0.0021;0.0529;0.1083;
83911944690577;0.0277;0.1296;0.1242;
83911954796410;0.0117;0.1125;0.1093;
83911964911202;-0.0490;0.0443;0.1210;
83911975016983;-0.0863;0.0177;0.0838;
83911985122765;-0.0628;0.0209;0.0466;
83911995221931;-0.0831;-0.0313;0.0360;
83912005327660;-0.0415;0.0624;0.0445;
83912015433494;-0.0778;0.0390;0.0445;
83912025536567;-0.0628;-0.0770;0.0690;
83912035642400;-0.0469;-0.0791;0.0690;
83912045748129;-0.0618;-0.0951;0.0253;
83912055856775;-0.0192;-0.0887;0.0115;
83912065962504;-0.0863;-0.1664;-0.0003;
83912076068338;-0.0607;-0.1185;0.0029;
83912086174535;-0.0426;-0.0079;-0.0589;
83912096280265;-0.0618;-0.0567;-0.0834;
83912106386046;-0.0245;-0.0674;-0.0535;
83912116484900;-0.0256;-0.0047;-0.0525;
83912126590681;-0.0053;-0.0079;-0.0109;
83912136696463;0.0043;0.0220;-0.0141;
83912146804535;0.0011;-0.0249;-0.0322;
83912156910317;0.0096;0.0071;-0.0258;
83912167016046;0.0277;0.0699;-0.0290;
83912177144223;0.0298;0.0838;-0.0024;
83912187250004;-0.0107;0.0124;-0.0173;
83912197355785;-0.0266;-0.1302;0.0008;
83912207445733;-0.0234;-0.0684;0.0093;
83912217551515;-0.0447;-0.0535;-0.0045;
83912227657296;-0.0181;-0.0599;-0.0088;
83912237828858;0.0117;-0.0025;0.0445;
83912247934640;0.0064;0.0156;0.0178;
83912258040369;-0.0224;0.0103;-0.0407;
83912268077192;-0.0096;0.0806;-0.0237;
83912278182973;-0.0447;-0.0652;0.0115;
83912288288754;-0.0128;-0.1196;0.0146;
83912298418025;-0.0138;-0.0079;0.0210;
83912308523806;-0.0362;-0.0015;-0.0077;
83912318629588;-0.0330;-0.0302;0.0498;
83912328705890;-0.0415;-0.1281;0.0690;
83912338811671;-0.0330;-0.1569;0.0722;
83912348917452;-0.0181;-0.0727;0.0732;
83912359040004;-0.0138;-0.0387;0.0402;
83912369145785;-0.0170;-0.0142;0.0509;
83912379251567;-0.0117;-0.0153;0.0551;
83912389340629;0.0405;0.0252;0.0434;
83912399446410;0.0628;0.0923;0.0626;
83912409552192;0.0511;0.0007;0.0732;
83912419686775;0.0277;-0.0759;0.0933;
83912429792556;0.0415;-0.0206;0.1125;
83912439898338;0.0181;0.0071;0.1636;
83912449977140;0.0511;0.0262;0.1754;
83912460082973;0.0138;-0.0196;0.1445;
83912470188754;-0.0128;-0.0206;0.1264;
83912480294692;-0.0320;-0.0185;0.1349;
83912490400525;-0.0277;-0.0111;0.1168;
83912500506254;-0.0085;0.0411;0.1178;
83912510613806;-0.0330;0.1061;0.1189;
83912520719640;-0.0501;0.1296;0.1178;
83912530825369;-0.0437;0.1040;0.1423;
83912540932660;-0.0362;0.0486;0.1828;
83912551038390;-0.0266;0.0710;0.1754;
83912561144171;-0.0266;0.1264;0.0997;
83912571247088;-0.0607;0.1594;0.1242;
83912581352869;-0.0447;0.1349;0.1168;
83912591458650;-0.0362;0.1083;0.1125;
83912601566515;-0.0373;0.1370;0.1146;
83912611672244;-0.0533;0.0614;0.1232;
83912621778025;-0.1012;-0.0196;0.1296;
83912631883129;-0.1129;-0.0631;0.1541;
83912641988910;-0.1289;-0.0535;0.1594;
83912652094692;-0.0852;0.0326;0.1434;
83912662171150;-0.0628;0.0571;0.1029;
83912672276931;-0.0873;0.0486;0.0848;
83912682382713;-0.0788;-0.0196;0.0754;
83912692514067;-0.0873;-0.1164;0.0626;
83912702619848;-0.1204;-0.2197;0.0658;
83912712725629;-0.1747;-0.2027;0.0763;
83912722845785;-0.2310;-0.0631;0.0636;
83912732951515;-0.2310;0.0305;0.0594;
83912743057296;-0.1406;0.0220;0.0487;
83912753152452;-0.0767;-0.0121;0.0146;
83912763258181;-0.1023;-0.0089;-0.0226;
83912773363963;-0.0959;0.0624;-0.0109;
83912783484535;-0.1193;0.0145;-0.0322;
83912793590317;-0.0735;-0.0057;-0.0482;
83912803696098;-0.0607;0.0880;-0.0184;
83912813783963;-0.0330;0.1754;0.0061;
83912823889744;-0.0607;0.1360;0.0253;
83912833995473;-0.1033;0.0007;0.0605;
83912844100890;-0.0863;-0.1047;0.0594;
83912854206671;-0.0842;-0.0961;0.0306;
83912864312400;-0.0820;-0.0398;-0.0141;
83912874416723;-0.0991;-0.0461;-0.0120;
83912884522504;-0.1172;-0.1100;-0.0226;
83912894628233;-0.0895;-0.0684;-0.0578;
83912904737973;-0.0735;0.0124;-0.0514;
83912914843754;-0.0905;0.0252;-0.0301;
83912924949535;-0.0873;0.0177;-0.0013;
83912935052400;-0.1001;-0.0356;0.0125;
83912945158181;-0.0831;-0.0620;0.0285;
83912955263910;-0.0863;-0.0578;0.0253;
83912965381619;-0.0852;-0.0535;-0.0120;
83912975487400;-0.1129;-0.0111;0.0221;
83912985593129;-0.1076;-0.0057;-0.0077;
83912995692035;-0.1129;-0.0270;0.0008;
83913005797765;-0.1246;-0.0377;0.0136;
83913015903494;-0.1289;-0.0567;0.0136;
83913026006150;-0.1363;-0.0238;0.0200;
83913036111931;-0.1246;0.0326;0.0455;
83913046217660;-0.1374;0.0092;0.0615;
83913056318129;-0.1087;0.0230;0.0370;
83913066423910;-0.1097;0.0401;-0.0013;
83913076529640;-0.1363;0.0369;0.0146;
83913086637088;-0.1630;-0.0546;-0.0045;
83913096742869;-0.1800;-0.1079;-0.0173;
83913106848650;-0.1449;-0.0684;-0.0205;
83913116957973;-0.1385;-0.0409;-0.0067;
83913127063702;-0.1481;-0.0015;-0.0056;
83913137169483;-0.1609;-0.0482;0.0338;
83913147277244;-0.1694;-0.1228;0.0136;
83913157383025;-0.1470;-0.1132;-0.0237;
83913167488702;-0.1502;-0.0855;-0.0567;
83913177585525;-0.1417;-0.0770;-0.0429;
83913187691306;-0.1459;-0.0759;-0.0439;
83913197797088;-0.1182;-0.0132;-0.0642;
83913207928598;-0.1225;0.0699;-0.0695;
83913218034379;-0.1161;0.1040;-0.0716;
83913228140108;-0.1832;0.0475;-0.0546;
83913238230942;-0.0799;-0.0004;-0.0035;
83913248336723;-0.0991;0.0965;-0.0684;
83913258442452;-0.1449;0.0049;-0.0205;
83913268539588;-0.0980;-0.0589;-0.0365;
83913278645369;-0.1150;0.0209;-0.0322;
83913288751098;-0.1129;0.0518;-0.0322;
83913298878338;-0.1172;0.0656;-0.0631;
83913308984171;-0.1417;-0.0015;-0.0727;
83913319089848;-0.1619;-0.1025;-0.0706;
83913329177088;-0.1406;-0.0503;-0.0748;
83913339282869;-0.1715;-0.0695;-0.0493;
83913349388650;-0.1172;0.0422;-0.0866;
83913359493442;-0.1417;0.0987;-0.1079;
83913369599223;-0.1779;-0.0834;-0.0652;
83913379704952;-0.1268;-0.0142;-0.0823;
83913389814796;-0.0831;0.1935;-0.1387;
83913399920577;-0.1182;0.2734;-0.1771;
83913410026306;-0.1417;0.1743;-0.1686;
83913420127296;-0.1204;0.0774;-0.1356;
83913430233077;-0.0810;0.1477;-0.0897;
83913440338806;-0.1076;0.1115;-0.0493;
83913450444067;-0.1055;-0.0111;-0.0439;
83913460549900;-0.1172;-0.0206;-0.0557;
83913470655629;-0.0884;-0.0780;-0.0887;
83913480768181;-0.0437;0.1711;-0.0525;
83913490873963;-0.1289;0.0433;-0.0642;
83913500979640;-0.1758;-0.2996;-0.1174;
83913511089223;-0.1161;-0.1686;-0.1430;
83913521194952;-0.1065;-0.0121;-0.1526;
83913531300681;-0.1193;-0.0249;-0.1664;
83913541393858;-0.1193;-0.0514;-0.1579;
83913551499692;-0.0756;-0.0057;-0.1707;
83913561605421;-0.0362;0.1136;-0.2027;
83913571719848;-0.0352;0.0816;-0.1973;
83913581825577;-0.0298;-0.0132;-0.1760;
83913591931358;0.0245;0.0220;-0.1579;
83913602034483;0.0192;-0.0068;-0.1419;
83913612140265;0.0117;-0.0897;-0.1302;
83913622245994;0.0383;-0.0834;-0.1089;
83913632360994;0.0224;-0.0802;-0.0887;
83913642466723;-0.0107;-0.1238;-0.0642;
83913652572452;-0.0213;-0.1174;-0.0823;
83913662687608;-0.0362;-0.0908;-0.1206;
83913672793390;-0.0213;-0.0260;-0.1292;
83913682899171;0.0064;0.0390;-0.1079;
83913692984692;-0.0383;0.0028;-0.1249;
83913703090473;-0.0277;-0.0153;-0.1569;
83913713196254;-0.0202;0.0443;-0.1441;
83913723310890;-0.0149;0.0486;-0.1334;
83913733416619;-0.0213;0.0007;-0.1036;
83913743522348;-0.0256;-0.0132;-0.0780;
83913753622869;-0.0170;0.0049;-0.0866;
83913763728650;-0.0202;0.0262;-0.1238;
83913773834379;-0.0064;0.0614;-0.1228;
83913783965108;-0.0085;0.0486;-0.1270;
83913794070942;-0.0011;0.0092;-0.1089;
83913804176671;-0.0128;-0.0557;-0.0897;
83913814256775;-0.0053;-0.0599;-0.0823;
83913824362556;0.0256;0.0113;-0.0738;
83913834468338;0.0671;0.0838;-0.0631;
83913844575108;0.0607;0.0678;-0.0418;
83913854680838;0.0245;-0.0047;-0.0471;
83913864786619;0.0479;0.0252;-0.0684;
83913874894952;0.0533;0.0582;-0.0589;
83913885000733;0.0224;0.0284;-0.0546;
83913895106463;0.0107;-0.0089;-0.0546;
83913905207921;0.0021;-0.0727;-0.0333;
83913915313702;0.0192;0.0145;-0.0269;
83913925419483;0.0394;0.1200;-0.0099;
83913935533181;-0.0256;0.0039;0.0104;
83913945638910;-0.0234;-0.1217;0.0104;
83913955744692;-0.0298;-0.0461;-0.0205;
83913965850681;-0.0021;0.0348;-0.0333;
83913975956410;-0.0256;0.0166;-0.0439;
83913986062192;-0.0096;0.0422;-0.0738;
83913996157140;-0.0202;0.0337;-0.0663;
83914006262921;-0.0021;0.0316;-0.0535;
83914016368702;0.0426;0.1615;-0.0088;
83914026475056;0.0469;0.0912;0.0774;
83914036580838;0.0288;-0.1100;0.0763;
83914046686619;-0.0064;-0.0674;0.0498;
83914056790056;-0.0533;-0.0525;0.0040;
83914066895890;-0.0533;-0.1419;-0.0184;
83914077001619;-0.0905;-0.0578;-0.0652;
83914087105056;-0.0937;0.0294;-0.0738;
83914097210838;-0.1289;-0.0855;-0.0748;
83914107316619;-0.0618;-0.0972;-0.0876;
83914117409171;-0.0618;-0.0642;-0.0940;
83914127514952;-0.1140;-0.1302;-0.1079;
83914137620733;-0.0756;-0.0695;-0.0759;
83914147780681;-0.0767;0.0646;-0.0631;
83914157886410;-0.0852;0.0252;-0.1025;
83914167992140;0.0149;0.0646;-0.1622;
83914178065108;0.0383;0.2137;-0.1302;
83914188170890;-0.0043;0.1562;-0.1718;
83914198276671;0.0075;-0.1142;-0.1846;
83914208403858;0.0202;0.0049;-0.1430;
83914218509692;-0.0138;0.1828;-0.1217;
83914228615421;0.0043;0.0337;-0.1153;
83914238701202;-0.0181;-0.0748;-0.0908;
83914248806931;0.0043;-0.0706;-0.0759;
83914258912713;-0.0703;-0.1196;-0.1270;
83914269034900;-0.0543;-0.0897;-0.1505;
83914279140733;-0.0245;0.0081;-0.1856;
83914289246463;-0.0213;0.0497;-0.2059;
83914299335785;-0.0085;-0.0334;-0.1920;
83914309441515;0.0202;0.0901;-0.1952;
83914319547296;0.0352;0.2222;-0.2091;
83914329650317;0.0575;0.1104;-0.1718;
83914339756150;0.0735;0.0678;-0.1419;
83914349861879;0.0884;0.0848;-0.1334;
83914360008806;0.0724;0.0582;-0.1260;
83914370114535;0.0479;0.0124;-0.1185;
83914380220317;0.0650;-0.0419;-0.1324;
83914390284692;0.0575;-0.0334;-0.1462;
83914400390473;0.0479;-0.0387;-0.1462;
83914410496254;0.0660;-0.0281;-0.1398;
83914420606202;0.0895;-0.0238;-0.1025;
83914430711931;0.0692;-0.0324;-0.0993;
83914440817713;0.0948;0.0039;-0.0684;
83914450920421;0.0905;0.0145;-0.0706;
83914461026202;0.1321;0.0752;-0.1121;
83914471131983;0.1672;0.1647;-0.0940;
83914481241098;0.1811;0.1253;-0.0855;
83914491346879;0.1939;0.0667;-0.0940;
83914501452608;0.1864;0.0454;-0.0631;
83914511555004;0.1342;0.0103;-0.0461;
83914521660838;0.1534;0.0198;-0.0333;
83914531766567;0.1523;0.0880;-0.0141;
83914541894848;0.1363;0.0656;0.0040;
83914552000629;0.1704;-0.0620;0.0008;
83914562106358;0.1417;-0.0206;0.0136;
83914572188963;0.0991;0.0049;0.0083;
83914582294744;0.1140;-0.0695;0.0093;
83914592400525;0.0937;-0.0334;-0.0130;
83914602508494;0.0639;-0.0366;-0.0024;
83914612614223;0.0810;-0.0738;-0.0173;
83914622720004;0.0959;-0.0770;0.0040;
83914632827504;0.0671;-0.0567;0.0093;
83914642933338;0.0916;-0.1004;-0.0077;
83914653039067;0.0628;-0.2122;-0.0280;
83914663148650;0.0788;-0.1313;-0.0365;
83914673254483;0.0458;0.0230;-0.0503;
83914683360213;0.0554;-0.0993;-0.0109;
83914693462348;0.1161;-0.1952;-0.0652;
83914703568077;0.0756;-0.1686;-0.0578;
83914713673858;0.0565;-0.1142;-0.0578;
83914723779744;0.1012;-0.1260;-0.0386;
83914733885525;0.1193;-0.1696;-0.0024;
83914743991254;0.0820;-0.1590;-0.0013;
83914754100890;0.0501;-0.1164;-0.0045;
83914764206671;0.0703;0.0646;-0.0525;
83914774312400;0.0820;0.1381;-0.0652;
83914784420681;0.1470;0.0241;-0.0897;
83914794526410;0.1640;-0.0302;-0.0834;
83914804632192;0.2109;0.1317;-0.0663;
83914814738390;0.3664;0.6365;-0.1057;
83914824844171;0.5996;1.0370;-0.1515;
83914834949952;0.6070;0.7579;-0.0514;
83914845052504;0.4728;0.2265;0.0848;
83914855158285;0.6337;0.1104;0.1615;
83914865264067;0.4164;0.0124;0.2169;
83914875383129;0.1385;-0.1292;0.2105;
83914885488910;0.2056;-0.1142;0.2169;
83914895594692;0.2024;-0.1558;0.2521;
83914905700525;0.1470;-0.1206;0.2648;
83914915806306;-0.0905;-0.1441;0.2329;
83914925912140;-0.3738;-0.4434;0.1019;
83914936010213;-0.1694;-0.3635;0.0774;
83914946115994;0.0011;0.0369;0.1072;
83914956221775;-0.0352;0.3905;0.0178;
83914966307088;0.1651;0.5843;0.0338;
83914976412869;0.2162;0.5853;0.0901;
83914986518650;0.2599;0.5885;0.1551;
83914996626150;0.3249;0.5280;0.2073;
83915006731931;0.2674;0.1658;0.2776;
83915016837765;0.1662;-0.2932;0.3351;
83915026983285;0.0501;-0.6288;0.3138;
83915037089067;-0.0469;-0.7618;0.3245;
83915047194848;-0.1140;-0.8736;0.2861;
83915057282765;-0.2651;-0.9674;0.1913;
83915067388546;-0.3876;-0.8363;0.1871;
83915077494275;-0.4995;-0.5073;0.0605;
83915087640108;-0.5474;-0.1622;-0.0194;
83915097745890;-1.0959;-0.0535;-0.0152;
83915107851671;-1.2833;-0.0599;0.0061;
83915117904067;-0.1790;0.2126;-0.0567;
83915128009848;0.3600;0.3778;-0.1664;
83915138115629;0.3462;0.4907;-0.1771;
83915148191567;0.2716;0.5864;-0.1015;
83915158297348;0.2674;0.5715;-0.0290;
83915168403129;0.3164;0.5312;0.0115;
83915178541046;0.2855;0.3053;-0.0109;
83915188646879;0.2514;0.1732;-0.0003;
83915198752608;0.1332;0.1732;0.0200;
83915208866254;-0.0554;0.0124;0.0636;
83915218972035;-0.1481;-0.1792;0.0296;
83915229077817;-0.1736;-0.3071;0.0274;
83915239194900;-0.2268;-0.3699;0.0285;
83915249300681;-0.2406;-0.3614;-0.0099;
83915259406463;-0.2204;-0.1079;-0.1047;
83915269499275;-0.2587;0.1999;-0.1111;
83915279605056;-0.0937;0.0923;-0.1430;
83915289710890;0.1363;0.0848;-0.1835;
83915299811358;0.2099;0.1296;-0.1430;
83915309917140;0.1694;0.0060;-0.0791;
83915320022921;0.0117;0.0529;-0.1334;
83915330159015;0.0778;0.2521;-0.0237;
83915340264744;0.0597;0.1487;0.0072;
83915350370525;0.1172;-0.1292;-0.0003;
83915360440473;0.1523;-0.1430;-0.0130;
83915370546202;0.0959;-0.0716;-0.0141;
83915380651983;-0.0138;-0.3241;-0.0205;
83915390775369;-0.0011;-0.3710;-0.0535;
83915400881098;0.0043;-0.1909;-0.0461;
83915410986879;-0.0447;-0.2357;-0.0578;
83915421077400;0.0138;-0.2623;-0.0461;
83915431183181;-0.0234;0.0752;-0.0375;
83915441288963;-0.1438;0.2457;-0.0258;
83915451398546;0.0501;0.1008;-0.0897;
83915461504379;0.3845;0.1242;-0.1366;
83915471610108;0.4270;0.0838;-0.0897;
83915481715317;0.2770;-0.0684;-0.0823;
83915491821150;0.2535;0.1573;-0.0652;
83915501926931;0.1683;0.4012;-0.0514;
83915512032921;0.1172;0.2084;-0.0503;
83915522138754;0.2514;0.2968;-0.0162;
83915532244483;0.2439;0.4332;0.0157;
83915542338650;0.1715;0.2382;0.0605;
83915552444431;0.1161;-0.0535;0.0743;
83915562550213;0.0458;-0.1302;0.0636;
83915572663650;0.0650;0.0294;0.0615;
83915582769431;0.1023;0.1189;0.0562;
83915592875265;0.0746;0.0486;0.0349;
83915602979379;0.0788;0.0848;0.0381;
83915613085160;0.0916;0.0720;0.0391;
83915623190942;0.1609;0.0443;0.0338;
83915633300213;0.1949;0.0774;0.1008;
83915643405994;0.1694;0.0284;0.0965;
83915653511775;0.1800;0.0358;0.0626;
83915663663598;0.1502;0.0678;0.0732;
83915673769327;0.1129;0.0273;0.0944;
83915683875108;0.1481;-0.0004;0.1019;
83915693936879;0.1459;0.0593;0.1232;
83915704042608;0.0937;0.0326;0.0912;
83915714148442;0.0799;-0.1334;0.1083;
83915724245733;0.1033;-0.1047;0.1253;
83915734351515;0.1214;-0.0249;0.1498;
83915744457296;0.0810;-0.0716;0.1466;
83915754590213;0.0660;-0.0430;0.1168;
83915764695994;0.0522;-0.0557;0.1093;
83915774801775;0.0383;-0.1398;0.1072;
83915784898546;0.0788;-0.1153;0.0944;
83915795004379;-0.0128;-0.1036;0.0317;
83915805110108;-0.0628;-0.1366;0.0360;
83915815210629;-0.0607;-0.0706;0.0774;
83915825316410;-0.0437;0.0401;0.0743;
83915835422192;-0.0288;-0.0610;0.0615;
83915845523129;0.0437;-0.1920;0.0530;
83915855628910;0.0298;-0.1622;0.0125;
83915865734692;-0.0202;-0.1324;0.0083;
83915875845056;-0.0320;-0.0770;-0.0109;
83915885950838;0.0490;-0.0025;-0.0333;
83915896056671;0.0682;0.0124;-0.0290;
83915906161567;0.0842;0.0859;-0.0003;
83915916267348;0.0746;0.0955;0.0338;
83915926373129;0.0746;-0.0345;0.0242;
83915936482921;0.0660;-0.1334;0.0551;
83915946588702;0.0575;-0.0940;0.0690;
83915956694483;0.0671;0.0049;0.0605;
83915966814327;0.0703;-0.0164;0.0891;
83915976920108;0.0682;-0.0387;0.0763;
83915987025890;0.0692;-0.0057;0.0509;
83915997124796;0.0107;-0.0493;0.0647;
83916007230577;0.0011;-0.0663;0.0912;
83916017336358;0.0213;-0.0503;0.0933;
83916027412504;0.0873;0.0081;0.1242;
83916037518285;0.0778;0.0742;0.1573;
83916047624067;0.0671;0.0859;0.1711;
83916057786671;0.0256;0.0252;0.1818;
83916067892452;-0.0128;-0.0270;0.2169;
83916077998233;-0.0128;-0.0451;0.2201;
83916088080942;0.0011;0.0134;0.2467;
83916098186723;-0.0181;0.0582;0.2105;
83916108292504;-0.0778;-0.0015;0.2329;
83916118401254;-0.1513;-0.0951;0.2616;
83916128507035;-0.1726;-0.0908;0.2521;
83916138612817;-0.1438;-0.0185;0.2606;
83916148707296;-0.1694;-0.0482;0.2467;
83916158813077;-0.2088;-0.0589;0.2169;
83916168918858;-0.2332;-0.0079;0.2063;
83916179014067;-0.2726;-0.0153;0.1828;
83916189119848;-0.2694;-0.0164;0.1509;
83916199225629;-0.2715;0.0284;0.1008;
83916209329379;-0.2619;0.0838;0.0795;
83916219435160;-0.2470;0.0763;0.0827;
83916229540942;-0.1779;0.1253;0.0668;
83916239649796;-0.1023;0.1626;0.0679;
83916249755577;-0.1172;0.0614;0.0795;
83916259861358;-0.1630;0.0177;0.0370;
83916269989171;-0.1161;0.0656;0.0509;
83916280094952;-0.1427;-0.0036;0.0487;
83916290200733;-0.0842;0.0039;0.0008;
83916300302035;-0.0799;0.1093;-0.0322;
83916310407817;-0.0937;0.1115;-0.0386;
83916320513598;-0.1161;-0.0036;-0.0248;
83916330607713;-0.0831;0.0305;-0.0429;
83916340713494;-0.0660;0.0539;-0.0482;
83916350819275;-0.0735;-0.0514;-0.0503;
83916360924796;-0.0692;-0.0525;-0.0684;
83916371030577;-0.0628;0.0124;-0.0482;
83916381136358;-0.0682;0.0060;-0.0610;
83916391237140;-0.0565;0.0028;-0.0919;
83916401342921;-0.0511;0.0081;-0.0919;
83916411448702;-0.0628;-0.0281;-0.0866;
83916421558963;-0.0650;-0.0748;-0.1015;
83916431664744;-0.0352;-0.0036;-0.0919;
83916441770525;-0.0213;0.0337;-0.0770;
83916451869379;-0.0160;-0.0780;-0.0716;
83916461975213;-0.0085;-0.0142;-0.0791;
83916472080942;-0.0138;0.0624;-0.0503;
83916482199588;0.0149;0.0241;-0.0620;
83916492305369;0.2269;0.4033;-0.1036;
83916502411150;0.2205;0.5768;-0.1483;
83916512503963;-0.0320;-0.0281;-0.0578;
83916522609744;-0.0224;-0.3411;0.0349;
83916532715525;0.1044;0.0667;0.0019;
83916542822869;0.0756;0.3138;-0.0184;
83916552928598;0.0277;0.1306;-0.0599;
83916563034379;0.0192;0.0614;-0.0173;
83916573137504;0.0096;0.1253;0.0328;
83916583243285;0.0149;0.0912;0.0221;
83916593349067;-0.0320;0.0337;0.0051;
83916603456463;-0.1864;-0.3326;-0.0109;
83916613562244;-0.2417;-0.5116;-0.0557;
83916623668025;0.0724;0.3245;-0.0344;
83916633777192;0.0522;0.4971;-0.0216;
83916643882973;-0.1278;-0.2027;0.0285;
83916653988754;0.0192;-0.2975;0.0221;
83916664086150;0.0831;0.0816;-0.0056;
83916674191931;-0.0383;0.1200;0.0061;
83916684297713;-0.0873;-0.1771;-0.0173;
83916694410317;-0.0202;-0.1153;-0.0482;
83916704516098;-0.0181;0.1115;-0.0375;
83916714621879;-0.0511;-0.0249;-0.0269;
83916724731410;-0.0181;-0.1036;-0.0045;
83916734837140;0.0330;0.1136;0.0083;
83916744942921;0.0447;0.0593;0.0413;
83916755051879;-0.0032;-0.0908;-0.0067;
83916765157660;0.0234;0.1519;-0.0237;
83916775263442;-0.0213;0.1381;-0.0077;
83916785374588;-0.0277;-0.1079;-0.0024;
83916795480369;0.0170;0.0049;-0.0013;
83916805586150;-0.0075;0.0976;-0.0237;
83916815685317;-0.0234;-0.0313;-0.0120;
83916825791098;0.0000;0.0209;0.0136;
83916835896879;0.0309;0.0742;0.0519;
83916846000629;0.0298;-0.0079;0.0541;
83916856106410;0.0000;-0.0345;0.0136;
83916866212192;-0.0320;0.0049;0.0115;
83916876311775;-0.0511;-0.0015;0.0285;
83916886417556;-0.0288;-0.0313;0.0360;
83916896523338;-0.0128;-0.0961;0.0370;
83916906637088;-0.0575;-0.1036;-0.0099;
83916916742869;-0.0362;0.0422;0.0221;
83916926848702;-0.0671;0.0561;0.0466;
83916936950369;-0.0501;-0.0270;0.0445;
83916947056150;0.0202;-0.0228;0.0445;
83916957161931;-0.0075;0.0081;0.0583;
83916967251306;-0.0415;0.0454;0.0455;
83916977357088;-0.0692;-0.0324;0.0562;
83916987462869;-0.0618;-0.1217;0.0700;
83916997570785;-0.0543;-0.0844;0.0317;
83917007676567;-0.0618;-0.0185;0.0413;
83917017782348;-0.0831;-0.0525;0.0732;
83917027894535;-0.0959;-0.1100;0.0690;
83917038000317;-0.1342;-0.1387;0.0722;
83917048106098;-0.1172;-0.0951;0.0732;
83917058253129;-0.1214;-0.0196;0.0093;
83917068358910;-0.1310;0.0209;0.0040;
83917078464692;-0.1342;-0.0249;0.0221;
83917088531046;-0.1023;-0.0961;-0.0130;
83917098636827;-0.1001;-0.0642;0.0093;
83917108742608;-0.1630;0.0209;-0.0216;
83917118856254;-0.2109;0.0593;-0.0557;
83917128962035;-0.1917;0.0486;-0.0280;
83917139067817;-0.1481;0.0103;0.0189;
83917149163546;-0.1044;-0.0217;-0.0450;
83917159269327;-0.1289;-0.0260;-0.0674;
83917169375108;-0.1917;0.0134;-0.0727;
83917179487817;-0.1992;-0.0100;-0.0770;
83917189593598;-0.1459;-0.0451;-0.1068;
83917199699379;-0.1406;0.0358;-0.1430;
83917209809171;-0.1491;0.1019;-0.1281;
83917219915004;-0.1257;0.0955;-0.1302;
83917230020733;-0.0501;0.0667;-0.1281;
83917240111827;-0.0107;-0.0164;-0.1366;
83917250217608;0.0628;0.0060;-0.1068;
83917260323390;0.0277;-0.0121;-0.1142;
83917270427817;0.0000;-0.0589;-0.0876;
83917280533598;-0.0021;-0.0471;-0.0652;
83917290639379;-0.0288;-0.0652;-0.0802;
83917300768338;-0.0256;-0.0780;-0.0802;
83917310874119;-0.0479;-0.0196;-0.0876;
83917320979952;-0.0533;-0.0121;-0.1142;
83917331081254;-0.0266;-0.0089;-0.0940;
83917341187035;-0.0160;-0.0599;-0.0461;
83917351292817;0.0426;-0.0430;-0.0727;
83917361413546;0.0501;0.0124;-0.0951;
83917371519379;0.0202;0.0348;-0.0706;
83917381625160;0.0714;0.0284;-0.0471;
83917391716567;0.1161;-0.0366;-0.0258;
83917401822400;0.1310;-0.0802;-0.0099;
83917411928129;0.1225;-0.0812;-0.0013;
83917422014483;0.0799;-0.0706;0.0210;
83917432120265;0.0075;-0.0759;0.0168;
83917442226046;-0.0107;-0.1345;0.0189;
83917452359535;0.0298;-0.0993;0.0391;
83917462465317;-0.0362;0.1104;-0.0407;
83917472571098;-0.0735;0.1370;-0.0344;
83917482679067;0.0820;0.0923;-0.0237;
83917492784848;0.2237;0.0923;-0.0226;
83917502890629;0.1875;0.0944;-0.0269;
83917512980213;0.0607;0.0454;-0.0205;
83917523085994;-0.0501;0.2340;-0.0141;
83917533191775;0.0842;0.4204;0.0306;
83917543314588;0.2855;0.0198;0.0477;
83917553420369;0.4611;-0.2463;0.0551;
83917563526150;0.1715;-0.0270;0.0296;
83917573603338;-0.4047;0.1967;0.0413;
83917583709119;-0.4792;0.1296;0.0306;
83917593814900;-0.0650;-0.0834;-0.0237;
83917603935890;0.0650;-0.0292;-0.0759;
83917614041619;-0.1459;0.1232;-0.0823;
83917624147400;-0.2268;0.1413;-0.0642;
83917634260890;-0.0288;0.1285;-0.0674;
83917644366671;0.0991;-0.2144;-0.0642;
83917654472452;0.1960;0.0241;-0.0844;
83917664587452;0.0053;0.5162;-0.0972;
83917674693233;-0.0884;0.0944;-0.0397;
83917684799015;0.2407;-0.3326;0.0083;
83917694894275;0.3217;-0.0972;-0.0173;
83917705000108;0.0501;0.0784;0.0125;
83917715105838;-0.0692;-0.0174;0.0402;
83917725223963;-0.0309;-0.1057;0.0178;
83917735329744;0.0256;-0.0111;0.0423;
83917745435525;-0.0565;0.0039;0.0700;
83917755526358;-0.0746;-0.1111;0.0274;
83917765632140;-0.0075;-0.0356;-0.0013;
83917775737921;-0.0362;0.0433;0.0317;
83917785853858;-0.0959;-0.0855;0.0349;
83917795959640;-0.0575;-0.1292;0.0274;
83917806065473;-0.0660;-0.0164;0.0455;
83917816155004;-0.1822;-0.0366;0.0338;
83917826260785;-0.2342;-0.0652;0.0125;
83917836366567;-0.1896;0.0475;0.0157;
83917846469067;-0.2363;-0.0535;0.0210;
83917856574848;-0.1960;-0.1462;-0.0013;
