Sensor: bmi160 Accelerometer Non-wakeup
Vendor: BOSCH
TimestampAcc [ns]; AccX [m/s^2]; AccY [m/s^2]; AccZ [m/s^2]
687959349798801;-9.5004;0.9093;-2.1601;
687959359904478;-9.5438;0.9595;-2.1793;
687959369972707;-9.4693;0.9811;-2.1099;
687959380111717;-9.4645;1.0002;-2.1075;
687959390179946;-9.5052;1.0364;-2.1194;
687959400334842;-9.5366;0.9954;-2.0836;
687959410403071;-9.5486;0.9858;-2.0812;
687959420499582;-9.5486;1.0026;-2.0955;
687959430619373;-9.5195;1.0149;-2.1099;
687959440763801;-9.5172;0.9978;-2.1242;
687959450846196;-9.5100;0.9667;-2.1170;
687959460970103;-9.5195;0.9523;-2.1553;
687959471078592;-9.5291;0.9284;-2.1697;
687959481170519;-9.5124;0.9260;-2.1434;
687959491268853;-9.5148;0.9284;-2.1529;
687959501365832;-9.5390;0.9045;-2.0955;
687959511494686;-9.5581;0.8734;-2.0716;
687959521614061;-9.5821;0.8782;-2.0740;
687959531703436;-9.5677;0.8686;-2.0617;
687959541818540;-9.5366;0.8279;-2.1051;
687959551920103;-9.5390;0.8231;-2.0907;
687959562033748;-9.5315;0.8088;-2.1123;
687959572135676;-9.5195;0.7561;-2.1123;
687959582239009;-9.5366;0.7681;-2.1266;
687959592352394;-9.5797;0.7777;-2.1003;
687959602462342;-9.5533;0.7319;-2.0812;
687959612567915;-9.5629;0.7199;-2.0859;
687959622684634;-9.5510;0.6984;-2.0521;
687959632844478;-9.5195;0.6745;-2.0210;
687959642883957;-9.5342;0.6649;-2.0593;
687959652990936;-9.5557;0.6410;-2.1003;
687959663096457;-9.5438;0.6218;-2.0979;
687959673209998;-9.5390;0.6362;-2.0788;
687959683321144;-9.5749;0.6218;-2.0883;
687959693416821;-9.5486;0.6003;-2.0979;
687959703528957;-9.5629;0.5979;-2.0740;
687959713637394;-9.5749;0.6003;-2.0812;
687959723744009;-9.5725;0.6027;-2.0788;
687959733827082;-9.5725;0.6123;-2.0521;
687959743968019;-9.5677;0.6123;-2.0644;
687959754065623;-9.5581;0.6147;-2.1123;
687959764173019;-9.5486;0.6027;-2.0979;
687959774284061;-9.5510;0.6123;-2.1003;
687959784384582;-9.5366;0.6362;-2.1290;
687959794495207;-9.5342;0.6338;-2.0907;
687959804600519;-9.5462;0.6458;-2.1482;
687959814705780;-9.5605;0.6553;-2.1338;
687959824814426;-9.5581;0.6840;-2.1386;
687959834911873;-9.5315;0.6553;-2.0907;
687959845042498;-9.5701;0.6721;-2.1888;
687959855135832;-9.5533;0.6840;-2.2175;
687959865244373;-9.5291;0.6817;-2.0836;
687959875353540;-9.5052;0.7128;-2.1362;
687959885462707;-9.5677;0.6864;-2.1817;
687959895564426;-9.5076;0.6840;-2.1362;
687959905681248;-9.5076;0.7032;-2.2199;
687959915786144;-9.5195;0.7032;-2.2582;
687959925880832;-9.5267;0.7343;-2.1912;
687959935991040;-9.5342;0.7466;-2.1386;
687959946103644;-9.5462;0.7729;-2.1170;
687959956208801;-9.5605;0.7394;-2.1338;
687959966383071;-9.5557;0.7319;-2.1577;
687959976438853;-9.5462;0.7370;-2.1721;
687959986545363;-9.5243;0.7032;-2.1960;
687959996619009;-9.5243;0.7394;-2.2726;
687960006730936;-9.5172;0.7896;-2.2223;
687960016849998;-9.5004;0.6912;-2.0450;
687960027011561;-9.5267;0.7295;-2.0836;
687960037105728;-9.5677;0.7223;-2.1434;
687960047170884;-9.5916;0.7705;-2.1386;
687960057273748;-9.5581;0.6817;-2.0450;
687960067399842;-9.5629;0.6888;-2.1793;
687960077512811;-9.5390;0.6888;-2.3204;
687960087626717;-9.4597;0.7561;-2.2032;
687960097708123;-9.4310;0.8136;-2.1984;
687960107804530;-9.5124;0.8207;-2.2965;
687960117939530;-9.5219;0.8160;-2.1505;
687960128066248;-9.5195;0.8901;-1.9828;
687960138139634;-9.5605;0.9571;-2.0668;
687960148249790;-9.5725;0.9882;-2.0644;
687960158366613;-9.5243;1.0412;-2.0450;
687960168455155;-9.5100;1.0388;-2.0498;
687960178598384;-9.5390;1.2350;-2.2750;
687960188679373;-9.4813;1.3454;-2.1266;
687960198775467;-9.4549;1.4076;-1.9062;
687960208886613;-9.4525;1.3262;-2.0836;
687960218995728;-9.5267;1.4315;-2.2128;
687960229126092;-9.3951;1.3573;-1.9086;
687960239235676;-9.5219;1.4459;-1.9875;
687960249328436;-9.6562;1.5009;-2.1003;
687960259433592;-9.5195;1.3190;-1.9684;
687960269541978;-9.4095;1.1967;-2.0931;
687960279654478;-9.3808;1.1656;-2.4093;
687960289752082;-9.3975;1.1273;-2.4428;
687960299858905;-9.4382;0.9595;-2.3252;
687960309988071;-9.5243;0.8160;-2.4308;
687960320075676;-9.5486;0.6266;-2.4452;
687960330180519;-9.4597;0.4373;-2.3109;
687960340294894;-9.4454;0.2100;-2.3061;
687960350391873;-9.5390;-0.0511;-2.2678;
687960360504582;-9.6371;-0.1137;-2.3901;
687960370611040;-9.5677;-0.1567;-2.5935;
687960380726457;-9.4334;-0.1831;-2.8235;
687960390824686;-9.4167;-0.2166;-2.9650;
687960400932290;-9.3879;-0.2812;-2.8860;
687960411041769;-9.4119;-0.3218;-2.7135;
687960421144998;-9.4789;-0.3242;-2.6704;
687960431263123;-9.5533;-0.5327;-2.7111;
687960441358748;-9.5076;-0.8034;-2.7709;
687960451470936;-9.4358;-0.7053;-2.8570;
687960461572290;-9.4023;-0.5471;-3.1974;
687960471680936;-9.3975;-0.2812;-3.3242;
687960481812134;-9.2656;-0.1352;-3.2357;
687960491908592;-9.2922;-0.0129;-3.2070;
687960502008176;-9.4023;0.1857;-3.2764;
687960512107811;-9.4334;0.3105;-3.2381;
687960522244113;-9.1890;0.7920;-3.9664;
687960532343696;-7.6920;3.0843;-7.4183;
687960542443332;-6.8632;6.2369;-9.3754;
687960552545259;-8.6477;-2.0635;0.0293;
687960562644842;-12.9571;-3.0024;-0.9311;
687960572744478;-12.0494;0.5548;-3.6885;
687960582892082;-7.9866;-0.5136;-1.0510;
687960592991717;-7.9388;0.9356;-3.5590;
687960603091301;-9.5414;3.3191;-7.6457;
687960613193801;-8.6859;1.4435;-3.7412;
687960623293384;-7.9170;0.7633;-1.8224;
687960633393019;-9.2584;1.0914;-2.6560;
687960643511405;-10.7055;1.3549;-3.2477;
687960653610988;-10.2048;1.6543;-3.3864;
687960663710623;-8.7461;2.0833;-3.2429;
687960673838228;-8.4200;2.4544;-3.7316;
687960683937811;-8.5567;2.6629;-3.9760;
687960694037446;-8.6477;2.4975;-3.4490;
687960704149113;-9.1268;2.6844;-3.4442;
687960714248696;-9.4789;3.1636;-3.5830;
687960724348332;-9.2707;3.5300;-3.7196;
687960734494426;-9.5749;3.4941;-3.6523;
687960744594009;-9.8934;3.0341;-2.9363;
687960754693592;-8.8537;2.6342;-2.1362;
687960764793228;-8.1541;2.7012;-2.3423;
687960774903384;-8.6429;2.7227;-3.1543;
687960785002967;-9.6586;2.5884;-3.6117;
687960795102603;-9.0359;2.1933;-3.1878;
687960805233905;-8.4969;2.3946;-3.6236;
687960815333488;-9.9580;2.3827;-3.8130;
687960825433123;-10.3125;1.8915;-3.1615;
687960835550051;-9.4454;1.5873;-2.7422;
687960845649634;-8.4969;0.9212;-1.8488;
687960855749269;-8.8753;0.9787;-1.8727;
687960865867655;-8.9183;1.5248;-2.1697;
687960875967238;-8.5950;2.0040;-2.6225;
687960886066873;-10.4659;2.2316;-3.2907;
687960896191821;-10.7533;1.5562;-2.2965;
687960906291457;-9.7567;1.3956;-1.8727;
687960916391040;-9.2922;1.8317;-2.7829;
687960926522290;-8.1278;1.5802;-2.4643;
687960936621873;-7.6080;1.2685;-2.5026;
687960946721457;-9.1173;1.6208;-3.8871;
687960956846196;-10.0514;1.3071;-3.6284;
687960966945832;-10.9068;1.0651;-2.8813;
687960977045415;-10.5138;1.1536;-2.9554;
687960987168957;-8.4416;0.8758;-2.4667;
687960997268592;-8.0560;0.0613;-1.6929;
687961007368176;-8.9758;-0.5973;-1.4868;
687961017464998;-8.8801;-0.4298;-1.7647;
687961027564634;-10.4324;0.6840;-3.4011;
687961037664269;-11.5941;1.0002;-3.9302;
687961047786978;-10.2694;1.1441;-3.1950;
687961057886613;-8.3339;1.0914;-2.7159;
687961067986196;-7.7901;0.6194;-2.0306;
687961078135155;-8.2478;0.8303;-1.9014;
687961088234738;-9.3257;1.9394;-2.9602;
687961098334373;-9.4741;2.6773;-3.5183;
687961108441405;-10.0394;3.1035;-3.7866;
687961118541040;-10.3101;3.1059;-3.2166;
687961128640623;-9.0168;2.6533;-1.9373;
687961138769478;-8.7242;2.2603;-1.9612;
687961148869113;-9.3592;2.7132;-2.8355;
687961158968696;-8.5687;2.9815;-2.8956;
687961169085988;-8.9207;3.2282;-3.6694;
687961179185571;-10.1306;2.5980;-3.4537;
687961189285207;-9.7161;1.5658;-2.1601;
687961199408071;-9.4190;1.9322;-2.1290;
687961209507655;-9.2321;2.0686;-2.6991;
687961219607290;-8.7939;2.0136;-3.3027;
687961229735467;-8.7700;1.9825;-3.0009;
687961239835051;-9.5390;1.6376;-2.8164;
687961249934634;-9.8886;1.8461;-2.1745;
687961260064946;-9.5219;1.9729;-2.3686;
687961270164530;-8.9949;2.1168;-2.9339;
687961280264165;-9.0670;1.9825;-2.9650;
687961290382238;-9.9030;1.5368;-2.4715;
687961300481873;-9.2513;1.3836;-1.7264;
687961310581457;-9.2249;1.5802;-2.1817;
687961320698592;-9.3305;1.6280;-2.6154;
687961330798228;-9.3233;1.6376;-3.1831;
687961340897811;-10.2359;1.4554;-3.4298;
687961351015676;-9.6993;1.0627;-2.6465;
687961361115259;-7.8978;1.7596;-3.2979;
687961371214894;-7.6343;2.4760;-5.1568;
687961381343905;-9.7137;2.1646;-5.3151;
687961391443488;-10.1928;1.0819;-2.1529;
687961401543123;-7.9098;0.9954;-0.8737;
687961411662342;-8.1063;3.2234;-5.3222;
687961421761926;-7.1387;3.4077;-6.4361;
687961431861561;-7.4524;2.3611;-3.5830;
687961441986717;-8.5184;2.6151;-3.3147;
687961452086301;-8.9447;4.1934;-6.6948;
687961462185936;-13.0962;3.4152;-7.8876;
687961472307967;-13.8532;0.9404;-3.9425;
687961482407551;-9.6060;-0.2333;0.4965;
687961492507186;-5.0904;1.3023;0.4630;
687961502635988;-4.8508;1.8843;-1.2595;
687961512735571;-7.4261;0.4684;-1.6953;
687961522835207;-9.9150;-0.3532;-2.1793;
687961532951665;-10.3149;0.5716;-3.6595;
687961543051248;-9.0598;1.3143;-4.0454;
687961553150832;-7.6319;1.2422;-3.4346;
687961563283176;-8.0201;0.2387;-3.2572;
687961573382759;-7.4477;-0.9066;-0.7660;
687961583482394;-10.1665;-1.4169;-1.5805;
687961593590884;-15.5324;0.0589;-6.2372;
687961603696353;-16.2799;0.5931;-6.6494;
687961613801821;-9.1579;-0.8082;-2.4523;
687961623919426;-5.3611;-1.6780;-1.1204;
687961634024894;-5.9169;-1.1533;-1.3887;
687961644130363;-7.3038;-1.8455;-2.2869;
687961654240988;-10.4109;-1.3424;-3.0440;
687961664346457;-10.9762;-1.5126;-1.8823;
687961674451926;-10.4181;-0.8489;-3.4753;
687961684572655;-10.6983;-1.4838;-4.0143;
687961694678123;-10.7940;-2.6049;-2.4739;
687961704783592;-8.7700;-1.7521;-2.3853;
687961714882342;-7.6968;-2.0468;-2.6728;
687961724987811;-9.2584;-2.3773;-3.3147;
687961735093280;-9.8599;-1.8694;-3.4753;
687961745225988;-9.8767;-1.2419;-3.7196;
687961755331457;-9.2513;-1.0789;-3.7627;
687961765436926;-9.7663;-1.2036;-3.7412;
687961775522967;-9.6610;-0.5351;-3.1783;
687961785628436;-9.0909;0.0494;-2.4619;
687961795733905;-8.8513;-0.7196;-3.6380;
687961805846926;-8.8825;-1.4767;-3.9015;
687961815952394;-8.8513;-0.2357;-3.9230;
687961826057863;-10.5879;-0.2692;-4.4285;
687961836165259;-9.5390;-0.1137;-4.0047;
687961846270780;-7.5649;0.5070;-3.8034;
687961856376248;-8.8825;-0.2764;-4.5269;
687961866500884;-10.2000;0.3751;-4.2514;
687961876606353;-8.5328;1.8317;-3.4131;
687961886711821;-7.9579;2.3731;-3.9760;
687961896790155;-10.1880;0.6649;-4.7136;
687961906895623;-9.7591;0.9045;-4.3974;
687961917001092;-9.4262;1.9968;-4.7904;
687961927182498;-10.3941;1.9202;-4.3759;
687961937287967;-9.5124;1.8365;-3.1807;
687961947393436;-7.1650;2.2603;-3.1496;
687961957437863;-6.7744;1.7309;-3.8225;
687961967543332;-9.3975;1.5368;-4.3400;
687961977648801;-10.4013;1.8003;-4.4982;
687961987780571;-9.8240;1.3095;-4.1148;
687961997886040;-8.6166;0.8327;-4.2945;
687962007991509;-9.1890;0.7585;-4.2921;
687962018117030;-9.0359;0.0685;-3.6547;
687962028222498;-8.1661;0.2100;-3.2931;
687962038327967;-8.1422;0.3129;-3.7292;
687962048428176;-9.6778;-0.4346;-3.6260;
687962058533644;-9.1795;-0.2094;-3.5399;
687962068639113;-8.3794;0.0541;-3.8919;
687962078744634;-9.9078;-0.9018;-3.7220;
687962088850103;-9.3473;-0.6598;-3.3147;
687962098955571;-8.5591;0.1092;-3.8847;
687962109067238;-9.7113;0.0135;-4.0837;
687962119172707;-8.9853;-0.3820;-4.2562;
687962129278176;-7.6801;0.0972;-5.1927;
687962139404009;-9.7854;-0.6024;-5.2502;
687962149509478;-10.2120;-0.3485;-5.0204;
687962159614946;-7.4309;-0.6431;-4.2060;
687962169729113;-8.0800;-0.8584;-4.4237;
687962179834582;-9.1460;-0.3413;-3.6909;
687962189940051;-9.0550;-1.0119;-4.1076;
687962200041457;-8.0919;-1.0358;-4.4767;
687962210146926;-8.4634;-0.1304;-4.2419;
687962220252394;-9.8791;-1.0549;-5.0034;
687962230356717;-9.9676;-0.1448;-4.0573;
687962240462186;-7.7136;-0.5040;-3.7292;
687962250567655;-9.2536;-0.1783;-5.3175;
687962260681717;-10.7701;-0.0682;-4.1243;
687962270787186;-9.2273;-0.5758;-3.2118;
687962280892655;-7.6681;-0.7460;-3.2907;
687962291001717;-7.7016;-1.0645;-4.1626;
687962301107186;-9.9126;-0.5949;-4.6753;
687962311212655;-10.4731;-0.6239;-3.9230;
687962321327655;-8.0441;-0.3532;-3.2859;
687962331433123;-9.4071;-1.0214;-3.9350;
687962341538592;-10.1689;-0.4274;-3.3266;
687962351641717;-9.2034;-0.4872;-3.3864;
687962361747186;-9.6921;-0.8393;-3.3721;
687962371852655;-8.4200;-0.6957;-2.6130;
687962381966405;-10.6935;-0.7412;-3.3745;
687962392071873;-9.1819;-0.7436;-3.5925;
687962402177342;-7.9002;-0.4896;-3.3075;
687962412285780;-8.9375;-1.2634;-4.3161;
687962422391248;-8.3818;-0.5853;-4.6896;
687962432496717;-5.8331;-0.6981;-5.0611;
687962442609946;-1.2601;-0.5136;-5.9234;
687962452715415;-6.7002;-0.3724;-6.8360;
687962462820884;-19.1880;0.0326;-6.2539;
687962472927446;-18.1555;-1.1916;-1.5446;
687962483032915;-9.2082;-0.9855;1.9337;
687962493138384;-9.2994;-1.2012;1.1770;
687962503261040;-8.6309;-0.7627;0.2521;
687962513366509;-8.5472;-0.7579;-2.5050;
687962523471978;-8.6764;0.3057;-4.0573;
687962533579009;-7.7495;0.9571;-5.3749;
687962543684478;-8.9423;0.7080;-6.7116;
687962553789946;-8.5424;1.3143;-5.9139;
687962563902655;-8.1637;0.2889;-6.1774;
687962574008123;-10.2024;0.4038;-5.2430;
687962584113592;-6.6380;-0.1974;-3.6933;
687962594220415;-6.7361;-0.9138;-5.0468;
687962604327394;-10.3774;-0.3820;-5.6982;
687962614434373;-11.0384;0.0589;-3.7890;
687962624543228;-9.3329;-0.3963;-3.4848;
687962634650207;-9.8767;-1.0334;-2.4236;
687962644757186;-7.7542;-0.4394;-1.8870;
687962654871978;-9.1771;-0.8512;-4.0406;
687962664978957;-9.4669;-0.2285;-4.4237;
687962675085936;-8.4682;-0.2285;-4.2179;
687962685195832;-8.9901;0.1881;-6.1822;
687962695302811;-8.9471;0.4807;-5.5929;
687962705409790;-8.9471;-0.0296;-5.3581;
687962715505155;-7.3469;0.0996;-3.9425;
687962725612134;-8.4248;-0.3820;-4.1818;
687962735719113;-9.2632;0.6051;-4.7183;
687962745834894;-10.9762;0.4588;-0.9215;
687962755941873;-5.7275;1.2736;2.4176;
687962766048853;-3.4615;-1.0932;-1.1803;
687962776144165;-8.1422;-0.5734;-13.0789;
687962786251144;-18.3518;-1.1390;-16.3319;
687962796358123;-17.2379;-0.7986;-5.3414;
687962806499582;-5.1598;-2.1592;-1.0271;
687962816606561;-5.0067;-2.4781;-1.5108;
687962826713540;-8.1422;-1.7713;0.0652;
687962836792186;-9.1364;-0.7029;0.2139;
687962846899165;-9.2273;0.5285;-1.6570;
687962857006144;-8.5256;0.9452;-3.8273;
687962867111040;-9.5773;-0.0945;-5.9856;
687962877218019;-12.3990;-0.1400;-6.0263;
687962887324998;-10.3487;-0.8994;-2.6943;
687962897438123;-7.0618;-1.4384;-2.2941;
687962907545103;-8.1589;-1.1004;-3.8704;
687962917652082;-8.7341;-0.9401;-3.0057;
687962927750155;-9.4262;-0.6502;-4.0262;
687962937857134;-11.6707;0.4038;-4.0406;
687962947964113;-9.2656;-0.2500;-2.6225;
687962958125884;-8.0010;0.9571;-2.8451;
687962968232863;-9.5100;0.0182;-2.9818;
687962978339842;-11.2349;0.8495;-3.5040;
687962988421769;-8.4535;1.2063;-2.8884;
687962998528748;-8.9949;0.9117;-3.1325;
687963008635728;-8.7628;0.4612;-2.2965;
687963018729373;-9.7376;0.5692;-3.1110;
687963028836353;-8.9542;-0.0559;-2.3901;
687963038943332;-7.8835;0.3296;-3.3912;
687963049043071;-9.5605;0.4373;-4.7928;
687963059150051;-10.1569;-0.1591;-5.0180;
687963069257030;-10.0780;0.2698;-3.8369;
687963079394634;-7.7877;-0.8393;-3.4992;
687963089501613;-9.0718;0.3009;-3.0153;
687963099608592;-10.5281;0.2841;-1.9421;
687963109708957;-9.4214;-0.2668;-1.9516;
687963119815936;-9.7041;0.4301;-2.0617;
687963129922915;-9.5243;0.0996;-1.9851;
687963140051457;-9.7161;-0.4968;-3.7005;
687963150158436;-9.3449;0.0733;-3.6500;
687963160265415;-7.7064;-0.9855;-3.0057;
687963170326769;-9.1651;-0.6742;-4.5437;
687963180433748;-10.5736;-0.6239;-3.1639;
687963190540728;-8.6022;-0.6885;-2.8164;
687963200656665;-8.5232;-0.5734;-4.3256;
687963210763644;-10.7127;-0.3843;-3.4944;
687963220870623;-10.0609;-1.2682;-2.2822;
687963230997134;-8.1039;-0.8874;-2.4978;
687963241104113;-9.3281;0.0661;-2.6919;
687963251211092;-8.5759;-0.4561;-3.1615;
687963261322186;-9.9580;-0.5686;-2.7541;
687963271429165;-9.4071;-0.4729;-2.3133;
687963281536144;-10.1856;-1.8359;-3.3027;
687963291643332;-9.9413;-1.1605;-3.0559;
687963301750311;-8.0776;-0.9832;-3.5064;
687963311857290;-8.1015;-0.6766;-5.0731;
687963321953853;-8.6907;-0.3556;-5.4993;
687963332060832;-10.5927;-0.1472;-4.8742;
687963342167811;-8.8155;-0.8201;-1.2497;
687963352283644;-8.8801;-1.6346;-2.1362;
687963362390623;-10.8538;-1.3687;-4.3543;
687963372497603;-8.9351;-0.6191;-3.0727;
687963382611873;-8.5639;-0.3242;-3.0727;
687963392718853;-8.5376;-0.9042;-4.6035;
687963402825832;-10.6911;-0.2213;-4.1243;
687963412928540;-9.0191;0.3009;-1.2643;
687963423035519;-9.0718;-1.1940;-2.1817;
687963433142498;-8.8059;-0.6120;-3.8728;
687963443256821;-9.8862;0.9500;-3.4729;
687963453363801;-9.9102;0.2219;-2.0668;
687963463470780;-8.3267;-0.2477;-1.9588;
687963473573801;-10.0804;-0.3290;-2.7709;
687963483680780;-10.4611;0.2171;-2.8618;
687963493787759;-8.8179;0.8447;-2.2295;
687963503885519;-8.1374;-0.2453;-1.8033;
687963513992498;-9.4669;0.4325;-3.4490;
687963524099478;-9.3640;0.8136;-3.8752;
687963534207707;-9.8791;0.6888;-3.1038;
687963544314686;-10.7533;0.8064;-0.2629;
687963554421665;-8.3195;0.7753;0.0413;
687963564532811;-8.1637;0.1642;-2.6489;
687963574639790;-9.1819;0.3296;-5.3725;
687963584746769;-8.5878;0.5166;-3.3051;
687963594848644;-8.5352;0.8973;-2.4595;
687963604955936;-11.2612;0.1283;-2.7541;
687963615063228;-12.2746;0.0661;-0.0855;
687963625178540;-10.8323;-0.3051;1.2870;
687963635285832;-6.1493;-0.1424;-2.6728;
687963645393123;6.4415;0.2483;-6.7211;
687963655495571;-7.2727;3.7552;-14.4443;
687963665602863;-37.1064;3.4391;-2.0521;
687963675710155;-22.8888;-5.0985;23.7903;
687963685817707;-1.7847;-1.2156;15.3392;
687963695924998;-6.9876;0.7080;-3.7005;
687963706032290;-11.7165;-1.6657;-12.6930;
687963716135519;-3.1190;-2.8445;-4.3663;
687963726242811;-4.9322;-2.9115;0.0221;
687963736350103;-13.7333;0.5070;-3.3194;
687963746449790;-12.0015;2.7467;-1.9540;
687963756557030;-6.9637;1.8963;2.5448;
687963766664321;-8.8872;1.3430;-2.2702;
687963776757655;-11.4697;0.4711;-5.7413;
687963786864946;-10.5544;0.7633;-1.2520;
687963796972186;-6.3888;2.0761;-0.5551;
687963807144530;-9.2850;2.1885;-3.8895;
687963817251821;-11.4649;1.7596;-2.2056;
687963827359113;-6.9494;2.0734;-1.4653;
687963837419894;-6.7672;1.4818;-2.8669;
687963847527186;-11.0575;0.5668;-2.9243;
687963857634478;-8.9375;0.6960;-3.9230;
687963867744269;-7.0929;0.7223;-4.2299;
687963877851561;-7.8906;-0.3604;-5.4873;
687963887958853;-11.3258;0.4421;-5.4682;
687963898063957;-13.6352;1.3167;3.7352;
687963908171248;-0.3832;1.0026;12.5387;
687963918278540;-0.2874;-1.7593;-6.9775;
687963928388019;-27.4235;-1.9606;-29.0016;
687963938495311;-17.8298;1.6089;-15.5270;
687963948602603;5.4042;-0.1974;6.7944;
687963958735832;-0.7762;-4.8927;1.5912;
687963968843123;-18.2895;-3.3165;-6.9942;
687963978950415;-15.6784;-0.7627;-0.1813;
687963989044061;-3.5213;-1.1868;5.1655;
687963999151353;-5.3372;-2.0444;-2.0354;
687964009258644;-13.7692;-0.9999;-6.2252;
687964019363644;-10.9666;-1.4862;-1.0319;
687964029470936;-5.0713;-2.2122;-1.7647;
687964039578228;-11.0767;-2.7464;-9.9359;
687964049679165;-13.3837;-1.9510;-6.8025;
687964059786457;-2.6686;-0.8707;0.0846;
687964069893748;-7.3493;-3.0096;-5.9163;
687964080013853;-14.2986;-2.6575;-7.5715;
687964090121144;-7.7183;-0.7699;0.3407;
687964100228436;-6.5396;-1.5413;-0.6245;
687964110317655;-10.7318;-1.7330;-3.9640;
687964120424946;-11.3139;-1.3639;-0.6939;
687964130532238;-10.4372;-2.0898;0.2880;
687964140648853;-9.2946;-1.9439;-2.9961;
687964150756144;-9.0048;-1.3400;-5.1449;
687964160863436;-10.7438;-0.6550;-5.4203;
687964170972082;-10.3196;-1.4527;-1.3576;
687964181079373;-9.1149;-1.1267;-0.0832;
687964191186665;-9.2755;-0.7244;-2.7709;
687964201293228;-8.8298;-0.9114;-4.1387;
687964211400519;-8.8490;-0.4585;-4.0837;
687964221507811;-10.7581;-0.6694;-3.7364;
687964231602238;-10.4516;-0.5542;-2.1314;
687964241709530;-7.9651;-0.4250;-1.4174;
687964251816821;-8.1999;-0.1926;-2.5624;
687964261942290;-9.6730;0.0852;-2.9195;
687964272049582;-7.0810;0.3679;-4.0143;
687964282156873;-10.6696;-0.0176;-3.8680;
687964292275103;-11.4912;0.5261;-1.8416;
687964302382394;-8.4607;1.1010;-0.2246;
687964312489686;-7.5003;0.6673;-2.1099;
687964322572290;-10.1067;0.0087;-2.4165;
687964332679582;-9.4884;0.1499;-2.5385;
687964342786821;-8.3387;0.0709;-2.4763;
687964352907655;-8.8394;-0.2788;-4.5437;
687964363014946;-10.6050;0.0159;-5.9952;
687964373122238;-11.1775;-0.3242;-3.6523;
687964383233019;-9.1890;-0.6263;-1.7145;
687964393340311;-7.7710;-1.8909;-2.1147;
687964403447603;-9.8647;-2.3509;-4.7231;
687964413548228;-9.6180;-1.3974;-4.2682;
687964423655519;-9.9437;-0.9473;-2.9315;
687964433762811;-7.1698;-0.8946;-2.6082;
687964443878228;-7.6176;-1.2826;-4.4429;
687964453985519;-9.2922;-1.5532;-5.1879;
687964464092811;-9.4334;-1.5461;-4.9364;
687964474186353;-10.4683;-1.4480;-3.0224;
687964484293592;-8.9949;-1.7186;-2.2510;
687964494400936;-8.4993;-0.7484;-2.3327;
687964504509321;-10.2574;-0.9760;-2.9865;
687964514616613;-9.3185;-1.9893;-2.6010;
687964524723905;-9.2178;-1.8909;-2.9794;
687964534838644;-10.9211;-1.8311;-3.5877;
687964544945936;-9.9102;-0.8827;-4.7207;
687964555053228;-8.0441;-0.2883;-3.1998;
687964565159738;-7.7877;0.0781;-3.2955;
687964575267030;-9.5148;0.0637;-4.2132;
687964585374321;-9.4143;0.3153;-3.3505;
687964595475415;-9.3185;0.3153;-4.3759;
687964605582759;-8.3889;0.2100;-3.9135;
687964615690051;-8.9279;-0.0296;-2.3877;
687964625798228;-8.5950;-0.7244;-2.9172;
687964635905571;-9.5629;0.4349;-3.2979;
687964646012863;-10.4204;0.7657;-3.3099;
687964656116665;-9.4358;0.2961;-2.0644;
687964666224009;-8.5113;0.7394;0.2785;
687964676331353;-9.2225;0.2722;-2.4452;
687964686509478;-10.4635;1.3023;-3.8871;
687964696616821;-8.4730;1.2182;-3.2812;
687964706724113;-8.9088;0.7247;-4.1746;
687964716771196;-9.5100;1.7189;-3.6547;
687964726878592;-9.4621;1.6854;-6.0311;
687964736985884;-10.1139;2.8065;-5.2119;
687964747129686;-8.8466;1.8389;-4.2251;
687964757237030;-8.3578;2.4640;-3.9736;
687964767344373;-8.8370;1.5248;-3.3577;
687964777416040;-8.8513;1.7788;-4.5867;
687964787523384;-10.0179;2.2771;-4.2826;
687964797630676;-11.4123;1.2182;-2.7326;
687964807725311;-8.2549;0.4277;-0.8737;
687964817832655;-7.8619;0.2937;-2.1505;
687964827939946;-9.2321;0.3296;-2.9746;
687964838075623;-9.3042;-0.0682;-3.8154;
687964848182967;-9.3784;0.6099;-4.5126;
687964858290259;-10.5688;0.2291;-4.9364;
687964868361561;-7.3974;-1.0549;-2.8211;
687964878468905;-7.4955;-0.9855;-3.9568;
687964888576196;-9.5438;-0.7388;-4.4309;
687964898703905;-10.2383;-0.5399;-4.7713;
687964908811248;-9.9891;-0.4059;-4.1602;
687964918918540;-8.5854;0.2483;-1.2162;
687964929024165;-7.6657;0.3727;-1.6475;
687964939131509;-9.5845;0.1666;-3.5016;
687964949238801;-11.7691;0.1331;-3.2166;
687964959354686;-9.7878;0.2506;-2.9028;
687964969462030;-7.6415;-1.6851;-2.9530;
687964979569321;-7.9460;-0.9401;-3.6452;
687964989659269;-9.3520;-0.8994;-4.3208;
687964999766613;-10.6696;-0.7531;-5.6982;
687965009873905;-10.0202;-1.2419;-3.9664;
687965019988019;-7.3588;-1.0860;-2.7111;
687965030095363;-7.8978;-0.9090;-3.6667;
687965040202655;-9.5195;-1.2371;-3.0727;
687965050314165;-9.6921;-1.3711;-3.3721;
687965060421509;-9.9221;-0.9018;-3.1253;
687965070528801;-9.7543;-0.7603;-2.8403;
687965080654061;-10.4300;-1.1438;-2.8451;
687965090761405;-9.5462;-0.9975;-2.8860;
687965100868696;-7.7518;-1.9702;-2.6752;
687965110978436;-8.4105;-1.1052;-3.8512;
687965121085780;-10.3268;-0.7484;-4.3591;
687965131193071;-8.8872;-0.4944;-3.2740;
687965141287082;-6.2545;-0.7412;-3.7029;
687965151394426;-8.5519;-0.1735;-4.7088;
687965161501717;-5.2534;0.6458;-4.8981;
687965171609165;-5.4736;0.3751;-4.8431;
687965181716509;-24.8199;1.4195;-4.1267;
687965191823801;-25.4857;-0.7436;2.1278;
687965201936353;-3.1044;-2.5283;8.3249;
687965212043696;-1.1498;-1.7665;3.4884;
687965222150988;-8.8131;-0.8321;-5.5427;
687965232230519;-13.5730;-0.2285;-6.5725;
687965242337863;-10.2144;1.9131;-2.7422;
687965252445155;-5.8570;2.0761;-4.7641;
687965262573332;-7.7542;0.9787;-7.9956;
687965272680676;-7.6128;1.1608;-6.5964;
687965282787967;-7.3158;1.0603;-4.7976;
687965292900207;-8.9207;0.3272;-5.1640;
687965303007551;-8.4033;0.4373;-3.8608;
687965313114842;-7.8882;-0.3242;-2.9387;
687965323231769;-9.5267;-0.4202;-2.5648;
687965333339113;-10.6433;-0.0176;-0.8330;
687965343446405;-12.5477;0.8997;1.0857;
687965353527342;-4.1946;-0.2381;5.9246;
687965363634686;-1.0229;-1.7258;-10.0364;
687965373741978;-17.0297;-1.2036;-28.1249;
687965383861821;-17.3339;4.1049;-5.7915;
687965393969165;-6.9446;7.5090;7.0843;
687965404076457;-4.6328;2.2747;-1.8607;
687965414181353;-8.5400;-0.5255;-2.8068;
687965424288696;-13.6783;-0.8201;0.2330;
687965434395988;-11.2229;-1.4288;1.7471;
687965444519061;-7.4668;-2.4829;-2.6177;
687965454626405;-7.9914;-1.3208;-4.7737;
687965464733696;-8.7003;-0.9209;-2.8355;
687965474823228;-8.4873;-0.5447;-4.3448;
687965484930571;-9.7998;0.2578;-5.6791;
687965495037863;-9.9078;0.3081;-3.2692;
687965505144321;-8.9016;0.1044;-3.2309;
687965515251665;-8.6333;-0.4848;-3.6790;
687965525358957;-9.4621;-0.4801;-1.4414;
687965535478019;-8.7290;-0.7412;-2.2152;
687965545585363;-11.4625;-0.4944;-3.2477;
687965555692655;-10.5760;-0.8201;-0.9168;
687965565782238;-8.1781;-1.2060;-1.4414;
687965575889582;-8.8059;-1.4192;-4.8933;
687965585996873;-10.6122;-1.2778;-3.5542;
687965596095728;-10.0202;-1.3137;-2.2965;
687965606203019;-13.6041;-1.7474;-3.5710;
687965616310311;-4.1225;0.0517;-4.3735;
687965626466821;-4.8054;0.3033;-5.0420;
687965636574061;-12.7343;-0.5207;-4.9220;
687965646681405;-13.3143;0.5429;-3.3745;
687965656727707;-8.2980;-0.5447;-2.5481;
687965666834998;-5.7275;-0.8417;-3.5471;
687965676942238;-8.3985;-0.6622;-4.0549;
687965687125311;-11.7500;0.6218;-5.0539;
687965697232603;-10.6122;0.7490;-3.3745;
687965707339894;-7.3540;0.8255;-2.9100;
687965717381873;-7.1073;0.4974;-3.6284;
687965727489165;-8.9949;0.7418;-4.3472;
687965737596457;-11.4194;1.0795;-4.1148;
687965747707655;-8.5854;0.9763;-2.3228;
687965757814946;-7.1216;0.0613;-3.8560;
687965767922238;-14.3273;0.7418;-3.4992;
687965778036978;-11.1341;0.5644;0.2785;
687965788144269;-9.3329;1.3119;0.3335;
687965798251561;-7.9579;0.5788;-0.5743;
687965808381248;-7.1216;-1.3519;-1.5852;
687965818488540;-7.4955;-1.7498;-2.2893;
687965828595832;-9.4980;-2.7150;-3.3649;
687965838675155;-10.3582;-2.3964;-4.2849;
687965848782446;-9.0670;-2.1114;-2.7852;
687965858889738;-9.3640;-2.5283;-1.8392;
687965869016353;-9.1555;-2.5714;-1.6786;
687965879123644;-9.7783;-2.1688;-1.8703;
687965889230936;-10.9020;-2.1879;-1.0247;
687965899359738;-8.6166;-1.6442;-0.5599;
687965909467030;-10.3101;-1.6155;-2.9291;
687965919574321;-12.0852;-1.5102;-1.0439;
687965929641717;-5.7203;-0.7507;0.0724;
687965939749009;-8.3865;0.1307;-7.7369;
687965949856301;-12.8016;-0.9473;-9.1382;
687965959988540;-9.7184;1.3454;-5.2744;
687965970095832;-6.8800;2.2914;-4.2060;
687965980203123;-7.3708;0.6936;-3.5112;
687965990285623;-10.2048;0.6817;-3.0535;
687966000392915;-9.4406;0.7777;-2.7302;
687966010500207;-8.6477;-0.1041;-2.8860;
687966020620103;-9.2560;-0.7029;-3.3817;
687966030727394;-8.2023;-0.5375;-3.9159;
687966040834686;-6.2067;-0.7149;-4.7976;
687966050941769;-9.3712;0.0972;-6.8647;
687966061049061;-9.3855;1.4219;-5.3222;
687966071156353;-6.8608;2.5071;-4.0669;
687966081278332;-9.0933;2.9264;-6.0024;
687966091385623;-7.6657;1.5802;-5.0085;
687966101492915;-3.6003;1.6950;-4.5389;
687966111585728;2.4817;2.2747;-8.8436;
687966121693019;-21.0733;1.3597;-8.3429;
687966131800311;-34.8377;0.3248;2.9495;
687966141923644;-8.1135;3.3096;11.4296;
687966152030936;6.1349;2.4329;3.4908;
687966162138228;-9.4406;-3.4265;-6.7307;
687966172246769;-15.7170;-2.6910;-6.2587;
687966182354061;-8.6333;0.7681;-2.1266;
687966192461353;-5.5071;1.0172;-5.4443;
687966202554165;-7.9508;-1.9149;-6.3329;
687966212661457;-9.1795;-2.9450;-4.8383;
687966222768748;-6.8704;-3.2444;-4.8550;
687966232867186;-5.7371;-3.9464;-3.4131;
687966242974478;-8.0584;-4.4064;-3.8369;
687966253081769;-8.1446;-4.2506;-4.6274;
687966263207915;-10.6672;-3.2925;-1.8081;
687966273315207;-5.3779;-3.0769;4.0250;
687966283422498;0.7905;-2.2816;-8.9417;
687966293536040;-17.9136;-5.0363;-27.3344;
687966303643332;-19.8754;-0.9473;-4.4886;
687966313750623;-3.3969;4.6391;7.4028;
687966323854582;-6.2665;2.1311;-1.3696;
687966333961873;-17.7386;-0.3194;-1.6116;
687966344069165;-17.8418;2.7658;3.8671;
687966354160207;-7.2918;1.3382;4.7462;
687966364267498;-5.4185;-0.8874;-0.7277;
687966374374790;-10.9379;-1.6561;-6.0479;
687966384491144;-11.2971;-0.7292;-3.2644;
687966394598436;-8.1398;-1.5772;-3.2907;
687966404705728;-8.7290;-1.1509;-5.0946;
687966414802811;-7.9962;-1.2179;-2.7900;
687966424910103;-6.2091;-0.3987;-3.0942;
687966435017394;-8.4754;-0.5638;-4.3065;
687966445145519;-8.4488;-0.0849;-2.9315;
687966455252811;-6.7337;-0.3748;-3.7053;
687966465360103;-9.7208;0.4974;-4.4142;
687966475450936;-11.2732;1.1752;-1.0391;
687966485558228;-9.1771;1.8939;-1.3887;
687966495665519;-9.7184;1.2230;-2.8092;
687966505779582;-10.2215;2.2316;-2.5313;
687966515886873;-10.2503;2.2484;-1.9062;
687966525994165;-11.4553;2.1263;-3.9568;
687966536094582;-8.9399;2.2699;-2.1601;
687966546201873;-9.7065;1.8700;-3.5973;
687966556309165;-10.7103;1.4578;-5.1688;
687966566496457;-11.3593;1.3478;-3.6523;
687966576603748;-7.6295;0.7944;-1.7384;
687966586711040;-8.3554;0.8279;-4.4237;
687966596719738;-10.3702;0.2028;-1.9851;
687966606827082;-8.6620;-0.2429;-1.1563;
687966616934373;-6.7170;-0.5207;-3.0655;
687966627113123;-8.1015;-0.9257;-4.5508;
687966637220467;-8.1087;-0.5064;-3.9736;
687966647327759;-9.5701;-0.6311;-4.2610;
687966657388748;-8.9183;-0.6048;-3.8417;
687966667496040;-6.7672;-0.0248;-2.6704;
687966677603384;-7.9962;-0.4298;-4.4982;
687966687712915;-10.7964;-0.8680;-3.2189;
687966697820207;-11.7093;-0.9185;-2.2774;
687966707927551;-10.3511;-1.0813;-1.7192;
687966718041561;-9.9485;-0.6024;-2.3276;
687966728148853;-12.3440;-0.5638;-0.7828;
687966738256196;-12.2001;-0.3314;0.4965;
687966748368644;-9.7089;-0.2907;-1.5326;
687966758475936;-9.7567;-1.0119;-1.7480;
687966768583280;-8.7700;-1.5939;-3.0129;
687966778688436;-8.7772;-0.7603;-4.3017;
687966788795728;-6.7457;-0.7220;-4.1578;
687966798903071;-7.2942;-0.7795;-5.4921;
687966808990936;-9.5940;-0.2070;-5.6527;
687966819098228;-9.6754;0.1427;-3.9927;
687966829205571;-7.9795;-0.2309;-3.1831;
687966839322394;-6.8031;0.0709;-3.9135;
687966849429686;-8.4296;0.6266;-5.3557;
687966859537030;-9.4573;0.6840;-3.4202;
687966869645415;-8.1517;1.1943;-3.4178;
687966879752707;-8.6189;0.7490;-4.8048;
687966889860051;-8.4392;1.2903;-4.7785;
687966899942498;-10.2909;1.9011;-4.2084;
687966910049790;-2.2445;2.0279;-4.4189;
687966920157134;-0.3688;2.0662;-6.6060;
687966930296040;-34.4474;1.1321;-3.4059;
687966940403332;-32.0901;1.1871;7.1560;
687966950510676;3.3826;3.8031;13.9711;
687966960594165;6.7122;2.7108;0.9182;
687966970701457;-11.5439;-5.2256;-13.9268;
687966980808801;-21.9547;-5.9946;-9.2530;
687966990925103;-25.1288;-0.3003;6.0613;
687967001032394;-3.1741;8.4670;5.7452;
687967011139738;6.3745;2.6701;-1.6570;
687967021261405;-7.3998;-4.8661;-12.6882;
687967031368696;-13.2975;-3.3452;-8.6231;
687967041476040;-8.7844;1.4841;-3.5686;
687967051585519;-10.1258;4.3397;-3.0631;
687967061692811;-2.8026;1.1177;6.9117;
687967071800155;5.6318;-1.9196;-7.5691;
687967081912238;-19.0561;-3.5871;-36.7463;
687967092019530;-21.1714;1.1991;-8.4338;
687967102126873;-5.8738;4.9170;10.3517;
687967112229478;-1.8637;3.0724;3.0431;
687967122336769;-4.5179;-0.5901;-4.1722;
687967132444113;-17.9064;-1.2275;-11.5265;
687967142550936;-23.1619;2.1718;-1.2835;
687967152658228;-5.4760;2.6725;10.5048;
687967162765571;-2.7835;-0.0921;0.0173;
687967172875571;-11.8361;-2.5977;-4.6131;
687967182982863;-9.2393;-2.2289;-1.2811;
687967193090207;-10.2598;0.0517;-5.1209;
687967203187915;-9.7161;0.4711;-3.8082;
687967213295207;-5.2774;-0.4442;-3.1472;
687967223402551;-8.9638;0.4205;-6.5797;
687967233510988;-9.1675;0.9117;-3.1543;
687967243618280;-5.2774;0.1259;-2.3758;
687967253725571;-8.8825;0.8662;-5.8301;
687967263832863;-10.9953;1.2374;-1.9181;
687967273947498;-8.0656;0.4807;0.2641;
687967284054790;-8.7628;0.0446;-3.3505;
687967294162134;-11.3928;-0.1376;-3.6790;
687967304261769;-9.6323;-1.0525;-0.6221;
687967314369061;-10.7151;-0.7340;-3.0033;
687967324476405;-10.6863;-0.5830;-2.2702;
687967334595311;-8.8968;-0.3700;-2.2965;
687967344702603;-8.6883;0.0541;-4.0525;
687967354809946;-9.3138;-0.4561;-3.2261;
687967364894686;-8.0082;-0.6814;-2.9076;
687967375001978;-9.6203;-0.0559;-4.8574;
687967385109321;-10.9403;-0.4561;-3.1950;
687967395227915;-8.1278;-0.1208;-1.6164;
687967405335207;-8.9423;-1.2634;-3.5160;
687967415442551;-10.5066;-1.3950;-2.8235;
687967425552707;-9.2779;-0.9377;-1.6834;
687967435659998;-8.5831;-1.1701;-3.4202;
687967445767342;-10.0609;-0.7771;-3.1301;
687967455868540;-9.2850;-0.3939;-2.4954;
687967465975832;-10.1904;-0.1902;-2.5241;
687967476083176;-9.1938;-0.6933;-1.7216;
687967486190623;-7.0355;-0.3461;-1.4773;
687967496297915;-9.4789;-0.6574;-3.9951;
687967506405259;-10.6720;-0.7627;-3.2979;
687967516490415;-8.5280;-0.3266;-1.8990;
687967526597759;-10.0708;-0.5327;-4.6944;
687967536705051;-9.6419;-0.8970;-3.4561;
687967546838436;-7.3493;-0.6383;-3.2596;
687967556945728;-8.7556;-0.3003;-5.7939;
687967567053071;-11.9513;-0.1998;-4.2921;
687967577149165;-11.2588;0.9978;-0.8928;
687967587256457;-7.2607;0.0637;-1.2185;
687967597363801;-6.8919;-0.4968;-2.3204;
687967607471144;-8.9160;-0.1687;-4.0597;
687967617578436;-10.6792;-0.1328;-4.0645;
687967627685780;-8.4969;0.3200;-3.3147;
687967637821301;-7.4836;-0.2142;-3.9736;
687967647928592;-7.9388;-0.2094;-4.3567;
687967658035936;-9.5557;-0.0802;-4.4815;
687967668117238;-5.9240;-0.0248;-4.5508;
687967678224530;-15.1514;0.2243;-3.4059;
687967688331873;-26.0199;0.9188;1.9074;
687967698440311;-11.6925;2.6868;9.0269;
687967708547603;1.0134;2.9743;3.6371;
687967718654946;-7.5386;0.6410;-7.3726;
687967728758228;-13.3430;-3.0984;-9.7179;
687967738865519;-8.3267;-1.7426;-3.8728;
687967748972863;-3.3727;0.5070;-2.5026;
687967759091978;-7.5051;1.9968;-5.4682;
687967769199269;-10.1067;0.7394;-5.4419;
687967779306613;-8.6596;0.2124;-2.9148;
687967789413540;-6.7863;0.5429;-4.9268;
687967799520832;-9.2201;1.1560;-3.8512;
687967809628176;-4.8556;-0.3532;-0.5480;
687967819740936;-6.9135;0.4325;-12.6523;
687967829848228;-14.9623;1.8003;-12.3194;
687967839955571;-11.8193;2.5262;-0.2174;
687967850057186;-9.2779;1.7237;0.7624;
687967860164478;-10.3005;0.8542;1.3923;
687967870271821;-12.2961;-0.3748;2.5783;
687967880397603;-12.3177;-0.1328;3.0646;
687967890504894;-7.4883;-1.5341;2.2549;
687967900612238;-7.6104;-2.3964;-4.2634;
687967910710103;-10.9786;-2.8780;-6.0383;
687967920817394;-9.0335;-1.3519;-2.0644;
687967930924738;-6.9302;1.0842;-3.9278;
687967941029165;-9.3353;1.5969;-4.8168;
687967951136457;-7.7136;0.7753;-3.8249;
687967961243801;-8.4081;1.1154;-4.9340;
687967971364478;-8.8011;0.2483;-3.6212;
687967981471769;-7.3588;-0.0344;-1.6690;
687967991579113;-9.0550;0.0446;-4.3974;
687968001665571;-10.6481;-0.2189;-4.1219;
687968011772863;-9.8216;0.0757;-2.3109;
687968021880207;-9.5438;0.7295;-2.9459;
687968032001040;-9.7496;0.6027;-2.0115;
687968042108332;-7.0953;0.1187;-1.7097;
687968052215676;-7.6223;-0.2764;-2.9028;
687968062318019;-9.4023;0.0446;-4.9173;
687968072425311;-8.8968;0.4229;-5.0731;
687968082532655;0.5988;0.8447;-5.1353;
687968092633957;-11.9536;-0.3389;-6.5821;
687968102741248;-29.0070;-0.5830;-2.2056;
687968112848592;-14.7227;0.2243;8.0782;
687968122961040;-1.6481;2.1359;6.5548;
687968133068332;-7.4955;1.6448;-3.7603;
687968143175676;-13.5993;-1.4145;-6.7379;
687968153283853;-10.7438;-2.1066;-2.0668;
687968163391144;-6.1588;-0.2524;-0.9072;
687968173498488;-7.6633;0.1044;-3.2094;
687968183605936;-11.3378;-0.3676;-3.9278;
687968193713228;-11.0671;-0.1878;-2.2319;
687968203820571;-11.4793;0.0206;-1.6475;
687968213918436;-7.5673;-0.5590;4.2072;
687968224025728;2.7885;-1.7713;-1.8703;
687968234133071;-12.3057;-2.2361;-27.8255;
687968244234582;-17.4512;-1.0430;-16.1091;
687968254341873;-6.6906;2.9001;7.1895;
687968264449217;-5.6462;3.4319;-0.9622;
687968274589269;-9.0168;0.6218;-5.7843;
687968284696561;-10.4013;-0.2740;-2.0764;
687968294803905;-9.2779;-0.8827;0.4008;
687968304897186;-6.3168;-0.9544;-1.7719;
687968315004478;-11.2684;-1.8024;-6.2731;
687968325111821;-10.3316;-2.2170;-3.7866;
687968335217811;-6.8246;-1.1868;-2.9865;
687968345325103;-10.2024;-0.5447;-5.3892;
687968355432446;-12.1546;-0.5518;-1.4701;
687968365531665;-8.8466;0.3918;0.3311;
687968375638957;-8.0106;1.0412;-1.6211;
687968385746301;-9.2010;-0.0440;-1.0893;
687968395843853;-9.7017;0.1092;-1.4103;
687968405951144;-10.8156;1.0412;-3.1253;
687968416058488;-9.1819;-0.3796;-0.1860;
687968426162394;-7.7303;-0.0826;-0.4570;
687968436269686;-8.0082;-0.4370;-4.3615;
687968446377030;-9.5366;-0.4513;-5.2190;
687968456484790;-9.9580;-0.0344;-3.2596;
687968466592082;-10.9977;0.6769;-3.0129;
687968476699373;-9.4884;0.8518;-1.5541;
687968486820415;-6.6308;0.6170;-1.7049;
687968496927707;-8.3554;0.7056;-5.0539;
687968507035051;-10.9857;0.0637;-4.8574;
687968517149842;-10.0059;0.8040;-2.1960;
687968527257498;-8.7242;-0.0224;-2.9315;
687968537365051;-8.8155;0.0996;-4.3184;
687968547445103;-7.7614;-0.6526;-2.8813;
687968557552707;-8.8992;-0.1352;-4.0023;
687968567660259;-10.2909;-0.5614;-3.5614;
687968577783384;-9.3305;0.7537;-2.1410;
687968587891040;-5.2989;-0.1041;-2.5911;
687968597998644;-1.9738;-0.4418;-4.9842;
687968608115832;-15.8366;0.0733;-5.4443;
687968618223436;-23.6028;0.1355;-0.5934;
687968628331040;-13.5969;0.7872;7.5344;
687968638443801;-2.7643;1.7620;5.8409;
687968648551353;-6.1971;0.9571;-4.6490;
687968658659009;-10.5760;-1.7498;-9.9407;
687968668740936;-9.7161;-1.6466;-5.9785;
687968678848540;-9.3640;-1.2395;-0.4786;
687968688956144;-9.4358;0.2913;0.3000;
687968699064009;-8.0106;1.3382;-1.8081;
687968709171665;-7.0953;0.1499;-2.9746;
687968719279269;-9.3042;-1.0286;-3.0894;
687968729397759;-2.4434;-1.1797;-2.1649;
687968739505363;-6.3936;-1.2562;-14.9115;
687968749612967;-12.7729;0.1164;-15.7977;
687968759733905;-10.9570;1.4626;-2.5385;
687968769841509;-10.7462;1.7285;-0.1406;
687968779949113;-12.8160;1.9322;-0.1789;
687968790041301;-12.3990;0.5429;5.4984;
687968800148905;-8.8322;-0.0802;4.5305;
687968810256509;-5.8618;0.3894;-1.8248;
687968820363488;-10.1976;-1.4719;-6.8623;
687968830471092;-11.1293;-2.4876;-5.8373;
687968840578696;-7.9651;-0.8827;-0.4519;
687968850695155;-7.6511;-0.0945;-1.6283;
687968860802759;-11.0958;0.2001;-4.5628;
687968870910363;-6.6595;-0.1854;-2.3853;
687968881011821;-7.6896;0.1187;-5.9258;
687968891119426;-11.9342;0.3057;-4.9125;
687968901227030;-7.9170;0.8662;-1.4294;
687968911325884;-6.3769;0.9906;-3.3458;
687968921433488;-9.3449;0.7490;-4.9627;
687968931541092;-10.1354;1.0938;-3.0416;
687968941649946;-9.8743;1.6161;-2.3204;
687968951757551;-11.3091;0.5907;-1.0654;
687968961865207;-10.5162;-0.1400;-0.5599;
687968971969321;-7.8858;-0.1926;-2.0521;
687968982076926;-10.6241;-0.2166;-4.6155;
687968992184530;-14.1909;0.5166;-2.4428;
687969002297655;-9.8145;0.7319;1.2464;
687969012405311;-7.9986;0.5405;-1.5326;
687969022512863;-9.9652;-0.5853;-3.9159;
687969032643280;-9.5243;-0.3123;-3.8776;
687969042750884;-7.7327;-0.3796;-3.1229;
687969052858488;-7.1961;-1.0765;-3.8943;
687969062939634;-10.0585;-1.1438;-5.4491;
687969073047238;-10.1210;-1.9917;-3.3051;
687969083154842;-8.3459;-0.8970;-3.7675;
687969093267134;-10.2120;0.1666;-3.9063;
687969103374738;-8.6644;-0.2620;-1.9947;
687969113482342;-7.3804;0.2171;-2.1266;
687969123578071;-9.9604;-0.6239;-4.4839;
687969133685676;-11.4506;-0.3604;-3.8417;
687969143793280;-11.5415;0.5142;-2.7159;
687969153911613;-9.4454;0.0326;-0.8569;
687969164019217;-9.6873;-0.8058;-1.4581;
687969174126821;-9.2584;-1.1414;-0.4376;
687969184227238;-7.7064;-1.7617;-3.4370;
687969194334842;-10.7438;-0.5231;-5.6264;
687969204442394;-9.8432;-0.5542;-2.5696;
687969214555259;-8.9136;-0.5088;-1.6738;
687969224662863;-8.2334;-0.6455;-2.4667;
687969234770467;-7.0618;-0.6622;-3.7268;
687969244879634;-7.9819;-0.8201;-4.8359;
687969254987238;-8.8250;-0.5327;-4.4501;
687969265094842;-9.7663;-0.7364;-4.6274;
687969275196821;-8.7844;-0.4681;-2.7565;
687969285304426;-7.9555;-0.2835;-2.4165;
687969295412030;-9.2922;0.6314;-4.4142;
687969305513019;-7.9914;0.5859;-1.8655;
687969315620623;-5.8834;0.0087;-0.8976;
687969325728228;-7.7207;-0.0392;-3.9302;
687969335844426;-9.6993;-0.1328;-4.9412;
687969345952030;-6.1660;0.6529;-3.8704;
687969356059686;-13.1967;-0.2883;-2.4404;
687969366165051;-36.3589;0.3176;5.1942;
687969376272655;-15.8031;1.1680;14.7090;
687969386380259;4.1611;4.8858;9.6760;
687969396556405;-7.5314;4.0714;-11.5840;
687969406664009;-14.9886;-3.2949;-15.4959;
687969416771613;-7.7016;-4.7776;-2.5337;
687969426807082;-3.7609;-2.0276;4.9140;
687969436914686;-6.3506;-0.4753;-0.5025;
687969447022238;-8.9495;-0.4777;-7.5093;
687969457122707;-6.9206;-1.1438;-5.9856;
687969467230311;-5.9264;-1.6732;-3.1038;
687969477337863;1.0875;-1.8766;-10.6929;
687969487452603;-12.5764;-0.4418;-29.1814;
687969497560207;-19.3149;3.5635;-14.1186;
687969507667811;-7.6920;4.6534;7.9825;
687969517755519;-5.2678;5.8346;4.1115;
687969527862759;-14.0375;2.0761;1.3780;
687969537969946;-16.3493;-0.7484;3.4310;
687969548093228;-10.7270;0.0948;5.0862;
687969558200415;-4.6256;0.4540;1.8835;
687969568307655;-7.5529;-2.6073;-6.3476;
687969578432551;-10.3893;-4.4734;-4.4886;
687969588539790;-6.8246;-3.4505;0.2833;
687969598646978;-11.5152;-1.4192;-5.2549;
687969608734269;-11.2301;-0.4394;-3.8776;
687969618841457;-4.6567;0.4229;0.3215;
687969628948696;-6.8079;1.1776;-6.4505;
687969639055988;-11.1293;0.1499;-5.9545;
687969649163176;-8.5113;0.3511;-1.6977;
687969659270415;-7.9747;1.3789;-4.0597;
687969669380571;-10.4468;0.5142;-3.5064;
687969679487759;-10.4635;-0.1783;1.2057;
687969689594998;-12.4110;0.9547;-0.4977;
687969699691301;-15.5085;2.0809;-0.7516;
687969709798540;-9.1986;1.9705;1.9169;
687969719905728;-6.9541;1.4411;-1.8105;
687969730030936;-9.1531;-0.9616;-6.4146;
687969740138123;-8.6381;-1.4073;-5.9521;
687969750245363;-7.3229;-0.4848;-4.4405;
687969760351769;-7.1315;-1.8598;-2.9674;
687969770458957;-6.2976;-2.0300;-4.8455;
687969780566196;-7.2559;-2.1999;-5.5280;
687969790667707;-8.3076;-1.8072;-4.9244;
687969800774894;-9.5076;-0.4131;-4.7569;
687969810882134;-8.3913;-0.0655;-3.0511;
687969820990728;-8.9758;-0.4202;-2.4141;
687969831097967;-11.4793;0.9835;-2.1266;
687969841205155;-12.3033;1.6591;-0.3586;
687969851319998;-8.7987;1.1967;2.1374;
687969861427238;-7.2799;0.5357;-0.1693;
687969871534426;-8.1159;-1.4240;-3.1759;
687969881649165;-9.9461;-1.7019;-1.6738;
687969891756405;-10.1880;-1.0765;-0.4666;
687969901863592;-8.0776;-0.7316;-1.4390;
687969911964790;-6.1660;-1.1844;-2.7900;
687969922072030;-6.9230;-1.2921;-4.3639;
687969932179217;-6.5372;-1.3496;-6.7092;
687969942283332;-5.4497;0.2674;-7.7393;
687969952390519;-22.9370;0.9404;-3.7627;
687969962497759;-26.1948;1.2422;6.6841;
687969972609686;-4.6639;2.7538;11.3650;
687969982716873;0.5318;3.1083;2.8729;
687969992824113;-12.0685;-0.3123;-12.3601;
687970002935832;-13.0843;-3.1056;-10.2066;
687970013043071;-9.3233;-0.4370;1.8117;
687970023150259;-9.4167;0.1834;4.4300;
687970033257915;-10.5185;-0.1208;-2.3973;
687970043365155;-11.5271;-1.3280;-4.1195;
687970053472342;-10.4492;-1.9053;-0.8210;
687970063573228;-3.4304;-2.5451;-2.2917;
687970073680415;-10.4204;-1.1339;-20.7443;
687970083787655;-18.8357;0.7872;-13.2727;
687970093900832;-9.1508;0.9212;6.5836;
687970104008071;-3.7250;2.2340;3.2776;
687970114115259;-7.8236;-0.4513;-5.2023;
687970124227498;-10.5377;-1.8957;-5.7796;
687970134334738;-11.0551;0.1475;-3.2261;
687970144441926;-9.4238;-0.6526;-1.3146;
687970154538748;-6.1516;-2.0324;-4.4719;
687970164645988;-8.1685;-2.2935;-6.6206;
687970174753176;-8.6620;-2.0420;-4.5891;
687970184866040;-10.4252;-0.4370;-6.1367;
687970194973280;-9.5172;0.3153;-4.4572;
687970205080467;-6.1875;0.4926;0.5252;
687970215183071;-5.2364;-0.5662;-2.0330;
687970225290311;-6.4845;-0.5255;-5.7126;
687970235397498;1.9116;-0.8779;-4.3663;
687970245506873;-19.2766;-0.6479;-6.4720;
687970255614113;-39.1855;-0.5853;4.3077;
687970265721301;-6.8608;2.8519;15.0972;
687970275824738;6.6547;6.6009;6.7896;
687970285931978;-13.1465;1.5395;-14.3773;
687970296039165;-16.1623;-5.1586;-9.1262;
687970306150519;-9.2393;-0.8225;3.6491;
687970316257759;-9.1890;2.3707;3.7161;
687970326364946;-9.6515;0.7561;-2.0498;
687970336504165;-10.9475;-0.6766;-2.3133;
687970346611405;-8.6357;-1.8120;4.1043;
687970356718592;4.2353;-3.4505;0.7600;
687970366788176;-9.5821;-1.3089;-32.9566;
687970376895415;-21.3488;1.5969;-26.0719;
687970387002655;-2.8531;-0.1232;15.0299;
687970397114686;-2.1200;4.3134;2.5639;
687970407221873;-13.1513;2.4233;-11.1144;
687970417329113;-12.9858;0.2913;-1.6307;
687970427432498;-11.0791;1.7883;3.0045;
687970437539738;-7.7973;0.1546;0.6090;
687970447646926;-9.0933;-1.1964;-3.3553;
687970457765936;-12.1283;-1.8694;-2.5361;
687970467873176;-9.1603;-1.3567;1.8691;
687970477980363;-9.9724;-0.5806;-2.4930;
687970488070728;-10.8658;-0.8970;-2.1673;
687970498177967;-6.3096;-1.9798;2.8729;
687970508285155;-6.8967;-1.3472;-3.6523;
687970518417082;-10.4539;-1.4432;-6.1630;
687970528524686;-8.0608;-2.0539;-1.0869;
687970538632290;-6.5949;-1.0478;-2.6824;
687970548734113;-9.7878;-1.0430;-6.7187;
687970558841769;-9.8767;-0.7747;-1.9588;
687970568949321;-10.5688;-0.0655;-2.3566;
687970579044790;-12.0972;1.2709;-1.3696;
687970589152394;-9.9891;0.8016;1.5051;
687970599259998;-11.9103;0.8136;-0.1959;
687970609373853;-12.0613;0.8877;-2.1027;
687970619481509;-11.0408;0.8590;-1.4701;
687970629589113;-8.3698;-0.2788;-1.4797;
687970639710259;-8.1111;-1.9582;-3.9425;
687970649817863;-9.2082;-2.5929;-3.2501;
687970659925467;-9.6347;-0.4609;-3.6428;
687970670015103;-9.7472;-0.5925;-4.5221;
687970680122655;-8.0321;-0.5255;-2.3399;
687970690230311;-6.2378;-0.2812;-3.7555;
687970700337967;-6.4080;-0.5686;-7.0684;
687970710445519;-5.9456;0.0039;-7.5811;
687970720553123;-4.0962;0.1187;-6.3667;
687970730660519;-21.1355;1.0890;-4.0358;
687970740768071;-18.6200;1.9490;3.0503;
687970750875676;-5.1120;2.4927;6.8614;
687970760986821;-5.1670;2.8472;-0.1597;
687970771094426;-10.6217;1.5081;-7.3893;
687970781202030;-10.4994;-0.2309;-5.6288;
687970791306613;-8.9231;-0.7962;-0.5097;
687970801414217;-6.9876;-0.1711;-1.3816;
687970811521821;-9.1460;-0.0921;-3.1472;
687970821634269;-9.2489;-0.3724;-1.3528;
687970831741873;-6.6691;-1.0597;3.0909;
687970841849478;-3.9574;-1.0525;-8.0626;
687970851953801;-16.1001;0.8136;-20.1335;
687970862061405;-10.6023;1.3047;-4.6753;
687970872169009;-2.5558;2.9264;8.8735;
687970882279634;-10.0179;2.0686;-2.2415;
687970892387238;-13.5057;-0.0200;-5.4849;
687970902494842;-9.9317;0.1810;-1.2739;
687970912603436;-10.5520;0.8686;1.5769;
687970922711040;-8.5759;0.3799;0.0532;
687970932818644;-11.6659;-0.2812;-2.7924;
687970942919634;-11.0288;-0.3700;-2.8717;
687970953027238;-7.1387;-0.2955;-2.6632;
687970963134842;-11.5869;0.2148;-4.9292;
687970973251769;-15.8007;0.5859;0.9182;
687970983359426;-3.4232;0.2913;2.1087;
687970993466978;2.6877;-0.7364;-7.7249;
687971003566301;-10.2431;-1.9534;-12.9039;
687971013673905;-12.4708;-2.3055;-4.2084;
687971023781509;-7.7231;0.4783;0.2139;
687971033876405;-9.2827;1.8987;-1.0630;
687971043983957;-15.8605;1.5129;-1.5227;
687971054091561;-8.6620;1.9490;0.7816;
687971064218696;-5.6486;1.9155;0.0461;
687971074326301;-9.0215;1.0364;-4.7665;
687971084433905;-12.0087;1.2087;-8.7165;
687971094537342;-18.1508;2.2149;-0.3730;
687971104644946;-11.2158;0.1810;14.2804;
687971114752551;-6.1684;-0.6837;10.1575;
687971124860051;-11.2588;-2.5953;-7.0421;
687971134967655;-10.1545;-2.2170;-8.1583;
687971145075259;-0.2372;-1.2586;-0.2701;
687971155179634;-2.9847;-1.9654;-9.6867;
687971165287238;-19.4898;-2.0324;-12.2716;
687971175394842;-20.2083;-0.1328;6.0494;
687971185510676;-3.9790;0.8806;12.1484;
687971195618332;5.1864;-2.0539;-4.1291;
687971205725884;-9.2632;-1.8646;-14.6213;
687971215819217;-16.0786;-0.4202;-7.5356;
687971225926821;-12.3655;2.2412;0.5228;
687971236034426;-9.2850;1.1656;-1.0941;
687971246140363;-10.4850;0.5309;0.2713;
687971256247967;-9.2201;-0.4944;3.9532;
687971266355571;-9.2560;-0.4370;-0.1860;
687971276557446;-10.1306;-0.8536;-2.8331;
687971286665051;-11.8313;-1.1438;-5.0061;
687971296772655;-17.1374;-1.1605;-3.0823;
687971306798228;-11.4218;-0.7125;6.3440;
687971316905832;-3.7585;-1.5724;6.8877;
687971327013384;-4.9466;-0.9664;-5.5666;
687971337144165;-12.2100;-0.4059;-8.2950;
687971347251769;-13.2374;-1.4743;-1.2018;
687971357359321;-5.9791;-0.1376;-0.2079;
687971367424269;-1.3678;-1.5772;-6.3018;
687971377531873;-8.4945;-0.3099;-8.3788;
687971387639478;-8.6979;0.5883;-5.1138;
687971397767186;1.4542;-0.0631;-5.3581;
687971407874790;-17.8849;-1.2132;-7.2888;
687971417982394;-24.2880;2.4257;0.3455;
687971428092498;-6.9996;3.6882;7.4243;
687971438200103;-3.6003;1.3334;1.1001;
687971448307707;-9.3520;0.8734;-0.4400;
687971458390311;-13.7166;0.6099;1.1530;
687971468497915;-14.9551;0.7944;-1.1348;
687971478605519;-7.2224;0.4325;0.2761;
687971488742915;-4.6543;-2.0348;1.0522;
687971498850519;-12.3990;-1.1339;-2.8956;
687971508958071;-17.5711;-0.5614;1.8906;
687971519041769;-1.4515;-2.0779;4.4037;
687971529149165;-1.2458;-2.1401;-12.1852;
687971539256509;-15.7959;-0.4753;-14.6527;
687971549364686;-12.1834;-0.6287;1.4405;
687971559472082;-4.5179;0.8183;5.5463;
687971569579426;-6.0509;-0.6239;-4.5197;
687971579688957;-12.1068;0.9356;-7.9860;
687971589796353;-12.5740;0.9260;2.0106;
687971599903696;-5.4855;-0.7651;3.2536;
687971610005415;-8.2813;-0.0826;-4.3065;
687971620112811;-12.2937;-0.8297;-2.3590;
687971630220155;-11.5678;0.3918;-0.9718;
687971640330103;-12.8399;1.7213;-2.5481;
687971650437498;-13.3980;0.9954;2.0824;
687971660544842;-3.2913;-0.4250;2.1924;
687971670655936;-5.6797;1.0962;-4.2251;
687971680763332;-16.8835;0.1283;-3.1902;
687971690870676;-12.7271;1.4124;0.9685;
687971700995415;-5.9240;1.8604;-2.0498;
687971711102811;-12.5740;-0.6957;-3.4753;
687971721210155;-6.6739;-1.0813;5.4864;
687971731296353;-4.3693;-0.9975;-0.4184;
687971741403748;-14.8041;0.2001;-9.5910;
687971751511092;-11.1488;0.4253;-1.8009;
687971761626769;-3.7083;-0.9592;0.5157;
687971771734165;-7.7064;-0.2237;-6.3595;
687971781841509;-10.4755;0.8183;-5.4897;
687971791947811;-9.8647;-0.5566;0.1421;
687971802055207;-11.1245;0.5213;-3.4370;
687971812162551;-9.4023;1.1584;-4.9866;
687971822270988;-16.9074;-0.2883;0.2139;
687971832378384;-19.7653;2.6198;2.9112;
687971842485728;-0.5342;0.2483;3.1795;
687971852585415;-9.1699;-1.6513;0.7122;
687971862692811;-18.6371;1.5296;-1.7456;
687971872800155;-6.5973;-1.0023;1.1408;
687971882914061;-3.3849;-1.3017;-3.5399;
687971893021457;-9.0120;-0.1807;-6.2444;
687971903128801;-8.5256;-0.0802;-3.2381;
687971913229165;-6.2833;-0.0392;-5.9186;
687971923336561;-9.6706;0.0135;-7.6193;
687971933443905;-5.8475;0.4253;-3.9326;
687971943553123;-4.7118;0.5477;-8.0794;
687971953660519;-12.4493;2.0447;-9.9838;
687971963767863;-4.1106;1.1680;0.8773;
687971973884790;-5.5289;0.5237;1.0810;
687971983992186;-31.2542;2.5167;-3.4322;
687971994099530;-19.3460;4.1982;8.3922;
687972004199998;1.9594;0.8351;9.3598;
687972014307394;-5.5289;-3.2806;4.4252;
687972024414738;-14.7873;-0.2453;-0.1310;
687972034505936;-15.5444;0.0613;-3.4250;
687972044613332;-8.2837;-0.2907;-2.8908;
687972054720676;-3.6843;-0.8656;-3.3553;
687972064846665;-6.3266;-0.3365;-5.6958;
687972074954061;-9.0694;-0.7125;-3.2979;
687972085061405;-7.8523;-1.0190;1.4692;
687972095163905;-2.7380;-1.5413;-2.5050;
687972105271301;-4.7743;-0.9544;-16.9020;
687972115378644;-13.2832;-0.1496;-14.3578;
687972125472446;-21.3631;1.8987;4.0418;
687972135579842;-10.0418;4.7348;14.7736;
687972145687186;-2.5175;1.0962;3.5530;
687972155812290;-10.8757;-1.9463;-11.8211;
687972165919686;-18.0476;0.9571;1.7901;
687972176027030;-10.1785;0.9380;9.5204;
687972186128123;-8.9806;-1.3424;1.1480;
687972196235519;-14.3922;-1.0669;-0.8976;
687972206342863;-11.9608;0.0685;0.9302;
687972216510155;-8.3028;-1.6705;-0.0257;
687972226617551;-9.1149;-0.8273;0.0799;
687972236724894;-2.4721;-0.8345;-0.3849;
687972246763905;-8.2167;-0.5160;-15.9966;
687972256871248;-16.9002;1.2446;-15.0455;
687972266978644;-7.7734;1.1895;7.1512;
687972277078592;-5.1191;1.1728;7.2517;
687972287185988;-5.6103;-0.4825;-10.0795;
687972297293384;-7.2775;-1.4288;-10.2879;
687972307406353;-12.4373;0.3799;-0.6269;
687972317513748;-10.1880;0.7271;1.8212;
687972327621092;-12.0087;0.0278;-2.9291;
687972337752290;-17.0079;0.5142;-1.5350;
687972347859686;-14.3297;0.4660;3.1651;
687972357967030;-8.1206;1.4267;2.6883;
687972368102082;-7.8404;0.1044;1.5027;
687972378209478;-9.0239;-0.4944;0.0628;
687972388316821;-7.0331;0.4926;-5.1664;
687972398400207;-11.4338;0.0924;-8.4841;
687972408507603;-11.7739;1.2494;-4.5580;
687972418614946;-3.6628;0.9117;2.8944;
687972428729686;-3.2506;-0.5590;-3.2213;
687972438837082;-6.4654;-0.6120;-10.1994;
687972448944426;-11.7787;-0.9616;-4.5030;
687972459034061;-13.4626;-1.3065;-1.1539;
687972469141457;-23.0710;5.0174;-5.4179;
687972479248801;0.5725;3.5085;1.2416;
687972489358436;1.2793;-2.4012;3.2536;
687972499465832;-13.7189;3.7457;-4.4692;
687972509573176;-18.6320;5.3794;-3.9302;
687972519679686;-11.9055;-3.4911;0.8991;
687972529787134;0.1463;1.4171;1.1240;
687972539894582;-19.3292;-0.1496;-1.5446;
687972550001144;-16.8619;-0.9688;-0.2797;
687972560108592;2.8029;-0.4490;4.8634;
687972570216040;-0.7810;-2.5044;-5.0539;
687972580328905;-17.5038;0.4349;-9.9144;
687972590436353;-4.1776;0.5309;-3.7364;
687972600543801;-11.9103;-1.3615;-7.2482;
687972610645155;-25.0328;1.8796;-5.9617;
687972620752603;-4.3669;1.9418;7.3980;
687972630860051;6.8321;-2.5738;6.4684;
687972640974582;-4.9753;-4.9047;-1.2018;
687972651082030;-11.3928;-4.3585;-8.6088;
687972661189478;-26.4440;2.1431;-12.1038;
687972671288228;-22.3738;4.2799;-1.6379;
687972681395676;15.0365;-0.0993;11.2762;
687972691503123;-3.6218;-1.7354;-0.2294;
687972701610311;-19.5712;2.4520;-7.7752;
687972711717759;-15.7648;-0.8010;0.1110;
687972721825207;-18.9078;-2.6192;7.0265;
687972731936821;0.8815;2.4664;-4.6777;
687972742044269;-5.7996;-0.4298;-9.2459;
687972752151717;-13.0579;-0.4920;3.3760;
687972762258853;-3.7705;0.4229;1.9938;
687972772366301;-16.8667;-2.9378;-7.4160;
687972782473748;-23.2125;0.3320;3.2776;
687972792590207;9.5821;-1.2682;8.3994;
687972802697655;-5.2606;-1.9845;-13.0140;
687972812805103;-21.4660;-1.3831;-5.7030;
687972822914998;-17.5205;2.7873;4.8036;
687972833022446;-3.2602;-0.2716;3.2154;
687972843129894;3.1071;-4.6531;-3.0870;
687972853221873;-11.8863;-0.2429;-11.8666;
687972863329321;-18.0284;0.5285;-7.8589;
687972873436769;-11.2588;0.6458;4.7127;
687972883547498;-8.3124;0.9930;-0.0688;
687972893654946;-10.1115;-0.7986;-4.7737;
687972903762394;-8.0847;-0.3461;-0.9407;
687972913868853;-15.7433;1.8269;-3.8201;
687972923976301;-10.6887;1.1776;4.2144;
687972934083748;-11.8217;-1.1964;2.6883;
687972944188019;-1.2793;0.5692;-6.1367;
687972954295467;-7.0499;-0.5925;-3.1591;
687972964402915;-13.1393;0.2530;-4.2371;
687972974510988;-9.5342;0.5118;-6.6446;
687972984618436;-5.0210;-0.3556;-3.2094;
687972994725884;-2.7165;-0.3987;-2.7398;
687973004838019;-8.9231;0.9787;-8.0100;
687973014945467;-15.2617;2.0088;-5.7293;
687973025052915;-8.5496;2.0590;0.0365;
687973035158853;-9.1843;1.4722;-1.3457;
687973045266301;-13.3741;2.0542;0.5133;
687973055373748;-3.9287;1.7333;3.0239;
687973065474478;-1.8996;2.6342;-8.7380;
687973075581926;-27.1433;1.0316;-2.3423;
687973085689373;-19.7964;2.2053;6.5524;
687973095792082;3.5862;0.3081;0.9852;
687973105899530;-3.1334;-2.1138;-2.0593;
687973116006978;-15.7887;-0.4537;-2.7302;
687973126121769;-15.0461;0.1403;-0.9936;
687973136229217;-7.4668;-2.2720;2.2813;
687973146336665;-6.6547;-1.3113;-3.8847;
687973156555832;-10.5042;-0.2381;-4.3304;
687973166663228;-9.4358;-1.2658;1.1506;
687973176770728;-8.6979;-0.6909;-2.2223;
687973186765988;-14.7993;-0.6239;-4.2730;
687973196873436;-9.2874;-2.2576;8.8161;
687973206980884;-1.8206;-2.7583;-0.7684;
687973217123853;-16.3397;1.2422;-15.6251;
687973227231301;-8.9351;-0.6646;1.3445;
687973237338696;0.8240;-2.7918;5.3737;
687973247408957;-16.2655;-0.7555;-7.9980;
687973257516405;-22.4531;0.7896;-3.4202;
687973267623853;-11.4242;0.4902;5.9318;
687973277768540;0.5127;-0.2668;1.2631;
687973287875988;-1.7342;-1.2921;-2.9985;
687973297983436;-13.3573;-1.0406;-7.1955;
687973308068957;-16.2942;0.1905;-5.6169;
687973318176405;-9.1723;-0.4729;0.0054;
687973328283853;-5.9480;0.3153;-4.4333;
687973338391769;-10.6193;-0.0583;-4.0645;
687973348499217;-11.0504;0.3176;1.9866;
687973358606665;-12.6051;1.1345;2.1637;
687973368700571;-8.9590;0.1929;2.7820;
687973378808019;-1.1761;-2.1377;0.1564;
687973388915467;-11.8840;-0.6120;-10.0965;
687973399029061;-18.4119;1.6878;-7.9573;
687973409136509;1.9666;0.6218;0.5061;
687973419243957;-10.0585;-0.3700;-1.8272;
687973429369478;-18.4645;0.7920;-2.5504;
687973439476926;-0.4839;-1.6875;2.1039;
687973449584373;-4.2879;-0.3796;-5.5400;
687973459670832;-16.1145;0.1786;-4.4791;
687973469778280;-14.0303;1.3549;1.9481;
687973479885728;-9.2393;0.7657;-0.8019;
687973489994998;-6.7720;-0.2118;-1.9851;
687973500102446;-10.2096;1.1082;-2.0545;
687973510209894;-16.3325;1.8604;-1.2954;
687973520318957;-8.0034;0.8830;1.2942;
687973530426405;-5.5143;0.6673;-2.4595;
687973540533905;-15.2210;-0.0248;-1.4509;
687973550650728;-6.5396;-0.2381;4.2168;
687973560758176;-12.3751;0.1283;-8.7933;
687973570865676;-21.6697;0.7271;-5.4203;
687973580959478;4.8580;0.1092;9.7696;
687973591066926;3.3227;0.3966;-2.3276;
687973601174426;-18.2441;-0.8225;-15.0168;
687973611281144;-18.9676;-0.1304;-5.3151;
687973621388592;-7.8811;1.2903;3.4837;
687973631496092;-2.5128;1.3765;-2.1458;
687973641607498;-8.0800;0.5620;-6.1032;
687973651714946;-11.1751;-0.1280;-3.6476;
687973661822446;-6.0966;0.1187;-0.0712;
687973671937915;-8.1757;0.2626;-3.6165;
687973682045363;-17.4296;0.2124;-5.4323;
687973692152863;-9.4621;1.7453;1.8811;
687973702252394;-3.6915;1.1393;-2.3566;
687973712359842;-14.6028;0.7152;-5.5113;
687973722467342;-8.2645;0.8853;7.9896;
687973732573019;-4.3214;0.6410;1.4237;
687973742680467;-10.8610;-0.4896;-10.3525;
687973752787967;-4.5156;-0.7292;-5.4179;
687973762897186;-16.0810;-0.2237;-1.3839;
687973773004634;-27.9649;1.7812;4.1880;
687973783112134;-6.9805;1.4483;10.8595;
687973793220311;2.5107;-3.4265;-0.1765;
687973803327759;-10.1761;-3.9033;-2.3303;
687973813435259;-12.6769;-0.4753;-3.7627;
687973823539582;-9.7687;0.4397;-5.7891;
687973833647030;-7.8595;0.0661;-1.6570;
687973843754530;-9.9700;0.8758;-1.1515;
687973853866353;-14.6940;0.7633;-4.0741;
687973863973801;-9.7591;-0.2213;0.3287;
687973874081301;-3.0876;-0.3051;-0.0449;
687973884187603;-7.3950;-0.6718;-3.2405;
687973894295051;-7.6439;-0.8441;-0.1071;
687973904402551;-6.2498;-1.8574;-11.4619;
687973914506248;-19.4946;-0.4202;-19.1800;
687973924613696;-14.1503;3.6377;1.0905;
687973934721196;-1.4635;3.6018;13.7773;
687973944825988;-8.3698;1.5395;-5.0898;
687973954933436;-14.1120;-2.0133;-6.1104;
687973965040936;-10.2909;-0.8512;5.1703;
687973975149894;-6.9494;1.2494;-0.1071;
687973985257342;-8.4658;-1.2251;-5.1329;
687973995364842;-11.5487;-0.3843;-4.7952;
687974005474269;-9.6347;0.1331;-1.1468;
687974015581717;-5.5528;0.2626;0.0700;
687974025689217;-8.6429;-0.8512;-3.9302;
687974035789269;-12.3153;1.0220;-3.9254;
687974045896717;-7.7518;1.1871;1.7662;
687974056004217;-6.4510;0.2411;-1.7503;
687974066138748;-9.3401;-0.1998;-5.3533;
687974076246196;-7.8739;0.3248;-2.2463;
687974086353644;-6.9063;1.2446;-3.1783;
687974096496613;-5.9886;-0.0320;-3.5782;
687974106604113;-21.4086;0.7343;-0.7107;
687974116711561;-23.6459;3.5874;5.3952;
687974126737707;-3.4280;2.1072;5.6204;
687974136845155;-0.1316;-3.9033;1.2105;
687974146952603;-16.1384;-2.0109;-4.5532;
687974157074426;-18.3637;1.5754;-2.4021;
687974167181873;-4.4533;-0.2859;2.3315;
687974177289373;-5.7036;-1.3926;-2.2439;
687974187399061;-11.8313;-0.2955;-5.2983;
687974197506509;-10.1593;-0.9066;-2.4739;
687974207614009;-6.6212;-1.0478;-3.2524;
687974217732186;-8.3339;-0.9377;-4.0262;
687974227839634;-8.3650;-0.4250;-0.0927;
687974237947134;-5.4903;-0.9473;1.4453;
687974248068540;-5.7972;-3.2587;-10.7216;
687974258175988;-15.5731;-1.8574;-17.4458;
687974268283488;-14.7586;0.8112;-1.9301;
687974278394790;0.5486;3.0748;9.4364;
687974288502238;-2.3453;0.4325;-3.6885;
687974298609738;-35.7601;-0.1352;-7.5643;
687974308720623;-22.4339;5.2283;9.8079;
687974318828071;5.7012;0.8351;7.3047;
687974328935571;-4.8748;-2.0492;-2.2774;
687974339013644;-19.8610;1.3932;-3.1062;
687974349121092;-7.4333;0.0637;-0.2892;
687974359228592;0.0383;-1.3448;-3.9616;
687974369334894;-8.9830;-1.6732;-10.9516;
687974379442342;-9.2417;-1.7378;-6.5055;
687974389549842;-6.3290;-0.5231;-0.2174;
687974399665571;-7.9890;-0.0176;-3.8058;
687974409773019;-8.3507;0.5046;-7.2984;
687974419880519;-7.8332;-0.1639;-0.4113;
687974429979998;-4.7527;-0.0105;6.6721;
687974440087446;-8.1637;-0.0535;-6.6565;
687974450194946;-17.8585;0.6505;-19.6711;
687974460307290;-10.9187;1.3741;-1.8009;
687974470414738;-4.4076;1.7070;14.0862;
687974480522238;-10.8538;2.7347;0.8151;
687974490640623;-16.5841;0.1379;-6.6876;
687974500748071;-11.0719;-0.8130;4.7964;
687974510855571;-8.1159;1.4100;5.2636;
687974520963488;-10.3053;0.0637;-1.2353;
687974531071040;-11.4817;-0.7101;0.1684;
687974541178540;-5.3109;-0.4705;0.6523;
687974551283019;-10.6792;0.1307;-4.0956;
687974561390519;-17.2666;-1.0980;-2.4547;
687974571498019;-5.0737;0.5261;0.3793;
687974581598123;-4.2042;-0.1759;-3.5614;
687974591705623;-10.6217;-1.0214;-6.4624;
687974601813123;-11.1341;-0.9712;-1.2858;
687974611921353;-6.7959;-0.2979;0.8653;
687974622028853;-9.9891;-0.9760;-5.0803;
687974632136353;-12.3823;-0.0392;-3.5495;
687974642248644;-6.4247;-0.3939;1.4596;
687974652356144;-8.7676;0.1810;-3.1253;
687974662463644;-11.0647;0.0135;-3.8154;
687974672565311;-10.0732;0.1451;-1.0032;
687974682672811;-10.4444;-0.4298;-1.7049;
687974692780311;-7.0355;0.6793;-1.1133;
687974702891040;-7.0164;-0.7795;-5.6743;
687974712998540;-18.2130;0.7848;-8.7670;
687974723106040;-13.9250;-0.3314;3.7137;
687974733211405;-8.3483;-0.0969;5.7835;
687974743318905;-13.7357;-0.0129;-4.0813;
687974753426405;-2.2732;-0.0392;-1.1396;
687974763541978;5.0545;-1.1821;-2.1003;
687974773649478;-14.6605;-0.9281;-10.6451;
687974783756978;-18.0547;0.1187;-6.4074;
687974793856978;-10.4827;0.4229;4.0418;
687974803964426;-6.0870;0.2913;2.8059;
687974814071978;-7.2823;-0.4705;-3.2453;
687974824180207;-10.2742;-0.3242;-3.8154;
687974834287707;-9.2393;-0.3123;-0.0042;
687974844395207;-9.4980;-0.2405;-0.2988;
687974854502082;-9.7831;-0.5279;-2.2367;
687974864609582;-7.2559;-0.8417;-2.4452;
687974874717082;-9.0670;0.5524;-5.9354;
687974884829998;-10.0155;1.0149;-8.0746;
687974894937498;-10.8634;1.4148;-4.2179;
687974905044998;-10.0585;1.5272;6.6266;
687974915143436;-7.1937;1.1297;8.8998;
687974925250936;-11.9465;0.8471;-4.9603;
687974935358436;-12.7104;-1.1462;-6.1128;
687974945467394;-11.9824;-0.5782;1.4115;
687974955574894;1.2099;-0.5231;0.7433;
687974965682394;1.7007;-0.9832;-9.2483;
687974975781769;-18.6371;-0.6598;-12.0535;
687974985889269;-28.2260;-0.6120;2.8968;
687974995996769;-12.3464;2.8977;14.7281;
687975006100623;-1.5858;1.6543;-1.2619;
687975016208123;-6.3458;-3.5752;-6.2539;
687975026315676;-11.7667;-0.6670;2.4727;
687975036538644;-10.8515;1.4937;-1.4653;
687975046646092;-9.0957;-0.1256;-2.3276;
687975056753644;-4.6687;-1.0071;-1.4557;
687975066766561;-8.5663;-0.8010;-7.1282;
687975076874061;-14.2101;-0.1998;-6.7786;
687975086981561;-8.9351;0.0182;-1.6762;
687975097124790;-6.8175;-0.8827;-3.4059;
687975107232290;-11.8672;-0.7484;-2.3782;
687975117339790;-7.7112;-0.1543;8.3130;
687975127380467;-4.0914;-1.0836;0.4056;
687975137487967;-13.8099;-1.4815;-17.9369;
687975147595467;-16.3971;0.3775;-9.5405;
687975157714217;-3.7992;1.3167;6.7801;
687975167821717;-5.9360;0.9045;0.9326;
687975177929217;-14.9408;-0.0969;-8.3979;
687975188047290;-13.1417;0.6649;-1.0080;
687975198154790;-5.5768;0.2028;5.3569;
687975208262290;-8.0369;-1.5772;-0.4400;
687975218361873;-13.4243;-1.3400;-3.9350;
687975228469373;-9.6203;-0.5040;-0.2964;
687975238576873;-6.0437;-1.4934;-0.8713;
687975248700207;-7.2535;-0.9975;-6.8192;
687975258807707;-9.4095;-0.8584;-5.1520;
687975268915207;-8.2884;-1.0119;0.0942;
687975279017915;-11.3330;-0.0392;-2.4595;
687975289125415;-13.3980;0.1642;-3.7125;
687975299232915;-7.4261;0.4854;1.8882;
687975309332498;-6.2880;0.4205;0.8486;
687975319439998;-11.5822;0.1834;-2.5768;
687975329547498;-10.4252;0.2219;-0.3993;
687975339658540;-7.9603;-0.1472;-1.6283;
687975349766040;-10.6433;-0.1902;-2.2343;
687975359873540;-9.8456;-0.4896;-0.0855;
687975369979478;-10.3439;-0.2572;-3.4370;
687975380086978;-11.1365;0.0996;-4.3950;
687975390194478;-7.6896;-0.2716;1.0259;
687975400304061;-9.1819;-0.3027;0.3482;
687975410411561;-8.8155;-0.4394;-1.6881;
687975420519061;-7.1818;-0.3724;-3.5806;
687975430628488;-11.6109;-0.1496;-4.6250;
687975440735988;-21.5234;-0.2189;-0.4642;
687975450843488;-6.6787;0.2746;4.7007;
687975460947707;1.8446;-1.0214;-0.8928;
687975471055207;-10.5401;-1.3783;-6.2874;
687975481162707;-17.5517;-0.2812;-4.5987;
687975491286821;-12.0661;0.0948;1.5482;
687975501394321;-5.2388;-0.1448;1.3229;
687975511501821;-8.3076;-0.9497;-4.5580;
687975521600571;-14.0904;-0.7005;-4.7279;
687975531708019;-11.7284;0.0613;1.5147;
687975541815467;-5.4233;-0.2046;0.7289;
687975551926353;-10.2144;-0.8369;-5.8493;
687975562033801;-13.2757;-0.0583;-3.0607;
687975572141248;-8.3267;-0.4753;1.4405;
687975582240155;-5.9575;-0.8656;-0.6604;
687975592347603;-10.0059;-0.6670;-7.3654;
687975602455051;-15.6640;-0.3820;-9.6724;
687975612561248;-7.6534;0.4325;1.6295;
687975622668696;-4.2616;-0.1472;4.5162;
687975632776144;-9.8504;-0.5183;-6.3523;
687975642880728;-14.3034;0.5883;-7.3869;
687975652988176;-9.6873;-0.3338;0.7839;
687975663095623;-8.1063;0.8686;1.8906;
687975673198436;-7.1842;-0.1041;-3.6790;
687975683305884;-11.4888;0.0876;-5.8373;
687975693413332;-7.3516;0.8303;-2.8211;
687975703530103;-8.9901;0.3703;-1.4533;
687975713637551;-13.4842;1.0723;-2.8451;
687975723744998;-11.6492;0.4421;-2.0545;
687975733825780;-5.5385;-0.2931;0.8895;
687975743933176;-4.7934;-0.2429;-1.4725;
687975754040676;-14.6198;0.1977;-5.9067;
687975764148123;-14.1383;0.9811;-1.1492;
687975774280728;-3.8758;0.9380;2.4464;
687975784388176;-5.2388;-0.8946;-2.9076;
687975794495623;-11.7476;0.5142;-5.2792;
687975804607238;-11.1488;0.2100;-1.5852;
687975814714686;-7.6558;0.6290;-1.9158;
687975824822134;-7.8523;0.3129;-4.7713;
687975834932603;-10.0107;0.4950;-2.0498;
687975845040051;-11.4817;0.4038;1.9313;
687975855147498;-8.7580;0.5381;2.4416;
687975865252915;-7.7542;-0.6168;-2.6465;
687975875360363;-10.6600;-0.4394;-4.9651;
687975885467811;-10.7055;0.1570;-1.5661;
687975895571040;-13.0508;0.8016;0.9685;
687975905678488;-9.7854;0.8447;2.1278;
687975915785936;-5.0163;-0.7531;-2.5624;
687975925892186;-12.4421;-0.2118;-6.5940;
687975935999634;-12.8399;-0.2620;1.6848;
687975946107082;-8.4033;0.1690;3.5988;
687975956199582;-10.0708;-0.3724;-5.2693;
687975966306978;-9.7759;-0.2883;-4.7761;
687975976414478;-5.3492;-0.3485;1.1049;
687975986559269;-7.5075;-1.1052;-2.1482;
687975996666717;-11.1416;-0.8994;-6.2755;
687976006774165;-11.3737;-1.8407;-3.2716;
687976016875728;-6.8438;-0.5877;-1.5278;
687976026983176;-6.2163;0.2339;-4.2658;
687976037090623;-12.1666;0.3320;-5.2143;
687976047183123;-12.1977;1.3334;-0.7947;
687976057290571;-3.6075;0.6505;-2.7876;
687976067398019;-12.7176;1.2736;-5.6839;
687976077512603;-18.5483;1.1034;0.0221;
687976087620051;-11.5989;1.3310;2.4392;
687976097727551;-1.2673;0.2339;-2.4763;
687976107838853;-8.5926;-0.3867;-5.8373;
687976117946301;-12.1307;0.7199;-4.7064;
687976128053801;-8.1900;0.8040;-3.2692;
687976138164998;-8.0752;-0.4513;-4.2395;
687976148272446;-7.3564;-1.3232;-3.5997;
687976158379894;-7.4716;-0.7005;-4.1985;
687976168473748;-10.2694;-0.6335;-7.3463;
687976178581196;-13.8147;0.5142;-1.6259;
687976188688644;-8.0273;0.9045;4.2479;
687976198780415;-3.0039;-0.0969;-3.0751;
687976208887863;-5.6031;-0.3003;-10.2760;
687976218995311;-8.5280;-0.5375;-4.5556;
687976229115519;-13.1489;2.3154;-4.2275;
687976239222967;-18.8620;2.4927;-7.5093;
687976249330415;-11.0001;2.3417;2.3841;
687976259436561;-2.7428;1.3286;7.3238;
687976269544009;-7.8667;-0.3218;-2.1027;
687976279651457;-13.8532;-1.3041;-6.0646;
687976289760207;-11.9246;-0.2309;-1.7985;
687976299867655;-9.3640;0.3727;1.5864;
687976309975103;-7.5147;-0.9712;-3.1062;
687976320073540;-9.4837;-1.4551;-3.6694;
687976330180988;-8.4969;-1.2754;-3.8321;
687976340288436;-8.9399;-0.5471;-6.7331;
687976350394478;-13.1273;-0.6574;-5.0300;
687976360501926;-8.6668;-0.4059;4.4420;
687976370609373;-3.0398;-1.3161;1.7016;
687976380720571;-6.9852;-1.1988;-8.5513;
687976390828019;-12.2889;-1.1509;-8.3836;
687976400935467;-7.3899;-0.3485;-2.4500;
687976411065728;-3.3897;-0.8680;-3.7938;
687976421173176;-12.9284;-1.7330;-3.7914;
687976431280623;-24.7621;0.4397;0.7169;
687976441370103;-13.4004;1.0220;6.7582;
687976451477551;1.2362;0.6601;4.2263;
687976461584998;-5.8953;-1.0047;-8.5848;
687976471686144;-14.9480;-1.6828;-10.5180;
687976481793592;-11.8552;-0.4418;-0.5838;
687976491901040;-7.4309;0.2291;2.4081;
687976502011821;-10.1904;-0.9832;-4.6585;
687976512119269;-8.7509;-1.2538;-2.6512;
687976522226717;-6.3649;-1.1725;-1.4246;
687976532331196;-7.9555;-2.1688;-3.1639;
687976542438540;-8.4754;-1.5652;-2.9243;
687976552545884;-10.6481;-0.7579;-3.2859;
687976562662498;-9.0909;-0.8803;2.3698;
687976572769842;-3.1645;-1.5126;0.5204;
687976582877186;-9.9413;0.0781;-13.2488;
687976592993019;-23.1332;0.5548;-12.9039;
687976603100363;-16.1360;2.4951;10.4306;
687976613207707;-3.0494;3.6353;11.1805;
687976623305311;-7.1961;1.9274;-5.5184;
687976633412655;-14.5525;-0.3365;-9.3849;
687976643519998;-11.1102;-0.9951;1.8787;
687976653623644;-5.4305;0.5716;2.8107;
687976663730988;-7.1315;-1.4862;-5.2597;
687976673838332;-9.8719;-2.1568;-5.1951;
687976683956457;-9.6634;-0.8082;-1.9158;
687976694063801;-10.0202;-0.8130;-4.0454;
687976704171144;-4.6113;-0.6359;-4.8790;
687976714275259;-4.7408;-1.5604;-4.0908;
687976724382603;-11.7308;-1.2873;-3.1687;
687976734489946;-16.4330;-0.2835;-2.1793;
687976744608436;-9.4789;-0.0320;-2.2104;
687976754715780;-5.1168;0.9117;-6.2659;
687976764823123;-13.4818;0.6170;-4.1889;
687976774926040;-13.6687;2.2436;4.3316;
687976785033384;-8.2143;1.1728;1.1408;
687976795140728;-8.7413;-0.1735;-3.4753;
687976805252498;-10.4659;-0.6790;-0.3969;
687976815359842;-11.3521;-0.1065;-0.6772;
687976825467186;-11.7595;0.1451;-1.8918;
687976835561353;-7.7806;-1.1629;-1.5924;
687976845668696;-7.9555;-1.4049;-2.2917;
687976855776040;-10.8467;-0.6215;-2.9315;
687976865876457;-7.7112;-1.0836;0.1899;
687976875983801;-5.6414;-2.0994;-2.4356;
687976886091144;-8.4583;-1.0334;-10.3071;
687976896196144;-9.9030;0.1905;-8.5490;
687976906303488;-8.6644;-0.0993;-0.5121;
687976916410780;-7.9412;-0.2453;1.5242;
687976926523332;-9.4071;-0.1017;-4.0573;
687976936630676;-11.6587;-0.2070;-4.7904;
687976946738019;-10.4109;0.4783;0.9230;
687976956828696;-11.0695;0.7753;0.8991;
687976966936040;-9.5028;0.6170;-1.2978;
687976977043384;-9.3951;0.1977;-1.3911;
687976987182082;-9.9556;0.5620;-3.1902;
687976997289426;-12.8877;0.1307;-4.0167;
687977007396769;-9.0622;-0.0296;-1.6283;
687977017493540;-7.0092;0.0374;-1.9947;
687977027600884;-9.9317;0.3296;-4.0645;
687977037708228;-9.4238;0.3894;-3.1759;
687977047808019;-5.1407;-0.1926;-0.0664;
687977057915363;-6.7122;-1.1100;-2.1817;
687977068022707;-12.3703;-0.9497;-5.2334;
687977078164686;-11.2923;-0.1041;-1.8081;
687977088272030;-8.6357;0.6601;-1.2305;
687977098379373;-8.9375;0.2100;-1.6187;
687977108477915;-8.9782;0.6099;-1.1180;
687977118585259;-10.3822;0.7152;-3.0655;
687977128692603;-10.6217;0.9308;-2.9913;
687977138786665;-10.3702;0.9117;-1.7551;
687977148894009;-13.1249;1.4435;-1.4940;
687977159001353;-10.2766;0.5118;-1.7408;
687977169108853;-0.1750;1.0316;-2.3830;
687977179216196;-7.9193;-0.2692;-4.3280;
687977189323540;-14.1503;-0.0057;-4.4524;
687977199432915;-11.1150;-0.4729;0.1134;
687977209540259;-6.3096;-0.6622;0.7457;
687977219647603;-5.3276;-0.9066;-3.9592;
687977229747603;-9.0622;-1.0358;-6.1056;
687977239854946;-8.7461;-0.3891;-2.4787;
687977249962290;-7.5386;-0.1807;-2.2152;
687977260073019;-9.2441;-0.4681;-5.2406;
687977270180363;-9.9580;0.4158;-4.1507;
687977280287707;-11.0695;0.6458;-0.2007;
687977290404165;-11.3450;0.9069;0.1756;
687977300511509;-11.6587;1.1369;-2.1386;
687977310618853;-13.4650;1.0603;-0.5216;
687977320729790;-4.1130;0.3751;3.6060;
687977330837134;3.3849;-1.0071;1.9337;
687977340944478;-29.0022;-0.9640;-5.3055;
687977351038748;-31.4647;0.9308;2.5759;
687977361146092;-7.5649;1.1752;7.7931;
687977371253436;0.2946;-2.1999;5.5463;
687977381371144;-7.2344;-1.4097;2.8298;
687977391478488;-16.0762;-1.2945;-4.3639;
687977401585832;-11.4000;0.6912;-5.6312;
687977411690415;-3.4161;-1.1243;-3.7819;
687977421797759;-7.0977;-1.2395;-7.6768;
687977431905103;-9.6060;-0.7866;-8.7284;
687977442015728;-8.0776;-1.1339;-6.6108;
687977452123071;-7.1073;-2.1257;-6.3209;
687977462230415;-7.4046;-2.1592;-6.1295;
687977472335623;-9.5052;-1.5030;-4.8072;
687977482442967;-11.7284;-0.1472;3.8743;
687977492550311;2.4721;-1.9439;4.4061;
687977502651561;-10.1019;-1.7689;-17.0889;
687977512758905;-23.1643;0.7104;-18.3751;
687977522866248;-11.1030;1.2206;0.0556;
687977532983905;-3.8686;2.2842;3.6873;
687977543091301;-10.5760;0.5094;-4.5126;
687977553198696;-13.9561;1.7931;-3.7101;
687977563308228;-10.4635;2.2651;2.8226;
687977573415623;-5.5023;0.7394;2.5687;
687977583523019;-7.7782;-0.1376;-3.2166;
687977593625571;-13.0364;-1.4432;-2.9435;
687977603732967;-10.7175;-1.1243;0.5755;
687977613840363;-7.6558;-0.7986;-1.5132;
687977623942811;-7.7758;-0.4848;-3.5064;
687977634050207;-6.4008;-0.4944;-0.8713;
687977644157603;-8.5448;-0.1041;-2.0474;
687977654270832;-11.3641;0.4277;-3.1783;
687977664378228;-9.6467;0.8495;-1.8224;
687977674485623;-7.1049;1.0149;-1.5805;
687977684595623;-9.1149;0.6625;-3.8010;
687977694703019;-10.6720;0.9715;-3.6957;
687977704810415;-9.7161;1.6328;-1.0917;
687977714909894;-10.0107;1.0723;0.0365;
687977725017290;-9.9174;0.3535;0.6691;
687977735124686;-12.4636;0.7466;-0.7995;
687977745237082;-11.2325;0.2913;-0.5312;
687977755344478;-7.9747;0.2195;-0.9574;
687977765451873;-10.3340;-0.1926;-4.3663;
687977775565571;-10.3511;-0.9736;-3.2189;
687977785672967;-8.0393;-1.3352;-0.9311;
687977795780363;-7.2464;-1.8790;-3.5016;
687977805881040;-8.2813;-1.2921;-5.0563;
687977815988436;-8.2334;-1.4838;-4.1291;
687977826095832;-8.6572;-1.4982;-3.9087;
687977836199269;-9.0790;-0.9377;-3.4561;
687977846306665;-9.9269;-1.2921;-0.8306;
687977856414061;-10.7055;-0.1519;-0.7277;
687977866535728;-11.7476;0.0039;0.8557;
687977876643071;-10.7677;-0.4322;0.7504;
687977886750519;-5.8211;0.0015;-2.2367;
687977896841353;-6.9326;-0.1878;-6.4672;
687977906948748;-5.5720;-1.1988;-6.4265;
687977917056144;-17.1494;-0.5710;-3.0248;
687977927175623;-23.4808;2.6486;3.5124;
687977937283019;-9.6156;3.5300;7.3597;
687977947390415;-3.0565;1.4339;0.3215;
687977957519478;-6.4510;-3.7451;-7.3869;
687977967626873;-9.7974;-4.4566;-4.8742;
687977977734269;-10.5832;0.8327;0.0126;
687977987827290;-8.6261;1.5993;0.7768;
687977997934686;-9.3138;-0.5160;-2.7781;
687978008042082;-11.1317;-0.9377;-4.6537;
687978018155415;-9.9987;-0.5877;-3.5925;
687978028262811;-7.7901;0.2195;-5.3486;
687978038370207;-8.6022;0.8830;-4.4719;
687978048476978;-9.9317;0.8614;-0.8210;
687978058584373;-9.4430;0.5883;-1.7623;
687978068691769;-6.2761;-0.6479;-0.7875;
687978078779738;-7.2129;-1.4145;-8.6518;
687978088887134;-14.3010;1.0316;-14.3988;
687978098994530;-8.4559;2.3154;-2.1625;
687978109101457;-6.5133;1.6280;-0.1884;
687978119208853;-11.3474;0.3248;-3.7819;
687978129316248;-10.5018;0.2459;-1.4222;
687978139431978;-9.5366;-0.0200;-0.7059;
687978149539373;-7.3445;-0.3939;-0.6987;
687978159646769;-5.9575;-0.5590;-3.8154;
687978169759686;-12.0278;-0.4226;-7.4614;
687978179867082;-11.8600;0.9739;-3.7914;
687978189974478;-9.0838;0.6745;-2.3495;
687978200073071;-8.8107;0.0924;-3.5160;
687978210180467;-10.4659;-0.6072;-2.6536;
687978220287863;-9.4932;0.2411;-1.3768;
687978230400155;-10.0657;-0.5495;-3.2070;
687978240507551;-8.9877;0.2746;-2.1170;
687978250614946;-7.3493;-0.5686;-1.5685;
687978260732603;-8.6094;-0.9808;-2.4045;
687978270839998;-10.2574;-0.8106;-3.7149;
687978280947394;-8.7628;-0.8946;-3.2477;
687978291048540;-7.9292;-1.4671;-4.1172;
687978301155936;-9.1005;-0.9042;-3.2405;
687978311263332;-8.3459;-1.0430;-2.6321;
687978321386248;-9.6610;-0.3338;-3.5590;
687978331493644;-8.4416;-0.1854;-4.4118;
687978341601040;-9.3736;0.1786;-4.3974;
687978351701405;-9.4549;-0.7125;-4.9173;
687978361808801;-8.3052;-0.3556;-3.7627;
687978371916196;-10.6265;1.1656;-3.3075;
687978382015103;-9.6634;1.1584;-1.0295;
687978392122498;-4.7839;0.8542;-2.0282;
687978402229894;-15.6497;-0.6790;-1.3744;
687978412331978;-20.8840;-1.5173;1.5840;
687978422439373;-10.8012;-0.0754;4.3292;
687978432546769;-3.9311;1.0125;1.6872;
687978442663228;-5.4664;-0.6024;-5.9210;
687978452770623;-10.6648;-0.9832;-9.6341;
687978462878019;-10.2359;-1.0813;-4.9125;
687978472977394;-9.1388;-0.4322;0.3359;
687978483084790;-8.9734;-0.5686;-1.9588;
687978493192186;-7.6633;-1.0597;-3.8632;
687978503294582;-9.7352;-0.3266;-3.6117;
687978513401978;-9.2632;-0.6431;-0.7588;
687978523509373;-9.1340;-1.0214;-0.6221;
687978533640832;-10.1067;-0.6909;-0.9024;
687978543748280;-6.3458;-1.9774;2.9112;
687978553855728;-2.8555;-0.7866;-7.7512;
687978563954738;-13.2637;2.0566;-20.0187;
687978574062186;-12.5644;1.9178;-6.2515;
687978584169634;-6.6595;2.0590;3.3425;
687978594283071;-8.9662;0.8734;-0.3778;
687978604390519;-11.4912;-0.6981;-0.1071;
687978614497967;-11.7930;-1.1171;0.6930;
687978624584842;-8.0321;-1.1581;1.1073;
687978634692290;-8.4464;-1.4815;-2.3061;
687978644799738;-11.0695;-1.4575;-2.5313;
687978654913228;-10.8706;-1.1821;-0.7493;
687978665020676;-7.9098;-0.8680;-1.6666;
687978675128123;-8.6812;-0.9281;-4.2443;
687978685243644;-11.4529;-0.0921;-3.3410;
687978695351092;-10.2287;0.1307;-0.3443;
687978705458540;-8.7413;0.0398;-1.2978;
687978715559061;-7.4764;-0.6598;-1.5589;
687978725666509;-7.3926;-1.6035;-3.0607;
687978735773957;-9.5557;-1.3089;-3.0607;
687978745880728;-10.0995;-1.5173;-1.0056;
687978755988176;-8.7242;-1.2491;-0.7851;
687978766095571;-9.3497;-0.4226;-3.5495;
687978776192655;-9.7735;-0.1280;-1.5709;
687978786300103;-8.7867;-0.1974;-0.3778;
687978796407551;-9.5773;0.6266;-3.5686;
687978806534686;-10.0875;-0.4825;-2.7996;
687978816642134;-8.8729;0.3440;-2.9889;
687978826749582;-8.7532;0.3703;-2.4332;
687978836862342;-10.5090;-0.4178;-2.7829;
687978846969790;-11.9919;-0.3194;-1.9636;
687978857077238;-10.8491;-0.3891;-1.5685;
687978867174582;-8.1613;-0.9568;0.6452;
687978877281978;-2.6662;-1.4097;-1.5709;
687978887389478;-0.8480;-1.7761;-7.5811;
687978897519165;-16.6941;-1.8909;-8.3357;
687978907626613;-29.5268;-2.1042;5.3043;
687978917734061;-11.2182;0.8901;14.8361;
687978927826665;2.8771;2.1048;1.0379;
687978937934113;-6.5683;-0.8970;-12.5231;
687978948041561;-14.7132;-1.6298;-5.8516;
687978958154478;-13.0074;-0.8608;0.3191;
687978968261926;-8.2717;-1.0669;0.5659;
687978978369373;-1.2625;-1.4695;-3.3697;
687978988477655;-9.6180;-1.4791;-7.2410;
687978998585103;-14.0327;-2.4514;-5.8421;
687979008692551;-9.0503;-1.3998;-2.5289;
687979018785155;-6.9278;-0.4418;-1.0510;
687979028892603;-7.9388;-0.0081;-1.9373;
687979039000051;-10.9834;0.0230;2.5998;
687979049115207;-4.1417;-0.3266;4.0705;
687979059222655;-5.3803;-1.1148;-12.8297;
687979069330103;-13.5850;-0.6646;-18.0374;
687979079437811;-8.9806;-0.2213;-2.8379;
687979089545259;-2.1392;2.1622;5.2349;
687979099652707;-4.7312;1.9777;-6.2850;
687979109751821;-34.0137;0.0565;-4.6442;
687979119859269;-28.2814;4.0642;13.5544;
687979129966717;6.4199;7.6813;7.7046;
687979140077498;4.5778;-2.6169;-3.1062;
687979150184946;-21.6075;-4.5117;-2.4212;
687979160292394;-18.5004;-0.3389;-0.5384;
687979170398019;-5.0019;1.1536;0.8629;
687979180505467;-5.6797;-1.4240;-2.3901;
687979190612915;-7.8428;-2.3246;-3.7340;
687979200723853;-8.3985;-1.6035;-3.8967;
687979210831301;-8.4464;-0.2835;-4.8718;
687979220938748;-6.5300;-0.4394;-3.5997;
687979231054686;-5.0713;-0.7938;-3.6117;
687979241162134;-7.6295;-0.8489;-2.8884;
687979251269582;-10.2168;-0.8707;1.7566;
687979261365571;-3.7513;-0.9616;0.0197;
687979271473019;-11.8983;-0.9975;-17.6614;
687979281580467;-18.5530;1.0531;-13.4979;
687979291691144;-8.3865;1.7548;9.4678;
687979301798592;-7.5841;3.1804;9.1322;
687979311906040;-14.1742;2.9408;-8.4769;
687979321998853;-11.4601;0.7872;-2.4739;
687979332106301;-9.3066;0.1929;4.3005;
687979342213748;-10.5903;-0.5949;0.1708;
687979352346353;-11.5726;-0.8177;-3.3027;
687979362453801;-10.3487;-1.7761;-0.8952;
687979372561248;-4.7958;-1.8909;0.7648;
687979382660623;-6.6452;-2.9976;-4.2419;
687979392768071;-11.7595;-2.8421;-5.0898;
687979402875519;-8.4634;-1.6995;0.3505;
687979412978436;-6.5874;-1.5437;-2.1242;
687979423085884;-10.9857;-0.6024;-7.8829;
687979433193332;-9.6658;-0.0296;-1.6235;
687979443299998;-6.6858;0.8399;1.5194;
687979453407446;-9.9963;0.2841;-3.0846;
687979463514894;-10.1569;0.0996;-2.3566;
687979473622186;-9.7184;0.1379;-1.1874;
687979483729634;-12.3942;0.5477;-1.6235;
687979493837082;-10.5903;0.5524;0.1014;
687979503936457;-8.1230;1.3238;-1.7264;
687979514043905;-12.0206;0.5955;-3.6814;
687979524133540;-11.6061;-0.0320;-1.0367;
687979534240936;-7.2153;-0.5183;-1.3863;
687979544348384;-9.2683;-0.4705;-3.2237;
687979554493957;-10.3173;-1.3950;-2.3686;
687979564601405;-11.3210;-0.1902;-2.9961;
687979574708853;-10.2383;0.5357;-2.6967;
687979584809269;-6.3817;-0.7555;-0.3897;
687979594916717;-6.9039;-0.5997;-2.4212;
687979605024165;-11.4362;-0.4729;-4.2634;
687979615122394;-13.0173;-0.1065;-1.4198;
687979625229842;-9.8456;0.7295;-0.8234;
687979635337290;-7.5625;0.0422;-2.3806;
687979645449061;-8.1829;-0.3314;-0.8785;
687979655556509;-10.5951;0.3990;-2.2702;
687979665663957;-10.1474;0.0087;-3.7819;
687979675774582;-8.6213;-0.6048;-2.3303;
687979685882030;-7.7040;-0.2788;-2.2630;
687979695989478;-11.1030;-0.0754;-4.3304;
687979706094165;-13.4578;0.4325;-2.7230;
687979716201613;-8.2837;0.8160;0.1756;
687979726309061;-7.6681;-0.3314;-1.0869;
687979736445415;-8.7963;0.1642;-1.7456;
687979746552863;-8.8896;-0.3437;-2.2558;
687979756660259;-9.5964;-0.7890;-3.0775;
687979766738748;-8.9590;-0.4585;-2.8618;
687979776846196;-8.7820;-0.6311;-2.9650;
687979786953644;-11.8313;-0.2405;-3.6380;
687979797102967;-9.1843;-0.4968;-0.6413;
687979807210415;-6.3984;-0.2644;-1.3863;
687979817317863;-10.6552;-1.3807;-2.4691;
687979827398540;-10.6337;-1.1076;-0.4113;
687979837505988;-10.1426;0.1211;-1.3528;
687979847613436;-10.2455;0.0900;-1.8440;
687979857710519;-8.1517;-0.7938;0.7098;
687979867817967;-9.3233;-0.3338;-1.0510;
687979877925415;-12.2698;-0.3796;-2.9387;
687979888041717;-6.8584;-0.1496;-1.3146;
687979898149165;-2.2540;-0.6072;-2.9387;
687979908256613;-22.5942;-1.2873;-3.4131;
687979918363019;-21.2863;1.3789;5.1846;
687979928470467;-2.3620;1.0026;5.4144;
687979938577915;-2.8890;-1.9439;-4.3184;
687979948672655;-11.2229;-2.5283;-2.1888;
687979958780103;-14.0136;0.1570;-2.1601;
687979968887551;-11.2804;-0.8345;-2.6776;
687979978998123;-4.0412;0.3918;-2.9267;
687979989105571;-10.3511;-1.6370;-4.4524;
687979999213019;-17.8080;-0.0511;-1.6140;
687980009315519;-5.1287;1.5419;0.6090;
687980019422967;-3.0733;-1.1701;-2.9937;
687980029530415;-10.1234;-0.8803;-4.5054;
687980039650207;-8.2286;-0.6502;-3.5662;
687980049757655;-11.2684;0.2578;-5.8205;
687980059865103;-10.5760;-0.7316;1.8404;
687980069963436;1.1812;-0.3532;-1.2954;
687980080070884;-11.2947;-1.8072;-15.9413;
687980090178332;-18.2249;-1.1677;-7.8182;
687980100309373;-7.7495;1.3549;6.9045;
687980110416821;-6.1134;0.7008;0.8991;
687980120524269;-11.2923;0.3320;-6.8504;
687980130611769;-10.5688;0.4926;-1.0104;
687980140719217;-9.6610;1.4004;2.7529;
687980150826665;-8.2765;-0.1137;2.1111;
687980160937603;-10.8491;0.0111;-7.0134;
687980171045051;-16.6750;-0.2812;-4.7665;
687980181152498;-6.5061;-0.4011;6.8877;
687980191252603;-5.4640;-0.3987;-0.3251;
687980201360051;-11.4936;-1.0956;-5.8421;
687980211467498;-3.6915;-1.5676;0.9613;
687980221579738;-0.8958;-1.2347;-4.4237;
687980231687186;-22.6397;-2.3868;-7.2673;
687980241794634;-24.3885;-0.6215;7.6328;
687980251902707;-9.6227;5.2594;8.5095;
687980262010155;-2.3453;1.4004;-4.6131;
687980272117603;-6.2258;-3.6924;0.5492;
687980282237655;-15.1466;-0.8946;2.1063;
687980292345103;-12.2219;2.2771;-1.6499;
687980302452551;-7.2272;0.1834;-2.9435;
687980312551978;-8.4081;-0.4705;-4.7617;
687980322659426;-8.1398;0.1259;-4.2299;
687980332766873;-9.3640;-0.5638;-5.4562;
687980342878332;-9.9867;0.3703;-7.3319;
687980352985780;-8.8346;1.0101;-4.9244;
687980363093228;-5.7347;0.9978;-2.6201;
687980373197082;-9.9796;0.1857;-3.5351;
687980383304530;-12.5907;0.6984;0.3335;
687980393411978;-4.2185;2.1933;5.5487;
687980403519165;-4.7862;-2.6097;-7.6409;
687980413626613;-18.4478;-2.7679;-17.3548;
687980423734061;-15.1612;1.6041;-5.3175;
687980433857707;-3.1884;3.7576;5.6731;
687980443965155;-5.3850;2.4999;-1.4390;
687980454072603;-15.2617;-0.2812;-6.4313;
687980464155988;-13.8724;0.7657;-1.1037;
687980474263436;-7.3875;2.4377;3.3497;
687980484370884;-7.8667;0.7370;0.5204;
687980494494321;-12.4445;-1.4743;-1.6714;
687980504601769;-9.3808;-1.0310;0.8151;
687980514709217;-5.7156;0.1881;-0.2749;
687980524828696;-12.5070;-2.1425;-3.6571;
687980534936248;-13.9657;-0.1759;-1.8775;
687980545043801;-4.9059;1.1034;1.7255;
687980555134946;-6.1134;-1.5963;-4.2897;
687980565242551;-13.2757;-1.1821;-4.9555;
687980575350103;-11.0791;0.6745;2.0560;
687980585443748;-6.4152;1.0579;-0.7178;
687980595551248;-7.5697;-1.2538;-4.5915;
687980605658853;-10.9451;-0.6335;-2.6010;
687980615761457;-13.5200;0.5094;-0.1717;
687980625868957;-11.3163;0.7944;-0.1959;
687980635976509;-9.2034;-0.5112;-0.3132;
687980646085936;-6.3841;-0.8874;-0.2844;
687980656193436;-8.9016;-0.8755;-0.6054;
687980666301040;-13.1034;-0.5782;-3.5088;
687980676427551;-12.7391;0.0517;-2.4978;
687980686535103;-6.1397;0.1355;0.3335;
687980696642655;-3.7633;-1.0836;-2.2510;
687980706727238;-10.6672;-1.5724;-7.0086;
687980716834842;-13.9849;0.2746;-5.0133;
687980726942394;-7.8858;0.5285;1.2751;
687980737131196;-8.2454;-0.3891;-0.6006;
687980747238801;-11.4434;-0.5040;-2.6106;
687980757346353;-10.8036;-0.1448;0.3120;
687980767380311;-9.3784;0.0182;0.9206;
687980777487863;-10.2550;-0.2118;-1.2138;
687980787595415;-8.8370;-0.8106;-1.3265;
687980797740103;-9.1460;-0.4705;-1.3098;
687980807847655;-11.3976;-0.4370;-3.3840;
687980817955207;-10.9140;-0.5686;-2.5624;
687980828034426;-8.3195;0.0948;-0.6963;
687980838142030;-8.7532;-0.3123;-1.1994;
687980848249530;-10.1928;-0.5471;-2.9076;
687980858366561;-12.1355;-0.0535;-2.9172;
687980868474113;-7.4285;0.4998;0.2186;
687980878581665;-7.2751;-0.5638;0.4487;
687980888689165;-8.8083;-0.5542;-1.7432;
687980898796717;-10.6624;-0.5973;-2.9076;
687980908904269;-11.7619;-0.6526;-3.0416;
687980918994061;-9.4837;0.0039;-1.8033;
687980929101613;-8.4826;0.2052;-1.8296;
687980939209165;-8.7891;-0.3580;-2.9961;
687980949313123;-10.1354;-0.0009;-3.2788;
687980959420676;-10.0250;-0.2189;-1.3337;
687980969528228;-10.0947;0.0063;-1.3576;
687980979643696;-8.2813;0.5620;-2.2295;
687980989751248;-10.2814;-0.3461;-3.5207;
687980999858801;-18.7974;-0.1424;-0.1214;
687981009964946;-12.4373;1.5849;3.6060;
687981020072498;-3.7561;-0.5423;-0.3156;
687981030180051;-9.6634;-1.1390;-2.6082;
687981040295051;-10.9379;0.1690;-0.1836;
687981050402603;-8.4153;0.7343;-1.8033;
687981060510155;-9.5557;-0.5853;-4.5293;
687981070606821;-7.8212;-0.6766;-4.0549;
687981080714321;-5.9456;-0.9377;-4.2921;
687981090821873;-11.2062;-1.0549;-4.9436;
687981100950207;-8.9112;-0.3963;-1.7647;
687981111057707;-8.1063;0.1283;-2.4954;
687981121165311;-13.6687;-0.9975;-2.2343;
687981131256196;-10.6624;-0.2477;1.0618;
687981141363748;-6.5901;0.3846;0.5420;
687981151471301;-7.2918;-1.3687;-1.2377;
687981161582030;-13.6472;-0.3820;-1.4844;
687981171689634;-8.1637;0.3392;-0.9072;
687981181797134;-12.8279;-1.4862;-6.6924;
687981191897238;-12.9188;-1.1629;-7.5811;
687981202004738;-6.6428;1.2470;0.2928;
687981212112290;-9.9030;0.8207;2.3746;
687981222222863;-11.1703;2.2460;-2.6608;
687981232330415;-1.7342;0.8255;-5.0109;
687981242437967;-14.0303;-1.3424;-2.0330;
687981252541769;-25.8930;0.1164;4.5497;
687981262649269;-7.2799;3.2833;4.4898;
687981272756821;0.2731;-1.9149;-1.7336;
687981282889946;-8.2980;-2.8277;-2.0067;
687981292997498;-12.1427;-0.4346;-1.9875;
687981303105051;-11.1703;0.8877;-5.0539;
687981313198905;-8.2549;0.1738;-5.2310;
687981323306457;-7.6582;0.3129;-6.7451;
687981333414009;-9.8025;0.2913;-3.5997;
687981343524217;-7.3875;0.9093;1.7112;
687981353631769;-11.3115;1.0484;-3.1229;
687981363739321;-14.8711;0.3153;-3.6861;
687981373834269;-8.7027;0.6362;1.5649;
687981383941769;-7.7542;0.0135;-0.0281;
687981394049373;-11.3330;-0.3987;-2.2774;
687981404167759;-9.5414;-0.4035;-0.3419;
687981414275311;-11.8146;-0.0248;-0.0233;
687981424382863;-11.3593;-0.2357;3.9748;
687981434494217;-6.3314;1.9394;1.2488;
687981444601717;-7.9866;-4.8302;-11.8546;
687981454709269;-16.4569;-2.4682;-13.7758;
687981464800728;-9.1292;1.3071;3.1699;
687981474908228;-3.4137;3.4702;4.5808;
687981485015832;-9.8121;-0.3266;-7.9307;
687981495148176;-6.1588;-0.9233;-7.2482;
687981505255728;-8.9279;0.1834;-1.7216;
687981515363280;-20.1987;0.6505;0.0580;
687981525462498;-10.3750;2.3874;2.0728;
687981535570051;-4.6663;1.9107;-0.8234;
687981545677551;-7.6391;-2.6671;-3.0823;
687981555772394;-9.2178;-3.5919;-4.4261;
687981565879894;-9.4119;-0.6048;-6.0912;
687981575987446;-10.6170;0.6936;-2.5986;
687981586088019;-8.1206;1.2951;-1.8823;
687981596195519;-9.5629;0.8447;-5.3581;
687981606303019;-14.4114;-1.1773;-1.8894;
687981616431926;-11.6204;1.2422;0.2737;
687981626539530;-8.9471;1.5802;-0.5432;
687981636647030;-5.4042;-1.0430;0.7648;
687981646724165;-8.0249;-1.8287;-3.2524;
687981656831665;-14.3441;-0.9640;-6.0359;
687981666939217;-11.6611;0.7442;0.6380;
687981677073071;-6.0197;1.4483;5.1870;
687981687180623;-5.0809;-0.5710;0.1732;
687981697288176;-11.1440;-2.0707;-9.5357;
687981707391457;-10.9810;-0.3485;-8.0985;
687981717499009;-7.1291;0.7872;-1.0271;
687981727606509;-10.1330;0.6769;-0.3562;
687981737705519;-10.8658;0.8471;-0.5647;
687981747813071;-9.3616;0.6553;-0.9984;
687981757920571;-10.3941;0.0494;-0.6245;
687981768054061;-10.0633;-0.3461;0.5204;
687981778161613;-9.6778;-0.2572;-2.0498;
687981788269113;-7.8093;0.7152;-3.5183;
687981798367603;-8.2837;0.0470;-3.3123;
687981808475155;-14.4497;0.5524;-4.1363;
687981818582655;-12.5596;1.7429;-0.5192;
687981828690207;-6.8824;0.8877;2.3889;
687981838797759;-7.8906;0.6027;-2.2965;
687981848905259;-11.1966;-0.0682;-1.8751;
687981858999373;-9.7184;0.0876;0.3215;
687981869106926;-8.5089;-0.2189;-2.9985;
687981879214426;-9.4669;-0.3338;-4.5724;
687981889319061;-9.8815;-0.0655;-1.1707;
687981899426561;-9.7352;0.8423;0.1229;
687981909534113;-7.2631;-0.1280;-1.2066;
687981919640936;-9.7472;-0.3987;-4.2921;
687981929748488;-12.5979;-1.0023;-2.5576;
687981939855988;-9.4884;0.4253;0.6188;
687981949961144;-7.7877;0.0039;-1.8129;
687981960068696;-12.5596;-1.5413;-4.0095;
687981970176196;-6.4319;-0.2883;-2.0569;
687981980288436;4.8891;-0.0607;-3.1376;
687981990395988;-2.8507;-2.0994;-12.3482;
687982000503488;-28.9807;-2.4948;-7.3367;
687982010611873;-25.9911;1.4698;8.6124;
687982020719426;-3.8423;5.1039;7.9992;
687982030826926;-1.6648;1.5778;-3.5375;
687982040938905;-21.4732;-7.7910;-0.0760;
687982051046457;-28.6071;-4.2553;4.1880;
687982061153957;-5.3372;3.0820;4.7725;
687982071260832;0.7211;-2.7030;5.2564;
687982081368384;-16.2870;-3.7307;-1.0391;
687982091475884;-18.0308;1.7189;-5.1879;
687982101583488;-4.5778;0.6936;-5.1185;
687982111691040;-3.6508;-1.1004;-10.0555;
687982121798540;-9.0120;-1.6657;-11.5911;
687982131896561;-9.4071;0.6123;-6.9200;
687982142004113;-7.1554;2.4903;-4.4237;
687982152111613;-7.5099;1.8724;-3.9784;
687982162225936;-7.5434;1.7907;3.6132;
687982172333488;1.6792;2.8400;11.7410;
687982182440988;-6.8031;-2.9498;-13.0693;
687982192550311;-29.0934;-8.4619;-33.7185;
687982202657863;-14.6701;0.6099;-6.2252;
687982212765363;8.8944;6.3374;20.1419;
687982222873019;-1.3726;0.2913;-5.3127;
687982232980571;-25.4641;-3.8267;-24.4502;
687982243088071;-18.9389;2.3249;-0.6126;
687982253195103;-4.5443;6.3159;14.0025;
687982263302655;-10.4013;0.9069;-0.3251;
687982273410155;-14.6246;-0.2740;-5.0396;
687982283516353;-11.3521;1.9466;1.7877;
687982293623905;-8.8872;0.2722;2.2310;
687982303731405;-9.7328;-0.9018;-3.6117;
687982313836769;-6.9517;-0.9233;-1.3839;
687982323944269;-3.2530;-1.0454;-0.3897;
687982334051821;-8.3602;-2.0731;-4.2634;
687982344161978;-10.2574;-0.7555;-5.2621;
687982354269530;-6.1493;-0.3314;-2.4476;
687982364376978;-8.8490;-0.8707;-5.7437;
687982374483228;-10.0780;0.2267;-4.0023;
687982384590780;-3.4113;-0.0778;1.4477;
687982394698280;-7.5745;-2.0085;-3.4250;
687982404805519;-16.1551;-1.2730;-6.2420;
687982414913071;-11.7069;-0.4274;2.7410;
687982425020571;-7.5888;-0.4729;3.7687;
687982435126978;-10.7845;-1.1100;-2.6919;
687982445234530;-12.6290;-1.7306;-3.3912;
687982455342030;-11.8002;-0.3461;-0.4714;
687982465446405;-9.8312;-0.1424;1.1288;
687982475553957;-9.7041;-0.6383;-0.6556;
687982485661457;-8.3913;-1.6250;-3.6718;
687982495780155;-9.8384;-1.7115;-3.9350;
687982505887707;-8.7317;-0.6790;-1.4749;
687982515995207;-8.2549;-0.7819;-1.4821;
687982526091873;-11.6853;-0.4155;-3.6093;
687982536199373;-8.7963;-0.6359;-1.9110;
687982546306821;-4.6280;-0.8130;-2.0593;
687982556437655;-10.0899;-1.4767;-5.0468;
687982566545103;-9.7232;-0.6598;-3.4561;
687982576652655;-9.3855;-0.1232;-2.9411;
687982586721040;-11.2516;-0.0200;-2.7972;
687982596828540;-9.5916;0.2411;-1.7695;
687982606936040;-11.6539;0.5213;-2.9483;
687982617074686;-13.4124;0.9308;-1.7671;
687982627182186;-7.9146;1.7764;-0.0018;
687982637289634;-4.9131;0.5405;-3.0942;
687982647398540;-8.0489;-2.0396;-5.8397;
687982657506040;-4.7094;-0.5231;-6.5175;
687982667613540;-17.3052;-0.1759;-5.5810;
687982677730728;-14.6845;3.0939;-1.2930;
687982687838228;-2.6853;2.1311;0.6882;
687982697945728;-5.1814;-1.9463;-3.3769;
687982708029165;-10.2024;-2.4275;-5.5570;
687982718136665;-10.1354;-0.9449;-4.2897;
687982728244165;-6.1493;0.7343;-4.7112;
687982738377811;-7.3277;-0.9951;-4.9531;
687982748485311;-11.3043;-0.2740;-2.9913;
687982758592811;-13.4722;0.1427;-1.4988;
687982768674061;-11.8241;0.8279;-2.0569;
687982778781561;-5.2702;-0.3051;-2.1434;
687982788889061;-5.9910;-0.8417;-4.1387;
687982798999998;-10.2981;0.2028;-6.8049;
687982809107498;-11.9246;1.4435;-4.4357;
687982819214998;-5.3396;1.3669;-0.7708;
687982829320311;-22.2422;-1.4145;1.6271;
687982839427811;-17.8152;0.9260;5.2086;
687982849535311;2.6183;0.3344;4.0298;
687982859642655;-5.2484;-2.8038;-9.3514;
687982869750155;-10.8203;-2.7655;-11.3922;
687982879857655;-6.2019;1.9490;-2.8092;
687982889964686;-18.6586;1.9609;-0.0927;
687982900072186;-11.4769;1.0244;-1.3768;
687982910179686;-3.5166;-0.2788;-0.7107;
687982920290207;-6.9398;-0.3676;-2.4619;
687982930397707;-8.9303;0.5237;-6.1008;
687982940505207;-11.9441;1.0244;-7.7369;
687982950613905;-10.2670;1.4315;-3.4705;
687982960721405;-7.7255;0.7609;-0.1741;
687982970828905;-10.4228;0.4014;-2.4739;
687982980943123;-11.2229;0.8471;-0.7780;
687982991050623;-9.5892;1.2494;2.7939;
687983001158123;-4.5730;-1.2849;-1.2835;
687983011255415;-12.1738;0.1977;-17.4769;
687983021362915;-17.8585;3.4558;-8.7332;
687983031470415;-6.4080;2.2077;8.9815;
687983041584373;-7.7327;0.7370;0.1325;
687983051691873;-9.9437;0.0852;-1.6451;
687983061799373;-6.0966;-0.2835;-3.6571;
687983071913644;-18.1484;2.2962;-11.6868;
687983082021144;-8.3339;2.0112;1.6056;
687983092128644;-3.7633;0.0805;1.2751;
687983102228644;-11.2660;0.5261;-6.8647;
687983112336144;-8.8825;0.3990;-2.3518;
687983122443644;-9.5533;0.3272;-3.8656;
687983132553905;-11.8887;0.9212;-3.7149;
687983142661405;-7.1049;-0.2955;-0.5336;
687983152768905;-8.4706;0.3559;-5.5256;
687983162874582;-10.6887;0.9428;-3.5710;
687983172982082;-6.9805;-0.3796;-0.8354;
687983183089582;-11.0073;-0.5518;-7.1186;
687983193189478;-11.2134;0.2387;-3.8728;
687983203296978;-6.2163;-0.2812;-0.5862;
687983213404478;-9.2656;0.0254;-6.8865;
687983223525936;-11.0121;0.5309;-3.9712;
687983233633436;-9.1053;0.1068;-0.9984;
687983243740936;-9.5124;-0.8130;-4.3878;
687983253851144;-9.2273;-0.4513;-2.1290;
687983263958644;-7.6920;-1.2778;-1.7647;
687983274066144;-10.7318;-0.9497;-5.4706;
687983284164894;-11.4338;-0.4346;-2.1936;
687983294272394;-7.6032;-0.8034;-1.1874;
687983304379894;-7.8260;-0.3413;-4.6226;
687983314481144;-9.7567;-0.9784;-3.8225;
687983324588644;-10.1569;-0.8249;-3.1158;
687983334696144;-9.6108;-1.0717;-3.7172;
687983344808176;-9.2417;-1.1124;-2.6680;
687983354915676;-7.8117;-0.9784;-2.6584;
687983365023123;-9.6515;-0.5542;-4.1937;
687983375131665;-11.1751;-0.4155;-2.9985;
687983385239165;-8.5472;-0.8994;-0.4208;
687983395346665;-7.6367;-1.0047;-2.3853;
687983405449998;-9.8719;-1.6418;-3.1253;
687983415557498;-10.3487;-1.8455;-1.7456;
687983425664998;-10.2000;-1.0095;-3.8489;
687983435780155;-9.2850;-1.2419;-3.4490;
687983445887655;-7.1169;-1.0884;-1.7599;
687983455995155;-8.6620;-1.1219;-4.4046;
687983466090571;-10.2479;-1.6226;-4.7928;
687983476198071;-9.8049;-1.2203;-2.2606;
687983486305519;-8.1494;-1.2060;-2.9818;
687983496459894;-9.0670;-0.8946;-4.5030;
687983506567394;-10.3125;-0.7220;-3.9951;
687983516674894;-10.9690;-0.3772;-2.6441;
687983526755676;-9.1340;-0.5423;-1.0439;
687983536863228;-8.9064;-0.7101;-1.6044;
687983546970728;-9.7615;-0.6550;-2.7829;
687983557066405;-8.6788;0.2818;-2.4954;
687983567173957;-9.2683;0.2339;-4.1100;
687983577281509;-10.0442;0.3631;-5.1592;
687983587401457;-9.1627;0.6673;-2.7398;
687983597509009;-8.9399;0.6075;-3.6933;
687983607616561;-10.3077;0.0685;-4.2538;
687983617737134;-9.6586;-0.0153;-3.3147;
687983627844686;-8.2238;0.6697;-2.3614;
687983637952238;-9.1675;0.3416;-3.6165;
687983648033644;-10.1210;0.7657;-3.6957;
687983658141196;-9.2898;0.9069;-2.5265;
687983668248748;-7.6582;0.3727;-2.2989;
687983678366144;-7.6657;0.6505;-4.2275;
687983688473696;-11.3498;-0.1926;-4.3615;
687983698581248;-10.5544;0.6003;-2.3997;
687983708677811;-8.8968;0.2411;-3.3338;
687983718785363;-7.6104;0.5285;-2.5959;
687983728892915;-9.0407;-0.2213;-2.1817;
687983739009478;-9.7998;-0.0559;-3.9520;
687983749117030;-9.9700;-0.0416;-5.3151;
687983759224582;-9.8097;0.2985;-3.5136;
687983769324998;-8.8585;0.2243;-3.1134;
687983779432551;-10.3893;-0.2285;-4.2873;
687983789540103;-10.4396;0.7537;-2.1386;
687983799651040;-9.5581;-0.0009;-1.8153;
687983809758592;-10.0561;-0.4083;-1.6092;
687983819866144;-7.4357;0.3153;-0.8952;
687983829974686;-10.2479;-0.7364;-3.0033;
687983840082238;-11.0958;0.2339;-4.1076;
687983850189790;-8.7580;0.4301;-3.2644;
687983860294061;-8.1589;-0.0754;-3.5590;
687983870401613;-9.0263;-0.2644;-3.2764;
687983880509165;-9.1579;-0.1352;-4.6561;
687983890616353;-8.7123;0.4086;-3.8010;
687983900723905;-7.6391;0.0015;-2.6824;
687983910831457;-9.5148;-0.1926;-5.5594;
687983920938540;-9.2225;1.2709;-3.9401;
687983931046092;-9.6060;0.2339;-2.8427;
687983941153644;-9.8815;-0.2237;-2.6225;
687983951262655;-10.1067;0.1522;-1.6929;
687983961370207;-9.3760;-0.0778;-2.1386;
687983971477759;-11.7906;0.1546;-2.3590;
687983981584165;-11.5080;0.0302;-2.9195;
687983991691717;-7.0379;0.0637;-0.5288;
687984001799269;-7.8117;-0.4466;-4.8168;
687984011907082;-9.0526;0.8734;-6.1463;
687984022014634;-9.8815;0.3870;-5.0492;
687984032122186;-9.2106;1.1201;-3.5758;
687984042236040;-8.8370;-0.0802;-4.0884;
687984052343592;-10.1593;1.2326;-3.1181;
687984062451144;-9.5821;0.2937;-1.3457;
687984072569738;-8.6237;-0.2955;-0.7445;
687984082677290;-9.7161;-0.6024;-1.8033;
687984092784842;-10.4492;-0.2357;-2.5457;
687984102880519;-8.3770;-0.3003;-2.9483;
687984112988071;-9.6826;0.1475;-5.0324;
687984123095571;-7.9388;0.3176;-4.6657;
687984133203019;-9.4741;0.7104;-4.5197;
687984143310571;-10.9475;-0.1304;-3.9879;
687984153418123;-10.9570;0.1451;-1.4653;
687984163521248;-8.3650;-0.4657;-1.3648;
687984173628801;-9.1268;0.4301;-2.1075;
687984183736353;-10.6122;-0.4968;-2.0716;
687984193843540;-7.8691;0.2506;-1.5876;
687984203951092;-8.6979;0.7223;-4.4166;
687984214058644;-9.2513;-0.3652;-3.8201;
687984224168853;-11.6539;-0.1256;-4.3687;
687984234276405;-11.0695;0.1666;-3.3840;
687984244383957;-6.7911;0.6051;-2.9770;
687984254496144;-8.2334;0.0589;-2.3542;
687984264603696;-9.1364;-0.0583;-2.2798;
687984274711248;-9.9197;-0.8656;-3.8800;
687984284817238;-10.2503;-0.2022;-2.8813;
687984294924790;-10.0681;-0.7627;-2.3710;
687984305032342;-10.2718;0.3535;-3.9832;
687984315134061;-4.4868;0.0852;-2.8717;
687984325241613;-9.3975;0.3631;-3.9736;
687984335349165;-16.4115;0.2076;-3.0966;
687984345461665;-9.1460;-1.0860;-0.5001;
687984355569217;-4.8724;-0.2955;0.2043;
687984365676717;-7.7734;-0.3338;-4.3041;
687984375782238;-10.7198;-0.2046;-6.0479;
687984385889790;-10.7151;0.4735;-3.9616;
687984395997342;-9.2058;-0.0344;-3.1325;
687984406097498;-8.7171;-0.5782;-3.1325;
687984416204998;-9.2345;-0.0583;-1.7097;
687984426312551;-8.1326;-0.1137;-3.6188;
687984436539269;-10.0681;0.3392;-4.3328;
687984446646769;-10.2981;-0.0583;-2.5696;
687984456754321;-11.6539;-0.0488;-2.5217;
687984466754269;-7.9555;-0.3628;3.6084;
687984476861821;-2.0961;-1.7545;-4.0310;
687984486969373;-15.6808;1.1177;-15.1798;
687984497112446;-11.6707;0.9069;2.0177;
687984507219998;-5.8116;-0.5997;1.5218;
687984517327498;-8.4464;-0.7723;-7.2171;
687984527396248;-9.2130;-0.1184;-2.6512;
687984537503801;-11.3521;-0.0682;-1.5589;
687984547611301;-8.4153;-0.4753;-3.4992;
687984557704790;-7.7973;-0.3218;-4.3352;
687984567812342;-11.9584;0.3464;-3.5327;
687984577919842;-9.9532;-0.3266;-0.3012;
687984588041353;-7.0834;-0.6814;-3.0655;
687984598148905;-10.1474;0.0613;-4.4429;
687984608256405;-8.7485;0.2291;-1.9469;
687984618361561;-7.7518;0.0326;-3.6766;
687984628469113;-10.3989;-0.0081;-5.0898;
687984638576613;-9.8432;0.1738;-1.6211;
687984648681405;-9.0144;-0.7268;-3.1038;
687984658788957;-10.6241;-0.3580;-3.4250;
687984668896457;-8.6046;-0.7436;-1.7169;
687984679012915;-9.3329;0.2124;-2.9363;
687984689120467;-11.1126;0.3464;-4.2299;
687984699227915;-9.0407;0.6984;-1.8009;
687984709328748;-7.6872;0.4564;-2.9985;
687984719436301;-9.9963;-0.1878;-3.7125;
687984729543801;-11.0839;0.4759;-3.3123;
687984739683071;-9.5462;0.0230;-2.6297;
687984749790676;-8.5089;0.2889;-1.6714;
687984759898176;-8.3794;-0.4131;-1.8440;
687984769978488;-8.8777;-0.7388;-4.1459;
687984780086040;-9.0000;-0.7603;-4.5437;
687984790193540;-8.5208;-0.0344;-4.6537;
687984800319478;-8.5256;0.6529;-5.5089;
687984810427030;-9.6538;0.8973;-4.3448;
687984820534530;-9.9509;0.3703;-2.0043;
687984830635207;-8.9423;0.1020;-2.2439;
687984840742759;-9.8049;-0.1041;-2.5265;
687984850850259;-10.6241;0.5285;-2.3542;
687984860955103;-9.1053;-0.5662;-1.0056;
687984871062655;-7.8500;0.0948;-2.0907;
687984881170155;-9.6586;-0.1256;-4.8598;
687984891271665;-10.5855;-0.6191;-4.1076;
687984901379217;-10.5090;-0.3556;-2.7135;
687984911486717;-10.3606;-0.1974;-3.8560;
687984921583436;-10.6122;0.0948;-1.9421;
687984931690988;-7.4501;0.2195;-0.7612;
687984941798488;-7.4501;-0.6933;-1.8966;
687984951919321;-10.4587;-0.5375;-3.4729;
687984962026926;-10.6696;-0.5518;-3.4872;
687984972134426;-9.8408;-0.0826;-3.7412;
687984982226144;-8.6596;-0.0176;-3.0033;
687984992333696;-8.1829;-0.3915;-2.6106;
687985002441196;-9.5533;-0.5806;-4.4815;
687985012562603;-9.6323;-1.0525;-2.6752;
687985022670155;-7.8954;-0.6096;-3.0942;
687985032777603;-9.8145;-0.5136;-4.4309;
687985042910832;-10.3125;0.5070;-3.7555;
687985053018332;-9.8384;-0.2309;-2.9339;
687985063125884;-9.5148;0.2267;-2.1458;
687985073220988;-9.6897;-0.8584;-1.2882;
687985083328540;-9.5052;-0.3867;-2.4882;
687985093436040;-9.4884;0.2291;-3.5638;
687985103539582;-8.7051;-0.3652;-2.1386;
687985113647134;-7.7662;-0.6096;-3.7986;
687985123754634;-10.3220;-0.2524;-5.8083;
687985133865311;-9.8791;-0.4585;-2.8355;
687985143972863;-8.6883;-0.6263;-3.3386;
687985154080311;-9.9413;0.2195;-3.6957;
687985164190832;-8.0536;-0.5399;-1.1133;
687985174298384;-7.8571;0.1092;-2.2534;
687985184405884;-10.5736;-0.9688;-3.1974;
687985194501248;-11.5104;0.4660;-2.4667;
687985204608801;-9.3185;0.3751;-2.5986;
687985214716301;-7.3086;0.0517;-1.5374;
687985224836561;-7.6176;0.0374;-3.4753;
687985234944061;-11.0575;-0.5351;-4.7136;
687985245051613;-10.5377;-0.5518;-2.7206;
687985255167238;-8.7003;-0.2644;-2.1960;
687985265274842;-8.5017;-0.3290;-3.8106;
687985275382342;-9.0981;0.0805;-3.0081;
687985285483748;-10.0155;-0.1807;-2.3495;
687985295591301;-9.8910;-0.4585;-2.6871;
687985305698801;-10.3654;-0.5447;-1.3839;
687985315792603;-9.7807;-0.0009;-2.3447;
687985325900103;-8.5304;0.4516;-3.4968;
687985336007655;-9.2082;-0.0488;-2.7422;
687985346104165;-10.2144;0.1331;-3.3482;
687985356211665;-9.0742;-0.2429;-3.1902;
687985366319165;-7.7399;-0.3365;-2.4954;
687985376501196;-11.5080;0.5979;-4.1865;
687985386608801;-13.8867;0.3631;-2.8956;
687985396716301;-7.3998;0.7729;-0.3682;
687985406771978;-6.6476;0.2124;-1.2978;
687985416879478;-16.9576;-0.3915;-2.6393;
687985426987030;-10.0035;0.7537;-0.9742;
687985437065571;-2.1870;1.0026;-2.8092;
687985447173123;-5.3276;-0.5136;-7.1450;
687985457280676;-9.9700;0.1618;-7.4997;
687985467417290;-10.0274;1.3765;-4.3567;
687985477524842;-7.3998;1.1082;-3.8776;
687985487632342;-6.8895;0.9906;-4.8000;
687985497729478;-7.7231;1.6735;-3.6909;
687985507837030;-9.1053;0.6505;-3.0990;
687985517938853;-13.0002;0.9428;-3.1878;
687985528046405;-15.7385;0.8734;-0.3419;
687985538153957;-7.9890;0.9763;4.3292;
687985548276561;-7.0762;1.5634;-4.1004;
687985558384113;-13.6113;0.6960;-7.2697;
687985568491613;-9.1244;-1.1195;2.4703;
687985578601665;-6.2378;0.2435;0.7552;
687985588709217;-11.3450;-0.4202;-3.8680;
687985598816717;-10.9379;-1.2084;-2.7422;
687985608912186;-8.5041;-0.4848;-1.4294;
687985619019738;-7.8260;-0.5207;-2.1194;
687985629127238;-8.4993;-0.1448;-2.9172;
687985639246769;-7.2488;-0.6718;-3.6093;
687985649354321;-8.5280;0.1068;-6.8818;
687985659461821;-10.7677;1.0699;-8.1894;
687985669565519;-8.7891;0.9404;-2.3973;
687985679673071;-7.0857;0.8949;-0.4666;
687985689780571;-11.2062;-0.1137;-3.9855;
687985699851248;-13.5368;-0.1017;-0.1382;
687985709958801;-10.2072;-0.9975;3.2201;
687985720066301;-9.3497;-0.3748;-1.1898;
687985730208748;-10.2550;-0.8608;-3.6547;
687985740316248;-9.0072;-0.8154;-1.4557;
687985750423801;-8.1326;-1.0262;-2.5935;
687985760534998;-10.1641;-0.4848;-5.7963;
687985770642551;-8.7963;-0.6670;-2.8140;
687985780750051;-6.8533;-0.7149;-0.8856;
687985790857082;-8.7772;-0.5614;-5.1018;
687985800964634;-11.5343;-1.0956;-3.6885;
687985811072134;-8.9949;-0.7723;0.4774;
687985821195728;-7.8500;-0.1448;-2.2582;
687985831303280;-9.9437;-0.2166;-5.2935;
687985841410780;-9.3688;-0.5734;-2.3973;
687985851509165;-10.0442;0.0206;-1.1587;
687985861616717;-14.2244;0.0350;-1.6666;
687985871724217;-11.0049;1.2565;0.2019;
687985881835103;-6.5085;1.5778;-0.0688;
687985891942655;-7.3636;-0.0344;-2.8331;
687985902050155;-10.5066;-1.2969;-4.7904;
687985912145832;-12.2889;-0.5590;-3.1854;
687985922253332;-9.2608;0.3607;-0.3371;
687985932360884;-9.7759;0.7271;-2.6536;
687985942468853;-9.6634;0.2243;-4.5317;
687985952576405;-8.1182;-0.1232;-2.9746;
687985962683905;-8.0010;0.8686;-3.3051;
687985972810884;-9.5916;0.9619;-4.2873;
687985982918436;-7.5051;1.4650;-4.0406;
687985993025936;-8.0082;1.0053;-5.7150;
687986003112603;-11.3067;1.5658;-5.3964;
687986013220155;-11.7882;1.6352;-0.9048;
687986023327655;-10.7653;2.2053;-0.3778;
687986033442082;-9.7065;1.6831;-0.0640;
687986043549634;-8.7027;1.7572;-3.3123;
687986053657134;-8.2167;0.0350;-5.4682;
687986063765832;-9.0168;0.6314;-5.0850;
687986073873384;-8.2645;1.3334;-2.9148;
687986083980884;-8.7772;1.8867;-2.5959;
687986094082655;-9.5605;1.7644;-3.7819;
687986104190207;-10.9594;1.6017;-2.4643;
687986114297707;-9.1292;1.6328;-0.4352;
687986124386457;-7.9217;0.6817;-1.6235;
687986134494009;-8.2693;0.3272;-4.0860;
687986144601509;-10.3702;0.1259;-4.8861;
687986154744738;-9.3497;0.4373;-4.4620;
687986164852290;-10.3917;1.6208;-4.4094;
687986174959790;-10.1306;1.5368;-1.6355;
687986185060571;-8.2837;1.3238;-0.0640;
687986195168123;-9.4262;0.3344;-2.0258;
687986205275623;-11.0001;-0.1376;-2.7709;
687986215380832;-10.8538;0.0996;0.1421;
687986225488384;-9.0838;-0.1950;-0.7804;
687986235595884;-9.1627;-1.0214;-4.1650;
687986245711353;-8.3124;-1.1677;-4.4070;
687986255818905;-8.0967;-1.2849;-2.6704;
687986265926405;-9.0790;-0.7316;-5.2645;
687986276022394;-9.1747;-0.3027;-5.3438;
687986286129946;-9.4358;-0.8656;-2.1458;
687986296237394;-10.9953;-0.3461;-1.1946;
687986306369113;-11.8241;-0.3724;-0.8713;
687986316476717;-7.6247;-0.7149;-0.7684;
687986326584165;-8.5184;-1.2395;-1.5036;
687986336654009;-9.7113;-1.4599;-4.6250;
687986346761561;-9.5366;-1.2778;-6.0168;
687986356869113;-8.1876;-1.2132;-4.0119;
687986366985676;-9.5366;-0.6335;-2.6871;
687986377093228;-10.6409;-0.9616;-2.7326;
687986387200780;-10.1282;0.0230;-1.4605;
687986397310259;-8.7652;-0.1472;0.3984;
687986407417811;-10.6457;-0.4968;-0.8761;
687986417525363;-8.6883;-0.5375;-2.9698;
687986427633540;-8.0225;0.0757;-4.3400;
687986437741092;-8.9088;-0.1783;-4.1315;
687986447848592;-9.0957;-0.3194;-3.8106;
687986457966561;-11.0408;0.0015;-4.3352;
687986468074113;-8.8490;0.3224;-1.7862;
687986478181613;-6.0966;0.1211;-2.2175;
687986488282915;-7.7973;-0.1280;-4.9077;
687986498390467;-9.0263;-0.5542;-2.9770;
687986508497967;-9.2584;0.5620;-2.3351;
687986518591040;-8.9399;0.9500;-2.3228;
687986528698592;-7.5745;0.5501;-3.9015;
687986538806144;-10.8852;1.3597;-4.1530;
687986548926248;-12.0494;1.1058;-1.6953;
687986559033801;-10.3606;1.1465;-0.9263;
687986569141353;-8.5113;0.4397;-1.4007;
687986579235832;-8.1159;0.1451;-2.7876;
687986589343384;-12.1451;-0.0248;-4.0741;
687986599450936;-10.8634;1.0101;-0.6508;
687986609567186;-8.5017;0.5668;0.5587;
687986619674738;-10.2838;0.4564;-1.4533;
687986629782290;-8.6859;-0.6909;-1.9564;
687986639901978;-8.0154;0.3942;-3.0488;
687986650009530;-8.4440;0.1427;-3.7699;
687986660117082;-8.3028;-0.0153;-5.1999;
687986670219894;-9.5243;0.1929;-5.4826;
687986680327446;-9.7878;0.4253;-4.9579;
687986690434998;-11.3809;1.4148;-4.2203;
687986700528957;-10.8658;0.4134;-0.8139;
687986710636509;-7.6104;-0.6263;-0.1262;
687986720744061;-8.6788;-0.1065;-2.3830;
687986730872186;-10.7151;-0.3820;-2.0210;
687986740979738;-8.5878;-0.0105;-3.3314;
687986751087290;-9.7783;0.0541;-3.9206;
687986761177134;-8.4296;-0.7436;-3.0464;
687986771284738;-8.3674;-0.8082;-4.0956;
687986781392290;-10.8227;-1.0047;-3.5949;
687986791515623;-9.9413;-0.9377;-2.7972;
687986801623176;-8.6764;-0.2979;-3.7771;
687986811730728;-9.3209;0.2243;-1.9995;
687986821829373;-10.5808;-0.3338;-2.3276;
687986831936926;-10.2431;0.5835;-1.8846;
687986842044478;-7.5338;-0.5183;-1.6140;
687986852157603;-10.1785;-0.6861;-1.5374;
687986862265103;-11.3091;-0.4083;-2.1458;
687986872372707;-9.1316;-0.6431;-2.3518;
687986882483436;-9.1579;-1.2227;-2.1170;
687986892590988;-9.0455;-1.3711;-1.6307;
687986902698540;-8.0824;-0.6909;-3.9497;
687986912803019;-9.4932;0.0159;-5.2502;
687986922910571;-9.7783;-0.0607;-2.0091;
687986933018123;-8.6429;-0.2429;-2.7757;
687986943122811;-7.9364;-0.0921;-4.3902;
687986953230363;-12.4373;0.6721;-2.2271;
687986963337863;-9.3473;-0.3820;-0.0425;
687986973438957;-7.2535;-0.7436;-2.8813;
687986983546509;-9.8527;-0.5949;-4.8933;
687986993654061;-8.8394;-0.3437;-1.9684;
687987003776769;-7.8739;-0.4992;-4.1124;
687987013884321;-9.5052;-0.2453;-4.7183;
687987023991873;-9.7854;0.2770;-1.9062;
687987034073332;-12.3248;-0.0081;-1.4127;
687987044180884;-9.9078;-0.7053;-0.5671;
687987054288436;-8.8131;-0.0081;-1.6522;
687987064418696;-10.2718;0.0685;-0.8282;
687987074526301;-8.9542;-0.2285;-2.7494;
687987084633853;-9.9317;-0.2931;-5.8851;
687987094738853;-10.7749;0.0757;-2.6680;
687987104846405;-7.4285;-0.0559;-1.9134;
687987114953957;-9.2178;-0.3485;-4.2778;
687987125069321;-10.4803;0.0781;-0.8426;
687987135176926;-10.2646;-0.3963;-0.6054;
687987145284478;-9.2683;-0.5830;-2.3877;
687987155375519;-7.2583;0.0302;-4.4958;
687987165483019;-9.5629;1.2278;-6.3523;
687987175590623;-9.8934;0.8471;-3.9350;
687987185708332;-9.1579;1.1656;-4.3256;
687987195815884;-12.6051;0.4349;-3.8728;
687987205923436;-10.3439;0.7008;-1.1994;
687987216018488;-6.7983;0.6888;-1.7384;
687987226126040;-7.0044;-0.3242;-1.7240;
687987236233540;-11.3474;-0.0392;-2.6991;
687987246364946;-12.8423;0.1475;-3.4131;
687987256472498;-7.5601;0.1427;-3.7292;
687987266580051;-9.1077;0.7490;-4.2179;
687987276655207;-9.4908;0.3368;-3.8273;
687987286762759;-9.3185;0.8566;-3.2405;
687987296870311;-8.7987;-0.3580;-2.8451;
687987307007394;-8.8490;0.0637;-3.6260;
687987317114946;-11.1416;0.4349;-4.4381;
687987327222498;-11.3569;0.5883;-2.1362;
687987337328957;-10.5927;0.6003;0.2761;
687987347436509;-10.0322;-0.4466;-0.1935;
687987357544061;-7.7279;0.0924;-2.1888;
687987367643853;-8.4368;0.2818;-4.4982;
687987377751405;-11.0862;-0.2572;-4.7207;
687987387858957;-10.2407;-0.0849;-2.8594;
687987397956248;-8.3052;-0.3123;-3.8058;
687987408063801;-8.6046;-0.1663;-2.8789;
687987418171353;-10.3606;-0.5231;-3.9230;
687987428299998;-10.4539;-0.4609;-2.4380;
687987438407551;-9.2850;0.2363;-1.1611;
687987448515103;-7.1315;-0.5973;-3.5423;
687987458599738;-7.2272;0.3942;-4.5245;
687987468707290;-11.3282;0.7271;-4.7426;
687987478814842;-13.3597;0.1403;-3.4681;
687987488943436;-9.4860;-0.4992;-1.3696;
687987499050936;-7.7207;-0.7316;-0.4834;
687987509158540;-8.4488;-0.8994;-2.3327;
687987519248905;-10.3196;-0.7507;-2.7948;
687987529356405;-11.2708;-0.0826;-2.5672;
687987539464009;-10.8275;0.2722;-2.2510;
687987549575051;-4.6041;-0.4083;-3.1591;
687987559682603;-9.4334;-0.0296;-3.3625;
687987569790207;-14.5645;-0.1472;-2.7541;
687987579897655;-10.4803;0.1499;-0.9000;
687987590005207;-5.4257;-0.7292;-3.1205;
687987600112811;-8.5017;-0.2309;-3.8369;
687987610223384;-10.3965;0.0015;-3.3745;
687987620330936;-10.1043;0.9188;-3.4801;
687987630438540;-9.0263;-0.1280;-1.8153;
687987640551353;-9.4717;-0.2548;-3.0894;
687987650658905;-9.3927;0.7104;-2.0859;
687987660766561;-7.0283;0.1283;-2.4619;
687987670870103;-8.5256;-0.1065;-1.8894;
687987680977655;-7.6104;-0.1974;-4.7402;
687987691085259;-10.9307;-0.0153;-6.3811;
687987701182915;-12.0733;0.8566;-3.5327;
687987711290467;-11.1823;-0.0296;-1.2787;
687987721398019;-7.9962;0.2889;-0.0760;
687987731523280;-9.8312;0.2794;-0.2055;
687987741630832;-11.5630;0.7295;-0.0520;
687987751738436;-6.6811;-0.4633;-1.1157;
687987761846613;-8.3770;0.4301;-5.4802;
687987771954165;-9.5773;-0.2261;-3.7555;
687987782061821;-12.7391;0.5764;-2.3542;
687987792156926;-13.1871;-0.0392;-1.3959;
687987802264478;-5.6509;-0.2835;-2.0330;
687987812372082;-5.3515;-0.5614;-2.4260;
687987822478071;-8.8394;-0.0897;-4.5604;
687987832585571;-12.8877;1.2159;-5.0228;
687987842693176;-10.9403;0.8973;-3.1783;
687987852812238;-7.0570;1.3071;-2.6824;
687987862919790;-9.0646;0.3200;-1.9134;
687987873027394;-9.6730;0.8160;-2.3495;
687987883136926;-9.8527;-0.0583;-2.0163;
687987893244478;-5.9886;-0.6048;-2.1601;
687987903352134;-6.5204;-0.1161;-8.2134;
687987913451509;-14.4760;1.5368;-7.2769;
687987923559061;-12.9452;1.2784;-0.5527;
687987933666665;-7.6319;0.5237;0.8967;
687987943779269;-5.6438;-0.5590;-0.7564;
687987953886821;-9.0191;-0.1472;-2.4188;
687987963994426;-11.7763;0.9093;-4.2802;
687987974106196;-10.1521;0.2818;-3.3410;
687987984213748;-9.3951;0.4229;-3.3793;
687987994321353;-9.3162;-0.1663;-2.1482;
687988004424634;-8.1063;0.0709;-1.7432;
687988014532186;-9.5653;-0.1831;-2.7661;
687988024639790;-9.6802;0.2961;-1.5589;
687988034761196;-6.2833;-0.1280;-3.1854;
687988044868748;-6.6117;0.2001;-4.5269;
687988054976353;-9.7256;0.7633;-5.2143;
687988065065363;-12.1570;0.9308;-3.5160;
687988075172915;-7.6152;0.1881;-2.2558;
687988085280519;-11.4458;-0.2213;-2.1386;
687988095393801;-15.7528;-0.1304;0.2641;
687988105501353;-11.0097;0.0182;0.4223;
687988115608957;-7.0786;0.4181;0.0846;
687988125711926;-11.4266;0.2626;-0.7397;
687988135819478;-10.7103;-0.2572;-1.7791;
687988145927082;-9.3066;-0.0607;-2.8187;
687988156056978;-8.7820;-0.5853;-1.6499;
687988166164530;-5.0761;-0.3075;-3.7149;
687988176272082;-4.9609;-1.4551;-6.5653;
687988186372186;-9.2345;-0.7316;-7.4399;
687988196479790;-9.1077;0.2770;-5.2768;
687988206587342;-7.9241;0.3583;-9.1525;
687988216660259;-10.5616;1.0531;-6.6470;
687988226767863;-9.6227;1.2350;0.0006;
687988236875415;-7.3277;-0.1543;0.4702;
687988247015051;-11.2349;-0.5949;-1.1037;
687988257122655;-14.4879;0.3870;-0.1741;
687988267230259;-10.8852;-0.3676;1.9747;
687988277312551;-7.7806;-0.5734;0.3817;
687988287420155;-8.6524;-1.5963;-0.6341;
687988297527707;-10.2215;-2.2744;-2.1960;
687988307667967;-9.3879;-1.6609;-4.2009;
687988317775571;-8.6189;0.8375;-4.0334;
687988327883123;-7.2894;1.0460;-3.7651;
687988337963748;-9.7854;1.3214;-2.7206;
687988348071301;-12.2001;1.9968;-4.0669;
687988358178905;-7.9241;1.0819;-3.8919;
687988368284269;-4.9298;0.9523;-3.4657;
687988378391769;-8.9590;0.9021;-4.8646;
687988388499426;-11.1221;0.3033;-3.9903;
687988398634061;-8.8729;1.1489;-2.6130;
687988408741561;-10.5185;1.7859;-2.2941;
687988418849217;-12.6601;0.4373;-0.2509;
687988428954582;-10.5664;-0.2979;1.2440;
687988439062082;-7.3086;0.6362;-0.1959;
687988449169686;-8.0082;0.4831;-4.5245;
687988459259269;-9.0120;-0.5782;-6.4385;
687988469366769;-11.6300;1.2326;-6.1487;
687988479474373;-10.1904;2.1718;-1.4438;
687988489607030;-7.7614;0.6410;-2.7446;
687988499714634;-6.7385;0.2243;-3.2907;
687988509822186;-8.3076;0.6266;-2.5217;
687988519897707;-8.6142;0.0685;-2.8116;
687988530005207;-9.6562;0.6697;-4.3902;
687988540112811;-12.2124;1.0101;-5.1066;
687988550235571;-13.6137;1.3358;-1.5852;
687988560343123;-7.4477;0.8758;1.9122;
687988570450728;-5.1646;0.2435;-0.9718;
687988580549582;-9.2779;-1.9510;-4.3831;
687988590657082;-10.6624;-0.2596;-5.3151;
687988600764738;-9.9389;0.9212;-3.5447;
687988610871665;-10.6959;1.6567;-0.9574;
687988620979217;-8.3195;0.1642;1.4139;
687988631086769;-7.1889;0.1331;-2.2869;
687988641200884;-9.9604;-0.4107;-5.2454;
687988651308436;-9.1890;0.1546;-4.8144;
687988661416092;-13.3143;0.2315;-4.2634;
687988671522030;-8.3291;0.3009;-2.0306;
687988681629582;-10.6122;0.1068;-0.7107;
687988691737186;-10.8706;-0.0200;-1.0510;
687988701839582;-10.5927;0.5859;-0.3227;
687988711947082;-7.4094;-0.0033;1.0953;
687988722054686;-7.8595;0.1140;-2.4715;
687988732173384;-8.7604;-0.3365;-5.4658;
687988742280936;-8.9064;0.1403;-5.1879;
687988752388540;-10.7510;0.6338;-4.3663;
687988762498592;-8.2741;0.2459;-3.2094;
687988772606144;-8.0704;-0.3461;-5.0180;
687988782713748;-11.3139;0.2001;-2.7637;
687988792814009;-9.2874;0.8566;-1.1635;
687988802921561;-10.9953;0.8303;-4.2826;
687988813029165;-7.9364;0.0876;1.0451;
687988823143801;-8.6189;0.6601;-1.2209;
687988833251405;-12.6769;-0.2429;-2.9172;
687988843358957;-11.7452;0.4902;0.0413;
687988853460676;-7.0953;-0.2788;-0.2198;
687988863568228;-7.4740;-1.0765;-4.0573;
687988873675832;-9.9676;-0.6479;-5.7102;
687988883779009;-12.8638;0.6218;-3.4872;
687988893886561;-8.5328;1.7046;-1.1109;
687988903994165;-6.1158;0.5405;-2.4835;
687988914105519;-9.0048;-0.8106;-5.4371;
687988924213071;-11.5558;0.5572;-2.8765;
687988934320676;-8.6046;-0.3218;-0.7684;
687988944436769;-7.8906;-0.4370;-3.9808;
687988954544321;-9.8145;-1.2203;-3.5853;
687988964651926;-9.6586;-0.6742;-3.5662;
687988974767290;-12.8901;-0.1759;-3.0727;
687988984874894;-12.3535;0.6936;-0.0353;
687988994982446;-5.9360;0.4735;1.2488;
687989005079217;-6.6045;-0.4370;-3.2477;
687989015186769;-12.5046;-1.2778;-5.9186;
687989025294373;-11.6659;0.3129;-2.9195;
687989035399426;-7.5673;0.9428;-0.8378;
687989045506978;-6.5587;-0.8874;-3.4466;
687989055614582;-11.3976;-1.6875;-4.3041;
687989065706457;-11.4864;-0.4609;-3.4059;
687989075813957;-10.2000;0.9619;-2.0545;
687989085921561;-6.5515;0.0613;-1.2305;
