Sensor: bmi160 Gyroscope Non-wakeup
Vendor: BOSCH
TimestampGyro [ns]; GyroX [rad/s]; GyroY [rad/s]; GyroZ [rad/s]
3100323147887983;-0.0177;-0.0152;0.0566;
3100323157999389;-0.0252;-0.0088;0.0545;
3100323168080014;-0.0166;-0.0067;0.0555;
3100323178204649;-0.0166;-0.0056;0.0566;
3100323188311576;-0.0198;-0.0056;0.0587;
3100323198435535;-0.0209;-0.0067;0.0598;
3100323208554545;-0.0220;-0.0067;0.0619;
3100323218637618;-0.0241;-0.0077;0.0651;
3100323228737722;-0.0262;-0.0099;0.0662;
3100323238844493;-0.0252;-0.0099;0.0672;
3100323248957305;-0.0262;-0.0088;0.0683;
3100323259087618;-0.0252;-0.0109;0.0704;
3100323269166160;-0.0241;-0.0109;0.0726;
3100323279282305;-0.0241;-0.0099;0.0726;
3100323289388972;-0.0241;-0.0088;0.0736;
3100323299496576;-0.0241;-0.0099;0.0747;
3100323309600118;-0.0230;-0.0099;0.0768;
3100323319713139;-0.0241;-0.0099;0.0768;
3100323329821472;-0.0262;-0.0088;0.0768;
3100323339929910;-0.0241;-0.0077;0.0790;
3100323350028972;-0.0230;-0.0067;0.0800;
3100323360144389;-0.0220;-0.0056;0.0822;
3100323370245222;-0.0166;-0.0035;0.0822;
3100323380358660;-0.0198;-0.0056;0.0832;
3100323390464805;-0.0230;-0.0109;0.0843;
3100323400570535;-0.0262;-0.0152;0.0864;
3100323410680222;-0.0284;-0.0130;0.0907;
3100323420792305;-0.0284;-0.0099;0.0917;
3100323430898764;-0.0294;-0.0077;0.0949;
3100323441007566;-0.0305;-0.0077;0.1024;
3100323451112514;-0.0325;-0.0130;0.1099;
3100323461232826;-0.0336;-0.0173;0.1152;
3100323471326264;-0.0357;-0.0205;0.1226;
3100323481439180;-0.0346;-0.0205;0.1333;
3100323491550222;-0.0357;-0.0216;0.1429;
3100323501652826;-0.0389;-0.0226;0.1535;
3100323511767722;-0.0421;-0.0248;0.1652;
3100323521869389;-0.0453;-0.0280;0.1791;
3100323531980014;-0.0506;-0.0322;0.1972;
3100323542078555;-0.0559;-0.0290;0.2132;
3100323552189493;-0.0634;-0.0290;0.2292;
3100323562297149;-0.0634;-0.0312;0.2441;
3100323572405951;-0.0644;-0.0344;0.2600;
3100323582514701;-0.0687;-0.0407;0.2792;
3100323592625066;-0.0719;-0.0471;0.2920;
3100323602737097;-0.0762;-0.0503;0.3027;
3100323612838035;-0.0783;-0.0471;0.3144;
3100323622948816;-0.0804;-0.0450;0.3229;
3100323633057566;-0.0815;-0.0439;0.3282;
3100323643158139;-0.0826;-0.0450;0.3314;
3100323653274597;-0.0836;-0.0482;0.3336;
3100323663380899;-0.0847;-0.0514;0.3357;
3100323673482722;-0.0826;-0.0514;0.3346;
3100323683593764;-0.0836;-0.0482;0.3325;
3100323693700014;-0.0783;-0.0482;0.3293;
3100323703808868;-0.0772;-0.0493;0.3272;
3100323713932826;-0.0772;-0.0503;0.3218;
3100323724027514;-0.0762;-0.0535;0.3165;
3100323734140743;-0.0708;-0.0535;0.3122;
3100323744261264;-0.0517;-0.0493;0.3069;
3100323754353347;-0.0188;-0.0439;0.3037;
3100323764471524;0.0142;-0.0439;0.3016;
3100323774569701;0.0387;-0.0429;0.2984;
3100323784682722;0.0483;-0.0439;0.2952;
3100323794793555;0.0505;-0.0482;0.2909;
3100323804903764;0.0622;-0.0493;0.2899;
3100323814996576;0.0814;-0.0471;0.2920;
3100323825108816;0.1059;-0.0429;0.2909;
3100323835213972;0.1410;-0.0386;0.2909;
3100323845338035;0.1783;-0.0418;0.2941;
3100323855429180;0.2166;-0.0439;0.2984;
3100323865541316;0.2582;-0.0493;0.3037;
3100323875643868;0.2933;-0.0535;0.3048;
3100323885751576;0.3306;-0.0546;0.3069;
3100323895866160;0.4105;-0.0525;0.3101;
3100323905967618;0.5043;-0.0589;0.3080;
3100323916072722;0.5501;-0.0674;0.3154;
3100323926186576;0.5787;-0.0557;0.3122;
3100323936288347;0.6021;-0.0471;0.3048;
3100323946408868;0.6969;-0.0333;0.3080;
3100323956502618;0.7832;-0.0184;0.3144;
3100323966631316;0.8333;-0.0173;0.3197;
3100323976736837;0.7971;-0.0280;0.3112;
3100323986898816;0.5405;-0.0525;0.2846;
3100323996950014;0.1069;-0.0716;0.2451;
3100324007050326;-0.1901;-0.0642;0.2068;
3100324017163660;-0.2594;-0.0397;0.1876;
3100324027282983;-0.2892;-0.0045;0.1908;
3100324037387097;-0.2434;0.0370;0.1812;
3100324047517826;-0.2551;0.0360;0.1567;
3100324057580014;-0.2722;0.0146;0.1216;
3100324067707930;-0.2573;0.0040;0.1003;
3100324077805847;-0.2999;-0.0216;0.0907;
3100324087930951;-0.3755;-0.0461;0.0736;
3100324098024493;-0.4447;-0.0525;0.0470;
3100324108138347;-0.5055;-0.0471;0.0172;
3100324118231316;-0.5268;-0.0397;-0.0020;
3100324128345222;-0.5055;-0.0312;-0.0063;
3100324138445951;-0.4703;-0.0130;-0.0009;
3100324148560014;-0.4437;0.0072;0.0023;
3100324158684389;-0.4149;0.0189;-0.0073;
3100324168777826;-0.3819;0.0296;-0.0201;
3100324178884701;-0.3393;0.0391;-0.0137;
3100324188993347;-0.2679;0.0402;0.0033;
3100324199123972;-0.1710;0.0423;0.0193;
3100324209262878;-0.0751;0.0487;0.0310;
3100324219317462;-0.0474;0.0381;0.0427;
3100324229420118;-0.0644;0.0189;0.0427;
3100324239522774;-0.0826;0.0029;0.0438;
3100324249645014;-0.0975;-0.0077;0.0491;
3100324259747670;-0.1071;-0.0088;0.0545;
3100324269850326;-0.1252;-0.0024;0.0545;
3100324279972045;-0.1550;0.0008;0.0555;
3100324290074701;-0.1731;0.0083;0.0534;
3100324300177358;-0.1987;0.0253;0.0449;
3100324310293087;-0.2445;0.0434;0.0374;
3100324320395743;-0.3020;0.0605;0.0278;
3100324330498399;-0.3510;0.0541;0.0140;
3100324340617514;-0.4021;0.0317;-0.0073;
3100324350720170;-0.4810;0.0498;-0.0361;
3100324360822826;-0.5406;0.0999;-0.0542;
3100324370943087;-0.5204;0.0967;-0.0627;
3100324381045743;-0.4469;0.0413;-0.0702;
3100324391148399;-0.4064;0.0381;-0.0680;
3100324401264545;-0.4181;0.0786;-0.0723;
3100324411367201;-0.3893;0.0754;-0.1000;
3100324421469858;-0.3403;0.0413;-0.1213;
3100324431586212;-0.3190;0.0349;-0.1128;
3100324441688868;-0.3020;0.0338;-0.1043;
3100324451791524;-0.2647;0.0732;-0.1096;
3100324461928347;-0.2104;0.1296;-0.1192;
3100324472031003;-0.1656;0.0977;-0.1362;
3100324482133660;-0.1678;0.0754;-0.1458;
3100324492239337;-0.1774;0.0977;-0.1362;
3100324502341993;-0.1561;0.0690;-0.1394;
3100324512444649;-0.1422;0.0370;-0.1618;
3100324522538191;-0.1529;0.0754;-0.1756;
3100324532640847;-0.1624;0.1626;-0.1937;
3100324542743503;-0.1720;0.1573;-0.2170;
3100324552892514;-0.1656;0.0977;-0.2362;
3100324562995170;-0.1550;0.0700;-0.2383;
3100324573097826;-0.1475;0.0860;-0.2639;
3100324583208191;-0.1475;0.0658;-0.2884;
3100324593310847;-0.1433;0.0413;-0.2852;
3100324603413503;-0.1252;0.0541;-0.2597;
3100324613525378;-0.1156;0.0668;-0.2703;
3100324623628035;-0.0847;0.1104;-0.3055;
3100324633730691;-0.0644;0.1658;-0.3076;
3100324643846733;-0.0346;0.1413;-0.2905;
3100324653949389;0.0398;0.1063;-0.2810;
3100324664052045;0.1240;0.1487;-0.2831;
3100324674188920;0.1538;0.1487;-0.3044;
3100324684291576;0.1389;0.0775;-0.3225;
3100324694394233;0.1527;0.0626;-0.2959;
3100324704506003;0.1996;0.1009;-0.2842;
3100324714608660;0.2188;0.0924;-0.3129;
3100324724711316;0.2284;0.1093;-0.3427;
3100324734825170;0.2816;0.1423;-0.3225;
3100324744927826;0.3626;0.1136;-0.3097;
3100324755030483;0.4584;0.0796;-0.3204;
3100324765164858;0.4861;0.1146;-0.3278;
3100324775267514;0.4744;0.1157;-0.3172;
3100324785370170;0.5628;0.0807;-0.3012;
3100324795467878;0.6916;0.0860;-0.3023;
3100324805570535;0.7779;0.1306;-0.2916;
3100324815673191;0.8897;0.1594;-0.2575;
3100324825797774;0.9899;0.1232;-0.2437;
3100324835900430;1.0229;0.1104;-0.2522;
3100324846003087;0.9718;0.1413;-0.2288;
3100324856114858;0.9238;0.1360;-0.2000;
3100324866217514;0.8759;0.0530;-0.2128;
3100324876320170;0.7118;0.0391;-0.2437;
3100324886445691;0.5628;0.0690;-0.2309;
3100324896548347;0.4638;0.0306;-0.2266;
3100324906651003;0.3477;-0.0258;-0.2565;
3100324916772670;0.1996;-0.0344;-0.2597;
3100324926875326;0.1165;-0.0237;-0.2256;
3100324936977983;0.0494;-0.0407;-0.2394;
3100324947070378;-0.0049;-0.0418;-0.2746;
3100324957173087;-0.0559;-0.0397;-0.2511;
3100324967275743;-0.0847;-0.0386;-0.2021;
3100324977432826;-0.0804;-0.0493;-0.1969;
3100324987535535;-0.0964;-0.0301;-0.2000;
3100324997638191;-0.0911;-0.0120;-0.1543;
3100325007755847;-0.0868;-0.0045;-0.0957;
3100325017858555;-0.0783;-0.0120;-0.0893;
3100325027961212;-0.1060;-0.0120;-0.0915;
3100325038056212;-0.1475;-0.0301;-0.0382;
3100325048158868;-0.1912;-0.0407;-0.0009;
3100325058261524;-0.2668;-0.0258;-0.0041;
3100325068384649;-0.3808;-0.0397;-0.0190;
3100325078487305;-0.4831;-0.0407;0.0076;
3100325088589962;-0.5736;-0.0120;0.0214;
3100325098711837;-0.6365;-0.0120;-0.0052;
3100325108814493;-0.7194;-0.0024;-0.0169;
3100325118917149;-0.8015;0.0168;0.0023;
3100325129034128;-0.8387;0.0146;-0.0212;
3100325139136785;-0.8632;0.0083;-0.0787;
3100325149239441;-0.9069;0.0168;-0.0947;
3100325159347878;-0.9218;0.0104;-0.0893;
3100325169450535;-0.8728;-0.0045;-0.1234;
3100325179553191;-0.8409;-0.0152;-0.1895;
3100325189683608;-0.7738;0.0146;-0.1989;
3100325199786264;-0.6481;0.0519;-0.2032;
3100325209888920;-0.4810;0.0253;-0.2554;
3100325220003087;-0.3084;0.0242;-0.2778;
3100325230105743;-0.1433;0.0519;-0.2479;
3100325240208399;-0.0039;0.0338;-0.2671;
3100325250327983;0.1932;0.0019;-0.3118;
3100325260430639;0.3658;0.0232;-0.3140;
3100325270533295;0.5925;0.0146;-0.3150;
3100325280655795;0.7598;-0.0397;-0.3161;
3100325290758451;0.9260;-0.0173;-0.2746;
3100325300861108;1.1028;0.0200;-0.2575;
3100325310973816;1.2550;-0.0035;-0.2714;
3100325321076472;1.3540;-0.0429;-0.2320;
3100325331179128;1.4595;-0.0216;-0.2106;
3100325341296212;1.4840;-0.0077;-0.1948;
3100325351398868;1.4691;-0.0429;-0.1437;
3100325361501524;1.4403;-0.0493;-0.1320;
3100325371625691;1.3519;-0.0312;-0.1128;
3100325381728347;1.2603;-0.0194;-0.0744;
3100325391831003;1.1241;-0.0173;-0.0670;
3100325401949858;0.9547;-0.0013;-0.0318;
3100325412052514;0.7864;0.0232;0.0023;
3100325422155170;0.5650;-0.0088;0.0044;
3100325432267670;0.3498;-0.0237;0.0353;
3100325442370326;0.1463;0.0370;0.0033;
3100325452472983;0.0888;0.0477;0.0225;
3100325462610691;-0.0305;0.0423;0.0651;
3100325472713347;-0.1997;0.0413;0.0555;
3100325482816003;-0.2668;0.0093;0.1003;
3100325492925170;-0.3638;0.0296;0.0811;
3100325503027826;-0.3766;0.0210;0.0864;
3100325513130483;-0.3489;0.0210;0.1045;
3100325523238191;-0.3105;0.0764;0.1312;
3100325533345170;-0.2509;0.0573;0.1578;
3100325543452149;-0.2413;0.0264;0.1482;
3100325553566212;-0.2051;0.0083;0.2004;
3100325563673191;-0.1699;0.0210;0.1610;
3100325573780170;-0.0527;0.0658;0.1897;
3100325583914024;0.0153;0.0679;0.1727;
3100325594021003;0.0537;0.0690;0.2142;
3100325604127983;0.0302;0.0594;0.2057;
3100325614208920;0.0611;0.0764;0.2217;
3100325624315899;0.0324;0.0541;0.1929;
3100325634422878;0.0611;0.0221;0.1983;
3100325644533712;0.0206;0.0200;0.1855;
3100325654640691;0.0345;0.0338;0.1865;
3100325664747670;0.0089;0.0040;0.1919;
3100325674858295;0.0324;0.0200;0.1546;
3100325684965274;0.0068;0.0210;0.1471;
3100325695072253;-0.0113;0.0317;0.1375;
3100325705185691;-0.0252;0.0605;0.1439;
3100325715292670;-0.0389;0.0786;0.1088;
3100325725399649;-0.0442;0.0519;0.1184;
3100325735511003;-0.1060;0.0221;0.0875;
3100325745617983;-0.1774;0.0157;0.0843;
3100325755724962;-0.2125;0.0381;0.0534;
3100325765863087;-0.2200;0.0594;0.0704;
3100325775970066;-0.2423;0.0445;0.0395;
3100325786077045;-0.2679;0.0541;0.0332;
3100325796155170;-0.2999;0.0871;0.0214;
3100325806262149;-0.3371;0.0402;0.0332;
3100325816369128;-0.3755;0.0146;0.0214;
3100325826481003;-0.3947;0.0402;0.0257;
3100325836587983;-0.3915;0.0498;0.0129;
3100325846694962;-0.4021;0.0157;0.0097;
3100325856820691;-0.4096;0.0349;0.0182;
3100325866927670;-0.3840;0.0956;0.0246;
3100325877034649;-0.3830;0.0690;0.0268;
3100325887141941;-0.3957;0.0434;0.0278;
3100325897248920;-0.4351;0.0647;0.0268;
3100325907355899;-0.4320;0.0700;-0.0020;
3100325917479441;-0.4192;0.0381;0.0023;
3100325927586420;-0.4202;0.0274;-0.0222;
3100325937693399;-0.3691;0.0828;-0.0137;
3100325947802566;-0.3254;0.0722;-0.0489;
3100325957909545;-0.2658;0.0338;-0.0414;
3100325968016524;-0.2381;0.0871;-0.0531;
3100325978124337;-0.1401;0.1274;-0.0403;
3100325988231316;-0.1198;0.0594;-0.0403;
3100325998338295;-0.1539;0.0029;-0.0425;
3100326008443295;-0.1188;0.0573;-0.0318;
3100326018550274;-0.1550;0.0626;-0.0712;
3100326028657253;-0.1177;0.0242;-0.0638;
3100326038775587;-0.1337;0.0328;-0.0734;
3100326048882566;-0.1305;0.0541;-0.0712;
3100326058989545;-0.1017;0.1052;-0.0766;
3100326069077253;-0.1103;0.0349;-0.0883;
3100326079184233;-0.1358;0.0083;-0.0840;
3100326089291212;-0.1401;0.0573;-0.1256;
3100326099397878;-0.1284;0.0509;-0.1096;
3100326109504858;-0.1177;0.0274;-0.1266;
3100326119611837;-0.1348;0.0509;-0.1202;
3100326129726108;-0.1039;0.0850;-0.1043;
3100326139833087;-0.1230;0.0775;-0.1405;
3100326149940066;-0.1188;0.0551;-0.1288;
3100326160044024;-0.1241;0.0317;-0.1511;
3100326170151003;-0.1326;0.0338;-0.1256;
3100326180257983;-0.1241;0.0125;-0.1213;
3100326190374753;-0.1358;-0.0045;-0.1650;
3100326200481733;-0.1262;0.0402;-0.1511;
3100326210588712;-0.0953;0.0466;-0.1650;
3100326220702878;-0.0943;0.0285;-0.1405;
3100326230809858;-0.0921;0.0104;-0.1245;
3100326240916837;-0.1113;0.0423;-0.1426;
3100326251025587;-0.0975;0.0264;-0.1138;
3100326261132566;-0.0900;0.0029;-0.1234;
3100326271239545;-0.1017;-0.0120;-0.1224;
3100326281350274;-0.0804;-0.0130;-0.0957;
3100326291457253;-0.1060;-0.0322;-0.1096;
3100326301564233;-0.1071;-0.0983;-0.0968;
3100326311667983;-0.1071;-0.0961;-0.0957;
3100326321774962;-0.0921;-0.0780;-0.1021;
3100326331881941;-0.0252;-0.0972;-0.0979;
3100326342004858;0.0111;-0.0791;-0.1043;
3100326352111837;0.0867;0.0210;-0.0627;
3100326362218816;0.1410;0.0136;-0.0382;
3100326372320691;0.1602;-0.0525;-0.0403;
3100326382427670;0.0931;-0.0205;-0.0489;
3100326392534649;0.0387;0.0221;-0.0542;
3100326402642410;0.0515;-0.0099;-0.0276;
3100326412749389;-0.0007;-0.0567;-0.0041;
3100326422856368;-0.0751;-0.0226;-0.0510;
3100326432965587;-0.0868;0.0296;-0.0446;
3100326443072566;-0.0655;-0.0216;-0.0212;
3100326453179545;-0.0868;-0.0344;-0.0244;
3100326463300899;-0.0836;0.0168;-0.0244;
3100326473407878;-0.0666;0.0477;-0.0190;
3100326483514858;-0.0943;0.0317;-0.0286;
3100326493611628;-0.0836;0.0519;-0.0254;
3100326503718608;-0.0858;0.0754;-0.0350;
3100326513825587;-0.1124;-0.0152;-0.0350;
3100326523956785;-0.1348;-0.0365;-0.0222;
3100326534064805;-0.1550;0.0083;-0.0340;
3100326544172826;-0.1806;0.0051;-0.0595;
3100326554264493;-0.1177;0.0146;-0.0585;
3100326564372514;-0.0911;0.0434;-0.0414;
3100326574480535;-0.1156;0.0157;-0.0372;
3100326584581785;-0.1284;0.0477;-0.0116;
3100326594689805;-0.1060;0.0274;-0.0340;
3100326604797826;-0.1273;0.0253;-0.0521;
3100326614907305;-0.1209;-0.0035;-0.0595;
3100326625015326;-0.1316;-0.0386;-0.0372;
3100326635123347;-0.1571;0.0242;-0.0617;
3100326645247514;-0.1369;0.0541;-0.0627;
3100326655355535;-0.1177;0.0349;-0.0542;
3100326665463555;-0.1220;0.0445;-0.0808;
3100326675550951;-0.1561;0.0306;-0.1096;
3100326685658972;-0.1486;0.0072;-0.1245;
3100326695766993;-0.1220;0.0285;-0.1181;
3100326705875535;-0.1177;0.0083;-0.1117;
3100326715983555;-0.1305;-0.1153;-0.1490;
3100326726091576;-0.1326;-0.1260;-0.1703;
3100326736200222;-0.1241;-0.0855;-0.1799;
3100326746308243;-0.0549;-0.0450;-0.1884;
3100326756416264;0.0334;0.0391;-0.1714;
3100326766531524;0.1133;0.0530;-0.1714;
3100326776639545;0.1911;0.0722;-0.1458;
3100326786747566;0.2230;0.1031;-0.1352;
3100326796920795;0.2539;0.1253;-0.1256;
3100326807028764;0.2688;0.1423;-0.1447;
3100326817136785;0.2507;0.0210;-0.1256;
3100326827172618;0.1740;-0.0109;-0.0862;
3100326837280639;0.0931;0.0168;-0.0947;
3100326847388660;0.0377;-0.0631;-0.0904;
3100326857539701;-0.0177;-0.1430;-0.0979;
3100326867647670;-0.0325;-0.1441;-0.1096;
3100326877755691;0.0121;0.0881;-0.1341;
3100326887837566;0.1069;0.0754;-0.1032;
3100326897945535;0.1346;-0.1760;-0.1000;
3100326908053555;-0.0007;-0.0866;-0.1096;
3100326918160951;-0.0049;0.0232;-0.1170;
3100326928268972;0.0526;0.0221;-0.1202;
3100326938376993;0.0856;0.0061;-0.0957;
3100326948486785;0.0249;-0.0770;-0.1107;
3100326958594805;-0.0060;-0.0525;-0.1266;
3100326968702826;-0.0092;-0.0056;-0.1501;
3100326978809285;-0.0241;-0.2687;-0.1479;
3100326988917305;-0.0794;-0.3113;-0.1202;
3100326999025326;0.0047;0.0487;-0.1469;
3100327009154962;0.1027;0.0434;-0.2032;
3100327019262930;0.1921;-0.2016;-0.1916;
3100327029370951;0.0430;-0.3134;-0.1533;
3100327039432305;-0.0166;-0.1345;-0.1746;
3100327049540326;0.1027;0.1072;-0.1989;
3100327059648347;0.1783;0.0711;-0.2224;
3100327069766212;0.3328;-0.0109;-0.2075;
3100327079874233;0.2049;-0.1505;-0.1969;
3100327089982253;0.0249;-0.1494;-0.1895;
3100327100103608;0.0792;0.0583;-0.1905;
3100327110211628;0.1261;0.0157;-0.2362;
3100327120319649;0.1527;-0.1089;-0.2469;
3100327130417722;0.1218;-0.0162;-0.2394;
3100327140525743;0.1495;0.0839;-0.2320;
3100327150633764;0.1879;0.0029;-0.2426;
3100327160744805;0.1911;-0.0866;-0.2586;
3100327170852826;0.1570;-0.0663;-0.2447;
3100327180960847;0.1953;0.0232;-0.1767;
3100327191068139;0.1581;-0.1206;-0.1969;
3100327201176160;0.1591;-0.1643;-0.2586;
3100327211284180;0.1889;0.0605;-0.2873;
3100327221397826;0.3232;0.2180;-0.2778;
3100327231505847;0.5415;0.1020;-0.2575;
3100327241613868;0.6149;-0.1654;-0.2373;
3100327251717410;0.3786;-0.1462;-0.2000;
3100327261825430;0.2443;-0.0354;-0.1979;
3100327271933451;0.3999;0.0040;-0.1767;
3100327282053451;0.5021;-0.0727;-0.1788;
3100327292161472;0.5149;-0.1025;-0.1266;
3100327302269493;0.4276;-0.0503;-0.1277;
3100327312372618;0.4350;0.0551;-0.1224;
3100327322480639;0.4883;0.0573;-0.1085;
3100327332588660;0.6213;0.0104;-0.1096;
3100327342694285;0.6660;0.0008;-0.0947;
3100327352802305;0.6064;-0.0226;-0.0489;
3100327362910326;0.5735;0.1232;-0.0382;
3100327373023972;0.6149;0.2403;0.0342;
3100327383131993;0.6085;-0.0013;0.0662;
3100327393240014;0.5085;-0.1973;0.0672;
3100327403370587;0.3114;0.0945;0.0672;
3100327413478555;0.2880;0.1466;-0.0063;
3100327423586576;0.4531;0.1413;0.0150;
3100327433668972;0.6564;0.0200;0.0502;
3100327443776993;0.5394;-0.1302;0.0971;
3100327453885014;0.3072;-0.1739;0.1589;
3100327463995847;0.2007;-0.2602;0.2185;
3100327474103868;0.2550;0.0487;0.1780;
3100327484211889;0.3029;0.1892;0.1216;
3100327494312722;0.3498;0.0157;0.1184;
3100327504420743;0.4201;-0.1089;0.1557;
3100327514528764;0.3562;-0.0418;0.1823;
3100327524656889;0.3029;-0.1931;0.1727;
3100327534765014;0.1549;-0.3188;0.1961;
3100327544873035;0.2337;0.2393;0.1067;
3100327554959180;0.2624;0.3309;0.0651;
3100327565067253;0.3743;-0.1856;0.1290;
3100327575175326;0.5607;-0.0429;0.1759;
3100327585283139;0.3093;0.0668;0.1344;
3100327595391212;0.2166;-0.2005;0.1152;
3100327605499285;0.2252;-0.2144;0.1216;
3100327615600535;0.2965;0.2712;0.1056;
3100327625708608;0.4371;0.4566;0.1130;
3100327635816680;0.5883;0.1828;0.2281;
3100327645917305;0.7193;-0.0301;0.2941;
3100327656025378;0.4467;0.0349;0.3250;
3100327666133451;0.1644;-0.0493;0.3581;
3100327676228347;0.1016;-0.0684;0.3304;
3100327686336420;0.1644;0.0892;0.3027;
3100327696444493;0.2369;0.2627;0.2643;
3100327706562774;0.4233;0.5695;0.3101;
3100327716670899;0.3999;-0.2463;0.3655;
3100327726778920;0.3061;-0.3710;0.3772;
3100327736888972;0.0611;0.4289;0.3016;
3100327746997045;-0.1241;0.2286;0.3005;
3100327757105118;0.2113;-0.2176;0.3762;
3100327767207670;0.2507;-0.0035;0.3581;
3100327777315743;0.0963;0.1605;0.3676;
3100327787423816;0.0398;0.0818;0.3889;
3100327797589753;0.0611;0.0232;0.4442;
3100327807697774;0.0089;0.0093;0.4804;
3100327817805847;-0.0188;0.0732;0.4889;
3100327827859076;-0.0549;0.0913;0.5209;
3100327837967149;-0.1145;0.1041;0.5571;
3100327848075222;-0.1838;0.1146;0.5891;
3100327858188868;-0.2871;-0.0972;0.6466;
3100327868296941;-0.4426;-0.2346;0.6051;
3100327878405014;-0.5672;0.1020;0.5369;
3100327888522774;-0.7322;0.2084;0.5156;
3100327898630847;-0.6280;0.0391;0.5220;
3100327908738920;-0.4501;-0.0269;0.5305;
3100327918862722;-0.6343;-0.2357;0.5316;
3100327928970795;-0.8845;-0.0290;0.4506;
3100327939078868;-1.0198;0.4363;0.3943;
3100327949180847;-1.0092;0.2627;0.3847;
3100327959288920;-0.5555;-0.0493;0.3325;
3100327969396993;-0.2967;-0.0727;0.3059;
3100327979496889;-0.7482;0.0136;0.2909;
3100327989604962;-0.9250;0.0455;0.2366;
3100327999713035;-0.7929;0.0700;0.1951;
3100328009830535;-0.7066;0.0168;0.1493;
3100328019938608;-0.6459;0.0881;0.0960;
3100328030046680;-0.5470;0.2297;0.1226;
3100328040150430;-0.5917;0.0349;0.0907;
3100328050258503;-0.6045;-0.1718;0.0214;
3100328060366576;-0.5672;0.0306;-0.0329;
3100328070461368;-0.5129;0.2020;-0.0638;
3100328080569441;-0.3041;0.3586;-0.0425;
3100328090677514;-0.3031;0.0562;-0.0798;
3100328100808035;-0.3063;-0.2868;-0.1501;
3100328110916108;-0.3595;-0.0152;-0.1522;
3100328121024180;-0.4405;0.0423;-0.1831;
3100328131115847;-0.2509;0.4662;-0.2075;
3100328141223920;-0.1614;0.6941;-0.2170;
3100328151331993;0.2454;-0.2815;-0.2096;
3100328161435639;0.2529;-0.5381;-0.2032;
3100328171543712;-0.3180;-0.3806;-0.1320;
3100328181651785;-0.4202;-0.3316;-0.2309;
3100328191777722;-0.2157;-0.0130;-0.1895;
3100328201885795;-0.2541;0.0977;-0.2117;
3100328211993868;-0.1731;0.1072;-0.2170;
3100328222086993;-0.0166;0.1285;-0.2352;
3100328232195066;0.0036;-0.0525;-0.2490;
3100328242303139;0.0100;-0.0887;-0.2288;
3100328252412618;-0.0538;0.0903;-0.2043;
3100328262520691;-0.1582;-0.0535;-0.2096;
3100328272628764;-0.0964;-0.0791;-0.2266;
3100328282734493;-0.1071;-0.0173;-0.2213;
3100328292842566;-0.2658;-0.3284;-0.2969;
3100328302950639;-0.1113;-0.2836;-0.3065;
3100328313058451;0.1527;0.3841;-0.2192;
3100328323166524;0.0888;0.6600;-0.1405;
3100328333274597;0.1197;0.2755;-0.1053;
3100328343372149;0.6501;-0.0599;-0.0265;
3100328353480170;0.6831;-0.0003;0.0300;
3100328363588243;0.0941;-0.0162;0.0779;
3100328373702097;-0.1209;-0.0354;0.0587;
3100328383810170;-0.0687;0.0264;0.0310;
3100328393918243;-0.0783;-0.0067;0.0140;
3100328404026993;-0.1039;-0.1004;0.0257;
3100328414135066;-0.1177;-0.1398;0.0097;
3100328424243139;-0.0943;0.3085;-0.0073;
3100328434347826;-0.0815;0.0892;-0.0105;
3100328444455899;0.0313;-0.3401;0.0289;
3100328454563972;0.1495;-0.0866;-0.0009;
3100328464670535;0.0547;0.1391;0.0097;
3100328474778608;-0.1071;-0.0557;-0.0212;
3100328484886680;0.0292;-0.0375;0.0172;
3100328495002930;0.0707;0.0945;0.0534;
3100328505111003;0.0547;0.0445;0.0097;
3100328515219076;0.1261;0.0296;0.0459;
3100328525336889;0.1037;-0.0013;0.1099;
3100328535444805;0.0356;-0.0280;0.0949;
3100328545552722;0.0356;-0.0269;0.0960;
3100328555653972;-0.0145;-0.0802;0.0534;
3100328565761889;-0.0368;-0.0599;0.0566;
3100328575869805;-0.0943;-0.1174;0.0406;
3100328585976472;-0.0262;0.0509;0.0257;
3100328596084389;0.0079;0.1860;0.0619;
3100328606192305;0.0270;0.0722;0.0342;
3100328616295639;-0.0113;-0.1260;0.0076;
3100328626403555;-0.0357;-0.1238;-0.0297;
3100328636511472;-0.0559;0.0999;-0.0137;
3100328646621368;-0.0474;0.1498;-0.0233;
3100328656729337;-0.0252;-0.0972;-0.0222;
3100328666837253;0.0792;-0.0418;-0.0350;
3100328676942097;0.0132;0.0668;-0.0308;
3100328687050014;-0.0188;0.0178;-0.0457;
3100328697157930;-0.0028;-0.0269;-0.0063;
3100328707352149;0.0206;0.0658;0.0129;
3100328717460014;0.0164;0.1200;-0.0403;
3100328727567930;-0.0124;0.0083;-0.0595;
3100328737590639;0.0036;0.0146;-0.0308;
3100328747698555;-0.0039;0.0381;-0.0553;
3100328757806472;0.0089;0.0615;-0.0521;
3100328767970535;0.0494;0.0828;-0.0393;
3100328778078451;0.0270;0.0945;-0.0041;
3100328788186368;0.0132;-0.0344;0.0321;
3100328798228555;-0.0017;-0.0344;0.0214;
3100328808336472;-0.0198;0.0775;0.0236;
3100328818444389;-0.0325;-0.0248;0.0555;
3100328828582097;-0.0506;-0.1601;0.0587;
3100328838690014;-0.0431;-0.0866;0.0885;
3100328848797930;-0.0826;-0.0077;0.0662;
3100328858904076;-0.0858;-0.0503;0.0885;
3100328869011993;-0.0730;-0.1015;0.0822;
3100328879119910;-0.0431;-0.0642;0.1226;
3100328889218035;-0.1103;-0.0897;0.0800;
3100328899325951;-0.0943;-0.0589;0.0800;
3100328909433868;-0.0453;-0.0109;0.1152;
3100328919538243;-0.0017;0.0093;0.1418;
3100328929646160;-0.0134;0.0136;0.1248;
3100328939754076;-0.0336;0.0029;0.1844;
3100328949862618;-0.0911;-0.0184;0.1887;
3100328959970587;-0.0879;-0.0077;0.1748;
3100328970078451;-0.0463;0.1700;0.2249;
3100328980193451;-0.1049;0.0509;0.2483;
3100328990301368;-0.1869;-0.0834;0.2217;
3100329000409285;-0.1891;0.1178;0.2185;
3100329010513035;-0.2413;0.2265;0.2121;
3100329020620951;-0.2402;0.0594;0.1887;
3100329030728868;-0.1869;0.0061;0.1652;
3100329040839389;-0.2999;0.0402;0.1120;
3100329050947305;-0.5023;0.2361;0.0619;
3100329061055222;-0.6907;0.6931;0.0811;
3100329071162618;-0.3158;0.4651;0.0598;
3100329081270535;0.2848;-0.2453;0.0768;
3100329091378451;-0.1944;-0.3742;-0.0095;
3100329101482618;-0.7706;-0.4136;-0.0222;
3100329111590535;-0.6088;-0.4381;-0.0542;
3100329121698451;-0.3403;-0.1015;-0.0755;
3100329131808608;-0.4373;0.0168;-0.1341;
3100329141916524;-0.4266;-0.1025;-0.1543;
3100329152024441;-0.3734;-0.0908;-0.2362;
3100329162131889;-0.4011;0.0157;-0.2511;
3100329172239805;-0.4032;0.2084;-0.2735;
3100329182347722;-0.2594;0.1530;-0.3023;
3100329192451264;-0.1071;-0.3603;-0.3811;
3100329202559180;0.0750;-0.3912;-0.4375;
3100329212667097;0.0377;0.0636;-0.4035;
3100329222783972;0.0430;0.2297;-0.4141;
3100329232891889;0.2923;0.1285;-0.3694;
3100329242999805;0.5011;0.3458;-0.2735;
3100329253114805;0.3647;0.3841;-0.1948;
3100329263222722;0.2198;0.0700;-0.1628;
3100329273330639;0.1549;-0.0152;-0.1607;
3100329283473608;-0.0559;0.0935;-0.1979;
3100329293581472;-0.1071;0.1052;-0.2011;
3100329303689389;-0.0836;0.1063;-0.2554;
3100329313750691;-0.0911;-0.0120;-0.3033;
3100329323858608;-0.0389;0.0360;-0.2927;
3100329333966524;-0.1774;-0.0461;-0.3843;
3100329344076941;-0.2029;-0.1877;-0.4258;
3100329354184858;-0.1742;-0.2399;-0.4024;
3100329364292774;-0.0378;-0.1984;-0.3566;
3100329374407201;0.0483;-0.0812;-0.3353;
3100329384515118;0.0728;0.0690;-0.3332;
3100329394623035;0.0356;0.0296;-0.3417;
3100329404713451;0.1581;0.0274;-0.3438;
3100329414821368;0.2901;0.0061;-0.3470;
3100329424929285;0.3264;-0.0929;-0.3161;
3100329435050847;0.2550;-0.2027;-0.3161;
3100329445158764;0.2752;-0.0951;-0.3289;
3100329455266680;0.3519;-0.0194;-0.3182;
3100329465364805;0.4638;0.0296;-0.2458;
3100329475472722;0.4893;-0.0205;-0.1948;
3100329485580639;0.5330;0.1647;-0.1490;
3100329495695535;0.5778;0.4033;-0.0851;
3100329505803451;0.4659;0.1807;-0.0190;
3100329515911368;0.3328;-0.1984;0.0545;
3100329526025066;0.1474;-0.1387;0.0427;
3100329536150066;0.1080;0.0008;0.0108;
3100329546258035;0.0963;-0.0312;0.0236;
3100329556365951;0.0867;-0.1441;0.0140;
3100329566454389;0.1240;-0.0418;0.0129;
3100329576562358;0.1389;0.1253;0.0150;
3100329586670326;0.1485;0.1306;-0.0084;
3100329596809285;0.1527;0.0530;0.0055;
3100329606917253;0.1399;0.0487;0.0087;
3100329617025222;0.1357;0.0285;0.0289;
3100329627087305;0.1154;0.0296;0.0385;
3100329637195274;0.1091;0.0051;0.0044;
3100329647303191;0.1069;-0.0791;-0.0467;
3100329657455430;0.1634;0.0583;0.0140;
3100329667563399;0.1357;0.1052;-0.0158;
3100329677671368;0.1229;0.0136;0.0012;
3100329687738087;0.1410;0.0423;-0.0201;
3100329697846055;0.1431;0.0626;-0.0329;
3100329707954024;0.0995;-0.0759;-0.0489;
3100329718086472;0.0473;-0.1856;-0.0297;
3100329728194441;0.0760;-0.0695;-0.0148;
3100329738302410;0.1186;0.0541;-0.0393;
3100329748406889;0.1293;0.0743;-0.1043;
3100329758514858;0.1634;0.0370;-0.0766;
3100329768622826;0.1442;0.0530;-0.0595;
3100329778718972;0.1378;0.1063;-0.1021;
3100329788826941;0.1549;0.1679;-0.1032;
3100329798934910;0.1314;0.0200;-0.0968;
3100329809052253;0.0846;-0.1079;-0.0744;
3100329819160170;0.0739;-0.0429;-0.0840;
3100329829268139;0.1421;0.0551;-0.0659;
3100329839369493;0.1208;0.0317;-0.0499;
3100329849477462;0.1154;0.0242;-0.0222;
3100329859585430;0.0920;-0.0099;-0.0446;
3100329869703555;0.0803;-0.0738;-0.0531;
3100329879811524;0.0419;-0.0642;-0.0574;
3100329889919493;0.1144;-0.0184;-0.0606;
3100329900021368;0.1048;-0.0738;-0.0553;
3100329910129337;0.0707;-0.1696;-0.0148;
3100329920237305;0.1399;-0.0599;-0.0499;
3100329930343868;0.3008;0.2979;-0.0190;
3100329940451837;0.2646;0.1455;0.0023;
3100329950559805;0.1900;-0.0834;0.0417;
3100329960680014;0.0792;-0.0631;0.0939;
3100329970787983;0.1133;0.0732;0.0917;
3100329980895951;0.0696;-0.0173;0.0694;
3100329990993191;0.0537;-0.1079;0.0662;
3100330001101160;0.0867;-0.0109;0.0907;
3100330011209128;0.1101;0.0253;0.1056;
3100330021319285;0.0909;0.0328;0.0779;
3100330031427253;0.1080;0.0466;0.1162;
3100330041535222;0.0941;0.0679;0.1439;
3100330051644858;0.0707;0.0328;0.1631;
3100330061752826;0.0547;-0.0003;0.1557;
3100330071860795;-0.0017;0.0796;0.1567;
3100330081965014;0.0164;0.3075;0.1578;
3100330092072983;0.1272;0.3533;0.1173;
3100330102180951;0.2294;-0.0013;0.1184;
3100330112287305;-0.0676;-0.1696;0.1439;
3100330122395274;-0.3329;-0.2410;0.1834;
3100330132503243;-0.3659;-0.3667;0.1972;
3100330142621160;-0.3350;-0.4509;0.1684;
3100330152729128;-0.1976;-0.3092;0.1429;
3100330162837097;-0.0103;0.0157;0.1290;
3100330172930430;-0.0708;0.0967;0.0992;
3100330183038399;-0.0421;0.0157;0.0694;
3100330193146368;-0.0188;-0.1164;0.0726;
3100330203275847;-0.1337;-0.2559;0.0257;
3100330213383816;-0.2168;-0.3358;-0.0606;
3100330223491785;-0.0346;-0.1089;-0.0638;
3100330233582097;0.1623;0.1700;-0.0638;
3100330243690066;0.2742;0.1615;-0.0393;
3100330253798035;0.4052;0.3948;-0.0116;
3100330263917826;0.3221;0.4555;0.0587;
3100330274025795;0.3178;0.1509;0.1099;
3100330284133764;0.1804;-0.0120;0.1269;
3100330294225326;-0.1028;-0.0045;0.1258;
3100330304333295;-0.1614;-0.0642;0.0843;
3100330314441264;-0.1454;-0.1483;0.0417;
3100330324589285;-0.1348;-0.1164;0.0076;
3100330334697253;-0.1326;-0.0120;-0.0606;
3100330344805222;-0.0666;0.0583;-0.0691;
3100330354883868;0.0100;0.0029;-0.0883;
3100330364991837;0.0494;-0.0216;-0.0883;
3100330375099805;0.0728;0.0690;-0.0925;
3100330385205014;0.1293;0.0892;-0.0776;
3100330395312983;0.2145;0.0530;-0.1043;
3100330405420951;0.2262;-0.0684;-0.0904;
3100330415535639;0.1229;-0.1079;-0.0052;
3100330425643608;0.2081;0.1732;-0.0095;
3100330435751576;0.1676;0.0381;-0.0180;
3100330445845951;0.0654;-0.2240;0.0321;
3100330455953920;0.0899;-0.1025;0.0683;
3100330466061889;0.0696;-0.0067;0.0832;
3100330476162722;0.0632;-0.0301;0.0790;
3100330486270691;0.0664;-0.0450;0.0843;
3100330496378660;0.0686;-0.0748;0.1205;
3100330506503868;0.0569;-0.0269;0.1056;
3100330516611837;-0.0071;-0.0013;0.1024;
3100330526719805;0.0206;0.0807;0.1301;
3100330536840535;0.0132;0.1551;0.1652;
3100330546948451;-0.1848;-0.2304;0.1237;
3100330557056420;-0.0527;0.0818;0.1876;
3100330567161160;0.0483;0.3085;0.2313;
3100330577269128;-0.0538;0.0242;0.2462;
3100330587377097;-0.0815;0.0029;0.2632;
3100330597481160;-0.0804;0.0828;0.2686;
3100330607589128;-0.0336;0.1349;0.2782;
3100330617697097;-0.0964;0.0935;0.2750;
3100330627806003;-0.1688;-0.0077;0.3122;
3100330637913972;-0.1901;0.0232;0.3069;
3100330648021941;-0.2328;-0.0120;0.2643;
3100330658129076;-0.2913;-0.0834;0.2579;
3100330668237045;-0.2402;0.0242;0.2750;
3100330678345014;-0.2232;0.0477;0.2654;
3100330688443608;-0.1997;0.0892;0.2409;
3100330698551576;-0.2072;0.0636;0.2558;
3100330708659545;-0.2349;0.0296;0.2515;
3100330718790743;-0.2551;0.0434;0.2409;
3100330728898712;-0.2338;0.1338;0.1812;
3100330739006680;-0.1742;0.1668;0.1706;
3100330749095118;-0.1816;0.1063;0.1972;
3100330759203087;-0.2264;0.0370;0.2015;
3100330769311055;-0.2285;0.1413;0.1791;
3100330779410743;-0.2690;0.1349;0.1578;
3100330789518712;-0.4085;-0.1089;0.1525;
3100330799626680;-0.5449;-0.3337;0.1407;
3100330809751055;-0.5001;-0.3795;0.1056;
3100330819859024;-0.3233;-0.1590;0.0779;
3100330829966993;-0.2008;-0.0067;0.0651;
3100330840061264;-0.2551;-0.0929;-0.0244;
3100330850169233;-0.2519;-0.0503;-0.0553;
3100330860277201;-0.2423;0.0019;-0.0712;
3100330870391941;-0.2498;-0.0471;-0.1256;
3100330880499910;-0.2210;-0.0855;-0.1533;
3100330890607878;-0.2285;-0.1345;-0.1884;
3100330900713868;-0.1369;-0.0546;-0.1895;
3100330910821837;0.0281;0.2723;-0.1575;
3100330920929805;0.0835;0.3841;-0.1394;
3100330931038451;0.0952;0.1583;-0.0915;
3100330941146420;0.0451;-0.0525;-0.1149;
3100330951254389;-0.0719;0.0722;-0.1266;
3100330961375847;-0.1561;0.1253;-0.1394;
3100330971483816;-0.1880;-0.1068;-0.1607;
3100330981591785;-0.1869;-0.2059;-0.2075;
3100330991684285;-0.1571;-0.1473;-0.2469;
3100331001792253;-0.1230;-0.0280;-0.2884;
3100331011900222;-0.1145;0.0818;-0.3129;
3100331022012514;-0.0698;0.0839;-0.3161;
3100331032120483;-0.0602;-0.0301;-0.3747;
3100331042228451;-0.0273;0.0626;-0.3630;
3100331052335430;-0.0252;0.1328;-0.3417;
3100331062443399;-0.0113;0.0338;-0.3875;
3100331072551368;0.0515;-0.0301;-0.3694;
3100331082656108;0.0366;-0.0695;-0.3577;
3100331092764076;0.0963;0.0125;-0.3822;
3100331102872045;0.1836;0.1009;-0.3459;
3100331112984493;0.2252;0.0115;-0.3204;
3100331123092462;0.1932;-0.0663;-0.3118;
3100331133200430;0.1570;-0.0312;-0.3001;
3100331143294076;0.1367;0.0253;-0.3332;
3100331153402045;0.2017;0.0487;-0.3161;
3100331163510014;0.2156;-0.0450;-0.3044;
3100331173628347;0.2443;0.0178;-0.3087;
3100331183736316;0.2518;0.1402;-0.3087;
3100331193844285;0.1794;-0.0184;-0.2778;
3100331203969597;0.1325;-0.1526;-0.2437;
3100331214077566;0.1644;-0.0184;-0.2352;
3100331224185535;0.1676;0.0221;-0.1788;
3100331234285639;0.2092;0.0839;-0.1650;
3100331244393608;0.2028;-0.0301;-0.1820;
3100331254501576;0.1538;-0.0961;-0.1703;
3100331264608972;0.1154;-0.0791;-0.1096;
3100331274716941;0.0622;-0.1100;-0.0957;
3100331284824910;0.0515;-0.1249;-0.1043;
3100331294933660;0.0760;-0.1025;-0.1096;
3100331305041628;0.1453;-0.0258;-0.0979;
3100331315149597;0.1538;0.0200;-0.0883;
3100331325266576;0.1538;0.0264;-0.0712;
3100331335374545;0.1495;0.0168;-0.0467;
3100331345482514;0.1527;0.0296;-0.0510;
3100331355573555;0.1389;0.0051;-0.0318;
3100331365681524;0.1005;-0.0344;-0.0265;
3100331375789493;0.1538;0.0903;-0.0318;
3100331385895430;0.1900;0.1519;-0.0148;
3100331396003399;0.1517;0.0274;-0.0041;
3100331406111368;0.2113;0.0850;-0.0009;
3100331416223139;0.2209;0.1210;0.0129;
3100331426331108;0.1687;0.0200;0.0278;
3100331436439076;0.0654;-0.2346;0.0694;
3100331446546264;0.0185;-0.3933;0.0683;
3100331456654233;0.1133;-0.2857;0.0811;
3100331466762201;0.1250;-0.1622;0.0417;
3100331476929597;0.1367;-0.0333;0.0630;
3100331487037566;0.1719;0.0413;0.0491;
3100331497145535;0.2262;0.0136;0.0246;
3100331507207670;0.2987;-0.0631;0.0395;
3100331517315639;0.3040;-0.1675;0.0449;
3100331527385326;0.3040;-0.0333;0.0545;
3100331537493243;0.2976;-0.0429;0.0502;
3100331547601212;0.4787;0.1009;0.0715;
3100331557715118;0.5872;0.3650;0.1226;
3100331567823087;0.5501;0.1498;0.1791;
3100331577931055;0.6234;0.0690;0.2750;
3100331588060430;0.4126;0.1413;0.2952;
3100331598168399;0.1985;0.1031;0.2846;
3100331608276368;0.2188;0.0413;0.2739;
3100331618382930;0.2262;0.0061;0.2782;
3100331628490899;0.1943;0.0668;0.2558;
3100331638598868;0.2028;0.1690;0.2483;
3100331648705639;0.2838;0.0732;0.2483;
3100331658813608;0.2571;0.0083;0.2792;
3100331668921576;0.2071;0.0253;0.3069;
3100331679021055;0.1953;0.0945;0.3421;
3100331689129024;0.2188;0.1743;0.3655;
3100331699236993;0.2124;0.0658;0.3730;
3100331709327097;0.1730;-0.0695;0.3655;
3100331719435014;0.1389;-0.0375;0.3719;
3100331729542983;0.0856;-0.0280;0.3804;
3100331739681576;0.0579;-0.0663;0.3985;
3100331749789545;0.0877;-0.0546;0.3921;
3100331759897514;0.0877;-0.1015;0.4144;
3100331770009910;0.0696;-0.0525;0.4442;
3100331780117878;0.0473;0.0562;0.4815;
3100331790225847;0.0079;-0.0344;0.4623;
3100331800331941;-0.0613;-0.1920;0.4644;
3100331810439910;-0.1188;-0.0812;0.4698;
3100331820547878;-0.2338;0.0956;0.4804;
3100331830648139;-0.2455;0.0381;0.4463;
3100331840756108;-0.1198;-0.0546;0.4666;
3100331850864076;-0.1923;-0.0205;0.4272;
3100331860977514;-0.2913;0.1200;0.4144;
3100331871085483;-0.2626;0.1956;0.4165;
3100331881193451;-0.1390;0.0956;0.4421;
3100331891300535;-0.1774;-0.1079;0.4186;
3100331901408503;-0.2818;0.1402;0.3889;
3100331911516472;-0.4341;0.2489;0.3836;
3100331921625118;-0.3169;0.1125;0.3751;
3100331931733087;-0.2072;0.0381;0.3421;
3100331941841055;-0.3659;0.0562;0.3027;
3100331951965535;-0.4256;0.1381;0.3218;
3100331962073503;-0.4330;-0.0003;0.2877;
3100331972181472;-0.3830;-0.0876;0.2739;
3100331982279805;-0.4351;-0.0013;0.2249;
3100331992387774;-0.4682;0.1328;0.1993;
3100332002495743;-0.3883;0.1063;0.2121;
3100332012603451;-0.2668;0.0157;0.1525;
3100332022711420;-0.2232;0.0913;0.1429;
3100332032819389;-0.2839;-0.0056;0.1727;
3100332042924805;-0.2722;-0.0503;0.1631;
3100332053032774;-0.3137;-0.0269;0.1173;
3100332063140743;-0.2999;0.0328;0.1258;
3100332073245222;-0.2328;0.1020;0.1205;
3100332083353191;-0.2061;0.1157;0.1269;
3100332093461160;-0.2019;0.0573;0.1344;
3100332103577305;-0.2434;-0.0269;0.0917;
3100332113685274;-0.2754;-0.0301;0.0598;
3100332123793243;-0.2764;0.0892;0.0438;
3100332133892201;-0.2615;0.0924;0.0896;
3100332144000170;-0.2104;0.1274;0.0960;
3100332154108139;-0.2125;0.2020;0.0587;
3100332164211785;-0.1901;0.3298;0.0736;
3100332174319753;-0.0708;0.2350;0.0736;
3100332184427722;0.0675;0.0445;0.0875;
3100332194532722;-0.1230;-0.1036;0.0534;
3100332204640691;-0.3095;-0.2112;0.0161;
3100332214748660;-0.3521;-0.2421;-0.0329;
3100332224866108;-0.2839;-0.1728;-0.0265;
3100332234974076;-0.2871;-0.1526;-0.0723;
3100332245082045;-0.2349;-0.0876;-0.0883;
3100332255189180;-0.1838;0.0264;-0.0862;
3100332265297149;-0.1539;-0.0897;-0.1043;
3100332275405118;-0.0474;-0.2027;-0.1064;
3100332285541785;0.0004;-0.0354;-0.1170;
3100332295649753;-0.0708;0.0892;-0.1160;
3100332305757722;0.0739;0.1115;-0.1202;
3100332315832878;0.1985;0.2510;-0.0851;
3100332325940847;0.2081;0.3011;-0.0361;
3100332336048816;0.2561;0.0562;0.0289;
3100332346157201;0.1740;-0.0759;0.0204;
3100332356265170;-0.1134;-0.0226;0.0225;
3100332366373139;-0.1816;-0.1111;0.0044;
3100332376479701;-0.1848;-0.1995;-0.0063;
3100332386587670;-0.2722;-0.1654;-0.0521;
3100332396695639;-0.3585;0.0605;-0.0489;
3100332406830222;-0.3680;0.1679;-0.0808;
3100332416938191;-0.0964;0.1626;-0.1064;
3100332427046160;0.0686;-0.0120;-0.0808;
3100332437134493;-0.0474;-0.2069;-0.0840;
3100332447242462;-0.2114;-0.1654;-0.0787;
3100332457350378;-0.2945;-0.0631;-0.0893;
3100332467474910;-0.2498;0.0296;-0.1011;
3100332477582878;-0.1252;0.1178;-0.1075;
3100332487690847;-0.1369;0.0530;-0.1021;
3100332497784180;-0.1646;-0.1835;-0.1362;
3100332507892149;-0.1198;-0.1537;-0.1799;
3100332518000118;-0.1422;-0.0482;-0.1884;
3100332528108608;-0.1007;-0.1185;-0.2106;
3100332538216837;-0.0134;0.0828;-0.1756;
3100332548325066;-0.0613;0.2659;-0.1628;
3100332558454389;-0.0262;0.1178;-0.1373;
3100332568562618;0.1059;-0.0386;-0.1107;
3100332578670847;0.0025;-0.0620;-0.1128;
3100332588760691;-0.1401;-0.0866;-0.1405;
3100332598868920;-0.0953;0.0200;-0.1682;
3100332608977097;-0.0815;0.1636;-0.1724;
3100332619066889;-0.0740;-0.0269;-0.1426;
3100332629175170;-0.0772;0.0189;-0.1181;
3100332639283399;-0.0889;0.2478;-0.1543;
3100332649404858;-0.0294;0.1583;-0.1288;
3100332659513087;0.0164;-0.1142;-0.0957;
3100332669621316;0.0302;-0.0557;-0.1128;
3100332679727201;-0.0953;0.0881;-0.1320;
3100332689835483;-0.1049;0.0178;-0.1160;
3100332699943712;-0.0964;-0.0578;-0.1192;
3100332710074910;-0.0964;0.0935;-0.1266;
3100332720183139;-0.0900;0.2425;-0.1277;
3100332730291368;-0.0613;0.0850;-0.1117;
3100332740374180;-0.0676;-0.2836;-0.1160;
3100332750482462;-0.0410;0.0264;-0.1501;
3100332760590691;-0.0943;0.2116;-0.1213;
3100332770708087;-0.0772;-0.0386;-0.1170;
3100332780816316;-0.0241;-0.0684;-0.1341;
3100332790924545;-0.0730;0.1200;-0.1117;
3100332801037253;-0.0879;0.1967;-0.1298;
3100332811145483;-0.0305;0.1146;-0.1181;
3100332821253712;-0.0262;-0.0663;-0.1234;
3100332831347097;-0.0357;0.0328;-0.1309;
3100332841455378;-0.0591;0.1391;-0.0979;
3100332851563608;-0.0719;-0.1238;-0.1032;
3100332861679337;-0.0687;-0.1100;-0.1170;
3100332871787566;-0.1166;0.0583;-0.0872;
3100332881895795;-0.1550;-0.0780;-0.1064;
3100332892003191;-0.0719;-0.0972;-0.1533;
3100332902111420;-0.0655;-0.0450;-0.1511;
3100332912219649;-0.0953;-0.1846;-0.1543;
3100332922316993;-0.1092;-0.2804;-0.1767;
3100332932425274;-0.0847;-0.2176;-0.1842;
3100332942533503;-0.0889;-0.1345;-0.2053;
3100332952652983;-0.0783;-0.0269;-0.2128;
3100332962761212;-0.0442;0.0115;-0.1916;
3100332972869441;-0.0103;-0.1121;-0.1831;
3100332982973920;-0.0113;-0.0759;-0.2330;
3100332993082149;-0.0591;0.2457;-0.2575;
3100333003190378;-0.0314;0.2808;-0.2330;
3100333013300691;0.2177;0.0562;-0.2341;
3100333023408920;0.3860;0.0903;-0.2128;
3100333033517149;0.1549;0.1434;-0.1810;
3100333043625014;0.0270;0.1711;-0.1959;
3100333053733243;0.0057;-0.0589;-0.1905;
3100333063841472;-0.0847;-0.2240;-0.2128;
3100333073950691;-0.1390;-0.1728;-0.2288;
3100333084058920;-0.1582;-0.0610;-0.2511;
3100333094167149;-0.1944;0.0945;-0.3161;
3100333104271733;-0.1145;0.1242;-0.3491;
3100333114379962;0.0579;-0.0514;-0.3885;
3100333124488191;0.1655;-0.0674;-0.3310;
3100333134588972;0.0515;-0.1238;-0.3577;
3100333144697253;0.0409;-0.1057;-0.3662;
3100333154805483;0.1389;0.0157;-0.3811;
3100333164906680;0.1879;0.1232;-0.3971;
3100333175014962;0.2422;0.1881;-0.3587;
3100333185123191;0.3732;0.1009;-0.3278;
3100333195240066;0.2955;-0.2037;-0.3566;
3100333205348295;0.2646;-0.0450;-0.3385;
3100333215456524;0.2156;0.0157;-0.3534;
3100333225551889;0.2337;-0.2048;-0.3704;
3100333235660170;0.3498;-0.0439;-0.2991;
3100333245768399;0.2145;0.1679;-0.2778;
3100333255884701;0.1932;0.0722;-0.3214;
3100333265992983;0.3370;0.0391;-0.2575;
3100333276101212;0.3083;0.1104;-0.2873;
3100333286208139;0.3935;0.0988;-0.2969;
3100333296316420;0.3711;0.0487;-0.1895;
3100333306424649;0.2092;-0.1185;-0.2256;
3100333316523451;0.2124;-0.0099;-0.2660;
3100333326631680;0.2411;0.0647;-0.2160;
3100333336739910;0.1293;-0.3017;-0.1989;
3100333346907358;0.2230;-0.1952;-0.1138;
3100333357015587;0.1889;-0.1121;-0.1618;
3100333367123816;0.2124;0.0381;-0.2096;
3100333377198087;0.2220;0.0839;-0.1852;
3100333387306316;0.3114;-0.1664;-0.2064;
3100333397414545;0.5947;0.3053;-0.1234;
3100333407538712;0.3530;-0.0407;-0.0883;
3100333417646941;0.3913;-0.2463;-0.0744;
3100333427755170;0.5543;0.2957;-0.0467;
3100333437819285;0.3466;0.1328;-0.0190;
3100333447927566;0.4553;-0.0503;0.1216;
3100333458035795;0.4478;0.0956;0.1067;
3100333468163660;0.2667;0.1530;0.1162;
3100333478271889;0.3871;0.1328;0.1109;
3100333488380118;0.3519;-0.1473;0.1620;
3100333498475430;0.2752;-0.0631;0.1642;
3100333508583712;0.2294;0.1391;0.2206;
3100333518691941;0.1676;0.0317;0.1738;
3100333528805274;0.2422;-0.0919;0.2302;
3100333538913399;0.2443;0.1658;0.2409;
3100333549021472;0.2582;0.2467;0.2835;
3100333559117201;0.2550;-0.1441;0.2814;
3100333569225326;0.2156;-0.2101;0.3783;
3100333579333399;0.1698;0.0466;0.3399;
3100333589452358;0.1261;0.2915;0.2814;
3100333599560483;0.2166;0.0615;0.3655;
3100333609668555;0.3178;-0.1270;0.3751;
3100333619771785;0.2241;0.0146;0.3772;
3100333629879910;0.0867;0.0008;0.4240;
3100333639987983;0.0739;-0.1856;0.4517;
3100333650103868;0.0750;-0.0802;0.4527;
3100333660211993;-0.1039;0.2478;0.4282;
3100333670320066;-0.1859;0.4491;0.4218;
3100333680422305;0.2092;-0.0237;0.4549;
3100333690530430;0.3306;-0.4019;0.4527;
3100333700638503;0.0387;0.0061;0.4964;
3100333710744389;-0.3648;0.0732;0.5092;
3100333720852514;-0.3340;0.1338;0.4644;
3100333730960587;-0.1273;0.1370;0.4506;
3100333741071108;-0.0273;0.0029;0.4591;
3100333751179233;-0.0506;0.0541;0.4985;
3100333761287305;-0.3457;-0.1228;0.4602;
3100333771395691;-0.4096;-0.0887;0.3644;
3100333781503816;-0.3286;0.2137;0.3804;
3100333791611889;-0.3659;0.0562;0.3740;
3100333801722930;-0.1454;-0.1121;0.3985;
3100333811831055;-0.2210;0.0786;0.3453;
3100333821939128;-0.4586;-0.2112;0.3474;
3100333832046524;-0.4320;-0.2570;0.2782;
3100333842154649;-0.4128;0.0232;0.2451;
3100333852262722;-0.5630;0.1679;0.2174;
3100333862365535;-0.3467;0.0210;0.1471;
3100333872473660;-0.1678;-0.0929;0.1482;
3100333882581733;-0.2381;0.1063;0.1375;
3100333892690847;-0.3063;0.2286;0.1194;
3100333902798972;-0.1550;-0.0248;0.1024;
3100333912907045;-0.1273;-0.2122;0.0917;
3100333923014076;-0.2296;0.2957;0.0747;
3100333933122201;-0.4841;0.5248;0.0609;
3100333943230274;-0.0804;0.1063;0.0342;
3100333953342097;0.2710;-0.1686;0.0246;
3100333963450222;0.0782;0.0711;0.0342;
3100333973558295;-0.2999;0.2371;0.0214;
3100333983667358;-0.3435;-0.2037;-0.0776;
3100333993775483;-0.2157;-0.2847;-0.0521;
3100334003883555;-0.3574;-0.1132;-0.0158;
3100334013989910;-0.5086;0.1850;-0.0787;
3100334024098035;-0.6301;0.2574;-0.1522;
3100334034206108;-0.2008;-0.0184;-0.2096;
3100334044328868;0.1794;0.0029;-0.1842;
3100334054436941;0.0877;-0.0003;-0.1575;
3100334064545014;-0.0687;0.0967;-0.1639;
3100334074633868;-0.0623;0.2126;-0.1618;
3100334084741993;0.0068;-0.0908;-0.1565;
3100334094850066;0.0601;-0.2197;-0.1309;
3100334104960222;-0.0325;0.0338;-0.1064;
3100334115068347;-0.1976;-0.2708;-0.1298;
3100334125176420;-0.1571;-0.2719;-0.2011;
3100334135284805;-0.1667;0.2403;-0.2021;
3100334145392930;-0.2732;0.1892;-0.1778;
3100334155501003;0.1655;0.0008;-0.1522;
3100334165634180;0.4286;-0.2485;-0.1266;
3100334175742305;0.1762;-0.2591;-0.1586;
3100334185850378;-0.0570;0.1349;-0.1213;
3100334195930014;-0.2466;0.3724;-0.1234;
3100334206038139;-0.0932;0.2254;-0.0574;
3100334216146212;0.2571;0.0913;-0.0947;
3100334226269024;0.2731;0.2350;-0.0957;
3100334236377149;0.2710;0.2659;-0.1075;
3100334246485222;0.2433;-0.3284;-0.0414;
3100334256582410;-0.0188;-0.4530;0.0033;
3100334266690483;-0.0049;0.1786;-0.0031;
3100334276798555;-0.2402;0.4065;-0.0361;
3100334286897305;-0.1465;-0.3017;-0.0265;
3100334297005430;0.1314;-0.4264;-0.0212;
3100334307113503;-0.0953;-0.1100;0.0481;
3100334317234389;-0.4330;-0.4391;0.0055;
3100334327342514;-0.3819;-0.5796;-0.0478;
3100334337450587;-0.2700;-0.5296;-0.1352;
3100334347544180;-0.2189;0.4225;-0.1341;
3100334357652305;-0.5790;0.4289;-0.0233;
3100334367760378;0.1730;-0.4541;-0.1597;
3100334377904285;0.8237;-0.0951;-0.1320;
3100334388012410;0.1868;0.4662;-0.0489;
3100334398120483;0.0089;0.3735;0.0140;
3100334408233868;0.5341;0.1743;0.0119;
3100334418341993;0.7001;0.1732;0.0843;
3100334428450066;0.4830;0.1306;0.1322;
3100334438522201;0.1698;0.0903;0.1631;
3100334448630326;0.0292;0.1317;0.1557;
3100334458738399;-0.0453;0.0136;0.1674;
3100334468852722;-0.1443;-0.1590;0.1099;
3100334478960847;-0.2786;-0.1920;0.1067;
3100334489068920;-0.4309;-0.0759;0.0726;
3100334499175430;-0.5747;0.1200;-0.0063;
3100334509283555;-0.5108;0.0711;-0.0510;
3100334519391628;-0.1944;0.0573;-0.0925;
3100334529502722;-0.0357;0.1988;-0.0979;
3100334539610795;-0.0421;0.1072;-0.0915;
3100334549718868;-0.0156;0.0008;-0.1128;
3100334559824389;-0.0230;0.0647;-0.1170;
3100334569932462;-0.0581;0.0423;-0.1298;
3100334580040535;0.0622;0.1370;-0.1085;
3100334590147201;0.0909;0.0573;-0.1107;
3100334600255274;0.0366;-0.2719;-0.1522;
3100334610363347;0.0324;-0.1483;-0.1501;
3100334620468191;-0.0613;0.1253;-0.1714;
3100334630576264;-0.1209;0.0178;-0.2149;
3100334640684337;0.0451;-0.0429;-0.1916;
3100334650796368;0.0260;0.0391;-0.1979;
3100334660904441;-0.0039;-0.0269;-0.2320;
3100334671012514;0.0664;-0.0312;-0.2373;
3100334681121524;0.0515;-0.1036;-0.2511;
3100334691229597;0.0569;-0.0216;-0.2426;
3100334701337670;0.0569;0.0168;-0.2415;
3100334711445430;0.0483;0.0828;-0.2831;
3100334721553503;0.0824;0.1200;-0.2767;
3100334731661576;0.1517;-0.1643;-0.2383;
3100334741767514;0.1900;-0.1547;-0.2192;
3100334751875587;-0.0124;-0.2080;-0.2149;
3100334761983660;0.0004;-0.2623;-0.2352;
3100334772091941;0.0569;-0.1281;-0.2213;
3100334782200014;0.0121;0.0796;-0.2543;
3100334792308087;0.0174;0.0967;-0.2170;
3100334802416680;0.2326;0.0850;-0.2373;
3100334812524753;0.4233;0.1274;-0.2277;
3100334822632826;0.4819;-0.1430;-0.1703;
3100334832739597;0.4478;-0.0567;-0.1170;
3100334842847670;0.2103;-0.0109;-0.0744;
3100334852955743;0.1314;-0.0397;-0.0702;
3100334863060535;0.1762;-0.0024;-0.0467;
3100334873168608;0.1218;-0.1121;-0.0137;
3100334883276680;0.1144;-0.0471;-0.0180;
3100334893391680;0.0654;-0.0077;0.0023;
3100334903499753;0.0579;-0.0919;-0.0617;
3100334913607826;0.0963;-0.0631;-0.0435;
3100334923701889;0.0611;0.1072;-0.0286;
3100334933809962;0.0696;0.1242;-0.0180;
3100334943918035;0.1378;0.1041;-0.0126;
3100334954038451;0.1996;0.1509;-0.0158;
3100334964146524;0.2049;0.1296;0.0065;
3100334974254597;0.1836;0.1157;0.0044;
3100334984366785;0.1186;-0.0280;0.0449;
3100334994474858;0.0995;-0.0642;0.0395;
3100335004582930;0.0686;-0.0258;0.0310;
3100335014684076;0.0260;-0.0695;0.0374;
3100335024792149;-0.0071;-0.1025;0.0449;
3100335034900222;-0.0431;-0.0620;-0.0084;
3100335045030430;-0.0294;-0.0407;-0.0137;
3100335055138503;0.0281;0.0083;-0.0158;
3100335065246576;0.0771;0.0487;-0.0276;
3100335075328764;0.1410;0.0732;-0.0158;
3100335085436837;0.1495;0.1020;-0.0350;
3100335095544910;0.1506;-0.0152;-0.0286;
3100335105654441;0.1644;0.0402;0.0140;
3100335115762514;0.0750;0.0466;0.0268;
3100335125870587;0.0899;-0.0450;0.0204;
3100335135972618;0.0675;-0.0471;0.0140;
3100335146080691;0.0601;0.0509;-0.0009;
3100335156188764;0.0483;0.0722;0.0108;
3100335166303868;0.1240;0.0636;0.0065;
3100335176411941;0.1314;0.0551;0.0129;
3100335186520014;0.0888;-0.0844;-0.0063;
3100335196629024;0.0632;-0.0834;0.0555;
3100335206737045;0.0185;-0.0152;0.0470;
3100335216845118;-0.0368;-0.0812;0.0193;
3100335226954389;-0.0049;-0.0759;0.0023;
3100335237062462;0.0451;-0.0407;0.0246;
3100335247170535;0.0728;-0.0099;0.0598;
3100335257283347;0.0771;-0.0706;0.0055;
3100335267391420;0.0856;-0.1217;0.0225;
3100335277499493;0.0547;-0.0567;0.0300;
3100335287598243;0.0739;0.2105;-0.0126;
3100335297706316;0.1559;0.2638;0.0204;
3100335307814389;0.2774;-0.2591;0.0321;
3100335317945951;0.2422;-0.3454;0.0864;
3100335328054024;0.0068;-0.0940;0.0992;
3100335338162097;-0.0049;-0.2431;0.0992;
3100335348241993;0.0281;-0.4253;0.0992;
3100335358350066;-0.0092;-0.4498;0.1205;
3100335368458139;-0.0559;-0.1707;0.0768;
3100335378574285;-0.7088;0.2403;0.0342;
3100335388682358;-0.2136;0.4917;-0.0222;
3100335398790430;0.7853;0.5269;-0.1085;
3100335408918295;0.8077;0.4672;-0.0201;
3100335419026316;0.5746;0.5770;0.0640;
3100335429134389;0.4318;0.7718;0.0875;
3100335439223451;0.4371;0.7792;0.1056;
3100335449331524;0.6074;0.5588;0.1397;
3100335459439597;0.4553;0.3415;0.2068;
3100335469555430;-0.0463;0.1551;0.2686;
3100335479663503;-0.5140;-0.2751;0.2451;
3100335489771576;-0.9378;-0.9258;0.1716;
3100335499877097;-0.9027;-0.7266;0.1162;
3100335509985170;-0.7578;-0.4242;0.0214;
3100335520093243;-0.6715;-0.5764;-0.0499;
3100335530202305;-0.4724;-0.5061;-0.1096;
3100335540310378;-0.3638;-0.3379;-0.1671;
3100335550418451;-0.2871;-0.2538;-0.1511;
3100335560524285;-0.1465;-0.4690;-0.1298;
3100335570632358;-0.0241;-0.4541;-0.1383;
3100335580740430;-0.2072;0.1562;-0.1554;
3100335590848139;0.0238;0.4598;-0.1245;
3100335600956212;1.0857;0.4470;-0.1607;
3100335611064285;1.2571;0.5056;-0.0297;
3100335621169180;1.0836;0.6473;0.0885;
3100335631277253;1.1070;0.4587;0.1141;
3100335641385326;1.0676;0.1381;0.2473;
3100335651498139;0.5979;0.3075;0.2760;
3100335661606212;0.0366;0.7622;0.3154;
3100335671714285;-0.0549;0.5940;0.3431;
3100335681820326;0.1442;-0.5114;0.3549;
3100335691928399;-0.5257;-0.8726;0.3517;
3100335702036472;-0.8867;-0.5136;0.4165;
3100335712150639;-0.7652;-0.3901;0.2995;
3100335722258712;-0.8292;-0.3316;0.2174;
3100335732366785;-0.9751;-0.0386;0.1333;
3100335742492774;-1.0220;0.3660;0.0822;
3100335752600795;-0.3691;0.1881;0.0033;
3100335762708868;0.1037;-0.1345;-0.0403;
3100335772793972;0.0664;-0.2186;0.0491;
3100335782902045;-0.1944;0.0434;0.0907;
3100335793010118;-0.3041;0.2616;0.0577;
3100335803114858;-0.1699;0.2531;0.0204;
3100335813222930;0.0707;0.2073;0.0225;
3100335823331003;0.1581;-0.0503;0.0001;
3100335833444285;0.1261;-0.0866;-0.0073;
3100335843552410;-0.0804;-0.0280;-0.0063;
3100335853660430;-0.1710;-0.1377;-0.0105;
3100335863764597;-0.1305;-0.0333;-0.0201;
3100335873872670;-0.2114;-0.0120;-0.0510;
3100335883980743;-0.2242;-0.0706;-0.0808;
3100335894084441;-0.1965;-0.1004;-0.0840;
3100335904192514;-0.2477;-0.0599;-0.1245;
3100335914300587;-0.2786;0.0008;-0.1735;
3100335924441941;-0.2200;0.0210;-0.1756;
3100335934550014;-0.0858;0.0583;-0.1969;
3100335944658087;0.0206;0.1626;-0.2320;
3100335954733243;0.1655;0.0977;-0.2021;
3100335964841316;0.2369;-0.1419;-0.2128;
3100335974949389;0.2454;0.0029;-0.1979;
3100335985069285;0.1634;0.1509;-0.1522;
3100335995177358;0.2316;-0.0738;-0.1703;
3100336005285430;0.3690;-0.1643;-0.1522;
3100336015389024;0.3093;0.0860;-0.1383;
3100336025497097;0.1261;0.2105;-0.1245;
3100336035605170;0.3168;0.0125;-0.1437;
3100336045738660;0.6085;-0.0418;-0.0702;
3100336055846733;0.4201;0.0743;-0.0148;
3100336065954858;0.1485;0.2201;0.0161;
3100336076043972;0.2539;0.2457;-0.0063;
3100336086152045;0.5479;-0.1057;0.0651;
3100336096260118;0.3743;-0.5306;0.1546;
3100336106354910;0.1421;-0.2027;0.2185;
3100336116462983;-0.0634;0.2137;0.1706;
3100336126571108;-0.1007;0.0818;0.1535;
3100336136681160;0.2763;-0.3614;0.1620;
3100336146789233;0.3242;-0.4253;0.2196;
3100336156897253;0.0558;-0.0652;0.2728;
3100336167021576;-0.3105;-0.0514;0.2132;
3100336177129649;-0.2423;-0.3081;0.1663;
3100336187237722;-0.0071;0.0636;0.1706;
3100336197331785;-0.4479;0.8335;0.1919;
3100336207439910;-0.0719;0.1786;0.2441;
3100336217547983;0.5277;-0.7021;0.1503;
3100336227677670;0.6618;-0.0248;0.1535;
3100336237785743;-0.1262;0.5013;0.2483;
3100336247893816;-0.4288;0.1455;0.3101;
3100336258010326;-0.0421;-0.0525;0.2292;
3100336268118399;-0.0220;0.1658;0.1589;
3100336278226472;-0.2573;0.2872;0.2025;
3100336288305639;-0.1497;-0.0237;0.1929;
3100336298413712;-0.0783;-0.1931;0.1482;
3100336308521785;-0.2423;0.0988;0.1397;
3100336318627618;-0.5182;0.1157;0.0949;
3100336328735691;-0.4128;0.0019;0.0427;
3100336338843764;-0.3723;0.2180;0.0193;
3100336348986576;-0.3457;0.1881;0.0012;
3100336359094649;-0.1092;-0.1430;-0.0361;
3100336369202774;-0.1348;-0.2176;-0.0158;
3100336379280535;-0.2849;-0.1835;-0.0190;
3100336389388608;-0.2828;-0.1441;-0.0712;
3100336399496680;-0.1646;0.0104;-0.0893;
3100336409620430;-0.1678;0.0210;-0.1128;
3100336419728555;-0.0921;-0.0290;-0.1181;
3100336429836628;0.0132;0.0072;-0.1309;
3100336439930639;0.0174;-0.0802;-0.1128;
3100336450038712;0.0324;-0.1707;-0.1394;
3100336460146785;0.0473;0.0317;-0.1021;
3100336470250743;-0.0431;0.1775;-0.0808;
3100336480358816;0.0409;0.1285;-0.0872;
3100336490466889;0.1655;0.0146;-0.0840;
3100336500588608;0.2166;0.0818;-0.0893;
3100336510696680;0.1389;0.1157;-0.0414;
3100336520804753;0.0728;-0.1441;-0.0393;
3100336530903972;0.0941;-0.1174;-0.0212;
3100336541012097;-0.0336;0.0381;-0.0606;
3100336551120170;-0.0847;0.1296;-0.0372;
3100336561226889;-0.0591;0.1052;-0.0521;
3100336571335014;0.0079;0.0541;-0.0648;
3100336581443087;0.0270;0.3234;-0.0883;
3100336591552930;0.1293;0.1807;-0.0798;
3100336601661055;0.1325;-0.3997;-0.0457;
3100336611769128;-0.0549;-0.3411;-0.0052;
3100336621881889;-0.1134;0.2148;-0.0190;
3100336631990014;-0.3116;0.2798;-0.1000;
3100336642098087;-0.0804;-0.2634;-0.0659;
3100336652202722;0.0963;-0.5999;-0.0531;
3100336662310847;-0.0581;-0.3401;-0.0297;
3100336672418920;-0.1667;-0.0045;-0.0808;
3100336682523868;-0.3542;-0.0748;-0.1330;
3100336692631993;-0.1529;-0.0578;-0.1447;
3100336702740066;0.0675;0.3394;-0.1426;
3100336712853347;0.0952;0.3000;-0.1000;
3100336722961472;0.3402;-0.2581;-0.0925;
3100336733069545;0.5149;-0.3124;-0.1032;
3100336743173868;0.3253;0.3128;-0.0531;
3100336753281993;-0.1582;0.5759;0.0385;
3100336763390118;0.0153;0.2095;0.0364;
3100336773504701;0.4105;-0.1792;0.0119;
3100336783612826;0.4851;-0.0727;0.0300;
3100336793720899;0.0643;0.0871;0.0949;
3100336803825535;-0.1795;-0.0397;0.0619;
3100336813933660;-0.0847;-0.1185;0.0534;
3100336824041733;-0.0134;-0.0056;0.0214;
3100336834143139;-0.0559;0.0178;0.0278;
3100336844251264;-0.0932;-0.0290;0.0321;
3100336854359337;-0.0762;-0.0365;0.0044;
3100336864469805;-0.1337;0.0317;-0.0041;
3100336874577930;-0.3329;0.3351;-0.0414;
3100336884686003;-0.2391;0.5525;-0.0819;
3100336894792201;0.3093;-0.0248;-0.0457;
3100336904900326;0.4403;-0.3731;0.0033;
3100336915008399;0.0473;-0.1664;0.0427;
3100336925132253;-0.1869;-0.2165;0.0385;
3100336935240378;-0.0900;-0.2794;0.0672;
3100336945348451;0.0696;-0.0780;0.0662;
3100336955446680;0.0377;0.1146;0.0491;
3100336965554805;-0.0220;0.0732;0.0417;
3100336975662878;-0.0028;-0.2964;0.0257;
3100336985770639;0.1389;-0.4626;-0.0041;
3100336995878764;0.1804;0.0019;0.0108;
3100337005986837;-0.1923;0.1988;0.0587;
3100337016093868;-0.2924;0.1924;0.0353;
3100337026201993;0.0451;0.4023;0.0310;
3100337036310066;0.2177;0.3511;0.0790;
3100337046428347;0.4233;0.0690;0.0864;
3100337056536472;0.4361;-0.0152;0.1344;
3100337066644545;0.1485;0.1168;0.1695;
3100337076738712;-0.0953;-0.0152;0.1812;
3100337086846785;-0.1710;-0.3667;0.1695;
3100337096954858;-0.1838;-0.3262;0.1684;
3100337107050847;-0.1752;-0.0589;0.1237;
3100337117158972;-0.2573;0.1093;0.0811;
3100337127267045;-0.3595;0.0306;0.0896;
3100337137399493;-0.1486;-0.0897;0.0672;
3100337147507618;0.0174;-0.1505;0.0225;
3100337157615691;-0.1145;-0.1079;0.0459;
3100337167692930;-0.2487;-0.1196;0.0076;
3100337177801055;-0.2668;0.0360;-0.0020;
3100337187909128;-0.2359;0.2308;0.0172;
3100337198054180;-0.2775;0.3181;0.0182;
3100337208162305;-0.1710;0.4023;-0.0233;
3100337218270378;0.1634;0.2489;-0.0510;
3100337228380222;0.3881;-0.1760;0.0289;
3100337238488347;0.1101;-0.3443;0.0523;
3100337248596420;-0.1838;-0.3252;0.0683;
3100337258697774;-0.1859;-0.2133;0.0364;
3100337268805899;-0.0858;-0.0812;-0.0414;
3100337278913972;-0.1134;-0.0216;-0.0744;
3100337289033451;-0.1486;0.0061;-0.0414;
3100337299141576;-0.0783;-0.1238;-0.0340;
3100337309249649;-0.1071;-0.4338;-0.0830;
3100337319345795;-0.1294;-0.2602;-0.1352;
3100337329453920;-0.3595;0.2904;-0.1202;
3100337339561993;-0.4884;0.2063;-0.1501;
3100337349670326;0.1261;0.2169;-0.1490;
3100337359778451;0.3775;0.3991;-0.1469;
3100337369886524;0.4446;0.1402;-0.1053;
3100337379989076;0.5075;-0.0280;-0.0563;
3100337390097201;0.3178;0.0402;0.0001;
3100337400205274;0.0622;0.1200;0.0374;
3100337410310951;0.0164;0.0434;0.0278;
3100337420419076;0.0249;-0.1537;0.0257;
3100337430527149;0.0334;-0.0003;0.0268;
3100337440640847;-0.0378;0.2169;0.0236;
3100337450748972;-0.1017;-0.1004;0.0044;
3100337460857045;0.0004;-0.2708;-0.0105;
3100337470946472;-0.0751;0.1583;-0.0137;
3100337481054597;-0.4330;0.3128;-0.0318;
3100337491162670;-0.2104;0.2254;-0.0297;
3100337501299701;0.2166;0.0466;0.0001;
3100337511407826;0.2273;-0.0695;0.0257;
3100337521515899;-0.0410;-0.1441;0.0481;
3100337531619753;-0.1113;-0.0173;0.0406;
3100337541727930;-0.0740;0.2031;0.0332;
3100337551836160;-0.0581;0.0679;0.0268;
3100337561930170;0.0366;-0.0876;0.0747;
3100337572038347;-0.0453;-0.2581;0.0864;
3100337582146576;-0.1369;-0.2644;0.0672;
3100337592264233;-0.1901;-0.1451;0.0662;
3100337602372410;-0.2381;0.0434;0.0268;
3100337612480639;-0.1624;0.0083;0.0342;
3100337622580795;0.0483;0.0115;0.0321;
3100337632688972;-0.0357;0.0253;0.0587;
3100337642797201;-0.1443;-0.1941;0.0023;
3100337652898764;-0.1326;0.0967;-0.0276;
3100337663006993;-0.2381;0.2861;0.0087;
3100337673115222;-0.0134;0.1466;0.0172;
3100337683222253;0.1410;-0.0887;0.0278;
3100337693330430;-0.0156;-0.0929;-0.0095;
3100337703438660;-0.1891;0.1189;-0.0137;
3100337713574441;-0.2104;0.0466;-0.0158;
3100337723682618;-0.0602;-0.0280;-0.0190;
3100337733790847;-0.0996;0.0455;-0.0542;
3100337743862722;-0.1337;-0.1047;-0.0755;
3100337753970951;-0.1667;-0.2197;-0.1341;
3100337764079180;-0.1923;-0.0770;-0.1138;
3100337774203816;-0.2541;-0.0333;-0.1309;
3100337784311993;-0.1827;-0.0184;-0.1501;
3100337794420222;-0.0964;0.1104;-0.1810;
3100337804499076;-0.0209;0.0391;-0.1810;
3100337814607305;0.0941;0.0072;-0.2224;
3100337824715535;0.1208;0.0732;-0.1927;
3100337834849389;0.0973;0.0509;-0.2234;
3100337844957618;0.1858;0.0796;-0.2277;
3100337855065847;0.2433;0.0210;-0.1905;
3100337865162722;0.2113;-0.1366;-0.1458;
3100337875270951;0.1133;-0.0876;-0.1437;
3100337885379180;-0.0357;0.2105;-0.1383;
3100337895498399;0.0217;0.2467;-0.1863;
3100337905606576;0.4318;-0.1473;-0.1586;
3100337915714805;0.5829;-0.3124;-0.1415;
3100337925816889;0.2933;-0.1750;-0.0723;
3100337935925118;0.0356;-0.1292;-0.0510;
3100337946033347;0.1197;-0.1515;-0.0531;
3100337956134597;0.1772;0.0317;-0.0297;
3100337966242826;0.1240;0.1828;-0.0329;
3100337976351055;0.1304;-0.0631;0.0087;
3100337986464805;0.1900;-0.3369;0.0321;
3100337996573035;0.1229;-0.1675;-0.0233;
3100338006681264;-0.0092;0.2329;0.0087;
3100338016817358;-0.0485;0.1083;0.0193;
3100338026925535;0.2049;0.0455;0.0087;
3100338037033764;0.2369;0.2446;0.0097;
3100338047095222;0.1091;0.1839;0.0427;
3100338057203451;0.1506;0.0402;0.0704;
3100338067311628;0.0984;0.0061;0.0928;
3100338077498503;0.0111;0.0871;0.1013;
3100338087606680;-0.0581;0.0583;0.1056;
3100338097714910;-0.0676;-0.1164;0.0875;
3100338107769649;-0.1113;-0.1441;0.0640;
3100338117877826;-0.2125;-0.0386;0.0236;
3100338127986055;-0.2658;0.0391;-0.0063;
3100338138098295;-0.1891;0.0402;-0.0254;
3100338148206472;-0.0613;0.0999;-0.0467;
3100338158314701;-0.0113;0.0594;-0.0350;
3100338168418816;0.0430;0.0210;-0.0041;
3100338178526993;0.0153;-0.0099;-0.0350;
3100338188635222;-0.0028;-0.0557;-0.0489;
3100338198735222;0.0100;-0.0791;-0.0212;
3100338208843451;0.0398;0.0317;-0.0254;
3100338218951680;0.0313;0.1647;-0.0478;
3100338229080795;0.0675;0.0157;-0.0680;
3100338239188972;0.1495;-0.0919;-0.0340;
3100338249297201;0.0760;-0.1142;-0.0318;
3100338259412566;0.0100;-0.0812;-0.0254;
3100338269520743;0.0419;0.0029;-0.0350;
3100338279628972;0.0185;-0.0205;-0.0372;
3100338289722566;0.0142;-0.0620;-0.0755;
3100338299830743;0.0132;0.0913;-0.0510;
3100338309938972;-0.0858;0.1881;-0.0862;
3100338320044076;-0.1017;0.2361;-0.0872;
3100338330152253;0.0228;0.5237;-0.1043;
3100338340260483;0.4521;0.4843;-0.1170;
3100338350385378;0.9249;-0.1505;-0.0553;
3100338360493555;0.5543;-0.3273;0.0023;
3100338370601785;-0.0474;-0.2847;0.0268;
3100338380692566;-0.0889;-0.4466;0.0214;
3100338390800743;0.0409;-0.4253;0.0704;
3100338400908972;0.1794;-0.1260;0.0736;
3100338411008608;0.1048;0.0743;0.0246;
3100338421116785;0.0324;-0.1004;0.0587;
3100338431225014;0.0004;-0.5338;0.0225;
3100338441330639;-0.0103;-0.3720;-0.0542;
3100338451438868;-0.2019;0.3714;-0.0489;
3100338461547097;-0.4373;0.2861;-0.0180;
3100338471668712;0.1421;0.0104;-0.0190;
3100338481776889;0.4968;0.4811;-0.0020;
3100338491885118;0.4638;0.6164;0.0811;
3100338502000899;0.6426;0.0402;0.1620;
3100338512109076;0.8897;-0.1920;0.2174;
3100338522217305;0.5128;-0.0429;0.2547;
3100338532315274;0.0345;-0.0866;0.2739;
3100338542423399;0.0334;-0.1366;0.2728;
3100338552531472;0.0409;0.0583;0.2334;
3100338562656160;-0.0273;0.2435;0.1855;
3100338572764233;-0.1092;-0.0280;0.1770;
3100338582872305;-0.0889;-0.2847;0.1929;
3100338592958139;-0.2796;0.0072;0.1780;
3100338603066212;-0.5853;0.2478;0.1429;
3100338613174285;-0.5395;0.1020;0.0971;
3100338623286524;-0.1358;0.0594;0.0598;
3100338633394597;0.0057;0.0583;0.0609;
3100338643502722;-0.1081;-0.1430;0.0385;
3100338653608660;-0.2029;-0.0887;0.0502;
3100338663716733;-0.2828;-0.0056;0.0065;
3100338673824805;-0.2178;-0.0130;-0.0361;
3100338683953555;-0.0495;0.1434;-0.0574;
3100338694061680;-0.0230;0.0881;-0.0830;
3100338704169753;-0.0676;-0.1079;-0.0744;
3100338714278972;-0.0751;-0.1185;-0.1000;
3100338724387045;-0.0826;-0.0620;-0.1266;
3100338734495118;-0.0336;-0.0248;-0.1085;
3100338744578451;0.0292;0.0945;-0.1149;
3100338754686576;0.0153;0.0391;-0.1117;
3100338764794597;-0.0039;-0.1664;-0.1288;
3100338774906368;0.0750;-0.0684;-0.1064;
3100338785014441;0.0569;0.0583;-0.1192;
3100338795122514;0.0153;0.0051;-0.1245;
3100338805217514;0.0782;-0.0024;-0.1383;
3100338815325587;0.1570;0.0040;-0.1117;
3100338825433660;0.1581;0.0008;-0.1053;
3100338835557774;0.1229;0.0093;-0.0915;
3100338845665847;0.1314;-0.0045;-0.0499;
3100338855773972;0.1048;-0.0855;-0.0382;
3100338865864597;0.0973;-0.0280;-0.0659;
3100338875972722;0.1101;0.0690;-0.0350;
3100338886080743;0.1165;0.1157;-0.0254;
3100338896196055;0.1261;0.0519;-0.0063;
3100338906304128;0.1836;-0.0514;0.0182;
3100338916412201;0.1879;-0.0482;0.0364;
3100338926522410;0.1122;-0.0109;0.0715;
3100338936630483;0.0675;-0.0194;0.0971;
3100338946738608;0.0856;-0.0248;0.1162;
3100338956867253;0.1144;0.2286;0.0481;
3100338966975274;0.0537;0.3192;0.0726;
3100338977083347;0.0494;-0.1292;0.1525;
3100338987175222;0.0079;-0.6318;0.1727;
3100338997283295;-0.1081;-0.0791;0.1759;
3100339007391368;-0.2146;0.5173;0.0800;
3100339017544701;-0.4565;-0.1036;0.1130;
3100339027652774;-0.0889;-0.8129;0.1354;
3100339037760847;-0.0368;-0.3901;0.1290;
3100339047823660;-0.2178;0.0999;0.0843;
3100339057931733;-0.5246;-0.0706;-0.0169;
3100339068039805;-0.3467;-0.2399;-0.0670;
3100339078163920;0.1378;0.1063;-0.1053;
3100339088271993;-0.0517;0.3937;-0.0744;
3100339098380066;-0.3137;-0.0290;-0.0393;
3100339108486733;-0.0964;-0.5754;-0.1565;
3100339118594753;0.4489;0.3288;-0.1895;
3100339128702826;-0.1955;0.7728;-0.1554;
3100339138791680;-0.1667;0.2499;-0.0766;
3100339148899753;0.4723;0.0285;-0.1128;
3100339159007826;0.5989;0.2148;-0.1256;
3100339169130274;0.2177;0.1828;-0.0840;
3100339179238347;0.0931;-0.0983;-0.0329;
3100339189346420;0.3083;-0.2506;-0.0201;
3100339199445951;0.2507;-0.1206;-0.0435;
3100339209554024;-0.0305;-0.1206;-0.0372;
3100339219662097;-0.0188;-0.3433;-0.0446;
3100339229766524;0.1282;-0.2101;-0.0521;
3100339239874597;0.0398;-0.1430;-0.0617;
3100339249982670;0.0771;-0.1995;-0.0808;
3100339260102097;0.1602;-0.0248;-0.1011;
3100339270210170;0.1911;0.0477;-0.1192;
3100339280318243;0.2060;0.0274;-0.0915;
3100339290422201;0.1602;0.0477;-0.0308;
3100339300530274;0.1559;0.1125;-0.0276;
3100339310638347;0.2177;0.0690;-0.0009;
3100339320753451;0.2507;0.0391;0.0555;
3100339330861524;0.2518;0.1445;0.0822;
3100339340969597;0.2390;0.0402;0.0790;
3100339351075847;0.2539;-0.0535;0.0875;
3100339361183920;0.2316;0.0690;0.1056;
3100339371291993;0.1495;0.0072;0.1056;
3100339381399701;0.1378;-0.0450;0.0907;
3100339391507774;0.0931;-0.0365;0.1184;
3100339401615847;0.0100;-0.0961;0.1216;
3100339411726160;0.0281;0.0115;0.1120;
3100339421834233;0.0451;0.1381;0.1056;
3100339431942305;0.0686;0.0679;0.0864;
3100339442044180;0.0004;0.0051;0.0768;
3100339452152253;-0.0421;0.0455;0.0949;
3100339462260378;0.0111;0.0881;0.0385;
3100339472374285;0.0036;0.0051;0.0204;
3100339482482358;-0.0602;-0.1494;0.0300;
3100339492590430;-0.0559;-0.2037;0.0257;
3100339502696785;-0.0378;-0.0003;-0.0031;
3100339512804858;0.0249;0.2531;0.0246;
3100339522912930;0.0963;0.0924;-0.0201;
3100339533018139;0.0281;-0.2836;0.0033;
3100339543126264;0.0153;-0.1803;-0.0126;
3100339553234389;-0.0378;0.1093;-0.0382;
3100339563357045;-0.1763;-0.1664;-0.0563;
3100339573465118;-0.0145;-0.3230;-0.0435;
3100339583573243;0.0345;-0.1824;-0.0606;
3100339593661576;-0.0028;0.0221;-0.0808;
3100339603769701;-0.0911;0.0423;-0.0734;
3100339613877826;-0.0644;-0.1334;-0.0372;
3100339623980014;0.0366;-0.1760;-0.1096;
3100339634088139;0.0579;0.2052;-0.1224;
3100339644196264;0.0462;0.2244;-0.0840;
3100339654305118;0.1261;0.0008;-0.0893;
3100339664413243;0.1325;0.0700;-0.0766;
3100339674521368;0.1165;0.1583;-0.0776;
3100339684656264;0.1080;0.2244;-0.0031;
3100339694764389;0.1474;0.2574;-0.0031;
3100339704872514;0.2390;0.1093;0.0598;
3100339714976264;0.2358;0.0988;0.1216;
3100339725084389;0.0398;-0.0216;0.1599;
3100339735192514;-0.0485;-0.1771;0.1631;
3100339745281889;0.0238;-0.0162;0.1727;
3100339755390014;-0.0294;0.0796;0.1503;
3100339765498139;-0.0517;-0.0365;0.1908;
3100339775601160;-0.0273;0.0136;0.2185;
3100339785709285;-0.0932;0.0775;0.2260;
3100339795817410;-0.1337;-0.0684;0.2281;
3100339805917930;-0.0932;-0.0333;0.2569;
3100339816026055;-0.1624;0.1093;0.2643;
3100339826134180;-0.1443;0.0402;0.2526;
3100339836251160;-0.0517;-0.0322;0.2515;
3100339846359285;-0.1049;0.0306;0.2547;
3100339856467410;-0.1486;0.0956;0.2899;
3100339866586941;-0.1220;0.1115;0.2995;
3100339876695014;-0.0527;0.0487;0.3165;
3100339886803139;-0.0953;-0.0173;0.3016;
3100339896900222;-0.2221;-0.0045;0.2941;
3100339907008347;-0.3531;-0.0162;0.2835;
3100339917116472;-0.3574;0.0168;0.2451;
3100339927226889;-0.3616;-0.0461;0.1855;
3100339937335014;-0.4565;-0.0748;0.1088;
3100339947443139;-0.4810;0.0221;0.0790;
3100339957548555;-0.4639;0.1093;0.0129;
3100339967656680;-0.3499;0.0754;-0.0212;
3100339977764805;-0.3180;0.0285;-0.0957;
3100339987876680;-0.3382;0.0573;-0.0862;
3100339997984805;-0.3244;0.1296;-0.1309;
3100340008092930;-0.1465;0.1285;-0.1767;
3100340018202930;-0.0751;0.1775;-0.1618;
3100340028311055;0.0196;0.2137;-0.1405;
3100340038419180;0.1506;0.3394;-0.1873;
3100340048547410;0.2124;0.4864;-0.2447;
3100340058655535;0.0750;0.1104;-0.1937;
3100340068763660;-0.0357;-0.1345;-0.1586;
3100340078871368;-0.0506;0.2158;-0.2181;
3100340088979493;-0.0273;0.0285;-0.2394;
3100340099087618;-0.0389;-0.3912;-0.2053;
3100340109190847;-0.1230;-0.3987;-0.2277;
3100340119298972;-0.1944;-0.1707;-0.2511;
3100340129407097;-0.0868;-0.1686;-0.2916;
3100340139498608;-0.0602;-0.3252;-0.3577;
3100340149606733;-0.1220;-0.3486;-0.3971;
3100340159714858;-0.1039;-0.3923;-0.4407;
3100340169834910;0.1325;0.0402;-0.4546;
3100340179943035;0.2262;0.1850;-0.4695;
3100340190051160;0.0558;-0.2559;-0.4929;
3100340200158555;0.1016;-0.0897;-0.4418;
3100340210266680;0.3210;0.1892;-0.4162;
3100340220374805;0.4244;0.0519;-0.3992;
3100340230472358;0.3381;-0.0461;-0.3513;
3100340240580483;0.2965;-0.1132;-0.3236;
3100340250688608;0.3700;-0.0642;-0.3268;
3100340260807305;0.4126;-0.0642;-0.2937;
3100340270915430;0.4063;-0.0578;-0.2735;
3100340281023555;0.4308;0.0338;-0.2788;
3100340291130014;0.3956;-0.0280;-0.2415;
3100340301238139;0.2720;-0.1462;-0.2170;
3100340311346264;0.3157;-0.0386;-0.2011;
3100340321441785;0.3178;-0.0546;-0.2106;
3100340331549910;0.3210;-0.1654;-0.1618;
3100340341658035;0.4446;-0.0514;-0.1213;
3100340351770430;0.5383;0.0210;-0.1405;
3100340361878555;0.5533;-0.0152;-0.1075;
3100340371986680;0.6895;0.1063;-0.0190;
3100340382094701;0.7800;0.3607;-0.0435;
3100340392202826;0.6692;0.2371;-0.0446;
3100340402310951;0.4009;-0.0727;0.0449;
3100340412427305;0.4414;-0.1739;0.1258;
3100340422535430;0.5106;-0.1941;0.1865;
3100340432643555;0.3956;-0.1526;0.1738;
3100340442742774;0.3999;-0.2687;0.2494;
3100340452850899;0.6181;-0.1079;0.3261;
3100340462959024;0.7853;0.1860;0.3176;
3100340473082201;0.5639;0.1317;0.2473;
3100340483190326;0.3391;-0.1377;0.3581;
3100340493298451;0.3413;-0.1526;0.4453;
3100340503401472;0.3051;-0.2144;0.4049;
3100340513509597;0.2177;-0.1643;0.3857;
3100340523617722;0.3296;0.1125;0.4335;
3100340533711993;0.4542;0.2925;0.4730;
3100340543820066;0.4105;0.2041;0.4975;
3100340553928087;0.3349;0.1477;0.5529;
3100340564046941;0.3242;0.4790;0.5827;
3100340574154962;0.4031;0.8762;0.5742;
3100340584262983;0.0089;-0.1483;0.6359;
3100340594371264;-0.5832;-0.7490;0.6455;
3100340604479337;-0.5960;-0.0429;0.6232;
3100340614587358;-0.1007;0.3085;0.5486;
3100340624682410;-0.3734;-0.0269;0.5284;
3100340634790483;-0.7461;-0.3198;0.5316;
3100340644898503;-0.6386;0.0818;0.5273;
3100340655010014;-0.4639;0.4363;0.4453;
3100340665118087;-0.6662;0.0935;0.3581;
3100340675226108;-0.8558;-0.2687;0.3612;
3100340685347930;-0.8004;-0.0354;0.3570;
3100340695456003;-0.7077;0.1063;0.3069;
3100340705564024;-0.8718;-0.2836;0.1951;
3100340715677201;-0.8579;-0.1654;0.1354;
3100340725785274;-0.5438;0.3671;0.1578;
3100340735893295;-0.4341;0.4992;0.1173;
3100340745997410;-0.5821;0.0083;0.0332;
3100340756105483;-0.6088;-0.0983;0.0065;
3100340766213503;-0.3872;0.2425;-0.0137;
3100340776308608;-0.3212;0.2489;-0.0872;
3100340786416680;-0.3893;-0.1345;-0.1554;
3100340796524701;-0.3595;-0.2431;-0.1756;
3100340806639545;-0.1997;0.0115;-0.1746;
3100340816747566;-0.0815;0.0125;-0.2138;
3100340826855587;-0.1209;-0.1643;-0.2373;
3100340836956055;-0.0188;-0.1238;-0.2266;
3100340847064128;0.1080;-0.1324;-0.2415;
3100340857172149;0.1495;-0.3614;-0.2597;
3100340867288035;0.2827;-0.2378;-0.2479;
3100340877396108;0.5458;0.1754;-0.2352;
3100340887504128;0.6245;0.5056;-0.2309;
3100340897600535;0.5394;0.1828;-0.2053;
3100340907708608;0.3509;-0.1047;-0.1618;
3100340917816628;0.3988;-0.0141;-0.1266;
3100340927969180;0.3860;-0.0514;-0.1565;
3100340938077253;0.3168;-0.1419;-0.2011;
3100340948185274;0.2806;-0.1206;-0.1756;
3100340958229910;0.2816;-0.0322;-0.1373;
3100340968337878;0.3573;0.1530;-0.1330;
3100340978445951;0.3381;0.2616;-0.1330;
3100340988553972;0.2422;0.1104;-0.1383;
3100340998701264;0.2433;0.3192;-0.1245;
3100341008809337;0.3114;0.4076;-0.1554;
3100341018917358;0.0398;-0.3816;-0.1842;
3100341028997305;-0.4128;-0.5455;-0.2160;
3100341039105378;-0.1720;-0.2655;-0.2085;
3100341049213399;0.2198;-0.1995;-0.2373;
3100341059347097;0.2561;-0.0077;-0.2309;
3100341069455170;0.3093;0.0583;-0.2266;
3100341079563191;0.2848;0.1063;-0.1979;
3100341089663191;0.3551;0.2020;-0.1895;
3100341099771264;0.4425;-0.0035;-0.1863;
3100341109879285;0.3700;-0.0812;-0.1842;
3100341119979910;0.4947;0.1200;-0.1618;
3100341130087983;0.5851;-0.0120;-0.1543;
3100341140196003;0.4329;-0.1505;-0.1543;
3100341150316576;0.5756;0.1041;-0.1586;
3100341160424649;0.6959;0.0136;-0.0979;
3100341170532670;0.5256;-0.1025;-0.0851;
3100341180651368;0.6490;0.1360;-0.0702;
3100341190759441;0.7310;0.0924;-0.0222;
3100341200867462;0.6277;0.0636;-0.0063;
3100341210970847;0.6575;0.0786;0.0332;
3100341221078920;0.5756;-0.1089;0.0747;
3100341231186941;0.4723;-0.0855;0.0960;
3100341241293191;0.6234;0.0796;0.1056;
3100341251401264;0.6234;0.0242;0.1482;
3100341261509285;0.5202;0.0562;0.1461;
3100341271614910;0.5320;0.1487;0.1695;
3100341281722983;0.4116;0.0509;0.2015;
3100341291831003;0.3072;-0.0503;0.2121;
3100341301935222;0.2529;-0.0663;0.2068;
3100341312043295;0.2156;-0.1249;0.2483;
3100341322151316;0.1559;-0.1015;0.2419;
3100341332261785;0.2209;-0.0514;0.2366;
3100341342369858;0.2209;-0.0418;0.2675;
3100341352477878;0.2262;0.0807;0.2750;
3100341362582305;0.2720;0.1562;0.2569;
3100341372690378;0.2081;0.0881;0.2824;
3100341382798399;0.1282;0.0807;0.3080;
3100341392911264;0.1154;0.0583;0.3005;
3100341403019337;0.0324;-0.0429;0.3176;
3100341413127358;-0.0495;-0.0706;0.3325;
3100341423224493;-0.0453;-0.0908;0.3091;
3100341433332566;-0.0538;-0.1174;0.3495;
3100341443440587;-0.0314;0.0296;0.3559;
3100341453555118;0.0132;0.0328;0.3378;
3100341463663191;-0.0506;-0.0333;0.3208;
3100341473771212;-0.0900;0.0732;0.3399;
3100341483884493;-0.1060;0.1391;0.3453;
3100341493992566;-0.1880;0.0562;0.3346;
3100341504100587;-0.3233;0.0466;0.3133;
3100341514207358;-0.3798;-0.0077;0.2941;
3100341524315430;-0.5076;-0.1537;0.2750;
3100341534423451;-0.5683;-0.1281;0.2824;
3100341544514597;-0.5491;-0.0695;0.2558;
3100341554622618;-0.5246;-0.0812;0.2302;
3100341564730691;-0.4937;-0.0557;0.2217;
3100341574843347;-0.4671;-0.0237;0.2153;
3100341584951368;-0.4437;0.0317;0.1727;
3100341595059441;-0.4501;0.0807;0.1610;
3100341605188868;-0.4852;0.0615;0.1674;
3100341615296941;-0.5395;0.0391;0.1631;
3100341625404962;-0.5875;-0.0344;0.0992;
3100341635496055;-0.5939;-0.1174;0.0672;
3100341645604076;-0.6269;-0.0727;0.0790;
3100341655712149;-0.5395;-0.0290;0.0481;
3100341665819805;-0.4852;-0.0354;0.0395;
3100341675927878;-0.4362;0.0445;0.0246;
3100341686035899;-0.3830;0.0594;0.0342;
3100341696142514;-0.3766;0.0360;0.0119;
3100341706250535;-0.3308;0.0871;-0.0052;
3100341716358608;-0.3606;0.0189;-0.0212;
3100341726466785;-0.3925;-0.5359;0.0694;
3100341736574858;-0.2573;-0.3188;0.0896;
3100341746682878;0.1314;0.5003;-0.0467;
3100341756808295;0.2294;0.8176;-0.0691;
3100341766916316;0.0952;0.5130;0.0182;
3100341777024337;-0.1103;0.3660;0.1429;
3100341787132618;-0.2391;0.3799;0.1280;
3100341797240639;-0.4192;0.0029;0.0672;
3100341807348660;-0.6534;-0.4423;-0.0052;
3100341817436733;-0.6375;-0.3944;-0.0148;
3100341827544753;-0.4277;-0.1483;-0.0095;
3100341837652774;-0.2573;-0.2112;-0.0222;
3100341847774076;-0.2626;-0.2048;-0.0105;
3100341857882149;-0.1806;0.0615;-0.0063;
3100341867990170;-0.0985;0.2510;0.0300;
3100341878113555;-0.1433;0.2201;0.0523;
3100341888221628;-0.2296;0.1306;0.0150;
3100341898329649;-0.2999;0.1328;0.0310;
3100341908410847;-0.3084;0.1072;0.0715;
3100341918518868;-0.4383;-0.0386;0.0502;
3100341928626941;-0.4607;-0.1654;0.0150;
3100341938742618;-0.3073;0.3373;0.0406;
3100341948850639;-0.3361;-0.0716;0.0236;
3100341958958712;-0.7535;-0.9429;-0.1352;
3100341969064180;-0.7791;-0.5498;-0.1447;
3100341979172201;-0.2551;-0.0258;-0.0531;
3100341989280274;-0.1262;0.0274;0.0108;
3100341999387514;-0.2029;0.0881;-0.0126;
3100342009495535;-0.1358;0.3810;-0.0126;
3100342019603608;-0.1049;0.7366;0.0065;
3100342029713660;-0.1614;0.5642;-0.0425;
3100342039821733;-0.3734;0.1700;-0.1043;
3100342049929753;-0.4351;0.2020;-0.1213;
3100342060035535;-0.3553;0.0711;-0.1330;
3100342070143608;-0.3702;-0.3379;-0.1373;
3100342080251628;-0.4053;-0.3230;-0.1447;
3100342090361264;-0.1912;-0.1920;-0.1213;
3100342100469285;-0.0570;-0.2836;-0.1021;
3100342110577358;-0.0378;-0.1856;-0.1064;
3100342120684441;0.0867;0.0935;-0.0723;
3100342130792514;0.1240;0.2553;-0.0574;
3100342140900535;0.1240;0.3735;-0.0659;
3100342151005639;0.1048;0.4150;-0.0350;
3100342161113660;-0.0134;0.4321;-0.0372;
3100342171221733;-0.1060;0.4917;-0.0627;
3100342181331264;-0.2200;0.2904;-0.1053;
3100342191439285;-0.4053;-0.0375;-0.1682;
3100342201547358;-0.4170;-0.1004;-0.1810;
3100342211656055;-0.3499;-0.1238;-0.1895;
3100342221764076;-0.3158;-0.2612;-0.2085;
3100342231872149;-0.2359;-0.1696;-0.2181;
3100342241983555;-0.1262;0.0040;-0.2266;
3100342252091628;-0.0262;0.0828;-0.2011;
3100342262199649;-0.0145;0.1583;-0.2053;
3100342272305222;0.0547;0.1349;-0.2138;
3100342282413243;0.0931;0.1083;-0.2256;
3100342292521316;0.1602;0.1157;-0.2298;
3100342302628868;0.1975;0.0360;-0.1927;
3100342312736941;0.1559;-0.0130;-0.1810;
3100342322844962;0.2092;0.0200;-0.1863;
3100342332956680;0.2007;-0.0535;-0.1639;
3100342343064701;0.1612;-0.1015;-0.1415;
3100342353172774;0.1762;-0.0642;-0.1234;
3100342363267149;0.2028;-0.0525;-0.1202;
3100342373375170;0.1421;-0.1483;-0.0862;
3100342383483191;0.0739;-0.1952;-0.0691;
3100342393599024;0.0792;-0.2080;-0.0808;
3100342403707097;0.0718;-0.2229;-0.0808;
3100342413815118;0.0760;-0.1707;-0.0627;
3100342423926055;0.0590;-0.1228;-0.1032;
3100342434034128;0.0100;-0.2527;-0.0947;
3100342444142149;-0.0421;-0.3294;-0.0723;
3100342454251680;0.0803;-0.1867;-0.0808;
3100342464359753;0.1932;0.0083;-0.1011;
3100342474467774;0.2017;0.0775;-0.1043;
3100342484584128;0.1250;0.0285;-0.0947;
3100342494692149;0.1357;0.0551;-0.0851;
3100342504800170;0.1602;0.1349;-0.0904;
3100342514900847;0.2103;0.1349;-0.0723;
3100342525008868;0.1666;0.0583;-0.0585;
3100342535076837;0.1549;0.0008;-0.0201;
3100342545184858;0.1698;-0.0471;-0.0286;
3100342555292878;0.1570;-0.0951;-0.0254;
3100342565461264;0.1815;-0.0844;-0.0180;
3100342575569337;0.1889;-0.0599;0.0108;
3100342585677358;0.2060;-0.0386;-0.0190;
3100342595757774;0.1996;0.0061;-0.0180;
3100342605865847;0.1847;0.0168;0.0076;
3100342615973868;0.1687;0.0008;0.0108;
3100342626078451;0.1783;0.0370;0.0087;
3100342636186472;0.1708;0.0615;-0.0041;
3100342646294545;0.1559;0.0360;0.0438;
3100342656406524;0.1602;0.0881;0.0172;
3100342666514597;0.2230;0.0796;0.0449;
3100342676622618;0.1964;0.1413;0.0534;
3100342686749076;0.2198;0.2180;0.0321;
3100342696857097;0.1815;0.2116;0.0619;
3100342706965118;0.0856;0.1850;0.0640;
3100342717074597;0.0451;0.1551;0.0800;
3100342727182618;0.0302;0.1445;0.0342;
3100342737290639;0.0057;0.1083;0.0555;
3100342747396785;-0.0581;0.0690;0.0736;
3100342757504805;-0.1113;0.0391;0.0811;
3100342767612826;-0.0889;0.0700;0.0896;
3100342777689701;-0.0719;0.1924;0.0598;
3100342787797774;-0.0506;0.1903;0.0907;
3100342797905795;-0.1923;-0.0695;0.0822;
3100342808019858;-0.3798;-0.2176;0.0694;
3100342818127878;-0.3308;-0.1664;0.0555;
3100342828235951;-0.2604;-0.0599;0.0481;
3100342838358764;-0.2615;-0.0642;0.0683;
3100342848466785;-0.2668;-0.0908;0.0353;
3100342858574858;-0.2626;-0.0514;0.0001;
3100342868702826;-0.2008;0.0210;0.0097;
3100342878810899;-0.1891;0.0093;0.0065;
3100342888918920;-0.2136;-0.0248;0.0172;
3100342899026368;-0.1518;0.0221;0.0342;
3100342909134441;-0.1422;-0.0045;0.0246;
3100342919242462;-0.1497;-0.0280;0.0545;
3100342929331055;-0.1316;-0.0557;0.0726;
3100342939439076;-0.1720;-0.0567;0.0694;
3100342949547149;-0.1752;-0.0354;0.0726;
3100342959661420;-0.1294;-0.0599;0.0470;
3100342969769389;-0.1507;-0.0461;0.0587;
3100342979877410;-0.1379;0.0210;0.0822;
3100342989985430;-0.0623;0.0402;0.0683;
3100343000090430;-0.0772;0.0189;0.0470;
3100343010198451;-0.0815;0.0402;0.0609;
3100343020306524;-0.0410;0.0157;0.0555;
3100343030426524;-0.0442;-0.0418;0.0204;
3100343040534597;-0.0241;0.0072;0.0140;
3100343050642618;0.0366;0.0690;0.0129;
3100343060735118;0.0547;0.0029;-0.0148;
3100343070843191;0.0111;-0.0312;-0.0318;
3100343080951212;0.0345;-0.0269;-0.0499;
3100343091065847;0.1027;-0.0280;-0.0766;
3100343101173868;0.1410;-0.1313;-0.1075;
3100343111281941;0.1740;-0.1419;-0.0893;
3100343121383035;0.2752;-0.0386;-0.0862;
3100343131491108;0.3913;-0.0439;-0.1202;
3100343141599128;0.4808;-0.0684;-0.1426;
3100343151707358;0.6160;0.0445;-0.1224;
3100343161815378;0.7182;0.0967;-0.0702;
3100343171923451;0.7651;0.0189;-0.0542;
3100343182036680;0.8546;-0.0365;-0.0830;
3100343192144701;0.9654;-0.0354;-0.0776;
3100343202252774;1.0367;-0.0258;-0.0105;
3100343212350847;1.0485;-0.0514;0.0395;
3100343222458920;1.0644;-0.0716;0.0257;
3100343232566941;1.1230;-0.0599;0.0065;
3100343242687722;1.1347;-0.0429;0.0342;
3100343252795795;1.1347;-0.0365;0.0832;
3100343262903816;1.0900;0.0019;0.1024;
3100343273010118;1.0612;0.0317;0.0790;
3100343283118191;1.0250;0.0221;0.0481;
3100343293226212;0.9803;0.0189;0.0385;
3100343303332305;0.9526;0.0328;0.0470;
3100343313440378;0.8844;0.0317;0.0630;
3100343323548399;0.8088;0.0146;0.0566;
3100343333651889;0.7534;0.0136;0.0268;
3100343343759910;0.7097;0.0125;-0.0009;
3100343353867983;0.6948;0.0040;-0.0137;
3100343363989649;0.7150;0.0104;-0.0340;
3100343374097670;0.7161;0.0210;-0.0680;
3100343384205691;0.6884;0.0423;-0.0947;
3100343394312097;0.6703;0.0668;-0.1032;
3100343404420170;0.6277;0.0658;-0.1053;
3100343414528191;0.5767;0.0700;-0.1383;
3100343424622930;0.5170;0.0775;-0.1852;
3100343434730951;0.4361;0.0541;-0.2085;
3100343444839024;0.3711;0.0221;-0.2160;
3100343454952410;0.3391;0.0072;-0.2192;
3100343465060483;0.3487;-0.0152;-0.2138;
3100343475168503;0.3839;-0.0333;-0.2011;
3100343485297618;0.4265;-0.0450;-0.1948;
3100343495405691;0.4553;-0.0407;-0.1927;
3100343505513712;0.4723;-0.0109;-0.1884;
3100343515610430;0.4584;-0.0035;-0.1852;
3100343525718451;0.4467;-0.0045;-0.1692;
3100343535826524;0.4830;0.0242;-0.1394;
3100343545920118;0.5330;0.0306;-0.0755;
3100343556028243;0.5787;0.0115;0.0161;
3100343566136368;0.6138;0.0221;0.0939;
3100343576241576;0.6405;0.0423;0.1461;
3100343586349701;0.6458;0.0338;0.1855;
3100343596457826;0.5639;0.0360;0.2217;
3100343606570378;0.4712;0.0498;0.2579;
3100343616678451;0.4542;0.0551;0.2824;
3100343626786576;0.2635;0.0903;0.2877;
3100343636908764;0.0579;0.1168;0.3016;
3100343647016889;0.0036;0.1072;0.3112;
3100343657125014;-0.1465;0.1200;0.2835;
3100343667218972;-0.2679;0.1296;0.2377;
3100343677327097;-0.3276;0.1072;0.2036;
3100343687435222;-0.3883;0.0967;0.1844;
3100343697540170;-0.4639;0.0818;0.1738;
3100343707648295;-0.5683;0.0636;0.1525;
3100343717756420;-0.6683;0.0626;0.1269;
3100343727878347;-0.7109;0.0477;0.1045;
3100343737986472;-0.7493;0.0242;0.0949;
3100343748094597;-0.8047;0.0349;0.0800;
3100343758182201;-0.8462;0.0583;0.0523;
3100343768290326;-0.8888;0.0583;0.0310;
3100343778398451;-0.8941;0.0391;0.0161;
3100343788515326;-0.9122;0.0168;0.0033;
3100343798623451;-0.8909;0.0178;0.0001;
3100343808731576;-0.8281;0.0189;-0.0020;
3100343818854493;-0.7599;0.0093;-0.0031;
3100343828962618;-0.6459;0.0083;0.0023;
3100343839070743;-0.6322;0.0136;0.0044;
3100343849176264;-0.5821;0.0168;-0.0020;
3100343859284389;-0.4618;0.0072;-0.0009;
3100343869392514;-0.3851;0.0072;0.0033;
3100343879488660;-0.3340;0.0178;0.0044;
3100343889596785;-0.3350;0.0200;-0.0095;
3100343899704910;-0.3063;0.0125;-0.0308;
3100343909814441;-0.2423;0.0008;-0.0425;
3100343919922566;-0.1784;-0.0056;-0.0350;
3100343930030691;-0.1348;0.0083;-0.0340;
3100343940143035;-0.1220;0.0029;-0.0361;
3100343950251160;-0.1593;-0.0088;-0.0510;
3100343960359285;-0.2264;-0.0056;-0.0670;
3100343970468972;-0.2668;-0.0173;-0.0766;
3100343980577097;-0.3031;-0.0237;-0.0830;
3100343990685222;-0.3286;-0.0109;-0.0893;
3100344000792774;-0.3329;-0.0003;-0.0947;
3100344010900899;-0.3180;0.0093;-0.1064;
3100344021009024;-0.3233;0.0115;-0.1128;
3100344031116524;-0.3414;0.0051;-0.1181;
3100344041224649;-0.3563;0.0008;-0.1224;
3100344051332774;-0.3574;-0.0045;-0.1213;
3100344061443139;-0.3371;-0.0120;-0.1202;
3100344071551264;-0.2881;-0.0024;-0.1192;
3100344081659389;-0.2264;0.0093;-0.1213;
3100344091766472;-0.1869;0.0104;-0.1245;
3100344101874597;-0.1646;0.0061;-0.1266;
3100344111982722;-0.1422;-0.0013;-0.1277;
3100344122088972;-0.1220;-0.0109;-0.1288;
3100344132197097;-0.1103;-0.0162;-0.1330;
3100344142305222;-0.0953;-0.0109;-0.1383;
3100344152408243;-0.0815;-0.0067;-0.1405;
3100344162516368;-0.0762;-0.0003;-0.1426;
3100344172624493;-0.0751;0.0051;-0.1479;
3100344182730118;-0.0836;0.0008;-0.1543;
3100344192838243;-0.1039;-0.0035;-0.1586;
3100344202946368;-0.1188;-0.0077;-0.1607;
3100344213073764;-0.1305;-0.0109;-0.1607;
3100344223181889;-0.1433;-0.0067;-0.1597;
3100344233290014;-0.1486;-0.0035;-0.1607;
3100344243384962;-0.1561;-0.0045;-0.1607;
3100344253493035;-0.1593;-0.0024;-0.1586;
3100344263601160;-0.1561;-0.0035;-0.1554;
3100344273719701;-0.1518;-0.0077;-0.1469;
3100344283827826;-0.1443;-0.0077;-0.1426;
3100344293935951;-0.1284;-0.0035;-0.1362;
3100344304029024;-0.1177;-0.0013;-0.1320;
3100344314137149;-0.1039;0.0019;-0.1277;
3100344324245274;-0.0858;0.0019;-0.1224;
3100344334362097;-0.0740;-0.0024;-0.1160;
3100344344470222;-0.0591;-0.0067;-0.1085;
3100344354578347;-0.0421;-0.0077;-0.1032;
3100344364667826;-0.0252;-0.0077;-0.0936;
3100344374775951;-0.0071;-0.0056;-0.0872;
3100344384884076;0.0068;-0.0035;-0.0798;
3100344395005014;0.0121;-0.0035;-0.0734;
3100344405113139;0.0132;-0.0045;-0.0670;
3100344415221264;0.0142;-0.0088;-0.0617;
3100344425325014;0.0100;-0.0120;-0.0563;
3100344435433139;0.0047;-0.0099;-0.0542;
3100344445541264;0.0015;-0.0077;-0.0627;
3100344455652514;-0.0049;-0.0035;-0.0574;
3100344465760639;-0.0145;-0.0013;-0.0563;
3100344475868764;-0.0166;-0.0024;-0.0574;
3100344485968035;-0.0220;-0.0056;-0.0553;
3100344496076160;-0.0230;-0.0056;-0.0531;
3100344506184285;-0.0177;-0.0035;-0.0510;
3100344516291160;-0.0156;-0.0024;-0.0499;
3100344526399285;-0.0177;-0.0013;-0.0499;
3100344536507410;-0.0262;-0.0003;-0.0510;
3100344546613868;-0.0474;-0.0013;-0.0467;
3100344556721993;-0.0772;-0.0035;-0.0457;
3100344566830066;-0.1049;-0.0035;-0.0457;
3100344576943764;-0.1305;-0.0024;-0.0489;
3100344587051889;-0.1603;0.0008;-0.0510;
3100344597159962;-0.1901;0.0029;-0.0531;
3100344607278660;-0.2178;0.0019;-0.0574;
3100344617386785;-0.2381;0.0029;-0.0585;
3100344627494858;-0.2487;0.0029;-0.0595;
3100344637589285;-0.2487;0.0029;-0.0574;
3100344647697410;-0.2477;0.0061;-0.0574;
3100344657805483;-0.2551;0.0051;-0.0585;
3100344667954701;-0.2658;0.0029;-0.0606;
3100344678062826;-0.2764;0.0029;-0.0680;
3100344688170899;-0.2860;0.0040;-0.0723;
3100344698234441;-0.2860;0.0072;-0.0766;
3100344708342566;-0.2690;0.0115;-0.0744;
3100344718450639;-0.2402;0.0125;-0.0734;
3100344728573347;-0.2093;0.0083;-0.0723;
3100344738681472;-0.1774;0.0072;-0.0723;
3100344748789545;-0.1454;0.0029;-0.0734;
3100344758910014;-0.1124;-0.0003;-0.0712;
3100344769018139;-0.0762;-0.0035;-0.0702;
3100344779126212;-0.0389;-0.0024;-0.0670;
3100344789219076;-0.0060;0.0008;-0.0638;
3100344799327201;0.0174;0.0019;-0.0648;
3100344809435274;0.0196;0.0008;-0.0648;
3100344819537618;0.0142;0.0008;-0.0691;
3100344829645743;0.0164;0.0008;-0.0712;
3100344839753816;0.0185;-0.0024;-0.0702;
3100344849870430;0.0196;-0.0013;-0.0691;
3100344859978555;0.0206;0.0019;-0.0712;
3100344870086628;0.0185;0.0008;-0.0734;
3100344880194597;0.0164;0.0029;-0.0766;
3100344890302722;0.0100;0.0029;-0.0734;
3100344900410795;0.0015;0.0019;-0.0734;
3100344910515691;-0.0017;0.0019;-0.0734;
3100344920623816;-0.0028;0.0019;-0.0755;
3100344930731889;-0.0071;0.0019;-0.0744;
3100344940843139;-0.0134;-0.0003;-0.0744;
3100344950951264;-0.0134;-0.0013;-0.0734;
3100344961059337;-0.0028;0.0029;-0.0691;
3100344971168347;-0.0028;0.0008;-0.0702;
3100344981276472;-0.0092;-0.0013;-0.0691;
3100344991384545;-0.0198;-0.0013;-0.0670;
3100345001485326;-0.0314;-0.0035;-0.0648;
3100345011593451;-0.0453;-0.0003;-0.0627;
3100345021701524;-0.0410;0.0019;-0.0648;
3100345031812618;-0.0336;0.0019;-0.0617;
3100345041920743;-0.0284;0.0040;-0.0606;
3100345052028816;-0.0209;0.0029;-0.0563;
3100345062134076;-0.0017;0.0008;-0.0531;
3100345072242201;0.0238;-0.0024;-0.0489;
3100345082350274;0.0206;-0.0067;-0.0435;
