Sensor: bmi160 Accelerometer Non-wakeup
Vendor: BOSCH
TimestampAcc [ns]; AccX [m/s^2]; AccY [m/s^2]; AccZ [m/s^2]
2763086717929555;-9.5052;-2.0492;-1.4749;
2763086728034972;-9.6945;-1.9774;-1.8033;
2763086738129503;-9.6945;-1.8933;-2.0258;
2763086748210441;-9.4358;-1.7713;-1.9110;
2763086758314712;-9.2441;-1.5652;-1.9636;
2763086768395649;-9.3138;-1.3615;-2.1314;
2763086778551795;-9.6849;-1.2132;-2.0617;
2763086788649712;-9.8025;-1.1414;-1.5876;
2763086798766482;-9.7041;-1.2156;-1.0941;
2763086808868305;-9.5100;-1.4022;-1.0606;
2763086818977003;-9.1914;-1.4551;-1.4749;
2763086829068045;-9.2393;-1.4360;-2.1362;
2763086839162889;-9.4573;-1.2993;-2.4643;
2763086849290753;-9.4286;-1.0765;-2.0426;
2763086859406274;-9.5342;-0.7268;-1.4103;
2763086869475441;-9.7759;-0.6622;-0.6150;
2763086879610701;-9.7424;-0.9903;-0.0688;
2763086889712784;-9.6634;-1.2921;-0.3754;
2763086899835545;-9.6156;-1.4408;-1.3169;
2763086909922993;-9.8934;-1.5843;-2.3109;
2763086920030024;-9.8886;-1.6394;-2.4882;
2763086930139764;-9.3664;-1.6609;-1.5541;
2763086940242420;-9.1005;-1.6346;-0.5001;
2763086950360076;-9.3832;-1.6035;-0.0281;
2763086960459295;-9.6467;-1.5987;-0.1382;
2763086970567472;-9.6658;-1.6513;-0.4543;
2763086980676170;-9.6515;-1.7713;-1.0702;
2763086990780232;-9.6443;-1.7737;-1.6714;
2763087000892159;-9.3736;-1.7713;-1.7001;
2763087010999139;-9.0861;-1.8120;-1.3839;
2763087021101899;-9.2297;-1.7210;-1.3433;
2763087031211482;-9.4765;-1.6298;-1.2520;
2763087041321743;-9.6515;-1.5508;-1.0104;
2763087051421743;-9.7831;-1.5413;-1.0223;
2763087061535545;-9.7567;-1.5389;-1.1228;
2763087071643305;-9.5315;-1.5580;-1.2667;
2763087081747055;-9.3066;-1.5867;-1.4366;
2763087091861743;-9.2560;-1.6828;-1.6690;
2763087101966639;-9.3544;-1.6851;-1.7623;
2763087112075493;-9.4717;-1.5987;-1.7049;
2763087122203409;-9.5653;-1.6131;-1.5805;
2763087132292889;-9.5629;-1.6107;-1.3696;
2763087142394139;-9.5677;-1.5796;-1.2811;
2763087152496639;-9.5486;-1.6346;-1.3146;
2763087162613982;-9.4262;-1.6490;-1.4246;
2763087172722732;-9.4310;-1.7426;-1.6499;
2763087182822212;-9.4980;-2.0420;-1.7671;
2763087192929399;-9.4860;-2.4730;-1.6738;
2763087203048618;-9.5172;-2.8947;-1.3959;
2763087213144972;-9.5366;-3.2635;-1.1348;
2763087223253566;-9.5462;-3.6015;-0.9479;
2763087233371170;-9.5390;-4.0516;-0.8761;
2763087243473878;-9.5701;-4.3513;-0.9096;
2763087253580180;-9.6036;-4.4997;-0.9574;
2763087263686274;-9.5916;-4.6026;-0.9383;
2763087273799764;-9.5653;-4.7465;-0.8258;
2763087283917107;-9.5076;-4.8951;-0.7397;
2763087294009087;-9.5315;-4.9071;-0.7421;
2763087304117732;-9.5462;-4.7465;-0.7780;
2763087314221482;-9.5390;-4.5021;-0.9335;
2763087324356014;-9.5773;-4.2553;-1.2568;
2763087334440857;-9.5100;-3.9583;-1.4294;
2763087344548514;-9.3712;-3.6446;-1.3098;
2763087354650909;-9.3712;-3.3308;-1.1252;
2763087364762680;-9.4573;-2.7870;-1.2835;
2763087374879034;-9.4573;-2.3294;-1.6044;
2763087384982784;-9.3449;-2.2911;-1.6594;
2763087395085753;-9.2489;-1.9822;-1.7336;
2763087405200597;-9.2321;-1.4121;-1.6834;
2763087415303409;-9.3090;-0.9951;-1.6642;
2763087425412003;-9.3473;-0.7101;-1.8631;
2763087435514191;-9.2898;-0.3389;-2.2271;
2763087445621274;-9.1819;0.0159;-2.3133;
2763087455756847;-9.1866;0.2459;-2.4284;
2763087465833357;-9.2632;0.3679;-2.5217;
2763087475941170;-9.2584;0.2578;-2.4308;
2763087486048930;-9.2779;0.1307;-2.4619;
2763087496162003;-9.3784;0.1546;-2.7302;
2763087506286951;-9.4765;0.2124;-2.8741;
2763087516404451;-9.2201;0.1522;-2.6010;
2763087526466847;-9.0455;0.0876;-2.2606;
2763087536574868;-9.2297;-0.0631;-2.2223;
2763087546698722;-9.1627;-0.1926;-2.4093;
2763087556804191;-9.1508;-0.0320;-2.7565;
2763087566927837;-9.0838;0.2411;-4.1602;
2763087577024191;-9.0215;0.7080;-4.9795;
2763087587111795;-9.4932;0.1642;-3.2955;
2763087597241170;-9.6395;-0.4131;-1.8607;
2763087607374347;-9.1460;0.4902;-3.8297;
2763087617477993;-8.5256;0.6434;-4.5054;
2763087627559503;-8.6620;0.0972;-4.4620;
2763087637655962;-8.9830;-0.7723;-3.9951;
2763087647783305;-9.2369;-1.4838;-3.9350;
2763087657897316;-9.1531;-1.7785;-4.1028;
2763087667988722;-9.0479;-1.5030;-4.2009;
2763087678093774;-10.0394;-0.8584;-3.8273;
2763087688203045;-10.0394;-0.4537;-2.8908;
2763087698331482;-8.4392;-0.3963;-2.6536;
2763087708449607;-7.6992;-0.0344;-4.4118;
2763087718544503;-8.7915;0.3607;-6.1917;
2763087728633253;-9.2369;0.0613;-5.6480;
2763087738736378;-8.2908;-0.2907;-4.1674;
2763087748847628;-9.0383;0.0494;-3.6766;
2763087758955545;-8.9758;0.1690;-3.3410;
2763087769067264;-7.9217;-0.2189;-4.4285;
2763087779169972;-8.8250;-0.8608;-8.0554;
2763087789279816;-10.9977;-1.1004;-8.8747;
2763087799388982;-8.9279;-1.7091;-3.8417;
2763087809495649;-6.7768;-1.6490;-0.7202;
2763087819604087;-8.3842;-0.9497;-2.5911;
2763087829709972;-9.4382;-0.7819;-3.9278;
2763087839816274;-10.6624;-1.3089;-3.8752;
2763087849935180;-11.8576;-1.5580;-3.1014;
2763087860052837;-8.4296;-1.7091;-1.6427;
2763087870156066;-5.6653;-2.0803;-2.8693;
2763087880258462;-8.7218;-3.2468;-5.6480;
2763087890360909;-12.4014;-4.9645;-5.5256;
2763087900463357;-10.9905;-5.7909;-2.1817;
2763087910565753;-8.1900;-4.0516;-1.3600;
2763087920668201;-8.6524;-2.0468;-1.9516;
2763087930791691;-8.1063;-0.7005;-1.7934;
2763087940894139;-7.1363;0.5118;-2.6512;
2763087950996534;-8.9495;0.4397;-5.1640;
2763087961111482;-11.5032;0.4014;-5.3581;
2763087971213878;-10.6122;-0.1543;-3.1567;
2763087981316326;-9.4382;0.5548;-4.5365;
2763087991433774;-9.0503;0.6960;-4.9077;
2763088001536170;-8.2693;0.1690;-2.9578;
2763088011638618;-7.0834;0.3464;-2.4547;
2763088021752837;-8.4177;0.5429;-3.4992;
2763088031855232;-9.0263;0.2291;-3.3075;
2763088041957680;-8.8777;0.8997;-4.4668;
2763088052080024;-10.3077;1.4195;-5.3725;
2763088062182472;-11.7141;1.6878;-4.2419;
2763088072284868;-8.4658;2.3010;-2.3399;
2763088082411951;-6.9589;2.2316;-2.3662;
2763088092514347;-8.5735;2.6486;-4.0095;
2763088102616795;-10.2622;2.9791;-3.3793;
2763088112723618;-8.5448;3.5635;-3.2548;
2763088122826066;-8.1829;3.1418;-4.5891;
2763088132928462;-10.3487;2.6076;-4.6920;
2763088143049295;-9.1914;2.8810;-2.6584;
2763088153151691;-7.1459;2.7443;-3.5734;
2763088163254191;-10.6648;1.8867;-6.7905;
2763088173368566;-12.7466;1.7931;-5.6001;
2763088183470962;-7.9843;2.2436;-0.7995;
2763088193573409;-5.5600;2.5262;0.5707;
2763088203707316;-4.6376;1.8843;-0.9909;
2763088213809712;-8.2597;1.4626;-5.0180;
2763088223912159;-14.9049;0.4516;-5.4060;
2763088234018514;-15.5970;1.5969;-3.8297;
2763088244120909;-9.0359;1.1919;-2.6345;
2763088254223357;-5.0354;-0.1519;-2.0521;
2763088264337732;-5.8714;-0.3963;-2.3662;
2763088274440180;-7.4548;-0.0416;-1.2763;
2763088284542576;-7.4237;0.4445;-0.9096;
2763088294663774;-12.8686;1.5443;-8.7165;
2763088304766222;-18.3784;1.1871;-9.8689;
2763088314868618;-8.3722;1.1776;-0.1406;
2763088324986795;-0.2994;1.4435;1.7255;
2763088335089243;-3.7346;0.6960;-3.8058;
2763088345191639;-11.7523;1.4171;-6.2396;
2763088355307316;-15.9395;1.9872;-0.3203;
2763088365409764;-11.2780;2.2388;0.3215;
2763088375512159;-10.9594;2.4544;-7.1282;
2763088385636899;-7.8930;1.4698;-4.9053;
2763088395739347;-1.3271;1.7907;0.2545;
2763088405841743;-6.9900;3.3168;-2.5217;
2763088415943253;-6.8438;2.5214;-5.0827;
2763088426045701;-8.3267;2.0303;-6.6084;
2763088436148097;-20.1054;3.1155;-6.0215;
2763088446316066;-20.5534;2.9312;-1.2858;
2763088456418514;-12.3655;1.5419;1.6654;
2763088466520909;0.0191;1.2159;-0.0497;
2763088476581795;3.4783;2.4855;-5.6169;
2763088486684243;1.9355;2.9336;-9.7753;
2763088496786691;0.8503;1.8365;-4.9866;
2763088506965857;-18.0882;0.6027;-2.0498;
2763088517068305;-33.9443;0.7944;-3.2524;
2763088527170753;-16.4522;7.4249;-9.0329;
2763088537250337;-4.4677;6.5602;-4.9077;
2763088547352732;1.1043;-0.0033;3.3975;
2763088557455180;2.7933;1.9107;0.5133;
2763088567563982;-8.7844;4.6534;-7.0014;
2763088577666430;-18.9221;3.8509;-2.9770;
2763088587768826;-19.1833;3.4822;-2.2295;
2763088597889191;-14.7036;3.4101;-8.6877;
2763088607991639;-3.8327;1.0962;-1.7623;
2763088618094034;5.9025;0.5070;3.0526;
2763088628222524;1.5882;-0.5471;-3.6933;
2763088638324920;-12.0230;-0.2788;-8.7212;
2763088648427368;-15.2258;0.6362;-5.4036;
2763088658562472;-12.6051;0.7394;1.0881;
2763088668664972;-12.1044;2.1957;0.7385;
2763088678767368;-8.7724;2.8759;-1.4581;
2763088688857628;-4.3597;1.1417;-3.5136;
2763088698960076;1.1330;0.9763;-9.8713;
2763088709062472;-18.9748;1.0364;-10.2233;
2763088719176482;-25.1169;-3.6302;7.6280;
2763088729278878;-18.8979;-4.8855;13.4441;
2763088739381326;-6.3482;-2.2071;1.4477;
2763088749503566;0.3401;-2.3246;-3.2381;
2763088759605962;-4.0101;-4.1285;-2.3638;
2763088769708409;-6.9182;-3.4576;-1.7647;
2763088779822941;-11.8648;-3.3547;-3.1014;
2763088789925389;-11.2875;-1.9101;-7.8230;
2763088800027784;-13.3382;0.6147;-11.7063;
2763088810150701;-15.8438;-1.3089;-4.5700;
2763088820253149;-4.5778;-3.5246;3.7759;
2763088830355545;-3.5189;-4.1046;1.2129;
2763088840473982;-11.9031;-3.3906;-0.7373;
2763088850576430;-7.3469;-1.5006;1.2607;
2763088860678826;-10.8251;-0.0272;-3.4801;
2763088870815128;-11.2373;1.7596;-3.4394;
2763088880921795;-8.5615;1.5754;-3.5590;
2763088891028409;-16.9361;2.8065;-5.0010;
2763088901120753;-12.8064;2.2890;-0.4905;
2763088911227420;-11.5367;0.7777;-1.1348;
2763088921334034;-13.5153;1.5368;0.8557;
2763088931449607;-1.3367;0.6577;5.8768;
2763088941556274;-2.7069;1.3502;1.7471;
2763088951662889;-0.0072;1.8269;2.2092;
2763088961750962;7.9460;2.3010;-3.8058;
2763088971857628;-19.1160;3.9251;-24.4406;
2763088981964243;-43.8568;9.6817;-24.1723;
2763088992089503;-22.6591;6.5100;0.1971;
2763089002196170;3.0497;-1.3759;12.4382;
2763089012302784;4.2138;-6.5360;3.6969;
2763089022411066;1.3199;-0.6479;-2.4978;
2763089032517732;-6.2258;4.6175;-5.1114;
2763089042624347;-18.6706;6.3855;-11.9913;
2763089052728670;-20.5989;5.9064;-11.6151;
2763089062835337;-0.2659;3.0676;-3.6957;
2763089072941951;3.4137;0.7032;-2.8813;
2763089083060441;-8.4730;1.6280;-9.3897;
2763089093167107;-13.2808;2.4927;-9.9526;
2763089103273722;-7.7638;1.9609;-5.1712;
2763089113383670;-7.1602;1.3813;-4.8814;
2763089123490337;-16.3947;2.5143;-6.4840;
2763089133596951;-5.7754;1.0125;-0.0616;
2763089143709712;-6.6547;2.0088;3.2130;
2763089153816378;-7.0140;0.5644;0.1636;
2763089163922993;-17.7362;3.8007;-21.7385;
2763089174030857;-22.9008;7.7653;-17.2469;
2763089184137524;-2.0841;6.2943;2.2358;
2763089194244139;12.0541;1.8508;0.2952;
2763089204383149;-2.6949;2.5621;-13.9196;
2763089214489816;-19.5425;5.2164;-8.3022;
2763089224596430;-12.1762;3.3311;5.5247;
2763089234688566;-2.1655;-0.8297;-1.7838;
2763089244795232;-16.5458;2.1239;-13.5915;
2763089254901847;-10.0923;4.3373;-1.6690;
2763089265000441;0.2539;2.5813;3.3042;
2763089275107107;-3.3511;0.6194;-6.9200;
2763089285213722;-14.8161;1.3765;-17.0937;
2763089295321482;-23.0016;3.5133;-17.6136;
2763089305428149;-8.6596;3.4941;2.8202;
2763089315534764;-4.5993;-0.6263;10.5673;
2763089325636482;5.9216;-1.2203;6.0087;
2763089335743149;0.7762;-1.3926;-11.0402;
2763089345849764;-22.6543;1.1800;-23.1924;
2763089355953045;-23.6961;6.7496;-1.4964;
2763089366059712;0.6829;5.7027;11.1039;
2763089376166326;-4.1874;-0.2142;-8.4410;
2763089386342524;-3.4137;5.7099;-2.2271;
2763089396449191;-2.2684;6.8237;5.9895;
2763089406555805;-15.7720;4.9576;-4.4237;
2763089416616274;-18.1292;6.6849;-4.1626;
2763089426722941;-14.1407;5.1852;-1.9277;
2763089436829555;-11.1631;5.1661;-0.9814;
2763089446976170;-3.2889;2.7156;-5.8349;
2763089457082837;-14.8424;1.4243;-10.5108;
2763089467189451;-10.1354;1.9896;6.2121;
2763089477258045;0.4696;-3.3906;8.1718;
2763089487364712;-11.4769;-3.8506;-0.8713;
2763089497471326;-23.9118;-1.4958;2.7843;
2763089507571743;-16.1336;-3.2085;7.1656;
2763089517678409;-4.5203;-6.2940;2.6070;
2763089527785024;-6.5563;-4.0373;-1.7815;
2763089537897941;-7.3181;-2.3342;-3.4035;
2763089548004607;-12.9069;-2.7030;-4.3998;
2763089558111222;-10.7486;-3.6781;-2.2822;
2763089568213045;-8.5208;-3.4720;-5.6025;
2763089578319712;-14.6414;-1.4432;-6.6446;
2763089588426326;-9.1029;-2.8014;0.7337;
2763089598563982;-3.5620;-3.8148;0.9613;
2763089608670649;-10.4133;-1.1605;-2.9650;
2763089618777264;-17.1853;-0.2524;-4.1004;
2763089628880753;-10.5449;-0.2046;3.9891;
2763089638987420;1.7225;-1.3137;4.3822;
2763089649094034;-8.6213;0.3607;-7.1378;
2763089659207107;-19.3962;5.2020;-6.1965;
2763089669313774;-8.5232;3.2282;-1.7169;
2763089679420389;-5.1263;2.0207;-5.3605;
2763089689517003;-10.2096;2.7538;-5.7939;
2763089699623670;-12.8614;3.2593;-4.1507;
2763089709730284;-7.5745;1.2565;-0.0760;
2763089719842003;-5.0665;1.5538;-1.4270;
2763089729948670;-13.2709;0.6697;-6.3763;
2763089740055284;-13.0555;3.2282;-2.0955;
2763089750160857;-4.6711;1.1034;-1.7001;
2763089760267524;-3.9574;1.5945;-6.9751;
2763089770374139;-4.2736;2.2340;-7.7201;
2763089780482212;-7.3038;3.9299;-8.3501;
2763089790588878;-7.0403;3.6353;-8.7500;
2763089800695493;-8.3913;1.9753;-9.2339;
2763089810805962;-14.1550;1.1656;-7.4013;
2763089820912628;-10.7749;0.6170;-5.7269;
2763089831019243;-7.9340;-2.2624;-5.8158;
2763089841126378;-8.3554;-1.9077;-1.6714;
2763089851233045;-5.7562;-2.0635;-0.2462;
2763089861339659;-7.0068;-0.2979;-4.1722;
2763089871479816;-11.6539;-0.1065;-9.6772;
2763089881587316;-13.4076;2.5525;-8.5992;
2763089891694816;-6.6117;2.8567;-4.9627;
2763089901772837;-6.4917;1.8843;-6.1630;
2763089911880337;-6.7170;2.7802;-5.7126;
2763089921987837;-7.2057;2.3563;-6.7259;
2763089932094347;-14.0040;4.2679;-7.1764;
2763089942201847;-12.2387;5.2116;-0.3203;
2763089952309347;-4.8580;2.9240;-0.4570;
2763089962423201;-7.5649;2.7012;-3.2668;
2763089972530701;-6.0775;4.0522;-3.1711;
2763089982638201;-9.2178;3.3048;-5.6958;
2763089992739712;-11.9776;2.8735;-7.3463;
2763090002847212;-16.6582;2.7179;-4.8694;
2763090012954712;-2.8747;1.7046;-0.1430;
2763090023061274;-9.1938;0.2818;0.0269;
2763090033168774;-11.2732;2.8496;2.8274;
2763090043276274;-8.6979;0.5644;1.9457;
2763090053390128;-13.3980;0.3655;0.9613;
2763090063497628;-12.8662;-0.0320;4.3292;
2763090073605128;-6.4822;-2.3677;4.7749;
2763090083718878;-7.4261;-3.2037;0.2689;
2763090093826378;-8.6501;-2.7751;-1.6762;
2763090103933878;-13.1417;-1.0669;1.0618;
2763090114036378;-7.9747;-0.4585;0.1875;
2763090124143878;-11.4841;-1.6035;-6.8264;
2763090134251378;-16.8428;0.7537;-1.9899;
2763090144360128;-10.1450;-0.6957;4.7055;
2763090154467628;-0.9006;-3.1128;-2.7278;
2763090164575128;-9.5028;-1.7450;-6.7857;
2763090174688045;-16.4067;1.4052;0.5803;
2763090184795545;-13.5105;1.0292;5.3809;
2763090194903045;-7.5003;-2.6121;3.1747;
2763090205007837;-8.8442;-1.9125;-3.4178;
2763090215115337;-7.6511;-0.0153;-2.3157;
2763090225222837;-4.6352;1.3071;2.5639;
2763090235327107;-8.6931;2.7491;-0.6461;
2763090245434607;-9.9102;2.7562;-8.1870;
2763090255542107;-13.8389;3.4487;-15.8743;
2763090265644920;-13.8341;5.2068;-3.1134;
2763090275752420;-1.0373;1.8580;6.9667;
2763090285859920;-0.5127;1.1082;0.9159;
2763090295970024;-14.4664;2.0856;-3.1591;
2763090306077472;-18.4597;7.3866;1.3253;
2763090316184972;-8.4368;8.1413;4.2574;
2763090326362993;-3.6147;2.1550;-4.3854;
2763090336470493;-9.2874;-0.6144;-13.4644;
2763090346577993;-10.2048;3.2689;-5.2525;
2763090356612628;-5.9264;7.6143;0.2904;
2763090366720128;-14.6821;2.3345;-4.9866;
2763090376827628;-11.4123;-1.2849;-1.9828;
2763090386984087;-7.7495;-1.3783;-0.5432;
2763090397091587;-10.4755;-1.6804;-0.3299;
2763090407199087;-10.1163;-2.4203;1.5194;
2763090417263774;-7.5697;-1.2251;0.8174;
2763090427371274;-7.3493;-2.9258;-1.1707;
2763090437478774;-10.9259;-1.2443;-4.3184;
2763090447586274;-9.7352;0.3440;-4.2754;
2763090457693774;-11.3163;1.0819;-7.1477;
2763090467801274;-13.7070;-2.5522;-4.0956;
2763090477910128;-5.0139;-1.5532;3.2970;
2763090488017628;-5.3515;2.6916;0.9278;
2763090498125128;-12.2674;0.8758;-8.4003;
2763090508251274;-7.5027;-1.8072;-9.1286;
2763090518358774;-6.5348;-0.1998;-9.2052;
2763090528466274;-9.9461;1.8796;-3.2189;
2763090538564503;-11.2445;4.6774;1.8882;
2763090548672003;-6.7935;4.4617;4.6337;
2763090558779503;-11.1727;0.9117;-4.2634;
2763090568891274;-14.6533;-1.8144;-8.3620;
2763090578998774;-7.1291;1.0866;-3.5160;
2763090589106274;-3.9335;2.4401;-0.4256;
2763090599192837;-8.4873;2.5932;-4.8048;
2763090609300337;-11.8768;1.9968;-2.7494;
2763090619407837;-8.0393;4.9792;-2.7494;
2763090629526847;-12.1546;0.7609;-8.9393;
2763090639634347;-11.9031;1.1058;-7.8254;
2763090649741847;-5.4568;3.8222;-0.1597;
2763090659849087;-7.9364;4.8356;-0.6532;
2763090669956587;-11.8768;2.0904;-3.1663;
2763090680064087;-8.6668;1.7070;-5.0755;
2763090690176014;-5.4401;0.3464;-3.8225;
2763090700283514;-6.6643;2.0447;-3.9544;
2763090710391014;-10.1258;2.3731;-4.4453;
2763090720486378;-8.5161;2.1814;-2.3949;
2763090730593878;-8.4296;1.8604;-1.4581;
2763090740701378;-10.7246;1.7788;-1.6881;
2763090750818253;-12.4062;1.7213;-1.5278;
2763090760925753;-9.4406;1.0795;-0.6365;
2763090771033253;-9.6802;0.8447;-1.0845;
2763090781140649;-8.6261;0.6793;1.2990;
2763090791248149;-5.9671;2.1766;0.4630;
2763090801355649;-12.4110;-0.3461;-3.1086;
2763090811474712;-12.2100;2.0279;-2.1912;
2763090821582212;-7.7375;3.4702;1.3253;
2763090831689712;-11.8481;1.1847;-1.0056;
2763090841789295;-10.8395;-1.6609;-0.6724;
2763090851896795;-6.1325;2.2364;0.2928;
2763090862004295;-6.4319;1.7836;-0.5623;
2763090872102107;-9.6060;1.9585;-2.6417;
2763090882209451;-11.3498;0.2841;-4.0286;
2763090892316795;-15.1466;2.1933;-2.3614;
2763090902440597;-8.5519;1.4483;2.3171;
2763090912547941;-3.8183;-0.5136;-0.3179;
2763090922655284;-10.0585;-3.4648;-2.5265;
2763090932759347;-14.1455;-0.6622;2.6046;
2763090942866691;-13.9681;1.1177;5.0839;
2763090952974034;-13.5515;-0.9233;-0.5527;
2763090963068514;-7.9146;-2.4132;-0.2964;
2763090973175857;-10.8948;-0.2500;-2.6489;
2763090983283201;-5.0952;1.1704;0.4893;
2763090993403670;-4.6137;-0.6861;-2.9770;
2763091003511014;-11.8505;0.4349;-5.6432;
2763091013618357;-15.6066;1.0890;-2.7446;
2763091023724712;-17.5855;3.0939;-1.0822;
2763091033832055;-11.7141;-2.9091;0.2833;
2763091043939399;-7.5482;-3.3284;-1.0893;
2763091054050857;-6.9541;-1.9917;1.1360;
2763091064158201;-7.6032;0.3320;-0.6843;
2763091074265545;-3.7370;-0.1400;-1.3074;
2763091084401066;-8.3267;0.3416;-6.7738;
2763091094508409;-14.5908;1.7477;-7.3415;
2763091104615753;-10.4157;3.2880;-4.2754;
2763091114686795;-6.3864;1.9107;-6.4505;
2763091124794087;-12.8255;0.7777;-7.8541;
2763091134901430;-6.4654;3.3790;-3.3817;
2763091145028305;-6.1086;2.4975;-2.6106;
2763091155135649;-12.3200;3.0413;-4.6202;
2763091165242993;-7.1674;1.2374;-1.8727;
2763091175334868;-5.1766;1.8003;-3.5423;
2763091185442212;-13.2637;1.2302;-3.6404;
2763091195549555;-12.0709;4.9241;-0.2438;
2763091205657316;-4.1154;2.4233;-1.7623;
2763091215764659;-6.5949;-0.3820;-9.8809;
2763091225872003;-9.7591;-0.4035;-9.3730;
2763091235987264;-6.6308;3.2139;-2.3423;
2763091246094607;-3.8183;4.2751;2.8872;
2763091256201951;-9.7998;1.0340;-8.2831;
2763091266365597;-20.1724;-2.8349;-18.1884;
2763091276472941;-14.9264;1.8772;-5.0874;
2763091286580284;-0.4167;5.5253;6.5237;
2763091296645857;-5.4520;0.1475;-2.1147;
2763091306753201;-6.5515;-3.1510;-4.2610;
2763091316860545;-9.2465;0.2148;-3.2142;
2763091326995753;-17.0127;2.1885;-5.3916;
2763091337103097;-13.8293;0.6529;-7.4327;
2763091347210441;-13.3837;0.9476;-6.0072;
2763091357269399;-4.2640;2.6749;1.1097;
2763091367376743;-0.2085;2.4401;-0.2533;
2763091377484087;-6.6619;2.0734;-2.2199;
2763091387608253;-11.2134;4.7204;-3.3003;
2763091397715597;-16.7563;2.8735;-2.7422;
2763091407822941;-20.6444;4.8069;2.0871;
2763091417943462;-9.0479;3.7481;3.1795;
2763091428050805;-2.1631;1.8365;-0.9287;
2763091438158149;-9.9413;1.1441;-0.7301;
2763091448266482;-12.7537;3.7983;3.6778;
2763091458373826;-6.9302;3.3072;7.6280;
2763091468481170;-5.6294;1.8413;2.4559;
2763091478558253;-9.2489;-2.2289;-3.3649;
2763091488665597;-19.7533;1.0196;-1.4629;
2763091498772941;-12.6386;3.9371;4.3869;
2763091508883357;-0.4600;1.0026;1.8284;
2763091518990701;-10.3316;-0.4370;-4.3543;
2763091529098045;-16.7013;-0.8010;-2.5433;
2763091539209503;-12.9835;1.3286;4.9618;
2763091549316847;-6.3410;1.9992;6.9619;
2763091559424191;-8.1015;0.2052;1.7088;
2763091569533774;-9.3353;-2.3246;0.5755;
2763091579641118;-8.4607;-2.0157;-1.2401;
2763091589748462;-11.7117;-3.4433;-3.7101;
2763091599863774;-11.9584;-2.3103;-0.4472;
2763091609971118;-6.4893;-1.0765;-0.3275;
2763091620078462;-10.6385;-3.2707;-3.0631;
2763091630184764;-12.9356;-2.0898;-1.3792;
2763091640292107;-16.6247;2.3683;1.6247;
2763091650399451;-13.1465;3.6688;1.9169;
2763091660515545;-4.1898;3.0102;1.3134;
2763091670622889;-1.0732;1.0101;-1.7192;
2763091680730232;-4.5897;-1.1581;-3.2524;
2763091690842420;-10.4707;1.0026;1.8978;
2763091700949764;-11.6877;6.0476;2.3124;
2763091711057107;-22.8266;-0.2524;-13.5290;
2763091721160597;-24.0150;-9.0966;-13.7184;
2763091731267941;0.3042;-0.5997;5.2756;
2763091741375284;9.0981;7.4324;7.2541;
2763091751483774;-2.4793;2.0638;-2.1362;
2763091761591118;-17.1254;-1.4097;-3.1926;
2763091771698462;-16.3229;0.3966;4.0971;
2763091781808878;-12.4756;1.2087;-2.6034;
2763091791916222;-21.4445;-5.2400;-9.7729;
2763091802023566;-7.9170;-6.3251;7.1656;
2763091812129191;3.7011;1.0412;11.3169;
2763091822236534;-12.1762;0.1403;-3.4250;
2763091832343878;-16.6582;-1.4336;-1.1563;
2763091842439295;-6.4558;0.7729;1.6271;
2763091852546639;-9.9891;0.4229;-5.3533;
2763091862653982;-16.2248;-1.8455;-5.3940;
2763091872790337;-11.1078;-1.1916;4.3077;
2763091882897680;-2.7978;1.6400;6.4205;
2763091893005024;-3.4878;2.2364;-3.8536;
2763091903094295;-10.9499;-1.5580;-9.4519;
2763091913201639;-13.9896;-2.5044;-0.6197;
2763091923308982;-8.3124;2.6366;4.1617;
2763091933408045;-7.5864;4.7013;0.6763;
2763091943515389;-11.2708;2.0976;1.0283;
2763091953622732;-15.2976;3.5468;0.4175;
2763091963745337;-15.9685;5.3722;0.3553;
2763091973852680;-8.7194;5.4272;0.8725;
2763091983960024;-2.4314;4.5338;-4.4743;
2763091994064607;-1.8565;1.3741;-6.6278;
2763092004171951;-5.1072;-1.9101;-0.8569;
2763092014279295;-14.2460;1.5467;5.0551;
2763092024385962;-17.8056;9.3392;4.1426;
2763092034493305;-15.1298;11.6076;-4.6801;
2763092044600649;-13.4937;4.6247;-7.3989;
2763092054707941;-5.6964;-2.0109;1.5194;
2763092064815284;1.5835;0.5405;5.5845;
2763092074922628;-1.9738;4.1934;-0.3826;
2763092085037107;-12.6051;1.3932;-5.3821;
2763092095144451;-18.7520;-2.5379;-2.9219;
2763092105251795;-14.7515;-1.6756;-1.1109;
2763092115335597;-9.3377;-0.8755;-2.0043;
2763092125442889;-6.6595;-1.6011;0.0799;
2763092135550232;-6.7576;-1.1486;3.3927;
2763092145657524;-9.9413;0.9715;2.6022;
2763092155786691;-13.7501;2.1096;-1.0008;
2763092165894034;-13.8389;1.1465;-1.8153;
2763092176001378;-6.8127;0.3894;-0.5910;
2763092186101587;-2.8555;-0.8441;-2.2247;
2763092196208930;-10.2191;-3.4768;-5.6527;
2763092206316274;-13.5826;-4.3295;-2.6680;
2763092216425284;-11.1799;-1.2658;-0.5073;
2763092226532628;-12.3559;0.3583;-3.0942;
2763092236639972;-13.0866;0.0159;0.4247;
2763092246802732;-7.7949;3.5898;5.7858;
2763092256910076;-6.2258;5.3172;3.3473;
2763092267017420;-7.8212;3.1011;-2.5217;
2763092277077837;-9.2850;-0.2907;-4.3902;
2763092287185180;-12.0805;-2.1449;-4.1865;
2763092297292524;-12.3894;-1.7689;-3.9855;
2763092307383357;-10.6528;-0.9209;-4.8239;
2763092317490701;-9.3951;-1.6011;-1.9062;
2763092327598045;-6.5037;-0.2835;3.1316;
2763092337715545;-7.6753;1.9561;0.7935;
2763092347822889;-9.6802;1.1871;-2.7087;
2763092357930232;-9.4813;0.0326;-3.2931;
2763092368062107;-11.0695;-0.0607;-3.1998;
2763092378169451;-12.4205;0.0374;-0.2198;
2763092388276795;-9.9150;0.4902;2.2068;
2763092398384191;-8.6812;0.3823;-0.3108;
2763092408491534;-8.0249;-0.7172;-3.7244;
2763092418598878;-7.7423;-2.4108;-5.5666;
2763092428685024;-9.3401;-3.1822;-5.4562;
2763092438792368;-10.7175;-2.0300;-2.0234;
2763092448899712;-12.2001;-0.9879;3.8647;
2763092459012680;-11.2732;0.9165;4.4204;
2763092469120024;-9.9891;2.4951;-0.0999;
2763092479227368;-7.7399;1.0795;-0.9526;
2763092489342003;-6.9111;-0.3724;-0.8713;
2763092499449347;-7.3828;0.0494;-4.6609;
2763092509556691;-10.3268;0.6242;-9.3491;
2763092519664295;-12.5166;1.8245;-6.8647;
2763092529771639;-11.4817;0.7609;2.4176;
2763092539878982;-13.1967;-1.0262;6.5094;
2763092549985962;-12.1857;-0.3413;5.3928;
2763092560093305;-7.9170;0.1451;4.3845;
2763092570200649;-6.2186;0.1499;1.1001;
2763092580310128;-6.5683;0.3200;-4.8718;
2763092590417472;-7.8308;0.9476;-10.2975;
2763092600524816;-10.9642;1.3334;-12.1971;
2763092610645597;-14.1000;2.3922;-8.9704;
2763092620753357;-11.0647;1.7740;0.6834;
2763092630861066;-7.1192;-0.7005;7.6208;
2763092640950701;-8.1398;-1.2945;5.3833;
2763092651058409;-9.6251;0.8662;1.8069;
2763092661166170;-8.6046;2.5693;2.0512;
2763092671285545;-9.0455;2.3130;-0.6413;
2763092681393305;-12.1116;1.9896;-7.6866;
2763092691501014;-11.1679;2.9192;-9.6628;
2763092701602472;-8.3961;3.1035;-4.7521;
2763092711710180;-8.3363;2.7538;0.1062;
2763092721817941;-8.7700;2.0761;3.3449;
2763092731925701;-10.0947;2.1646;3.1077;
2763092742033409;-11.7858;2.6629;0.1540;
2763092752141170;-11.4912;2.7514;-3.3984;
2763092762257212;-10.7629;2.4999;-6.7283;
2763092772364920;-8.6883;2.1024;-5.9880;
2763092782472680;-6.5396;2.3659;-1.6522;
2763092792574868;-6.6691;1.4483;0.5204;
2763092802682628;-10.6122;0.7729;-1.5494;
2763092812790337;-13.4674;1.0149;-0.3275;
2763092822885076;-11.6013;1.7788;2.5711;
2763092832992784;-10.5185;0.8136;0.5037;
2763092843100545;-10.0059;-0.6957;-2.0692;
2763092853216534;-7.9699;-0.7890;-1.4342;
2763092863324243;-7.8117;-0.1065;-1.6857;
2763092873432003;-9.8815;-0.0272;-3.1926;
2763092883533930;-10.6217;0.1331;-2.2941;
2763092893641691;-10.0585;0.1355;-0.4642;
2763092903749399;-10.1354;-0.4442;-0.3084;
2763092913857212;-10.0274;-0.9185;-0.6365;
2763092923964920;-9.0072;-0.9712;-0.0975;
2763092934072680;-8.7915;-0.9832;-0.3132;
2763092944182576;-9.9389;-0.9185;-1.9493;
2763092954290284;-10.3005;-0.2955;-2.4739;
2763092964398045;-9.8169;0.0326;-1.7815;
2763092974505597;-9.7950;-0.0129;-1.6953;
2763092984613357;-9.6467;-0.0849;-1.5251;
2763092994721066;-9.1173;0.0278;-0.9311;
2763093004841118;-9.4502;0.2100;-1.3098;
2763093014948826;-10.0923;0.4516;-2.0474;
2763093025056587;-9.9365;0.7872;-2.0764;
2763093035150701;-9.6562;0.7561;-1.9493;
2763093045258409;-9.5940;0.7753;-1.9851;
2763093055366170;-9.4143;0.9236;-1.7985;
2763093065481639;-9.4262;1.1249;-1.5996;
2763093075589347;-9.6562;1.4818;-1.7886;
2763093085697107;-9.7496;1.6519;-2.0859;
2763093095795180;-9.6419;1.5320;-2.1338;
2763093105902889;-9.4286;1.6184;-2.4093;
2763093116010649;-9.3544;1.7309;-2.4835;
2763093126129972;-9.4621;1.8102;-2.3495;
2763093136237732;-9.5462;1.6950;-1.9421;
2763093146345441;-9.5868;1.4435;-1.7288;
2763093156440649;-9.5749;1.3454;-1.9325;
2763093166548409;-9.4167;1.4124;-2.2630;
2763093176656118;-9.3497;1.3478;-2.6177;
2763093186782368;-9.5195;1.3430;-2.6776;
2763093196890128;-9.6299;0.8255;-2.0836;
2763093206997837;-9.5510;0.6649;-2.2534;
2763093217082264;-9.4502;0.5812;-2.4428;
2763093227189972;-9.3712;0.7128;-2.4739;
2763093237297732;-9.4597;0.6386;-2.4356;
2763093247417524;-9.6467;0.5907;-2.2606;
2763093257525284;-9.5868;0.5166;-2.2223;
2763093267632993;-9.4765;0.2530;-2.4476;
2763093277723201;-9.4406;-0.0248;-2.6369;
2763093287830909;-9.4334;-0.2166;-2.5935;
2763093297938670;-9.4908;-0.4250;-2.3758;
2763093308076691;-9.5725;-0.5949;-2.1123;
2763093318184451;-9.5342;-0.7292;-1.8870;
2763093328292159;-9.4597;-0.2357;-2.2271;
2763093338396014;-9.4430;0.1044;-2.5768;
2763093348503722;-9.4334;0.1594;-2.5600;
2763093358611482;-9.4573;0.1834;-2.5863;
2763093368719034;-9.4813;0.1786;-2.5744;
2763093378826743;-9.4382;0.2530;-2.5337;
2763093388934503;-9.3999;0.2722;-2.4906;
2763093399021378;-9.3951;0.2818;-2.5744;
2763093409129087;-9.3449;0.4660;-2.7637;
2763093419236847;-9.3855;0.5668;-2.7302;
2763093429355076;-9.4478;0.5548;-2.5672;
2763093439462784;-9.4741;0.4950;-2.4715;
2763093449570545;-9.3951;0.5381;-2.5050;
2763093459678201;-9.3257;0.6147;-2.6656;
2763093469785909;-9.3544;0.5596;-2.7446;
2763093479893670;-9.4190;0.4974;-2.7517;
2763093490016743;-9.4478;0.5692;-2.5576;
2763093500124451;-9.4573;0.8207;-2.4715;
2763093510232212;-9.3975;1.1321;-2.5887;
2763093520323722;-9.3520;1.2709;-2.7374;
2763093530431430;-9.3688;1.1656;-2.8044;
2763093540539191;-9.4454;1.0555;-2.7757;
2763093550640284;-9.4645;1.0244;-2.7278;
2763093560747993;-9.4406;0.9835;-2.6489;
2763093570855753;-9.3808;0.8973;-2.5911;
2763093580974764;-9.3449;0.8997;-2.5457;
2763093591082472;-9.3879;1.0603;-2.4882;
2763093601190232;-9.4238;1.2350;-2.5481;
2763093611310597;-9.4502;1.4004;-2.6321;
2763093621418357;-9.4454;1.5248;-2.7541;
2763093631526066;-9.3760;1.5921;-2.9100;
2763093641604659;-9.3520;1.5634;-2.9794;
2763093651712368;-9.3760;1.4626;-2.8642;
2763093661820128;-9.3688;1.3502;-2.5744;
2763093671934347;-9.4119;1.1130;-2.3806;
2763093682042107;-9.5052;0.8662;-2.3686;
2763093692149816;-9.4621;0.7175;-2.4308;
2763093702259555;-9.4693;0.5261;-2.4500;
2763093712367316;-9.5342;0.3105;-2.2558;
2763093722475024;-9.4980;0.3320;-2.1553;
2763093732592159;-9.4238;0.4325;-2.1147;
2763093742699920;-9.3927;0.4711;-2.2439;
2763093752807628;-9.3975;0.5716;-2.3327;
2763093762903305;-9.4932;0.7080;-2.2750;
2763093773011066;-9.6036;0.8088;-2.2606;
2763093783118774;-9.5868;0.8997;-2.1505;
2763093793228722;-9.4669;0.9667;-2.2104;
2763093803336482;-9.3473;0.9165;-2.3710;
2763093813444191;-9.3353;0.8806;-2.5026;
2763093823545597;-9.4597;0.8447;-2.4835;
2763093833653357;-9.5940;0.8231;-2.3471;
2763093843761066;-9.6108;0.7223;-2.0931;
2763093853873514;-9.4717;0.6290;-2.0859;
2763093863981274;-9.4238;0.5668;-2.2223;
2763093874088982;-9.4573;0.6553;-2.2989;
2763093884221014;-9.5124;0.8566;-2.2917;
2763093894328774;-9.5653;0.9643;-2.2869;
2763093904436482;-9.6108;0.9165;-2.2152;
2763093914525389;-9.5195;0.7825;-2.0521;
2763093924633097;-9.4717;0.7104;-2.0306;
2763093934740857;-9.5773;0.6123;-2.1553;
2763093944846222;-9.6299;0.4950;-2.2822;
2763093954953982;-9.5797;0.4783;-2.2726;
2763093965061691;-9.5076;0.3918;-2.2869;
2763093975177576;-9.4980;0.2243;-2.3566;
2763093985285337;-9.5148;-0.0176;-2.3109;
2763093995393045;-9.5677;-0.1161;-2.2271;
2763094005501222;-9.6060;-0.1448;-2.1745;
2763094015608930;-9.5390;-0.1424;-2.1864;
2763094025716691;-9.4621;-0.1161;-2.2487;
2763094035814555;-9.4525;-0.0826;-2.3542;
2763094045922316;-9.4645;-0.0033;-2.4978;
2763094056030024;-9.4549;0.1666;-2.5552;
2763094066139034;-9.4693;0.2363;-2.4739;
2763094076246795;-9.4980;0.3009;-2.4260;
2763094086354503;-9.4502;0.3344;-2.3925;
2763094096462472;-9.4454;0.3870;-2.5289;
2763094106570232;-9.4765;0.4564;-2.6943;
2763094116677941;-9.4717;0.5716;-2.8307;
2763094126756222;-9.4621;0.5979;-2.6967;
2763094136863982;-9.4693;0.5142;-2.4045;
2763094146971691;-9.5510;0.5548;-2.3276;
2763094157091430;-9.5267;0.6458;-2.4763;
2763094167199191;-9.4262;0.7705;-2.6130;
2763094177306899;-9.3616;0.9284;-2.7900;
2763094187447941;-9.3520;1.0125;-2.8187;
2763094197555701;-9.3425;1.0747;-2.7111;
2763094207663409;-9.3879;1.1273;-2.5313;
2763094217750701;-9.4597;0.9117;-2.3423;
2763094227858409;-9.5315;0.5237;-2.2989;
2763094237966170;-9.5052;0.2195;-2.2606;
2763094248096222;-9.5148;0.0541;-2.1649;
2763094258203982;-9.5195;0.0135;-2.2247;
2763094268311691;-9.5124;-0.1783;-2.1840;
2763094278394868;-9.5052;-0.3389;-2.1745;
2763094288502576;-9.5076;-0.2548;-2.2343;
2763094298610337;-9.5315;-0.1878;-2.2223;
2763094308743097;-9.5629;-0.2716;-2.2056;
2763094318850857;-9.5124;-0.3867;-2.0644;
2763094328958566;-9.4860;-0.4896;-1.9516;
2763094339045180;-9.5172;-0.5255;-2.0883;
2763094349152941;-9.6084;-0.4322;-2.2415;
2763094359260649;-9.7208;-0.3218;-2.2391;
2763094369389451;-9.6132;-0.2644;-2.2534;
2763094379497212;-9.4932;-0.2883;-2.4428;
2763094389604920;-9.4908;-0.1926;-2.5863;
2763094399691847;-9.5438;-0.0272;-2.4141;
2763094409799607;-9.5342;-0.0368;-2.0593;
2763094419907316;-9.5701;-0.1663;-1.8894;
2763094430017784;-9.7065;-0.1831;-2.0426;
2763094440125545;-9.7208;0.0685;-2.2869;
2763094450233253;-9.5677;0.2148;-2.2798;
2763094460336014;-9.5004;0.0996;-2.1864;
2763094470443774;-9.5940;-0.0392;-2.0644;
2763094480551482;-9.7137;-0.1424;-1.8631;
2763094490661326;-9.6634;-0.1711;-1.6594;
2763094500769034;-9.5342;-0.0488;-1.7384;
2763094510876795;-9.4167;0.1427;-1.9804;
2763094520973722;-9.4167;0.2435;-2.2128;
2763094531081482;-9.5845;0.2602;-2.2271;
2763094541189191;-9.8097;0.2818;-2.0426;
2763094551295337;-9.7280;0.3081;-1.8775;
2763094561403045;-9.5219;0.3679;-1.9851;
2763094571510805;-9.3760;0.5501;-2.2415;
2763094581628097;-9.4454;0.7271;-2.3566;
2763094591735857;-9.7902;0.8614;-2.0812;
2763094601843566;-9.8145;0.7825;-1.5781;
2763094611952159;-9.6347;0.5572;-1.3600;
2763094622059920;-9.5701;0.5668;-1.4366;
2763094632167628;-9.5315;0.8040;-1.5156;
2763094642333305;-9.6108;0.9380;-1.6834;
2763094652441066;-9.6826;1.1512;-1.8631;
2763094662548774;-9.5195;1.4435;-1.8918;
2763094672595701;-9.3520;1.4411;-1.4773;
2763094682703409;-9.5581;1.0340;-0.6389;
2763094692811170;-9.8025;0.5142;0.1469;
2763094702916430;-9.6658;0.3296;0.2258;
2763094713024139;-9.7496;0.5453;-0.5695;
2763094723131899;-10.4061;0.8806;-1.5470;
2763094733246222;-10.3149;1.2808;-2.1625;
2763094743353982;-9.2369;1.6926;-3.1472;
2763094753461691;-8.6501;1.7166;-3.8991;
2763094763554764;-8.9782;2.0399;-4.2347;
2763094773662524;-9.3473;1.8508;-3.0368;
2763094783770232;-9.7639;1.0101;-1.4605;
2763094793894555;-9.9413;0.3799;-0.5432;
2763094804002264;-9.9676;0.0206;-0.5025;
2763094814110024;-9.3784;-0.1089;-0.6341;
2763094824215493;-8.3865;-0.5375;-0.7155;
2763094834323253;-8.1494;-0.7651;-1.7025;
2763094844430962;-8.8729;-0.2500;-3.0631;
2763094854539243;-10.2239;-0.2644;-2.4619;
2763094864647003;-11.3761;-0.5183;-0.5360;
2763094874754712;-10.6146;-1.5006;0.6165;
2763094884864451;-9.8767;-1.9798;-0.3730;
2763094894972212;-10.1880;-1.1363;-2.0258;
2763094905079920;-9.9509;0.1187;-1.5422;
2763094915183930;-8.7242;-0.7484;-0.7178;
2763094925291691;-8.7171;-1.2299;-2.0545;
2763094935399399;-9.5892;-0.5112;-4.0023;
2763094945502576;-9.8312;0.1379;-5.1688;
2763094955610337;-9.3473;1.1680;-4.9579;
2763094965718045;-6.9757;2.3970;-4.0119;
2763094975815493;-7.0881;2.0638;-2.3830;
2763094985923253;-10.8180;1.5129;-1.4749;
2763094996030962;-11.2732;2.8161;-0.6891;
2763095006152889;-9.9174;2.9049;-2.1673;
2763095016260649;-9.2345;2.2460;-4.4692;
2763095026368357;-9.1723;2.7634;-4.8885;
2763095036459868;-9.0120;3.1851;-4.3950;
2763095046567576;-8.7509;2.0064;-3.8417;
2763095056675337;-8.7748;0.9452;-3.9302;
2763095066800337;-8.7628;1.0699;-3.5710;
2763095076908097;-8.5950;1.5491;-3.5471;
2763095087015805;-9.4645;0.7128;-4.2179;
2763095097113826;-10.2455;0.1475;-4.5820;
2763095107221587;-9.6802;0.3511;-3.8704;
2763095117329295;-8.5376;0.2626;-3.1735;
2763095127446951;-8.1661;0.1738;-3.1783;
2763095137554712;-8.7532;0.2674;-3.4848;
2763095147662420;-9.5557;0.5835;-3.7795;
2763095157783097;-10.1617;0.9763;-3.8417;
2763095167890857;-9.5892;0.9571;-3.4155;
2763095177998566;-8.4129;0.5572;-3.7196;
2763095188085805;-8.4921;0.1834;-4.6418;
2763095198193514;-9.1220;0.2674;-5.4849;
2763095208301274;-8.7700;0.6529;-5.3318;
2763095218425284;-8.4583;0.7223;-4.6801;
2763095228532993;-9.1005;0.4612;-4.0932;
2763095238640753;-9.8791;0.1403;-3.9640;
2763095248727680;-9.3760;-0.0583;-3.9808;
2763095258835389;-8.0728;-0.0583;-3.8680;
2763095268943149;-7.6968;-0.1208;-4.1267;
2763095279047889;-8.4105;-0.0296;-4.3567;
2763095289155649;-8.9016;0.2865;-4.4719;
2763095299263357;-9.0144;0.6338;-4.9627;
2763095309380701;-9.5414;1.1967;-5.6623;
2763095319488409;-9.4813;1.6065;-5.6240;
2763095329596170;-8.6166;0.6170;-4.3519;
2763095339701534;-8.3411;1.1249;-4.9436;
2763095349809295;-8.7413;1.3621;-4.5604;
2763095359917003;-9.0790;1.1919;-4.3639;
2763095370036639;-9.2178;1.2398;-4.6274;
2763095380144347;-9.2225;1.2422;-4.8287;
2763095390252107;-9.1699;1.0603;-4.9603;
2763095400361743;-9.0335;1.1321;-5.2573;
2763095410469503;-8.8274;0.9547;-5.3342;
2763095420577212;-8.8896;0.9356;-5.4921;
2763095430676222;-8.9901;1.1417;-5.2959;
2763095440783982;-8.9064;1.4219;-5.0635;
2763095450891691;-8.8561;1.5395;-4.8215;
2763095461000076;-8.8442;1.8365;-4.5748;
2763095471107837;-8.5807;2.1861;-4.4477;
2763095481215545;-8.6022;2.4808;-4.3639;
2763095491331326;-8.8872;3.0197;-4.3304;
2763095501439087;-8.8274;3.4654;-4.3256;
2763095511546795;-8.8155;3.5611;-4.3759;
2763095521638045;-8.9423;3.5420;-4.2706;
2763095531745805;-8.9112;3.3981;-4.0908;
2763095541853514;-8.9566;3.3981;-4.1243;
2763095551953305;-8.9925;3.7289;-4.3065;
2763095562061014;-8.9423;3.7528;-4.2156;
2763095572168722;-8.9303;3.3407;-3.9377;
2763095582292784;-9.1627;2.6151;-3.5160;
2763095592400545;-9.2946;2.2412;-3.0416;
2763095602508253;-9.2608;1.5730;-2.7709;
2763095612604712;-9.2225;0.7657;-2.4236;
2763095622712472;-9.0144;0.1690;-1.9923;
2763095632820180;-9.0861;-0.3290;-1.8703;
2763095642946118;-9.3592;-0.7149;-1.7480;
2763095653053878;-9.5219;-1.0262;-1.6092;
2763095663161587;-9.6132;-1.9678;-1.1755;
2763095673256951;-9.6036;-2.2146;-0.9766;
2763095683364659;-9.6227;-2.0635;-1.0367;
2763095693472420;-9.6084;-1.9869;-1.2281;
2763095703576534;-9.4980;-2.0180;-1.3528;
2763095713684243;-9.5605;-1.9149;-1.5781;
2763095723792003;-9.7496;-1.0765;-2.0740;
2763095733913722;-9.7256;-1.0406;-1.9421;
2763095744021430;-9.5052;-0.9568;-1.6116;
2763095754129191;-9.5172;-0.9162;-1.5494;
2763095764236639;-9.6658;-0.8034;-1.5156;
2763095774344399;-9.6491;-0.6526;-1.6068;
2763095784452107;-9.5916;-0.5806;-1.7527;
2763095794548045;-9.5291;-0.4944;-1.7145;
2763095804655753;-9.4597;-0.3820;-1.5852;
2763095814763514;-9.4693;-0.2142;-1.5374;
2763095824876118;-9.5219;0.0135;-1.5470;
2763095834983826;-9.5557;0.4660;-1.7264;
2763095845091587;-9.4860;0.8710;-1.8344;
2763095855193045;-9.3592;0.9404;-1.7480;
2763095865300805;-9.3377;1.3119;-1.8775;
2763095875408514;-9.3544;1.7213;-2.1697;
2763095885519295;-9.2803;1.8485;-2.3686;
2763095895627003;-9.2249;2.1263;-2.7206;
2763095905734764;-9.2393;2.1359;-2.9148;
2763095915833878;-9.2417;2.3970;-3.1759;
2763095925941639;-9.1555;2.4497;-3.3434;
2763095936049347;-9.0981;2.7012;-3.5303;
2763095946164347;-9.1460;2.5573;-3.4944;
2763095956272107;-9.2225;2.7371;-3.5542;
2763095966379816;-9.2178;2.3898;-3.3673;
2763095976469659;-8.9614;1.9705;-3.2524;
2763095986577368;-8.9495;2.1383;-3.5590;
2763095996685128;-9.1843;1.5129;-3.3147;
2763096006793514;-9.0646;1.3358;-3.1519;
2763096016901274;-9.0742;1.3334;-3.3458;
2763096027008982;-9.0000;1.3717;-3.5495;
2763096037121222;-8.8490;1.2422;-3.6308;
2763096047228982;-8.8872;0.9811;-3.5303;
2763096057336691;-9.0718;1.0842;-3.6595;
2763096067444034;-9.1986;1.1249;-3.7771;
2763096077551795;-9.0144;1.1393;-3.6885;
2763096087659503;-8.8944;1.0460;-3.8656;
2763096097797784;-8.9447;0.9523;-4.0908;
2763096107905545;-8.9399;1.0292;-4.2682;
2763096118013253;-8.9830;1.1584;-4.3759;
2763096128122993;-9.1005;1.4722;-4.4620;
2763096138230753;-9.0814;1.7094;-4.2538;
2763096148338462;-9.0024;1.8078;-4.3089;
2763096158425024;-9.0191;1.7692;-4.2730;
2763096168532784;-9.1077;2.0785;-4.6633;
2763096178640493;-9.1627;2.2005;-4.7040;
2763096188751222;-9.1603;2.5932;-4.8072;
2763096198858982;-9.1196;3.2641;-5.1927;
2763096208966691;-9.0120;3.8557;-5.3964;
2763096219072628;-9.0550;3.3479;-5.0300;
2763096229180337;-9.2034;2.2412;-3.7555;
2763096239288097;-9.3544;2.1359;-4.1411;
2763096249392993;-9.1627;2.0566;-4.0334;
2763096259500701;-9.0383;1.7907;-3.7172;
2763096269608462;-9.1675;1.4889;-3.6766;
2763096279715805;-9.2465;1.4387;-3.5351;
2763096289823566;-9.2707;1.4770;-3.3147;
2763096299931274;-9.2683;1.4435;-3.2524;
2763096310041118;-9.2321;1.3836;-3.1878;
2763096320148878;-9.1819;1.2855;-3.1543;
2763096330256587;-9.2345;1.0675;-3.1448;
2763096340360128;-9.3497;0.8399;-3.1134;
2763096350467837;-9.3138;0.8088;-3.0248;
2763096360575597;-9.2154;0.8423;-2.9602;
2763096370698722;-9.2225;0.8686;-2.9076;
2763096380806430;-9.2827;0.8279;-2.8140;
2763096390914191;-9.3162;0.6888;-2.7159;
2763096401013982;-9.3497;0.5524;-2.6776;
2763096411121691;-9.3568;0.4831;-2.8092;
2763096421229451;-9.3018;0.5668;-2.9530;
2763096431334712;-9.2632;0.6505;-2.9889;
2763096441442472;-9.2779;0.6697;-2.9219;
2763096451550180;-9.3257;0.6051;-2.7900;
2763096461656378;-9.3305;0.4998;-2.7087;
2763096471764139;-9.3066;0.4612;-2.7135;
2763096481871847;-9.3114;0.6051;-2.8669;
2763096491988409;-9.2707;0.7968;-3.0870;
2763096502096170;-9.2874;0.8782;-3.1519;
2763096512203878;-9.3185;0.7681;-3.1352;
2763096522367576;-9.3353;0.6936;-3.0655;
2763096532475337;-9.3042;0.8518;-3.0823;
2763096542583045;-9.2465;0.9739;-3.1229;
2763096552615389;-9.2850;0.8351;-2.9435;
2763096562723097;-9.3353;0.5907;-2.8693;
2763096572830805;-9.3425;0.5931;-2.9722;
2763096582951534;-9.3018;0.4902;-2.8717;
2763096593059295;-9.2874;0.2722;-2.7135;
2763096603167003;-9.3281;0.3081;-2.7685;
2763096613266534;-9.2994;0.3296;-2.7111;
2763096623374295;-9.3018;0.0111;-2.3925;
2763096633482003;-9.3832;-0.4083;-2.2415;
2763096643626014;-9.3592;-0.5830;-2.2439;
2763096653733774;-9.2441;-0.6287;-2.1840;
2763096663841482;-9.2803;-0.7268;-2.1266;
2763096673924972;-9.3449;-0.7268;-2.2175;
2763096684032680;-9.3305;-0.2285;-2.7733;
2763096694140441;-9.2513;-0.2189;-2.6560;
2763096704246482;-9.2898;-0.1759;-2.7135;
2763096714354191;-9.3688;0.0948;-2.8642;
2763096724461951;-9.3185;0.2195;-2.8618;
2763096734560180;-9.3185;0.0948;-2.9291;
2763096744667889;-9.3592;-0.1854;-2.9315;
2763096754775649;-9.3760;-0.5088;-2.6034;
2763096764885701;-9.4190;-0.5064;-2.5792;
2763096774993409;-9.3784;-0.4442;-2.5289;
2763096785101170;-9.3305;-0.3580;-2.4523;
2763096795208826;-9.4119;-0.3748;-2.3758;
2763096805316587;-9.4621;-0.3580;-2.3228;
2763096815424295;-9.4454;-0.2859;-2.4069;
2763096825529972;-9.3832;-0.1687;-2.5265;
2763096835637732;-9.3616;-0.0464;-2.6680;
2763096845745441;-9.3927;0.0613;-2.7087;
2763096855857889;-9.4071;0.1164;-2.6177;
2763096865965649;-9.4095;0.1690;-2.5744;
2763096876073357;-9.4286;0.2530;-2.5241;
2763096886187993;-9.4262;0.3464;-2.5313;
2763096896295753;-9.4047;0.4062;-2.6034;
2763096906403462;-9.3999;0.4711;-2.6967;
2763096916504920;-9.4190;0.5859;-2.7111;
2763096926612628;-9.4262;0.6338;-2.6704;
2763096936720389;-9.4549;0.6529;-2.6847;
2763096946838826;-9.4502;0.7513;-2.7159;
2763096956946587;-9.3999;0.8327;-2.7063;
2763096967054295;-9.3808;0.8566;-2.7254;
2763096977162837;-9.4310;0.9093;-2.7350;
2763096987270597;-9.4286;0.9404;-2.7565;
2763096997378305;-9.4286;0.8973;-2.7757;
2763097007449347;-9.4334;0.8279;-2.7685;
2763097017557107;-9.4095;0.7968;-2.7230;
2763097027664816;-9.4167;0.7681;-2.6297;
2763097037793409;-9.4502;0.6817;-2.5863;
2763097047901118;-9.4190;0.6147;-2.5504;
2763097058008878;-9.3879;0.6099;-2.6106;
2763097068136222;-9.4430;0.6817;-2.7087;
2763097078243982;-9.4262;0.8542;-2.8884;
2763097088351691;-9.3712;0.8327;-2.8908;
2763097098447941;-9.3497;0.7466;-2.8693;
2763097108555701;-9.3544;0.6601;-2.9028;
2763097118663409;-9.3616;0.6840;-2.7781;
2763097128781014;-9.3855;0.6649;-2.7230;
2763097138888722;-9.4143;0.5812;-2.7517;
2763097148996482;-9.3832;0.4397;-2.8187;
2763097159080597;-9.3473;0.3440;-2.9746;
2763097169188357;-9.3185;0.3631;-2.9841;
2763097179296066;-9.3568;0.4205;-2.8594;
2763097189412628;-9.4190;0.4469;-2.7182;
2763097199520389;-9.3808;0.4373;-2.6441;
2763097209628097;-9.3640;0.4181;-2.7111;
2763097219733409;-9.3449;0.4469;-2.8355;
2763097229841170;-9.3951;0.5405;-2.9339;
2763097239948878;-9.4430;0.5213;-2.9435;
2763097250061743;-9.4143;0.4014;-2.8331;
2763097260169503;-9.3568;0.2937;-2.6943;
2763097270277212;-9.3664;0.1786;-2.5672;
2763097280382264;-9.3975;0.0829;-2.4978;
2763097290490024;-9.4573;-0.0033;-2.4308;
2763097300597732;-9.4334;-0.1615;-2.4691;
2763097310711326;-9.4789;0.0972;-3.1639;
2763097320819087;-9.1986;0.6482;-3.5925;
2763097330926795;-9.2731;0.6649;-3.0344;
2763097341028409;-9.3401;0.4854;-1.9899;
2763097351136118;-9.4095;0.4469;-1.8296;
2763097361243878;-9.3736;0.2674;-2.1577;
2763097371366639;-9.4334;0.0326;-2.8092;
2763097381474399;-9.5414;-0.2237;-3.1567;
2763097391582107;-9.4645;-0.2859;-3.0631;
2763097401675545;-9.3497;-0.1256;-2.8546;
2763097411783305;-9.3975;0.0852;-2.3662;
2763097421891014;-9.4813;0.1881;-1.8511;
2763097431995284;-9.5172;0.1810;-1.7384;
