Sensor: bmi160 Gyroscope Non-wakeup
Vendor: BOSCH
TimestampGyro [ns]; GyroX [rad/s]; GyroY [rad/s]; GyroZ [rad/s]
2763086788649712;-0.1437;0.0383;0.0663;
2763086798766482;-0.1447;0.0405;0.0652;
2763086808868305;-0.1437;0.0490;0.0589;
2763086818977003;-0.1394;0.0607;0.0546;
2763086829068045;-0.1437;0.0607;0.0525;
2763086839162889;-0.1682;0.0447;0.0493;
2763086849290753;-0.2065;0.0245;0.0482;
2763086859406274;-0.2534;0.0128;0.0397;
2763086869475441;-0.2928;0.0170;0.0365;
2763086879610701;-0.2939;0.0309;0.0258;
2763086889712784;-0.2704;0.0501;0.0067;
2763086899835545;-0.2459;0.0607;-0.0051;
2763086909922993;-0.2289;0.0565;-0.0051;
2763086920030024;-0.2268;0.0288;0.0003;
2763086930139764;-0.2278;-0.0011;0.0035;
2763086940242420;-0.2055;-0.0107;0.0024;
2763086950360076;-0.1575;-0.0011;-0.0008;
2763086960459295;-0.1043;0.0117;-0.0072;
2763086970567472;-0.0553;0.0213;-0.0136;
2763086980676170;-0.0126;0.0266;-0.0157;
2763086990780232;0.0182;0.0266;-0.0146;
2763087000892159;0.0310;0.0128;-0.0136;
2763087010999139;0.0353;0.0011;-0.0104;
2763087021101899;0.0406;-0.0032;-0.0093;
2763087031211482;0.0353;-0.0064;-0.0104;
2763087041321743;0.0342;-0.0085;-0.0115;
2763087051421743;0.0364;-0.0032;-0.0157;
2763087061535545;0.0374;0.0043;-0.0168;
2763087071643305;0.0364;0.0053;-0.0189;
2763087081747055;0.0321;0.0064;-0.0221;
2763087091861743;0.0278;0.0043;-0.0232;
2763087101966639;0.0289;-0.0021;-0.0232;
2763087112075493;0.0268;-0.0085;-0.0221;
2763087122203409;0.0268;-0.0170;-0.0242;
2763087132292889;0.0268;-0.0192;-0.0253;
2763087142394139;0.0300;-0.0149;-0.0274;
2763087152496639;0.0321;-0.0107;-0.0285;
2763087162613982;0.0268;-0.0064;-0.0285;
2763087172722732;0.0129;-0.0043;-0.0296;
2763087182822212;-0.0137;-0.0043;-0.0296;
2763087192929399;-0.0499;-0.0075;-0.0264;
2763087203048618;-0.0851;-0.0075;-0.0178;
2763087213144972;-0.1149;-0.0011;-0.0040;
2763087223253566;-0.1426;0.0064;0.0120;
2763087233371170;-0.1586;0.0170;0.0312;
2763087243473878;-0.1650;0.0277;0.0525;
2763087253580180;-0.1703;0.0362;0.0791;
2763087263686274;-0.1778;0.0447;0.1079;
2763087273799764;-0.1799;0.0511;0.1345;
2763087283917107;-0.1735;0.0618;0.1643;
2763087294009087;-0.1565;0.0724;0.1951;
2763087304117732;-0.1341;0.0820;0.2281;
2763087314221482;-0.1138;0.0916;0.2590;
2763087324356014;-0.1021;0.1012;0.2867;
2763087334440857;-0.0968;0.1055;0.3133;
2763087344548514;-0.0925;0.1065;0.3346;
2763087354650909;-0.0798;0.1108;0.3538;
2763087364762680;-0.0585;0.1172;0.3708;
2763087374879034;-0.0595;0.1214;0.3847;
2763087384982784;-0.0648;0.1236;0.3932;
2763087395085753;-0.0659;0.1268;0.4028;
2763087405200597;-0.0712;0.1225;0.4071;
2763087415303409;-0.0734;0.1246;0.4071;
2763087425412003;-0.0659;0.1257;0.4060;
2763087435514191;-0.0595;0.1225;0.4028;
2763087445621274;-0.0585;0.1182;0.3911;
2763087455756847;-0.0563;0.1129;0.3772;
2763087465833357;-0.0521;0.1055;0.3612;
2763087475941170;-0.0329;0.0980;0.3495;
2763087486048930;0.0065;0.0905;0.3399;
2763087496162003;0.0630;0.0831;0.3293;
2763087506286951;0.1172;0.0703;0.3165;
2763087516404451;0.1715;0.0565;0.3027;
2763087526466847;0.2290;0.0533;0.2909;
2763087536574868;0.2929;0.0565;0.2803;
2763087546698722;0.3558;0.0575;0.2750;
2763087556804191;0.3995;0.0586;0.2675;
2763087566927837;0.3973;0.0565;0.2579;
2763087577024191;0.2993;0.0405;0.2494;
2763087587111795;0.1630;0.0277;0.2419;
2763087597241170;0.1118;0.0362;0.2292;
2763087607374347;0.0875;0.0511;0.2174;
2763087617477993;-0.0276;0.0447;0.2068;
2763087627559503;-0.1650;0.0373;0.1983;
2763087637655962;-0.2523;0.0341;0.1972;
2763087647783305;-0.2779;0.0330;0.2004;
2763087657897316;-0.2608;0.0309;0.2089;
2763087667988722;-0.2332;0.0266;0.2164;
2763087678093774;-0.2214;0.0245;0.2228;
2763087688203045;-0.2033;0.0288;0.2281;
2763087698331482;-0.1628;0.0586;0.2164;
2763087708449607;-0.1362;0.0959;0.1972;
2763087718544503;-0.1778;0.1044;0.1919;
2763087728633253;-0.2545;0.0778;0.2015;
2763087738736378;-0.2960;0.0597;0.1908;
2763087748847628;-0.3141;0.0671;0.1802;
2763087758955545;-0.3152;0.0788;0.1887;
2763087769067264;-0.3301;0.1108;0.1738;
2763087779169972;-0.3652;0.1406;0.1558;
2763087789279816;-0.4664;0.0852;0.1695;
2763087799388982;-0.5558;-0.0096;0.1940;
2763087809495649;-0.5016;-0.0107;0.1855;
2763087819604087;-0.4036;0.0479;0.1748;
2763087829709972;-0.4132;0.0682;0.1940;
2763087839816274;-0.4430;0.0810;0.2153;
2763087849935180;-0.4505;0.0873;0.2313;
2763087860052837;-0.4494;0.1012;0.2313;
2763087870156066;-0.4004;0.1554;0.2238;
2763087880258462;-0.3397;0.1746;0.2334;
2763087890360909;-0.2662;0.1108;0.2920;
2763087900463357;-0.1138;0.0362;0.3527;
2763087910565753;0.1108;0.0341;0.3879;
2763087920668201;0.2429;0.0543;0.4262;
2763087930791691;0.2706;0.0597;0.4592;
2763087940894139;0.2099;0.0873;0.4646;
2763087950996534;0.0640;0.1300;0.4475;
2763087961111482;-0.1352;0.1214;0.4401;
2763087971213878;-0.3120;0.0969;0.4518;
2763087981316326;-0.4004;0.1310;0.4646;
2763087991433774;-0.5398;0.1321;0.4678;
2763088001536170;-0.6644;0.0916;0.4571;
2763088011638618;-0.7294;0.0810;0.4294;
2763088021752837;-0.7944;0.1065;0.4188;
2763088031855232;-0.8327;0.1055;0.4241;
2763088041957680;-0.8296;0.1065;0.4262;
2763088052080024;-0.8562;0.0991;0.4230;
2763088062182472;-0.8690;0.0522;0.4156;
2763088072284868;-0.8988;0.0181;0.3783;
2763088082411951;-0.9478;0.0586;0.3357;
2763088092514347;-0.9648;0.0905;0.3186;
2763088102616795;-1.0106;0.0714;0.3080;
2763088112723618;-1.0628;0.0565;0.2792;
2763088122826066;-1.1554;0.0916;0.2387;
2763088132928462;-1.2012;0.0778;0.2079;
2763088143049295;-1.2299;0.0245;0.1887;
2763088153151691;-1.2694;0.0469;0.1547;
2763088163254191;-1.2917;0.0778;0.1132;
2763088173368566;-1.2470;-0.0032;0.0908;
2763088183470962;-1.1841;-0.0810;0.0908;
2763088193573409;-1.1746;-0.0298;0.0695;
2763088203707316;-1.1809;0.0607;0.0344;
2763088213809712;-1.1298;0.1246;0.0141;
2763088223912159;-1.0096;0.0746;-0.0061;
2763088234018514;-0.8168;-0.0128;-0.0115;
2763088244120909;-0.7475;-0.0032;-0.0104;
2763088254223357;-0.6847;0.0511;-0.0093;
2763088264337732;-0.5068;0.0597;-0.0125;
2763088274440180;-0.3162;0.0202;-0.0040;
2763088284542576;-0.1937;0.0245;0.0035;
2763088294663774;-0.1490;0.1150;0.0024;
2763088304766222;-0.1692;0.0362;-0.0040;
2763088314868618;-0.1479;-0.1491;0.0269;
2763088324986795;-0.1458;-0.0799;0.0450;
2763088335089243;-0.1607;0.0543;0.0226;
2763088345191639;-0.1362;0.0181;-0.0040;
2763088355307316;-0.1479;-0.1012;-0.0040;
2763088365409764;-0.1618;-0.0597;0.0077;
2763088375512159;-0.2118;0.1140;0.0003;
2763088385636899;-0.2864;0.0842;-0.0040;
2763088395739347;-0.2012;0.0149;-0.0019;
2763088405841743;-0.1373;0.0756;-0.0115;
2763088415943253;-0.1714;0.0778;-0.0402;
2763088426045701;-0.1405;0.0618;-0.0754;
2763088436148097;-0.1075;-0.0373;-0.0807;
2763088446316066;-0.1330;-0.1385;-0.0775;
2763088456418514;-0.1746;-0.0501;-0.0977;
2763088466520909;-0.1660;0.1449;-0.0818;
2763088476581795;-0.0840;0.2640;-0.0722;
2763088486684243;0.0268;0.1756;-0.1020;
2763088496786691;0.1672;-0.0383;-0.1542;
2763088506965857;0.3707;-0.1118;-0.1776;
2763088517068305;0.5635;-0.1161;-0.1478;
2763088527170753;0.6423;-0.0320;-0.1489;
2763088537250337;0.2802;0.0213;-0.1190;
2763088547352732;0.0843;-0.0096;-0.1691;
2763088557455180;0.4016;0.1129;-0.1947;
2763088567563982;0.6370;0.1533;-0.2043;
2763088577666430;0.6945;0.0075;-0.2394;
2763088587768826;0.7690;0.0778;-0.2852;
2763088597889191;0.5848;0.2140;-0.2394;
2763088607991639;0.1832;0.1150;-0.1904;
2763088618094034;0.1491;0.1023;-0.2106;
2763088628222524;0.3217;0.2097;-0.2277;
2763088638324920;0.4900;0.1417;-0.2320;
2763088648427368;0.5390;-0.0181;-0.1840;
2763088658562472;0.4442;-0.0330;-0.1190;
2763088668664972;0.3803;0.0192;-0.1105;
2763088678767368;0.1577;0.0522;-0.1574;
2763088688857628;-0.0755;0.0511;-0.1851;
2763088698960076;-0.2129;0.0458;-0.2106;
2763088709062472;-0.4377;-0.0969;-0.1904;
2763088719176482;-0.5505;-0.3920;-0.1606;
2763088729278878;-0.3418;-0.2354;-0.1510;
2763088739381326;-0.2790;0.1204;-0.0786;
2763088749503566;-0.4941;0.2545;-0.0764;
2763088759605962;-0.5270;0.2161;-0.0700;
2763088769708409;-0.3993;0.1735;-0.0051;
2763088779822941;-0.3226;0.1746;0.0610;
2763088789925389;-0.2640;0.1438;0.0791;
2763088800027784;-0.3865;0.0980;0.1196;
2763088810150701;-0.5750;-0.1172;0.1185;
2763088820253149;-0.5718;-0.2429;0.0983;
2763088830355545;-0.4515;-0.1065;0.1441;
2763088840473982;-0.2704;-0.0554;0.2068;
2763088850576430;-0.1213;-0.0618;0.2281;
2763088860678826;-0.0638;0.0682;0.2569;
2763088870815128;-0.0840;0.0501;0.2846;
2763088880921795;-0.1692;0.0341;0.2718;
2763088891028409;-0.2182;0.0096;0.2398;
2763088901120753;-0.3290;-0.0884;0.2228;
2763088911227420;-0.3173;-0.0479;0.1908;
2763088921334034;-0.2832;-0.0320;0.2100;
2763088931449607;-0.2566;-0.0149;0.2441;
2763088941556274;-0.1330;0.1607;0.2196;
2763088951662889;-0.1234;0.2289;0.1929;
2763088961750962;-0.0680;0.3535;0.1929;
2763088971857628;0.0023;0.5048;0.2196;
2763088981964243;-0.0521;0.0213;0.1993;
2763088992089503;-0.4196;-0.5431;0.0535;
2763089002196170;-0.6943;-0.4579;-0.0168;
2763089012302784;-0.4387;0.0021;0.1057;
2763089022411066;0.1843;0.1438;0.1897;
2763089032517732;0.3931;0.1724;0.1302;
2763089042624347;0.2557;0.1863;0.0780;
2763089052728670;0.0598;0.0192;0.0237;
2763089062835337;-0.0915;-0.1108;0.0418;
2763089072941951;-0.0254;-0.0277;0.0674;
2763089083060441;0.0630;0.0735;0.0333;
2763089093167107;0.0119;0.0085;0.0194;
2763089103273722;-0.0872;-0.1044;0.0269;
2763089113383670;-0.0723;-0.0735;0.0557;
2763089123490337;-0.0190;-0.0415;0.0844;
2763089133596951;-0.0542;-0.0778;-0.0061;
2763089143709712;0.0459;0.0245;-0.0051;
2763089153816378;0.1342;0.1788;-0.0061;
2763089163922993;0.2961;0.4952;-0.0157;
2763089174030857;0.0033;0.3184;-0.0136;
2763089184137524;-0.2502;-0.0991;-0.0509;
2763089194244139;-0.1043;0.0202;-0.1393;
2763089204383149;0.0150;0.2577;-0.1531;
2763089214489816;-0.0766;0.0682;-0.1553;
2763089224596430;-0.1671;-0.1001;-0.1979;
2763089234688566;-0.0095;0.1246;-0.2138;
2763089244795232;0.1470;0.3418;-0.1968;
2763089254901847;0.0364;0.0788;-0.2011;
2763089265000441;0.0470;0.1150;-0.2511;
2763089275107107;0.2205;0.2800;-0.2490;
2763089285213722;0.3931;0.3844;-0.2458;
2763089295321482;0.5124;0.2385;-0.2373;
2763089305428149;0.4953;-0.1055;-0.2256;
2763089315534764;0.6849;-0.1214;-0.2437;
2763089325636482;0.9959;0.0948;-0.2352;
2763089335743149;1.2590;0.3397;-0.2064;
2763089345849764;1.4261;0.2917;-0.2043;
2763089355953045;1.5060;-0.2354;-0.1297;
2763089366059712;1.5177;-0.2834;-0.0509;
2763089376166326;1.3504;0.1873;-0.0477;
2763089386342524;1.2036;-0.0394;-0.0477;
2763089396449191;0.9128;-0.1481;-0.1063;
2763089406555805;0.6264;0.1012;-0.1158;
2763089416616274;0.3302;0.1140;-0.0658;
2763089426722941;0.0640;0.0703;-0.0903;
2763089436829555;-0.2779;0.0639;-0.1627;
2763089446976170;-0.5174;0.0522;-0.2330;
2763089457082837;-0.6794;0.0181;-0.2884;
2763089467189451;-0.9467;-0.3451;-0.2884;
2763089477258045;-1.0064;-0.2684;-0.2756;
2763089487364712;-0.7443;-0.0128;-0.2991;
2763089497471326;-0.7486;-0.0053;-0.2767;
2763089507571743;-0.7560;-0.0085;-0.3001;
2763089517678409;-0.6580;0.2225;-0.2884;
2763089527785024;-0.4803;0.3354;-0.2394;
2763089537897941;-0.5057;0.2811;-0.1542;
2763089548004607;-0.5164;0.2108;-0.1585;
2763089558111222;-0.5110;0.1065;-0.1585;
2763089568213045;-0.3834;0.1055;-0.0967;
2763089578319712;-0.3109;0.0639;-0.0296;
2763089588426326;-0.3322;-0.1097;-0.0519;
2763089598563982;-0.1724;-0.0980;-0.0466;
2763089608670649;-0.0308;-0.0213;0.0162;
2763089618777264;-0.0435;-0.0277;0.0386;
2763089628880753;-0.0457;-0.1257;0.0194;
2763089638987420;0.0704;-0.0224;0.0269;
2763089649094034;0.2642;0.2363;0.0322;
2763089659207107;0.1459;0.1543;0.0812;
2763089669313774;-0.0222;0.0075;0.0418;
2763089679420389;-0.0201;0.1033;-0.0189;
2763089689517003;-0.0382;0.1033;-0.0146;
2763089699623670;-0.0787;0.0160;-0.0242;
2763089709730284;-0.0819;-0.0490;-0.0530;
2763089719842003;-0.0052;0.0362;-0.0573;
2763089729948670;0.0960;0.1374;-0.0498;
2763089740055284;0.1619;0.0383;-0.0935;
2763089750160857;0.1960;0.0554;-0.0913;
2763089760267524;0.3345;0.1810;-0.1031;
2763089770374139;0.4144;0.1565;-0.0850;
2763089780482212;0.4431;0.0586;-0.1308;
2763089790588878;0.4080;-0.0149;-0.1052;
2763089800695493;0.3963;-0.0415;-0.1393;
2763089810805962;0.4282;-0.1268;-0.1308;
2763089820912628;0.5284;-0.1715;-0.1318;
2763089831019243;0.6860;-0.1140;-0.1137;
2763089841126378;0.9522;-0.1449;-0.0913;
2763089851233045;1.1663;-0.1129;-0.0551;
2763089861339659;1.3536;-0.0021;0.0258;
2763089871479816;1.4761;0.0724;0.0770;
2763089881587316;1.4570;-0.0032;0.0876;
2763089891694816;1.3611;-0.1044;0.1356;
2763089901772837;1.3101;-0.0671;0.1398;
2763089911880337;1.2973;-0.0756;0.1727;
2763089921987837;1.2483;-0.0607;0.1919;
2763089932094347;1.1972;-0.0756;0.1983;
2763089942201847;1.0662;-0.1864;0.2015;
2763089952309347;1.0118;-0.0916;0.2174;
2763089962423201;1.0576;0.0138;0.1802;
2763089972530701;0.9362;0.0320;0.2228;
2763089982638201;0.7817;0.0341;0.1770;
2763089992739712;0.6146;0.0053;0.1654;
2763090002847212;0.4335;-0.1129;0.2004;
2763090012954712;0.2386;-0.1768;0.2068;
2763090023061274;0.1513;-0.1438;0.1908;
2763090033168774;-0.0180;-0.1832;0.1684;
2763090043276274;-0.2523;-0.0639;0.1972;
2763090053390128;-0.3791;0.0128;0.1812;
2763090063497628;-0.5547;0.0085;0.1972;
2763090073605128;-0.6421;0.0873;0.1716;
2763090083718878;-0.6165;0.1788;0.1716;
2763090093826378;-0.7145;0.2033;0.2185;
2763090103933878;-0.8136;0.1543;0.2355;
2763090114036378;-0.8679;0.1427;0.2473;
2763090124143878;-0.9031;0.2012;0.1664;
2763090134251378;-1.0234;0.0405;0.1759;
2763090144360128;-1.1341;-0.0554;0.1260;
2763090154467628;-1.0192;0.0852;0.1537;
2763090164575128;-0.9723;0.1246;0.1622;
2763090174688045;-1.0096;-0.0650;0.1345;
2763090184795545;-1.0809;-0.0969;0.0780;
2763090194903045;-0.9222;0.0373;0.1334;
2763090205007837;-0.6825;0.1767;0.1089;
2763090215115337;-0.5782;0.1129;0.0951;
2763090225222837;-0.4973;0.0767;0.0503;
2763090235327107;-0.3184;0.1332;0.0663;
2763090245434607;-0.2300;0.1735;0.0322;
2763090255542107;-0.0766;0.0842;0.0535;
2763090265644920;0.1427;-0.2642;-0.0157;
2763090275752420;0.4112;-0.4037;-0.0498;
2763090285859920;0.6359;-0.1683;-0.0381;
2763090295970024;0.5358;-0.0618;0.0450;
2763090306077472;0.4921;-0.1236;-0.0210;
2763090316184972;0.1619;-0.0170;-0.0839;
2763090326362993;-0.2118;0.1842;-0.1244;
2763090336470493;-0.1799;0.1470;-0.1382;
2763090346577993;0.1374;-0.1587;-0.1478;
2763090356612628;0.2109;-0.2450;-0.1553;
2763090366720128;-0.0893;-0.1055;-0.2075;
2763090376827628;-0.1128;-0.2216;-0.2106;
2763090386984087;0.0854;-0.2333;-0.2149;
2763090397091587;0.0619;-0.1907;-0.1638;
2763090407199087;0.1056;-0.1854;-0.1403;
2763090417263774;0.0960;-0.1044;-0.1063;
2763090427371274;0.0129;0.0021;-0.0892;
2763090437478774;0.1374;-0.0107;-0.0796;
2763090447586274;0.3057;-0.0660;-0.0636;
2763090457693774;0.3856;-0.0703;-0.0636;
2763090467801274;0.4282;-0.1438;-0.0168;
2763090477910128;0.5454;-0.2333;0.0194;
2763090488017628;0.3558;-0.0117;0.0940;
2763090498125128;0.0236;0.1406;0.0450;
2763090508251274;0.1118;-0.0096;0.0525;
2763090518358774;0.4240;-0.1438;0.0439;
2763090528466274;0.6413;-0.2599;0.1100;
2763090538564503;0.7105;-0.2748;0.0908;
2763090548672003;0.3664;-0.0873;0.0908;
2763090558779503;-0.0009;0.1778;0.0695;
2763090568891274;0.0672;0.1353;0.0844;
2763090578998774;0.4794;-0.0788;0.0418;
2763090589106274;0.5635;-0.0330;0.0855;
2763090599192837;0.3909;0.1001;0.0887;
2763090609300337;0.3600;0.0352;0.1185;
2763090619407837;0.4218;0.0256;0.0482;
2763090629526847;0.1619;0.1820;0.0386;
2763090639634347;0.2429;0.0352;0.0450;
2763090649741847;0.4762;-0.1182;0.0471;
2763090659849087;0.2759;0.0160;0.0088;
2763090669956587;-0.0212;0.1129;-0.0083;
2763090680064087;-0.0574;0.0884;-0.0061;
2763090690176014;0.0289;0.0277;-0.0509;
2763090700283514;0.1481;-0.0075;-0.0306;
2763090710391014;0.1790;-0.0373;-0.0881;
2763090720486378;0.1459;-0.0671;-0.0839;
2763090730593878;0.1481;-0.0607;-0.0839;
2763090740701378;0.1289;-0.0373;-0.0690;
2763090750818253;0.1672;-0.0405;-0.1297;
2763090760925753;0.1683;-0.0320;-0.1222;
2763090771033253;0.1694;-0.0032;-0.1180;
2763090781140649;0.2216;-0.0437;-0.0935;
2763090791248149;0.2301;0.0075;-0.1031;
2763090801355649;0.2045;0.0767;-0.0903;
2763090811474712;0.3973;-0.0639;-0.1190;
2763090821582212;0.4090;-0.0895;-0.0860;
2763090831689712;0.1523;0.0075;-0.0636;
2763090841789295;0.0822;-0.0501;-0.0541;
2763090851896795;0.0768;-0.0895;-0.1020;
2763090862004295;-0.1405;-0.0469;-0.1041;
2763090872102107;-0.2992;-0.0597;-0.1286;
2763090882209451;-0.3290;-0.0884;-0.1329;
2763090892316795;-0.2672;-0.1704;-0.1553;
2763090902440597;-0.3098;-0.2067;-0.1446;
2763090912547941;-0.3865;-0.0884;-0.1883;
2763090922655284;-0.2864;-0.0671;-0.1457;
2763090932759347;0.1045;-0.2173;-0.1638;
2763090942866691;0.1268;-0.1193;-0.1361;
2763090952974034;0.1003;0.0490;-0.0977;
2763090963068514;0.2162;0.0692;-0.1137;
2763090973175857;0.4495;0.0799;-0.1478;
2763090983283201;0.4495;0.0330;-0.0903;
2763090993403670;0.4644;0.0831;-0.0583;
2763091003511014;0.5060;0.0490;-0.0487;
2763091013618357;0.5102;-0.0607;-0.0487;
2763091023724712;0.3441;-0.0810;-0.0338;
2763091033832055;0.1406;-0.0309;-0.0019;
2763091043939399;0.3206;0.0320;-0.0104;
2763091054050857;0.5007;0.0533;0.0290;
2763091064158201;0.6626;0.1225;0.0354;
2763091074265545;0.7178;0.1767;0.0738;
2763091084401066;0.8499;0.2417;0.0599;
2763091094508409;0.8925;0.1778;0.0876;
2763091104615753;0.8797;0.0639;0.0620;
2763091114686795;0.6189;0.1395;0.1206;
2763091124794087;0.5774;0.0895;0.1387;
2763091134901430;0.6604;-0.0660;0.1302;
2763091145028305;0.5422;0.0149;0.0770;
2763091155135649;0.3675;0.0682;0.0972;
2763091165242993;0.3324;0.0426;0.0855;
2763091175334868;0.3387;0.1023;0.0546;
2763091185442212;0.3483;0.1150;0.0589;
2763091195549555;0.3792;0.0788;0.0716;
2763091205657316;0.1630;0.2161;0.0333;
2763091215764659;0.0502;0.3184;0.0120;
2763091225872003;0.2887;0.1682;0.0067;
2763091235987264;0.4985;0.0085;0.0205;
2763091246094607;0.4282;0.0309;-0.0210;
2763091256201951;0.1459;0.2885;-0.0083;
2763091266365597;0.2067;0.2630;0.0035;
2763091276472941;0.6029;-0.1236;-0.0115;
2763091286580284;0.6285;-0.1939;-0.0115;
2763091296645857;0.2770;0.1150;0.0226;
2763091306753201;0.4399;0.1055;0.0067;
2763091316860545;0.8084;0.0586;-0.0104;
2763091326995753;0.9117;0.0863;0.0024;
2763091337103097;0.9831;0.0735;0.0375;
2763091347210441;1.1663;-0.0256;0.0280;
2763091357269399;1.2813;-0.1726;0.0802;
2763091367376743;1.2718;-0.1289;0.0738;
2763091377484087;1.3270;-0.0863;0.0770;
2763091387608253;1.4303;-0.0969;0.0834;
2763091397715597;1.4836;-0.0927;0.0908;
2763091407822941;1.5358;-0.1715;0.0738;
2763091417943462;1.3686;-0.1257;0.0812;
2763091428050805;1.2046;0.0490;0.1121;
2763091438158149;1.1620;0.0362;0.0834;
2763091448266482;1.1077;-0.1076;0.1057;
2763091458373826;0.9277;-0.1353;0.1132;
2763091468481170;0.8094;0.0107;0.0951;
2763091478558253;0.7828;0.1332;0.0642;
2763091488665597;0.9437;0.0085;0.1313;
2763091498772941;0.7615;-0.1662;0.1579;
2763091508883357;0.5209;-0.0650;0.2079;
2763091518990701;0.4985;0.0479;0.1121;
2763091529098045;0.5049;-0.0405;0.1089;
2763091539209503;0.4762;-0.2013;0.2057;
2763091549316847;0.3206;-0.1715;0.2249;
2763091559424191;0.1470;0.0373;0.1865;
2763091569533774;0.1672;0.1087;0.1759;
2763091579641118;0.3366;0.0959;0.1706;
2763091589748462;0.3803;0.1023;0.2004;
2763091599863774;0.4549;-0.0309;0.2515;
2763091609971118;0.3750;-0.0586;0.3122;
2763091620078462;0.2067;-0.0181;0.3165;
2763091630184764;0.1822;-0.0991;0.3336;
2763091640292107;0.0715;-0.1438;0.3879;
2763091650399451;-0.2353;-0.0703;0.3740;
2763091660515545;-0.5590;0.0565;0.3325;
2763091670622889;-0.7326;0.1449;0.2909;
2763091680730232;-0.7284;0.1214;0.2292;
2763091690842420;-0.5995;0.0053;0.2249;
2763091700949764;-0.7070;0.0341;0.2281;
2763091711057107;-1.2129;0.3322;0.1558;
2763091721160597;-1.1746;0.1395;0.2015;
2763091731267941;-0.5260;-0.2887;0.2675;
2763091741375284;-0.8807;-0.1087;0.2132;
2763091751483774;-1.6433;0.1502;0.1238;
2763091761591118;-1.5825;0.0288;0.0642;
2763091771698462;-1.2310;-0.1427;0.0301;
2763091781808878;-1.2587;0.0895;0.0748;
2763091791916222;-1.2512;0.2118;0.1270;
2763091802023566;-0.6112;-0.1204;0.0844;
2763091812129191;-0.2182;-0.0362;0.0855;
2763091822236534;-0.4643;0.2672;0.0866;
2763091832343878;-0.3716;0.1395;0.0844;
2763091842439295;-0.1437;0.0650;0.1334;
2763091852546639;-0.1746;0.1735;0.1483;
2763091862653982;-0.1490;0.0628;0.1142;
2763091872790337;-0.0350;-0.1395;0.1398;
2763091882897680;-0.0574;-0.0884;0.1834;
2763091893005024;-0.2001;0.1236;0.1462;
2763091903094295;-0.2513;0.1033;0.1206;
2763091913201639;0.0790;-0.1747;0.1451;
2763091923308982;0.3856;-0.2301;0.1695;
2763091933408045;0.1960;-0.0863;0.1684;
2763091943515389;-0.0318;-0.0426;0.1483;
2763091953622732;-0.0201;-0.0288;0.1164;
2763091963745337;-0.0201;-0.0032;0.0897;
2763091973852680;-0.0414;0.0405;0.0312;
2763091983960024;-0.0766;0.1481;-0.0008;
2763091994064607;0.0257;0.0959;-0.0221;
2763092004171951;0.4698;-0.1044;-0.0764;
2763092014279295;1.0310;-0.2375;-0.1084;
2763092024385962;1.1013;-0.1694;-0.1009;
2763092034493305;0.6423;0.0671;-0.0541;
2763092044600649;0.2312;0.1268;-0.1105;
2763092054707941;0.3782;-0.0437;-0.2000;
2763092064815284;0.7967;-0.0831;-0.2106;
2763092074922628;0.8563;0.0597;-0.2352;
2763092085037107;0.7807;0.0916;-0.2362;
2763092095144451;1.0832;-0.0575;-0.2032;
2763092105251795;1.4623;-0.1353;-0.1435;
2763092115335597;1.4740;-0.0948;-0.0977;
2763092125442889;1.3355;-0.1001;-0.0594;
2763092135550232;1.3547;-0.1246;-0.0509;
2763092145657524;1.3813;-0.0724;-0.0668;
2763092155786691;1.2888;0.0075;-0.0700;
2763092165894034;1.1397;0.0394;-0.0306;
2763092176001378;1.0449;0.0394;0.0194;
2763092186101587;0.9309;0.0703;0.0322;
2763092196208930;0.8542;0.0554;0.0067;
2763092206316274;0.9234;-0.1076;0.0450;
2763092216425284;0.9831;-0.1715;0.1121;
2763092226532628;0.7849;-0.1097;0.1738;
2763092236639972;0.6008;-0.1619;0.1727;
2763092246802732;0.5284;-0.1768;0.1345;
2763092256910076;0.1800;0.0256;0.0642;
2763092267017420;-0.3173;0.1969;0.0493;
2763092277077837;-0.4952;0.1905;0.0716;
2763092287185180;-0.2811;0.1097;0.0535;
2763092297292524;0.0332;0.0320;0.0471;
2763092307383357;0.2184;-0.0011;0.0674;
2763092317490701;0.2844;-0.0650;0.1079;
2763092327598045;0.4005;-0.1268;0.1356;
2763092337715545;0.3814;-0.0266;0.1100;
2763092347822889;0.1491;0.0565;0.0834;
2763092357930232;0.0513;0.0394;0.0812;
2763092368062107;0.0683;0.0064;0.0866;
2763092378169451;0.0438;-0.0362;0.1004;
2763092388276795;0.0459;-0.0245;0.1164;
2763092398384191;0.0204;0.0724;0.1047;
2763092408491534;-0.0627;0.1214;0.1004;
2763092418598878;-0.0659;0.0884;0.1079;
2763092428685024;0.0300;-0.0075;0.1228;
2763092438792368;0.1587;-0.1236;0.1674;
2763092448899712;0.2748;-0.1630;0.2057;
2763092459012680;0.3909;-0.0597;0.2217;
2763092469120024;0.3185;0.0778;0.2068;
2763092479227368;0.1097;0.1193;0.1887;
2763092489342003;0.0662;0.1129;0.1695;
2763092499449347;0.1045;0.1150;0.1695;
2763092509556691;0.0694;0.0607;0.1770;
2763092519664295;-0.0297;-0.1033;0.1940;
2763092529771639;-0.1266;-0.2003;0.2047;
2763092539878982;-0.0084;-0.0948;0.1855;
2763092549985962;0.1939;0.0330;0.1844;
2763092560093305;0.2802;0.1268;0.1887;
2763092570200649;0.3110;0.2161;0.1812;
2763092580310128;0.2695;0.2523;0.1780;
2763092590417472;0.1523;0.1895;0.1834;
2763092600524816;0.0001;0.0437;0.1802;
2763092610645597;-0.1522;-0.1385;0.1865;
2763092620753357;-0.2768;-0.2684;0.1972;
2763092630861066;-0.1927;-0.1992;0.1876;
2763092640950701;0.0353;-0.0288;0.1738;
2763092651058409;0.1459;0.0490;0.1812;
2763092661166170;0.1481;0.0682;0.1812;
2763092671285545;0.1736;0.1363;0.1526;
2763092681393305;0.1843;0.1671;0.1281;
2763092691501014;0.1076;0.0533;0.1387;
2763092701602472;0.0204;-0.0810;0.1281;
2763092711710180;0.0076;-0.1204;0.0876;
2763092721817941;0.0246;-0.0863;0.0631;
2763092731925701;0.0790;0.0064;0.0471;
2763092742033409;0.0939;0.0948;0.0322;
2763092752141170;0.0885;0.1278;0.0077;
2763092762257212;0.0768;0.0980;-0.0178;
2763092772364920;0.0374;-0.0107;-0.0370;
2763092782472680;0.0012;-0.1023;-0.0413;
2763092792574868;0.0278;-0.0916;-0.0562;
2763092802682628;0.0896;-0.0554;-0.0647;
2763092812790337;0.0832;-0.0810;-0.0402;
2763092822885076;0.0854;-0.0639;-0.0477;
2763092832992784;0.0822;0.0266;-0.0828;
2763092843100545;0.0704;0.0469;-0.0903;
2763092853216534;0.0694;0.0064;-0.0679;
2763092863324243;0.0747;0.0085;-0.0573;
2763092873432003;0.0619;0.0064;-0.0498;
2763092883533930;0.0502;-0.0437;-0.0360;
2763092893641691;0.0481;-0.0671;-0.0274;
2763092903749399;0.0449;-0.0405;-0.0232;
2763092913857212;0.0449;-0.0181;-0.0115;
2763092923964920;0.0534;-0.0117;0.0056;
2763092934072680;0.0747;0.0096;0.0109;
2763092944182576;0.0896;0.0288;0.0194;
2763092954290284;0.0768;0.0107;0.0386;
2763092964398045;0.0449;-0.0053;0.0535;
2763092974505597;0.0332;-0.0011;0.0589;
2763092984613357;0.0395;-0.0085;0.0642;
2763092994721066;0.0470;-0.0096;0.0716;
2763093004841118;0.0534;0.0075;0.0748;
2763093014948826;0.0395;0.0170;0.0802;
2763093025056587;0.0108;0.0117;0.0802;
2763093035150701;-0.0063;0.0096;0.0738;
2763093045258409;-0.0063;0.0085;0.0706;
2763093055366170;-0.0020;0.0064;0.0727;
2763093065481639;0.0087;0.0085;0.0716;
2763093075589347;0.0119;0.0160;0.0652;
2763093085697107;-0.0031;0.0192;0.0546;
2763093095795180;-0.0116;0.0170;0.0429;
2763093105902889;-0.0063;0.0107;0.0333;
2763093116010649;-0.0020;0.0021;0.0258;
2763093126129972;-0.0009;-0.0085;0.0173;
2763093136237732;0.0044;-0.0149;0.0056;
2763093146345441;0.0289;-0.0117;-0.0051;
2763093156440649;0.0555;-0.0064;-0.0136;
2763093166548409;0.0619;-0.0053;-0.0189;
2763093176656118;0.0459;-0.0053;-0.0242;
2763093186782368;0.0161;-0.0075;-0.0381;
2763093196890128;-0.0105;-0.0117;-0.0466;
2763093206997837;0.0044;-0.0096;-0.0487;
2763093217082264;0.0065;-0.0107;-0.0445;
2763093227189972;0.0055;-0.0128;-0.0434;
2763093237297732;0.0023;-0.0149;-0.0477;
2763093247417524;-0.0009;-0.0149;-0.0498;
2763093257525284;-0.0126;-0.0096;-0.0498;
2763093267632993;-0.0425;-0.0053;-0.0466;
2763093277723201;-0.0702;-0.0043;-0.0413;
2763093287830909;-0.0862;-0.0075;-0.0370;
2763093297938670;-0.0915;-0.0085;-0.0296;
2763093308076691;-0.0808;-0.0085;-0.0189;
2763093318184451;-0.0467;-0.0075;-0.0083;
2763093328292159;-0.0031;-0.0032;0.0035;
2763093338396014;-0.0063;0.0011;0.0120;
2763093348503722;-0.0148;0.0011;0.0173;
2763093358611482;-0.0137;0.0032;0.0205;
2763093368719034;-0.0126;0.0021;0.0258;
2763093378826743;-0.0137;0.0032;0.0301;
2763093388934503;-0.0137;0.0064;0.0322;
2763093399021378;-0.0095;0.0075;0.0333;
2763093409129087;-0.0084;0.0064;0.0365;
2763093419236847;-0.0158;0.0053;0.0375;
2763093429355076;-0.0190;0.0075;0.0375;
2763093439462784;-0.0201;0.0096;0.0375;
2763093449570545;-0.0180;0.0138;0.0397;
2763093459678201;-0.0180;0.0170;0.0407;
2763093469785909;-0.0180;0.0149;0.0397;
2763093479893670;-0.0180;0.0117;0.0397;
2763093490016743;-0.0158;0.0107;0.0418;
2763093500124451;-0.0158;0.0117;0.0407;
2763093510232212;-0.0180;0.0128;0.0365;
2763093520323722;-0.0340;0.0149;0.0312;
2763093530431430;-0.0595;0.0138;0.0258;
2763093540539191;-0.0798;0.0117;0.0226;
2763093550640284;-0.0915;0.0085;0.0184;
2763093560747993;-0.0968;0.0064;0.0130;
2763093570855753;-0.0925;0.0021;0.0099;
2763093580974764;-0.0808;0.0011;0.0077;
2763093591082472;-0.0659;0.0021;0.0056;
2763093601190232;-0.0627;0.0021;0.0003;
2763093611310597;-0.0776;0.0032;-0.0051;
2763093621418357;-0.1096;0.0053;-0.0125;
2763093631526066;-0.1437;0.0064;-0.0221;
2763093641604659;-0.1788;0.0021;-0.0306;
2763093651712368;-0.2118;-0.0043;-0.0391;
2763093661820128;-0.2406;-0.0053;-0.0466;
2763093671934347;-0.2619;-0.0032;-0.0509;
2763093682042107;-0.2768;-0.0011;-0.0551;
2763093692149816;-0.2864;-0.0000;-0.0573;
2763093702259555;-0.2800;-0.0000;-0.0583;
2763093712367316;-0.2534;-0.0032;-0.0583;
2763093722475024;-0.2108;-0.0053;-0.0551;
2763093732592159;-0.1586;-0.0064;-0.0530;
2763093742699920;-0.1085;-0.0085;-0.0509;
2763093752807628;-0.0670;-0.0107;-0.0455;
2763093762903305;-0.0372;-0.0107;-0.0455;
2763093773011066;-0.0137;-0.0117;-0.0477;
2763093783118774;0.0023;-0.0117;-0.0487;
2763093793228722;0.0097;-0.0085;-0.0519;
2763093803336482;0.0055;-0.0053;-0.0541;
2763093813444191;0.0044;-0.0075;-0.0562;
2763093823545597;0.0044;-0.0107;-0.0583;
2763093833653357;0.0055;-0.0160;-0.0605;
2763093843761066;0.0065;-0.0160;-0.0615;
2763093853873514;0.0076;-0.0128;-0.0626;
2763093863981274;0.0065;-0.0107;-0.0626;
2763093874088982;0.0044;-0.0128;-0.0626;
2763093884221014;0.0033;-0.0160;-0.0647;
2763093894328774;0.0044;-0.0192;-0.0679;
2763093904436482;0.0033;-0.0192;-0.0700;
2763093914525389;0.0055;-0.0202;-0.0722;
2763093924633097;0.0065;-0.0160;-0.0732;
2763093934740857;0.0033;-0.0138;-0.0754;
2763093944846222;0.0012;-0.0128;-0.0775;
2763093954953982;0.0023;-0.0128;-0.0754;
2763093965061691;0.0033;-0.0128;-0.0764;
2763093975177576;0.0001;-0.0128;-0.0743;
2763093985285337;-0.0009;-0.0149;-0.0679;
2763093995393045;-0.0020;-0.0160;-0.0615;
2763094005501222;-0.0031;-0.0117;-0.0573;
2763094015608930;-0.0041;-0.0085;-0.0519;
2763094025716691;-0.0052;-0.0064;-0.0466;
2763094035814555;-0.0063;-0.0043;-0.0402;
2763094045922316;-0.0084;-0.0053;-0.0338;
2763094056030024;-0.0084;-0.0053;-0.0285;
2763094066139034;-0.0095;-0.0043;-0.0253;
2763094076246795;-0.0105;-0.0043;-0.0232;
2763094086354503;-0.0105;-0.0011;-0.0200;
2763094096462472;-0.0095;0.0011;-0.0200;
2763094106570232;-0.0095;0.0021;-0.0200;
2763094116677941;-0.0073;0.0021;-0.0189;
2763094126756222;-0.0031;-0.0011;-0.0200;
2763094136863982;0.0129;-0.0021;-0.0200;
2763094146971691;0.0385;0.0021;-0.0200;
2763094157091430;0.0598;0.0043;-0.0200;
2763094167199191;0.0726;0.0043;-0.0242;
2763094177306899;0.0758;0.0021;-0.0264;
2763094187447941;0.0704;-0.0032;-0.0317;
2763094197555701;0.0619;-0.0075;-0.0381;
2763094207663409;0.0502;-0.0064;-0.0445;
2763094217750701;0.0310;-0.0053;-0.0477;
2763094227858409;0.0108;-0.0043;-0.0509;
2763094237966170;-0.0063;-0.0021;-0.0519;
2763094248096222;-0.0084;-0.0011;-0.0519;
2763094258203982;-0.0084;-0.0021;-0.0519;
2763094268311691;-0.0084;-0.0032;-0.0466;
2763094278394868;-0.0095;-0.0021;-0.0370;
2763094288502576;-0.0126;-0.0021;-0.0296;
2763094298610337;-0.0201;-0.0021;-0.0210;
2763094308743097;-0.0340;-0.0011;-0.0157;
2763094318850857;-0.0446;-0.0011;-0.0083;
2763094328958566;-0.0457;0.0021;-0.0008;
2763094339045180;-0.0382;0.0043;0.0077;
2763094349152941;-0.0318;0.0064;0.0173;
2763094359260649;-0.0286;0.0064;0.0258;
2763094369389451;-0.0297;0.0075;0.0333;
2763094379497212;-0.0318;0.0107;0.0407;
2763094389604920;-0.0361;0.0117;0.0482;
2763094399691847;-0.0414;0.0043;0.0546;
2763094409799607;-0.0510;0.0032;0.0599;
2763094419907316;-0.0595;0.0096;0.0663;
2763094430017784;-0.0638;0.0202;0.0727;
2763094440125545;-0.0723;0.0245;0.0780;
2763094450233253;-0.0925;0.0234;0.0802;
2763094460336014;-0.1170;0.0234;0.0834;
2763094470443774;-0.1330;0.0256;0.0887;
2763094480551482;-0.1341;0.0266;0.0972;
2763094490661326;-0.1245;0.0320;0.1036;
2763094500769034;-0.1075;0.0383;0.1068;
2763094510876795;-0.1011;0.0458;0.1121;
2763094520973722;-0.1043;0.0447;0.1185;
2763094531081482;-0.1032;0.0415;0.1228;
2763094541189191;-0.0915;0.0383;0.1260;
2763094551295337;-0.0776;0.0383;0.1324;
2763094561403045;-0.0744;0.0415;0.1334;
2763094571510805;-0.0904;0.0426;0.1334;
2763094581628097;-0.1309;0.0362;0.1356;
2763094591735857;-0.1863;0.0309;0.1356;
2763094601843566;-0.2438;0.0288;0.1356;
2763094611952159;-0.2917;0.0383;0.1366;
2763094622059920;-0.3258;0.0490;0.1398;
2763094632167628;-0.3546;0.0511;0.1387;
2763094642333305;-0.3834;0.0511;0.1377;
2763094652441066;-0.4153;0.0490;0.1356;
2763094662548774;-0.4590;0.0447;0.1356;
2763094672595701;-0.5142;0.0352;0.1313;
2763094682703409;-0.5451;0.0341;0.1260;
2763094692811170;-0.5206;0.0426;0.1292;
2763094702916430;-0.4430;0.0597;0.1377;
2763094713024139;-0.3333;0.0746;0.1441;
2763094723131899;-0.2150;0.0735;0.1473;
2763094733246222;-0.1032;0.0597;0.1473;
2763094743353982;-0.0233;0.0437;0.1430;
2763094753461691;0.0321;0.0277;0.1398;
2763094763554764;0.0822;-0.0043;0.1366;
2763094773662524;0.1140;-0.0490;0.1334;
2763094783770232;0.1758;-0.0628;0.1260;
2763094793894555;0.2716;-0.0511;0.1206;
2763094804002264;0.3707;-0.0256;0.1249;
2763094814110024;0.4634;-0.0043;0.1377;
2763094824215493;0.5592;0.0096;0.1451;
2763094834323253;0.6764;0.0202;0.1494;
2763094844430962;0.7658;0.0085;0.1547;
2763094854539243;0.7988;-0.0245;0.1727;
2763094864647003;0.8478;-0.0415;0.1983;
2763094874754712;0.9373;-0.0085;0.2260;
2763094884864451;1.0928;0.0501;0.2430;
2763094894972212;1.2366;0.0714;0.2611;
2763094905079920;1.3291;0.0554;0.2835;
2763094915183930;1.3845;0.0682;0.2856;
2763094925291691;1.4655;0.1108;0.2909;
2763094935399399;1.5156;0.1236;0.3059;
2763094945502576;1.5294;0.1033;0.3186;
2763094955610337;1.5273;0.0628;0.3250;
2763094965718045;1.4932;0.0117;0.2867;
2763094975815493;1.4634;0.0011;0.2398;
2763094985923253;1.4485;0.0181;0.2473;
2763094996030962;1.3899;0.0426;0.2451;
2763095006152889;1.3122;0.1055;0.2185;
2763095016260649;1.2291;0.1470;0.1727;
2763095026368357;1.1343;0.1300;0.1526;
2763095036459868;1.0768;0.1033;0.1590;
2763095046567576;1.0587;0.0863;0.1334;
2763095056675337;1.0566;0.0724;0.0993;
2763095066800337;1.0481;0.0533;0.0972;
2763095076908097;1.0225;0.0447;0.0908;
2763095087015805;0.9756;0.0501;0.0674;
2763095097113826;0.9522;0.0426;0.0652;
2763095107221587;0.9628;0.0149;0.0695;
2763095117329295;0.9660;-0.0096;0.0546;
2763095127446951;0.9362;-0.0064;0.0418;
2763095137554712;0.8499;0.0128;0.0429;
2763095147662420;0.7551;0.0277;0.0557;
2763095157783097;0.6626;0.0298;0.0599;
2763095167890857;0.5784;0.0330;0.0525;
2763095177998566;0.4943;0.0533;0.0365;
2763095188085805;0.4027;0.0810;0.0237;
2763095198193514;0.3324;0.0810;0.0290;
2763095208301274;0.2578;0.0533;0.0365;
2763095218425284;0.1939;0.0298;0.0322;
2763095228532993;0.1342;0.0298;0.0312;
2763095238640753;0.0854;0.0479;0.0375;
2763095248727680;0.0651;0.0660;0.0418;
2763095258835389;0.0758;0.0746;0.0344;
2763095268943149;0.0981;0.0820;0.0269;
2763095279047889;0.1118;0.0831;0.0290;
2763095289155649;0.1161;0.0778;0.0418;
2763095299263357;0.1024;0.0746;0.0525;
2763095309380701;0.0438;0.0703;0.0471;
2763095319488409;-0.0744;0.0554;0.0407;
2763095329596170;-0.1831;0.0447;0.0322;
2763095339701534;-0.2353;0.0458;0.0248;
2763095349809295;-0.3674;0.0490;0.0269;
2763095359917003;-0.4941;0.0543;0.0205;
2763095370036639;-0.6335;0.0639;0.0077;
2763095380144347;-0.8104;0.0735;-0.0040;
2763095390252107;-0.9989;0.0831;-0.0146;
2763095400361743;-1.1714;0.0799;-0.0221;
2763095410469503;-1.3439;0.0660;-0.0274;
2763095420577212;-1.5005;0.0543;-0.0285;
2763095430676222;-1.6496;0.0405;-0.0274;
2763095440783982;-1.7848;0.0341;-0.0264;
2763095450891691;-1.8956;0.0320;-0.0317;
2763095461000076;-1.9584;0.0341;-0.0434;
2763095471107837;-1.9797;0.0394;-0.0605;
2763095481215545;-1.9542;0.0479;-0.0786;
2763095491331326;-1.8775;0.0490;-0.0967;
2763095501439087;-1.7752;0.0458;-0.1126;
2763095511546795;-1.6571;0.0437;-0.1297;
2763095521638045;-1.5250;0.0298;-0.1499;
2763095531745805;-1.3951;0.0117;-0.1712;
2763095541853514;-1.2949;-0.0043;-0.1936;
2763095551953305;-1.2363;-0.0202;-0.2128;
2763095562061014;-1.2427;-0.0320;-0.2288;
2763095572168722;-1.2896;-0.0469;-0.2533;
2763095582292784;-1.3514;-0.0543;-0.2799;
2763095592400545;-1.4046;-0.0554;-0.3001;
2763095602508253;-1.4494;-0.0479;-0.3065;
2763095612604712;-1.4526;-0.0405;-0.3033;
2763095622712472;-1.3887;-0.0373;-0.2991;
2763095632820180;-1.2768;-0.0309;-0.2852;
2763095642946118;-1.1458;-0.0245;-0.2597;
2763095653053878;-0.9829;-0.0245;-0.2234;
2763095663161587;-0.7912;-0.0277;-0.2096;
2763095673256951;-0.5750;-0.0256;-0.1957;
2763095683364659;-0.4004;-0.0160;-0.1627;
2763095693472420;-0.2640;-0.0064;-0.1222;
2763095703576534;-0.1501;-0.0011;-0.0839;
2763095713684243;-0.0457;0.0021;-0.0519;
2763095723792003;0.0332;-0.0000;-0.0253;
2763095733913722;0.0395;-0.0011;0.0024;
2763095744021430;0.0395;-0.0000;0.0290;
2763095754129191;0.0353;0.0117;0.0535;
2763095764236639;0.0204;0.0234;0.0770;
2763095774344399;0.0150;0.0298;0.0972;
2763095784452107;0.0353;0.0362;0.1174;
2763095794548045;0.0779;0.0373;0.1345;
2763095804655753;0.1513;0.0352;0.1537;
2763095814763514;0.2503;0.0320;0.1727;
2763095824876118;0.3771;0.0298;0.1908;
2763095834983826;0.5166;0.0256;0.2079;
2763095845091587;0.6455;0.0213;0.2185;
2763095855193045;0.7647;0.0213;0.2238;
2763095865300805;0.8904;0.0192;0.2270;
2763095875408514;0.9831;0.0234;0.2292;
2763095885519295;1.0470;0.0256;0.2292;
2763095895627003;1.0779;0.0298;0.2238;
2763095905734764;1.0800;0.0320;0.2142;
2763095915833878;1.0662;0.0330;0.2036;
2763095925941639;1.0363;0.0288;0.1929;
2763095936049347;1.0065;0.0245;0.1834;
2763095946164347;0.9746;0.0192;0.1716;
2763095956272107;0.9522;0.0170;0.1611;
2763095966379816;0.9160;0.0149;0.1462;
2763095976469659;0.9096;0.0138;0.1366;
2763095986577368;0.9458;0.0160;0.1430;
2763095996685128;1.0097;0.0075;0.1302;
2763096006793514;1.0885;0.0011;0.1174;
2763096016901274;1.1684;0.0032;0.1142;
2763096027008982;1.2355;0.0043;0.1185;
2763096037121222;1.2963;0.0011;0.1260;
2763096047228982;1.3483;-0.0000;0.1260;
2763096057336691;1.3941;0.0021;0.1228;
2763096067444034;1.4197;0.0032;0.1206;
2763096077551795;1.4144;0.0064;0.1174;
2763096087659503;1.4005;0.0128;0.1132;
2763096097797784;1.3707;0.0149;0.1132;
2763096107905545;1.3345;0.0117;0.1121;
2763096118013253;1.2867;0.0075;0.1089;
2763096128122993;1.2089;0.0075;0.1036;
2763096138230753;1.1141;0.0064;0.0961;
2763096148338462;1.0140;0.0107;0.0834;
2763096158425024;0.9053;0.0096;0.0706;
2763096168532784;0.8052;0.0085;0.0589;
2763096178640493;0.6828;0.0032;0.0471;
2763096188751222;0.5742;-0.0053;0.0301;
2763096198858982;0.4431;-0.0160;0.0077;
2763096208966691;0.2631;-0.0298;-0.0200;
2763096219072628;0.0534;-0.0426;-0.0530;
2763096229180337;-0.0499;-0.0522;-0.0807;
2763096239288097;-0.0947;-0.0565;-0.1009;
2763096249392993;-0.1724;-0.0639;-0.1073;
2763096259500701;-0.2172;-0.0703;-0.1180;
2763096269608462;-0.2289;-0.0788;-0.1318;
2763096279715805;-0.2385;-0.0873;-0.1403;
2763096289823566;-0.2555;-0.0905;-0.1457;
2763096299931274;-0.2672;-0.0916;-0.1521;
2763096310041118;-0.2768;-0.0916;-0.1585;
2763096320148878;-0.2853;-0.0937;-0.1648;
2763096330256587;-0.2928;-0.0937;-0.1712;
2763096340360128;-0.2971;-0.0948;-0.1755;
2763096350467837;-0.2928;-0.0980;-0.1766;
2763096360575597;-0.2885;-0.1001;-0.1755;
2763096370698722;-0.2875;-0.1001;-0.1766;
2763096380806430;-0.2939;-0.0980;-0.1787;
2763096390914191;-0.2971;-0.0969;-0.1776;
2763096401013982;-0.2949;-0.0916;-0.1798;
2763096411121691;-0.2907;-0.0905;-0.1808;
2763096421229451;-0.2917;-0.0905;-0.1776;
2763096431334712;-0.3045;-0.0916;-0.1766;
2763096441442472;-0.3184;-0.0916;-0.1755;
2763096451550180;-0.3290;-0.0895;-0.1776;
2763096461656378;-0.3365;-0.0852;-0.1776;
2763096471764139;-0.3397;-0.0820;-0.1766;
2763096481871847;-0.3493;-0.0788;-0.1744;
2763096491988409;-0.3748;-0.0756;-0.1744;
2763096502096170;-0.4174;-0.0746;-0.1755;
2763096512203878;-0.4654;-0.0756;-0.1798;
2763096522367576;-0.5078;-0.0767;-0.1830;
2763096532475337;-0.5451;-0.0756;-0.1840;
2763096542583045;-0.5856;-0.0746;-0.1861;
2763096552615389;-0.6272;-0.0714;-0.1883;
2763096562723097;-0.6485;-0.0703;-0.1893;
2763096572830805;-0.6655;-0.0671;-0.1915;
2763096582951534;-0.6794;-0.0671;-0.1925;
2763096593059295;-0.6634;-0.0682;-0.1915;
2763096603167003;-0.6240;-0.0671;-0.1883;
2763096613266534;-0.5899;-0.0682;-0.1840;
2763096623374295;-0.5398;-0.0682;-0.1798;
2763096633482003;-0.4537;-0.0660;-0.1723;
2763096643626014;-0.3482;-0.0628;-0.1627;
2763096653733774;-0.2395;-0.0618;-0.1499;
2763096663841482;-0.1309;-0.0586;-0.1361;
2763096673924972;-0.0158;-0.0554;-0.1222;
2763096684032680;0.0662;-0.0543;-0.1063;
2763096694140441;0.0939;-0.0511;-0.0967;
2763096704246482;0.1257;-0.0501;-0.0945;
2763096714354191;0.1321;-0.0469;-0.0881;
2763096724461951;0.1045;-0.0394;-0.0807;
2763096734560180;0.0651;-0.0341;-0.0775;
2763096744667889;0.0278;-0.0320;-0.0754;
2763096754775649;0.0182;-0.0330;-0.0679;
2763096764885701;0.0225;-0.0309;-0.0562;
2763096774993409;0.0225;-0.0277;-0.0423;
2763096785101170;0.0214;-0.0224;-0.0338;
2763096795208826;0.0193;-0.0160;-0.0285;
2763096805316587;0.0182;-0.0117;-0.0221;
2763096815424295;0.0161;-0.0053;-0.0136;
2763096825529972;0.0172;0.0011;-0.0040;
2763096835637732;0.0182;0.0043;0.0035;
2763096845745441;0.0161;0.0043;0.0088;
2763096855857889;0.0087;0.0053;0.0141;
2763096865965649;0.0044;0.0043;0.0162;
2763096876073357;0.0055;0.0064;0.0205;
2763096886187993;0.0044;0.0107;0.0237;
2763096896295753;0.0033;0.0117;0.0248;
2763096906403462;0.0044;0.0107;0.0237;
2763096916504920;0.0033;0.0107;0.0237;
2763096926612628;0.0033;0.0085;0.0237;
2763096936720389;0.0012;0.0085;0.0216;
2763096946838826;-0.0041;0.0096;0.0216;
2763096956946587;-0.0126;0.0085;0.0194;
2763096967054295;-0.0180;0.0064;0.0152;
2763096977162837;-0.0244;0.0053;0.0120;
2763096987270597;-0.0318;0.0043;0.0077;
2763096997378305;-0.0414;0.0021;0.0035;
2763097007449347;-0.0510;0.0011;0.0003;
2763097017557107;-0.0531;-0.0011;-0.0029;
2763097027664816;-0.0499;-0.0021;-0.0061;
2763097037793409;-0.0446;-0.0032;-0.0083;
2763097047901118;-0.0350;-0.0032;-0.0104;
2763097058008878;-0.0222;-0.0043;-0.0104;
2763097068136222;-0.0063;-0.0043;-0.0093;
2763097078243982;0.0044;-0.0064;-0.0115;
2763097088351691;0.0044;-0.0085;-0.0178;
2763097098447941;0.0033;-0.0096;-0.0189;
2763097108555701;0.0023;-0.0138;-0.0210;
2763097118663409;0.0012;-0.0138;-0.0200;
2763097128781014;0.0023;-0.0107;-0.0221;
2763097138888722;0.0033;-0.0075;-0.0264;
2763097148996482;-0.0009;-0.0064;-0.0274;
2763097159080597;-0.0063;-0.0085;-0.0253;
2763097169188357;-0.0148;-0.0128;-0.0242;
2763097179296066;-0.0233;-0.0138;-0.0232;
2763097189412628;-0.0286;-0.0128;-0.0232;
2763097199520389;-0.0308;-0.0096;-0.0221;
2763097209628097;-0.0350;-0.0053;-0.0210;
2763097219733409;-0.0382;-0.0043;-0.0200;
2763097229841170;-0.0478;-0.0053;-0.0200;
2763097239948878;-0.0680;-0.0053;-0.0221;
2763097250061743;-0.0872;-0.0064;-0.0221;
2763097260169503;-0.1021;-0.0085;-0.0221;
2763097270277212;-0.1043;-0.0085;-0.0178;
2763097280382264;-0.0989;-0.0053;-0.0146;
2763097290490024;-0.0862;-0.0011;-0.0104;
2763097300597732;-0.0734;0.0021;-0.0051;
2763097310711326;0.0364;0.0266;0.0067;
2763097320819087;0.0342;0.0096;0.0056;
2763097330926795;0.0055;-0.0149;0.0003;
2763097341028409;-0.0222;-0.0213;0.0003;
2763097351136118;-0.0222;-0.0096;-0.0008;
2763097361243878;-0.0233;0.0096;-0.0008;
2763097371366639;-0.0276;0.0224;0.0013;
2763097381474399;-0.0308;0.0160;0.0035;
2763097391582107;-0.0212;0.0043;0.0130;
2763097401675545;-0.0041;-0.0043;0.0269;
2763097411783305;-0.0031;-0.0075;0.0354;
2763097421891014;-0.0084;-0.0011;0.0365;
2763097431995284;-0.0084;0.0128;0.0354;
