Sensor: bmi160 Accelerometer Non-wakeup
Vendor: BOSCH
TimestampAcc [ns]; AccX [m/s^2]; AccY [m/s^2]; AccZ [m/s^2]
2373257356433;-9.3257;1.7979;-2.2606;
2373267434558;-9.3401;1.7572;-2.2223;
2373277523048;-9.3688;1.7381;-2.1936;
2373287635756;-9.3903;1.7620;-2.1888;
2373297726069;-9.3999;1.8003;-2.1745;
2373307838777;-9.4143;1.8221;-2.1482;
2373317950704;-9.3640;1.8700;-2.1649;
2373328056173;-9.3233;1.8676;-2.1817;
2373338188725;-9.3425;1.8628;-2.2199;
2373348276694;-9.3449;1.8628;-2.2463;
2373358387736;-9.3425;1.8556;-2.2271;
2373368467788;-9.3329;1.8293;-2.2295;
2373378589819;-9.3497;1.8150;-2.1936;
2373388696017;-9.3640;1.7931;-2.1434;
2373398808256;-9.3855;1.7453;-2.1362;
2373408914454;-9.3903;1.7261;-2.1769;
2373419028152;-9.3616;1.6807;-2.1888;
2373429141069;-9.3640;1.6232;-2.2415;
2373439252475;-9.3855;1.5897;-2.2534;
2373449356329;-9.3855;1.5610;-2.2032;
2373459467058;-9.3808;1.5586;-2.1769;
2373469575288;-9.3544;1.6280;-2.2295;
2373479687058;-9.3712;1.6591;-2.2175;
2373489800756;-9.3903;1.6974;-2.1936;
2373499903829;-9.3784;1.7453;-2.2199;
2373510014558;-9.3664;1.7596;-2.2175;
2373520121329;-9.3449;1.7979;-2.1936;
2373530235131;-9.3568;1.8652;-2.2056;
2373540345183;-9.3640;1.8939;-2.1817;
2373550452579;-9.3736;1.8915;-2.1864;
2373560559871;-9.3616;1.9083;-2.1625;
2373570673308;-9.3760;1.9322;-2.1625;
2373580785756;-9.3832;1.9274;-2.1505;
2373590898100;-9.3760;1.9968;-2.1721;
2373601018517;-9.3592;2.0112;-2.1960;
2373611116642;-9.3688;1.9801;-2.1817;
2373621219975;-9.3832;1.9848;-2.1577;
2373631346277;-9.3688;1.9561;-2.1338;
2373641448413;-9.3664;1.9490;-2.1888;
2373651562423;-9.3784;1.9178;-2.1745;
2373661703725;-9.3592;1.8867;-2.2032;
2373671777579;-9.3544;1.8003;-2.1793;
2373681887631;-9.3855;1.7189;-2.1936;
2373691995600;-9.3855;1.6328;-2.2152;
2373702090079;-9.3927;1.5224;-2.1888;
2373712216329;-9.4071;1.4195;-2.2175;
2373722323621;-9.4214;1.3693;-2.2630;
2373732438048;-9.3808;1.3119;-2.2726;
2373742544402;-9.3640;1.2975;-2.2630;
2373752648100;-9.3640;1.2903;-2.2271;
2373762765913;-9.4047;1.3095;-2.2702;
2373772874038;-9.4238;1.2855;-2.2534;
2373782993881;-9.3927;1.3095;-2.2510;
2373793086381;-9.3903;1.3358;-2.2702;
2373803198725;-9.3808;1.3310;-2.2463;
2373813307579;-9.3712;1.3358;-2.2606;
2373823437111;-9.3688;1.3765;-2.2941;
2373833534506;-9.3903;1.4506;-2.3037;
2373843633256;-9.4310;1.4602;-2.2271;
2373853764871;-9.4238;1.4674;-2.2056;
2373863949975;-9.4023;1.5272;-2.2343;
2373873976642;-9.3903;1.5562;-2.2175;
2373884073881;-9.3592;1.6017;-2.2295;
2373894201329;-9.3688;1.6376;-2.2343;
2373904309611;-9.3712;1.6711;-2.2343;
2373914409611;-9.3999;1.7142;-2.2391;
2373924565652;-9.4047;1.7620;-2.2343;
2373934638986;-9.3688;1.7907;-2.2152;
2373944752423;-9.3784;1.7788;-2.1960;
2373954873361;-9.3712;1.7740;-2.1960;
2373964972111;-9.3903;1.7596;-2.2080;
2373975089923;-9.3855;1.7692;-2.2319;
2373985212215;-9.3855;1.7716;-2.2558;
2373995290808;-9.3808;1.7596;-2.2223;
2374005416694;-9.3879;1.7524;-2.2152;
2374015512475;-9.3879;1.7620;-2.2175;
2374025640913;-9.3784;1.7812;-2.2199;
2374035733621;-9.3688;1.7812;-2.2295;
2374045842996;-9.3808;1.8051;-2.2391;
2374055955496;-9.3736;1.8051;-2.2582;
2374066065704;-9.3855;1.7812;-2.2702;
2374076195444;-9.3544;1.7644;-2.2822;
2374086279767;-9.3520;1.7644;-2.2534;
2374096389350;-9.3808;1.7788;-2.2056;
2374106502788;-9.3999;1.7596;-2.1721;
2374116620756;-9.4286;1.7333;-2.1673;
2374126725704;-9.3975;1.7261;-2.1840;
2374136834767;-9.3784;1.7261;-2.2439;
2374146945704;-9.3975;1.7166;-2.2774;
2374157056798;-9.3808;1.6974;-2.2271;
2374167167423;-9.3760;1.7166;-2.1960;
2374177279194;-9.3688;1.7357;-2.2367;
2374187385183;-9.3855;1.7429;-2.2391;
2374197495913;-9.3808;1.7285;-2.1410;
2374207613881;-9.3616;1.7142;-2.1769;
2374217715600;-9.4119;1.6519;-2.1769;
2374227831433;-9.3760;1.6184;-2.2247;
2374237937631;-9.3760;1.5754;-2.2175;
2374248045183;-9.3712;1.5778;-2.2391;
2374258157058;-9.3999;1.5153;-2.2582;
2374268290548;-9.3951;1.5538;-2.2654;
2374278371225;-9.3903;1.5344;-2.2128;
2374288482475;-9.4334;1.4985;-2.2199;
2374298592683;-9.3999;1.4889;-2.2534;
2374308704558;-9.4047;1.4961;-2.1984;
2374318817006;-9.4119;1.4865;-2.1936;
2374328925913;-9.3879;1.4841;-2.2415;
2374339033621;-9.4358;1.4530;-2.2128;
2374349146329;-9.3903;1.4411;-2.2941;
2374359258933;-9.4119;1.4483;-2.2702;
2374369378933;-9.3832;1.4794;-2.2654;
2374379478673;-9.3784;1.5009;-2.2391;
2374389589194;-9.4071;1.5395;-2.2319;
2374399699663;-9.4190;1.5658;-2.2199;
2374409810340;-9.4549;1.5921;-2.1840;
2374419920808;-9.3975;1.6208;-2.2104;
2374430031329;-9.4071;1.6448;-2.2128;
2374440138048;-9.3879;1.6400;-2.2008;
2374450248517;-9.3736;1.6328;-2.2343;
2374460359038;-9.4047;1.6208;-2.2247;
2374470471590;-9.4190;1.6519;-2.2678;
2374480582058;-9.3688;1.6759;-2.1888;
2374490692579;-9.3832;1.7166;-2.2152;
2374500800444;-9.3975;1.7166;-2.1864;
2374510910913;-9.3903;1.7572;-2.1936;
2374521021433;-9.4023;1.7788;-2.2080;
2374531128152;-9.3975;1.7979;-2.2032;
2374541238621;-9.3832;1.8197;-2.2032;
2374551349142;-9.3688;1.8293;-2.1793;
2374561460340;-9.3497;1.8628;-2.2008;
2374571570861;-9.3497;1.8987;-2.2199;
2374581681329;-9.3544;1.9011;-2.1888;
2374591787683;-9.3664;1.8915;-2.2152;
2374601898152;-9.3855;1.9059;-2.2415;
2374612008673;-9.3951;1.8676;-2.1745;
2374622106277;-9.3784;1.8843;-2.1840;
2374632216746;-9.3879;1.8700;-2.1912;
2374642327267;-9.3832;1.8269;-2.1960;
2374652447527;-9.3736;1.7740;-2.2152;
2374662557996;-9.3808;1.7070;-2.2678;
2374672668517;-9.3855;1.6328;-2.2295;
2374682774611;-9.3832;1.6041;-2.2247;
2374692885079;-9.3664;1.5658;-2.2391;
2374702995652;-9.4023;1.5562;-2.2128;
2374713110236;-9.3975;1.5467;-2.2606;
2374723220704;-9.4167;1.5419;-2.2534;
2374733331225;-9.4167;1.5778;-2.2487;
2374743449923;-9.3592;1.6089;-2.2295;
2374753560444;-9.4023;1.6184;-2.2295;
2374763670965;-9.3855;1.6567;-2.2128;
2374773806590;-9.3879;1.7070;-2.2008;
2374783917111;-9.3927;1.7189;-2.1649;
2374794027579;-9.3808;1.7357;-2.1649;
2374804074819;-9.3999;1.7596;-2.1936;
2374814185288;-9.3951;1.7429;-2.1984;
2374824295808;-9.3975;1.7548;-2.2295;
2374834436121;-9.3832;1.7453;-2.2175;
2374844546590;-9.3760;1.7405;-2.2247;
2374854657058;-9.3736;1.7548;-2.2080;
2374864764819;-9.3760;1.7572;-2.1817;
2374874875340;-9.3832;1.8126;-2.2008;
2374884985808;-9.3640;1.8341;-2.2175;
2374895094402;-9.3879;1.8051;-2.2175;
2374905204923;-9.3975;1.7907;-2.2152;
2374915315392;-9.3736;1.7883;-2.1912;
2374925486798;-9.3808;1.7548;-2.1984;
2374935597319;-9.4023;1.7333;-2.1745;
2374945707788;-9.3999;1.6854;-2.2056;
2374955752111;-9.4071;1.6591;-2.2534;
2374965862579;-9.3808;1.6161;-2.2295;
2374975973100;-9.3879;1.6184;-2.2295;
2374986081173;-9.3736;1.6687;-2.2175;
2374996191694;-9.3879;1.6639;-2.1912;
2375006302163;-9.3975;1.7046;-2.1912;
2375016419767;-9.3664;1.7261;-2.2056;
2375026530236;-9.3784;1.7022;-2.2295;
2375036640808;-9.3688;1.7285;-2.2152;
2375046760444;-9.3736;1.7142;-2.2678;
2375056870965;-9.3712;1.7094;-2.2869;
2375066981433;-9.3592;1.7070;-2.2391;
2375077070340;-9.3736;1.6543;-2.1984;
2375087180861;-9.3903;1.6161;-2.2199;
2375097291329;-9.4095;1.6017;-2.2510;
2375107403048;-9.3999;1.5921;-2.2128;
2375117513569;-9.3808;1.5897;-2.2654;
2375127624038;-9.3760;1.5562;-2.2319;
2375137734506;-9.3879;1.5586;-2.2032;
2375147845027;-9.4023;1.5706;-2.2319;
2375157955496;-9.4095;1.5538;-2.2510;
2375168061486;-9.3975;1.5849;-2.2343;
2375178172006;-9.3975;1.6089;-2.1697;
2375188282475;-9.3855;1.6519;-2.1745;
2375198387840;-9.3640;1.6783;-2.1458;
2375208498308;-9.3664;1.7213;-2.1864;
2375218608829;-9.4095;1.7309;-2.2152;
2375228723465;-9.4119;1.6926;-2.1984;
2375238833933;-9.3879;1.6950;-2.2152;
2375248944454;-9.3736;1.6711;-2.2247;
2375259049298;-9.3927;1.6496;-2.1936;
2375269159767;-9.3855;1.6304;-2.2128;
2375279270288;-9.3784;1.6328;-2.1840;
2375289383881;-9.3999;1.6759;-2.1817;
2375299494402;-9.4071;1.6711;-2.1888;
2375309604871;-9.3927;1.6974;-2.2080;
2375319717215;-9.3903;1.7477;-2.1649;
2375329827736;-9.3760;1.7596;-2.1888;
2375339938204;-9.3520;1.7668;-2.2223;
2375350050340;-9.3544;1.7644;-2.2247;
2375360160808;-9.3688;1.7620;-2.2319;
2375370271329;-9.3736;1.7333;-2.2534;
2375380381225;-9.3855;1.7405;-2.2630;
2375390491433;-9.3784;1.7429;-2.2415;
2375400601590;-9.3664;1.7309;-2.2128;
2375410713413;-9.3760;1.7405;-2.2295;
2375420823621;-9.3832;1.7405;-2.2271;
2375430933777;-9.3784;1.7429;-2.2247;
2375441039246;-9.3808;1.7261;-2.2487;
2375451149454;-9.3712;1.7189;-2.2510;
2375461259663;-9.3688;1.7237;-2.2343;
2375471366069;-9.3784;1.7285;-2.2606;
2375481476277;-9.3688;1.7381;-2.2367;
2375491586433;-9.3760;1.7357;-2.2415;
2375501707840;-9.3855;1.7309;-2.2487;
2375511818100;-9.3760;1.7548;-2.2415;
2375521928308;-9.3616;1.7524;-2.2295;
2375532025027;-9.3760;1.7333;-2.2104;
2375542135236;-9.3688;1.7237;-2.2271;
2375552245444;-9.3855;1.7477;-2.2271;
2375562353413;-9.3855;1.7429;-2.2080;
2375572463621;-9.3784;1.7429;-2.2223;
2375582573829;-9.3951;1.7572;-2.2104;
2375592682996;-9.3927;1.7524;-2.2271;
2375602793152;-9.3855;1.7309;-2.2152;
2375612903361;-9.3879;1.7381;-2.1721;
2375622998465;-9.3903;1.7405;-2.1673;
2375633108569;-9.3879;1.7381;-2.1960;
2375643218829;-9.3879;1.7357;-2.1912;
2375653328986;-9.3879;1.7524;-2.2319;
2375663440913;-9.3664;1.7477;-2.2319;
2375673551069;-9.3784;1.7548;-2.2271;
2375683661277;-9.4167;1.7788;-2.1984;
2375693770131;-9.3784;1.7764;-2.2008;
2375703880340;-9.3616;1.7668;-2.1912;
2375713990548;-9.3712;1.7453;-2.1984;
2375724112579;-9.3784;1.6974;-2.2128;
2375734222736;-9.3808;1.7094;-2.2367;
2375744332944;-9.3879;1.7070;-2.2104;
2375754465444;-9.4023;1.7070;-2.2295;
2375764575652;-9.4023;1.7285;-2.2223;
2375774685861;-9.3975;1.7381;-2.2271;
2375784761017;-9.3664;1.7477;-2.2008;
2375794871173;-9.3616;1.7548;-2.1625;
2375804981433;-9.3664;1.7836;-2.1960;
2375815127788;-9.3784;1.7931;-2.2271;
2375825237996;-9.3808;1.7859;-2.2343;
2375835348204;-9.3712;1.7955;-2.2439;
2375845457371;-9.3688;1.7620;-2.2223;
2375855567527;-9.3879;1.7620;-2.2104;
2375865677736;-9.3760;1.7668;-2.2726;
2375875754871;-9.3616;1.7501;-2.2104;
2375885865079;-9.3855;1.7692;-2.2032;
2375895975288;-9.3760;1.7309;-2.2008;
2375906099767;-9.3760;1.5849;-2.0282;
2375916209975;-9.4334;1.7668;-2.8211;
2375926320183;-9.4358;2.0279;-2.7254;
2375936426017;-9.2803;1.9202;-1.8918;
2375946536225;-9.3305;1.8437;-1.9445;
2375956646433;-9.3257;1.6639;-1.8129;
2375966762058;-9.3736;1.6304;-2.0234;
2375976872215;-9.4956;1.5344;-2.3758;
2375986982475;-9.5605;1.2975;-2.6082;
2375997076902;-9.4621;1.1991;-2.7159;
2376007187111;-9.2584;1.0986;-2.4356;
2376017297319;-9.1843;1.1106;-2.2223;
2376027423933;-9.3162;1.1249;-2.1242;
2376037534142;-9.4645;1.1536;-2.0282;
2376047644298;-9.5486;1.2517;-2.0521;
2376057754506;-9.5845;1.3430;-2.2343;
2376067884767;-9.4884;1.3860;-2.2654;
2376077994975;-9.3616;1.4148;-2.2534;
