Sensor: bmi160 Accelerometer Non-wakeup
Vendor: BOSCH
TimestampAcc [ns]; AccX [m/s^2]; AccY [m/s^2]; AccZ [m/s^2]
3979786511911627;-9.5725;0.2722;-1.9804;
3979786522039596;-9.5414;0.2506;-1.9636;
3979786532128502;-9.5581;0.2530;-1.9540;
3979786542245429;-9.5701;0.4181;-2.0282;
3979786552368189;-9.5342;0.6745;-2.2271;
3979786562485117;-9.4980;0.6649;-2.1697;
3979786572606002;-9.5390;0.6769;-2.1147;
3979786582712877;-9.5557;0.6649;-1.9588;
3979786592813294;-9.5342;0.6793;-1.9229;
3979786602913294;-9.5267;0.7104;-2.0330;
3979786613016731;-9.5195;0.6625;-2.1218;
3979786623110794;-9.5243;0.6051;-2.1888;
3979786633194179;-9.5366;0.6099;-2.1960;
3979786643334387;-9.5291;0.6482;-2.1123;
3979786653431471;-9.5486;0.6625;-2.0163;
3979786663529439;-9.5557;0.6386;-1.9708;
3979786673640585;-9.5366;0.6458;-2.0019;
3979786683741210;-9.5243;0.6817;-2.0668;
3979786693847617;-9.5342;0.6745;-2.1051;
3979786703960169;-9.5243;0.6266;-2.1218;
3979786714073814;-9.5557;0.6362;-2.0569;
3979786724163971;-9.5677;0.6769;-2.0378;
3979786734266887;-9.5629;0.6194;-1.9851;
3979786744370325;-9.5510;0.5979;-2.0569;
3979786754461627;-9.5342;0.6553;-2.1840;
3979786764569179;-9.4813;0.6864;-2.2582;
3979786774684492;-9.4765;0.6864;-2.2917;
3979786784778346;-9.5148;0.6817;-2.2056;
3979786794922564;-9.5414;0.6099;-2.0019;
3979786804995481;-9.5195;0.6769;-1.9636;
3979786815094544;-9.4717;0.7319;-2.0955;
3979786825204544;-9.4741;0.6673;-2.1984;
3979786835318189;-9.5076;0.6170;-2.3327;
3979786845408762;-9.5148;0.6434;-2.4021;
3979786855512356;-9.4860;0.6745;-2.3228;
3979786865615637;-9.4717;0.7247;-2.1912;
3979786875729231;-9.4717;0.7128;-2.1434;
3979786885844804;-9.5052;0.7032;-2.1362;
3979786895941262;-9.5219;0.6147;-2.1482;
3979786906043971;-9.5438;0.5429;-2.2008;
3979786916165273;-9.5148;0.5166;-2.3518;
3979786926246523;-9.4358;0.3583;-2.4930;
3979786936354648;-9.5195;0.3129;-2.3830;
3979786946464908;-9.5462;0.2291;-2.1912;
3979786956555689;-9.5581;0.2148;-2.0258;
3979786966663033;-9.5605;0.2650;-2.0740;
3979786976771523;-9.5148;0.2626;-2.2295;
3979786986879023;-9.4860;0.2028;-2.4021;
3979786996989127;-9.4860;0.1475;-2.5457;
3979787007078189;-9.5243;0.0924;-2.4811;
3979787017190169;-9.5462;-0.0368;-2.3614;
3979787027292877;-9.5557;-0.1950;-2.2654;
3979787037406575;-9.5462;-0.2979;-2.2463;
3979787047503137;-9.6443;-0.3652;-2.2917;
3979787057605533;-9.6897;-0.3290;-2.2463;
3979787067719283;-9.6754;-0.2524;-2.2726;
3979787077816314;-9.6203;-0.1041;-2.2295;
3979787087907148;-9.5701;0.0565;-2.1817;
3979787098027564;-9.5940;0.1092;-2.0426;
3979787108183033;-9.5773;0.1475;-1.9995;
3979787118242564;-9.5414;0.2578;-2.2104;
3979787128340273;-9.4789;0.4469;-2.3782;
3979787138446523;-9.4262;0.6362;-2.4332;
3979787148574908;-9.4406;0.8471;-2.1984;
3979787158651210;-9.4860;0.9811;-1.8344;
3979787168792825;-9.5510;0.8471;-1.7025;
3979787178908814;-9.5414;1.2685;-2.1721;
3979787188975064;-9.5172;1.3525;-1.8894;
3979787199073919;-9.4908;1.3669;-2.0186;
3979787209182981;-9.4119;1.4961;-2.0282;
3979787219294127;-9.3903;1.6113;-1.9971;
3979787229412773;-9.4286;1.3932;-2.1505;
3979787239509075;-9.5821;1.3358;-1.9134;
3979787249608294;-9.5533;1.0938;-1.8583;
3979787259708867;-9.5291;0.7585;-2.0859;
3979787269805429;-9.4813;0.5405;-1.9851;
3979787279913294;-9.4382;0.3583;-1.9421;
3979787290045742;-9.5916;0.3105;-2.1912;
3979787300137096;-9.5845;0.2698;-2.3204;
3979787310235221;-9.4095;0.1307;-2.1290;
3979787320339700;-9.4119;0.0661;-2.0907;
3979787330447721;-9.3018;0.0230;-2.1099;
3979787340547200;-9.3138;0.3296;-2.3782;
3979787350654544;-9.5028;0.0517;-2.0859;
3979787360768346;-9.6060;-0.3580;-1.8655;
3979787370864075;-9.5172;-0.6550;-2.1434;
3979787380937669;-9.2297;-0.5782;-2.5241;
3979787391082096;-9.2369;-0.4155;-2.7135;
3979787401190429;-9.5052;-0.3963;-2.8427;
3979787411289283;-9.6108;-0.4442;-2.7637;
3979787421389596;-9.6251;-0.7125;-2.8379;
3979787431504908;-9.4047;-0.8082;-3.5040;
3979787441605325;-8.8298;-0.1017;-3.9664;
3979787451707044;-8.6501;1.0914;-3.9568;
3979787461812721;-8.9207;1.5873;-3.6571;
3979787471920533;-9.3066;1.2760;-3.0966;
3979787482004752;-9.4813;0.8853;-2.6321;
3979787492115585;-9.0885;0.6362;-2.9195;
3979787502227408;-8.7891;0.8853;-4.1650;
3979787512328502;-8.3148;2.1622;-6.7451;
3979787522436783;-7.8069;3.0054;-7.8996;
3979787532534283;-8.8466;1.5873;-4.9388;
3979787542637252;-10.4109;0.1714;-1.8894;
3979787552745221;-10.1258;0.1522;-0.7899;
3979787562854387;-9.3903;0.8925;-1.5876;
3979787572956158;-9.1555;1.5897;-2.6824;
3979787583057252;-8.7194;1.9346;-3.4848;
3979787593161106;-8.7844;2.2340;-4.7569;
3979787603267044;-8.6357;2.1837;-5.4682;
3979787613377825;-8.9638;2.2388;-5.4993;
3979787623480221;-9.9102;2.6076;-4.8000;
3979787633573502;-8.9279;2.2149;-3.5830;
3979787643693710;-8.1039;1.8051;-3.9039;
3979787653780481;-8.2382;2.2125;-4.1100;
3979787663897617;-8.2119;2.2675;-3.0703;
3979787674002408;-8.3315;1.9466;-3.7484;
3979787684108762;-9.2874;1.8197;-5.8011;
3979787694217721;-11.1823;2.1335;-5.7413;
3979787704321367;-11.8816;3.0269;-3.2070;
3979787714421627;-7.4596;3.1947;-1.3481;
3979787724525169;-5.9504;2.1885;-3.8417;
3979787734631679;-10.6098;1.7716;-7.2984;
3979787744729439;-10.6170;1.7237;-5.5834;
3979787754834544;-7.7040;1.1943;-3.1902;
3979787764951679;-9.4190;1.1632;-4.4791;
3979787775045585;-10.3149;1.0507;-3.1134;
3979787785149439;-6.4343;1.3502;-0.2940;
3979787795286575;-4.6161;1.1824;-0.3156;
3979787805361210;-7.8571;0.6769;-3.2477;
3979787815469544;-13.4937;2.0351;-7.7656;
3979787825565689;-13.0026;2.5334;-6.8842;
3979787835667773;-9.4549;2.3034;-5.9737;
3979787845770012;-5.7996;2.7419;-6.1439;
3979787855883919;-4.8772;1.8532;-4.3232;
3979787866006210;-8.2047;1.4746;-3.5016;
3979787876113814;-9.1771;1.0149;-2.8427;
3979787886214596;-12.0565;1.5296;-4.3878;
3979787896313450;-11.4529;1.4770;-4.4118;
3979787906413137;-8.0608;0.8997;-3.1807;
3979787916508710;-8.0967;0.2961;-3.4537;
3979787926624804;-8.8179;0.5142;-6.4481;
3979787936731887;-8.8944;0.5620;-6.3978;
3979787946827877;-9.3185;0.1786;-2.6991;
3979787956940950;-9.7065;-0.2955;-1.3241;
3979787967044283;-9.0694;-0.2788;-2.7111;
3979787977133762;-9.9748;0.0206;-3.5853;
3979787987238502;-10.2263;-0.7460;-0.9120;
3979787997353137;-6.5061;-1.3065;0.7217;
3979788007449700;-3.9069;0.8518;-5.2358;
3979788017581471;-9.7448;2.0518;-10.6041;
3979788027726627;-12.4182;2.1503;-8.1200;
3979788037780585;-11.8744;0.2698;-2.1697;
3979788047856314;-10.5712;-0.3437;-0.8833;
3979788057994804;-8.2095;0.7295;-1.6594;
3979788068082669;-8.1350;1.3836;-1.3313;
3979788078202773;-6.8222;0.7944;-2.5265;
3979788088306367;-9.7280;0.9404;-8.2567;
3979788098395064;-11.7739;0.3727;-8.3716;
3979788108488033;-9.4621;-0.1041;-2.3782;
3979788118612981;-4.9971;1.7501;-1.5733;
3979788128743919;-7.9795;2.5095;-5.4921;
3979788138847773;-8.6931;1.8389;-5.7485;
3979788148950481;-8.7556;2.3946;-3.2524;
3979788159030742;-6.5874;3.5133;-2.9195;
3979788169159127;-9.0814;3.6811;-5.2863;
3979788179227669;-13.1154;3.3694;-3.8369;
3979788189351835;-6.3191;4.4043;-3.1735;
3979788199450117;-9.0646;2.0734;-10.3887;
3979788209547877;-12.9667;3.3909;-6.4935;
3979788219651419;-5.5071;5.6333;5.2899;
3979788229759752;-4.2449;3.9467;1.0307;
3979788239883814;-12.9858;2.3225;-5.2071;
3979788249959335;-14.3659;3.7122;-2.7159;
3979788260096523;-7.8811;4.8619;-1.5589;
3979788270182721;-8.3387;4.8643;-6.0096;
3979788280287408;-10.6792;4.2030;-4.4982;
3979788290389127;-8.0895;3.8031;0.4223;
3979788300496367;-5.5481;3.3790;-0.7804;
3979788310600273;-9.6538;2.9982;-2.5839;
3979788320702044;-10.9762;3.3885;-0.4376;
3979788330805377;-12.0733;2.9599;0.3721;
3979788340909752;-9.9126;2.6390;-1.9158;
3979788351024387;-9.3640;1.3573;-0.9646;
3979788361133554;-8.5304;0.2028;-2.4523;
3979788371235533;-9.9820;-2.2935;-2.1290;
3979788381326002;-14.1742;-3.9009;-0.6963;
3979788391446992;-12.5596;-3.6422;0.6739;
3979788401546471;-9.1531;-4.0469;1.2105;
3979788411648137;-9.6060;-2.7054;-1.0869;
3979788421760637;-8.9207;-2.5020;0.4319;
3979788431859075;-7.4333;-2.1449;0.8967;
3979788441970794;-7.9771;-1.4480;-3.0655;
3979788452084700;-12.8423;-1.5413;-2.6297;
3979788462170637;-14.2149;-1.8000;0.5898;
3979788472286054;-8.5759;-0.2979;-1.2595;
3979788482376314;-5.6557;-1.2969;-5.1114;
3979788492483346;-10.6624;-2.4467;-5.9282;
3979788502588033;-8.6764;-3.1678;-2.1912;
3979788512720637;-5.3444;-1.9172;-3.3099;
3979788522800325;-14.3321;-1.3783;-6.8961;
3979788532902981;-11.3234;-1.7282;-1.4318;
3979788543004439;-5.4855;-1.1195;-1.5350;
3979788553108606;-16.5841;0.6960;-3.7723;
3979788563216627;-10.8515;0.6410;2.4488;
3979788573317408;-5.2989;1.0555;0.5252;
3979788583420585;-13.5802;1.6926;-5.2047;
3979788593528814;-10.8948;-0.0778;-1.3457;
3979788603635377;0.3305;0.3368;-2.9626;
3979788613741887;-0.9775;0.4110;-10.7312;
3979788623857512;-8.1637;0.5788;-9.9718;
3979788633954387;-12.0924;1.3214;-6.3233;
3979788644052929;-12.6434;2.7706;-8.1129;
3979788654156002;-16.4880;2.2579;-5.6527;
3979788664265169;-8.7099;1.6831;0.1995;
3979788674372252;-2.4936;1.1297;0.3383;
3979788684479335;-12.0900;0.9117;-2.2104;
3979788694580273;-10.1833;0.9045;0.8824;
3979788704687356;-1.3678;1.4219;-1.6714;
3979788714794439;-11.8600;2.3611;-8.4867;
3979788724896314;-12.4684;2.4449;-6.2252;
3979788735003398;-5.5481;2.4616;-6.8049;
3979788745110481;-9.9724;3.0748;-12.6428;
3979788755189648;-11.6109;2.0880;-8.4697;
3979788765296731;-6.6787;0.2483;-3.5806;
3979788775403814;-8.2573;1.2760;-4.9651;
3979788785519335;-9.4813;1.1752;-3.1038;
3979788795626419;-13.5802;0.7968;-2.8884;
3979788805733502;-7.9579;-0.3266;-0.1190;
3979788815833398;-2.5295;0.4783;-4.3304;
3979788825940481;-11.1918;3.8007;-8.8579;
3979788836047564;-14.5214;2.1981;-1.4007;
3979788846167252;-3.8877;2.2962;-3.1783;
3979788856274335;-4.5371;3.1588;-13.4907;
3979788866381419;-12.1905;1.9705;-10.5084;
3979788876488033;-12.3894;0.9236;1.6920;
3979788886595117;-5.1479;0.4759;3.4286;
3979788896702200;-4.5826;3.1851;-6.7642;
3979788906780637;-12.8662;2.7395;-11.3181;
3979788916887721;-11.5893;0.8279;-2.1242;
3979788926994804;-8.1975;-0.0416;0.8871;
3979788937090794;-9.6275;1.5395;-2.5576;
3979788947197877;-12.4253;1.0101;-4.2203;
3979788957304960;-11.2636;1.0026;-2.8211;
3979788967396523;-6.9302;-0.1663;-2.1936;
3979788977503606;-7.8284;0.2291;-5.4251;
3979788987610689;-10.3077;0.2363;-2.3518;
3979788997744804;-3.4065;-0.7579;1.6223;
3979789007851887;-4.9442;0.2315;-3.9760;
3979789017958971;-11.2684;-0.2237;-6.0936;
3979789028030898;-15.8246;0.9069;-3.1158;
3979789038137981;-12.7825;0.3200;0.4845;
3979789048245064;-6.7098;1.3573;2.0082;
3979789058345273;-6.4702;0.0159;0.8557;
3979789068452356;-10.9977;0.2889;-0.7947;
3979789078559439;-13.6280;-0.1256;-2.3518;
3979789088652981;-11.6949;-0.5016;0.7193;
3979789098760064;-5.5911;-1.5963;1.1865;
3979789108867148;-4.8197;-1.8000;-1.1898;
3979789118988710;-8.6572;-0.5088;-2.2798;
3979789129095742;-14.7443;-0.1831;-0.1478;
3979789139202825;-13.6807;0.4038;2.3554;
3979789149309908;-8.5472;0.7199;0.8055;
3979789159403294;-8.2956;2.2412;-0.3538;
3979789169510377;-12.9811;1.2111;2.1087;
3979789179617460;-9.7304;-0.0009;1.5936;
3979789189749960;-11.5391;0.7128;-0.9191;
3979789199857044;-12.6075;0.2100;1.0953;
3979789209964127;-6.4104;0.4564;-0.2079;
3979789220025377;-9.3520;0.0159;-2.0883;
3979789230132460;-12.4684;-0.3242;-2.6512;
3979789240239544;-13.1608;-0.0873;-1.6714;
3979789250333398;-8.5113;-0.6311;-0.9215;
3979789260440481;-8.5304;-0.0655;-2.6369;
3979789270547564;-10.3750;-0.6909;-1.0678;
3979789280656731;-8.1589;-1.0334;-1.1970;
3979789290763814;-8.7075;-0.8249;-3.0583;
3979789300870898;-11.5678;-1.5437;-2.7063;
3979789310969752;-10.5999;-1.1076;-2.7446;
3979789321076835;-7.8882;-0.5016;-3.3386;
3979789331183919;-11.5750;-1.6322;-4.1291;
3979789341288085;-10.1713;-2.0276;-2.9530;
3979789351395169;-7.6609;-2.3007;-1.5661;
3979789361502252;-9.8527;-2.2816;-2.7135;
3979789371612200;-9.9461;-1.3352;-1.2858;
3979789381719283;-7.4189;-0.8417;-0.7875;
3979789391826367;-9.9197;-0.2094;-4.2730;
3979789401914231;-11.0767;-0.0682;-2.9770;
3979789412021314;-8.5161;-0.1735;-3.8871;
3979789422128398;-9.0550;0.3751;-5.3557;
3979789432232252;-9.8192;0.0422;-5.2792;
3979789442339335;-9.8719;0.2195;-4.5843;
3979789452446419;-6.3096;-0.4753;-3.2501;
3979789462551054;-9.3736;0.1666;-5.0204;
3979789472658137;-10.8036;0.7247;-3.1496;
3979789482765221;-9.9915;0.4684;-3.3242;
3979789492861627;-9.0024;0.1977;-2.9841;
3979789502968710;-7.6944;-0.2237;-2.2606;
3979789513075794;-10.4563;0.5142;-5.7389;
3979789523171887;-10.6624;1.1201;-5.0133;
3979789533278971;-8.8274;0.5764;-4.2347;
3979789543386054;-7.7375;0.7585;-3.6069;
3979789553485637;-8.9183;0.1953;-4.3519;
3979789563592721;-8.4081;1.4004;-4.6107;
3979789573699804;-11.1512;1.6208;-4.3902;
3979789583798814;-9.9963;2.1861;-4.3831;
3979789593905898;-9.3473;1.5296;-3.4011;
3979789604012981;-8.6501;2.3058;-2.3734;
3979789614113502;-7.9170;2.3659;-1.6475;
3979789624220585;-8.7700;2.7993;-4.5532;
3979789634327669;-10.0708;3.4439;-3.9951;
3979789644426002;-7.5434;3.1131;-3.4322;
3979789654533085;-8.2262;3.2521;-3.5638;
3979789664640169;-9.7472;2.7706;-4.3424;
3979789674703294;-10.7725;2.9982;-3.1615;
3979789684810377;-9.2656;2.9169;-1.9277;
3979789694917460;-7.2512;3.0963;-1.7503;
3979789705058554;-9.9245;2.3611;-1.6786;
3979789715165637;-9.9389;1.2951;-0.1454;
3979789725272721;-9.0479;0.7705;-0.0377;
3979789735368294;-8.2167;0.8590;-1.4318;
3979789745475377;-10.0732;1.3406;-3.8321;
3979789755582460;-12.5883;1.2326;-2.7805;
3979789765682721;-9.1005;0.2100;0.3431;
3979789775789804;-5.9121;-0.1113;-0.7349;
3979789785896887;-11.1870;-0.7125;-1.6403;
3979789796020533;-10.1809;-0.5638;-0.8521;
3979789806127617;-9.7902;-0.5518;-0.8928;
3979789816234700;-7.8500;-0.6072;-1.4222;
3979789826337669;-10.1091;-0.9832;-3.1831;
3979789836444752;-12.6793;-0.5112;-1.0008;
3979789846551835;-10.3750;-0.6263;-0.1023;
3979789856628502;-9.3233;-0.4370;-1.0510;
3979789866735585;-12.3559;-1.2538;-1.2544;
3979789876842669;-10.9762;-0.6287;-0.3634;
3979789886952460;-10.9546;-1.0908;-0.1334;
3979789897059544;-9.4430;-0.5279;-0.6341;
3979789907166627;-9.2632;0.0876;-0.7035;
3979789917253606;-9.9724;-0.5734;-0.7202;
3979789927360689;-6.8246;-0.1735;-2.8475;
3979789937467773;-10.1737;-0.8850;-5.2382;
3979789947581054;-8.2262;0.0111;-2.6201;
3979789957682096;-7.9651;-0.2979;-3.2907;
3979789967789179;-11.9632;-0.9209;-3.7579;
3979789977896262;-9.8815;-1.5126;-0.5288;
3979789987997356;-10.4300;-1.4360;0.8222;
3979789998104439;-10.3125;-1.1653;1.5410;
3979790008211523;-8.2717;-0.5303;-0.6772;
3979790018349544;-9.5004;-0.8154;-1.8464;
3979790028456627;-9.2489;-1.3065;-2.1338;
3979790038563710;-11.2516;0.0757;-4.0167;
3979790048633814;-9.0574;0.5429;-1.1372;
3979790058740898;-8.4873;-0.4370;-1.0415;
3979790068847981;-10.9355;0.5812;-3.4322;
3979790078943658;-8.8561;0.3775;-3.2524;
3979790089050742;-9.7519;0.1211;-2.2199;
3979790099157825;-8.5591;0.9165;-1.4749;
3979790109239544;-10.7366;0.6027;-2.2750;
3979790119346627;-9.1819;0.9165;-0.7421;
3979790129453710;-8.3052;-0.4059;-2.5744;
3979790139554335;-10.7773;-1.3926;-5.8083;
3979790149661419;-7.1216;-0.7244;-1.7985;
3979790159768502;-9.6754;-0.6646;-1.6140;
3979790169865585;-12.2435;-0.1184;-2.4547;
3979790179972669;-8.7389;-0.7747;-1.0750;
3979790190079752;-8.4778;-0.8898;-2.3734;
3979790200176627;-8.0178;-0.0802;-3.6380;
3979790210283710;-11.8481;0.2148;-4.5652;
3979790220390794;-9.5916;0.7104;-3.7029;
3979790230499960;-7.8811;0.3990;-3.7795;
3979790240607044;-10.2024;0.0661;-4.0693;
3979790250714127;-8.8777;0.9715;-3.9664;
3979790260822721;-9.7591;-0.1448;-3.5973;
3979790270929804;-10.1928;0.7681;-2.0426;
3979790281036887;-8.4559;0.7466;-2.0740;
3979790291126731;-11.2134;0.0661;-1.9851;
3979790301233814;-7.3636;0.7537;-1.4725;
3979790311340898;-9.5195;0.4325;-1.5350;
3979790321442669;-7.2320;0.7729;-1.4629;
3979790331549752;-8.9853;0.3081;-4.3567;
3979790341656835;-12.3655;1.0316;-3.6790;
3979790351755169;-7.5242;1.2350;-1.6092;
3979790361862252;-9.8934;-0.1017;-2.3495;
3979790371969335;-12.6721;0.8830;-1.3911;
3979790382085169;-11.6372;0.7729;0.8366;
3979790392192200;-8.2358;0.6123;1.5697;
3979790402299283;-4.4483;-0.4705;-2.2319;
3979790412394544;-12.3703;1.0484;-4.3878;
3979790422501627;-9.9341;1.8003;-2.6489;
3979790432608710;-12.5979;1.0244;-3.6284;
3979790442708398;-7.7231;1.9848;-0.4137;
3979790452815481;-6.2833;2.1814;-1.2667;
3979790462922564;-13.7357;0.9117;-2.1147;
3979790473016419;-7.6944;1.7189;0.0030;
3979790483123502;-9.6323;0.8901;-1.2257;
3979790493230585;-13.0723;0.7104;-0.9024;
3979790503335898;-6.5779;1.5105;-0.0018;
3979790513442981;-10.0250;0.5692;-2.8908;
3979790523550064;-10.5018;1.7524;-1.6738;
3979790533638085;-7.7638;0.9715;-1.6235;
3979790543745169;-12.4349;1.2637;-2.6010;
3979790553852252;-8.1111;2.1120;-0.7226;
3979790563961419;-6.3888;1.0388;-1.6307;
3979790574068502;-11.1942;1.2832;-2.4021;
3979790584175585;-8.8609;2.2579;-2.3037;
3979790594345794;-11.1365;1.8365;-2.3109;
3979790604452877;-9.1125;2.3249;-0.6772;
3979790614559960;-7.1145;1.8843;-1.1180;
3979790624592564;-12.6888;1.2927;-1.7097;
3979790634699648;-8.4200;2.2101;-0.4376;
3979790644806731;-7.5171;1.8102;-2.2080;
3979790654905898;-12.0709;1.0771;-2.1697;
3979790665012981;-9.5342;2.1048;-0.9455;
3979790675120064;-9.7902;1.5897;-1.8344;
3979790685230585;-11.4314;1.9274;-0.9335;
3979790695337669;-7.8236;1.7668;0.0293;
3979790705444752;-10.0899;1.4722;-2.1745;
3979790715541835;-11.5223;2.0279;-1.1898;
3979790725648919;-7.7160;2.1239;-0.3419;
3979790735756002;-9.4286;1.5802;-1.9732;
3979790745844231;-8.6812;1.2832;-1.8846;
3979790755951314;-7.4357;1.3190;-3.1158;
3979790766058398;-10.1641;0.7271;-3.1205;
3979790776167877;-8.7532;0.3153;-1.8583;
3979790786274960;-7.7160;0.2913;-4.1650;
3979790796382044;-11.8337;-0.5710;-5.2502;
3979790806475064;-11.6806;-1.0693;-3.0846;
3979790816582148;-8.0632;-1.7163;-3.0057;
3979790826689231;-10.5664;-2.5929;-3.0009;
3979790836787981;-9.1579;-3.0123;-1.2930;
3979790846895064;-7.9265;-2.9186;-2.4500;
3979790857002148;-9.9102;-3.5465;-2.8020;
3979790867108294;-8.3530;-4.0062;-1.9062;
3979790877215377;-8.5591;-3.0024;-6.0622;
3979790887322460;-10.5090;-2.5690;-7.1524;
3979790897417564;-8.6931;-2.0396;-5.6025;
3979790907524648;-9.0598;-1.4815;-6.4816;
3979790917631731;-9.0814;-2.0803;-3.3553;
3979790927724231;-6.3458;-1.9415;-3.0368;
3979790937831314;-10.2981;-0.8345;-9.0520;
3979790947938398;-10.4204;-0.2046;-7.3678;
3979790958032512;-6.5324;-0.2883;-5.5400;
3979790968137564;-7.8571;-0.3075;-6.7259;
3979790978242617;-6.6165;-0.1783;-3.9039;
3979790988395169;-7.7686;-0.3628;-6.1750;
3979790998500273;-13.1010;0.3368;-7.9211;
3979791008605325;-7.3950;0.9428;-1.5541;
3979791018662877;-5.6438;-0.1615;-1.6666;
3979791028767981;-8.1015;1.3813;-7.4037;
3979791038873033;-7.4237;2.0833;-6.5844;
3979791048982877;-6.9111;1.6472;-5.8493;
3979791059087981;-10.5018;3.2115;-8.8436;
3979791069193033;-9.6515;4.2942;-6.3667;
3979791079306887;-5.7395;4.8930;-3.7699;
3979791089411992;-7.6080;3.7959;-8.1488;
3979791099517044;-8.6931;4.0427;-10.0866;
3979791109639752;-9.1484;2.9264;-6.0120;
3979791119744856;-7.2823;4.0283;-2.2367;
3979791129849908;-9.6299;4.4282;-4.1889;
3979791139926367;-10.1833;3.8629;-4.9077;
3979791150048137;-8.3172;4.0570;-4.3065;
3979791160153242;-5.1670;2.9910;-5.4443;
3979791170258294;-6.9446;0.9954;-6.2898;
3979791180362356;-7.8954;2.8184;-1.6140;
3979791190467460;-8.5017;4.8236;0.3383;
3979791200572512;-11.4625;3.5109;-1.4773;
3979791210665742;-12.6912;3.7265;0.0870;
3979791220770794;-8.5400;2.7754;1.3469;
3979791230875846;-8.7963;1.2063;-1.3241;
3979791240982356;-11.0743;1.5802;0.7146;
3979791251087460;-9.8527;1.9035;1.5003;
3979791261192512;-9.2850;2.2484;-0.8856;
3979791271295689;-10.9020;2.9910;-1.6259;
3979791281400742;-14.2699;3.6090;0.4343;
3979791291505794;-11.3569;3.4582;2.5352;
3979791301622460;-9.3401;2.6629;0.9446;
3979791311727564;-10.0202;1.9442;0.2474;
3979791321832617;-12.4062;1.0771;0.2306;
3979791331922096;-9.7496;0.5309;1.4357;
3979791342027148;-9.4645;-0.2500;-0.3084;
3979791352132200;-10.1713;-0.7866;-1.4725;
3979791362263085;-9.7137;-1.0908;-1.2882;
3979791372368189;-9.3066;-1.4503;-1.6977;
3979791382473242;-10.4228;-1.2562;-2.1194;
3979791392575637;-13.6735;-0.8154;-1.2568;
3979791402680742;-9.4286;-0.8803;0.0799;
3979791412785794;-8.2286;-1.3424;-1.9540;
3979791422872252;-9.8671;-1.1844;-2.0931;
3979791432977356;-9.4502;-1.0023;-1.0606;
3979791443082408;-10.8443;-0.2094;-2.4236;
3979791453192044;-9.5124;0.5788;-2.8908;
3979791463297148;-12.5142;1.5826;-4.5915;
3979791473402200;-15.7744;1.9250;-2.2271;
3979791483499231;-8.2837;1.7189;-0.5192;
3979791493604335;-0.5653;0.9260;-3.1062;
3979791503709387;-0.3808;1.4818;-7.3008;
3979791513827044;-12.5644;2.7467;-5.4371;
3979791523932148;-12.9404;2.8639;-1.5350;
3979791534037200;-12.0589;2.6052;-3.1014;
3979791544125689;-10.4539;1.7955;-3.6547;
3979791554230794;-9.3162;1.2736;-3.4561;
3979791564335846;-6.5037;0.4831;-2.1769;
3979791574437200;-6.5779;1.1201;-3.5160;
3979791584542252;-9.2850;1.7716;-4.1722;
3979791594647304;-8.4464;3.2785;-3.9425;
3979791604751627;-12.3177;3.0461;-6.1104;
3979791614856731;-11.3761;2.1670;-2.8116;
3979791624961783;-6.5949;1.6543;-3.0057;
3979791635097200;-5.8164;1.1560;-4.1076;
3979791645202304;-8.8179;1.1608;-5.4347;
3979791655307356;-10.2096;1.4674;-4.3687;
3979791665373762;-8.0273;1.1010;-3.3003;
3979791675478814;-5.3755;1.2879;-4.8933;
3979791685583867;-9.1747;0.6769;-7.6098;
3979791695706939;-11.9294;0.7992;-4.9579;
3979791705812044;-7.5649;0.0470;-3.8680;
3979791715917096;-8.5735;0.4469;-4.9196;
3979791726018398;-8.9901;-1.0478;-3.8177;
3979791736123502;-8.0465;-0.4298;-3.4466;
3979791746228554;-8.0776;-0.5997;-3.3075;
3979791756352877;-8.6596;-0.1783;-5.6791;
3979791766457981;-10.2933;-0.3413;-6.7834;
3979791776563033;-10.7127;0.6218;-5.9713;
3979791786642877;-7.5769;-0.5423;-5.9282;
3979791796747981;-7.1049;0.3200;-5.4156;
3979791806853033;-9.7854;-0.1352;-6.3763;
3979791816954804;-8.4634;0.3583;-2.2558;
3979791827059908;-6.4606;-0.8731;-4.5676;
3979791837164960;-10.8371;-0.6024;-5.6575;
3979791847261262;-12.3847;-0.5518;-4.4791;
3979791857366314;-9.1747;-0.5877;-3.2931;
3979791867471419;-7.9531;-0.6287;-2.4787;
3979791877601471;-8.7652;-2.0133;-4.2849;
3979791887706523;-10.2742;-0.8369;-4.2730;
3979791897811575;-9.8910;-0.1280;-3.9927;
3979791907892929;-7.5290;-0.0802;-4.3184;
3979791917997981;-7.5984;-0.8201;-5.3486;
3979791928103085;-7.6415;-1.2419;-4.6202;
3979791938224023;-9.9365;-1.9005;-3.4298;
3979791948329127;-9.9700;-1.0238;-3.1134;
3979791958434179;-11.3545;-0.9185;-1.5278;
3979791968511106;-10.5497;0.1427;-1.9564;
3979791978616210;-9.6873;0.2770;-1.1850;
3979791988721262;-9.3401;0.2937;-1.4749;
3979791998828346;-9.4406;0.8160;-3.4059;
3979792008933398;-8.9662;-0.0057;-3.0153;
3979792019038450;-9.4454;0.9715;-4.8885;
3979792029171106;-10.2239;-0.1113;-3.2524;
3979792039276210;-6.7385;0.7705;-2.7709;
3979792049381262;-7.5099;0.7992;-3.6165;
3979792059484127;-10.8323;0.3057;-4.0980;
3979792069589231;-11.9991;1.7596;-2.2487;
3979792079694283;-8.7676;1.0268;-2.0931;
3979792089819648;-7.1818;1.0002;-3.5518;
3979792099924752;-11.8648;0.8830;-3.1062;
3979792110029804;-9.6562;1.4770;-1.6522;
3979792120097512;-5.3252;2.3321;-3.2836;
3979792130202564;-9.8025;1.7405;-5.6360;
3979792140307617;-13.0460;3.3359;-4.6274;
3979792150415117;-8.1948;2.4066;-1.7169;
3979792160519908;-5.1168;2.2986;-3.7723;
3979792170624700;-11.0886;1.9944;-3.9449;
3979792180728762;-9.3927;1.1967;-1.5924;
3979792190833554;-6.2737;2.6940;-3.8991;
3979792200938346;-11.8840;1.2637;-4.4213;
3979792211042721;-10.0274;1.8628;-3.4657;
3979792221147512;-6.7409;1.0196;-3.0990;
3979792231252304;-9.0981;0.0781;-4.5843;
3979792241359492;-8.3937;1.2879;-4.8431;
3979792251464283;-8.4296;1.1608;-6.1439;
3979792261569075;-11.4817;1.5562;-5.2023;
3979792271673971;-9.4789;1.2975;-1.2281;
3979792281778762;-6.7696;0.4878;-3.3338;
3979792291883554;-8.2525;0.0326;-4.6705;
3979792301993658;-10.9666;0.1618;-3.8345;
3979792312098450;-9.7711;0.0015;-3.7244;
3979792322203242;-9.2106;-0.0057;-3.5638;
3979792332299387;-7.6152;-0.7125;-5.4084;
3979792342404179;-6.8871;-0.4609;-6.9846;
3979792352508971;-7.4261;-1.0621;-5.4778;
3979792362617304;-13.6783;-0.9329;-6.0431;
3979792372722044;-13.2470;-0.5638;-1.1635;
3979792382826835;-3.5046;-0.9855;-0.1167;
3979792392948033;-7.7542;-1.6971;-4.9125;
3979792403052825;-13.2398;-1.9292;-4.1650;
3979792413157617;-9.1149;-0.9281;-1.8392;
3979792423251887;-5.4592;-1.9388;-4.0597;
3979792433356679;-11.3498;-2.4757;-7.1788;
3979792443461471;-10.9881;-1.9439;-2.8283;
3979792453563606;-6.9446;-1.5173;-3.5662;
3979792463668398;-10.4013;-1.1390;-4.3854;
3979792473773189;-9.5390;-1.8287;-4.3519;
3979792483879856;-9.0096;-1.5628;-2.0450;
3979792493984648;-6.3601;-1.8407;-3.0105;
3979792504089439;-11.6973;-1.6274;-3.7388;
3979792514231887;-9.6012;-1.1267;-2.5768;
3979792524336679;-7.3540;-0.0009;-2.8932;
3979792534441419;-10.6863;-1.5197;-5.5113;
3979792544498450;-9.4741;-0.0802;-3.5183;
3979792554603189;-7.6558;0.5453;-3.8895;
3979792564708033;-12.9787;-0.2477;-3.4705;
3979792574816158;-10.3678;-0.6263;-0.9048;
3979792584920898;-5.4473;-0.3652;-1.0822;
3979792595025689;-7.0187;0.1235;-5.6384;
3979792605125794;-10.5066;-0.5949;-7.2936;
3979792615230637;-10.1880;-0.0200;-5.5451;
3979792625344960;-8.3530;1.0125;-3.3075;
3979792635449752;-9.0455;0.2076;-3.0320;
3979792645554544;-7.5793;0.1307;-3.3290;
3979792655662304;-8.9853;0.6027;-3.4537;
3979792665767096;-10.0035;0.7705;-3.5088;
3979792675871835;-10.5736;1.4818;-3.4681;
3979792685970273;-10.1785;1.3525;-2.8355;
3979792696075064;-7.1913;1.0340;-1.0152;
3979792706179856;-7.2344;0.6410;-2.3276;
3979792716304023;-9.4358;1.1417;-3.6766;
3979792726408867;-10.1928;1.4865;-4.3280;
3979792736513658;-10.2550;2.0016;-4.8885;
3979792746590169;-6.9996;1.4865;-3.1831;
3979792756694960;-9.0909;1.6376;-5.1138;
3979792766799804;-10.3367;1.4865;-3.8656;
3979792776904231;-9.8599;2.0160;-2.0043;
3979792787009075;-8.9758;1.4219;-3.6476;
3979792797113867;-10.3534;1.5344;-3.5088;
3979792807216835;-10.3149;1.3286;-1.0822;
3979792817321627;-6.5779;0.9882;-1.5541;
3979792827426471;-8.1999;0.9835;-3.1567;
3979792837565742;-10.6457;1.2230;-4.7856;
3979792847670533;-8.4778;1.0149;-4.3926;
3979792857775325;-7.0953;0.9045;-4.4572;
3979792867846471;-10.6217;1.3717;-4.5030;
3979792877951262;-9.5414;1.4387;-2.7063;
3979792888056002;-8.5591;0.2315;-1.8105;
3979792898140273;-7.9747;0.0852;-3.3697;
3979792908245117;-10.7414;0.8279;-2.9148;
3979792918349856;-10.3391;0.1929;-2.0474;
3979792928473606;-7.4836;-0.3556;-3.0248;
3979792938578398;1.3247;0.2363;-5.4730;
3979792948683189;-0.9030;1.1130;-9.9191;
3979792958828085;-30.2001;2.2866;-7.9813;
3979792968932877;-24.6592;2.1335;1.9504;
3979792979037721;-3.1597;0.3799;6.8255;
3979792989135273;-0.7881;-2.2768;3.4502;
3979792999240064;-10.8491;-2.5307;-3.0081;
3979793009344856;-12.1403;-0.3290;-7.7225;
3979793019438502;-9.5486;0.5859;-8.8938;
3979793029543294;-6.2617;1.2760;-5.0827;
3979793039648085;-2.9201;1.0026;-6.0622;
3979793049757669;-7.6896;1.0675;-6.2324;
3979793059862460;-9.9820;1.4052;-5.3749;
3979793069967252;-8.9255;0.8925;-3.3577;
3979793080048189;-7.6056;-0.8249;-2.2175;
3979793090152981;-8.4129;-1.4743;-4.2251;
3979793100257773;-11.2684;-0.6933;-2.0716;
3979793110364804;-8.8274;-0.3652;-3.0153;
3979793120469648;-7.7638;-0.3820;-4.1794;
3979793130574439;-11.3880;-0.5160;-5.3294;
3979793140693606;-10.7270;0.6051;4.5066;
3979793150798398;-1.2745;-0.4155;5.2947;
3979793160903189;-8.3507;-1.0525;-15.8432;
3979793171012512;-18.9532;1.3238;-20.5433;
3979793181117304;-8.8992;5.7314;-2.1577;
3979793191222096;-3.1238;2.7730;-0.7516;
3979793201308867;-8.4057;0.0829;-2.5457;
3979793211413658;-13.9657;2.3970;-1.9349;
3979793221518450;-12.7849;2.1048;-0.0185;
3979793231615794;-8.1374;0.9284;3.2847;
3979793241720585;-8.9877;-0.5973;-0.5073;
3979793251825429;-11.9776;-0.3266;0.6428;
3979793261940429;-7.3110;-0.3099;-1.1539;
3979793272045169;-7.3373;0.5142;-5.4514;
3979793282150012;-9.4597;1.5897;-5.5041;
3979793292248814;-7.2918;1.8102;-5.3031;
3979793302353658;-10.0899;1.8102;-5.7150;
3979793312458450;-11.1150;2.0833;-3.1735;
3979793322573137;-6.7433;1.4339;-1.1850;
3979793332677929;-8.6381;1.2230;-3.9159;
3979793342782721;-10.8299;1.1297;-3.3912;
3979793352900481;-7.1865;1.1273;-2.4476;
3979793363005273;-7.5625;1.2374;-3.8991;
3979793373110064;-9.8312;1.6783;-5.3605;
3979793383197408;-10.9020;1.9681;-5.9809;
3979793393302200;-10.4707;2.3177;-2.9794;
3979793403406992;-8.6022;1.7764;0.0846;
3979793413526783;-8.0656;0.4062;-1.7001;
3979793423631575;-11.4864;0.2052;-5.0252;
3979793433736367;-11.5917;0.9547;-3.5471;
3979793443837773;-7.9340;0.9715;-3.4561;
3979793453942564;-6.0317;0.6075;-5.3486;
3979793464047356;-16.6319;1.5562;-4.7351;
3979793474149387;-16.4617;0.6458;0.5468;
3979793484254127;-5.0665;-0.4585;1.0834;
3979793494358971;-8.2430;-0.7364;-2.3303;
3979793504456783;-9.2898;0.0302;-3.7316;
3979793514561575;-6.3410;0.7561;-4.9627;
3979793524666367;-5.6988;1.0340;-7.3247;
3979793534768294;-7.0666;1.4889;-7.6289;
3979793544873085;-9.6826;2.2699;-6.2109;
3979793554977929;-10.2670;1.7501;-4.1483;
3979793565083033;-8.3028;0.0278;-0.9909;
3979793575187825;-8.7389;-0.5614;-0.9431;
3979793585292564;-8.2693;-0.6215;-2.2534;
3979793595383554;-9.2393;0.0326;-3.7101;
3979793605488398;-10.4204;0.4711;-4.8574;
3979793615593137;-10.4539;0.6625;-4.2251;
3979793625718033;-9.2731;0.6194;-3.1205;
3979793635822825;-9.0718;0.1666;-0.1813;
3979793645927564;-4.6735;0.1379;-6.2109;
3979793656044856;-14.8759;1.7285;-12.6500;
3979793666149648;-12.1235;2.2627;-1.0247;
3979793676254439;-2.5104;0.6697;0.3888;
3979793686345273;-6.1493;1.3310;-4.9149;
3979793696450064;-11.6901;1.5200;-3.4274;
3979793706554856;-13.2350;1.7405;-1.2329;
3979793716652252;-6.9757;0.6912;1.2559;
3979793726757096;-7.1363;-0.2237;-1.0223;
3979793736861887;-12.4783;-0.1041;-2.8283;
3979793746974908;-9.7256;-0.3915;-0.9479;
3979793757079700;-7.6729;0.3153;-4.0549;
3979793767184492;-9.2803;0.4711;-4.9795;
3979793777280533;-7.9292;0.8447;-2.4260;
3979793787385325;-8.6118;1.3836;-4.7665;
3979793797490117;-10.5473;1.3167;-4.8503;
3979793807620689;-8.7532;0.9476;-2.8140;
3979793817725481;-9.6012;1.0747;-2.1003;
3979793827830273;-8.9877;0.1881;-2.1697;
3979793837908398;-8.7075;0.1762;-1.4605;
3979793848013189;-12.5118;0.8279;-3.2285;
3979793858117929;-13.0651;0.3894;-0.9766;
3979793868239700;-7.4883;0.4038;0.8725;
3979793878344439;-6.1205;0.1211;-2.2678;
3979793888449283;-8.8705;-0.6359;-5.6839;
3979793898545377;-7.3421;-1.0478;-4.8981;
3979793908650221;-8.9183;-0.0754;-7.0851;
3979793918754960;-10.1976;0.1570;-5.8971;
3979793928848867;-11.7787;1.0412;-3.5806;
3979793938953658;-10.1354;1.1584;-1.1563;
3979793949058398;-7.8045;0.5142;-0.4810;
3979793959182929;-6.2880;-0.4370;-3.2668;
3979793969287721;-32.6004;0.2674;-0.7804;
3979793979392460;-14.9504;1.9394;9.0796;
3979793989480794;7.7925;2.7778;2.2908;
3979793999585585;-0.4983;-2.5546;-10.5108;
3979794009690429;-11.9871;-5.1514;-13.1243;
3979794019795064;-10.3053;-0.3266;-9.1669;
3979794029899856;-5.7730;4.0690;-6.8818;
3979794040004700;-6.9613;3.2115;-6.6757;
3979794050111835;-8.4033;1.5586;-3.4250;
3979794060216627;-7.8739;0.3990;-1.4390;
3979794070321471;-11.9919;-0.2524;-1.9110;
3979794080425742;-12.7391;-0.4394;-0.3108;
3979794090530481;-6.5539;-0.3963;-0.4594;
3979794100635273;-6.2880;-0.7388;-5.6791;
3979794110741835;-9.0144;-0.6718;-7.3678;
3979794120846679;-11.8074;0.6553;-1.7815;
3979794130951471;-4.6783;0.9165;-6.1271;
3979794141072512;-11.8002;1.2326;-19.1800;
3979794151177304;-13.6902;3.7385;-4.3519;
3979794161282096;-5.8307;3.4319;4.8132;
3979794171383137;-8.6907;1.9011;0.3864;
3979794181487929;-11.6563;0.6458;2.0249;
3979794191592721;-11.6707;0.5189;3.9245;
3979794201695742;-7.6056;0.1044;0.7002;
3979794211800533;-7.9508;0.2722;-4.2873;
3979794221905325;-9.9102;-0.1041;-4.9795;
3979794232004700;-7.8811;0.0111;-2.3662;
3979794242109492;-7.7806;0.4301;-6.3930;
3979794252214283;-11.9414;1.0651;-8.1081;
3979794262322929;-10.9857;1.7285;-1.5876;
3979794272427721;-4.7551;1.9944;0.3840;
3979794282532512;-6.9613;0.8375;-4.9890;
3979794292638606;-8.4224;-0.0440;-5.6743;
3979794302743398;-10.5185;0.9045;-3.3840;
3979794312848137;-12.2602;0.9428;-1.8200;
3979794322958137;-10.2335;0.6864;0.8605;
3979794333063033;-6.7217;0.0996;-0.4905;
3979794343167929;-8.0441;-1.2036;-5.8134;
3979794353262512;-12.2507;-0.6861;-4.5269;
3979794363367408;-11.0767;1.0938;-1.5446;
3979794373472304;-7.8141;1.0627;-4.8885;
3979794383526262;-10.5305;-0.2213;-5.2023;
3979794393631158;-10.1258;0.5357;-1.2619;
3979794403736002;-9.2489;0.7992;-3.3625;
3979794413900325;-10.6624;-0.4466;-3.8512;
3979794424005221;-9.8695;1.2087;-2.2917;
3979794434110064;-8.6716;0.3009;-3.0966;
3979794444210742;-8.1852;0.1116;-2.8980;
3979794454315637;-7.3373;0.0852;-1.3672;
3979794464420533;-9.0742;0.0972;-3.7579;
3979794474517929;-11.1990;-0.5542;-5.9186;
3979794484622825;-9.2608;0.4564;-4.5772;
3979794494727721;-6.3000;1.7213;-3.4633;
3979794504836887;-8.0273;0.2363;-3.1229;
3979794514941731;-14.2962;-0.2668;-3.0799;
3979794525046627;-10.4372;0.8399;-1.8488;
3979794535147304;-5.5935;0.1092;-1.9708;
3979794545252200;-9.3640;0.3846;-3.3171;
3979794555357044;-14.8185;0.4660;-3.5806;
3979794565459804;-6.7026;0.5453;-3.1615;
3979794575564700;-5.6486;1.2808;-5.0755;
3979794585669596;-12.1068;0.4902;-4.8311;
3979794595766627;-8.7341;-0.0057;-1.9660;
3979794605871575;-10.7462;0.7223;-2.3303;
3979794615976419;-13.0460;0.5237;-2.4284;
3979794626082721;-6.4965;0.2100;0.3601;
3979794636187669;-7.1554;0.6864;-3.2357;
3979794646292512;-11.6396;-0.6694;-5.5352;
3979794656400481;-11.4242;1.1824;-0.9359;
3979794666505429;-9.2297;-0.0921;-4.8574;
3979794676610273;-7.9819;0.5022;-3.0703;
3979794686718554;-7.4668;0.1546;-3.1783;
3979794696823450;-12.0135;0.2530;-5.9067;
3979794706928346;-8.1685;1.0627;-3.1687;
3979794717038606;-7.6032;0.3272;-4.0262;
3979794727143502;-11.1392;0.4783;-1.5084;
3979794737248398;-6.1205;-0.5447;-2.7182;
3979794747346471;-10.1163;0.8447;-3.8656;
3979794757451367;-10.7940;0.3392;-4.7064;
3979794767556210;-8.3842;0.3033;-3.1831;
3979794777719596;-8.1063;-0.1161;-4.0813;
3979794787824492;-10.5497;1.0771;-2.1697;
3979794797929335;-8.2095;0.0230;-3.5255;
3979794807954387;-9.7448;0.3464;-4.1363;
3979794818059231;-12.4182;0.4181;-3.4681;
3979794828164127;-9.9174;1.1824;-1.4629;
3979794838355325;-7.0044;0.2841;-2.4978;
3979794848460169;-10.4300;1.7285;-3.9135;
3979794858565012;-10.3654;0.1403;-1.2643;
3979794868586939;-9.1795;0.5859;-3.5710;
3979794878691835;-7.7758;0.6553;-3.8584;
3979794888796731;-7.2200;0.3464;-1.3026;
3979794898916679;-9.0335;0.3631;-5.3222;
3979794909021575;-13.0026;0.8590;-2.9243;
3979794919126471;-6.6930;0.7657;-2.5409;
3979794929241992;-9.7208;0.3440;-2.3471;
3979794939346835;-11.2612;-0.2285;-2.8116;
3979794949451731;-8.2717;0.4134;-0.0736;
3979794959550012;-9.3592;-0.0392;-5.4897;
3979794969654908;-9.8312;0.8207;-4.4429;
3979794979759752;-6.3191;1.2736;-3.6069;
3979794989889231;-6.9182;0.2339;-4.6083;
3979794999994179;-10.0059;0.3368;-5.6049;
3979795010099023;-13.0890;1.2736;-5.1257;
3979795020167356;-10.6840;1.6328;-0.0233;
3979795030272252;-7.3229;0.8949;0.5133;
3979795040377200;-8.4057;0.1355;-1.7599;
3979795050492304;-11.0815;-0.5471;-3.8536;
3979795060597200;-9.5868;0.4349;-2.6249;
3979795070702096;-8.8753;0.4612;-3.4370;
3979795080813137;-9.7950;0.4711;-5.8325;
3979795090918033;-9.0287;1.2808;-4.2395;
3979795101022929;-7.3756;1.0531;-4.0238;
3979795111119700;-7.5673;0.4493;-3.0129;
3979795121224596;-10.0609;1.0579;-3.2979;
3979795131329492;-11.3043;0.7729;-2.9674;
3979795141452825;-8.6381;0.4807;-0.3538;
3979795151557721;-9.0742;-0.5518;-2.2104;
3979795161662617;-8.9877;-0.5877;-4.3950;
3979795171755429;-7.2870;-0.6407;-3.1134;
3979795181860325;-7.6944;-0.5279;-4.7952;
3979795191965221;-10.5018;-0.6096;-5.0324;
3979795202068033;-9.0096;-0.0416;-1.4533;
3979795212172929;-7.4189;0.1618;-5.0563;
3979795222277825;-12.4588;1.1130;-5.6695;
3979795232380012;-11.4553;0.9117;0.9398;
3979795242484908;-6.5037;-0.2788;0.7648;
3979795252589804;-9.2536;-0.2788;-4.2658;
3979795262699075;-9.7448;-0.0873;-3.6188;
3979795272803971;-7.9603;0.2267;-2.9219;
3979795282908867;-11.0384;-0.2022;-4.3878;
3979795293018033;-10.8443;0.0470;-3.5351;
3979795303122929;-10.4468;0.4902;-2.8140;
3979795313227773;-12.5285;0.6793;0.7289;
3979795323319908;-6.0437;0.0374;1.0522;
3979795333424648;-5.5720;0.1020;-4.3041;
3979795343529335;-12.7439;0.5429;-5.5113;
3979795353636679;-8.0895;0.6075;-2.6632;
3979795363741419;-4.4797;0.7633;-4.6274;
3979795373846106;-6.4128;0.6864;-7.4255;
3979795383957304;-12.4708;0.9452;-6.9846;
3979795394061992;-14.7227;0.9882;-1.4964;
3979795404166731;-10.2168;1.4291;2.6572;
3979795414258450;-5.3874;1.0555;-0.0784;
3979795424363189;-11.1221;-0.2524;-3.5542;
3979795434467877;-15.4343;0.8231;-2.9530;
3979795444581158;-9.6323;1.1704;-0.9960;
3979795454685898;-7.1315;1.2517;-4.1746;
3979795464790585;-9.9915;1.2784;-5.2768;
3979795474898762;-7.7638;1.3836;-1.0822;
3979795485003502;-6.7170;0.8136;-3.6069;
3979795495108189;-10.1234;0.9619;-5.3486;
3979795505198658;-10.3463;1.1489;-3.4107;
3979795515303398;-7.9675;-0.0945;-1.1348;
3979795525408085;-6.1205;-0.0368;-3.7603;
3979795535516471;-12.4517;0.2315;-7.4590;
3979795545621210;-13.3286;0.5381;-3.5949;
3979795555725846;-5.7419;-0.0535;0.9326;
3979795565833033;-9.5581;0.6051;-4.4668;
3979795575937773;-9.8192;-0.2644;-6.6326;
3979795586042460;-9.2417;0.7418;-2.3252;
3979795596170742;-5.8834;0.7466;-3.2333;
3979795606275481;-10.9594;0.7537;-3.5327;
3979795616380169;-12.7585;-0.1567;-0.8880;
3979795626483346;-9.3497;0.0541;-1.1635;
3979795636588085;-9.6371;0.3033;-1.8296;
3979795646692773;-6.9805;-0.3389;-0.9191;
3979795656778762;-8.2669;-0.8898;-4.3663;
3979795666883502;-8.2621;-0.8225;-6.2276;
3979795676988189;-10.9857;-0.4274;-5.5208;
3979795687090950;-11.7715;0.2195;-4.0884;
3979795697195689;-7.8978;0.7681;-2.5911;
3979795707300377;-10.9690;0.9093;-2.5337;
3979795717423762;-9.5267;-0.1089;1.3014;
3979795727528450;-9.1890;0.1283;1.1192;
3979795737633189;-8.9399;-0.4920;-3.2716;
3979795747710325;-10.9810;-0.0993;-7.3606;
3979795757815064;-10.3149;0.1618;-3.7484;
3979795767919752;-4.2592;-0.4609;-2.4906;
3979795778031627;-5.6342;0.2267;-7.1931;
3979795788136419;-11.9318;0.0254;-4.6561;
3979795798241106;-10.7270;0.0470;-0.3371;
3979795808380012;-7.4213;0.3320;-2.9291;
3979795818484700;-12.1594;1.1489;-5.1425;
3979795828589439;-11.0288;0.4831;-0.0903;
3979795838664492;-6.0703;0.5931;-0.3778;
3979795848769231;-5.5935;-0.2357;-4.9460;
3979795858873919;-11.2732;0.7247;-7.0325;
3979795868986992;-15.9805;0.3200;-4.2706;
3979795879091679;-8.1135;0.4373;0.6188;
3979795889196419;-5.0402;1.0149;-2.5265;
3979795899301106;-11.6635;0.4612;-3.3194;
3979795909405846;-13.4076;0.2746;2.6166;
3979795919510533;-8.5304;0.7247;0.1086;
3979795929624752;-8.4488;0.8423;-6.0479;
3979795939729492;-7.9938;0.7271;-2.4284;
3979795949834179;-8.5041;0.0996;-3.4155;
3979795959932773;-2.9584;0.2626;-7.3343;
3979795970037512;3.9885;-0.1519;-8.4171;
3979795980142200;-20.5989;1.1106;-8.6040;
3979795990232096;-28.5736;0.4325;3.2106;
3979796000336835;-11.1727;-0.4561;7.6065;
3979796010441523;5.9671;1.4530;2.1876;
3979796020562721;-4.6711;0.2674;-6.1391;
3979796030667460;-18.6634;-0.9449;-6.2204;
3979796040772148;-15.6879;0.9380;-5.2693;
3979796050869179;-7.2990;2.7299;-2.4380;
3979796060973919;-5.3994;1.0866;0.1181;
3979796071078606;-8.5567;-0.4920;-2.3399;
3979796081192825;-10.7222;-0.4633;-5.0874;
3979796091297564;-12.4493;0.9523;0.3239;
3979796101402252;4.6642;-0.0440;5.7452;
3979796111504804;0.7522;-0.8249;-14.3650;
3979796121562148;-18.5124;-0.8082;-23.8322;
3979796131666835;-23.8304;2.4951;-4.7856;
3979796141771575;-7.6008;-0.5949;10.2775;
3979796151910533;1.2003;-0.5160;5.1918;
3979796162015273;-13.7955;1.1297;-7.6313;
3979796172119960;-15.2306;-0.5566;-0.1573;
3979796182228450;-3.8183;1.0795;1.3588;
3979796192333189;-7.8763;1.7644;-8.9010;
3979796202437877;-10.8347;0.0589;-7.1426;
3979796212543658;-9.7424;0.8806;-0.8928;
3979796222648398;-9.0359;-0.0033;-0.8091;
3979796232753085;-9.7591;-0.0153;0.7983;
3979796242857929;-8.5161;-0.4992;3.2489;
3979796252962669;-6.7385;-0.4226;-2.8669;
3979796263067356;-8.6118;-0.1137;-12.2282;
3979796273174492;-13.5105;1.5802;-9.1573;
3979796283279231;-7.9699;1.1584;-0.2821;
3979796293383919;-9.2273;0.3248;-1.1707;
3979796303483554;-9.2489;-0.2883;-1.5637;
3979796313588242;-8.5591;0.6123;-2.1338;
3979796323692981;-10.0394;0.9954;-3.2979;
3979796333796939;-8.2525;1.0603;-1.8799;
3979796343901679;-10.0155;0.5668;-4.2682;
3979796354006367;-9.9604;-0.3242;-2.4906;
3979796364114075;-6.7265;0.6745;-2.0306;
3979796374218814;-9.6969;0.9380;-6.9559;
3979796384323502;-12.7247;1.3119;-3.2501;
3979796394436367;-7.7088;0.9428;0.5659;
3979796404541106;-9.8456;0.4735;-2.8932;
3979796414645794;-9.0670;0.7271;-2.7996;
3979796424750117;-10.2814;1.2541;-4.0478;
3979796434854856;-11.5965;0.4950;-2.8642;
3979796444959544;-9.0503;0.8088;-1.4246;
3979796455062096;-8.9830;0.0230;-2.7900;
3979796465166835;-10.1163;0.4325;-1.7480;
3979796475271523;-8.0441;0.4660;-2.2343;
3979796485368554;-10.0514;0.7609;-5.4969;
3979796495473294;-10.9427;0.9619;-2.9674;
3979796505577981;-5.4664;0.7175;-0.4017;
3979796515674439;-7.6633;0.2315;-5.1090;
3979796525779231;-8.8059;0.4181;-4.9819;
3979796535883919;-9.3185;1.0986;-4.4094;
3979796545994075;-9.3497;0.7681;-4.9005;
3979796556098814;-9.6993;0.5189;-3.3840;
3979796566203502;-10.4659;0.6769;-3.4825;
3979796576323971;-13.3717;0.3176;-0.9814;
3979796586428710;-7.5099;0.6673;0.2761;
3979796596533398;-8.6213;1.0555;-3.2931;
3979796606628971;-9.9054;1.0412;-3.0775;
3979796616733710;-9.0191;0.9787;-1.3217;
3979796626838398;-10.2287;0.5548;-2.9602;
3979796636964075;-6.9733;0.6218;-2.8475;
3979796647068762;-8.5926;0.9380;-3.9616;
3979796657173502;-10.2311;0.1211;-3.6766;
3979796667274596;-11.8911;0.3990;-2.6632;
3979796677379335;-10.1665;0.2483;-2.4236;
3979796687484023;-6.1421;-0.2118;-0.5886;
3979796697586887;-3.9287;-0.3099;-6.3715;
3979796707691575;-12.8136;1.5009;-8.9010;
3979796717796314;-13.2685;0.9643;-1.3361;
3979796727878762;-8.6812;0.0637;1.6128;
3979796737983502;-8.7939;0.0422;-0.7083;
3979796748088189;-9.3592;0.6649;-2.3471;
3979796758215794;-8.3004;0.5118;-2.2008;
3979796768320533;-9.1843;0.5118;-3.4418;
3979796778425273;-10.6959;0.5548;-5.9545;
3979796788506367;-11.7571;0.1570;-3.3912;
3979796798611054;-6.7552;0.5166;-2.0569;
3979796808715794;-8.3052;0.6769;-4.7761;
3979796818837825;-11.5367;1.0866;-2.4954;
3979796828942512;-9.8862;0.4684;1.6992;
3979796839047252;-9.9796;-0.2644;-1.1324;
3979796849160846;-10.7198;0.2100;-4.1865;
3979796859265585;-7.2200;0.3631;-3.2812;
3979796869370273;-6.9852;0.1786;-4.8622;
3979796879475846;-9.7735;0.0087;-5.2717;
3979796889580533;-9.1340;0.2554;-4.3543;
3979796899685273;-10.3292;0.0039;-2.0450;
3979796909778554;-8.4634;0.0996;-2.9770;
3979796919883294;-12.7247;0.8901;-3.9135;
3979796929987981;-1.6122;0.2001;0.3215;
3979796940085533;0.6299;0.4735;-4.9268;
3979796950190273;-25.0520;1.1177;-6.9368;
3979796960294960;-20.4407;-0.3461;0.9565;
3979796970407096;-1.9642;0.4902;2.3961;
3979796980511835;-2.5777;0.6314;-2.0955;
3979796990616523;-13.3956;-0.1567;-4.9196;
3979797000720533;-17.3100;0.7896;-1.9349;
3979797010825273;-6.9230;0.2052;0.0894;
3979797020929960;-4.8772;1.0220;-4.4596;
3979797031049075;-13.7381;0.3153;-4.7856;
3979797041153814;-15.9757;0.5285;-0.7851;
3979797051258502;-8.8035;0.1235;5.1990;
3979797061356679;8.6791;0.1403;2.2140;
3979797071461419;3.7537;-0.5614;-20.3803;
3979797081566106;-17.5807;1.1680;-23.0513;
3979797091669596;-18.7567;2.5310;-1.4533;
3979797101774335;-7.8787;0.0206;1.3253;
3979797111879023;-5.9288;-0.8680;1.2894;
3979797121999335;-9.6897;0.8590;1.1097;
3979797132104596;-14.0184;0.5644;-0.6652;
3979797142209856;-8.8322;0.4038;0.2115;
3979797152290533;-7.4524;1.1177;-5.4179;
3979797162395794;-12.6841;0.8016;-6.5916;
3979797172501054;-12.2961;1.7261;-0.7612;
3979797182607304;-7.1145;0.2219;3.4908;
3979797192712564;-6.9733;-0.6766;5.3474;
3979797202817825;-6.5157;-0.7819;-0.1935;
3979797212919596;-11.4506;-0.6646;-11.4739;
3979797223024856;-9.5267;0.6577;-6.5222;
3979797233130169;-6.6715;2.0375;-3.2501;
3979797243241262;-10.3196;0.7008;-5.2645;
3979797253346523;-9.4143;0.5716;-1.6211;
3979797263451783;-8.4177;0.4134;-0.4810;
3979797273554439;-10.5688;0.3009;-2.9626;
3979797283659700;-7.1192;0.6769;-4.4405;
3979797293764960;-7.6992;0.9117;-5.0468;
3979797303866367;-12.2001;0.1977;-2.4141;
3979797313971627;-12.6338;0.4660;-1.5900;
3979797324076887;-10.0011;0.0924;-0.7373;
3979797334179856;-9.8216;1.1943;-1.6427;
3979797344285117;-9.0072;0.7032;-1.7503;
3979797354390377;-9.4789;1.5993;-2.4835;
3979797364487200;-9.7687;0.5692;-2.8451;
3979797374592460;-7.1121;0.7271;-4.6609;
3979797384697721;-6.4463;0.7633;-4.8072;
3979797394824648;-7.8284;0.5405;-5.8325;
3979797404929960;-14.7251;0.2148;-3.1062;
3979797415035221;-11.6276;-0.7627;0.5587;
3979797425127200;-7.1339;0.3583;-0.8952;
3979797435232460;-9.2130;0.1307;-4.4791;
3979797445337721;-13.9202;0.9906;-3.5806;
3979797455438971;-8.4634;0.7295;0.3697;
3979797465544231;-2.0913;0.2506;-2.4954;
3979797475649544;-10.5209;0.3727;-7.0923;
3979797485759804;-15.3933;0.5309;-3.4250;
3979797495865064;-9.1364;0.1092;1.4979;
3979797505970377;-5.2388;0.1283;-0.9479;
3979797516081679;-6.8127;-0.5806;-5.4610;
3979797526186939;-10.7462;0.3870;-6.1510;
3979797536292200;-9.5267;0.9930;-5.7891;
3979797546380117;-10.9235;0.9452;-3.9230;
3979797556485377;-15.2306;0.7223;-1.0534;
3979797566590637;-7.3684;-0.8584;1.0786;
3979797576701367;-0.2252;0.8064;-1.0582;
3979797586806627;-9.6515;-0.2979;-4.4958;
3979797596911887;-13.4865;-0.1711;-4.2491;
3979797607003137;-11.7452;0.4325;-4.3184;
3979797617108398;-9.2707;0.0230;-3.5997;
3979797627213710;-8.4296;0.3679;0.6763;
3979797637325533;-9.1531;-0.7053;-1.2162;
3979797647430794;-12.4974;-0.0200;-3.7890;
3979797657536054;-9.1843;0.2985;0.7648;
3979797667660377;-6.4319;0.7753;-3.3577;
3979797677765689;-11.6468;0.2483;-8.8603;
3979797687870950;-11.4529;1.0436;0.5731;
3979797697950637;-3.4472;0.3966;3.1172;
3979797708055898;-9.6347;-0.6957;-7.2362;
3979797718161210;-16.6032;-0.7627;-5.5762;
3979797728294127;-7.0403;0.8758;0.3287;
3979797738399439;-5.7706;0.6290;-3.0057;
3979797748504700;-11.5846;0.2219;-8.0650;
3979797758560012;-9.2130;0.7418;-1.9588;
3979797768665273;-5.7251;0.4301;-1.3504;
3979797778770533;-19.6047;0.5118;-3.7101;
3979797788900533;-15.9781;0.5883;0.8797;
3979797799005794;-3.2650;1.2350;4.7414;
3979797809111106;-3.9117;0.3464;-3.0846;
3979797819233554;-9.4310;-1.1533;-9.3395;
3979797829338814;-13.3573;-1.2227;-6.7499;
3979797839444075;-9.3281;1.7859;-3.2213;
3979797849536262;-5.8714;2.2101;-3.3769;
3979797859641523;-6.4774;0.4854;-3.1158;
3979797869746783;-10.7868;0.2746;-3.2620;
3979797879858085;-9.2106;0.2411;0.7050;
3979797889963346;-6.4558;0.5907;-4.5030;
3979797900068606;-12.2363;1.1847;-10.3600;
3979797910161054;-10.0514;1.1991;-2.6345;
3979797920266314;-5.6557;0.4735;0.0580;
3979797930371575;-5.2798;0.0230;-2.9315;
3979797940475012;-11.1464;1.2206;-4.9173;
3979797950580273;-18.5818;1.2661;-0.7780;
3979797960685533;-9.1866;0.2506;5.8193;
3979797970785429;-2.2325;1.0723;0.2163;
3979797980890689;-8.2262;-0.0535;-5.2525;
3979797990995950;-11.2062;0.1690;-2.6034;
3979798001102096;-9.8384;1.0890;-3.9520;
3979798011207356;-9.4071;1.3836;-4.9196;
3979798021312617;-8.0130;0.6697;-2.6776;
3979798031410950;-6.5587;0.7968;-3.7579;
3979798041516210;-11.0551;0.8112;-2.7446;
3979798051621471;-8.4057;1.0675;0.3625;
3979798061731887;-6.3000;0.8064;-3.0583;
3979798071837148;-15.4053;1.1321;-6.4624;
3979798081942408;-11.9943;1.2278;-0.4570;
3979798092044908;-9.3879;1.2709;2.5543;
3979798102150169;-8.6261;0.1164;0.4056;
3979798112255429;-10.0561;0.2171;-4.0645;
3979798122340429;-10.8323;0.7992;-3.6428;
3979798132445064;-7.9241;1.5706;-4.3065;
3979798142549700;-12.8327;0.9165;-4.4596;
3979798152668450;-9.8336;1.6184;-0.8498;
3979798162773085;-6.9781;1.1536;-0.4232;
3979798172877721;-10.0298;-0.0272;-3.8201;
3979798182985533;-10.4396;0.5812;-5.1999;
3979798193090169;-9.5243;1.3023;-4.1554;
3979798203194804;-3.5142;0.1810;-3.9520;
3979798213298346;-6.7624;0.3846;-9.5309;
3979798223402981;-10.9905;1.1512;-6.8216;
3979798233507617;-7.8691;0.8064;-4.0502;
3979798243615429;-11.7595;1.3502;-3.4346;
3979798253720064;-8.1063;0.4735;-0.3323;
3979798263824700;-9.7280;0.4998;-0.6700;
3979798273927512;-11.3139;0.3440;-1.2233;
3979798284032148;-9.5653;0.4014;-2.2295;
3979798294136783;-7.9388;0.4349;-3.3194;
3979798304236783;-7.4716;0.3846;-3.1639;
3979798314341419;-8.8250;0.3129;-3.0200;
3979798324446054;-11.1221;0.2243;-2.7278;
3979798334553242;-11.6204;1.3836;-2.4811;
3979798344657877;-9.4262;0.4540;0.1205;
3979798354762512;-5.6916;0.2746;-0.5647;
3979798364864075;-8.1015;0.2506;-4.4548;
3979798374968710;-12.5477;0.7319;-4.1698;
3979798385073346;-12.5548;0.7872;-1.9277;
3979798395215429;-10.3774;0.6864;-1.1157;
3979798405320064;-6.3072;0.4612;-1.5948;
3979798415424648;-7.6896;0.2818;-2.3061;
3979798425506887;-10.5879;0.5166;-4.4719;
3979798435611523;-10.2861;1.1632;-5.3462;
3979798445716106;-6.7433;1.5826;-2.8187;
3979798455817929;-7.2440;1.2350;-3.8058;
3979798465922564;-12.5333;1.1154;-3.3577;
3979798476027200;-9.2082;1.3860;-1.8535;
3979798486139700;-8.5448;1.2613;-1.4079;
3979798496244335;-8.5591;0.4516;-4.0502;
3979798506348971;-8.8035;0.6936;-5.4538;
3979798516464700;-11.6181;1.0364;-2.1697;
3979798526569335;-10.5209;0.4229;-2.8642;
3979798536673971;-9.9317;1.3190;-1.5494;
3979798546757721;-10.1282;0.7705;1.3445;
3979798556862356;-7.4237;-0.3652;0.7839;
3979798566966992;-7.3014;0.6553;-3.9326;
3979798577066054;-9.1603;0.6936;-5.7891;
3979798587170689;-9.3592;0.6936;-2.3204;
3979798597275325;-10.4827;0.1068;-3.0392;
3979798607374856;-11.1341;0.0015;-2.9506;
3979798617479492;-9.1795;0.2001;-1.1157;
3979798627584075;-9.9174;0.7490;-4.0358;
3979798637728554;-11.0862;0.5237;-2.0859;
3979798647833189;-7.2248;0.4397;0.7576;
3979798657937773;-10.4659;-0.2788;-4.5963;
3979798668002096;-15.3694;1.0002;-3.3625;
3979798678106679;-9.9269;1.2470;3.8022;
3979798688211367;-7.2440;-0.0682;-0.4232;
3979798698362617;-5.5385;-0.2381;-4.2275;
3979798708467252;-6.0030;-0.4633;-8.3142;
3979798718571835;-11.6085;0.6673;-9.9957;
3979798728640950;-12.3344;1.5802;-4.0119;
3979798738745585;-8.8705;0.9380;-0.8306;
3979798748850221;-7.5721;0.2578;-1.1420;
3979798758976262;-9.1603;-0.0488;-2.0258;
3979798769080898;-11.0767;0.5788;-3.6571;
3979798779185481;-9.9844;0.4349;-2.4141;
3979798789273762;-6.5997;0.9380;-3.3529;
3979798799378398;-9.1962;0.2076;-4.2682;
3979798809483033;-11.8433;0.3368;-2.6058;
3979798819606783;-9.4047;0.0637;-0.8976;
3979798829711419;-8.4153;0.4854;-0.9598;
3979798839816002;-8.4272;0.1834;-1.0199;
3979798849895221;-10.4157;0.6314;-2.1123;
3979798859999856;-11.2086;0.6505;-3.6643;
3979798870104492;-9.4813;0.5572;-1.6044;
3979798880240950;-6.4534;0.3799;-3.4178;
3979798890345585;-9.4932;0.1905;-3.6308;
3979798900450169;-7.3804;0.7513;-2.4811;
3979798910540117;-10.4013;0.7128;-4.2538;
3979798920644752;-12.3512;1.0149;-4.5820;
3979798930749387;-7.3516;0.7896;0.6715;
3979798940851783;-6.0365;0.1307;-1.7743;
3979798950956419;-12.8973;0.7585;-3.9712;
3979798961061054;-14.9743;0.9404;-1.3217;
3979798971161158;-9.4119;0.7537;0.1397;
3979798981265794;-6.3960;0.2435;-1.9660;
3979798991370429;-5.3228;0.6936;-3.9975;
3979799001486262;-8.8537;0.6601;-6.0120;
3979799011590898;-13.2808;1.1680;-5.3127;
3979799021695533;-12.0589;0.7968;-0.8354;
3979799031799179;-8.8083;0.2243;0.5228;
3979799041903814;-4.6950;0.3105;-1.1204;
3979799052008450;-15.1828;0.6362;-3.8512;
3979799062113762;-12.7705;0.6434;-0.6126;
3979799072218398;-2.6662;0.7199;-2.8669;
3979799082323033;-6.0341;0.0326;-7.1330;
3979799092419700;-10.2120;0.5524;-5.6360;
3979799102524335;-11.6539;0.7705;-2.7302;
3979799112628919;-10.3558;0.3009;0.4439;
3979799122753294;-5.5071;-0.0631;-0.5910;
3979799132858398;-7.6176;0.1116;-3.8010;
3979799142963450;-13.5491;0.7271;-5.5786;
3979799153048971;-12.3153;1.1441;0.7217;
3979799163154075;-2.9991;0.4783;-4.0980;
3979799173259127;-14.1957;0.5213;-6.2300;
3979799183355585;-15.1274;0.5524;2.8202;
3979799193460689;-3.9742;0.5501;2.1685;
3979799203565742;-9.7113;0.3153;-5.8851;
3979799213673189;-14.1311;0.5931;-0.7780;
3979799223778242;-4.4509;0.3224;0.2139;
3979799233883294;-7.9002;-0.5279;-4.9651;
3979799243990481;-12.1164;0.6194;-5.3677;
3979799254095585;-9.8432;0.2698;-1.9014;
3979799264200637;-10.0202;1.0412;-3.6814;
3979799274324127;-8.0800;-0.5806;-1.5108;
3979799284429231;-5.7108;0.7418;-5.1688;
3979799294534283;-11.3761;0.6769;-7.4160;
3979799304608554;-13.2879;1.5754;-1.1157;
3979799314713606;-7.0714;0.7032;0.0461;
3979799324818658;-6.3601;-0.0296;-3.7244;
3979799334933502;-11.0504;0.7223;-3.2333;
3979799345038606;-13.3956;0.4807;0.1636;
3979799355143658;-9.7711;0.4181;-0.5336;
3979799365240481;-6.4295;0.3392;-2.7685;
3979799375345585;-9.9150;0.3583;-5.5089;
3979799385450637;-10.5760;0.9500;-2.3013;
3979799395557148;-7.2296;0.5333;-2.4380;
3979799405662200;-11.4458;-0.2405;-4.1363;
3979799415767252;-8.8729;0.3153;-0.0544;
3979799425881523;-7.6872;0.3153;-2.3590;
3979799435986627;-12.1810;1.1824;-3.2357;
3979799446091679;-9.3951;-0.0416;0.5707;
3979799456195169;-8.9590;0.6625;-3.7651;
3979799466300273;-9.0718;-0.2620;-4.8790;
3979799476405325;-6.1158;0.9763;-1.9923;
3979799486515169;-11.1488;0.5907;-5.5256;
3979799496620273;-12.5692;0.7128;-2.8642;
3979799506725325;-8.2119;0.7418;2.2645;
3979799516816314;-9.2560;0.4612;-3.0033;
3979799526921419;-13.1178;1.0149;-2.7422;
3979799537026471;-9.1340;0.6793;0.6954;
3979799547125637;-7.4309;0.2985;-3.1158;
3979799557230689;-5.5600;-0.3027;-5.7604;
3979799567335742;-6.9398;0.2219;-7.4901;
3979799577441471;-12.2650;0.9236;-5.4514;
3979799587546627;-9.5052;0.1235;-1.2473;
3979799597651627;-9.1029;0.4014;-0.3203;
3979799607765794;-9.7161;0.1714;-1.4821;
3979799617870898;-9.6299;0.5453;-1.6905;
3979799627975950;-11.1847;0.8160;-3.1807;
3979799638086002;-10.3726;-0.0129;-1.3528;
3979799648191106;-8.6501;1.0436;-2.6417;
3979799658296158;-8.9327;0.1403;-1.5060;
3979799668383919;-8.4706;0.3870;-1.8679;
3979799678489023;-8.9207;-0.2429;-2.8235;
3979799688594075;-9.5076;0.0924;-2.5361;
3979799698726627;-6.9661;0.3607;-1.0798;
3979799708831731;-8.6453;0.1570;-5.8134;
3979799718936783;-12.0924;0.1499;-4.3519;
3979799729012721;-7.8093;0.3248;-1.2691;
3979799739117773;-9.9245;0.4229;-2.0139;
3979799749222825;-10.2048;0.3727;-3.0679;
3979799759359544;-8.0704;0.8088;-3.7866;
3979799769464648;-9.7878;0.4397;-2.2654;
3979799779569700;-11.0647;0.5453;-0.0903;
3979799789662356;-9.6562;-0.0464;-0.8856;
3979799799767460;-9.1125;0.1762;-1.1683;
3979799809872512;-10.0947;0.5094;-1.6116;
3979799819976939;-9.7831;0.6745;-0.9742;
3979799830082044;-9.5028;-0.2285;-3.4370;
3979799840187096;-7.4524;-0.2477;-2.2104;
3979799850283502;-5.4377;0.0111;-6.8937;
3979799860388606;-10.2191;0.7319;-6.6852;
3979799870493658;-15.5874;0.5524;-0.2366;
3979799880580429;-12.1714;0.7223;1.3780;
3979799890685481;-6.9613;-0.0272;-0.6413;
3979799900790533;-8.0871;0.8782;-1.9588;
3979799910904752;-11.9632;0.7319;-1.9899;
3979799921009856;-8.9973;-0.3580;-3.3888;
3979799931114908;-10.1689;0.1092;-3.4418;
3979799941223710;-8.2502;0.1116;-2.8980;
3979799951328814;-7.6753;-0.1017;-2.5720;
3979799961433867;-6.9015;-0.2692;-2.8259;
3979799971540689;-2.4218;-0.3003;-4.4620;
3979799981645794;10.5763;-0.7723;-12.6691;
3979799991750846;-38.5747;0.4807;-12.8776;
3979800001858554;-39.8827;1.1321;13.6837;
3979800011963658;5.3659;4.3158;16.1967;
3979800022068710;9.4286;2.0399;-1.4103;
3979800032172356;-13.8556;-3.3619;-8.0483;
3979800042277460;-17.7171;-2.9330;-8.4673;
3979800052382512;-5.5433;1.2374;-4.1387;
3979800062489023;-2.0937;1.9681;-5.4778;
3979800072594127;-11.6635;-0.4537;-1.8990;
3979800082699179;-16.7901;0.2794;7.8123;
3979800092811939;5.0713;1.2302;10.4115;
3979800102917044;-12.1953;-1.7713;-27.2459;
3979800113022096;-27.2273;-2.6049;-21.6595;
3979800123100533;4.7025;3.4822;9.3550;
3979800133205169;2.4888;4.0690;-1.6786;
3979800143309804;-16.5673;-0.4944;-8.4867;
3979800153414596;-17.3865;1.6113;-1.1444;
3979800163519231;-8.5878;3.9299;8.2149;
3979800173623867;0.5079;1.0914;2.4129;
3979800183748554;-10.3702;-1.6226;-10.7886;
3979800193853189;-22.7860;0.0326;-3.6045;
3979800203957825;-11.6516;2.0351;7.5105;
3979800214049856;-7.8021;2.1550;-1.2787;
3979800224154492;-10.4587;-0.0392;-2.9865;
3979800234259127;1.7704;1.7285;3.1460;
3979800244362356;1.5882;0.2148;-10.6738;
3979800254466992;-21.8830;-0.0272;-14.1544;
3979800264571627;-19.7677;4.5577;2.9614;
3979800274650117;-6.4008;4.1169;3.4549;
3979800284754804;-2.0530;1.3190;-0.4714;
3979800294859439;-0.0072;-0.2788;-3.6694;
3979800304993762;-20.9916;0.8351;-9.5791;
3979800315098398;-17.9901;1.8867;-8.2232;
3979800325203033;-1.0899;3.6544;-2.9435;
3979800335315742;-1.2311;1.2975;-0.8952;
3979800345420377;-14.2077;0.0039;3.1651;
3979800355524960;-8.4969;-0.3676;3.4860;
3979800365622773;-8.1805;0.2554;-7.9980;
3979800375727408;-9.0622;0.4783;-9.4208;
3979800385832044;-3.8064;2.1670;-3.0583;
3979800395929544;-5.4760;1.2159;-0.8904;
3979800406034231;-11.9294;0.2818;-4.5269;
3979800416138867;-18.6538;1.5320;-6.5127;
3979800426273137;-13.6352;2.1550;5.0145;
3979800436377773;-6.0078;1.0340;8.4090;
3979800446482408;-7.3708;-0.0607;0.4367;
3979800456571262;-10.8948;-0.2572;-5.7915;
3979800466675898;-11.6324;0.3823;-1.4055;
3979800476780533;-38.5197;2.2053;2.5519;
3979800486887929;-7.4524;2.6342;11.7649;
3979800496992564;18.9820;0.7585;6.1786;
3979800507097200;-2.2995;-5.0841;-14.0967;
3979800517203137;-18.4238;-4.5787;-19.9995;
3979800527307773;-11.0049;1.9513;-10.4677;
3979800537412408;-5.0186;5.7482;-7.3032;
3979800547497200;-7.3038;1.4243;-8.2567;
3979800557601835;-8.1757;2.6222;0.2115;
3979800567706471;-9.2345;1.6639;5.2445;
3979800577819908;-7.3998;-1.5580;-8.3931;
3979800587924544;-23.2962;-1.2730;-21.9924;
3979800598029127;-15.8988;3.7337;6.5094;
3979800608153971;8.1808;3.1370;18.5178;
3979800618258606;-7.0666;-1.5102;-3.5877;
3979800628363242;-22.9514;-5.0172;-7.0277;
3979800638438554;-8.5759;-1.3161;4.0848;
3979800648543189;-2.1392;1.9537;2.5902;
3979800658647825;-7.3875;-2.4275;-6.8818;
3979800668776679;-12.3105;-1.8790;-7.5093;
3979800678881314;-10.3630;0.8112;-0.3778;
3979800688985950;-6.1181;1.3214;-4.8263;
3979800699074700;-10.3750;0.2459;-9.7729;
3979800709179335;-10.0947;0.6218;-1.5541;
3979800719283971;-4.4435;1.0962;3.1962;
3979800729440846;-13.8628;0.6362;-5.9139;
3979800739545481;-15.4029;-0.2070;-2.2510;
3979800749650117;-4.0292;0.8853;5.2756;
3979800759716679;-8.0536;0.0517;-4.2897;
3979800769821314;-12.3512;-1.6947;-2.8594;
3979800779925950;-8.2908;0.4445;-2.5217;
3979800790046054;-9.3114;0.9811;-4.5580;
3979800800150689;-8.4754;1.0747;-1.7671;
3979800810255325;-8.3172;1.2736;-2.9818;
3979800820336783;-12.9045;1.6161;-2.6417;
3979800830441419;-8.6644;1.7859;-1.2138;
3979800840546054;-9.3233;2.1407;-4.6729;
3979800850654023;-15.1490;1.3956;-2.4428;
3979800860758658;-10.7414;1.5897;2.2645;
3979800870863294;-5.8235;1.1991;-1.8105;
3979800880988137;-7.8787;-0.0344;-4.5915;
3979800891092773;-9.2683;0.2243;-1.9421;
3979800901197408;-8.8059;0.5764;-1.5422;
3979800911277721;-9.8671;0.7848;-4.6322;
3979800921382356;-12.3559;1.5491;-2.4643;
3979800931486992;-9.6873;2.3898;0.8895;
3979800941606887;-6.4941;2.0183;-1.5227;
3979800951711523;-8.5831;1.6591;-5.0731;
3979800961816158;-14.0710;3.0676;-6.1630;
3979800971911367;-10.7055;4.1839;-2.5648;
3979800982016002;-5.5887;3.1516;-0.0185;
3979800992120637;-8.1685;1.9872;-0.6365;
3979801002236887;-12.4229;1.6304;-2.4380;
3979801012341523;-11.4817;1.7572;-0.0066;
3979801022446158;-6.7146;0.7056;-0.8617;
3979801032545012;-7.9026;0.6553;-3.3386;
3979801042649648;-14.4521;-0.3652;-2.2175;
3979801052754283;-10.6313;0.3320;0.0700;
3979801062873346;-4.0699;0.5046;-2.6225;
3979801072977981;-5.0761;-0.1280;-4.0454;
3979801083082617;-9.4478;-1.3065;-2.7541;
3979801093186679;-11.5176;-1.2179;-3.2788;
3979801103291314;-12.6529;-0.0344;-3.3817;
3979801113395950;-9.0981;0.0063;0.2115;
3979801123469387;-4.6926;-1.2347;-0.2246;
3979801133574127;-11.5176;-1.4838;-3.8465;
3979801143678814;-13.7979;-1.4097;-1.1300;
3979801153797721;-8.3243;0.4684;-3.9568;
3979801163902460;-8.3076;-0.2979;-3.4777;
3979801174007148;-5.6844;-0.4561;-0.3802;
3979801184110533;-12.2363;-0.3147;-2.7661;
3979801194215273;-11.7428;-0.9975;-3.7747;
3979801204319960;-9.1723;0.3009;-2.0234;
3979801214427929;-10.7749;-0.1902;-2.1170;
3979801224532669;-12.3153;0.0015;-1.1874;
3979801234637304;-7.5649;0.3775;-0.3802;
3979801244740533;-10.8515;0.4759;-4.9866;
3979801254845273;-7.7638;0.4469;-3.7412;
3979801264949960;-9.7639;0.9380;-1.0008;
3979801275056367;-14.7873;-0.0129;-2.1697;
3979801285161106;-6.9039;0.8183;-1.4964;
3979801295265794;-6.7170;1.1919;-4.0190;
3979801305366783;-8.7867;0.3176;-1.8990;
3979801315471471;-6.2737;0.2100;-4.4958;
3979801325576210;-10.1665;0.4636;-7.8900;
3979801335688033;-14.8352;1.2736;-3.9497;
3979801345792773;-6.5563;1.6400;2.2502;
3979801355897460;-4.7169;1.3047;-2.4523;
3979801366014179;-9.0694;0.2626;-2.6991;
3979801376118919;-9.4932;0.9930;-4.3376;
3979801386223606;-0.2731;0.3511;-6.3090;
3979801396304856;15.5922;-0.0081;-9.4041;
3979801406409596;-17.5878;1.3358;-12.0775;
3979801416514283;-33.4125;3.0796;2.4823;
3979801426647096;-9.9532;-0.0440;11.5110;
3979801436751835;1.7512;1.8843;4.1665;
3979801446856523;-19.4994;1.3621;-0.7756;
3979801456941106;-35.1491;2.0590;7.2757;
3979801467045846;-4.4701;5.1805;9.0748;
3979801477150533;8.4514;1.8437;-2.6034;
3979801487257721;-9.7184;-4.0038;-8.6877;
3979801497362460;-36.9960;-1.6346;9.1681;
3979801507467148;3.7466;2.6677;20.3599;
3979801517588242;-3.6843;-1.2778;-18.2435;
3979801527692929;-15.4630;-1.4838;-17.5295;
3979801537797669;21.9165;0.3200;-1.8535;
3979801547876054;-7.0475;1.6854;-18.3945;
3979801557980794;-50.4347;1.9633;-27.1881;
3979801568085481;-17.6716;6.7567;-2.0474;
3979801578219596;12.1765;9.3153;16.4578;
3979801588324387;0.6084;3.8605;7.9585;
3979801598429075;-34.1623;-2.5834;-7.7225;
3979801608503658;-20.6492;-1.4647;-6.1822;
3979801618608398;9.2635;4.4617;4.1210;
3979801628713085;0.8384;-0.9042;-5.2382;
3979801638808137;-16.6032;-4.5547;0.2689;
3979801648912877;-0.7953;-1.2251;9.5420;
3979801659017564;-4.7046;-0.6981;-25.2694;
3979801669146783;-21.6290;-0.9353;-28.9968;
3979801679251523;-1.9164;1.5802;8.5167;
3979801689356210;1.7847;2.3874;5.8768;
3979801699474700;-13.3525;0.2363;-10.8030;
3979801709579439;-22.9920;1.5419;-9.9766;
3979801719684127;-10.3077;2.7203;10.8906;
3979801729772825;5.7517;3.8366;13.0202;
3979801739877564;-8.3124;0.9212;-7.6170;
3979801749982252;-16.1216;-3.6494;-9.0111;
3979801760108658;-8.5376;-2.5044;1.8595;
3979801770213398;-6.3191;0.2889;1.9098;
3979801780318085;-9.5076;-2.2528;-1.8248;
3979801790397200;-15.7074;-0.0730;0.0580;
3979801800501939;-7.4070;-0.3218;-0.1741;
3979801810606627;-8.8585;1.4243;-6.4840;
3979801820726575;-8.5639;0.5716;-1.7503;
3979801830831314;-7.3684;0.3679;-2.8140;
3979801840936002;-12.3655;1.0268;-6.3353;
3979801851034283;-10.3702;1.0125;-1.6881;
3979801861139023;-3.5429;0.6840;1.6798;
3979801871243710;-10.6505;-0.1926;-5.8469;
3979801881372825;-9.6538;-1.6346;-1.6953;
3979801891477564;-12.2219;-0.1448;-2.2798;
3979801901582252;-13.7931;0.2865;-3.8321;
3979801911650325;-4.9466;-0.1998;0.2689;
3979801921755064;-6.3864;-0.2429;-0.1959;
3979801931859752;-12.8662;-0.0392;-5.3629;
3979801941993710;-9.7184;-0.7771;-1.3911;
3979801952098450;-9.0239;-0.9832;-2.1266;
3979801962203137;-9.8791;-0.1448;-1.1444;
3979801972292304;-7.6657;-0.8369;1.7614;
3979801982397044;-11.1559;-0.9927;-4.8024;
3979801992501731;-11.8935;-0.5614;-2.8140;
3979802002618971;-8.3794;-0.6957;-0.7107;
3979802012723710;-7.8882;-0.6574;-1.9708;
3979802022828398;-6.3144;-1.6947;-3.4801;
3979802032923033;-12.4253;-0.5327;-5.4873;
3979802043027773;-12.1451;-0.8946;-0.5264;
3979802053132460;-6.2713;-1.2491;1.2200;
3979802063242200;-10.3005;-1.2036;-4.2921;
3979802073346939;-11.4147;-1.0597;-1.9469;
3979802083451627;-7.8476;0.1092;-2.0668;
3979802093566887;-10.0681;0.4373;-3.2046;
3979802103671627;-7.5314;-0.0706;-2.4571;
3979802113776314;-10.4539;0.1977;-3.8225;
3979802123880273;-7.6705;-0.4274;-1.7240;
3979802133985377;-9.8480;0.5644;-3.1878;
3979802144090429;-14.9121;0.7681;-3.0368;
3979802154190950;-10.5688;0.8806;1.1432;
3979802164296002;-6.4032;0.5070;0.6066;
3979802174401054;-8.8322;0.3846;-5.5137;
3979802184499752;-4.3190;-0.2381;-4.0238;
3979802194604856;4.0316;-0.2788;-4.4501;
3979802204709908;-40.5078;1.6208;-6.3715;
3979802214801054;-35.1060;2.4760;11.8199;
3979802224906106;6.4798;6.4549;10.9816;
3979802235011158;14.2364;0.0063;-0.1238;
3979802245102408;-5.8379;-5.5346;-12.1038;
3979802255207460;-21.4229;-1.8263;-15.9197;
3979802265312512;-9.5605;1.6256;-6.4122;
3979802275421835;-1.8565;3.9419;-4.9364;
3979802285526939;-7.8691;2.2316;-2.9028;
3979802295631992;-13.5778;0.5572;11.7290;
3979802305744127;-4.0699;1.0484;4.0995;
3979802315849231;-20.5080;3.2426;-32.6812;
3979802325954283;-14.0519;0.2818;-10.8604;
3979802336055846;8.2549;1.3502;15.4014;
3979802346160898;-4.2114;1.6543;-1.3816;
3979802356265950;-17.9088;-1.3232;-6.8913;
3979802366372200;-15.4726;-0.5136;4.2694;
3979802376477252;-8.0513;0.0589;11.0222;
3979802386582304;-5.0378;-0.8874;0.6284;
3979802396685742;-18.5483;-0.8297;-9.3156;
3979802406790794;-9.2707;-1.5508;-3.4226;
3979802416895846;2.0267;0.0278;-3.5495;
3979802426994179;-5.8187;-0.2644;-10.3600;
3979802437099231;-14.4544;-1.2227;-1.0510;
3979802447204283;-27.4837;1.6232;4.9881;
3979802457312564;-33.9610;3.9060;10.1695;
3979802467417669;12.3942;2.7036;13.4321;
3979802477522773;20.3880;-2.0420;-5.4993;
3979802487647044;-15.7457;-4.5763;-22.1674;
3979802497752148;-25.3277;-1.2969;-13.7184;
3979802507857200;-9.6969;3.5707;-5.6743;
3979802517953294;-1.8996;4.4474;-0.9790;
3979802528058398;18.9006;1.4052;3.0814;
3979802538163450;-31.3881;2.0590;-5.1616;
3979802548267669;-59.9928;4.2559;4.6792;
3979802558372773;-0.9293;5.2187;5.3904;
3979802568477825;12.3512;4.5984;-7.1450;
3979802578585481;0.0191;-4.2242;5.2612;
3979802588690585;-21.1379;-1.9774;-4.6298;
3979802598795637;-37.7985;3.4053;-3.6766;
3979802608890898;0.3520;1.9848;8.5262;
3979802618996002;15.8127;0.7657;-1.3672;
3979802629101054;-14.7969;-2.4108;-1.9062;
3979802639193971;-1.6624;-0.8755;6.8638;
3979802649299023;-6.6212;3.8222;-38.0878;
3979802659404075;-23.5693;2.5190;-36.4732;
3979802669529544;0.2085;1.4100;7.5754;
3979802679634648;-5.5576;2.1503;8.4855;
3979802689739700;-17.6357;0.8638;5.3330;
3979802699840585;-3.1167;-0.6814;0.0799;
3979802709945689;-14.1072;2.3225;-11.9842;
3979802720050742;-7.9026;-1.6274;7.3047;
3979802730138033;1.3510;-1.9678;2.0800;
3979802740243085;-17.5711;-0.0081;-14.9857;
3979802750348137;-8.6548;-2.7942;8.8783;
3979802760466419;1.6457;-3.6876;6.9787;
3979802770571523;-3.7083;-1.9388;-11.7829;
3979802780676575;4.0005;-2.7823;-7.1931;
3979802790780898;-6.5901;-3.3093;-17.2038;
3979802800886002;-15.7098;-1.6059;-11.9698;
3979802810991054;10.1450;0.7872;9.3933;
3979802821097877;-22.2111;-0.7268;-6.7044;
3979802831202981;-74.0280;2.2699;12.1220;
3979802841308033;-0.2946;0.9835;43.2897;
3979802851412148;39.2408;4.9409;-2.0812;
3979802861517252;-11.1631;-0.4992;-19.8820;
3979802871622304;-38.1266;-4.3729;-6.6494;
3979802881726054;-21.8252;-2.4443;11.5158;
3979802891831054;1.8805;3.7505;9.9084;
3979802901936158;4.8030;0.6386;0.1564;
3979802912041262;-3.5572;-1.6202;1.8188;
3979802922160377;-10.2072;-0.5542;2.0847;
3979802932265481;-18.0811;-1.4551;-35.6420;
3979802942370533;-37.1112;2.0542;-46.5416;
3979802952458502;11.9895;8.8122;13.4393;
3979802962563606;18.3425;6.9604;10.3421;
3979802972668658;-27.8716;3.6497;-19.5754;
3979802982766210;-22.2661;0.2148;-3.0846;
3979802992871314;1.3415;3.8151;4.9546;
3979803002976367;-3.6987;1.9250;-2.3061;
3979803013089544;-18.2417;-0.4155;-3.4155;
3979803023194648;-6.3912;-1.1124;8.8615;
3979803033299700;6.0679;0.1187;-3.8106;
3979803043412148;3.1741;-0.8225;-23.2813;
3979803053517252;-3.9239;-1.0214;-14.6213;
3979803063622304;-34.2844;1.4746;10.3182;
3979803073727044;-70.8446;1.4530;16.3857;
3979803083832148;-6.7648;-1.7163;26.2289;
3979803093937200;23.7036;6.8405;14.2660;
3979803104030221;17.9806;-4.4064;-7.2171;
3979803114135377;-15.0461;-5.8316;-22.4620;
3979803124240377;-27.2058;-1.9989;-18.2411;
3979803134358971;7.3831;-2.8923;0.4367;
3979803144463814;-2.1775;1.0292;-7.4231;
3979803154568658;-13.9801;0.2219;10.7396;
3979803164657200;-0.6586;0.7104;22.8730;
3979803174762044;-5.4377;-1.4384;-36.4110;
3979803184866887;-42.0936;-8.2654;-59.3408;
3979803194978919;-1.3487;3.0939;11.4559;
3979803205083762;10.5185;10.8266;18.1514;
3979803215188606;-20.6587;4.5266;2.1637;
3979803225277252;-21.8542;0.5309;8.4066;
3979803235382148;-8.1852;1.0002;7.1297;
3979803245486992;-0.4262;3.5037;6.4708;
3979803255593867;-0.8336;-2.0898;-7.4614;
3979803265698710;-20.5654;-3.6948;-22.1985;
3979803275803502;-12.9380;-1.7880;-0.6126;
3979803285911523;4.5371;2.2316;5.1078;
3979803296016367;-11.9513;3.8103;-13.8479;
3979803306121210;-10.0514;2.2627;-0.8498;
3979803316241939;-7.1240;2.3707;-1.1085;
3979803326346835;-17.5687;2.7610;-5.9737;
3979803336451627;-10.0971;0.3344;6.5955;
3979803346534335;-3.5812;0.9212;0.4199;
3979803356639179;-13.5897;1.9825;-10.1492;
3979803366744023;-12.3296;0.0733;5.6085;
3979803376855012;-7.2535;-0.2213;3.1962;
3979803386959856;-12.5907;1.1273;-6.1941;
3979803397064700;-5.3492;-0.0224;1.1889;
3979803407163502;-6.9015;0.7872;-0.8378;
3979803417268346;-15.3790;-0.2118;-3.6356;
3979803427373189;-5.8810;-2.0539;1.2057;
3979803437481783;-6.2282;-0.8154;-10.1779;
3979803447586627;-13.1848;-0.6574;-9.9933;
3979803457691471;-13.6854;-0.7077;4.1593;
3979803467798242;-6.5539;-0.1519;-0.9479;
3979803477903085;-6.8533;0.9858;-6.7307;
3979803488007929;-14.4951;1.2879;-1.2906;
3979803498122460;-10.1904;0.6529;2.2310;
3979803508227304;-4.8293;-0.4370;0.1038;
3979803518332200;-8.9423;-0.6479;-3.5112;
3979803528440689;-10.4372;-0.5447;-5.9952;
3979803538545533;-14.1479;-0.7507;-3.0775;
3979803548650429;-11.5965;-1.4934;3.8166;
3979803558747148;-6.8871;-0.8707;0.4702;
3979803568851992;-8.1589;0.0135;-7.6481;
3979803578956887;-10.2885;0.6218;-1.4677;
3979803589041054;-8.2693;-0.5471;1.3732;
3979803599145950;-12.2124;-0.3556;-4.8861;
3979803609250742;-7.7830;-0.3556;-1.0343;
3979803619381939;-5.9767;-0.1783;-2.0569;
3979803629486783;-11.6997;0.0206;-4.9436;
3979803639591679;-8.6859;-0.2022;-1.8990;
3979803649709387;-5.6677;-0.5518;-3.5901;
3979803659814179;-14.7203;0.2602;-5.3964;
3979803669919023;-11.9318;0.4588;-0.2079;
3979803680017460;-11.7308;1.6424;-0.1573;
3979803690122356;-7.4189;0.2961;1.9026;
3979803700227200;-4.9083;-0.3365;-2.4284;
3979803710315117;-11.1488;0.4660;-9.1621;
3979803720419960;-9.1005;0.0182;-0.9766;
3979803730524804;-6.7313;0.3488;-3.7220;
3979803740623971;-14.7826;0.4086;-6.3042;
3979803750728814;-9.2082;-0.5279;3.3712;
3979803760833658;-0.8934;-0.2118;-0.4905;
3979803770941367;-13.8051;0.3081;-10.2832;
3979803781046210;-15.5181;0.6027;-1.0893;
3979803791151054;-5.0904;0.7753;1.8643;
3979803801268137;-6.5180;1.0747;-5.2597;
3979803811372981;-9.7998;0.3081;-4.0789;
3979803821477825;-8.6285;-0.3099;-1.3098;
3979803831574700;-9.1531;-0.2166;-4.7785;
3979803841679544;-10.6911;0.0709;-0.0951;
3979803851784387;-10.0633;0.3751;-2.2415;
3979803861890742;-13.4124;0.8877;-2.9626;
3979803871995533;-5.7948;0.8973;2.1781;
3979803882100429;-7.2105;0.0039;-2.9841;
3979803892210117;-14.5837;1.4698;-6.6613;
3979803902314960;-9.6515;0.9117;-1.0319;
3979803912419804;-4.7862;1.5873;-1.9086;
3979803922512512;-8.0632;0.7271;-5.1808;
3979803932617356;-13.9944;0.3703;-2.6536;
3979803942722148;-12.6266;0.8040;0.9924;
3979803952828867;-6.1445;1.1177;-1.6235;
3979803962933710;-5.6414;1.2015;-5.3103;
3979803973038554;-12.1211;1.2350;-4.4719;
3979803983141158;-15.2761;1.9107;2.8322;
3979803993246002;-7.3756;0.5788;-0.5862;
3979804003350846;-6.8366;1.8051;-6.7068;
3979804013462200;-6.9613;0.6075;-2.7470;
3979804023567044;-9.9245;0.1331;-2.3204;
3979804033671887;-14.6868;0.6936;-2.8355;
3979804043771783;-10.4468;0.8734;0.6212;
3979804053876627;-4.6232;1.3836;-3.5710;
3979804063981471;-1.4659;0.7801;-3.8800;
3979804074084596;-17.3674;-0.1328;-0.7732;
3979804084189439;-25.4163;0.4349;2.4488;
3979804094294283;-2.6016;1.8748;1.9504;
3979804104390064;4.4533;1.3765;-5.0180;
3979804114494960;-12.0829;-0.4801;-9.1478;
3979804124599804;-15.7911;-1.1148;-0.7804;
3979804134724283;-11.8265;0.1379;4.1856;
3979804144829023;-7.7303;1.4746;-1.8081;
3979804154933762;-6.0221;0.3129;-3.1277;
3979804165023137;-10.8180;-0.3242;1.0881;
3979804175127877;-12.6841;-0.5495;5.5439;
3979804185232617;-8.6572;-1.3735;-1.8703;
3979804195321783;-11.1293;1.7261;-18.5716;
3979804205426523;-6.8151;-1.0836;-0.6437;
3979804215531262;-4.6328;-2.2648;12.4693;
3979804225648867;-12.0661;0.2411;-6.1367;
3979804235753554;-13.5105;0.5381;-8.1033;
3979804245858346;-10.0250;-0.4178;3.3401;
3979804255960325;-12.1379;1.1536;3.2345;
3979804266065064;-7.7686;0.3129;0.8294;
3979804276169804;-9.4119;0.6577;-4.1865;
3979804286281054;-9.6419;-1.0573;-3.4107;
3979804296385794;-10.1354;-1.0693;-4.1985;
3979804306490533;-11.7308;-0.5399;-2.3997;
3979804316595846;-7.3205;-0.3843;2.9207;
3979804326700585;-6.5109;1.0484;-3.3673;
3979804336805325;-10.4324;-0.4083;-6.3401;
3979804346901887;-10.8203;-1.2036;2.4320;
3979804357006627;-9.3329;1.7357;-0.7493;
3979804367111367;-11.0216;0.7705;-7.7201;
3979804377221939;-10.1210;-0.5040;-1.6283;
3979804387326679;-6.7193;0.8614;-0.2964;
3979804397431419;-7.8667;1.1704;-4.6705;
3979804407540429;-9.5557;-0.2788;-5.7197;
3979804417645169;-12.7223;-0.0873;-2.5672;
3979804427749908;-8.7891;1.2422;-0.6030;
3979804437869283;-8.6883;1.6687;-2.2606;
3979804447974023;-7.0738;0.3488;-0.4810;
3979804458078762;-10.4659;0.8351;-1.2018;
3979804468181523;-11.8122;0.7394;-2.8860;
3979804478286314;-8.9638;0.6840;-3.6165;
3979804488391054;-9.5195;0.9476;-0.9287;
3979804498470117;-8.5831;1.2541;-1.8105;
3979804508574804;-10.0131;0.1786;-4.5365;
3979804518679596;-11.1102;0.4493;-1.0678;
3979804528818502;-7.7614;0.5883;-0.6078;
3979804538923242;-8.4033;0.8710;-5.0850;
3979804549027981;-10.9738;0.1116;-1.7647;
3979804559106367;-9.6897;0.8518;2.6812;
3979804569211106;-8.2430;1.4483;-1.0726;
3979804579315794;-11.1966;0.2889;-6.9129;
3979804589425117;-8.9734;-0.1208;0.2928;
3979804599529856;-6.3864;0.7343;-0.9936;
3979804609634596;-12.4831;0.0900;-6.6661;
3979804619739023;-10.4755;0.2100;-0.6867;
3979804629843762;-8.9447;1.3167;-0.7923;
3979804639948502;-9.6969;0.9858;-3.7149;
3979804650052929;-8.6548;0.3392;0.6523;
3979804660157669;-11.7595;1.1512;-0.4184;
3979804670262408;-11.0599;0.7271;-1.6283;
3979804680409179;-7.2296;-0.0129;-1.4797;
3979804690513919;-9.6706;0.2267;-3.3147;
3979804700618658;-9.1843;-0.2429;-2.2128;
3979804710684804;-8.6285;-0.0248;-2.1218;
3979804720789544;-10.6074;-0.1735;-3.7292;
3979804730894283;-8.6692;-0.0730;-0.8306;
3979804740992512;-11.8481;0.8901;-2.4739;
3979804751097252;-11.4171;0.9021;0.7863;
3979804761201992;-6.4463;0.9906;3.3185;
3979804771313606;-7.1411;0.7681;-4.7761;
3979804781418346;-13.7309;-1.1076;-6.5821;
3979804791523085;-7.8882;0.0087;1.9481;
3979804801633658;-7.6511;1.1369;-0.0233;
3979804811738398;-13.5993;0.9595;-4.2969;
3979804821843137;-9.3377;-0.3003;0.7146;
3979804831944804;-7.8380;0.6840;-0.7923;
3979804842049544;-10.9881;0.3081;-3.3553;
3979804852154283;-8.4969;-0.6526;0.1636;
3979804862275585;-9.8432;0.6123;-1.8894;
3979804872380325;-11.9560;-0.0778;-1.9062;
3979804882485012;-11.6806;0.7585;0.8462;
3979804892576262;-5.5313;0.7199;-0.6365;
3979804902681002;-8.7867;-0.3532;-4.6178;
3979804912785689;-11.8505;-0.7436;-2.8379;
3979804922890221;-11.5774;-0.3147;-0.4690;
3979804932994960;-8.3507;0.7466;-1.1946;
3979804943099700;-9.7352;0.4253;-4.0119;
3979804953199283;-10.9810;0.3655;0.9278;
3979804963304023;-8.8011;0.5572;0.7887;
3979804973408762;-10.0514;0.6529;-3.6694;
3979804983510950;-9.6323;-0.2716;-2.0282;
3979804993615689;-7.8165;-0.0009;-2.4619;
3979805003720429;-9.3520;-0.2955;-4.8431;
3979805013824283;-12.1044;-1.0669;-2.0019;
3979805023929023;-11.9441;-0.0296;0.9494;
3979805034033762;-9.5486;1.3908;-1.9971;
3979805044145117;-9.7113;0.7080;-3.9616;
3979805054249856;-13.6161;0.2291;1.3086;
3979805064354596;-7.0618;1.5153;0.7002;
3979805074467408;5.2415;-0.5183;-7.1764;
3979805084572148;-4.9753;-2.8014;-10.2281;
3979805094676887;-17.8370;-1.5748;-4.1626;
3979805104763658;-17.2642;0.6218;2.6668;
3979805114868398;-10.5066;2.1670;1.3277;
3979805124973137;-1.2287;1.7453;-1.1587;
3979805135110742;-5.6988;-0.5279;-4.0621;
3979805145215637;-16.3182;-0.3051;-5.5594;
3979805155320533;-15.5228;1.1943;1.2583;
3979805165402929;-7.3926;2.7921;1.8739;
3979805175507825;-8.5878;2.8810;-5.3844;
3979805185612721;-11.3139;0.4421;1.1073;
3979805195715064;-10.2814;0.1235;10.9409;
3979805205820012;-6.4941;1.7261;1.6487;
3979805215924856;-8.3770;-1.5078;-10.2449;
3979805226022877;-11.8385;-3.8243;-7.2673;
3979805236127773;-9.1843;-1.3687;0.6236;
3979805246232669;-7.5338;1.2015;-1.4629;
3979805256341002;-9.4741;1.6161;-4.9484;
3979805266445950;-10.0537;0.3799;-0.8593;
3979805276550794;-9.3832;1.0795;-1.4725;
3979805286660846;-10.0585;1.4674;-3.8560;
3979805296765689;-10.3149;0.9284;-1.6690;
3979805306870585;-8.3148;1.3645;0.1469;
3979805316977200;-8.9375;0.8495;-3.9111;
3979805327082044;-11.7571;0.2171;-3.9784;
3979805337186939;-8.8059;0.2124;1.0140;
3979805347270169;-8.9112;1.2999;-1.5302;
3979805357375117;-12.3153;1.2613;-3.1110;
3979805367479960;-10.6122;1.3860;1.4115;
3979805377605429;-10.7246;1.6615;0.3191;
3979805387710325;-8.4873;0.9691;-1.6451;
3979805397815169;-7.9627;0.4684;-1.9780;
3979805407895846;-10.7270;1.3023;-2.0692;
3979805418000689;-8.4464;0.2602;-1.3050;
3979805428105585;-8.1661;-0.0200;-4.2802;
3979805438238814;-9.2513;-0.2453;-3.2213;
3979805448343710;-10.5592;-0.1304;0.7959;
3979805458448554;-10.5018;1.6543;-1.4270;
3979805468524648;-10.2790;1.6017;-2.5720;
3979805478629544;-7.6080;0.4253;0.1588;
3979805488734439;-5.9216;0.2506;-2.3782;
3979805498841627;-0.5701;-0.2309;-7.7345;
3979805508946523;-20.6468;-0.5686;-6.6685;
3979805519051419;-28.5159;1.4698;7.2565;
3979805529194700;-2.6136;3.7863;8.0590;
3979805539299648;5.1718;1.5296;-7.3511;
3979805549404492;-11.2134;-3.2468;-7.1859;
3979805559499648;-17.8705;-0.7268;-2.3806;
3979805569604596;-11.0886;2.0809;-1.1420;
3979805579709439;-6.7840;0.4588;-2.4045;
3979805589812773;-9.4789;0.1834;-0.1119;
3979805599917721;6.3218;0.0637;-2.4188;
3979805610022564;-5.3180;-3.0482;-12.1995;
3979805620137356;-37.9017;0.2841;3.9508;
3979805630242252;-10.3439;2.6964;18.7932;
3979805640347148;-1.0229;4.3780;-21.5707;
3979805650430846;-3.0829;-4.7034;-12.8800;
3979805660535742;-7.4333;-2.6815;11.9518;
3979805670640637;-19.0490;4.4955;-1.1970;
3979805680744075;-10.7557;3.0437;-8.2134;
3979805690848971;-2.1344;-2.1114;0.8151;
3979805700953867;-8.9782;0.3488;0.1445;
3979805711066367;-13.2015;0.2387;-4.4477;
3979805721171262;-19.1112;0.1953;1.9193;
3979805731276158;-0.9245;1.1297;16.8027;
3979805741368710;2.0578;1.5129;-15.1149;
3979805751473606;-23.3513;-4.0134;-25.8948;
3979805761578502;-13.3071;-3.9631;7.9705;
3979805771692512;-5.1646;3.0461;15.4995;
3979805781797408;-12.4205;5.0656;-10.7408;
3979805791902304;-14.7921;0.5716;-6.7786;
3979805802013554;-10.6528;0.7585;8.3656;
3979805812118450;-3.6676;3.0245;2.2214;
3979805822223346;-0.7786;-0.3772;-8.6136;
3979805832312669;-10.5927;-3.6924;-7.9645;
3979805842417617;-11.9513;-2.1233;-3.6165;
3979805852522512;-3.7561;-2.0946;-4.4548;
3979805862646679;-3.6652;-3.9942;-6.7929;
3979805872751523;-1.8446;-4.8951;-0.7155;
3979805882856419;-6.6021;-2.9210;-3.2716;
3979805892967929;-9.1603;-2.6719;-8.3907;
3979805903072825;2.0913;-4.4064;-7.3845;
3979805913177721;-26.6764;-6.5025;-2.8669;
3979805923265637;-59.9282;7.8610;20.3025;
3979805933370533;-11.0312;33.4977;25.6134;
3979805943475429;18.1579;22.4713;13.1495;
3979805953567252;-2.0770;-6.6652;-10.9660;
3979805963672200;-14.2244;-9.7029;-36.3631;
3979805973806523;-3.0350;-10.1387;-20.8977;
3979805983911419;-10.2957;-6.6006;11.7123;
3979805994016314;-40.3140;3.9494;29.5995;
3979806004093137;-14.2364;25.5254;21.6918;
3979806014198085;29.8744;9.9619;1.5003;
3979806024302981;15.4846;-25.0723;-22.8212;
3979806034426783;-15.0150;-11.3677;-10.0555;
3979806044531679;-33.5872;5.4033;-15.1846;
3979806054636575;-45.1983;4.7734;-41.1709;
3979806064734492;-3.5620;1.0388;15.1786;
3979806074839335;46.2213;8.9462;45.8288;
3979806084944283;0.4241;6.2632;-21.7720;
3979806095031731;-79.2694;-11.7700;-22.2512;
3979806105136627;-27.5913;-2.9952;36.0697;
3979806115241523;68.7533;1.2446;-13.2559;
3979806125369856;17.8202;-5.9779;-25.2048;
3979806135474804;-54.4711;-12.3209;-14.9187;
3979806145579648;-27.4837;-1.9149;33.1352;
3979806155681419;11.1488;19.0026;14.8074;
3979806165786367;-8.7075;-10.6155;-37.7190;
3979806175891210;-15.5611;-23.2253;-11.5935;
3979806185985637;7.7638;6.2273;7.0627;
3979806196090481;-16.5171;6.4573;-15.7041;
3979806206195429;-27.2082;-0.0033;3.3497;
3979806216295221;13.2425;14.5349;20.8558;
3979806226400117;-1.3702;2.7179;-34.6789;
3979806236504960;-48.6838;-10.7686;-28.7740;
3979806246593242;2.4553;11.9839;44.9928;
3979806256698137;19.9307;24.1433;14.9821;
3979806266803033;-22.8075;-1.6756;-13.6131;
3979806276928450;-24.1992;-11.6695;-4.0454;
3979806287033294;-3.1406;-0.2572;0.3697;
3979806297138189;2.9895;0.5979;-2.1482;
3979806307227460;-11.2756;-1.0478;-7.9932;
3979806317332408;-19.4563;1.3454;-0.5815;
3979806327437252;-6.6141;3.6233;5.4864;
3979806337551575;-4.7910;0.9452;-7.6600;
3979806347656471;-14.4114;-1.1414;-6.6350;
3979806357761314;-8.5424;4.0786;3.3879;
3979806367853502;-7.3588;3.7792;-2.9148;
3979806377958398;-16.1360;-0.0655;-3.1062;
3979806388063242;-7.1192;2.1742;4.9594;
3979806398175794;-4.2305;2.2172;-3.4681;
3979806408280742;-14.5884;-1.2586;-4.8790;
3979806418385533;-8.3770;1.8915;1.6439;
3979806428489648;-5.0163;1.8461;-5.5017;
3979806438594596;-14.3345;-0.5207;-5.8110;
3979806448699439;-10.6672;2.9145;1.4405;
3979806458839439;-6.2641;4.0379;-2.5863;
3979806468944335;-11.8744;1.6184;-5.0611;
3979806479049231;-8.2119;2.6052;1.5314;
3979806489116314;-5.4066;2.9862;-1.1396;
3979806499221262;-12.9691;1.1656;-4.5628;
3979806509326106;-10.2718;1.9298;-1.1180;
3979806519454856;-9.0981;2.2005;-1.7815;
3979806529559804;-10.1115;2.0303;-1.0822;
3979806539664648;-7.7686;1.7907;0.6114;
3979806549780377;-8.0513;2.1646;-4.1100;
3979806559885273;-11.6516;0.0087;-2.2630;
3979806569990169;-7.8308;1.1465;-0.2486;
3979806580069648;-9.8647;1.0244;-4.9316;
3979806590174544;-12.3775;-0.7053;-2.1936;
3979806600279439;-8.0178;0.3129;2.4703;
3979806610385846;-10.2311;0.0015;-1.1539;
3979806620490689;-11.4745;-1.8144;0.1780;
3979806630595637;-7.3277;-1.0286;-0.6293;
3979806640708606;-8.7123;-1.7426;-3.5375;
3979806650813502;-8.1111;-2.6671;-2.8693;
3979806660918398;-8.6644;-1.2323;-3.6885;
3979806671016367;-13.2470;-0.5112;-1.5203;
3979806681121262;-9.0120;0.4636;1.5601;
3979806691226158;-6.7840;0.3751;-1.8153;
3979806701328137;-12.0541;-1.1076;-4.3783;
3979806711433033;-13.0747;-0.1496;-0.4834;
3979806721537929;-7.9555;1.6184;1.5147;
3979806731643137;-10.1186;0.1259;-2.4667;
3979806741748033;-12.1020;-0.3556;-2.5744;
3979806751852929;-11.7715;0.7920;-1.1468;
3979806761966575;-9.5988;2.0279;-0.9479;
3979806772071471;-5.5385;0.0135;-1.7815;
3979806782176367;-12.5668;0.3583;-2.6201;
3979806792264804;-12.9428;0.9643;-1.0152;
3979806802369700;-8.8777;0.3535;-0.6173;
3979806812474596;-8.7413;0.0206;-1.3792;
3979806822585742;-10.8180;0.1881;-1.7288;
3979806832690637;-11.0671;0.7848;-0.2462;
3979806842795533;-8.9662;0.4253;-0.3945;
3979806852903971;-8.8370;0.6003;-1.5470;
3979806863008867;-8.6716;0.0302;-2.1386;
3979806873113710;-11.1990;0.2411;-2.4547;
3979806883220794;-10.6624;0.3440;-2.0907;
3979806893325742;-7.5147;0.4445;-1.9349;
3979806903430585;-9.1340;0.7490;-1.1420;
3979806913521939;-10.3005;0.3799;-0.1669;
3979806923626887;-11.5008;-0.1543;-0.8402;
3979806933731783;-9.7041;0.2650;0.9398;
3979806943836314;-10.3415;-0.2261;-0.7612;
3979806953941262;-13.0002;0.8399;1.9842;
3979806964046158;-8.9758;0.5477;3.8815;
3979806974166783;-10.3917;0.0565;1.3875;
3979806984271471;-13.4291;0.0589;1.1360;
3979806994376158;-11.1583;-0.0993;1.8165;
3979807004474700;-7.2392;0.6266;0.9733;
3979807014579387;1.2266;-0.8779;-1.6762;
3979807024684127;-11.8576;-0.2094;-4.1219;
3979807034804075;-18.9317;0.3870;-2.2463;
3979807044908762;-6.9541;-1.3400;-2.7565;
3979807055013450;-6.1181;-0.6646;-0.2055;
3979807065088189;-9.9604;0.0565;1.2129;
3979807075192877;-11.4147;-1.2945;0.4798;
3979807085297564;-10.5592;-0.3724;0.5492;
3979807095407929;-9.5797;-0.7795;1.9169;
3979807105512617;-10.8682;0.0135;1.5434;
3979807115617356;-6.8680;-0.5160;0.2689;
3979807125720950;-7.7255;-0.0535;-2.2534;
3979807135825637;-13.5464;0.8207;-3.6909;
3979807145930325;-13.6328;0.2315;-1.4509;
3979807156062200;-8.3459;-1.0621;0.7122;
3979807166166887;-3.8901;-1.6681;5.5056;
3979807176271575;-7.5817;-1.2108;-0.5456;
3979807186355846;-18.4023;-0.2548;-2.8669;
3979807196460533;-11.4218;-1.1148;1.3086;
3979807206565221;-2.0626;-0.4513;0.4917;
3979807216663867;-10.2838;0.6984;-1.5852;
3979807226768554;-18.8429;1.4674;-0.6652;
3979807236873242;-8.4754;-0.2764;1.5553;
3979807246975950;-2.7858;0.8590;1.2823;
3979807257080637;-12.0063;1.5682;-1.5948;
3979807267185325;-16.7877;0.9356;-1.1420;
3979807277296887;-4.9537;1.1130;3.2800;
3979807287401575;-3.8877;0.7681;-1.4438;
3979807297506262;-15.2282;2.1383;-2.2726;
3979807307609179;-12.9380;0.8686;-2.4404;
3979807317713867;-5.4760;1.5778;-0.6772;
3979807327818554;-7.9579;1.5826;-0.4065;
3979807337905012;-12.6625;1.4865;0.2617;
3979807348009700;-9.4813;0.6673;-0.1238;
3979807358114439;-9.4789;0.8016;-0.9909;
3979807368246575;-11.8696;0.8638;0.6236;
3979807378351262;-9.0168;1.3430;2.6883;
3979807388455950;-8.1302;0.8447;-2.2008;
3979807398570950;-13.9849;0.7152;-1.3457;
3979807408675637;-11.2732;0.5955;2.3124;
3979807418780325;-6.8943;0.2530;0.6930;
3979807428868033;-10.3774;0.3918;-0.5168;
3979807438972721;-12.6506;0.6769;-0.5719;
3979807449077460;-10.2526;0.4950;0.1181;
3979807459180533;-9.1340;-0.8297;0.3215;
3979807469285221;-10.6576;0.1427;-1.3050;
3979807479389960;-11.8385;-0.3676;-0.2677;
3979807489495117;-8.0393;-1.2203;1.5912;
3979807499599804;-6.6523;-0.1041;-0.4208;
3979807509704544;-11.1174;-0.0224;-2.2702;
3979807519831575;-12.6817;-0.2070;-0.6006;
3979807529936262;-7.4166;0.4086;-0.5599;
3979807540040950;-9.2632;0.6793;-0.4519;
3979807550119804;-10.7007;0.2001;-0.0999;
3979807560224492;-9.8264;0.8590;-0.0353;
3979807570329231;-10.6935;0.4711;-0.0951;
3979807580451783;-8.8705;0.3416;-0.2701;
3979807590556471;-7.3612;0.6673;-1.0104;
3979807600661158;-9.5195;0.9930;-0.5527;
3979807610753971;-16.0164;1.4578;-0.7995;
3979807620858658;-14.2053;0.2219;-1.0463;
3979807630963398;-6.2593;1.5778;1.3899;
3979807641074908;-5.8116;1.0819;0.9733;
3979807651179596;-10.0995;0.3344;0.5133;
3979807661284283;-12.8231;1.0340;-0.7325;
3979807671393137;-10.1713;0.4349;-1.2377;
3979807681497825;-8.4368;0.7199;-0.7564;
3979807691602564;-11.9728;1.2087;0.3553;
3979807701703554;-11.4386;0.3176;1.5362;
3979807711808242;-7.9388;0.1618;0.9900;
3979807721912929;-10.6696;1.5344;-0.2605;
3979807732012304;-10.3893;0.6123;0.2139;
3979807742116992;-5.9815;0.7343;0.1995;
3979807752221679;-8.0441;0.5501;-1.5012;
3979807762332617;-13.7596;1.2230;-1.8200;
3979807772437304;-11.8768;0.8279;-1.1444;
3979807782541992;-7.7016;1.1393;1.5553;
3979807792644075;-6.4582;1.6902;0.4008;
3979807802748762;-23.3249;2.0614;-3.7962;
3979807812853450;-43.7417;3.0221;5.4817;
3979807822960950;-12.9476;1.4004;11.8657;
3979807833065637;18.0383;3.3718;15.5474;
3979807843170325;-1.3822;3.2186;4.4922;
3979807853273867;-19.4731;0.0015;-5.2262;
3979807863378554;-9.9796;0.5524;-7.5188;
3979807873483242;0.6422;-0.9903;-9.8713;
3979807883603762;-3.8399;-1.3113;-11.3970;
3979807893708450;-9.6754;-2.3629;-8.1631;
3979807903813137;-7.3612;-3.3284;-2.7805;
3979807913922825;-6.5013;-2.2744;-1.6211;
3979807924027512;-10.9044;-1.1725;-0.1717;
3979807934132200;-9.3975;-0.9544;5.7236;
3979807944207825;-5.5528;-0.3939;5.6587;
3979807954312512;-9.5267;0.6386;2.2406;
3979807964417200;-12.5381;0.5142;0.9326;
3979807974531887;-10.4539;0.5859;-1.9756;
3979807984636627;-9.6706;1.9131;-0.6221;
3979807994741262;-7.3469;0.6960;1.5912;
3979808004837096;-8.9327;0.4349;-2.7063;
3979808014941835;-11.2923;0.9547;-10.5419;
3979808025046523;-17.4296;2.4903;-15.3281;
3979808035132200;-17.4966;4.3253;-2.2056;
3979808045236887;-7.1049;3.2856;12.8836;
3979808055341575;-9.8145;2.2866;7.8314;
3979808065466575;-14.8496;1.8461;7.6639;
3979808075571314;-11.8122;0.2267;10.9026;
3979808085676002;-6.6428;-0.6909;9.1537;
3979808095786523;-8.0297;-1.3639;4.7509;
3979808105891210;-13.5634;-1.3639;0.6114;
3979808115995950;-10.2000;-2.1616;1.7423;
3979808126105064;-5.1766;-2.7126;-0.6102;
3979808136209752;-8.6644;-3.0840;-4.6490;
3979808146314439;-13.1010;-3.3811;-2.2534;
3979808156406887;-7.5625;-2.5714;-1.0175;
3979808166511575;-7.1626;-1.4022;-1.4294;
3979808176616262;-10.8924;-1.1267;1.1216;
3979808186729492;-9.6706;0.1810;0.9829;
3979808196834179;-10.8876;-0.0129;1.4764;
3979808206938919;-10.1713;1.2494;2.1900;
3979808217039856;-7.7351;1.1441;0.5539;
3979808227144544;-11.1245;1.4387;-0.0664;
3979808237249283;-11.7500;1.7883;0.1134;
3979808247347096;-8.4368;0.0398;-1.3098;
3979808257451783;-9.9772;0.2315;-3.1038;
3979808267556471;-8.1781;-0.8994;-2.6321;
3979808277692825;-6.0341;-2.0396;-3.8249;
3979808287797512;-14.7730;-2.2720;-4.7856;
3979808297902252;-13.3238;-1.9439;-1.6522;
3979808307962408;-5.5840;-0.6335;-2.1673;
3979808318067096;-7.4907;0.1762;-2.1170;
3979808328171783;-13.9346;-0.1783;-1.0247;
3979808338344283;-11.5319;-0.0682;0.3215;
3979808348448919;-6.5901;0.5142;-0.2390;
3979808358553658;-9.6227;-0.0488;-1.9947;
3979808368613033;-12.9236;-0.4944;-0.2964;
3979808378717721;-10.1474;-0.5662;0.1899;
3979808388822408;-7.3086;-0.1041;-0.8115;
3979808398928450;-10.7964;-0.0754;-2.7254;
3979808409033137;-13.1082;-0.4992;-2.5361;
3979808419137877;-7.4572;-0.5160;0.5827;
3979808429259700;-6.6811;-1.4527;-1.1037;
3979808439364439;-11.9390;-0.9903;-2.1553;
3979808449469127;-10.8515;-1.5102;0.5563;
3979808459575846;-7.5841;-1.3926;-2.0644;
3979808469680533;-9.1244;-1.3161;-2.0859;
3979808479785273;-8.4344;-1.3831;-2.8956;
3979808489862356;-7.8308;-0.7077;-2.1099;
3979808499967044;-8.4129;-1.1100;-4.0262;
3979808510071783;-10.3941;-0.9832;-4.4022;
3979808520205742;-11.9151;-0.7172;-4.5724;
3979808530310481;-12.3870;-1.7378;-2.5911;
3979808540415169;-7.2655;-1.6609;0.5396;
3979808550492617;-10.0657;-1.2993;1.0116;
3979808560597304;-14.9001;-0.4250;-0.6939;
3979808570702044;-12.2578;0.2530;-3.2333;
3979808580830325;-8.4993;0.5070;-0.6485;
3979808590935012;-3.5357;0.3607;0.1516;
3979808601039700;-4.7527;1.7596;-5.4179;
3979808611125012;-11.4936;2.3707;-9.5381;
3979808621229752;-9.6467;1.4698;-6.9870;
3979808631334439;-4.8197;1.1680;-3.5303;
3979808641465533;-7.4716;1.2903;-4.0478;
3979808651570221;-10.4587;0.7199;-4.4791;
3979808661674960;-12.4134;-0.6670;0.1684;
3979808671761887;-11.9079;-0.7890;4.1163;
3979808681866575;-10.9977;0.8207;0.6739;
3979808691971314;-10.5233;-0.3867;1.3014;
3979808702076471;-9.5581;-0.6311;3.6706;
3979808712181158;-10.1498;0.5381;0.1564;
3979808722285898;-12.2049;1.0627;-1.9181;
3979808732397200;-11.7356;1.1919;-0.0042;
3979808742501887;-8.9423;1.0962;1.1456;
3979808752606627;-7.7542;2.1790;-1.7838;
3979808762703346;-10.1234;1.8102;-3.3505;
3979808772808033;-11.4000;1.1441;-2.6728;
3979808782912773;-10.9211;0.8447;-1.2715;
3979808793021523;-11.0527;0.6434;-0.5480;
3979808803126210;-10.5975;0.0565;-0.0066;
3979808813230950;-10.4109;0.3344;0.1253;
3979808823332617;-11.4960;0.4253;-1.2401;
3979808833437304;-12.0326;0.4038;-0.7035;
3979808843542044;-9.5892;0.0206;2.0106;
3979808853644596;-8.6453;0.2961;0.3912;
3979808863749283;-11.8720;-0.6239;0.1349;
3979808873854023;-11.3785;-1.3137;1.8643;
3979808883969387;-9.0431;-1.0430;-0.0257;
3979808894074075;-10.0418;-0.7220;-0.5575;
3979808904178762;-10.5688;-1.2203;0.3096;
3979808914333867;-11.1416;-1.1749;0.3984;
3979808924438554;-9.2584;-0.8922;0.6018;
3979808934543294;-8.6788;-0.9497;-0.9239;
3979808944580742;-10.7007;0.9045;-2.8044;
3979808954685429;-12.1786;0.3583;-0.8737;
3979808964790169;-8.2023;0.3966;0.4822;
3979808974895533;-9.3568;1.1728;-0.8617;
3979808985000221;-11.4673;0.6625;-0.3897;
3979808995104960;-10.7198;0.9715;1.6487;
3979809005214283;-9.6897;0.6769;0.3529;
3979809015319023;-10.5520;0.7633;0.2306;
3979809025423710;-9.8049;1.0675;0.3529;
3979809035509648;-9.9700;1.2832;-1.0391;
3979809045614387;-10.7773;0.9715;-0.7828;
3979809055719075;-10.2574;0.9715;-0.7277;
3979809065837096;-9.9269;1.0890;-0.7059;
3979809075941783;-10.4659;1.3430;-0.5049;
3979809086046523;-10.6241;1.4291;-0.3347;
3979809096158554;-8.4033;1.3286;0.0772;
3979809106263242;-10.1139;1.3717;-0.4400;
3979809116367981;-10.6768;1.4961;-1.0199;
3979809126467721;-9.7376;1.2111;-0.0377;
3979809136572408;-9.2225;2.0447;0.2976;
3979809146677096;-8.0632;0.9021;-1.0223;
3979809156784387;-10.7797;1.9513;-1.2882;
3979809166889075;-8.9495;0.2794;-1.0247;
3979809176993814;-8.6261;1.8437;-1.3863;
3979809187096887;-9.7400;0.9165;-2.0668;
3979809197201575;-10.2574;1.9178;-1.6044;
3979809207306314;-8.3315;2.4281;-1.7456;
3979809217402096;-9.9580;1.8102;-1.5012;
3979809227506783;-11.2899;3.0293;-0.5862;
3979809237611471;-9.8719;1.4794;-0.3778;
3979809247751158;-10.0923;2.4138;0.9015;
3979809257855846;-8.4826;1.3071;0.1158;
3979809267960533;-10.8132;1.4363;-1.2138;
3979809278034023;-11.2205;2.0136;-0.3538;
3979809288138762;-9.5438;0.7056;-0.3778;
3979809298243450;-9.2707;1.7501;-0.6963;
3979809308355846;-10.1402;1.5682;-1.0367;
3979809318460533;-10.9570;1.2661;-1.5996;
3979809328565221;-10.8706;1.6065;-1.4174;
3979809338660429;-10.0179;1.4028;-0.2198;
3979809348765117;-8.7580;1.7883;-0.6078;
3979809358869804;-9.2441;1.6113;-1.3193;
3979809368980742;-9.7902;1.2517;-0.9694;
3979809379085429;-9.7783;1.5586;-1.2449;
3979809389190117;-9.3305;0.6721;-1.3528;
3979809399325637;-10.0131;1.3119;-1.2906;
3979809409430325;-9.4621;1.2951;-0.6245;
3979809419535012;-8.8298;0.2435;-0.7202;
3979809429616054;-9.2273;0.5357;-0.4232;
3979809439720742;-10.3005;0.5740;-1.7312;
3979809449825481;-10.9427;0.3535;-0.7397;
3979809459951158;-8.3770;0.3224;-0.7202;
3979809470055846;-9.4573;-0.1735;-1.0199;
3979809480160533;-11.8170;-0.1567;-0.7756;
3979809490243867;-9.9341;-0.0849;-0.0640;
3979809500348554;-9.5964;0.1834;-0.9622;
3979809510453242;-10.7677;-0.4801;-0.8521;
3979809520563606;-10.0250;0.0159;-0.6126;
3979809530668294;-10.0202;-0.2716;-0.2294;
3979809540772981;-9.6730;-0.7101;0.4032;
3979809550871106;-10.6122;-0.3389;-0.4929;
3979809560975794;-10.4037;0.2339;-0.4977;
3979809571080481;-8.9925;-0.6096;-0.2127;
3979809581191679;-10.6744;-0.2572;-0.6126;
3979809591296367;-10.9666;-0.0897;-0.0664;
3979809601401054;-9.0168;-0.4633;0.2378;
3979809611501939;-9.1220;-0.1831;-0.1119;
3979809621606627;-10.9905;0.0948;-0.5958;
3979809631711314;-9.0909;0.0948;-0.0305;
3979809641842408;-7.4859;-0.1137;-0.6772;
3979809651947096;-10.0226;0.1977;-1.3146;
3979809662051783;-7.2607;-0.2046;-0.7851;
3979809672137721;-8.6261;-1.4192;-1.7886;
3979809682242408;-15.0628;-0.4609;-2.2391;
3979809692347096;-11.7260;0.2267;-0.9191;
3979809702447304;-9.7878;0.9380;1.1288;
3979809712551992;-11.5319;0.8590;1.9579;
3979809722656679;-11.2373;1.4076;2.7171;
3979809732762512;-8.4464;1.5009;2.5472;
3979809742867200;-9.6203;1.2278;0.6739;
3979809752971887;-12.8016;0.3559;-0.5336;
3979809763079700;-10.6505;-0.5710;-0.1860;
3979809773184387;-6.7672;-2.0707;-0.7373;
3979809783289075;-9.8695;-2.1473;-1.7647;
3979809793387721;-12.2435;-2.0157;-1.1779;
3979809803492408;-9.7280;-1.6322;-0.8354;
3979809813597148;-8.5567;-1.5461;-0.1406;
3979809823699596;-10.1402;-0.4298;0.2234;
3979809833804283;-10.5018;-0.3413;0.2115;
3979809843908971;-9.8719;0.3823;0.8055;
3979809854026783;-9.5414;1.0364;1.2775;
3979809864131471;-8.9806;1.5419;1.2081;
3979809874236158;-10.2096;1.8628;-0.3945;
3979809884280689;-11.6611;2.1287;-1.1468;
3979809894385429;-9.3377;2.5023;-0.5862;
3979809904490117;-7.9531;2.1718;-0.8091;
3979809914647617;-10.4252;2.5956;-0.9335;
3979809924752304;-10.8203;2.7634;-0.7349;
3979809934856992;-9.2034;2.3273;-1.0439;
3979809944954908;-9.9628;1.7716;-1.0223;
3979809955059596;-10.8515;2.0279;0.1732;
3979809965164335;-8.8561;2.1646;1.3421;
3979809975270429;-10.7677;1.7764;0.9852;
3979809985375117;-10.6887;2.4353;0.9613;
3979809995479804;-9.9389;1.9466;0.4750;
3979810005588033;-10.8682;1.2350;-0.2940;
3979810015692721;-10.5281;1.5562;-0.2031;
3979810025797408;-9.4334;1.7596;-0.3060;
3979810035913450;-9.2082;1.2589;-0.6485;
3979810046018085;-9.8982;0.9500;-0.8163;
3979810056122825;-11.0551;0.5812;-1.6211;
3979810066217200;-8.6692;0.5764;-1.5852;
3979810076321887;-8.9518;0.9380;-2.7206;
3979810086426575;-10.4372;1.1417;-3.2477;
3979810096529700;-9.6873;1.6639;-2.6321;
3979810106634387;-7.9460;1.3358;-2.4547;
3979810116739127;-8.3818;0.6434;-3.2309;
3979810126838450;-10.7079;0.9835;-2.9459;
3979810136943189;-10.0107;1.1871;-1.6666;
3979810147047877;-7.9843;1.3669;-2.0354;
3979810157162721;-9.5486;1.6783;-3.4202;
3979810167267460;-10.7605;2.0016;-3.7364;
3979810177372148;-10.0875;2.4784;-3.4370;
3979810187501262;-9.1340;2.6198;-2.6967;
3979810197605950;-7.6753;2.8786;-1.8966;
3979810207710689;-7.7016;2.6749;-2.4308;
3979810217780637;-9.4119;2.7012;-3.2572;
3979810227885377;-10.2096;3.0389;-3.6404;
3979810237990064;-10.2191;3.0820;-3.5877;
3979810248112877;-9.5076;3.0532;-2.9172;
3979810258217617;-8.6644;2.3563;-3.4466;
3979810268322356;-10.6361;1.7429;-3.9975;
3979810278409596;-10.0804;1.3430;-1.8846;
3979810288514335;-7.3277;1.5945;-0.4400;
3979810298619023;-7.4788;1.2087;-1.6570;
3979810308766054;-9.1005;0.6840;-3.3960;
3979810318870794;-11.4290;0.5429;-2.1458;
3979810328975481;-11.0934;-0.1974;-0.9359;
3979810339059075;-9.2803;-1.1509;-1.5733;
3979810349163814;-8.7171;-2.3127;-2.6943;
3979810359268502;-9.5004;-2.5810;-2.3423;
3979810369373658;-10.3292;-1.9244;-2.6034;
3979810379478346;-10.4755;-1.9917;-2.6943;
3979810389583085;-9.5004;-1.7833;-1.7336;
3979810399692252;-9.2297;-0.7747;-0.8713;
3979810409796992;-10.4372;-0.5901;-1.4797;
3979810419901679;-11.1054;-0.4035;-1.2930;
3979810429978554;-9.3832;0.1738;0.1636;
3979810440083294;-7.0403;0.4902;0.5468;
3979810450187981;-7.2703;-0.0440;-0.7202;
3979810460308606;-10.0585;-0.5590;-1.8105;
3979810470413346;-12.0924;-0.4322;-1.7049;
3979810480518033;-11.7858;-0.1783;-1.3074;
3979810490612825;-10.1809;-0.1376;-1.5398;
3979810500717564;-8.9949;-0.7220;-1.2787;
3979810510822252;-8.4607;-0.0655;-0.8402;
3979810520943658;-8.8944;-0.1017;-1.2739;
3979810531048398;-9.8360;-0.1974;-1.3576;
3979810541153085;-9.9532;0.0063;-1.3576;
3979810551238971;-10.0370;0.0876;-1.8488;
3979810561343710;-10.1378;0.3966;-1.6259;
3979810571448398;-10.0537;0.7681;-0.0927;
3979810581552617;-9.8958;0.6984;0.3888;
3979810591657356;-9.6323;0.3081;-0.5767;
3979810601762044;-9.6299;0.1857;-1.6786;
3979810611870533;-9.5533;0.6218;-1.7623;
3979810621975273;-9.5892;1.3382;-1.6642;
3979810632079960;-10.1139;1.4889;-1.7910;
3979810642221783;-9.9532;1.8317;-1.3241;
3979810652326523;-9.0885;1.8150;-0.9168;
3979810662431210;-9.3114;1.4578;-1.9373;
3979810672517721;-9.8192;1.7955;-2.2893;
3979810682622460;-9.6682;1.9801;-2.1242;
3979810692727148;-9.5940;1.4195;-1.3792;
3979810702816262;-9.7065;1.3980;-1.6666;
3979810712921002;-9.4310;1.7261;-1.8727;
3979810723025689;-9.3018;2.6151;-3.0440;
3979810733132825;-9.3209;3.2641;-3.2285;
3979810743237564;-9.4621;2.5262;-2.2582;
3979810753342252;-9.8504;2.2675;-1.8631;
3979810763453971;-9.7208;2.4281;-1.6259;
3979810773558710;-9.2779;2.7826;-2.1529;
3979810783663398;-9.2850;3.0532;-3.1301;
3979810793772825;-9.3281;2.8929;-3.1352;
3979810803877564;-9.3760;2.6581;-2.6177;
3979810813982252;-9.6778;2.4568;-2.5959;
3979810824077929;-9.5749;2.5765;-2.5361;
3979810834182617;-9.1723;2.7251;-2.4619;
3979810844287356;-9.2465;2.7060;-2.7015;
3979810854393971;-9.4119;2.4209;-2.7589;
3979810864498710;-9.3449;2.2196;-2.4906;
3979810874603398;-9.3760;2.3058;-2.6417;
3979810884728033;-9.3640;2.4473;-2.8283;
3979810894832721;-9.2154;2.1526;-2.4260;
3979810904937460;-9.2755;1.8628;-2.3276;
3979810915020012;-9.3520;1.8269;-2.5768;
3979810925124700;-9.3353;1.3525;-2.1984;
3979810935229439;-9.4693;1.0771;-2.0163;
3979810945329596;-9.4525;1.1895;-2.3375;
3979810955434335;-9.2827;0.7872;-2.2367;
3979810965539023;-9.2970;0.3607;-2.0716;
3979810975653346;-9.3497;0.2028;-2.1458;
3979810985758085;-9.3927;-0.2453;-1.9110;
3979810995862773;-9.5148;-0.7962;-1.6522;
3979811005973033;-9.5438;-1.0382;-1.5948;
3979811016077773;-9.4908;-1.1219;-1.7671;
3979811026182460;-9.4358;-1.1701;-1.9014;
3979811036309492;-9.3640;-0.5183;-2.5074;
3979811046414231;-9.3377;-0.2429;-2.8187;
3979811056518919;-9.4478;-0.4466;-2.3399;
3979811066609544;-9.5243;-0.3867;-1.9684;
3979811076714283;-9.4956;-0.2907;-1.9923;
3979811086818971;-9.4932;-0.2692;-2.3518;
3979811096894387;-9.2731;-0.3796;-2.5816;
3979811106999127;-9.3520;-0.6526;-2.6106;
3979811117103814;-9.5390;-0.7316;-2.6776;
3979811127215637;-9.4645;-0.7914;-2.4117;
3979811137320377;-9.4167;-0.7412;-2.2630;
3979811147425117;-9.4813;-0.6526;-2.3782;
3979811157548554;-9.4214;-0.7005;-2.3109;
3979811167653294;-9.4190;-0.6287;-2.3877;
3979811177758033;-9.4932;-0.4633;-2.5361;
3979811187839075;-9.4549;-0.3532;-2.5241;
3979811197943814;-9.3999;-0.2405;-2.6273;
3979811208048502;-9.3879;-0.2309;-2.4643;
3979811218159127;-9.3568;-0.3628;-2.3228;
3979811228263919;-9.4717;-0.3628;-2.3590;
3979811238368658;-9.4597;-0.2931;-2.3877;
3979811248466992;-9.3784;-0.3194;-2.4571;
3979811258571679;-9.4382;-0.3338;-2.4835;
3979811268676419;-9.4549;-0.2955;-2.4619;
3979811278794283;-9.3640;-0.2979;-2.4643;
3979811288899023;-9.4310;-0.3580;-2.5648;
3979811299003762;-9.4238;-0.4705;-2.5098;
3979811309114908;-9.3520;-0.5566;-2.4069;
3979811319219648;-9.4238;-0.6287;-2.3518;
3979811329324387;-9.4837;-0.7340;-2.2534;
3979811339432200;-9.4693;-0.7819;-2.2798;
3979811349536939;-9.5004;-0.7938;-2.4715;
3979811359641679;-9.4525;-0.8608;-2.6393;
3979811369740585;-9.3927;-0.9568;-2.6441;
3979811379845325;-9.4478;-1.0214;-2.5504;
3979811389950064;-9.4837;-1.0214;-2.3327;
3979811400043450;-9.4980;-0.9903;-2.2008;
3979811410148189;-9.5291;-0.9951;-2.1936;
3979811420252929;-9.4837;-1.0621;-2.3157;
3979811430361783;-9.4669;-1.1291;-2.5839;
3979811440466523;-9.4406;-1.1868;-2.6895;
3979811450571262;-9.4143;-1.2754;-2.5720;
3979811460683137;-9.4741;-1.3567;-2.3734;
3979811470787877;-9.5390;-1.3232;-2.2247;
3979811480892617;-9.5195;-1.2706;-2.1458;
3979811491001262;-9.4932;-1.2084;-2.2606;
3979811501106002;-9.4884;-1.2156;-2.4858;
3979811511210742;-9.4406;-1.2203;-2.5528;
3979811521300481;-9.4334;-1.2227;-2.5986;
3979811531405221;-9.4502;-1.1749;-2.5313;
3979811541509960;-9.4406;-1.1100;-2.3925;
3979811551622200;-9.4693;-1.0023;-2.3013;
3979811561726939;-9.4525;-0.9042;-2.3228;
3979811571831679;-9.4119;-0.8560;-2.3614;
3979811581940846;-9.4478;-0.8321;-2.4332;
3979811592045585;-9.4358;-0.7986;-2.5026;
3979811602150325;-9.4669;-0.7316;-2.5074;
3979811612264179;-9.4645;-0.6598;-2.5457;
3979811622368919;-9.4095;-0.5806;-2.5576;
3979811632473606;-9.3712;-0.5734;-2.5241;
3979811642567773;-9.4119;-0.5064;-2.3973;
3979811652672512;-9.4358;-0.4944;-2.3061;
3979811662777252;-9.4502;-0.4609;-2.3399;
3979811672892929;-9.4358;-0.4705;-2.4763;
3979811682997669;-9.3903;-0.5088;-2.5385;
3979811693102408;-9.3808;-0.5566;-2.5050;
3979811703193450;-9.4358;-0.6383;-2.4619;
3979811713298189;-9.4669;-0.6383;-2.4165;
3979811723402929;-9.4406;-0.6263;-2.3542;
3979811733503867;-9.4645;-0.6239;-2.3949;
3979811743608606;-9.4597;-0.6646;-2.3399;
3979811753713346;-9.4262;-0.6885;-2.3085;
3979811763816679;-9.4358;-0.6646;-2.3351;
3979811773921419;-9.4502;-0.7220;-2.4045;
3979811784026158;-9.4406;-0.7220;-2.4308;
3979811794153971;-9.4813;-0.7149;-2.4811;
3979811804258710;-9.5052;-0.7747;-2.5002;
3979811814363450;-9.4717;-0.8082;-2.3686;
3979811824442096;-9.4406;-0.8441;-2.2343;
3979811834546835;-9.4406;-0.7149;-2.3303;
