Sensor: bmi160 Accelerometer Non-wakeup
Vendor: BOSCH
TimestampAcc [ns]; AccX [m/s^2]; AccY [m/s^2]; AccZ [m/s^2]
3979750745097223;-9.4573;0.8399;-2.4284;
3979750755171754;-9.4190;0.8279;-2.5122;
3979750765310764;-9.4047;0.8231;-2.5696;
3979750775385296;-9.4095;0.8064;-2.5863;
3979750785523785;-9.4406;0.7944;-2.5409;
3979750795598317;-9.4478;0.8231;-2.4452;
3979750805733160;-9.4597;0.8351;-2.4380;
3979750815867379;-9.4502;0.8040;-2.4547;
3979750825971858;-9.4023;0.7609;-2.4978;
3979750836043369;-9.4525;0.7561;-2.5768;
3979750846133733;-9.4669;0.7199;-2.5552;
3979750856260244;-9.4430;0.7490;-2.4787;
3979750866393108;-9.4214;0.7537;-2.4212;
3979750876481129;-9.4190;0.7561;-2.4045;
3979750886571129;-9.4717;0.7561;-2.3901;
3979750896687848;-9.4454;0.7271;-2.3590;
3979750906803056;-9.4406;0.7944;-2.5122;
3979750916917639;-9.4406;0.7872;-2.4739;
3979750927006546;-9.4214;0.8136;-2.4141;
3979750937086337;-9.4430;0.8447;-2.4045;
3979750947189567;-9.4645;0.9236;-2.4380;
3979750957317014;-9.4358;0.9715;-2.4571;
3979750967424879;-9.4119;0.9906;-2.3997;
3979750977557692;-9.3927;0.9930;-2.3276;
3979750987619775;-9.4143;0.9906;-2.3351;
3979750997733785;-9.4693;0.9978;-2.4045;
3979751007826285;-9.4645;0.9452;-2.4308;
3979751017934098;-9.4238;0.9188;-2.4045;
3979751028041910;-9.3736;0.9236;-2.4906;
3979751038168473;-9.4238;0.9045;-2.4667;
3979751048270608;-9.4525;0.9236;-2.4835;
3979751058369306;-9.4765;0.9236;-2.4093;
3979751068453681;-9.4669;0.8686;-2.2534;
3979751078575869;-9.4310;0.8423;-2.2822;
3979751088681494;-9.4143;0.7777;-2.3782;
3979751098786702;-9.4645;0.6529;-2.5146;
3979751108869150;-9.5028;0.5524;-2.5409;
3979751119026181;-9.4693;0.4974;-2.4141;
3979751129088421;-9.4549;0.5189;-2.3180;
3979751139200192;-9.5219;0.4998;-2.2965;
3979751149301129;-9.5267;0.4660;-2.2774;
3979751159391077;-9.5172;0.4783;-2.3085;
3979751169507692;-9.5315;0.4902;-2.3303;
3979751179606025;-9.4765;0.4998;-2.3471;
3979751189716129;-9.4956;0.4854;-2.3133;
3979751199822067;-9.5315;0.4950;-2.3423;
3979751209927275;-9.5052;0.5572;-2.3471;
3979751220029150;-9.4884;0.6529;-2.3013;
3979751230141754;-9.5004;0.7418;-2.3013;
3979751240243108;-9.5124;0.7801;-2.2654;
3979751250337327;-9.4884;0.8112;-2.2654;
3979751260446858;-9.4502;0.9356;-2.4667;
3979751270554619;-9.3879;0.9715;-2.5170;
3979751280657275;-9.4095;0.8806;-2.4452;
3979751290763421;-9.4669;0.7442;-2.3013;
3979751300866962;-9.5243;0.7968;-2.3133;
3979751310977379;-9.4813;0.8136;-2.3276;
3979751321082692;-9.4190;0.8231;-2.4165;
3979751331183369;-9.4358;0.7271;-2.5552;
3979751341286754;-9.4310;0.6099;-2.6417;
3979751351393004;-9.3832;0.4902;-2.6847;
3979751361515608;-9.4167;0.4110;-2.6512;
3979751371598056;-9.4956;0.3176;-2.5552;
3979751381697587;-9.4717;0.2028;-2.4547;
3979751391825400;-9.4645;0.1427;-2.4404;
3979751401921858;-9.4956;0.1642;-2.5528;
3979751412026702;-9.4549;0.1259;-2.5839;
3979751422135869;-9.4334;0.0254;-2.6393;
3979751432228317;-9.4597;-0.0802;-2.6800;
3979751442328629;-9.4932;-0.1496;-2.6297;
3979751452456806;-9.4717;-0.2548;-2.5624;
3979751462543629;-9.2441;-0.2357;-2.7326;
3979751472645712;-9.2994;-0.4490;-2.5887;
3979751482747379;-9.3305;0.1570;-3.2261;
3979751492842483;-9.6945;-0.8465;-2.1386;
3979751502958837;-9.6443;-1.1124;-1.6140;
3979751513034098;-9.2656;-0.7795;-2.4835;
3979751523177067;-9.2249;-0.3676;-2.7852;
3979751533274150;-9.0957;0.3823;-3.4107;
3979751543375764;-9.4382;0.6984;-3.3888;
3979751553477900;-9.4310;1.1130;-3.3218;
3979751563588317;-9.0574;1.8915;-3.4298;
3979751573691962;-9.0120;1.5224;-2.5720;
3979751583794567;-9.3377;1.0316;-2.2175;
3979751593916285;-9.3257;1.6304;-2.7733;
3979751604019150;-8.9231;2.3539;-4.0645;
3979751614109150;-8.5400;4.1432;-5.8899;
3979751624214619;-8.6333;3.9685;-4.8479;
3979751634323525;-9.2201;2.2077;-2.2750;
3979751644420452;-9.5267;1.8604;-1.6068;
3979751654529462;-9.1220;2.3468;-2.1721;
3979751664631233;-8.7604;2.3492;-2.4117;
3979751674730712;-9.0718;2.1766;-3.2261;
3979751684842119;-9.3353;1.8365;-3.8991;
3979751694944879;-9.0431;1.4195;-3.7675;
3979751705051962;-8.9399;1.2951;-3.7316;
3979751715155087;-9.0359;1.9801;-3.8943;
3979751725258942;-9.0359;2.8591;-3.5877;
3979751735360764;-9.0838;2.9264;-3.1400;
3979751745460869;-9.1675;2.9551;-3.3745;
3979751755569306;-9.1292;2.6342;-3.2261;
3979751765675400;-8.9662;2.6653;-2.9961;
3979751775781077;-8.8609;2.8953;-3.0129;
3979751785885660;-9.2321;2.9767;-2.8427;
3979751795990400;-9.2731;2.8256;-2.5959;
3979751806083785;-8.8777;2.6701;-2.6991;
3979751816196494;-8.6620;2.7514;-3.1783;
3979751826299983;-8.8394;2.8256;-3.5255;
3979751836404202;-9.3855;2.6486;-3.3840;
3979751846519098;-9.3090;2.8639;-3.1831;
3979751856619827;-8.8466;3.1274;-3.0559;
3979751866718369;-8.7413;3.2043;-3.0846;
3979751876816858;-8.5376;3.0293;-2.7852;
3979751886919827;-8.1637;2.6004;-2.5816;
3979751897018317;-8.1589;2.6868;-3.7077;
3979751907116910;-9.0933;2.9192;-5.8011;
3979751917224306;-9.6084;2.8977;-6.8240;
3979751927322796;-9.5749;2.9934;-6.4911;
3979751937421337;-8.9112;3.0126;-5.3964;
3979751947552587;-8.6692;3.1636;-4.7279;
3979751957651077;-8.6716;2.5286;-3.7388;
3979751967749619;-8.3052;2.4903;-2.7613;
3979751977865921;-9.1627;2.7730;-2.1793;
3979751987964462;-10.1163;3.1274;-1.9708;
3979751998062952;-9.2779;3.4869;-2.3037;
3979752008178785;-8.1254;3.3455;-3.1687;
3979752018277275;-8.8681;2.9145;-4.0956;
3979752028375817;-8.7075;2.8304;-4.1913;
3979752038512952;-8.2167;3.0389;-5.0034;
3979752048611442;-8.7003;2.9623;-6.6182;
3979752058709983;-9.1651;2.9145;-6.1702;
3979752068819514;-8.7123;2.7754;-3.9592;
3979752078918004;-7.3110;2.8905;-2.4188;
3979752089016546;-7.8452;2.9264;-3.0320;
3979752099144671;-8.9686;2.4951;-4.4094;
3979752109243212;-11.4984;2.0207;-5.3390;
3979752119338369;-10.7653;1.8556;-4.5365;
3979752129436962;-6.3266;1.9370;-2.3375;
3979752139535452;-7.2894;1.9537;-2.4547;
3979752149656129;-10.3582;2.3034;-4.2467;
3979752159754619;-9.2321;2.8137;-3.9326;
3979752169853160;-9.0239;3.7983;-3.6380;
3979752179994202;-8.3554;4.1216;-4.3280;
3979752190092744;-7.7064;4.1073;-5.6934;
3979752200191233;-9.2560;3.6906;-5.5642;
3979752210283369;-9.4525;3.6568;-3.5064;
3979752220381858;-9.3449;3.8725;-2.4117;
3979752230480400;-11.4577;3.7505;-3.2070;
3979752240597796;-9.5845;4.3325;-4.2802;
3979752250696285;-10.1928;4.4282;-2.7661;
3979752260794827;-8.2789;3.3718;-0.8163;
3979752270909202;-7.1483;3.2593;-1.0343;
3979752281007692;-9.7543;2.3587;-2.8451;
3979752291106181;-11.1440;1.9226;-4.9627;
3979752301213160;-7.5314;1.7189;-4.3519;
3979752311311650;-5.9695;1.1800;-3.4609;
3979752321410192;-7.3588;1.5009;-3.8919;
3979752331512796;-10.6409;1.9394;-4.4501;
3979752341611285;-11.9752;1.9298;-4.6346;
3979752351709827;-11.9079;2.5525;-5.6145;
3979752361858785;-10.4133;1.5730;-3.4825;
3979752371957275;-5.2029;0.3511;0.4247;
3979752382055817;-3.4328;1.6400;-0.6078;
3979752392161806;-9.0838;3.7457;-5.0707;
3979752402260348;-13.0388;3.5970;-5.3629;
3979752412358837;-11.3163;2.3345;-4.3543;
3979752422476494;-10.2359;3.4463;-7.7919;
3979752432574983;-9.0144;3.0963;-7.9645;
3979752442673525;-6.1421;1.2637;-1.1683;
3979752452775244;-5.1718;1.5081;-0.5097;
3979752462873733;-8.1852;2.8280;-3.8608;
3979752472972275;-10.4850;2.5214;-5.0300;
3979752483104046;-10.9642;2.3082;-4.0143;
3979752493202535;-8.9040;2.3563;-4.9986;
3979752503301077;-9.4478;3.3311;-7.6768;
3979752513431962;-8.1159;2.5071;-4.5221;
3979752523530504;-4.0292;0.9547;-0.1430;
3979752533628994;-5.1598;2.7491;-5.4419;
3979752543726389;-11.8624;4.1743;-9.9742;
3979752553824879;-12.3200;2.1407;-5.2717;
3979752563923421;-7.8404;0.9811;-1.8631;
3979752574033317;-7.8500;3.0891;-4.2227;
3979752584131806;-10.7940;3.2737;-4.9364;
3979752594230296;-7.7973;1.6113;-0.8952;
3979752604351910;-4.6496;1.7501;-2.0521;
3979752614450400;-7.7734;2.0495;-6.5605;
3979752624548942;-10.5497;0.2459;-3.8297;
3979752634676494;-6.3960;-0.0488;0.5372;
3979752644774983;-8.0728;0.5788;-5.2406;
3979752654873525;-14.0928;-0.9042;-5.7126;
3979752664986962;-10.4898;-2.1616;1.9481;
3979752675085452;-3.7155;-1.1267;3.2584;
3979752685183994;-8.5113;0.5309;-2.7757;
3979752695299202;-13.0292;2.3779;-1.1970;
3979752705397744;-9.4262;4.3253;0.6236;
3979752715496233;-8.8107;5.0967;-2.4811;
3979752725613160;-9.3018;5.5711;-3.0583;
3979752735711650;-9.2273;6.4932;-1.9014;
3979752745810192;-10.5688;8.0025;-2.0450;
3979752755922327;-7.5960;7.9615;-4.2036;
3979752766020817;-7.1339;5.3746;-6.3257;
3979752776119358;-14.2579;3.2234;-4.4982;
3979752786232535;-10.0394;1.7142;-2.2199;
3979752796331025;-4.0340;0.3176;-4.6274;
3979752806429567;-7.8069;-1.9053;-4.7617;
3979752816553056;-10.1402;-2.1520;-4.3543;
3979752826651546;-9.1388;-1.8670;-5.1353;
3979752836750087;-10.8323;-2.7846;-5.9737;
3979752846900973;-12.9356;-4.0493;-4.6011;
3979752856999462;-11.2445;-3.8530;-0.4041;
3979752867098004;-7.0499;-1.8455;2.1972;
3979752877190348;-7.5027;-0.9233;-0.8545;
3979752887288837;-11.7021;-1.9774;-1.7240;
3979752897387327;-14.5693;-2.3438;0.3697;
3979752907536650;-8.1350;-1.2467;-0.5408;
3979752917635192;-7.7973;-1.1773;-4.1961;
3979752927733681;-11.1751;-1.7163;-4.0789;
3979752937828837;-10.7438;-1.1892;-3.2501;
3979752947927327;-9.0814;-0.5423;-4.2419;
3979752958025869;-9.4214;-1.0454;-3.8417;
3979752968118525;-9.1962;-1.0932;-4.0693;
3979752978217014;-6.9661;-0.0969;-3.3577;
3979752988315556;-8.8801;1.2589;-4.3041;
3979752998453317;-10.4061;0.7247;-4.0430;
3979753008551806;-9.2297;1.2661;-3.8608;
3979753018650348;-7.2703;1.2565;-4.8550;
3979753028749306;-8.0752;0.0900;-5.8708;
3979753038847796;-9.8336;-1.2706;-5.1975;
3979753048946337;-9.6634;-1.5197;-4.4524;
3979753059084567;-7.1865;-1.5341;-5.8253;
3979753069183056;-10.0155;-1.2108;-6.4624;
3979753079281598;-9.7831;-1.6705;-4.1148;
3979753089374619;-6.4702;-1.5724;-4.7809;
3979753099473108;-7.7686;-1.9606;-6.9177;
3979753109571650;-9.5315;-1.3543;-6.2013;
3979753119692067;-8.0249;-0.7220;-5.3366;
3979753129795452;-6.9087;-1.2538;-6.8169;
3979753139898837;-8.9375;-1.7067;-6.6757;
3979753150001806;-8.3746;-1.2395;-6.5677;
3979753160105139;-10.9953;-1.4288;-6.7522;
3979753170208525;-10.0035;-0.9688;-5.5400;
3979753180307535;-6.6141;-0.0511;-5.8995;
3979753190410921;-5.5576;-1.2156;-6.7570;
3979753200514306;-8.1039;-2.5020;-5.7843;
3979753210655400;-7.6104;-2.4395;-7.1139;
3979753220758785;-9.9221;-2.0946;-9.6054;
3979753230862171;-9.5653;-0.9832;-8.4553;
3979753240943056;-5.6318;-0.5112;-9.4448;
3979753251046389;-7.0020;-1.0143;-11.1455;
3979753261149775;-15.4534;-1.4527;-10.5227;
3979753271256389;-16.9122;0.1738;-4.4189;
3979753281359723;-5.4257;3.2641;0.6114;
3979753291463108;0.7977;0.6434;-4.7880;
3979753301571702;-12.4636;-2.4419;-8.9704;
3979753311675035;-18.2106;-0.5710;0.6165;
3979753321778421;0.9320;4.9122;5.0647;
3979753331886337;-2.2134;4.4979;-13.3520;
3979753341989723;-14.9599;-5.3309;-20.3204;
3979753352093056;-10.5449;-5.5298;-14.8585;
3979753362216650;-6.4032;3.1011;-6.1295;
3979753372320035;-10.5233;4.6726;-4.0693;
3979753382423421;-11.9294;-0.3170;-3.3577;
3979753392519775;-7.0427;0.2746;-2.2510;
3979753402623160;-6.5396;1.2565;-6.7570;
3979753412726546;-9.2441;0.5524;-9.2674;
3979753422847587;-8.3674;3.4271;-3.0392;
3979753432950973;-3.3392;5.1398;-0.0114;
3979753443054358;-1.9857;1.6974;-4.8933;
3979753453139202;-3.4400;1.9155;-5.3868;
3979753463242535;-0.4552;3.3024;-4.2156;
3979753473345921;1.5858;2.5884;-9.0664;
3979753483462900;-1.7366;0.0350;-11.0306;
3979753493566285;-2.7188;0.3200;-8.7957;
3979753503669671;-2.2277;-0.4442;-6.4911;
3979753513755660;-2.1344;-0.8850;-5.9067;
3979753523858994;-25.4833;-5.8292;-2.1170;
3979753533962327;-64.8485;-0.6359;10.0762;
3979753544083056;-31.8314;12.8988;19.7707;
3979753554186389;5.3444;8.5869;10.7635;
3979753564289775;3.7131;3.2928;0.0966;
3979753574390973;-4.6424;0.5764;3.7376;
3979753584494306;-7.4453;0.1642;3.7017;
3979753594597692;-13.9514;-3.5222;-5.6097;
3979753604720087;-17.9136;-2.7990;-9.6150;
3979753614823473;-18.1866;-2.3892;-7.2147;
3979753624926806;-8.7987;-0.6957;-0.1047;
3979753635029671;2.7236;0.5501;2.6740;
3979753645133056;-1.3152;0.6912;0.9398;
3979753655236442;-14.8472;0.8662;1.1073;
3979753665352483;-15.1828;3.4917;1.4883;
3979753675455869;-12.7199;3.7744;0.5874;
3979753685559254;-11.8935;3.8653;-1.7073;
3979753695656546;-7.3756;3.4798;-2.1242;
3979753705759931;-4.7094;3.5228;-3.6236;
3979753715863317;-4.7192;1.5993;-7.4160;
3979753725972067;-7.6944;-0.4226;-9.3395;
3979753736075452;-8.5041;-2.1114;-7.3008;
3979753746178837;-4.8604;-2.1975;-7.6792;
3979753756280035;-7.3828;-3.2755;-8.2807;
3979753766383369;-10.7629;-2.0731;-6.9655;
3979753776486754;-8.2143;-1.3424;-6.8743;
3979753786589879;-9.9580;-1.3807;-6.2061;
3979753796693317;-10.1545;-1.4145;-5.6839;
3979753806796598;-11.4075;-0.7484;-6.5821;
3979753816929046;-7.9026;-1.1291;-5.8445;
3979753827032431;-5.0904;0.6290;-8.0267;
3979753837135764;-5.2917;-1.3448;-8.0076;
3979753847222952;-7.4285;-0.9018;-11.4811;
3979753857326285;-13.0268;-1.9487;-11.9865;
3979753867429671;-13.8341;-1.0286;-9.0329;
3979753877573837;-10.5544;-0.3987;-2.8427;
3979753887677223;-6.1756;-2.0755;-2.5935;
3979753897780608;-9.7256;-1.5293;-3.1854;
3979753907851702;-12.1427;-1.7713;0.3455;
3979753917955087;-3.5381;-1.1462;0.6763;
3979753928058473;-7.1145;-1.2634;-5.2143;
3979753938155869;-15.0891;-0.3147;-8.2496;
3979753948259202;-9.0215;2.0590;-4.8622;
3979753958362587;-1.5906;0.4684;-4.3998;
3979753968474931;-4.4629;0.0206;-6.5151;
3979753978578264;-8.1924;-0.0416;-6.3162;
3979753988681650;-5.6797;0.1714;-5.9186;
3979753998805296;-2.5848;0.1140;-5.9258;
3979754008908681;0.1654;-0.9090;-8.0578;
3979754019012067;3.5285;-1.7617;-8.3094;
3979754029110244;-7.4931;-1.5796;-8.1368;
3979754039213577;-13.1800;-1.4910;-6.0263;
3979754049316962;-15.1684;0.3129;-3.4609;
3979754059417014;-28.0394;1.4219;-0.0688;
3979754069520348;-21.8300;2.3492;8.0351;
3979754079623733;1.8805;1.2470;6.9165;
3979754089736389;1.0732;-0.7196;1.3708;
3979754099839723;-10.0346;-0.3027;-0.2677;
3979754109943108;-8.7218;0.4062;-4.9388;
3979754120051962;-9.2106;2.2842;-12.2620;
3979754130156337;-19.7868;2.9934;-12.4534;
3979754140260764;-14.6222;2.0734;-4.1315;
3979754150369879;-0.2922;0.1427;1.0211;
3979754160474254;-0.4816;-1.7569;-2.8068;
3979754170578629;-15.6353;-1.3184;-4.5796;
3979754180704723;-20.7592;-0.3218;0.7169;
3979754190809098;-2.0674;-0.6096;6.2530;
3979754200913473;-1.8541;-1.5245;-1.2425;
3979754211000712;-14.5525;-0.6646;-2.7805;
3979754221105087;-7.5601;-1.8359;-0.2151;
3979754231209462;-3.2076;-1.1339;-5.2430;
3979754241303004;-17.4870;-1.0334;-4.9675;
3979754251407379;-12.1283;-1.0908;-0.9646;
3979754261511806;-2.5152;-1.4910;2.1565;
3979754271622587;-7.9651;-3.1128;6.5237;
3979754281726962;-6.0461;-6.0544;11.0294;
3979754291831389;-2.6542;-1.1629;-7.5787;
3979754301926442;-7.0522;1.9992;-20.4760;
3979754312030869;-14.6486;1.7572;-11.9889;
3979754322135244;-3.5548;1.2326;-18.0589;
3979754332263733;-7.8811;-1.4240;-21.5587;
3979754342368108;-19.9639;-1.5652;-3.3960;
3979754352472535;-12.2842;0.2028;10.6511;
3979754362565296;-8.4057;-3.8291;9.9251;
3979754372669671;-3.5548;-2.0109;1.3062;
3979754382774098;-12.7032;2.0614;-9.4256;
3979754392875817;-17.3794;1.0388;-6.5366;
3979754402980192;-0.0383;0.4158;-0.4376;
3979754413084619;-6.7863;-1.5963;-3.1110;
3979754423191129;-21.3679;-2.0492;-0.4184;
3979754433295504;-14.0016;0.8399;-8.1224;
3979754443399931;-9.7711;1.9753;-4.1004;
3979754453514150;-0.6634;-0.9832;2.5472;
3979754463618525;-1.4420;-2.2313;-2.2702;
3979754473722952;-7.3516;-1.8455;-6.7810;
3979754483879462;-7.3325;-1.4886;-12.6236;
3979754493983837;-18.6802;0.2578;-15.5438;
3979754504088212;-17.5086;0.2794;-2.9770;
3979754514134202;2.4601;0.0757;0.5252;
3979754524238577;2.8460;-1.6418;-3.8393;
3979754534342952;-27.6296;-1.2778;0.4128;
3979754544454567;-20.7497;-2.4491;4.5951;
3979754554558942;1.6792;-0.5853;1.5314;
3979754564663369;4.3262;-1.4480;-5.4395;
3979754574753837;-12.0183;2.0327;-15.9437;
3979754584858212;-14.1359;3.4295;-14.2167;
3979754594962639;-14.2866;5.0489;-17.5750;
3979754605054827;-8.2549;4.0140;-4.2156;
3979754615159254;0.2515;0.8806;6.7487;
3979754625263629;-8.2262;-2.2528;2.6668;
3979754635394619;-12.1953;-2.3773;-2.2343;
3979754645498994;-12.0422;0.6721;-7.6792;
3979754655603369;-11.0599;1.4578;-6.9177;
3979754665759983;-8.0130;1.3549;-4.1650;
3979754675864358;-14.0255;-0.0969;-0.9742;
3979754685968785;-14.8807;-2.6982;6.8207;
3979754696013108;-3.7370;-3.0553;4.0346;
3979754706117483;-8.0704;-1.1438;-6.2420;
3979754716221910;-16.4187;-0.0200;-5.9761;
3979754726322171;-3.5237;0.0972;-1.7001;
3979754736426546;-2.8436;1.2470;-10.8150;
3979754746530973;-12.8184;1.8556;-11.7183;
3979754756637692;-19.9953;0.8925;-3.6380;
3979754766742067;-10.8876;0.0063;0.0918;
3979754776846442;-3.0446;-1.0884;5.1775;
3979754786959150;-2.7595;-1.6083;3.8599;
3979754797063525;-13.8820;-0.9018;-2.9267;
3979754807167952;-20.3928;-0.6933;-0.8330;
3979754817270504;-10.2479;0.1187;2.7676;
3979754827374879;-1.8541;-0.5040;-0.4232;
3979754837479254;-0.9437;-0.5853;-5.9019;
3979754847575817;-8.0082;1.5129;-10.8389;
3979754857680192;-7.7375;2.6004;-8.0459;
3979754867784567;-9.2393;3.3814;-8.9824;
3979754877905400;-29.0934;2.1311;-1.0032;
3979754888009775;-5.8977;0.4998;11.6118;
3979754898114202;10.3104;0.9930;3.0718;
3979754908204254;-12.8925;-0.6694;-16.1785;
3979754918308629;-25.1839;-0.6048;-7.3223;
3979754928413056;-3.4902;6.0858;5.0839;
3979754938538629;2.4649;4.3229;-6.4002;
3979754948643004;-10.8156;-0.9401;-10.4773;
3979754958747431;-29.8816;3.0748;-0.5838;
3979754968859358;-13.3573;6.1579;5.2181;
3979754978963733;4.3406;2.8448;4.0394;
3979754989068160;-3.3751;-1.1076;-0.4280;
3979754999160712;-12.9117;-1.4432;-5.4754;
3979755009265087;-15.1540;1.1871;-7.7297;
3979755019369514;-10.0923;3.2641;-2.3109;
3979755029474254;2.4314;1.7692;-1.1874;
3979755039578629;-1.2410;-0.9449;-8.5896;
3979755049683056;-13.1225;0.0996;-9.1741;
3979755059788421;-17.2714;2.2292;-4.1770;
3979755069892796;-12.3368;3.3096;5.3426;
3979755079997223;0.3090;3.0413;-0.8904;
3979755090109983;-10.6768;0.5309;-17.8289;
3979755100214358;-8.6357;0.2124;-1.2425;
3979755110318785;0.9416;4.8332;1.0068;
3979755120417587;-22.5536;3.1083;-11.2965;
3979755130522223;-19.4970;3.2186;-0.2916;
3979755140626858;-0.9532;5.9016;9.5515;
3979755150731546;-0.3162;1.5368;0.9350;
3979755160836181;-5.7060;-1.5628;-13.9938;
3979755170940817;-19.2503;2.0231;-15.2181;
3979755181045139;-12.0996;3.0173;0.7481;
3979755191149775;0.2803;2.1550;2.2286;
3979755201254410;-8.0560;-2.2576;-8.2950;
3979755211353421;-11.4888;-1.1195;-3.0272;
3979755221458056;-8.0393;0.0900;-1.9229;
3979755231562692;-10.7031;-3.1774;-1.2978;
3979755241664775;-9.4549;-2.4108;4.3077;
3979755251769410;-5.1168;-3.6852;-3.5351;
3979755261874046;-11.2995;-3.2468;-9.3443;
3979755271986546;-12.0876;-2.3486;-5.2214;
3979755282091181;-10.3654;-0.5806;-1.3887;
3979755292195817;-10.5903;-1.8407;-1.8966;
3979755302298837;-3.9431;-2.4132;4.3579;
3979755312403473;-2.2421;-3.1128;-2.2415;
3979755322508108;-7.0857;-4.2601;-11.7326;
3979755332623942;-16.9840;-2.9402;-15.2851;
3979755342728577;-16.9026;-0.4298;-2.0378;
3979755352833212;-2.6375;-0.6215;3.5677;
3979755362935400;-2.6830;-2.9234;-0.0257;
3979755373040035;-14.8905;-4.0421;-4.2921;
3979755383144671;-12.2626;-0.3628;0.2689;
3979755393239046;-4.9537;-0.1807;-1.2667;
3979755403343681;-6.9446;-1.6513;-4.5820;
3979755413448317;-11.2253;-1.8814;-5.1592;
3979755423556650;-9.5462;-1.0071;-3.9206;
3979755433661285;-7.3828;-0.0682;-6.3066;
3979755443765921;-8.4682;-0.8994;-6.6446;
3979755453876806;-11.9800;-0.5901;-2.2415;
3979755463981442;-12.0350;0.5094;-1.6475;
3979755474086077;-9.0072;1.3502;-3.4729;
3979755484184567;-9.1436;1.2760;-2.9339;
3979755494289202;-11.2923;0.6769;-4.4166;
3979755504393837;-10.6959;1.6400;-0.1167;
3979755514513369;-6.6021;2.8017;3.6682;
3979755524618004;-6.8776;0.8423;-3.0942;
3979755534722639;-9.3425;-0.5088;-9.7059;
3979755544810921;-11.7691;1.1130;-5.3988;
3979755554915556;-9.3497;2.8711;-2.7374;
3979755565020192;-9.9867;1.1417;-4.2275;
3979755575119983;-7.6920;1.2206;-2.3734;
3979755585224619;-8.6453;0.9835;-1.8224;
3979755595329254;-9.3185;0.4014;-3.7436;
3979755605453733;-10.0370;0.3344;-3.0559;
3979755615558369;-9.5342;0.3823;-1.9445;
3979755625663004;-6.8967;0.2961;-3.0153;
3979755635753942;-7.7399;0.3535;-5.4371;
3979755645858577;-14.2436;0.6362;-6.7714;
3979755655963212;-11.2899;1.5320;-2.3877;
3979755666066754;-3.5237;1.5443;-1.7647;
3979755676171389;-10.3630;-0.5542;-5.6767;
3979755686276025;-12.5859;0.3224;-2.9052;
3979755696377587;-8.6979;1.6759;-1.5805;
3979755706482223;-8.6740;0.4878;-4.4692;
3979755716586858;-9.1555;-0.5949;-3.8177;
3979755726717119;-7.4142;-0.2500;-4.3041;
3979755736821754;-10.9379;-0.5901;-4.9005;
3979755746926389;-12.0278;0.1403;-3.4178;
3979755757003733;-8.4464;0.2937;-2.0716;
3979755767108369;-8.6596;-0.8441;-0.4762;
3979755777213004;-9.5821;-1.5724;-1.0774;
3979755787370608;-11.0886;-1.0286;-4.2658;
3979755797475244;-9.7208;-0.2668;-3.9278;
3979755807579879;-7.5482;-0.2955;-1.8248;
3979755817625087;-7.8356;-1.1339;-3.9497;
3979755827729671;-9.0383;-1.3663;-5.3222;
3979755837834358;-9.6395;0.2124;-5.1999;
3979755847940244;-8.8513;-0.1400;-2.3830;
3979755858044931;-8.3052;-0.0778;-3.3147;
3979755868149567;-10.7797;-0.3987;-4.1698;
3979755878250921;-9.9006;-0.0682;-3.3769;
3979755888355556;-10.0490;0.8231;-2.2510;
3979755898460192;-10.9714;0.4301;-1.3528;
3979755908591702;-7.4070;0.0805;-0.8043;
3979755918696337;-7.9938;-0.3820;-4.5843;
3979755928800973;-11.0647;-0.8393;-5.9019;
3979755938887900;-9.9197;0.5692;-2.5959;
3979755948992535;-6.2498;1.5754;-4.5341;
3979755959097171;-6.7409;0.4469;-7.7776;
3979755969194983;-12.4038;1.7692;-4.8407;
3979755979299619;-12.6434;2.0590;-0.6963;
3979755989404254;-6.4271;1.8413;-2.6824;
3979755999516337;-4.6113;0.5572;-3.1038;
3979756009620973;-9.6395;-0.1041;-4.1363;
3979756019725608;-10.7797;0.8495;-4.6585;
3979756029843004;-10.5066;1.0340;-3.8154;
3979756039947639;-9.4095;1.0890;-2.1242;
3979756050052275;-6.2115;0.4854;-3.7627;
3979756060156754;-9.9221;0.2076;-5.0755;
3979756070261389;-11.0216;0.7442;-3.6260;
3979756080366025;-6.5348;1.2470;-2.6512;
3979756090460504;-7.6633;0.6458;-5.0755;
3979756100565139;-13.5368;0.9404;-4.8838;
3979756110669775;-8.1948;1.7716;-0.9407;
3979756120782692;-5.1000;1.2760;-1.9301;
3979756130887379;-9.6969;-1.1557;-2.9076;
3979756140992067;-12.0159;-0.2429;-2.7063;
3979756151096389;-11.3713;0.0541;-3.6021;
3979756161201077;-7.6968;-0.1161;-0.6150;
3979756171305764;-5.7586;-0.4298;-1.5036;
3979756181393421;-10.6720;-0.7819;-5.1712;
3979756191498160;-8.3770;-0.1998;-4.4572;
3979756201602848;8.0847;-0.0802;-6.4720;
3979756211735869;9.2013;-0.8560;-15.8216;
3979756221840556;-5.1024;-0.3987;-13.9388;
3979756231945244;-24.3838;2.6294;-6.3691;
3979756242026806;-39.3580;0.4783;4.7246;
3979756252131494;-13.9992;-1.6298;17.3273;
3979756262236181;-0.4310;0.3823;18.0461;
3979756272341962;-8.4488;0.0230;1.6175;
3979756282446650;-11.0791;-3.4457;-8.5322;
3979756292551337;-12.3200;-4.9693;-9.1334;
3979756302654254;-6.3793;-3.5198;-5.4706;
3979756312758942;-3.1741;-1.1486;-4.2897;
3979756322863629;-10.5209;2.5549;-4.8096;
3979756332959723;-12.8207;4.8476;-3.1807;
3979756343064410;-12.8207;4.0403;-5.7006;
3979756353169098;-22.1249;2.9121;-0.7804;
3979756363296650;-16.5290;3.1636;12.4262;
3979756373401337;4.4390;3.4989;20.4512;
3979756383506025;14.9145;0.1522;9.8462;
3979756393600712;-13.2087;-8.4260;-26.6085;
3979756403705400;-27.0260;-10.3232;-37.3834;
3979756413810087;-7.7279;-2.6360;-10.7001;
3979756423926546;2.1176;13.1839;3.1364;
3979756434031233;-14.2986;11.3895;-0.8545;
3979756444135921;-19.2814;2.7132;-0.7636;
3979756454235087;-5.7514;4.8595;-1.6690;
3979756464339775;5.1838;3.8031;-4.2706;
3979756474444462;-18.8764;1.5296;-8.8531;
3979756484556962;-29.9414;2.7682;1.3612;
3979756494661650;0.6852;3.4702;5.9127;
3979756504766337;2.4697;-0.4561;-5.0827;
3979756514877796;-13.0986;-4.7393;-15.6371;
3979756524982483;-16.4641;1.0388;-13.8188;
3979756535087171;-11.3258;6.7687;3.9628;
3979756545184306;-7.3301;3.1636;4.9834;
3979756555288994;-4.6519;-1.6322;-1.2691;
3979756565393681;-4.9178;-0.9233;-4.7375;
3979756575497692;-5.9551;0.5309;-7.3176;
3979756585602379;-4.4100;1.0890;-10.4294;
3979756595707067;-6.8031;1.9801;-12.0512;
3979756605820608;-9.4358;2.0375;-4.6202;
3979756615925296;-9.2656;0.8255;0.1277;
3979756626029983;-6.8680;-1.7043;3.3640;
3979756636107587;-7.9579;-1.7163;-5.9785;
3979756646212275;-16.0881;0.8327;-11.7015;
3979756656316962;-6.9805;2.1790;3.3257;
3979756666433212;-9.4549;2.8953;-0.6939;
3979756676537900;-17.9184;0.2698;-2.1577;
3979756686642587;-11.2564;-0.0344;3.1986;
3979756696748317;-6.9876;-0.1807;-0.3491;
3979756706853004;-10.3391;-1.1363;-2.2893;
3979756716957692;-11.4960;-1.7976;-3.1110;
3979756727062171;-10.3268;-0.4155;-2.5098;
3979756737166858;-7.9340;0.3176;3.0287;
3979756747271546;-7.7614;-1.2323;-2.2558;
3979756757363889;-12.6194;-2.2839;-3.7795;
3979756767468629;-7.1913;-1.2156;0.6930;
3979756777573317;-4.7216;-1.2179;-6.3090;
3979756787663577;-10.6170;-0.1950;-7.9597;
3979756797768317;-8.2932;0.6218;-1.3839;
3979756807873004;-1.8924;-0.1711;-6.0598;
3979756817979931;-8.8155;0.5596;-6.7427;
3979756828084671;-14.5454;0.8925;-3.9568;
3979756838189358;-12.3440;1.1943;-4.8814;
3979756848299879;-9.5557;1.3621;-0.0401;
3979756858404567;-4.5730;1.0627;-0.5815;
3979756868509254;-8.7341;0.5883;-6.1630;
3979756878643785;-11.3163;1.6711;-3.8680;
3979756888748473;-8.8777;1.4052;-3.8704;
3979756898853160;-12.1427;1.1489;-4.1483;
3979756908942119;-14.4090;0.4783;-2.8427;
3979756919046806;-8.3674;0.3392;-0.0090;
3979756929151494;-5.3372;0.2435;-0.9526;
3979756939248837;-9.1173;0.4181;-5.2023;
3979756949353525;-11.9991;0.6434;-0.5982;
3979756959458212;-8.7027;0.0685;-1.7599;
3979756969571858;-6.6045;-0.2500;-1.7886;
3979756979676546;-6.6212;-0.4394;-2.3327;
3979756989781233;-10.1354;-0.1472;-7.0229;
3979756999885087;-13.0938;1.2135;-3.2812;
3979757009989775;-6.1540;1.0675;-0.7564;
3979757020094462;-4.2808;0.7561;-4.1770;
3979757030196650;-10.9427;1.2541;-2.6680;
3979757040301337;-12.7391;1.1465;-3.1253;
3979757050406025;-10.0035;1.5634;-1.9038;
3979757060512067;-6.3769;1.1919;-6.0864;
3979757070616754;-11.6061;2.5621;-5.4945;
3979757080721442;-10.8900;2.9049;-0.8737;
3979757090820712;-6.9470;1.5538;-1.1779;
3979757100925452;-10.9642;1.3310;-2.4141;
3979757111030087;-13.5248;0.7777;-2.8594;
3979757121153421;-8.9806;1.4243;0.3144;
3979757131258160;-7.1722;0.7152;-4.2586;
3979757141362900;-7.8500;1.3262;-4.0238;
3979757151451754;-8.5496;0.6051;-5.7269;
3979757161556494;-9.6538;1.0555;-4.2921;
3979757171661233;-8.2190;0.0446;-4.9460;
3979757181761546;-9.8169;0.1427;-1.8368;
3979757191866285;-9.0120;-0.3891;-4.8168;
3979757201971025;-9.1914;0.4110;-3.0176;
3979757212069567;-10.9666;-0.0153;-3.1277;
3979757222174358;-8.6453;0.1762;-0.3610;
3979757232279098;-5.0426;-0.4059;-4.6992;
3979757242391442;-11.7284;0.0948;-2.7733;
3979757252496181;-12.3344;-0.4729;-4.1363;
3979757262600921;-10.9714;0.3320;-3.3482;
3979757272711650;-6.7505;0.3105;-3.2572;
3979757282816389;-4.3286;-0.0873;-3.0990;
3979757292921129;-9.6658;-0.1639;-5.9067;
3979757303023317;-11.9824;-0.3485;-3.9377;
3979757313128056;-8.4153;-0.3748;-1.3313;
3979757323232796;-7.6511;-0.8994;-3.7149;
3979757333331962;-14.0782;0.2985;-3.5853;
3979757343436702;-12.2315;0.2530;-0.7851;
3979757353541442;-4.8604;-0.4250;1.3828;
3979757363664879;-9.2393;-0.3652;-5.7150;
3979757373769619;-16.2488;0.2770;-1.8751;
3979757383874358;-10.2503;0.0565;1.3612;
3979757393971389;-5.2750;0.0781;-4.0406;
3979757404076129;-7.0403;0.9715;-6.9703;
3979757414180869;-8.4682;1.1034;-5.9210;
3979757424286442;-9.0215;0.6505;-3.4490;
3979757434391181;-9.4358;-0.1974;-3.1229;
3979757444495921;-8.8968;-0.0849;-4.6466;
3979757454604358;-11.7188;0.8279;-1.3217;
3979757464709098;-9.4573;-0.0105;-1.5179;
3979757474813837;-0.1484;0.2794;-3.7340;
3979757484909046;-4.4964;1.2855;-7.4997;
3979757495013785;-20.2155;0.8136;-6.3476;
3979757505118525;-19.4707;0.5548;0.1612;
3979757515218421;-4.7216;0.5501;1.0618;
3979757525323160;-2.3812;1.5395;-2.4954;
3979757535427900;-10.5042;1.5514;-5.6623;
3979757545535921;-10.6672;1.8197;-3.1014;
3979757555640660;-9.5964;0.6745;-3.4059;
3979757565745400;-8.0178;0.8447;-2.8475;
3979757575863473;-9.6443;0.2650;-3.5399;
3979757585968212;-11.3498;1.1225;-3.1424;
3979757596072952;-8.4993;0.9476;-1.8583;
3979757606173733;-8.1517;0.6960;-3.2405;
3979757616278473;-10.2790;0.5740;-0.4208;
3979757626383212;-5.7876;-0.1113;1.7758;
3979757636476650;-9.5195;-0.3194;-7.4686;
3979757646581389;-13.3549;1.7237;-9.4352;
3979757656686129;-9.3497;3.0317;-2.7589;
3979757666816129;-5.4520;1.3286;-2.2510;
3979757676920921;-8.1852;0.4277;-1.9301;
3979757687025608;-11.5630;0.4086;-1.1563;
3979757697093837;-10.8036;0.6410;-2.0593;
3979757707198629;-7.2655;0.7825;-3.2477;
3979757717303317;-8.9949;1.2398;-3.9999;
3979757727426129;-12.4831;1.0340;-2.3877;
3979757737530869;-9.0407;-0.1687;-1.8320;
3979757747635608;-7.9436;0.0781;-3.2764;
3979757757742587;-10.1043;0.7175;-2.4811;
3979757767847327;-10.6193;0.0924;-2.4667;
3979757777952014;-10.0083;0.5285;-3.7819;
3979757788049879;-7.4764;0.6888;-2.8717;
3979757798154619;-6.5563;0.2722;-3.2213;
3979757808259358;-7.5553;-0.4729;-4.8431;
3979757818366337;-6.4965;0.1379;-5.1305;
3979757828471077;-9.9820;0.6051;-5.9091;
3979757838575817;-15.8964;0.1929;-2.2558;
3979757848675921;-7.8547;-0.7268;1.7638;
3979757858780660;-5.5433;-0.1926;-0.1190;
3979757868885400;-11.9513;0.3248;-3.4777;
3979757879029358;-13.0914;0.5859;-2.7374;
3979757889134098;-9.7878;1.0866;-1.0199;
3979757899238837;-7.8811;0.9547;-3.1158;
3979757909303317;-9.8695;0.7442;-4.8024;
3979757919408056;-8.2908;0.1546;-3.6500;
3979757929512796;-6.5204;0.0159;-2.9770;
3979757939622067;-7.9962;0.2435;-4.5915;
3979757949726806;-10.4659;0.2243;-3.7149;
3979757959831546;-11.6853;0.1810;-1.5326;
3979757969934723;-9.3233;-0.4968;0.5420;
3979757980039462;-8.3794;-0.4872;-2.7517;
3979757990144202;-9.8360;0.1690;-4.1818;
3979758000250296;-10.4109;0.7056;-3.8130;
3979758010355035;-7.2320;1.3502;-3.9206;
3979758020459775;-6.3458;0.8806;-5.0539;
3979758030568108;-11.0551;1.1728;-5.6767;
3979758040672848;-13.1800;0.5716;-3.7795;
3979758050777587;-6.8151;0.7944;-0.8737;
3979758060874567;-8.3315;0.4759;-1.9875;
3979758070979306;-11.5295;1.1656;-3.0727;
3979758081084046;-9.5267;1.0196;-1.0534;
3979758091190608;-5.6270;0.6218;-1.9684;
3979758101295348;-7.3636;-0.0129;-5.8660;
3979758111400087;-10.6624;0.0541;-6.5749;
3979758121506129;-11.0408;0.7271;-4.3113;
3979758131583212;-10.7103;1.1560;-2.3037;
3979758141687848;-8.4826;0.8495;-1.6187;
3979758151792431;-8.0273;0.6147;-2.2223;
3979758161930192;-6.8486;0.0924;-1.1946;
3979758172034827;-5.1455;-0.0320;-4.6968;
3979758182139410;-11.0910;0.5835;-7.2051;
3979758192233837;-13.7788;1.2736;-3.8776;
3979758202338473;-13.5850;0.7490;-1.9804;
3979758212443056;-6.7481;0.6864;1.4405;
3979758222572483;-3.5046;0.7032;-0.0712;
3979758232677119;-14.4903;-0.4657;-3.7220;
3979758242781702;-17.1398;0.5309;-2.2989;
3979758252890087;-4.7695;1.6256;0.8557;
3979758262994723;-2.5319;0.7271;-5.1305;
3979758273099306;-12.4397;-1.2802;-8.2158;
3979758283183212;-13.5200;0.0876;-2.5002;
3979758293287848;-6.6643;0.6434;-0.2198;
3979758303392431;-4.5993;-1.2108;-3.1639;
3979758313496181;-7.1937;-0.1424;-5.4108;
3979758323600764;-11.0647;-0.2118;-3.8919;
3979758333705400;-13.0412;-0.2285;-3.0775;
3979758343800608;-13.8891;0.0996;-3.0535;
3979758353905244;-6.9159;0.7968;0.6619;
3979758364009827;-6.6308;0.7801;-1.8129;
3979758374124046;-13.7644;0.5046;-5.8469;
3979758384228681;-13.8147;0.8877;-2.3013;
3979758394333264;-8.0895;0.9500;0.4630;
3979758404447223;-5.4832;0.1211;-3.3649;
3979758414551858;-6.5085;0.2411;-5.4826;
3979758424656442;-12.6577;0.7247;-6.5366;
3979758434751233;-12.9356;1.3525;-1.7695;
3979758444855869;-6.3577;0.2267;0.3263;
3979758454960452;-7.7112;0.0494;-2.3180;
3979758465063212;-11.7547;0.0613;-3.4944;
3979758475167848;-10.3750;0.5189;-5.4562;
3979758485272431;-8.9447;1.7668;-3.2524;
3979758495392223;-9.9772;1.4674;-2.2798;
3979758505496858;-9.4597;0.5022;-4.4309;
3979758515601442;6.1899;0.6027;-6.4146;
3979758525699879;-4.2209;0.2363;-9.8450;
3979758535804514;-19.3914;1.6041;-7.5906;
3979758545909098;-19.0202;1.4674;0.0966;
3979758556015712;-7.2248;0.2483;5.1990;
3979758566120348;-5.6486;0.1786;3.4406;
3979758576224931;-10.5329;-0.3099;-2.0450;
3979758586312379;-13.1369;0.6482;-3.6093;
3979758596417014;-15.7768;0.9715;-3.5997;
3979758606521598;-8.6261;1.9107;-1.3050;
3979758616635712;-3.6461;1.6089;-3.0894;
3979758626740296;-8.6620;0.5405;-6.9488;
3979758636844931;-18.0643;1.7572;-3.8417;
3979758646982692;-9.2683;0.8016;8.6219;
3979758657087275;2.0291;-0.3314;2.1206;
3979758667191910;-7.9627;-0.4322;-11.7111;
3979758677273108;-12.7391;1.2975;-6.7211;
3979758687377744;-7.9170;1.3956;-4.4166;
3979758697482327;-2.6399;1.0651;-9.8258;
3979758707567379;-3.8231;2.9121;-6.9081;
3979758717672014;-8.3387;2.1670;-6.1415;
3979758727776598;-22.6950;0.9978;-5.7963;
3979758737876650;-35.5014;2.8759;6.0326;
3979758747981285;-0.0550;2.8376;14.7329;
3979758758085869;11.0288;3.2282;1.2966;
3979758768197900;-10.8634;-1.7785;-17.5223;
3979758778302535;-18.6730;-4.1812;-12.0703;
3979758788407119;-7.2368;4.2102;2.3722;
3979758798512379;-5.2989;3.0173;-0.9960;
3979758808617014;-8.0847;-0.7890;-6.3858;
3979758818721598;-8.5328;1.4889;-1.9636;
3979758828850192;-5.9216;0.8160;-0.1717;
3979758838954827;-4.8820;-0.8489;-2.8451;
3979758849059410;-9.2393;-0.3628;-2.4165;
3979758859150296;-5.3396;-1.0860;-10.3382;
3979758869254931;-15.6930;1.8628;-23.0967;
3979758879359514;-13.4195;5.8128;0.0485;
3979758889463733;-3.2315;1.5802;8.5430;
3979758899568369;-8.3028;-1.3041;0.3505;
3979758909672952;-13.8413;-0.4705;2.5113;
3979758919773942;-9.9652;0.2195;2.3818;
3979758929878577;-6.4822;-0.7364;-4.5700;
3979758939983160;-18.8022;-0.4442;-3.1038;
3979758950086754;-10.7557;0.2243;0.4175;
3979758960191389;-3.6314;-0.5183;0.9637;
3979758970295973;-8.0465;-1.1171;-1.1827;
3979758980427796;-12.8160;-0.4872;-7.4183;
3979758990532431;-9.5916;1.1010;-5.6360;
3979759000637014;-1.9522;0.6266;-1.9660;
3979759010711962;-5.4664;-0.0200;-8.4673;
3979759020816598;-13.9107;1.8700;-7.6433;
3979759030921181;-10.8972;1.2446;-1.0965;
3979759041024567;-7.0499;-0.0682;-1.8918;
3979759051129202;-10.3702;0.4062;0.4343;
3979759061233785;-7.1073;0.0135;0.2569;
3979759071340192;-16.1432;0.6649;-11.3803;
3979759081444827;-13.0098;1.8556;-0.2486;
3979759091549410;-4.0627;1.0914;3.6682;
3979759101657067;-9.2731;0.0398;-9.7896;
3979759111761702;-7.8404;1.1704;-3.8536;
3979759121866285;-6.6954;1.6567;-1.2233;
3979759131990764;-13.3406;-0.8680;-4.3089;
3979759142095817;-9.0383;0.5070;-1.7862;
3979759152200817;-4.6304;0.3200;-2.9650;
3979759162288056;-14.5932;-0.0105;-2.6345;
3979759172393108;-11.3904;-0.5303;-0.7202;
3979759182498108;-7.7758;0.1331;-4.9149;
3979759192601494;-9.6203;0.7729;-2.2487;
3979759202706546;-7.1240;0.8088;-1.7240;
3979759212811546;-11.8672;0.6984;-6.4648;
3979759222920452;-14.5167;2.4999;-3.1759;
3979759233025504;-7.4429;0.6529;3.5387;
3979759243130504;-3.3129;-0.9018;-0.4400;
3979759253234619;-9.5964;-0.0730;-5.1090;
3979759263339671;-11.7452;0.7418;-4.4910;
3979759273444671;-9.6586;1.0220;-2.7350;
3979759283543577;-4.1946;0.6458;-3.9015;
3979759293648629;-6.7624;0.2100;-7.5835;
3979759303753629;-14.7467;0.5620;-4.9675;
3979759313875764;-12.6386;0.1690;-1.3887;
3979759323980817;-7.0187;1.1106;-2.6225;
3979759334085817;-3.9526;1.3502;-2.5863;
3979759344185139;-13.7668;0.8399;-3.0703;
3979759354290192;-13.8604;0.5788;-2.3133;
3979759364395192;-8.0201;0.5907;-1.8631;
3979759374477275;-7.7375;0.2841;-0.0544;
3979759384582275;-9.1460;0.0374;-1.2906;
3979759394687275;-10.2263;0.3511;-4.4839;
3979759404804827;-12.1355;0.5405;-2.1362;
3979759414909879;-1.7270;-0.5638;-0.3419;
3979759425014879;-6.7528;0.3224;-7.0780;
3979759435112639;-13.2733;0.7825;-7.5858;
3979759445217639;-10.5568;1.1991;-1.5733;
3979759455322639;-6.4463;0.2411;-1.8727;
3979759465425869;-6.7600;-0.3508;-2.8908;
3979759475530921;-10.9977;0.9691;-5.9617;
3979759485635921;-11.6758;1.1847;-0.8809;
3979759495741962;-5.8307;0.2961;-0.7971;
3979759505846962;-13.5464;0.0517;-4.9579;
3979759515951962;-12.1355;0.7896;-1.6379;
3979759526053212;-3.2674;0.9165;0.5061;
3979759536158212;-6.4080;0.5788;-5.4084;
3979759546263212;-13.5826;0.7681;-4.1100;
3979759556366233;-11.2516;0.5261;-0.5910;
3979759566471233;-5.2340;-0.5758;-2.4236;
3979759576576233;-8.9590;0.6649;-5.1903;
3979759586680087;-14.3321;0.8710;-4.0334;
3979759596785139;-12.6960;1.0268;-0.4304;
3979759606890139;-6.0509;0.5572;-0.5049;
3979759617010035;-2.5825;-0.0706;-3.3410;
3979759627115087;-7.0187;0.4636;-7.1091;
3979759637220087;-13.8724;0.9045;-6.6494;
3979759647328889;-16.4282;2.4090;-1.7575;
3979759657433942;-6.3936;-0.0392;3.0861;
3979759667538942;-0.9317;-0.4394;-0.6891;
3979759677616181;-14.1742;0.5931;-7.1258;
3979759687721233;-12.9284;0.6625;-2.2630;
3979759697826233;1.4495;1.4076;-2.1266;
3979759707973785;-2.3692;1.2374;-10.0388;
3979759718078837;-26.5971;1.9896;-7.1572;
3979759728183837;-22.3786;0.7777;3.6371;
3979759738248629;3.5596;0.6745;7.7501;
3979759748353629;10.4444;0.7152;-3.1615;
3979759758458629;-27.0356;0.9858;-10.0795;
3979759768564671;-30.7247;1.2159;3.7496;
3979759778669671;6.5351;1.5849;3.0431;
3979759788774671;3.2506;1.2302;-8.3285;
3979759798878317;-17.7506;-0.1448;-9.1406;
3979759808983317;-21.6338;1.5491;0.0197;
3979759819088317;-7.5171;0.2267;5.2732;
3979759829186962;2.2448;-0.2166;2.4464;
3979759839291962;-8.6764;-0.6479;-12.1205;
3979759849396962;-17.7290;-0.4513;-13.2057;
3979759859517119;-2.4362;3.0006;0.0772;
3979759869622171;8.3698;0.5237;-1.5541;
3979759879727171;-11.4673;-1.6705;-11.7350;
3979759889828681;-37.7387;1.0026;-11.0234;
3979759899933733;-22.5703;1.8027;12.5770;
3979759910038733;5.1766;2.0809;14.7544;
3979759920151702;7.7399;2.6222;-8.8053;
3979759930256754;7.7207;-4.3848;-21.0365;
3979759940361754;-40.8407;-3.4911;-9.3227;
3979759950457535;-37.5254;3.4487;12.1866;
3979759960562587;8.0584;1.4865;7.4243;
3979759970667587;15.1804;0.9452;-3.1424;
3979759980793369;-5.5935;-3.4457;-5.6145;
3979759990898421;-14.1885;-4.4542;-0.7011;
3979760001003421;-9.3042;-1.3567;-11.7350;
3979760011071129;-7.7255;0.3440;-21.8414;
3979760021176129;-6.5157;2.5286;-10.1133;
3979760031281129;-13.7405;0.3392;-4.4213;
3979760041397483;-25.9552;0.3368;11.3985;
3979760051502483;-1.5093;0.5931;28.6723;
3979760061607483;-1.3941;2.6940;-11.3492;
3979760071710192;-27.7926;0.5955;-33.7256;
3979760081815192;-10.7151;-2.6599;12.9820;
3979760091920192;-0.0646;7.0083;12.8931;
3979760102026233;-8.5926;2.9504;-5.7365;
3979760112131233;-16.5697;-4.0253;-5.9617;
3979760122236233;-16.8930;0.4110;3.9341;
3979760132360660;-2.8074;1.7166;6.8399;
3979760142465504;-1.2239;-0.9185;-12.4391;
3979760152570296;-10.9187;-0.9832;-15.6826;
3979760162656650;-8.3339;2.7060;-7.0780;
3979760172761442;-15.5898;2.8017;-11.0282;
3979760182866233;-19.2192;2.7706;-0.0736;
3979760192966910;-2.0216;2.5190;5.7404;
3979760203071754;-1.3893;2.4951;-7.0851;
3979760213176546;-13.3310;-0.5758;-7.7967;
3979760223278577;-9.4310;1.6854;2.3578;
3979760233383421;-5.8092;0.8566;-7.1955;
3979760243488264;-10.9403;-0.0559;-9.9048;
3979760253599150;-7.1913;0.7561;-0.4017;
3979760263703942;-4.1273;-0.3218;-4.2060;
3979760273808785;-5.8403;-0.1376;-3.9903;
3979760283908785;-5.2388;0.7872;-2.5935;
3979760294013629;-7.3780;-0.0224;-8.4793;
3979760304118473;-8.6979;0.1714;-9.3156;
3979760314223369;-7.1001;1.1967;-4.4572;
3979760324328212;-8.1709;0.2148;-0.9598;
3979760334433056;-8.8202;-0.7172;2.4176;
3979760344553577;-6.6739;-1.0717;0.5707;
3979760354658421;-3.1334;-0.7747;-1.7049;
3979760364763212;-20.0719;-0.0802;-0.8043;
3979760374848473;-24.2665;0.1546;3.8336;
3979760384953317;-3.9598;0.0709;7.6543;
3979760395058710;-5.8690;0.4445;4.1809;
3979760405166627;-15.7648;0.2602;-0.9814;
3979760415271471;-15.5181;0.2291;-1.8942;
3979760425376314;-7.0618;0.7152;-0.0042;
3979760435491992;-7.1169;0.8806;-1.6929;
3979760445596835;-11.9584;-0.1184;-5.1927;
3979760455701627;-6.2019;-0.3413;-2.3351;
3979760465801783;4.9349;0.6410;-3.9808;
3979760475906575;-11.1631;1.0675;-9.9096;
3979760486011419;-74.7587;5.5831;-1.2329;
3979760496118867;-12.5094;8.4144;18.8868;
3979760506223658;65.7637;10.1871;3.9915;
3979760516328502;11.7380;-4.8446;-31.5841;
3979760526416054;-43.3298;-11.1520;-33.5267;
3979760536520898;-31.5679;7.9786;4.2335;
3979760546625689;1.9932;8.5582;2.7075;
3979760556737512;11.3186;-0.9736;-1.3289;
3979760566842304;-13.5440;3.5898;-3.8824;
3979760576947096;-24.4819;0.6625;3.2871;
3979760587043658;-5.0019;-2.3605;10.3971;
3979760597148502;7.5625;-0.7531;-24.3042;
3979760607253242;-31.0074;6.5746;-45.8252;
3979760617365273;-20.5391;7.5712;25.2323;
3979760627470117;14.8137;-2.3677;23.6372;
3979760637574856;-3.1286;-4.6890;-2.2463;
3979760647701419;-25.1910;-6.0855;-8.6901;
3979760657806262;-16.7228;-2.9641;9.2067;
3979760667911002;3.7513;-0.1328;6.6147;
3979760677999648;-2.4864;-2.5666;-16.2144;
3979760688104439;-21.8037;-2.7440;-16.2529;
3979760698209283;-10.5688;0.3224;14.1915;
3979760708339439;0.6972;0.3464;1.4357;
3979760718444231;-14.3297;-1.0310;-22.7016;
3979760728549075;-7.0475;-0.9305;4.3412;
3979760738637356;0.5414;1.2182;5.6731;
3979760748742148;-24.8055;0.2124;-15.0263;
3979760758846992;-14.8208;-0.4753;7.0436;
3979760768932564;3.2961;1.5248;2.1613;
3979760779037408;-12.4564;0.2674;-16.1689;
3979760789142252;-11.6925;-1.2132;3.7543;
3979760799255221;-5.4784;1.9633;0.6042;
3979760809360012;-13.8099;1.3717;-11.8690;
3979760819464804;-8.0752;0.5309;-0.9096;
3979760829563502;-4.9490;2.3683;-2.0186;
3979760839668346;-13.9490;0.4493;-4.9125;
3979760849773189;-10.9881;0.0517;-0.2797;
3979760859904283;-4.3980;0.0924;-2.2008;
3979760870009075;-11.2134;0.8231;-7.7632;
3979760880113919;-16.9576;2.0542;-2.9459;
3979760890196523;-8.6764;1.6950;1.9723;
3979760900301314;-2.8217;-0.2835;0.1445;
3979760910406158;-8.5161;0.3942;-3.5255;
3979760920520950;-11.9536;1.7166;-4.6537;
3979760930625742;-9.4669;1.0914;-1.1228;
3979760940730585;-8.5184;0.5046;-1.6786;
3979760950823606;-6.9470;-0.3003;-5.4706;
3979760960928398;-4.2927;0.8471;-3.3242;
3979760971033189;-7.7279;1.1441;-5.8708;
3979760981153398;-14.9791;1.5730;-5.4251;
3979760991258242;-11.1966;1.7309;-1.8129;
3979761001363033;-4.8580;0.9643;-0.6197;
3979761011463762;-10.6217;1.4171;-2.7087;
3979761021568554;-10.0995;1.8317;-1.2691;
3979761031673398;-7.6367;1.7213;-2.2008;
3979761041758606;-9.8288;1.4291;-3.9999;
3979761051863450;-12.5716;1.4602;-2.4404;
3979761061968294;-11.7739;1.1536;-1.2090;
3979761072078971;-7.3158;1.3884;0.7098;
3979761082183814;-7.7853;0.2001;-0.6963;
3979761092288606;-10.0298;1.2565;-3.3601;
3979761102392981;-13.8987;0.8590;-3.9063;
3979761112497825;-13.0962;0.6242;-0.1501;
3979761122602669;-5.4233;0.1881;-1.3146;
3979761132743189;-4.6400;0.8112;-4.8814;
3979761142848085;-4.8867;1.5993;-5.6001;
3979761152952981;-11.6925;1.2063;-6.1032;
3979761163027721;-13.6208;0.1690;-2.4835;
3979761173132617;-6.5925;-0.4944;-4.1339;
3979761183237460;-8.5017;1.0172;-3.8034;
3979761193332148;-9.6802;0.7295;0.5324;
3979761203437044;-9.4430;-0.8803;-1.7838;
3979761213541939;-8.9949;0.6864;-4.8503;
3979761223648189;-10.3173;1.1441;-5.5810;
3979761233753137;-8.8226;0.9667;-3.2836;
3979761243857929;-8.4224;0.0565;-2.7326;
3979761253964648;-13.7429;-0.7244;-0.3227;
3979761264069596;-9.3975;-1.3687;1.3277;
3979761274174387;-4.0579;-1.5126;-3.3266;
3979761284273554;-6.9182;0.2530;-5.5594;
3979761294378502;-12.8231;0.3488;-2.8164;
3979761304483294;-11.6276;-1.9439;-1.5781;
3979761314620117;-6.0485;-1.5102;-3.1567;
3979761324725012;-9.8958;0.4014;-3.8871;
3979761334829908;-10.8829;-0.2405;-0.1358;
3979761344922200;-9.3042;-1.6370;-2.7852;
3979761355027096;-11.7691;-0.5160;-4.2754;
3979761365131992;-8.2358;0.4516;-1.1539;
3979761375215377;-6.7361;0.1211;-4.7809;
3979761385320325;-11.9007;1.1297;-3.6308;
3979761395425169;-12.9021;0.3894;1.9361;
3979761405539439;-11.8337;-0.4298;0.6763;
3979761415644335;-3.9646;-0.2213;-3.2477;
3979761425749179;6.9326;0.1977;-7.1067;
3979761435859387;-11.8361;2.1526;-10.1516;
3979761445964231;-20.6755;1.0699;-6.1917;
3979761456069127;-10.1354;-0.3314;-3.9425;
3979761466174179;0.8575;0.5261;-1.3050;
3979761476279023;-6.9565;1.1369;-4.3663;
3979761486383867;-17.7864;1.2855;-1.0104;
3979761496484075;-11.4888;0.4540;2.2549;
3979761506588919;-9.0526;0.0637;-1.6451;
3979761516693762;-12.9308;1.2685;-4.9196;
3979761526803554;-13.6783;2.0207;0.1181;
3979761536908398;-4.5108;0.2411;8.5023;
3979761547013294;-1.8111;-1.2610;-1.3481;
3979761557088971;-13.9609;-1.1195;-16.2287;
3979761567193814;-11.2971;1.9298;-1.1252;
3979761577298658;-8.2932;2.7921;-0.3275;
3979761587425794;-7.5721;-0.4083;-3.4155;
3979761597530637;-8.4057;0.1570;-2.5265;
3979761607635533;-10.5425;2.1981;-3.8321;
3979761617751523;-9.8432;1.0531;-4.1722;
3979761627856367;-10.3630;2.0207;-6.3353;
3979761637961262;-8.0465;2.6366;-4.5030;
3979761648036054;-4.5275;1.9585;-2.3204;
3979761658140950;-6.6117;1.6208;-3.6332;
3979761668245794;-12.4301;1.8078;-5.1568;
3979761678387669;-12.1116;2.0423;0.0197;
3979761688492564;-13.3382;0.5668;0.2019;
3979761698597408;-12.2770;0.6147;0.6018;
3979761708695689;-6.8103;1.2565;1.4788;
3979761718800585;-8.2908;0.4974;-4.6705;
3979761728905429;-12.0063;1.7405;-5.0827;
3979761739021523;-8.5041;2.1861;-3.9278;
3979761749126419;1.9187;1.9729;-5.5256;
3979761759231262;-13.2446;2.6892;-4.6920;
3979761769309856;-12.6171;1.6304;-0.8426;
3979761779414700;-5.7227;-0.4322;0.7481;
3979761789519596;-2.0554;0.3176;-1.9851;
3979761799619439;-11.2971;0.9380;-6.8336;
3979761809724387;-19.2861;2.1407;-5.8229;
3979761819829231;-11.9871;1.6783;0.2258;
3979761829933502;-6.1277;0.6553;0.7528;
3979761840038450;-6.6643;0.3440;-3.0559;
3979761850143294;-14.4616;0.7056;-3.2213;
3979761860261106;-9.9054;1.6567;5.2660;
3979761870366002;-0.4433;0.0494;-4.4862;
3979761880470794;-14.8328;-0.6670;-10.3238;
3979761890548867;-11.0575;1.1656;2.6142;
3979761900653710;-8.6477;0.9835;1.4812;
3979761910758554;-7.9412;-1.2227;-5.0755;
3979761920882304;-8.0034;0.4325;-7.0971;
3979761930987148;-8.4682;2.1239;-5.5690;
3979761941092044;-7.9364;1.0484;-6.2683;
3979761951192200;-13.2903;1.6687;-4.2299;
3979761961297044;-16.0858;1.5538;-2.0163;
3979761971401939;-12.4540;1.5873;2.5184;
3979761981530273;-8.0154;0.9165;4.9905;
3979761991635169;-5.8140;-0.2309;-0.5599;
3979762001740064;-6.9422;-1.2586;-5.8660;
3979762011806106;-11.0767;-0.1089;-8.6231;
3979762021911002;-9.6012;2.0112;-4.3902;
3979762032015898;-4.4605;2.0566;-2.0163;
3979762042133137;-8.5400;0.1905;-5.1185;
3979762052237981;-10.8515;-0.0200;-3.1086;
3979762062342877;-7.0977;1.0962;-5.8181;
3979762072446783;-10.0346;1.2951;-7.4590;
3979762082551679;-9.1938;2.4879;-3.2285;
3979762092656471;-11.8050;0.8662;-2.4571;
3979762102777460;-13.1871;0.5237;-0.7131;
3979762112882356;-9.9844;0.5764;1.9169;
3979762122987252;-8.2047;0.3679;1.5793;
3979762133069179;-9.6538;-0.9712;-2.5050;
3979762143173606;-11.1559;-0.4178;-1.0128;
3979762153277981;-10.0875;0.2626;-2.6441;
3979762163392304;-11.8887;0.9380;-4.4333;
3979762173496731;-5.8116;0.6553;-1.0750;
3979762183601106;-8.7604;0.6266;-2.1266;
3979762193699700;-11.2851;0.5907;-4.4166;
3979762203804127;-9.3090;1.1536;-5.3079;
3979762213908502;-6.7289;1.9729;-4.3831;
3979762224018554;-7.4357;1.6591;-5.2693;
3979762234122981;-10.6744;1.4243;-4.4142;
3979762244227356;-10.5999;1.0555;-3.3745;
3979762254332200;-10.5808;1.2470;-3.4681;
3979762264436627;-8.7628;1.2230;-3.2548;
3979762274541002;-8.0345;1.3908;-0.1286;
3979762284646471;-7.7375;0.4253;-0.9335;
3979762294750898;-11.3210;0.8662;-4.2634;
3979762304855325;-9.6203;1.4722;-3.7388;
3979762314954023;-7.7327;1.1895;-2.6393;
3979762325058450;-9.6036;0.5548;-2.2965;
3979762335162877;-8.0680;0.7920;-0.9479;
3979762345280637;-9.8815;0.4854;-4.0813;
3979762355385064;-11.2253;1.5778;-4.2347;
3979762365489439;-7.5123;1.2565;-1.2257;
3979762375585637;-6.7409;0.6649;-0.8809;
3979762385690064;-11.7332;-0.2859;-2.9243;
3979762395794439;-14.7897;0.8399;-0.5288;
3979762405903554;-9.3951;0.0302;1.8691;
3979762416007981;-5.4760;-0.4178;-1.5996;
3979762426112356;-9.0694;0.2937;-3.5830;
3979762436213867;-9.9413;0.3799;-3.6404;
3979762446318294;-7.4524;0.5261;-5.5857;
3979762456422669;-10.9953;1.0002;-4.1554;
3979762466521731;-8.5280;1.0101;0.1875;
3979762476626106;-6.8943;-0.5279;-2.0668;
3979762486730481;-11.7595;-0.0320;-3.2883;
3979762496890742;-14.6318;0.5548;-2.9267;
3979762506995169;-8.8370;0.4636;-1.4653;
3979762517099544;-5.7562;0.1594;-2.7805;
3979762527159908;-10.0780;0.4974;-3.5279;
3979762537264335;-9.4095;0.7247;-3.5877;
3979762547368762;-9.2297;1.0412;-5.3294;
3979762557510533;-7.0594;0.4038;-0.9670;
3979762567614960;-10.3822;-0.5447;-1.1204;
3979762577719335;-14.6390;-0.5542;-2.1721;
3979762587787617;-9.4645;0.2435;0.4726;
3979762597892044;-5.1168;0.4110;-2.5911;
3979762607996419;-11.9728;0.1953;-6.2444;
3979762618117304;-10.5999;0.7490;-3.8130;
3979762628221731;-3.8853;0.7466;-4.6968;
3979762638326106;-5.9480;0.9906;-6.9511;
3979762648436783;-14.0184;1.9346;-2.3327;
3979762658541210;-15.4630;0.3392;2.5711;
3979762668645585;-5.3994;-0.8082;2.5424;
3979762678752408;-3.2004;0.0709;-5.6288;
3979762688856835;-11.9246;1.1704;-9.0664;
3979762698961210;-14.2890;2.0375;-0.5336;
3979762709066783;-7.7495;1.3238;-1.1348;
3979762719171210;-1.1617;0.5213;-7.0445;
3979762729275585;8.0513;1.4530;-10.3238;
3979762739351575;-11.5199;3.1636;-8.6303;
3979762749456002;-34.3346;2.3635;2.5208;
3979762759560429;-5.7108;-1.3424;7.3621;
3979762769671471;-0.5222;0.3583;-4.0119;
3979762779775898;-43.3298;3.2139;1.1554;
3979762789880273;-11.0192;3.8581;16.3116;
3979762799987721;7.8742;6.7161;0.0126;
3979762810092148;-3.6628;-2.0731;-11.3659;
3979762820196575;-11.3521;-3.8698;-14.6599;
3979762830304387;-11.2899;-0.5327;-4.9364;
3979762840408814;-3.0398;4.5817;10.7949;
3979762850513189;1.9020;0.7490;-2.1266;
3979762860636523;-15.3287;-1.4360;-22.4070;
3979762870740950;-15.6329;2.7203;-2.6201;
3979762880845325;4.7504;1.6639;-2.8187;
3979762890933242;-13.1178;2.9288;-27.6458;
3979762901037669;-19.0370;6.5243;-0.2342;
3979762911142044;-5.2364;1.1201;7.6065;
3979762921244804;-5.8403;-0.4059;2.6620;
3979762931349231;-12.7439;-0.0248;4.2909;
3979762941453606;-18.8070;-1.2227;3.5797;
3979762951555429;-9.7137;-2.6910;7.7022;
3979762961659856;1.1764;-1.6226;-1.0654;
3979762971764231;-9.6658;-1.3304;-13.7303;
3979762981867721;-12.1953;-1.8239;-1.4821;
3979762991972148;-4.8245;-1.2826;-0.9455;
3979763002076523;-14.2843;-0.4633;-7.9908;
3979763012203502;-11.0575;0.6314;0.6715;
3979763022307929;-7.6463;0.5429;-0.7131;
3979763032412304;-12.4612;0.2076;-3.7053;
3979763042509075;-6.7744;0.6769;2.0680;
3979763052613502;-2.2373;0.3918;-4.6178;
3979763062717877;-14.6964;0.5070;-10.8556;
3979763072821887;-13.8772;0.7777;0.1349;
3979763082926314;-5.3348;-0.2740;2.8944;
3979763093030742;-8.1661;-0.7914;-3.5207;
3979763103137096;-7.7040;-0.0081;0.3817;
3979763113241471;-7.0427;-0.2166;-5.2959;
3979763123345898;-13.3406;0.6888;-8.1057;
3979763133450325;-9.9844;1.1010;-1.9110;
3979763143560117;-5.7996;1.0026;-4.2562;
3979763153664960;-10.1617;0.8590;-4.0214;
3979763163769752;-6.2689;0.5429;1.0666;
3979763173872096;-17.1876;-0.2931;-3.7316;
3979763183976887;-19.7725;0.2674;1.3756;
3979763194081731;-2.5654;1.1393;4.1617;
3979763204178137;1.1569;0.8997;-2.9291;
3979763214282981;-7.8643;-0.7962;-7.8374;
3979763224387773;-15.5157;0.6936;-3.5375;
3979763234494283;-11.1966;0.7319;-2.3734;
3979763244599075;-5.9264;0.2124;-3.3482;
3979763254703919;-7.3974;0.8447;-2.2534;
3979763264809283;-10.8972;0.5548;-0.0449;
3979763274914127;-8.4105;0.0087;-1.5446;
3979763285018919;-6.9517;0.3033;-8.2735;
3979763295116887;-8.6596;1.5921;-11.5409;
3979763305221783;-8.6692;3.7050;-0.3993;
3979763315326523;-11.1799;1.5514;0.6066;
3979763325433502;-12.2961;0.4349;0.5061;
3979763335538398;-10.8084;1.2661;-0.7277;
3979763345643137;-13.4267;1.8173;-0.1983;
3979763355756106;-3.3897;1.7333;1.5170;
3979763365860950;1.1569;0.7968;-8.2854;
3979763375965742;-18.7711;0.7561;-10.7934;
3979763386065117;-18.5937;3.2402;0.9757;
3979763396169908;-5.6916;2.8376;0.5204;
3979763406274700;-5.2005;1.7070;-1.0917;
3979763416380950;-12.2889;1.1656;0.6236;
3979763426485742;-13.7189;1.7046;-2.5624;
3979763436590585;-7.9050;1.8987;-4.1554;
3979763446678137;-1.0062;2.4425;-6.5725;
3979763456782929;-13.6424;1.4937;-8.7308;
3979763466887773;-21.1475;1.4219;3.2249;
3979763477003033;-12.2001;0.8136;8.5932;
3979763487107877;3.0640;1.9394;-6.4528;
3979763497212617;-1.6361;0.6410;-11.4018;
3979763507322512;-10.8251;0.0829;-5.3390;
3979763517427356;-18.6610;0.4636;-4.7040;
3979763527532148;-14.1096;0.3703;-5.6527;
3979763537633450;-0.9126;1.4315;-1.4486;
3979763547738294;2.5418;0.3655;0.8677;
3979763557843085;-13.5081;-1.1725;-3.9999;
3979763567957669;-23.8208;-1.6394;-3.3099;
3979763578062512;-10.5353;-0.1041;-2.8020;
3979763588167304;-0.8336;1.8532;-4.9077;
3979763598252044;1.9789;-0.1759;1.5362;
3979763608356939;-14.8328;-3.7905;-0.0497;
3979763618461731;-30.2575;-3.5489;-2.2391;
3979763628579179;-12.1427;-0.6311;1.1264;
3979763638683971;1.0349;1.4004;0.7959;
3979763648788762;-0.2396;-0.8177;0.5061;
3979763658924492;-13.5105;-2.8229;-3.8010;
3979763669029283;-13.8221;-2.4781;-8.4649;
3979763679134075;-5.3898;-0.1400;-8.4506;
3979763689196419;1.9836;-0.8010;-5.8253;
3979763699301262;-8.4009;-1.7545;-3.8441;
3979763709406106;-20.7066;-1.4647;4.4276;
3979763719524075;-1.5380;-1.3017;-3.0416;
3979763729628919;-14.0423;0.1020;-15.9413;
3979763739733710;-19.4154;2.1479;3.8189;
3979763749834283;-10.8610;1.9466;6.4612;
3979763759939075;-12.2842;2.7754;1.1456;
3979763770043867;-0.0933;1.6424;-3.4274;
3979763780162981;-3.3224;0.1810;-6.9224;
3979763790267825;-9.1699;-2.0085;-1.5012;
3979763800372617;-15.9203;-0.5877;2.2092;
3979763810472304;-12.5548;-0.2740;-5.6815;
3979763820577148;-11.0623;0.7681;-6.6374;
3979763830681887;1.5739;0.8040;6.4134;
3979763840768554;-6.6835;0.1714;-8.7861;
3979763850873398;-21.5019;2.2172;-13.2177;
3979763860978242;-9.5868;4.2679;-3.0392;
3979763871095012;-6.5997;3.9852;-3.5016;
3979763881199856;0.2970;1.6448;6.0063;
3979763891304596;-1.2024;-0.2453;-1.1827;
3979763901400637;-7.6944;-1.5915;-10.4222;
3979763911505533;-12.3847;1.3143;-6.4576;
3979763921610325;-18.8118;2.1407;-2.1601;
3979763931699544;-39.4729;2.3994;5.8792;
3979763941804387;-34.9792;5.2068;22.8105;
3979763951909231;30.4206;7.5544;5.7667;
3979763962031783;17.3100;0.3655;-14.7413;
3979763972136575;-18.7256;-6.9598;-22.8619;
3979763982241367;-21.5593;-4.4686;-9.2004;
3979763992347721;-9.5653;5.7171;6.3990;
3979764002452564;4.0962;1.6065;4.3196;
3979764012557304;6.2836;-1.5485;-3.0200;
3979764022658398;-20.5439;0.4759;-4.2993;
3979764032763242;-16.4378;-0.6120;-8.9895;
3979764042868085;-2.8747;1.8341;-31.7037;
3979764052971627;-28.2862;10.7716;-13.5796;
3979764063076523;-0.0502;5.3172;28.6508;
3979764073181314;19.7103;-2.1018;10.5048;
3979764083290429;-32.7368;-5.1416;-10.3959;
3979764093395273;-33.7095;-5.8890;7.5945;
3979764103500064;-1.2120;1.7094;14.9390;
3979764113611783;5.6988;1.1632;2.3219;
3979764123716627;5.6533;-4.0950;-13.6298;
3979764133821419;-38.4909;-1.9388;-24.1962;
3979764143923033;-28.9950;2.0590;9.8103;
3979764154027721;15.1971;6.5865;15.4660;
3979764164132460;2.0171;3.2067;-17.0240;
3979764174251262;-19.5856;-2.3797;-9.4352;
3979764184356002;-6.8031;1.9537;7.0747;
3979764194460689;-9.6180;3.7409;-15.4262;
3979764204541887;-5.3324;0.7490;-9.7418;
3979764214646627;-0.2731;1.3382;-4.9125;
3979764224751314;-25.0570;0.7968;-1.2449;
3979764234870637;-11.0575;0.1164;9.9852;
3979764244975325;-8.1829;3.0748;-11.5672;
3979764255080064;-16.6223;1.7836;-5.6743;
3979764265178867;1.3487;1.7668;12.7041;
3979764275283554;-11.5558;1.8461;-8.9273;
3979764285388294;-41.0061;0.7537;-3.3745;
3979764295497096;-7.9843;1.9729;16.0863;
3979764305601783;18.9748;2.1837;-0.5168;
3979764315706523;-0.8288;-2.3701;-11.9551;
3979764325811158;-19.1423;-3.4289;-12.1756;
3979764335915846;-19.6310;0.5716;-10.0292;
3979764346020585;-8.5974;2.0399;-2.0740;
3979764356125637;6.8034;0.0829;-0.9837;
3979764366230325;-1.2984;-0.4155;-8.9369;
3979764376335064;-24.7717;0.4493;-1.6977;
3979764386439179;-14.0495;-0.7555;0.8991;
3979764396543867;-12.0470;0.4445;-13.8165;
3979764406648606;-17.0079;2.8161;2.7556;
3979764416771262;5.2223;0.7872;16.9490;
3979764426875950;2.2759;-0.6455;-5.2983;
3979764436980689;-23.2627;-2.7942;-14.5520;
3979764447053606;-10.1569;-3.5198;1.5194;
3979764457158294;-15.8270;1.3047;0.0676;
3979764467262981;-9.5076;-0.7053;4.3149;
3979764477366835;8.4299;-1.2873;-0.8928;
3979764487471575;-11.6949;-0.9138;-16.2144;
3979764497576314;-23.7897;-0.4944;-2.9698;
3979764507676002;-21.2001;1.3262;-1.9947;
3979764517780689;-14.0207;3.0221;-0.0616;
3979764527885429;8.2884;2.7634;12.0452;
3979764538001471;6.4367;0.4421;-3.8680;
3979764548106210;-16.6558;-3.0721;-18.3799;
3979764558210898;-13.7907;-1.5987;-3.7747;
3979764568303971;-10.6744;1.0555;-7.9068;
3979764578408658;-12.0063;1.0388;-1.5251;
3979764588513398;1.4061;-0.2835;10.5745;
3979764598624700;-12.4397;-0.4777;-6.3739;
3979764608729387;-20.9486;1.2760;-8.7526;
3979764618834127;-9.4717;3.9371;-0.9502;
3979764628952617;-7.2320;3.6473;-5.6432;
3979764639057304;-0.2109;0.8997;2.1924;
3979764649162044;-5.9647;-0.5088;-0.3395;
3979764659277512;-7.7160;-1.2443;-6.4840;
3979764669382200;-8.5735;-0.5877;-2.5768;
3979764679486939;-28.8826;-0.6072;0.1110;
3979764689580637;-15.4750;-0.1280;5.9175;
3979764699685325;11.2134;1.9490;1.9361;
3979764709790064;-3.7633;1.6017;-13.1100;
3979764719888554;-18.6945;0.4588;-9.3299;
3979764729993242;-9.7161;2.9623;0.6691;
3979764740097981;-9.0933;2.4951;-3.8321;
3979764750201575;-15.8007;1.6256;0.9446;
3979764760306262;-19.8993;0.6864;10.2703;
3979764770411002;-5.3755;0.9332;11.3435;
3979764780518502;10.7007;0.6434;-7.8900;
3979764790623189;-20.2274;-1.0310;-28.9705;
3979764800727929;-23.9381;0.6242;-2.5289;
3979764810820533;3.9048;7.1617;12.9413;
3979764820925273;7.6107;1.3406;-8.8005;
3979764831029960;-20.8433;-0.6526;-10.2592;
3979764841148658;-25.3083;4.1527;2.0824;
3979764851253398;0.2539;2.4449;1.9627;
3979764861358085;3.9287;1.2855;-9.3993;
3979764871461939;-12.4588;1.6615;-18.3703;
3979764881566627;-25.3107;5.4870;1.1602;
3979764891671367;-3.6772;2.0856;8.6725;
3979764901775846;-1.4348;0.5142;-4.9053;
3979764911880533;-10.2215;-0.6742;-5.0061;
3979764921985273;-9.6706;1.1058;5.2086;
3979764932088502;-5.8642;-0.6144;0.6954;
3979764942193189;-10.4133;-0.1950;-10.7097;
3979764952297929;-13.6065;1.9250;-9.1549;
3979764962413867;-10.2957;2.1072;4.5329;
3979764972518606;-8.2190;-0.2596;3.1029;
3979764982623294;-5.0019;0.5094;-4.2634;
3979764992721887;2.7188;0.1618;-8.5179;
3979765002826627;-16.9768;2.1550;-3.0009;
3979765012931314;-20.6133;0.2865;1.5960;
3979765023031262;-7.4189;-0.8489;-0.0736;
3979765033135950;1.2793;-0.7651;1.2846;
3979765043240689;-5.2412;-1.0932;-5.0707;
3979765053348137;-19.2479;-0.6431;-5.9498;
3979765063452825;-14.6868;0.2052;0.9613;
3979765073557564;-11.0791;0.7585;-2.4069;
3979765083661783;-9.5052;1.2230;-4.3280;
3979765093766471;-13.8003;0.8351;8.4808;
3979765103871210;0.9392;-0.6048;9.4869;
3979765113978033;-6.8318;-0.4418;-17.0288;
3979765124082721;-37.9735;-0.0897;-13.5673;
3979765134187460;-7.3325;1.9801;15.7032;
3979765144298554;17.6812;2.0303;0.2234;
3979765154403346;0.1845;-3.6924;-18.5620;
3979765164508137;-19.3819;-1.2658;-12.9111;
3979765174605429;-21.0347;1.7788;-2.1314;
3979765184710169;-0.7881;-0.9353;-1.0726;
3979765194815012;7.6274;-0.3843;-6.5486;
3979765204915637;-16.8093;0.2219;-7.8805;
3979765215020429;-23.8567;-0.5016;5.7763;
3979765225125221;-7.6534;-1.2108;2.4416;
3979765235234387;-12.9117;1.0026;-13.5003;
3979765245339127;-11.4888;1.6496;3.7543;
3979765255443919;2.8651;1.1249;13.2359;
3979765265548137;-9.6969;-1.4384;-6.0936;
3979765275652929;-14.2508;-2.7727;-6.8336;
3979765285757721;-9.3568;-1.3902;-3.1158;
3979765295861054;-10.4372;0.9715;5.3880;
3979765305965846;5.3276;-2.1592;2.3865;
3979765316070585;2.8723;-2.2433;-20.3539;
3979765326167877;-25.9911;0.9141;-12.7146;
3979765336272669;-36.7397;2.5167;9.7385;
3979765346377460;-5.3683;0.6170;5.7667;
3979765356502721;1.6074;4.9959;1.5769;
3979765366607512;-14.1957;3.7457;4.0872;
3979765376712304;-17.3626;2.4329;0.3673;
3979765386836054;-39.1017;5.0680;1.7231;
3979765396940846;5.9671;4.8212;7.5009;
3979765407045637;32.1739;2.3393;-10.6427;
3979765417107304;-3.0757;-4.5691;-19.5036;
3979765427212096;-19.8945;-6.7155;-4.8144;
3979765437316835;-29.0213;1.1130;-10.9516;
3979765447426679;-17.3985;3.5755;-12.7723;
3979765457531419;11.0719;5.7601;6.7777;
3979765467636210;11.3548;1.9825;-4.6418;
3979765477726419;-25.8954;1.4195;-14.7078;
3979765487831210;-21.5091;4.5625;-3.4178;
3979765497936002;-12.5524;2.8352;-11.6845;
3979765508080169;-8.0489;1.5610;13.7414;
3979765518184960;6.7337;-1.4767;22.4082;
3979765528289804;-12.2267;-4.6098;0.8773;
3979765538370481;-14.1933;-7.4294;-7.6122;
3979765548475273;-12.6936;-6.0640;-11.3827;
3979765558580117;-8.5974;-3.3069;-2.2080;
3979765568701367;-3.4974;0.0182;10.7252;
3979765578806210;-11.7476;0.3057;-4.2347;
3979765588911002;-18.0906;-0.9808;-9.3778;
3979765599002200;-3.1406;0.1642;1.6223;
3979765609106992;0.7905;1.5969;-8.0913;
3979765619211783;-8.2406;-0.2094;-11.3683;
3979765629310481;-14.1885;2.1550;0.7744;
3979765639415325;-11.4697;1.6663;-1.5326;
3979765649520117;-20.5295;1.0579;-1.2906;
3979765659631367;-0.9437;2.0040;7.8700;
3979765669736158;-1.3534;2.0638;-4.9077;
3979765679840950;-3.7896;-0.4059;-13.9938;
3979765689948346;-11.2971;-0.7340;-9.8521;
3979765700053137;-20.3641;4.5410;-3.1807;
3979765710157929;-17.8199;5.1374;5.3545;
3979765720266054;0.4792;1.4602;6.1618;
3979765730370846;-3.6290;1.3190;-3.5566;
3979765740475637;-25.2389;-1.6732;-6.1080;
3979765750576575;-10.0732;1.2446;3.0455;
3979765760681367;3.8231;4.8141;-5.7509;
3979765770786158;-6.2904;1.5105;-8.5872;
3979765780900794;-14.8783;1.2736;-4.5580;
3979765791005637;-20.5463;1.6400;4.8299;
3979765801110377;-5.5361;-0.0849;3.8815;
3979765811197981;0.5414;0.8327;-10.0723;
3979765821302773;-10.2861;1.3238;-11.9408;
3979765831407564;-13.0699;1.3143;3.3951;
3979765841511002;-13.8413;1.2398;1.1674;
3979765851615794;-17.4296;0.3655;-9.1310;
3979765861720637;-8.0321;0.7418;2.5950;
3979765871831054;1.6217;0.6697;8.3082;
3979765881935794;-4.3645;-1.6418;-5.3797;
3979765892040585;-15.1274;-2.3390;-14.5161;
3979765902151679;-17.0103;-0.8512;-5.5977;
3979765912256471;-10.2263;0.2171;3.0021;
3979765922361210;-3.8782;-1.1701;3.0431;
3979765932475273;-6.2067;-2.0276;-3.2836;
3979765942580064;-6.1612;-1.3472;-5.1401;
3979765952684856;-8.0058;-0.4466;-10.3190;
3979765962770221;-10.5305;0.6960;-9.1190;
3979765972874960;-9.6299;0.6242;-2.7709;
3979765982979804;-8.4559;-0.3170;0.2833;
3979765993089908;-10.0971;-1.1390;1.7375;
3979766003194700;5.3157;-1.0382;-1.7312;
3979766013299492;-8.5711;0.5142;-10.4629;
3979766023408033;-43.0256;1.6280;0.8414;
3979766033512825;2.6279;-1.0813;8.0638;
3979766043617617;-0.5366;1.9418;-2.1338;
3979766053724179;-20.7090;2.1335;-0.2007;
3979766063828971;-8.9830;0.0948;5.8361;
3979766073933762;0.1510;0.3176;-4.0741;
3979766084040742;-20.2035;1.9107;-9.0497;
3979766094145481;-5.3180;0.4660;-1.5060;
3979766104250325;13.6735;1.5586;-6.3233;
3979766114334700;6.3338;2.2412;-0.5671;
3979766124439492;0.6398;-0.8297;-17.5511;
3979766134544283;-71.2924;1.0842;-20.7203;
3979766144665742;-40.6780;4.5362;34.0744;
3979766154770481;50.8373;3.8462;20.7099;
3979766164875221;18.6610;6.5722;-20.8642;
3979766174971523;-38.5555;-1.8359;-13.7184;
3979766185076262;-25.3203;-2.2792;0.4104;
3979766195181002;-13.3980;9.0876;0.0245;
3979766205295221;-18.8740;4.9887;12.0787;
3979766215399960;-0.0933;1.4961;17.1500;
3979766225504700;12.4807;0.9835;9.0485;
3979766235605950;10.4970;-3.4481;-17.9728;
3979766245710689;-23.1814;-6.6365;-62.5747;
3979766255815429;-32.5235;0.1905;-17.5199;
3979766265919804;8.3124;13.5383;24.9186;
3979766276024544;6.6380;0.2650;-3.9520;
3979766286129283;-32.8783;-2.0994;-1.0822;
3979766296240637;-15.1131;2.9264;15.5569;
3979766306345377;2.7308;2.9025;-5.7509;
3979766316450117;-8.2382;0.1427;-20.8044;
3979766326538137;-12.7514;0.8064;-2.7302;
3979766336642877;-15.6233;3.8031;9.0413;
3979766346747617;-14.3249;-0.9185;12.8836;
3979766356950325;-6.7672;-2.3318;4.0226;
3979766367055064;-11.4075;0.2195;-8.5394;
3979766377159804;-9.4095;-0.5662;4.6840;
3979766387154700;-10.2694;0.4229;0.4869;
3979766397259387;-15.6978;-0.1352;-17.3261;
3979766407364127;5.6055;1.0002;-1.0295;
3979766417555117;4.3167;0.6410;-4.8909;
3979766427659856;-54.0473;0.3679;-12.1110;
3979766437764596;-17.7649;-2.8493;19.8209;
3979766447813502;34.5120;1.2589;-0.4161;
3979766457918242;2.6710;3.1947;-31.5314;
3979766468022929;-25.6917;-0.5375;-9.4472;
3979766478137096;-22.1273;-3.4170;0.7337;
3979766488241835;-4.3119;-1.9316;-5.5881;
3979766498346575;1.0540;-0.4346;0.6212;
3979766508428450;-15.1756;-1.1701;2.6979;
3979766518533189;-19.8323;-3.5608;12.4119;
3979766528637929;1.3893;-2.8205;-0.4762;
3979766538745221;-15.6856;3.9347;-36.5234;
3979766548849960;-20.6803;5.4057;0.7887;
3979766558954700;3.8569;-3.8411;20.7673;
3979766569077096;-3.6867;-3.4098;-5.4706;
3979766579181835;-14.0495;-2.0204;-7.9355;
3979766589286575;-8.3842;-1.3161;5.3354;
3979766599370117;-5.4377;-4.4303;-1.3768;
3979766609474856;-11.5726;-2.7942;-7.7704;
3979766619579596;-11.8959;-1.8598;-4.9101;
3979766629692200;-9.5291;-1.6178;-3.0440;
3979766639796939;-7.6128;-1.7210;-1.7599;
3979766649901679;-13.3143;-0.5160;-3.6165;
3979766660000637;-12.4540;1.2087;0.5420;
3979766670105377;-5.7658;0.9763;2.1685;
3979766680210117;-7.9962;0.6721;-2.0354;
3979766690302617;-6.5348;0.6170;-0.6604;
3979766700407356;-5.9480;-0.9616;-3.8417;
3979766710512096;-9.5916;0.0087;-5.9210;
3979766720634439;-12.0422;-0.5040;-4.2921;
3979766730739179;-9.6682;-1.0932;-3.0129;
3979766740843919;-10.4133;-0.2692;-4.5532;
3979766750946367;-9.6945;1.8150;-1.6594;
3979766761051106;-9.1460;2.6653;-2.3662;
3979766771155794;-13.9107;2.3515;-1.4653;
3979766781283658;-14.6414;1.7668;2.7604;
3979766791388398;-5.5337;2.3058;-1.3361;
3979766801493137;-1.6576;2.5549;-1.5374;
3979766811570221;-3.3631;0.6290;-1.5852;
3979766821674960;-14.2627;-0.0511;-7.4542;
3979766831779700;-13.9681;-0.6933;-4.6657;
3979766841907304;-1.1880;1.0507;-3.8393;
3979766852011992;-5.5935;2.2484;-6.1463;
3979766862116783;2.4362;0.9523;-3.9712;
3979766872212773;-2.3477;1.1465;-6.5964;
3979766882317512;-17.4177;2.3515;-8.2328;
3979766892422252;-29.4144;3.4295;-1.9349;
3979766902527200;-15.7672;1.3645;11.5277;
3979766912631939;3.2411;0.2865;14.2322;
3979766922736679;-37.8583;2.3683;3.2656;
3979766932830273;-51.5031;4.8763;4.7844;
3979766942935012;39.6479;7.3986;9.1202;
3979766953039752;33.7334;3.3909;-7.0875;
3979766963150221;-20.1198;-6.9814;-32.2044;
3979766973254960;-26.9758;-6.8330;-1.2257;
3979766983359700;-6.2498;1.3836;14.1485;
3979766993464283;-2.7284;-3.2085;-14.8633;
3979767003569023;-12.1714;-4.3319;-11.8451;
3979767013673762;-8.9160;0.7944;-0.4618;
3979767023775012;-3.9287;0.4181;-5.6767;
3979767033879752;-7.3301;2.6557;-32.2283;
3979767043984492;-37.4154;13.0977;-12.8824;
3979767054101262;-2.2564;6.8357;31.9086;
3979767064206002;16.2344;1.7429;16.4243;
3979767074310742;-4.5610;-2.1281;-10.6089;
3979767084389908;-18.0619;-3.7403;-5.9928;
3979767094494648;-21.8542;-1.9125;7.0337;
3979767104599387;-10.9116;-3.3045;2.7458;
3979767114702617;0.2970;-2.8421;-11.9456;
3979767124807356;-5.4640;2.1933;-11.6127;
3979767134912096;-0.1220;1.0795;-2.6201;
3979767145057564;-24.5755;0.1977;-7.2577;
3979767155162512;-39.2958;-0.4777;4.5233;
3979767165267408;7.7351;-0.9712;17.7682;
3979767175352148;12.9069;-0.0969;-3.0799;
3979767185457096;-22.2183;1.7333;-10.2760;
3979767195561992;-14.3058;-0.8608;7.7907;
3979767205657148;2.5008;-1.4671;-12.3290;
3979767215762096;-3.0422;1.1345;-24.3090;
3979767225866992;-9.0574;3.2282;0.4343;
3979767235960585;-14.5167;4.0738;3.9006;
3979767246065585;-16.9528;-1.3496;5.7069;
3979767256170429;-13.6041;-0.2429;-3.0488;
3979767266293658;-14.7275;5.2331;-16.3439;
3979767276398554;1.9884;3.9637;7.7070;
3979767286503502;-1.4946;2.0856;-0.0042;
3979767296608346;-21.1116;0.0541;-16.9283;
3979767306713294;-16.9122;1.8915;0.4463;
3979767316818189;-4.2520;-0.0655;6.7801;
3979767326930585;-4.0244;-2.1975;2.7652;
3979767337035585;-6.2833;-1.6370;-3.1301;
3979767347140481;-14.0399;-0.5925;-5.9761;
3979767357223294;-10.8996;-0.1974;-7.6528;
3979767367328242;-10.2598;1.0771;-10.0699;
3979767377433137;-10.3822;1.7596;-0.1047;
3979767387537356;-4.3669;-0.6598;6.9428;
3979767397642304;-5.5744;-2.4876;-5.7556;
3979767407747200;-16.2464;-1.0669;-7.7991;
3979767417853606;-12.5668;0.4062;4.1354;
3979767427958554;-1.0253;-0.6742;-0.1789;
3979767438063450;-10.4013;-1.3496;-7.1764;
3979767448163710;-14.2723;-1.6107;0.4989;
3979767458268658;-10.9905;-0.4178;-0.1645;
3979767468373554;-10.6576;-0.4801;-2.6082;
3979767478507044;-11.1583;-0.1711;-2.0067;
3979767488611992;-7.0020;0.8495;-0.1286;
3979767498716887;-6.2282;0.4564;-6.8767;
3979767508795585;-13.1680;1.7620;-5.2717;
3979767518900533;-12.5501;1.7142;0.5515;
3979767529005429;-6.8246;0.3464;0.2545;
3979767539107877;-1.8254;-0.8201;-2.9554;
3979767549212825;-7.9914;-0.1017;-7.4782;
3979767559317721;-15.3957;1.2903;-2.8475;
3979767569412356;-14.5047;1.6998;-0.4543;
3979767579517304;-8.5591;1.6232;-0.3156;
3979767589622200;-4.2903;2.3201;-4.6968;
3979767599733398;-10.3173;2.6988;-4.0789;
3979767609838346;-9.8743;1.6591;1.6534;
3979767619943242;-8.5208;2.1861;-3.0081;
3979767630080585;-9.0359;1.7931;-4.5006;
3979767640185533;-9.1795;1.3980;0.2904;
3979767650290429;-11.6731;1.9035;2.3411;
3979767660381002;-11.0982;0.9356;0.6428;
3979767670486002;-8.0560;0.4735;-2.4021;
3979767680590846;-8.0632;0.6673;-4.2945;
3979767690670325;-10.1833;1.2855;-3.1181;
3979767700775221;-12.2842;2.0423;-0.6580;
3979767710880117;-10.4444;2.9360;2.6524;
3979767720998710;-7.2559;1.0316;0.3431;
3979767731103658;-7.2799;0.0661;-1.6786;
3979767741208554;-10.5066;-0.4920;-2.3085;
3979767751317512;-12.0230;0.3296;-0.2988;
3979767761422408;-10.1952;-0.0969;-1.5302;
3979767771527356;-10.5425;-0.7962;-1.8176;
3979767781622044;-6.7002;-0.5973;-1.9732;
3979767791726992;-8.1278;-0.4322;-4.2562;
3979767801831887;-12.9428;-0.5566;-1.9636;
3979767811927877;-11.8409;0.2387;-0.6173;
3979767822032825;-6.2402;-0.5207;-1.6953;
3979767832137721;-5.2292;-0.9903;-3.5638;
3979767842254231;-13.0002;0.5237;-1.7360;
3979767852359179;-13.1321;1.3549;-1.4103;
3979767862464127;-11.7452;0.4493;-3.1759;
3979767872576679;-7.7997;1.2832;-1.5422;
3979767882681575;-5.2630;1.6448;-3.7268;
3979767892786523;-7.4620;1.4363;-4.0932;
3979767902885377;7.6442;0.5381;-5.7748;
3979767912990325;-8.1302;-1.0884;-11.1000;
3979767923095221;-36.1433;1.2975;-2.7709;
3979767933195689;-15.1346;7.1928;12.0188;
3979767943300637;-0.9078;6.1173;3.3760;
3979767953405533;-8.1398;-1.5150;0.5659;
3979767963508294;-11.1078;1.1752;-2.1386;
3979767973613294;-6.0006;1.6208;-5.7652;
3979767983718137;-0.0167;1.4770;-8.8244;
3979767993821835;-14.4855;1.1297;-9.7968;
3979768003926783;-46.2883;3.9347;7.6184;
3979768014031679;-0.2396;1.8724;24.3198;
3979768024154335;13.4554;-2.4108;0.9613;
3979768034259283;-25.4857;-4.3175;-11.0139;
3979768044364179;-13.2039;1.4530;-6.4648;
3979768054470794;16.8332;-2.8205;-8.5035;
3979768064575742;-5.4927;-5.2089;-25.4803;
3979768074680689;-14.4377;-3.9655;-10.8006;
3979768084774960;-16.0953;0.6577;6.0972;
3979768094879908;-14.1909;3.2139;15.0685;
3979768104984856;0.8743;-0.5758;13.2359;
3979768115077981;-12.6242;-3.5847;-28.8868;
3979768125182929;-18.4143;-5.7622;-19.2377;
3979768135287825;3.9072;-0.1902;18.6951;
3979768145398033;-17.9255;1.3693;-8.0578;
3979768155502877;-29.5364;0.6553;-5.5451;
3979768165607721;1.6816;2.5669;29.8463;
3979768175714908;-0.3162;3.3287;-2.3542;
3979768185819752;-10.6720;-3.0458;-9.7753;
3979768195924596;-10.2838;-4.4136;-1.3409;
3979768206022044;-11.8528;-1.1243;-3.2644;
3979768216126887;-5.5361;-1.2299;0.3000;
3979768226231731;-6.8895;-0.8417;-8.3955;
3979768236335377;4.1563;-2.6886;-6.8623;
3979768246440221;7.0980;-3.7140;-6.7044;
3979768256545117;-26.3551;-1.8120;-15.8312;
3979768266651262;-53.7168;5.4607;12.4597;
3979768276756106;-3.5620;11.7778;32.6680;
3979768286860898;21.7654;11.4278;-17.6710;
3979768296978450;-4.0555;-7.2042;-11.4162;
3979768307083294;-9.7783;-3.5728;0.3817;
3979768317188137;5.8714;0.3631;-12.8417;
3979768327279856;-51.8842;0.8734;-7.6528;
3979768337384700;-56.6175;7.2311;35.8038;
3979768347489544;22.0819;13.8595;17.2531;
3979768357610273;33.6257;-5.0746;5.2828;
3979768367715117;-8.6740;-10.8981;-10.0364;
3979768377819960;-32.4422;-4.7369;-32.4368;
3979768387948085;-36.3781;1.3502;-18.0206;
3979768398052877;4.8628;7.6549;9.4750;
3979768408157721;12.9236;7.4249;7.4554;
3979768418223554;-16.6128;-0.6957;-5.1951;
3979768428328346;-23.8328;-2.3557;10.0810;
3979768438433189;10.0011;2.4951;11.6692;
3979768448557773;-2.2229;-3.1080;-42.2872;
3979768458662669;-35.3360;-3.4505;-31.4378;
3979768468767460;-6.6476;5.9782;21.4427;
3979768478864908;5.6175;11.5789;15.7271;
3979768488969752;-10.1856;1.1895;-10.4988;
3979768499074596;-11.5463;-7.2736;-3.6571;
3979768509187564;-12.4974;2.6174;-0.7421;
3979768519292460;-4.6184;2.5358;1.6271;
3979768529397252;-9.6467;0.6194;-9.4113;
3979768539484596;-18.7878;0.5477;-1.4677;
3979768549589439;-8.4200;1.9346;9.0245;
3979768559694283;-9.2058;2.1455;-4.9866;
3979768569799804;-11.0432;0.0135;2.2669;
3979768579904596;3.3132;-0.9233;4.0729;
3979768590009492;-8.4105;-0.1974;-15.3975;
3979768600111054;-24.4101;0.8471;-7.0875;
3979768610215898;-5.5433;2.0183;10.3995;
3979768620320742;-2.5968;2.2029;-2.7948;
3979768630443658;-13.2159;0.0685;-0.9574;
3979768640548502;-10.2048;-0.0392;4.1689;
3979768650653294;-11.7954;1.5730;-5.8732;
3979768660747773;-11.9704;1.6567;-2.6776;
3979768670852617;-3.6628;1.0101;-2.7206;
3979768680957460;-7.9241;0.2291;-7.7943;
3979768691077252;-12.7367;1.2565;-0.3299;
3979768701182148;-8.9303;2.6701;1.3086;
3979768711286939;-9.7328;1.6591;-2.6034;
3979768721374075;-8.8609;0.6553;-1.4964;
3979768731478867;-9.3903;0.5357;-1.5203;
3979768741583710;-12.2073;1.0962;-2.6273;
3979768751684075;-11.8361;1.1752;-1.4294;
3979768761788919;-10.1689;1.6280;-1.5805;
3979768771893710;-8.5711;0.6314;-2.8259;
3979768782001679;-8.6142;0.3105;-1.1180;
3979768792106471;-9.4908;0.3296;-0.7660;
3979768802211367;-9.2994;1.3765;-2.2415;
3979768812326783;-7.9771;0.9236;-1.5012;
3979768822431679;-8.1924;0.8949;-2.3204;
3979768832536471;-11.2493;0.6817;-3.1400;
3979768842624023;-8.3626;1.1560;0.2498;
3979768852728867;-1.7127;1.5009;-2.7374;
3979768862833710;2.6160;0.1929;-8.8508;
3979768872949179;-24.4268;1.2230;-7.7536;
3979768883054023;-32.2074;4.9481;6.1355;
3979768893158867;-6.8943;5.6524;10.3014;
3979768903265533;9.9174;-0.8922;0.8773;
3979768913370325;-5.9671;-2.5355;-6.6422;
3979768923475221;-23.1428;2.1526;-5.5017;
3979768933582617;-13.6520;3.9395;0.9852;
3979768943687460;-1.0732;1.8293;-1.1827;
3979768953792304;-5.4090;-0.7579;-4.3065;
3979768963895221;-9.8743;0.3727;-2.2726;
3979768974000064;-12.9093;2.2244;-0.2222;
3979768984104908;-9.7304;1.2951;5.2684;
3979768994204492;-1.0780;-0.7723;0.2450;
3979769004309335;-17.0465;-1.5796;-15.9509;
3979769014414179;-18.2919;2.2460;-5.0204;
3979769024519387;-3.0302;5.3985;4.7103;
3979769034624231;-2.3261;1.5057;0.8581;
3979769044729075;-11.3521;-1.4408;-1.6211;
3979769054833554;-17.5831;1.8341;0.1828;
3979769064938398;-8.5089;1.5897;3.6395;
3979769075043242;-4.6567;-0.4537;0.1373;
3979769085151367;-12.9236;-0.9162;-0.0305;
3979769095256158;-14.6004;0.2291;4.1186;
3979769105361002;-9.4214;-1.0382;1.6439;
3979769115452721;-11.8074;-1.1462;0.0604;
3979769125557564;-9.7615;-0.1687;1.4405;
3979769135662408;-5.7972;0.3057;-1.2858;
3979769145765273;-10.8852;0.1403;-3.2070;
3979769155870117;-14.7203;1.2063;1.2727;
3979769165974908;-8.3483;0.7777;2.7266;
3979769176079596;-6.6643;-1.3400;0.4893;
3979769186184387;-9.2560;-0.3652;-0.3203;
3979769196289179;-11.7523;0.6840;0.4582;
3979769206389023;-6.8680;-0.1567;-0.4666;
3979769216493919;-3.4998;-1.1533;-2.4691;
3979769226598710;-14.5214;0.9284;-4.5987;
3979769236700846;-21.5522;2.0785;-1.1324;
3979769246805637;-15.4534;1.1560;1.2129;
3979769256910481;-3.3873;-0.5231;1.1240;
3979769267024387;-5.3204;0.2052;4.1785;
3979769277129231;-10.7007;0.8016;2.7290;
3979769287233971;-9.7161;-0.2883;-2.1051;
3979769297362200;-11.0815;1.1584;-4.7088;
3979769307467044;-11.9991;1.1943;-1.9684;
3979769317571835;-8.0752;1.3238;1.0905;
3979769327647044;-7.9316;0.2961;-1.3552;
3979769337751887;-13.4889;1.1776;-2.0186;
3979769347856679;-11.3545;1.3262;2.6070;
3979769358005325;-4.3238;0.3416;3.0335;
3979769368110117;-7.0786;0.1929;-2.4571;
3979769378214908;-13.8891;2.2723;-9.8952;
3979769388294648;-13.6854;4.2392;-8.5585;
3979769398399492;-6.2689;4.3397;-0.1023;
3979769408504283;-2.5992;1.4387;2.4488;
3979769418592825;-10.0466;2.3154;0.6236;
3979769428697669;-15.0126;2.1287;0.5252;
3979769438802460;-10.3125;2.2986;2.7290;
3979769448901835;-7.3708;1.3334;0.7385;
3979769459006679;-12.9835;1.8365;-0.2677;
3979769469111523;-11.7763;1.5057;-0.3084;
3979769479227304;-7.6104;1.6376;1.0810;
3979769489332148;-3.8997;0.8710;-1.8823;
3979769499436939;-9.0072;2.4473;-3.6694;
3979769509533242;-10.7916;1.6232;-3.9350;
3979769519638085;-9.0838;2.2149;-1.3672;
3979769529742877;-11.0527;0.7128;-1.2497;
3979769539852200;-13.0412;1.4626;2.5663;
3979769549957044;-6.9565;0.7104;3.2297;
3979769560061835;-8.3818;-0.1735;1.8380;
3979769570190273;-13.5272;0.4421;3.3114;
3979769580295117;-13.0627;-0.1232;0.2498;
3979769590399908;-8.1517;-0.5949;-0.9359;
3979769600472669;-9.5725;0.6529;-1.4294;
3979769610577512;-10.2479;-0.2333;-3.1325;
3979769620682356;-7.8835;0.0685;-1.3863;
3979769630801992;-8.1398;-0.0802;-1.4438;
3979769640906835;-12.1355;-1.0095;-2.1601;
3979769651011575;-12.8542;0.1235;-1.0032;
3979769661116783;-8.8202;-0.6550;2.5878;
3979769671221627;-3.3849;-1.8526;2.0895;
3979769681326419;-8.2908;-2.5379;-1.3337;
3979769691424804;-15.8725;-1.2227;-3.0296;
3979769701529596;-4.8820;-0.8560;-2.4284;
3979769711634439;-0.5773;-2.5331;-2.9267;
3979769721733762;-15.9036;-0.8034;-5.6527;
3979769731838554;-13.7477;1.2637;-4.5628;
3979769741943346;-3.0517;0.2626;-1.5876;
3979769752042044;-5.6797;0.7247;-0.1959;
3979769762146939;-30.1666;2.3563;2.3722;
3979769772251679;-10.4204;1.6974;6.2650;
3979769782372512;15.8533;-1.8574;3.8767;
3979769792477356;-32.0686;1.6137;-0.0520;
3979769802582148;-37.5853;4.9050;3.9843;
3979769812710273;17.2956;-0.2524;6.9787;
3979769822815117;10.2024;-1.6083;1.5123;
3979769832919960;-35.2475;3.6640;-2.5122;
3979769842998137;-21.1475;2.9504;0.3191;
3979769853102929;6.6882;-0.6670;-2.5528;
3979769863207773;1.1402;0.0637;-2.3228;
3979769873318554;-9.3664;2.1861;-4.0238;
3979769883423346;-13.2278;1.3334;-4.7231;
3979769893528189;-13.2302;0.3344;-2.3252;
3979769903629596;-17.5158;1.1919;0.3144;
3979769913734387;-3.5931;0.7992;3.0188;
3979769923839231;-0.1460;-0.4011;-8.1512;
3979769933938762;-26.1132;2.7682;-4.6370;
3979769944043606;-12.3392;2.7514;13.6597;
3979769954148398;8.4634;-4.6890;-7.1306;
3979769964262200;-28.9998;1.4339;-15.4720;
3979769974367044;-21.4852;7.1279;6.9236;
3979769984471835;16.4644;-2.9115;13.6549;
3979769994565273;0.8168;-5.0722;-5.6743;
3979770004670064;-35.0797;2.1646;-13.1243;
3979770014774908;-19.5425;3.9179;0.5276;
3979770024888137;10.4181;-1.9845;7.0193;
3979770034992981;0.6781;-4.4207;0.4056;
3979770045097773;-23.8017;0.4110;-3.4848;
3979770055197200;-13.8915;0.2028;3.4143;
3979770065302044;2.5609;-3.2611;-5.3557;
3979770075406835;-15.8222;-0.8249;-12.7313;
3979770085528137;-17.8801;3.4869;0.9996;
3979770095632929;2.1081;-0.3003;7.8963;
3979770105737773;-4.3717;-3.4505;-3.2046;
3979770115832304;-24.1968;1.6256;-5.2286;
3979770125937148;-13.3262;2.0064;3.2345;
3979770136041939;-0.2037;-1.3878;4.3484;
3979770146152356;-8.6836;-0.7675;1.5410;
3979770156257148;-21.5163;1.2832;0.4702;
3979770166362044;-16.0427;1.2709;5.2493;
3979770176445898;1.7871;-1.4982;4.6792;
3979770186550794;-3.2076;-0.6359;-2.3566;
3979770196655637;-16.4091;1.3860;-5.2597;
3979770206779804;-12.9787;1.8939;-1.2811;
3979770216884648;-0.6084;0.2291;-3.7723;
3979770226989492;-5.8379;-0.3437;-6.4385;
3979770237058554;-7.0666;1.1465;-3.6476;
3979770247163346;-17.2283;2.2938;-1.1611;
3979770257268189;-23.6770;0.8064;1.7734;
3979770267396002;-1.8637;-0.9568;5.1126;
3979770277500846;10.7486;-2.1688;2.9853;
3979770287605689;-16.7563;0.4974;-2.2989;
3979770297684075;-59.1640;6.2895;1.2153;
3979770307788919;-15.2306;0.8303;4.5879;
3979770317893762;22.8027;-4.6364;10.1719;
3979770328031731;-3.1741;-0.2261;5.1604;
3979770338136575;-26.0845;3.1828;-7.7106;
3979770348241419;-11.7643;3.2139;-13.4859;
3979770358321210;2.9345;2.8786;-12.0009;
3979770368426054;-1.6385;2.5765;-8.9967;
3979770378530950;-13.3908;2.7395;-4.3807;
3979770388645064;-10.9786;0.5381;-1.4701;
3979770398749908;-10.4468;0.6984;-3.8536;
3979770408854752;-10.1976;1.2784;1.5745;
3979770418956210;-4.3119;-0.3867;5.8433;
3979770429061054;-4.4988;-0.3724;-2.3901;
3979770439165898;-16.8308;2.2531;-12.5782;
3979770449298658;-16.5458;2.2747;-6.6446;
3979770459403502;-1.6026;-0.1376;5.1317;
3979770469508346;5.7781;-1.0956;3.3784;
3979770479581106;-11.6659;3.7409;-27.9428;
3979770489685950;-37.3265;8.5917;-27.4852;
3979770499790794;-8.2430;6.8309;12.6009;
3979770509902929;13.8820;1.7931;12.4119;
3979770520007721;-12.2363;1.2927;-9.7394;
3979770530112617;-27.5794;2.4520;3.6706;
3979770540236106;-7.4620;0.2506;14.0121;
3979770550340950;3.9646;-0.7484;0.8653;
3979770560445794;-10.7892;0.4062;-8.6136;
3979770570561262;-18.1771;-0.7747;-4.8335;
3979770580666054;-9.5315;-1.1462;-0.9502;
3979770590770950;-7.9241;-0.4107;-4.7112;
3979770600858710;-5.8977;-1.0190;-3.4202;
3979770610963606;-5.7036;-1.1219;-0.6054;
3979770621068398;-13.5153;-1.0262;-3.2883;
3979770631167825;-17.3291;-1.2395;0.1804;
3979770641272669;-4.3310;-1.1677;5.3019;
3979770651377512;-5.0378;-1.2658;-2.5839;
3979770661490221;-15.3622;-0.5877;-3.6643;
3979770671595064;-10.7629;-0.3987;2.9877;
3979770681699908;-5.6222;-0.9568;-0.2653;
3979770691782512;-11.4888;-1.4240;-3.2716;
3979770701887356;-11.9127;-0.7962;0.6739;
3979770711992200;-9.2656;-1.0406;0.1134;
3979770722100273;-7.9866;-0.7220;-0.9024;
3979770732205117;-10.3654;-0.7938;0.1325;
3979770742310012;-10.3029;-1.0310;-0.6676;
3979770752434544;-9.6419;-0.9544;-1.0654;
3979770762539439;-11.2732;0.0398;-0.7397;
3979770772644231;-10.1833;0.7585;-0.6772;
3979770782733971;-6.9087;0.0302;-0.7995;
3979770792838814;-13.1871;0.5405;2.5878;
3979770802943606;-11.4410;-1.0789;5.0982;
3979770813035898;-8.0919;-0.1328;-1.5108;
3979770823140794;-12.2049;0.5022;-1.2162;
3979770833245637;-13.7046;0.0470;4.0346;
3979770843374439;-8.4607;0.3057;4.0250;
3979770853479283;-5.1431;-0.1711;-0.6461;
3979770863584179;-10.4133;0.1187;-1.0750;
3979770873673971;-13.2637;0.4325;0.0317;
3979770883778814;-8.7772;0.8518;0.6571;
3979770893883658;-8.1805;0.0039;0.2019;
3979770903995689;-12.5692;-0.0344;1.6175;
3979770914100481;-10.2503;0.3966;2.0297;
3979770924205377;-8.6213;0.6338;-0.5336;
3979770934308189;-11.7308;0.4854;0.6595;
3979770944413033;-8.5926;-0.1184;2.4655;
3979770954517877;-8.5161;1.0026;0.4343;
3979770964626939;-14.7419;0.3655;1.3564;
3979770974731783;-11.0719;0.6242;1.1602;
3979770984836627;-9.0909;1.1752;-0.0520;
3979770994937096;-10.6457;1.6472;0.0772;
3979771005041939;-10.2168;1.5368;-0.7612;
3979771015146783;-8.4081;1.3047;-1.6116;
3979771025252773;-10.0226;1.5921;-2.6704;
3979771035357564;-8.6692;1.8051;-3.1711;
3979771045462460;-8.1975;1.5849;-1.6522;
3979771055574492;-7.7542;-0.1759;-3.3099;
3979771065679335;-16.4330;1.1560;-3.8369;
3979771075784127;-12.3057;1.1154;0.9159;
3979771085874804;-3.8255;-0.8680;2.9782;
3979771095979648;-8.0273;-0.4825;0.9374;
3979771106084492;-12.0565;-1.2969;-0.2342;
3979771116189179;-9.9724;-0.2907;0.0173;
3979771126285585;-12.4373;-0.5830;-0.8617;
3979771136390325;-8.6405;-1.5796;-2.6943;
3979771146495169;-9.9556;-1.8024;-2.7517;
3979771156603554;-9.9939;-2.7293;-1.7961;
3979771166708398;-9.0287;-2.2911;-1.3720;
3979771176813242;-12.8303;-0.1759;-1.7145;
3979771186929023;-13.9968;-1.7856;-0.0066;
3979771197033867;-9.7376;-1.3376;2.6309;
3979771207138710;-1.2287;-1.4503;2.1470;
3979771217220533;-10.0322;0.4181;-3.6981;
3979771227325377;-19.3101;0.9260;-5.2023;
3979771237430273;-5.2244;0.7080;-1.9229;
3979771247541106;-0.1869;-0.0033;-3.1496;
3979771257645950;-10.4874;-0.1519;-5.3486;
3979771267750794;-11.2612;1.2975;-3.1301;
3979771277857981;-9.8671;0.5070;-2.0979;
3979771287962825;-9.0359;1.2326;-2.1290;
3979771298067721;-12.4612;0.6793;0.0870;
3979771308178398;-13.1919;1.1297;3.7783;
3979771318283242;-8.2262;0.8471;3.4358;
3979771328388137;-9.6036;0.9978;-1.8440;
3979771338508189;-15.7122;1.2951;-4.5485;
3979771348613033;-4.1584;0.7104;0.2234;
3979771358717877;-0.7738;1.0026;-0.4618;
3979771368812721;-10.9211;2.5741;-6.7020;
3979771378917564;-20.6492;2.6414;-7.5069;
3979771389022408;-12.5118;3.1660;-2.9219;
3979771399127096;-1.3487;1.8317;-1.6092;
3979771409231887;-1.8135;1.7644;-0.4519;
3979771419336783;-13.6280;1.0460;-0.6652;
3979771429442617;-10.1569;1.2975;1.1480;
3979771439547460;-13.1848;1.2087;-6.1630;
3979771449652304;-16.0475;2.3731;-4.7904;
3979771459754492;-10.7940;1.6902;6.5979;
3979771469859335;-0.1005;0.2554;4.1665;
3979771479964179;-8.7939;1.9896;-4.5054;
3979771490069700;-12.9236;0.8758;-6.4792;
3979771500174544;-5.5624;1.6304;-3.8465;
3979771510279387;-7.8165;0.3559;-4.0430;
3979771520384804;-11.5176;0.4469;-2.1027;
3979771530489648;-11.5534;-0.0706;1.6896;
3979771540594492;-2.5056;-0.8898;2.1589;
3979771550687981;-5.1048;-0.2477;-4.2203;
3979771560792877;-12.6194;0.0972;-9.7872;
3979771570897721;-11.6853;-0.3843;-4.7521;
3979771581002617;-5.9049;-0.9114;0.9852;
3979771591107460;-9.1938;-0.5782;-3.2955;
3979771601212252;-15.1155;0.6290;-4.7207;
3979771611342408;-12.3631;1.0364;0.7361;
3979771621447252;-9.4406;0.8830;3.8886;
3979771631552096;-12.0996;0.7394;2.5759;
3979771641637512;-9.6586;1.1991;0.2689;
3979771651742356;-9.3114;1.5491;-2.8741;
3979771661847200;-10.0657;1.0866;-2.1051;
3979771671950012;-15.7026;-0.2094;-1.0463;
3979771682054856;-16.9720;0.0087;2.7051;
3979771692159648;-6.5827;0.7992;4.8275;
3979771702270117;1.7225;0.0661;-0.0497;
3979771712374960;-11.3569;0.2363;-5.1927;
3979771722479752;-15.4149;-1.3496;-5.3175;
3979771732592877;-7.1169;-1.7593;-5.4395;
3979771742697721;-5.1311;-0.6837;-0.1501;
3979771752802564;-7.9531;0.0254;2.7891;
3979771762890846;-18.8764;-0.3843;0.4965;
3979771772995637;-15.2450;0.2578;5.1437;
3979771783100481;-0.2755;0.6745;5.8146;
3979771793197200;-3.9646;0.9906;0.3239;
3979771803301992;-13.6280;-0.6742;-0.3012;
3979771813406835;-13.1967;-0.1232;-2.0692;
3979771823522356;-8.0656;-0.9999;-3.0105;
3979771833627148;-8.0632;1.1177;0.7433;
3979771843732044;-9.5052;0.7223;-0.2031;
3979771853839596;-12.2842;1.0938;-1.6259;
3979771863944439;-7.7327;1.5296;-0.1789;
3979771874049231;-9.9844;0.7343;0.4415;
3979771884154075;-7.8619;1.1273;0.2498;
3979771894257825;-8.5017;-0.5016;-3.0511;
3979771904362669;-14.0928;0.0063;-4.4767;
3979771914467460;-14.0423;0.3248;-1.6618;
3979771924572200;-3.8495;1.1249;0.2402;
3979771934677044;-7.6511;0.5788;-2.7924;
3979771944781887;-13.7596;1.9131;-3.1014;
3979771954889492;-10.8706;1.6424;-2.6082;
3979771964994335;-8.3889;1.3765;-0.4690;
3979771975099179;-10.8299;1.4363;1.5577;
3979771985197773;-11.3426;0.7944;2.1159;
3979771995302617;-7.9193;0.6817;0.5372;
3979772005407460;-9.1699;0.4062;-2.8451;
3979772015511262;-14.0734;-0.0057;-2.7350;
3979772025616106;-14.5765;1.1058;-0.4304;
3979772035720950;-3.8207;1.2446;1.8763;
3979772045814492;-6.1804;0.0900;-0.8426;
3979772055919335;-12.8423;0.4612;-0.8426;
3979772066024179;-12.7633;0.4998;1.3493;
3979772076131939;-6.0607;0.1953;1.6726;
3979772086236783;-7.7112;0.3224;0.0078;
3979772096341679;-15.4005;1.4076;0.1923;
3979772106446679;-9.2201;0.0446;0.9494;
3979772116551471;-7.2224;-0.1137;-2.3853;
3979772126656367;-16.4234;0.5740;-1.3983;
3979772136786367;-5.9240;1.9633;0.7576;
3979772146891210;-6.2186;0.4205;1.1746;
3979772156996106;-13.0579;1.0220;-0.9960;
3979772167077200;-10.3316;1.5129;-1.2090;
3979772177182096;-14.9599;1.4339;0.8581;
3979772187286939;-11.8241;1.3956;1.8930;
3979772197388137;-0.0191;1.7501;1.9866;
3979772207493033;-10.6241;0.0852;0.5085;
3979772217597877;-14.5119;1.4195;-2.3204;
3979772227689023;-6.1828;0.7295;-2.0859;
3979772237793919;-8.3219;-0.3987;-3.1783;
3979772247898762;-10.8515;0.3870;-3.6404;
3979772258045742;-9.4286;0.9835;-1.1946;
3979772268150585;-11.3833;1.1297;-0.0138;
3979772278255429;-9.2106;1.9753;-1.0223;
3979772288349127;-8.4897;1.9274;0.0030;
3979772298454023;-11.7978;1.1034;1.3804;
3979772308558867;-5.3874;1.7237;1.4115;
3979772318651054;-15.1298;0.6601;-1.1827;
3979772328755950;-15.9948;1.4913;-0.4113;
3979772338860846;-7.6367;1.3262;0.9541;
3979772348958710;-9.7807;0.8973;0.2809;
3979772359063658;-6.0823;1.9753;1.4907;
3979772369168502;-7.1626;1.4291;0.0006;
3979772379282304;-11.9414;1.4387;-3.6069;
3979772389387200;-11.7739;1.0220;-2.6441;
3979772399492044;-8.2837;1.0890;-0.3897;
3979772409611106;-4.6328;0.1594;-1.2257;
3979772419716054;-14.7467;0.7152;0.9302;
3979772429820898;-15.5109;2.3154;4.4563;
3979772439908137;-5.4138;1.7716;2.0991;
3979772450013033;-14.5837;-0.1735;-0.2821;
3979772460117877;-15.2785;-0.2979;4.1139;
3979772470223450;-1.8350;-1.3854;8.1670;
3979772480328346;-2.4577;-3.3667;4.6744;
3979772490433189;-15.9661;-4.6747;-1.5661;
3979772500538762;-18.6802;-2.5164;-0.9455;
3979772510643658;-5.5217;-0.7866;0.1493;
3979772520748502;-5.1383;-1.5891;-3.7244;
3979772530841054;-13.0795;-1.0262;-4.2108;
3979772540945950;-15.8342;2.7108;0.6332;
3979772551050794;-11.6109;3.4822;-0.0114;
3979772561179908;-11.6635;2.2053;-1.7049;
3979772571284752;-9.6467;5.0127;4.8012;
3979772581389596;-6.6978;5.2020;5.8026;
3979772591497460;-11.9991;5.0249;1.8858;
3979772601602356;-14.0207;7.0131;1.2894;
3979772611707200;-7.9364;6.8548;0.8557;
3979772621787148;-5.8451;5.4176;-1.4151;
3979772631892096;-8.3626;3.7481;-1.9205;
3979772641996939;-8.5854;2.4425;-0.6891;
3979772652106627;-7.9265;2.7395;1.6128;
3979772662211575;-7.9819;2.7299;1.6750;
3979772672316419;-12.8686;1.1512;-3.1325;
3979772682425533;-19.1495;-0.5112;-6.3643;
3979772692530377;-13.2254;0.4038;-1.4246;
3979772702635273;-2.0435;1.7955;1.8619;
3979772712720533;-2.3019;1.2278;-0.3945;
3979772722825429;-8.6764;-0.1017;-2.0883;
3979772732930221;-12.2650;-0.8731;-0.4496;
3979772743041835;-10.5616;-0.3170;1.1312;
3979772753146731;-9.2731;0.5166;-1.7192;
3979772763251575;-11.3354;-0.2333;-5.6049;
3979772773358710;-10.4970;-0.8755;-4.9962;
3979772783463606;-6.4534;0.0182;-1.8272;
3979772793568450;-9.3760;0.6936;-2.5576;
3979772803682096;-13.3358;0.3607;-2.2750;
3979772813786992;-11.2469;0.8303;-1.0582;
3979772823891835;-9.1843;2.3345;-2.0043;
3979772833988554;-7.9938;2.0856;-2.3061;
3979772844093502;-7.0092;1.5514;-1.6977;
3979772854198346;-7.2631;1.2855;-3.4083;
3979772864312200;-7.4285;2.8041;-2.4619;
3979772874417096;-7.8739;2.2053;-5.4395;
3979772884521887;-10.5616;1.4052;-8.5537;
3979772894619283;-9.4597;1.4913;-4.4934;
3979772904724179;-9.0024;3.2043;-0.6508;
3979772914828971;-10.3316;4.7157;-0.6317;
3979772924935429;-9.3233;4.0570;-0.8210;
3979772935040325;-9.3736;3.0245;-1.4605;
3979772945145169;-10.0780;2.8280;-1.9301;
3979772955246262;-8.3913;2.5238;-3.2261;
3979772965351158;-7.8284;1.5514;-6.2587;
3979772975456002;-7.6295;1.2063;-5.9689;
3979772985558398;-6.8728;1.7166;-1.2954;
3979772995663294;-8.3507;2.8759;0.1253;
3979773005768189;-11.5295;3.3383;-2.2582;
3979773015880273;-12.0757;2.9958;-3.5590;
3979773025985169;-8.9853;2.5167;-1.3983;
3979773036090012;-6.9517;2.4185;-1.9325;
3979773046190377;-7.9170;1.2736;-3.5901;
3979773056295273;-8.7652;-3.4959;-4.1076;
3979773066400117;-9.8073;-2.5546;-0.9096;
3979773076497877;-11.8983;1.8891;0.5324;
3979773086602825;-12.2001;1.3741;-1.3744;
3979773096707669;-8.9710;1.6208;0.2019;
3979773106852304;-6.1205;2.7275;-1.1276;
3979773116957200;-6.1828;3.6090;-6.1798;
3979773127062044;-7.8523;4.2799;-8.8938;
3979773137120637;-9.4454;5.1206;-8.0530;
3979773147225377;-12.0518;7.1423;-7.2601;
3979773157330169;-11.2804;7.6310;-2.0282;
3979773167445846;-8.0608;6.2752;3.2201;
3979773177550585;-8.7772;4.4186;2.3459;
3979773187655325;-11.7930;3.7193;-1.9301;
3979773197791939;-10.2383;4.6175;-2.1984;
3979773207896731;-7.4070;4.9624;-0.9766;
3979773218001471;-8.6572;4.3756;-3.5853;
3979773228067721;-9.1747;3.8509;-5.0276;
3979773238172512;-8.3794;3.8653;-4.6753;
3979773248277304;-9.3162;4.0331;-5.6839;
3979773258409752;-9.3257;4.2344;-4.3256;
3979773268514544;-8.6692;3.6281;-0.3347;
3979773278619283;-10.2670;2.5789;1.1073;
3979773288705012;-10.9355;2.3563;0.6978;
3979773298809752;-9.3664;3.3814;0.9852;
3979773308914544;-8.8083;3.9227;0.4175;
3979773319013189;-9.9365;3.4271;-1.6116;
3979773329118033;-10.2598;2.9815;-2.5074;
3979773339222773;-9.0550;2.7132;-2.4835;
3979773349328294;-9.3520;2.3994;-4.8407;
3979773359433137;-9.6467;2.7179;-5.6958;
3979773369537877;-7.7088;3.1804;-1.9516;
3979773379661523;-7.3564;2.6916;0.7050;
3979773389766314;-9.5916;2.3803;-0.6700;
3979773399871106;-11.1870;2.9575;-1.7647;
3979773409960429;-10.8515;3.2306;-1.9732;
3979773420065169;-10.1593;2.8400;-3.4681;
3979773430169960;-8.9160;2.5669;-3.7484;
3979773440274127;-7.2105;2.2460;-1.3696;
3979773450378971;-7.4070;2.0976;-0.5025;
3979773460483710;-9.9413;2.3659;-2.2295;
3979773470592096;-11.4649;2.5669;-2.4882;
3979773480696835;-10.2861;2.3874;-1.3768;
3979773490801627;-9.1795;1.8843;-1.8153;
3979773500910221;-8.5232;1.8485;-2.7159;
3979773511015012;-7.6944;2.3393;-2.3375;
3979773521119804;-8.5041;2.0614;-1.6834;
3979773531240429;-10.5855;1.8652;-2.1434;
3979773541345273;-10.8586;1.6567;-1.8368;
3979773551449960;-9.7735;1.3238;-1.1037;
3979773561530950;-9.1364;1.0268;-1.5470;
3979773571635742;-8.8537;0.6817;-2.0115;
3979773581740481;-8.7556;0.3368;-1.8655;
3979773591849283;-9.4837;-0.3939;-1.4151;
3979773601954023;-10.4061;-0.6526;-1.4103;
3979773612058814;-10.1210;-0.8850;-1.2568;
3979773622161523;-9.3951;-0.9688;-1.2090;
3979773632266314;-9.1819;-0.4825;-1.6331;
3979773642371054;-9.3449;-0.1591;-1.7671;
3979773652489648;-9.5940;-0.4442;-1.6020;
3979773662594492;-9.7974;-0.9162;-1.6092;
3979773672699231;-9.7831;-1.0214;-1.8176;
3979773682791939;-9.4597;-0.8082;-1.8176;
3979773692896679;-9.2731;-0.5686;-1.7838;
3979773703001471;-9.6084;-0.4561;-2.1625;
3979773713125273;-9.9915;-0.2907;-2.3518;
3979773723230117;-9.7352;-0.2500;-1.5661;
3979773733334856;-9.5486;-0.1735;-0.9479;
3979773743421679;-9.7137;0.0733;-1.0989;
3979773753526419;-9.7184;0.3464;-1.3744;
3979773763631210;-9.6802;0.3990;-1.6905;
3979773773733971;-9.7089;0.5213;-2.0788;
3979773783838762;-9.6203;0.6840;-2.1673;
3979773793943502;-9.4645;0.7152;-1.8200;
3979773804044700;-9.5076;0.6840;-1.5709;
3979773814149492;-9.5315;0.5668;-1.4031;
3979773824254231;-9.7113;0.5237;-1.5350;
3979773834352669;-9.7017;0.5764;-1.6690;
3979773844457460;-9.5892;0.7466;-1.7767;
3979773854562252;-9.5243;0.8686;-1.9134;
3979773864682200;-9.4143;0.8303;-1.9062;
3979773874786992;-9.4286;0.7319;-1.9301;
3979773884891731;-9.5557;0.6362;-1.9899;
3979773894987304;-9.5773;0.5835;-1.9493;
3979773905092096;-9.5797;0.6314;-1.9493;
3979773915196835;-9.5557;0.5931;-1.9971;
3979773925295064;-9.5291;0.5261;-2.0402;
3979773935399908;-9.5124;0.4783;-2.1027;
3979773945504648;-9.5533;0.5309;-2.2152;
3979773955619856;-9.5100;0.5237;-2.3590;
3979773965724648;-9.4262;0.5166;-2.5193;
3979773975829387;-9.4238;0.5046;-2.5193;
3979773985931679;-9.4645;0.4229;-2.4452;
3979773996036419;-9.4884;0.4373;-2.4906;
3979774006141210;-9.4358;0.4612;-2.4547;
3979774016243033;-9.4262;0.5166;-2.4380;
3979774026347773;-9.4573;0.5381;-2.5504;
3979774036452564;-9.4047;0.4158;-2.6656;
3979774046571939;-9.3568;0.3607;-2.8789;
3979774056676783;-9.3568;0.3488;-2.9650;
3979774066781523;-9.3736;0.3344;-2.9076;
3979774076931471;-9.3879;0.2626;-2.6584;
3979774087036262;-9.4382;0.1834;-2.3853;
3979774097141002;-9.4525;0.1259;-2.4165;
3979774107197512;-9.3808;0.1618;-2.6082;
3979774117302252;-9.3185;0.2698;-2.8693;
3979774127407044;-9.3473;0.3583;-3.0320;
3979774137547096;-9.3951;0.3440;-2.9459;
3979774147651992;-9.3855;0.2961;-2.7757;
3979774157756887;-9.3951;0.2100;-2.6058;
3979774167834700;-9.3927;0.1834;-2.5193;
3979774177939544;-9.3975;0.1116;-2.5792;
3979774188044439;-9.3999;-0.0200;-2.7589;
3979774198124439;-9.3951;-0.0754;-2.8618;
3979774208229335;-9.4502;-0.1663;-2.7900;
3979774218334231;-9.4645;-0.2309;-2.6058;
3979774228436523;-9.4693;-0.1998;-2.4212;
3979774238541419;-9.4765;-0.1759;-2.3133;
3979774248646314;-9.4741;-0.1759;-2.4452;
3979774258774648;-9.4669;-0.1974;-2.5839;
3979774268879544;-9.4669;-0.2477;-2.6130;
3979774278984439;-9.5366;-0.1543;-2.7876;
3979774289068919;-9.4860;-0.0464;-2.5337;
3979774299173814;-9.4430;0.0541;-2.3133;
3979774309278710;-9.4502;0.1594;-2.2941;
3979774319381731;-9.4358;0.2171;-2.2247;
3979774329486627;-9.4813;0.2148;-2.2893;
3979774339591575;-9.5366;0.2076;-2.4643;
3979774349699335;-9.4693;0.1642;-2.5720;
3979774359804283;-9.4071;0.0805;-2.5050;
3979774369909179;-9.4454;0.0182;-2.4165;
3979774380035064;-9.5052;0.0565;-2.2199;
3979774390139908;-9.5366;0.0972;-2.0019;
3979774400244804;-9.5725;0.1307;-2.0859;
3979774410320846;-9.5172;0.1331;-2.3327;
3979774420425689;-9.4549;0.1810;-2.5361;
3979774430530585;-9.4262;0.1738;-2.5122;
