Sensor: bmi160 Accelerometer Non-wakeup
Vendor: BOSCH
TimestampAcc [ns]; AccX [m/s^2]; AccY [m/s^2]; AccZ [m/s^2]
583842154363918;-9.3114;1.2903;-2.7039;
583842164494022;-9.3401;1.3047;-2.6560;
583842174607720;-9.3497;1.3406;-2.6345;
583842184737095;-9.3353;1.3621;-2.6465;
583842194850793;-9.3425;1.3813;-2.6895;
583842204933137;-9.3233;1.3741;-2.7159;
583842215050741;-9.3185;1.3717;-2.6967;
583842225163657;-9.3257;1.4028;-2.6752;
583842235260324;-9.3377;1.4171;-2.6560;
583842245369178;-9.3377;1.4602;-2.6512;
583842255451418;-9.3449;1.4530;-2.6632;
583842265562355;-9.3425;1.4674;-2.7039;
583842275664855;-9.3209;1.4889;-2.6680;
583842285767251;-9.3233;1.4865;-2.6943;
583842295906522;-9.3233;1.4674;-2.6800;
583842305980585;-9.3209;1.4794;-2.6824;
583842316087147;-9.3233;1.4770;-2.6704;
583842326182824;-9.3305;1.4291;-2.6967;
583842336290272;-9.3162;1.3645;-2.6752;
583842346398710;-9.3377;1.3214;-2.6249;
583842356495585;-9.3329;1.3095;-2.6249;
583842366607147;-9.3353;1.2975;-2.6297;
583842376710064;-9.3449;1.2760;-2.6010;
583842386810116;-9.3425;1.2709;-2.6034;
583842396911210;-9.3473;1.2661;-2.6273;
583842407027772;-9.3616;1.2808;-2.6489;
583842417123032;-9.3520;1.2685;-2.6704;
583842427232043;-9.3544;1.2736;-2.6345;
583842437334960;-9.3377;1.3262;-2.6130;
583842447435793;-9.3377;1.3358;-2.6106;
583842457542668;-9.3401;1.3860;-2.6225;
583842467660012;-9.3664;1.3789;-2.6536;
583842477749126;-9.3425;1.3980;-2.6800;
583842487860272;-9.3305;1.3908;-2.6608;
583842497949439;-9.3473;1.4076;-2.6608;
583842508069855;-9.3473;1.3860;-2.6512;
583842518172043;-9.3066;1.3765;-2.6632;
583842528272980;-9.3257;1.3789;-2.6441;
583842538376522;-9.3281;1.3789;-2.6417;
583842548488293;-9.3185;1.3789;-2.6919;
583842558586730;-9.3473;1.3406;-2.7350;
583842568689282;-9.3162;1.3358;-2.7661;
583842578791939;-9.3066;1.3238;-2.7278;
583842588912407;-9.3018;1.2999;-2.7254;
583842598996730;-9.2946;1.3047;-2.7182;
583842609114647;-9.3257;1.3119;-2.7111;
583842619212460;-9.3233;1.3454;-2.7182;
583842629336574;-9.3138;1.4004;-2.7374;
583842639416939;-9.3138;1.4578;-2.7900;
583842649522147;-9.3138;1.4650;-2.7996;
583842659627564;-9.3185;1.4746;-2.7517;
583842669732147;-9.3185;1.4770;-2.6871;
583842679838814;-9.3185;1.4674;-2.6776;
583842689939126;-9.3138;1.4674;-2.7039;
583842700073085;-9.3209;1.4578;-2.7206;
583842710171001;-9.3305;1.4722;-2.7230;
583842720254230;-9.3616;1.4913;-2.6871;
583842730358866;-9.3401;1.4530;-2.6824;
583842740462251;-9.3233;1.4554;-2.6752;
583842750548814;-9.3162;1.5081;-2.6991;
583842760702824;-9.3425;1.5491;-2.6776;
583842770777980;-9.3449;1.6017;-2.6560;
583842780876574;-9.3281;1.6735;-2.6536;
583842791006782;-9.3377;1.6328;-2.6608;
583842801077928;-9.2994;1.5514;-2.7948;
583842811198553;-9.2321;1.5873;-2.8765;
583842821320637;-9.2656;1.6089;-2.8813;
583842831428866;-9.3353;1.5200;-2.7326;
583842841518189;-9.3592;1.3932;-2.5122;
583842851603137;-9.3377;1.2784;-2.5193;
583842861765845;-9.2683;1.2374;-2.6704;
583842871857251;-9.2201;1.2855;-2.8499;
583842881960168;-9.2898;1.3214;-2.9387;
583842892062251;-9.3401;1.3478;-2.9411;
583842902133605;-9.3233;1.3621;-2.8451;
583842912264022;-9.2731;1.3645;-2.7326;
583842922367512;-9.2656;1.3573;-2.7613;
583842932450689;-9.3090;1.3836;-2.7972;
583842942558397;-9.3401;1.3669;-2.8908;
583842952687460;-9.3305;1.3549;-2.9674;
583842962767668;-9.2827;1.3430;-3.0009;
583842972901626;-9.2707;1.3310;-2.9674;
583842982974439;-9.2946;1.1824;-2.9195;
583842993100376;-9.3473;0.9523;-2.7685;
583843003200897;-9.3640;0.8399;-2.6919;
583843013303605;-9.3832;0.7561;-2.6608;
583843023402147;-9.3544;0.6769;-2.6919;
583843033506105;-9.3520;0.6051;-2.6776;
583843043611418;-9.3377;0.5716;-2.6919;
583843053714439;-9.3520;0.5453;-2.7350;
583843063818397;-9.3688;0.4854;-2.8092;
583843073931730;-9.3042;0.5405;-2.6656;
583843084027147;-9.3760;0.6864;-2.5504;
583843094130376;-9.4789;0.6697;-2.3949;
583843104240532;-9.4262;0.4588;-2.3085;
583843114352876;-9.4310;0.4612;-2.5959;
583843124442460;-9.3592;0.3846;-2.5816;
583843134575741;-9.3879;0.3918;-2.8259;
583843144654855;-9.3640;0.5692;-2.8765;
583843154766001;-9.2560;0.8471;-2.4476;
583843164881522;-9.3903;0.9882;-2.4452;
583843174978293;-9.4741;1.0244;-2.4882;
583843185071939;-9.3520;1.1034;-2.3973;
583843195176939;-9.3497;1.2015;-2.6800;
583843205288032;-9.3473;1.2087;-2.7876;
583843215395272;-9.3138;1.1560;-2.7206;
583843225492460;-9.3473;1.1249;-2.5986;
583843235596105;-9.4143;1.0603;-2.5481;
583843245712772;-9.3760;0.8447;-2.5050;
583843255814699;-9.3927;0.8758;-2.5816;
583843265909647;-9.3616;0.8973;-2.8283;
583843276018501;-9.3209;0.8877;-2.9578;
583843286123814;-9.2755;0.8830;-2.8475;
583843296224751;-9.2922;0.9188;-2.7565;
583843306332199;-9.3233;0.8351;-2.6632;
583843316444647;-9.2393;0.6912;-2.5863;
583843326542668;-9.2154;0.5285;-2.5002;
583843336642980;-9.3329;0.3775;-2.6321;
583843346752564;-9.3353;0.2602;-2.6991;
583843356864960;-9.2779;0.1594;-2.6680;
583843366943345;-9.2608;0.0565;-2.6943;
583843377077147;-9.2130;0.0972;-2.7709;
583843387172980;-9.1220;0.4564;-2.7876;
583843397276105;-9.1029;0.7223;-2.8837;
583843407387876;-9.1723;0.6529;-2.7517;
583843417491001;-9.2560;0.3751;-2.6249;
583843427600376;-9.2946;0.4711;-2.9267;
583843437695272;-9.2369;0.4831;-3.1448;
583843447794855;-9.2536;-0.3194;-2.6536;
583843457907876;-9.3018;-0.7723;-2.6154;
583843467993918;-9.1627;-0.4657;-2.7326;
583843478107251;-9.0048;0.0111;-2.6824;
583843488214960;-8.9925;0.6673;-3.3601;
583843498319855;-8.8944;0.6075;-3.3912;
583843508458710;-8.9566;0.7490;-3.7507;
583843518529230;-9.2608;0.5501;-4.2993;
583843528636314;-9.1436;0.3870;-4.0310;
583843538740376;-8.7628;0.3846;-3.5399;
583843548870012;-8.6955;0.1881;-2.9411;
583843558947564;-9.0000;0.6625;-3.0751;
583843569049439;-8.9351;0.7295;-3.0679;
583843579149647;-8.9734;0.3272;-2.9650;
583843589273710;-9.1866;0.1499;-3.6742;
583843599366105;-8.3172;1.2374;-5.6551;
583843609472772;-7.6367;7.5114;-11.8044;
583843619575064;-7.9579;6.1364;-7.9187;
583843629697407;-9.6993;3.9494;-4.8335;
583843639779960;-9.8336;3.9323;-4.2443;
583843649877147;-8.7365;3.9347;-4.3998;
583843659986835;-7.9531;3.7911;-5.3366;
583843670141991;-7.5123;3.8964;-6.3425;
583843680199543;-7.5338;3.4152;-6.2755;
583843690300272;-7.8093;2.5908;-5.9641;
583843700400897;-8.9040;2.4425;-6.2228;
583843710558137;-9.7184;2.9791;-5.7748;
583843720644126;-9.0622;3.4893;-4.8168;
583843730728241;-8.3650;3.2713;-5.4562;
583843740814022;-8.2167;2.5071;-6.2587;
583843750900741;-7.5266;2.2412;-5.3629;
583843761069491;-7.8906;2.3010;-4.6992;
583843771154074;-9.5797;2.1191;-4.8814;
583843781289595;-10.1737;2.0160;-5.1042;
583843791345689;-7.7925;2.0590;-5.1042;
583843801457668;-6.8462;1.7477;-6.2444;
583843811556210;-8.0178;1.5467;-5.9737;
583843821658814;-8.5256;2.0662;-4.2730;
583843831782772;-8.7844;2.5214;-4.2706;
583843841872095;-8.2214;2.3297;-5.2525;
583843851970689;-9.1125;1.7836;-5.6121;
583843862088397;-9.4597;1.4578;-5.5834;
583843872191105;-7.8165;0.8997;-6.0048;
583843882293918;-8.1999;0.4181;-7.5787;
583843892398605;-9.3784;1.0962;-6.1008;
583843902516678;-8.1374;1.6950;-2.1362;
583843912632772;-7.8978;1.8891;-1.8703;
583843922750012;-9.6682;1.8389;-4.1530;
583843932827772;-8.6501;1.6711;-4.1937;
583843942925689;-7.4237;0.8638;-4.5532;
583843953017147;-8.5639;0.3081;-6.7259;
583843963132460;-9.7113;0.4014;-6.2635;
583843973235689;-10.1330;1.2470;-3.9473;
583843983340480;-8.4826;0.9165;-2.7398;
583843993433397;-7.5482;-0.1735;-3.9350;
583844003541105;-8.4583;-0.6120;-4.5485;
583844013658189;-7.7638;0.6242;-2.3399;
583844023765949;-7.8045;1.0292;-2.6106;
583844033865585;-11.7571;-0.4059;-5.5977;
583844043970168;-12.1451;-0.2764;-4.7327;
583844054075064;-7.5769;1.2111;-1.3863;
583844064183032;-6.3745;1.5344;-1.7049;
583844074285376;-8.5400;1.0460;-4.4261;
583844084386626;-9.7639;1.5224;-4.3902;
583844094499960;-9.6036;1.9609;-1.6068;
583844104599439;-9.1627;2.0183;-1.6522;
583844114700689;-11.3234;2.3444;-5.0539;
583844124807043;-10.1450;3.1155;-4.4022;
583844134892668;-7.0857;3.0772;-2.2487;
583844145014699;-7.9146;1.9729;-4.2538;
583844155119699;-8.9542;1.9011;-4.4309;
583844165247512;-8.6572;2.7969;-2.0859;
583844175339960;-9.0574;1.5081;-3.3769;
583844185427043;-9.5510;2.0016;-5.5522;
583844195531730;-9.2345;2.3321;-4.2514;
583844205644439;-9.9221;2.7084;-3.1543;
583844215738605;-8.6070;4.0331;-1.6618;
583844225847772;-7.2894;4.5793;-2.5146;
583844235956314;-9.6156;3.5300;-6.4887;
583844246075845;-10.2000;3.3790;-7.6146;
583844256176782;-8.2190;4.3349;-4.6729;
583844266273501;-7.9890;5.1948;-2.4835;
583844276385376;-9.2273;5.1733;-2.8379;
583844286475376;-10.9786;4.5386;-4.5652;
583844296586001;-9.9317;3.9637;-4.7976;
583844306687460;-7.9026;3.4893;-4.7088;
583844316797251;-8.7532;2.6701;-4.1267;
583844326899960;-8.8011;3.8462;-3.2548;
583844336998397;-7.3421;4.2583;-1.8440;
583844347103449;-8.0178;4.0283;-2.0091;
583844357216314;-8.5567;3.9203;-0.9790;
583844367315637;-8.4320;2.9767;-2.3351;
583844377422251;-11.7452;-0.1352;-9.1119;
583844387528814;-12.1905;-1.4982;-9.8160;
583844397629595;-6.9900;0.3368;-1.5733;
583844407736210;-5.4257;1.4291;0.6308;
583844417842772;-9.0909;0.0613;-2.7446;
583844427938553;-10.5712;-1.5867;-1.3122;
583844438045168;-9.2369;-1.9101;0.9685;
583844448151730;-9.8647;-2.1305;-1.8918;
583844458259178;-12.7176;-2.1999;-4.7545;
583844468365793;-10.0107;-1.6705;-2.8403;
583844478472355;-7.1073;-1.5628;-0.4953;
583844488571470;-7.7949;-0.6861;-1.4653;
583844498678085;-8.5017;-0.2907;-2.0354;
583844508784647;-7.8380;-0.2955;-3.1496;
583844518887407;-8.6572;0.0852;-5.8158;
583844528994022;-10.5329;0.1092;-5.1353;
583844539100585;-9.2731;1.1130;-1.8176;
583844549193137;-8.1302;2.3034;-2.0043;
583844559299751;-9.2536;2.5837;-3.1902;
583844569406314;-8.5543;3.3838;-2.7470;
583844579510949;-7.9316;3.1516;-4.3137;
583844589617564;-3.0135;2.6773;-6.7786;
583844599724126;-10.4444;0.4038;-10.0675;
583844609824387;-17.5325;1.7692;-5.6815;
583844619931001;-9.9269;2.2125;-0.7540;
583844630037564;-6.4319;0.2339;-5.1664;
583844640143866;-6.0437;-1.1653;-2.5768;
583844650250480;-3.7274;-0.7172;4.0971;
583844660357043;-4.5897;-1.6633;1.5194;
583844670490585;-12.6960;-3.4935;-4.4620;
583844680597199;-17.6860;-4.0950;-2.8717;
583844690703762;-11.8696;-2.7823;1.0738;
583844700768032;-3.2937;0.1451;0.1756;
583844710874647;-5.4353;0.8495;-2.2080;
583844720981210;-13.0173;2.2005;-5.0946;
583844731088657;-14.2555;3.2163;-6.2013;
583844741195272;-9.6802;3.6616;-5.8158;
583844751301835;-6.7600;2.3468;-6.3500;
583844761401678;-8.7556;2.5741;-5.1114;
583844771508293;-9.4669;3.7170;-2.8379;
583844781614855;-8.1924;3.7074;-3.5160;
583844791718866;-10.4204;3.2306;-4.4046;
583844801825480;-11.1847;4.8452;-4.4477;
583844811932043;-8.6668;4.7638;-4.0047;
583844822033345;-8.1111;3.5803;-4.2610;
583844832139960;-10.0418;2.8519;-4.5389;
583844842246522;-8.4658;1.4004;-2.7541;
583844852343970;-7.3516;-0.5112;-3.2333;
583844862450585;-10.4133;-2.5092;-3.0583;
583844872557147;-9.7137;-2.7197;-1.2018;
583844882673449;-7.0164;-3.8411;-1.9134;
583844892780064;-9.0790;-4.7417;-3.5016;
583844902886626;-13.2661;-4.5045;-1.5203;
583844912960428;-17.5517;-1.8239;2.0010;
583844923067043;-10.4037;-0.7771;3.2704;
583844933173605;-11.3043;-0.5136;0.7337;
583844943286262;-11.1293;-0.4705;1.3923;
583844953392876;-3.0398;-1.8718;1.4453;
583844963499439;-3.8447;-3.0984;-4.1794;
583844973599491;-9.0742;-2.7488;-6.3882;
583844983706105;-11.0815;-2.0779;-4.6490;
583844993812668;-9.9963;-1.0214;-5.7796;
583845003929699;-9.7137;-0.2046;-6.9511;
583845014036314;-9.2922;1.1776;-4.6657;
583845024142876;-8.8801;1.6591;-2.7015;
583845034229699;-9.1819;1.6807;-1.3050;
583845044336314;-9.3209;1.3286;0.4822;
583845054442876;-9.3162;0.8901;-0.3873;
583845064544282;-12.4038;0.9236;-1.7503;
583845074650897;-10.5688;0.9523;0.2210;
583845084757460;-7.5290;0.6434;-0.0784;
583845094863449;-8.7987;0.1044;-3.5255;
583845104970064;-10.8972;0.1929;-3.0727;
583845115076626;-7.9026;0.8279;-0.8737;
583845125172616;-6.8294;1.5586;-3.5877;
583845135279230;-11.2110;1.5945;-5.9856;
583845145385793;-10.1019;1.4339;-2.7924;
583845155484803;-8.4248;1.2063;-2.9722;
583845165591418;-11.5774;0.7681;-4.4213;
583845175697980;-9.8504;0.0565;-1.2619;
583845185802095;-7.6128;-0.1400;-0.7828;
583845195908710;-10.2048;-0.4848;-2.7302;
583845206015272;-10.7438;-0.7723;-1.5470;
583845216114282;-7.9026;-0.8898;0.3407;
583845226220897;-8.3961;-0.5447;-2.8259;
583845236327460;-11.4458;0.1451;-5.2095;
583845246439751;-9.8982;0.4807;-1.9588;
583845256546366;-6.6763;-0.3242;-1.2619;
583845266652928;-9.9580;0.3320;-6.2707;
583845276748345;-10.6720;0.8686;-5.0635;
583845286854960;-6.5563;-0.2548;-2.0330;
583845296961522;-8.9662;0.2674;-5.8995;
583845307055324;-10.5712;1.3765;-5.2983;
583845317161939;-9.4454;1.2494;-1.8966;
583845327268501;-9.4406;0.8877;-3.5806;
583845337369907;-8.7509;1.7285;-4.2945;
583845347476522;-8.2406;1.4219;-2.5122;
583845357583085;-9.9532;1.3597;-3.8560;
583845367682251;-10.2048;2.1263;-5.2478;
583845377787303;-8.9160;1.7189;-1.8870;
583845387892407;-8.9471;1.4698;-1.1061;
583845397995585;-10.1976;2.6052;-4.3878;
583845408100637;-8.3842;1.5802;-3.3051;
583845418205741;-8.8490;0.7080;-5.9378;
583845428325064;-12.4831;3.0078;-10.5826;
583845438430116;-9.0670;0.9260;-3.5447;
583845448535220;-10.2694;-0.4585;0.8943;
583845458625897;-8.3961;-0.0320;3.0117;
583845468730949;-8.2119;-0.7077;2.8561;
583845478836053;-11.4697;0.0900;-1.4964;
583845488936991;-9.7496;-0.3556;-0.7131;
583845499042043;-9.4884;-2.1066;-1.3457;
583845509147147;-10.8275;-1.2323;-3.0870;
583845519253345;-7.4309;-1.8718;-0.1430;
583845529358449;-11.0623;-2.1784;-2.6752;
583845539463553;-12.1140;-1.4623;-3.2883;
583845549548762;-5.2149;-2.9880;0.3311;
583845559653814;-8.3315;-2.4562;-5.4897;
583845569758918;-12.9093;-2.1329;-4.2538;
583845579880064;-8.8322;-2.4443;1.4333;
583845589985116;-10.5664;0.0398;-3.5016;
583845600090220;-9.8575;-0.6048;-1.1468;
583845610188397;-7.6319;0.9763;0.3239;
583845620293449;-11.5080;1.9681;-3.7029;
583845630398553;-9.6467;2.7012;-1.3983;
583845640529022;-9.0239;2.6151;-0.5408;
583845650634074;-9.9293;2.9838;-2.6106;
583845660739178;-7.8356;2.7251;-1.0822;
583845670811314;-10.1976;2.9719;-2.9770;
583845680916366;-11.7547;3.0772;-3.7484;
583845691021470;-7.6944;2.0686;-0.2557;
583845701153866;-9.3520;1.7740;-1.9397;
583845711258970;-11.7141;2.0734;-2.8427;
583845721364074;-7.5817;0.1355;1.3588;
583845731456782;-9.0431;0.7633;-1.5036;
583845741561887;-11.9007;0.7032;-2.6082;
583845751666991;-8.4802;-1.3352;1.9771;
583845761764230;-10.1521;-0.2883;-1.3337;
583845771869282;-11.6806;-0.2812;-2.0764;
583845781974387;-8.0273;-0.5614;-0.4570;
583845792093762;-11.0288;-0.2955;-2.5504;
583845802198866;-11.2349;-0.2237;-1.8416;
583845812303970;-8.3722;0.0996;-0.8474;
583845822411782;-9.0622;0.5883;-2.5600;
583845832516887;-11.3402;1.2230;-3.7579;
583845842621991;-10.0537;1.0675;-2.3734;
583845852710324;-8.2478;0.5788;-0.6485;
583845862815428;-9.2656;1.1584;-2.7254;
583845872920532;-9.7376;2.1790;-4.6681;
583845883016418;-10.2431;1.5634;-1.1539;
583845893121470;-9.6682;1.6615;-0.5168;
583845903226574;-9.0048;3.0772;-4.0789;
583845913340532;-9.5845;2.6486;-3.0583;
583845923445637;-9.4071;2.2101;-0.8904;
583845933550793;-8.9590;3.5157;-3.6332;
583845943648189;-8.6668;3.5970;-3.4107;
583845953753241;-8.2645;2.4114;-2.2463;
583845963858345;-8.9016;1.6639;-3.7914;
583845973964647;-9.4860;0.9667;-2.5074;
583845984069699;-8.2430;0.0685;-0.7660;
583845994174803;-10.1067;0.4349;-3.2907;
583846004298553;-11.0049;0.0422;-3.2022;
583846014403657;-8.9183;-1.4575;-0.0209;
583846024508762;-9.6060;-1.8072;-2.1051;
583846034600532;-10.3869;-1.5485;-4.1100;
583846044705637;-9.4789;-2.6695;-1.3457;
583846054810741;-9.7041;-1.9726;-1.8727;
583846064916053;-8.4392;-1.1148;-3.2716;
583846075021157;-8.5878;-1.7450;-2.0521;
583846085126262;-10.4635;-1.1028;-3.0870;
583846095236262;-10.2503;0.1642;-2.7470;
583846105341366;-7.5697;-0.2524;0.1205;
583846115446470;-9.5462;1.5945;-2.9770;
583846125540532;-11.8361;3.1732;-5.7556;
583846135645637;-9.1388;3.0389;-2.6800;
583846145750741;-8.4559;3.1923;-1.1444;
583846155848918;-9.7184;4.3708;-3.1110;
583846165953970;-9.7831;4.2006;-1.9277;
583846176059074;-8.3435;3.2426;0.2091;
583846186166782;-8.5352;3.9757;-3.3123;
583846196271887;-10.5449;4.7372;-4.7088;
583846206376991;-9.0550;3.3000;-0.7083;
583846216476835;-8.6883;3.6906;-2.2271;
583846226581887;-9.4717;3.1995;-3.8967;
583846236686991;-9.4621;2.5478;-1.2042;
583846246807616;-9.8815;3.4152;-2.2798;
583846256912720;-8.9327;2.6127;-3.5231;
583846267017824;-8.5831;1.2808;-2.4021;
583846277107095;-10.3654;0.7705;-2.7470;
583846287212199;-10.2311;0.4301;-3.7938;
583846297317303;-8.9447;-0.9425;-1.0032;
583846307419647;-8.0776;-1.5413;-0.6748;
583846317524699;-9.4071;-1.4647;-3.0464;
583846327629803;-9.0981;-1.4192;-1.8727;
583846337736470;-8.4153;-1.9029;-1.5924;
583846347841574;-10.2526;-2.4996;-3.5471;
583846357946678;-10.5377;-1.7689;-3.0153;
583846368048762;-9.7639;-2.1209;-1.0367;
583846378153605;-9.7328;-0.7819;-2.9435;
583846388258397;-9.2273;-1.2299;-2.8908;
583846398362512;-9.1866;-2.1903;-1.2595;
583846408467303;-10.7510;-1.6442;-2.5816;
583846418572095;-9.9724;-1.9869;-1.7767;
583846428644960;-8.8561;-1.2658;-1.4557;
583846438749751;-10.5138;-0.7819;-2.7111;
583846448854543;-11.3450;-1.5173;-1.3959;
583846458988137;-9.5195;-1.4623;-0.9909;
583846469092980;-8.4607;-1.2826;-1.8272;
583846479197720;-7.4381;-1.3280;-2.8522;
583846489301366;-10.0250;-1.1821;-4.5891;
583846499406210;-11.3904;-0.2835;-3.7555;
583846509510949;-8.8825;-0.4825;-2.1147;
583846519616157;-8.2023;-0.5447;-2.7996;
583846529720949;-10.1521;-0.0897;-3.4178;
583846539825741;-10.8419;0.0278;-1.2858;
583846549949803;-10.2359;0.1164;-0.1911;
583846560054595;-9.2922;0.4998;-0.2079;
583846570159387;-10.7462;1.6065;-1.5637;
583846580261210;-10.4324;1.3430;-1.0869;
583846590366001;-8.5878;0.5237;-0.5480;
583846600470741;-9.4430;1.7405;-3.3242;
583846610574074;-10.5114;2.0662;-3.9712;
583846620678866;-9.7256;0.8782;-1.1898;
583846630783657;-8.5831;0.9428;-1.6570;
583846640889543;-9.2273;1.5754;-3.6356;
583846650994335;-9.5004;0.8614;-2.4739;
583846661099126;-9.1771;0.1140;-1.2162;
583846671233814;-9.0766;0.9404;-2.5792;
583846681338553;-9.4884;1.1584;-3.3027;
583846691443345;-9.4047;0.2506;-1.7169;
583846701499439;-9.6299;0.3775;-1.5565;
583846711604230;-9.7711;1.1967;-2.4595;
583846721709022;-8.7963;1.3047;-2.7972;
583846731810741;-9.1388;1.2350;-3.5423;
583846741915532;-10.1354;1.7836;-3.5040;
583846752020376;-8.8729;1.9801;-3.2022;
583846762156001;-8.8490;1.8987;-3.6694;
583846772260793;-9.3209;2.1359;-3.2213;
583846782365585;-9.0718;2.1072;-3.1759;
583846792478866;-9.9269;1.0699;-3.7460;
583846802583657;-9.1651;0.3272;-2.7685;
583846812688449;-9.5916;-0.3051;-2.4571;
583846822751366;-8.8872;-0.7340;-2.2343;
583846832856210;-8.2190;-2.0180;-2.8259;
583846842960949;-8.7700;-1.2849;-4.4429;
583846853083657;-10.7127;-1.2227;-3.0870;
583846863188449;-9.5581;-2.1736;-1.5036;
583846873293241;-10.0899;-1.6490;-2.1769;
583846883394751;-10.5568;-1.2275;-0.9311;
583846893499543;-8.7652;-1.3232;-0.6245;
583846903604335;-8.7218;-1.3519;-1.6905;
583846913715272;-10.4611;-0.3147;-2.5528;
583846923820064;-10.3774;-0.6215;-1.6857;
583846933924855;-9.5219;-0.7196;-1.1348;
583846944013032;-9.9174;-0.0873;-1.0319;
583846954117876;-9.8623;-0.0033;-0.5336;
583846964222668;-9.8384;-0.3003;-1.2595;
583846974338085;-10.1809;-0.0607;-1.1611;
583846984442824;-10.2479;0.7128;-1.1276;
583846994547616;-9.5940;0.4807;-0.8761;
583847004665897;-10.2239;0.5333;-0.6221;
583847014770689;-9.0479;1.4459;-0.9766;
583847024875480;-9.1077;1.2374;-2.2941;
583847034965741;-9.5390;1.4124;-2.3758;
583847045070480;-7.3875;1.3621;-1.7408;
583847055175324;-9.3736;1.4794;-3.4131;
583847065272720;-12.1714;1.0196;-3.0966;
583847075377512;-9.8958;0.5740;-1.2257;
583847085482303;-8.7820;1.0364;-1.7743;
583847095584699;-10.6911;1.4171;-2.4858;
583847105689543;-12.0733;0.5333;-1.3265;
583847115794335;-5.9336;-0.0344;-1.4653;
583847125905272;-6.6691;0.2818;-3.0511;
583847136010012;-13.1513;0.1331;-3.7388;
583847146114803;-12.6386;-0.5686;-1.4390;
583847156224022;-5.4425;-0.3365;-1.0822;
583847166328814;-5.8307;0.4086;-2.9339;
583847176433605;-11.4266;0.4926;-4.2491;
583847186529699;-10.5760;0.9571;-3.9401;
583847196634543;-7.9866;2.6127;-3.7172;
583847206739335;-8.1757;2.9910;-3.4394;
583847216855168;-10.2957;2.3369;-3.2070;
583847226959960;-9.6323;1.8317;-2.8379;
583847237064751;-8.8753;1.7740;-3.1134;
583847247177512;-9.4119;1.4315;-3.4298;
583847257282355;-9.9676;0.8064;-3.8082;
583847267387095;-8.9782;0.5333;-3.3362;
583847277479230;-8.5807;0.4735;-3.4657;
583847287584022;-9.8599;-0.3532;-4.2156;
583847297688762;-10.0947;-1.1028;-3.6909;
583847307786314;-8.8011;-0.3338;-3.0200;
583847317891105;-9.0407;-0.0440;-3.7388;
583847327995845;-8.3483;-0.3628;-4.6466;
583847338100376;-8.6596;0.0087;-5.2262;
583847348205168;-10.4085;-0.0897;-4.7136;
583847358309960;-8.8513;-0.3820;-3.7053;
583847368416626;-5.8618;-0.7196;-4.0095;
583847378521366;-9.1866;-0.5088;-5.5618;
583847388626105;-10.9355;-0.9975;-4.6083;
583847398726991;-6.9039;-1.3950;-3.8249;
583847408831730;-8.7891;-1.3208;-4.6753;
583847418936470;-11.0288;-1.7378;-3.8034;
583847429061366;-7.7830;-1.6370;-2.8618;
583847439166105;-9.3353;-1.6202;-3.7125;
583847449270845;-10.4492;-1.7186;-3.8489;
583847459360897;-9.1029;-1.5126;-2.9435;
583847469465637;-8.7676;-0.8417;-2.6369;
583847479570376;-9.9939;-1.4575;-3.7316;
583847489668241;-10.0804;-1.1749;-3.3936;
583847499772980;-10.9427;1.1680;-3.0368;
583847509877720;-8.5974;0.1427;-3.0559;
583847519981418;-9.2273;0.2387;-3.8417;
583847530086157;-10.8084;0.4421;-3.2166;
583847540190897;-8.2214;0.3272;-3.2812;
583847550313397;-10.2526;0.0757;-3.4705;
583847560418137;-8.6788;0.5213;-2.5385;
583847570522876;-7.6848;-0.1735;-2.7709;
583847580635480;-10.3316;0.5644;-3.7460;
583847590740220;-8.6788;0.8782;-3.4801;
583847600844960;-7.2248;-0.0081;-3.6523;
583847610918085;-9.9221;0.5788;-4.2299;
583847621022772;-10.4492;0.6362;-3.8297;
583847631127564;-9.1531;-0.3123;-3.2812;
583847641285585;-8.2645;-0.1998;-3.6981;
583847651390324;-7.6367;-1.4503;-4.3735;
583847661495064;-10.1474;-0.9233;-5.2887;
583847671562460;-9.1579;-0.2572;-4.2084;
583847681667199;-5.4497;-0.6574;-3.9278;
583847691771939;-7.6872;-0.3099;-4.7474;
583847701881522;-9.7496;-0.0488;-5.0228;
583847711986262;-10.6289;0.5357;-5.0420;
583847722091001;-10.7366;1.1680;-3.4466;
583847732207876;-9.7663;0.5907;-3.0870;
583847742312616;-10.2670;0.5357;-2.7422;
583847752417355;-9.4813;0.8853;-2.1099;
583847762516105;-9.4884;0.3272;-2.5959;
583847772620845;-9.7902;0.3248;-2.9626;
583847782725585;-7.8476;0.1427;-3.3075;
583847792806157;-9.0359;-0.0511;-4.0190;
583847802910897;-8.1494;0.4974;-3.5231;
583847813015637;-9.3305;0.4660;-4.0549;
583847823136314;-11.0815;0.6290;-2.9148;
583847833241053;-7.8236;0.6936;-2.0139;
583847843345793;-7.9074;-0.5231;-2.9459;
583847853443501;-8.4969;0.3870;-3.6643;
583847863548241;-8.1302;-0.2142;-4.2897;
583847873652980;-8.6453;-0.1807;-4.3496;
583847883762460;-8.1494;-0.2046;-3.9544;
583847893867199;-10.5927;-0.1448;-3.8201;
583847903971939;-9.7161;0.5022;-2.9148;
583847914078710;-9.2345;-0.1711;-2.4332;
583847924183449;-10.5808;0.3727;-2.9411;
583847934288189;-9.1843;1.0484;-2.5744;
583847944381418;-10.6050;1.1824;-2.6536;
583847954486157;-8.3363;1.5610;-1.9923;
583847964590897;-8.3219;0.9882;-4.3448;
583847974701574;-11.3474;1.9848;-4.7327;
583847984806314;-8.2047;1.5153;-2.5026;
583847994911053;-8.9303;1.1919;-3.9182;
583848005044335;-10.0346;0.9021;-3.4848;
583848015149074;-10.0250;0.6840;-2.9267;
583848025253814;-8.8729;0.2459;-3.0990;
583848035329126;-8.3291;-0.5231;-3.3075;
583848045433866;-9.1579;0.6793;-4.6083;
583848055538605;-9.9963;-0.1950;-3.7364;
583848065651835;-10.0732;0.6505;-3.5303;
583848075756574;-9.0191;0.1020;-2.6776;
583848085861314;-8.9758;0.0733;-2.6512;
583848095961157;-9.2178;-0.5495;-3.1735;
583848106065897;-9.7017;0.0972;-3.8273;
583848116170637;-8.2621;-0.0682;-4.1387;
583848126274751;-7.4501;-0.2309;-5.0085;
583848136379491;-8.7317;-0.3532;-5.9856;
583848146484230;-10.4037;-0.1759;-4.8790;
583848156582043;-8.9375;0.7920;-3.5877;
583848166686782;-7.8045;-0.0706;-3.7603;
583848176791522;-10.0514;0.0039;-4.6035;
583848186908501;-8.7389;-0.3700;-3.0224;
583848197013241;-8.3842;0.2841;-3.4418;
583848207117980;-9.9221;-0.6574;-3.8106;
583848217216574;-9.6419;-0.2500;-2.7972;
583848227321314;-7.3469;-0.7603;-2.4093;
583848237426053;-8.5352;-0.2572;-3.7699;
583848247538918;-8.8944;-0.9760;-4.6681;
583848257643657;-9.4334;-0.2859;-4.5054;
583848267748345;-8.4296;-0.1400;-3.2429;
583848277849074;-9.0120;-0.2261;-3.6957;
583848287953814;-9.2010;-0.6144;-4.8096;
583848298058553;-9.3784;0.6362;-3.6909;
583848308182512;-11.4048;0.6793;-3.0823;
583848318287251;-8.7604;0.6745;-2.7135;
583848328391991;-7.5912;0.3751;-3.0703;
583848338477980;-9.0526;0.1403;-4.9268;
583848348582720;-11.0169;0.7657;-4.1698;
583848358687460;-10.7222;0.3823;-2.9794;
583848368784647;-9.1819;0.6147;-2.8211;
583848378889387;-8.8107;0.2865;-2.4308;
583848388994126;-9.5988;-0.2979;-4.1626;
583848399094230;-10.2670;0.4735;-3.0583;
583848409198970;-8.9016;0.5453;-3.5542;
583848419303710;-7.7303;-0.1304;-2.7422;
583848429423293;-9.7687;-0.1232;-4.0525;
583848439528032;-9.9676;0.8303;-2.3013;
583848449632772;-8.5256;0.7343;-2.7613;
583848459727460;-7.4070;0.3966;-2.8427;
583848469832199;-9.5315;0.2387;-4.5891;
583848479936939;-8.6931;1.0436;-3.9087;
583848490027876;-8.7556;1.1201;-3.9808;
583848500132616;-9.0885;1.1776;-2.5457;
583848510237355;-9.8121;0.8997;-2.7350;
583848520361939;-9.3377;1.0675;-1.9660;
583848530466678;-8.4634;0.4469;-2.9818;
583848540571418;-9.2513;-0.1615;-3.3099;
583848550702980;-9.1603;0.3703;-3.8800;
583848560807720;-9.5510;0.3966;-3.7507;
583848570912460;-8.9758;1.1943;-3.9616;
583848580980116;-11.2038;0.7657;-3.4633;
583848591084855;-8.5663;1.2999;-3.4370;
583848601189647;-8.2525;0.9954;-3.4825;
583848611293710;-9.2345;0.2435;-4.6896;
583848621398449;-9.5315;0.7920;-4.1985;
583848631503189;-9.3664;0.7394;-2.7063;
583848641588970;-7.7997;0.9739;-3.9903;
583848651693762;-9.6060;0.3727;-4.3137;
583848661798501;-9.2779;0.3057;-3.9592;
583848671910168;-8.2741;0.8088;-3.2357;
583848682014960;-8.5591;-0.3485;-4.6825;
583848692119699;-10.5568;-0.1448;-4.2586;
583848702238241;-9.3616;0.1283;-1.4031;
583848712342980;-7.9747;-0.0754;-2.6512;
583848722447720;-11.0504;0.1810;-4.0310;
583848732554074;-10.9068;-0.3843;-2.1577;
583848742658814;-9.0287;1.1465;-1.6977;
583848752763553;-10.1761;0.3392;-2.3351;
583848762881730;-7.3325;-0.5518;-2.7829;
583848772986470;-4.3813;-0.5949;-4.3304;
583848783091210;-7.5697;-1.7354;-7.2529;
583848793184491;-10.8996;-1.0884;-6.7953;
583848803289230;-10.6337;-0.4298;-2.8570;
583848813393970;-8.8609;0.3583;-2.4763;
583848823498397;-10.7773;0.4253;-2.3252;
583848833603137;-10.9594;-1.0454;-2.3853;
583848843707876;-8.5448;-0.1543;-3.1591;
583848853810897;-9.7591;-0.3820;-3.1253;
583848863915637;-10.0609;-0.9951;-3.6165;
583848874020376;-9.3951;-0.3461;-3.3171;
583848884121939;-8.2621;-0.9927;-2.7302;
583848894226678;-8.2789;-0.9209;-4.2682;
583848904331418;-9.4789;-0.7172;-4.5796;
583848914448814;-10.4994;-1.0334;-2.9483;
583848924553553;-8.9686;-0.3508;-2.7135;
583848934658293;-9.1244;-0.5925;-2.4308;
583848944757251;-9.9221;-0.5136;-3.3769;
583848954861991;-8.0201;-0.8560;-3.6814;
583848964966730;-8.7194;-0.1161;-3.9903;
583848975070689;-9.7424;-0.1902;-4.9292;
583848985175428;-10.7533;-0.0033;-3.6069;
583848995280168;-9.6610;0.4516;-2.5289;
583849005398189;-8.3698;0.1403;-4.1674;
583849015502928;-10.5879;0.3081;-2.7757;
583849025607668;-9.1460;0.6290;-1.1468;
583849035706210;-8.8490;0.9882;-0.8904;
583849045810949;-8.1374;-0.2979;-2.7398;
583849055915689;-8.6070;-0.3461;-5.0180;
583849066009543;-8.2932;0.2961;-6.6012;
583849076114282;-10.0083;0.7681;-5.6527;
583849086219022;-8.2454;1.0890;-4.3783;
583849096323605;-9.1723;1.5802;-4.4381;
583849106428345;-8.7772;1.1632;-2.2606;
583849116533085;-9.4382;0.7199;-3.5016;
583849126648710;-7.5864;0.4493;-2.6608;
583849136753449;-8.5663;-0.2764;-3.9135;
583849146858189;-9.5366;-0.0440;-4.6466;
583849156950064;-9.3114;0.8806;-5.2143;
583849167054803;-12.4564;1.2517;-2.6369;
583849177159543;-11.0384;1.7620;-1.5876;
583849187272824;-9.1651;1.0436;-0.9311;
583849197377564;-9.3903;0.6075;-2.0330;
583849207482303;-9.5195;0.1283;-2.6201;
583849217581314;-8.0728;0.8160;-4.0310;
583849227686053;-9.5725;0.8830;-5.3294;
583849237790793;-10.4396;0.3751;-3.4155;
583849247902772;-9.5004;0.4373;-2.9506;
583849258007512;-7.3974;0.9117;-2.9578;
583849268112251;-8.7748;0.4636;-4.1578;
583849278211314;-10.7246;0.5644;-3.6308;
583849288316053;-8.8250;0.7394;-3.0823;
583849298420793;-8.6261;0.6482;-2.8499;
583849308539699;-10.2383;0.3942;-2.6512;
583849318644439;-8.9710;0.0948;-1.9493;
583849328749178;-7.9914;0.4540;-2.9100;
583849338838501;-8.8011;-0.0730;-2.7254;
583849348943189;-9.5267;-0.2357;-3.8201;
583849359047980;-9.5892;0.3535;-4.3543;
583849369157147;-8.7652;0.9069;-2.9100;
583849379261887;-9.6060;0.7729;-3.0272;
583849389366678;-9.6610;0.6601;-4.3496;
583849399466262;-9.0838;0.7729;-4.8814;
583849409571053;-8.1350;1.0101;-4.6370;
583849419675793;-8.7532;0.6793;-3.8560;
583849429788449;-10.4444;0.9571;-4.5341;
583849439893241;-10.4085;0.7609;-2.6656;
583849449997980;-8.8753;0.9260;-1.3887;
583849460085949;-7.7638;0.2937;-3.0488;
583849470190741;-10.4204;0.2818;-3.5542;
583849480295532;-10.1593;-0.1448;-2.6034;
583849490402043;-7.9193;-0.0802;-2.9626;
583849500506782;-9.0742;0.3846;-3.0416;
583849510611574;-8.4682;0.3966;-2.9387;
583849520726626;-8.6692;0.1451;-3.9808;
583849530831418;-10.3292;0.2171;-4.2945;
583849540936105;-9.3640;0.8734;-3.3625;
583849551041470;-8.7242;0.9858;-2.5624;
583849561146262;-8.6883;0.5764;-3.4131;
583849571251001;-9.5701;0.0278;-3.4968;
583849581343553;-9.3855;0.4110;-1.6953;
583849591448345;-9.3879;0.4854;-2.8693;
583849601553085;-9.7759;0.1044;-3.6500;
583849611687668;-9.8432;0.2243;-1.8464;
583849621792512;-9.0885;0.7056;-2.3782;
583849631897251;-10.0537;0.5740;-3.1543;
583849642003970;-9.0000;0.6697;-1.9205;
583849652108762;-7.0786;-0.1615;-2.4978;
583849662213501;-11.3043;0.1451;-5.5328;
583849672299074;-12.5166;0.7944;-1.9923;
583849682403866;-9.0646;0.8830;-1.4318;
583849692508605;-9.5028;0.2363;-2.6201;
583849702625845;-9.4071;0.2746;-2.0043;
583849712730689;-9.2513;-0.0105;-4.5150;
583849722835376;-9.4214;0.6745;-4.4213;
583849732945741;-6.4654;0.6266;-3.7603;
583849743050585;-3.8901;0.1427;-6.6470;
583849753155324;-11.1269;0.7247;-6.9440;
583849763249022;-17.4512;0.3392;-2.4643;
583849773353814;-10.3415;0.6673;4.1091;
583849783458501;-4.1369;0.9547;0.2258;
583849793556157;-6.2737;-1.2682;-6.2204;
583849803660897;-9.1244;-0.3820;-6.5533;
583849813765689;-9.6945;0.4397;-6.2324;
583849823876626;-8.5926;1.7883;-3.7005;
583849833981418;-7.6992;0.2985;-4.4166;
583849844086105;-10.9235;0.2291;-2.7422;
583849854178553;-10.3029;-0.4178;-1.9899;
583849864283345;-8.3100;0.8160;-2.5098;
583849874388137;-9.1603;0.2219;-5.1353;
583849884496210;-10.1665;0.3296;-3.6260;
583849894601001;-10.8347;0.4950;-4.6777;
583849904705689;-9.3233;1.0507;-4.2395;
583849914817251;-8.6764;1.1225;-3.5088;
583849924922043;-9.0766;0.7896;-1.7192;
583849935026730;-10.4037;0.3033;-0.5527;
583849945118345;-9.0359;-0.6215;1.3062;
583849955223137;-6.8414;-0.6814;-3.6069;
583849965327928;-7.9723;-0.1328;-8.9417;
583849975457668;-10.7533;0.4397;-5.7652;
583849985562460;-11.5056;0.7801;-1.8918;
583849995667199;-9.5052;1.2565;0.8390;
583850005758449;-5.9336;0.1762;-0.8904;
583850015863241;-8.7365;-0.2883;-3.8393;
583850025967980;-10.1593;-0.3003;-3.3051;
583850036082772;-10.2670;-0.1878;-4.0430;
583850046187564;-9.7615;0.7466;-3.8680;
583850056292303;-7.9193;0.6984;-2.3686;
583850066389647;-7.9627;0.2267;-4.9699;
583850076494439;-10.2957;0.7223;-6.2372;
583850086599178;-12.1642;1.1417;-3.5710;
583850096699335;-11.1293;1.3238;-1.0008;
583850106804126;-8.7147;0.3775;0.0006;
583850116908866;-9.6562;-0.2118;-1.7192;
583850127016105;-9.4908;-0.1663;-2.1386;
583850137120897;-8.7003;-0.1783;-3.0942;
583850147225637;-9.2874;0.0494;-4.5676;
583850157323657;-10.5520;-0.0176;-3.3553;
583850167428449;-8.7820;0.3942;-2.6297;
583850177533189;-8.1374;-0.2142;-2.6010;
583850187641835;-9.4884;-0.1543;-4.6729;
583850197746574;-10.0035;-0.1615;-3.5925;
583850207851366;-10.3391;-0.4609;-2.0115;
583850217948970;-4.3358;-0.2381;-3.0775;
583850228053814;-5.9886;0.0063;-7.8589;
583850238158553;-13.5153;0.2076;-6.9344;
583850248270324;-11.3928;0.3009;-0.9359;
583850258375116;-6.6978;0.2770;-0.3467;
583850268479855;-7.4261;-0.2237;-3.4418;
583850278576887;-11.9294;-0.0607;-4.6107;
583850288681730;-9.9509;-0.2094;-2.9435;
583850298786418;-9.2970;0.4998;-2.8092;
583850308915116;-10.9977;0.2001;-3.9999;
583850319019907;-12.5285;0.8112;-2.1386;
583850329124699;-8.7218;0.1020;0.1923;
583850339209647;-7.1387;-0.1543;-2.9602;
583850349314387;-12.0278;-0.0272;-5.0492;
583850359419126;-9.1149;0.1546;-2.8522;
583850369518189;-6.3000;0.1499;-3.4274;
583850379622876;-6.4391;0.0876;-5.2167;
583850389727564;-9.1914;-0.0754;-5.6312;
583850399823710;-10.2909;0.5237;-4.3783;
583850409928397;-6.3888;0.5788;-2.3949;
583850420033085;-1.1593;0.2985;-4.8359;
583850430165064;-15.0365;-0.0706;-6.0024;
583850440269751;-22.9872;0.2171;2.9351;
583850450374439;-8.5208;1.7979;7.0436;
583850460460168;-1.0205;1.3190;-2.2391;
583850470564855;-8.6764;-1.2347;-8.6973;
583850480669543;-12.9212;-0.1902;-7.0373;
583850490781105;-7.6415;0.8901;-3.7125;
583850500885793;-6.6763;1.8915;-5.4849;
583850510990428;-10.3869;0.9117;-5.8301;
583850521085480;-8.6501;1.1800;-2.7589;
583850531190220;-7.2631;0.6099;-3.3840;
583850541294907;-9.9628;0.4636;-4.0478;
583850551393814;-10.6505;0.3296;-1.0199;
583850561498501;-8.5400;0.1810;-0.2079;
583850571603137;-10.5497;0.6721;-1.4797;
583850581752303;-9.6682;0.1187;-0.4519;
583850591856991;-10.9738;-0.0488;1.3134;
583850601961678;-4.7886;-0.6957;1.8571;
583850612032147;-4.4315;-0.5279;-11.4571;
583850622136835;-14.4712;0.0302;-15.3664;
583850632241522;-15.1588;2.3369;0.2186;
583850642369126;-6.6523;1.6926;4.6983;
583850652473814;-5.9288;0.3296;-4.6633;
583850662578501;-12.6386;0.5213;-4.8144;
583850672651210;-14.0064;-0.0655;2.1302;
583850682755897;-7.5601;-0.2070;0.4869;
583850692860585;-4.9250;-0.5160;-4.9555;
583850702977668;-8.9566;-0.4418;-5.1736;
583850713082355;-9.5462;-0.1567;-2.9267;
583850723187043;-8.2286;0.3918;-3.4753;
583850733315897;-9.8839;0.5261;-3.3745;
583850743420585;-9.2489;0.1618;-2.3925;
583850753525272;-8.1565;0.0757;-3.0105;
583850763612980;-8.8681;0.4807;-4.5102;
583850773717668;-10.9068;0.5261;-3.8393;
583850783822355;-10.8491;0.6505;-2.9387;
583850793939022;-7.9962;-0.0344;-2.1817;
583850804043710;-7.9986;0.0613;-3.6380;
583850814148397;-11.6157;0.0972;-3.9182;
583850824241314;-11.9441;0.2698;-1.4916;
583850834346001;-8.6213;1.0077;-1.2042;
583850844450689;-6.4510;0.4253;-4.4719;
583850854554335;-12.5357;0.8471;-4.7785;
583850864659022;-9.0742;1.0699;-1.2882;
583850874763710;-7.3181;0.5453;-2.6895;
583850884870585;-10.2072;0.5596;-3.7077;
583850894975272;-5.4712;0.2554;-1.9301;
583850905079960;-10.8757;0.4469;-5.1640;
583850915190585;-10.8251;0.9045;-3.1352;
583850925295272;-8.6620;0.4421;-1.0104;
583850935399960;-7.8643;0.6673;-2.6345;
583850945499855;-10.5042;0.4636;-3.8943;
583850955604543;-9.9365;0.4540;-2.9913;
583850965709230;-8.2549;0.6027;-2.2606;
583850975807043;-10.9187;0.4540;-3.2405;
583850985911730;-9.1675;0.4831;-3.5901;
583850996016418;-6.3649;1.3836;-4.6825;
583851006135689;-11.5128;1.1201;-5.5977;
583851016240376;-10.1163;1.0436;-2.5624;
583851026345064;-7.8021;1.3860;-2.9483;
583851036446262;-9.8312;0.7032;-1.7671;
583851046550949;-9.4645;-0.2094;-1.6642;
583851056655637;-7.6920;0.5835;-2.9818;
583851066749022;-8.8107;0.4301;-4.0645;
583851076853710;-13.4770;1.0077;-3.9520;
583851086958397;-11.4936;1.3214;-0.8258;
583851097065480;-6.1684;0.5883;-0.6939;
583851107170168;-8.5711;-0.0272;-4.7689;
583851117274855;-11.7284;0.1786;-3.6814;
583851127374126;-8.3219;1.0795;-2.6345;
583851137478814;-7.2583;0.9571;-5.1736;
583851147583501;-8.4033;0.4038;-6.0096;
583851157692876;-9.6706;0.6218;-3.8656;
583851167797564;-12.3129;0.4926;-2.4332;
583851177902251;-10.1306;0.3535;-0.0903;
583851188002407;-6.1253;0.4854;-1.0989;
583851198107095;-8.5161;-0.4202;-5.3198;
583851208211782;-10.1641;0.3129;-4.6490;
583851218319126;-10.5999;0.1929;-1.9899;
583851228423814;-10.6600;0.4974;-2.3228;
583851238528501;-8.6644;0.3751;-3.7819;
583851248635168;-9.0191;0.3153;-3.4657;
583851258739855;-11.0145;-0.0224;-2.8451;
583851268844491;-10.3893;-0.0631;-3.7101;
583851278955897;-8.2884;0.8423;-3.2572;
583851289060585;-8.7075;0.2913;-3.1663;
583851299165272;-11.4458;0.0900;-3.1926;
583851309281418;-9.5797;-0.0897;-0.7899;
583851319386105;-7.8882;-0.2979;-1.8703;
583851329490793;-8.8585;-0.0464;-4.8742;
583851339579022;-8.9590;0.2506;-4.0358;
583851349683657;-9.6730;0.3631;-2.3109;
583851359788397;-10.2024;0.0876;-2.8813;
583851369878397;-9.7232;0.4397;-2.5002;
583851379983085;-7.6968;0.3392;-1.6020;
583851390087720;-8.5137;-0.3604;-4.5102;
583851400251105;-10.3173;0.1570;-4.6513;
583851410355793;-10.5281;0.9476;-3.3721;
583851420460428;-8.3937;0.6769;-3.9520;
583851430555064;-8.2502;0.3464;-2.4691;
583851440659699;-11.5558;0.6314;-2.3686;
583851450764387;-10.3989;0.2387;-2.8618;
583851460820272;-10.1521;0.3464;-0.8976;
583851470924960;-9.1914;0.4253;-1.7671;
583851481029595;-7.1794;0.6888;-4.1172;
583851491152512;-9.8671;0.6793;-3.7053;
583851501257199;-11.5654;0.0876;-2.2678;
583851511361887;-8.4826;0.2937;-2.6465;
583851521470116;-8.2860;0.4636;-3.1615;
583851531574803;-11.8672;-0.1878;-3.1158;
583851541679491;-9.9724;1.1632;-0.9287;
583851551782147;-6.8127;0.9045;-3.5542;
583851561886835;-6.2928;0.7442;-4.7498;
583851571991470;-9.6562;0.9739;-3.8584;
583851582104439;-10.6505;-0.5327;-4.1722;
583851592209126;-9.6610;0.8806;-2.1386;
583851602313762;-7.3134;-0.0392;-2.1745;
583851612407355;-10.9977;0.4229;-4.3950;
583851622512043;-13.6113;0.9882;-1.4438;
583851632616678;-11.9390;1.0196;-0.2103;
583851642750793;-10.6552;1.3932;1.1722;
583851652855428;-10.5377;0.1331;-1.7862;
583851662960116;-2.5343;-0.1496;-2.7517;
583851673029960;1.1569;-0.3338;-8.7356;
583851683134647;-13.7429;0.1235;-14.3892;
583851693239282;-16.1719;1.6448;-1.8535;
583851703343397;-8.4778;0.5931;1.6295;
583851713448085;-3.7107;0.7271;1.2368;
583851723552720;-7.3899;-0.4848;-3.5207;
583851733655689;-13.7859;-0.2142;-3.6476;
583851743760376;-11.7212;0.2243;-0.5719;
583851753865012;-6.9446;0.5955;-2.4595;
583851763979751;-7.9241;0.4926;-3.0344;
583851774084439;-10.8658;-0.0706;-7.1067;
583851784189074;-11.8337;0.8399;-3.3912;
583851794297772;-8.5376;0.9500;-3.5782;
583851804402460;-10.4563;1.6878;-3.7507;
583851814507095;-14.0160;0.8925;-1.4462;
583851824615793;-7.8571;0.7056;6.5644;
583851834720480;-2.9034;-0.7268;-0.9335;
583851844825116;-9.1771;-1.6059;-9.7753;
583851854926210;-12.1618;-0.0511;-6.8456;
583851865030897;-8.8466;1.0723;-0.0855;
583851875135532;-4.2999;0.5620;-1.5203;
583851885241001;-9.1675;0.1211;-6.7499;
583851895345689;-11.9871;0.7319;-2.7087;
583851905450324;-10.1354;0.4397;-1.0941;
583851915555689;-9.5605;0.3607;-3.3984;
583851925660376;-8.2908;0.5907;-3.4202;
583851935765012;-9.7041;0.8351;-3.2548;
583851945869230;-12.8327;1.3382;-4.7928;
583851955973918;-9.1053;1.0196;-1.5494;
583851966078553;-7.1339;0.4831;-2.1960;
583851976201730;-9.2922;-0.2883;-3.9879;
583851986306418;-10.3487;0.1427;-2.6536;
583851996411053;-7.6343;0.2698;-2.7733;
583852006509751;-8.8466;0.4062;-3.2094;
583852016614439;-11.1245;-0.0849;-3.4178;
583852026719074;-9.2994;0.1235;-0.1645;
583852036808189;-8.8753;0.2722;-3.6571;
583852046912876;-9.8312;0.3823;-2.6154;
583852057017512;-8.2238;0.3488;-2.5146;
583852067133085;-10.4037;0.4950;-4.3208;
583852077237772;-10.0298;1.2015;-3.8536;
583852087342407;-8.4224;0.9308;-3.3147;
583852097435793;-9.6610;0.9882;-2.7015;
583852107540480;-8.6429;0.2674;-2.9291;
583852117645116;-11.0527;0.6194;-3.0870;
583852127751001;-10.1306;0.6147;-2.4787;
583852137855689;-7.8308;0.4445;-1.9397;
583852147960324;-8.0991;0.5931;-2.6512;
583852158067147;-10.1091;-0.0057;-3.8536;
583852168171835;-9.9509;0.7104;-3.4561;
583852178276470;-7.2607;0.6434;-3.5830;
583852188393814;-10.0708;0.8255;-4.1913;
583852198498501;-11.9031;0.9452;-3.2620;
583852208603137;-9.8862;0.9763;-2.3590;
583852218687668;-8.9973;1.1608;-1.7384;
583852228792303;-10.5832;0.4038;-1.7049;
583852238896991;-12.1570;-0.2548;-2.4523;
583852248995272;-8.4849;0.1953;-1.3792;
583852259099960;-1.4803;0.5118;-4.5508;
583852269204595;4.9995;-0.5877;-11.3539;
583852279321105;-29.0620;0.3129;-9.7681;
583852289425793;-23.6626;-0.5231;8.0662;
583852299530428;3.8665;0.4014;9.2234;
583852309647199;1.3917;1.4961;-7.1450;
583852319733241;-14.2531;-1.4503;-10.5993;
583852329837928;-17.0246;-1.8335;-2.8379;
583852339942564;-9.2010;0.6769;1.9531;
583852350074022;-2.8146;2.2484;-3.9377;
583852360178710;-8.4969;0.0470;-7.1668;
583852370283345;-12.5070;-0.6455;-3.8082;
583852380381626;-11.2947;0.8183;-3.6428;
583852390486262;-10.2861;0.6793;-2.4428;
583852400590949;-12.9858;0.7609;1.6439;
583852410671835;-8.5137;-0.9640;9.3359;
583852420776522;0.2563;-1.2514;-5.1066;
583852430881157;-15.9876;-1.5532;-17.2373;
583852441008970;-12.4783;-0.0607;-2.4212;
583852451113657;-5.2702;2.8687;1.6080;
583852461218345;-7.2057;1.3214;-3.9449;
583852471307147;-8.6333;0.0135;-4.5556;
583852481411835;-10.6648;0.1187;-3.2501;
583852491516470;-10.4372;0.0805;-2.7517;
583852501625480;-8.6692;0.8183;-2.9985;
583852511730168;-9.0503;0.0996;-3.2022;
583852521834803;-9.5342;0.6099;-2.1745;
583852531930532;-9.0455;0.4660;-3.6308;
583852542035272;-11.1751;0.4735;-4.0573;
583852552139907;-9.8504;0.6601;-1.6714;
583852562264751;-5.6581;0.7801;-4.1267;
583852572369439;-12.5094;0.8853;-4.2897;
583852582474074;-11.2445;1.5272;-1.1539;
583852592587980;-4.7767;0.8782;-1.4797;
583852602692668;-5.7802;0.0876;-4.3807;
583852612797303;-11.9991;-0.1137;-4.6848;
583852622871105;-11.0192;0.4660;-2.6871;
583852632975793;-8.0489;1.2398;-2.1003;
583852643080428;-7.0092;0.5094;-2.6154;
583852653189335;-8.1182;0.4373;-4.0956;
583852663294022;-13.4554;0.4588;-3.6212;
583852673398657;-11.0480;0.9763;-0.0473;
583852683503710;-5.9839;0.6793;-2.2869;
583852693608397;-10.7773;0.9069;-3.4920;
583852703713032;-12.2315;1.1010;-1.0463;
583852713821626;-7.9723;0.7872;-1.6786;
583852723926314;-8.1135;0.5213;-3.0464;
583852734030949;-10.5281;0.2746;-2.0186;
583852744151157;-10.0418;0.5764;-2.4260;
583852754255845;-9.2225;0.7442;-3.0057;
583852764360480;-7.4070;0.3775;-2.5193;
583852774456522;-8.5831;-0.0272;-4.5341;
583852784561210;-11.2373;0.8542;-2.8717;
583852794665845;-9.3162;0.5788;-0.9718;
583852804762355;-6.6165;0.3918;-3.7914;
583852814867043;-9.9556;0.6912;-5.1688;
583852824971678;-11.6925;0.7896;-2.3710;
583852835087460;-7.0953;0.9667;-2.1769;
583852845192095;-7.5434;0.2243;-3.2548;
583852855296782;-10.1330;-0.2644;-4.5508;
583852865414335;-9.7208;0.4397;-3.3051;
583852875519022;-8.9542;0.7729;-2.8187;
583852885623657;-10.7007;0.1905;-2.6680;
583852895703085;-14.8113;-0.0682;-1.3002;
583852905807772;-14.2340;0.2554;2.4945;
583852915912407;-8.8059;0.8542;1.8117;
583852926026522;-4.9681;-0.2166;-2.9985;
583852936131210;-4.0196;-0.5758;-7.4925;
583852946235845;-13.5658;0.3368;-7.8565;
583852956342824;-14.6004;1.0388;-1.5900;
583852966447512;-5.8905;0.9954;0.5468;
583852976552147;-6.5324;-0.0176;-3.1229;
583852986669126;-12.7705;0.0182;-4.1028;
583852996773814;-10.6481;0.6242;-1.3528;
583853006878449;-4.6352;0.6099;-1.9181;
583853016963814;-6.5492;-0.4083;-6.3547;
583853027068501;-9.8216;-0.1137;-6.4863;
583853037173137;-9.2417;0.8566;-6.4935;
583853047280689;-9.1555;1.2541;-7.5308;
583853057385376;-10.6074;1.4961;-3.8895;
583853067489960;-10.2598;0.7175;2.3506;
583853077601939;-5.8977;0.1187;2.0417;
583853087706626;-8.6118;0.0829;-5.6480;
583853097811262;-13.1991;-0.3915;-5.2382;
583853107914230;-10.0490;0.1044;-1.3313;
583853118018918;-6.5587;0.7319;-3.6045;
583853128123553;-8.7700;0.0015;-5.1688;
583853138224074;-13.1441;-0.1328;-2.0593;
583853148328710;-8.7437;-0.2213;1.5697;
583853158433397;-4.8843;0.0709;-2.5839;
583853168529543;-10.4659;-0.4035;-5.2911;
583853178634230;-13.6113;0.1379;-1.9014;
583853188738866;-9.9245;0.5931;1.2009;
583853198842668;-6.1397;0.3727;-0.7083;
583853208947355;-8.8753;-0.2740;-4.3926;
583853219051991;-10.7868;-0.2022;-4.0717;
583853229166418;-7.1865;0.6984;-4.3328;
583853239271105;-7.8619;0.2124;-5.3605;
583853249375741;-9.5462;0.3033;-4.3448;
583853259497355;-9.7998;-0.0057;-3.1783;
583853269602043;-8.8418;0.7609;-2.3252;
583853279706678;-9.3784;0.6912;-3.3410;
583853289795897;-9.2225;0.4445;-1.9780;
583853299900585;-8.4607;1.0651;-1.9301;
583853310005220;-8.5831;0.0446;-4.0573;
583853320104855;-8.6453;-0.0129;-3.8512;
583853330209595;-11.8170;1.1632;-3.7651;
583853340314335;-11.6806;0.9308;-2.2319;
583853350436210;-4.4459;0.6458;-2.4595;
583853360540949;-8.9136;-0.0993;-3.1783;
583853370645689;-11.4506;-0.1591;-2.2391;
583853380733293;-10.8132;-0.0826;-0.8450;
583853390838032;-15.6473;0.4684;-0.1501;
583853400942772;-12.4373;1.2951;2.2140;
583853411099022;-0.7211;0.5213;-0.0377;
583853421203762;-8.6261;-0.6287;-6.8264;
583853431308501;-14.3611;-0.9233;-5.1257;
583853441359230;-8.2932;1.0819;-0.1167;
583853451463918;-6.1086;1.6184;-3.0464;
583853461568710;-8.4296;0.3248;-5.7748;
583853471700376;-12.5883;0.1666;-5.2406;
583853481805116;-12.7271;0.8566;0.1301;
583853491909855;-5.0880;0.0015;1.3134;
583853501998970;-7.8260;-0.0344;-3.6356;
583853512103710;-12.1331;-0.0511;-5.2768;
583853522208449;-8.7915;0.7370;-5.2621;
583853532302668;-13.0412;1.5419;-6.2563;
583853542407407;-10.9953;1.1512;1.7830;
583853552512147;-7.0762;0.8423;0.2258;
583853562619335;-11.0145;0.3464;-5.0731;
583853572724074;-11.2014;-0.2166;-2.2774;
583853582828814;-8.2908;1.0149;-1.9804;
583853592921574;-7.4692;-0.2764;-4.0597;
583853603026314;-7.5601;-0.2716;-4.7856;
583853613131053;-9.5124;-0.1113;-4.7952;
583853623249230;-9.7926;0.8040;-3.4059;
583853633353970;-7.0666;0.3272;-3.4274;
583853643458710;-9.2994;0.6721;-3.1086;
583853653576418;-11.6372;0.3703;-1.1946;
583853663681157;-6.9852;0.4950;-1.6211;
583853673785897;-5.9049;0.2578;-4.5269;
583853683880897;-9.7041;0.3679;-6.3835;
583853693985637;-12.1738;0.8088;-4.6466;
583853704090376;-12.5381;0.9571;-0.4065;
583853714196314;-10.0732;0.6242;1.0331;
583853724301053;-8.2837;0.2770;0.7337;
583853734405793;-9.8599;-0.1041;-2.0378;
583853744524543;-10.8706;-0.2429;-2.6536;
583853754629282;-8.5854;0.8877;-1.3026;
583853764734022;-7.9508;0.7104;-2.3228;
583853774834335;-7.2775;-0.0176;-3.4226;
583853784939074;-9.1531;0.3440;-6.3377;
583853795043814;-10.6170;1.0125;-3.5710;
583853805143397;-7.4548;1.0747;-2.0545;
583853815248137;-9.5749;0.4564;-2.6465;
583853825352876;-9.6515;0.7319;-2.4930;
583853835452147;-7.9508;0.0494;-3.3290;
583853845556887;-12.0518;1.0890;-5.0010;
583853855661626;-14.2531;1.5658;-1.8535;
583853865757824;-9.4573;1.7213;1.3875;
583853875862564;-6.9063;1.1967;-1.3217;
583853885967303;-7.7638;-0.1208;-3.5638;
583853896076157;-7.3926;-0.0105;-5.5184;
583853906180897;-9.0479;0.8973;-5.4849;
583853916285637;-10.4539;0.8901;-4.1554;
583853926391314;-11.5128;1.1704;-1.6570;
583853936496053;-7.5553;0.5788;-0.2821;
583853946600793;-6.3649;0.3727;-2.9363;
583853956712564;-11.9632;0.4062;-4.6777;
583853966817303;-13.3334;1.2589;-1.9684;
583853976922043;-9.1723;1.3454;-0.9646;
583853987033293;-8.9495;1.0460;-2.9315;
583853997138032;-9.4047;1.1441;-3.9087;
583854007242772;-8.9782;0.4229;-3.2644;
583854017342564;-8.4200;1.0962;-3.4825;
583854027447303;-7.0905;-0.3051;-2.9483;
583854037552043;-9.8791;-0.2166;-3.7220;
583854047658241;-10.4683;0.1594;-3.3314;
583854057762980;-6.8031;0.1499;-2.6154;
583854067867720;-11.1966;0.1642;-3.8991;
583854077966939;-14.0303;0.1187;-1.1587;
583854088071678;-9.8815;0.6649;0.5157;
583854098176418;-8.0058;0.8949;-1.9636;
583854108296939;-4.3190;-0.4083;-5.3797;
583854118401678;-3.8231;-0.3290;-9.1597;
583854128506418;-9.6754;0.1211;-8.7380;
583854138593605;-15.4149;0.4373;-2.0521;
583854148698345;-11.8887;0.3727;2.6955;
583854158803085;-6.1588;-0.5160;2.5089;
583854168899491;-9.0311;-0.4298;-2.4523;
583854179004230;-13.7189;-0.4609;-4.1052;
583854189108970;-11.8552;0.0374;-0.0138;
583854199212564;-7.0044;0.8255;-1.1372;
583854209317303;-8.4535;-0.0754;-6.3739;
583854219422043;-9.9844;0.4445;-6.1439;
583854229513189;-9.6634;0.8447;-2.3228;
583854239617928;-9.5195;-0.1926;0.1612;
583854249722668;-6.9517;-0.1854;0.9446;
583854259874960;-7.5936;-0.9784;-3.6308;
583854269979699;-10.1761;-0.9018;-5.4586;
583854280084439;-10.2072;-0.4777;-4.5413;
583854290154230;-9.4238;0.7128;-3.1974;
583854300258970;-8.6572;0.4469;-3.6500;
583854310363710;-7.2583;0.5477;-3.7364;
583854320493605;-10.8757;0.6218;-4.5604;
583854330598501;-10.9259;0.3416;-2.3447;
583854340703397;-10.8706;0.4421;-1.7791;
583854350783762;-10.1904;0.7657;-0.2462;
583854360888657;-8.5663;0.0063;-1.2281;
583854370993605;-10.5473;-0.8321;-2.0019;
583854381098241;-9.1077;-0.5040;-1.3672;
583854391203137;-9.5366;-0.0778;-3.0966;
583854401308032;-10.8227;0.6194;-3.5853;
583854411433345;-9.5892;0.2602;-1.4892;
583854421538241;-9.1531;0.4807;-2.1386;
583854431643137;-8.7290;0.2865;-2.2989;
583854441762407;-10.0514;0.0924;-2.9841;
583854451867303;-0.7690;-0.0081;-3.9206;
583854461972199;-7.6992;-0.6431;-8.6255;
583854472065428;-20.4814;-0.0320;-5.9019;
583854482170324;-8.0680;0.5309;3.3927;
583854492275220;-0.4047;0.0733;-1.8727;
583854502386470;-9.8336;0.0757;-8.2591;
583854512491366;-15.7337;0.3129;-3.2333;
583854522596262;-10.9953;0.6601;2.6213;
583854532709595;-7.9914;0.5716;-0.3610;
583854542814491;-7.7830;0.5931;-3.5231;
583854552919387;-9.1196;0.1044;-3.8321;
583854562979699;-8.6166;-0.0607;-4.0573;
583854573084595;-14.5454;0.1953;-1.9660;
583854583189543;-2.4051;-0.4490;4.2885;
583854593297095;-10.4587;-0.1304;-10.6379;
583854603401991;-17.0776;0.1092;-4.6107;
583854613506887;-10.7749;1.1201;5.8744;
583854623620637;-7.3373;0.6769;0.7552;
583854633725532;-6.1134;0.1953;-4.2873;
583854643830428;-9.3568;-0.3461;-5.8445;
583854653930949;-9.1603;0.4277;-4.7351;
583854664035845;-5.3444;0.6147;-5.2023;
583854674140741;-9.2082;0.1905;-6.6517;
583854684244074;-10.4348;0.5453;-2.5433;
583854694348970;-10.4181;0.4134;-0.8186;
583854704453866;-9.1053;0.3368;-1.4342;
583854714561678;-8.5639;0.2076;-2.9889;
583854724666574;-11.8361;1.0531;-3.5997;
583854734771522;-10.5042;0.9571;-2.8956;
583854744887512;-9.1316;0.8830;-2.4069;
583854754992407;-8.4754;1.2685;-2.9148;
583854765097303;-9.6419;0.6099;-3.8393;
583854775192095;-10.8323;0.7223;-1.1683;
583854785296991;-8.7389;0.0900;-0.6867;
583854795401887;-10.2168;-0.3939;-2.6273;
583854805506991;-11.0958;-0.0730;-0.5025;
583854815611887;-7.8380;-0.1711;-2.9530;
583854825716835;-7.7518;0.7490;-4.6848;
583854835824803;-10.5951;1.0795;-3.8249;
583854845929699;-8.7580;0.6170;-2.6632;
583854856034647;-9.5653;0.1666;-3.9784;
583854866135116;-9.0024;0.9978;-2.7111;
583854876240012;-7.2823;0.3488;-3.3194;
583854886344960;-8.6883;0.3153;-3.6428;
583854896456262;-10.0274;0.4158;-4.5102;
583854906561157;-9.8575;0.0876;-2.1697;
583854916666053;-7.8165;0.2506;-3.5064;
583854926763866;-10.6361;0.6194;-4.5604;
583854936868762;-13.4028;0.9882;-1.9684;
583854946973710;-10.5640;0.9093;1.4812;
583854957089335;-6.4080;0.6649;-0.4666;
583854967194178;-9.2560;0.1451;-3.9568;
583854977299126;-11.2158;-0.1496;-4.0932;
583854987405428;-7.3014;0.6793;-2.1601;
583854997510324;-7.8906;-0.1376;-4.3639;
583855007615220;-10.6122;0.1020;-3.5327;
583855017706991;-10.6696;0.1116;-1.2811;
583855027811887;-7.9316;-0.0535;-2.3399;
583855037916782;-7.5577;0.5046;-3.4848;
583855048022512;-9.6993;0.0206;-2.3566;
583855058127407;-9.6802;0.2100;-2.7302;
583855068232355;-10.0107;0.4134;-3.6188;
583855078333553;-10.8948;0.6529;-2.0569;
583855088438449;-10.1282;0.8447;-0.9526;
583855098543397;-9.4095;0.1857;-2.4260;
583855108626730;-7.9316;-0.0826;-2.5241;
583855118731626;-7.9890;-0.0224;-2.7829;
583855128836522;-9.7759;-0.0873;-5.6049;
583855138949230;-9.3808;0.0924;-3.7938;
583855149054126;-9.5701;1.1847;-1.9804;
583855159159022;-8.9399;0.3631;-0.5168;
583855169267616;-7.6534;0.3105;-1.4103;
583855179372512;-10.0633;0.1714;-3.3936;
583855189477407;-11.1703;0.2315;-2.6656;
583855199579491;-9.5797;0.5477;-2.6824;
583855209684387;-10.4252;0.2435;-2.8789;
583855219789335;-12.9332;0.6769;-1.6259;
583855229912824;-11.2038;0.4062;0.0221;
583855240017720;-7.3158;0.2841;-1.0630;
583855250122616;-9.4286;0.4205;-3.1181;
583855260206366;-11.2540;-0.1089;-2.3877;
583855270311262;-6.8967;0.6769;-1.7551;
583855280416210;-8.0656;0.0876;-4.0334;
583855290536105;-7.0020;-0.0945;-5.0180;
583855300641001;-6.6332;0.4397;-5.6647;
583855310745845;-11.6420;0.5548;-6.3353;
583855320827980;-12.4349;0.6170;-2.4739;
583855330932512;-8.2286;0.3392;-0.9120;
583855341036991;-6.0509;1.0675;-5.1903;
583855351161001;-11.3043;0.3320;-3.9425;
583855361265480;-11.8887;0.8782;-0.6341;
583855371369960;-7.9747;0.5213;-0.5312;
583855381460689;-8.4177;0.3846;-3.2812;
583855391565168;-9.4860;0.3129;-2.5624;
583855401669647;-8.4200;0.1499;-2.0617;
583855411782824;-9.2513;-0.3147;-2.2726;
583855421887303;-10.0828;-0.0440;-1.7575;
583855431991835;-9.8480;-0.2668;-2.9961;
583855442093657;-8.2645;0.9236;-3.7412;
583855452198137;-10.6552;0.4831;-3.1759;
583855462302668;-11.9728;0.3129;0.4080;
583855472456001;-7.3708;0.5453;0.1469;
583855482560480;-8.7556;0.4253;-2.8884;
583855492664960;-11.0504;-0.0945;-3.0488;
583855502736939;-7.5649;0.9069;-2.3782;
583855512841418;-7.1698;-0.2620;-4.5532;
583855522945949;-10.1880;0.3320;-4.1650;
583855533035168;-9.1220;0.3153;-2.8331;
583855543139647;-7.0857;0.7128;-5.6551;
583855553244126;-11.2086;0.8973;-3.7364;
583855563359022;-14.5430;0.9476;0.0173;
583855573463501;-8.2430;1.0675;0.1445;
583855583568032;-6.8486;1.2760;-2.2271;
583855593676835;-11.4194;-0.0416;-3.3123;
583855603781314;-9.7543;-0.0778;-2.7948;
583855613885793;-6.8079;0.9356;-3.4920;
583855623998189;-8.5184;-0.0272;-4.0190;
583855634102668;-11.6707;-0.2261;-3.3410;
583855644207147;-11.0671;0.4807;-1.7456;
583855654316418;-9.9341;0.8351;-0.9960;
583855664420897;-7.7925;0.1211;1.1937;
583855674525376;-6.3000;-0.0921;-3.3601;
583855684618189;-9.1077;-0.3170;-7.0684;
583855694722668;-10.6528;1.1800;-3.8967;
583855704827147;-7.4740;0.5668;-2.8570;
583855714948918;-10.0851;0.0446;-3.7699;
583855725053397;-12.4756;0.1977;-1.6164;
583855735157876;-10.9642;0.6577;0.7911;
583855745269230;-7.6080;0.3918;-0.9191;
583855755373710;-8.6309;0.2985;-3.8249;
583855765478189;-11.3258;0.4134;-3.1400;
583855775559230;-9.4262;0.5572;-2.2893;
583855785663710;-9.1364;0.7466;-2.8379;
583855795768241;-11.4048;0.3416;-1.5350;
583855805873605;-6.9302;0.3105;-0.8545;
583855815978085;-5.3683;-0.0826;-3.4418;
583855826082564;-10.4898;-0.7579;-5.5642;
583855836193397;-10.4109;0.5429;-4.5269;
583855846297876;-11.3809;1.1417;-3.6643;
583855856402355;-10.6720;0.4158;-1.6881;
583855866506835;-8.4153;0.5596;0.6284;
583855876611314;-10.3558;0.7561;-2.1194;
583855886715793;-9.8145;-0.4896;-1.7360;
583855896819751;-8.7891;0.4493;-2.1577;
583855906924230;-7.1865;0.0924;-4.2538;
583855917028710;-8.9590;0.0302;-5.0779;
583855927134543;-11.1392;0.0517;-2.3782;
583855937239022;-10.6433;0.1546;-1.3839;
583855947343501;-8.5137;-0.2118;-2.3925;
583855957451105;-5.6079;0.1235;-2.5146;
583855967555585;-10.7079;-0.0009;-4.6561;
583855977660064;-16.5171;0.2363;-2.1840;
583855987758397;-8.5783;1.1608;0.9302;
583855997862876;-6.0559;0.3894;-1.9612;
583856007967355;-7.6801;0.1953;-3.6933;
583856018083814;-8.4849;-0.4274;-4.4501;
583856028188293;-9.8336;-0.1854;-3.7292;
583856038292772;-7.3851;-0.3314;-2.8594;
583856048390897;-9.3520;0.1929;-5.8780;
583856058495376;-12.3177;0.1522;-2.7159;
583856068599855;-12.0805;0.0565;1.5625;
583856078703918;-9.1890;0.4831;2.3626;
583856088808397;-8.9758;0.1834;-2.9363;
583856098912876;-12.5118;0.6075;-4.6729;
583856109018605;-7.4142;0.8136;-1.2138;
583856119123085;-4.7456;0.4110;-4.1722;
583856129227564;-12.4205;-0.3314;-5.1162;
583856139331418;-12.3440;0.3823;-0.6724;
583856149435897;-5.9121;0.7343;-0.7131;
583856159540428;-5.0186;-0.1232;-2.9267;
583856169647824;-11.0671;-0.4633;-4.3400;
583856179752303;-12.1020;0.1475;-3.1878;
583856189856835;-7.6777;0.8686;-2.1745;
583856199953501;-9.7448;0.9452;-4.5724;
583856210057980;-13.2446;0.8518;-2.7900;
583856220162460;-10.7868;1.2685;0.4008;
583856230293085;-9.5315;0.5094;0.9039;
583856240397564;-7.3158;0.2100;-1.2425;
583856250502043;-7.5960;-0.2046;-5.4945;
583856260666939;-11.9318;0.5931;-3.8632;
583856270771418;-10.1402;0.2124;0.8055;
583856280875897;-7.3277;0.2001;-1.6427;
583856290892355;-8.8418;0.0876;-4.1602;
583856300996887;-10.0804;0.2148;-2.3276;
583856311101366;-8.2478;0.3224;-2.9291;
583856321279803;-8.9806;0.6027;-5.6264;
583856331385168;-12.9715;0.3296;-3.5830;
583856341490532;-10.4970;1.3980;-1.7336;
583856351532043;-9.1843;0.8088;-2.0812;
583856361637355;-11.1918;0.9547;-0.0425;
583856371742720;-8.7772;-0.0921;0.6667;
583856381841574;-6.7241;0.2794;-2.5959;
583856391946939;-9.0287;-0.0153;-4.8431;
583856402052251;-9.5821;0.3176;-4.4958;
583856412150064;-1.6385;0.1475;-4.3017;
583856422255428;-3.3176;-0.1759;-8.2783;
583856432360741;-16.2368;-0.1639;-6.4863;
583856442470168;-15.5444;1.0101;-0.1860;
583856452575532;-6.2593;1.5129;1.2153;
583856462680845;-0.3425;0.8351;-0.9718;
583856472800272;-23.7033;-0.1496;-4.8503;
583856482905585;-20.2708;1.6998;5.2373;
583856493010949;6.5901;1.5826;4.6959;
583856503107564;-7.2177;-0.0730;-8.4075;
583856513212876;-15.0987;-1.7234;-7.4949;
583856523318241;-10.9355;0.1379;1.1698;
583856533410637;-5.3061;1.2446;3.7089;
583856543516053;-6.0269;-0.6335;-5.3366;
583856553621366;-9.6227;-0.3338;-8.8340;
583856563733501;-11.1918;0.2267;-2.9698;
583856573838814;-9.0526;-0.0129;1.6920;
583856583944178;-1.6696;0.7104;-2.8956;
583856594046314;-16.1958;1.2230;-16.5380;
583856604151626;-20.6587;1.8772;3.2560;
583856614256991;-2.6614;1.0172;10.9863;
583856624367460;-5.2053;0.8853;-8.1679;
583856634472772;-12.7777;-0.7005;-4.9053;
583856644578137;-14.3851;0.4636;-0.9742;
583856654673605;-11.2182;1.5706;0.1421;
583856664778918;-4.2999;0.3775;-0.3897;
583856674884282;-7.3325;-0.5327;-3.4107;
583856684991001;-8.6237;-0.6837;-2.2558;
583856695096314;-6.1708;0.3703;-4.7617;
583856705201678;-9.7807;-0.4896;-7.0086;
583856715312980;-8.5065;0.0709;-3.3840;
583856725418293;-10.5520;0.0733;-3.9903;
583856735523657;-12.2985;0.3799;-2.6608;
583856745629387;-12.2937;1.2541;2.3195;
583856755734699;-9.7807;0.3464;0.1612;
583856765840064;-11.4721;0.1475;-2.5217;
583856775938605;-10.3989;-0.3939;0.0461;
583856786043918;-7.3756;-0.0440;-1.0343;
583856796149282;-12.1929;-0.0224;-3.1325;
583856806241418;-11.1269;-0.2668;0.5779;
583856816346730;-0.0742;-0.4729;-1.2954;
583856826452095;-4.2736;-1.2156;-7.3415;
583856836559907;-10.4659;-0.6239;-8.7212;
583856846665220;-12.7319;-0.3652;-6.6060;
583856856770585;-11.4362;0.4445;-1.0534;
583856866930949;-5.1120;0.3727;-0.9072;
583856877036366;-7.8739;0.6864;-3.6909;
583856887141678;-17.3578;0.6338;-2.7326;
583856897185897;-13.2927;1.6256;3.3592;
583856907291262;-5.5265;0.5094;0.6380;
583856917396574;-6.2498;-0.0802;-5.2119;
583856927515064;-9.3066;-0.7196;-3.6838;
583856937620376;-6.2713;0.1857;-2.5720;
583856947725741;-8.4754;0.1116;-3.9425;
583856957813918;-12.1211;0.3248;-1.4605;
583856967919230;-9.3233;0.2961;-0.3921;
583856978024595;-9.9915;0.6553;-2.4547;
583856988125793;-6.1205;0.4229;-0.3347;
583856998231157;-6.9565;0.5859;-5.1449;
583857008336470;-14.5334;0.6936;-6.5677;
583857018447668;-11.4769;2.1503;-1.9421;
583857028552980;-10.0514;1.8126;0.6165;
583857038658345;-15.1274;1.7309;0.3431;
583857048756730;-7.3445;0.8566;2.3698;
583857058862095;-4.2209;0.2267;-0.5384;
583857068967407;-15.5779;-0.3075;-3.2501;
583857079069335;-7.3373;1.2541;-4.0478;
583857089174647;-6.9159;1.4602;-3.6619;
583857099280012;-13.8341;1.2832;-3.0799;
583857109421991;-7.1216;0.8614;-1.3074;
583857119527355;-5.7586;0.2148;-4.2179;
583857129632720;-14.4209;0.9141;-4.0884;
583857139698814;-13.5658;1.7381;-4.1889;
583857149804178;-7.6439;1.5538;-2.8307;
583857159909491;-13.0388;1.2063;-1.2185;
583857170007251;-12.6075;0.4735;2.0489;
583857180112564;-9.3162;0.5237;-0.8761;
583857190217980;-11.3761;-0.3676;-1.2835;
583857200325272;-9.3401;0.2411;-1.9469;
583857210430585;-4.1297;-0.1831;-4.3184;
583857220535949;-8.2573;-0.1711;-5.8732;
583857230652772;-12.7128;0.5596;-5.4491;
583857240758085;-11.6396;1.1249;-4.8718;
583857250863449;-7.4142;0.7968;-2.0788;
583857260933710;-6.4702;-0.0802;-2.2774;
583857271039074;-8.9183;0.3057;-3.8704;
583857281144387;-8.4296;0.6266;-4.7231;
583857291267564;-8.9112;0.8590;-6.4074;
583857301372876;-13.0388;1.3238;-3.6766;
583857311478241;-9.9628;0.5118;-1.1109;
583857321568293;-9.8862;0.8327;0.9661;
583857331672512;-9.2536;0.1331;0.5252;
583857341776730;-9.1053;0.0661;-1.8153;
583857351889803;-9.8264;0.9547;-3.2189;
583857361994022;-8.4200;0.1690;-3.2094;
583857372098241;-10.7198;1.2879;-2.5959;
583857382209907;-12.7753;0.5118;-2.0354;
583857392314126;-9.7017;0.7080;1.1169;
583857402418345;-2.9991;-0.3290;-0.8880;
583857412525168;-3.2171;-0.3266;-5.0659;
583857422629387;-9.4406;0.1929;-8.3070;
583857432733605;-13.6783;0.7128;-7.6576;
583857442838605;-10.9977;1.6400;-2.6154;
583857452942824;-6.9900;0.9882;0.4606;
583857463047043;-10.0250;0.4301;0.3673;
583857473149491;-12.7657;0.3129;1.2033;
583857483253710;-9.8647;0.6242;0.4558;
583857493357928;-9.6227;0.2961;-3.0894;
583857503479647;-11.6276;0.3392;-3.9736;
583857513583866;-9.3736;1.1010;-1.2715;
583857523688085;-9.0311;-0.4226;-0.2414;
583857533766991;-11.5176;0.2291;-0.7875;
583857543871157;-11.8074;-0.2453;-1.0175;
583857553975376;-6.0341;-0.0368;-0.7083;
583857564095324;-4.4821;-0.9640;-4.0238;
583857574199543;-6.6547;0.0709;-7.6768;
583857584303762;-10.0633;0.2219;-6.7307;
583857594414439;-12.0924;0.7896;-3.8584;
583857604518657;-7.3804;0.3344;-2.4835;
583857614622876;-8.6692;-0.2046;-1.0391;
583857624735585;-11.5295;0.1355;-1.8248;
583857634839803;-13.1871;0.6960;-1.5203;
583857644944022;-12.9332;0.5189;0.9230;
583857655039491;-9.8575;0.3440;-1.1396;
583857665143710;-7.9265;-0.5877;-0.8474;
583857675247928;-9.4693;0.5453;-2.2463;
583857685361522;-10.8036;-0.1304;-0.0305;
583857695465741;-6.6691;-0.5064;-0.7011;
583857705569960;-2.2588;-0.9377;-6.0335;
583857715698397;-5.3300;-0.5351;-7.3606;
583857725802616;-13.1154;-0.1352;-8.7260;
583857735906835;-13.1967;0.7561;-2.5986;
583857745999960;-9.2536;0.5644;0.6188;
583857756104178;-8.0680;0.5453;-0.9024;
583857766208345;-11.0647;0.9643;-2.5768;
583857776305168;-11.6611;0.7247;-1.3337;
583857786409387;-7.5027;1.2135;-0.7253;
583857796513605;-9.3473;0.8136;-2.2367;
583857806616001;-12.1810;0.5883;-2.9195;
583857816720220;-17.0584;1.3143;1.2081;
583857826824439;-3.5237;1.2039;3.7854;
583857836937980;4.9923;-0.2261;-4.2730;
583857847042199;-13.3693;-1.1267;-10.8485;
583857857146418;-15.9012;0.9236;-5.5642;
583857867213397;-6.4415;1.9394;-3.4561;
583857877317616;-8.1326;1.3071;-3.2094;
583857887421835;-7.2177;0.0350;-1.4055;
583857897558918;-12.3870;-0.0730;-1.1731;
583857907663137;-9.8264;0.6051;-0.5791;
583857917767355;-1.6959;0.0446;-3.1687;
583857927879439;-12.3272;0.7585;-9.5166;
583857937983657;-21.2360;1.2975;-3.1926;
583857948087876;-10.8203;1.8939;8.2555;
583857958182043;-2.5391;-0.0200;4.2335;
583857968286262;-12.8351;-0.9855;-2.3853;
583857978390480;-11.6949;0.0494;-0.9814;
583857988501626;-6.5850;1.2135;-2.8717;
583857998605845;-7.5625;0.3081;-5.0180;
583858008710064;-6.6547;0.7968;-5.6384;
583858018815897;-9.4023;0.1140;-7.6744;
583858028920116;-8.7461;1.1034;-3.3912;
583858039024335;-8.2717;0.8327;-4.0741;
583858049125897;-10.5138;0.5333;-3.6643;
583858059230116;-8.7075;0.6218;-1.6044;
583858069334335;-10.1019;1.0890;-3.9401;
583858079432147;-16.9935;1.3382;-1.0798;
583858089536366;-12.0685;1.4746;2.4993;
583858099640585;-6.5803;0.3583;0.4152;
583858109775064;-8.0297;-0.1400;-1.0487;
583858119879282;-6.9278;-0.1472;-3.6667;
583858129983501;-11.4482;0.5166;-5.3055;
583858140067407;-11.4506;-0.1089;-0.2964;
583858150171626;-6.1277;-0.1783;-1.5132;
583858160275845;-10.3077;0.3033;-4.3950;
583858170373085;-9.4238;0.3033;-2.9602;
583858180477303;-4.9418;-0.1376;-2.8932;
583858190581470;-13.8676;-0.1065;-6.0287;
583858200706939;-10.3798;0.2961;-2.8980;
583858210811157;-4.1010;-0.0296;-1.8153;
583858220915376;-11.8170;0.4110;-5.4036;
583858231041105;-12.5094;-0.3003;0.5803;
583858241145324;-9.6849;0.0876;2.0177;
583858251249491;-7.6920;-0.6048;-0.6676;
583858261320897;-22.9992;0.8830;0.3120;
583858271425116;-1.9522;-0.3748;2.3459;
583858281529335;6.4822;0.2578;-4.8287;
583858291651522;-13.8245;-0.8489;-10.0149;
583858301755741;-20.9175;0.0613;-5.4658;
583858311859960;-9.6443;0.3129;-1.3792;
583858321950272;-0.0622;0.4974;-1.0606;
583858332055012;-8.3291;-0.6790;-3.5183;
583858342159751;-15.0365;-0.8034;-0.6341;
583858352281730;-10.2861;0.2148;-1.3863;
583858362386470;-7.0211;0.6601;-2.1170;
583858372491210;-7.6582;-1.9292;-6.2157;
583858382604387;-18.2536;1.9322;-3.5183;
583858392709126;-9.4095;1.8197;6.4277;
583858402813866;2.5848;0.0637;-0.3514;
583858412897980;-7.2440;-0.2740;-9.7490;
583858423002720;-15.4247;0.4807;-7.9092;
583858433107460;-12.6649;1.3454;-0.2198;
583858443205897;-4.6496;0.8518;-0.0473;
583858453310637;-9.7065;0.4974;-3.5782;
583858463415376;-15.9996;0.4588;-0.1454;
583858473529907;-9.4478;1.3310;1.6992;
583858483634647;-7.6848;0.3870;-2.4021;
583858493739387;-12.0661;0.5501;-2.6154;
583858503858710;-11.4099;0.5022;-1.9493;
583858513963449;-12.5381;0.9930;-1.6618;
583858524068189;-4.2401;0.5883;-0.5384;
583858534154282;-4.6280;0.0230;-2.3901;
583858544259074;-12.4349;-0.6335;-4.9819;
583858554363814;-12.7968;0.4373;-4.0717;
583858564461105;-3.4137;0.8710;-3.0153;
583858574565845;-7.1216;-0.1017;-5.7891;
583858584670585;-13.0531;0.9619;-4.9938;
583858594779022;-10.5473;1.5368;-3.1615;
583858604883762;-4.2616;1.0771;-2.6943;
583858614988501;-10.4683;0.8566;-4.9077;
583858625097668;-14.1957;0.9978;-2.6130;
583858635202407;-14.1048;1.3286;2.0991;
583858645307147;-7.8165;0.2291;4.2694;
583858655408085;-6.5252;0.2052;-0.8880;
583858665512824;-10.2287;-0.5710;-3.7388;
583858675617564;-11.8624;-0.0392;-1.8105;
583858685721001;-8.1999;0.7319;-1.1157;
583858695825741;-5.4927;0.1881;-4.4501;
583858705930480;-8.4897;-0.3003;-6.5533;
583858716043501;-10.3415;0.8782;-3.6188;
583858726148241;-8.3028;0.0781;-1.2978;
583858736252980;-10.0609;0.2554;-2.3542;
583858746379022;-10.0585;0.2626;-2.2534;
583858756483762;-12.7466;0.9380;-1.9445;
583858766588501;-11.7188;0.5309;0.1588;
583858776679178;-4.8102;0.3823;-0.3778;
583858786783918;-5.2220;-0.2788;-4.4910;
583858796888657;-16.4234;-0.0153;-5.3294;
583858806989022;-11.2780;1.1321;-1.7575;
583858817093762;-0.5701;1.2374;-1.2667;
583858827198501;-7.2009;-0.1113;-4.0190;
583858837302355;-13.1704;-0.7603;-3.2189;
583858847407095;-11.9222;0.5548;-2.2774;
583858857511835;-10.9499;1.2685;-1.9038;
583858867600585;-8.2238;0.0517;0.5898;
583858877705376;-8.4634;0.2148;-4.0549;
583858887810116;-13.3334;0.5835;-0.8617;
583858897929647;-7.2894;0.9045;0.8318;
583858908034387;-7.7327;-0.1759;-5.0468;
583858918139126;-15.0604;0.7080;-4.2443;
583858928243293;-10.5257;0.3129;2.5448;
583858938348032;-4.3095;0.6482;0.9589;
583858948452772;-8.1111;-1.1076;-4.3400;
583858958556157;-11.3617;0.3799;-4.6729;
583858968660897;-9.0622;0.7008;-3.9951;
583858978765637;-8.8896;0.4373;-4.8359;
583858988862772;-7.8141;0.7729;-3.7292;
583858998967512;-9.7807;0.7681;-4.0502;
583859009072251;-14.8352;0.7705;-1.7216;
583859019188605;-8.3674;1.2063;0.2593;
583859029293345;-7.9002;0.2315;-1.2882;
583859039398085;-8.9399;-0.1615;-2.4404;
583859049492980;-12.7490;0.6170;-2.8403;
583859059597720;-10.8203;0.8542;-1.3887;
583859069702460;-7.2703;0.4588;-1.2114;
583859079814751;-12.0518;-0.4298;-1.0702;
583859089919491;-8.5137;-0.0969;-1.8918;
583859100024230;-4.0268;0.3416;-4.0071;
583859110142460;-7.3158;-0.0631;-7.0636;
583859120247199;-14.3201;0.1379;-5.6360;
583859130351939;-12.7391;0.8112;-0.3826;
583859140436730;-7.0427;0.3057;0.4295;
583859150541470;-10.9905;0.9212;-1.4725;
583859160646210;-8.5783;-0.1663;-0.1143;
583859170747095;-9.7041;0.1690;-3.3960;
583859180851835;-8.6429;-0.0969;-2.7829;
583859190956574;-4.0292;0.5740;-5.6695;
583859201050324;-12.3535;0.3153;-8.4673;
583859211155116;-19.0226;1.4674;1.3181;
583859221259855;-2.6806;-0.2859;6.0924;
583859231369960;-1.9762;-0.0706;-4.3783;
583859241474699;-14.5765;-0.9903;-8.0267;
583859251579439;-14.3516;1.0795;-1.2858;
583859261726626;-7.0546;1.0675;-0.2246;
583859271831366;-10.2885;0.0972;-3.5423;
583859281936105;-6.7337;0.6553;-1.8368;
583859292004907;-7.9265;0.1929;-2.9052;
583859302109647;-13.0771;0.4134;-2.8765;
583859312214387;-11.0216;0.2985;-0.2533;
583859322374282;-7.0570;0.3559;-2.4643;
583859332479491;-8.5519;-0.0511;-3.2548;
583859342584647;-10.9546;0.2315;-1.3672;
583859352657928;-12.4517;1.1465;-2.4858;
583859362763137;-9.6299;0.6482;-0.9479;
583859372868345;-5.6749;0.3057;-1.7695;
583859382974178;-0.7259;-0.4035;-6.8360;
583859393079387;-7.9002;0.4612;-9.9957;
583859403184595;-14.4090;0.5764;-3.5016;
583859413271366;-12.7466;1.3789;1.2153;
583859423376574;-9.5243;0.5261;1.3373;
583859433481782;-13.1297;0.8758;-0.2031;
583859443580376;-11.9776;0.7561;1.7423;
583859453685532;6.1612;-0.7531;-1.7695;
583859463790741;12.5285;-1.1414;-16.5114;
583859473898553;-21.7391;-0.5231;-21.2402;
583859484003762;-45.0760;3.4077;8.1694;
583859494108970;-4.5299;3.1370;24.8803;
583859504200793;10.7725;1.8820;6.3176;
583859514305949;-10.8036;-3.7211;-11.9504;
583859524411157;-17.9231;-3.1439;-6.1271;
583859534520949;-10.4707;-0.5447;-1.4055;
583859544626157;-9.8169;2.9001;-5.3438;
583859554731314;-12.8040;2.8905;-5.6886;
583859564845116;-14.9958;1.2975;4.8610;
583859574950324;-7.3397;0.5501;15.3440;
583859585055532;9.3640;-1.9220;1.4453;
583859595149751;-10.7988;-2.8756;-28.5177;
583859605254907;-21.1188;0.7442;-15.6873;
583859615360116;-4.4868;2.8639;5.9680;
583859625475845;-4.6137;1.1584;-5.3868;
583859635581053;-13.1871;1.0723;-2.6441;
583859645686262;-16.5912;2.5621;2.5400;
583859655796522;-13.1106;1.6256;2.0824;
583859665901730;-7.1913;0.2650;-1.4916;
583859676006939;-8.5089;-0.4657;-3.9350;
583859686110220;-12.1834;0.5812;-3.6356;
583859696215428;-7.8069;1.2927;-2.8451;
583859706320637;-8.3363;0.9595;-1.9158;
583859716423918;-8.7242;-0.0176;0.9494;
583859726529126;-6.1732;-0.3939;-0.9742;
583859736634335;-10.6983;-0.0897;-6.1582;
583859746745220;-10.8634;0.7418;-3.3194;
583859756850428;-6.5611;0.3775;-3.9664;
583859766955585;-12.2889;0.9715;-6.2659;
583859777054074;-10.2646;1.4722;-2.1266;
583859787159282;-5.3228;0.6458;-2.6704;
583859797264491;-8.5448;0.9404;-4.5102;
583859807356366;-14.3707;0.7175;-1.1492;
583859817461574;-10.7701;0.3105;2.3195;
583859827566782;-7.3158;0.1834;-0.8139;
583859837673866;-10.4611;-0.2835;-0.9960;
583859847779074;-8.4488;-0.6837;-1.2643;
583859857884282;-8.4392;0.0374;-3.8560;
583859867979178;-7.9484;-0.1424;-3.4442;
583859878084387;-5.4185;0.3846;-6.7690;
583859888189543;-9.9006;0.7825;-7.8326;
583859898295324;-11.6635;0.4950;-1.7456;
583859908400532;-10.4707;0.0446;2.7700;
583859918505741;-7.7303;0.1283;-1.1013;
583859928616262;-10.1833;-0.1137;-3.3529;
583859938721470;-11.5080;0.1140;-0.7708;
583859948826678;-9.7950;0.1187;-2.3399;
583859958930845;-10.3630;0.0135;-1.8416;
583859969036053;-7.0690;0.0972;-1.5374;
583859979141262;-7.9364;0.3607;-4.0932;
583859989254387;-10.9331;0.2674;-2.2726;
583859999359595;-10.6193;0.7609;0.3048;
583860009464751;-10.3678;0.1905;-0.2581;
583860019550637;-8.7437;-0.2620;-1.4079;
583860029655845;-7.3158;0.1044;-2.9028;
583860039761053;-6.5252;0.6075;-4.5772;
583860049867199;-12.1331;0.2841;-5.0970;
583860059972407;-14.1933;1.0555;-2.3758;
583860070077616;-8.6572;1.6065;-0.9359;
583860080179595;-7.9388;1.4506;-1.2739;
583860090284803;-10.3678;-0.1304;-1.4151;
583860100389960;-9.7854;0.7777;-1.6546;
583860110554022;-9.6969;0.3416;-2.4523;
583860120659178;-8.8657;0.0948;-3.2668;
583860130764335;-7.5721;0.9787;-3.7531;
583860140809282;-9.6060;0.2650;-3.5040;
583860150914439;-9.8097;0.4612;-0.9984;
583860161019647;-7.8571;-0.1280;-2.1793;
583860171133345;-9.7448;0.5620;-5.1185;
583860181238553;-12.5357;1.0579;-3.7364;
583860191343710;-11.7188;0.5620;-0.9694;
583860201420376;-5.9097;0.7319;-0.0520;
583860211525532;-7.6128;-0.0416;-2.4691;
583860221630741;-10.8419;-0.3532;-3.6861;
583860231747199;-10.2096;0.8112;-2.5792;
583860241852407;-9.7950;0.5405;-0.8402;
583860251957616;-9.1962;0.1953;-0.1789;
583860262073137;-8.7652;-0.3939;-1.4366;
583860272178345;-7.9265;-0.0248;-3.5016;
583860282283553;-9.5629;0.4086;-4.6968;
583860292403345;-10.0131;0.9906;-2.9315;
583860302508553;-11.5463;0.2913;-2.1194;
583860312613762;-12.6194;0.6840;-0.1765;
583860322710897;-9.5964;0.5835;1.0762;
583860332815480;-8.1111;0.2674;-0.7202;
583860342920012;-9.2058;-0.7412;-1.9732;
583860353005741;-8.7437;-0.2477;-2.7494;
583860363110324;-7.4333;0.3918;-4.5963;
583860373214907;-8.0847;0.8303;-6.2850;
583860383320480;-11.2421;1.1249;-3.6260;
583860393425064;-11.0575;0.2937;-0.7277;
583860403529647;-8.7461;0.6936;-0.5575;
583860413632564;-10.4061;0.6170;-2.3180;
583860423737147;-12.7295;0.8877;-1.9923;
583860433841678;-5.5193;0.3416;-2.8092;
583860443948189;-7.1073;0.7271;-4.5963;
583860454052772;-8.4416;0.2722;-4.3543;
583860464157303;-11.3833;1.3406;-4.8311;
583860474266105;-11.7476;1.0484;-0.8139;
583860484370689;-11.8170;1.4076;1.8380;
583860494475272;-10.2909;0.7247;1.6702;
583860504574647;-8.8059;-0.2453;-0.7011;
583860514679230;-8.4368;0.5309;-3.5782;
583860524783814;-9.5845;0.3918;-5.0827;
583860534899960;-9.8169;1.1249;-5.5857;
583860545004543;-9.8240;1.5033;-2.0163;
583860555109074;-8.6883;0.8183;-1.0750;
583860565219855;-8.7915;0.8064;-2.1458;
583860575324439;-10.0131;0.4397;-1.5494;
583860585428970;-10.1139;0.3248;-2.3276;
583860595520949;-6.0126;-0.3123;-4.1459;
583860605625532;-7.2200;0.2291;-6.8671;
583860615730064;-12.2530;0.2913;-6.4217;
583860625848605;-14.0856;1.3190;-0.2031;
583860635953189;-8.1302;0.5931;1.8691;
583860646057720;-8.0584;0.5572;-0.6461;
583860656160897;-10.5353;-0.3724;-1.8009;
583860666265480;-11.2708;0.4373;-2.8044;
583860676370012;-8.0584;0.4950;-2.4667;
583860686467876;-7.3828;0.2889;-3.3434;
583860696572460;-11.4075;0.8614;-4.8215;
583860706677043;-14.0734;0.2339;-0.5025;
583860716799543;-7.9170;1.0316;2.5113;
583860726904126;-5.3587;-0.5399;-1.7623;
583860737008657;-8.8968;0.1164;-4.7327;
583860747110585;-11.3402;0.3846;-4.7904;
583860757215116;-10.2263;1.1895;-2.9698;
583860767319699;-10.8876;0.2291;-3.2501;
583860777424855;-12.2937;0.8136;-0.5145;
583860787529439;-7.8141;0.1762;0.6763;
583860797633970;-7.6872;0.0350;-1.8057;
583860807730793;-10.3774;0.1810;-4.0980;
583860817835376;-11.6587;1.1177;-3.3482;
583860827939907;-6.5874;0.2626;-2.9530;
583860838042668;-3.6003;0.3033;-3.9975;
583860848147251;-9.2201;-0.1065;-5.2621;
583860858251782;-12.5836;0.8973;-4.3854;
583860868426105;-10.9068;0.3535;-0.3514;
583860878530689;-5.8020;0.7032;-1.5876;
583860888635220;-10.0202;-0.3338;-4.1243;
583860898666730;-13.0098;1.2494;-2.4547;
583860908771314;-14.4209;0.3440;0.9302;
583860918875897;-7.5362;1.0579;1.2416;
583860928985168;-1.6552;-0.2118;-2.2056;
583860939089751;1.6528;-0.4609;-7.1354;
583860949194282;-19.7581;0.0996;-7.8948;
583860959295272;-24.0724;1.6161;4.9379;
583860969399855;-4.8102;1.5224;6.4588;
583860979504387;-3.6362;0.3009;-1.9636;
583860989624230;-9.9509;-1.6178;-4.3783;
583860999728762;-10.3774;0.0446;-2.7422;
583861009833345;-9.0431;1.0819;-5.5280;
583861019918814;-7.3708;1.0077;-6.6012;
583861030023397;-8.4296;0.5357;-4.4743;
583861040127980;-11.3761;0.3129;-1.4605;
583861050230689;-12.2865;1.5562;6.2865;
583861060335272;-3.4472;0.1211;1.6128;
583861070439803;-10.0708;-0.6191;-11.5768;
583861080576626;-13.5009;-0.5375;-6.7164;
583861090681157;-9.7591;1.7405;-0.6485;
583861100785741;-6.2498;1.3095;-2.7254;
583861110874126;-6.5997;0.4735;-2.3877;
583861120978710;-11.4362;0.0206;-2.6752;
583861131083293;-10.8156;0.4086;0.0221;
583861141177303;-8.8537;0.4540;-0.4137;
583861151281887;-11.1464;-0.0272;-2.0692;
583861161386418;-13.6400;0.0900;-0.1167;
583861171504022;-9.8862;0.2315;-0.8952;
583861181608605;-3.0206;0.0087;-2.7422;
583861191713137;-4.9418;0.3224;-5.3055;
583861201810064;-13.7836;-0.1567;-6.9535;
583861211914647;-12.5118;1.3597;-1.4605;
583861222019178;-4.7456;0.2865;1.7806;
583861232134751;-5.2582;-0.5375;-2.1051;
583861242239335;-10.7653;-0.6024;-4.7880;
583861252343866;-10.3463;-0.0033;-2.5816;
583861262450376;-10.8829;0.3511;-3.8154;
583861272554960;-12.1642;0.2028;-3.2142;
583861282659491;-13.4243;0.7705;-1.0463;
583861292760376;-10.4157;1.0675;2.5687;
583861302864960;-7.9122;0.1307;2.5256;
583861312969491;-10.0681;-0.1208;-2.0593;
583861323083553;-10.6146;-0.3628;-2.3734;
583861333188189;-8.1230;0.8973;-2.3228;
583861343292772;-6.1134;-0.2668;-3.4011;
583861353371522;-6.8510;0.0661;-4.9220;
583861363476157;-11.0647;0.1570;-5.1257;
583861373580741;-11.7380;0.4134;-2.6943;
583861383688814;-11.7308;0.5596;-2.6656;
583861393793449;-7.8452;0.3775;-2.3830;
583861403898032;0.0167;0.2076;-3.1783;
583861414000272;-6.3024;-0.5471;-7.6624;
583861424104907;-14.8017;0.8734;-7.2529;
583861434209491;-7.2655;1.3717;-1.6451;
583861444322355;-5.7299;0.5237;-1.9684;
583861454426991;-20.5176;0.4158;1.0690;
583861464531574;-24.5707;1.4937;8.9169;
583861474652043;-4.8987;1.5081;7.5511;
583861484756678;-0.3879;-2.3844;-2.4117;
583861494861262;-12.6912;-1.7163;-9.1095;
583861504955376;-10.3558;0.3727;-6.7235;
583861515060012;-10.6361;2.5669;-0.6341;
583861525164595;-8.6309;2.0662;4.2048;
583861535271574;-8.7027;-0.0631;-3.4920;
583861545376210;-9.7615;-0.3724;-1.1659;
583861555480793;-6.1612;0.5213;0.2545;
583861565577564;-7.4237;-1.1243;-9.2052;
583861575682199;-13.1345;-0.1496;-14.2502;
583861585786782;-13.8867;2.1000;-6.0407;
583861595905064;-8.2813;2.2364;2.2645;
583861606009699;-7.0403;1.8078;-0.6532;
583861616114282;-11.8026;0.0733;0.8871;
583861626214855;-10.7127;0.5620;0.6284;
583861636319491;-5.7706;0.0422;-2.9195;
583861646424074;-6.7720;0.2267;-5.8540;
583861656521626;-13.4602;-0.0464;-4.7904;
583861666626210;-12.2195;1.1919;-0.7059;
583861676730845;-7.4142;0.6505;-1.2138;
583861686829543;-11.2110;0.8638;-2.6154;
583861696934178;-11.5080;0.6075;-0.7011;
583861707038762;-8.7748;0.5501;-2.2008;
583861717154335;-9.4167;1.0819;-1.6068;
583861727258970;-9.2441;-0.2477;-3.0727;
583861737363553;-7.9866;0.9404;-3.3793;
583861747484230;-8.6668;0.1379;-2.4858;
583861757588814;-11.0025;0.4612;-0.5360;
583861767693449;-8.3028;-0.0873;-2.3734;
583861777789491;-6.7840;-0.0296;-4.5150;
583861787894126;0.0191;0.2459;-6.0263;
583861797998710;-18.3541;0.4878;-8.6734;
583861808093189;-21.4134;1.3836;0.8390;
583861818197824;-6.3410;2.1909;5.6563;
583861828302407;-4.8461;0.2985;-1.5805;
583861838407564;-11.4266;-0.6526;-3.2788;
583861848512199;-12.4732;0.6242;-2.3085;
583861858616782;-6.5997;0.6386;-2.3471;
583861868704230;-4.9442;-0.5686;-4.8431;
583861878808866;-8.2071;0.1211;-7.0971;
583861888913449;-10.2598;0.4612;-2.7398;
583861899035480;-10.4707;0.8088;2.5902;
583861909140116;-4.5036;-0.3532;0.3864;
583861919244699;-10.8347;0.1020;-10.6184;
583861929351730;-13.6113;0.3799;-4.0454;
583861939456366;-6.8294;0.7080;0.4080;
583861949560949;-8.9973;0.4062;-3.5016;
583861959672980;-11.8409;0.5261;-1.7097;
583861969777616;-12.3224;0.4660;0.2067;
583861979882199;-8.9231;0.4445;1.8380;
583861989989543;-7.5242;-0.3147;-0.2797;
583862000094126;-10.6385;-0.6096;-1.0917;
583862010198762;-7.7925;-0.1567;-1.3002;
583862020289543;-5.4688;0.2841;-5.5256;
583862030394126;-9.2465;0.0015;-7.3128;
583862040498762;-10.1115;0.4445;-2.5959;
583862050672980;-10.3367;0.7944;-2.1649;
583862060777564;-11.1655;0.3392;-2.2271;
583862070882199;-10.0059;1.2517;0.1325;
583862080936314;-5.2077;0.2722;-3.3697;
583862091040949;-13.7309;0.0757;-3.4585;
583862101145532;-14.7275;0.1379;1.7758;
583862111301105;-10.4085;1.6208;0.1995;
583862121405689;-8.5519;0.0733;-1.2233;
583862131510324;-10.9642;0.1475;-0.4352;
583862141562355;-11.6444;-0.1591;0.1708;
583862151666991;-9.7184;0.3129;-1.3457;
583862161771574;-8.8992;0.1235;-2.4093;
583862171850064;-9.3520;0.5022;-5.0827;
583862181954699;-11.2756;0.5022;-3.5399;
583862192059282;-8.7123;0.7920;-1.9636;
583862202187355;-4.9155;-0.1807;-3.6069;
583862212291939;-6.1660;0.3751;-8.3692;
583862222396574;-4.4148;0.4950;-8.9441;
583862232520064;-1.2000;0.2794;-9.2172;
583862242624699;-9.3042;0.2028;-8.2567;
583862252729282;-18.1268;1.4483;-1.6164;
583862262822147;-15.6856;0.6673;5.0599;
583862272926782;-6.5539;1.2784;7.3262;
583862283031366;-12.7343;0.3153;-0.6365;
583862293122668;-13.5392;-1.1557;-1.4533;
583862303227303;-4.8126;-1.3376;0.1636;
583862313331887;-5.4066;0.4831;-5.3246;
583862323434647;-11.2014;-0.2572;-4.7402;
583862333539230;-11.8935;0.9619;1.3014;
583862343643866;-7.3301;0.7609;5.4697;
583862353750585;-4.7432;-0.0607;1.1770;
583862363855168;-6.3769;-1.8526;-7.6938;
583862373959803;-11.0216;-0.4202;-10.6499;
583862384060376;-11.5846;0.8016;-3.5758;
583862394164960;-5.8714;1.0747;-3.8536;
583862404269595;5.7805;0.4711;-8.0028;
583862414367824;-19.3866;1.9131;-9.7131;
583862424472460;-43.5359;4.6630;10.1934;
583862434577043;-10.3439;6.7352;21.4690;
583862444691418;9.0646;-0.0631;2.2164;
583862454796053;-6.4247;-6.3275;-7.6744;
583862464900637;-17.6812;-1.8144;-10.9636;
583862474993085;-7.7399;2.3707;-2.7302;
583862485097720;-5.6414;2.6629;-2.1434;
583862495202303;-11.0695;1.7357;-5.3964;
583862505305480;-12.1738;2.0809;-3.3721;
583862515410116;-8.3961;0.1307;6.0015;
583862525514699;5.5361;-1.4432;3.8839;
583862535671053;-9.5892;0.7370;-28.9346;
583862545775637;-26.2881;3.4487;-16.8135;
583862555880220;-12.0541;3.8581;11.4177;
583862565947772;-0.6491;0.3703;5.6515;
583862576052355;-8.6429;-0.9616;-2.4021;
583862586156991;-17.1159;-1.0956;-1.8823;
583862596272772;-7.8882;-0.7220;5.3354;
583862606377407;-3.9479;-1.2036;-3.2764;
583862616481991;-11.2851;-0.7149;-9.0832;
583862626587668;-11.2469;-0.4825;-0.8067;
583862636692251;-6.9924;-0.2309;0.9087;
583862646796887;-11.8241;0.1403;-5.4179;
583862656889022;-11.1221;-0.4274;-3.2931;
583862666993605;-5.6366;-0.7699;-1.7647;
583862677098241;-8.3674;-0.9784;-7.0397;
583862687204647;-7.9146;-0.6287;-5.5208;
583862697309230;-6.4487;-0.4011;-3.2381;
583862707413866;-10.8900;-0.0129;-5.5065;
583862717526105;-8.2597;-0.4585;0.3239;
583862727630741;-7.2344;-0.1591;-0.3323;
583862737735324;-12.4397;-0.5830;-4.3711;
583862747843918;-10.0995;0.1092;-1.1922;
583862757948501;-7.2823;0.4469;-0.8115;
583862768053085;-9.4717;0.2722;-4.8742;
583862778159335;-9.9772;0.1977;-2.9459;
583862788263918;-11.9776;1.1058;0.5850;
583862798368501;-8.8944;1.3813;0.0846;
583862808462147;-3.4089;0.1857;-2.6728;
583862818566782;-4.9705;0.6075;-4.0884;
583862828671314;-14.6486;1.4530;-3.1663;
583862838785585;-11.2828;1.5802;-0.6461;
583862848890220;-9.6873;1.0723;-3.1974;
583862858994803;-9.0694;1.1895;-0.8115;
583862869082876;-12.9739;0.8471;0.7648;
583862879187460;-16.2392;2.2125;1.1480;
583862889292043;-7.5003;1.2685;2.7939;
583862899404960;-5.4879;-0.3218;-3.7149;
583862909509595;-13.4411;0.0661;-5.5594;
583862919614178;-14.0542;1.9298;0.7241;
583862929725168;-4.5945;1.4339;2.2092;
583862939829751;-3.9957;-0.0559;-6.1295;
583862949934387;-10.8562;0.4926;-8.0937;
583862960029855;-12.9308;1.8939;-4.8550;
583862970134491;-10.3630;3.0580;-2.2606;
583862980239074;-6.5085;1.7620;-2.9674;
583862990366835;-9.3042;1.1847;-6.2420;
583863000471418;-12.3703;1.4052;-3.2309;
583863010576001;-7.5984;2.4497;-0.8210;
583863020646314;-5.5385;1.3980;-2.9243;
583863030750949;-11.9366;0.2100;-4.4644;
583863040855532;-12.9906;0.9691;-0.6628;
583863050959960;-7.6271;0.7657;1.4788;
583863061064595;-5.2558;0.6960;-0.8880;
583863071169126;-11.3163;-0.5901;-3.5734;
583863081288293;-11.3091;-0.1926;-1.5661;
583863091392876;-10.1330;1.2015;-1.9301;
583863101497512;-7.8858;1.0292;-3.0176;
583863111603293;-8.3028;1.0412;-2.1290;
583863121707876;-10.9451;0.7633;-0.5480;
583863131812460;-10.9881;0.5716;-1.6570;
583863141915272;-7.8332;0.9500;-1.3648;
583863152019907;-6.0269;0.2530;-3.7962;
583863162124491;-10.3869;0.5261;-4.8718;
583863172274751;-11.7858;1.0053;-1.4821;
583863182379335;-6.7241;0.6075;-1.6259;
583863192483970;-7.0905;0.4564;-5.4778;
583863202537980;-11.2158;1.0244;-4.9364;
583863212642616;-15.8031;1.1082;-0.6030;
583863222747199;-6.2474;0.1187;1.3732;
583863232852564;-6.8031;0.8255;-4.3519;
583863242957199;-13.9226;-0.1352;-4.0693;
583863253061782;-10.6552;0.2124;-0.0520;
583863263175741;-10.7845;0.4950;-1.4509;
583863273280324;-8.3195;-0.2500;0.1804;
583863283384960;-7.3181;-0.0945;-3.4681;
583863293506991;-11.5917;0.2100;-4.4453;
583863303611574;-8.0321;0.3751;-0.3873;
583863313716210;-7.2320;-0.1376;-2.3662;
583863323801835;-11.1727;-0.5255;-5.9354;
583863333906418;-11.2684;0.2100;-2.6201;
583863344011105;-6.7337;-0.2644;-1.5876;
583863354126939;-7.5099;-0.0559;-4.3711;
583863364231574;-12.1499;-1.1004;-3.0703;
583863374336210;-9.5414;0.2554;-1.4174;
583863384428918;-8.4320;0.3823;-2.5911;
583863394533553;-10.3173;0.0470;-2.1003;
583863404638189;-9.2683;-0.2453;-0.9814;
583863414738085;-9.4430;-0.4346;-0.9502;
583863424842720;-10.4157;-0.0129;-2.5576;
583863434947355;-10.6624;-0.1615;-2.9100;
583863445068814;-9.4334;0.0613;-1.9397;
583863455173449;-8.7341;-0.0607;-1.5012;
583863465278085;-10.0875;-0.1663;-2.3423;
583863475364491;-7.8188;-0.4705;-2.4069;
583863485469126;-10.5808;0.6625;-3.6909;
583863495573762;-10.6023;0.3631;-2.2271;
583863505708605;-8.0393;0.1092;-1.0582;
583863515813241;-8.7003;-0.2405;-2.2223;
583863525917876;-8.7437;-0.0945;-3.6957;
583863536008710;-10.5784;0.1690;-3.9664;
583863546113345;-8.9973;0.1594;-2.6154;
583863556217980;-9.9939;0.3224;-2.4954;
583863566322564;-11.2182;0.0494;-1.5326;
583863576427199;-8.4248;0.2674;-1.7001;
583863586531835;-11.9270;0.7513;-2.7446;
583863596618501;-8.3985;-0.1017;-0.2533;
583863606723137;-8.1685;0.4086;-3.1277;
583863616827772;-8.8466;0.3799;-3.1519;
583863626957668;-10.4707;0.9811;-4.1291;
583863637062303;-11.7571;1.0914;-1.8392;
583863647166939;-7.4740;0.5022;-0.9861;
583863657261001;-7.4477;-0.0826;-1.6475;
583863667365585;-8.1829;0.1834;-2.5050;
583863677470272;-13.3238;1.0364;-4.8526;
583863687577564;-12.1881;1.6352;-0.3562;
583863697682199;-5.2582;1.2254;-0.5456;
583863707786835;-7.0451;-0.1041;-2.9315;
583863717888918;-11.2205;1.1536;-4.0262;
583863727993553;-6.1804;0.7394;-3.2812;
583863738098189;-2.8409;0.6553;-4.5030;
583863748191418;-12.4014;-0.0826;-7.1812;
583863758296053;-19.1976;1.2975;0.2976;
583863768400689;-8.9782;0.7343;6.1355;
583863778530168;-5.1694;0.9021;-0.0042;
583863788634803;-9.8623;0.4373;-3.4322;
583863798739439;-10.0780;-0.7316;-3.0129;
583863808833085;-12.3081;1.0340;-3.0440;
583863818937720;-10.1617;1.2784;-2.7111;
583863829042355;-9.0072;0.7633;-1.5685;
583863839140168;-10.3534;0.1834;0.5779;
583863849244803;-8.7413;-0.5255;2.0895;
583863859349439;-6.4104;-0.2716;-1.5517;
583863869469439;-8.9518;-0.6239;-8.2038;
583863879574074;-11.3258;0.5716;-6.5414;
583863889678657;-8.7027;0.2028;-2.0043;
583863899765585;-7.2631;-0.0945;-3.7077;
583863909870220;-9.5916;0.1953;-3.1158;
583863919974855;-10.9881;0.4110;-2.3782;
583863930091522;-10.3220;0.1666;-2.5385;
583863940196157;-9.2082;-0.2309;-1.5060;
583863950300793;-11.4099;-0.0778;-2.2941;
583863960391105;-13.0747;0.0470;-0.4161;
583863970495741;-10.1809;0.5548;-0.5934;
583863980600324;-8.3770;-0.1184;-1.0965;
583863990711835;-6.5276;0.2171;-1.8488;
583864000816470;-8.5854;-0.7364;-4.6825;
583864010921105;-12.0924;0.1977;-5.0922;
583864021038657;-5.5552;0.1451;-2.5839;
583864031143345;-3.5572;0.1020;-4.4261;
583864041247928;-14.8352;-0.7268;-5.7269;
583864051346887;-11.3569;0.3368;0.9278;
583864061451522;-6.2665;0.5285;-1.0750;
583864071556105;-9.5004;0.0015;-5.4754;
583864081664647;-11.1631;0.6697;-2.5959;
583864091769282;-7.7758;0.9452;-1.0750;
583864101873918;-10.6074;0.8160;-2.3710;
583864112002460;-11.7428;0.5692;-0.7253;
583864122107095;-10.1593;0.5716;-1.0032;
583864132211678;-11.3163;0.7825;0.0126;
583864142277616;-7.4931;-0.1089;2.2214;
583864152382303;-7.3493;-0.0224;-4.6848;
583864162486939;-11.0192;0.1283;-5.5352;
583864172619803;-8.9303;1.3813;-3.0511;
583864182724439;-9.0335;1.1776;-3.7388;
583864192829074;-8.9112;0.9691;-1.7695;
583864202910324;-7.7973;0.2219;-2.2558;
583864213014960;-10.3125;0.8016;-2.8187;
583864223119595;-10.2790;0.5668;-2.4667;
583864233228501;-7.2966;0.0685;-3.2524;
583864243333137;-13.2541;1.0316;-2.0692;
583864253437720;-10.5975;0.6170;-0.1358;
583864263544022;-9.8958;0.9978;-1.9540;
583864273648657;-11.8887;0.6242;-0.2198;
583864283753293;-9.0168;1.1273;1.1336;
583864293868501;-7.3373;0.0206;-3.0511;
583864303973137;-10.1952;0.3990;-4.2491;
583864314077772;-4.8891;0.3631;-3.8273;
583864324158814;-5.9934;-0.2524;-6.6589;
583864334263397;-13.6735;0.2985;-5.1568;
583864344368085;-15.0796;0.5859;1.8141;
583864354492980;-9.2994;0.4493;1.8021;
583864364597616;-10.7031;0.5883;-1.9899;
583864374702251;-10.5162;0.0661;-0.5312;
583864384801939;-7.5625;0.1666;-1.8248;
583864394906574;-2.2253;-0.2142;-5.5762;
583864405011157;-2.7763;-0.0969;-10.6929;
583864415120845;-22.3714;0.8351;-7.1477;
583864425225480;-12.9141;0.8040;7.7237;
583864435330116;-1.1043;0.1403;4.8179;
583864445432980;-6.5901;-1.0358;-5.0061;
583864455537616;-13.4937;-1.3448;-6.3114;
583864465642251;-12.5692;0.7104;-3.8369;
583864475761001;-7.6968;0.7442;-3.3123;
583864485865637;-7.7614;0.7753;-4.7785;
583864495970272;-11.7093;0.5812;-2.6560;
583864506085064;-13.0244;0.9547;1.6032;
583864516189699;-6.3817;-0.1232;6.9332;
583864526294335;-5.6438;-1.3065;-4.8790;
583864536371730;-13.2832;-0.9473;-7.1836;
583864546476366;-10.4874;0.2937;-0.4137;
583864556581001;-11.7093;1.1967;-2.7422;
583864566692772;-13.1082;0.4469;-0.9000;
583864576797407;-11.6806;0.8782;1.5673;
583864586902043;-5.4760;0.1283;-0.0520;
583864597003189;4.7336;-0.4777;-6.6852;
583864607107824;-5.0258;-0.5183;-15.8432;
583864617212460;-21.0876;0.4086;-6.8985;
583864627312876;-15.0030;1.2903;3.8767;
583864637417512;-5.3515;1.8532;3.5506;
583864647522147;-3.0111;-0.0730;-0.9502;
583864657634855;-11.8050;-0.7053;-4.2586;
583864667739491;-11.8840;0.0637;-4.0549;
583864677844126;-9.9748;1.4291;-4.6011;
583864687938189;-9.5581;0.9069;-5.8277;
583864698042824;-13.1680;1.9585;-3.0272;
583864708147407;-11.5343;0.8088;6.9212;
583864718252460;-5.0282;0.4445;7.7979;
583864728357095;-6.9733;-2.0061;-3.7986;
583864738461730;-12.9667;-1.3280;-7.7967;
583864748559855;-11.6252;0.8901;-3.6957;
583864758664491;-8.2382;1.7931;-1.2042;
583864768769126;-5.6868;1.2613;-2.1649;
583864778892251;-7.3612;0.0374;-4.0310;
583864788996887;-9.0718;0.5812;-5.3557;
583864799101522;-13.5320;1.3884;-4.6801;
583864809209335;-13.6687;1.1034;-0.6652;
583864819313970;-7.9484;1.0795;1.6992;
583864829418605;-5.6677;-0.1472;-1.6044;
583864839512460;-11.8122;0.2171;-4.3687;
583864849617095;-12.0135;0.8399;-2.3734;
583864859721730;-7.7901;1.8245;-1.9828;
583864869846418;-5.9934;0.5740;-2.5313;
583864879951053;-11.9848;0.7152;-3.8680;
583864890055637;-10.9738;1.3597;-0.9909;
583864900132668;-9.6586;0.9882;-0.8258;
583864910237303;-7.8835;0.3894;-1.3911;
583864920341887;-10.0828;-0.4155;-3.7292;
583864930457355;-11.4266;-0.0272;-3.2381;
583864940561991;-9.4310;0.5189;-2.2917;
583864950666574;-11.7906;1.2039;-1.4964;
583864960769855;-12.2387;0.2100;0.1660;
583864970874491;-7.2559;0.7343;0.1181;
583864980979126;-12.0135;0.0589;-1.5108;
583864991047095;-3.4711;0.5453;-2.9698;
583865001151782;2.6590;0.4158;-8.3764;
583865011256366;-16.8763;0.2506;-11.9722;
583865021385897;-18.4358;1.0149;0.0341;
583865031490532;-7.3708;2.0880;3.8934;
583865041595168;-6.9661;0.8183;-1.5661;
583865051725480;-10.2144;-0.2572;-1.7934;
583865061830116;-8.9925;0.1642;-2.1505;
583865071934699;-8.7987;0.0517;-5.6264;
583865082016522;-7.7997;0.2028;-5.4108;
583865092121157;-8.7485;0.6649;-6.6613;
583865102225793;-15.1660;0.4325;-1.5972;
583865112352147;-6.8031;0.0446;8.5884;
583865122456782;-2.5726;0.0063;-1.2329;
583865132561366;-12.9356;-1.3400;-9.1143;
583865142662043;-11.3402;0.3703;-2.1458;
583865152766678;-8.9136;0.9356;-1.6690;
583865162871314;-7.4046;0.0398;-3.1352;
583865172955064;-9.6515;0.8423;-3.5830;
583865183059699;-14.4018;0.6984;-1.4916;
583865193164335;-10.0346;0.5022;1.7447;
583865203274230;-8.2071;0.5381;-0.7756;
583865213378866;-12.4301;-0.5327;-2.0115;
583865223483501;-7.2846;0.4926;-0.3730;
583865233586001;-6.5827;0.3296;-4.9651;
583865243690637;-26.2570;0.4926;-2.8044;
583865253795220;-0.8288;1.4052;5.7930;
583865263908918;8.3483;-0.6120;-5.5232;
583865274013553;-12.1666;-1.4145;-14.8274;
583865284118189;-18.3518;0.6123;-5.7030;
583865294229491;-13.9729;1.1177;1.0499;
583865304334126;-9.5438;0.4181;1.8165;
583865314438762;-10.6289;0.2818;1.0475;
583865324534335;-11.6061;0.4807;-0.9431;
583865334639022;-10.7079;0.8447;-1.3146;
583865344743657;-2.4745;-0.4035;-0.6197;
583865354852564;-5.7323;0.0805;-14.2286;
583865364957251;-18.3111;1.1249;-6.9488;
583865375061887;-6.7098;1.2159;8.1072;
583865385164751;-5.3013;-0.0826;-0.4929;
583865395269439;-11.0073;-0.5853;-3.5064;
583865405374074;-12.4110;-0.6646;-2.2295;
583865415473293;-8.0106;0.1379;-3.5566;
583865425577980;-4.4773;0.0589;-7.8709;
583865435682616;-9.5581;0.7271;-9.3060;
583865445792147;-11.2780;0.3655;-1.6140;
583865455896835;-7.3804;1.0101;2.1302;
583865466001470;-7.3998;0.2794;-1.4414;
583865476101730;-12.6721;0.7418;-1.6594;
583865486206418;-10.8203;0.3105;1.0499;
583865496311053;-7.1578;0.2124;-1.2473;
583865506418397;-10.5185;-0.1376;-3.6981;
583865516523085;-11.2325;0.3224;-3.1759;
583865526627720;-10.6050;1.7477;-2.8642;
583865536740480;-11.4577;1.5491;0.1421;
583865546845168;-8.5089;1.3765;0.9637;
583865556949803;-6.4343;0.1283;-1.2787;
583865567044751;-6.9948;-0.5303;-3.2812;
583865577149439;-8.6046;0.0876;-5.5929;
583865587254074;-12.4158;0.2578;-4.3902;
583865597369647;-11.7715;0.2506;-1.5302;
583865607474335;-8.3267;0.5285;0.0966;
583865617578970;-8.9447;1.1249;-3.1902;
583865627683605;-12.7415;0.7896;-3.0751;
583865637788293;-12.8614;1.6807;0.5085;
583865647892928;-6.4654;0.3153;-0.8641;
583865657996730;-8.4993;0.7968;-3.6188;
583865668101418;-11.4553;0.3631;-3.8225;
583865678206053;-10.3989;0.9882;-1.2377;
583865688299022;-9.2632;-0.1543;-0.3873;
583865698403710;-8.1613;-0.0706;-2.7063;
583865708508345;-11.6252;0.0398;-4.6131;
583865718617876;-11.8385;0.0661;-2.6010;
583865728722564;-7.3469;1.1871;-2.8116;
583865738827199;-8.2645;0.5883;-3.3386;
583865748934387;-8.7075;0.0757;-4.1650;
583865759039074;-11.5152;0.4110;-3.9302;
583865769143762;-10.6122;0.5524;-2.8379;
583865779251835;-8.9136;0.0111;-1.5685;
583865789356522;-11.4817;-0.9760;-0.9479;
583865799461157;-11.7428;-0.7914;-0.9861;
583865809560168;-12.9260;0.3057;-0.3778;
583865819664855;-9.5988;-0.2118;-1.5685;
583865829769491;-6.9876;0.3224;-1.8990;
583865839869335;-7.9002;-0.7627;-4.1794;
583865849974022;-10.3053;-0.4585;-4.1483;
583865860078657;-11.2875;-0.6335;-4.0238;
583865870198189;-12.7032;-0.4322;-1.6857;
583865880302876;-12.0278;-0.7388;-0.5743;
583865890407512;-10.7055;-0.3987;0.3960;
583865900509335;-7.7518;-0.7819;-1.0463;
583865910613970;-4.6711;-0.1256;-5.4395;
583865920718657;-3.1190;-0.2859;-9.5453;
583865930806939;-10.6385;0.4564;-10.5132;
583865940911626;-9.0742;-0.1496;-2.1864;
583865951016262;-4.1417;-0.3772;-2.3518;
583865961140532;-18.5985;0.1881;-1.8176;
583865971245220;-15.4606;0.3655;3.5964;
583865981349907;-9.1651;0.9547;2.0512;
583865991430376;-6.2402;0.3464;-2.2032;
583866001535064;-7.9938;-0.4274;-5.6408;
583866011639699;-12.0852;1.4267;-6.8049;
583866021752876;-9.3879;1.6902;-1.0152;
583866031857564;-6.2115;0.7537;3.3879;
583866041962199;-5.6509;-0.6359;-0.1717;
583866052069647;-10.0250;-0.9544;-1.5829;
583866062174335;-8.6285;-0.8201;0.0556;
583866072278970;-7.4213;-0.8106;-5.7054;
583866082405793;-11.6611;-0.3365;-8.8699;
583866092510480;-10.6624;1.2159;-3.7292;
583866102615116;-9.6921;2.0399;-2.1625;
583866112695689;-8.8179;1.8173;-1.0319;
583866122800376;-8.6357;1.8269;1.0786;
583866132905012;-9.1316;0.4062;0.2115;
583866143046314;-7.6391;-0.0153;-0.0544;
583866153150949;-10.8347;0.1164;-3.5686;
583866163255637;-11.8146;1.0675;-2.5146;
583866173366835;-7.4692;0.3966;-1.0558;
583866183471522;-5.4449;0.0302;-3.0416;
583866193576157;-11.0815;-0.0200;-4.3161;
583866203636314;-19.5808;2.6052;-3.3697;
583866213741001;-11.8720;2.1790;2.7242;
583866223845637;-9.1460;2.8448;2.9495;
583866233954022;-5.3180;-0.3485;0.6595;
583866244058710;-0.1651;-0.3772;-4.7255;
583866254163345;-8.2573;-0.4561;-10.2162;
583866264286835;-11.5582;0.4540;-7.9259;
583866274391522;-10.7510;0.0924;-3.1086;
583866284496157;-11.3761;0.5189;0.1445;
583866294605272;-6.5925;0.0781;1.2679;
583866304709960;-6.1373;0.3440;-2.2822;
583866314814595;-8.5113;0.0924;-6.4840;
583866324897407;-13.0890;1.2206;-5.7461;
583866335002095;-8.2214;1.0531;-2.4739;
583866345106730;-10.1904;0.8758;-4.2921;
583866355217043;-13.5491;0.7609;2.9447;
583866365321730;-7.8571;0.0876;4.4827;
583866375426366;-8.2430;-0.0607;-0.9239;
583866385527355;-9.9867;-1.3208;-1.9804;
583866395632043;-13.9083;0.1164;-3.6981;
583866405736678;-11.9584;0.9117;-2.8594;
583866415846105;-7.7303;0.8160;0.6643;
583866425950793;-8.1924;-0.0826;-0.7349;
583866436055428;-8.3076;0.0326;-2.7996;
583866446154022;-9.0263;0.0230;-4.5174;
583866456258710;-9.4071;0.1235;-5.5161;
583866466363345;-6.6428;0.3966;-4.5652;
583866476492303;-6.2809;-0.2429;-6.0120;
583866486596991;-9.3999;0.3033;-4.9412;
583866496701626;-11.7787;0.5931;-3.1974;
583866506804491;-11.8696;0.9117;-2.9483;
583866516909178;-8.2430;1.2398;-0.4424;
583866527013814;-7.1578;0.2001;-1.4605;
583866537093814;-11.8792;0.1618;-3.1998;
583866547198501;-14.3417;1.0172;-1.8511;
583866557303137;-10.4635;0.8782;0.5492;
583866567425585;-6.6380;0.0661;-0.3658;
583866577530272;-10.9546;-0.4178;-2.4308;
583866587634907;-9.3066;-0.3796;0.0532;
583866597738918;-2.4721;0.0374;-3.1086;
583866607843605;-10.4348;-0.5518;-6.9248;
583866617948241;-14.5597;-0.4059;-2.8522;
583866628052147;-7.6511;0.1786;1.0475;
583866638156835;-2.5199;0.0063;-1.5350;
583866648261470;-6.3482;-0.3461;-8.0435;
583866658353397;-12.4878;-0.3532;-6.2444;
583866668458085;-12.2291;0.7753;-2.0812;
583866678562720;-11.8792;0.4878;0.4128;
583866688674855;-9.8432;1.2637;0.8462;
583866698779543;-11.5774;1.5491;-2.0955;
583866708884178;-11.0886;0.4277;3.5028;
583866718980480;-5.2750;0.0637;0.6643;
583866729085168;-4.6902;-0.6024;-6.6876;
583866739189803;-9.2058;0.2291;-9.0927;
583866749329230;-12.1427;0.5859;-3.5016;
583866759433866;-11.2875;0.6458;1.6848;
583866769538553;-7.1459;-0.2046;0.2785;
583866779606730;-3.8614;0.1546;-2.9219;
583866789711418;-6.4893;-0.1783;-6.6829;
583866799816053;-12.9141;0.4469;-6.9727;
583866809917355;-13.8652;1.0002;-0.9263;
583866820022043;-8.5400;0.7175;3.0117;
583866830126678;-6.2593;0.4831;-1.4270;
583866840237876;-12.9547;-0.1998;-1.8894;
583866850342564;-12.0039;-0.1113;2.5328;
583866860447199;-6.5515;-0.2022;-0.6724;
583866870570168;-10.4396;-0.0559;-3.9975;
583866880674855;-13.4865;-0.3963;-3.6571;
583866890779491;-13.7668;1.3645;1.1456;
583866900843293;-7.4333;1.0819;2.2044;
583866910947928;-5.9551;0.0924;-1.2954;
583866921052616;-9.6491;-0.2094;-4.5126;
583866931187980;-8.4512;0.5429;-5.8756;
583866941292668;-7.0762;0.2770;-4.6178;
583866951397303;-6.9900;0.2483;-5.9426;
583866961507720;-12.0230;-0.0344;-5.1449;
583866971612460;-9.0383;0.3823;-0.8402;
583866981717095;-4.4940;0.2483;-1.6905;
583866991823085;-11.7021;0.6218;-6.5175;
583867001927772;-12.9930;0.8901;-2.6656;
583867012032407;-9.2874;0.9571;0.6715;
583867022136001;-8.1326;1.1177;-1.3983;
583867032240689;-9.4765;0.6386;-3.0416;
583867042345324;-11.7380;0.9045;-1.9588;
583867052445585;-8.6357;0.0972;-0.2270;
583867062550272;-7.8332;0.0805;-2.2989;
583867072655196;-9.8623;0.0470;-1.9516;
583867082742436;-11.2804;0.0350;-2.9889;
583867092847124;-11.0575;0.8830;-1.1946;
583867102951759;-5.4999;0.1355;-0.8593;
583867113078374;-4.0627;0.1786;-4.4767;
583867123183061;-8.3794;0.0494;-6.1965;
583867133287696;-8.8298;0.3823;-5.3055;
583867143377540;-9.9150;0.5955;-3.9832;
583867153482228;-12.9069;0.4807;-2.5265;
583867163586863;-15.4989;0.7729;1.9890;
583867173697957;-7.6247;1.0244;3.5435;
583867183802644;-5.1383;0.4038;-3.0368;
583867193907280;-9.2803;-0.0706;-4.7375;
583867204008999;-8.5902;1.3047;-4.8311;
583867214113686;-4.8126;0.2339;-4.9531;
583867224218321;-6.2330;0.1475;-4.2036;
583867234342332;-14.3827;1.1895;-1.8368;
583867244447019;-19.0274;-0.1208;2.5232;
583867254551655;-6.5901;0.7561;5.0671;
583867264638269;-4.4964;-0.9975;-1.8272;
583867274742957;-10.2503;-0.3218;-7.8613;
583867284847592;-15.9395;2.5884;-6.5103;
583867294955040;-9.0574;2.2149;1.0187;
583867305059728;-5.4568;0.7681;0.3311;
583867315164363;-9.4190;0.0781;-1.8296;
583867325264415;-8.2884;0.2913;0.7217;
583867335369103;-3.4352;-0.2835;-1.1420;
583867345473790;1.6887;-1.3041;-8.5920;
583867355591603;-13.8341;-0.2429;-15.8025;
583867365696290;-23.5526;1.6974;-2.6489;
583867375800978;-8.3746;2.0112;7.2374;
583867385907957;-7.4118;2.1790;-0.4472;
583867396012644;-13.6328;0.9308;0.3072;
583867406117332;-13.4626;0.2794;2.8585;
583867416202124;-5.5193;-0.0945;0.6523;
583867426306811;-5.5505;0.1379;-6.3476;
583867436411499;-12.4708;-0.3437;-6.0694;
583867446520561;-8.8274;0.0589;-0.1983;
583867456625249;-5.4329;-0.4681;1.0642;
583867466729884;-5.6366;-0.5255;-2.6369;
583867476822957;-13.6376;-0.4059;-9.5647;
583867486927644;-10.6457;0.7848;-4.3352;
583867497032332;-4.1946;0.7295;-0.8234;
583867507148582;-10.5879;0.5596;-5.5451;
583867517253269;-14.5573;1.6711;-3.5399;
583867527357957;-11.6997;1.9920;0.8414;
583867537472228;-8.6142;0.8447;2.1924;
583867547576915;-7.0522;0.0709;-2.1888;
583867557681603;-10.9977;-0.5782;-2.7805;
583867567789780;-1.3989;-0.2237;-2.0186;
583867577894467;-1.7390;0.1068;-8.8077;
583867587999155;-13.6113;0.1475;-10.2664;
583867598089832;-18.5339;0.9858;2.3124;
583867608194519;-12.4732;1.5296;7.7142;
583867618299207;-7.1674;1.0531;0.2856;
583867628419311;-8.3818;0.1235;-2.8020;
583867638523999;-10.3316;-1.0119;-4.2179;
583867648628686;-13.4172;0.6266;-3.6667;
583867658724780;-10.9905;1.6783;-1.1396;
583867668829467;-10.7821;0.5907;-1.9564;
583867678934155;-11.7428;1.3214;2.3937;
583867689041707;-4.1850;-0.6742;4.4252;
583867699146394;-2.4984;-1.3926;-1.9493;
583867709251082;-11.6830;-0.7029;-10.3478;
583867719349363;-14.3755;0.8064;-8.8914;
583867729454051;-9.4143;1.3190;-3.9903;
583867739558738;-6.8246;1.0962;-3.4537;
583867749651238;-10.7701;0.3296;-2.4523;
583867759755874;-11.9895;0.9165;-1.1061;
583867769860561;-12.8136;1.6567;-1.5589;
583867779965249;-11.0551;1.1752;-1.0869;
583867790069571;-9.4932;0.3679;0.1708;
583867800174259;-10.9594;-0.0344;-0.9144;
583867810278999;-6.1038;-0.3891;-1.2497;
583867820380874;-8.7724;0.4349;-4.4237;
583867830485561;-14.6964;-0.8608;-4.0119;
583867840590196;-10.5927;0.8495;-1.4581;
583867850704936;-4.7384;0.3464;-0.7636;
583867860809624;-9.4980;-0.6598;-5.3701;
583867870914311;-12.5740;0.9045;-3.6212;
583867881052696;-8.1829;0.8351;-2.8546;
583867891157384;-7.1411;1.5009;-2.2463;
583867901262071;-8.4368;0.1690;-4.4743;
583867911341499;-11.7691;0.7777;-3.5207;
583867921446186;-9.2201;1.0747;-1.8583;
583867931550874;-7.0283;0.6027;-2.0186;
583867941662853;-10.2598;-0.6168;-3.0583;
583867951767540;-12.1977;0.4564;-2.6752;
583867961872228;-15.4173;1.1393;-1.7216;
583867971954415;-9.4071;1.5009;1.7040;
583867982059103;-6.1277;-0.3147;0.5850;
583867992163790;-13.1249;0.0924;-2.1936;
583868002232332;-13.4459;0.6218;-0.7588;
583868012337019;-4.1177;0.1929;-1.3552;
583868022441655;1.2147;-0.6287;-6.1510;
583868032585196;-10.0442;-0.1711;-10.2951;
583868042689884;-17.6285;-0.1926;-3.5949;
583868052794571;-7.0714;1.0747;0.3553;
583868062925457;-3.5357;0.6386;-3.3697;
583868073030144;-9.3784;0.0637;-4.3232;
583868083134832;-9.1005;0.3081;-1.6164;
583868093218999;-2.7954;0.3057;-4.1124;
583868103323686;-28.9328;1.1010;-3.6619;
583868113428374;-26.9949;2.8161;7.1249;
583868123536915;-1.7151;2.7227;10.2150;
583868133641603;1.2170;-2.9833;3.4071;
583868143746290;-8.1302;-3.0482;-5.3605;
583868153848374;-15.0556;-0.5638;-9.1860;
583868163953061;-13.6208;2.2603;-3.6718;
583868174057749;-7.4524;2.2962;0.4869;
583868184159780;-6.8584;0.6051;-2.0163;
583868194264467;-11.3880;-0.0440;-0.0138;
583868204369155;-1.2168;-0.3676;1.5147;
583868214478790;5.4209;-0.5160;-18.6362;
583868224583478;-14.2173;-0.6646;-24.6203;
583868234688165;-22.7836;2.2292;-4.3926;
583868244809207;-11.0695;2.7658;7.4698;
583868254913894;-4.1201;3.2761;8.4927;
583868265018530;-11.0934;1.2975;0.3359;
583868275120769;-15.6930;-1.4838;0.7241;
583868285225457;-9.5438;0.2052;0.3936;
583868295330144;-6.5085;0.0876;-4.6107;
583868305433582;-8.2286;0.2961;-4.7880;
583868315538269;-13.3310;0.7633;-2.3542;
583868325642957;-12.5285;0.4253;3.5483;
583868335725144;-5.0330;0.8710;4.4276;
583868345829832;-6.1469;-0.6766;-5.1473;
583868355934467;-13.7740;-0.1496;-7.8996;
583868366058686;-9.6873;0.5764;-3.2189;
583868376163374;-2.4290;0.7657;-2.7182;
583868386268009;-5.3396;0.1499;-9.1238;
583868396370978;-12.5788;0.5620;-7.3056;
583868406475665;-14.5956;1.5368;-0.8928;
583868416580301;-8.9447;1.5344;0.7935;
583868426667228;-9.6323;1.0002;0.3745;
583868436771915;-8.7099;-0.7771;-1.1827;
583868446876551;-10.1330;0.3248;-3.0799;
583868456993269;-13.1536;1.4028;-2.8259;
583868467097957;-7.8500;1.0675;-0.2103;
583868477202592;-6.7672;0.7343;-1.7049;
583868487316707;-8.8944;-0.5686;-2.0812;
583868497421394;-10.4850;0.5046;-2.1482;
583868507526030;-9.6084;0.2171;-2.1697;
583868517623686;-10.5999;0.1522;-3.3553;
583868527728321;-10.0370;-0.1878;-2.4260;
583868537833009;-10.3292;0.7295;-3.4059;
583868547936863;-8.9183;0.2459;-1.0702;
583868558041551;-8.0704;0.1307;-0.6676;
583868568146186;-9.6323;0.4086;-3.3936;
583868578259832;-11.6204;-0.2309;-2.2534;
583868588364467;-9.2417;1.0986;-0.9263;
583868598469155;-7.9843;-0.2142;-1.1707;
583868608559311;-9.1843;0.3679;-3.3625;
583868618663999;-9.4884;-0.1687;-2.7829;
583868628768634;-6.2019;0.6458;-4.4070;
583868638865561;-10.6074;0.1379;-6.9607;
583868648970249;-14.4377;1.4100;-2.0378;
583868659074884;-11.0480;1.3190;2.5472;
583868669173269;-7.6777;1.2709;0.6906;
583868679277905;-6.2163;0.0039;-2.7517;
583868689382592;-8.9279;-0.1328;-5.1903;
583868699509311;-9.4645;0.4229;-4.8790;
583868709613946;-11.3952;0.5213;-3.8704;
583868719718634;-11.0647;0.6864;-1.0678;
583868729826707;-9.0622;0.1259;-0.2366;
583868739931394;-10.9068;0.6817;0.5922;
583868750036030;-10.7127;0.1810;0.2210;
583868760145769;-9.5725;0.4564;-1.1133;
583868770250457;-7.8691;-0.0296;-3.8417;
583868780355092;-10.2479;0.2937;-4.3663;
583868790474415;-9.9078;0.4831;-2.8789;
583868800579051;-6.4199;0.5046;-2.4858;
583868810683738;-7.4692;-0.2022;-3.9302;
583868820738999;-12.1451;-0.0153;-3.3984;
583868830843686;-11.2469;0.6601;-2.1218;
583868840948321;-8.0847;0.7920;-1.2473;
583868851127071;-9.7639;0.0182;-1.6953;
583868861231707;-11.0336;0.7466;-2.2175;
583868871336394;-9.8886;0.6458;-2.9626;
583868881380561;-8.7652;0.6242;-2.3542;
583868891485196;-7.8021;0.4134;-2.4906;
583868901589884;-10.9953;0.3057;-4.0621;
583868911715874;-12.1810;0.3272;-0.4977;
583868921820561;-7.8763;1.0747;0.1660;
583868931925196;-9.9317;-0.1615;-1.9062;
583868942002644;-10.4755;0.2387;-2.3375;
583868952107332;-8.2669;0.5979;-1.3576;
583868962211967;-8.8729;0.4735;-3.8106;
583868972325249;-10.9211;0.4493;-4.1291;
583868982429936;-10.9570;1.5176;-2.0450;
583868992534571;-6.8584;0.7343;-1.6762;
583869002693061;-7.1339;1.1321;-2.9387;
583869012797749;-10.3439;-0.2189;-4.0190;
583869022902384;-6.3625;1.1201;-4.2036;
583869032960457;-6.8656;1.3430;-4.7064;
583869043065144;-12.6099;0.7944;-3.3601;
583869053169780;-13.6639;1.1130;-0.3562;
583869063266186;-9.0168;1.2927;2.1063;
583869073370874;-6.6571;1.0220;-0.8378;
583869083475509;-14.0160;-1.1438;-3.4107;
583869093581394;-13.7620;0.4062;-1.0247;
583869103686082;-7.7782;1.0747;0.4128;
583869113790717;-5.7012;-0.1567;-1.6834;
583869123909103;-10.7007;0.0446;-4.9460;
583869134013738;-14.6318;0.9069;-0.4570;
583869144118426;-5.4784;0.0063;2.1206;
583869154211707;-7.2488;-0.3987;-3.5997;
583869164316394;-11.7787;-0.1711;-5.8947;
583869174421030;-7.2846;0.2267;-2.9937;
583869184524519;-5.8020;-0.3099;-5.8732;
583869194629207;-9.1149;0.1690;-7.2649;
583869204733842;-12.6577;0.1259;-5.0420;
583869214831863;-11.7093;0.8973;-1.4342;
583869224936551;-9.1316;-0.1448;2.0584;
583869235041186;-9.8695;0.1714;0.0700;
583869245174415;-11.6204;0.0948;-0.7301;
583869255279051;-9.0742;-0.5375;-0.4496;
583869265383738;-7.2679;-0.0009;-4.0741;
583869275490769;-12.2913;-0.3242;-4.5054;
583869285595457;-11.9414;0.3033;-1.1898;
583869295700092;-9.9915;0.1331;-0.3347;
583869305786707;-6.8824;-0.2907;-0.9024;
583869315891394;-4.8293;-0.1017;-4.1507;
583869325996030;-11.0264;-0.4537;-5.4897;
583869336091707;-17.8152;-0.3580;-0.0927;
583869346196394;0.9751;1.0292;-0.4881;
583869356301030;-12.0398;-0.2477;-6.3523;
583869366410249;-20.6779;0.1642;-0.7469;
583869376514936;-5.8499;1.0340;3.5243;
583869386619571;-1.0134;-0.8177;-4.2347;
583869396735040;-11.6013;-0.9808;-6.4265;
583869406839728;-12.7466;0.9763;-5.2095;
583869416944415;-8.6668;1.6280;-2.6656;
583869427036186;-12.4783;0.3224;0.5874;
583869437140874;-6.2856;-0.2333;0.5372;
583869447245509;-6.7026;0.2746;-5.6097;
583869457345769;-14.5167;-0.1328;-0.4137;
583869467450405;-6.9876;0.8782;0.4798;
583869477555144;-8.9016;0.7175;-10.3768;
583869487678165;-14.2364;1.0986;-2.5624;
583869497782853;-6.9087;1.5921;2.3100;
583869507887488;-5.4497;0.5644;-4.1411;
583869517982228;-16.8500;0.8734;-2.5816;
583869528086915;-10.6528;0.9212;3.5435;
583869538191551;-0.8456;0.5046;-1.9469;
583869548318790;-8.9973;-0.5806;-7.6866;
583869558423478;-12.5788;0.4974;-3.1759;
583869568528113;-8.7317;1.4028;-1.4055;
583869578606082;-5.1263;0.5620;-4.3687;
583869588710769;-11.1416;0.4878;-4.2586;
583869598815457;-13.3956;0.9787;-2.5361;
583869608922019;-8.5161;2.0255;1.4788;
583869619026707;-5.7996;0.3894;-0.0808;
583869629131342;-17.2451;-0.1663;-4.8646;
583869639229624;-14.2340;1.4459;0.8222;
583869649334311;-3.6290;1.2541;1.2176;
583869659438946;-6.4463;-0.1926;-2.5217;
583869669525978;-7.6944;-0.7460;-4.0884;
583869679630665;-9.6036;-0.3437;-6.7379;
583869689735353;-9.6180;0.1690;-3.4729;
583869699855561;-7.7447;-0.0057;-2.6560;
583869709960249;-10.5879;0.6338;-3.7555;
583869720064884;-10.9499;0.5477;1.0522;
583869730177436;-10.0442;0.7418;-0.4857;
583869740282124;-11.4290;-0.0200;-3.1687;
583869750386811;-10.6385;0.7370;-2.4141;
583869760535561;-5.6390;0.7944;-1.5900;
583869770640249;-8.9207;0.1475;-4.6825;
583869780744884;-16.0211;0.3846;-1.7480;
583869790782228;-12.3966;0.8112;2.6261;
583869800886915;-7.2320;-0.1783;0.5420;
583869810991551;-9.4382;-0.6096;-1.0917;
583869821131446;-10.8251;-0.0682;-1.5685;
583869831236186;-7.6534;0.2028;-3.6742;
583869841340821;-6.8222;0.9523;-4.9603;
583869851446446;-7.8835;0.6577;-7.1716;
583869861551186;-11.3904;0.9643;-6.0144;
583869871655821;-9.7448;0.9906;-1.5661;
583869881752019;-4.8987;0.4373;-0.1573;
583869891856707;-4.4172;-0.0583;-5.5857;
583869901961342;-24.6736;0.4684;-5.7245;
583869912068790;-21.1929;2.2077;5.5606;
583869922173478;-0.0191;2.3515;4.8996;
583869932278113;-0.4863;-0.9377;-3.0344;
583869942383478;-12.1020;-0.7316;-8.2496;
583869952488165;-11.9991;1.1345;-4.6083;
583869962592801;-4.3023;1.5514;-1.9086;
583869972739415;-6.1923;-0.2764;-5.6599;
583869982844103;-11.3067;-0.0129;-4.2060;
583869992948738;-12.9117;0.5094;0.0413;
583870003005561;-8.5831;0.3846;2.5017;
583870013110249;-4.5203;0.1259;-3.7531;
583870023214936;-13.0268;0.4349;-10.1109;
583870033327644;-12.0518;1.4554;-2.1984;
583870043432332;-8.1374;1.4267;0.8198;
583870053537019;-5.8666;0.9284;-0.5599;
583870063633790;-7.4572;-0.2142;-2.2774;
583870073738478;-12.4950;-0.0320;-0.7540;
583870083843165;-8.1206;-0.1519;-0.1286;
583870093946186;-7.4596;-0.3820;-2.8307;
583870104050874;-11.2828;-0.6814;-4.2730;
583870114155509;-13.6041;0.5022;-0.4041;
583870124279832;-10.0995;-0.0248;-0.3275;
583870134384519;-8.2238;0.9787;-2.1218;
583870144489155;-6.6858;0.2841;-2.2415;
583870154579624;-6.1851;0.3368;-4.7279;
583870164684311;-9.2707;0.1953;-5.4371;
583870174788946;-9.3329;-0.4083;-3.0607;
583870184888061;-8.5759;0.3942;-3.3266;
583870194992749;-13.6831;0.4831;-2.0644;
583870205097436;-11.3474;0.7490;1.6558;
583870215220665;-5.5457;0.2841;0.0724;
583870225325353;-9.2249;-0.6790;-4.3687;
583870235429988;-21.4205;0.9141;-3.0823;
583870245532436;-11.0384;0.2889;1.5649;
583870255637124;-3.1502;1.0316;0.2067;
583870265741759;-7.2535;-0.8850;-3.3864;
583870275857540;-10.6289;0.2865;-2.7541;
583870285962228;-10.7222;-0.3556;-4.7641;
583870296066863;-8.5831;0.2411;-4.4118;
583870306146186;-8.2406;0.0278;-4.0406;
583870316250874;-10.9690;-0.6383;-1.5541;
583870326355509;-7.4142;1.4363;-2.5217;
583870336456915;-10.5999;-0.6359;-3.5279;
583870346561603;-9.8767;0.8949;-2.6991;
583870356666290;-11.4123;0.5166;-6.0048;
583870366777957;-11.3713;0.7585;-1.4725;
583870376882644;-8.3315;1.2855;-1.0630;
583870386987332;-9.2321;0.6745;-1.4414;
583870397089363;-7.7088;0.1810;-1.1898;
583870407194051;-9.5797;0.4349;-3.2931;
583870417298738;-10.7079;0.3153;-1.8153;
583870427409728;-5.4927;1.0053;-3.0105;
583870437514415;-10.9140;0.2865;-5.1162;
583870447619103;-8.2837;1.0292;-2.5433;
583870457714832;-6.2258;0.4660;-4.5245;
583870467819519;-9.9796;0.3655;-4.9747;
583870477924207;-12.8997;0.9284;-2.6680;
583870488054103;-10.5903;1.1608;-1.1611;
583870498158790;-7.7542;0.9811;1.3540;
583870508263426;-8.9542;0.2770;0.6715;
583870518360874;-9.8599;-0.4131;-1.7001;
583870528465561;-12.0183;0.1810;-1.5036;
583870538570249;-6.8824;0.5094;-1.5781;
583870548649832;-13.0771;-0.0631;-2.4308;
583870558754519;-11.2780;0.5453;-0.4786;
583870568859207;-4.8365;0.5644;-1.2643;
583870578974311;-5.4688;-0.3147;-4.5485;
583870589078999;-11.2540;0.4205;-7.3606;
583870599183686;-13.6256;0.8973;-2.8451;
583870609285874;-8.3172;0.9835;0.0341;
583870619390561;-5.8092;0.0159;-1.1276;
583870629495249;-9.7950;0.0900;-3.1998;
583870639608999;-9.7017;1.1130;-3.5782;
583870649713686;-7.1985;0.0733;-2.4739;
583870659818374;-8.4081;0.0876;-6.1510;
583870669925769;-10.8467;1.0603;-5.2143;
583870680030457;-9.7232;1.0460;-1.4797;
583870690135144;-11.4218;0.2100;0.9709;
583870700219519;-13.6974;0.9260;2.8274;
583870710324207;-11.4362;0.1379;1.9241;
583870720428842;-9.2874;0.6936;-0.1813;
583870730570249;-9.3018;-1.1509;-1.5326;
583870740674936;-7.3636;0.1283;-3.2644;
583870750779571;-5.6246;0.4158;-5.5427;
583870760848686;-6.1971;0.5022;-6.0694;
583870770953426;-5.5768;0.3918;-7.8230;
583870781058061;-9.0000;0.6242;-5.6671;
583870791175249;-11.5463;0.3224;-0.4304;
583870801279884;-14.4162;0.7848;1.6223;
583870811384624;-9.2345;1.2999;0.9565;
583870821490040;-6.7720;0.8853;-4.1076;
583870831594728;-11.3115;0.1187;-5.0515;
583870841699415;-10.2191;0.8064;-2.9076;
583870851819103;-11.2732;0.9452;-2.4835;
583870861923790;-8.2478;0.3727;-0.4738;
583870872028478;-8.4682;0.3894;-0.3658;
583870882127696;-14.8783;0.0182;1.7375;
583870892232384;-10.9857;0.0111;4.0131;
583870902337071;-4.2688;0.0159;0.0126;
583870912450509;-5.8259;-1.3161;-8.2038;
583870922555196;-17.4081;1.0914;-8.7718;
583870932659884;-10.7797;1.5826;0.1229;
583870942742957;1.6193;0.6984;-3.0511;
583870952847644;-1.7103;-0.5638;-9.4543;
583870962952332;-12.9380;0.4134;-8.9776;
583870973053478;-21.9954;1.8413;-1.5733;
583870983158165;-11.8600;1.3813;9.2689;
583870993262853;-3.4472;1.0316;2.0824;
583871003351707;-8.8729;-0.2070;-5.9880;
583871013456394;-10.3340;-0.5806;-3.7196;
583871023561082;-8.1470;0.9452;-3.6742;
583871033691499;-6.2163;1.0699;-5.0109;
583871043796186;-9.1340;0.2865;-6.5773;
583871053900874;-12.2650;0.7394;-0.3323;
583871063992957;-8.0656;0.4564;4.2622;
583871074097644;-7.8595;0.3392;0.8895;
583871084202332;-8.3842;-0.2094;-4.3687;
583871094314519;-10.9810;-0.4202;-5.7509;
583871104419207;-9.9844;0.4735;-4.4213;
583871114523894;-11.9943;1.3932;-2.2774;
583871124631603;-9.5004;1.2685;-0.1023;
583871134736290;-6.2880;0.8590;0.4510;
583871144840978;-5.5433;-0.2333;-3.5997;
583871154943165;-0.4481;-0.5949;-6.1582;
583871165047801;-29.9055;0.9069;-5.2549;
583871175152540;-28.4584;1.8772;10.6678;
583871185241082;2.6901;2.3874;9.5587;
583871195345769;3.5453;-1.5461;-4.5843;
583871205450457;-13.0914;-1.9268;-10.8796;
583871215575926;-11.4745;1.0364;-6.9009;
583871225680613;-3.8351;1.2808;-5.7030;
583871235785301;-10.1474;0.5859;-8.6542;
583871245892853;-16.8404;-0.2548;-1.1946;
583871255997540;-15.2593;-0.1400;5.9366;
583871266102228;-3.2339;-0.5806;8.4473;
583871276194624;1.1812;-0.6861;-10.3358;
583871286299311;-16.9505;0.0852;-21.4152;
583871296403999;-17.4081;1.4889;-1.5156;
583871306502853;-8.8633;1.1943;5.0934;
583871316607540;-6.8175;0.7223;-0.1310;
583871326712228;-6.5973;0.6410;-0.8904;
583871336822696;-10.6385;-0.5590;0.0724;
583871346927384;-9.2850;-1.3089;-1.4701;
583871357032071;-8.9662;-0.3772;-6.9942;
583871367131707;-12.4205;0.0757;-6.8913;
583871377236394;-8.6764;0.1834;0.7169;
583871387341082;-5.9767;-0.4848;-0.8904;
583871397446707;-9.1579;-0.4777;-4.9675;
583871407551394;-13.6041;0.0996;-1.7527;
583871417656082;-11.1365;-0.5112;-0.4642;
583871427757957;-7.3875;-0.2261;-1.0702;
583871437862644;-6.8752;-1.0143;-1.0582;
583871447967332;-9.1986;-0.4107;-4.1411;
583871458073894;-10.7725;0.0446;-5.1018;
583871468178582;-8.8633;0.5118;-1.7001;
583871478283269;-8.6644;0.4229;-2.5265;
583871488386603;-12.1427;0.7705;-1.9301;
583871498491290;-9.2608;0.2219;0.3335;
583871508595978;-10.9331;0.7370;-0.8833;
583871518705978;-9.3425;0.4612;-1.7575;
583871528810665;-6.3721;0.0829;-3.8154;
583871538915353;-9.6012;0.2770;-5.0348;
583871549014415;-11.1030;0.5692;-3.6742;
583871559119103;-10.8586;1.8437;-1.8129;
583871569223790;-10.0828;1.0364;0.8629;
583871579337124;-9.0120;0.8160;0.4343;
583871589441811;-9.9939;0.6099;-1.5179;
583871599546499;-10.6122;0.7561;-2.3758;
583871609643686;-7.6777;1.0196;-2.2558;
583871619748374;-4.8628;0.4110;-4.1698;
583871629853061;-9.3018;0.0781;-6.8842;
583871639957696;-13.1321;0.7370;-3.3649;
583871650062384;-12.5142;1.7142;-0.0975;
583871660167071;-9.6084;1.5467;0.3383;
583871670273582;-8.6524;1.0962;1.0475;
583871680378269;-7.9340;-0.1615;-2.4021;
583871690482957;-7.2535;-0.5351;-4.4644;
583871700619728;-8.8920;-0.0559;-4.8120;
583871710724415;-10.5808;0.7992;-5.0539;
583871720829103;-11.4912;0.1618;-1.9516;
583871730897853;-13.9657;-0.0105;2.0441;
583871741002540;-5.0689;-0.5901;1.3493;
583871751107228;-5.5457;-0.3508;-4.0645;
583871761269311;-8.2143;-0.3508;-6.4840;
583871771373999;-11.3067;-0.4992;-5.2262;
583871781478686;-13.3621;0.3511;-1.8416;
583871791534624;-12.7343;0.3081;0.3769;
583871801639311;-8.7123;0.2001;3.2106;
583871811743999;-7.1387;-0.2070;-0.3873;
583871821834519;-8.6118;-1.0693;-2.9746;
583871831939207;-8.5974;-0.6550;-4.2658;
583871842043894;-8.4057;0.1594;-8.0698;
583871852160561;-12.3392;0.6529;-5.2071;
583871862265249;-8.8681;-0.8249;1.7471;
583871872369936;-10.4085;-0.0631;1.2775;
583871882483686;-9.4406;-0.2189;0.3335;
583871892588374;-9.1843;0.7561;-3.0751;
583871902693061;-7.7877;-0.2094;-4.9531;
583871912776290;-9.9126;0.8351;-5.8277;
583871922880978;-9.9317;-0.2477;-3.5375;
583871932985665;-9.2827;1.1919;-2.5433;
583871943112124;-9.1292;0.8016;-3.0703;
583871953216811;-11.4577;0.9045;-0.3227;
583871963321499;-8.4224;-0.2142;0.5348;
583871973413061;-10.4013;-0.2644;-1.1252;
583871983517749;-11.5582;0.6673;-2.1362;
583871993622436;-4.8963;0.8064;-2.8546;
583872003745457;-9.1340;0.5094;-5.3390;
583872013850144;-12.3009;0.4301;-3.3745;
583872023954832;-9.4502;0.2028;-1.1396;
583872034047540;-8.0130;1.2760;-2.1577;
