Sensor: bmi160 Gyroscope Non-wakeup
Vendor: BOSCH
TimestampGyro [ns]; GyroX [rad/s]; GyroY [rad/s]; GyroZ [rad/s]
1192698624574302;0.0487;-0.0156;-0.0402;
1192698634674771;0.0445;-0.0134;-0.0381;
1192698644791021;0.0328;-0.0092;-0.0423;
1192698654897219;0.0189;-0.0060;-0.0413;
1192698664999042;0.0178;-0.0039;-0.0402;
1192698675059614;0.0200;-0.0049;-0.0370;
1192698685201281;0.0168;-0.0060;-0.0349;
1192698695295187;0.0189;-0.0071;-0.0338;
1192698705404771;0.0189;-0.0081;-0.0306;
1192698715502948;0.0210;-0.0049;-0.0274;
1192698725600448;0.0221;-0.0007;-0.0221;
1192698735712271;0.0200;0.0025;-0.0232;
1192698745814562;0.0200;0.0004;-0.0232;
1192698755918104;0.0210;0.0025;-0.0168;
1192698766027479;0.0232;0.0036;-0.0115;
1192698776129458;0.0221;0.0004;-0.0072;
1192698786245239;0.0189;-0.0071;-0.0029;
1192698796338989;0.0168;-0.0060;0.0003;
1192698806442583;0.0168;-0.0017;0.0056;
1192698816547062;0.0157;0.0036;0.0109;
1192698826644198;0.0146;0.0079;0.0152;
1192698836756698;0.0115;0.0089;0.0216;
1192698846859510;0.0083;0.0079;0.0290;
1192698856962323;0.0072;0.0047;0.0386;
1192698867067062;0.0019;0.0036;0.0482;
1192698877201437;-0.0013;0.0047;0.0567;
1192698887273469;-0.0024;0.0079;0.0652;
1192698897372271;-0.0024;0.0153;0.0738;
1192698907485969;-0.0056;0.0206;0.0834;
1192698917587323;-0.0088;0.0217;0.0929;
1192698927702323;-0.0120;0.0185;0.1047;
1192698937795448;-0.0152;0.0164;0.1164;
1192698947902479;-0.0173;0.0174;0.1270;
1192698958040864;-0.0173;0.0185;0.1366;
1192698968106177;-0.0216;0.0238;0.1462;
1192698978217271;-0.0226;0.0313;0.1537;
1192698988321385;-0.0269;0.0409;0.1632;
1192698998416906;-0.0280;0.0451;0.1728;
1192699008530812;-0.0301;0.0430;0.1803;
1192699018634719;-0.0333;0.0387;0.1877;
1192699028732896;-0.0344;0.0345;0.1941;
1192699038862844;-0.0333;0.0345;0.2037;
1192699048951542;-0.0344;0.0345;0.2080;
1192699059045656;-0.0344;0.0377;0.2154;
1192699069149562;-0.0365;0.0419;0.2197;
1192699079289562;-0.0407;0.0441;0.2240;
1192699089363625;-0.0418;0.0441;0.2314;
1192699099465500;-0.0407;0.0441;0.2378;
1192699109586542;-0.0397;0.0419;0.2431;
1192699119732271;-0.0386;0.0377;0.2485;
1192699129791750;-0.0397;0.0356;0.2495;
1192699139879094;-0.0429;0.0377;0.2527;
1192699149987427;-0.0429;0.0377;0.2570;
1192699160102167;-0.0439;0.0419;0.2623;
1192699170230760;-0.0450;0.0451;0.2655;
1192699180357635;-0.0450;0.0494;0.2666;
1192699190412010;-0.0471;0.0494;0.2666;
1192699200534667;-0.0471;0.0451;0.2719;
1192699210626177;-0.0471;0.0441;0.2751;
1192699220753364;-0.0503;0.0430;0.2751;
1192699230901594;-0.0514;0.0441;0.2751;
1192699240942219;-0.0525;0.0419;0.2762;
1192699251033260;-0.0503;0.0366;0.2751;
1192699261148937;-0.0482;0.0356;0.2740;
1192699271255396;-0.0503;0.0345;0.2708;
1192699281380552;-0.0503;0.0356;0.2687;
1192699291475656;-0.0482;0.0366;0.2655;
1192699301581489;-0.0461;0.0366;0.2602;
1192699311667635;-0.0429;0.0345;0.2538;
1192699321776437;-0.0418;0.0356;0.2474;
1192699331866073;-0.0663;0.0270;0.2325;
1192699341979510;-0.1111;0.0100;0.2250;
1192699352090396;-0.1814;0.0004;0.2048;
1192699362199979;-0.3634;-0.0113;0.1920;
1192699372298104;-0.5573;-0.0145;0.1750;
1192699382402271;-0.6808;0.0036;0.1547;
1192699392508625;-0.8214;0.0196;0.1398;
1192699402617062;-0.9150;0.0419;0.1217;
1192699412716542;-0.9077;0.0643;0.1111;
1192699422794771;-0.8481;0.0611;0.1132;
1192699432950187;-0.7596;0.0473;0.1238;
1192699443038364;-0.6915;0.0356;0.1345;
1192699453141125;-0.6521;0.0132;0.1430;
1192699463244667;-0.6041;-0.0156;0.1462;
1192699473344667;-0.5349;-0.0379;0.1430;
1192699483453104;-0.4806;-0.0369;0.1441;
1192699493556750;-0.4273;-0.0241;0.1451;
1192699503644927;-0.3932;-0.0017;0.1483;
1192699513763364;-0.3517;0.0292;0.1419;
1192699523863729;-0.2964;0.0515;0.1313;
1192699533977583;-0.2453;0.0590;0.1281;
1192699544074979;-0.2101;0.0526;0.1302;
1192699554179146;-0.1760;0.0324;0.1345;
1192699564280135;-0.1387;0.0111;0.1356;
1192699574386750;-0.1111;0.0068;0.1292;
1192699584494354;-0.1068;0.0057;0.1249;
1192699594595864;-0.1100;0.0089;0.1174;
1192699604705604;-0.1228;0.0217;0.0983;
1192699614807896;-0.1324;0.0121;0.0812;
1192699624908989;-0.1387;-0.0124;0.0716;
1192699635015604;-0.1441;-0.0039;0.0674;
1192699645118104;-0.1505;0.0089;0.0642;
1192699655222271;-0.1611;0.0079;0.0493;
1192699665325135;-0.1760;0.0164;0.0237;
1192699675441542;-0.1824;0.0334;0.0024;
1192699685538521;-0.1856;0.0526;-0.0061;
1192699695647323;-0.1707;0.0622;-0.0061;
1192699705756125;-0.1409;0.0462;-0.0093;
1192699715858364;-0.1015;0.0313;-0.0210;
1192699725967167;-0.0503;0.0398;-0.0242;
1192699736075969;0.0040;0.0334;-0.0200;
1192699746175135;0.0125;-0.0039;-0.0146;
1192699756283937;0.0232;0.0079;-0.0125;
1192699766392739;0.0178;0.0590;-0.0285;
1192699776482062;-0.0216;0.0281;-0.0477;
1192699786590864;-0.0237;-0.0220;-0.0509;
1192699796699667;0.0146;0.0345;-0.0391;
1192699806795969;0.0125;0.0696;-0.0328;
1192699816904771;0.0083;0.0356;-0.0423;
1192699827013573;0.0168;0.0356;-0.0423;
1192699837126177;0.0157;0.0696;-0.0391;
1192699847234979;-0.0013;0.0760;-0.0338;
1192699857343781;-0.0248;0.0345;-0.0274;
1192699867417844;-0.0152;0.0111;-0.0146;
1192699877526646;0.0040;0.0196;-0.0040;
1192699887635448;0.0083;0.0302;-0.0051;
1192699897737323;-0.0045;0.0292;-0.0061;
1192699907846125;-0.0120;0.0569;0.0056;
1192699917954927;-0.0386;0.0356;0.0301;
1192699928035500;-0.0684;-0.0348;0.0429;
1192699938144302;-0.1302;0.0015;0.0375;
1192699948253104;-0.1622;0.0505;0.0354;
1192699958352062;-0.1164;0.0473;0.0439;
1192699968460864;-0.0972;0.0505;0.0567;
1192699978569667;-0.1079;0.0707;0.0748;
1192699988682010;-0.1036;0.0441;0.0876;
1192699998790812;-0.0993;-0.0007;0.0908;
1192700008899614;-0.1015;-0.0422;0.0897;
1192700018983469;-0.1313;-0.0656;0.0759;
1192700029092271;-0.2080;-0.0593;0.0663;
1192700039201073;-0.3250;-0.0252;0.0514;
1192700049311281;-0.4209;0.0441;0.0344;
1192700059420083;-0.4603;0.0345;0.0024;
1192700069528885;-0.4699;-0.0071;-0.0242;
1192700079631177;-0.5210;0.0409;-0.0242;
1192700089739979;-0.5391;0.0814;-0.0466;
1192700099848781;-0.5253;0.0196;-0.0903;
1192700109914614;-0.5210;0.0068;-0.0999;
1192700120023364;-0.5104;0.0387;-0.0967;
1192700130132219;-0.4848;0.0249;-0.0956;
1192700140241073;-0.4433;0.0142;-0.1190;
1192700150349875;-0.4049;0.0036;-0.1414;
1192700160458677;-0.3730;0.0185;-0.1670;
1192700170534094;-0.3304;0.0771;-0.1670;
1192700180642896;-0.3039;0.0771;-0.1702;
1192700190751698;-0.2495;0.0089;-0.1702;
1192700200880135;-0.2293;-0.0145;-0.1744;
1192700210988937;-0.2240;-0.0156;-0.1787;
1192700221097739;-0.2144;0.0206;-0.1840;
1192700231197635;-0.2442;0.0846;-0.1851;
1192700241306437;-0.2591;0.1367;-0.1861;
1192700251415239;-0.2559;0.1453;-0.1979;
1192700261496698;-0.2868;0.1048;-0.2233;
1192700271605500;-0.2985;0.0142;-0.2053;
1192700281714302;-0.2698;-0.0475;-0.1925;
1192700291825969;-0.3091;-0.0518;-0.1883;
1192700301934771;-0.4060;-0.0060;-0.1936;
1192700312043573;-0.4262;0.0217;-0.2489;
1192700322124614;-0.3762;-0.0891;-0.2968;
1192700332233417;-0.3559;-0.0880;-0.3032;
1192700342342219;-0.4465;0.0920;-0.3064;
1192700352438469;-0.3868;0.0686;-0.3234;
1192700362547271;-0.2186;-0.0379;-0.3703;
1192700372656073;-0.2687;0.1261;-0.3575;
1192700382757219;-0.2985;0.2687;-0.3479;
1192700392866021;-0.1398;0.1485;-0.4001;
1192700402974823;-0.0855;0.0515;-0.4523;
1192700413069562;-0.0716;0.0835;-0.4768;
1192700423178364;-0.0290;0.0718;-0.5045;
1192700433287167;0.0509;-0.0348;-0.5386;
1192700443390031;0.0381;-0.0880;-0.5386;
1192700453498833;-0.0674;0.0025;-0.5674;
1192700463607635;-0.0844;0.0877;-0.6270;
1192700473689146;-0.0099;0.1059;-0.6568;
1192700483797948;0.0999;0.1282;-0.6899;
1192700493906750;0.1627;0.1623;-0.7048;
1192700503996229;0.2011;0.2166;-0.6984;
1192700514105031;0.2266;0.2390;-0.6835;
1192700524213833;0.3735;0.1953;-0.6483;
1192700534313364;0.5727;0.0846;-0.6270;
1192700544422167;0.6984;0.0206;-0.6174;
1192700554530969;0.7367;0.0004;-0.5887;
1192700564632427;0.7154;0.0419;-0.6132;
1192700574741229;0.6696;0.0643;-0.6387;
1192700584850031;0.7101;0.0270;-0.5961;
1192700594946594;0.7506;-0.0071;-0.5493;
1192700605055396;0.7474;-0.0124;-0.5226;
1192700615164198;0.7623;-0.0454;-0.5152;
1192700625260396;0.7261;-0.0379;-0.5045;
1192700635369198;0.6515;0.0089;-0.4694;
1192700645478000;0.6419;0.0228;-0.4182;
1192700655576385;0.5759;0.0835;-0.4310;
1192700665685187;0.5610;0.0803;-0.3884;
1192700675793989;0.5578;0.0941;-0.3447;
1192700685892427;0.5567;0.0622;-0.3309;
1192700695997844;0.5525;-0.0273;-0.3021;
1192700706103260;0.5141;-0.0624;-0.3075;
1192700716201073;0.5045;-0.0731;-0.2947;
1192700726306489;0.5663;-0.0433;-0.2574;
1192700736411906;0.6462;0.0302;-0.2489;
1192700746517635;0.6813;-0.0188;-0.2201;
1192700756623052;0.6824;-0.0475;-0.1915;
1192700766728469;0.6366;-0.0699;-0.2233;
1192700776828052;0.6526;-0.0316;-0.2137;
1192700786933469;0.6611;0.0132;-0.2085;
1192700797038885;0.6750;-0.0039;-0.1798;
1192700807134667;0.6409;0.0238;-0.1222;
1192700817240083;0.5184;-0.0635;-0.1563;
1192700827345500;0.4001;-0.1008;-0.1723;
1192700837485239;0.3479;-0.0465;-0.1766;
1192700847590656;0.3415;0.0313;-0.1734;
1192700857696073;0.3362;0.0292;-0.1648;
1192700867772219;0.3023;-0.0593;-0.1840;
1192700877877635;0.3330;-0.0220;-0.1595;
1192700887983052;0.3937;0.0238;-0.1925;
1192700898082323;0.4545;-0.0348;-0.1808;
1192700908187739;0.4395;-0.1274;-0.1808;
1192700918293156;0.4683;-0.1104;-0.1627;
1192700928403781;0.4896;-0.1413;-0.1563;
1192700938509198;0.5503;-0.1189;-0.1808;
1192700948614614;0.6398;0.0238;-0.1787;
1192700958725344;0.6867;-0.0422;-0.1861;
1192700968830760;0.6217;-0.1605;-0.1691;
1192700978936177;0.6132;-0.0614;-0.2075;
1192700989018677;0.7495;0.0547;-0.2212;
1192700999124094;0.8827;0.0835;-0.2350;
1192701009229510;0.9518;-0.0103;-0.1957;
1192701019331073;0.9401;-0.0529;-0.2053;
1192701029436489;1.0509;-0.0198;-0.2148;
1192701039541906;1.1851;-0.1455;-0.1936;
1192701049688833;1.3129;-0.2915;-0.1563;
1192701059794250;1.4109;-0.2766;-0.1371;
1192701069899667;1.5844;-0.1839;-0.1382;
1192701079952323;1.7474;-0.0145;-0.1190;
1192701090057739;1.9050;0.0483;-0.1254;
1192701100163156;1.9530;0.0302;-0.0541;
1192701110331281;1.8113;0.0260;-0.0019;
1192701120436698;1.6174;-0.0039;0.0130;
1192701130542114;1.4919;-0.0209;0.0152;
1192701140610292;1.4045;-0.0348;0.0322;
1192701150715708;1.3757;0.0260;0.0269;
1192701160821125;1.3204;0.0782;0.0642;
1192701170902531;1.1925;0.0036;0.1111;
1192701181007948;0.9443;-0.0230;0.1334;
1192701191113364;0.7964;0.0068;0.1206;
1192701201222948;0.8060;0.0356;0.1196;
1192701211328364;0.8134;0.1240;0.1121;
1192701221433781;0.8124;0.1964;0.1015;
1192701231551489;0.7794;0.1612;0.1292;
1192701241656906;0.7304;0.1314;0.1696;
1192701251762323;0.6270;0.1698;0.2016;
1192701261839927;0.6526;0.1687;0.2250;
1192701271945344;0.6813;0.1389;0.2399;
1192701282050760;0.6377;0.0867;0.2698;
1192701292159302;0.5833;0.0941;0.3209;
1192701302264719;0.5663;0.1218;0.3337;
1192701312370135;0.5439;0.0579;0.3465;
1192701322476177;0.4662;0.0579;0.3539;
1192701332581594;0.4907;0.1197;0.3784;
1192701342687010;0.4885;0.1953;0.4007;
1192701352795500;0.5471;0.2623;0.4102;
1192701362900917;0.5280;0.2529;0.3975;
1192701373006333;0.4651;0.2687;0.4252;
1192701383108364;0.3927;0.2826;0.4134;
1192701393213781;0.3096;0.2337;0.4241;
1192701403319198;0.2394;0.2369;0.4486;
1192701413421698;0.1531;0.2486;0.4518;
1192701423527114;0.0210;0.1250;0.4561;
1192701433632531;-0.1377;0.0696;0.4592;
1192701443750656;-0.1153;0.2017;0.4305;
1192701453856073;-0.0237;0.3060;0.3996;
1192701463961489;-0.1025;0.1698;0.3975;
1192701474053573;-0.2463;0.1133;0.3964;
1192701484158989;-0.2325;0.2379;0.3571;
1192701494264406;-0.2144;0.2582;0.3795;
1192701504361698;-0.2719;0.1719;0.3592;
1192701514467114;-0.3176;0.1772;0.3124;
1192701524572531;-0.3570;0.1602;0.2857;
1192701534672010;-0.4177;0.0249;0.2879;
1192701544777427;-0.4316;-0.0262;0.2538;
1192701554882844;-0.3847;0.0302;0.2389;
1192701564990135;-0.3154;0.1133;0.2027;
1192701575105187;-0.1867;0.1133;0.2005;
1192701585210552;-0.1419;0.0387;0.2229;
1192701595316021;-0.1292;0.0718;0.1995;
1192701605405656;-0.0567;0.1037;0.1611;
1192701615511073;0.0743;0.1112;0.1782;
1192701625616489;0.1702;0.1612;0.1803;
1192701635722583;0.2288;0.1197;0.1973;
1192701645828000;0.2106;-0.0379;0.2197;
1192701655933417;0.1638;-0.0965;0.2378;
1192701666035656;0.1297;-0.0497;0.2474;
1192701676141073;0.1819;0.0281;0.2485;
1192701686246489;0.2096;0.0153;0.2389;
1192701696352114;0.1957;0.0249;0.2623;
1192701706457531;0.2160;0.1016;0.2921;
1192701716562948;0.2170;0.1069;0.3007;
1192701726662531;0.2021;0.1240;0.3390;
1192701736767948;0.2032;0.1016;0.3550;
1192701746873364;0.1457;0.0068;0.3592;
1192701756991333;0.0860;0.0345;0.3752;
1192701767096750;0.0594;0.0888;0.3763;
1192701777202167;0.0360;0.0973;0.3774;
1192701787294667;-0.0216;0.1112;0.3859;
1192701797400083;-0.1409;0.0963;0.3752;
1192701807505500;-0.2197;0.0803;0.3571;
1192701817600344;-0.2868;0.0643;0.3497;
1192701827705760;-0.3815;0.0153;0.3071;
1192701837811177;-0.4284;0.0089;0.2975;
1192701847918260;-0.4731;0.0238;0.2708;
1192701858023677;-0.5210;-0.0401;0.2336;
1192701868129094;-0.6116;-0.0795;0.2282;
1192701878237219;-0.7298;0.0164;0.2091;
1192701888342635;-0.7096;0.1112;0.1601;
1192701898448052;-0.5615;0.1357;0.1334;
1192701908542114;-0.4880;0.0366;0.1356;
1192701918647531;-0.5359;-0.0518;0.1185;
1192701928752948;-0.5509;0.0686;0.1377;
1192701938851281;-0.4550;0.1985;0.1132;
1192701948956698;-0.2506;0.1858;0.0876;
1192701959062114;-0.1451;0.1367;0.1079;
1192701969169875;-0.1707;0.0217;0.1377;
1192701979275344;-0.2463;-0.0294;0.1185;
1192701989380760;-0.2367;0.0079;0.1356;
1192701999474094;-0.1494;0.0409;0.1473;
1192702009579510;-0.1004;0.0132;0.1462;
1192702019684927;-0.1451;-0.0294;0.1569;
1192702029799771;-0.1228;0.0089;0.1654;
1192702039905187;-0.0951;0.0632;0.1643;
1192702050010604;-0.1047;0.0302;0.2016;
1192702060108052;-0.1164;0.0569;0.2293;
1192702070213469;-0.1164;0.1559;0.2367;
1192702080318885;-0.0908;0.2602;0.2591;
1192702090415552;-0.0642;0.2390;0.3124;
1192702100520969;-0.1164;0.0622;0.3284;
1192702110626385;-0.1909;-0.0667;0.3166;
1192702120754406;-0.2517;-0.0816;0.3102;
1192702130859823;-0.3101;0.0377;0.3220;
1192702140965239;-0.3666;0.0569;0.3358;
1192702151043156;-0.3431;-0.0124;0.3198;
1192702161148573;-0.3453;-0.1445;0.3411;
1192702171253989;-0.4017;-0.1679;0.2996;
1192702181362323;-0.4720;-0.1168;0.2644;
1192702191467739;-0.4997;0.0089;0.2612;
1192702201573156;-0.4955;0.0302;0.2495;
1192702211682427;-0.4166;-0.0624;0.2069;
1192702221787844;-0.4241;0.0728;0.2037;
1192702231893260;-0.4049;0.2220;0.2165;
1192702242003469;-0.2559;0.0686;0.1750;
1192702252108885;-0.2666;-0.0134;0.1547;
1192702262214302;-0.3240;0.1037;0.1174;
1192702272312531;-0.3240;0.1101;0.0961;
1192702282417948;-0.3336;-0.1146;0.0663;
1192702292523364;-0.4614;-0.1850;0.0258;
1192702302693312;-0.6371;-0.0529;0.0184;
1192702312798781;-0.6393;0.0015;-0.0072;
1192702322904198;-0.5232;0.0111;-0.0285;
1192702332945969;-0.4859;0.1208;-0.0594;
1192702343051385;-0.3953;0.2411;-0.0402;
1192702353156802;-0.2176;0.1336;-0.0381;
1192702363259302;-0.2612;0.0004;-0.0136;
1192702373364719;-0.3229;0.0356;-0.0285;
1192702383470135;-0.3048;0.0867;-0.0285;
1192702393565344;-0.3208;0.1868;-0.0221;
1192702403670760;-0.2889;0.3411;-0.0061;
1192702413776177;-0.2591;0.2049;0.0205;
1192702423880500;-0.3091;-0.0379;0.0099;
1192702433985864;-0.3794;-0.0646;-0.0306;
1192702444091281;-0.4592;-0.0571;-0.0189;
1192702454196750;-0.4933;-0.0124;-0.0232;
1192702464294927;-0.4635;0.0601;-0.0264;
1192702474400344;-0.4443;0.0771;-0.0232;
1192702484505760;-0.4965;0.0473;-0.0391;
1192702494606594;-0.5381;0.0324;-0.0466;
1192702504712010;-0.5849;0.0334;-0.0562;
1192702514817427;-0.4987;0.1591;-0.0594;
1192702524931906;-0.4188;0.1676;-0.0626;
1192702535037323;-0.3889;0.0569;-0.1031;
1192702545142739;-0.4316;-0.1104;-0.0775;
1192702555238469;-0.5391;-0.2510;-0.1371;
1192702565343885;-0.5519;-0.2382;-0.1489;
1192702575449302;-0.5562;0.0164;-0.1979;
1192702585552323;-0.4731;0.1080;-0.2265;
1192702595657010;-0.3570;0.0174;-0.2265;
1192702605761646;-0.3314;-0.0039;-0.2169;
1192702615867323;-0.3261;-0.0081;-0.2585;
1192702625972010;-0.3091;0.0771;-0.2915;
1192702636076646;-0.2698;0.2975;-0.3085;
1192702646171698;-0.2293;0.3933;-0.2893;
1192702656276385;-0.3229;0.1527;-0.2851;
1192702666381021;-0.4592;-0.1264;-0.3533;
1192702676497531;-0.4561;-0.1871;-0.3937;
1192702686602219;-0.3666;0.0142;-0.3575;
1192702696706854;-0.2889;0.2198;-0.3288;
1192702706815917;-0.3186;0.0526;-0.3415;
1192702716920552;-0.3399;0.0196;-0.3458;
1192702727025239;-0.2836;0.1506;-0.3415;
1192702737123364;-0.1973;0.1517;-0.2819;
1192702747228052;-0.1899;0.1240;-0.3277;
1192702757332687;-0.1377;0.2783;-0.3032;
1192702767435760;-0.1142;0.5126;-0.2414;
1192702777540448;-0.2346;0.3561;-0.2286;
1192702787645083;-0.3879;-0.1423;-0.2478;
1192702797761177;-0.4071;-0.1828;-0.2467;
1192702807865864;-0.3495;0.1644;-0.2021;
1192702817970500;-0.3039;0.2390;-0.1563;
1192702828055344;-0.3272;0.0036;-0.1723;
1192702838160031;-0.3474;-0.0103;-0.1744;
1192702848264667;-0.3059;0.1623;-0.1574;
1192702858377010;-0.2325;0.2113;-0.1052;
1192702868481698;-0.2229;0.1708;-0.1190;
1192702878586333;-0.3154;0.0846;-0.1521;
1192702888686073;-0.3623;-0.0859;-0.2053;
1192702898790760;-0.3282;-0.0539;-0.2265;
1192702908895396;-0.3028;0.0686;-0.2000;
1192702919020969;-0.3240;0.0100;-0.2276;
1192702929125656;-0.3112;-0.0710;-0.2169;
1192702939230292;-0.3017;0.1410;-0.2297;
1192702949314927;-0.2229;0.2369;-0.2190;
1192702959419614;-0.2389;-0.0358;-0.2925;
1192702969524250;-0.2474;-0.1146;-0.3533;
1192702979654146;-0.2272;0.1069;-0.3469;
1192702989758833;-0.1441;0.1868;-0.3351;
1192702999863469;-0.1238;-0.0113;-0.3714;
1192703009961177;-0.1494;-0.0880;-0.4236;
1192703020065812;-0.1270;-0.0273;-0.4619;
1192703030170500;0.0232;-0.0028;-0.4502;
1192703040306802;0.1361;-0.0987;-0.4268;
1192703050411489;0.1702;-0.0252;-0.4353;
1192703060516125;0.2320;0.1208;-0.4374;
1192703070560135;0.3586;0.0931;-0.4395;
1192703080664823;0.5056;0.0462;-0.4236;
1192703090769458;0.6078;0.0451;-0.3735;
1192703100912531;0.6249;-0.0603;-0.3756;
1192703111017167;0.5812;-0.0816;-0.3415;
1192703121121854;0.5855;-0.1136;-0.2883;
1192703131200969;0.6313;-0.1221;-0.2766;
1192703141305656;0.6675;-0.1019;-0.2776;
1192703151410292;0.6611;-0.0454;-0.2467;
1192703161520031;0.6739;-0.0305;-0.1936;
1192703171624719;0.6973;-0.0550;-0.1989;
1192703181729354;0.6803;-0.0497;-0.1915;
1192703191833781;0.6345;-0.0337;-0.1712;
1192703201938469;0.6015;0.1122;-0.1297;
1192703212043104;0.5897;0.0888;-0.1180;
1192703222145239;0.5674;-0.0784;-0.1009;
1192703232249927;0.4513;-0.0518;-0.1116;
1192703242354562;0.3373;0.0196;-0.1169;
1192703252461177;0.3479;-0.0678;-0.1212;
1192703262565864;0.3012;-0.1636;-0.1084;
1192703272670500;0.2256;-0.1871;-0.0860;
1192703282784719;0.2320;-0.0369;-0.0924;
1192703292889406;0.2692;0.1357;-0.1137;
1192703302994042;0.3245;0.0473;-0.1308;
1192703313085864;0.3106;-0.0092;-0.1180;
1192703323190552;0.2724;0.1048;-0.1446;
1192703333295187;0.2831;0.0611;-0.1510;
1192703343403677;0.2735;-0.0124;-0.1553;
1192703353508364;0.2671;0.0068;-0.1766;
1192703363613000;0.2767;0.1101;-0.1893;
1192703373717739;0.3554;0.1485;-0.1861;
1192703383822427;0.3969;0.0590;-0.1680;
1192703393927062;0.3320;-0.0571;-0.1457;
1192703404032323;0.3096;-0.0997;-0.1499;
1192703414137010;0.3373;-0.0710;-0.1563;
1192703424241646;0.3447;-0.0774;-0.1350;
1192703434350083;0.3394;-0.0593;-0.1489;
1192703444454771;0.3948;-0.0039;-0.1521;
1192703454559406;0.4321;-0.0316;-0.1308;
1192703464654094;0.4097;0.0441;-0.0871;
1192703474758781;0.4534;0.0185;-0.0935;
1192703484863417;0.4715;-0.1328;-0.0967;
1192703494966698;0.4161;-0.1594;-0.0722;
1192703505071385;0.3810;-0.0816;-0.0477;
1192703515176021;0.3916;-0.0667;-0.0445;
1192703525279302;0.4289;-0.0529;-0.0636;
1192703535383989;0.4225;-0.0230;-0.0583;
1192703545488625;0.3778;-0.0624;-0.0423;
1192703555597167;0.3959;-0.0550;-0.0200;
1192703565701854;0.4044;0.0228;-0.0104;
1192703575806489;0.4257;0.0494;0.0035;
1192703585914198;0.4310;0.0654;0.0184;
1192703596018885;0.4044;-0.0188;0.0514;
1192703606123521;0.3373;-0.0912;0.0589;
1192703616228781;0.3224;-0.0486;0.0791;
1192703626333469;0.3660;0.1027;0.0961;
1192703636438156;0.3852;0.0931;0.1025;
1192703646537948;0.3692;-0.1008;0.1228;
1192703656642635;0.2660;-0.1445;0.1217;
1192703666747323;0.2884;0.2561;0.0876;
1192703676873364;0.4150;0.3369;0.0855;
1192703686978052;0.4790;-0.0539;0.1345;
1192703697082739;0.3288;-0.0071;0.1334;
1192703707170031;0.2810;0.2698;0.1089;
1192703717274719;0.3373;0.1325;0.1185;
1192703727379354;0.3245;-0.0944;0.1473;
1192703737481385;0.2522;-0.0593;0.1196;
1192703747586073;0.1883;-0.0145;0.1025;
1192703757690760;0.2213;-0.0529;0.1153;
1192703767791177;0.2682;-0.0667;0.1057;
1192703777895864;0.2490;0.0643;0.1142;
1192703788000500;0.2778;0.1634;0.1185;
1192703798151177;0.3937;0.1133;0.0844;
1192703808255864;0.3501;0.0409;0.1153;
1192703818360500;0.3053;0.0814;0.1132;
1192703828416698;0.3138;0.1272;0.1153;
1192703838521385;0.3245;0.0313;0.1249;
1192703848626073;0.2873;-0.0646;0.1153;
1192703858732844;0.2746;0.0313;0.1132;
1192703868837531;0.2852;0.0846;0.1302;
1192703878942167;0.2873;-0.0156;0.1441;
1192703889047323;0.2810;0.0079;0.1206;
1192703899152010;0.3023;0.0547;0.1387;
1192703909256698;0.3085;0.0377;0.1526;
1192703919356333;0.3023;0.0079;0.1654;
1192703929460969;0.2650;0.0164;0.1760;
1192703939565656;0.2426;0.0441;0.1718;
1192703949707635;0.2405;0.0664;0.1909;
1192703959812323;0.2714;0.0579;0.1984;
1192703969916958;0.2586;-0.0379;0.2133;
1192703979971177;0.1925;-0.0933;0.2218;
1192703990075812;0.0764;-0.0145;0.2048;
1192704000180552;0.0583;0.1272;0.1867;
1192704010346802;0.1830;0.1602;0.1771;
1192704020451489;0.2490;0.0313;0.1846;
1192704030556125;0.2053;0.0643;0.1963;
1192704040626698;0.1734;0.1005;0.2112;
1192704050731385;0.1968;0.0324;0.2059;
1192704060836021;0.1893;-0.0571;0.2080;
1192704070942010;0.1446;-0.0933;0.2325;
1192704081046698;0.0807;0.0228;0.2037;
1192704091151385;0.1116;0.0526;0.2176;
1192704101239094;0.1723;0.0377;0.2282;
1192704111343781;0.2011;0.0995;0.2421;
1192704121448417;0.1830;0.0068;0.2634;
1192704131584927;0.1616;-0.0731;0.2602;
1192704141689614;0.0722;0.1325;0.2208;
1192704151794250;0.0945;0.2634;0.2101;
1192704161883156;0.2170;0.0611;0.2463;
1192704171987844;0.0945;-0.0720;0.2314;
1192704182092531;-0.0503;0.0260;0.1931;
1192704192198573;-0.0642;0.0750;0.1803;
1192704202303260;-0.0258;-0.0486;0.1590;
1192704212407896;-0.1057;-0.0944;0.1302;
1192704222513260;-0.2250;-0.0252;0.1079;
1192704232617948;-0.2261;0.0483;0.0887;
1192704242722583;-0.1473;0.0047;0.0589;
1192704252815344;-0.1313;-0.0571;0.0354;
1192704262920031;-0.1718;-0.0081;0.0344;
1192704273024719;-0.1590;-0.0007;0.0184;
1192704283145344;-0.1004;-0.1040;0.0045;
1192704293250031;-0.0961;-0.1370;-0.0264;
1192704303354667;-0.1196;-0.1881;-0.0477;
1192704313443781;-0.1228;-0.1828;-0.0562;
1192704323548469;-0.1377;-0.0859;-0.0487;
1192704333653104;-0.1196;0.0398;-0.1020;
1192704343763885;0.0051;0.1517;-0.1222;
1192704353868573;0.1371;0.0877;-0.0935;
1192704363973208;0.1819;0.0111;-0.0892;
1192704374082739;0.1361;0.0185;-0.1020;
1192704384187427;0.0743;-0.0252;-0.0977;
1192704394292062;0.0690;-0.0337;-0.0988;
1192704404384198;0.0743;-0.0262;-0.0850;
1192704414488885;0.0988;-0.0603;-0.0668;
1192704424593573;0.0924;-0.0529;-0.0530;
1192704434711489;0.0956;-0.0465;-0.0455;
1192704444816177;0.0999;-0.0507;-0.0381;
1192704454920812;0.1148;0.0249;-0.0445;
1192704465027583;0.1542;0.0920;-0.0232;
1192704475132271;0.1883;0.1027;0.0013;
1192704485236906;0.1840;0.1091;-0.0061;
1192704495327844;0.1478;0.0174;-0.0029;
1192704505432531;0.0796;-0.1072;0.0077;
1192704515537219;0.0434;-0.1338;-0.0115;
1192704525644667;0.0455;-0.1519;-0.0328;
1192704535749354;0.0562;-0.0838;-0.0477;
1192704545854042;0.0487;-0.0262;-0.0487;
1192704555957114;0.0551;-0.0710;-0.0445;
1192704566061802;0.0871;-0.0358;-0.0541;
1192704576166489;0.1212;-0.0241;-0.0519;
1192704586267531;0.1169;-0.0795;-0.0658;
1192704596372167;0.0924;-0.0752;-0.0349;
1192704606476750;0.0892;-0.0252;-0.0551;
1192704616587219;0.1265;-0.0284;-0.0711;
1192704626691802;0.1403;-0.0454;-0.0839;
1192704636796385;0.1446;-0.0486;-0.0690;
1192704646901333;0.1084;-0.0390;-0.0818;
1192704657005917;0.1169;-0.0550;-0.0881;
1192704667110552;0.1265;-0.0624;-0.0945;
1192704677206281;0.1233;-0.0039;-0.0967;
1192704687310917;0.1510;0.0196;-0.1116;
1192704697415500;0.1968;-0.0369;-0.1137;
1192704707522739;0.1808;-0.0273;-0.1063;
1192704717627375;0.1840;-0.0731;-0.1158;
1192704727731958;0.1595;-0.1562;-0.1169;
1192704737843989;0.1201;0.0047;-0.1201;
1192704747948573;0.1883;0.1623;-0.1521;
1192704758053208;0.3810;0.0995;-0.1766;
1192704768151594;0.4885;-0.0529;-0.1595;
1192704778256229;0.3682;-0.0678;-0.1286;
1192704788360812;0.3043;-0.0252;-0.1478;
1192704798465812;0.3671;-0.1061;-0.1542;
1192704808570396;0.3106;-0.0252;-0.1169;
1192704818675031;0.2980;0.1644;-0.1553;
1192704828780031;0.5013;0.1293;-0.1467;
1192704838884667;0.5727;-0.0401;-0.1233;
1192704848989250;0.4129;-0.1253;-0.1148;
1192704859083885;0.2778;0.0270;-0.1105;
1192704869188521;0.3085;0.1559;-0.0977;
1192704879293104;0.4832;0.1453;-0.1158;
1192704889404614;0.6281;0.2294;-0.0988;
1192704899509198;0.5833;-0.0188;-0.0189;
1192704909613781;0.4087;-0.3659;-0.0029;
1192704919718052;0.2852;-0.0539;-0.0296;
1192704929822635;0.3735;0.1549;-0.0551;
1192704939927271;0.5833;-0.0198;-0.0381;
1192704950045552;0.5482;-0.0316;-0.0051;
1192704960150135;0.4023;0.2113;0.0130;
1192704970254719;0.4715;0.1122;0.0461;
1192704980382948;0.5301;-0.1743;0.0567;
1192704990487531;0.4353;-0.0294;0.0482;
1192705000592167;0.4012;0.1186;0.0748;
1192705010648677;0.4502;-0.0454;0.1164;
1192705020753260;0.3969;-0.1370;0.1281;
1192705030857844;0.3351;-0.0582;0.1057;
1192705040979406;0.3618;0.0430;0.1366;
1192705051083989;0.4172;0.0356;0.1238;
1192705061188625;0.4811;0.1346;0.1036;
1192705071294406;0.4790;0.1932;0.1334;
1192705081399042;0.5141;0.0441;0.1814;
1192705091503625;0.5024;0.0739;0.1920;
1192705101619302;0.4523;0.0814;0.1824;
1192705111723885;0.3937;-0.0092;0.2272;
1192705121828521;0.3724;0.0206;0.2389;
1192705131910031;0.3522;0.0036;0.2431;
1192705142014667;0.3277;-0.0603;0.2495;
1192705152119250;0.2863;-0.0198;0.2623;
1192705162247844;0.2650;0.0771;0.2794;
1192705172352479;0.2980;0.1154;0.2943;
1192705182457062;0.3586;0.0952;0.2975;
1192705192555448;0.3192;0.0941;0.3092;
1192705202660031;0.3033;0.0473;0.2783;
1192705212764667;0.2650;0.0782;0.2644;
1192705222868833;0.2810;0.1059;0.3017;
1192705232973417;0.3053;0.0334;0.3188;
1192705243078052;0.2746;-0.0124;0.2932;
1192705253180552;0.2298;0.0441;0.2911;
1192705263285135;0.2394;0.1048;0.3039;
1192705273389771;0.2703;0.0590;0.3422;
1192705283505656;0.2628;-0.0305;0.3422;
1192705293610239;0.1947;0.1144;0.3241;
1192705303714875;0.2000;0.1687;0.3369;
1192705313814927;0.2724;0.0419;0.3944;
1192705323919510;0.2075;-0.0369;0.3880;
1192705334024146;0.1595;-0.0529;0.3923;
1192705344128417;0.0519;-0.0465;0.3806;
1192705354233000;-0.0546;0.0302;0.3964;
1192705364337635;-0.0184;0.0814;0.3742;
1192705374442739;0.0722;0.0675;0.3614;
1192705384547323;0.0008;0.0057;0.3996;
1192705394651958;-0.1121;0.0260;0.3901;
1192705404752948;-0.1462;0.0824;0.3933;
1192705414857583;-0.1302;0.0814;0.3816;
1192705424962114;-0.1068;0.0047;0.4028;
1192705435070239;-0.1547;-0.0593;0.4209;
1192705445174823;-0.2559;-0.0305;0.4326;
1192705455279458;-0.3591;-0.0593;0.4369;
1192705465377323;-0.3985;-0.0326;0.4124;
1192705475481958;-0.4454;0.0473;0.3816;
1192705485586542;-0.4656;0.1762;0.3497;
1192705495682010;-0.4124;0.1730;0.3443;
1192705505786594;-0.3985;0.0047;0.3337;
1192705515891229;-0.4561;0.0494;0.3039;
1192705526003989;-0.5455;0.1900;0.2857;
1192705536108573;-0.4965;0.1154;0.2559;
1192705546213208;-0.4326;0.0387;0.2261;
1192705556320344;-0.5114;-0.0113;0.1856;
1192705566424979;-0.5711;-0.1157;0.1611;
1192705576529562;-0.5551;-0.0624;0.1526;
1192705586632739;-0.5391;0.0803;0.0908;
1192705596737427;-0.4827;0.0356;0.0876;
1192705606842114;-0.3985;0.0068;0.0620;
1192705616944614;-0.3112;0.0398;-0.0146;
1192705627049302;-0.2410;0.0643;-0.0413;
1192705637153989;-0.2027;0.0356;-0.0519;
1192705647254719;-0.1579;-0.0007;-0.0828;
1192705657359406;-0.1260;0.0313;-0.0988;
1192705667464094;-0.1270;0.0462;-0.1265;
1192705677594510;-0.0674;-0.0081;-0.1787;
1192705687699198;0.0168;-0.0720;-0.1659;
1192705697803885;0.0732;0.0281;-0.1563;
1192705707889406;0.1169;0.0483;-0.1542;
1192705717994094;0.2352;0.0473;-0.1467;
1192705728098781;0.3064;0.0569;-0.1371;
1192705738196385;0.3565;-0.1519;-0.1137;
1192705748301073;0.3469;-0.0965;-0.0732;
1192705758405708;0.3682;0.1091;-0.0796;
1192705768513677;0.4598;0.0622;-0.0722;
1192705778618364;0.5322;-0.0284;-0.0146;
1192705788723052;0.4608;-0.0241;0.0280;
1192705798845448;0.3618;0.0451;0.0450;
1192705808950135;0.3778;0.0792;0.0578;
1192705819054823;0.3351;-0.1381;0.1111;
1192705829142323;0.2192;-0.1828;0.1686;
1192705839247010;0.1265;0.0760;0.2027;
1192705849351698;0.0743;-0.0241;0.1899;
1192705859445760;0.0370;-0.1615;0.2091;
1192705869550448;0.0157;0.0686;0.2144;
1192705879655135;-0.0258;0.1154;0.2069;
1192705889775187;-0.0205;0.0398;0.2506;
1192705899879875;-0.1228;0.0196;0.2378;
1192705909984562;-0.1430;0.0249;0.2421;
1192705920098312;-0.1356;0.0686;0.2559;
1192705930203000;-0.1537;-0.0284;0.2431;
1192705940307739;-0.1622;-0.0507;0.2133;
1192705950389614;-0.1419;0.0579;0.2261;
1192705960494302;-0.1643;0.0718;0.2442;
1192705970598989;-0.0972;0.1101;0.2644;
1192705980702948;-0.0908;0.0814;0.2549;
1192705990807635;-0.0738;-0.0209;0.2644;
1192706000912323;-0.0599;-0.0252;0.2794;
1192706011017844;-0.1249;-0.0582;0.2826;
1192706021122531;-0.1675;-0.0422;0.2474;
1192706031227219;-0.1750;0.1517;0.2389;
1192706041342114;-0.2495;0.1261;0.2314;
1192706051446802;-0.2815;-0.1402;0.2549;
1192706061551489;-0.3240;-0.0848;0.2336;
1192706071670344;-0.4784;0.0664;0.1952;
1192706081775031;-0.6755;0.0164;0.1249;
1192706091879719;-0.7245;0.0302;0.1132;
1192706101957844;-0.7415;0.1634;0.0770;
1192706112062531;-0.7288;0.0558;0.0258;
1192706122167219;-0.6989;-0.0497;0.0162;
1192706132306177;-0.6489;0.0036;-0.0008;
1192706142410864;-0.6308;0.0260;-0.0466;
1192706152515552;-0.5359;0.1367;-0.0668;
1192706162604198;-0.4816;0.0579;-0.1126;
1192706172708885;-0.3240;-0.0071;-0.1212;
1192706182813573;-0.2804;0.1229;-0.1105;
1192706192914094;-0.2485;0.0430;-0.1020;
1192706203018781;-0.2197;-0.0166;-0.1265;
1192706213123469;-0.2282;0.1037;-0.1308;
1192706223226750;-0.3186;-0.0379;-0.1222;
1192706233331437;-0.3218;-0.1913;-0.1329;
1192706243436125;-0.3410;-0.1264;-0.1361;
1192706253545760;-0.3506;-0.0113;-0.1574;
1192706263650448;-0.4071;-0.0039;-0.1702;
1192706273755135;-0.5051;-0.1594;-0.2233;
1192706283862323;-0.5604;0.0281;-0.2531;
1192706293967010;-0.6521;0.2316;-0.2691;
1192706304071698;-0.4933;0.0473;-0.3181;
1192706314176594;-0.3197;-0.0443;-0.3511;
1192706324281281;-0.3474;-0.0081;-0.3756;
1192706334385969;-0.3815;0.0654;-0.4182;
1192706344487010;-0.3250;0.2443;-0.4310;
1192706354591698;-0.2218;0.2348;-0.4225;
1192706364696385;-0.1473;0.0025;-0.4246;
1192706374797010;-0.0450;-0.0742;-0.4630;
1192706384901698;0.0455;-0.0465;-0.4385;
1192706395006385;0.1254;0.0025;-0.3969;
1192706405113364;0.2415;0.0430;-0.4065;
1192706415218052;0.3863;0.0941;-0.4129;
1192706425322739;0.4481;-0.0561;-0.3948;
1192706435427948;0.5354;-0.1924;-0.3788;
1192706445532635;0.6377;0.0526;-0.3714;
1192706455637323;0.6664;0.1858;-0.3543;
1192706465737219;0.7218;-0.0071;-0.3469;
1192706475841906;0.7421;-0.0699;-0.3138;
1192706485946594;0.6813;-0.0827;-0.2851;
1192706496056281;0.6675;-0.0710;-0.2340;
1192706506160969;0.6611;-0.0092;-0.2158;
1192706516265656;0.6441;0.0654;-0.2053;
1192706526373573;0.6164;0.0579;-0.2053;
1192706536478260;0.6036;-0.0369;-0.1563;
1192706546582948;0.5226;-0.0316;-0.1244;
1192706556680760;0.3959;0.0334;-0.1244;
1192706566785448;0.3277;0.0728;-0.1169;
1192706576890135;0.3426;0.1133;-0.1073;
1192706586994927;0.2597;-0.1274;-0.0668;
1192706597099614;0.2043;-0.1455;-0.0477;
1192706607204302;0.1734;0.0867;-0.0732;
1192706617306750;0.2160;-0.0060;-0.0647;
1192706627411437;0.2447;-0.1445;-0.0317;
1192706637516073;0.1979;0.0451;-0.0573;
1192706647613573;0.2256;0.0473;-0.0647;
1192706657718260;0.2373;-0.1381;-0.0189;
1192706667822948;0.2405;-0.0262;-0.0019;
1192706677916594;0.2543;0.1794;-0.0221;
1192706688021281;0.2905;0.1921;-0.0583;
1192706698125969;0.2437;-0.0635;-0.0136;
1192706708249094;0.2373;-0.0933;0.0194;
1192706718353781;0.2192;0.0728;-0.0008;
1192706728458469;0.2011;0.0920;0.0280;
1192706738558052;0.1744;-0.0688;0.0386;
1192706748662739;0.1382;-0.0731;0.0557;
1192706758767427;0.0828;0.1421;0.0344;
1192706768874719;0.0711;-0.0060;0.0929;
1192706778979406;0.0157;-0.1690;0.1025;
1192706789084094;-0.0077;0.0675;0.0802;
1192706799211489;-0.0738;0.0696;0.0695;
1192706809316177;-0.0897;0.0356;0.0876;
1192706819420812;-0.1100;0.0451;0.0503;
1192706829498156;-0.1174;-0.0987;0.0493;
1192706839602844;-0.1025;0.0068;0.0557;
1192706849707531;-0.1419;0.0696;0.0578;
1192706859814614;-0.2186;-0.0688;0.0429;
1192706869919302;-0.2229;0.0398;0.0258;
1192706880023937;-0.2442;0.1069;-0.0008;
1192706890185031;-0.1920;-0.0443;0.0056;
1192706900289719;-0.2250;-0.2393;0.0003;
1192706910394354;-0.2826;-0.1594;-0.0168;
1192706920438469;-0.2794;0.0995;-0.0615;
1192706930543156;-0.1462;0.1506;-0.0786;
1192706940647844;0.0146;0.0196;-0.1009;
1192706950784094;0.0264;-0.0475;-0.0754;
1192706960888781;0.0605;-0.0252;-0.0818;
1192706970993469;0.1542;-0.0678;-0.0913;
1192706981061073;0.1883;0.0100;-0.0988;
1192706991165760;0.3309;0.1719;-0.0615;
1192707001270448;0.4353;-0.0220;-0.0690;
1192707011391385;0.4971;-0.2744;-0.0413;
1192707021496073;0.4885;-0.1477;0.0141;
1192707031600708;0.5482;0.0707;0.0375;
1192707041700031;0.6622;0.1122;0.0258;
1192707051804719;0.7431;0.0100;0.0844;
1192707061909406;0.7027;-0.0230;0.0684;
1192707072003469;0.6909;0.1282;0.0887;
1192707082108156;0.7421;0.0569;0.1483;
1192707092212844;0.7453;0.0196;0.2016;
1192707102323364;0.6015;0.1186;0.2304;
1192707112428052;0.5035;0.1826;0.2005;
1192707122532739;0.4694;-0.1125;0.2570;
1192707132650344;0.3351;-0.1519;0.3017;
1192707142755031;0.2554;0.1176;0.2794;
1192707152859719;0.2628;0.1091;0.2964;
1192707162959667;0.2703;0.0153;0.2985;
1192707173064354;0.1659;0.0057;0.3188;
1192707183169042;0.0530;0.1208;0.3102;
1192707193273989;0.0115;-0.0997;0.3102;
1192707203378677;-0.1079;-0.1711;0.3209;
1192707213483364;-0.2357;0.0164;0.2602;
1192707223588364;-0.2112;0.2092;0.2474;
1192707233693052;-0.1111;0.1005;0.2772;
1192707243797739;-0.1920;-0.1051;0.2879;
1192707253900864;-0.3581;-0.0273;0.2666;
1192707264005552;-0.4092;0.1144;0.2165;
1192707274110239;-0.3634;-0.1466;0.1931;
1192707284222323;-0.3602;-0.1509;0.2005;
1192707294327010;-0.4624;0.0675;0.1664;
1192707304431698;-0.4752;0.0601;0.1249;
1192707314540239;-0.3431;0.0856;0.1047;
1192707324644927;-0.2879;0.1868;0.0823;
1192707334749614;-0.2730;0.0686;0.0663;
1192707344846698;-0.2889;-0.0933;0.0589;
1192707354951385;-0.3176;-0.0827;0.0407;
1192707365056073;-0.3048;0.0302;0.0344;
1192707375163677;-0.2889;-0.0443;0.0365;
1192707385268364;-0.3229;-0.2031;0.0184;
1192707395373052;-0.2985;-0.0593;0.0045;
1192707405479667;-0.2133;0.1687;-0.0061;
1192707415584354;-0.0983;0.1602;0.0024;
1192707425688989;-0.1260;-0.0593;0.0003;
1192707435781906;-0.1292;-0.1115;-0.0125;
1192707445886594;-0.1526;-0.0582;-0.0285;
1192707455991281;-0.1324;-0.0252;-0.0455;
1192707466101489;-0.1185;0.0547;-0.0509;
1192707476206177;-0.0929;0.0196;-0.0391;
1192707486310864;-0.1153;-0.0103;-0.0264;
1192707496414510;-0.1377;0.0217;-0.0104;
1192707506519198;-0.0887;0.1016;-0.0477;
1192707516623885;-0.0525;0.0824;-0.0381;
1192707526731177;-0.1153;-0.1935;-0.0242;
1192707536835864;-0.0919;-0.1455;-0.0232;
1192707546940552;-0.0493;0.0888;-0.0391;
1192707557072427;0.0008;0.1091;-0.0551;
1192707567177114;0.1414;0.0750;-0.0423;
1192707577260135;0.1627;0.0867;-0.0296;
1192707587364875;0.1009;0.0270;-0.0200;
1192707597469562;0.0945;0.0068;-0.0051;
1192707607566594;0.1585;0.1133;0.0003;
1192707617671281;0.1574;0.0398;0.0258;
1192707627775969;0.0818;-0.1338;0.0077;
1192707637896073;0.0317;-0.1562;0.0226;
1192707648000760;0.1126;0.1027;0.0077;
1192707658105396;0.2043;0.1889;0.0365;
1192707668187167;0.1861;0.0228;0.0525;
1192707678291802;0.2043;0.0654;0.0344;
1192707688396542;0.1691;0.0409;0.0269;
1192707698516594;0.1808;-0.1029;0.0567;
1192707708621281;0.1521;-0.1573;0.0823;
1192707718725969;0.0988;-0.1722;0.0993;
1192707728824406;0.0296;-0.2137;0.1142;
1192707738929094;0.0349;-0.1242;0.0812;
1192707749033781;0.0743;0.0164;0.0866;
1192707759165552;0.0977;-0.0124;0.1132;
1192707769270239;0.1201;0.0334;0.1228;
1192707779374875;0.0977;0.0483;0.1324;
1192707789439094;0.0647;-0.0145;0.1196;
1192707799543781;0.0519;-0.0401;0.1238;
1192707809648417;0.0370;-0.1040;0.1121;
1192707819763052;0.0658;0.0824;0.1025;
1192707829867739;0.0509;0.1538;0.1270;
1192707839972427;0.0487;0.0973;0.1526;
1192707850068729;0.0317;0.1005;0.1728;
1192707860173417;-0.0003;0.0047;0.1877;
1192707870278156;-0.0652;-0.1455;0.1803;
1192707880398885;-0.0301;-0.0507;0.1846;
1192707890503573;-0.0130;0.0366;0.2027;
1192707900608260;-0.0312;-0.1200;0.2048;
1192707910707323;-0.0663;-0.0827;0.1696;
1192707920812010;-0.1313;0.0707;0.1675;
1192707930916646;-0.1345;0.0920;0.1654;
1192707941039094;-0.1036;0.0782;0.1451;
1192707951143781;-0.1270;0.0505;0.1579;
1192707961248469;-0.1920;0.0121;0.1686;
1192707971357427;-0.2730;-0.1157;0.1718;
1192707981462114;-0.3314;-0.2158;0.1526;
1192707991566802;-0.3495;0.0387;0.1036;
1192708001654614;-0.3378;0.1059;0.1142;
1192708011759302;-0.2389;-0.1178;0.1419;
1192708021863989;-0.1995;-0.0976;0.0855;
1192708031998885;-0.2240;0.1527;0.0599;
1192708042103573;-0.1973;0.0441;0.0866;
1192708052208208;-0.0940;-0.0252;0.0610;
1192708062272427;-0.1483;0.0206;0.0471;
1192708072377114;-0.1387;0.0569;0.0248;
1192708082481802;-0.1185;0.1048;0.0397;
1192708092603052;-0.1142;0.0686;0.0322;
1192708102707739;-0.0951;0.0611;0.0162;
1192708112812427;-0.1366;0.0132;0.0439;
1192708122910864;-0.1920;-0.2616;0.0173;
1192708133015552;-0.1771;-0.0262;-0.0029;
1192708143120239;-0.1111;0.3667;0.0120;
1192708153210344;-0.0791;0.1101;0.0237;
1192708163315031;-0.0418;-0.1338;-0.0125;
1192708173419667;-0.0684;0.0462;0.0067;
1192708183536177;-0.1132;0.1730;0.0088;
1192708193640864;-0.1036;-0.0124;0.0109;
1192708203745552;-0.1238;-0.2137;-0.0136;
1192708213855656;-0.1313;-0.0720;0.0045;
1192708223960344;-0.1537;0.0739;-0.0019;
1192708234065031;-0.0908;0.1783;0.0248;
1192708244164094;-0.0525;0.3102;0.0301;
1192708254268781;-0.1249;0.0877;0.0493;
1192708264373469;-0.1728;-0.1594;0.0173;
1192708274478677;-0.1664;0.0281;-0.0008;
1192708284583364;-0.1366;0.2358;0.0354;
1192708294688052;-0.1558;0.0696;0.0375;
1192708304771281;-0.1941;-0.1232;0.0354;
1192708314875969;-0.2208;-0.0358;0.0354;
1192708324980656;-0.2847;-0.1168;0.0631;
1192708335104719;-0.3282;-0.1115;0.0109;
1192708345209406;-0.3591;0.0963;-0.0189;
1192708355314094;-0.2719;0.1815;-0.0051;
1192708365415239;-0.1803;-0.0017;0.0077;
1192708375519927;-0.1686;-0.0198;-0.0764;
1192708385624614;-0.1899;0.1506;-0.0509;
1192708395727010;-0.1984;-0.1636;-0.0690;
1192708405831698;-0.1686;-0.1423;-0.0658;
1192708415936385;-0.1707;0.0782;-0.0764;
1192708426043573;-0.1899;-0.0081;-0.0391;
1192708436148208;-0.1814;-0.0827;-0.0754;
1192708446252948;-0.1270;0.0931;-0.0839;
1192708456363417;-0.0759;0.3742;-0.0509;
1192708466468104;-0.1686;-0.1083;-0.0551;
1192708476572739;-0.2037;-0.3531;-0.0924;
1192708486674823;-0.1409;0.0920;-0.1734;
1192708496779510;-0.0897;0.2124;-0.1499;
1192708506884198;-0.0652;-0.0923;-0.1371;
1192708517000656;0.0040;0.0963;-0.1595;
1192708527105344;-0.0770;0.2730;-0.1574;
1192708537210031;-0.1558;-0.0465;-0.1638;
1192708547295969;-0.1196;-0.0624;-0.1467;
1192708557400604;-0.1366;-0.0433;-0.1659;
1192708567505344;-0.1079;-0.0646;-0.2085;
1192708577607948;-0.1111;0.0121;-0.1925;
1192708587712531;-0.0599;0.0707;-0.2064;
1192708597817062;-0.0312;0.1069;-0.1755;
1192708607924719;-0.0876;-0.0390;-0.2297;
1192708618029302;-0.0823;-0.2009;-0.2148;
1192708628133833;-0.0525;0.0238;-0.2244;
1192708638222844;-0.0290;0.1538;-0.2563;
1192708648327427;0.0530;0.1453;-0.2670;
1192708658431958;0.1116;0.1964;-0.2169;
1192708668548989;0.0051;-0.0561;-0.1755;
1192708678653573;-0.0258;-0.0411;-0.1531;
1192708688758104;-0.0152;0.1261;-0.1414;
1192708698862427;-0.0077;0.0334;-0.1840;
1192708708967010;0.0498;-0.0049;-0.1691;
1192708719071542;0.0221;-0.0443;-0.1457;
1192708729183573;-0.0589;-0.1583;-0.1467;
1192708739288156;0.0221;0.0356;-0.1414;
1192708749392687;0.0274;0.1495;-0.1126;
1192708759484302;-0.0269;-0.0806;-0.1041;
1192708769588833;-0.0258;-0.1562;-0.1158;
1192708779693417;-0.0162;-0.0465;-0.1073;
1192708789803677;0.0210;0.1378;-0.1158;
1192708799908260;0.0732;0.1495;-0.0839;
1192708810012792;0.0242;-0.1200;-0.0562;
1192708820175864;-0.0535;-0.2670;-0.0519;
1192708830280396;-0.0407;-0.1487;-0.0573;
1192708840384979;0.0285;0.0622;-0.0636;
1192708850428677;0.0381;-0.0049;-0.0700;
1192708860533260;0.0541;-0.0720;-0.0530;
1192708870637792;-0.0375;-0.0241;-0.0562;
1192708880788364;-0.0312;0.0515;-0.0636;
1192708890892948;0.0487;0.0622;-0.0530;
1192708900997479;0.0498;-0.1264;-0.0274;
1192708911058677;-0.0184;-0.1754;-0.0509;
1192708921163260;-0.0013;0.1059;-0.0828;
1192708931267792;0.0583;0.1602;-0.0487;
1192708941401750;0.1286;0.1016;-0.0402;
1192708951506333;0.0935;-0.0156;-0.0573;
1192708961610864;-0.0237;-0.1466;-0.0306;
1192708971694927;-0.0173;-0.0028;-0.0722;
1192708981799510;0.0210;0.1112;-0.0807;
1192708991904042;0.0189;-0.1445;-0.0818;
1192709002014927;-0.0173;-0.2766;-0.0967;
1192709012119510;0.0136;-0.0390;-0.1403;
1192709022224042;0.0743;0.2081;-0.1371;
1192709032328573;0.1425;0.1421;-0.1052;
1192709042433156;0.0999;-0.1743;-0.1009;
1192709052537687;0.0402;-0.1423;-0.1467;
1192709062639198;0.0924;0.1463;-0.1606;
1192709072743781;0.1893;0.1325;-0.1222;
1192709082848312;0.2735;0.0473;-0.1329;
1192709092959823;0.2394;0.0664;-0.1190;
1192709103064406;0.1521;-0.0028;-0.1190;
1192709113168937;0.1510;0.0292;-0.1041;
1192709123261750;0.1734;0.0728;-0.0892;
1192709133366333;0.1521;-0.0806;-0.0732;
1192709143470864;0.1169;-0.0614;-0.0679;
1192709153572531;0.1158;0.0494;-0.0711;
1192709163677114;0.1180;-0.0198;-0.0626;
1192709173781646;0.1169;-0.0912;-0.0668;
1192709183913260;0.1158;-0.0081;-0.0455;
1192709194017844;0.1009;0.0750;-0.0743;
1192709204122375;0.1169;-0.0134;-0.0498;
1192709214210760;0.0647;-0.0891;-0.0445;
1192709224315344;0.0786;-0.0593;-0.0040;
1192709234419875;0.1095;0.0643;-0.0157;
1192709244529302;0.1148;0.0920;-0.0221;
1192709254633885;0.1020;0.0228;0.0162;
1192709264738417;0.1308;0.0856;0.0226;
1192709274839823;0.1009;0.0228;0.0354;
1192709284944406;0.1148;0.0377;0.0184;
1192709295048937;0.1201;0.1208;0.0450;
1192709305154198;0.0924;-0.0316;0.0652;
1192709315258781;0.0668;-0.1136;0.0897;
1192709325363312;0.0551;-0.0614;0.1004;
1192709335470760;0.0743;-0.0390;0.1025;
1192709345575344;0.0775;-0.0411;0.1249;
1192709355679875;0.0690;-0.0710;0.1505;
1192709365786750;0.0573;-0.0720;0.1664;
1192709375891333;0.0743;0.0164;0.1601;
1192709385995864;0.0413;-0.0518;0.1206;
1192709396093364;0.0402;-0.0582;0.1462;
1192709406197948;0.0328;0.0398;0.1643;
1192709416302479;0.0296;0.1048;0.1718;
1192709426420135;0.0477;0.1932;0.1366;
1192709436524719;0.0296;0.0526;0.1718;
1192709446629250;0.0061;-0.0987;0.2016;
1192709456726489;-0.1025;-0.1083;0.1846;
1192709466831073;-0.1196;-0.0145;0.1686;
1192709476935604;-0.0791;0.0579;0.1888;
1192709487047167;-0.0333;0.0079;0.1877;
1192709497151750;-0.0226;0.0057;0.1782;
1192709507256281;-0.0620;0.0632;0.1473;
1192709517316385;-0.0674;-0.0166;0.1782;
1192709527420969;-0.0823;-0.0188;0.1675;
1192709537525500;-0.1398;-0.0955;0.1366;
1192709547662739;-0.1718;-0.1732;0.1324;
1192709557767323;-0.1451;0.1037;0.0961;
1192709567871854;-0.0887;0.2156;0.0940;
1192709577971906;-0.0578;0.0526;0.0993;
1192709588076594;-0.0897;-0.0688;0.0929;
1192709598181229;-0.1185;0.0931;0.0546;
1192709608297323;-0.0802;0.1655;0.0599;
1192709618402010;-0.0450;-0.0518;0.0375;
1192709628506646;-0.0610;-0.1477;0.0397;
1192709638621646;-0.1132;-0.0816;0.0397;
1192709648726281;-0.1334;-0.0433;0.0173;
1192709658830969;-0.0706;0.0281;-0.0072;
1192709668903677;0.0051;0.1357;0.0003;
1192709679008364;-0.0344;-0.0177;-0.0008;
1192709689113000;-0.0578;-0.0507;0.0194;
1192709699225135;-0.0567;0.0153;0.0205;
1192709709329823;-0.0418;-0.0028;0.0077;
1192709719434458;-0.0482;-0.0965;-0.0253;
1192709729559614;-0.0535;-0.0497;-0.0221;
1192709739664250;-0.0269;0.1634;-0.0104;
1192709749768937;-0.0077;0.2454;-0.0115;
1192709759846906;-0.0407;0.0515;-0.0125;
1192709769951594;-0.0706;-0.0987;0.0013;
1192709780056229;-0.0663;-0.0369;0.0067;
1192709790169667;-0.0855;-0.0454;-0.0019;
1192709800274354;-0.0535;-0.0113;0.0141;
1192709810379042;-0.0269;0.0111;0.0077;
1192709820475448;-0.0141;0.1112;0.0290;
1192709830580083;-0.0280;0.0984;-0.0040;
1192709840684719;-0.0727;-0.0454;0.0226;
1192709850802739;-0.0961;-0.0401;0.0386;
1192709860907427;-0.1079;0.0302;0.0397;
1192709871012062;-0.0844;-0.0145;0.0120;
1192709881122219;-0.0727;-0.0337;0.0003;
1192709891226906;-0.0535;0.0782;0.0312;
1192709901331542;-0.0557;0.0686;0.0695;
1192709911431698;-0.0929;-0.0433;0.0514;
1192709921536385;-0.0919;-0.0177;0.0386;
1192709931641021;-0.0834;0.0515;0.0301;
1192709941759927;-0.0834;-0.0230;0.0439;
1192709951864614;-0.0652;0.0356;0.0439;
1192709961969250;-0.0908;0.0675;0.0493;
1192709972069094;-0.0993;-0.0475;0.0386;
1192709982173781;-0.1100;-0.0933;0.0184;
1192709992278417;-0.1313;-0.0667;0.0471;
1192710002385760;-0.1494;0.0025;0.0301;
1192710012490448;-0.0866;0.0995;0.0205;
1192710022595083;-0.0738;0.0909;0.0248;
1192710032680448;-0.0940;-0.0198;0.0237;
1192710042785135;-0.1430;-0.0614;0.0088;
1192710052889771;-0.1473;0.0196;-0.0200;
1192710063010448;-0.1217;0.0345;-0.0253;
1192710073115135;-0.1196;-0.0624;-0.0317;
1192710083219771;-0.1238;-0.1093;-0.0274;
1192710093339094;-0.1249;-0.0103;-0.0391;
1192710103443729;-0.0748;0.1165;-0.0551;
1192710113548417;-0.0812;0.0899;-0.0370;
1192710123637583;-0.0983;-0.0379;-0.0573;
1192710133742271;-0.0887;-0.0848;-0.0583;
1192710143846906;-0.0855;-0.0390;-0.0690;
1192710153948000;-0.0748;0.0100;-0.0711;
1192710164052687;-0.1036;-0.1146;-0.0892;
1192710174157323;-0.0983;-0.1413;-0.0988;
1192710184253260;-0.0897;-0.0060;-0.1244;
1192710194357948;-0.0610;0.0451;-0.1276;
1192710204462583;-0.0557;0.0398;-0.1190;
1192710214589719;-0.0727;-0.0230;-0.1052;
1192710224694406;-0.0631;0.0260;-0.1297;
1192710234799042;-0.0567;0.0111;-0.1371;
1192710244901594;-0.0354;-0.0348;-0.1350;
1192710255006281;-0.0205;0.0334;-0.1244;
1192710265110917;-0.0546;-0.0092;-0.1563;
1192710275201177;-0.0205;0.0292;-0.1553;
1192710285305864;-0.0226;0.0675;-0.1574;
1192710295410500;-0.0493;-0.0124;-0.1680;
1192710305519302;-0.0471;0.0036;-0.1595;
1192710315623989;-0.0407;0.0387;-0.1425;
1192710325728625;-0.0471;-0.0060;-0.1606;
1192710335837114;-0.0407;-0.0262;-0.1563;
1192710345941802;-0.0429;-0.0997;-0.1286;
1192710356046437;-0.0216;-0.1104;-0.1286;
1192710366154927;-0.0312;-0.0103;-0.1478;
1192710376259614;0.0019;0.0419;-0.1659;
1192710386364250;0.0136;0.0760;-0.1574;
1192710396465344;0.0189;0.1059;-0.1435;
1192710406570031;-0.0099;0.0824;-0.1489;
1192710416674667;-0.0258;0.0228;-0.1702;
1192710426763156;-0.0237;0.0643;-0.1510;
1192710436867792;-0.0365;0.0569;-0.1414;
1192710446972479;-0.0109;-0.0497;-0.1531;
1192710457095083;-0.0056;-0.0720;-0.1244;
1192710467199771;-0.0024;-0.0166;-0.1276;
1192710477304406;-0.0141;-0.0326;-0.1382;
1192710487404302;0.0019;-0.0550;-0.1340;
1192710497508989;-0.0056;-0.0955;-0.1308;
1192710507613625;0.0061;-0.1232;-0.1510;
1192710517712844;0.0253;0.0132;-0.1766;
1192710527817479;0.0881;0.1069;-0.1723;
1192710537922167;0.1222;0.0356;-0.1553;
1192710548036594;0.0775;-0.0475;-0.1510;
1192710558141229;0.0892;-0.0848;-0.1467;
1192710568245917;0.1734;0.0995;-0.1414;
1192710578339094;0.2842;0.1506;-0.1297;
1192710588443833;0.2927;-0.0092;-0.1478;
1192710598548521;0.3023;-0.0454;-0.0967;
1192710608663364;0.2671;0.0462;-0.1116;
1192710618768104;0.3351;0.0206;-0.0754;
1192710628872792;0.3458;-0.1104;-0.0541;
1192710638993156;0.3053;-0.1988;-0.0264;
1192710649097896;0.2724;-0.0262;0.0099;
1192710659202583;0.3106;0.0941;0.0099;
1192710669271385;0.3288;-0.0358;0.0375;
1192710679376073;0.2394;-0.0827;0.0386;
1192710689480812;0.1158;-0.1178;0.0248;
1192710699634250;0.1457;-0.0262;0.0375;
1192710709738937;0.1446;0.0302;0.0684;
1192710719843677;0.1414;0.0015;0.0280;
1192710729907844;0.1190;-0.0656;0.0375;
1192710740012583;0.0871;-0.0646;0.0141;
1192710750117271;0.0860;0.0025;0.0716;
1192710760245552;0.0328;-0.0039;0.0823;
1192710770350239;0.0210;-0.1040;0.0407;
1192710780454979;0.0477;0.0238;0.0258;
1192710790525448;0.1095;0.1037;0.0716;
1192710800630187;0.0860;-0.1168;0.0503;
1192710810734875;0.0647;-0.1434;0.0589;
1192710820839406;0.0242;-0.0124;0.0418;
1192710830944146;0.0413;0.0302;0.0525;
1192710841048833;0.1180;0.0015;0.0610;
1192710851158469;0.1190;0.1282;0.0620;
1192710861263208;0.1105;0.1293;0.0418;
1192710871367896;0.0690;-0.0486;0.0599;
1192710881505135;0.0573;-0.1360;0.0983;
1192710891609823;0.0136;-0.0891;0.0663;
1192710901714562;0.0189;-0.0124;0.0429;
1192710911796698;0.0445;0.0920;0.0152;
1192710921901437;0.0530;0.0803;0.0546;
1192710932006125;0.0573;-0.0507;-0.0029;
1192710942114250;0.0391;-0.0433;0.0035;
1192710952218989;0.0104;0.0292;0.0120;
1192710962323677;0.0786;0.1485;0.0003;
1192710972426906;0.1137;0.0601;0.0258;
1192710982531646;0.1105;-0.0241;0.0695;
1192710992636333;0.0935;-0.0039;0.0578;
1192711002743781;0.0573;-0.1338;0.0695;
1192711012848521;0.0594;-0.0965;0.0354;
1192711022953208;0.0253;-0.0869;0.0130;
1192711033061281;0.0391;-0.1935;0.0280;
1192711043166021;0.0455;0.0228;0.0429;
1192711053270708;0.0903;0.1900;0.0088;
1192711063382323;0.1041;-0.0720;0.0461;
1192711073487062;0.0722;-0.2222;0.0684;
1192711083591750;0.0626;-0.0294;0.0269;
1192711093710448;0.0860;0.1900;0.0226;
1192711103815135;0.1478;0.1325;0.0514;
1192711113919875;0.1403;0.0079;0.0439;
1192711123992531;0.0818;0.0888;0.0578;
1192711134097271;0.0573;0.1133;0.0386;
1192711144201958;0.0935;0.0803;0.0503;
1192711154310031;0.0828;-0.0198;0.0418;
1192711164414771;0.0679;-0.0912;0.0386;
1192711174519458;0.0636;0.0494;0.0258;
1192711184640448;0.0423;0.0654;0.0333;
1192711194745187;0.0881;-0.0177;0.0770;
1192711204849875;0.0977;-0.1019;0.0652;
1192711214953989;0.0573;-0.1296;0.0642;
1192711225058729;0.0338;0.0174;0.0535;
1192711235163417;0.0360;-0.0156;0.0770;
1192711245261594;0.0796;-0.1008;0.0652;
1192711255366333;0.0999;0.1410;0.0397;
1192711265471021;0.0913;0.1336;0.0471;
1192711275569406;0.0860;-0.0241;0.0919;
1192711285674146;0.0189;-0.0379;0.0652;
1192711295778833;0.0317;-0.0017;0.0620;
1192711305898260;0.0615;0.1826;0.0844;
1192711316002948;0.0690;0.0643;0.1217;
1192711326107687;0.0796;0.0984;0.1217;
1192711336195344;0.0232;0.0909;0.1473;
1192711346300083;-0.0269;-0.0411;0.1228;
1192711356404771;0.0328;0.1921;0.0972;
1192711366515344;0.0200;0.2007;0.0983;
1192711376620083;0.0008;-0.1573;0.1196;
1192711386724771;-0.0141;-0.1423;0.1558;
1192711396829823;-0.1217;-0.0017;0.1494;
1192711406934562;-0.1952;-0.0209;0.1515;
1192711417039250;-0.1302;-0.1967;0.1419;
1192711427151906;-0.1292;-0.1647;0.1324;
1192711437256594;-0.1952;0.0984;0.1313;
1192711447361333;-0.1952;0.1272;0.1047;
1192711457453260;-0.0780;0.0025;0.0983;
1192711467558000;-0.1079;-0.1093;0.0759;
1192711477662687;-0.1206;0.0079;0.0674;
1192711487762010;-0.1941;-0.0443;0.0780;
1192711497866750;-0.1632;0.1336;0.0791;
1192711507971437;-0.1174;0.3518;0.0429;
1192711518090031;-0.0738;-0.0326;0.0375;
1192711528194719;-0.0929;-0.2201;0.0631;
1192711538299458;-0.1260;0.0356;0.0525;
1192711548382844;-0.2421;0.0419;0.0024;
1192711558487531;-0.1419;-0.0774;-0.0423;
1192711568592271;-0.0770;-0.1061;-0.0434;
1192711578697219;-0.0727;-0.0561;-0.0221;
1192711588801854;-0.0855;0.1037;-0.0253;
1192711598906542;-0.0642;0.1005;-0.0370;
1192711609020135;-0.0067;0.0760;-0.0594;
1192711619124771;-0.0493;-0.0220;-0.0892;
1192711629229458;-0.0184;-0.0784;-0.0573;
1192711639322844;0.0029;0.1410;-0.0988;
1192711649427479;-0.0141;0.2092;-0.0967;
1192711659532114;-0.0663;-0.2148;-0.1201;
1192711669718364;-0.0237;-0.3000;-0.1457;
1192711679823000;0.0754;0.2028;-0.1425;
1192711689927635;0.0051;0.1463;-0.1063;
1192711699955187;0.0061;-0.2190;-0.0775;
1192711710059823;0.0551;-0.1072;-0.1276;
1192711720164458;-0.0003;-0.0699;-0.1180;
1192711730308469;-0.0067;-0.1871;-0.1041;
1192711740413104;0.0967;0.0430;-0.1052;
1192711750517739;0.1276;0.1474;-0.0647;
1192711760601385;0.0328;-0.1051;-0.0871;
1192711770706021;0.0892;0.1080;-0.1137;
1192711780810656;0.0636;0.3017;-0.1137;
1192711790897531;0.0253;0.1730;-0.0530;
1192711801002219;-0.0141;-0.0358;-0.0445;
1192711811106854;-0.0184;-0.1743;-0.0402;
1192711821212427;0.0423;0.0984;0.0003;
1192711831317062;-0.0280;-0.0443;0.0003;
1192711841421750;-0.0109;-0.1274;-0.0072;
1192711851533469;0.0189;0.1740;-0.0061;
1192711861638104;-0.0439;0.0089;0.0045;
1192711871742739;-0.0578;-0.1551;0.0109;
1192711881867739;-0.0248;-0.0422;0.0109;
1192711891972375;-0.0386;0.1133;0.0173;
1192711902077010;-0.0130;0.0675;-0.0008;
1192711912178989;-0.0280;-0.0848;0.0205;
1192711922283625;-0.0439;-0.0795;0.0301;
1192711932388260;-0.0205;0.1261;0.0663;
1192711942487427;-0.0493;0.1399;0.0557;
1192711952592062;-0.0226;0.0505;0.0226;
1192711962696698;-0.0333;-0.1189;0.0418;
1192711972798469;-0.0386;-0.1296;0.0365;
1192711982903104;-0.0248;0.1953;0.0162;
1192711993007739;-0.0216;0.1634;0.0184;
1192712003114094;-0.0035;-0.1455;0.0482;
1192712013218729;0.0019;-0.1636;0.0173;
1192712023323364;0.0306;0.1762;-0.0051;
1192712033418573;0.0477;0.2857;0.0067;
1192712043523208;0.1457;0.0846;0.0237;
1192712053627896;0.1734;-0.1253;0.0109;
1192712063738052;0.1031;-0.2126;0.0418;
1192712073842687;0.0743;0.0164;0.0056;
1192712083947323;0.0967;0.1208;-0.0125;
1192712094048260;0.1819;-0.0422;-0.0061;
1192712104152948;0.2309;-0.1573;-0.0083;
1192712114257583;0.2234;-0.0348;-0.0104;
1192712124372948;0.1616;0.0398;0.0525;
1192712134477583;0.1095;-0.1093;0.0578;
1192712144582219;0.1510;-0.1477;0.0173;
1192712154676802;0.1435;-0.0763;0.0141;
1192712164781437;0.1308;-0.0156;0.0471;
1192712174886073;0.1073;0.0558;0.0652;
1192712184983156;0.1052;0.1463;0.0312;
1192712195087792;0.1340;0.2145;0.0099;
1192712205192427;0.1340;0.0345;0.0344;
1192712215301385;0.0860;-0.1935;0.0823;
1192712225406021;0.0317;-0.1988;0.0759;
1192712235510708;-0.0290;-0.0997;0.0695;
1192712245619198;-0.0972;-0.1850;0.0525;
1192712255723833;-0.0471;-0.1328;0.0695;
1192712265828469;-0.0695;-0.0635;0.0589;
1192712275931385;-0.0812;-0.0827;0.0578;
1192712286036021;-0.0322;0.0089;0.0429;
1192712296140656;-0.0152;-0.0806;0.0322;
1192712306255448;-0.0003;-0.1700;0.0216;
1192712316360083;0.0242;-0.0262;0.0610;
1192712326464719;0.0189;0.1272;0.0631;
1192712336562531;0.0402;0.1357;0.0418;
1192712346667167;0.0455;0.1250;0.0354;
1192712356771802;0.0232;0.0462;0.1100;
1192712366876177;-0.0248;-0.0710;0.0919;
1192712376980812;-0.0482;0.0025;0.1025;
1192712387085448;-0.1206;0.0728;0.0546;
1192712397172062;-0.0706;0.0015;0.0546;
1192712407276750;-0.0599;-0.0134;0.0535;
1192712417381385;-0.1196;-0.0518;0.0738;
1192712427517531;-0.1611;-0.0401;0.0482;
1192712437622167;-0.1728;0.0601;0.0290;
1192712447726802;-0.1100;-0.0252;0.0503;
1192712457810500;-0.0642;-0.0220;0.0429;
1192712467915135;-0.1025;0.2039;0.0162;
1192712478019771;-0.0919;0.1964;0.0088;
1192712488129250;-0.0056;0.1985;0.0226;
1192712498233885;-0.0322;0.1740;0.0099;
1192712508338521;-0.0578;0.0558;0.0013;
1192712518458260;-0.0738;0.0675;-0.0104;
1192712528562896;-0.0706;0.0441;-0.0157;
1192712538667531;-0.0716;-0.0284;-0.0210;
1192712548749927;-0.0525;-0.0667;-0.0242;
1192712558854562;-0.0493;-0.0401;0.0045;
1192712568959198;-0.0642;-0.0177;0.0003;
1192712579067739;-0.0557;-0.1679;-0.0210;
1192712589172479;-0.0418;-0.2734;-0.0274;
1192712599277219;-0.0461;-0.1967;-0.0509;
1192712609371385;-0.0013;0.0696;-0.0509;
1192712619476125;0.0051;0.0334;-0.0615;
1192712629580864;0.0850;-0.0582;-0.0360;
1192712639718260;0.1095;0.0888;-0.0541;
1192712649823000;0.0860;0.0867;-0.0573;
1192712659927739;0.0711;-0.0869;-0.0306;
1192712670024302;0.0381;-0.0880;-0.0221;
1192712680129042;-0.0184;0.0057;-0.0573;
1192712690233781;0.0647;0.1091;0.0077;
1192712700376489;0.0530;-0.0305;-0.0029;
1192712710481229;0.0232;0.0249;-0.0008;
1192712720585917;-0.0290;0.0068;-0.0168;
1192712730631906;0.0093;-0.0348;-0.0040;
1192712740736646;0.0253;-0.0571;-0.0168;
1192712750841385;-0.0152;-0.1423;0.0482;
1192712760947792;-0.0013;-0.0049;0.0056;
1192712771052583;0.0253;0.2582;0.0429;
1192712781157271;-0.0226;0.1016;0.0120;
1192712791262531;-0.0013;-0.1019;0.0130;
1192712801367271;0.0051;0.1176;0.0237;
1192712811472010;-0.0109;0.2241;0.0344;
1192712821578833;-0.0194;0.1027;0.0375;
1192712831683573;-0.0312;-0.1189;0.0269;
1192712841788312;-0.0226;-0.0923;0.0716;
1192712851913989;-0.0333;0.0963;0.0716;
1192712862018729;-0.0535;0.0068;0.0929;
1192712872123469;-0.0493;-0.0731;0.0961;
1192712882231698;-0.0525;-0.0369;0.1004;
1192712892336437;-0.0791;-0.1242;0.1047;
1192712902441125;-0.0493;-0.0103;0.0812;
1192712912514667;-0.0482;0.1272;0.0866;
1192712922619406;-0.0589;0.0196;0.0780;
1192712932724146;-0.0780;-0.0667;0.0887;
1192712942841333;-0.0599;0.0515;0.0759;
1192712952946073;-0.0578;0.1410;0.0983;
1192712963050812;-0.0738;0.0100;0.1068;
1192712973153000;-0.0674;-0.0763;0.1111;
1192712983257739;-0.1302;-0.0582;0.0748;
1192712993362479;-0.1654;-0.0113;0.0429;
1192713003475135;-0.1356;0.0952;0.0269;
1192713013579875;-0.0631;0.1879;0.0226;
1192713023684614;-0.0663;0.1208;0.0216;
1192713033777844;-0.0620;0.1165;0.0003;
1192713043882583;-0.0716;0.0675;0.0077;
1192713053987323;-0.0791;-0.0486;-0.0061;
1192713064096177;-0.0812;-0.0816;-0.0168;
1192713074200917;-0.0770;0.0047;-0.0317;
1192713084305656;-0.0674;-0.0081;-0.0146;
1192713094412323;-0.0887;-0.1615;-0.0445;
1192713104517062;-0.0674;-0.0156;-0.1031;
1192713114621802;-0.0578;0.1122;-0.1222;
1192713124728260;-0.0269;-0.0305;-0.1020;
1192713134833000;0.0221;-0.0901;-0.1020;
1192713144937739;-0.0088;-0.0134;-0.1095;
1192713155058989;0.0072;0.1186;-0.1052;
1192713165163729;0.0019;0.0121;-0.1084;
1192713175268469;0.0232;0.0249;-0.1063;
1192713185357010;0.0029;0.1442;-0.0700;
1192713195461750;-0.0248;0.0760;-0.1126;
1192713205566489;0.0104;0.0409;-0.0967;
1192713215664667;-0.0397;-0.0166;-0.0935;
1192713225769406;-0.0631;-0.1178;-0.0935;
1192713235874146;-0.0237;-0.0007;-0.0679;
1192713245978833;-0.0269;-0.0369;-0.0903;
1192713256083573;-0.0333;-0.1605;-0.0988;
1192713266188312;-0.0035;-0.0209;-0.0818;
1192713276290969;-0.0152;0.1080;-0.0487;
1192713286395708;-0.0237;-0.0891;-0.0487;
1192713296500448;-0.0354;-0.1647;-0.0573;
1192713306604823;-0.0130;-0.0369;-0.0615;
1192713316709562;0.0019;0.1325;-0.0679;
1192713326814302;0.0093;0.1581;-0.0530;
1192713336924198;-0.0258;-0.0497;-0.0850;
1192713347028937;-0.0375;-0.1349;-0.0636;
1192713357133677;-0.0258;0.0100;-0.0583;
1192713367228417;-0.0152;0.0984;-0.0764;
1192713377333156;-0.0130;-0.0486;-0.0381;
1192713387437896;0.0093;-0.1679;-0.0296;
1192713397558260;0.0061;-0.0379;-0.0423;
1192713407663000;0.0168;0.0867;-0.0487;
1192713417767739;0.0434;0.0877;-0.0519;
1192713427877167;0.0818;0.0047;-0.0477;
1192713437981906;0.1350;0.1559;-0.0754;
1192713448086646;0.1766;0.2348;-0.0509;
1192713458167114;0.1510;0.0292;-0.0146;
1192713468271854;0.1052;-0.2595;0.0120;
1192713478376594;0.0636;-0.2350;0.0248;
1192713488491177;0.0477;-0.0944;0.0226;
1192713498595917;0.1457;0.0952;-0.0189;
1192713508700656;0.2543;0.0814;-0.0189;
1192713518818573;0.2607;-0.0390;0.0493;
1192713528923312;0.1819;-0.1455;0.0471;
1192713539028052;0.0626;-0.0774;0.0471;
1192713549112844;0.0306;-0.2148;0.0290;
1192713559217583;0.1137;-0.1679;0.0471;
1192713569322271;0.1702;0.2465;0.0770;
1192713579428781;0.1403;0.2134;0.1068;
1192713589533469;0.1478;-0.0017;0.1217;
1192713599638104;0.0551;-0.0497;0.1324;
1192713609728885;-0.0290;-0.0230;0.0951;
1192713619833573;-0.0237;0.0569;0.0929;
1192713629938260;-0.0130;0.0675;0.1015;
1192713640063417;-0.0258;0.1112;0.1334;
1192713650168104;-0.1004;0.1463;0.1590;
1192713660272792;-0.1931;-0.0433;0.1419;
1192713670365396;-0.2250;-0.0358;0.0983;
1192713680470083;-0.2708;0.0025;0.0844;
1192713690574719;-0.2634;-0.0731;0.0919;
1192713700686802;-0.2463;-0.0443;0.0802;
1192713710791489;-0.3378;0.0537;0.0248;
1192713720896177;-0.3549;0.0526;0.0045;
1192713730991698;-0.2847;-0.0049;-0.0115;
1192713741096385;-0.2208;0.0867;-0.0306;
1192713751201073;-0.2921;0.1027;-0.0754;
1192713761315031;-0.2666;-0.0667;-0.0775;
1192713771419719;-0.2208;-0.0678;-0.1031;
1192713781524406;-0.2527;-0.0486;-0.1329;
1192713791644094;-0.2144;-0.1168;-0.1265;
1192713801748781;-0.1814;-0.1551;-0.1382;
1192713811853469;-0.1877;-0.0742;-0.2032;
1192713821939198;-0.1505;0.0952;-0.2190;
1192713832043885;-0.0770;0.1506;-0.2478;
1192713842148573;-0.0013;0.0750;-0.2521;
1192713852253573;0.0274;0.0004;-0.2403;
1192713862358260;-0.0301;-0.0443;-0.2489;
1192713872462948;-0.0407;-0.0880;-0.2670;
1192713882569667;0.0253;0.0601;-0.2798;
1192713892674354;0.1126;0.1272;-0.2595;
1192713902778989;0.1340;-0.0507;-0.2308;
1192713912884406;0.1712;0.0228;-0.2233;
1192713922989094;0.1297;0.0547;-0.2137;
1192713933093781;0.0061;-0.1519;-0.2595;
1192713943204406;0.1201;-0.1019;-0.2840;
1192713953309094;0.1830;-0.0188;-0.2670;
1192713963413781;0.2117;-0.0454;-0.1936;
1192713973515135;0.2501;0.0334;-0.2478;
1192713983619823;0.2799;0.0515;-0.2265;
1192713993724510;0.2628;-0.0507;-0.1798;
1192714003828052;0.2703;-0.1264;-0.1499;
1192714013932739;0.2810;-0.0614;-0.1766;
1192714024037427;0.3884;0.0441;-0.1499;
1192714034145656;0.4491;0.0782;-0.1105;
1192714044250344;0.4033;0.0015;-0.1254;
1192714054355031;0.4033;-0.0305;-0.0573;
1192714064461281;0.3351;-0.0720;-0.0242;
1192714074565969;0.3831;0.0963;0.0386;
1192714084670656;0.3192;-0.0113;0.0312;
1192714094785760;0.3362;0.0015;0.0578;
1192714104890448;0.3671;0.0931;0.1153;
1192714114995135;0.2639;0.0313;0.1387;
1192714125092114;0.2479;0.0132;0.1643;
1192714135196802;0.2075;-0.0060;0.1973;
1192714145301489;0.1734;0.0473;0.1622;
1192714155410083;0.2000;0.1133;0.1483;
1192714165514771;0.1648;-0.0561;0.1952;
1192714175619458;0.1553;-0.0209;0.2122;
1192714185725448;0.0455;0.0292;0.2154;
1192714195830135;-0.0013;-0.0497;0.2453;
1192714205934771;0.0850;-0.0188;0.2282;
1192714216027114;0.0636;-0.0688;0.2538;
1192714226131802;-0.0120;-0.1157;0.2453;
1192714236236489;-0.0493;0.0515;0.2261;
1192714246351698;-0.0525;0.1389;0.2389;
1192714256456385;-0.0162;-0.0976;0.2421;
1192714266561073;-0.0024;-0.0475;0.2399;
1192714276657427;-0.1270;0.2209;0.2463;
1192714286762114;-0.0866;0.3379;0.2538;
1192714296866802;0.0839;0.2772;0.2666;
1192714306969510;0.0072;-0.0880;0.2975;
1192714317074198;-0.0077;-0.0113;0.2911;
1192714327178885;-0.1292;0.1154;0.2762;
1192714337277323;-0.2421;-0.1072;0.3113;
1192714347382010;-0.2751;-0.1232;0.2708;
1192714357486698;-0.4156;0.1858;0.2112;
1192714367592167;-0.4912;0.1559;0.1931;
1192714377696854;-0.2964;-0.1487;0.1739;
1192714387801542;-0.2346;-0.2308;0.1313;
1192714397926698;-0.3250;-0.3138;0.1579;
1192714408031385;-0.4624;-0.2648;0.0919;
1192714418136021;-0.4859;-0.0071;0.0418;
1192714428243989;-0.4081;0.2868;0.0184;
1192714438348677;-0.1952;0.1229;-0.0274;
1192714448453364;-0.0599;0.0611;-0.0296;
1192714458540083;-0.1675;0.0782;-0.0423;
1192714468644771;-0.2144;0.0547;-0.0860;
1192714478749458;-0.1249;-0.0827;-0.1212;
1192714488850969;-0.1047;-0.0113;-0.1361;
1192714498955656;-0.1015;0.1069;-0.1361;
1192714509060344;-0.1387;0.0409;-0.1254;
1192714519156594;-0.1409;-0.1615;-0.1340;
1192714529261281;-0.1441;-0.1083;-0.2308;
1192714539365969;-0.0983;0.0590;-0.2489;
1192714549475552;-0.0429;-0.0081;-0.2712;
1192714559580239;0.0988;0.1495;-0.2244;
1192714569684927;0.0519;0.1581;-0.2691;
1192714579802844;0.0477;0.0206;-0.2904;
1192714589907635;0.1222;0.0164;-0.2776;
1192714600012323;0.0881;-0.0571;-0.2521;
1192714610108729;0.0583;-0.1210;-0.2414;
1192714620213521;0.0711;0.0100;-0.2222;
1192714630318260;0.0434;-0.0635;-0.2883;
1192714640415083;0.1680;-0.0049;-0.3181;
1192714650519875;0.2170;-0.0454;-0.2872;
1192714660624614;0.2447;-0.0028;-0.2638;
1192714670743208;0.2842;0.0952;-0.2606;
1192714680848052;0.2799;-0.0294;-0.2329;
1192714690952739;0.2703;-0.1732;-0.2350;
1192714701044042;0.3202;-0.1551;-0.1755;
1192714711148885;0.2884;-0.0369;-0.1297;
1192714721253625;0.3023;-0.0838;-0.0999;
1192714731365344;0.3501;-0.0656;-0.0786;
1192714741470083;0.3756;0.0611;-0.0860;
1192714751574823;0.3714;0.0728;-0.0509;
1192714761677948;0.3373;-0.0017;-0.0083;
1192714771782739;0.2788;-0.0177;0.0386;
1192714781887479;0.2224;0.0249;0.0184;
1192714791980604;0.2607;0.0973;0.0493;
1192714802085448;0.2405;0.0419;0.0674;
1192714812190135;0.2714;0.2049;0.0919;
1192714822302687;0.2437;0.1378;0.1547;
1192714832407531;0.1510;-0.1349;0.1803;
1192714842512271;0.1318;-0.0997;0.1654;
1192714852617375;0.1244;0.0601;0.1696;
1192714862722167;0.1063;-0.0113;0.1835;
1192714872826958;0.1435;0.0483;0.1909;
1192714882945448;0.0796;-0.0134;0.1909;
1192714893050239;0.0594;-0.1146;0.2154;
1192714903154927;0.0700;0.0909;0.2101;
1192714913248000;0.0711;0.0185;0.2336;
1192714923352844;0.0903;-0.1328;0.2389;
1192714933457583;0.0796;-0.0145;0.2623;
1192714943568260;0.0168;0.0185;0.2655;
1192714953673052;-0.0407;0.0558;0.2602;
1192714963777792;-0.0152;0.0238;0.2474;
1192714973882739;-0.0077;-0.0220;0.2538;
1192714983987479;-0.0003;0.2071;0.2868;
1192714994092271;-0.0226;0.1005;0.2975;
1192715004193677;-0.0173;-0.1711;0.2868;
1192715014298469;-0.1121;-0.0369;0.2932;
1192715024403156;-0.2591;0.1559;0.2911;
1192715034511177;-0.1654;0.0558;0.2794;
1192715044615969;-0.0620;0.0569;0.2719;
1192715054720708;-0.1270;0.1027;0.2687;
1192715064824823;-0.2080;0.0132;0.2485;
1192715074929614;-0.2261;-0.0944;0.2314;
1192715085034354;-0.2730;-0.0401;0.2154;
1192715095131073;-0.2975;-0.1658;0.1899;
1192715105235864;-0.3112;-0.1498;0.1441;
1192715115340604;-0.4007;-0.0209;0.1430;
1192715125456385;-0.5051;-0.0411;0.1111;
1192715135561177;-0.4060;-0.0209;0.0951;
1192715145665917;-0.2389;0.0387;0.0077;
1192715155764406;-0.1526;0.0664;0.0184;
1192715165869146;-0.1899;-0.0177;0.0067;
1192715175973937;-0.1952;0.0888;-0.0083;
1192715186074562;-0.1632;0.1815;-0.0274;
1192715196179406;-0.0951;0.0611;-0.0296;
1192715206284146;-0.1036;-0.0997;-0.0232;
1192715216395656;-0.1718;-0.0348;-0.0413;
1192715226500448;-0.1814;0.1037;-0.0541;
1192715236605135;-0.1718;0.1016;-0.0509;
1192715246705031;-0.1430;-0.1796;-0.1116;
1192715256809823;-0.0333;-0.0539;-0.1063;
1192715266914510;-0.0887;0.2507;-0.1084;
1192715277086750;-0.1334;-0.0752;-0.1233;
1192715287191542;-0.0802;-0.0294;-0.1467;
1192715297296229;-0.0738;0.1559;-0.1574;
1192715307330656;-0.0322;0.1474;-0.1616;
1192715317435396;0.0764;0.1431;-0.1063;
1192715327540135;-0.0642;-0.1477;-0.1105;
1192715337642375;-0.1089;-0.1839;-0.1318;
1192715347747167;-0.0599;0.1272;-0.1744;
1192715357851906;-0.0876;-0.2063;-0.1936;
1192715367955187;0.0945;-0.1381;-0.1627;
1192715378060031;0.1489;0.2475;-0.1521;
1192715388164771;0.0061;0.0217;-0.1872;
1192715398284458;0.0583;-0.1988;-0.1531;
1192715408389250;0.1063;-0.0774;-0.1084;
1192715418493989;0.0743;0.0622;-0.1329;
1192715428607531;0.1776;0.1826;-0.0913;
1192715438712323;0.2352;0.1666;-0.0924;
1192715448817010;0.1744;-0.0262;-0.0818;
1192715458898469;0.0967;-0.1242;-0.0977;
1192715469003208;0.1308;0.0750;-0.0732;
1192715479107948;0.1190;0.1495;-0.0498;
1192715489209875;0.0775;-0.1338;-0.0274;
1192715499314667;0.0605;-0.0795;-0.0594;
1192715509419458;0.0892;0.1985;-0.0732;
1192715519527844;0.0274;0.0089;-0.0306;
1192715529632635;0.0093;-0.3288;-0.0040;
1192715539737375;-0.0130;-0.2787;-0.0189;
1192715549846698;-0.0184;-0.0965;0.0024;
1192715559951489;-0.0248;-0.0358;-0.0530;
1192715570056229;0.0477;0.0196;-0.0626;
1192715580168937;0.0924;0.2326;-0.0573;
1192715590273729;0.1350;0.2836;-0.0690;
1192715600378417;0.1254;0.0569;-0.0051;
1192715610464198;0.0647;-0.0401;0.0493;
1192715620568937;0.0232;-0.0337;0.0141;
1192715630673625;0.0296;0.0835;0.0269;
1192715640786646;0.0636;0.1080;0.0344;
1192715650891385;0.0786;0.0153;0.0876;
1192715660996073;0.0700;0.1240;0.0652;
1192715671122844;0.0093;0.1154;0.0663;
1192715681227583;-0.0035;-0.1903;0.0887;
1192715691332271;-0.0471;-0.3064;0.0951;
1192715701410344;-0.0631;-0.0497;0.0471;
1192715711515083;-0.0429;0.0973;0.0578;
1192715721619771;-0.0354;-0.1285;0.1015;
1192715731743469;-0.0312;-0.0912;0.0972;
1192715741848208;-0.0642;0.0249;0.0993;
1192715751952896;-0.0993;-0.0944;0.0748;
1192715762038885;0.0242;0.0505;0.0770;
1192715772143625;-0.0120;0.0206;0.0983;
1192715782248364;-0.0375;-0.0806;0.0716;
1192715792351333;0.0391;0.3294;0.0269;
1192715802456073;0.0732;0.4274;0.0386;
1192715812560760;0.0445;-0.1423;0.0972;
1192715822675083;0.0775;-0.1945;0.1238;
1192715832779823;-0.0173;0.1698;0.1121;
1192715842884562;-0.1494;0.0803;0.1047;
1192715852983781;-0.1079;-0.2095;0.0897;
1192715863088521;0.0051;-0.0284;0.0663;
1192715873193260;-0.0099;0.1708;0.0610;
1192715883304094;-0.0589;0.0100;0.1025;
1192715893408833;-0.0439;-0.1594;0.0748;
1192715903513573;-0.0482;-0.1647;0.0525;
1192715913608885;-0.0248;-0.0912;0.0471;
1192715923713625;-0.0354;-0.0209;0.0493;
1192715933818364;-0.0344;0.1027;0.0407;
1192715943937010;-0.0194;0.0782;0.0578;
1192715954041750;-0.0333;-0.0561;0.0557;
1192715964146437;-0.0226;-0.0369;0.0226;
1192715974243781;-0.0173;-0.0273;0.0109;
1192715984348521;-0.0322;-0.0720;0.0482;
1192715994453208;-0.0897;-0.1125;0.0610;
1192716004559510;-0.1324;0.0079;-0.0296;
1192716014664250;-0.1036;0.2081;-0.0083;
1192716024768989;-0.0418;0.1964;0.0077;
1192716034868000;-0.0567;-0.1434;0.0269;
1192716044972739;-0.0897;-0.2883;0.0589;
1192716055077427;-0.1217;0.0909;0.0322;
1192716065182114;-0.2314;0.1378;0.0205;
1192716075286854;-0.1419;-0.0007;-0.0264;
1192716085391542;0.0083;0.2454;-0.0157;
1192716095493573;-0.0450;0.2039;0.0088;
1192716105598312;-0.1047;-0.1530;0.0205;
1192716115703000;-0.1142;-0.1743;-0.0317;
1192716125819406;-0.1558;-0.0220;-0.0509;
1192716135924146;-0.1483;0.0121;-0.0519;
1192716146028833;-0.0567;0.0728;-0.0274;
1192716156128052;-0.0802;-0.0220;-0.0029;
1192716166232792;-0.0834;-0.0827;-0.0115;
1192716176337479;-0.1185;-0.0976;-0.0732;
1192716186450864;-0.0951;-0.1210;-0.0913;
1192716196555604;-0.0525;-0.0923;-0.0594;
1192716206660292;-0.0109;0.1336;-0.0541;
1192716216752219;0.0157;0.3561;-0.0999;
1192716226856958;-0.0013;0.1037;-0.0541;
1192716236961698;0.0019;-0.0806;-0.0541;
1192716247064823;-0.0173;-0.0177;-0.0647;
1192716257169562;-0.0652;-0.1413;-0.0008;
1192716267274250;-0.0173;0.0260;-0.0146;
1192716277387323;-0.0344;0.0654;-0.0423;
1192716287492062;-0.0578;-0.1168;-0.0711;
1192716297596750;-0.0035;0.0387;-0.0509;
1192716307696281;-0.0557;0.0696;-0.0636;
1192716317801021;-0.0599;-0.0763;-0.0764;
1192716327905708;-0.0439;-0.0539;-0.0775;
1192716338020500;-0.0610;-0.0305;-0.0903;
1192716348125239;-0.0407;0.0302;-0.0850;
1192716358229927;-0.0130;0.0558;-0.0562;
1192716368318156;-0.0152;0.0483;-0.0519;
1192716378422896;-0.0205;-0.0092;-0.0573;
1192716388527635;-0.0258;-0.0241;-0.0700;
1192716398656698;-0.0109;0.0814;-0.1340;
1192716408761437;-0.0035;0.1570;-0.1446;
1192716418866125;0.0690;0.1485;-0.0945;
1192716428967010;0.0338;-0.1360;-0.0732;
1192716439071750;-0.0120;-0.1253;-0.0700;
1192716449176489;-0.0631;0.0537;-0.1222;
1192716459260500;0.0061;0.0941;-0.1116;
1192716469365239;0.0381;-0.0134;-0.1095;
1192716479469927;0.0722;-0.1083;-0.0935;
1192716489588052;-0.0205;-0.1381;-0.0913;
1192716499692792;-0.0173;0.0707;-0.0487;
1192716509797479;-0.0322;-0.0262;-0.1041;
1192716519887948;0.0125;-0.1764;-0.1158;
1192716529992687;0.0285;-0.0209;-0.1073;
1192716540097375;0.0146;0.1048;-0.0668;
1192716550216073;-0.0258;-0.0273;-0.0509;
1192716560320864;-0.0237;-0.0784;-0.0796;
1192716570425552;0.0093;-0.1221;-0.0977;
1192716580527479;0.0445;0.0334;-0.0487;
1192716590632167;0.0413;0.1762;-0.0775;
1192716600736854;0.0221;0.1122;-0.0690;
1192716610822948;0.0317;-0.0230;-0.0349;
1192716620927583;0.0391;0.0260;-0.0296;
1192716631032271;0.0040;0.0068;-0.0700;
1192716641145031;-0.0216;-0.0987;-0.0434;
1192716651249719;0.0136;0.0686;-0.0285;
1192716661354354;-0.0045;0.0419;-0.0008;
1192716671460135;-0.0120;-0.0891;-0.0328;
1192716681564771;0.0306;-0.1477;-0.0317;
1192716691669458;0.0008;0.0089;-0.0477;
1192716701781281;-0.0109;0.0632;-0.0093;
1192716711885969;0.0040;-0.0241;-0.0328;
1192716721990604;0.0498;0.1186;-0.0839;
1192716732105760;0.0647;0.2039;-0.0530;
1192716742210396;-0.0088;-0.1210;-0.0541;
1192716752315083;-0.0173;-0.1913;-0.0178;
1192716762405344;0.0434;0.1517;-0.0253;
1192716772509979;0.0019;0.0387;-0.0573;
1192716782614667;0.0242;-0.3000;-0.0583;
1192716792719927;0.1222;0.0153;-0.0605;
1192716802824614;0.0977;0.2857;-0.0370;
1192716812929250;0.0019;-0.0955;-0.0391;
1192716823035864;0.0605;-0.2446;-0.0615;
1192716833140552;0.0711;0.0419;-0.1084;
1192716843245187;0.0530;0.0686;-0.0828;
1192716853351073;0.0690;-0.0411;-0.0413;
1192716863455760;0.1126;0.0505;-0.0402;
1192716873560396;0.0498;-0.1210;-0.0391;
1192716883667739;0.0562;-0.1221;-0.0562;
1192716893772427;0.1105;0.1314;-0.0796;
1192716903877062;0.1265;0.1911;-0.0711;
1192716913976698;0.0999;-0.0145;-0.0658;
1192716924081333;0.1063;0.0281;-0.0711;
1192716934186021;0.1105;0.2401;-0.0924;
1192716944287010;0.0764;0.0249;-0.0658;
1192716954391646;0.1244;-0.1477;-0.0274;
1192716964496333;0.0636;-0.0731;-0.0338;
1192716974604614;0.0317;-0.0571;-0.0242;
1192716984709250;0.0349;-0.0284;-0.0413;
1192716994813937;0.1052;-0.0582;-0.0168;
1192717004924302;0.0722;-0.0965;-0.0338;
1192717015028937;0.0786;-0.0113;-0.0317;
1192717025133625;0.0881;0.0931;-0.0221;
1192717035236802;0.0903;0.1399;-0.0445;
1192717045341437;0.0871;-0.0220;-0.0445;
1192717055446125;0.0796;-0.0880;-0.0178;
1192717065549406;0.0850;0.1229;0.0578;
1192717075654042;0.0573;0.0963;0.0620;
1192717085758729;0.0828;-0.0656;0.0471;
1192717095870448;0.0881;0.1176;0.0386;
1192717105975083;0.0178;-0.0667;0.0344;
1192717116079771;0.0072;-0.1509;0.0439;
1192717126174823;0.0083;0.0121;0.0514;
1192717136279458;-0.0067;0.1549;0.0237;
1192717146384146;0.0115;0.0654;0.0205;
1192717156493781;0.0221;-0.1541;0.0344;
1192717166598469;-0.0258;-0.1828;0.0386;
1192717176703104;-0.0844;-0.1115;0.0248;
1192717186811906;-0.1036;-0.0614;0.0130;
1192717196916542;-0.0237;-0.0603;0.0333;
1192717207021229;0.0647;0.0579;0.0067;
1192717217114719;0.0381;0.0515;0.0056;
1192717227219354;0.0242;-0.0113;0.0269;
1192717237324042;0.0051;-0.1115;-0.0061;
1192717247430344;0.0051;-0.0646;-0.0083;
1192717257535031;0.0019;-0.0443;-0.0349;
1192717267639667;0.0391;0.0739;-0.0157;
1192717277752062;0.0626;0.2188;0.0173;
1192717287856698;0.0605;0.0153;0.0109;
1192717297961385;0.0402;-0.0369;-0.0051;
1192717308052167;0.0509;0.0590;-0.0093;
1192717318156854;0.0168;-0.0134;-0.0200;
1192717328261489;0.0860;0.0356;-0.0136;
1192717338377427;0.0594;0.0931;0.0067;
1192717348482062;0.0455;-0.0475;-0.0413;
1192717358586750;-0.0099;-0.2393;-0.0306;
1192717368682948;-0.0141;-0.1573;-0.0061;
1192717378787635;0.0083;0.0494;-0.0423;
1192717388892271;0.0125;-0.1051;-0.0487;
1192717399015969;0.0722;-0.1775;-0.0104;
1192717409120604;0.1116;0.0036;-0.0083;
1192717419225292;0.0860;0.1357;-0.0690;
1192717429334719;0.1457;0.1272;-0.0636;
1192717439439354;0.1563;-0.0273;-0.0732;
1192717449543989;0.1936;-0.0188;-0.0700;
1192717459641594;0.2138;0.1900;-0.0274;
1192717469746229;0.1531;0.1570;0.0003;
1192717479850917;0.1009;-0.1146;-0.0083;
1192717489946385;0.0967;-0.2361;-0.0125;
1192717500051021;0.0807;-0.1029;0.0312;
1192717510155656;0.0967;0.0419;0.0439;
1192717520262948;0.0509;-0.1892;-0.0061;
1192717530367583;0.0796;-0.1423;0.0429;
1192717540472271;0.1222;0.2028;0.0301;
1192717550557896;0.0881;0.0547;0.0024;
1192717560662531;0.0754;-0.0699;0.0194;
1192717570767167;0.1020;0.0909;0.0280;
1192717580874927;0.0551;0.0238;0.0482;
1192717590979562;0.0775;-0.0571;0.0578;
1192717601084198;0.0988;0.1272;0.0897;
1192717611196177;0.0924;0.0824;0.0770;
1192717621300812;0.0551;-0.0113;0.1004;
1192717631405448;0.0573;0.1197;0.0695;
1192717641516489;0.0146;0.1027;0.0802;
1192717651621125;0.0413;-0.0401;0.0791;
1192717661725760;0.0573;0.0611;0.1142;
1192717671822010;0.0338;0.1080;0.1057;
1192717681926646;-0.0141;-0.0635;0.1100;
1192717692031281;0.0104;0.0047;0.1260;
1192717702140917;0.0008;-0.0539;0.1398;
1192717712245552;-0.0162;-0.0103;0.1632;
1192717722350187;0.0200;0.1048;0.1483;
1192717732466333;0.0391;0.2156;0.1494;
1192717742570969;0.0296;0.0366;0.1515;
1192717752675604;-0.0248;-0.3000;0.1281;
1192717762777167;-0.0184;-0.0028;0.1142;
1192717772881802;-0.0961;0.1378;0.1356;
1192717782986437;-0.1292;-0.1477;0.1537;
1192717793089614;-0.0130;-0.2137;0.1334;
1192717803194250;-0.0407;0.0281;0.1153;
1192717813298885;-0.1451;0.1304;0.1121;
1192717823393937;-0.1079;-0.0294;0.0940;
1192717833498573;0.0019;-0.0177;0.0738;
1192717843603208;0.0072;0.0302;0.0802;
1192717853712114;-0.0407;-0.2435;0.0844;
1192717863816750;0.0083;0.1783;0.0791;
1192717873921385;-0.0493;0.2252;0.0546;
1192717884030448;-0.0237;-0.1605;0.0748;
1192717894135083;0.0306;-0.0678;0.0184;
1192717904239719;-0.0205;-0.0071;0.0567;
1192717914344614;-0.0162;-0.0007;0.0972;
1192717924449250;-0.0407;-0.1051;0.0663;
1192717934553885;-0.0397;-0.0923;-0.0040;
1192717944667948;-0.0120;0.0654;-0.0274;
1192717954772583;-0.0003;-0.0156;0.0120;
1192717964877219;0.0072;0.1059;0.0375;
1192717974971594;-0.0130;0.1772;0.0035;
1192717985076229;-0.0375;-0.0933;-0.0125;
1192717995180864;0.0189;-0.0316;-0.0200;
1192718005278677;-0.0003;0.0814;-0.0040;
1192718015383312;0.0083;0.0792;0.0056;
1192718025487948;0.0115;-0.0007;0.0237;
1192718035597427;-0.0152;0.0174;-0.0083;
1192718045702062;0.0221;0.1250;-0.0413;
1192718055806698;-0.0109;0.0707;-0.0477;
1192718065921698;0.0498;0.0728;-0.0253;
1192718076026333;-0.0152;-0.0901;0.0258;
1192718086130969;-0.0663;-0.2830;-0.0093;
1192718096231385;-0.0375;-0.1892;0.0109;
1192718106336021;-0.0503;-0.1051;0.0056;
1192718116440656;-0.0173;-0.0624;0.0152;
1192718126543677;0.0605;0.0995;0.0109;
1192718136648312;0.0530;0.1581;0.0184;
1192718146752948;0.0019;0.0324;0.0258;
1192718156859198;0.0583;0.1485;0.0280;
1192718166963833;0.0903;0.2698;-0.0115;
1192718177068469;0.0168;0.0814;-0.0029;
1192718187171698;0.0913;0.0249;0.0876;
1192718197276333;-0.0312;-0.1541;0.0652;
1192718207380969;-0.0226;0.0036;0.0514;
1192718217479927;0.0083;0.3039;0.0727;
1192718227584562;-0.0258;-0.0561;0.0887;
1192718237689198;0.0061;-0.2766;0.1238;
1192718247798573;-0.0322;-0.1168;0.0919;
1192718257903208;-0.1728;-0.1636;0.1068;
1192718268007844;-0.1856;-0.0156;0.0461;
1192718278149719;-0.0610;0.0611;0.0546;
1192718288254354;-0.0439;-0.1115;0.0908;
1192718298358989;-0.0258;0.0398;0.0791;
1192718308424667;-0.0652;0.0643;0.0919;
1192718318529302;-0.0748;0.0931;0.0567;
1192718328633937;-0.0322;0.0803;0.0386;
1192718338740135;-0.0354;0.0601;0.0386;
1192718348844771;0.0232;0.3465;0.0876;
1192718358949406;0.0093;0.4274;0.0738;
1192718369064927;-0.0855;-0.0901;0.0663;
1192718379169562;-0.0791;-0.3691;0.0407;
1192718389274198;-0.0514;0.0558;0.0535;
1192718399358677;-0.1132;0.1197;0.0812;
1192718409463312;-0.0940;-0.1029;0.0461;
1192718419567896;0.0083;-0.0337;0.0940;
1192718429688625;-0.0439;-0.0944;0.0866;
1192718439793260;-0.0642;-0.0646;0.0322;
1192718449897896;-0.0525;0.0132;0.0141;
1192718460000448;-0.0642;-0.2222;0.0312;
1192718470105031;-0.0237;-0.1381;0.0375;
1192718480209667;-0.0365;0.0792;0.0290;
1192718490354458;-0.0770;-0.0156;-0.0136;
1192718500459094;-0.0258;-0.0635;0.0056;
1192718510563677;-0.0216;-0.0656;0.0333;
1192718520630031;-0.0194;0.0185;0.0099;
1192718530734667;0.0402;0.3465;0.0194;
1192718540839302;-0.0162;0.0654;0.0333;
1192718550948260;-0.0226;-0.1157;0.0461;
1192718561052896;-0.0045;0.0888;0.0109;
1192718571157531;-0.0344;0.1091;0.0067;
1192718581263364;-0.0386;0.0451;0.0514;
1192718591368052;-0.0589;-0.0390;0.0674;
1192718601472739;-0.0546;-0.0411;0.0695;
1192718611562219;-0.0770;0.0015;0.0301;
1192718621666906;-0.0620;-0.0603;0.0780;
1192718631771594;-0.1100;-0.2212;0.0695;
1192718641879667;-0.1302;-0.2893;0.0620;
1192718651984354;-0.1547;-0.0220;0.0557;
1192718662089042;-0.2708;0.0068;0.0344;
1192718672189927;-0.2581;0.0302;-0.0115;
1192718682294614;-0.1324;0.1186;-0.0296;
1192718692399302;-0.1068;0.0377;-0.0317;
1192718702567427;-0.1664;-0.1828;0.0130;
1192718712672114;-0.1707;-0.1434;-0.0072;
1192718722776802;-0.2048;0.0505;-0.0274;
1192718732826750;-0.1920;0.1740;-0.0519;
1192718742931437;-0.0887;0.1538;0.0013;
1192718753036125;-0.0802;0.0920;0.0141;
1192718763139510;-0.1238;0.0036;0.0141;
1192718773244198;-0.1973;-0.2531;-0.0178;
1192718783348885;-0.2197;-0.3234;-0.0562;
1192718793450656;-0.1920;-0.0933;-0.0690;
1192718803555344;-0.1366;0.0867;-0.0498;
1192718813660031;-0.1068;0.0036;-0.0370;
1192718823762531;-0.1089;-0.0475;-0.0679;
1192718833867219;-0.0855;0.0771;-0.0881;
1192718843971906;-0.1132;-0.0284;-0.0796;
1192718854082583;-0.0514;-0.0028;-0.0956;
1192718864187271;-0.0109;0.1676;-0.1318;
1192718874291958;-0.0077;0.0973;-0.1308;
1192718884399719;0.0360;0.1549;-0.1606;
1192718894504406;0.0264;0.2145;-0.1595;
1192718904609094;-0.0642;-0.0198;-0.1148;
1192718914727844;-0.0386;-0.0529;-0.1308;
1192718924832531;-0.0216;0.0142;-0.1489;
1192718934937219;-0.0663;-0.1413;-0.1435;
1192718945031281;-0.0194;-0.0593;-0.1627;
1192718955135969;0.0434;0.1559;-0.1680;
1192718965240656;0.0285;0.0941;-0.1968;
1192718975351906;0.0626;-0.1285;-0.1659;
1192718985456594;0.0668;-0.1573;-0.1446;
1192718995561281;0.0104;-0.0039;-0.1723;
1192719005662739;-0.0162;-0.0923;-0.1510;
1192719015767427;0.0125;-0.2968;-0.1212;
1192719025872114;-0.0354;-0.3659;-0.1265;
1192719035982531;0.0668;-0.0124;-0.1457;
1192719046087219;0.1233;0.3816;-0.1382;
1192719056191906;-0.0237;0.0430;-0.1201;
1192719066274406;-0.0141;-0.2680;-0.1350;
1192719076379094;0.1595;0.2411;-0.1180;
1192719086483781;0.0679;0.4264;-0.1308;
1192719096595760;-0.0290;0.1133;-0.0775;
1192719106700448;-0.0013;-0.1125;-0.0818;
1192719116805135;0.1095;0.2039;-0.0775;
1192719126904614;0.0796;0.3656;-0.0626;
1192719137009302;-0.0471;-0.0209;-0.0477;
1192719147113989;-0.0045;-0.1913;-0.0317;
1192719157222948;0.0040;-0.0465;-0.0317;
1192719167327635;-0.1004;-0.1104;-0.0573;
1192719177432323;-0.0535;-0.0518;-0.0605;
1192719187542219;0.0146;0.2017;-0.0700;
1192719197646906;-0.0290;0.1453;-0.0839;
1192719207751594;-0.0035;0.1027;-0.1041;
1192719217847323;-0.0077;0.1282;-0.0700;
1192719227952010;-0.0024;0.0515;-0.0605;
1192719238056698;0.0210;-0.0699;-0.0828;
1192719248170031;0.0455;-0.0156;-0.0871;
1192719258274719;0.0210;-0.0518;-0.0562;
1192719268379406;0.0157;-0.0028;-0.0754;
1192719278473469;0.0061;-0.0880;-0.0828;
1192719288578156;0.0615;-0.0593;-0.0881;
1192719298682844;0.0391;-0.0422;-0.0764;
1192719308787948;-0.0322;-0.2244;-0.0775;
1192719318892635;0.0860;0.0728;-0.0487;
1192719328997323;0.0903;0.1932;-0.0743;
1192719339103260;0.0999;0.0132;-0.0860;
1192719349207948;0.1819;0.1272;-0.0370;
1192719359312635;0.1702;0.1783;-0.0306;
1192719369406385;0.1371;0.2007;-0.0019;
1192719379511073;0.0679;-0.1136;0.0120;
1192719389615760;0.0892;-0.1487;0.0237;
1192719399726906;0.0668;0.1069;-0.0381;
1192719409831594;-0.0056;-0.0007;-0.0391;
1192719419936281;0.0306;-0.0358;-0.0125;
1192719430053469;0.0008;-0.2073;0.0130;
1192719440158104;0.0136;-0.1711;-0.0328;
1192719450262844;0.0274;0.0217;-0.0200;
1192719460355135;0.0157;-0.0752;-0.0104;
1192719470459823;0.0913;0.0132;-0.0338;
1192719480564510;0.0935;0.0451;-0.0615;
1192719490662219;0.0764;-0.0113;-0.0072;
1192719500766906;0.0828;0.1250;-0.0360;
1192719510871594;0.0391;0.0313;-0.0551;
1192719520979198;0.0146;-0.1434;-0.0232;
1192719531083885;0.0509;-0.0752;-0.0061;
1192719541188573;0.0370;-0.1509;-0.0051;
1192719551324198;0.0551;-0.0071;0.0120;
1192719561428885;0.0775;0.1538;0.0088;
1192719571533573;0.0700;0.0920;-0.0029;
1192719581626177;0.0892;-0.0465;-0.0178;
1192719591730864;0.1403;0.1463;0.0003;
1192719601835552;0.0903;0.0920;0.0088;
1192719611940864;0.0083;-0.1935;0.0162;
1192719622045552;0.0370;-0.0614;0.0141;
1192719632150239;0.0285;-0.0007;-0.0178;
1192719642245344;0.0573;0.0281;0.0003;
1192719652350031;0.1063;0.1005;0.0205;
1192719662454719;0.0583;-0.0901;0.0312;
1192719672557531;0.0381;-0.1200;0.0035;
1192719682662219;0.0317;0.0387;-0.0317;
1192719692766906;0.0402;-0.0646;-0.0072;
1192719702857427;0.0530;-0.0603;0.0056;
1192719712962114;0.0562;0.1623;-0.0210;
1192719723066802;0.0700;0.2719;-0.0551;
1192719733183052;0.0818;0.0696;-0.0264;
1192719743287739;0.0977;-0.1594;0.0088;
1192719753392427;0.1095;0.0015;-0.0019;
1192719763506177;0.0658;0.1826;-0.0136;
1192719773610864;0.1020;0.1581;-0.0093;
1192719783715552;0.1126;-0.1615;0.0162;
1192719793819302;0.1158;-0.1498;0.0269;
1192719803923989;0.0732;0.0249;0.0141;
1192719814028677;0.0498;-0.0401;0.0322;
1192719824127583;0.0328;-0.2350;0.0344;
1192719834232271;0.0019;-0.3309;0.0141;
1192719844336958;-0.0184;-0.1338;-0.0072;
1192719854450135;0.0818;0.2868;-0.0029;
1192719864554823;0.1126;0.1591;0.0216;
1192719874659510;0.0722;-0.3638;0.0354;
1192719884767010;0.1446;-0.1061;0.0077;
1192719894871698;0.1265;0.3337;0.0429;
1192719904976385;0.0679;0.1122;0.0365;
1192719915076698;0.1350;0.0920;0.0120;
1192719925181385;0.2202;0.2602;0.0972;
1192719935286073;0.1563;-0.0742;0.1228;
1192719945383989;0.0796;-0.2531;0.1387;
1192719955488677;0.0360;-0.0443;0.1217;
1192719965593364;-0.0333;-0.0369;0.1100;
1192719975707739;0.0242;0.0025;0.1302;
1192719985812427;0.0487;0.0302;0.1057;
1192719995917114;0.0807;0.1442;0.1494;
1192720006018364;0.0210;0.0537;0.1345;
1192720016123052;-0.0024;-0.1434;0.1153;
1192720026227739;0.0146;-0.1487;0.1047;
1192720036297167;0.0391;0.0249;0.1409;
1192720046401906;0.0221;0.0015;0.1441;
1192720056506594;0.0349;-0.0635;0.1334;
1192720066645448;0.0328;0.0537;0.1750;
1192720076750135;-0.0088;0.0920;0.1356;
1192720086854823;0.0466;0.0707;0.1238;
1192720096956385;0.0658;-0.0305;0.1430;
1192720107061073;0.0253;-0.1658;0.1814;
1192720117165760;0.0019;-0.0912;0.1814;
1192720127280135;-0.0418;0.0441;0.1537;
1192720137384823;-0.0194;0.1762;0.1632;
1192720147489510;0.0360;0.1186;0.1590;
1192720157582219;0.0317;-0.0923;0.1867;
1192720167686906;0.0360;0.0569;0.2293;
1192720177791594;-0.0344;-0.0688;0.2538;
1192720187912635;-0.1004;-0.2318;0.2378;
1192720198017323;-0.0972;-0.0284;0.1963;
1192720208122010;-0.0961;0.2953;0.1515;
1192720218224094;-0.1260;0.2316;0.1718;
1192720228328781;-0.0983;-0.0369;0.1877;
1192720238433417;-0.0844;-0.0571;0.2016;
1192720248530239;-0.1941;-0.1881;0.1877;
1192720258634927;-0.3474;-0.3309;0.1270;
1192720268739614;-0.2932;0.2550;0.1302;
1192720278830552;-0.3996;0.5606;0.1015;
1192720288935239;-0.3517;0.0324;0.0897;
1192720299039927;-0.0716;0.0324;0.0834;
1192720309149667;-0.1057;0.2868;0.0354;
1192720319254354;-0.2229;0.0036;0.0535;
1192720329359042;-0.1941;-0.2936;0.0780;
1192720339498469;-0.1569;-0.1125;0.0535;
1192720349603156;-0.2059;0.1389;0.0130;
1192720359707844;-0.2389;0.1676;0.0067;
1192720369775917;-0.2016;-0.0475;0.0258;
1192720379880604;-0.1782;-0.3075;0.0365;
1192720389985292;-0.2218;-0.2766;0.0067;
1192720400109771;-0.2538;0.0526;-0.0796;
1192720410214458;-0.2431;0.0185;-0.0519;
1192720420319198;-0.2122;-0.2020;-0.0850;
1192720430414719;-0.0322;0.1804;-0.0828;
1192720440519406;-0.0301;0.3678;-0.0668;
1192720450624094;-0.1249;-0.1423;-0.0679;
1192720460746906;0.0136;-0.2297;-0.0594;
1192720470851594;0.0083;0.0334;-0.0871;
1192720480956281;-0.0535;0.3092;-0.0700;
1192720491028156;-0.0397;0.3071;-0.0636;
1192720501132844;0.0221;-0.0007;-0.0850;
1192720511237531;0.0850;-0.2180;-0.0306;
1192720521368989;-0.0269;-0.1807;-0.0274;
1192720531473677;-0.1654;-0.1945;-0.0360;
1192720541578364;-0.1377;0.0057;-0.0935;
1192720551688573;-0.1313;-0.0720;-0.0850;
1192720561793260;-0.0557;0.0664;-0.1105;
1192720571897948;-0.0301;0.1485;-0.0935;
1192720581998989;-0.0866;-0.0262;-0.1095;
1192720592103677;-0.0397;-0.0369;-0.0700;
1192720602208417;-0.0535;-0.2563;-0.0754;
1192720612293781;-0.0429;-0.1168;-0.1457;
1192720622398521;-0.0120;0.3071;-0.1169;
1192720632503208;-0.0620;0.0473;-0.1414;
1192720642615917;0.0530;-0.0688;-0.0935;
1192720652720604;-0.0152;-0.2233;-0.1425;
1192720662825344;-0.0269;-0.1700;-0.1553;
1192720672901125;-0.0333;0.0771;-0.0913;
1192720683005812;-0.0450;0.0068;-0.0764;
1192720693110500;0.0754;0.1059;-0.1222;
1192720703215187;0.1340;0.0057;-0.1403;
1192720713355760;0.2479;-0.0891;-0.1212;
1192720723460448;0.2213;-0.2095;-0.0924;
1192720733565187;0.1979;-0.1903;-0.0530;
1192720743668364;0.2852;-0.0071;-0.0850;
1192720753773052;0.3543;-0.1200;-0.0349;
1192720763877792;0.4023;-0.1636;-0.0093;
1192720773975448;0.3628;-0.0166;0.0397;
1192720784080135;0.2437;0.0941;0.0642;
1192720794184875;0.3245;-0.0859;0.0929;
1192720804292844;0.4087;-0.2371;0.1015;
1192720814397531;0.2863;-0.0145;0.0695;
1192720824502271;0.2277;0.2847;0.1505;
1192720834616385;0.3437;0.1836;0.1632;
1192720844721073;0.4598;0.1133;0.1643;
1192720854825812;0.4800;0.0526;0.2336;
1192720864926802;0.3735;0.1506;0.2889;
1192720875031489;0.2192;-0.0944;0.3273;
1192720885136229;0.1766;-0.2414;0.3316;
1192720895246906;0.0455;-0.0156;0.3465;
1192720905351594;-0.0802;-0.0720;0.3582;
1192720915456333;-0.1015;-0.0454;0.2857;
1192720925543573;-0.2431;0.1751;0.2943;
1192720935648260;-0.2687;0.1868;0.2730;
1192720945753000;-0.0418;-0.0262;0.2591;
1192720955868260;-0.1473;-0.3085;0.2879;
1192720965972948;-0.3847;-0.1210;0.2442;
1192720976077687;-0.5093;0.3827;0.1835;
1192720986192010;-0.3943;0.1783;0.1601;
1192720996296698;-0.0780;-0.0944;0.1654;
1192721006401437;-0.1888;0.1463;0.1622;
1192721016498417;-0.4965;-0.0252;0.1217;
1192721026603104;-0.4550;-0.1764;0.0546;
1192721036707844;-0.4806;-0.0561;0.0258;
1192721046811594;-0.4635;-0.1242;-0.0264;
1192721056916281;-0.3272;0.0877;-0.0743;
1192721067021021;-0.3879;0.2113;-0.0732;
1192721077126177;-0.3048;-0.1477;-0.1222;
1192721087230917;-0.2336;-0.1839;-0.1787;
1192721097335604;-0.3996;0.1176;-0.1691;
1192721107426906;-0.3900;0.1847;-0.2032;
1192721117531646;-0.1654;-0.0348;-0.2254;
1192721127636333;-0.2304;0.0185;-0.2915;
1192721137749823;-0.3144;0.2996;-0.2979;
1192721147854510;-0.1462;0.3337;-0.3021;
1192721157959250;0.0945;-0.1242;-0.3000;
1192721168073260;0.2053;-0.1434;-0.2851;
1192721178177948;-0.0173;0.1804;-0.2318;
1192721188282687;-0.1249;0.0100;-0.2096;
1192721198391021;0.0583;0.0281;-0.2329;
1192721208495708;0.1180;0.2060;-0.1915;
1192721218600448;0.1308;-0.0614;-0.2000;
1192721228691906;0.2192;-0.0561;-0.1638;
1192721238796594;0.0583;0.1676;-0.1084;
1192721248901333;0.0264;-0.1445;-0.1158;
1192721259010552;0.1201;-0.3075;-0.0700;
1192721269115239;-0.0642;0.0228;-0.0509;
1192721279219979;-0.1686;0.1080;-0.0498;
1192721289312323;-0.0791;-0.0198;-0.0636;
1192721299417010;-0.0599;-0.0475;-0.0370;
1192721309521698;-0.1196;0.0281;-0.0040;
1192721319652114;-0.1356;0.0771;-0.0232;
1192721329756802;-0.1015;0.0270;-0.0274;
1192721339861542;-0.1185;-0.0092;-0.0391;
1192721349946385;-0.1537;0.1250;-0.0253;
1192721360051073;-0.1941;-0.2073;-0.0647;
1192721370155812;-0.2154;-0.2627;-0.0541;
1192721380252219;-0.4028;0.1240;-0.0636;
1192721390356906;-0.4827;0.0995;-0.0807;
1192721400461646;-0.1824;-0.0177;-0.1031;
1192721410588989;-0.0951;-0.0358;-0.1233;
1192721420693677;-0.1686;-0.1509;-0.1318;
1192721430798364;-0.2250;-0.0933;-0.1979;
1192721440905864;-0.1771;0.1101;-0.1947;
1192721451010604;-0.0077;0.0984;-0.2053;
1192721461115292;0.0956;-0.1636;-0.2032;
1192721471201281;0.0029;-0.0806;-0.2032;
1192721481305969;-0.0610;0.2497;-0.1883;
1192721491410708;0.1031;0.0877;-0.1989;
1192721501529406;0.2692;-0.2393;-0.1893;
1192721511634094;0.1297;-0.1125;-0.1627;
1192721521738833;0.0402;0.1932;-0.1425;
1192721531815031;0.2788;0.1144;-0.1126;
1192721541919771;0.4023;-0.1828;-0.1126;
1192721552024458;0.2554;-0.0198;-0.0636;
1192721562128781;0.0711;0.0899;-0.0093;
1192721572233469;0.1158;0.0792;-0.0242;
1192721582338208;0.1478;0.0228;0.0045;
1192721592452427;0.0381;-0.1796;0.0429;
1192721602557114;-0.0461;-0.0230;0.0663;
1192721612661750;-0.1153;0.1634;0.0706;
1192721622767739;0.0029;0.0664;0.0748;
1192721632872427;-0.0035;-0.0497;0.0439;
1192721642977062;-0.0663;0.0451;0.0652;
1192721653080344;-0.0652;0.1836;0.0812;
1192721663185031;-0.0365;0.0632;0.0951;
1192721673289667;-0.0397;-0.0507;0.0919;
1192721683402948;-0.0897;-0.0273;0.1377;
1192721693507635;-0.1089;-0.0955;0.1387;
1192721703612323;-0.1547;0.0206;0.1579;
1192721713710500;-0.2953;-0.0358;0.1569;
1192721723815187;-0.3261;-0.2382;0.1377;
1192721733919823;-0.3911;-0.1125;0.1100;
1192721744040135;-0.4667;-0.1477;0.1206;
1192721754144823;-0.5253;-0.1881;0.0759;
1192721764249510;-0.6052;-0.0688;-0.0445;
1192721774344250;-0.5807;0.1570;-0.0903;
1192721784448937;-0.3197;0.1623;-0.0903;
1192721794553573;-0.0866;0.0238;-0.1105;
1192721804649667;-0.1111;0.1357;-0.1052;
1192721814754354;-0.0897;0.2932;-0.0754;
1192721824858989;-0.1068;-0.1115;-0.1148;
1192721834983781;-0.1015;-0.2180;-0.1680;
1192721845088469;-0.1100;0.1144;-0.1361;
1192721855193104;-0.0876;0.2369;-0.1798;
1192721865282739;-0.0748;-0.0081;-0.1830;
1192721875387427;-0.1356;-0.2137;-0.2222;
1192721885492062;-0.1174;0.0377;-0.2499;
1192721895603781;-0.0184;0.1250;-0.2627;
1192721905708469;0.0988;-0.1626;-0.2595;
1192721915813104;0.2096;-0.1296;-0.2542;
1192721925941906;0.2852;0.0334;-0.2403;
1192721936046594;0.4055;0.1250;-0.2297;
1192721946151229;0.4545;0.0132;-0.2308;
1192721956224614;0.5130;-0.0944;-0.1467;
1192721966329302;0.4278;-0.1019;-0.1371;
1192721976433937;0.4108;-0.0071;-0.1627;
1192721986550656;0.4097;-0.0486;-0.1350;
1192721996655344;0.4065;-0.2798;-0.0807;
1192722006759979;0.3969;-0.2009;-0.0541;
1192722016865239;0.3788;0.0292;-0.0328;
1192722026969927;0.3703;-0.0784;-0.0019;
1192722037074562;0.3714;-0.2574;0.0344;
1192722047177271;0.2991;0.0260;0.0226;
1192722057281958;0.2352;0.2294;0.0471;
1192722067386646;0.3149;0.2007;0.0823;
1192722077489458;0.3895;0.1666;0.0791;
1192722087594198;0.3703;0.0462;0.1057;
1192722097698833;0.2916;0.0260;0.1632;
1192722107792844;0.2256;0.1336;0.1877;
1192722117897531;0.2298;0.0590;0.2208;
1192722128002167;0.2426;0.0334;0.2506;
1192722138112739;0.1382;0.1059;0.2453;
1192722148217427;-0.0876;0.1442;0.1995;
1192722158322114;-0.1973;0.3933;0.1718;
1192722168413156;-0.0205;0.2666;0.1835;
1192722178517844;0.0711;-0.2393;0.2325;
1192722188622479;-0.0120;-0.0262;0.2027;
1192722198758104;-0.1153;0.2591;0.1963;
1192722208862792;-0.1270;0.0696;0.1558;
1192722218967427;-0.0067;-0.1381;0.1739;
1192722229060135;-0.0791;-0.0103;0.1909;
1192722239164823;-0.1899;0.0760;0.1569;
1192722249269458;-0.2378;-0.0816;0.1494;
1192722259372010;-0.2176;-0.2095;0.1515;
1192722269476698;-0.2357;-0.2595;0.1004;
1192722279581333;-0.1803;-0.1647;0.0834;
1192722289741281;-0.1814;-0.0997;0.0972;
1192722299845969;-0.2399;-0.3075;0.0834;
1192722309950604;-0.2804;0.0004;0.0130;
1192722319986073;-0.3698;0.2433;0.0237;
1192722330090708;-0.1057;0.0941;0.0130;
1192722340195396;0.1073;0.2007;0.0237;
1192722350346177;0.0232;0.1602;-0.0029;
1192722360450864;0.0956;-0.0262;0.0120;
1192722370555500;0.1361;-0.0806;0.0684;
1192722380646489;0.0413;-0.1999;0.0791;
1192722390751177;-0.0599;-0.0848;0.0173;
1192722400855812;-0.1174;0.3475;0.0184;
1192722410926385;-0.1132;0.1048;0.0439;
1192722421031073;0.0104;-0.2457;-0.0051;
1192722431135708;-0.0258;-0.0145;0.0152;
1192722441262739;-0.0674;0.1197;0.0109;
1192722451367427;0.0168;-0.0507;-0.0189;
1192722461472062;0.0626;-0.0369;0.0109;
1192722471568469;0.0296;0.0952;-0.0232;
1192722481673156;0.0391;0.2879;-0.0583;
1192722491777792;0.1489;0.2602;-0.0274;
1192722501879719;0.1606;-0.0997;-0.0210;
1192722511984406;0.1595;-0.1455;-0.0104;
1192722522089094;0.0626;0.1495;-0.0072;
1192722532187583;0.0360;-0.2031;0.0013;
1192722542292271;0.0530;-0.2467;-0.0221;
1192722552396906;-0.0567;0.1282;-0.0200;
1192722562511750;-0.1558;-0.0539;-0.0434;
1192722572616437;-0.0226;0.0590;-0.0360;
1192722582721073;-0.0631;0.1985;-0.0285;
1192722592819614;-0.0397;-0.2031;-0.0807;
1192722602924302;0.0807;0.1687;-0.0487;
1192722613028989;0.0285;0.2953;-0.0498;
1192722623130656;0.1393;-0.2574;-0.0317;
1192722633235344;0.2117;-0.1402;0.0652;
1192722643340031;0.0711;0.2964;0.0429;
1192722653443833;0.0072;0.0601;0.0099;
1192722663548521;0.0338;-0.1200;0.0375;
1192722673653208;0.0221;0.0558;0.0418;
1192722683775083;0.0083;0.0345;0.0599;
1192722693879771;0.0051;-0.1562;0.0642;
1192722703984458;0.0093;-0.2190;0.0567;
1192722714078364;-0.0226;-0.1264;0.0503;
1192722724183052;-0.0045;-0.0550;0.0770;
1192722734287739;-0.0152;-0.0774;0.0993;
1192722744398781;-0.0003;0.1762;0.0887;
1192722754503469;-0.0599;0.1421;0.0525;
1192722764608156;-0.0088;-0.0294;0.0610;
1192722774708156;-0.0035;0.0356;0.0866;
1192722784812844;-0.0344;-0.0188;0.0951;
1192722794917531;-0.0695;-0.1881;0.0780;
1192722805033989;-0.0130;0.1431;0.0972;
1192722815138677;-0.0620;0.1964;0.1057;
1192722825243364;-0.0525;-0.2521;0.1249;
1192722835351333;-0.0812;-0.0720;0.1121;
1192722845456021;-0.2069;0.2762;0.1068;
1192722855560708;-0.3101;-0.0198;0.0631;
1192722865651177;-0.1164;-0.0252;0.0887;
1192722875755864;-0.0780;0.1261;0.0610;
1192722885860552;-0.0919;-0.0177;0.0940;
1192722895972531;-0.0876;-0.0955;0.0855;
1192722906077219;-0.1611;-0.0550;0.0631;
1192722916181906;-0.2378;-0.1136;0.0301;
1192722926269302;-0.1920;-0.0007;0.0141;
1192722936373989;-0.1430;0.1634;0.0429;
1192722946478677;-0.1664;-0.0230;0.0407;
1192722956605656;-0.1451;-0.0838;-0.0093;
1192722966710344;-0.1366;0.1442;-0.0466;
1192722976815031;-0.1217;-0.0071;0.0024;
1192722986913417;-0.1036;-0.2180;-0.0242;
1192722997018104;-0.0748;0.0846;-0.0274;
1192723007122792;-0.0940;0.3081;-0.0221;
1192723017216281;-0.0578;0.0494;0.0003;
1192723027320969;-0.0418;-0.0763;0.0141;
1192723037425604;-0.0620;-0.0379;0.0088;
1192723047522323;-0.0471;0.0430;0.0216;
1192723057627010;-0.0844;0.0079;0.0205;
1192723067731698;-0.1185;-0.1850;0.0045;
1192723077837479;-0.1132;-0.1178;-0.0157;
1192723087942167;-0.1185;0.0004;-0.0115;
1192723098046854;-0.1217;-0.0390;-0.0093;
1192723108171281;-0.0961;-0.0230;0.0088;
1192723118275917;-0.1185;-0.1072;0.0035;
1192723128380656;-0.0663;0.0249;-0.0093;
1192723138476906;-0.0759;0.1655;-0.0115;
1192723148581594;-0.0695;-0.0912;0.0173;
1192723158686281;-0.0610;0.0643;0.0045;
1192723168780083;-0.0770;0.2241;0.0003;
1192723178884771;-0.1302;-0.0869;0.0141;
1192723188989458;-0.0770;-0.0784;0.0035;
1192723199133469;-0.0620;0.1581;-0.0104;
1192723209238156;-0.0844;0.0675;0.0088;
1192723219342844;-0.0812;-0.0593;0.0045;
1192723229423364;-0.1121;-0.0507;0.0280;
1192723239528052;-0.1068;-0.0827;0.0120;
1192723249632739;-0.0908;-0.0081;0.0141;
1192723259729302;-0.0887;-0.0049;0.0067;
1192723269833989;-0.1047;-0.0390;-0.0008;
1192723279938677;-0.0951;0.0174;0.0088;
1192723290063937;-0.1196;0.0494;-0.0125;
1192723300168625;-0.0823;0.0824;-0.0434;
1192723310273364;-0.0631;0.0036;-0.0146;
1192723320366646;-0.0897;-0.0816;0.0077;
1192723330471333;-0.1036;-0.0720;-0.0338;
1192723340576021;-0.0738;0.0313;-0.0434;
1192723350687323;-0.0429;0.0057;-0.0349;
1192723360792010;-0.0674;-0.2425;-0.0210;
1192723370896698;-0.0716;-0.1466;-0.0115;
1192723380987739;-0.1206;0.0696;-0.0402;
1192723391092427;-0.1164;-0.0678;-0.0850;
1192723401197114;-0.0503;-0.0965;-0.0562;
1192723411292844;-0.0578;-0.1232;-0.0743;
1192723421397531;-0.0461;0.0356;-0.0871;
1192723431502219;-0.0578;0.1538;-0.0924;
1192723441630239;-0.0205;-0.1658;-0.0860;
1192723451734927;0.0541;-0.1200;-0.0764;
1192723461839614;0.0360;0.1687;-0.0487;
1192723471940083;-0.0248;0.1751;-0.0668;
1192723482044771;0.0264;0.0004;-0.0402;
1192723492149458;0.0125;-0.2563;-0.0647;
1192723502241333;-0.0397;-0.2265;-0.0871;
1192723512346021;-0.0823;-0.0944;-0.0519;
1192723522450708;-0.0940;-0.0944;-0.0615;
1192723532580448;-0.1079;-0.1498;-0.0871;
1192723542685135;-0.0812;-0.0784;-0.1009;
1192723552789823;-0.0748;0.1282;-0.1020;
1192723562875448;-0.0631;0.0483;-0.1148;
1192723572980135;-0.0184;0.0281;-0.1233;
1192723583084823;0.0008;0.1975;-0.1297;
1192723593189406;0.0541;0.1634;-0.1670;
1192723603294094;0.1595;0.1612;-0.1308;
1192723613398833;0.1606;0.2273;-0.0828;
1192723623501073;0.1201;0.1826;-0.0754;
1192723633605760;0.0445;0.0206;-0.0754;
1192723643710448;0.0040;-0.0699;-0.0818;
1192723653835135;-0.0013;0.0643;-0.0775;
1192723663939823;-0.0152;0.0132;-0.0626;
1192723674044510;-0.0375;-0.1178;-0.0796;
1192723684130031;-0.0535;-0.0838;-0.0786;
1192723694234719;-0.0706;-0.0422;-0.1073;
1192723704339458;-0.0280;-0.0465;-0.1201;
1192723714437114;0.0178;0.0111;-0.1276;
1192723724541802;0.0402;-0.0071;-0.1137;
1192723734646489;0.0487;-0.0134;-0.1031;
1192723744761073;0.0317;0.0505;-0.1105;
1192723754865760;0.0679;0.1506;-0.1009;
1192723764970448;0.1201;0.1037;-0.0764;
1192723775084823;0.1521;-0.0305;-0.0594;
1192723785189510;0.0935;0.0164;-0.0498;
1192723795294198;-0.0045;0.0292;-0.0711;
1192723805381698;0.0083;0.0068;-0.0839;
1192723815486385;0.0391;0.1059;-0.0690;
1192723825591073;0.0477;0.1517;-0.0679;
1192723835714094;0.0360;0.0537;-0.0818;
1192723845818781;0.0349;-0.0337;-0.0487;
1192723855923469;0.0274;-0.0965;-0.0242;
1192723866012531;0.0146;-0.1519;-0.0434;
1192723876117219;-0.0077;-0.0411;-0.0722;
1192723886221906;-0.0194;0.0952;-0.0658;
1192723896334927;0.0210;0.0526;-0.0594;
1192723906439614;0.0232;0.0387;-0.0818;
1192723916544354;0.0136;-0.0007;-0.1020;
1192723926667739;0.0168;-0.0017;-0.0690;
1192723936772427;0.0264;0.0632;-0.1009;
1192723946877114;0.0615;0.0686;-0.1063;
1192723956984823;0.0615;0.0984;-0.0860;
1192723967089510;0.0818;0.1048;-0.0807;
1192723977194250;0.0541;0.0920;-0.0860;
1192723987283573;0.0754;0.0260;-0.0786;
1192723997388260;0.0381;-0.1264;-0.0967;
1192724007493000;0.0146;-0.1466;-0.1052;
1192724017579614;0.0274;-0.0156;-0.1158;
1192724027684302;0.0477;0.0814;-0.1201;
1192724037789042;0.0615;-0.1104;-0.1095;
1192724047894823;0.0668;-0.2009;-0.0945;
1192724057999510;0.0594;-0.0262;-0.0892;
1192724068104198;0.0658;-0.1360;-0.0999;
1192724078220760;0.0764;-0.2457;-0.1041;
1192724088325448;0.0487;-0.1881;-0.0913;
1192724098430135;0.0274;-0.1136;-0.1190;
1192724108532114;0.0700;-0.0124;-0.1361;
1192724118636802;0.0722;-0.0465;-0.1137;
1192724128741542;0.1148;-0.1061;-0.1158;
1192724138837010;0.0818;-0.0667;-0.1244;
1192724148941698;0.0860;0.0015;-0.1095;
1192724159046437;0.1318;0.0494;-0.0924;
1192724169175656;0.1638;-0.1051;-0.1105;
1192724179280344;0.1904;-0.0305;-0.1020;
1192724189385031;0.1254;0.0803;-0.0754;
1192724199478052;0.0967;-0.0571;-0.0786;
1192724209582739;0.1350;-0.1818;-0.0626;
1192724219687427;0.0786;-0.1402;-0.0754;
1192724229798781;0.0668;-0.0209;-0.0455;
1192724239903469;0.0658;-0.1455;-0.0732;
1192724250008208;0.0850;-0.2233;-0.0722;
1192724260073937;0.0796;-0.1083;-0.0636;
1192724270178677;0.0722;-0.1413;-0.0391;
1192724280283364;0.0583;-0.0678;-0.0626;
1192724290402010;0.0754;0.1197;-0.0722;
1192724300506698;0.0945;-0.0007;-0.0988;
1192724310611385;0.1414;-0.0124;-0.0935;
1192724320733573;0.1297;0.2518;-0.0903;
1192724330838260;0.1638;0.1921;-0.0700;
1192724340942948;0.1893;-0.1157;-0.0562;
1192724351032219;0.1425;-0.0774;-0.0541;
1192724361136906;0.0935;0.1964;-0.0498;
1192724371241594;0.1201;0.0771;-0.0370;
1192724381408573;0.1116;0.0302;-0.0477;
1192724391513260;0.0892;0.0515;-0.0402;
1192724401617948;0.0658;-0.1242;-0.0573;
1192724411683364;0.0743;-0.1306;-0.0413;
1192724421788052;0.0605;-0.0262;-0.0328;
1192724431892739;0.0530;-0.0145;-0.0370;
1192724441998989;0.1041;0.0622;-0.0626;
1192724452103677;0.1446;0.0835;-0.0455;
1192724462208364;0.1702;-0.0465;-0.0178;
1192724472299094;0.1329;-0.0912;0.0003;
1192724482403781;0.1041;0.0973;-0.0328;
1192724492508469;0.1126;0.1059;-0.0296;
1192724502619354;0.1734;0.0590;-0.0487;
1192724512724042;0.1957;0.2529;-0.0296;
1192724522828781;0.1648;0.2644;-0.0264;
1192724532947635;0.1851;0.1133;0.0045;
1192724543052323;0.1265;-0.0220;0.0162;
1192724553157010;0.1158;0.0782;-0.0040;
1192724563256073;0.1425;0.2294;0.0024;
1192724573360760;0.1606;0.1953;0.0354;
1192724583465448;0.1670;0.1559;0.0365;
1192724593557739;0.1180;0.0451;0.0493;
1192724603662427;0.0796;-0.0379;0.0322;
1192724613767167;0.0903;0.0377;0.0248;
1192724623867167;0.0945;-0.0188;0.0099;
1192724633971854;0.1116;-0.0987;0.0280;
1192724644076594;0.1063;-0.0976;0.0429;
1192724654186073;0.0839;-0.0933;0.0578;
1192724664290760;0.0807;-0.0869;0.0695;
1192724674395500;0.1180;-0.0156;0.0695;
1192724684501802;0.1318;0.0313;0.0280;
1192724694606489;0.1744;0.1048;0.0525;
1192724704711229;0.2170;0.1250;0.0461;
1192724714811906;0.2106;0.0611;0.0589;
1192724724916594;0.1553;-0.0507;0.0919;
1192724735021333;0.1244;0.0632;0.0983;
1192724745130969;0.1478;0.1751;0.0919;
1192724755235656;0.1766;0.0707;0.1228;
1192724765340396;0.1553;-0.0166;0.1505;
1192724775445969;0.1063;0.0409;0.1686;
1192724785550656;0.0786;0.0601;0.1494;
1192724795655396;0.1063;0.0441;0.1846;
1192724805762114;0.1084;0.0856;0.1728;
1192724815866802;0.1329;0.2113;0.1473;
1192724825971542;0.1371;0.2879;0.1846;
1192724836078885;0.1222;0.1889;0.1963;
1192724846183625;0.0913;-0.0646;0.2016;
1192724856288312;0.0839;-0.1945;0.2186;
1192724866391594;0.0487;-0.1093;0.2304;
1192724876496281;-0.0503;-0.1903;0.2378;
1192724886601021;-0.1398;-0.1807;0.1963;
1192724896715448;-0.2154;-0.1146;0.1856;
1192724906820135;-0.1909;-0.0912;0.1398;
1192724916924823;-0.0908;-0.0507;0.1324;
1192724927002844;-0.0365;-0.0390;0.1387;
1192724937107583;0.0115;-0.0081;0.1281;
1192724947212271;0.0360;0.0622;0.1409;
1192724957338052;0.0732;0.1975;0.1419;
1192724967442792;0.1105;0.2591;0.1696;
1192724977547479;0.1286;0.1740;0.1792;
1192724987643781;0.0541;0.1133;0.1632;
1192724997748469;-0.0077;-0.0049;0.1846;
1192725007853208;-0.0162;-0.0688;0.1909;
1192725017945969;-0.0354;-0.0273;0.1909;
1192725028050656;-0.0610;-0.0763;0.2005;
1192725038155396;-0.1185;-0.1296;0.1963;
1192725048269198;-0.2282;-0.1285;0.1824;
1192725058373885;-0.3017;-0.1051;0.1739;
1192725068478625;-0.2975;-0.0742;0.1622;
1192725078597739;-0.2282;-0.0454;0.1217;
1192725088702427;-0.1537;0.0292;0.1132;
1192725098807167;-0.1217;0.0249;0.1260;
1192725108892010;-0.0972;-0.0561;0.0876;
1192725118996750;-0.1228;-0.0134;0.0738;
1192725129101437;-0.1356;0.0515;0.0716;
1192725139197427;-0.1111;0.0356;0.0791;
1192725149302114;-0.1047;0.0238;0.0610;
1192725159406854;-0.1079;0.0739;0.0802;
1192725169532323;-0.1238;0.0451;0.0684;
1192725179637010;-0.1079;-0.0294;0.0631;
1192725189741698;-0.1100;0.0430;0.0525;
1192725199839302;-0.1238;-0.0060;0.0642;
1192725209943989;-0.1036;-0.0262;0.0258;
1192725220048677;-0.0823;0.0846;0.0269;
1192725230154823;-0.0855;0.0622;0.0322;
1192725240259562;-0.1015;-0.0603;0.0407;
1192725250364302;-0.1185;-0.1317;0.0237;
1192725260457635;-0.1281;-0.0316;0.0173;
1192725270562323;-0.1473;-0.0060;0.0099;
1192725280667062;-0.1270;-0.0635;0.0067;
1192725290794406;-0.1292;-0.0369;-0.0232;
1192725300899094;-0.1547;-0.0273;-0.0125;
1192725311003833;-0.1345;-0.0156;-0.0402;
1192725321085031;-0.0972;0.0270;-0.0668;
1192725331189719;-0.0887;0.0206;-0.0722;
1192725341294458;-0.0791;-0.0305;-0.0722;
1192725351408573;-0.0738;-0.0134;-0.0626;
1192725361513312;-0.0589;0.0707;-0.0796;
1192725371618000;-0.0535;0.0356;-0.0711;
1192725381723989;-0.0663;-0.0294;-0.0711;
1192725391828677;-0.0834;0.0100;-0.0658;
1192725401933417;-0.0834;0.0260;-0.0658;
1192725412054823;-0.0684;0.0292;-0.0967;
1192725422159510;-0.0397;0.0579;-0.1116;
1192725432264250;-0.0450;0.0292;-0.1052;
1192725442359510;-0.0439;0.0111;-0.0977;
1192725452464198;-0.0407;0.0302;-0.0977;
1192725462568937;-0.0333;0.0206;-0.0945;
1192725472665656;-0.0258;0.0132;-0.0977;
1192725482770344;-0.0354;0.0430;-0.1041;
1192725492875083;-0.0269;0.0601;-0.1052;
1192725502991333;-0.0248;-0.0113;-0.1041;
1192725513096073;-0.0312;-0.0603;-0.1308;
1192725523200760;-0.0290;-0.0188;-0.1595;
1192725533316281;-0.0205;-0.0113;-0.1425;
1192725543420969;-0.0173;-0.0795;-0.1340;
1192725553525708;-0.0141;-0.0699;-0.1542;
1192725563613052;-0.0077;0.0015;-0.1435;
1192725573717792;0.0242;-0.0007;-0.1318;
1192725583822479;0.0338;0.0004;-0.1467;
1192725593928052;0.0573;0.0473;-0.1531;
1192725604032792;0.0732;0.0675;-0.1403;
1192725614137479;0.1297;0.0877;-0.1489;
1192725624228989;0.1371;0.0622;-0.1371;
1192725634333729;0.1254;-0.0071;-0.1265;
1192725644438417;0.1020;-0.0273;-0.1222;
1192725654544719;0.0668;-0.0198;-0.1233;
1192725664649406;0.0573;-0.0273;-0.1212;
1192725674754146;0.0743;-0.0113;-0.1041;
1192725684860864;0.0690;0.0398;-0.0999;
1192725694965604;0.0615;0.0654;-0.1116;
1192725705070292;0.0839;0.0537;-0.1254;
1192725715180969;0.1073;0.0558;-0.1393;
1192725725285708;0.1148;0.0920;-0.1308;
1192725735390396;0.0892;0.1069;-0.1265;
1192725745493833;0.0977;0.0739;-0.1276;
1192725755598573;0.0924;0.0899;-0.1222;
1192725765703260;0.1041;0.1261;-0.1095;
1192725775790344;0.1073;0.1133;-0.0967;
1192725785895083;0.0945;0.0920;-0.1041;
1192725795999771;0.0764;0.0196;-0.0807;
1192725806118989;0.0626;-0.0742;-0.1031;
1192725816223729;0.0541;-0.0752;-0.1126;
1192725826328417;0.0605;-0.0348;-0.1169;
1192725836409250;0.0668;-0.0507;-0.1073;
1192725846514042;0.0519;-0.1019;-0.1009;
1192725856618729;0.0615;-0.0624;-0.0999;
1192725866749771;0.0786;0.0217;-0.0881;
1192725876854458;0.1041;0.0185;-0.0786;
1192725886959198;0.0871;-0.0252;-0.0828;
1192725897060864;0.0786;-0.0390;-0.0850;
1192725907165604;0.0498;-0.0379;-0.0796;
1192725917270292;0.0743;0.0238;-0.1009;
1192725927369823;0.0860;0.0526;-0.1020;
1192725937474562;0.0913;-0.0039;-0.0913;
1192725947579250;0.0764;-0.0933;-0.0892;
1192725957708677;0.0668;-0.1487;-0.0668;
1192725967813364;0.0690;-0.1903;-0.0562;
1192725977918104;0.0541;-0.2318;-0.0509;
1192725988006698;0.0296;-0.1658;-0.0658;
1192725998111437;0.0328;-0.0539;-0.0850;
1192726008216125;0.0445;-0.0230;-0.0892;
1192726018305135;0.0850;0.0345;-0.1063;
1192726028409875;0.1009;0.1101;-0.1009;
1192726038514562;0.1499;0.1623;-0.1020;
1192726048634250;0.2011;0.1932;-0.1084;
1192726058738989;0.2320;0.2390;-0.1137;
1192726068843677;0.2543;0.2655;-0.0850;
1192726079012896;0.2618;0.1676;-0.0658;
1192726089117583;0.2245;0.0334;-0.0605;
1192726099222323;0.1446;-0.0742;-0.0391;
1192726109262219;0.0764;-0.1551;-0.0349;
1192726119366958;0.0903;-0.1210;-0.0722;
1192726129471646;0.0903;-0.0593;-0.0903;
1192726139582531;0.0839;-0.0901;-0.0881;
1192726149687219;0.1105;-0.1178;-0.0850;
1192726159791958;0.1329;-0.0742;-0.0807;
1192726169868364;0.1585;-0.0188;-0.0786;
1192726179973104;0.2373;0.0398;-0.0711;
1192726190077792;0.3447;0.0888;-0.0764;
1192726200215031;0.4087;0.1602;-0.0647;
1192726210319719;0.4427;0.2145;-0.0381;
1192726220424458;0.4885;0.1655;-0.0296;
1192726230513312;0.4992;0.0164;0.0088;
1192726240618000;0.4395;-0.1232;0.0855;
1192726250722687;0.2937;-0.1690;0.0897;
1192726260816906;0.2064;-0.1541;0.1015;
1192726270921646;0.1947;-0.1509;0.1185;
1192726281026333;0.1787;-0.1349;0.1387;
1192726291155344;0.1244;-0.0784;0.1462;
1192726301260083;0.0626;-0.0561;0.1483;
1192726311364771;0.0423;-0.0678;0.1281;
1192726321481385;0.0871;0.0068;0.0951;
1192726331586125;0.1393;0.2177;0.1217;
1192726341690812;0.2405;0.2730;0.1387;
1192726351766073;0.2927;0.1730;0.1441;
1192726361870812;0.2735;0.1304;0.1366;
1192726371975500;0.1872;0.1005;0.1750;
1192726382084510;0.1702;0.0260;0.2005;
1192726392189250;0.1148;-0.0039;0.1963;
1192726402293937;0.0200;0.0196;0.1835;
1192726412419406;-0.1068;0.0771;0.1739;
1192726422524094;-0.1345;0.1506;0.1249;
1192726432628833;-0.0493;0.1453;0.1356;
1192726442730656;0.0445;0.0356;0.1196;
1192726452835396;0.0605;-0.0550;0.1132;
1192726462940083;0.0061;-0.0220;0.1079;
1192726473044667;-0.0493;0.0664;0.1185;
1192726483149406;-0.0312;0.0931;0.1174;
1192726493254094;0.0338;0.1112;0.1142;
1192726503360969;0.0466;0.0856;0.1004;
1192726513465656;0.0338;0.0206;0.1025;
1192726523570396;0.0104;0.0004;0.0823;
1192726533660760;-0.0088;0.0451;0.0770;
1192726543765500;0.0125;0.0377;0.0706;
1192726553870187;0.0434;0.0185;0.0684;
1192726563976281;0.0296;0.1005;0.0631;
1192726574081021;0.0668;0.1144;0.0780;
1192726584185708;0.0764;-0.0049;0.0791;
1192726594287167;0.0562;-0.0603;0.0684;
1192726604391854;0.0349;-0.1285;0.0546;
1192726614496594;0.0274;-0.2265;0.0471;
1192726624601489;-0.0013;-0.1999;0.0248;
1192726634706177;-0.0461;-0.1487;0.0269;
1192726644810917;-0.0631;-0.1839;0.0035;
1192726654912583;-0.0162;-0.2318;-0.0019;
1192726665017271;0.0019;-0.1860;-0.0274;
1192726675122010;0.0136;-0.1551;-0.0232;
1192726685222010;0.0338;-0.1168;-0.0104;
1192726695326698;0.0391;0.0153;-0.0104;
1192726705431437;0.0732;0.1261;-0.0423;
1192726715539198;0.1755;0.1655;-0.0370;
1192726725643885;0.2735;0.2443;-0.0349;
1192726735748625;0.2895;0.2921;-0.0146;
1192726745863156;0.2767;0.2028;0.0067;
1192726755967844;0.2522;0.0696;0.0184;
1192726766072583;0.1702;0.0590;0.0280;
1192726776184302;0.0903;0.0782;0.0344;
1192726786288989;0.0487;0.0750;0.0471;
1192726796393729;0.0519;0.0739;0.0312;
1192726806482323;0.0221;-0.0049;0.0194;
1192726816587010;-0.0077;-0.1072;0.0184;
1192726826691750;-0.0652;-0.0838;-0.0242;
1192726836788573;-0.1025;-0.0071;-0.0370;
1192726846893260;-0.0652;-0.0262;-0.0445;
1192726856997948;0.0093;-0.0688;-0.0647;
1192726867103885;0.0391;-0.0113;-0.0754;
1192726877208573;0.0690;0.0100;-0.0530;
1192726887313312;0.0764;-0.0369;-0.0466;
1192726897419667;0.0700;-0.0348;-0.0487;
1192726907524354;0.0754;-0.0113;-0.0796;
1192726917629094;0.1158;0.0281;-0.0519;
1192726927735604;0.1371;0.0441;-0.0594;
1192726937840292;0.1723;0.0611;-0.0413;
1192726947945031;0.1616;0.0419;-0.0232;
1192726958073364;0.1521;-0.0337;0.0013;
1192726968178052;0.1180;-0.0369;0.0099;
1192726978282739;0.0818;-0.0369;0.0397;
1192726988369094;0.0743;-0.0369;0.0525;
1192726998473781;0.0551;-0.0316;0.0652;
1192727008578521;0.0413;-0.0880;0.0684;
1192727018670760;0.0413;-0.0827;0.0674;
1192727028775448;0.0306;-0.0348;0.0546;
1192727038880187;0.0338;0.0036;0.0461;
1192727048990448;0.0338;-0.0198;0.0482;
1192727059095135;0.0274;-0.0688;0.0567;
1192727069199875;0.0019;-0.0284;0.0525;
1192727079302427;-0.0322;-0.0071;0.0535;
1192727089407114;-0.0077;-0.0156;0.0663;
1192727099511802;0.0093;-0.0220;0.0738;
1192727109642844;-0.0194;-0.0273;0.0514;
1192727119747531;-0.0184;-0.0284;0.0535;
1192727129852219;-0.0162;-0.0198;0.0237;
1192727139918052;0.0125;0.0366;0.0162;
1192727150022739;0.0178;0.0260;0.0269;
1192727160127427;0.0242;-0.0241;0.0333;
1192727170256594;0.0296;-0.0092;0.0280;
1192727180361333;0.0317;-0.0028;0.0226;
1192727190466021;0.0360;-0.0198;0.0258;
1192727200542323;0.0328;-0.0273;0.0354;
1192727210647010;0.0115;-0.0561;0.0173;
1192727220751750;0.0232;-0.0390;0.0013;
1192727230885864;0.0370;0.0356;-0.0093;
1192727240990552;0.0509;0.0899;-0.0349;
1192727251095292;0.0839;0.0856;-0.0477;
1192727261189667;0.1222;0.0228;-0.0487;
1192727271294354;0.1446;-0.0060;-0.0509;
1192727281399094;0.1361;-0.0103;-0.0445;
1192727291504927;0.1169;-0.0316;-0.0370;
1192727301609614;0.1063;0.0260;-0.0498;
1192727311714354;0.0871;0.0590;-0.0626;
1192727321837844;0.1009;0.0515;-0.0658;
1192727331942531;0.1212;0.0601;-0.0679;
1192727342047271;0.1361;0.0547;-0.0860;
1192727352128989;0.1361;0.0281;-0.0839;
1192727362233677;0.1286;-0.0262;-0.0754;
1192727372338364;0.1158;-0.0166;-0.0743;
1192727382463052;0.1222;0.0174;-0.0839;
1192727392567739;0.1244;0.0292;-0.0498;
1192727402672427;0.1478;0.0590;-0.0455;
1192727412759250;0.1318;0.0068;-0.0423;
1192727422863937;0.1233;-0.1072;-0.0391;
1192727432968677;0.1095;-0.1477;-0.0349;
1192727443097739;0.1020;-0.1083;-0.0466;
1192727453202427;0.0903;-0.1349;-0.0455;
1192727463307167;0.0871;-0.1775;-0.0317;
1192727473403677;0.0786;-0.0901;-0.0264;
1192727483508364;0.0615;-0.0220;-0.0423;
1192727493613104;0.1009;-0.0028;-0.0178;
1192727503700969;0.1286;0.0238;0.0077;
1192727513805656;0.1361;-0.0188;0.0067;
1192727523910344;0.1340;0.0015;-0.0083;
1192727534013729;0.1414;0.1027;-0.0125;
1192727544118469;0.1467;0.1581;-0.0232;
1192727554223208;0.1510;0.1218;-0.0104;
1192727564340656;0.1371;0.0803;0.0099;
1192727574445344;0.1233;0.0430;0.0056;
1192727584550083;0.0988;-0.0593;0.0099;
1192727594645448;0.0775;-0.1360;0.0258;
1192727604750135;0.0700;-0.0923;0.0301;
1192727614854823;0.0509;-0.0901;0.0237;
1192727624958469;0.0519;-0.0944;-0.0019;
1192727635063156;0.0583;0.0004;-0.0178;
1192727645167844;0.0935;0.0569;-0.0317;
1192727655273156;0.1201;0.0462;-0.0317;
1192727665377844;0.1446;0.0206;-0.0306;
1192727675482531;0.1734;0.0334;-0.0264;
1192727685599927;0.1861;0.0142;-0.0466;
1192727695704614;0.2117;-0.0220;-0.0168;
1192727705809302;0.2117;-0.0071;0.0003;
1192727715908364;0.1883;-0.0507;0.0067;
1192727726013052;0.1340;-0.0848;-0.0221;
1192727736117739;0.1371;-0.0177;-0.0125;
1192727746228573;0.1478;0.0196;-0.0083;
1192727756333260;0.1542;0.0068;-0.0093;
1192727766437948;0.1670;0.0036;-0.0146;
1192727776516437;0.1734;0.0142;-0.0168;
1192727786621125;0.1840;0.0185;-0.0136;
1192727796725812;0.1861;0.0068;0.0152;
1192727806847010;0.1808;0.0462;0.0258;
1192727816951698;0.1755;0.0590;0.0375;
1192727827056385;0.1510;-0.0220;0.0109;
1192727837166854;0.1340;-0.0294;0.0130;
1192727847271542;0.1361;0.0441;0.0109;
1192727857376229;0.1531;0.0814;0.0035;
1192727867478260;0.1627;0.0526;0.0067;
1192727877582948;0.1553;-0.0049;0.0099;
1192727887687635;0.1574;0.0249;0.0045;
1192727897795344;0.1680;0.0547;0.0216;
1192727907900031;0.1670;0.0611;0.0344;
1192727918004719;0.1766;0.0739;0.0429;
1192727928089198;0.1606;0.0782;0.0216;
1192727938193885;0.1680;0.1687;0.0322;
1192727948298573;0.1851;0.2017;0.0269;
1192727958407531;0.2053;0.1186;0.0290;
1192727968512219;0.1893;0.0313;0.0397;
1192727978616906;0.1648;-0.0156;0.0525;
1192727988738052;0.1478;-0.0401;0.0535;
1192727998842739;0.1340;-0.0891;0.0620;
1192728008947427;0.1265;-0.0965;0.0780;
1192728019044198;0.1148;-0.0869;0.0940;
1192728029148885;0.0977;-0.0901;0.0663;
1192728039253573;0.1233;-0.0348;0.0738;
1192728049347531;0.1371;0.0121;0.0631;
1192728059452219;0.1553;0.0142;0.0535;
1192728069556906;0.1648;0.0153;0.0674;
1192728079742323;0.1776;0.0451;0.0791;
1192728089847010;0.1744;0.0558;0.0844;
1192728099951698;0.1723;0.0664;0.0866;
1192728109991281;0.1510;0.1165;0.1100;
1192728120095917;0.1467;0.1208;0.1153;
1192728130200656;0.1414;0.0686;0.1100;
1192728140352427;0.1308;0.0462;0.1196;
1192728150457114;0.1201;0.0451;0.1047;
1192728160561802;0.1212;0.0675;0.1036;
1192728170598937;0.1254;0.0430;0.1100;
1192728180703677;0.1297;-0.0028;0.1121;
1192728190808364;0.0999;-0.0859;0.1089;
1192728200919198;0.0818;-0.1242;0.1164;
1192728211023885;0.0636;-0.0465;0.1366;
1192728221128573;0.0562;-0.0635;0.1292;
1192728231250760;0.0764;-0.1040;0.1121;
1192728241355448;0.1031;-0.0017;0.0929;
1192728251460135;0.1180;0.0579;0.1015;
1192728261552948;0.1318;0.0558;0.0929;
1192728271657635;0.1425;0.0920;0.0961;
1192728281762323;0.1616;0.1059;0.0929;
1192728291877010;0.1734;0.0782;0.0972;
1192728301981698;0.1595;0.0973;0.1185;
1192728312086385;0.1467;0.1218;0.1611;
1192728322187948;0.1393;0.0707;0.1590;
1192728332292635;0.1137;-0.0071;0.1579;
1192728342397323;0.0956;0.0004;0.1558;
1192728352526385;0.0956;0.0973;0.1537;
1192728362631073;0.1095;0.1506;0.1632;
1192728372735760;0.1116;0.0217;0.1771;
1192728382827896;0.0935;-0.0603;0.1771;
1192728392932583;0.0722;-0.0433;0.1664;
1192728403037271;0.0636;-0.0252;0.1771;
1192728413127427;0.0722;-0.0284;0.2059;
1192728423232114;0.0658;-0.0188;0.2080;
1192728433336802;0.0530;-0.0145;0.1952;
1192728443453364;0.0754;0.0387;0.1888;
1192728453558052;0.0860;0.0547;0.2027;
1192728463662739;0.0913;0.0387;0.1973;
1192728473766489;0.0754;0.0249;0.2091;
1192728483871177;0.0796;-0.0028;0.2282;
1192728493975864;0.0679;-0.0134;0.2495;
1192728504085760;0.0423;-0.0134;0.2634;
1192728514190448;0.0146;0.0249;0.2857;
1192728524295135;0.0040;0.0547;0.2889;
1192728534386906;-0.0035;0.0142;0.3039;
1192728544491594;-0.0301;-0.0049;0.2932;
1192728554596281;-0.0503;0.0281;0.2996;
1192728564699719;-0.0780;0.0398;0.2975;
1192728574804406;-0.0929;0.0100;0.2953;
