Sensor: bmi160 Gyroscope Non-wakeup
Vendor: BOSCH
TimestampGyro [ns]; GyroX [rad/s]; GyroY [rad/s]; GyroZ [rad/s]
4040650658192818;-0.0021;0.0023;0.0212;
4040650668293860;-0.0011;-0.0020;0.0254;
4040650678394850;-0.0053;0.0001;0.0222;
4040650688489120;-0.0053;0.0001;0.0222;
4040650698590162;-0.0043;0.0001;0.0201;
4040650708691100;-0.0064;-0.0009;0.0190;
4040650718788287;-0.0053;0.0001;0.0180;
4040650728901881;-0.0021;0.0001;0.0180;
4040650738985683;-0.0021;-0.0009;0.0180;
4040650749086673;-0.0021;-0.0009;0.0169;
4040650759187662;-0.0021;-0.0009;0.0169;
4040650769288704;-0.0043;-0.0020;0.0169;
4040650779671985;-0.0032;-0.0020;0.0158;
4040650789494120;-0.0032;0.0001;0.0158;
4040650799595110;-0.0021;0.0001;0.0169;
4040650809696100;0.0021;-0.0009;0.0180;
4040650819767193;0.0107;-0.0020;0.0190;
4040650829868183;0.0149;-0.0020;0.0190;
4040650839969225;0.0138;0.0001;0.0190;
4040650850078600;0.0075;0.0001;0.0169;
4040650860179589;-0.0064;0.0023;0.0138;
4040650870280631;-0.0043;0.0044;0.0117;
4040650880395058;-0.0032;0.0044;0.0117;
4040650890496048;-0.0043;0.0044;0.0096;
4040650900597089;-0.0032;0.0023;0.0075;
4040650910675631;-0.0032;0.0012;0.0053;
4040650920776673;-0.0011;0.0001;0.0064;
4040650930907975;-0.0011;0.0001;0.0064;
4040650941009016;-0.0000;0.0023;0.0032;
4040650951110006;-0.0021;0.0033;0.0032;
4040650961210995;-0.0011;0.0033;0.0032;
4040650971299173;-0.0021;0.0033;0.0043;
4040650981400162;-0.0021;0.0012;0.0053;
4040650991501152;-0.0011;0.0001;0.0064;
4040651001616100;-0.0032;0.0033;0.0085;
4040651011717089;-0.0021;0.0033;0.0096;
4040651021818131;-0.0021;0.0033;0.0107;
4040651031873495;-0.0043;0.0023;0.0128;
4040651041974537;-0.0032;0.0023;0.0138;
4040651052075527;-0.0032;0.0012;0.0149;
4040651062215423;-0.0043;0.0023;0.0149;
4040651072316412;-0.0064;0.0023;0.0158;
4040651082417454;-0.0043;0.0033;0.0169;
4040651092514277;-0.0043;0.0023;0.0158;
4040651102615266;-0.0053;0.0012;0.0158;
4040651112716308;-0.0053;0.0012;0.0180;
4040651122811725;-0.0043;0.0012;0.0149;
4040651132912766;-0.0043;0.0012;0.0169;
4040651143013808;-0.0053;0.0033;0.0158;
4040651153124589;-0.0075;0.0023;0.0169;
4040651163225579;-0.0085;0.0012;0.0169;
4040651173326620;-0.0107;0.0033;0.0169;
4040651183425006;-0.0149;0.0012;0.0190;
4040651193525995;-0.0192;0.0012;0.0180;
4040651203627037;-0.0202;0.0012;0.0201;
4040651213728964;-0.0224;0.0012;0.0222;
4040651223829954;-0.0224;0.0023;0.0244;
4040651233930943;-0.0234;0.0023;0.0254;
4040651244023964;-0.0245;0.0012;0.0276;
4040651254125006;-0.0245;0.0023;0.0297;
4040651264225995;-0.0245;0.0012;0.0329;
4040651274352350;-0.0256;0.0012;0.0340;
4040651284453391;-0.0234;0.0023;0.0382;
4040651294554381;-0.0202;-0.0009;0.0403;
4040651304638964;-0.0160;0.0001;0.0414;
4040651314739954;-0.0107;0.0012;0.0435;
4040651324840995;-0.0096;0.0001;0.0457;
4040651334946568;-0.0117;-0.0009;0.0467;
4040651345047558;-0.0107;-0.0020;0.0467;
4040651355148600;-0.0107;-0.0009;0.0457;
4040651365252714;-0.0117;0.0023;0.0467;
4040651375353704;-0.0128;0.0023;0.0489;
4040651385454745;-0.0128;0.0033;0.0478;
4040651395543287;-0.0107;0.0033;0.0489;
4040651405644329;-0.0107;0.0023;0.0499;
4040651415745370;-0.0128;0.0012;0.0499;
4040651425843027;-0.0117;0.0001;0.0499;
4040651435944016;-0.0117;0.0001;0.0478;
4040651446045058;-0.0117;0.0012;0.0478;
4040651456150214;-0.0117;0.0012;0.0499;
4040651466251204;-0.0107;0.0001;0.0510;
4040651476352245;-0.0107;0.0012;0.0510;
4040651486455318;-0.0117;0.0001;0.0510;
4040651496556308;-0.0117;-0.0009;0.0521;
4040651506657350;-0.0117;0.0001;0.0531;
4040651516778183;-0.0128;0.0023;0.0553;
4040651526879173;-0.0138;0.0012;0.0574;
4040651536980214;-0.0149;0.0012;0.0585;
4040651547057923;-0.0149;0.0012;0.0627;
4040651557158912;-0.0149;0.0012;0.0659;
4040651567259954;-0.0149;0.0001;0.0702;
4040651577367089;-0.0181;0.0012;0.0734;
4040651587468079;-0.0192;0.0033;0.0766;
4040651597569120;-0.0213;0.0033;0.0819;
4040651607671933;-0.0213;0.0033;0.0893;
4040651617772923;-0.0234;0.0033;0.0957;
4040651627873912;-0.0245;0.0044;0.1043;
4040651637966308;-0.0288;0.0023;0.1128;
4040651648067350;-0.0298;0.0023;0.1224;
4040651658168339;-0.0309;0.0044;0.1330;
4040651668287610;-0.0341;0.0065;0.1415;
4040651678388600;-0.0383;0.0076;0.1543;
4040651688489589;-0.0426;0.0055;0.1639;
4040651698570995;-0.0447;0.0065;0.1735;
4040651708672037;-0.0469;0.0087;0.1852;
4040651718773027;-0.0511;0.0097;0.1937;
4040651728870162;-0.0533;0.0108;0.2023;
4040651738971204;-0.0533;0.0097;0.2108;
4040651749072245;-0.0554;0.0108;0.2193;
4040651759174745;-0.0597;0.0097;0.2257;
4040651769275787;-0.0607;0.0087;0.2363;
4040651779376829;-0.0618;0.0076;0.2449;
4040651789486464;-0.0618;0.0055;0.2523;
4040651799587506;-0.0628;0.0076;0.2587;
4040651809688495;-0.0639;0.0087;0.2640;
4040651819799537;-0.0660;0.0097;0.2672;
4040651829900527;-0.0671;0.0108;0.2704;
4040651840001516;-0.0682;0.0119;0.2726;
4040651850090058;-0.0682;0.0119;0.2715;
4040651860191048;-0.0703;0.0119;0.2704;
4040651870292089;-0.0682;0.0108;0.2683;
4040651880387975;-0.0660;0.0097;0.2672;
4040651890489016;-0.0650;0.0097;0.2640;
4040651900590006;-0.0639;0.0076;0.2598;
4040651910689225;-0.0628;0.0065;0.2523;
4040651920790266;-0.0586;0.0065;0.2417;
4040651930891308;-0.0565;0.0055;0.2342;
4040651941019120;-0.0533;0.0055;0.2246;
4040651951120162;-0.0522;0.0044;0.2140;
4040651961221204;-0.0511;0.0033;0.2001;
4040651971302975;-0.0490;0.0055;0.1905;
4040651981404016;-0.0447;0.0065;0.1820;
4040651991505058;-0.0426;0.0076;0.1724;
4040652001624537;-0.0405;0.0065;0.1618;
4040652011725579;-0.0373;0.0044;0.1511;
4040652021826620;-0.0352;0.0023;0.1415;
4040652031928860;-0.0320;0.0012;0.1341;
4040652042029902;-0.0309;0.0033;0.1277;
4040652052130943;-0.0309;0.0033;0.1181;
4040652062216881;-0.0309;0.0055;0.1096;
4040652072317923;-0.0266;0.0076;0.1021;
4040652082418964;-0.0245;0.0044;0.0989;
4040652092513548;-0.0224;0.0023;0.0957;
4040652102614537;-0.0213;0.0012;0.0936;
4040652112715579;-0.0224;0.0001;0.0957;
4040652122823131;-0.0245;0.0012;0.0957;
4040652132924173;-0.0245;0.0023;0.0979;
4040652143025214;-0.0245;0.0023;0.1011;
4040652153125475;-0.0277;0.0012;0.1032;
4040652163226568;-0.0266;0.0012;0.1107;
4040652173327610;-0.0277;0.0012;0.1138;
4040652183427870;-0.0298;0.0023;0.1192;
4040652193528964;-0.0309;0.0012;0.1245;
4040652203629954;-0.0309;0.0023;0.1298;
4040652213733495;-0.0320;0.0012;0.1320;
4040652223834537;-0.0330;0.0012;0.1362;
4040652233935579;-0.0352;0.0012;0.1394;
4040652244048860;-0.0341;0.0023;0.1383;
4040652254149902;-0.0362;0.0023;0.1394;
4040652264250943;-0.0373;0.0012;0.1405;
4040652274359433;-0.0373;0.0023;0.1415;
4040652284460475;-0.0362;0.0023;0.1447;
4040652294561516;-0.0383;0.0033;0.1437;
4040652304648964;-0.0394;0.0001;0.1415;
4040652314750006;-0.0415;-0.0031;0.1437;
4040652324851048;-0.0394;-0.0041;0.1373;
4040652334944225;-0.0352;-0.0020;0.1320;
4040652345045266;-0.0341;0.0001;0.1352;
4040652355146308;-0.0330;-0.0009;0.1373;
4040652365245579;-0.0352;0.0001;0.1458;
4040652375346673;-0.0373;0.0044;0.1554;
4040652385447662;-0.0405;0.0044;0.1607;
4040652395543027;-0.0352;0.0044;0.1660;
4040652405644016;-0.0234;0.0065;0.1714;
4040652415745058;-0.0181;0.0065;0.1746;
4040652425834641;-0.0245;0.0065;0.1820;
4040652435935683;-0.0415;0.0065;0.1873;
4040652446036725;-0.0533;0.0065;0.1884;
4040652456160214;-0.0479;0.0076;0.1873;
4040652466261256;-0.0469;0.0065;0.1884;
4040652476362298;-0.0447;0.0044;0.1895;
4040652486465475;-0.0245;0.0033;0.1916;
4040652496566516;0.0256;0.0012;0.1948;
4040652506667558;0.0872;0.0023;0.2012;
4040652516773183;0.0925;0.0108;0.2118;
4040652526874225;-0.0234;0.0246;0.2161;
4040652536975266;-0.0735;0.0225;0.2129;
4040652547090995;-0.0618;0.0076;0.2204;
4040652557192037;-0.0479;0.0001;0.2385;
4040652567293079;-0.0522;0.0033;0.2523;
4040652577378600;-0.0522;0.0076;0.2523;
4040652587479589;-0.0597;0.0097;0.2491;
4040652597580683;-0.0628;0.0044;0.2459;
4040652607671204;-0.0607;-0.0052;0.2395;
4040652617772245;-0.0597;-0.0052;0.2289;
4040652627873339;-0.0597;0.0023;0.2140;
4040652637976204;-0.0543;0.0065;0.2012;
4040652648077245;-0.0469;0.0044;0.1842;
4040652658178287;-0.0415;0.0033;0.1660;
4040652668283495;-0.0394;0.0012;0.1490;
4040652678384537;-0.0373;0.0012;0.1341;
4040652688485631;-0.0330;0.0033;0.1192;
4040652698585214;-0.0266;0.0023;0.1032;
4040652708686204;-0.0224;0.0023;0.0883;
4040652718787245;-0.0234;0.0012;0.0766;
4040652728881516;-0.0213;-0.0009;0.0670;
4040652738982558;-0.0181;-0.0031;0.0617;
4040652749083600;-0.0128;-0.0009;0.0542;
4040652759182089;-0.0096;0.0001;0.0435;
4040652769283131;-0.0085;0.0012;0.0361;
4040652779384120;-0.0064;0.0044;0.0286;
4040652789514485;-0.0011;0.0055;0.0190;
4040652799615527;-0.0000;0.0044;0.0117;
4040652809716568;0.0043;0.0065;0.0011;
4040652819805162;0.0107;0.0055;-0.0053;
4040652829906204;0.0298;0.0055;-0.0160;
4040652840007193;0.0585;0.0033;-0.0213;
4040652850100579;0.0915;0.0001;-0.0224;
4040652860201620;0.1288;-0.0073;-0.0256;
4040652870302662;0.1607;-0.0116;-0.0277;
4040652880422558;0.1746;-0.0126;-0.0298;
4040652890523600;0.1703;-0.0105;-0.0373;
4040652900624641;0.1628;-0.0073;-0.0437;
4040652910712141;0.1447;-0.0041;-0.0479;
4040652920813183;0.1309;-0.0031;-0.0522;
4040652930914225;0.1234;-0.0041;-0.0533;
4040652941029120;0.1149;-0.0041;-0.0543;
4040652951130162;0.1053;-0.0031;-0.0607;
4040652961231204;0.0989;-0.0020;-0.0650;
4040652971321464;0.1043;-0.0020;-0.0660;
4040652981422506;0.1160;-0.0020;-0.0628;
4040652991523600;0.1309;-0.0031;-0.0575;
4040653001642037;0.1543;-0.0052;-0.0511;
4040653011743079;0.1788;-0.0084;-0.0394;
4040653021844120;0.1991;-0.0116;-0.0256;
4040653031942870;0.2129;-0.0137;-0.0149;
4040653042043912;0.2140;-0.0169;-0.0043;
4040653052144954;0.2033;-0.0169;-0.0000;
4040653062229120;0.1852;-0.0137;-0.0011;
4040653072330162;0.1618;-0.0116;-0.0011;
4040653082431256;0.1352;-0.0126;-0.0000;
4040653092528548;0.1075;-0.0126;-0.0000;
4040653102629589;0.0798;-0.0126;-0.0032;
4040653112730683;0.0521;-0.0084;-0.0011;
4040653122834798;0.0266;-0.0052;-0.0011;
4040653132935839;0.0128;-0.0052;-0.0032;
4040653143036933;0.0160;-0.0084;-0.0021;
4040653153139016;0.0308;-0.0073;0.0011;
4040653163240058;0.0435;-0.0041;0.0043;
4040653173341152;0.0435;-0.0020;0.0075;
4040653183446933;0.0245;0.0001;0.0096;
4040653193547975;0.0011;0.0001;0.0096;
4040653203649016;-0.0075;-0.0009;0.0149;
4040653213746308;-0.0043;-0.0009;0.0222;
4040653223847350;-0.0064;0.0023;0.0286;
4040653233948443;-0.0096;0.0044;0.0297;
4040653244050318;-0.0096;0.0023;0.0297;
4040653254151308;-0.0085;0.0001;0.0286;
4040653264252402;-0.0085;0.0012;0.0297;
4040653274370683;-0.0075;0.0012;0.0318;
4040653284471777;-0.0096;-0.0009;0.0329;
4040653294572818;-0.0117;-0.0031;0.0340;
4040653304663652;-0.0085;0.0012;0.0361;
4040653314764693;-0.0075;0.0044;0.0350;
4040653324865735;-0.0075;0.0065;0.0340;
4040653334959954;-0.0107;0.0065;0.0382;
4040653345060995;-0.0117;0.0033;0.0457;
4040653355162089;-0.0117;0.0012;0.0499;
4040653365262923;-0.0138;0.0012;0.0446;
4040653375363964;-0.0128;0.0076;0.0414;
4040653385465006;-0.0107;0.0065;0.0414;
4040653395564745;-0.0096;0.0012;0.0403;
4040653405665839;-0.0117;-0.0041;0.0372;
4040653415766881;-0.0107;-0.0095;0.0329;
4040653425875110;-0.0075;-0.0063;0.0286;
4040653435976152;-0.0043;-0.0009;0.0180;
4040653446077193;-0.0021;-0.0009;0.0085;
4040653456169329;0.0011;-0.0009;0.0064;
4040653466270423;0.0011;-0.0020;0.0096;
4040653476371464;0.0043;0.0012;0.0011;
4040653486473495;0.0021;0.0055;-0.0107;
4040653496574537;0.0043;0.0033;-0.0160;
4040653506675631;0.0064;0.0023;-0.0107;
4040653516787454;0.0043;0.0012;-0.0032;
4040653526888495;0.0011;0.0033;0.0053;
4040653536989589;-0.0011;0.0055;0.0117;
4040653547136412;-0.0032;0.0044;0.0107;
4040653557237454;-0.0032;0.0012;0.0085;
4040653567338495;-0.0021;0.0023;0.0096;
4040653577391048;-0.0011;0.0023;0.0107;
4040653587492037;-0.0043;0.0001;0.0117;
4040653597593131;-0.0053;0.0023;0.0128;
4040653607688912;-0.0053;0.0023;0.0180;
4040653617790006;-0.0085;-0.0009;0.0244;
4040653627891048;-0.0096;-0.0020;0.0265;
4040653637995423;-0.0064;-0.0020;0.0233;
4040653648096412;-0.0043;0.0023;0.0233;
4040653658197506;-0.0032;0.0065;0.0212;
4040653668298548;-0.0021;0.0065;0.0180;
4040653678399589;-0.0011;0.0044;0.0169;
4040653688500683;-0.0000;0.0033;0.0158;
4040653698607714;0.0096;0.0033;0.0128;
4040653708708704;0.0340;0.0033;0.0138;
4040653718809798;0.0403;0.0001;0.0190;
4040653728898183;0.0149;-0.0020;0.0212;
4040653738999225;-0.0085;0.0001;0.0138;
4040653749100318;-0.0043;0.0033;0.0043;
4040653759201985;-0.0000;0.0065;0.0032;
4040653769303027;0.0032;0.0055;0.0085;
4040653779404068;-0.0043;0.0012;0.0096;
4040653789520527;-0.0064;-0.0063;0.0064;
4040653799621568;-0.0075;-0.0095;0.0096;
4040653809722662;-0.0107;-0.0095;0.0169;
4040653819823391;-0.0064;-0.0031;0.0096;
4040653829924433;0.0011;0.0012;-0.0011;
4040653840025475;-0.0021;0.0023;-0.0000;
4040653850108808;0.0021;-0.0031;0.0138;
4040653860209850;0.0011;-0.0095;0.0190;
4040653870310943;-0.0043;-0.0073;0.0107;
4040653880421725;0.0011;0.0012;0.0032;
4040653890522766;0.0064;0.0087;0.0075;
4040653900623808;0.0011;0.0055;0.0169;
4040653910718808;-0.0011;0.0001;0.0149;
4040653920819850;0.0053;0.0023;0.0096;
4040653930920943;0.0096;0.0033;0.0138;
4040653941027454;0.0021;0.0055;0.0212;
4040653951128495;-0.0011;0.0044;0.0222;
4040653961229537;-0.0043;0.0012;0.0149;
4040653971344016;-0.0064;0.0033;0.0180;
4040653981445058;-0.0032;0.0055;0.0308;
4040653991546100;-0.0064;0.0033;0.0361;
4040654001659433;-0.0117;0.0012;0.0329;
4040654011760475;-0.0117;0.0023;0.0340;
4040654021861516;-0.0075;0.0044;0.0361;
4040654031954225;-0.0085;0.0055;0.0414;
4040654042055266;-0.0160;0.0044;0.0446;
4040654052156308;-0.0128;0.0012;0.0446;
4040654062238079;-0.0128;-0.0009;0.0467;
4040654072339120;-0.0107;-0.0009;0.0446;
4040654082440214;-0.0085;0.0033;0.0435;
4040654092547975;-0.0075;0.0055;0.0457;
4040654102649016;0.0011;0.0012;0.0457;
4040654112750058;0.0138;-0.0009;0.0435;
4040654122850475;0.0192;-0.0031;0.0361;
4040654132951516;0.0266;0.0001;0.0244;
4040654143052558;0.0521;0.0033;0.0149;
4040654153154693;0.0776;0.0012;0.0107;
4040654163255683;0.0893;-0.0031;0.0064;
4040654173356725;0.0830;-0.0063;-0.0032;
4040654183460631;0.0680;-0.0052;-0.0149;
4040654193561620;0.0403;-0.0020;-0.0266;
4040654203662714;0.0117;0.0001;-0.0352;
4040654213760058;0.0075;-0.0052;-0.0405;
4040654223861100;0.0107;-0.0105;-0.0447;
4040654233962193;0.0107;-0.0095;-0.0458;
4040654244063079;0.0107;-0.0031;-0.0490;
4040654254164120;0.0085;-0.0020;-0.0501;
4040654264265162;0.0096;-0.0020;-0.0479;
4040654274386412;0.0085;0.0012;-0.0426;
4040654284487454;0.0064;-0.0009;-0.0373;
4040654294588495;0.0064;-0.0031;-0.0277;
4040654304670423;0.0043;-0.0031;-0.0181;
4040654314771464;0.0043;-0.0009;-0.0149;
4040654324872506;0.0032;0.0012;-0.0160;
4040654334978652;0.0053;0.0023;-0.0160;
4040654345079641;0.0085;0.0012;-0.0149;
4040654355180735;0.0075;-0.0020;-0.0149;
4040654365283652;0.0043;-0.0031;-0.0149;
4040654375384641;0.0043;-0.0031;-0.0138;
4040654385485683;0.0085;-0.0052;-0.0149;
4040654395580683;0.0138;-0.0031;-0.0234;
4040654405681725;0.0435;0.0001;-0.0245;
4040654415782766;0.1011;0.0001;-0.0181;
4040654425878600;0.1810;0.0001;-0.0085;
4040654435979641;0.2694;-0.0020;0.0021;
4040654446080683;0.3184;-0.0063;0.0212;
4040654456188131;0.2907;-0.0116;0.0382;
4040654466289173;0.2087;-0.0137;0.0414;
4040654476390214;0.1170;-0.0105;0.0403;
4040654486497298;0.0563;-0.0063;0.0414;
4040654496598339;0.0298;-0.0020;0.0489;
4040654506699381;0.0234;-0.0020;0.0574;
4040654516812975;0.0085;-0.0084;0.0638;
4040654526914016;-0.0266;-0.0095;0.0606;
4040654537015058;-0.0266;-0.0063;0.0585;
4040654547110475;-0.0447;0.0012;0.0574;
4040654557211516;-0.0873;0.0065;0.0531;
4040654567312558;-0.1087;0.0119;0.0350;
4040654577405631;-0.0383;0.0150;0.0233;
4040654587506620;0.0192;0.0119;0.0308;
4040654597607714;0.0224;0.0033;0.0382;
4040654607704277;0.0862;-0.0041;0.0372;
4040654617805318;0.0968;-0.0116;0.0425;
4040654627906360;0.0403;-0.0073;0.0457;
4040654638004537;-0.0053;0.0044;0.0318;
4040654648105579;-0.0043;0.0161;0.0169;
4040654658206620;0.0128;0.0182;0.0201;
4040654668319693;0.0266;0.0076;0.0244;
4040654678420683;0.0340;-0.0031;0.0107;
4040654688521777;0.0245;-0.0084;-0.0096;
4040654698612662;-0.0011;-0.0041;-0.0181;
4040654708713756;0.0043;0.0023;-0.0234;
4040654718814745;0.0085;0.0023;-0.0309;
4040654728913704;0.0075;-0.0031;-0.0373;
4040654739014745;0.0096;-0.0095;-0.0405;
4040654749115839;0.0096;-0.0105;-0.0383;
4040654759217975;0.0107;-0.0095;-0.0415;
4040654769319068;0.0053;-0.0052;-0.0447;
4040654779420058;0.0011;-0.0031;-0.0458;
4040654789538235;-0.0170;-0.0020;-0.0447;
4040654799639277;-0.0192;0.0012;-0.0447;
4040654809740318;-0.0021;0.0023;-0.0352;
4040654819854641;0.0064;0.0012;-0.0192;
4040654829955683;0.0085;-0.0031;-0.0075;
4040654840056673;0.0011;-0.0031;-0.0011;
4040654850135527;-0.0053;-0.0009;0.0096;
4040654860236568;-0.0043;0.0001;0.0286;
4040654870337610;-0.0096;0.0033;0.0446;
4040654880438443;-0.0202;0.0001;0.0553;
4040654890539485;-0.0330;-0.0041;0.0712;
4040654900640527;-0.0842;-0.0052;0.0893;
4040654910760266;-0.1651;-0.0009;0.0957;
4040654920861308;-0.2258;0.0055;0.0904;
4040654930962350;-0.2514;0.0097;0.0893;
4040654941052506;-0.2141;0.0087;0.0936;
4040654951153600;-0.0895;0.0044;0.0957;
4040654961254693;0.0011;-0.0041;0.1011;
4040654971354850;-0.0117;-0.0063;0.0957;
4040654981455891;0.0393;0.0001;0.0776;
4040654991556985;0.0798;0.0023;0.0702;
4040655001653339;0.0617;0.0055;0.0627;
4040655011754433;0.0329;0.0087;0.0361;
4040655021855475;-0.0000;0.0055;0.0043;
4040655031996256;-0.0064;0.0023;-0.0138;
4040655042097298;0.0053;0.0033;-0.0149;
4040655052198391;0.0075;0.0012;-0.0213;
4040655062250162;0.0043;-0.0031;-0.0320;
4040655072351308;0.0085;-0.0041;-0.0394;
4040655082452350;0.0096;-0.0020;-0.0405;
4040655092574902;0.0128;-0.0009;-0.0479;
4040655102675995;0.0085;0.0023;-0.0607;
4040655112777037;0.0085;0.0055;-0.0660;
4040655122873339;0.0170;0.0023;-0.0618;
4040655132974433;0.0234;0.0001;-0.0618;
4040655143075475;0.0213;0.0023;-0.0671;
4040655153174693;0.0234;0.0001;-0.0660;
4040655163275735;0.0288;-0.0009;-0.0586;
4040655173376829;0.0521;-0.0041;-0.0533;
4040655183467350;0.0925;-0.0095;-0.0479;
4040655193568495;0.1213;-0.0105;-0.0405;
4040655203669537;0.1383;-0.0063;-0.0362;
4040655213793756;0.1469;-0.0041;-0.0362;
4040655223894850;0.1405;-0.0063;-0.0362;
4040655233995891;0.0989;-0.0105;-0.0341;
4040655244106204;0.0329;-0.0105;-0.0415;
4040655254207298;-0.0032;-0.0084;-0.0511;
4040655264308339;0.0075;-0.0041;-0.0554;
4040655274376829;0.0128;-0.0031;-0.0554;
4040655284477923;0.0117;-0.0031;-0.0607;
4040655294579016;0.0043;-0.0052;-0.0692;
4040655304702766;-0.0213;-0.0031;-0.0746;
4040655314803860;-0.0533;0.0023;-0.0788;
4040655324904902;-0.0778;0.0055;-0.0852;
4040655335004277;-0.1044;0.0076;-0.0937;
4040655345105370;-0.1257;0.0076;-0.1012;
4040655355206412;-0.1161;0.0076;-0.1087;
4040655365301360;-0.0820;0.0076;-0.1129;
4040655375402454;-0.0330;0.0076;-0.1140;
4040655385503548;0.0149;0.0065;-0.1097;
4040655395613339;0.0329;0.0023;-0.1065;
4040655405714433;0.0298;-0.0031;-0.1076;
4040655415815475;0.0308;-0.0084;-0.1108;
4040655425919016;0.0340;-0.0084;-0.1118;
4040655436020058;0.0403;-0.0126;-0.1118;
4040655446121204;0.0531;-0.0137;-0.1118;
4040655456217610;0.0670;-0.0126;-0.1108;
4040655466318652;0.0563;-0.0095;-0.1097;
4040655476419745;0.0329;-0.0041;-0.1097;
4040655486518235;0.0234;-0.0052;-0.1076;
4040655496619329;0.0245;-0.0073;-0.0948;
4040655506720370;0.0245;-0.0073;-0.0778;
4040655516839225;0.0192;-0.0052;-0.0650;
4040655526940318;0.0149;-0.0020;-0.0554;
4040655537041412;0.0096;-0.0009;-0.0394;
4040655547115162;0.0107;-0.0020;-0.0245;
4040655557216256;0.0085;-0.0041;-0.0181;
4040655567317350;0.0085;-0.0031;-0.0138;
4040655577422610;0.0075;-0.0031;-0.0085;
4040655587523652;0.0021;-0.0041;-0.0075;
4040655597624745;-0.0021;-0.0073;-0.0107;
4040655607729381;-0.0011;-0.0105;-0.0160;
4040655617830475;0.0021;-0.0116;-0.0213;
4040655627931516;0.0032;-0.0116;-0.0256;
4040655638034277;0.0043;-0.0116;-0.0320;
4040655648135370;0.0032;-0.0126;-0.0362;
4040655658236412;-0.0000;-0.0137;-0.0394;
4040655668338443;-0.0256;-0.0137;-0.0447;
4040655678439537;-0.0660;-0.0105;-0.0501;
4040655688540579;-0.1076;-0.0041;-0.0565;
4040655698636829;-0.4165;0.0395;-0.0724;
4040655708737975;-0.9873;0.0907;-0.1182;
4040655718839016;-0.9447;0.0119;-0.1609;
4040655728940579;-0.5294;-0.0510;-0.1342;
4040655739041725;-0.2407;-0.0425;-0.0724;
4040655749142766;-0.0383;-0.0329;-0.0628;
4040655759251256;0.0478;-0.0031;-0.0948;
4040655769352298;0.0032;0.0129;-0.0959;
4040655779453391;0.0096;-0.0084;-0.0639;
4040655789560214;-0.0117;-0.0297;-0.0501;
4040655799661308;-0.0245;-0.0126;-0.0554;
4040655809762350;-0.0085;0.0246;-0.0554;
4040655819869433;0.0266;0.0353;-0.0394;
4040655829970527;0.0288;0.0300;-0.0298;
4040655840071568;0.0170;0.0204;-0.0341;
4040655850143027;0.0053;-0.0009;-0.0394;
4040655860244120;0.0138;-0.0052;-0.0405;
4040655870345214;0.0181;0.0119;-0.0469;
4040655880453600;0.0181;0.0161;-0.0533;
4040655890554693;0.0138;0.0150;-0.0565;
4040655900655787;0.0160;0.0119;-0.0533;
4040655910757714;0.0224;-0.0073;-0.0490;
4040655920858808;0.0340;-0.0095;-0.0511;
4040655930959902;0.0318;0.0023;-0.0501;
4040655941069693;0.0064;0.0023;-0.0415;
4040655951170735;0.0064;0.0023;-0.0352;
4040655961271881;0.0064;0.0044;-0.0309;
4040655971376568;0.0128;-0.0020;-0.0288;
4040655981477610;0.0288;-0.0063;-0.0383;
4040655991578756;0.0808;-0.0116;-0.0490;
4040656001693912;0.2214;-0.0393;-0.0394;
4040656011795006;0.5037;-0.0712;-0.0085;
4040656021896100;0.7731;-0.0531;0.0085;
4040656031970735;0.8487;-0.0031;0.0128;
4040656042071777;0.8082;0.0225;0.0212;
4040656052172923;0.6889;0.0268;0.0318;
4040656062279745;0.3961;0.0087;0.0265;
4040656072380891;0.0277;-0.0233;-0.0043;
4040656082481985;-0.1332;-0.0361;-0.0373;
4040656092593339;-0.0991;-0.0244;-0.0383;
4040656102694433;-0.0075;-0.0041;-0.0213;
4040656112795527;0.0425;0.0097;-0.0181;
4040656122897923;0.0192;0.0012;-0.0330;
4040656132999016;0.0075;-0.0158;-0.0437;
4040656143100110;0.0149;-0.0286;-0.0330;
4040656153205214;0.0691;-0.0265;-0.0224;
4040656163306256;0.1628;-0.0148;-0.0160;
4040656173407402;0.2406;-0.0095;-0.0085;
4040656183508652;0.2853;-0.0084;0.0011;
4040656193609745;0.3301;-0.0031;0.0064;
4040656203710839;0.4057;0.0001;0.0096;
4040656213823756;0.6007;0.0193;0.0053;
4040656223924850;0.6932;0.0182;0.0265;
4040656234025943;0.5399;-0.0329;0.0489;
4040656244116725;0.5016;-0.0510;0.0489;
4040656254217818;0.5197;-0.0553;0.0521;
4040656264318912;0.4984;-0.0563;0.0659;
4040656274427037;0.5090;-0.0329;0.0734;
4040656284528183;0.5282;-0.0095;0.0755;
4040656294629225;0.4718;-0.0084;0.0798;
4040656304715318;0.3546;-0.0126;0.0766;
4040656314816412;0.2395;-0.0158;0.0659;
4040656324917506;0.1447;-0.0180;0.0553;
4040656335021256;0.0680;-0.0190;0.0489;
4040656345122350;0.0192;-0.0073;0.0425;
4040656355223443;-0.0096;0.0012;0.0361;
4040656365324381;-0.0117;0.0033;0.0329;
4040656375425423;-0.0043;0.0076;0.0340;
4040656385526568;-0.0011;0.0097;0.0393;
4040656395621412;0.0032;0.0023;0.0489;
4040656405722558;0.0096;0.0001;0.0542;
4040656415823652;0.0393;0.0044;0.0553;
4040656425938808;0.0872;0.0065;0.0627;
4040656436039902;0.1362;0.0108;0.0723;
4040656446140995;0.1842;0.0150;0.0776;
4040656456223391;0.2076;0.0129;0.0830;
4040656466324537;0.2097;0.0140;0.0936;
4040656476425631;0.2076;0.0172;0.1000;
4040656486540839;0.2033;0.0182;0.1053;
4040656496641881;0.1884;0.0225;0.1117;
4040656506743027;0.1533;0.0300;0.1138;
4040656516836777;0.1043;0.0300;0.1128;
4040656526937870;0.0478;0.0332;0.1043;
4040656537038964;-0.0128;0.0342;0.0947;
4040656547150058;-0.0192;0.0332;0.0915;
4040656557251204;-0.0202;0.0374;0.0893;
4040656567352245;-0.0405;0.0364;0.0872;
4040656577450006;-0.0639;0.0332;0.0904;
4040656587551048;-0.0447;0.0427;0.0915;
4040656597652193;-0.0607;0.0353;0.0989;
4040656607753964;-0.1811;0.0108;0.1043;
4040656617855058;-0.2226;0.0172;0.0872;
4040656627956152;-0.1971;0.0193;0.0755;
4040656638050631;-0.1875;0.0097;0.0766;
4040656648151777;-0.2162;0.0150;0.0776;
4040656658252870;-0.2578;0.0140;0.0670;
4040656668358756;-0.2887;0.0055;0.0531;
4040656678459798;-0.3196;0.0055;0.0372;
4040656688560943;-0.3419;0.0172;0.0233;
4040656698656412;-0.3334;0.0193;0.0117;
4040656708757558;-0.2738;0.0076;0.0085;
4040656718858652;-0.1885;-0.0073;0.0096;
4040656728960162;-0.1097;-0.0126;0.0075;
4040656739061308;-0.0522;-0.0212;0.0064;
4040656749162402;-0.0117;-0.0222;0.0117;
4040656759269693;0.0149;-0.0116;0.0233;
4040656769370787;0.0403;-0.0031;0.0318;
4040656779471881;0.1202;0.0001;0.0340;
4040656789569485;0.2225;0.0044;0.0350;
4040656799670579;0.2896;0.0055;0.0372;
4040656809771673;0.3035;0.0076;0.0340;
4040656819839120;0.2960;0.0076;0.0286;
4040656829940214;0.3088;-0.0041;0.0276;
4040656840041308;0.3652;-0.0233;0.0361;
4040656850174120;0.4419;-0.0403;0.0499;
4040656860275214;0.4995;-0.0446;0.0606;
4040656870376308;0.5197;-0.0372;0.0702;
4040656880478495;0.5591;-0.0265;0.0766;
4040656890579589;0.6294;-0.0180;0.0862;
4040656900680683;0.6783;-0.0105;0.0989;
4040656910803027;0.6932;-0.0095;0.1053;
4040656920904068;0.6932;-0.0222;0.1053;
4040656931005214;0.6655;-0.0329;0.0979;
4040656941097558;0.6316;-0.0361;0.0883;
4040656951198704;0.6453;-0.0318;0.0872;
4040656961299850;0.6634;-0.0222;0.0798;
4040656971412193;0.6602;-0.0126;0.0893;
4040656981513339;0.6326;0.0278;0.0957;
4040656991614485;0.6198;0.0481;0.0904;
4040657001695631;0.5943;0.0150;0.1011;
4040657011796777;0.5229;-0.0009;0.1000;
4040657021897923;0.4973;0.0023;0.0968;
4040657031985943;0.5218;0.0055;0.1085;
4040657042087037;0.5240;0.0087;0.1213;
4040657052188183;0.5037;0.0097;0.1245;
4040657062334745;0.4920;0.0076;0.1234;
4040657072435891;0.4877;-0.0009;0.1234;
4040657082537037;0.4771;-0.0073;0.1234;
4040657092605735;0.4462;0.0012;0.1181;
4040657102706881;0.3876;0.0076;0.1138;
4040657112808027;0.3035;-0.0041;0.0968;
4040657122917298;0.2353;-0.0116;0.0595;
4040657133018443;0.1969;-0.0041;0.0117;
4040657143119589;0.1639;0.0044;-0.0202;
4040657153219173;0.1362;-0.0009;-0.0096;
4040657163320318;0.1096;-0.0126;0.0128;
4040657173421412;0.0798;-0.0158;0.0138;
4040657183540891;0.0627;-0.0137;-0.0064;
4040657193642037;0.0776;-0.0276;-0.0277;
4040657203743183;0.0755;-0.0414;-0.0320;
4040657213821464;0.0776;-0.0382;-0.0213;
4040657223922610;0.1085;-0.0350;-0.0011;
4040657234023756;0.1234;-0.0403;0.0180;
4040657244140995;0.1543;-0.0340;0.0244;
4040657254242141;0.1842;-0.0105;0.0276;
4040657264343287;0.1927;0.0577;0.0318;
4040657274447454;0.2300;0.1599;0.0201;
4040657284548600;0.2917;0.1173;0.0254;
4040657294649745;0.2981;-0.0798;0.0648;
4040657304741516;0.2566;-0.1692;0.0585;
4040657314842662;0.2342;-0.1032;0.0276;
4040657324943808;0.2108;-0.0361;0.0361;
4040657335032714;0.1490;-0.0084;0.0670;
4040657345133912;0.1256;-0.0084;0.0659;
4040657355235058;0.0840;-0.0190;0.0574;
4040657365349902;0.0435;-0.0297;0.0627;
4040657375451048;0.0382;-0.0595;0.0808;
4040657385552141;-0.0181;-0.0617;0.0712;
4040657395647402;-0.1353;-0.0222;0.0180;
4040657405748548;-0.2333;-0.0478;-0.0192;
4040657415849693;-0.2983;-0.0947;-0.0234;
4040657425942975;-0.2791;-0.0840;-0.0224;
4040657436044120;-0.2130;-0.0542;-0.0234;
4040657446145266;-0.1971;-0.0467;-0.0341;
4040657456256360;-0.2024;-0.0457;-0.0543;
4040657466357454;-0.2013;-0.0904;-0.0714;
4040657476458652;-0.1875;-0.1799;-0.0682;
4040657486559693;-0.1513;-0.2246;-0.0639;
4040657496660787;-0.0692;-0.1895;-0.0724;
4040657506761933;-0.0043;-0.1405;-0.0788;
4040657516882350;0.0021;-0.1128;-0.0778;
4040657526983495;0.0011;-0.0670;-0.0863;
4040657537084641;0.0393;-0.0095;-0.1033;
4040657547183287;0.0787;0.0374;-0.1108;
4040657557284433;0.0968;0.0385;-0.1140;
4040657567385579;0.0840;0.0172;-0.1108;
4040657577468600;0.0574;-0.0009;-0.1140;
4040657587569693;0.0318;-0.0574;-0.1087;
4040657597670891;0.0170;-0.1021;-0.0916;
4040657607773443;0.0542;-0.0787;-0.0852;
4040657617874589;0.0925;-0.0617;-0.0788;
4040657627975735;0.1224;-0.0457;-0.0714;
4040657638078964;0.1224;0.0023;-0.0543;
4040657648180110;0.0808;0.0236;-0.0469;
4040657658281204;0.0181;-0.0659;-0.0320;
4040657668379589;-0.0320;-0.1138;-0.0383;
4040657678480735;0.0021;-0.0766;-0.0490;
4040657688581829;0.0808;-0.0414;-0.0341;
4040657698675058;0.0872;-0.0403;-0.0085;
4040657708776204;0.0574;-0.0222;-0.0043;
4040657718877402;0.0787;-0.0212;-0.0053;
4040657728976308;0.1053;-0.0244;-0.0192;
4040657739077506;0.1128;0.0161;-0.0522;
4040657749178600;0.0904;-0.0116;-0.0692;
4040657759302193;0.0744;0.0023;-0.0554;
4040657769400423;0.0893;0.0097;-0.0288;
4040657779501516;0.1192;-0.0403;0.0075;
4040657789602662;0.1479;-0.0499;0.0128;
4040657799686048;0.1884;-0.0435;0.0011;
4040657809787141;0.1873;-0.0126;0.0053;
4040657819888339;0.1501;-0.0382;0.0180;
4040657829990683;0.1224;-0.0329;0.0149;
4040657840091829;0.1053;0.0289;-0.0277;
4040657850192975;0.0744;0.0087;-0.0298;
4040657860278704;0.0128;-0.0286;-0.0170;
4040657870379850;-0.0170;-0.0041;-0.0277;
4040657880480995;-0.0565;-0.0553;-0.0330;
4040657890627193;-0.1055;-0.0904;-0.0405;
4040657900728339;-0.1619;-0.0372;-0.0607;
4040657910829485;-0.2045;-0.0158;-0.0650;
4040657920920475;-0.2365;-0.0105;-0.0682;
4040657931021620;-0.2716;-0.0158;-0.0831;
4040657941122766;-0.3004;0.0001;-0.0916;
4040657951229433;-0.3377;0.0417;-0.0969;
4040657961330579;-0.3462;0.0438;-0.0991;
4040657971431725;-0.3206;0.0097;-0.1023;
4040657981528808;-0.2972;0.0129;-0.1012;
4040657991629954;-0.2834;0.0236;-0.0959;
4040658001731100;-0.2599;0.0012;-0.0565;
4040658011848548;-0.2365;0.0087;-0.0320;
4040658021949641;-0.2077;0.0342;-0.0543;
4040658032050839;-0.1928;0.0204;-0.0799;
4040658042120475;-0.1949;0.0150;-0.0788;
4040658052221620;-0.1811;-0.0148;-0.0597;
4040658062322818;-0.1832;-0.0329;-0.0533;
4040658072431152;-0.1843;0.0268;-0.0863;
4040658082532298;-0.1598;0.0172;-0.1182;
4040658092633443;-0.1513;0.0087;-0.1332;
4040658102737089;-0.1534;0.0310;-0.1353;
4040658112838235;-0.1427;0.0140;-0.1204;
4040658122939329;-0.1513;-0.0009;-0.1438;
4040658133027454;-0.1598;0.0097;-0.2141;
4040658143128652;-0.1619;-0.0659;-0.2269;
4040658153229798;-0.1427;-0.0542;-0.2035;
4040658163337193;-0.0703;0.0268;-0.1971;
4040658173438339;-0.0075;-0.0265;-0.1939;
4040658183539485;0.0160;-0.0702;-0.2024;
4040658193642402;0.1107;-0.0659;-0.2130;
4040658203743548;0.1692;-0.0542;-0.2024;
4040658213844693;0.2161;-0.0308;-0.1672;
4040658223944173;0.3130;-0.0531;-0.1470;
4040658234045318;0.3610;-0.0798;-0.1406;
4040658244146412;0.4238;-0.0691;-0.1523;
4040658254264641;0.4856;-0.0648;-0.1310;
4040658264365787;0.5069;-0.0372;-0.1033;
4040658274466933;0.5197;-0.0702;-0.0831;
4040658284560214;0.4803;-0.1458;-0.0820;
4040658294661308;0.5154;-0.0851;-0.1023;
4040658304762506;0.6070;-0.0563;-0.0937;
4040658314859485;0.6124;-0.1021;-0.0533;
4040658324953600;0.6230;-0.0798;-0.0352;
4040658335054798;0.6399;-0.0734;-0.0277;
4040658345155943;0.6070;-0.0968;-0.0224;
4040658355278548;0.5857;-0.0744;-0.0298;
4040658365379693;0.6485;-0.0297;-0.0170;
4040658375480839;0.6772;-0.0627;0.0286;
4040658385569277;0.6198;-0.1011;0.0734;
4040658395670423;0.6305;-0.0286;0.0659;
4040658405771568;0.6039;-0.0116;0.0372;
4040658415863287;0.5176;-0.0414;0.0308;
4040658425964485;0.4473;-0.0158;0.0499;
4040658436065579;0.4281;-0.0041;0.0691;
4040658446165683;0.3461;-0.0617;0.0915;
4040658456266881;0.2363;-0.0702;0.1000;
4040658466367975;0.2459;0.0012;0.0840;
4040658476475110;0.2640;0.0332;0.0947;
4040658486576256;0.1788;-0.0222;0.1011;
4040658496677402;0.0840;-0.0052;0.0979;
4040658506808600;0.0277;-0.0105;0.1160;
4040658516909693;-0.0075;-0.0148;0.1341;
4040658527010839;-0.0501;0.0172;0.1405;
4040658537087610;-0.0724;-0.0244;0.1501;
4040658547188704;-0.0639;-0.0126;0.1341;
4040658557289902;-0.0266;0.0534;0.1234;
4040658567380475;-0.0980;0.0640;0.1320;
4040658577481673;-0.2748;0.0395;0.1671;
4040658587582818;-0.5262;-0.0403;0.1543;
4040658597695631;-0.6550;-0.0457;0.1128;
4040658607796777;-0.6134;-0.0084;0.1064;
4040658617897923;-0.5081;0.0438;0.1149;
4040658627993964;-0.4772;0.0971;0.1085;
4040658638095110;-0.5656;0.0459;0.0979;
4040658648196204;-0.7146;-0.0393;0.1202;
4040658658297870;-0.6497;-0.0190;0.1341;
4040658668399068;-0.4751;-0.0137;0.1213;
4040658678500162;-0.4485;-0.0126;0.1107;
4040658688599954;-0.4304;0.0012;0.1138;
4040658698701100;-0.3249;0.0491;0.1298;
4040658708802245;-0.2834;0.0321;0.1170;
4040658718904902;-0.2748;0.0097;0.0872;
4040658729005995;-0.2237;0.0225;0.0744;
4040658739107141;-0.1427;0.0470;0.0968;
4040658749203287;-0.1161;0.1088;0.0989;
4040658759304485;-0.1129;0.0577;0.0691;
4040658769405579;-0.0916;-0.0073;0.0776;
4040658779516673;-0.0863;-0.0020;0.1053;
4040658789617818;-0.1225;0.0214;0.0957;
4040658799718964;-0.1619;0.0033;0.0435;
4040658809829954;-0.1917;-0.0382;0.0158;
4040658819931100;-0.2418;0.0129;0.0297;
4040658830032245;-0.2908;0.0268;0.0149;
4040658840112037;-0.3174;-0.0286;-0.0352;
4040658850213183;-0.2429;0.1109;-0.0394;
4040658860314329;-0.1470;0.2887;-0.0330;
4040658870413704;-0.1470;0.0119;0.0085;
4040658880514850;-0.0469;-0.1373;0.0286;
4040658890615995;0.0883;0.0150;0.0297;
4040658900730683;-0.0298;0.0129;0.0499;
4040658910831829;-0.1449;-0.0116;0.0531;
4040658920932975;-0.1033;0.0406;0.0787;
4040658931045318;-0.0565;0.0470;0.0766;
4040658941146412;-0.0341;0.0129;0.0648;
4040658951247558;0.0064;0.0470;0.0489;
4040658961315891;0.0510;0.0545;0.0659;
4040658971417037;0.0467;-0.0393;0.0691;
4040658981518183;0.0563;0.0353;0.0702;
4040658991651308;0.0170;0.0960;0.0702;
4040659001752454;-0.0011;0.0289;0.0574;
4040659011853600;0.0011;0.0044;0.0457;
4040659021946673;-0.0107;0.0150;0.0372;
4040659032047818;-0.0373;0.0065;0.0053;
4040659042148964;-0.0543;-0.0063;-0.0138;
4040659052259433;-0.0873;-0.0126;-0.0266;
4040659062360579;-0.0543;-0.0073;-0.0447;
4040659072461725;0.0149;0.0193;-0.0543;
4040659082554433;0.0340;0.0459;-0.0607;
4040659092655527;0.0382;0.0321;-0.0916;
4040659102756725;0.0403;-0.0233;-0.1055;
4040659112857193;0.0478;-0.0318;-0.1225;
4040659122958339;0.1000;-0.0276;-0.1427;
4040659133059485;0.1959;-0.0435;-0.1236;
4040659143152454;0.3056;-0.0190;-0.0895;
4040659153253652;0.4292;-0.0382;-0.0724;
4040659163354798;0.5218;-0.0435;-0.0586;
4040659173468339;0.5975;0.0268;-0.0320;
4040659183569485;0.6836;0.0726;-0.0277;
4040659193670631;0.7305;0.0172;0.0158;
4040659203769589;0.7582;0.0214;0.0265;
4040659213870735;0.8519;0.0150;0.0222;
4040659223971881;0.9510;-0.0063;0.0510;
4040659234089277;0.9893;0.0044;0.0286;
4040659244190423;0.9574;0.0395;0.0201;
4040659254291568;0.8913;-0.0073;0.0521;
4040659264379902;0.7720;-0.0457;0.0318;
4040659274481048;0.5836;0.0012;-0.0341;
4040659284582193;0.3706;-0.0137;-0.0458;
4040659294657037;0.2310;-0.0808;-0.0543;
4040659304758183;0.1501;-0.1011;-0.1065;
4040659314859329;0.0563;0.0289;-0.1001;
4040659324983548;0.0382;0.0726;-0.0511;
4040659335084693;0.0181;-0.0073;-0.0543;
4040659345185891;-0.0181;-0.0521;-0.1044;
4040659355291464;-0.0053;-0.0201;-0.1193;
4040659365392610;-0.0096;-0.0041;-0.0884;
4040659375493808;-0.0064;-0.0233;-0.1097;
4040659385581985;0.0318;-0.0148;-0.0895;
4040659395683183;0.0298;-0.0712;-0.0692;
4040659405784329;0.0318;-0.0691;-0.0863;
4040659415891777;0.0318;-0.1437;-0.0479;
4040659425992923;0.0883;-0.2406;-0.0192;
4040659436094120;0.1948;-0.1426;-0.0298;
4040659446195006;0.2502;-0.0478;-0.0234;
4040659456296152;0.3620;-0.0691;0.0075;
4040659466397298;0.5367;-0.1064;0.0201;
4040659476496204;0.6220;-0.0095;0.0350;
4040659486597402;0.6166;-0.1554;0.0915;
4040659496698548;0.6570;-0.3194;0.1213;
4040659506799850;0.6772;-0.1756;0.1021;
4040659516900995;0.6092;-0.1490;0.1075;
4040659527002193;0.6889;-0.2555;0.1714;
4040659537109798;0.7347;-0.2204;0.1810;
4040659547210943;0.8104;0.0672;0.1703;
4040659557312141;0.8029;0.2100;0.1671;
4040659567405891;0.7614;0.1631;0.1778;
4040659577507089;0.6326;0.1322;0.2353;
4040659587608235;0.5378;0.0427;0.2864;
4040659597714277;0.5016;-0.0116;0.2715;
4040659607815423;0.3865;0.0395;0.2172;
4040659617916620;0.2491;0.1535;0.1597;
4040659627990370;0.0979;0.1642;0.2097;
4040659638091568;-0.1300;0.0736;0.2193;
4040659648192766;-0.3079;-0.1437;0.1852;
4040659658316725;-0.3995;-0.1266;0.1863;
4040659668417923;-0.4698;-0.0563;0.1479;
4040659678519068;-0.5177;-0.2087;0.1831;
4040659688623860;-0.6284;-0.0680;0.2076;
4040659698725006;-0.6752;0.1258;0.2065;
4040659708826152;-0.6678;0.1546;0.1884;
4040659718925475;-0.7764;0.0640;0.1639;
4040659729026673;-0.8020;0.1024;0.1053;
4040659739127870;-0.7956;0.1525;0.0691;
4040659749222662;-0.9234;-0.0542;0.0702;
4040659759323912;-0.9042;-0.0531;0.0925;
4040659769425058;-0.6944;0.2631;0.0648;
4040659779529693;-0.7200;0.0832;0.0659;
4040659789630839;-0.8190;-0.2108;0.0435;
4040659799732037;-0.5742;-0.0382;-0.0234;
4040659809853339;-0.3409;-0.0499;-0.0543;
4040659819954485;-0.4431;-0.1991;-0.0117;
4040659830055683;-0.5092;-0.1032;0.0510;
4040659840130891;-0.3611;0.0736;0.0702;
4040659850232037;-0.3803;0.1130;0.0648;
4040659860333235;-0.4602;0.0427;0.0680;
4040659870447193;-0.3196;0.0587;0.0947;
4040659880548339;-0.2674;0.2569;0.0968;
4040659890649537;-0.3622;0.2558;0.0734;
4040659900736360;-0.4165;0.0800;0.1053;
4040659910837506;-0.2727;0.0534;0.1533;
4040659920938704;-0.2173;-0.0148;0.1479;
4040659931056464;-0.2674;-0.2300;0.1692;
4040659941157610;-0.1992;-0.2726;0.1607;
4040659951258808;-0.1843;-0.1522;0.1479;
4040659961365735;-0.3632;-0.0627;0.1991;
4040659971466933;-0.5857;-0.0574;0.2406;
4040659981568131;-0.6976;-0.0403;0.2491;
4040659991655475;-0.8648;-0.0233;0.2065;
4040660001756673;-0.9841;-0.0158;0.1437;
4040660011857870;-1.0459;0.0182;0.1288;
4040660021971256;-1.1354;-0.0137;0.1628;
4040660032072402;-1.2876;0.0747;0.1597;
4040660042173600;-1.4399;0.1589;0.1234;
4040660052268964;-1.5209;0.2366;0.0680;
4040660062370110;-1.6679;0.3142;0.0350;
4040660072471308;-1.8275;0.2324;-0.0000;
4040660082577818;-1.8616;0.1397;-0.0469;
4040660092678964;-1.7499;0.0875;-0.0618;
4040660102780162;-1.5933;-0.0286;-0.1012;
4040660112883600;-1.4005;0.0055;-0.1204;
4040660122984745;-1.2397;0.0374;-0.1619;
4040660133085943;-1.0672;0.0651;-0.1470;
4040660143177141;-0.9074;0.1407;-0.1065;
4040660153278339;-0.8222;0.0406;-0.0980;
4040660163379485;-0.6156;0.0055;-0.1236;
4040660173481048;-0.4367;0.1216;-0.1470;
4040660183582193;-0.4346;0.2281;-0.1481;
4040660193683391;-0.4037;0.3324;-0.1395;
4040660203784120;-0.4218;0.3728;-0.1204;
4040660213885318;-0.4889;0.4346;-0.1406;
4040660223986464;-0.5209;0.4229;-0.1651;
4040660234097766;-0.5401;0.3526;-0.1545;
4040660244198912;-0.5667;0.2483;-0.1864;
4040660254300058;-0.6262;0.0523;-0.2333;
4040660264398548;-0.5815;-0.2118;-0.2620;
4040660274499693;-0.3664;-0.2523;-0.2780;
4040660284600839;-0.1672;-0.0286;-0.2695;
4040660294692766;-0.0842;0.2238;-0.2450;
4040660304793912;-0.2258;0.5390;-0.1907;
4040660314895162;-0.5273;0.5859;-0.1640;
4040660325008027;-0.6379;0.2844;-0.1758;
4040660335109225;-0.5529;0.2483;-0.2258;
4040660345210370;-0.4495;0.3611;-0.2557;
4040660355316933;-0.4527;0.3355;-0.2375;
4040660365418131;-0.4719;0.2823;-0.2120;
4040660375519329;-0.4900;0.2036;-0.2280;
4040660385618756;-0.5102;0.0630;-0.2770;
4040660395719954;-0.4453;-0.1128;-0.3068;
4040660405821100;-0.3387;-0.1969;-0.2876;
4040660415915527;-0.1257;-0.1245;-0.2674;
4040660426016673;-0.0597;-0.0904;-0.2237;
4040660436117870;-0.1012;-0.1149;-0.1928;
4040660446219693;-0.0277;0.0193;-0.2216;
4040660456320839;0.0117;-0.0755;-0.2322;
4040660466422037;0.1873;-0.2853;-0.2226;
4040660476522923;0.5112;-0.1660;-0.2674;
4040660486624120;0.7017;0.0683;-0.3142;
4040660496725266;0.7486;0.1248;-0.1832;
4040660506804850;0.8253;0.2302;-0.0628;
4040660516905995;0.7699;0.3196;-0.0256;
4040660527007193;0.5772;0.3814;-0.0298;
4040660537141777;0.4611;0.3121;-0.0895;
4040660547242975;0.4164;0.2281;-0.1310;
4040660557344173;0.3077;0.1716;-0.1321;
4040660567445839;0.2193;0.0385;-0.1459;
4040660577547037;0.1842;-0.0340;-0.1864;
4040660587648183;0.2268;0.0087;-0.2162;
4040660597730891;0.1405;-0.0095;-0.2610;
4040660607832141;0.0819;-0.0574;-0.2269;
4040660617933339;0.0638;-0.0276;-0.1928;
4040660628038391;0.0149;-0.0318;-0.1843;
4040660638139589;0.0446;-0.0105;-0.1491;
4040660648240787;0.1117;0.0832;-0.1363;
4040660658339381;0.1533;0.1535;-0.0927;
4040660668440631;0.1597;0.0800;-0.0597;
4040660678541829;0.2630;0.0662;0.0128;
4040660688644381;0.3280;0.0822;0.0542;
4040660698745579;0.3162;-0.0073;0.0819;
4040660708846777;0.4121;0.0651;0.1479;
4040660718945995;0.4515;0.1365;0.1831;
4040660729047245;0.3610;0.0758;0.2204;
4040660739148391;0.3631;0.1951;0.2246;
4040660749254016;0.3290;0.2068;0.2907;
4040660759355214;0.1011;-0.0095;0.2289;
4040660769456464;0.0435;-0.0158;0.2097;
4040660779554277;-0.0277;-0.0744;0.1927;
4040660789655475;-0.0692;0.0300;0.1746;
4040660799756620;-0.1406;0.0939;0.1394;
4040660809862454;-0.2578;-0.2012;0.1447;
4040660819963652;-0.3622;-0.2406;0.1138;
4040660830064798;-0.3387;-0.1447;0.0808;
4040660840162037;-0.3036;-0.0691;0.0244;
4040660850263235;-0.2620;0.0087;-0.0107;
4040660860364433;-0.2631;-0.0137;-0.0565;
4040660870485891;-0.2589;0.0044;-0.0895;
4040660880587089;-0.2706;0.0545;-0.1523;
4040660890688287;-0.2695;0.0055;-0.1374;
4040660900761516;-0.2461;0.0577;-0.1342;
4040660910862714;-0.2045;0.0545;-0.1683;
4040660920963912;-0.1374;0.0236;-0.1885;
4040660931090370;-0.0511;0.0779;-0.2024;
4040660941191568;0.0499;0.1812;-0.2056;
4040660951292766;0.1756;0.1876;-0.2226;
4040660961404329;0.3248;0.1130;-0.2194;
4040660971505475;0.5570;0.0832;-0.1609;
4040660981606673;0.7529;0.0683;-0.1012;
4040660991672870;0.9297;0.0843;-0.0490;
4040661001774068;1.0756;0.0023;0.0011;
4040661011875318;1.1768;-0.0648;0.0893;
4040661021996464;1.2407;-0.0212;0.1714;
4040661032097662;1.1385;-0.0393;0.1575;
4040661042198860;1.0149;-0.1341;0.1107;
4040661052294277;0.8157;-0.1138;0.1032;
4040661062395475;0.5762;-0.1522;0.0883;
4040661072496673;0.3919;-0.1735;0.1202;
4040661082609798;0.1820;-0.1128;0.0627;
4040661092710995;0.1000;-0.0787;0.0563;
4040661102812193;-0.0426;-0.0595;0.0403;
4040661112910943;-0.1704;-0.0542;0.0553;
4040661123012141;-0.2429;-0.0531;0.0563;
4040661133113339;-0.2961;-0.0531;0.0138;
4040661143209173;-0.3281;-0.0648;0.0032;
4040661153310370;-0.4346;0.0502;-0.0075;
4040661163411568;-0.5049;0.0502;-0.0181;
4040661173512402;-0.5847;0.0140;-0.0501;
4040661183613600;-0.6049;0.0150;-0.0320;
4040661193714798;-0.6667;0.0204;-0.0565;
4040661203815735;-0.7562;0.0736;-0.0724;
4040661213916933;-0.8435;0.0811;-0.1278;
4040661224018131;-0.8893;0.0790;-0.1374;
4040661234101881;-0.9522;0.1120;-0.1640;
4040661244203079;-0.9128;0.0694;-0.1651;
4040661254304277;-0.9000;0.0715;-0.2194;
4040661264438131;-0.7977;0.0609;-0.2333;
4040661274539329;-0.7647;0.0758;-0.2525;
4040661284640527;-0.6806;0.0758;-0.2482;
4040661294738183;-0.6241;0.0129;-0.2780;
4040661304839381;-0.4857;-0.0776;-0.2599;
4040661314940579;-0.3696;-0.0041;-0.2620;
4040661325028652;-0.3441;0.0364;-0.2439;
4040661335129798;-0.3196;0.0236;-0.2493;
4040661345231048;-0.2258;0.0140;-0.2397;
4040661355329589;-0.1481;0.0310;-0.2397;
4040661365430787;-0.0927;0.0672;-0.2067;
4040661375531985;-0.0405;0.0619;-0.2035;
4040661385644902;-0.0064;0.0065;-0.2003;
4040661395746100;0.0403;0.0150;-0.2205;
4040661405847298;0.0160;0.0012;-0.2120;
4040661415936412;-0.0383;-0.0606;-0.2226;
4040661426037662;-0.1012;0.0033;-0.2482;
4040661436138808;-0.1864;-0.0403;-0.2514;
4040661446237923;-0.2599;-0.0755;-0.2695;
4040661456339068;-0.3419;-0.0031;-0.2450;
4040661466440266;-0.3334;0.0044;-0.2578;
4040661476541620;-0.2130;-0.0020;-0.2706;
4040661486642870;-0.1182;0.0364;-0.2802;
4040661496744016;-0.0543;0.0555;-0.2248;
4040661506844068;-0.0330;0.0587;-0.3036;
4040661516945266;0.0160;-0.0510;-0.3931;
4040661527046464;0.1149;-0.0979;-0.3835;
4040661537158860;0.2417;-0.1277;-0.3547;
4040661547260006;0.3727;-0.1128;-0.3153;
4040661557361256;0.4664;-0.0808;-0.2780;
4040661567447870;0.5016;-0.0052;-0.2301;
4040661577549120;0.6188;0.0385;-0.2194;
4040661587650266;0.7390;0.0417;-0.2067;
4040661597767923;0.8423;0.0406;-0.1885;
4040661607869120;0.9680;-0.0009;-0.1332;
4040661617970318;1.0351;-0.0286;-0.0682;
4040661628073808;1.1108;-0.0702;-0.0234;
4040661638175006;1.1236;-0.1011;0.0254;
4040661648276204;1.0192;-0.0979;0.0308;
4040661658365631;0.9457;-0.0979;0.0893;
4040661668466829;0.8189;-0.1011;0.1000;
4040661678567975;0.7252;-0.0830;0.0872;
4040661688663600;0.6410;-0.0840;0.0830;
4040661698764798;0.5261;-0.0350;0.0702;
4040661708865995;0.4675;-0.0158;0.1000;
4040661718963808;0.3770;0.0257;0.0915;
4040661729065058;0.2736;0.0406;0.1064;
4040661739166204;0.1873;0.0193;0.0830;
4040661749278079;0.1522;0.0214;0.0659;
4040661759379277;0.1000;0.0001;0.0574;
4040661769480475;0.0542;0.0044;0.0574;
4040661779589068;0.0213;0.0438;0.0659;
4040661789690266;0.0893;0.0481;0.0308;
4040661799791464;0.1021;0.0001;-0.0437;
4040661809896620;0.1224;-0.0095;-0.0650;
4040661819997818;0.1682;0.0097;-0.0469;
4040661830098964;0.2491;0.0044;-0.0671;
4040661840182350;0.3333;0.0300;-0.0639;
4040661850283548;0.4079;0.0481;-0.0469;
4040661860384745;0.4963;0.0108;-0.0714;
4040661870506829;0.5559;-0.0329;-0.0586;
4040661880608027;0.5666;-0.0627;-0.0458;
4040661890709225;0.5772;-0.0830;-0.0501;
4040661900789016;0.5506;-0.0798;0.0318;
4040661910890266;0.5314;-0.1011;-0.0000;
4040661920991412;0.4909;-0.1107;-0.0277;
4040661931108183;0.4185;-0.0585;-0.0107;
4040661941209381;0.3929;-0.0617;0.0180;
4040661951310579;0.3439;-0.0169;0.0011;
4040661961399641;0.3120;-0.0041;-0.0149;
4040661971500839;0.3088;-0.0126;-0.0170;
4040661981602037;0.3205;0.0683;0.0138;
4040661991704850;0.3344;0.0513;0.0149;
4040662001806048;0.3077;0.0161;0.0117;
4040662011907298;0.2523;-0.0126;0.0021;
4040662022016777;0.2076;-0.0308;0.0403;
4040662032117975;0.2001;0.0012;0.0904;
4040662042219120;0.2417;-0.0340;0.1202;
4040662052307818;0.2246;-0.0435;0.1202;
4040662062409068;0.2214;-0.0276;0.1554;
4040662072510266;0.2193;-0.0244;0.1799;
4040662082616777;0.2310;-0.0084;0.1181;
4040662092717975;0.2459;-0.0020;0.1565;
4040662102819173;0.2619;0.0790;0.1991;
4040662112927298;0.2811;0.0055;0.2118;
4040662123028495;0.2992;-0.0233;0.1842;
4040662133129693;0.2822;-0.0180;0.1479;
4040662143229381;0.2981;-0.0041;0.1948;
4040662153330579;0.3088;0.0321;0.1895;
4040662163431777;0.2928;0.0214;0.1437;
4040662173538860;0.2896;-0.0361;0.1224;
4040662183640058;0.2790;-0.0180;0.1160;
4040662193741256;0.2566;-0.0020;0.1160;
4040662203843235;0.2577;-0.0084;0.1149;
4040662213944433;0.2662;-0.0137;0.0968;
4040662224045631;0.2651;-0.0169;0.1096;
4040662234130370;0.2459;-0.0148;0.1224;
4040662244231620;0.2150;0.0055;0.1107;
4040662254332766;0.1948;0.0438;0.1458;
4040662264463860;0.1458;0.0385;0.1682;
4040662274565058;0.0744;-0.0031;0.1746;
4040662284666256;0.0361;0.0065;0.1873;
4040662294741360;0.0011;0.0417;0.2129;
4040662304842558;-0.0511;0.0449;0.2033;
4040662314943756;-0.1214;0.0033;0.2150;
4040662325065266;-0.1619;0.0300;0.2278;
4040662335166516;-0.1662;0.0214;0.2246;
4040662345267662;-0.2056;-0.0116;0.2118;
4040662355362610;-0.2514;0.0353;0.1959;
4040662365463860;-0.2993;0.0236;0.1607;
4040662375565058;-0.3856;-0.0169;0.1650;
4040662385654485;-0.4453;0.0119;0.1597;
4040662395755735;-0.4538;0.0896;0.1075;
4040662405856985;-0.4921;0.0896;0.0883;
4040662415959641;-0.5401;0.0704;0.0862;
4040662426060891;-0.5305;0.0321;0.0670;
4040662436162141;-0.4517;-0.0180;0.0308;
4040662446258860;-0.3579;0.0236;0.0308;
4040662456360058;-0.3015;0.0289;0.0425;
4040662466461360;-0.2354;0.0033;0.0585;
4040662476571152;-0.1822;0.0182;0.0489;
4040662486672402;-0.1619;-0.0244;0.0446;
4040662496773600;-0.1118;-0.0148;0.0467;
4040662506875891;-0.0597;-0.0148;0.0691;
4040662516977141;-0.0714;-0.0137;0.0595;
4040662527078391;-0.0788;-0.0052;0.0606;
4040662537172975;-0.0703;0.0023;0.0372;
4040662547274225;-0.0501;0.0087;0.0286;
4040662557375475;-0.0298;0.0023;0.0201;
4040662567475475;-0.0128;0.0023;0.0201;
4040662577576725;-0.0362;0.0182;-0.0117;
4040662587677975;-0.0288;0.0236;-0.0117;
4040662597786933;-0.0320;0.0097;-0.0117;
4040662607888183;-0.0426;-0.0286;-0.0213;
4040662617989381;-0.0224;0.0023;-0.0138;
4040662628090475;0.0138;0.0236;-0.0170;
4040662638191725;-0.0053;0.0076;0.0021;
4040662648292975;-0.0266;0.0097;0.0064;
4040662658392298;-0.0405;-0.0340;0.0169;
4040662668493495;-0.1012;-0.0372;0.0053;
4040662678594745;-0.0991;0.0268;-0.0085;
4040662688688704;-0.0810;-0.0169;0.0265;
4040662698789954;-0.1118;-0.0222;0.0158;
4040662708891204;-0.0628;0.0470;-0.0000;
4040662718994120;-0.0202;0.0406;0.0190;
4040662729095370;-0.0075;0.0342;0.0393;
4040662739196620;0.0308;0.0598;0.0254;
4040662749319225;0.0979;0.0491;0.0244;
4040662759420475;0.1298;-0.0276;0.0521;
4040662769521725;0.0925;-0.0414;0.0201;
4040662779592714;0.1107;0.0076;-0.0075;
4040662789693964;0.1671;-0.0265;0.0446;
4040662799795214;0.0936;-0.0265;0.0467;
4040662809906985;0.0467;0.0353;0.0169;
4040662820008287;0.0872;0.0225;0.0531;
4040662830109485;0.1288;-0.0148;0.0734;
4040662840202975;0.1437;-0.0190;0.0574;
4040662850304225;0.0659;-0.0073;0.0755;
4040662860405423;0.0553;0.0033;0.0617;
4040662870536308;0.0787;-0.0276;0.0830;
4040662880637558;0.0372;-0.0009;0.0925;
4040662890738756;0.0308;-0.0318;0.0957;
4040662900835058;0.0043;0.0012;0.0957;
4040662910936308;0.0053;0.0097;0.1202;
4040662921037506;0.0138;-0.0531;0.1320;
4040662931141100;-0.0181;-0.0904;0.0979;
4040662941242350;-0.1715;-0.0020;0.0979;
4040662951343600;-0.2162;0.0225;0.1266;
4040662961419120;-0.1289;-0.0276;0.1149;
4040662971520370;-0.1321;0.0150;0.0883;
4040662981621568;-0.1459;0.0097;0.0595;
4040662991735423;-0.0842;-0.0073;0.0521;
4040663001836620;-0.0628;0.0172;0.0734;
4040663011937870;-0.0842;0.0012;0.0521;
4040663022038652;-0.1310;0.0023;0.0563;
4040663032139902;-0.1182;-0.0393;0.0574;
4040663042241100;-0.1353;-0.0212;0.0372;
4040663052341308;-0.1640;0.0257;0.0308;
4040663062442558;-0.0607;-0.0212;0.0617;
4040663072543756;-0.0117;-0.0329;0.0734;
4040663082644798;-0.0352;-0.0180;0.0542;
4040663092746048;-0.0256;0.0023;0.0297;
4040663102847245;0.0053;-0.0095;0.0435;
4040663112951048;-0.0021;-0.0318;0.0521;
4040663123052298;-0.0043;0.0172;0.0265;
4040663133153495;-0.0128;0.0204;0.0107;
4040663143258339;-0.0192;0.0044;0.0244;
4040663153359589;0.0085;-0.0510;0.0075;
4040663163460787;-0.0032;-0.0585;0.0128;
4040663173559068;-0.0554;-0.0063;-0.0011;
4040663183660318;-0.0437;0.0459;-0.0085;
4040663193761516;-0.0405;0.0214;0.0011;
4040663203866464;-0.0309;-0.0478;-0.0128;
4040663213967714;-0.0639;0.0172;-0.0352;
4040663224068912;-0.0511;0.0204;-0.0032;
4040663234180995;-0.0405;0.0885;0.0201;
4040663244282245;-0.0565;0.1194;0.0117;
4040663254383443;-0.0266;0.0204;0.0043;
4040663264495839;-0.0277;0.0395;0.0021;
4040663274597089;-0.0458;0.0672;0.0075;
4040663284698287;-0.0703;0.0150;-0.0000;
4040663294791256;-0.0873;0.0087;-0.0170;
4040663304892454;-0.0863;-0.0244;-0.0170;
4040663314993704;-0.0831;-0.0297;-0.0202;
4040663325079381;-0.0852;-0.0137;-0.0192;
4040663335180579;-0.0916;-0.0063;-0.0075;
4040663345281777;-0.0735;0.0193;-0.0053;
4040663355393027;-0.0639;0.0214;-0.0149;
4040663365494225;-0.0618;0.0523;-0.0501;
4040663375595475;-0.0831;0.1162;-0.0671;
4040663385659381;-0.0639;0.0545;-0.0447;
4040663395760631;-0.0341;0.0832;-0.0511;
4040663405861829;-0.0309;0.0726;-0.0671;
4040663415987662;-0.0245;-0.0254;-0.0565;
4040663426088912;0.0096;-0.0276;-0.0628;
4040663436190162;0.0457;0.0033;-0.0543;
4040663446292818;0.0403;-0.0180;-0.0415;
4040663456394016;0.0277;-0.0361;-0.0085;
4040663466495266;0.0298;0.0065;0.0096;
4040663476592766;-0.0053;0.0214;-0.0032;
4040663486694016;-0.0192;0.0193;-0.0181;
4040663496795214;-0.0288;0.0417;-0.0383;
4040663506885683;-0.0501;0.0385;-0.0692;
4040663516986881;-0.0511;0.0246;-0.0810;
4040663527088079;-0.0597;0.0417;-0.0799;
4040663537195891;-0.0682;-0.0020;-0.0905;
4040663547297141;-0.0437;-0.0233;-0.0895;
4040663557398391;-0.0383;0.0001;-0.1395;
4040663567507610;-0.0479;-0.0148;-0.1108;
4040663577608808;-0.0405;-0.0553;-0.0916;
4040663587710058;0.0053;-0.0340;-0.0937;
4040663597816048;0.0011;-0.0158;-0.0724;
4040663607917245;0.0043;-0.0222;-0.0948;
4040663618018443;0.0361;0.0395;-0.1012;
4040663628120787;0.0298;0.0609;-0.0884;
4040663638221985;0.0149;-0.0190;-0.0639;
4040663648323183;0.0425;0.0012;-0.0639;
4040663658416100;0.1043;0.0353;-0.0756;
4040663668517350;0.1160;0.0470;-0.0469;
4040663678618548;0.0446;0.0129;-0.0543;
4040663688720735;0.0531;0.0214;-0.0799;
4040663698821933;0.0680;-0.0020;-0.0799;
4040663708923131;0.0808;-0.0361;-0.0799;
4040663719029433;0.1053;-0.0063;-0.0905;
4040663729130631;0.1383;0.0214;-0.0980;
4040663739231829;0.1405;0.0108;-0.1118;
4040663749336100;0.1447;0.0438;-0.0746;
4040663759437350;0.0766;0.0470;-0.0724;
4040663769538548;0.0627;0.0129;-0.0756;
4040663779619798;0.0723;-0.0126;-0.0799;
4040663789720995;0.1011;-0.0403;-0.0820;
4040663799822245;0.1202;0.0438;-0.0671;
4040663809954016;0.0723;0.0470;-0.0692;
4040663820055214;0.0350;-0.0989;-0.0501;
4040663830156412;0.0872;-0.0808;0.0096;
4040663840218391;0.1064;-0.0095;-0.0000;
4040663850319589;0.0627;0.0065;-0.0202;
4040663860420839;0.0288;-0.0446;0.0053;
4040663870564641;0.0160;-0.0372;0.0138;
4040663880665839;-0.0107;0.0033;-0.0128;
4040663890767089;-0.0192;0.0502;-0.0341;
4040663900850839;-0.0107;0.0449;0.0043;
4040663910952037;-0.0469;0.0619;0.0149;
4040663921053235;-0.0895;0.0598;-0.0032;
4040663931156048;-0.0650;-0.0201;-0.0224;
4040663941257298;-0.0607;0.0012;-0.0447;
4040663951358495;-0.0277;-0.0606;-0.0447;
4040663961471829;-0.0362;-0.0499;-0.0575;
4040663971573027;-0.0096;0.0321;-0.0522;
4040663981674225;-0.0607;-0.0670;-0.0234;
4040663991792870;-0.1502;-0.2438;-0.0405;
4040664001894120;0.0266;-0.3003;-0.0501;
4040664011995318;0.2971;-0.2001;-0.0628;
4040664022074016;0.4355;-0.0158;-0.0469;
4040664032175214;0.2790;0.0534;-0.0075;
4040664042276464;0.0627;0.0566;0.0169;
4040664052378860;0.0499;0.0545;0.0265;
4040664062480110;0.0499;0.0832;0.0043;
4040664072581308;0.0170;0.0662;-0.0447;
4040664082691464;0.0149;0.0534;-0.0341;
4040664092792662;0.0032;-0.0052;-0.0383;
4040664102893860;0.0277;-0.0574;-0.0905;
4040664112988131;0.0744;-0.0244;-0.1225;
4040664123089329;0.0766;0.0427;-0.1140;
4040664133190579;0.0361;0.0470;-0.1300;
4040664143285318;0.0138;-0.0041;-0.1427;
4040664153386516;0.0213;0.0246;-0.1513;
4040664163487766;0.0117;0.0108;-0.1534;
4040664173574798;0.0128;-0.0467;-0.1534;
4040664183676048;0.0627;0.0609;-0.1992;
4040664193777298;0.1202;0.2483;-0.2301;
4040664203904589;0.0531;0.1834;-0.2375;
4040664214005787;-0.0202;-0.1320;-0.2013;
4040664224106985;0.1202;-0.2097;-0.1885;
4040664234219120;0.3791;-0.1341;-0.1822;
4040664244320318;0.4941;-0.1437;-0.1182;
4040664254421568;0.4845;-0.1458;-0.0458;
4040664264514381;0.5293;-0.0659;-0.0032;
4040664274615579;0.5794;0.0374;0.0318;
4040664284716829;0.5612;0.0502;0.0467;
4040664294827037;0.5176;0.0289;0.0563;
4040664304928235;0.4952;0.0172;0.0648;
4040664315029485;0.4984;-0.0595;0.1000;
4040664325115110;0.4867;-0.0755;0.1202;
4040664335216360;0.4963;-0.0968;0.1373;
4040664345317558;0.4249;-0.1650;0.1831;
4040664355419485;0.3695;-0.1671;0.1873;
4040664365520735;0.3450;-0.1330;0.1991;
4040664375621985;0.2449;-0.0798;0.1991;
4040664385715423;0.1895;-0.0372;0.2108;
4040664395816725;0.1341;-0.0169;0.2193;
4040664405917975;0.1032;0.0566;0.1799;
4040664416024798;0.1032;0.0832;0.1895;
4040664426125995;0.0202;0.0577;0.2001;
4040664436227298;-0.0277;0.0630;0.1756;
4040664446320423;-0.0128;0.0630;0.1778;
4040664456421673;-0.0767;0.0225;0.1788;
4040664466522923;-0.1214;0.0001;0.1650;
4040664476627298;-0.1609;-0.0499;0.1426;
4040664486728548;-0.2120;-0.0574;0.1415;
4040664496829745;-0.2290;-0.0723;0.1075;
4040664506928756;-0.2099;-0.1330;0.0755;
4040664517030058;-0.1854;-0.1000;0.0723;
4040664527131308;-0.1779;-0.0350;0.0638;
4040664537236881;-0.1683;0.0225;0.0510;
4040664547338079;-0.1768;0.0662;0.0403;
4040664557439329;-0.1651;0.0236;0.0510;
4040664567537975;-0.1545;-0.0201;0.0574;
4040664577639225;-0.0927;-0.0574;0.0670;
4040664587740423;0.0021;-0.0808;0.0574;
4040664597845318;0.1373;-0.0350;0.0872;
4040664607946568;0.2129;0.1205;0.1138;
4040664618047818;0.2417;0.4090;0.1277;
4040664628142714;0.1085;0.5933;0.1330;
4040664638243964;-0.1342;0.4804;0.1639;
4040664648345214;-0.2919;0.2780;0.1543;
4040664658449381;-0.2365;0.2387;0.0819;
4040664668550631;-0.1790;0.1226;-0.0043;
4040664678651881;-0.2429;-0.0659;-0.0522;
4040664688766777;-0.2109;-0.1117;-0.0607;
4040664698868027;-0.1672;-0.1320;-0.0895;
4040664708969225;-0.1630;-0.1639;-0.1087;
4040664719054173;-0.1118;-0.1245;-0.0927;
4040664729155370;-0.0479;-0.0489;-0.0820;
4040664739256620;0.0011;-0.0009;-0.0628;
4040664749385058;-0.0107;0.0875;-0.0597;
4040664759486360;0.0032;0.1802;-0.0682;
4040664769587558;0.0192;0.1961;-0.0309;
4040664779655423;-0.0021;0.1067;-0.0320;
4040664789756673;0.0542;-0.0265;-0.0064;
4040664799857923;0.2055;-0.3439;0.0702;
4040664809973287;0.3706;-0.5057;0.1415;
4040664820074485;0.5101;-0.3843;0.2076;
4040664830175735;0.4569;-0.1341;0.2385;
4040664840252558;0.3248;-0.0659;0.2523;
4040664850353808;0.2747;0.0204;0.2193;
4040664860455058;0.1831;0.0790;0.1628;
4040664870571464;0.1224;0.1322;0.1245;
4040664880672662;0.0691;0.1375;0.0957;
4040664890773964;0.0467;0.0779;0.0893;
4040664900892923;0.0510;-0.0201;0.0840;
4040664910994173;0.0968;-0.0787;0.0734;
4040664921095423;0.1245;-0.0574;0.1011;
4040664931196933;0.1149;-0.0734;0.1053;
4040664941298183;0.1405;-0.1000;0.1117;
4040664951399433;0.1831;-0.0233;0.1330;
4040664961478600;0.1352;-0.0361;0.1373;
4040664971579902;0.1373;-0.0617;0.1415;
4040664981681152;0.1597;-0.0244;0.1575;
4040664991797089;0.1320;0.0438;0.1607;
4040665001898287;0.0659;0.0672;0.1490;
4040665011999589;-0.0021;0.0694;0.1138;
4040665022104120;-0.0490;0.0949;0.0979;
4040665032205423;-0.1193;0.0598;0.1117;
4040665042306673;-0.1651;0.0406;0.1064;
4040665052403027;-0.1992;0.0459;0.1117;
4040665062504277;-0.2535;0.0033;0.0893;
4040665072605527;-0.3068;-0.0617;0.0563;
4040665082712506;-0.2919;-0.0840;0.0691;
4040665092813756;-0.2929;-0.0702;0.0734;
4040665102915006;-0.3089;0.0001;0.0521;
4040665113014589;-0.2897;0.0491;0.0425;
4040665123115839;-0.3142;0.0268;0.0297;
4040665133217089;-0.3036;0.0225;0.0085;
4040665143312089;-0.2280;0.0374;0.0265;
4040665153413339;-0.1832;0.0939;0.0222;
4040665163514589;-0.1811;0.0864;0.0128;
4040665173603912;-0.1459;0.0129;0.0318;
4040665183705214;-0.0426;0.0406;0.0244;
4040665193806464;-0.0234;0.0491;0.0350;
4040665203940006;-0.0181;-0.0212;0.0595;
4040665214041256;0.0181;-0.0414;0.0968;
4040665224142454;0.0670;0.0023;0.0648;
4040665234207245;0.0563;-0.0318;0.0947;
4040665244308495;-0.0213;-0.0403;0.1405;
4040665254409745;-0.0000;-0.0041;0.1224;
4040665264553235;0.0085;0.1099;0.0830;
4040665274654485;-0.0714;0.0321;0.0947;
4040665284755735;-0.1672;-0.0350;0.1277;
4040665294821933;-0.1598;0.0491;0.0915;
4040665304923235;-0.1875;0.0321;0.0957;
4040665315024485;-0.3121;-0.0499;0.1213;
4040665325149589;-0.3750;-0.0276;0.0755;
4040665335250839;-0.3707;0.0619;0.0521;
4040665345352089;-0.4431;0.0907;0.0329;
4040665355459850;-0.5241;0.0129;0.0467;
4040665365561100;-0.6230;-0.0137;0.0244;
4040665375662402;-0.5943;-0.0031;-0.0117;
4040665385734173;-0.5710;0.0108;-0.0277;
4040665395835475;-0.6188;0.0055;-0.0746;
4040665405936725;-0.5953;-0.0691;-0.0831;
4040665416054589;-0.5007;-0.0350;-0.1033;
4040665426155839;-0.4304;0.0694;-0.1449;
4040665436257141;-0.3867;0.0800;-0.1619;
4040665446347923;-0.3569;-0.0073;-0.1417;
4040665456449173;-0.2386;0.0001;-0.1598;
4040665466550475;-0.1225;0.0321;-0.1619;
4040665476658860;-0.0714;0.0364;-0.1566;
4040665486760110;-0.0458;0.0630;-0.1491;
4040665496861360;0.0542;0.0630;-0.1630;
4040665506965318;0.1128;-0.0276;-0.1459;
4040665517066620;0.1298;-0.0318;-0.1065;
4040665527167870;0.2278;-0.0095;-0.1097;
4040665537273548;0.2587;0.0321;-0.1289;
4040665547374798;0.1831;0.0108;-0.0820;
4040665557476100;0.1234;-0.0393;-0.0373;
4040665567582506;0.1107;-0.0105;-0.0682;
4040665577683756;0.1224;0.0278;-0.1001;
4040665587785058;0.0830;-0.0095;-0.0873;
4040665597859120;0.0883;0.0236;-0.0959;
4040665607960423;0.0510;0.0225;-0.0586;
4040665618061725;-0.0160;0.0172;-0.0714;
4040665628182037;-0.0458;0.0385;-0.1065;
4040665638283287;-0.1087;0.0289;-0.0948;
4040665648384589;-0.1566;-0.0126;-0.0959;
4040665658469016;-0.1257;-0.0052;-0.1129;
4040665668570318;-0.1172;0.0332;-0.1204;
4040665678671568;-0.2290;0.0076;-0.1097;
4040665688779589;-0.2706;-0.0233;-0.1172;
4040665698880839;-0.2525;-0.0009;-0.1342;
4040665708982089;-0.3079;-0.0361;-0.1438;
4040665719077298;-0.2514;-0.0393;-0.1449;
4040665729178548;-0.1790;-0.0190;-0.1395;
4040665739279798;-0.1118;-0.0095;-0.1555;
4040665749462141;-0.0660;0.0545;-0.1555;
4040665759563391;-0.0778;0.0651;-0.1118;
4040665769664745;-0.0170;0.0438;-0.1161;
4040665779693548;0.1117;0.0310;-0.1587;
4040665789794798;0.1426;-0.0084;-0.1619;
4040665799896048;0.2182;0.0406;-0.1278;
4040665809999641;0.2225;0.0193;-0.1172;
4040665820100891;0.2949;-0.0286;-0.1129;
4040665830202193;0.3876;0.0023;-0.1012;
4040665840302245;0.3748;-0.0105;-0.0842;
4040665850403495;0.3738;-0.0222;-0.0373;
4040665860504745;0.3642;0.0076;0.0011;
4040665870595631;0.3407;-0.0297;0.0021;
4040665880696881;0.3184;-0.0435;0.0085;
4040665890798183;0.2726;-0.0137;0.0138;
4040665900913131;0.2438;0.0310;0.0265;
4040665911014381;0.2289;0.0033;0.0489;
4040665921115631;0.2182;-0.0190;0.0563;
4040665931224537;0.1490;0.0182;0.0308;
4040665941325839;0.1043;0.0438;0.0382;
4040665951427089;0.0435;-0.0265;0.0542;
4040665961508079;-0.0181;-0.0233;0.0286;
4040665971609381;-0.0479;0.0161;0.0149;
4040665981710631;-0.0373;-0.0063;0.0053;
4040665991816881;-0.0501;-0.0116;0.0075;
4040666001918131;-0.0756;0.0246;-0.0043;
4040666012019433;-0.0692;-0.0063;-0.0170;
4040666022138495;-0.0628;-0.0041;-0.0224;
4040666032239798;-0.0128;-0.0350;-0.0138;
4040666042341100;-0.0192;-0.0510;-0.0224;
4040666052434277;-0.0383;0.0289;-0.0128;
4040666062535527;0.0160;0.0225;-0.0277;
4040666072636829;0.0670;0.0332;-0.0362;
4040666082742610;0.0659;-0.0041;-0.0266;
4040666092843860;0.1107;-0.0041;-0.0032;
4040666102945162;0.1554;0.0278;-0.0064;
4040666113048027;0.1671;0.0108;0.0075;
4040666123149277;0.1852;-0.0201;0.0190;
4040666133250579;0.1628;-0.0435;0.0222;
4040666143343548;0.1383;-0.0233;0.0467;
4040666153444798;0.1181;-0.0137;0.0329;
4040666163546048;0.1107;0.0310;0.0382;
4040666173655735;0.0627;-0.0052;0.0478;
4040666183756985;0.0393;-0.0222;0.0510;
4040666193858287;0.0011;0.0012;0.0286;
4040666203958027;0.0160;0.0033;0.0467;
4040666214059277;-0.0128;0.0023;0.0467;
4040666224160527;-0.0330;-0.0638;0.0403;
4040666234239537;-0.0586;-0.0308;0.0638;
4040666244340839;-0.1044;0.0097;0.0478;
4040666254442089;-0.1118;-0.0286;0.0638;
4040666264582454;-0.0927;-0.0489;0.0075;
4040666274683808;-0.0820;0.0172;0.0117;
4040666284785058;-0.0959;-0.0233;0.0531;
4040666294867141;-0.0895;-0.0212;0.0201;
4040666304968443;-0.1150;0.0449;0.0107;
4040666315069693;-0.0959;0.0172;0.0053;
4040666325171256;-0.0501;-0.0180;0.0117;
4040666335272506;-0.0788;0.0076;-0.0021;
4040666345373756;-0.0852;0.0310;-0.0032;
4040666355479485;-0.0277;-0.0318;-0.0096;
4040666365580735;-0.0138;-0.0862;-0.0011;
4040666375681985;-0.0383;-0.0137;0.0011;
4040666385770839;-0.0362;0.0044;0.0117;
4040666395872089;-0.0160;-0.0180;0.0212;
4040666405973391;0.0043;0.0246;-0.0117;
4040666416065370;0.0170;0.0374;-0.0032;
4040666426166673;0.0553;-0.0095;-0.0256;
4040666436267923;0.0755;-0.0116;-0.0170;
4040666446369225;0.0617;0.0044;0.0169;
4040666456470527;0.0510;0.0300;0.0085;
4040666466571777;0.0702;-0.0009;0.0190;
4040666476680110;0.0457;0.0204;0.0075;
4040666486781360;0.0245;0.0545;0.0107;
4040666496882610;0.0361;-0.0095;0.0382;
4040666506978391;0.0117;-0.0414;0.0233;
4040666517079693;-0.0341;-0.0254;0.0075;
4040666527180943;-0.0565;0.0129;-0.0138;
4040666537293027;-0.0735;0.0395;-0.0053;
4040666547394225;-0.1118;0.0278;0.0075;
4040666557495527;-0.1225;0.0885;0.0085;
4040666567598235;-0.1662;0.0204;-0.0138;
4040666577699485;-0.1417;-0.0190;-0.0469;
4040666587800735;-0.1577;0.0577;-0.0682;
4040666597892870;-0.1566;0.0332;-0.0575;
4040666607994173;-0.1246;0.0193;-0.0383;
4040666618095423;-0.1459;0.0055;-0.0447;
4040666628183860;-0.1044;0.0108;-0.0735;
4040666638285110;-0.0991;0.0150;-0.0895;
4040666648386360;-0.1001;0.0204;-0.0873;
4040666658500995;-0.0714;-0.0308;-0.0511;
4040666668602298;-0.0842;-0.0265;-0.0639;
4040666678703548;-0.0511;0.0182;-0.0746;
4040666688799433;0.0021;-0.0254;-0.0756;
4040666698900735;0.0457;-0.0308;-0.0671;
4040666709001985;0.0702;-0.0190;-0.0394;
4040666719103912;0.1160;-0.0297;-0.0330;
4040666729205214;0.1415;0.0119;-0.0330;
4040666739306464;0.1447;0.0374;-0.0458;
4040666749474329;0.1948;0.0214;-0.0458;
4040666759575631;0.1863;-0.0180;-0.0181;
4040666769676881;0.1511;-0.0531;-0.0021;
4040666779708860;0.1437;0.0289;-0.0032;
4040666789810110;0.1138;-0.0009;-0.0075;
4040666799911360;0.1075;-0.0158;-0.0032;
4040666810054329;0.0957;-0.0222;0.0169;
4040666820155579;0.0617;-0.0787;0.0190;
4040666830256881;0.0553;0.0150;0.0117;
4040666840342141;0.0011;0.0236;0.0021;
4040666850443391;0.0553;-0.0478;0.0053;
4040666860544641;0.0256;0.0012;0.0180;
4040666870631360;0.0149;0.0140;0.0117;
4040666880732610;0.0574;0.0523;0.0169;
4040666890833860;0.0553;0.0257;0.0169;
4040666900935943;0.0659;-0.0073;0.0075;
4040666911037141;0.0585;0.0204;0.0011;
4040666921138443;0.0499;-0.0009;0.0297;
4040666931250370;0.0085;0.0129;0.0318;
4040666941351620;-0.0021;0.0406;-0.0011;
4040666951452870;-0.0096;0.0065;-0.0107;
4040666961516204;-0.0330;-0.0222;0.0096;
4040666971617454;-0.0511;-0.0201;0.0180;
4040666981718704;-0.0543;0.0097;-0.0000;
4040666991844225;-0.0447;0.0278;-0.0373;
4040667001945527;0.0032;0.0182;-0.0096;
4040667012046777;-0.0107;0.0172;0.0128;
4040667022160006;0.0308;0.0427;0.0043;
4040667032261256;0.0510;-0.0041;0.0138;
4040667042362506;0.0819;-0.0734;-0.0138;
4040667052452558;0.1149;-0.0265;-0.0320;
4040667062553860;0.1458;0.0182;0.0169;
4040667072655110;0.1256;0.0033;0.0393;
4040667082767089;0.1479;0.0321;-0.0085;
4040667092868339;0.1703;0.0225;0.0190;
4040667102969589;0.1170;-0.0052;0.0382;
4040667113069485;0.0936;-0.0297;0.0297;
4040667123170735;0.0734;0.0246;0.0276;
4040667133271985;0.0702;-0.0052;0.0499;
4040667143368548;0.0542;-0.0254;0.0467;
4040667153469798;0.0489;0.0182;0.0457;
4040667163571048;0.0457;0.0033;0.0659;
4040667173675631;0.0414;0.0012;0.0382;
4040667183776881;0.0435;-0.0308;0.0467;
4040667193878131;-0.0032;-0.0116;0.0542;
4040667203985839;-0.0053;0.0076;0.0222;
4040667214087089;0.0032;-0.0052;0.0021;
4040667224188339;-0.0117;-0.0169;0.0329;
4040667234295475;-0.0362;0.0566;0.0435;
4040667244396725;-0.0266;0.0609;0.0372;
4040667254497975;-0.0373;0.0662;0.0372;
4040667264605527;-0.0522;-0.0052;0.0435;
4040667274706777;-0.0543;-0.0148;0.0117;
4040667284808027;-0.0575;0.0214;0.0053;
4040667294884329;-0.0671;0.0065;0.0032;
4040667304985631;-0.0607;-0.0585;0.0180;
4040667315086881;-0.0554;-0.0350;0.0053;
4040667325188756;-0.0511;-0.0286;0.0032;
4040667335290006;-0.0288;-0.0095;0.0128;
4040667345391204;-0.0341;0.0502;-0.0064;
4040667355504381;-0.0234;0.0534;-0.0096;
4040667365605631;-0.0309;0.0353;0.0043;
4040667375706881;-0.0394;0.0342;0.0233;
4040667385765110;-0.0533;0.0353;0.0149;
4040667395866412;-0.0415;0.0033;0.0158;
4040667405967610;-0.0660;-0.0435;0.0011;
4040667416101256;-0.0383;-0.0478;-0.0192;
4040667426202506;-0.0085;0.0001;-0.0138;
4040667436303704;-0.0245;-0.0095;0.0128;
4040667446402610;-0.0021;-0.0340;-0.0085;
4040667456503860;0.0318;-0.0180;-0.0000;
4040667466605058;-0.0011;0.0374;0.0117;
4040667476705943;0.0202;-0.0158;0.0138;
4040667486807193;0.0340;0.0129;-0.0245;
4040667496908443;0.0382;0.0087;-0.0170;
4040667507008548;0.0521;-0.0414;0.0021;
4040667517109798;0.0457;-0.0414;0.0075;
4040667527211048;0.0489;0.0076;0.0180;
4040667537318756;0.0361;0.0065;0.0180;
4040667547419954;0.0595;-0.0361;0.0117;
4040667557521256;0.0521;-0.0329;0.0265;
4040667567613183;0.0160;0.0012;0.0128;
4040667577714485;0.0170;-0.0276;0.0212;
4040667587815683;0.0149;-0.0158;0.0128;
4040667597922923;-0.0128;0.0150;-0.0117;
4040667608024173;-0.0192;-0.0095;-0.0117;
4040667618125423;-0.0149;-0.0702;0.0180;
4040667628251829;-0.0128;-0.0265;-0.0085;
4040667638353079;-0.0032;0.0374;-0.0138;
4040667648454329;-0.0181;0.0033;0.0180;
4040667658526100;-0.0064;-0.0052;-0.0170;
4040667668627350;0.0138;0.0119;-0.0085;
4040667678728600;-0.0096;0.0097;0.0244;
4040667688834225;-0.0096;0.0364;-0.0011;
4040667698935475;0.0085;0.0129;0.0117;
4040667709036777;-0.0032;-0.0041;0.0158;
4040667719134277;-0.0107;0.0268;-0.0266;
4040667729235475;0.0202;-0.0095;-0.0085;
4040667739336725;0.0149;-0.0169;0.0138;
4040667749485370;0.0053;0.0108;0.0107;
4040667759586620;0.0298;-0.0350;0.0128;
4040667769687870;0.0340;0.0129;0.0403;
4040667779741620;0.0329;0.0278;0.0372;
4040667789842923;0.0403;-0.0361;0.0467;
4040667799944173;0.0340;-0.0361;0.0457;
4040667810092402;0.0160;-0.0180;0.0169;
4040667820193652;0.0277;0.0140;0.0372;
4040667830294902;-0.0075;0.0257;0.0414;
4040667840350110;0.0128;-0.0553;0.0723;
4040667850451360;0.0064;-0.0819;0.0648;
4040667860552610;-0.0096;0.0055;0.0435;
4040667870669902;-0.0149;-0.0009;0.0446;
4040667880771100;-0.0192;-0.0638;0.0595;
4040667890872350;-0.0501;0.0001;0.0446;
4040667900961933;-0.0628;-0.0031;0.0233;
4040667911063183;-0.0628;-0.0340;0.0403;
4040667921164433;-0.0948;-0.0031;0.0467;
4040667931281100;-0.0831;-0.0222;0.0350;
4040667941382350;-0.0607;-0.0052;0.0478;
4040667951483600;-0.1108;0.0225;0.0531;
4040667961571725;-0.0799;0.0087;0.0297;
4040667971672975;-0.0799;0.0321;0.0138;
4040667981774225;-0.0991;-0.0105;0.0382;
4040667991885943;-0.1023;-0.0180;0.0043;
4040668001987193;-0.1055;0.0481;-0.0138;
4040668012088443;-0.1332;0.0790;-0.0192;
4040668022179277;-0.1033;0.0385;-0.0266;
4040668032280527;-0.1108;0.0065;-0.0149;
4040668042381777;-0.1161;-0.0169;-0.0234;
4040668052481412;-0.1044;0.0119;-0.0586;
4040668062582714;-0.0607;-0.0052;-0.0490;
4040668072683964;-0.0533;-0.0627;-0.0341;
4040668082788860;-0.0256;-0.0126;-0.0383;
4040668092890110;-0.0160;0.0630;-0.0682;
4040668102991360;0.0043;0.0023;-0.0245;
4040668113092298;-0.0202;0.0342;-0.0288;
4040668123193548;-0.0224;0.0662;-0.0383;
4040668133294798;-0.0373;-0.0116;-0.0330;
4040668143394329;-0.0373;0.0236;-0.0639;
4040668153495631;-0.0330;0.0417;-0.0671;
4040668163596881;-0.0245;-0.0222;-0.0565;
4040668173704589;-0.0000;-0.0425;-0.0501;
4040668183805839;0.0032;-0.0350;-0.0458;
4040668193907089;0.0170;0.0161;-0.0618;
4040668204005214;0.0224;0.0108;-0.0554;
4040668214106464;0.0096;-0.0372;-0.0447;
4040668224207714;0.0128;0.0161;-0.0362;
4040668234326933;0.0117;0.0459;-0.0660;
4040668244428183;0.0160;-0.0318;-0.0288;
4040668254529433;0.0160;-0.0350;-0.0192;
4040668264617089;0.0361;0.0236;-0.0469;
4040668274718287;0.0403;-0.0031;-0.0181;
4040668284819589;0.0467;-0.0382;-0.0138;
4040668294914537;0.0702;-0.0031;-0.0394;
4040668305015787;0.0830;0.0108;-0.0330;
4040668315117037;0.0862;0.0182;-0.0256;
4040668325220423;0.0893;0.0055;-0.0128;
4040668335321673;0.0734;0.0012;-0.0064;
4040668345422923;0.0734;-0.0137;0.0107;
4040668355526100;0.0499;-0.0318;-0.0064;
4040668365627350;0.0872;-0.0574;-0.0128;
4040668375728600;0.0755;-0.0041;0.0212;
4040668385816152;0.0510;-0.0212;0.0308;
4040668395917402;0.0553;-0.0265;0.0190;
4040668406018652;0.0372;0.0587;0.0149;
4040668416126725;0.0361;0.0150;0.0297;
4040668426228027;0.0288;-0.0063;0.0265;
4040668436329277;0.0160;0.0300;0.0201;
4040668446432558;0.0064;0.0268;-0.0021;
4040668456533860;0.0266;0.0268;-0.0043;
4040668466635110;0.0043;0.0321;-0.0181;
4040668476734381;0.0021;0.0033;-0.0149;
4040668486835683;0.0064;-0.0350;0.0032;
4040668496936881;-0.0032;-0.0819;0.0043;
4040668507053339;0.0064;-0.0851;0.0053;
4040668517154589;0.0202;-0.0052;0.0117;
4040668527255839;-0.0000;0.0395;-0.0032;
4040668537346516;0.0318;-0.0148;0.0286;
4040668547447766;-0.0021;0.0278;0.0308;
4040668557549016;0.0085;0.0694;-0.0224;
4040668567651464;0.0414;0.0246;0.0032;
4040668577752714;0.0298;0.0715;0.0265;
4040668587853964;0.0361;0.0822;0.0190;
4040668597955266;0.0680;0.0470;0.0085;
4040668608056516;0.0510;0.0395;0.0064;
4040668618157766;0.0585;-0.0382;-0.0138;
4040668628265162;0.0830;-0.0361;-0.0085;
4040668638366412;0.0712;-0.0020;-0.0043;
4040668648467662;0.0734;-0.0233;0.0021;
4040668658553391;0.0925;0.0012;-0.0181;
4040668668654693;0.1043;-0.0190;0.0212;
4040668678755943;0.0830;-0.0116;0.0201;
4040668688856829;0.0979;0.0449;-0.0021;
4040668698958131;0.1021;0.0374;0.0085;
4040668709059381;0.0883;-0.0095;0.0446;
4040668719168391;0.0574;0.0129;0.0574;
4040668729269641;0.0712;0.0172;0.0201;
4040668739370943;0.0712;0.0076;0.0149;
4040668749473548;0.0627;0.0278;0.0149;
4040668759574798;0.0585;0.0385;0.0201;
4040668769676048;0.0499;-0.0254;0.0435;
4040668779776412;0.0435;-0.0372;0.0096;
4040668789877714;0.0435;-0.0116;-0.0053;
4040668799978964;0.0489;-0.0212;0.0085;
4040668810115370;0.0595;-0.0158;0.0350;
4040668820216673;0.0414;-0.0105;0.0595;
4040668830317923;0.0403;-0.0190;0.0766;
4040668840373183;0.0372;-0.0095;0.0372;
4040668850474433;0.0446;-0.0201;0.0425;
4040668860575683;0.0181;0.0087;0.0830;
4040668870678495;-0.0138;0.0246;0.0659;
4040668880779798;0.0043;-0.0084;0.0531;
4040668890881048;-0.0309;0.0119;0.0755;
4040668900992818;-0.0565;0.0065;0.0734;
4040668911094068;-0.0458;-0.0329;0.0478;
4040668921195318;-0.0320;-0.0276;0.0521;
4040668931308287;-0.0799;0.0023;0.0659;
4040668941409537;-0.0607;-0.0329;0.0403;
4040668951510787;-0.0352;-0.0180;0.0680;
4040668961625058;-0.0788;-0.0020;0.0862;
4040668971726308;-0.0778;-0.0254;0.0936;
4040668981827610;-0.0756;-0.0084;0.0542;
4040668991905266;-0.0703;-0.0435;0.0808;
4040669002006516;-0.1044;-0.0553;0.1000;
4040669012107766;-0.0884;-0.0318;0.0915;
4040669022216360;-0.0746;-0.0148;0.0819;
4040669032317610;-0.0884;-0.0169;0.0957;
4040669042418860;-0.1065;0.0268;0.0798;
4040669052507662;-0.1225;-0.0020;0.0563;
4040669062608964;-0.1300;-0.0478;0.0648;
4040669072710214;-0.1822;-0.0212;0.0499;
4040669082834068;-0.1779;-0.0063;0.0138;
4040669092935318;-0.1822;-0.0031;0.0350;
4040669103036568;-0.2141;-0.0095;0.0318;
4040669113125110;-0.1917;-0.0105;0.0318;
4040669123226360;-0.2173;0.0417;0.0117;
4040669133327610;-0.2035;-0.0212;0.0011;
4040669143424381;-0.1800;0.0172;-0.0352;
4040669153525631;-0.1875;0.0534;-0.0245;
4040669163626881;-0.1800;-0.0041;-0.0309;
4040669173731516;-0.1395;0.0161;-0.0692;
4040669183832766;-0.1459;0.0662;-0.0607;
4040669193934016;-0.1438;-0.0137;-0.0682;
4040669204036881;-0.1214;-0.0372;-0.0628;
4040669214138131;-0.1321;-0.0137;-0.0820;
4040669224239381;-0.0788;-0.0244;-0.0863;
4040669234355162;-0.0682;-0.0180;-0.0916;
4040669244456412;-0.0192;-0.0318;-0.0703;
4040669254557662;0.0011;0.0353;-0.0447;
4040669264661464;0.0318;0.0268;-0.0330;
4040669274762714;0.0808;-0.0318;-0.0458;
4040669284863964;0.1107;0.0353;-0.0660;
4040669294938912;0.1266;0.0662;-0.0352;
4040669305040214;0.1181;0.0055;-0.0234;
4040669315141464;0.1362;-0.0084;-0.0011;
4040669325247350;0.1021;0.0204;-0.0096;
4040669335348652;0.1096;-0.0276;-0.0117;
4040669345449902;0.0830;-0.0318;-0.0000;
4040669355552089;0.0277;-0.0116;-0.0149;
4040669365653339;0.0435;-0.0031;-0.0330;
4040669375754641;0.0329;-0.0169;-0.0053;
4040669385846308;-0.0085;-0.0435;0.0297;
4040669395947610;-0.0032;-0.0009;-0.0170;
4040669406048860;-0.0053;0.0502;0.0138;
4040669416167089;-0.0543;0.0065;0.0053;
4040669426268339;-0.0405;0.0332;-0.0011;
4040669436369641;-0.0714;0.0374;-0.0107;
4040669446463860;-0.0682;-0.0126;0.0032;
4040669456565110;-0.1055;0.0449;-0.0288;
4040669466666360;-0.1076;0.0864;-0.0522;
4040669476772714;-0.1161;0.0427;-0.0437;
4040669486873964;-0.1470;-0.0148;-0.0628;
4040669496975266;-0.1140;-0.0435;-0.0735;
4040669507074485;-0.1065;0.0214;-0.0703;
4040669517175787;-0.0820;0.0342;-0.0437;
4040669527277037;-0.0479;0.0023;-0.0394;
4040669537379693;-0.0298;0.0225;-0.0490;
4040669547480943;0.0192;-0.0372;-0.0320;
4040669557582245;0.0446;-0.0382;-0.0181;
4040669567686152;0.0510;0.0342;-0.0202;
4040669577787402;0.0957;0.0406;-0.0085;
4040669587888652;0.1234;0.0342;-0.0192;
4040669597979173;0.1352;0.0427;-0.0011;
4040669608080475;0.1043;0.0481;0.0064;
4040669618181777;0.1117;0.0406;-0.0011;
4040669628302662;0.0755;-0.0105;0.0064;
4040669638403912;0.0414;-0.0063;0.0096;
4040669648505162;0.0277;-0.0084;-0.0064;
4040669658584850;0.0202;-0.0350;0.0032;
4040669668686152;-0.0181;-0.0180;0.0297;
4040669678787402;-0.0618;0.0236;0.0064;
4040669688896673;-0.0522;-0.0169;0.0085;
4040669698997923;-0.0831;-0.0052;0.0149;
4040669709099173;-0.1097;0.0502;-0.0085;
4040669719197454;-0.1257;-0.0020;-0.0085;
4040669729298704;-0.1236;-0.0286;-0.0394;
4040669739400006;-0.1140;-0.0244;-0.0586;
4040669749485006;-0.1140;0.0182;-0.0618;
4040669759586308;-0.1140;0.0033;-0.0714;
4040669769687558;-0.1044;-0.0180;-0.0895;
4040669779819173;-0.0692;0.0150;-0.0756;
4040669789920423;-0.0788;0.0076;-0.0873;
4040669800021725;-0.0479;0.0257;-0.0863;
4040669810096204;-0.0181;0.0449;-0.0714;
4040669820197454;-0.0160;-0.0009;-0.0788;
4040669830298756;-0.0128;-0.0063;-0.0597;
4040669840405162;-0.0213;-0.0116;-0.0905;
4040669850506464;0.0213;-0.0095;-0.0873;
4040669860607714;0.0085;-0.0297;-0.0778;
4040669870711568;0.0361;0.0395;-0.0863;
4040669880812818;0.0298;0.0822;-0.0948;
4040669890914120;0.0318;0.0332;-0.0884;
4040669901039537;0.0680;-0.0254;-0.0895;
4040669911140839;0.0883;-0.0063;-0.0980;
4040669921242089;0.0862;0.0140;-0.0810;
4040669931338808;0.1096;-0.0095;-0.0703;
4040669941440110;0.1170;0.0214;-0.0618;
4040669951541360;0.1128;0.0332;-0.0309;
4040669961645527;0.0904;-0.0009;-0.0117;
4040669971746777;0.0723;0.0268;-0.0224;
4040669981848079;0.0712;0.0310;-0.0373;
4040669991934902;0.0414;0.0310;-0.0330;
4040670002036152;0.0329;0.0225;-0.0298;
4040670012137454;0.0160;-0.0084;-0.0437;
4040670022248964;0.0160;-0.0361;-0.0575;
4040670032350214;0.0224;-0.0020;-0.0788;
4040670042451516;0.0245;-0.0478;-0.0543;
4040670052565006;0.0266;-0.0723;-0.0511;
4040670062666256;0.0181;-0.1352;-0.0383;
4040670072767558;0.0245;-0.1991;-0.0522;
4040670082851777;0.0308;-0.1213;-0.0735;
4040670092953079;0.0308;-0.0989;-0.0565;
4040670103054329;0.0256;-0.1298;-0.0309;
4040670113153027;0.0149;-0.0862;-0.0383;
4040670123254277;0.0107;-0.1096;-0.0288;
4040670133355579;-0.0011;-0.0457;-0.0586;
4040670143460839;0.0064;0.0087;-0.0639;
4040670153562089;-0.0000;-0.0244;-0.0533;
4040670163663391;0.0064;0.0001;-0.0810;
4040670173762714;0.0075;0.0076;-0.0842;
4040670183863964;0.0318;-0.0031;-0.0969;
4040670193965266;0.0350;0.0225;-0.1044;
4040670204061256;0.0318;0.0268;-0.1246;
4040670214162506;0.0403;0.0214;-0.1385;
4040670224263808;0.0446;0.0747;-0.1427;
4040670234382870;0.0627;0.0108;-0.1321;
4040670244484120;0.0904;-0.0872;-0.1214;
4040670254585423;0.1330;-0.0180;-0.1289;
4040670264658704;0.1767;-0.0041;-0.1225;
4040670274760006;0.2438;-0.0521;-0.0842;
4040670284861256;0.2822;0.0204;-0.0831;
4040670294997610;0.3194;0.0523;-0.0767;
4040670305098912;0.3386;0.0577;-0.0586;
4040670315200162;0.3631;0.0555;-0.0533;
4040670325274745;0.3738;0.0555;-0.0288;
4040670335376048;0.3301;0.0513;0.0180;
4040670345477298;0.3024;-0.0009;0.0254;
4040670355580631;0.2736;0.0129;0.0107;
4040670365681881;0.2076;0.0236;0.0297;
4040670375783131;0.1724;-0.0244;0.0457;
4040670385884641;0.1490;-0.0063;0.0085;
4040670395985943;0.1320;0.0374;0.0435;
4040670406087193;0.1117;0.0630;0.0414;
4040670416186204;0.1266;0.0619;0.0297;
4040670426287506;0.1107;0.0534;0.0138;
4040670436388756;0.1213;0.0076;0.0265;
4040670446487245;0.1096;0.0076;0.0190;
4040670456588548;0.1043;0.0523;0.0149;
4040670466689798;0.1128;-0.0063;0.0064;
4040670476794433;0.1170;-0.0361;0.0308;
4040670486895735;0.0979;0.0300;0.0075;
4040670496996985;0.1107;0.0044;0.0244;
4040670507081673;0.1096;0.0001;0.0627;
4040670517182923;0.0691;-0.0009;0.0510;
4040670527284173;0.0968;-0.0073;0.0393;
4040670537402818;0.0734;0.0417;0.0117;
4040670547504068;0.0893;0.0364;-0.0064;
4040670557605370;0.0925;0.0214;0.0212;
4040670567705579;0.0872;-0.0052;0.0265;
4040670577806881;0.1085;-0.0254;0.0212;
4040670587908131;0.1213;0.0214;0.0212;
4040670598021881;0.1362;-0.0212;0.0425;
4040670608123131;0.1618;-0.0180;0.0286;
4040670618224433;0.1820;0.0076;0.0489;
4040670628312766;0.1703;0.0012;0.0702;
4040670638414016;0.2001;-0.0244;0.0862;
4040670648515318;0.2023;-0.0563;0.1170;
4040670658616725;0.1873;-0.0009;0.0862;
4040670668718027;0.1927;0.0204;0.1138;
4040670678819277;0.1895;0.0119;0.1021;
4040670688920214;0.1639;0.0257;0.1170;
4040670699021516;0.1298;0.0257;0.1160;
4040670709122766;0.1437;0.0172;0.1138;
4040670719222870;0.1128;0.0225;0.1011;
4040670729324120;0.1202;0.0300;0.1149;
4040670739425423;0.0957;-0.0126;0.1224;
4040670749532610;0.0808;0.0033;0.1277;
4040670759633860;0.0659;-0.0393;0.1320;
4040670769735162;0.0542;-0.0414;0.1362;
4040670779856204;0.0403;-0.0510;0.1394;
4040670789957454;0.0542;-0.0190;0.1575;
4040670800058704;0.0202;0.0438;0.1298;
4040670810129850;0.0266;0.0246;0.1394;
4040670820231100;0.0192;0.0108;0.1352;
4040670830332402;-0.0075;0.0609;0.1266;
4040670840462558;-0.0192;0.0395;0.1053;
4040670850563808;-0.0224;0.0012;0.1160;
4040670860665110;-0.0373;0.0321;0.0840;
4040670870766048;-0.0256;0.0385;0.0499;
4040670880867298;-0.0149;-0.0020;0.0819;
4040670890968548;-0.0245;-0.0308;0.1107;
4040670901067975;-0.0298;0.0033;0.0968;
4040670911169225;-0.0266;-0.0148;0.0798;
4040670921270527;0.0043;-0.0095;0.0968;
4040670931375266;-0.0181;0.0406;0.0862;
4040670941476516;-0.0032;-0.0158;0.1352;
4040670951577818;-0.0341;-0.0073;0.0776;
4040670961675162;-0.0128;0.0332;0.0606;
4040670971776412;-0.0224;0.0076;0.0776;
4040670981877714;-0.0320;-0.0009;0.0776;
4040670991967298;-0.0298;0.0023;0.0585;
4040671002068548;-0.0320;0.0385;0.0489;
4040671012169850;-0.0522;0.0087;0.0585;
4040671022268131;-0.0607;-0.0542;0.0819;
4040671032369381;-0.0341;-0.0212;0.0904;
4040671042470683;-0.0458;-0.0095;0.0968;
4040671052569381;-0.0884;-0.0510;0.0787;
4040671062670631;-0.0352;-0.0073;0.1213;
4040671072771933;-0.0543;0.0257;0.0862;
4040671082881360;-0.0501;0.0140;0.0798;
4040671092982610;-0.0469;0.0470;0.0915;
4040671103083912;-0.0479;0.0427;0.0915;
4040671113179485;-0.0373;-0.0009;0.1075;
4040671123280735;-0.0256;0.0321;0.0830;
4040671133382037;-0.0522;0.0587;0.0659;
4040671143479589;-0.0618;-0.0201;0.0510;
4040671153580839;-0.0266;-0.0627;0.0723;
4040671163682141;-0.0597;-0.0372;0.1138;
4040671173792193;-0.0756;-0.0372;0.0808;
4040671183893443;-0.0405;-0.0968;0.0851;
4040671193994745;-0.0660;-0.0553;0.0947;
4040671204095735;-0.0692;0.0268;0.1117;
4040671214196985;-0.0948;-0.0627;0.1064;
4040671224298287;-0.0916;-0.0382;0.1000;
4040671234421100;-0.1172;0.0300;0.0680;
4040671244522350;-0.1363;-0.0148;0.0744;
4040671254623652;-0.1268;0.0300;0.0457;
4040671264715423;-0.1449;0.0236;0.0297;
4040671274816673;-0.1609;0.0033;0.0265;
4040671284917975;-0.1598;0.0129;0.0138;
4040671295028600;-0.1534;-0.0361;0.0286;
4040671305129902;-0.1598;-0.0265;-0.0064;
4040671315231152;-0.1545;-0.0318;-0.0107;
4040671325307818;-0.1534;-0.0574;-0.0277;
4040671335409120;-0.1246;-0.0435;-0.0043;
4040671345510318;-0.1193;-0.0702;-0.0149;
4040671355623235;-0.1108;-0.0680;-0.0426;
4040671365724537;-0.0810;-0.0020;-0.0426;
4040671375825787;-0.0682;-0.0446;-0.0192;
4040671385927662;-0.0522;-0.0180;-0.0245;
4040671396028964;-0.0426;0.0609;-0.0405;
4040671406130214;-0.0618;-0.0212;-0.0149;
4040671416222298;-0.0628;-0.0009;-0.0533;
4040671426323600;-0.0458;0.0438;-0.0639;
4040671436424850;-0.0767;-0.0212;-0.0394;
4040671446517037;-0.0660;-0.0222;-0.0330;
4040671456618391;-0.0714;-0.0212;-0.0277;
4040671466719641;-0.0650;-0.0222;-0.0426;
4040671476832818;-0.0469;-0.0190;-0.0405;
4040671486934120;-0.0458;-0.0201;-0.0479;
4040671497035370;-0.0362;-0.0009;-0.0650;
4040671507130995;-0.0234;-0.0095;-0.0628;
4040671517232298;-0.0032;-0.0052;-0.0565;
4040671527333600;0.0128;0.0310;-0.0554;
4040671537445423;0.0021;0.0150;-0.0490;
4040671547546725;0.0032;0.0246;-0.0575;
4040671557647975;0.0202;0.0129;-0.0288;
4040671567733079;-0.0064;-0.0063;-0.0405;
4040671577834433;0.0149;-0.0382;-0.0298;
4040671587935683;-0.0011;-0.0233;-0.0341;
4040671598056777;0.0085;0.0065;-0.0362;
4040671608158079;0.0032;0.0108;-0.0138;
4040671618259329;0.0021;0.0268;-0.0288;
4040671628362350;0.0138;0.0502;-0.0149;
4040671638463652;-0.0128;0.0119;-0.0277;
4040671648564902;0.0021;0.0321;-0.0447;
4040671658644537;0.0021;0.0577;-0.0479;
4040671668745891;-0.0053;0.0236;-0.0330;
4040671678847141;0.0053;0.0108;-0.0320;
4040671688946412;0.0043;0.0204;-0.0138;
4040671699047766;-0.0138;-0.0169;-0.0192;
4040671709149016;-0.0021;-0.0435;-0.0213;
4040671719265579;-0.0021;-0.0254;-0.0224;
4040671729366881;-0.0021;-0.0254;-0.0394;
4040671739468183;0.0245;-0.0233;-0.0011;
4040671749576881;-0.0032;0.0129;0.0169;
4040671759678131;-0.0128;0.0097;0.0053;
4040671769779433;0.0021;0.0012;-0.0330;
4040671779921985;0.0064;0.0182;-0.0256;
4040671790023287;-0.0000;0.0257;-0.0202;
4040671800124589;-0.0053;0.0395;-0.0245;
4040671810166308;-0.0085;0.0204;-0.0256;
4040671820267610;-0.0160;0.0470;-0.0415;
4040671830368860;-0.0160;-0.0052;-0.0202;
4040671840501933;-0.0107;-0.0617;-0.0405;
4040671850603235;0.0032;0.0119;-0.0607;
4040671860704485;-0.0053;-0.0126;-0.0458;
4040671870786360;-0.0075;-0.0489;-0.0437;
4040671880887610;0.0192;-0.0403;-0.0618;
4040671890988912;0.0435;-0.0350;-0.0181;
4040671901072766;0.0192;-0.0063;-0.0458;
4040671911174068;0.0435;0.0172;-0.0639;
4040671921275318;0.0510;0.0395;-0.0533;
4040671931370787;0.0499;0.0321;-0.0415;
4040671941472141;0.0542;0.0459;-0.0245;
4040671951573391;0.0245;0.0278;-0.0234;
4040671961705943;0.0256;-0.0680;-0.0309;
4040671971807245;0.0382;-0.0617;-0.0479;
4040671981908495;0.0446;-0.0308;-0.0575;
4040671991997193;0.0435;-0.0425;-0.0639;
4040672002098495;0.0595;-0.0158;-0.0426;
4040672012199798;0.0435;-0.0222;-0.0277;
4040672022321048;0.0510;0.0129;-0.0426;
4040672032422350;0.0372;0.0289;-0.0724;
4040672042523600;0.0659;0.0055;-0.0799;
4040672052604902;0.0872;0.0140;-0.0607;
4040672062706204;0.0744;-0.0318;-0.0149;
4040672072807454;0.0808;-0.0308;-0.0288;
4040672082910839;0.0808;0.0395;-0.0628;
4040672093012089;0.0862;-0.0063;-0.0320;
4040672103113391;0.0883;-0.0095;-0.0053;
4040672113215214;0.0893;0.0108;-0.0426;
4040672123316516;0.1107;-0.0222;-0.0341;
4040672133417766;0.1096;0.0108;-0.0138;
4040672143520266;0.1181;0.0427;-0.0117;
4040672153621568;0.1213;0.0204;-0.0075;
4040672163722818;0.1213;-0.0116;0.0107;
4040672173822506;0.1192;-0.0073;-0.0032;
4040672183923808;0.1309;-0.0031;0.0043;
4040672194025058;0.1075;0.0055;-0.0053;
4040672204127610;0.1320;-0.0116;0.0128;
4040672214228912;0.1064;0.0204;0.0244;
4040672224330162;0.0979;-0.0329;0.0382;
4040672234449433;0.0915;-0.0020;0.0340;
4040672244550735;0.0766;0.0545;0.0212;
4040672254651985;0.0702;0.0214;0.0318;
4040672264759954;0.0627;0.0001;0.0510;
4040672274861308;0.0382;-0.0063;0.0499;
4040672284962558;0.0499;-0.0329;0.0531;
4040672295040266;0.0467;-0.0190;0.0414;
4040672305141568;0.0435;-0.0265;0.0542;
4040672315242870;0.0245;0.0406;0.0372;
4040672325347193;0.0340;0.0289;0.0393;
4040672335448495;0.0043;0.0193;0.0553;
4040672345549798;0.0032;0.0193;0.0553;
4040672355657506;-0.0021;-0.0425;0.0744;
4040672365758808;-0.0085;-0.0190;0.0766;
4040672375860110;-0.0181;-0.0126;0.0680;
4040672385969954;-0.0053;-0.0297;0.0627;
4040672396071256;-0.0202;-0.0233;0.0893;
4040672406172558;-0.0181;0.0055;0.0904;
4040672416248079;-0.0288;0.0044;0.0947;
4040672426349381;-0.0373;-0.0031;0.0872;
4040672436450735;-0.0245;0.0108;0.0680;
4040672446555683;-0.0426;0.0172;0.0617;
4040672456656985;-0.0447;-0.0009;0.0915;
4040672466758287;-0.0437;0.0332;0.0936;
4040672476857610;-0.0383;0.0193;0.1021;
4040672486958912;-0.0586;-0.0180;0.0947;
4040672497060214;-0.0330;-0.0308;0.0808;
4040672507171620;-0.0277;-0.0372;0.0744;
4040672517272975;-0.0160;-0.0137;0.0936;
4040672527374225;-0.0373;0.0172;0.1085;
4040672537475423;-0.0511;0.0172;0.0904;
4040672547576725;-0.0320;0.0076;0.0925;
4040672557678027;-0.0639;0.0289;0.0947;
4040672567774381;-0.0810;0.0566;0.0819;
4040672577875683;-0.0948;0.0385;0.0734;
4040672587976985;-0.1065;0.0289;0.0606;
4040672598061256;-0.1310;0.0119;0.0478;
4040672608162610;-0.1310;-0.0435;0.0691;
4040672618263912;-0.1332;-0.0382;0.0648;
4040672628394120;-0.1598;-0.0073;0.0340;
4040672638495475;-0.1332;-0.0233;0.0393;
4040672648596725;-0.1481;-0.0446;0.0350;
4040672658676516;-0.1257;-0.0041;0.0190;
4040672668777870;-0.1118;0.0449;0.0457;
4040672678879173;-0.1640;0.0108;0.0382;
4040672688980891;-0.1118;0.0406;0.0244;
4040672699082193;-0.1097;0.0417;0.0138;
4040672709183548;-0.1161;0.0353;0.0107;
4040672719312975;-0.1044;0.0459;0.0201;
4040672729414329;-0.1161;0.0523;0.0107;
4040672739515631;-0.1097;0.0001;0.0021;
4040672749585006;-0.0852;-0.0137;-0.0096;
4040672759686308;-0.0863;-0.0063;-0.0373;
4040672769787662;-0.0735;-0.0180;-0.0586;
4040672779910058;-0.0660;0.0150;-0.0479;
4040672790011360;-0.0714;-0.0009;-0.0437;
4040672800112662;-0.0383;-0.0276;-0.0352;
4040672810201204;-0.0128;-0.0009;-0.0096;
4040672820302506;-0.0149;0.0193;-0.0266;
4040672830403808;0.0170;0.0076;-0.0298;
4040672840544850;0.0160;0.0257;0.0075;
4040672850646152;0.0043;0.0353;0.0158;
4040672860747454;0.0181;0.0364;-0.0096;
4040672870828548;-0.0021;0.0438;-0.0000;
4040672880929798;-0.0352;0.0246;-0.0096;
4040672891031152;0.0011;-0.0350;0.0064;
4040672901119173;-0.0064;0.0076;-0.0053;
4040672911220423;-0.0202;0.0225;-0.0053;
4040672921321777;-0.0085;-0.0073;0.0318;
4040672931438912;-0.0138;-0.0009;0.0233;
4040672941540214;-0.0032;-0.0265;0.0053;
4040672951641568;0.0011;0.0108;-0.0011;
4040672961747766;0.0075;0.0193;0.0297;
4040672971849120;-0.0021;0.0172;0.0595;
4040672981950423;-0.0096;0.0257;0.0340;
4040672992029902;-0.0096;0.0246;0.0212;
4040673002131204;-0.0362;0.0395;0.0128;
4040673012232506;-0.0277;0.0438;0.0138;
4040673022347089;-0.0437;0.0076;0.0149;
4040673032448391;-0.0565;-0.0403;0.0096;
4040673042549693;-0.0426;-0.0659;0.0212;
4040673052638548;-0.0405;-0.0372;0.0053;
4040673062739850;-0.0277;-0.0617;0.0107;
4040673072841152;-0.0352;-0.0435;0.0128;
4040673082956360;-0.0383;-0.0126;0.0043;
4040673093057662;-0.0415;0.0097;0.0064;
4040673103158964;-0.0469;0.0161;0.0244;
4040673113255527;-0.0639;-0.0073;0.0128;
4040673123356829;-0.0405;0.0055;0.0340;
4040673133458131;-0.0937;0.0534;-0.0043;
4040673143559277;-0.0692;0.0129;-0.0043;
4040673153660579;-0.0895;-0.0158;0.0021;
4040673163761881;-0.1055;0.0214;-0.0160;
4040673173859485;-0.0991;-0.0244;-0.0234;
4040673183960787;-0.0959;-0.0222;-0.0511;
4040673194062089;-0.0703;0.0193;-0.0565;
4040673204163964;-0.0650;-0.0148;-0.0405;
4040673214265266;-0.0820;-0.0489;-0.0288;
4040673224366568;-0.0671;-0.0031;-0.0362;
4040673234480787;-0.0756;-0.0052;-0.0394;
4040673244582089;-0.1044;-0.0180;-0.0511;
4040673254683391;-0.0937;-0.0095;-0.0703;
4040673264777923;-0.0948;-0.0084;-0.0469;
4040673274879225;-0.0969;0.0204;-0.0501;
4040673284980527;-0.0767;0.0513;-0.0405;
4040673295082298;-0.1150;0.0172;-0.0565;
4040673305183652;-0.0682;0.0406;-0.0746;
4040673315284954;-0.0873;0.0545;-0.0650;
4040673325390475;-0.0746;0.0300;-0.0650;
4040673335491829;-0.0735;0.0097;-0.0746;
4040673345593183;-0.0842;-0.0020;-0.0810;
4040673355683704;-0.0873;0.0108;-0.0639;
4040673365785058;-0.0980;-0.0318;-0.0671;
4040673375886360;-0.0756;-0.0574;-0.0778;
4040673385980475;-0.0554;0.0044;-0.0884;
4040673396081777;-0.0692;-0.0073;-0.0714;
4040673406183131;-0.0554;-0.0521;-0.0735;
4040673416283912;-0.0309;-0.0393;-0.0628;
4040673426385266;-0.0437;-0.0063;-0.0586;
4040673436486568;-0.0288;-0.0158;-0.0597;
4040673446588287;-0.0277;0.0097;-0.0671;
4040673456689641;-0.0266;-0.0073;-0.0479;
4040673466790995;-0.0288;-0.0372;-0.0458;
4040673476891725;-0.0490;0.0150;-0.0660;
4040673486993079;-0.0618;0.0289;-0.0916;
4040673497094433;-0.0490;-0.0382;-0.0788;
4040673507197193;-0.0533;-0.0063;-0.0660;
4040673517298495;-0.0533;-0.0308;-0.0671;
4040673527399850;-0.0628;-0.0158;-0.0831;
4040673537500683;-0.0490;0.0023;-0.0969;
4040673547602037;-0.0415;-0.0148;-0.0895;
4040673557703339;-0.0373;-0.0041;-0.0575;
4040673567808079;-0.0256;0.0055;-0.0565;
4040673577909433;-0.0053;0.0033;-0.0767;
4040673588010787;0.0032;-0.0105;-0.0660;
4040673598097923;0.0128;0.0214;-0.0788;
4040673608199277;0.0149;0.0364;-0.0756;
4040673618300579;0.0075;0.0172;-0.0650;
4040673628416100;0.0192;0.0374;-0.0810;
4040673638517402;-0.0085;0.0726;-0.0991;
4040673648618756;-0.0149;0.0097;-0.1161;
4040673658714537;0.0021;-0.0169;-0.1012;
4040673668815891;-0.0149;-0.0329;-0.0884;
4040673678917245;0.0085;-0.0563;-0.1087;
4040673689008495;0.0670;-0.0361;-0.1001;
4040673699109850;0.0648;0.0033;-0.0799;
4040673709211204;0.1064;0.0214;-0.0533;
4040673719374433;0.1288;0.0332;-0.0533;
4040673729475787;0.1352;0.0864;-0.0682;
4040673739577141;0.1320;0.0545;-0.0426;
4040673749631881;0.1107;0.0332;-0.0437;
4040673759733183;0.1149;0.0555;-0.0650;
4040673769834589;0.1043;0.0140;-0.0628;
4040673779949016;0.0830;0.0044;-0.0309;
4040673790050318;0.0691;0.0119;-0.0458;
4040673800151673;0.0606;-0.0095;-0.0852;
4040673810230058;0.0702;0.0108;-0.0756;
4040673820331412;0.0776;0.0140;-0.0522;
4040673830432714;0.0723;-0.0510;-0.0458;
4040673840570058;0.1160;-0.0361;-0.0586;
4040673850671412;0.1032;0.0214;-0.0437;
4040673860772714;0.0712;-0.0308;-0.0522;
4040673870819433;0.1341;-0.0585;-0.0373;
4040673880920787;0.1021;-0.0041;-0.0309;
4040673891022141;0.0819;0.0129;-0.0256;
4040673901169641;0.0648;-0.0095;-0.0373;
4040673911270995;0.0553;-0.0403;-0.0501;
4040673921372298;0.0862;-0.0031;-0.0682;
4040673931435162;0.0638;-0.0254;-0.0767;
4040673941536516;0.1021;-0.0606;-0.0096;
4040673951637818;0.0968;-0.0148;-0.0224;
4040673961782558;0.1192;-0.0233;-0.0341;
4040673971883912;0.0979;-0.0126;-0.0192;
4040673981985214;0.1138;-0.0116;-0.0352;
4040673992059329;0.1085;-0.0382;0.0075;
4040674002160683;0.0989;0.0289;0.0222;
4040674012262037;0.0979;0.0214;-0.0128;
4040674022357662;0.0862;0.0172;-0.0181;
4040674032459016;0.0776;0.0427;-0.0128;
4040674042560318;0.0883;0.0097;-0.0192;
4040674052668600;0.0680;0.0172;-0.0128;
4040674062769954;0.0702;-0.0244;0.0053;
4040674072871256;0.0776;-0.0180;0.0085;
4040674082978600;0.0862;-0.0052;0.0011;
4040674093079954;0.0819;-0.0180;0.0297;
4040674103181308;0.0638;0.0023;0.0276;
4040674113281725;0.0659;-0.0254;0.0414;
4040674123383079;0.0553;-0.0254;0.0425;
4040674133484381;0.0776;0.0481;0.0329;
4040674143573912;0.0510;0.0353;0.0254;
4040674153675266;0.0617;0.0236;0.0350;
4040674163776568;0.0521;0.0129;0.0563;
4040674173890475;0.0457;0.0076;0.0542;
4040674183991829;0.0521;-0.0126;0.0276;
4040674194093131;0.0776;-0.0467;0.0372;
4040674204204277;0.0499;-0.0340;0.0659;
4040674214305579;0.0414;-0.0435;0.0734;
4040674224406933;0.0489;-0.1053;0.0734;
4040674234475579;0.0457;-0.0840;0.0670;
4040674244576933;0.0329;0.0172;0.0851;
4040674254678287;0.0202;-0.0052;0.0787;
4040674264816725;0.0478;-0.0446;0.0723;
4040674274918079;0.0266;0.0385;0.0680;
4040674285019381;0.0181;0.0481;0.0606;
4040674295090370;0.0192;0.0087;0.0670;
4040674305191725;0.0053;-0.0244;0.0627;
4040674315293027;0.0213;0.0129;0.0585;
4040674325406464;-0.0085;0.0321;0.0595;
4040674335466933;-0.0117;-0.0244;0.0755;
4040674345568235;-0.0043;-0.0318;0.0574;
4040674355669589;-0.0138;-0.0041;0.0446;
4040674365816673;-0.0117;0.0129;0.0638;
4040674375917975;-0.0341;0.0161;0.0318;
4040674386019277;0.0202;0.0161;0.0053;
4040674396107558;0.0043;0.0662;0.0318;
4040674406208912;-0.0021;0.0289;0.0393;
4040674416310162;0.0457;0.0055;0.0414;
4040674426413495;0.0298;-0.0105;0.0340;
4040674436514850;0.0457;0.0023;0.0212;
4040674446616152;0.0617;-0.0222;0.0425;
4040674456713079;0.0648;-0.0212;0.0595;
4040674466814433;0.0723;0.0406;0.0595;
4040674476915683;0.0425;-0.0063;0.0510;
4040674487021204;0.0435;-0.0031;0.0606;
4040674497122558;0.0489;0.0161;0.0563;
4040674507223860;0.0393;-0.0020;0.0585;
4040674517334693;0.0224;0.0044;0.0489;
4040674527435995;0.0288;-0.0052;0.0318;
4040674537537298;0.0329;-0.0308;0.0648;
4040674547636256;0.0478;-0.0244;0.0723;
4040674557737558;0.0606;-0.0020;0.0787;
4040674567838860;0.0595;0.0001;0.0979;
4040674577935735;0.0489;-0.0158;0.1266;
4040674588036985;0.0648;-0.0116;0.1256;
4040674598138339;0.0467;-0.0489;0.1479;
4040674608253548;0.0308;-0.0478;0.1128;
4040674618354850;0.0489;-0.0031;0.1362;
4040674628456152;0.0256;0.0119;0.1256;
4040674638545839;0.0288;0.0321;0.1245;
4040674648647089;-0.0085;0.0395;0.1160;
4040674658748391;-0.0021;0.0587;0.1075;
4040674668845214;-0.0256;0.0289;0.1298;
4040674678946464;-0.0330;-0.0361;0.1426;
4040674689047818;-0.0277;-0.0137;0.1266;
4040674699150058;-0.0320;-0.0340;0.1522;
4040674709251412;-0.0352;0.0108;0.1692;
4040674719352714;-0.0458;-0.0041;0.1799;
4040674729468443;-0.0586;-0.0276;0.1714;
4040674739569745;-0.0831;0.0193;0.1639;
4040674749671048;-0.1172;0.0662;0.1618;
4040674759761620;-0.1545;0.0811;0.1362;
4040674769862975;-0.2205;0.0779;0.1341;
4040674779964277;-0.2620;0.0257;0.1160;
4040674790108235;-0.2791;-0.0276;0.1170;
4040674800209589;-0.3110;-0.0201;0.1160;
4040674810310891;-0.3270;-0.0180;0.0638;
4040674820345423;-0.2919;-0.0084;0.0776;
4040674830446725;-0.3345;-0.0020;0.0606;
4040674840547975;-0.2802;-0.0446;0.0702;
4040674850692975;-0.2897;0.0182;0.0563;
4040674860794277;-0.2770;0.0481;0.0158;
4040674870895579;-0.2439;0.0033;0.0350;
4040674880964589;-0.2482;0.0097;0.0149;
4040674891065891;-0.1981;0.0119;-0.0085;
4040674901167193;-0.1907;0.0225;-0.0128;
4040674911275579;-0.1907;0.0193;-0.0138;
4040674921376881;-0.1513;-0.0265;-0.0192;
4040674931478183;-0.1470;0.0001;-0.0234;
4040674941585839;-0.1268;0.0161;0.0053;
4040674951687141;-0.1449;0.0353;0.0265;
4040674961788391;-0.1214;0.0449;0.0158;
4040674971887818;-0.1161;-0.0063;0.0158;
4040674981989068;-0.1225;-0.0095;-0.0064;
4040674992090423;-0.1033;0.0523;-0.0043;
4040675002196881;-0.1395;0.0768;-0.0107;
4040675012298183;-0.1385;0.0609;-0.0320;
4040675022399485;-0.1481;0.0342;-0.0298;
4040675032505110;-0.1577;0.0513;-0.0362;
4040675042606412;-0.1481;0.0278;-0.0373;
4040675052707714;-0.1459;0.0310;-0.0373;
4040675062808443;-0.1662;0.0332;-0.0352;
4040675072909745;-0.1715;-0.0020;-0.0437;
4040675083011048;-0.1736;-0.0105;-0.0447;
4040675093106464;-0.1630;-0.0180;-0.0288;
4040675103207766;-0.1779;0.0087;-0.0575;
4040675113309068;-0.1672;0.0108;-0.0820;
4040675123407818;-0.1395;0.0332;-0.0969;
4040675133509120;-0.1438;0.0822;-0.1044;
4040675143610423;-0.1438;0.0971;-0.1044;
4040675153721464;-0.1236;0.0843;-0.1204;
4040675163822766;-0.1065;0.0555;-0.1204;
4040675173924068;-0.1150;0.0065;-0.1214;
4040675184033443;-0.0767;0.0065;-0.1289;
4040675194134745;-0.0852;0.0182;-0.1342;
4040675204236048;-0.0778;-0.0169;-0.1150;
4040675214311673;-0.0618;-0.0510;-0.1150;
4040675224412923;-0.0746;0.0182;-0.1640;
4040675234514225;-0.0735;0.0406;-0.1640;
4040675244642662;-0.0671;0.0268;-0.1374;
4040675254743964;-0.0575;-0.0190;-0.1417;
4040675264845318;-0.0330;-0.0244;-0.1672;
4040675274938443;-0.0085;-0.0009;-0.1715;
4040675285039745;0.0096;0.0172;-0.1609;
4040675295140995;0.0256;0.0055;-0.1598;
4040675305233912;0.0553;-0.0340;-0.1225;
4040675315335266;0.0435;-0.1170;-0.1087;
4040675325436568;0.1043;-0.0702;-0.1065;
4040675335544641;0.0883;0.0491;-0.1129;
4040675345646048;0.0467;0.0300;-0.1268;
4040675355747454;0.0350;0.0108;-0.1065;
4040675365850162;0.0011;0.0193;-0.0948;
4040675375951568;-0.0149;0.0150;-0.1161;
4040675386052975;-0.0341;0.0481;-0.1289;
4040675396143912;-0.0405;0.0332;-0.1353;
4040675406245318;-0.0341;0.0076;-0.1332;
4040675416346725;-0.0341;0.0076;-0.1374;
4040675426434016;-0.0234;-0.0009;-0.1268;
4040675436535370;-0.0181;0.0246;-0.1044;
4040675446636777;-0.0117;0.1003;-0.1193;
4040675456757662;0.0011;-0.0372;-0.0959;
4040675466859068;0.0213;-0.0478;-0.1065;
4040675476960475;0.0382;0.0481;-0.1257;
4040675487049850;0.0457;0.0055;-0.0927;
4040675497151256;0.0627;0.0257;-0.0884;
4040675507252662;0.0755;0.0470;-0.1129;
4040675517380787;0.1043;0.0300;-0.1023;
4040675527482193;0.1149;0.0289;-0.1076;
4040675537583600;0.1543;-0.0052;-0.0948;
4040675547658391;0.1309;0.0012;-0.0565;
4040675557759798;0.1277;-0.0595;-0.0383;
4040675567861204;0.1362;-0.1117;-0.0107;
4040675577966048;0.1075;-0.0254;-0.0415;
4040675588067454;0.1192;-0.0180;-0.0383;
4040675598168860;0.0862;-0.0116;-0.0288;
4040675608273131;0.0446;0.0481;-0.0320;
4040675618374537;0.0234;0.0182;-0.0458;
4040675628475943;0.0181;0.0193;-0.0650;
4040675638581204;-0.0213;0.0470;-0.0895;
4040675648682610;-0.0266;-0.0180;-0.0724;
4040675658784016;-0.0288;-0.0904;-0.0426;
4040675668880631;-0.0373;-0.0531;-0.0650;
4040675678982037;-0.0075;-0.0340;-0.0724;
4040675689083443;0.0032;-0.0606;-0.0746;
4040675699200527;0.0202;-0.0308;-0.0820;
4040675709301881;0.0277;-0.0382;-0.0778;
4040675719403287;0.0425;-0.1330;-0.0916;
4040675729484485;0.0542;-0.2033;-0.0948;
4040675739585839;0.0744;-0.1447;-0.0969;
4040675749687298;0.0893;-0.0691;-0.0969;
4040675759772037;0.1064;-0.0382;-0.0820;
4040675769873495;0.1000;-0.0031;-0.0682;
4040675779974850;0.1117;0.0534;-0.0597;
4040675790098912;0.0957;0.1045;-0.0639;
4040675800200318;0.0830;0.0672;-0.0426;
4040675810301673;0.0670;0.0758;-0.0298;
4040675820397141;0.0648;0.1077;-0.0415;
4040675830498495;0.0542;0.1077;-0.0522;
4040675840599954;0.0414;0.0864;-0.0767;
4040675850713391;0.0446;0.1802;-0.0916;
4040675860814850;0.0414;0.1684;-0.1129;
4040675870916256;0.0595;0.0864;-0.1268;
4040675880995162;0.0840;0.0662;-0.1214;
4040675891096620;0.1085;0.0225;-0.1150;
4040675901198027;0.1437;-0.0222;-0.0884;
4040675911375943;0.1543;-0.0702;-0.0746;
4040675921477350;0.1895;-0.1149;-0.0490;
4040675931578756;0.1873;-0.0957;-0.0224;
4040675941612454;0.1873;-0.0893;-0.0181;
4040675951713860;0.1916;-0.0904;-0.0000;
4040675961815266;0.1543;-0.0393;-0.0138;
4040675971911933;0.1362;-0.0148;-0.0138;
4040675982013339;0.1224;0.0193;-0.0011;
4040675992114745;0.0947;0.0704;-0.0245;
4040676002216308;0.0904;0.0747;-0.0213;
4040676012317714;0.0563;0.0257;-0.0138;
4040676022419120;0.0553;-0.0531;-0.0224;
4040676032528704;0.0499;-0.0989;-0.0298;
4040676042630110;0.0585;-0.1149;-0.0266;
4040676052731516;0.0787;-0.1160;-0.0138;
4040676062825787;0.1000;-0.0680;-0.0170;
4040676072927193;0.1234;0.0076;-0.0138;
4040676083028600;0.1266;0.0843;-0.0266;
4040676093136620;0.1320;0.0896;-0.0224;
4040676103238027;0.1383;0.0885;-0.0213;
4040676113339433;0.1469;0.1035;-0.0362;
4040676123441620;0.1501;0.0928;-0.0170;
4040676133543027;0.1245;0.0662;-0.0032;
4040676143644433;0.1213;0.0779;0.0075;
4040676153748131;0.0872;0.0822;-0.0043;
4040676163849537;0.0872;0.0236;-0.0181;
4040676173950943;0.0808;0.0353;-0.0053;
4040676184048495;0.0734;0.0534;-0.0064;
4040676194149902;0.0947;0.0087;-0.0096;
4040676204251308;0.1011;-0.0265;-0.0224;
4040676214365631;0.1128;-0.0446;-0.0064;
4040676224467037;0.1266;-0.0158;0.0032;
4040676234568443;0.1426;0.0065;-0.0053;
4040676244669016;0.1437;0.0065;-0.0000;
4040676254770423;0.1437;0.0161;0.0096;
4040676264871829;0.1426;0.0055;0.0233;
4040676274969329;0.1213;-0.0201;0.0244;
4040676285070735;0.1160;-0.0105;0.0158;
4040676295172141;0.1117;-0.0126;0.0158;
4040676305255214;0.1096;-0.0297;0.0064;
4040676315356568;0.1181;-0.0222;-0.0032;
4040676325457975;0.1202;-0.0233;-0.0224;
4040676335582298;0.1383;-0.0340;-0.0138;
4040676345683704;0.1362;-0.0244;-0.0107;
4040676355785110;0.1703;-0.0425;-0.0309;
4040676365880631;0.1778;-0.0467;-0.0256;
4040676375982037;0.1852;-0.0425;-0.0138;
4040676386083495;0.1927;-0.0659;-0.0021;
4040676396173079;0.1927;-0.1021;0.0117;
4040676406274485;0.2023;-0.0872;0.0096;
4040676416375891;0.2182;-0.0489;0.0244;
4040676426483704;0.2204;-0.0286;0.0350;
4040676436585058;0.2278;-0.0105;0.0457;
4040676446686464;0.2076;-0.0148;0.0329;
4040676456778548;0.2108;-0.0105;0.0414;
4040676466879954;0.1895;-0.0073;0.0542;
4040676476981360;0.1788;-0.0073;0.0489;
4040676487086412;0.1682;0.0012;0.0382;
4040676497187818;0.1533;-0.0244;0.0585;
4040676507289225;0.1501;-0.0478;0.0744;
4040676517400631;0.1586;-0.0574;0.0851;
4040676527501985;0.1682;-0.0467;0.0925;
4040676537603391;0.1873;-0.0084;0.1032;
4040676547701933;0.1884;0.0119;0.1128;
4040676557803339;0.1842;0.0289;0.1362;
4040676567904745;0.1756;0.0140;0.1352;
4040676578002298;0.1788;0.0023;0.1469;
4040676588103704;0.1639;0.0161;0.1469;
4040676598205110;0.1554;0.0044;0.1458;
4040676608312037;0.1352;-0.0169;0.1490;
4040676618413443;0.1160;-0.0265;0.1597;
4040676628514850;0.0862;-0.0329;0.1628;
4040676638622245;0.0723;-0.0414;0.1607;
4040676648723652;0.0329;-0.0286;0.1660;
4040676658825058;0.0064;-0.0180;0.1682;
4040676668910787;-0.0064;-0.0457;0.1778;
4040676679012193;-0.0277;-0.0169;0.1916;
4040676689113600;-0.0597;0.0236;0.1703;
4040676699226204;-0.0607;0.0619;0.1597;
4040676709327610;-0.0863;0.0672;0.1575;
4040676719429016;-0.1055;0.0342;0.1479;
4040676729517298;-0.1300;0.0566;0.1181;
4040676739618704;-0.1427;0.0523;0.1107;
4040676749720058;-0.1800;-0.0116;0.1043;
4040676759806829;-0.1949;-0.0851;0.0883;
4040676769908235;-0.2067;-0.1415;0.0755;
4040676780009589;-0.2045;-0.1628;0.0712;
4040676790117870;-0.1896;-0.1554;0.0606;
4040676800219277;-0.1779;-0.1394;0.0521;
4040676810320683;-0.1363;-0.1554;0.0393;
4040676820429850;-0.0842;-0.1192;0.0403;
4040676830531256;-0.0522;-0.0840;0.0606;
4040676840632662;-0.0245;-0.0670;0.0702;
4040676850747245;-0.0043;-0.0095;0.0659;
4040676860848652;-0.0021;0.0268;0.0702;
4040676870950058;0.0043;-0.0009;0.0893;
4040676881026516;-0.0160;-0.0084;0.0925;
4040676891127923;-0.0373;0.0044;0.0766;
4040676901229329;-0.0341;-0.0222;0.0723;
4040676911326308;-0.0756;-0.0744;0.0648;
4040676921427714;-0.0618;-0.3981;0.1011;
4040676931529120;0.1256;-0.4237;0.0755;
4040676941666360;0.3344;0.0779;0.0265;
4040676951767714;0.3514;0.3899;0.1330;
4040676961869173;0.2438;0.4027;0.2438;
4040676971963808;0.1991;0.3569;0.2587;
4040676982065214;0.1192;0.3824;0.2225;
4040676992166620;0.0160;0.3270;0.2108;
4040677002276204;-0.0490;0.2047;0.2087;
4040677012377558;-0.1204;0.1205;0.1959;
4040677022478964;-0.1726;0.0854;0.1426;
4040677032569641;-0.1917;0.0992;0.1213;
4040677042671048;-0.2216;0.1162;0.0957;
4040677052772454;-0.1960;0.3995;0.0340;
4040677062869954;-0.2951;0.0768;-0.0000;
4040677072971360;-0.2269;-0.4535;0.0372;
4040677083072766;-0.1566;-0.1479;0.0075;
4040677093173079;-0.1811;-0.1852;0.0531;
4040677103274485;-0.1598;-0.2534;0.0893;
4040677113375891;-0.1672;-0.1064;0.0808;
4040677123477662;-0.1917;0.0246;0.0585;
4040677133579068;-0.1960;0.1642;0.0254;
4040677143680475;-0.1811;0.1354;0.0233;
4040677153776933;-0.2109;0.0885;0.0064;
4040677163878339;-0.1779;0.2079;-0.0096;
4040677173979745;-0.1790;0.0971;-0.0447;
4040677184084016;-0.1651;-0.0158;-0.0437;
4040677194185423;-0.1097;0.0619;-0.0724;
4040677204286829;-0.0937;-0.0787;-0.0810;
4040677214395891;-0.0724;-0.0851;-0.0437;
4040677224497298;-0.0788;-0.1810;-0.0309;
4040677234598704;0.0776;-0.3130;-0.0330;
4040677244704537;0.1437;-0.0233;-0.0373;
4040677254805943;0.0744;0.1258;-0.0192;
4040677264907298;0.0670;0.0278;0.0606;
4040677274993912;0.0499;0.0609;0.0776;
4040677285095318;0.0329;0.0928;0.0617;
4040677295196725;-0.0256;0.0587;0.0595;
4040677305286360;-0.0298;0.1205;0.0510;
4040677315387714;-0.0607;0.1333;0.0382;
4040677325489120;-0.1172;0.0459;0.0627;
4040677335603912;-0.1790;-0.0329;0.0446;
4040677345705266;-0.1566;-0.2843;0.0627;
4040677355806620;-0.0820;0.1610;-0.0543;
4040677365914745;-0.1619;0.1312;-0.0245;
4040677376016100;-0.2897;-0.1628;0.0595;
4040677386117506;-0.1811;0.1056;0.0222;
4040677396210995;-0.2557;0.0364;-0.0192;
4040677406312350;-0.3899;-0.2321;-0.0011;
4040677416413704;-0.1800;-0.0883;-0.0959;
4040677426493704;-0.1843;0.1514;-0.1076;
4040677436595058;-0.3068;0.1684;-0.0458;
4040677446696412;-0.2344;0.0161;-0.0511;
4040677456825423;-0.1715;0.0566;-0.0799;
4040677466926829;-0.1683;0.2791;-0.1076;
4040677477028183;-0.2301;0.1706;-0.1332;
4040677487113704;-0.2035;-0.2694;-0.1289;
4040677497215110;-0.0011;-0.0670;-0.1321;
4040677507316412;-0.0128;-0.0329;-0.1449;
4040677517448183;-0.0884;-0.3024;-0.0692;
4040677527549537;0.1032;0.0172;-0.1395;
4040677537650891;0.1490;0.2919;-0.2013;
4040677547715579;-0.0895;-0.1724;-0.0884;
4040677557816933;-0.0149;-0.0233;-0.0660;
4040677567918287;0.1639;0.1365;-0.1076;
4040677578030370;0.0021;0.0119;-0.1076;
4040677588131725;-0.0075;0.0736;-0.0916;
4040677598233131;0.0595;-0.0414;-0.0746;
4040677608334641;0.0372;0.0364;-0.0895;
4040677618435995;0.0372;0.1024;-0.1065;
4040677628537402;0.0213;-0.1405;-0.0810;
4040677638638079;0.0585;0.0289;-0.0905;
4040677648739485;0.0872;0.1258;-0.1321;
4040677658840839;0.0224;-0.2023;-0.0820;
4040677668927975;0.0723;-0.0606;-0.0767;
4040677679029329;0.1714;0.0523;-0.1087;
4040677689130735;0.0723;-0.0830;-0.0586;
4040677699247975;0.0627;0.0545;-0.0682;
4040677709349381;0.1383;0.0577;-0.0650;
4040677719450735;0.0989;-0.0340;-0.0383;
4040677729547193;0.1000;0.0907;-0.0597;
4040677739648548;0.0957;0.0129;-0.0341;
4040677749749902;0.0840;-0.0627;-0.0213;
4040677759820683;0.1138;0.0385;-0.0479;
4040677769922089;0.1075;-0.0041;-0.0692;
4040677780023391;0.1266;-0.0254;-0.0192;
4040677790168704;0.1607;0.0449;0.0021;
4040677800270058;0.1490;0.0449;-0.0266;
4040677810371412;0.1724;-0.0648;0.0265;
4040677820535058;0.1575;-0.0617;0.0446;
4040677830636412;0.1501;-0.0350;0.0350;
4040677840737766;0.1266;-0.0031;0.0382;
4040677850777766;0.0840;0.0246;0.0382;
4040677860879120;0.0840;-0.0318;0.0574;
4040677870980475;0.0798;-0.0265;0.0755;
4040677881079225;0.0648;0.0119;0.0606;
4040677891180579;0.0648;-0.0212;0.0648;
4040677901281933;0.0542;0.0119;0.0798;
4040677911386204;0.0403;0.0129;0.0947;
4040677921487558;0.0308;-0.0680;0.1096;
4040677931588912;-0.0138;-0.0340;0.0744;
4040677941689641;-0.0000;0.0214;0.0542;
4040677951790995;-0.0383;-0.0467;0.0606;
4040677961892350;-0.0554;-0.0872;0.0830;
4040677971980995;-0.0628;-0.0776;0.0702;
4040677982082350;-0.0469;-0.0350;0.0574;
4040677992183704;-0.0724;-0.0158;0.0851;
4040678002298443;-0.0991;0.0023;0.0808;
4040678012399798;-0.1097;0.0502;0.0382;
4040678022501204;-0.1129;0.0438;0.0414;
4040678032589329;-0.1406;0.0481;0.0329;
4040678042690683;-0.1651;0.0246;0.0329;
4040678052792037;-0.1502;0.0236;0.0318;
4040678062893912;-0.1587;-0.0031;0.0128;
4040678072995266;-0.1289;-0.0297;0.0096;
4040678083096620;-0.0863;-0.0148;0.0222;
4040678093199537;-0.0746;-0.0585;0.0085;
4040678103300891;-0.0128;-0.0276;0.0414;
4040678113402245;0.0032;0.0055;0.0563;
4040678123505318;0.0011;-0.0126;0.0414;
4040678133606673;0.0213;-0.0126;0.0638;
4040678143708027;0.0234;0.0278;0.0744;
4040678153808495;-0.0021;-0.0148;0.0830;
4040678163909902;-0.0128;-0.0467;0.0766;
4040678174011256;-0.0043;0.0587;0.0712;
4040678184106308;-0.0426;0.1024;0.0606;
4040678194207662;-0.0767;0.0790;0.0840;
4040678204309016;-0.0852;0.0502;0.0808;
4040678214415214;-0.1023;0.0214;0.0872;
4040678224516620;-0.1225;0.0246;0.0787;
4040678234617975;-0.0863;-0.0521;0.0957;
4040678244736829;-0.0916;-0.0403;0.0787;
4040678254838183;-0.0831;0.0236;0.0723;
4040678264939537;-0.0937;0.0268;0.1149;
4040678275019641;-0.1321;0.0012;0.0883;
4040678285120995;-0.1246;0.0640;0.0521;
4040678295222350;-0.1427;0.0481;0.0659;
4040678305320943;-0.2067;-0.0297;0.0808;
4040678315422245;-0.2024;-0.0467;0.0457;
4040678325523652;-0.2109;-0.0308;0.0180;
4040678335632350;-0.2365;-0.0190;0.0180;
4040678345733704;-0.2471;0.0214;0.0043;
4040678355835058;-0.2354;-0.0425;-0.0138;
4040678365943287;-0.1960;-0.0063;-0.0458;
4040678376044641;-0.2024;0.0257;-0.0383;
4040678386145995;-0.2237;-0.0276;-0.0320;
4040678396236516;-0.1960;-0.1873;-0.0320;
4040678406337870;-0.1417;-0.3450;-0.0927;
4040678416439225;-0.0053;-0.1533;-0.0905;
4040678426535579;0.0032;0.1940;-0.1055;
4040678436636881;-0.1140;0.1535;-0.0501;
4040678446738235;-0.1172;0.0097;-0.0490;
4040678456842037;0.0170;0.1322;-0.0959;
4040678466943443;-0.0234;0.2716;-0.0810;
4040678477044745;-0.1300;0.1716;-0.0224;
4040678487140370;-0.1321;-0.1309;-0.0735;
4040678497241725;0.0776;-0.1533;-0.1150;
4040678507343079;0.0787;-0.0265;-0.1481;
4040678517437350;0.0160;0.1429;-0.1172;
4040678527538756;0.0585;0.2780;-0.0916;
4040678537640058;0.0032;0.2036;-0.1332;
4040678547749120;-0.0107;-0.0862;-0.1129;
4040678557850475;0.0574;-0.0936;-0.0852;
4040678567951829;0.0542;-0.0563;-0.0660;
4040678578055891;0.1160;-0.4525;-0.0447;
4040678588157245;0.3237;-0.0862;-0.0320;
4040678598258600;0.1352;0.1514;-0.0128;
4040678608363287;0.0064;0.2313;0.0085;
4040678618464641;0.0340;0.2897;-0.0458;
4040678628565995;0.0224;-0.0095;-0.0234;
4040678638672037;-0.1044;0.2599;-0.0575;
4040678648773391;-0.0905;0.1674;-0.0842;
4040678658874745;-0.1055;-0.1788;-0.0352;
4040678668980579;-0.1332;-0.0425;-0.0618;
4040678679081933;-0.0948;-0.1916;-0.0575;
4040678689183287;-0.0810;-0.1309;-0.0437;
4040678699298443;-0.0533;0.1770;-0.1076;
4040678709399745;-0.0394;-0.0957;-0.1129;
4040678719501100;-0.0298;-0.3917;-0.0277;
4040678729575943;0.0606;0.0182;-0.0330;
4040678739677350;0.0840;0.0289;-0.0107;
4040678749778704;-0.0288;-0.0499;-0.0309;
4040678759862870;0.0213;-0.0531;-0.0565;
4040678769964173;0.0521;0.0896;-0.0075;
4040678780065579;-0.0383;0.2313;-0.0149;
4040678790180266;-0.0447;0.0502;-0.0447;
4040678800281620;-0.0160;-0.0372;-0.0469;
4040678810382923;-0.0000;0.1301;-0.0756;
4040678820500475;-0.0192;0.0342;-0.0692;
4040678830601829;-0.0256;-0.0563;-0.0735;
4040678840703183;0.0117;-0.0020;-0.0980;
4040678850784225;-0.0043;-0.0755;-0.0767;
4040678860885579;0.0064;-0.0883;-0.0991;
4040678870986933;0.0308;0.0193;-0.0863;
4040678881112454;0.0085;0.0140;-0.0873;
4040678891213808;0.0382;-0.0105;-0.0724;
4040678901315162;0.0563;0.0310;-0.0607;
4040678911424433;0.0499;0.0459;-0.0618;
4040678921525787;0.0776;0.0438;-0.0447;
4040678931627141;0.0574;0.0406;-0.0490;
4040678941703495;0.0638;0.0129;-0.0554;
4040678951804850;0.0627;0.0033;-0.0660;
4040678961906204;0.0670;0.0065;-0.0341;
4040678972047766;0.0224;-0.0467;-0.0288;
4040678982149120;0.0350;-0.0009;-0.0618;
4040678992250423;0.0075;0.0182;-0.0607;
4040679002329277;0.0149;-0.0542;-0.0383;
4040679012430579;0.0064;-0.0340;-0.0330;
4040679022531933;0.0192;-0.0361;-0.0330;
4040679032626881;0.0435;-0.0276;-0.0554;
4040679042728235;0.0553;-0.0158;-0.0192;
4040679052829589;0.0435;0.0076;-0.0181;
4040679062924225;0.0979;-0.0446;0.0075;
4040679073025579;0.0510;-0.0414;-0.0032;
4040679083126933;0.0531;-0.0126;-0.0266;
4040679093221516;0.0563;-0.0457;-0.0202;
4040679103322870;0.0393;-0.0073;-0.0405;
4040679113424225;0.0277;0.0097;-0.0373;
4040679123528183;0.0053;-0.0489;-0.0192;
4040679133629537;-0.0032;-0.0457;-0.0309;
4040679143730891;0.0096;-0.0233;-0.0330;
4040679153841516;0.0107;-0.0126;-0.0554;
4040679163942870;0.0138;-0.0222;-0.0458;
4040679174044225;0.0202;-0.0340;-0.0266;
4040679184142245;0.0288;-0.0222;-0.0256;
4040679194243600;0.0446;-0.0393;-0.0256;
4040679204344954;0.0563;-0.0254;-0.0320;
4040679214450162;0.0574;-0.0031;-0.0383;
4040679224551516;0.0734;0.0055;-0.0501;
4040679234652870;0.0851;-0.0041;-0.0565;
4040679244763391;0.0830;0.0065;-0.0501;
4040679254864745;0.1011;-0.0425;-0.0383;
4040679264966048;0.1213;-0.0340;-0.0447;
4040679275050891;0.1383;-0.0265;0.0021;
4040679285152245;0.1128;-0.0148;0.0011;
4040679295253600;0.1394;0.0214;-0.0000;
4040679305354537;0.1107;0.0023;-0.0000;
4040679315455891;0.0925;0.0001;0.0138;
4040679325557245;0.0712;0.0427;0.0318;
4040679335657558;0.0510;0.0193;0.0117;
4040679345758912;0.0489;0.0129;-0.0021;
4040679355860214;0.0372;0.0012;0.0021;
4040679365962558;0.0266;-0.0190;0.0117;
4040679376063912;0.0149;-0.0233;-0.0117;
4040679386165266;0.0531;-0.0212;-0.0053;
4040679396262558;0.0446;-0.0425;0.0233;
4040679406363912;0.0521;-0.0095;0.0585;
4040679416465214;0.0340;-0.0627;0.0542;
4040679426599016;0.0457;-0.0052;0.0233;
4040679436700318;0.0288;0.0619;0.0254;
4040679446801673;0.0053;0.0449;0.0276;
4040679456866620;-0.0149;0.0640;0.0064;
4040679466967975;-0.0160;0.0395;-0.0107;
4040679477069277;-0.0202;0.0534;0.0085;
4040679487171516;-0.0447;0.0332;-0.0011;
4040679497272870;-0.0011;0.0012;-0.0170;
4040679507374225;0.0107;0.0150;0.0107;
4040679517483912;0.0192;-0.0180;0.0393;
4040679527585266;0.0202;0.0353;0.0361;
4040679537686568;0.0478;0.0214;0.0318;
4040679547778912;0.0372;-0.0201;0.0680;
4040679557880266;0.0553;0.0353;0.0382;
4040679567981568;0.0766;0.0662;0.0265;
4040679578093079;0.0329;0.0587;0.0435;
4040679588194433;0.0553;0.0694;0.0222;
4040679598295787;0.0595;0.0278;0.0212;
4040679608397558;0.0403;-0.0126;0.0138;
4040679618498912;0.0510;-0.0318;0.0478;
4040679628600266;0.0638;-0.0446;0.0585;
4040679638689641;0.0553;-0.0286;0.0680;
4040679648790995;0.0510;-0.0467;0.0744;
4040679658892350;0.0202;-0.0659;0.0531;
4040679669007245;0.0266;0.0023;0.0595;
4040679679108600;-0.0011;0.0204;0.0318;
4040679689209954;0.0053;0.0044;0.0531;
4040679699319954;-0.0330;0.0438;0.0489;
4040679709421308;-0.0309;0.0257;0.0308;
4040679719522662;-0.0309;-0.0020;0.0521;
4040679729589173;-0.0575;0.0640;0.0329;
4040679739690475;-0.0479;0.0097;0.0244;
4040679749791881;-0.0565;0.0268;0.0361;
4040679759941516;-0.0639;0.0150;0.0297;
4040679770042818;-0.0639;-0.0574;0.0233;
4040679780144173;-0.0543;-0.0116;0.0021;
4040679790212037;-0.0383;-0.0148;0.0085;
4040679800313391;-0.0554;-0.0499;0.0350;
4040679810414693;-0.0575;-0.0297;0.0053;
4040679820552037;-0.0245;-0.0222;-0.0053;
4040679830653391;-0.0373;0.0108;-0.0021;
4040679840754693;-0.0192;0.0108;-0.0096;
4040679850832662;0.0170;-0.0084;-0.0085;
4040679860933964;0.0256;0.0481;0.0064;
4040679871035318;0.0277;0.0513;0.0340;
4040679881142610;0.0318;-0.0158;0.0286;
4040679891243964;0.0521;0.0129;-0.0256;
4040679901345266;0.0648;0.0087;-0.0021;
4040679911422870;0.0393;-0.0052;0.0032;
4040679921524225;0.0648;0.0427;-0.0021;
4040679931625579;0.0245;0.0395;-0.0309;
4040679941740162;0.0393;0.0076;-0.0192;
4040679951841516;0.0446;-0.0020;-0.0043;
4040679961942870;0.0393;0.0012;-0.0277;
4040679972041204;0.0425;0.0044;-0.0043;
4040679982142558;0.0414;-0.0009;-0.0096;
4040679992243860;0.0787;-0.0531;0.0297;
4040680002359433;0.0563;-0.0318;0.0361;
4040680012460787;0.0585;-0.0233;0.0075;
4040680022562089;0.0723;-0.0148;0.0149;
4040680032638808;0.0744;0.0715;0.0085;
4040680042740110;0.0298;0.0055;0.0286;
4040680052841464;0.0403;-0.0233;0.0169;
4040680062962141;0.0595;0.0385;0.0169;
4040680073063495;0.0160;0.0395;0.0149;
4040680083164798;0.0329;-0.0308;0.0244;
4040680093266725;0.0181;-0.0276;0.0606;
4040680103368079;-0.0000;0.0246;0.0702;
4040680113469381;-0.0277;0.0193;0.0574;
4040680123572245;-0.0458;0.0065;0.0190;
4040680133673600;-0.0309;0.0385;0.0149;
4040680143774902;-0.0469;0.0438;0.0190;
4040680153864954;-0.0490;0.0172;0.0382;
4040680163966308;-0.0586;0.0289;0.0329;
4040680174067610;-0.0501;0.0097;0.0149;
4040680184171204;-0.0277;-0.0819;0.0318;
4040680194272558;-0.0341;-0.0254;0.0244;
4040680204373860;-0.0192;0.0225;0.0393;
4040680214472454;-0.0288;-0.0276;0.0563;
4040680224573808;-0.0011;-0.0691;0.0702;
4040680234675110;-0.0117;-0.0009;0.0883;
4040680244794016;-0.0181;0.0502;0.0361;
4040680254895370;-0.0075;0.0736;0.0489;
4040680264996673;-0.0511;0.0800;0.0435;
4040680275079537;-0.0341;-0.0414;0.0670;
4040680285180891;-0.0181;0.0513;0.0350;
4040680295282245;-0.0458;0.1067;0.0107;
4040680305396464;-0.0234;-0.0063;0.0478;
4040680315497766;-0.0373;-0.0403;0.0680;
4040680325599068;-0.0309;-0.0883;0.0510;
4040680335687870;0.0032;-0.0489;0.0489;
4040680345789173;-0.0170;0.0119;0.0617;
4040680355890527;-0.0490;-0.0137;0.0542;
4040680365988704;-0.0256;-0.0063;0.0617;
4040680376090058;-0.0565;0.0033;0.0340;
4040680386191412;-0.0533;-0.0105;0.0340;
4040680396291829;-0.0724;0.1205;0.0021;
4040680406393183;-0.0788;-0.0126;0.0117;
4040680416494485;-0.0533;-0.1128;-0.0053;
4040680426617193;-0.0714;0.1067;-0.0373;
4040680436718600;-0.0969;-0.0531;-0.0192;
4040680446819902;-0.0405;-0.0936;-0.0192;
4040680456902610;-0.0352;0.0182;-0.0202;
4040680467003912;-0.0554;-0.0478;-0.0160;
4040680477105214;-0.0245;-0.0137;-0.0298;
4040680487199850;-0.0181;-0.0254;-0.0426;
4040680497301204;-0.0213;-0.0148;-0.0330;
4040680507402558;-0.0266;0.0459;-0.0586;
4040680517514902;-0.0266;0.0491;-0.0714;
4040680527616204;-0.0415;0.0555;-0.0746;
4040680537717558;-0.0352;-0.0350;-0.0778;
4040680547804381;-0.0202;-0.1192;-0.0703;
4040680557905735;0.0138;-0.0190;-0.0735;
4040680568007089;-0.0032;0.0065;-0.0724;
4040680578108287;0.0277;-0.0563;-0.0447;
4040680588209641;0.0329;-0.0585;-0.0597;
