Sensor: bmi160 Gyroscope Non-wakeup
Vendor: BOSCH
TimestampGyro [ns]; GyroX [rad/s]; GyroY [rad/s]; GyroZ [rad/s]
3101194626018858;-0.1252;-0.0056;0.0662;
3101194636126202;-0.1273;-0.0088;0.0609;
3101194646229275;-0.1156;-0.0045;0.0630;
3101194656336671;-0.1103;-0.0035;0.0619;
3101194666444067;-0.1092;-0.0024;0.0577;
3101194676547139;-0.1071;-0.0024;0.0545;
3101194686654535;-0.0985;-0.0003;0.0523;
3101194696785473;-0.0879;-0.0013;0.0491;
3101194706892817;-0.0783;-0.0024;0.0470;
3101194717000212;-0.0687;-0.0035;0.0481;
3101194727065421;-0.0613;-0.0035;0.0459;
3101194737172817;-0.0559;-0.0035;0.0427;
3101194747280160;-0.0517;-0.0035;0.0417;
3101194757386046;-0.0506;-0.0035;0.0417;
3101194767493442;-0.0517;-0.0035;0.0406;
3101194777600785;-0.0581;-0.0035;0.0374;
3101194787713858;-0.0655;-0.0045;0.0353;
3101194797821254;-0.0772;-0.0024;0.0342;
3101194807928650;-0.0911;-0.0024;0.0332;
3101194818048962;-0.1039;-0.0003;0.0342;
3101194828156358;-0.1166;-0.0013;0.0353;
3101194838263754;-0.1284;-0.0035;0.0417;
3101194848351410;-0.1326;-0.0045;0.0481;
3101194858458806;-0.1209;-0.0088;0.0555;
3101194868566202;-0.0826;-0.0120;0.0704;
3101194878678494;-0.0209;-0.0173;0.0875;
3101194888785889;-0.0060;-0.0280;0.0992;
3101194898893233;-0.0284;-0.0354;0.1035;
3101194909000837;-0.0305;-0.0322;0.1109;
3101194919108233;-0.0284;-0.0237;0.1226;
3101194929215577;-0.0220;-0.0173;0.1333;
3101194939291827;-0.0262;-0.0109;0.1407;
3101194949399171;-0.0485;-0.0120;0.1471;
3101194959506514;-0.0613;-0.0226;0.1503;
3101194969613910;-0.0559;-0.0258;0.1567;
3101194979744067;-0.0570;-0.0280;0.1631;
3101194989851462;-0.0517;-0.0248;0.1652;
3101194999958858;-0.0357;-0.0216;0.1684;
3101195010079275;-0.0220;-0.0194;0.1695;
3101195020186671;-0.0124;-0.0173;0.1706;
3101195030294067;-0.0124;-0.0184;0.1706;
3101195040378858;-0.0177;-0.0205;0.1652;
3101195050486254;-0.0305;-0.0194;0.1610;
3101195060593598;-0.0378;-0.0184;0.1589;
3101195070711358;-0.0188;-0.0099;0.1578;
3101195080818754;0.0111;-0.0035;0.1567;
3101195090926150;0.0260;-0.0067;0.1503;
3101195101041567;0.0260;-0.0099;0.1471;
3101195111148962;0.0260;-0.0088;0.1450;
3101195121256358;0.0334;-0.0056;0.1429;
3101195131351046;0.0537;-0.0024;0.1397;
3101195141458442;0.0941;0.0019;0.1365;
3101195151565785;0.1431;0.0040;0.1301;
3101195161676150;0.1570;-0.0003;0.1216;
3101195171783546;0.1304;-0.0067;0.1099;
3101195181890889;0.0952;-0.0077;0.0949;
3101195191986098;0.0771;-0.0013;0.0811;
3101195202093494;0.0728;0.0051;0.0662;
3101195212200889;0.0707;0.0083;0.0502;
3101195222352087;0.0718;0.0115;0.0321;
3101195232459483;0.0579;0.0083;0.0140;
3101195242566879;0.0313;0.0008;-0.0063;
3101195252655160;0.0238;0.0093;-0.0212;
3101195262762556;0.0324;0.0264;-0.0340;
3101195272869900;0.0313;0.0317;-0.0467;
3101195282987192;0.0068;0.0221;-0.0574;
3101195293094587;-0.0145;0.0157;-0.0702;
3101195303201931;-0.0188;0.0168;-0.0787;
3101195313288754;-0.0124;0.0104;-0.0840;
3101195323396150;-0.0007;0.0061;-0.0883;
3101195333503494;0.0302;0.0146;-0.0883;
3101195343615160;0.0728;0.0274;-0.0851;
3101195353722556;0.0877;0.0296;-0.0840;
3101195363829900;0.0718;0.0221;-0.0840;
3101195373939275;0.0505;0.0157;-0.0830;
3101195384046671;0.0249;0.0093;-0.0808;
3101195394154014;0.0089;0.0019;-0.0787;
3101195404254587;0.0132;-0.0003;-0.0734;
3101195414361983;0.0281;-0.0067;-0.0723;
3101195424469379;-0.0538;-0.0344;-0.0957;
3101195434583650;-0.1614;-0.0535;-0.0968;
3101195444691046;-0.2114;-0.0386;-0.0680;
3101195454798442;-0.0103;0.0157;-0.0510;
3101195464915004;0.0153;0.0455;-0.0446;
3101195475022400;-0.0017;0.0754;-0.0585;
3101195485129796;0.0185;0.0967;-0.0627;
3101195495226046;0.0419;0.0828;-0.0521;
3101195505333442;0.0760;0.0583;-0.0340;
3101195515440785;0.1101;0.0381;-0.0222;
3101195525555994;0.1506;0.0125;-0.0201;
3101195535663389;0.2092;-0.0077;-0.0116;
3101195545770733;0.3051;-0.0130;0.0044;
3101195555872712;0.3871;-0.0152;0.0257;
3101195565980108;0.4073;-0.0280;0.0406;
3101195576087452;0.3988;-0.0407;0.0459;
3101195586210473;0.3604;-0.0461;0.0459;
3101195596317869;0.2912;-0.0407;0.0449;
3101195606425264;0.2433;-0.0269;0.0449;
3101195616517087;0.2294;-0.0035;0.0427;
3101195626624483;0.2145;0.0115;0.0385;
3101195636731827;0.2017;0.0189;0.0332;
3101195646833129;0.2156;0.0232;0.0310;
3101195656940525;0.2497;0.0189;0.0332;
3101195667047921;0.2901;0.0072;0.0385;
3101195677153650;0.3242;-0.0099;0.0417;
3101195687261046;0.3477;-0.0301;0.0385;
3101195697368442;0.3519;-0.0461;0.0342;
3101195707485577;0.3690;-0.0503;0.0300;
3101195717592869;0.3913;-0.0418;0.0278;
3101195727700212;0.3881;-0.0344;0.0268;
3101195737805525;0.3786;-0.0248;0.0268;
3101195747912817;0.3903;-0.0120;0.0289;
3101195758020160;0.4116;-0.0056;0.0278;
3101195768121983;0.4584;0.0008;0.0321;
3101195778229275;0.5288;0.0040;0.0417;
3101195788336619;0.5447;-0.0130;0.0513;
3101195798444067;0.5096;-0.0333;0.0523;
3101195808551358;0.4638;-0.0439;0.0502;
3101195818658702;0.4393;-0.0450;0.0545;
3101195828775160;0.4276;-0.0386;0.0640;
3101195838882452;0.4190;-0.0226;0.0768;
3101195848989796;0.4020;-0.0067;0.0832;
3101195859091567;0.4308;0.0328;0.1226;
3101195869198858;0.5128;0.1402;0.2068;
3101195879306202;0.5117;0.2489;0.2057;
3101195889414327;0.2113;0.1860;0.0672;
3101195899521619;-0.2370;-0.0876;-0.0830;
3101195909628962;-0.2114;-0.2666;0.0502;
3101195919733129;0.1293;-0.1047;0.3037;
3101195929840421;0.2880;0.1083;0.4410;
3101195939947712;0.2454;0.0903;0.4112;
3101195950060212;0.1037;0.0274;0.3304;
3101195960167504;-0.0368;0.0210;0.3112;
3101195970274848;-0.1518;0.0317;0.3836;
3101195980369119;-0.1103;0.0626;0.4570;
3101195990476410;-0.0975;0.0860;0.4527;
3101196000583702;-0.1518;0.0881;0.4060;
3101196010715785;-0.2285;0.0636;0.3985;
3101196020823077;-0.2690;0.0253;0.4538;
3101196030930421;-0.2402;0.0338;0.5102;
3101196041028858;-0.2114;0.0477;0.5230;
3101196051136150;-0.2381;0.0253;0.4964;
3101196061243494;-0.2530;0.0306;0.4740;
3101196071409379;-0.2349;0.0423;0.4857;
3101196081516671;-0.2008;0.0221;0.5145;
3101196091624014;-0.1582;0.0253;0.5273;
3101196101660421;-0.1497;0.0349;0.5156;
3101196111767712;-0.2146;0.0157;0.4836;
3101196121875056;-0.3126;0.0168;0.4463;
3101196131996671;-0.4053;0.0274;0.4154;
3101196142103962;-0.4714;0.0104;0.3900;
3101196152211306;-0.5076;0.0051;0.3517;
3101196162297244;-0.5300;0.0200;0.3048;
3101196172404535;-0.5715;0.0125;0.2590;
3101196182511879;-0.6067;0.0061;0.2217;
3101196192649587;-0.6269;0.0157;0.1961;
3101196202756879;-0.6301;0.0146;0.1706;
3101196212864223;-0.6035;0.0083;0.1386;
3101196222954900;-0.5470;0.0115;0.1056;
3101196233062192;-0.5023;0.0040;0.0811;
3101196243169535;-0.4746;-0.0130;0.0651;
3101196253268233;-0.4447;-0.0205;0.0534;
3101196263375525;-0.4011;-0.0248;0.0406;
3101196273482869;-0.3553;-0.0280;0.0214;
3101196283587087;-0.3180;-0.0280;-0.0009;
3101196293694379;-0.2775;-0.0290;-0.0169;
3101196303801723;-0.2285;-0.0301;-0.0254;
3101196313918546;-0.1656;-0.0280;-0.0254;
3101196324025837;-0.0868;-0.0237;-0.0254;
3101196334133181;-0.0092;-0.0120;-0.0329;
3101196344235942;0.0228;-0.0077;-0.0457;
3101196354343233;0.0068;-0.0162;-0.0627;
3101196364450577;0.0025;-0.0248;-0.0712;
3101196374565942;0.0068;-0.0280;-0.0712;
3101196384673233;0.0164;-0.0248;-0.0734;
3101196394780577;0.0206;-0.0194;-0.0862;
3101196404883129;0.0196;-0.0141;-0.1021;
3101196414990421;0.0121;-0.0109;-0.1107;
3101196425097764;0.0100;-0.0109;-0.1128;
3101196435206775;0.0153;-0.0088;-0.1053;
3101196445314067;0.0206;-0.0013;-0.1021;
3101196455421410;0.0217;0.0072;-0.1053;
3101196465548337;0.0111;0.0125;-0.1128;
3101196475655629;0.0068;0.0146;-0.1181;
3101196485762973;0.0089;0.0083;-0.1181;
3101196495858337;0.0217;-0.0013;-0.1117;
3101196505965629;0.0483;0.0008;-0.0989;
3101196516072973;0.0931;0.0051;-0.0798;
3101196526173754;0.1410;0.0008;-0.0627;
3101196536281046;0.1698;-0.0013;-0.0510;
3101196546388389;0.1889;0.0083;-0.0478;
3101196556495733;0.2060;0.0221;-0.0478;
3101196566603025;0.2007;0.0136;-0.0446;
3101196576710369;0.1772;-0.0109;-0.0350;
3101196586807921;0.1698;-0.0184;-0.0297;
3101196596915212;0.1911;0.0125;-0.0222;
3101196607022556;0.2028;0.0402;-0.0137;
3101196617161567;0.1794;0.0274;-0.0063;
3101196627268858;0.1165;0.0125;-0.0073;
3101196637376202;0.0387;0.0093;-0.0095;
3101196647464379;-0.0113;0.0115;-0.0105;
3101196657571671;-0.0188;0.0146;-0.0158;
3101196667679014;-0.0188;0.0253;-0.0212;
3101196677777087;-0.0273;0.0296;-0.0201;
3101196687884379;-0.0220;0.0232;-0.0190;
3101196697991723;-0.0252;0.0200;-0.0201;
3101196708118962;-0.0368;0.0157;-0.0190;
3101196718226306;-0.0336;0.0061;-0.0137;
3101196728333598;-0.0241;0.0083;-0.0212;
3101196738428858;-0.0273;0.0210;-0.0414;
3101196748536202;-0.0262;-0.0013;-0.0510;
3101196758643494;-0.0220;-0.0237;-0.0478;
3101196768754275;-0.0198;-0.0067;-0.0329;
3101196778861619;-0.0156;0.0008;-0.0222;
3101196788968910;-0.0198;0.0019;-0.0254;
3101196799071983;-0.0241;0.0008;-0.0350;
3101196809179327;-0.0305;-0.0067;-0.0457;
3101196819286619;-0.0357;-0.0120;-0.0361;
3101196829398077;-0.0346;-0.0173;-0.0201;
3101196839505421;-0.0357;-0.0099;-0.0137;
3101196849612712;-0.0453;-0.0248;-0.0180;
3101196859709171;-0.0644;-0.0301;-0.0361;
3101196869816514;-0.1316;-0.0258;-0.0510;
3101196879923806;-0.1731;-0.0130;-0.0467;
3101196890052660;-0.1891;0.0189;-0.0361;
3101196900160004;-0.2221;0.0040;-0.0297;
3101196910267296;-0.2359;-0.0162;-0.0403;
3101196920348129;-0.2455;-0.0067;-0.0510;
3101196930455421;-0.2743;0.0157;-0.0435;
3101196940562764;-0.3020;0.0296;-0.0393;
3101196950686567;-0.3031;0.0434;-0.0425;
3101196960793858;-0.2594;0.0732;-0.0489;
3101196970901202;-0.2498;0.0881;-0.0531;
3101196981023233;-0.2700;0.0487;-0.0585;
3101196991130577;-0.2445;0.0317;-0.0457;
3101197001237869;-0.2072;0.0786;-0.0297;
3101197011350525;-0.2083;0.0892;-0.0233;
3101197021457869;-0.2200;0.0423;-0.0276;
3101197031565160;-0.2274;0.0146;-0.0276;
3101197041649692;-0.2541;0.0051;-0.0158;
3101197051757035;-0.3073;0.0040;0.0012;
3101197061864327;-0.3201;0.0349;0.0023;
3101197071983546;-0.3158;0.0541;-0.0148;
3101197082090889;-0.3297;0.0700;-0.0254;
3101197092198181;-0.3872;0.0562;-0.0265;
3101197102289483;-0.4341;0.0668;-0.0276;
3101197112396827;-0.4799;0.1009;-0.0521;
3101197122504119;-0.5086;0.1063;-0.0840;
3101197132612296;-0.5821;0.0796;-0.1096;
3101197142719639;-0.6768;0.0573;-0.1266;
3101197152826931;-0.7588;0.0605;-0.1575;
3101197162934171;-0.7727;0.0711;-0.1937;
3101197173041514;-0.8185;0.0945;-0.2245;
3101197183148806;-0.9346;0.0935;-0.2426;
3101197193260421;-1.0113;0.0764;-0.2863;
3101197203367764;-1.0230;0.0967;-0.3332;
3101197213475056;-1.0560;0.1125;-0.3555;
3101197223579900;-1.0965;0.1052;-0.3779;
3101197233687244;-1.1029;0.1063;-0.4152;
3101197243794535;-1.0454;0.1125;-0.4514;
3101197253902192;-0.9548;0.1455;-0.4791;
3101197264009535;-0.9229;0.1764;-0.4940;
3101197274116827;-0.9240;0.1052;-0.5164;
3101197284219483;-0.8728;0.0700;-0.5313;
3101197294326827;-0.7546;0.1381;-0.5387;
3101197304434119;-0.6470;0.1455;-0.5441;
3101197314550160;-0.5268;0.0860;-0.5324;
3101197324657504;-0.3691;0.0679;-0.4919;
3101197334764796;-0.2455;0.0658;-0.4610;
3101197344869067;-0.2125;0.0210;-0.4471;
3101197354976410;-0.1997;-0.0407;-0.4301;
3101197365083702;-0.0858;-0.0205;-0.4045;
3101197375199067;0.0015;0.0200;-0.3704;
3101197385306410;-0.0273;-0.0322;-0.3268;
3101197395413702;-0.0028;-0.0322;-0.2969;
3101197405512608;0.1005;0.0605;-0.2650;
3101197415619952;0.0877;0.0573;-0.2352;
3101197425727244;0.0238;0.0061;-0.2138;
3101197435833546;0.1154;0.0498;-0.1724;
3101197445940889;0.1911;0.0658;-0.1362;
3101197456048181;0.1623;0.0136;-0.1053;
3101197466151775;0.2028;-0.0045;-0.0830;
3101197476259119;0.3754;0.0285;-0.0638;
3101197486366410;0.4606;0.0445;-0.0435;
3101197496486358;0.4329;0.0072;-0.0095;
3101197506593702;0.4616;0.0008;0.0033;
3101197516700994;0.5021;0.0189;0.0076;
3101197526805108;0.4435;-0.0024;0.0257;
3101197536912452;0.4265;-0.0269;0.0214;
3101197547019744;0.4915;0.0168;0.0097;
3101197557123650;0.4339;0.0466;0.0332;
3101197567230994;0.3040;0.0093;0.0449;
3101197577338285;0.2901;0.0115;0.0161;
3101197587446567;0.2901;0.0423;-0.0009;
3101197597553910;0.2092;0.0061;0.0012;
3101197607661202;0.1858;-0.0162;0.0023;
3101197617765004;0.2454;0.0328;-0.0084;
3101197627872348;0.2635;0.0285;-0.0084;
3101197637979639;0.2614;0.0104;-0.0222;
3101197648087296;0.3114;0.0509;-0.0201;
3101197658194639;0.3455;0.0498;-0.0095;
3101197668301931;0.3732;0.0423;-0.0265;
3101197678422712;0.4318;0.0871;-0.0126;
3101197688530056;0.4521;0.0881;0.0140;
3101197698637348;0.4308;0.0647;-0.0009;
3101197708737244;0.4254;0.0636;0.0023;
3101197718844535;0.4212;0.0541;0.0193;
3101197728951879;0.3935;0.0839;0.0150;
3101197739062660;0.3658;0.1031;0.0470;
3101197749169952;0.3274;0.0573;0.0630;
3101197759277296;0.2965;0.0743;0.0491;
3101197769370317;0.2891;0.0732;0.0747;
3101197779477608;0.2294;0.0189;0.0577;
3101197789584952;0.1495;-0.0141;0.0449;
3101197799723650;0.1037;-0.0812;0.0449;
3101197809830942;0.1122;-0.0386;0.0182;
3101197819938285;0.1314;0.0562;0.0140;
3101197830026827;0.0206;0.0040;-0.0276;
3101197840134119;-0.1358;-0.0525;-0.0531;
3101197850241462;-0.3073;-0.0045;-0.0936;
3101197860331046;-0.5331;0.0541;-0.1831;
3101197870438337;-0.7397;0.0700;-0.2426;
3101197880545681;-0.9357;0.0839;-0.3172;
3101197890687400;-1.0987;0.1031;-0.3587;
3101197900794692;-1.1999;0.0711;-0.4088;
3101197910902035;-1.2286;0.1466;-0.4557;
3101197920979171;-1.1796;0.2052;-0.4557;
3101197931086462;-1.1391;0.1146;-0.4897;
3101197941193806;-1.1189;0.1423;-0.5036;
3101197951302400;-1.0805;0.1498;-0.5174;
3101197961409692;-0.9793;0.0764;-0.5238;
3101197971517035;-0.8196;0.0818;-0.5164;
3101197981648025;-0.6290;0.0647;-0.5196;
3101197991755317;-0.4117;0.0935;-0.4972;
3101198001862660;-0.2072;0.0764;-0.4791;
3101198011958129;-0.1049;0.0115;-0.4471;
3101198022065421;0.0952;0.0700;-0.4194;
3101198032172764;0.1612;0.0455;-0.4088;
3101198042277817;0.1517;-0.0184;-0.3736;
3101198052385108;0.3008;0.0477;-0.3651;
3101198062492452;0.3104;0.0423;-0.3427;
3101198072592296;0.3168;0.0104;-0.3076;
3101198082699587;0.3296;0.0306;-0.2980;
3101198092806931;0.3413;0.0274;-0.2554;
3101198102926671;0.3253;-0.0322;-0.2245;
3101198113033962;0.2987;-0.0216;-0.1810;
3101198123141306;0.3200;-0.0056;-0.1352;
3101198133248077;0.2422;-0.0418;-0.0915;
3101198143355369;0.2071;-0.0567;-0.0340;
3101198153462712;0.1975;-0.0482;-0.0286;
3101198163565942;0.1101;-0.0344;0.0076;
3101198173673233;0.0494;-0.0205;0.0417;
3101198183780577;-0.0783;-0.0397;0.0513;
3101198193903858;-0.1369;-0.0269;0.0715;
3101198204011150;-0.1688;0.0061;0.0672;
3101198214118494;-0.2455;0.0178;0.0843;
3101198224213442;-0.3222;0.0168;0.1194;
3101198234320733;-0.4192;0.0189;0.0939;
3101198244428077;-0.5001;-0.0162;0.0832;
3101198254531775;-0.5300;-0.0003;0.0640;
3101198264639067;-0.5981;0.0146;0.0459;
3101198274746410;-0.6864;-0.0056;0.0427;
3101198284874067;-0.7088;0.0157;0.0161;
3101198294981358;-0.7194;0.0370;0.0055;
3101198305088702;-0.7439;0.0093;-0.0116;
3101198315183442;-0.7546;0.0146;-0.0446;
3101198325290733;-0.7077;0.0434;-0.0414;
3101198335398077;-0.6896;0.0146;-0.0531;
3101198345530421;-0.6747;0.0040;-0.0872;
3101198355637712;-0.5736;0.0221;-0.0979;
3101198365745056;-0.5459;0.0083;-0.1256;
3101198375826358;-0.5449;0.0136;-0.1266;
3101198385933650;-0.5150;0.0019;-0.1479;
3101198396040994;-0.4937;0.0328;-0.1959;
3101198406146827;-0.4799;0.0668;-0.1959;
3101198416254119;-0.4820;0.0253;-0.2075;
3101198426361462;-0.4714;0.0626;-0.2234;
3101198436485525;-0.4138;0.0839;-0.2511;
3101198446592817;-0.4117;0.0200;-0.2980;
3101198456700160;-0.3563;0.0477;-0.2895;
3101198466785942;-0.2551;0.0530;-0.3001;
3101198476893233;-0.2359;0.0072;-0.3321;
3101198487000577;-0.2061;0.0338;-0.3385;
3101198497113077;-0.1273;0.0168;-0.3651;
3101198507220369;-0.0613;0.0093;-0.3843;
3101198517327712;0.0686;0.0487;-0.3758;
3101198527438233;0.1666;0.0477;-0.3928;
3101198537545525;0.1953;0.0551;-0.3704;
3101198547652869;0.3210;0.0945;-0.3726;
3101198557759692;0.4318;0.0956;-0.4109;
3101198567866983;0.5458;0.1020;-0.3939;
3101198577974327;0.7001;0.1232;-0.4237;
3101198588071046;0.7363;0.0807;-0.4802;
3101198598178337;0.8663;0.0146;-0.4599;
3101198608285681;1.0069;-0.0109;-0.3907;
3101198618398650;1.0889;-0.0439;-0.2820;
3101198628505942;1.2784;0.0019;-0.2490;
3101198638613285;1.3903;0.0178;-0.2746;
3101198648721150;1.4243;-0.0130;-0.2533;
3101198658828442;1.5628;0.0455;-0.2277;
3101198668935785;1.6182;0.0477;-0.1714;
3101198679072712;1.6310;0.0285;-0.0776;
3101198689180004;1.6704;0.0189;-0.0265;
3101198699287348;1.6406;-0.0280;0.0449;
3101198709366462;1.6193;-0.0216;0.1269;
3101198719473806;1.5809;-0.0248;0.1940;
3101198729581098;1.5245;-0.0035;0.2867;
3101198739680160;1.4989;0.0615;0.3367;
3101198749787504;1.3295;0.0743;0.3730;
3101198759894796;1.1443;0.1242;0.4229;
3101198770009275;0.9281;0.1573;0.4092;
3101198780116619;0.6490;0.1700;0.4240;
3101198790223910;0.4233;0.1945;0.4293;
3101198800343233;0.1762;0.1679;0.4250;
3101198810450577;0.0430;0.1477;0.4463;
3101198820557869;-0.1433;0.1402;0.4367;
3101198830651202;-0.3382;0.1328;0.4378;
3101198840758546;-0.3936;0.1200;0.4144;
3101198850865837;-0.5086;0.0892;0.3889;
3101198860963025;-0.5779;0.1020;0.3751;
3101198871070369;-0.6312;0.1009;0.3325;
3101198881177660;-0.7642;0.0807;0.3218;
3101198891332973;-0.8206;0.1178;0.2888;
3101198901440317;-0.8632;0.1636;0.2196;
3101198911547608;-0.8313;0.1626;0.1823;
3101198921634483;-0.7791;0.1083;0.1162;
3101198931741827;-0.7429;0.0977;0.1013;
3101198941849119;-0.5598;0.1189;0.0960;
3101198951939796;-0.4692;0.0924;0.0896;
3101198962047139;-0.3989;0.0722;0.1141;
3101198972154431;-0.2615;0.0402;0.0981;
3101198982297921;-0.1401;0.0477;0.1035;
3101198992405264;-0.0485;0.0381;0.1067;
3101199002512556;-0.0252;0.0413;0.1173;
3101199012581775;0.0324;0.0711;0.1141;
3101199022689119;0.0292;0.0764;0.0960;
3101199032796410;-0.0060;0.1020;0.1226;
3101199042910837;-0.0399;0.0924;0.1067;
3101199053018181;-0.0921;0.0722;0.1152;
3101199063125473;-0.1273;0.0647;0.1013;
3101199073235212;-0.1838;0.0477;0.0896;
3101199083342504;-0.2455;0.0466;0.0907;
3101199093449848;-0.3616;0.0328;0.0640;
3101199103552921;-0.4426;0.0583;0.0502;
3101199113660264;-0.4991;0.0583;0.0353;
3101199123767556;-0.5821;0.0796;0.0470;
3101199133872400;-0.6523;0.1031;0.0076;
3101199143979744;-0.7130;0.1052;-0.0020;
3101199154087035;-0.7194;0.1115;-0.0244;
3101199164215473;-0.7503;0.0743;-0.0254;
3101199174322817;-0.7194;0.0818;-0.0446;
3101199184430108;-0.6704;0.0636;-0.0648;
3101199194545837;-0.6736;0.0253;-0.0680;
3101199204653181;-0.6088;0.0008;-0.0798;
3101199214760473;-0.5012;-0.0099;-0.0638;
3101199224845160;-0.3499;0.0072;-0.0776;
3101199234952504;-0.2615;0.0253;-0.0585;
3101199245059796;-0.1923;0.0615;-0.0595;
3101199255164171;-0.1507;0.0360;-0.0435;
3101199265271514;-0.1273;0.0381;-0.0222;
3101199275378806;-0.0889;0.0764;-0.0158;
3101199285482921;-0.0666;0.0818;0.0076;
3101199295590264;-0.0474;0.0509;-0.0031;
3101199305697556;0.0153;0.0626;0.0310;
3101199315802192;0.0824;0.0764;0.0161;
3101199325909535;0.0750;0.0562;0.0172;
3101199336016827;-0.0028;0.0434;0.0225;
3101199346152400;-0.0623;0.0136;0.0023;
3101199356259744;-0.1092;0.0168;0.0108;
3101199366367035;-0.1529;0.0051;-0.0286;
3101199376456046;-0.1731;-0.0162;-0.0340;
3101199386563389;-0.2008;-0.0130;-0.0489;
3101199396670681;-0.2019;-0.0439;-0.0680;
3101199406768129;-0.2114;-0.0344;-0.0595;
3101199416875421;-0.2072;-0.0120;-0.0936;
3101199426982764;-0.2381;-0.0397;-0.0883;
3101199437116983;-0.2636;-0.0162;-0.1011;
3101199447224327;-0.2338;-0.0130;-0.1373;
3101199457331619;-0.2466;0.0029;-0.1309;
3101199467426879;-0.2477;0.0051;-0.1511;
3101199477534223;-0.2157;-0.0162;-0.1511;
3101199487641514;-0.1710;0.0061;-0.1554;
3101199497759587;-0.1092;-0.0024;-0.1714;
3101199507866931;-0.1071;0.0061;-0.1554;
3101199517974223;-0.1028;-0.0077;-0.1735;
3101199528071775;-0.0996;-0.0354;-0.1660;
3101199538179119;-0.0762;-0.0077;-0.1607;
3101199548286410;-0.0336;-0.0248;-0.1810;
3101199558393233;-0.0209;-0.0386;-0.1682;
3101199568500577;0.0281;-0.0120;-0.1810;
3101199578607869;0.0569;0.0061;-0.1799;
3101199588711150;0.0451;0.0381;-0.1692;
3101199598818494;0.0217;0.0519;-0.2213;
3101199608925785;-0.0039;0.0253;-0.2149;
3101199619028129;0.0292;0.0008;-0.2075;
3101199629135473;0.0345;0.0083;-0.2202;
3101199639242764;0.0281;0.0189;-0.2096;
3101199649351410;0.0292;0.0264;-0.2213;
3101199659458754;0.0121;0.0200;-0.1842;
3101199669566046;0.0430;0.0115;-0.2011;
3101199679671827;0.0760;0.0285;-0.1979;
3101199689779171;0.0750;0.0242;-0.1873;
3101199699886462;0.0909;0.0541;-0.1937;
3101199709996775;0.0952;0.0477;-0.1756;
3101199720104119;0.1495;0.0328;-0.1948;
3101199730211462;0.1826;0.0562;-0.1724;
3101199740326775;0.1996;0.0594;-0.1618;
3101199750434119;0.2103;0.0519;-0.1607;
3101199760541410;0.2678;0.0754;-0.1490;
3101199770648650;0.3125;0.0807;-0.1543;
3101199780755994;0.3594;0.0935;-0.1245;
3101199790863337;0.4041;0.1242;-0.1181;
3101199800955317;0.4276;0.1200;-0.0925;
3101199811062660;0.4723;0.1083;-0.1032;
3101199821170004;0.5075;0.0977;-0.0851;
3101199831302296;0.5298;0.0956;-0.0702;
3101199841409639;0.5277;0.0839;-0.0712;
3101199851516983;0.5383;0.0573;-0.0073;
3101199861633546;0.5245;0.0509;-0.0201;
3101199871740889;0.5543;0.0519;0.0033;
3101199881848233;0.5341;0.0168;-0.0116;
3101199891930837;0.5650;-0.0546;0.0374;
3101199902038181;0.5628;-0.1206;0.0321;
3101199912145525;0.5554;-0.1185;0.0427;
3101199922282087;0.4925;-0.1025;0.0268;
3101199932389431;0.4766;-0.0983;0.0140;
3101199942496775;0.4957;-0.0312;0.0545;
3101199952569171;0.4670;-0.0184;0.0406;
3101199962676514;0.5064;0.0754;0.0342;
3101199972783858;0.4798;0.1732;-0.0020;
3101199982890837;0.4308;0.1020;0.0555;
3101199992998181;0.4861;0.0008;0.0651;
3101200003105525;0.5746;-0.0589;0.0822;
3101200013213442;0.4350;-0.0514;0.0566;
3101200023320785;0.3125;-0.0706;0.0630;
3101200033428129;0.3253;-0.1174;0.0438;
3101200043537660;0.3551;-0.1228;0.0481;
3101200053645004;0.2965;-0.1111;0.0502;
3101200063752348;0.2997;-0.1313;0.0364;
3101200073865629;0.2997;-0.1409;0.0449;
3101200083972973;0.2593;-0.0855;0.0172;
3101200094080317;0.2134;-0.0972;0.0257;
3101200104187504;0.2230;-0.1100;0.0044;
3101200114294848;0.2220;-0.1281;0.0087;
3101200124402192;0.2262;-0.1718;-0.0031;
3101200134508650;0.2230;-0.1579;-0.0020;
3101200144615994;0.2284;-0.1739;-0.0308;
3101200154723337;0.2305;-0.1803;-0.0340;
3101200164835004;0.2550;-0.1675;-0.0329;
3101200174942348;0.2486;-0.1888;-0.0403;
3101200185049639;0.2486;-0.1515;-0.0574;
3101200195182244;0.2486;-0.1121;-0.0947;
3101200205289587;0.2678;-0.1483;-0.0830;
3101200215396931;0.2688;-0.1334;-0.0904;
3101200225487817;0.2667;-0.0525;-0.1011;
3101200235595160;0.2539;0.0285;-0.1511;
3101200245702504;0.2518;-0.0226;-0.1682;
3101200255804067;0.2880;-0.0599;-0.1597;
3101200265911410;0.3072;-0.0077;-0.1639;
3101200276018754;0.3029;-0.0216;-0.1618;
3101200286123754;0.3040;-0.1132;-0.1415;
3101200296231098;0.3423;-0.1622;-0.0862;
3101200306338442;0.3604;-0.1281;-0.0872;
3101200316446462;0.3423;-0.0876;-0.0638;
3101200326553806;0.2923;-0.0546;-0.0648;
3101200336661150;0.2774;0.0786;-0.0595;
3101200346788650;0.2912;0.0615;-0.0723;
3101200356895994;0.3061;0.0594;-0.0595;
3101200367003337;0.2891;0.0594;-0.0830;
3101200377088650;0.3008;0.0104;-0.0659;
3101200387195994;0.2838;0.0402;-0.0478;
3101200397303337;0.2763;0.0274;-0.0137;
3101200407420837;0.2624;0.0008;0.0246;
3101200417528181;0.2624;-0.0162;0.0374;
3101200427635525;0.2965;-0.0216;0.0800;
3101200437741567;0.2795;0.0487;0.0694;
3101200447848910;0.3019;0.0168;0.1067;
3101200457956254;0.2635;-0.1142;0.1493;
3101200468079692;0.2965;-0.0525;0.1844;
3101200478187035;0.3221;0.0839;0.1567;
3101200488294379;0.3051;0.1083;0.1759;
3101200498381358;0.2688;0.0690;0.2025;
3101200508488702;0.2646;0.0690;0.2036;
3101200518595994;0.2997;0.0892;0.2238;
3101200528702400;0.2688;0.0786;0.2270;
3101200538809744;0.2742;0.0807;0.2728;
3101200548917087;0.2465;0.0871;0.2664;
3101200559018494;0.2326;0.0573;0.3059;
3101200569125837;0.2454;0.0008;0.3101;
3101200579233181;0.2411;0.0317;0.2867;
3101200589341410;0.2358;0.0242;0.3069;
3101200599448754;0.2177;0.0253;0.2846;
3101200609556098;0.2241;0.0509;0.2963;
3101200619653233;0.2092;0.0519;0.2792;
3101200629760577;0.2177;0.0551;0.3069;
3101200639867921;0.1879;0.0679;0.2952;
3101200649976254;0.1666;0.0541;0.2654;
3101200660083598;0.1474;0.0796;0.2590;
3101200670190942;0.1122;0.0679;0.2366;
3101200680295004;0.0995;0.0445;0.2355;
3101200690402296;0.0899;0.0636;0.2089;
3101200700509692;0.0877;0.0178;0.1951;
3101200710680785;0.0792;0.0274;0.1780;
3101200720788233;0.0590;0.0274;0.1642;
3101200730895681;0.0675;0.0115;0.1471;
3101200740943962;0.0973;0.0104;0.1120;
3101200751051410;0.1208;-0.0589;0.1258;
3101200761158858;0.1016;-0.0589;0.1056;
3101200771309171;0.1261;-0.0269;0.0885;
3101200781416619;0.1218;0.0136;0.1024;
3101200791524067;0.0803;0.0786;0.0832;
3101200801612296;0.0622;0.0253;0.0811;
3101200811719744;0.0782;0.0061;0.0470;
3101200821827192;0.1272;0.0221;0.0332;
3101200831935629;0.1112;0.0434;0.0193;
3101200842043077;0.0771;0.0530;0.0150;
3101200852150525;0.0760;0.0434;0.0268;
3101200862274692;0.0856;-0.0130;0.0289;
3101200872382139;0.1091;-0.0407;0.0257;
3101200882489587;0.1112;-0.0258;0.0087;
3101200892584275;0.0835;-0.0322;0.0214;
3101200902691723;0.0792;-0.0354;0.0289;
3101200912799171;0.0803;-0.0375;0.0278;
3101200922882400;0.1240;-0.0013;0.0513;
3101200932989848;0.1133;0.0146;0.0640;
3101200943097296;0.0632;-0.0024;0.0353;
3101200953217087;0.0686;0.0125;0.0640;
3101200963324535;0.0739;0.0285;0.0534;
3101200973431983;0.0643;0.0317;0.0449;
3101200983541358;0.0590;0.0296;0.0683;
3101200993648806;0.0185;-0.0077;0.0513;
3101201003756254;0.0228;-0.0109;0.0545;
3101201013856254;0.0494;0.0221;0.0640;
3101201023963702;0.0462;-0.0045;0.0640;
3101201034071150;0.0739;-0.0130;0.0832;
3101201044174275;0.1016;0.0509;0.1109;
3101201054281723;0.0334;0.0285;0.0939;
3101201064389119;0.0441;0.0296;0.1226;
3101201074503442;0.0505;0.0679;0.1130;
3101201084610889;-0.1262;0.0061;0.1035;
3101201094718337;-0.2722;-0.1153;0.1152;
3101201104813025;-0.2008;-0.1611;0.1280;
3101201114920473;-0.0378;-0.0812;0.1024;
3101201125027921;0.0750;-0.0088;0.0981;
3101201135147087;0.0760;-0.0173;0.0896;
3101201145254535;0.0153;0.0029;0.1035;
3101201155361983;-0.0485;-0.0407;0.1503;
3101201165466410;-0.0826;-0.0897;0.1375;
3101201175573858;-0.0623;-0.0056;0.1333;
3101201185681306;-0.0634;0.0029;0.1386;
3101201195815004;-0.0900;-0.0088;0.1354;
3101201205922452;-0.1454;-0.0152;0.1237;
3101201216029848;-0.1816;0.0157;0.1141;
3101201226134900;-0.1987;0.0146;0.1056;
3101201236242348;-0.1965;0.0104;0.0843;
3101201246349796;-0.1901;0.0115;0.0758;
3101201256434587;-0.1944;-0.0099;0.0683;
3101201266542035;-0.1614;-0.0450;0.0545;
3101201276649483;-0.1198;-0.0333;0.0566;
3101201286761775;-0.1529;0.0274;0.0555;
3101201296869223;-0.2072;0.0157;0.0012;
3101201306976671;-0.1710;-0.1036;0.0204;
3101201317075577;-0.1699;-0.0791;0.0065;
3101201327183025;-0.1060;0.2009;-0.0180;
3101201337290473;-0.1582;0.1828;-0.0670;
3101201347402921;-0.2445;0.0200;-0.0947;
3101201357510369;-0.3222;0.0136;-0.1107;
3101201367617817;-0.3627;0.0146;-0.1096;
3101201377728129;-0.3084;0.0200;-0.1373;
3101201387835577;-0.2019;0.0083;-0.1842;
3101201397943025;-0.0506;0.0210;-0.1533;
3101201408048494;-0.0188;0.0487;-0.1362;
3101201418155942;-0.0698;0.0093;-0.1671;
3101201428263389;-0.0591;-0.0120;-0.1852;
3101201438383962;-0.0113;0.0221;-0.1511;
3101201448491410;0.0089;-0.0024;-0.1341;
3101201458598858;0.0515;0.0274;-0.1746;
3101201468706046;0.0814;0.0509;-0.1799;
3101201478813494;-0.0198;0.0051;-0.1788;
3101201488920942;-0.0495;-0.0088;-0.1895;
3101201499012192;-0.0103;-0.0024;-0.1639;
3101201509119639;0.0132;0.0040;-0.1405;
3101201519227087;0.0686;0.0328;-0.1511;
3101201529353233;0.0430;0.0285;-0.1618;
3101201539460681;0.0174;-0.0237;-0.1458;
3101201549568129;0.1080;0.0040;-0.1320;
3101201559648546;0.1868;0.0391;-0.1234;
3101201569755994;0.2092;0.0391;-0.1192;
3101201579863442;0.2198;0.0445;-0.1107;
3101201589980212;0.1964;0.0360;-0.0830;
3101201600087660;0.1804;0.0242;-0.0712;
3101201610195108;0.1985;0.0019;-0.0680;
3101201620292712;0.2497;0.0146;-0.0499;
3101201630400160;0.2880;0.0008;-0.0308;
3101201640507608;0.3423;0.0136;-0.0244;
3101201650671358;0.4094;0.0157;-0.0052;
3101201660778806;0.4286;-0.0067;0.0150;
3101201670886254;0.4084;0.0083;0.0364;
3101201680932296;0.3935;0.0146;0.0449;
3101201691039744;0.4105;0.0200;0.0726;
3101201701147192;0.4094;0.0029;0.1152;
3101201711304171;0.3924;0.0115;0.1312;
3101201721411619;0.3487;0.0019;0.1471;
3101201731519014;0.3093;0.0487;0.1461;
3101201741601150;0.1900;-0.0514;0.1674;
3101201751708598;0.1953;-0.0961;0.1834;
3101201761815994;0.2039;-0.0088;0.1770;
3101201771933806;0.1911;0.0232;0.1695;
3101201782041254;0.1772;0.0040;0.1961;
3101201792148650;0.1101;-0.0109;0.2100;
3101201802269692;0.0718;-0.0077;0.1961;
3101201812377139;0.0281;0.0338;0.1727;
3101201822484535;0.0174;0.0221;0.1759;
3101201832551827;0.0047;0.0285;0.1642;
3101201842659223;-0.0305;0.0423;0.1663;
3101201852766671;-0.0368;0.0466;0.1322;
3101201862880421;-0.0230;0.0679;0.1237;
3101201872987869;-0.0357;0.0573;0.1226;
3101201883095264;-0.0570;-0.0130;0.1120;
3101201893194692;-0.0602;-0.0205;0.1141;
3101201903302139;-0.0410;-0.0344;0.0864;
3101201913409535;0.0047;-0.0567;0.0896;
3101201923521254;0.0260;-0.0258;0.0928;
3101201933628650;0.0675;-0.0344;0.1056;
3101201943736098;0.0505;0.0338;0.0981;
3101201953858077;0.0707;0.0328;0.1003;
3101201963965525;0.0856;-0.0344;0.1120;
3101201974072921;0.0782;0.0434;0.0960;
3101201984171827;0.0835;0.0509;0.0864;
3101201994279275;0.0760;0.0253;0.0917;
3101202004386671;0.0654;0.0125;0.1035;
3101202014488442;0.0707;0.0093;0.1077;
3101202024595889;0.0856;0.0530;0.1077;
3101202034703285;0.0995;0.0530;0.0896;
3101202044813442;0.0846;0.0264;0.0960;
3101202054920889;0.0632;0.0178;0.1024;
3101202065028285;0.0664;0.0019;0.0960;
3101202075132192;0.0846;-0.0344;0.0981;
3101202085239587;0.0771;-0.0386;0.1035;
3101202095347035;0.0984;0.0232;0.0917;
3101202105446254;0.0931;0.0168;0.0704;
3101202115553702;0.0941;-0.0301;0.1109;
3101202125661098;0.0941;0.0051;0.1258;
3101202135776150;0.1229;0.0668;0.1258;
3101202145883546;0.1048;0.0732;0.1365;
3101202155990994;0.0654;0.0061;0.1514;
3101202166099275;0.0505;-0.0141;0.1375;
3101202176206723;0.0643;0.0370;0.1546;
3101202186314119;0.0643;0.0264;0.1642;
3101202196451358;0.0622;-0.0162;0.1684;
3101202206558806;0.0324;-0.0045;0.1461;
3101202216666202;0.0419;-0.0162;0.1503;
3101202226766046;0.0430;-0.0322;0.1684;
3101202236873494;0.0185;-0.0109;0.1748;
3101202246980889;0.0015;-0.0354;0.1557;
3101202257065525;0.0121;-0.0450;0.1770;
3101202267172973;0.0047;0.0615;0.1770;
3101202277280369;-0.0241;0.0296;0.1429;
3101202287393442;-0.0794;-0.0802;0.1557;
3101202297500837;-0.1039;-0.0333;0.1674;
3101202307608285;-0.0549;0.0296;0.1631;
3101202317726567;-0.0676;-0.0013;0.1727;
3101202327834014;-0.0996;-0.0248;0.1674;
3101202337941410;-0.0879;-0.0184;0.1652;
3101202348045421;-0.0815;0.0146;0.1642;
3101202358152869;-0.0858;0.0328;0.1716;
3101202368260264;-0.1209;0.0360;0.1599;
3101202378367244;-0.1507;-0.0024;0.1471;
3101202388474692;-0.1443;0.0296;0.1599;
3101202398582087;-0.1752;0.0679;0.1205;
3101202408676879;-0.2157;-0.0344;0.1173;
3101202418784275;-0.2061;-0.0312;0.1035;
3101202428891723;-0.1337;0.0509;0.0854;
3101202439021567;-0.1081;0.0264;0.0747;
3101202449128910;-0.1443;0.0125;0.0981;
3101202459236358;-0.1550;0.0285;0.1077;
3101202469343754;-0.1294;0.0658;0.1173;
3101202479428754;-0.1454;0.0722;0.1152;
3101202489536202;-0.1987;0.0264;0.1013;
3101202499643598;-0.2051;0.0285;0.0896;
3101202509760837;-0.1912;0.0391;0.0768;
3101202519868233;-0.1997;0.0125;0.0864;
3101202529975681;-0.2114;0.0285;0.0875;
3101202540084900;-0.2051;0.0328;0.0715;
3101202550192296;-0.1976;0.0370;0.0630;
3101202560299744;-0.2359;0.0647;0.0491;
3101202570386983;-0.2775;0.0061;0.0214;
3101202580494379;-0.2786;0.0349;0.0214;
3101202590601827;-0.2839;0.0711;-0.0073;
3101202600724483;-0.2871;-0.0024;-0.0105;
3101202610831931;-0.3329;-0.0375;-0.0158;
3101202620939327;-0.2999;-0.0280;-0.0372;
3101202631048442;-0.2168;-0.0141;-0.0244;
3101202641155889;-0.2285;-0.0184;-0.0148;
3101202651263285;-0.2594;-0.0706;-0.0180;
3101202661360004;-0.2253;-0.0344;-0.0244;
3101202671467400;-0.1763;0.0104;-0.0286;
3101202681574848;-0.1784;-0.0184;-0.0201;
3101202691668233;-0.2040;0.0051;-0.0222;
3101202701775681;-0.1774;0.0221;-0.0510;
3101202711883077;-0.1593;0.0168;-0.0499;
3101202722019483;-0.1774;0.0423;-0.0499;
3101202732126827;-0.1614;0.0178;-0.0659;
3101202742234223;-0.1294;0.0360;-0.0627;
3101202752333233;-0.1230;0.0658;-0.0499;
3101202762440577;-0.1326;0.0349;-0.0403;
3101202772547973;-0.1529;0.0434;-0.0403;
3101202782652817;-0.1348;0.0381;-0.0169;
3101202792760160;-0.1379;0.0349;-0.0265;
3101202802867556;-0.1262;0.0328;-0.0361;
3101202812985004;-0.1198;0.0274;-0.0126;
3101202823092348;-0.1422;0.0413;-0.0297;
3101202833199744;-0.1379;0.0594;-0.0340;
3101202843297400;-0.1603;0.0583;-0.0169;
3101202853404744;-0.1987;0.0232;-0.0222;
3101202863512139;-0.1987;0.0136;-0.0073;
3101202873636567;-0.1774;0.0115;-0.0190;
3101202883743910;-0.1582;-0.0141;-0.0244;
3101202893851306;-0.1486;-0.0056;-0.0276;
3101202903947244;-0.1262;-0.0269;-0.0222;
3101202914054587;-0.1316;-0.0620;-0.0052;
3101202924161983;-0.1316;-0.0450;0.0065;
3101202934282817;-0.1209;-0.0471;0.0129;
3101202944390212;-0.1348;-0.0333;0.0140;
3101202954497556;-0.1561;-0.0375;0.0470;
3101202964590942;-0.1869;-0.0386;0.0513;
3101202974698285;-0.1965;-0.0333;0.0193;
3101202984805681;-0.1955;-0.0099;0.0001;
3101202994908494;-0.1923;-0.0045;0.0044;
3101203005015837;-0.1784;0.0722;0.0108;
3101203015123233;-0.1923;0.1360;0.0001;
3101203025234587;-0.2754;0.1445;-0.0169;
3101203035341983;-0.3616;0.0722;-0.0340;
3101203045449327;-0.3808;0.0743;-0.0499;
3101203055550837;-0.3105;0.0658;-0.0723;
3101203065658181;-0.2285;-0.0226;-0.0776;
3101203075765577;-0.1827;-0.0695;-0.0808;
3101203085878650;-0.1241;-0.0354;-0.0808;
3101203095985994;-0.0495;0.0402;-0.0883;
3101203106093389;-0.0442;0.0530;-0.0798;
3101203116198546;-0.1390;-0.0439;-0.0627;
3101203126305889;-0.1305;-0.0109;-0.0979;
3101203136413285;-0.0156;0.0732;-0.0968;
3101203146540942;-0.0188;0.0892;-0.0851;
3101203156648337;-0.0996;0.0818;-0.0755;
3101203166755681;-0.1582;-0.0152;-0.0819;
3101203176846567;-0.1337;-0.0663;-0.0776;
3101203186953910;-0.0602;-0.0088;-0.0798;
3101203197061306;-0.0273;0.0210;-0.0936;
3101203207161098;-0.0666;-0.0088;-0.0915;
3101203217268442;-0.1188;0.0242;-0.0883;
3101203227375837;-0.1209;0.0200;-0.0776;
3101203237498858;-0.1145;0.0253;-0.1053;
3101203247606202;-0.1007;0.0413;-0.1234;
3101203257713598;-0.1071;0.0136;-0.1352;
3101203267820317;-0.0847;0.1509;-0.1352;
3101203277927660;-0.1678;0.1615;-0.1628;
3101203288035056;-0.2775;-0.0855;-0.1320;
3101203298131046;-0.1997;-0.1345;-0.1266;
3101203308238389;-0.0921;-0.0248;-0.1597;
3101203318345785;-0.0687;0.0296;-0.1831;
3101203328465004;-0.0932;0.0423;-0.1927;
3101203338572348;-0.1198;0.0157;-0.1905;
3101203348679744;-0.1092;-0.0280;-0.1852;
3101203358786775;-0.0687;-0.0589;-0.1639;
3101203368894119;-0.0453;-0.0067;-0.1820;
3101203379001514;-0.0378;0.0029;-0.1543;
3101203389109796;-0.0847;-0.0397;-0.1703;
3101203399217139;-0.0985;-0.0503;-0.1703;
3101203409324535;-0.1017;-0.1121;-0.1341;
3101203419417296;-0.0826;-0.1963;-0.1501;
3101203429524639;-0.0166;-0.2091;-0.1746;
3101203439632035;0.0366;0.0029;-0.1682;
3101203449765942;0.0089;0.1967;-0.1873;
3101203459873285;-0.0687;0.1264;-0.1927;
3101203469980629;-0.1507;0.0317;-0.1969;
3101203480092192;-0.1699;0.0253;-0.2032;
3101203490199587;-0.1145;0.0242;-0.2149;
3101203500306931;-0.0378;0.0232;-0.2075;
3101203510373233;-0.0314;-0.0120;-0.1842;
3101203520480577;-0.0177;-0.0929;-0.1799;
3101203530587973;0.0718;-0.0482;-0.1703;
3101203540726150;0.1421;-0.0162;-0.1778;
3101203550833546;0.1623;-0.0461;-0.1618;
3101203560940889;0.2188;0.0328;-0.1479;
3101203571051358;0.2784;0.1157;-0.1298;
3101203581158754;0.2880;0.1370;-0.1373;
3101203591266098;0.2369;0.0764;-0.1192;
3101203601342608;0.1751;-0.0130;-0.0808;
3101203611449952;0.2028;-0.0429;-0.0904;
3101203621557348;0.3146;-0.0269;-0.0915;
3101203631694379;0.3328;-0.0237;-0.0595;
3101203641801723;0.3125;-0.0983;-0.0244;
3101203651909119;0.3423;-0.1622;-0.0212;
3101203661999483;0.3903;-0.1643;-0.0052;
3101203672106827;0.3967;-0.0897;-0.0244;
3101203682214223;0.4052;-0.0301;0.0119;
3101203692333442;0.4126;-0.0897;0.0236;
3101203702440785;0.4478;0.0477;0.0246;
3101203712548181;0.4510;0.1945;0.0427;
3101203722640004;0.3423;0.1498;0.0470;
3101203732747348;0.2827;0.0839;0.0843;
3101203742854692;0.2561;0.0115;0.1056;
3101203752973754;0.2411;0.0679;0.0917;
3101203763081098;0.1953;0.1871;0.0587;
3101203773188442;0.1367;0.0668;0.0523;
3101203783286358;0.1165;0.0008;0.0481;
3101203793393702;0.1048;0.1020;0.0182;
3101203803501046;0.0707;0.1274;0.0172;
3101203813607504;0.0015;0.0807;0.0076;
3101203823714848;-0.0410;-0.0184;-0.0041;
3101203833822192;-0.0039;-0.0844;-0.0244;
3101203843935837;0.0356;-0.1068;-0.0169;
3101203854043181;-0.0060;-0.2293;-0.0489;
3101203864150525;0.0537;-0.3518;-0.0126;
3101203874257817;0.1240;-0.2581;0.0119;
3101203884365160;0.1421;-0.0908;0.0087;
3101203894472504;0.0803;-0.0439;0.0161;
3101203904567712;0.0238;-0.0482;0.0097;
3101203914675056;0.0377;-0.0237;-0.0126;
3101203924782400;0.0654;0.0360;-0.0158;
3101203934915837;0.0377;0.0658;-0.0009;
3101203945023181;-0.0103;-0.0248;0.0108;
3101203955130525;-0.0060;0.0402;-0.0201;
3101203965227192;0.0547;0.0999;-0.0201;
3101203975334535;0.0419;0.0786;-0.0105;
3101203985441879;0.0015;0.0647;-0.0180;
3101203995538962;0.0387;0.0764;-0.0244;
3101204005646306;0.0952;0.1370;-0.0350;
3101204015753650;0.0963;0.1253;-0.0244;
3101204025892608;0.0899;0.0541;-0.0244;
3101204035999952;0.1325;0.0828;-0.0180;
3101204046107296;0.1485;0.1391;-0.0031;
3101204056186671;0.1474;0.0210;0.0598;
3101204066294014;0.1314;0.1168;0.0747;
3101204076401358;0.0537;0.0370;0.1120;
3101204086512296;-0.0081;-0.2410;0.1099;
3101204096619639;0.0537;-0.2559;0.1162;
3101204106726983;0.1250;-0.0929;0.1503;
3101204116826358;0.1037;-0.0557;0.1642;
3101204126933702;0.0441;-0.0866;0.1610;
3101204137041046;0.0174;-0.0514;0.1684;
3101204147183858;0.0398;0.0040;0.1951;
3101204157291202;0.0100;0.0146;0.1908;
3101204167398546;-0.0399;0.0391;0.1748;
3101204177498650;-0.0975;0.0722;0.1802;
3101204187605994;-0.1976;-0.0269;0.1908;
3101204197713337;-0.2008;-0.1153;0.2228;
3101204207800108;-0.1316;-0.0983;0.2185;
3101204217907452;-0.1113;-0.1324;0.2025;
3101204228014796;-0.1092;0.1487;0.1642;
3101204238131775;-0.1646;0.2233;0.1439;
3101204248239119;-0.2700;-0.0258;0.1482;
3101204258346462;-0.2700;-0.0045;0.1003;
3101204268459587;-0.1497;0.0977;0.0917;
3101204278566931;-0.0858;0.0988;0.1024;
3101204288674275;-0.1337;-0.0109;0.1258;
3101204298771775;-0.1422;-0.0184;0.0981;
3101204308879119;-0.0826;0.0306;0.1013;
3101204318986462;-0.0932;-0.0940;0.1301;
3101204329099692;-0.0868;-0.1004;0.1248;
3101204339207035;-0.0879;0.0732;0.1024;
3101204349314379;-0.1411;0.0008;0.1237;
3101204359410629;-0.1880;-0.0546;0.1162;
3101204369517973;-0.1678;0.0605;0.0811;
3101204379625317;-0.1869;-0.0120;0.0822;
3101204389736827;-0.2253;-0.1036;0.0885;
3101204399844171;-0.2146;-0.0482;0.0523;
3101204409951514;-0.1987;-0.0418;0.0204;
3101204420051879;-0.2178;-0.0280;0.0044;
3101204430159223;-0.2359;-0.0344;-0.0190;
3101204440266567;-0.1891;0.0232;-0.0382;
3101204450388129;-0.1987;0.0274;-0.0585;
3101204460495473;-0.2370;0.0466;-0.0723;
3101204470602817;-0.2477;0.0562;-0.0702;
3101204480710942;-0.2423;-0.0375;-0.0851;
3101204490818285;-0.1848;-0.0471;-0.1128;
3101204500925629;-0.0996;0.0274;-0.1160;
3101204511039900;-0.1039;0.0573;-0.1245;
3101204521147244;-0.0996;0.0402;-0.1170;
3101204531254587;-0.1092;0.0679;-0.1437;
3101204541370317;-0.0900;0.0786;-0.1266;
3101204551477660;-0.0858;0.0253;-0.1373;
3101204561585004;-0.0527;0.0317;-0.1746;
3101204571689067;-0.0028;0.0466;-0.1735;
3101204581796410;-0.0220;-0.0067;-0.1692;
3101204591903754;-0.0198;-0.0514;-0.1522;
3101204602004171;0.0238;-0.0333;-0.1405;
3101204612111514;0.0462;-0.0567;-0.1288;
3101204622218858;0.0398;-0.0120;-0.1362;
3101204632306202;0.0366;0.0519;-0.1405;
3101204642413546;0.0089;0.0466;-0.1309;
3101204652520889;0.0004;-0.0226;-0.0979;
3101204662636046;-0.0017;0.0349;-0.1479;
3101204672743389;-0.0166;0.0786;-0.1703;
3101204682850733;-0.0389;0.0253;-0.1288;
3101204692973337;-0.0389;-0.0322;-0.1522;
3101204703080681;-0.0007;-0.0439;-0.1575;
3101204713188025;-0.0262;-0.0354;-0.1607;
3101204723286358;-0.0463;-0.1057;-0.1490;
3101204733393754;-0.0124;-0.1281;-0.1469;
3101204743501150;0.0473;-0.1015;-0.1405;
3101204753608962;0.0686;-0.0407;-0.1383;
3101204763716358;0.0281;-0.0344;-0.1298;
3101204773823754;-0.0092;-0.0620;-0.1234;
3101204783932921;0.0409;-0.0759;-0.1075;
3101204794040317;0.0739;-0.0589;-0.1128;
3101204804147712;0.0952;-0.0077;-0.1075;
3101204814255629;0.1410;0.0903;-0.1021;
3101204824363025;0.1517;0.1732;-0.1117;
3101204834470421;0.0867;0.2265;-0.0968;
3101204844570942;-0.0772;0.0967;-0.0936;
3101204854678337;-0.1497;-0.0610;-0.0755;
3101204864785733;-0.0060;0.0093;-0.1053;
3101204874894067;0.1037;0.0871;-0.1426;
3101204885001462;0.1080;0.0264;-0.1426;
3101204895108858;0.0707;0.0434;-0.1085;
3101204905238754;0.0366;-0.0184;-0.0830;
3101204915346150;0.0569;-0.1142;-0.0851;
3101204925453546;0.1208;-0.1153;-0.0830;
3101204935554796;0.1847;-0.0887;-0.0776;
3101204945662192;0.2348;-0.0439;-0.0723;
3101204955769587;0.2028;-0.0631;-0.0553;
3101204965856410;0.1133;-0.0929;-0.0244;
3101204975963806;0.0622;-0.0503;0.0182;
3101204986071202;0.0558;0.0466;0.0172;
3101204996181983;0.0409;0.0360;-0.0095;
3101205006289379;0.0228;-0.0056;-0.0233;
3101205016396775;0.0409;0.0168;-0.0308;
3101205026519171;0.0430;0.0029;-0.0361;
3101205036626567;0.0292;-0.0525;-0.0308;
3101205046733962;0.0739;0.0690;-0.0638;
3101205056825942;0.0984;0.2009;-0.0766;
3101205066933337;0.0537;0.1136;-0.0680;
3101205077040733;0.0142;0.0093;-0.0734;
3101205087148650;0.0356;-0.0088;-0.0499;
3101205097256046;0.0675;0.0242;-0.0467;
3101205107363442;0.0686;-0.0503;-0.0361;
3101205117466827;0.0782;-0.1153;-0.0297;
3101205127574223;0.1080;-0.0525;-0.0372;
3101205137681619;0.1197;-0.0152;-0.0308;
3101205147808650;0.1325;-0.0365;-0.0084;
3101205157916046;0.1186;0.0115;-0.0201;
3101205168023442;0.1314;0.0328;-0.0403;
3101205178134587;0.1218;0.0093;-0.0222;
3101205188241983;0.0846;-0.0386;0.0012;
3101205198349379;0.0963;-0.0567;0.0012;
3101205208432817;0.1144;-0.0162;-0.0052;
3101205218540212;0.0739;-0.0035;0.0087;
3101205228647608;0.0494;-0.0397;0.0172;
3101205238769692;0.0718;-0.0077;-0.0020;
3101205248877087;0.0835;0.0903;-0.0308;
3101205258984483;0.0601;0.0945;-0.0265;
3101205269074483;0.0313;0.0306;-0.0233;
3101205279181879;0.0441;0.0253;-0.0254;
3101205289289275;0.0622;0.0157;-0.0457;
3101205299396254;0.0686;-0.0482;-0.0435;
3101205309503650;0.0995;-0.0546;-0.0403;
3101205319611046;0.1176;-0.0003;-0.0467;
3101205329729744;0.1005;0.0317;-0.0382;
3101205339837139;0.0654;0.0104;-0.0190;
3101205349944535;0.0718;-0.0290;-0.0073;
3101205360068494;0.0963;-0.0290;-0.0063;
3101205370175889;0.0920;0.0093;-0.0190;
3101205380283285;0.0888;-0.0173;-0.0020;
3101205390368129;0.0931;-0.0333;0.0108;
3101205400475525;0.1091;-0.0003;-0.0116;
3101205410582921;0.1165;0.0061;-0.0116;
3101205420707296;0.1048;0.0242;-0.0212;
3101205430814692;0.1144;0.0700;-0.0041;
3101205440922087;0.1069;0.0775;-0.0126;
3101205451019223;0.0782;0.0210;-0.0308;
3101205461126619;0.0728;0.0083;-0.0158;
3101205471234014;0.0814;-0.0194;-0.0116;
3101205481342192;0.1027;-0.0099;-0.0116;
3101205491449587;0.1091;0.0232;-0.0126;
3101205501556983;0.1069;0.0093;-0.0052;
3101205511680421;0.1101;0.0253;-0.0063;
3101205521787817;0.1091;0.0019;0.0065;
3101205531895212;0.0909;-0.0162;0.0001;
3101205542004483;0.1027;-0.0258;-0.0095;
3101205552111879;0.1091;-0.0727;0.0108;
3101205562219275;0.1186;-0.0450;0.0225;
3101205572311358;0.1229;0.0296;0.0161;
3101205582418754;0.0931;0.0381;0.0193;
3101205592526150;0.0814;0.0104;0.0268;
3101205602625577;0.0963;0.0115;0.0332;
3101205612732973;0.0899;0.0402;0.0097;
3101205622840369;0.0952;0.0413;0.0257;
3101205632951410;0.1005;0.0008;0.0417;
3101205643058806;0.1112;-0.0344;0.0587;
3101205653166202;0.1048;-0.0184;0.0310;
3101205663278910;0.0984;0.0146;0.0172;
3101205673386306;0.0952;0.0136;0.0257;
3101205683493702;0.1122;0.0370;0.0374;
3101205693586879;0.0877;0.0370;0.0268;
3101205703694275;0.0654;-0.0333;0.0364;
3101205713801671;0.0814;-0.0216;0.0619;
3101205723935733;0.1016;0.0178;0.0523;
3101205734043181;0.0856;-0.0077;0.0555;
3101205744150577;0.0814;-0.0514;0.0875;
3101205754254900;0.0909;-0.0141;0.0694;
3101205764362348;0.1165;-0.0045;0.0768;
3101205774469744;0.0909;0.0285;0.0598;
3101205784563754;0.0846;0.0381;0.0598;
3101205794671202;0.0846;0.0029;0.0896;
3101205804778598;0.1037;0.0722;0.0779;
3101205814887192;0.0899;0.0913;0.0704;
3101205824994639;0.0451;0.0338;0.0726;
3101205835102035;0.0611;0.0328;0.0907;
3101205845211462;0.0877;0.0061;0.0928;
3101205855318910;0.0771;-0.0290;0.0768;
3101205865426306;0.0931;0.0296;0.0843;
3101205875536358;0.0888;0.0296;0.0917;
3101205885643806;0.0782;-0.0120;0.1013;
3101205895751202;0.0909;-0.0120;0.0832;
3101205905913233;0.0941;0.0296;0.0939;
3101205916020681;0.0909;0.0594;0.1077;
3101205926128077;0.0760;0.0051;0.1013;
3101205936190421;0.0547;-0.0493;0.1237;
3101205946297869;0.0622;0.0040;0.1045;
3101205956405264;0.0877;0.0178;0.1162;
3101205966507192;0.0707;0.0306;0.1194;
3101205976614639;0.0739;0.0594;0.1397;
3101205986722035;0.0718;0.0413;0.1375;
3101205996828129;0.0451;0.0264;0.1258;
3101206006935577;0.0569;0.0317;0.1216;
3101206017042973;0.0728;0.0104;0.1173;
3101206027154379;0.0558;-0.0120;0.1397;
3101206037261827;0.0590;0.0477;0.1237;
3101206047369223;0.0569;0.0498;0.1301;
3101206057477608;0.0409;0.0146;0.1514;
3101206067585056;0.0451;-0.0077;0.1557;
3101206077692452;0.0537;-0.0184;0.1375;
3101206087810108;0.0494;-0.0120;0.1546;
3101206097917556;0.0569;-0.0067;0.1780;
3101206108024952;0.0441;-0.0013;0.1823;
3101206118135421;0.0462;-0.0088;0.1908;
3101206128242869;0.0419;0.0328;0.1567;
3101206138350264;0.0505;0.0977;0.1834;
3101206148451046;-0.0145;0.0967;0.1791;
3101206158558494;-0.0730;-0.0589;0.1802;
3101206168665889;-0.0421;-0.0972;0.1812;
3101206178743337;0.0260;0.0136;0.1834;
3101206188850785;0.0079;0.0232;0.1812;
3101206198958181;-0.0399;-0.0120;0.1652;
3101206209073233;-0.0092;-0.0194;0.1972;
3101206219180681;-0.0028;0.0200;0.1897;
3101206229288077;0.0068;0.0242;0.2089;
3101206239397400;-0.0220;-0.0216;0.1983;
3101206249504848;-0.0262;-0.0130;0.1908;
3101206259612244;-0.0453;-0.0620;0.2121;
3101206269708233;-0.0156;-0.0695;0.2196;
3101206279815681;-0.0007;0.0360;0.2025;
3101206289923077;-0.0262;0.0626;0.2036;
3101206300072817;-0.0751;-0.0450;0.2153;
3101206310180264;-0.0644;-0.0099;0.2089;
3101206320287660;-0.0346;0.0455;0.1993;
3101206330364379;-0.0613;-0.0439;0.2164;
3101206340471775;-0.0900;-0.0482;0.2238;
3101206350579171;-0.0453;-0.0365;0.2228;
3101206360699119;-0.0294;-0.0301;0.2206;
3101206370806567;-0.0549;0.0285;0.2334;
3101206380913962;-0.0538;0.0487;0.2345;
3101206390995056;-0.0783;0.0541;0.2260;
3101206401102504;-0.1156;0.0445;0.2313;
3101206411209900;-0.1593;0.0317;0.2281;
3101206421330421;-0.1688;0.0381;0.2174;
3101206431437869;-0.1667;-0.0130;0.2132;
3101206441545264;-0.1720;-0.0525;0.2153;
3101206451683650;-0.1550;-0.0184;0.2164;
3101206461791098;-0.1156;-0.0290;0.2057;
3101206471898494;-0.1092;0.0115;0.1908;
3101206481997556;-0.1198;0.0967;0.2217;
3101206492105004;-0.1635;0.0125;0.2377;
3101206502212400;-0.1976;-0.0077;0.2217;
3101206512323754;-0.1944;0.0839;0.1972;
3101206522431202;-0.1848;0.0498;0.2068;
3101206532538598;-0.2328;0.0221;0.2100;
3101206542624483;-0.2498;0.0370;0.2025;
3101206552731931;-0.2210;0.0743;0.2015;
3101206562839327;-0.2498;0.1009;0.1791;
3101206572952817;-0.2849;0.0413;0.1695;
3101206583060264;-0.2849;0.0008;0.1567;
3101206593167660;-0.2402;0.0029;0.1514;
3101206603270004;-0.2093;-0.0269;0.1493;
3101206613377452;-0.2104;0.0051;0.1514;
3101206623484848;-0.2391;0.0104;0.1503;
3101206633584796;-0.2775;-0.0429;0.1439;
3101206643692244;-0.2818;-0.0557;0.1471;
3101206653799639;-0.2594;-0.0333;0.1344;
3101206663908025;-0.2764;-0.0216;0.1258;
3101206674015473;-0.3190;-0.0152;0.1280;
3101206684122869;-0.3371;-0.0344;0.1024;
3101206694262504;-0.3084;-0.0152;0.0981;
3101206704369952;-0.2913;0.0658;0.0992;
3101206714477348;-0.3308;0.0221;0.0736;
3101206724561046;-0.3670;0.0125;0.0545;
3101206734668442;-0.3648;0.0732;0.0395;
3101206744775837;-0.3510;0.0605;0.0417;
3101206754881462;-0.3542;0.0338;0.0385;
3101206764988858;-0.3318;0.0743;0.0278;
3101206775096254;-0.3116;0.0764;0.0076;
3101206785202087;-0.2988;0.0881;0.0065;
3101206795309483;-0.2924;0.0945;0.0033;
3101206805416879;-0.2935;0.0903;-0.0222;
3101206815520212;-0.2828;0.0722;-0.0052;
3101206825627608;-0.2711;0.0455;-0.0063;
3101206835735004;-0.2423;0.1020;-0.0244;
3101206845848129;-0.2786;0.0956;-0.0425;
3101206855955525;-0.2913;0.0040;-0.0297;
3101206866062921;-0.2647;0.0051;-0.0169;
3101206876175108;-0.2349;0.0850;-0.0457;
3101206886282504;-0.2455;0.0615;-0.0542;
3101206896389900;-0.2786;-0.0184;-0.0340;
3101206906510733;-0.2658;-0.0141;-0.0329;
3101206916618129;-0.2615;0.0530;-0.0585;
3101206926725525;-0.2764;0.0157;-0.0414;
3101206936833962;-0.2732;0.0104;-0.0648;
3101206946941358;-0.2498;0.0828;-0.0819;
3101206957048754;-0.2892;0.0871;-0.0819;
3101206967133546;-0.3318;0.0402;-0.0819;
3101206977240942;-0.3265;0.0125;-0.0840;
3101206987348337;-0.2679;0.0210;-0.1064;
3101206997470160;-0.2253;0.0296;-0.1181;
3101207007577556;-0.2498;0.0360;-0.1064;
3101207017684952;-0.2690;0.0402;-0.1309;
3101207027795108;-0.2594;0.0146;-0.1320;
3101207037902504;-0.2274;0.0455;-0.1266;
3101207048009900;-0.2114;0.1072;-0.1469;
3101207058108754;-0.2509;0.1009;-0.1543;
3101207068216150;-0.2754;0.0157;-0.1522;
3101207078323546;-0.2509;-0.0173;-0.1682;
3101207088423442;-0.2306;0.0242;-0.1863;
3101207098530837;-0.2136;0.0509;-0.1831;
3101207108638233;-0.2189;0.0136;-0.1895;
3101207118754900;-0.2008;0.0168;-0.1873;
3101207128862296;-0.2072;0.0796;-0.2192;
3101207138969692;-0.2232;0.0157;-0.2170;
3101207149062400;-0.1976;0.0157;-0.2106;
3101207159169796;-0.1635;0.0924;-0.2352;
3101207169277192;-0.1976;0.1031;-0.2447;
3101207179385733;-0.2466;0.0924;-0.2415;
3101207189493129;-0.2168;0.0487;-0.2437;
3101207199600525;-0.1901;0.0530;-0.2628;
3101207209700942;-0.1901;0.1041;-0.2810;
3101207219808337;-0.1923;0.0487;-0.2884;
3101207229915733;-0.1859;-0.0280;-0.2948;
3101207240052192;-0.1497;-0.0514;-0.3214;
3101207250159587;-0.0708;-0.0578;-0.2980;
3101207260266983;-0.0506;0.0157;-0.3076;
3101207270348233;-0.0613;0.0338;-0.3172;
3101207280455629;-0.1092;-0.0152;-0.3012;
3101207290563025;-0.1379;-0.0077;-0.2991;
3101207300695004;-0.1017;0.0487;-0.3097;
3101207310802400;-0.0879;0.0328;-0.3182;
3101207320909796;-0.1156;-0.0088;-0.3268;
3101207330998754;-0.0975;-0.0045;-0.3065;
3101207341106150;-0.0868;0.0274;-0.3289;
3101207351213546;-0.0772;-0.0258;-0.3694;
3101207361291567;-0.0198;-0.0375;-0.3385;
3101207371398962;0.0249;0.0690;-0.3406;
3101207381506358;0.0334;0.0881;-0.3715;
3101207391658650;-0.0442;0.0189;-0.3555;
3101207401766046;-0.0772;-0.0503;-0.3182;
3101207411873442;0.0185;0.0264;-0.3300;
3101207421982504;0.0792;0.0647;-0.3193;
3101207432089900;0.0590;0.0381;-0.3182;
3101207442197296;0.0164;0.0935;-0.3257;
3101207452291306;-0.0103;0.0423;-0.3161;
3101207462398702;0.0174;-0.0045;-0.3300;
3101207472506098;0.1091;0.0530;-0.3342;
3101207482615837;0.1336;0.0423;-0.3363;
3101207492723233;0.0846;-0.0557;-0.2948;
3101207502830629;0.0941;-0.0887;-0.2863;
3101207512932400;0.2049;-0.0514;-0.2756;
3101207523039796;0.2838;0.0317;-0.2852;
3101207533147192;0.2987;0.1349;-0.2458;
3101207543259483;0.1112;0.0274;-0.1852;
3101207553366879;0.0036;-0.1643;-0.1671;
3101207563474275;0.1836;-0.1079;-0.2085;
3101207573583025;0.3306;0.0871;-0.2160;
3101207583690421;0.2656;0.0967;-0.2117;
3101207593797817;0.0984;-0.0386;-0.1937;
3101207603907608;0.0835;-0.0557;-0.1756;
3101207614015004;0.2039;0.0093;-0.1799;
3101207624122400;0.2220;-0.0887;-0.1767;
3101207634221358;0.1943;-0.1292;-0.1607;
3101207644328754;0.2049;-0.2410;-0.1021;
3101207654436150;0.2465;-0.1260;-0.0819;
3101207664625317;0.2348;0.1083;-0.0883;
3101207674732712;0.1282;0.0040;-0.0680;
3101207684840108;0.0643;-0.0514;-0.0670;
3101207694890525;0.0632;-0.0088;-0.1085;
3101207704997921;0.1037;0.0445;-0.1160;
3101207715105317;0.0654;0.0264;-0.1277;
3101207725189067;0.0728;-0.0684;-0.1138;
3101207735296462;0.1122;0.0423;-0.1437;
3101207745403858;0.1197;0.0700;-0.1373;
3101207755509067;0.0931;-0.0439;-0.1011;
3101207765616462;0.1048;-0.0439;-0.0904;
3101207775723858;0.1250;-0.0301;-0.0947;
3101207785862817;0.1197;0.0008;-0.0798;
3101207795970212;0.1229;0.0562;-0.0755;
3101207806077608;0.0888;0.0764;-0.1107;
3101207816152348;0.0632;0.0264;-0.1000;
3101207826259744;0.0632;0.0104;-0.1032;
3101207836367139;0.0888;-0.0503;-0.1138;
3101207846487921;0.1091;-0.1217;-0.1320;
3101207856595317;0.1176;-0.1377;-0.1341;
3101207866702712;0.1644;-0.0812;-0.1021;
3101207876805629;0.1836;-0.0663;-0.0957;
3101207886913025;0.1655;-0.0248;-0.1032;
3101207897020421;0.1506;0.0296;-0.0755;
3101207907129327;0.1410;0.0562;-0.0734;
3101207917236723;0.0941;0.0498;-0.1011;
3101207927344119;0.0409;0.0136;-0.1000;
3101207937470733;0.0398;-0.0344;-0.1117;
3101207947578129;0.1122;-0.0375;-0.1352;
3101207957685525;0.1048;-0.0099;-0.1639;
3101207967776150;0.1027;-0.0993;-0.1639;
3101207977883546;0.1261;-0.2389;-0.1469;
3101207987990942;0.1730;-0.3411;-0.1501;
3101207998096983;0.2188;-0.3390;-0.1192;
3101208008204379;0.2475;-0.3113;-0.0904;
3101208018311775;0.2614;-0.2570;-0.0830;
3101208028420733;0.2784;-0.1707;-0.0499;
3101208038528129;0.3029;-0.0013;-0.0478;
3101208048635525;0.3210;0.1338;-0.0467;
3101208058742296;0.2720;0.1487;0.0023;
3101208068849692;0.1900;0.2393;-0.0297;
3101208078957087;0.1676;0.2723;-0.0510;
3101208089062192;0.1772;0.2638;-0.0489;
3101208099169587;0.1751;0.2723;-0.0680;
3101208109276983;0.1762;0.3224;-0.0776;
3101208119377817;0.1495;0.3170;-0.1181;
3101208129485212;0.1272;0.1807;-0.0968;
3101208139592608;0.1762;0.1306;-0.0744;
3101208149705837;0.2571;0.0668;-0.0393;
3101208159813233;0.3477;-0.0631;0.0087;
3101208169920629;0.3775;-0.1004;0.0491;
3101208180037296;0.3881;-0.1771;0.1162;
3101208190144692;0.4201;-0.1718;0.1674;
3101208200252087;0.3881;-0.0482;0.1493;
3101208210331775;0.3818;0.0391;0.1844;
3101208220439171;0.3146;0.0647;0.2015;
3101208230546567;0.2241;0.0274;0.2057;
3101208240718702;0.1921;0.0413;0.1919;
3101208250826098;0.1687;0.0498;0.1578;
3101208260933494;0.1325;0.0306;0.1695;
3101208270989639;0.0877;0.0945;0.1674;
3101208281097035;0.0611;0.1338;0.1557;
3101208291204431;0.0441;-0.0088;0.1567;
3101208301295421;0.0270;-0.1036;0.1429;
3101208311402817;0.0963;-0.0620;0.1535;
3101208321510212;0.0952;-0.1313;0.1344;
3101208331655733;0.1133;-0.1228;0.1248;
3101208341763129;0.1666;0.0189;0.1429;
3101208351870525;0.2007;0.1264;0.1450;
3101208361982192;0.2007;0.2009;0.1620;
3101208372089587;0.1889;0.3522;0.2004;
3101208382196983;0.2092;0.4875;0.2334;
3101208392295837;0.1708;0.4427;0.2686;
3101208402403233;0.0814;0.2137;0.2654;
3101208412510629;-0.0485;0.1413;0.2334;
3101208422598910;-0.1848;0.2840;0.1535;
3101208432706306;-0.1976;0.2872;0.1152;
3101208442813702;-0.0921;0.1562;0.0832;
3101208452922712;0.0174;-0.0439;0.0747;
3101208463030108;0.0760;-0.2591;0.0864;
3101208473137504;0.0643;-0.3475;0.0939;
3101208483279483;0.0771;-0.5146;0.1344;
3101208493386879;0.1282;-0.6148;0.2292;
3101208503494275;0.1570;-0.3592;0.2590;
3101208513571775;0.1005;-0.0663;0.2281;
3101208523679171;0.0132;-0.0045;0.1983;
3101208533786567;-0.0039;-0.0194;0.1844;
3101208543895733;0.0025;0.0434;0.1226;
3101208554003129;-0.0156;0.0818;0.0832;
3101208564110525;-0.0538;0.0945;0.0800;
3101208574220421;-0.1273;0.1306;0.0704;
3101208584327817;-0.1784;0.0732;0.0502;
3101208594435212;-0.1731;0.0306;0.0257;
3101208604534900;-0.1454;0.0828;-0.0158;
3101208614642296;-0.0847;0.1104;-0.0254;
3101208624749692;-0.0410;0.0977;-0.0372;
3101208634859171;-0.0092;0.0051;-0.0393;
3101208644966567;0.0270;-0.0099;-0.0329;
3101208655073962;0.0345;-0.0354;-0.0244;
3101208665179796;0.0984;-0.0961;-0.0031;
3101208675287192;0.2177;0.0306;0.0076;
3101208685394587;0.2390;0.1072;0.0385;
3101208695499692;0.1336;-0.0130;0.0854;
3101208705607087;0.0526;-0.0919;0.1024;
3101208715714483;0.1506;-0.0237;0.1024;
3101208725830629;0.2379;0.0551;0.0843;
3101208735938025;0.1804;0.0924;0.0726;
3101208746045473;0.0675;0.0903;0.0992;
3101208756150733;0.0249;-0.0407;0.1035;
3101208766258129;0.0537;-0.0365;0.0971;
3101208776365577;0.0377;0.0391;0.1045;
3101208786493129;0.0079;-0.1153;0.1354;
3101208796600525;0.0047;-0.1206;0.1461;
3101208806707973;0.0398;-0.0503;0.1375;
3101208816784171;0.0409;0.1168;0.1109;
3101208826891567;-0.0220;0.0381;0.1088;
3101208836999014;-0.0549;-0.0493;0.1088;
3101208847123233;-0.0399;0.0360;0.1162;
3101208857230629;-0.0177;0.0306;0.0949;
3101208867338077;-0.0284;0.0061;0.1280;
3101208877440837;-0.0559;-0.0226;0.1258;
3101208887548233;-0.0368;-0.1089;0.1461;
3101208897655681;-0.0028;-0.0514;0.1471;
3101208907763754;0.0047;0.0061;0.1333;
3101208917871150;-0.0028;0.0019;0.1375;
3101208927978598;-0.0028;-0.0322;0.1599;
3101208938103442;0.0121;0.0040;0.1631;
3101208948210837;0.0079;0.0732;0.1354;
3101208958318285;-0.0209;-0.0216;0.1706;
3101208968421254;-0.0442;-0.0727;0.1940;
3101208978528650;-0.0134;0.0434;0.1748;
3101208988636098;-0.0156;0.0775;0.1759;
3101208998748494;-0.0730;0.0200;0.1844;
3101209008855889;-0.1134;-0.0067;0.1642;
3101209018963337;-0.0868;-0.0099;0.1344;
3101209029055994;-0.0453;-0.0333;0.1386;
3101209039163389;-0.0559;0.0200;0.1546;
3101209049270837;-0.1134;0.0253;0.1365;
3101209059368337;-0.1209;-0.0631;0.1461;
3101209069475733;-0.0794;-0.0823;0.1620;
3101209079583181;-0.0730;0.0146;0.1407;
3101209089690733;-0.0900;-0.0109;0.1461;
3101209099798129;-0.0932;-0.0248;0.1770;
3101209109905577;-0.0858;0.0775;0.1695;
3101209120039327;-0.0900;0.1020;0.1344;
3101209130146723;-0.1475;0.0338;0.1418;
3101209140254171;-0.1624;-0.0226;0.1535;
3101209150372608;-0.0921;0.0434;0.1152;
3101209160480004;-0.0953;0.0924;0.0811;
3101209170587452;-0.1475;0.0338;0.1141;
3101209180657192;-0.1571;-0.0141;0.0971;
3101209190764639;-0.0985;-0.0791;0.0960;
3101209200872035;-0.0687;-0.1238;0.1045;
3101209210966879;-0.0517;-0.0450;0.0960;
3101209221074275;-0.0826;-0.0248;0.0672;
3101209231181723;-0.0975;-0.0439;0.0960;
3101209241341671;-0.0889;0.0200;0.0779;
3101209251449067;-0.0751;0.0189;0.0513;
3101209261556514;-0.1071;-0.0418;0.0555;
3101209271648650;-0.1198;0.0136;0.0672;
3101209281756046;-0.1262;0.0168;0.0523;
3101209291863494;-0.1156;-0.0354;0.0491;
3101209301971983;-0.1039;0.0551;0.0236;
3101209312079379;-0.1081;0.1083;0.0182;
3101209322186827;-0.1550;0.0115;0.0065;
3101209332310629;-0.1294;-0.0418;0.0097;
3101209342418025;-0.0687;0.1200;-0.0276;
3101209352525473;-0.0889;0.1349;-0.0361;
3101209362593233;-0.1571;0.0008;-0.0276;
3101209372700629;-0.1166;0.0125;-0.0052;
3101209382808077;-0.0804;0.0434;-0.0180;
3101209392922296;-0.0847;0.0519;-0.0222;
3101209403029692;-0.0996;0.0189;-0.0137;
3101209413137139;-0.0836;-0.0248;-0.0105;
3101209423240317;-0.0762;-0.0482;-0.0361;
3101209433347712;-0.0517;-0.0738;-0.0276;
3101209443455160;-0.0549;0.0051;-0.0340;
3101209453567504;-0.0826;-0.0631;-0.0595;
3101209463674900;-0.1017;-0.0972;-0.0563;
3101209473782348;-0.0868;-0.0067;-0.0563;
3101209483875004;-0.0975;-0.0844;-0.0425;
3101209493982400;-0.0868;-0.0748;-0.0244;
3101209504089848;-0.0570;0.0583;-0.0286;
3101209514214275;-0.0889;0.0296;-0.0425;
3101209524321671;-0.1220;-0.0567;-0.0638;
3101209534429119;-0.0762;-0.0003;-0.0734;
3101209544564796;-0.0623;0.0477;-0.1075;
3101209554672192;-0.0826;-0.0439;-0.1011;
3101209564779639;-0.0996;-0.0450;-0.0989;
3101209574855004;-0.0762;-0.0248;-0.1107;
3101209584962400;-0.0538;-0.1015;-0.1181;
3101209595069848;-0.0177;-0.0610;-0.0755;
3101209605174275;-0.0325;-0.0088;-0.0840;
3101209615281671;-0.0124;-0.1047;-0.0595;
3101209625389119;-0.0113;-0.0631;-0.0904;
3101209635488233;0.0441;0.1338;-0.0830;
3101209645595629;0.0494;0.1328;-0.0798;
3101209655703077;-0.0113;0.0913;-0.0957;
3101209665810004;-0.0772;0.1349;-0.0712;
3101209675917400;-0.0655;0.0509;-0.0659;
3101209686024848;-0.0124;-0.0173;-0.0680;
3101209696164900;0.0057;0.0541;-0.0606;
3101209706272296;-0.0071;0.0999;-0.0702;
3101209716379744;-0.0336;-0.0194;-0.0680;
3101209726463129;-0.0166;-0.1270;-0.0712;
3101209736570525;-0.0060;-0.1803;-0.0680;
3101209746677973;-0.0188;-0.3092;-0.0744;
3101209756789171;0.0260;-0.3294;-0.0680;
3101209766896567;0.0206;-0.2506;-0.0723;
3101209777004014;-0.0103;-0.2815;-0.0680;
3101209787113910;0.0260;-0.2101;-0.0446;
3101209797221306;0.0707;-0.0397;-0.0276;
3101209807328754;0.0920;-0.0056;0.0033;
3101209817431983;0.0760;0.0146;-0.0063;
3101209827539379;0.0057;0.0764;-0.0361;
3101209837646827;0.0228;0.2308;-0.0446;
3101209847760837;0.0015;0.2915;-0.0659;
3101209857868233;-0.0252;0.3277;-0.1011;
3101209867975681;-0.0751;0.2574;-0.0979;
3101209878084692;-0.0932;0.0945;-0.0872;
3101209888192087;-0.0209;0.2105;-0.1096;
3101209898299535;0.0569;0.3170;-0.1053;
3101209908401150;0.0611;0.1754;-0.0787;
3101209918508546;0.0888;0.0722;-0.0606;
3101209928615994;0.1708;0.0690;-0.0425;
3101209938742608;0.2326;0.0732;-0.0169;
3101209948849952;0.2337;0.0242;0.0204;
3101209958957400;0.2071;0.0615;0.0662;
3101209969064796;0.1634;0.0317;0.1056;
3101209979146671;0.1314;0.0136;0.1173;
3101209989254067;0.0973;0.0935;0.1386;
3101209999361514;0.0483;0.0743;0.1365;
3101210009468650;0.0025;-0.0226;0.1514;
3101210019576046;-0.0527;-0.0375;0.1141;
3101210029683494;-0.0804;-0.0429;0.0949;
3101210039790733;-0.1209;-0.1111;0.0481;
3101210049898129;-0.1337;-0.0993;0.0332;
3101210060005577;-0.1848;-0.1228;0.0268;
3101210070193598;-0.1816;-0.2101;0.0076;
3101210080301046;-0.1358;-0.1526;-0.0116;
3101210090408494;-0.1348;-0.1174;-0.0276;
3101210100441358;-0.1422;-0.1068;-0.0158;
3101210110548754;-0.1539;-0.0834;-0.0169;
3101210120656150;-0.1433;-0.0802;-0.0542;
3101210130802139;-0.0804;-0.0162;-0.0755;
3101210140909535;-0.0538;0.0711;-0.1192;
3101210151016983;-0.0655;0.0690;-0.1266;
3101210161090421;-0.0591;0.0221;-0.1277;
3101210171197817;-0.0049;0.0040;-0.1192;
3101210181305264;0.0238;0.0722;-0.1447;
3101210191406150;0.0686;0.1041;-0.1021;
3101210201513546;0.0547;-0.0312;-0.0734;
3101210211620994;0.0931;-0.0120;-0.0702;
3101210221750004;0.1314;0.1594;-0.1160;
3101210231857400;0.1442;0.0690;-0.0702;
3101210241964848;0.1687;0.1041;-0.0489;
3101210252071879;0.1751;0.2776;-0.0499;
3101210262179275;0.0473;-0.0130;0.0001;
3101210272286723;0.0899;-0.1782;0.0150;
3101210282395629;0.1687;-0.0727;0.0055;
3101210292503025;0.1048;-0.0993;0.0214;
3101210302610473;0.0622;-0.0727;0.0630;
3101210312705160;0.0590;-0.0301;0.0449;
3101210322812556;0.0664;-0.1089;0.0577;
3101210332920004;0.0590;0.0104;0.0619;
3101210343025525;0.0249;0.0850;0.0587;
3101210353132921;-0.0177;-0.1174;0.0907;
3101210363240369;-0.0284;-0.0695;0.1045;
3101210373345733;-0.0262;0.2478;0.0800;
3101210383453129;-0.0900;0.1402;0.0779;
3101210393560577;-0.1710;-0.0056;0.0672;
3101210403656775;-0.1624;0.0083;0.0513;
3101210413764171;-0.0847;0.0221;-0.0073;
3101210423871619;-0.0410;-0.0003;-0.0169;
3101210434006775;-0.0506;-0.0535;-0.0180;
3101210444114171;-0.0527;0.0019;-0.0222;
3101210454221619;-0.0453;-0.0716;0.0193;
3101210464312817;-0.0262;-0.1803;0.0214;
3101210474420212;-0.0049;-0.0557;-0.0052;
3101210484527660;-0.0220;0.0178;0.0161;
3101210494638077;-0.0294;0.0104;0.0449;
3101210504745473;-0.0262;0.0999;0.0332;
3101210514852921;-0.0314;0.1690;0.0012;
3101210524947817;-0.0740;0.0743;-0.0009;
3101210535055212;-0.1103;0.0051;-0.0116;
3101210545162660;-0.0474;0.0466;-0.0137;
3101210555281462;-0.0220;0.0338;-0.0350;
3101210565388858;-0.0399;0.0391;-0.0435;
3101210575496306;-0.0431;0.0306;-0.0574;
3101210585593858;-0.0336;-0.0961;-0.0222;
3101210595701254;0.0015;-0.0834;-0.0467;
3101210605808702;0.0228;0.0157;-0.0531;
3101210615912921;-0.0156;-0.0482;-0.0318;
3101210626020317;-0.0209;-0.0397;-0.0095;
3101210636127764;-0.0220;0.0370;-0.0329;
3101210646239275;-0.0538;-0.0013;-0.0425;
3101210656346671;-0.0602;-0.0727;-0.0329;
3101210666454119;-0.0241;-0.0599;-0.0403;
3101210676578650;-0.0113;-0.0961;-0.0510;
3101210686686046;-0.0113;-0.1174;-0.0361;
3101210696793494;0.0100;-0.0578;-0.0276;
3101210706887087;-0.0007;-0.0855;-0.0425;
3101210716994483;0.0185;-0.0674;-0.0244;
3101210727101931;0.0249;0.0242;-0.0254;
3101210737213233;-0.0166;-0.0056;-0.0137;
3101210747320681;-0.0177;0.0040;-0.0105;
3101210757428077;0.0324;0.1605;-0.0361;
3101210767537087;0.0313;0.3639;-0.0201;
3101210777644535;-0.1252;0.1328;-0.0265;
3101210787751931;-0.1593;-0.1217;-0.0041;
3101210797865942;0.0153;-0.0226;-0.0372;
3101210807973389;0.0505;0.0189;-0.0712;
3101210818080785;-0.0113;-0.0461;-0.0403;
3101210828180421;-0.0166;-0.0823;-0.0233;
3101210838287869;0.0334;-0.0418;-0.0201;
3101210848395264;0.0377;-0.0162;-0.0137;
3101210858511150;0.0132;-0.1579;0.0225;
3101210868618598;-0.0071;-0.2591;0.0481;
3101210878725994;0.0174;-0.0834;0.0758;
3101210888825525;0.0121;0.0722;0.0523;
3101210898932973;-0.0336;-0.0493;0.0534;
3101210909040369;-0.0431;-0.0162;0.0140;
3101210919159327;-0.0284;0.1786;0.0023;
3101210929266775;-0.0325;0.1658;0.0044;
3101210939374119;-0.0847;0.0317;0.0012;
3101210949456775;-0.1667;-0.0429;0.0055;
3101210959564171;-0.1017;0.0029;0.0087;
3101210969671619;-0.0028;0.0658;-0.0201;
3101210979779692;-0.0474;-0.0727;-0.0020;
3101210989887139;-0.0273;-0.0610;-0.0180;
3101210999994535;-0.0007;0.0519;-0.0606;
3101211010122608;-0.0294;-0.0407;-0.0126;
3101211020230056;-0.0485;-0.0929;0.0097;
3101211030337452;-0.0177;-0.0599;-0.0084;
3101211040435942;-0.0028;-0.0471;-0.0020;
3101211050543337;-0.0314;0.0349;-0.0180;
3101211060650785;-0.0368;0.0381;0.0108;
3101211070791254;-0.0389;-0.0184;0.0161;
3101211080898702;-0.0156;0.1370;-0.0073;
3101211091006098;-0.0346;0.1775;-0.0222;
3101211101093754;-0.0751;-0.0631;-0.0201;
3101211111201202;-0.0751;0.0477;-0.0201;
3101211121308598;-0.0431;0.0839;-0.0340;
3101211131386358;-0.0177;0.0189;-0.0308;
3101211141493806;-0.0453;0.0402;-0.0510;
3101211151601202;-0.0410;0.0051;-0.0382;
3101211161742192;-0.0325;-0.0557;-0.0254;
3101211171849639;-0.0113;-0.0866;-0.0329;
3101211181957035;0.0174;-0.0812;-0.0372;
3101211191995837;0.0068;0.0338;-0.0606;
3101211202103285;-0.0156;0.0711;-0.0329;
3101211212210681;-0.0570;-0.1441;-0.0201;
3101211222361879;0.0015;0.1104;-0.0372;
3101211232469327;-0.0156;0.1551;-0.0680;
3101211242576723;-0.0485;-0.0258;-0.0617;
3101211252688337;-0.0740;0.0551;-0.0585;
3101211262795785;-0.0431;0.0860;-0.0467;
3101211272903181;-0.0442;0.0658;-0.0691;
3101211283013337;-0.0506;-0.0610;-0.0734;
3101211293120785;-0.0389;-0.1313;-0.1021;
3101211303228181;-0.0177;-0.1004;-0.1021;
3101211313342400;-0.0017;-0.0897;-0.0819;
3101211323449848;-0.0092;-0.0557;-0.0904;
3101211333557244;-0.0113;-0.0674;-0.1096;
3101211343652660;-0.0071;-0.1270;-0.0755;
3101211353760108;0.0100;-0.0567;-0.0744;
3101211363867504;0.0153;0.0189;-0.0819;
3101211373979275;-0.0241;-0.0567;-0.0766;
3101211384086723;0.0153;0.0349;-0.1053;
3101211394194119;0.0515;0.1881;-0.1107;
3101211404292817;0.0111;0.0860;-0.1213;
3101211414400264;-0.0346;0.0711;-0.1170;
3101211424507660;-0.0134;0.0924;-0.1213;
3101211434632973;0.0100;-0.0077;-0.1075;
3101211444740421;0.0047;-0.0525;-0.1554;
3101211454847817;0.0483;0.0083;-0.1373;
3101211464942139;0.0387;-0.0333;-0.1053;
3101211475049587;0.0473;-0.0322;-0.1085;
3101211485156983;0.0718;0.0423;-0.1256;
3101211495264692;0.0995;-0.0535;-0.1011;
3101211505372139;0.0611;-0.0290;-0.0904;
3101211515479535;0.0547;0.0328;-0.0883;
3101211525586671;0.0601;-0.0088;-0.0734;
3101211535694119;0.0292;0.0029;-0.0787;
3101211545801514;0.0313;0.0040;-0.1149;
3101211555916931;0.0664;-0.0344;-0.0808;
3101211566024379;0.0750;0.0615;-0.0872;
3101211576131775;0.0537;0.0754;-0.0819;
3101211586249587;0.0281;-0.0482;-0.0691;
3101211596357035;0.0419;-0.0471;-0.0936;
3101211606464431;0.0846;0.0956;-0.1128;
3101211616568650;0.0718;0.1445;-0.0851;
3101211626676098;0.0015;-0.0184;-0.0862;
3101211636783494;0.0377;-0.0599;-0.0840;
3101211646884171;0.1016;0.0892;-0.0904;
3101211656991619;0.0824;0.0072;-0.0936;
3101211667099014;0.0356;-0.1292;-0.0798;
3101211677217504;0.0750;-0.0503;-0.0872;
3101211687324952;0.1708;0.0445;-0.0638;
3101211697432348;0.1868;-0.0365;-0.0574;
3101211707523650;0.1165;-0.0045;-0.0478;
3101211717631098;0.0739;0.0871;-0.0372;
3101211727738494;0.0984;0.0008;-0.0084;
3101211737846567;0.0771;0.0455;-0.0297;
3101211747954014;0.0877;0.1104;-0.0212;
3101211758061410;0.0483;0.0391;-0.0041;
3101211768169587;0.0377;0.0125;-0.0361;
3101211778277035;0.0707;0.0349;-0.0553;
3101211788384431;0.0675;0.0466;-0.0574;
3101211798496671;0.0632;-0.0482;-0.0648;
3101211808604119;0.0750;-0.0652;-0.0585;
3101211818711514;0.0782;-0.1068;-0.0201;
3101211828813546;0.0941;-0.0972;-0.0340;
3101211838920994;0.1027;-0.0503;-0.0265;
3101211849028389;0.0941;-0.0802;0.0044;
3101211859138754;0.1165;-0.0162;-0.0180;
3101211869246202;0.1378;0.0487;-0.0361;
3101211879353598;0.1261;0.0477;-0.0073;
3101211889458025;0.0654;0.0850;-0.0105;
3101211899565473;0.0441;0.0455;-0.0350;
3101211909672869;0.0601;-0.0589;-0.0403;
3101211919774275;0.0984;-0.0482;-0.0457;
3101211929881723;0.1304;0.0679;-0.0563;
3101211939989119;0.1186;0.0178;-0.0276;
3101211950129379;0.0803;-0.0354;-0.0169;
3101211960236827;0.1144;-0.0109;-0.0617;
3101211970344223;0.2007;0.0178;-0.0372;
3101211980443442;0.1730;0.0786;-0.0190;
3101211990550837;0.0920;0.0615;-0.0031;
3101212000658285;0.0835;0.0711;-0.0308;
3101212010749379;0.0579;0.0242;-0.0052;
3101212020856827;0.0760;-0.0802;-0.0297;
3101212030964223;0.1325;-0.0099;-0.0265;
3101212041060160;0.1261;0.0413;-0.0063;
3101212051167608;0.1282;0.0221;-0.0041;
3101212061275004;0.1091;-0.0120;-0.0137;
3101212071398025;0.0920;-0.0354;0.0119;
3101212081505473;0.0782;-0.0216;0.0001;
3101212091612869;0.0792;-0.0162;0.0087;
3101212101727504;0.0824;-0.1079;-0.0041;
3101212111834952;0.1027;-0.0429;-0.0158;
3101212121942348;0.1250;0.0903;-0.0531;
3101212132053806;0.0867;-0.0887;-0.0585;
3101212142161254;0.0643;-0.1590;-0.0382;
3101212152268650;0.1325;-0.0344;-0.0606;
3101212162378337;0.1836;-0.0216;-0.0425;
3101212172485785;0.1517;-0.0407;-0.0308;
3101212182593181;0.0931;0.0019;-0.0340;
3101212192663233;0.1027;-0.0450;-0.0190;
3101212202770681;0.1218;-0.0312;-0.0137;
3101212212878077;0.1165;-0.0077;-0.0510;
3101212223003754;0.1506;0.0125;-0.0393;
3101212233111202;0.1772;0.0413;-0.0148;
3101212243218598;0.2379;-0.0216;-0.0201;
3101212253327660;0.3200;0.0583;-0.0052;
3101212263435108;0.3636;0.2276;0.0257;
3101212273542504;0.1858;0.0178;0.0577;
3101212283677504;-0.0230;-0.0759;0.0630;
3101212293784952;-0.1838;-0.0450;0.0459;
3101212303892348;-0.0527;-0.0876;0.0417;
3101212313976775;0.1932;-0.0652;0.0076;
3101212324084223;0.3072;0.0370;0.0225;
3101212334191619;0.2859;-0.0205;0.0864;
3101212344301671;0.1655;-0.1174;0.1035;
3101212354409119;0.1336;-0.1419;0.1184;
3101212364516514;0.2379;-0.0876;0.1099;
3101212374613858;0.3178;-0.0184;0.1642;
3101212384721306;0.2614;0.0605;0.1929;
3101212394828702;0.1506;0.0210;0.1993;
3101212404931931;0.1261;0.1413;0.1834;
3101212415039379;0.0430;0.1072;0.2121;
3101212425146775;-0.1635;-0.0706;0.2292;
3101212435273962;-0.3137;-0.0589;0.1919;
3101212445381410;-0.1699;-0.0003;0.1951;
3101212455488806;0.0696;-0.0024;0.1578;
3101212465588546;0.0686;-0.0013;0.1727;
3101212475695994;-0.0506;-0.1089;0.1695;
3101212485803389;0.0036;-0.1494;0.1865;
3101212495916410;0.1421;-0.0770;0.2047;
3101212506023858;0.2124;-0.0194;0.2238;
3101212516131254;0.1666;0.0008;0.2569;
3101212526234900;0.1176;0.0818;0.3080;
3101212536342348;0.0526;0.0626;0.2675;
3101212546449744;0.0366;0.0434;0.2334;
3101212556553129;0.0068;0.1232;0.2377;
3101212566660577;-0.0113;0.0935;0.2632;
3101212576767973;-0.0581;0.0391;0.2409;
3101212586865421;-0.0783;0.1200;0.2121;
3101212596972869;-0.0655;0.0562;0.2068;
3101212607080264;-0.0772;-0.0727;0.2270;
3101212617202087;-0.0368;-0.0067;0.2430;
3101212627309535;0.0313;0.0487;0.2505;
3101212637416931;0.0249;0.0061;0.2281;
3101212647511775;-0.0092;0.0296;0.2281;
3101212657619223;0.0068;0.0487;0.2068;
3101212667726619;-0.0124;0.0210;0.1791;
3101212677860837;-0.0794;-0.0780;0.1791;
3101212687968285;-0.0431;-0.0834;0.1450;
3101212698075681;0.0473;0.0466;0.1365;
3101212708169587;0.0313;0.0328;0.1748;
3101212718277035;-0.0325;-0.0716;0.1983;
3101212728384431;-0.0911;-0.1047;0.1386;
3101212738488650;-0.0698;-0.0599;0.1099;
3101212748596098;0.0057;0.0061;0.1429;
3101212758703546;0.0057;0.0935;0.0981;
3101212768807244;-0.0517;0.0807;0.0577;
3101212778914692;-0.0389;0.0264;0.0683;
3101212789022139;-0.0953;0.0583;0.0619;
3101212799135317;-0.2189;-0.0567;0.0364;
3101212809242764;-0.2530;-0.1451;0.0534;
3101212819350212;-0.1454;0.0338;0.0481;
3101212829457921;-0.0262;0.0605;-0.0169;
3101212839565369;-0.0474;-0.0557;-0.0020;
3101212849672817;-0.0964;-0.0567;-0.0063;
3101212859771150;0.0324;0.0807;-0.0148;
3101212869878598;0.0249;0.0796;-0.0403;
3101212879986046;-0.1422;-0.1292;0.0182;
3101212890119171;-0.2178;-0.1473;0.0065;
3101212900226619;-0.0549;-0.0429;-0.0308;
3101212910334067;0.1144;-0.0141;-0.0148;
3101212920401358;0.1719;0.0754;0.0150;
3101212930508806;0.0771;0.0562;0.0150;
3101212940616254;-0.0198;-0.0248;0.0246;
3101212950773650;-0.0124;0.0626;0.0321;
3101212960881098;0.0068;0.2446;0.0182;
3101212970988546;-0.0911;0.0370;0.0182;
3101212981070733;-0.2114;-0.1121;0.0310;
3101212991178181;-0.2881;0.0977;0.0023;
3101213001285629;-0.1646;0.0839;0.0065;
3101213011399692;-0.0517;-0.0439;-0.0095;
3101213021507139;-0.0868;-0.0056;-0.0073;
3101213031614587;-0.0676;-0.0567;0.0140;
3101213041720837;0.0366;-0.0535;0.0353;
3101213051828285;0.1399;0.0115;0.0459;
3101213061935733;0.2081;0.0828;0.0353;
3101213072020421;0.1389;0.0434;0.1024;
3101213082127869;-0.0559;-0.0610;0.1130;
3101213092235317;-0.0666;-0.0162;0.0992;
3101213102380629;-0.0284;0.0551;0.1152;
3101213112488077;0.0025;0.0956;0.1120;
3101213122595525;-0.0623;0.0455;0.1237;
3101213132672660;-0.0879;0.0051;0.1109;
3101213142780108;-0.0613;0.1020;0.1099;
3101213152887556;-0.1177;0.0328;0.0992;
3101213162998233;-0.1923;-0.0493;0.0779;
3101213173105681;-0.1997;-0.0706;0.0587;
3101213183213129;-0.1284;-0.1036;0.0683;
3101213193350942;-0.0336;0.0061;0.0651;
3101213203458389;-0.0081;-0.0130;0.0864;
3101213213565837;-0.0410;-0.0365;0.1194;
3101213223662400;-0.0463;0.0381;0.1099;
3101213233769848;-0.0932;-0.0024;0.0662;
3101213243877296;-0.1220;-0.0013;0.0779;
3101213253971150;-0.1252;0.0253;0.0609;
3101213264078598;-0.0666;0.0967;0.0513;
3101213274186046;-0.1571;0.1168;0.0353;
3101213284304900;-0.3446;-0.0130;0.0278;
3101213294412348;-0.4245;-0.1004;-0.0063;
3101213304519796;-0.3105;-0.0077;-0.0478;
3101213314601775;-0.0730;0.0871;-0.0318;
3101213324709223;-0.0783;0.1104;-0.0499;
3101213334816671;-0.2370;-0.0599;-0.0862;
3101213344926150;-0.2402;-0.1441;-0.0830;
3101213355033598;-0.1060;0.0466;-0.0947;
3101213365141046;-0.0081;0.1338;-0.1181;
3101213375254379;-0.0602;-0.0056;-0.1170;
3101213385361827;-0.1369;-0.1068;-0.0979;
3101213395469275;-0.1039;0.0338;-0.1224;
3101213405576462;-0.0124;0.0807;-0.1224;
3101213415683910;-0.0177;0.0253;-0.1085;
3101213425791358;-0.1060;-0.0493;-0.1000;
3101213435917296;-0.0932;-0.0397;-0.1288;
3101213446024744;-0.0687;0.0051;-0.1085;
3101213456132192;-0.0602;0.0402;-0.1352;
3101213466216879;-0.0538;0.0232;-0.1692;
3101213476324327;-0.0783;-0.0450;-0.1831;
3101213486431775;-0.0581;-0.0759;-0.1820;
3101213496552608;-0.0103;0.0445;-0.1586;
3101213506660056;-0.0145;0.0200;-0.1575;
3101213516767504;0.0302;-0.1068;-0.1479;
3101213526878650;0.0792;0.0136;-0.1543;
3101213536986098;0.0153;0.0881;-0.1234;
3101213547093546;-0.0613;-0.1089;-0.1245;
3101213557193025;0.0302;-0.0514;-0.1170;
3101213567300473;0.1091;0.1860;-0.1447;
3101213577407921;0.1357;0.1605;-0.1490;
3101213587512296;-0.0017;0.0945;-0.1320;
3101213597619744;-0.1028;0.0019;-0.1266;
3101213607727192;-0.1124;-0.0535;-0.1458;
3101213617842973;-0.1060;0.0285;-0.1437;
3101213627950421;-0.0506;0.0466;-0.1234;
3101213638057869;-0.0463;-0.0493;-0.1522;
3101213648156358;-0.0399;-0.0812;-0.1320;
3101213658263806;-0.0421;-0.0450;-0.1373;
3101213668371254;0.0068;-0.0099;-0.1394;
3101213678493129;0.0132;-0.0759;-0.1490;
3101213688600577;-0.0273;-0.1899;-0.1863;
3101213698708025;0.0142;-0.0983;-0.1767;
3101213708810629;0.0686;-0.0503;-0.1660;
3101213718918077;0.1783;-0.1036;-0.1543;
3101213729025525;0.2667;0.0029;-0.1202;
3101213739123337;0.2241;0.0786;-0.0819;
3101213749230785;0.1272;-0.0280;-0.0755;
3101213759338233;0.0558;-0.0770;-0.1277;
3101213769436567;0.0728;0.0743;-0.0819;
3101213779544014;0.1027;0.1253;-0.0776;
3101213789651462;0.2166;0.1551;-0.1160;
3101213799763442;0.1847;0.1999;-0.1256;
3101213809870889;0.0111;0.1136;-0.1085;
3101213819978337;0.0025;0.0700;-0.0989;
3101213830131046;-0.1635;-0.0557;-0.0915;
3101213840238494;-0.2967;-0.1313;-0.1064;
3101213850345942;-0.1923;-0.0525;-0.1160;
3101213860398962;-0.0538;-0.0610;-0.1096;
3101213870506410;0.0696;-0.1111;-0.1224;
3101213880613806;0.1783;0.0178;-0.0968;
3101213890728858;0.2422;0.0700;-0.1213;
3101213900836306;0.2571;-0.0823;-0.1149;
3101213910943754;0.1463;-0.1185;-0.0670;
3101213921033337;0.0611;-0.1473;-0.0574;
3101213931140785;0.1900;-0.0674;-0.0702;
3101213941248233;0.2901;-0.0333;-0.0489;
3101213951388858;0.2997;0.0636;-0.0212;
3101213961496306;0.1431;0.0647;0.0268;
3101213971603754;0.0601;-0.1249;0.0012;
3101213981721723;0.1208;0.0008;-0.0350;
3101213991829171;0.1133;0.1924;-0.0521;
3101214001936619;0.0941;0.1210;-0.0542;
3101214012035837;0.0334;-0.0056;-0.0510;
3101214022143285;-0.0538;0.0029;-0.0542;
3101214032250733;-0.1071;0.0242;-0.0670;
3101214042370004;-0.0463;0.0083;-0.1064;
3101214052477452;0.0409;-0.0375;-0.0957;
3101214062584900;0.0803;-0.0802;-0.0617;
3101214072677400;0.1112;-0.0301;-0.0457;
3101214082784848;0.1186;-0.0216;-0.0457;
3101214092892296;0.1421;0.0146;-0.0489;
3101214102993025;0.1602;0.0274;-0.0286;
3101214113100473;0.1485;-0.0088;-0.0382;
3101214123207921;0.1208;0.0253;-0.0403;
3101214133314067;0.0824;0.0168;-0.0478;
3101214143421514;0.0675;-0.0610;-0.0435;
3101214153528962;0.0739;-0.0194;-0.0329;
3101214163633546;0.1091;0.0221;-0.0041;
3101214173740994;0.1879;0.0977;-0.0190;
3101214183848442;0.1858;0.1210;-0.0435;
3101214193949796;-0.0060;-0.1366;-0.0457;
3101214204057244;-0.1166;-0.1995;-0.0329;
3101214214164692;-0.1316;0.0253;-0.0744;
3101214224278910;0.0654;0.1381;-0.1192;
3101214234386358;0.0664;0.0466;-0.1107;
3101214244493806;0.0089;-0.0525;-0.0830;
3101214254602921;0.0238;-0.0834;-0.0723;
3101214264710369;0.0611;-0.0173;-0.0968;
3101214274817817;0.1059;0.0402;-0.0947;
3101214284921671;0.0867;-0.0205;-0.0595;
3101214295029119;0.0590;-0.1302;-0.0276;
3101214305136567;0.0558;-0.1398;-0.0414;
3101214315240733;0.1623;0.0860;-0.0467;
3101214325348181;0.2976;0.1807;-0.0627;
3101214335455629;0.1772;-0.0493;-0.0382;
3101214345545056;-0.0273;-0.1036;-0.0510;
3101214355652504;0.0387;0.0253;-0.0702;
3101214365759952;0.1282;0.0391;-0.0574;
3101214375894275;0.1059;-0.0035;-0.0414;
3101214386001723;0.0739;-0.0258;-0.0510;
3101214396109171;0.1059;0.0061;-0.0361;
3101214406223546;0.1389;0.0168;-0.0201;
3101214416330994;0.0952;-0.0716;-0.0095;
3101214426438442;0.0941;-0.0226;-0.0073;
3101214436546254;0.1879;0.0530;-0.0190;
3101214446653702;0.2454;0.0796;-0.0318;
3101214456764327;0.2252;0.1338;-0.0361;
3101214466898754;0.1453;0.0402;-0.0190;
3101214477006202;0.0590;-0.0887;-0.0020;
3101214487113650;0.0728;-0.0610;-0.0350;
3101214497175212;0.1378;-0.0088;-0.0361;
3101214507282660;0.1676;0.0061;-0.0073;
3101214517390108;0.1868;0.0509;-0.0020;
3101214527498858;0.1517;-0.0525;-0.0073;
3101214537606306;0.0984;-0.0386;-0.0095;
3101214547713754;0.1591;0.0999;-0.0169;
3101214557815942;0.1410;0.0519;-0.0222;
3101214567923389;0.0867;-0.0418;-0.0190;
3101214578030837;0.0909;-0.0780;-0.0233;
3101214588141358;0.1282;-0.0695;-0.0190;
3101214598248806;0.1474;0.0317;-0.0659;
3101214608356254;0.1549;0.0626;-0.0563;
3101214618492921;0.1357;-0.0130;-0.0286;
3101214628600369;0.1314;-0.0109;-0.0222;
3101214638707817;0.1399;0.0306;-0.0361;
3101214648791567;0.1240;0.0051;-0.0627;
3101214658899014;0.1346;0.0498;-0.0712;
3101214669006462;0.1378;0.0253;-0.0531;
3101214679132192;0.1559;0.0679;-0.0617;
3101214689239639;0.1506;0.1009;-0.0574;
3101214699347087;0.0856;-0.0450;-0.0478;
3101214709438077;0.0824;0.0146;-0.0680;
3101214719545525;0.1250;0.0146;-0.0712;
3101214729652973;0.1314;-0.0748;-0.0318;
3101214739757400;0.1634;0.0253;-0.0382;
3101214749864848;0.1538;0.0455;-0.0201;
3101214759972296;0.0814;-0.1675;-0.0105;
3101214770092192;0.1272;-0.1249;-0.0297;
3101214780199639;0.1858;0.0573;-0.0265;
3101214790307087;0.1602;0.0200;-0.0265;
3101214800390785;0.1250;-0.0557;-0.0126;
3101214810498233;0.1367;-0.0557;-0.0212;
3101214820605629;0.1772;0.0168;0.0001;
3101214830734275;0.1644;0.0360;-0.0084;
3101214840841723;0.1975;0.0626;-0.0031;
3101214850949171;0.2390;0.1136;-0.0073;
3101214861057608;0.1506;0.0455;0.0023;
3101214871165056;0.1186;-0.0162;0.0140;
3101214881272504;0.1964;0.1020;-0.0393;
3101214891392712;0.2593;0.1818;-0.0308;
3101214901500160;0.1623;0.0796;0.0012;
3101214911607608;0.1623;0.0679;0.0012;
3101214921715525;0.1698;0.0466;0.0012;
3101214931822973;0.1644;-0.0567;0.0161;
3101214941930421;0.1889;-0.0184;0.0310;
3101214952018025;0.1953;0.0519;0.0310;
3101214962125473;0.1623;-0.0684;0.0630;
3101214972232921;0.2007;-0.0620;0.0779;
3101214982356983;0.2262;0.0253;0.0949;
3101214992464431;0.1378;-0.0652;0.1099;
3101215002571879;0.1346;-0.0365;0.0896;
3101215012649744;0.1868;0.0519;0.1237;
3101215022757192;0.1794;0.0935;0.1226;
3101215032864639;0.1602;0.1136;0.1216;
3101215042986462;0.1112;0.0477;0.1429;
3101215053093910;0.1069;0.0519;0.1461;
3101215063201358;0.1506;0.1104;0.1269;
3101215073305629;0.0931;0.0264;0.1322;
3101215083413077;0.0792;-0.0269;0.1503;
3101215093520525;0.1346;0.0477;0.1557;
3101215103632192;0.1101;0.0328;0.1642;
3101215113739639;0.0622;-0.0354;0.1663;
3101215123847087;0.1293;0.0423;0.1567;
3101215133953962;0.1304;0.0860;0.2015;
3101215144061410;0.0856;0.0008;0.2142;
3101215154168858;0.1027;0.0253;0.2057;
3101215164276775;0.0888;-0.0099;0.2654;
3101215174384223;0.0973;0.0360;0.2600;
3101215184491671;0.0750;0.0349;0.2366;
3101215194604483;0.0377;-0.0344;0.2441;
3101215204711931;0.0909;0.0690;0.2558;
3101215214819379;0.0302;0.0636;0.2600;
3101215224895629;-0.1422;-0.0610;0.2462;
3101215235003077;-0.1635;-0.0897;0.1983;
3101215245110525;-0.0666;-0.0514;0.1897;
3101215255243962;-0.0794;-0.0546;0.1738;
3101215265351410;-0.1103;-0.0557;0.1748;
3101215275458858;-0.0815;-0.0194;0.1748;
3101215285562608;-0.1273;-0.0344;0.1770;
3101215295670056;-0.1784;0.0093;0.1695;
3101215305777504;-0.1507;0.0807;0.1418;
3101215315889275;-0.1731;0.0189;0.1099;
3101215325996723;-0.1422;0.0242;0.1067;
3101215336104171;-0.1060;0.0818;0.0779;
3101215346226046;-0.1124;0.0690;0.0630;
3101215356333494;-0.0996;0.1338;0.0332;
3101215366440942;-0.1550;0.0573;0.0097;
3101215376531775;-0.2189;0.0509;0.0097;
3101215386639223;-0.1284;0.0871;-0.0244;
3101215396746671;-0.1326;-0.0344;-0.0403;
3101215406849171;-0.0964;-0.0897;-0.0212;
3101215416956619;0.0419;-0.0024;-0.0084;
3101215427064067;0.0526;0.0125;-0.0276;
3101215437175004;-0.0357;-0.0546;-0.0020;
3101215447282452;-0.0220;-0.0887;0.0406;
3101215457389848;0.0419;-0.0461;0.0300;
3101215467510942;0.0643;-0.0429;0.0129;
3101215477618337;0.0260;-0.0844;0.0459;
3101215487725733;0.0025;-0.0919;0.0225;
3101215497828129;0.0728;-0.0695;0.0236;
3101215507935525;0.1378;-0.0067;0.0374;
3101215518042921;0.1889;0.0924;0.0172;
3101215528126567;0.0387;0.0200;0.0268;
3101215538233910;-0.1486;-0.0770;0.0278;
3101215548341306;-0.0336;-0.0280;0.0257;
3101215558470733;0.0132;-0.0759;0.0289;
3101215568578129;0.0302;-0.0759;0.0427;
3101215578685525;0.1431;0.0328;0.0854;
3101215588799796;0.1900;0.0764;0.0992;
3101215598907192;0.0569;0.0104;0.0843;
3101215609014587;-0.0410;-0.0503;0.0704;
3101215619104067;0.1016;0.0967;0.0598;
3101215629211462;0.0888;0.0764;0.0598;
3101215639318858;-0.0655;-0.0503;0.0864;
3101215649420942;0.0696;0.0583;0.0587;
3101215659528337;0.0931;0.0754;0.0513;
3101215669635733;-0.0581;-0.0099;0.0896;
3101215679739587;-0.0220;-0.0109;0.0822;
3101215689846983;0.0505;0.0029;0.0683;
3101215699954379;0.0537;0.0296;0.0704;
3101215710070317;0.0004;-0.0162;0.1088;
3101215720177712;0.0004;-0.0141;0.0992;
3101215730285108;0.0153;-0.0493;0.0768;
3101215740378858;0.0579;-0.0280;0.0758;
3101215750486254;0.1016;0.1210;0.0662;
3101215760593650;-0.0305;0.0647;0.0747;
3101215770731462;-0.1017;0.0146;0.1056;
3101215780838858;-0.1198;0.0413;0.0619;
3101215790946254;-0.0772;-0.0791;0.0619;
3101215801047296;0.0686;0.0221;0.0150;
3101215811154692;0.0387;0.0903;-0.0031;
3101215821262087;-0.1060;-0.0461;0.0246;
3101215831363129;-0.1209;-0.1142;0.0619;
3101215841470525;0.0217;-0.0056;0.0364;
3101215851577921;0.0356;-0.0173;0.0065;
3101215861683129;-0.0103;-0.1164;0.0289;
3101215871790525;0.0750;-0.0706;0.0342;
3101215881897921;0.1304;0.0115;0.0395;
3101215892007087;0.0238;-0.0162;0.0619;
3101215902114483;-0.0049;-0.0194;0.0768;
3101215912221879;0.0334;0.0605;0.0545;
3101215922334900;-0.0166;0.0871;0.0502;
3101215932442296;-0.0570;0.0700;0.0523;
3101215942549692;-0.0336;-0.0184;0.0353;
3101215952656150;0.0356;-0.0684;0.0491;
3101215962763546;0.1197;0.0679;0.0672;
3101215972870942;0.0164;0.0296;0.0790;
3101215982990317;-0.0294;-0.0088;0.0992;
3101215993097712;0.0377;-0.0184;0.1003;
3101216003205108;0.0590;-0.0184;0.0704;
3101216013303129;0.0590;0.0210;0.0790;
3101216023410525;0.0185;-0.0258;0.0875;
3101216033517921;0.0334;-0.0226;0.1003;
3101216043629379;0.0611;0.0274;0.0800;
3101216053736775;-0.0071;-0.0141;0.1077;
3101216063844171;-0.0071;-0.0152;0.1205;
3101216073950004;0.0281;0.0700;0.0928;
3101216084057400;-0.0399;0.0328;0.0854;
3101216094164796;-0.0517;-0.0706;0.0981;
3101216104259796;0.0537;-0.0067;0.0885;
3101216114367192;0.0206;0.0647;0.0726;
3101216124474587;-0.0730;0.0072;0.0832;
3101216134591879;-0.0453;-0.0013;0.0811;
3101216144699275;-0.0314;0.0264;0.0587;
3101216154806671;-0.0421;0.0370;0.0555;
3101216164915317;-0.0655;0.0317;0.0619;
3101216175022712;-0.0772;-0.0450;0.0417;
3101216185130108;-0.0124;-0.0067;0.0193;
3101216195256983;-0.0389;0.0423;0.0172;
3101216205364379;-0.0985;-0.0237;0.0374;
3101216215471775;-0.0634;-0.0503;0.0374;
3101216225567712;-0.0346;-0.0056;0.0182;
3101216235675108;-0.0676;0.0072;0.0225;
3101216245782504;-0.0772;-0.0429;0.0438;
3101216255882921;-0.0772;-0.0546;0.0470;
3101216265990317;-0.0826;-0.0312;0.0395;
3101216276097712;-0.0889;-0.0535;0.0566;
3101216286199483;-0.0921;-0.0770;0.0502;
3101216296306879;-0.1028;-0.0620;0.0406;
3101216306414275;-0.1156;-0.0280;0.0640;
3101216316530108;-0.1220;-0.0269;0.0640;
3101216326637504;-0.1284;-0.0354;0.0491;
3101216336744900;-0.1124;0.0051;0.0364;
3101216346836983;-0.1262;0.0136;0.0470;
3101216356944379;-0.1390;-0.0354;0.0822;
3101216367051775;-0.1134;-0.0152;0.0672;
3101216377174900;-0.1060;0.0317;0.0481;
3101216387282296;-0.1113;0.0136;0.0662;
3101216397389692;-0.0858;0.0040;0.0917;
3101216407484900;-0.0740;0.0541;0.0854;
3101216417592296;-0.0911;0.1115;0.0800;
3101216427699692;-0.0953;0.0583;0.0864;
3101216437821567;-0.0794;0.0168;0.0694;
3101216447928962;-0.0506;0.0775;0.0417;
3101216458036358;-0.0879;0.1063;0.0598;
3101216468138337;-0.1028;0.0775;0.0672;
3101216478245733;-0.0911;0.0828;0.0332;
3101216488353129;-0.0772;0.1509;0.0065;
3101216498452608;-0.1305;0.1700;-0.0009;
3101216508560004;-0.1401;0.1009;0.0119;
3101216518667400;-0.1443;0.0551;0.0076;
3101216528787660;-0.1017;0.0764;-0.0308;
3101216538895056;-0.1081;0.0253;-0.0329;
3101216549002452;-0.1071;-0.0471;-0.0233;
3101216559106775;-0.0836;-0.0407;-0.0052;
3101216569214171;-0.0581;0.0083;-0.0063;
3101216579321567;-0.0676;0.0221;-0.0084;
3101216589425317;-0.0730;0.0306;-0.0041;
3101216599532712;-0.0442;0.0786;-0.0617;
3101216609640108;-0.0220;0.1402;-0.0531;
3101216619739379;-0.0932;0.1360;0.0108;
3101216629846775;-0.0836;0.1253;0.0129;
3101216639954171;-0.0783;0.0850;-0.0169;
3101216650081567;-0.0517;0.0509;-0.0414;
3101216660188962;-0.0751;-0.0024;-0.0340;
3101216670296358;-0.0836;-0.0429;-0.0009;
3101216680366775;-0.1028;-0.0599;0.0129;
3101216690474171;-0.0815;-0.0503;0.0065;
3101216700581514;-0.0879;-0.0439;-0.0009;
3101216710731983;-0.0847;-0.0194;-0.0180;
3101216720839379;-0.0932;0.0040;-0.0137;
3101216730946775;-0.1326;0.0413;0.0023;
3101216741038129;-0.1614;0.0668;0.0033;
3101216751145525;-0.1550;0.0796;0.0097;
3101216761252921;-0.1710;0.0881;0.0225;
3101216771354900;-0.1891;0.0658;0.0044;
3101216781462296;-0.2083;0.0626;-0.0084;
3101216791569692;-0.2370;0.0200;0.0055;
3101216801693442;-0.2690;-0.0716;0.0150;
3101216811800837;-0.2668;-0.1824;0.0076;
3101216821908233;-0.2285;-0.1217;-0.0372;
3101216832018962;-0.1912;0.0360;-0.0723;
3101216842126358;-0.2306;0.0754;-0.0819;
3101216852233754;-0.3212;0.0210;-0.0467;
3101216862324692;-0.3212;0.0509;-0.0617;
3101216872432087;-0.2019;0.0903;-0.1032;
3101216882539483;-0.1848;0.0679;-0.1096;
3101216892640317;-0.1720;0.0498;-0.1160;
3101216902747712;-0.1774;0.0317;-0.1053;
3101216912855108;-0.1593;-0.0226;-0.0925;
3101216922968337;-0.1071;-0.0546;-0.1021;
3101216933075733;-0.0921;-0.0652;-0.1096;
3101216943183129;-0.0911;-0.0439;-0.1149;
3101216953290004;-0.0879;-0.0471;-0.1107;
3101216963397400;-0.0634;-0.0727;-0.1373;
3101216973504796;-0.0676;-0.0503;-0.1469;
3101216983622400;-0.0527;-0.0067;-0.1383;
3101216993729796;-0.0591;-0.0024;-0.1362;
3101217003837192;-0.0762;0.0008;-0.1511;
3101217013940942;-0.0506;0.0551;-0.1979;
3101217024048337;-0.0103;0.1594;-0.2128;
3101217034155733;-0.0751;0.1519;-0.1979;
3101217044264483;-0.0305;-0.0461;-0.1607;
3101217054371879;0.0728;-0.0738;-0.1724;
3101217064479275;0.1037;-0.0120;-0.1884;
3101217074574067;0.1208;-0.0535;-0.1298;
3101217084681462;0.1197;-0.1185;-0.0755;
3101217094788858;0.1581;-0.1100;-0.0936;
3101217104908025;0.2443;-0.0503;-0.1085;
3101217115015421;0.2337;-0.0397;-0.0915;
3101217125122817;0.1708;-0.1111;-0.0425;
3101217135222400;0.2763;-0.0269;-0.0180;
3101217145329796;0.2933;0.1445;-0.0595;
3101217155437192;0.3445;0.2489;-0.0403;
3101217165542921;0.2955;0.3128;0.0076;
3101217175650317;0.2763;0.3607;0.0001;
3101217185757712;0.3615;0.3575;0.0225;
3101217195865994;0.3019;0.3394;0.0353;
3101217205973389;0.2710;0.2574;0.0587;
3101217216080785;0.2582;0.1296;0.0843;
3101217226208025;0.1815;0.0232;0.0917;
3101217236315421;0.2113;-0.0471;0.0875;
3101217246422817;0.1485;-0.0855;0.0672;
3101217256517192;0.1250;-0.0897;0.0715;
3101217266624587;0.0675;-0.0706;0.0640;
3101217276731983;0.0462;-0.0439;0.0566;
3101217286847921;0.0451;0.0274;0.0300;
3101217296955317;0.0505;0.0839;0.0161;
3101217307062712;0.0601;0.1434;0.0214;
3101217317159796;0.0217;0.2254;0.0310;
3101217327267192;0.0654;0.2340;0.0161;
3101217337374587;0.0334;0.1871;0.0023;
3101217347487087;0.0356;0.1296;0.0278;
3101217357594483;0.0430;0.1178;0.0555;
3101217367701879;0.0547;0.0977;0.0587;
3101217377805525;0.0441;0.0807;0.0427;
3101217387912921;0.0377;0.0658;0.0470;
3101217398020317;0.0270;0.0338;0.0640;
3101217408125421;0.0249;-0.0301;0.0715;
3101217418232817;0.0302;-0.1153;0.0779;
3101217428340212;0.0217;-0.1611;0.0715;
3101217438451671;-0.0081;-0.1387;0.0513;
3101217448559067;-0.0273;-0.1302;0.0662;
3101217458666462;-0.0847;-0.1260;0.0758;
3101217468791046;-0.0975;-0.1111;0.0864;
3101217478898442;-0.1113;-0.1047;0.0364;
3101217489005837;-0.1017;-0.0855;0.0225;
3101217499096254;-0.1113;-0.0567;-0.0073;
3101217509203650;-0.1401;-0.0525;0.0108;
3101217519311046;-0.1294;-0.0184;-0.0116;
3101217529415317;-0.1241;-0.0162;-0.0361;
3101217539522764;-0.1007;-0.0077;-0.0158;
3101217549630160;-0.0762;-0.0205;-0.0372;
3101217559723754;-0.0485;-0.0642;-0.0222;
3101217569831150;0.0153;-0.0706;-0.0190;
3101217579938546;0.0387;-0.0727;-0.0222;
3101217590056775;0.0611;-0.1036;0.0214;
3101217600164171;0.0899;-0.0929;0.0087;
3101217610271567;0.1186;-0.0961;0.0023;
3101217620362296;0.1336;-0.0940;0.0438;
3101217630469692;0.1293;-0.0759;0.0278;
3101217640577035;0.1250;-0.0802;0.0300;
3101217650714275;0.1091;-0.0674;0.0502;
3101217660821671;0.0941;-0.0418;0.0278;
3101217670929067;0.0515;-0.0642;0.0513;
3101217681029275;0.0217;-0.0557;0.0672;
3101217691136671;0.0249;-0.0312;0.0310;
3101217701244067;0.0025;-0.0525;0.0577;
3101217711344171;-0.0071;-0.0599;0.0736;
3101217721451567;0.0057;-0.0482;0.0470;
3101217731558962;-0.0081;-0.0589;0.0651;
3101217741683233;-0.0017;-0.0663;0.0885;
3101217751790629;0.0068;-0.0620;0.0630;
3101217761898025;-0.0049;-0.0780;0.0662;
3101217771994900;-0.0145;-0.0695;0.0885;
3101217782102296;-0.0113;-0.0354;0.0640;
3101217792209692;-0.0220;-0.0365;0.0427;
3101217802321879;-0.0389;-0.0418;0.0566;
3101217812429275;-0.0262;-0.0269;0.0449;
3101217822536671;-0.0188;-0.0088;0.0076;
3101217832647712;-0.0325;-0.0120;0.0193;
3101217842755108;-0.0431;-0.0322;0.0470;
3101217852862504;-0.0252;-0.0354;0.0300;
3101217862971410;-0.0039;-0.0354;0.0044;
3101217873078806;-0.0028;-0.0599;0.0300;
3101217883186202;-0.0113;-0.0738;0.0555;
3101217893294275;0.0015;-0.0567;0.0353;
3101217903401671;0.0142;-0.0461;0.0172;
3101217913509067;0.0089;-0.0322;0.0268;
3101217923611462;0.0004;-0.0194;0.0353;
3101217933718858;0.0036;-0.0237;0.0246;
3101217943826254;0.0100;-0.0226;0.0023;
3101217953952400;0.0174;-0.0067;0.0033;
3101217964059796;0.0036;-0.0056;0.0108;
3101217974167192;-0.0060;-0.0194;0.0097;
3101217984254379;-0.0039;-0.0130;0.0012;
3101217994361775;0.0153;-0.0077;0.0044;
3101218004469171;0.0249;-0.0162;0.0150;
3101218014571879;0.0164;-0.0056;0.0108;
3101218024679275;0.0238;-0.0067;0.0108;
3101218034786671;0.0260;-0.0056;0.0108;
3101218044892921;0.0345;-0.0056;0.0193;
3101218055000317;0.0356;-0.0205;0.0321;
3101218065107712;0.0451;0.0019;0.0310;
3101218075215733;0.0430;0.0008;0.0321;
3101218085323129;0.0451;-0.0226;0.0332;
3101218095430525;0.0366;-0.0067;0.0342;
3101218105552192;0.0292;0.0104;0.0364;
3101218115659587;0.0100;-0.0045;0.0417;
3101218125766983;-0.0039;-0.0088;0.0481;
3101218135861775;-0.0092;-0.0035;0.0566;
3101218145969171;-0.0071;-0.0024;0.0609;
3101218156076567;-0.0081;-0.0067;0.0555;
3101218166185421;-0.0007;0.0104;0.0619;
3101218176292817;0.0036;0.0296;0.0790;
3101218186400212;0.0068;0.0189;0.0875;
3101218196505629;0.0036;0.0338;0.0885;
3101218206613025;0.0132;0.0605;0.0885;
3101218216720421;0.0015;0.0636;0.0992;
3101218226828337;-0.0071;0.0583;0.1088;
3101218236935733;-0.0113;0.0615;0.1077;
3101218247043129;-0.0092;0.0605;0.1109;
3101218257158858;-0.0081;0.0562;0.1194;
3101218267266254;-0.0124;0.0551;0.1258;
3101218277373650;-0.0209;0.0658;0.1375;
3101218287477400;-0.0284;0.0700;0.1461;
3101218297584796;-0.0305;0.0679;0.1503;
3101218307692192;-0.0305;0.0679;0.1493;
3101218317800837;-0.0284;0.0615;0.1525;
3101218327908233;-0.0273;0.0668;0.1620;
3101218338015629;-0.0284;0.0839;0.1823;
3101218348128233;-0.0336;0.0892;0.1919;
3101218358235629;-0.0294;0.0764;0.1876;
3101218368343025;-0.0314;0.0754;0.1865;
3101218378449327;-0.0399;0.0743;0.1929;
3101218388556723;-0.0431;0.0690;0.2057;
3101218398664119;-0.0421;0.0732;0.2185;
3101218408767608;-0.0410;0.0860;0.2260;
3101218418875004;-0.0410;0.0860;0.2260;
3101218428982400;-0.0378;0.0839;0.2196;
3101218439088910;-0.0378;0.0850;0.2185;
3101218449196306;-0.0378;0.0818;0.2174;
3101218459303702;-0.0220;0.0850;0.2110;
3101218469431983;-0.0124;0.0913;0.2036;
3101218479539379;-0.0049;0.0818;0.2057;
3101218489646775;-0.0049;0.0786;0.1919;
3101218499734796;-0.0017;0.0818;0.1642;
3101218509842192;-0.0209;0.0732;0.1386;
3101218519949587;-0.0346;0.0573;0.1141;
3101218530068650;-0.0198;0.0466;0.0896;
3101218540176098;-0.0060;0.0519;0.0598;
3101218550283494;-0.0071;0.0509;0.0289;
3101218560365317;-0.0156;0.0498;0.0140;
3101218570472764;-0.0081;0.0562;0.0119;
3101218580580160;-0.0039;0.0636;0.0012;
3101218590706046;-0.0060;0.0615;-0.0265;
3101218600813494;-0.0198;0.0541;-0.0521;
3101218610920889;0.0057;0.0370;-0.0638;
3101218621022712;0.0505;0.0178;-0.0638;
3101218631130160;0.0824;0.0051;-0.0648;
3101218641237556;0.1442;-0.0077;-0.0744;
3101218651347817;0.1815;-0.0344;-0.0776;
3101218661455264;0.1943;-0.0642;-0.0755;
3101218671562660;0.2220;-0.0855;-0.0691;
3101218681662400;0.2443;-0.1047;-0.0648;
3101218691769848;0.2582;-0.1206;-0.0595;
3101218701877244;0.2646;-0.1292;-0.0531;
3101218711979900;0.2497;-0.1356;-0.0489;
3101218722087348;0.2294;-0.1377;-0.0467;
3101218732194744;0.2284;-0.1430;-0.0467;
3101218742316775;0.2348;-0.1515;-0.0489;
3101218752424223;0.2198;-0.1515;-0.0542;
3101218762531619;0.1804;-0.1281;-0.0617;
3101218772623962;0.1581;-0.0844;-0.0798;
3101218782731410;0.1154;-0.0333;-0.1096;
3101218792838806;0.0515;0.0008;-0.1447;
3101218802958494;0.0345;0.0178;-0.1820;
3101218813065942;0.0718;0.0381;-0.2064;
3101218823173337;0.0313;0.0519;-0.2117;
3101218833284483;-0.0220;0.0711;-0.2032;
3101218843391931;-0.0762;0.0636;-0.2000;
3101218853499327;-0.0772;0.0381;-0.2085;
3101218863596254;-0.0485;0.0189;-0.2149;
3101218873703702;0.0004;0.0093;-0.2064;
3101218883811098;0.0537;0.0136;-0.1969;
3101218893912192;0.0654;0.0253;-0.1927;
3101218904019639;0.0909;0.0306;-0.1948;
3101218914127035;0.1975;0.0296;-0.1959;
3101218924231410;0.3285;0.0200;-0.1831;
3101218934338858;0.4478;0.0125;-0.1415;
3101218944446254;0.5947;0.0083;-0.0808;
3101218954573754;0.7534;-0.0067;-0.0063;
3101218964681202;0.8706;-0.0280;0.0683;
3101218974788598;0.9526;-0.0557;0.1237;
3101218984886254;0.9568;-0.0823;0.1684;
3101218994993702;0.8940;-0.1025;0.2100;
3101219005101098;0.7875;-0.1068;0.2526;
3101219015208910;0.6415;-0.0908;0.2846;
3101219025316358;0.5138;-0.0578;0.2920;
3101219035423754;0.3636;-0.0216;0.2803;
3101219045536983;0.2092;0.0104;0.2494;
3101219055644431;0.0941;0.0381;0.2132;
3101219065751827;0.0089;0.0594;0.1844;
3101219075854067;-0.0527;0.0647;0.1610;
3101219085961514;-0.0666;0.0562;0.1407;
3101219096068910;-0.0634;0.0391;0.1280;
3101219106195629;-0.0453;0.0125;0.1205;
3101219116303077;-0.0220;-0.0194;0.1205;
3101219126410473;0.0579;-0.0429;0.1205;
3101219136498442;0.1389;-0.0567;0.1205;
3101219146605889;0.1644;-0.0557;0.1205;
3101219156713285;0.1751;-0.0418;0.1152;
3101219166821567;0.1996;-0.0290;0.0949;
3101219176929014;0.2177;-0.0173;0.0566;
3101219187036410;0.2177;-0.0141;0.0172;
3101219197140004;0.2081;-0.0120;-0.0116;
3101219207247452;0.2188;-0.0045;-0.0297;
3101219217354848;0.2422;0.0051;-0.0393;
3101219227465212;0.2656;0.0093;-0.0489;
3101219237572660;0.2997;0.0093;-0.0659;
3101219247680056;0.3434;0.0051;-0.0776;
3101219257787504;0.3828;-0.0024;-0.0755;
3101219267894952;0.4169;-0.0099;-0.0744;
3101219278002348;0.4446;-0.0205;-0.0723;
3101219288113233;0.4574;-0.0354;-0.0670;
3101219298220681;0.4766;-0.0375;-0.0595;
3101219308328077;0.4925;-0.0312;-0.0489;
3101219318438129;0.4872;-0.0248;-0.0414;
3101219328545577;0.4638;-0.0216;-0.0340;
3101219338652973;0.4414;-0.0258;-0.0297;
3101219348760837;0.4052;-0.0280;-0.0350;
3101219358868285;0.3391;-0.0280;-0.0435;
3101219368975681;0.2475;-0.0258;-0.0510;
3101219379075421;0.1602;-0.0184;-0.0606;
3101219389182869;0.0750;-0.0141;-0.0766;
3101219399290264;-0.0124;-0.0130;-0.0947;
3101219409389900;-0.0506;-0.0152;-0.1075;
3101219419497348;-0.0325;-0.0141;-0.1128;
3101219429604744;-0.0273;-0.0226;-0.1085;
3101219439715212;-0.0198;-0.0333;-0.1085;
3101219449822660;-0.0209;-0.0429;-0.1149;
3101219459930056;-0.0177;-0.0482;-0.1245;
3101219470062296;-0.0166;-0.0450;-0.1288;
3101219480169744;-0.0188;-0.0344;-0.1309;
3101219490277139;-0.0252;-0.0248;-0.1320;
3101219500384275;-0.0294;-0.0120;-0.1352;
3101219510491723;-0.0506;-0.0035;-0.1383;
3101219520587348;-0.0911;-0.0035;-0.1405;
3101219530694796;-0.1177;-0.0120;-0.1383;
3101219540802192;-0.0953;-0.0152;-0.1309;
3101219550901150;-0.0623;-0.0280;-0.1202;
3101219561008598;-0.0284;-0.0429;-0.1096;
3101219571115994;-0.0103;-0.0503;-0.1075;
3101219581253962;-0.0124;-0.0546;-0.1085;
3101219591361410;-0.0092;-0.0546;-0.1170;
3101219601468806;-0.0028;-0.0450;-0.1298;
3101219611563389;0.0164;-0.0365;-0.1437;
3101219621670837;0.0505;-0.0280;-0.1543;
3101219631778233;0.0664;-0.0237;-0.1618;
3101219641872087;0.0483;-0.0258;-0.1714;
3101219651979535;0.0015;-0.0322;-0.1820;
3101219662086931;-0.0177;-0.0429;-0.1884;
3101219672195317;-0.0060;-0.0493;-0.1895;
3101219682302764;-0.0103;-0.0450;-0.1873;
3101219692410160;-0.0071;-0.0365;-0.1884;
3101219702519171;-0.0113;-0.0301;-0.1873;
3101219712626619;-0.0071;-0.0301;-0.1852;
3101219722734014;-0.0081;-0.0407;-0.1767;
3101219732841358;-0.0092;-0.0525;-0.1639;
3101219742948806;-0.0039;-0.0589;-0.1554;
3101219753056202;-0.0145;-0.0610;-0.1490;
3101219763160212;-0.0113;-0.0546;-0.1447;
3101219773267660;-0.0113;-0.0397;-0.1426;
3101219783375056;-0.0081;-0.0248;-0.1437;
3101219793481775;-0.0060;-0.0216;-0.1469;
3101219803589223;-0.0081;-0.0312;-0.1469;
3101219813696619;-0.0060;-0.0429;-0.1405;
3101219823803650;-0.0060;-0.0503;-0.1341;
3101219833911098;0.0036;-0.0535;-0.1320;
3101219844018494;0.0377;-0.0525;-0.1341;
3101219854129483;0.0899;-0.0407;-0.1352;
3101219864236931;0.1453;-0.0290;-0.1341;
3101219874344327;0.1889;-0.0258;-0.1298;
3101219884465421;0.2124;-0.0290;-0.1298;
3101219894572869;0.1953;-0.0333;-0.1352;
3101219904680264;0.1250;-0.0407;-0.1394;
3101219914776671;0.0260;-0.0503;-0.1479;
3101219924884119;-0.0252;-0.0503;-0.1554;
3101219934991514;-0.0028;-0.0397;-0.1533;
3101219945092712;-0.0007;-0.0322;-0.1447;
3101219955200160;0.0057;-0.0237;-0.1405;
3101219965307556;0.0047;-0.0248;-0.1437;
3101219975423754;0.0025;-0.0312;-0.1373;
3101219985531202;0.0015;-0.0375;-0.1266;
3101219995638598;-0.0007;-0.0397;-0.1192;
3101220005740525;-0.0007;-0.0386;-0.1138;
3101220015847973;-0.0007;-0.0365;-0.1075;
3101220025955369;-0.0007;-0.0354;-0.1011;
3101220036061983;-0.0017;-0.0301;-0.0957;
3101220046169431;-0.0049;-0.0258;-0.0904;
3101220056276827;-0.0060;-0.0205;-0.0819;
3101220066379900;-0.0071;-0.0130;-0.0744;
3101220076487348;-0.0081;-0.0056;-0.0638;
3101220086594744;-0.0103;-0.0056;-0.0510;
3101220096708910;-0.0113;-0.0077;-0.0393;
3101220106816358;-0.0177;-0.0077;-0.0254;
3101220116923754;-0.0145;-0.0099;-0.0073;
3101220127024171;-0.0145;-0.0088;0.0033;
3101220137131619;-0.0145;-0.0024;0.0129;
3101220147239014;-0.0177;0.0019;0.0214;
3101220157352817;-0.0188;0.0029;0.0268;
3101220167460264;-0.0220;0.0072;0.0310;
3101220177567660;-0.0262;0.0104;0.0364;
3101220187670629;-0.0284;0.0093;0.0406;
3101220197778077;-0.0284;0.0157;0.0449;
3101220207885473;-0.0273;0.0200;0.0449;
3101220218002296;-0.0252;0.0232;0.0449;
3101220228109744;-0.0241;0.0232;0.0438;
3101220238217139;-0.0220;0.0168;0.0449;
3101220248321098;-0.0220;0.0104;0.0449;
3101220258428546;-0.0220;0.0061;0.0449;
3101220268535942;-0.0188;0.0040;0.0417;
3101220278644692;-0.0177;0.0072;0.0353;
3101220288752139;-0.0177;0.0104;0.0236;
3101220298859535;-0.0188;0.0115;0.0140;
3101220308963650;-0.0230;0.0136;0.0065;
3101220319071098;-0.0346;0.0083;-0.0009;
3101220329178494;-0.0495;-0.0003;-0.0105;
3101220339285212;-0.0591;-0.0056;-0.0222;
3101220349392660;-0.0644;-0.0077;-0.0350;
3101220359500056;-0.0655;-0.0141;-0.0499;
3101220369611150;-0.0570;-0.0099;-0.0563;
3101220379718598;-0.0399;-0.0035;-0.0553;
3101220389825994;-0.0357;-0.0141;-0.0680;
3101220399926254;-0.0325;-0.0226;-0.0712;
3101220410033702;-0.0284;-0.0280;-0.0766;
3101220420141098;-0.0156;-0.0237;-0.0830;
3101220430264171;-0.0049;-0.0258;-0.0840;
3101220440371619;0.0068;-0.0280;-0.0840;
3101220450479014;0.0153;-0.0226;-0.0851;
3101220460610317;0.0111;-0.0226;-0.0851;
3101220470717764;0.0100;-0.0280;-0.0840;
3101220480825160;0.0121;-0.0290;-0.0830;
3101220490891358;0.0153;-0.0301;-0.0787;
3101220500998806;0.0174;-0.0312;-0.0744;
3101220511106202;0.0185;-0.0269;-0.0712;
3101220521207817;0.0164;-0.0237;-0.0670;
3101220531315264;0.0121;-0.0194;-0.0617;
3101220541422712;0.0079;-0.0162;-0.0574;
3101220551567712;0.0068;-0.0109;-0.0542;
3101220561675160;0.0068;-0.0099;-0.0499;
3101220571782556;0.0228;-0.0120;-0.0489;
3101220581880421;0.0217;-0.0162;-0.0585;
3101220591987869;0.0174;-0.0088;-0.0510;
3101220602095264;0.0153;-0.0099;-0.0467;
3101220612210733;0.0142;-0.0088;-0.0467;
3101220622318181;0.0111;-0.0088;-0.0425;
3101220632425577;0.0164;-0.0109;-0.0414;
3101220642508442;0.0142;-0.0109;-0.0403;
3101220652615889;0.0089;-0.0120;-0.0340;
3101220662723285;0.0025;-0.0067;-0.0276;
3101220672833233;0.0047;-0.0035;-0.0233;
3101220682940681;0.0036;-0.0045;-0.0190;
3101220693048077;0.0047;-0.0035;-0.0158;
3101220703154483;0.0025;-0.0003;-0.0105;
3101220713261931;0.0036;-0.0003;-0.0073;
3101220723369327;0.0015;0.0040;-0.0020;
3101220733476046;-0.0039;0.0040;0.0033;
3101220743583494;-0.0081;0.0051;0.0108;
3101220753690889;-0.0103;0.0040;0.0161;
3101220763797296;-0.0113;0.0040;0.0204;
3101220773904744;-0.0156;0.0072;0.0214;
3101220784012139;-0.0209;0.0104;0.0278;
3101220794120108;-0.0241;0.0093;0.0332;
3101220804227556;-0.0294;0.0093;0.0364;
3101220814334952;-0.0325;0.0093;0.0406;
3101220824480108;-0.0314;0.0104;0.0449;
3101220834587556;-0.0273;0.0115;0.0481;
3101220844694952;-0.0220;0.0104;0.0481;
3101220854766150;-0.0166;0.0125;0.0481;
3101220864873598;-0.0156;0.0125;0.0438;
3101220874980994;-0.0156;0.0104;0.0406;
3101220885079171;-0.0134;0.0104;0.0385;
3101220895186619;-0.0113;0.0093;0.0353;
3101220905294014;-0.0071;0.0061;0.0300;
3101220915415004;-0.0071;0.0051;0.0236;
3101220925522452;-0.0113;0.0061;0.0204;
3101220935629848;-0.0124;0.0040;0.0182;
3101220945729796;-0.0113;0.0040;0.0172;
3101220955837244;-0.0060;0.0008;0.0150;
3101220965944639;-0.0049;-0.0003;0.0150;
3101220976055317;-0.0071;0.0008;0.0150;
3101220986162764;-0.0039;0.0019;0.0119;
3101220996270160;-0.0071;0.0008;0.0119;
3101221006390421;-0.0092;0.0019;0.0087;
3101221016497817;-0.0113;0.0019;0.0065;
3101221026605264;-0.0103;0.0029;0.0065;
3101221036702192;-0.0092;0.0008;0.0044;
3101221046809639;-0.0071;-0.0013;0.0033;
3101221056917035;-0.0049;-0.0003;0.0012;
3101221067024587;-0.0039;-0.0013;0.0012;
3101221077132035;-0.0039;-0.0003;0.0001;
3101221087239431;-0.0049;0.0019;-0.0009;
3101221097351254;-0.0049;0.0019;-0.0020;
3101221107458702;-0.0028;0.0008;-0.0020;
3101221117566098;-0.0039;0.0008;-0.0020;
3101221127667192;0.0004;0.0008;-0.0031;
3101221137774639;0.0249;0.0029;-0.0052;
3101221147882035;0.0185;-0.0056;-0.0126;
3101221157993025;0.0047;-0.0067;-0.0084;
3101221168100473;-0.0081;-0.0056;-0.0041;
3101221178207869;-0.0103;-0.0045;-0.0041;
3101221188314067;-0.0092;-0.0013;-0.0105;
3101221198421514;-0.0060;0.0008;-0.0116;
3101221208528910;-0.0081;-0.0013;-0.0105;
3101221218639327;-0.0039;-0.0035;-0.0105;
3101221228746775;-0.0017;-0.0045;-0.0095;
3101221238854171;-0.0039;-0.0024;-0.0073;
3101221248957244;0.0015;-0.0035;-0.0063;
3101221259064692;0.0068;-0.0024;-0.0020;
3101221269172087;0.0036;-0.0013;0.0001;
3101221279278546;0.0004;0.0019;-0.0009;
3101221289385994;-0.0039;0.0019;0.0001;
