Sensor: bmi160 Gyroscope Non-wakeup
Vendor: BOSCH
TimestampGyro [ns]; GyroX [rad/s]; GyroY [rad/s]; GyroZ [rad/s]
988917425856157;-0.0089;-0.0027;0.0053;
988917435964907;0.0028;0.0059;0.0149;
988917446066365;-0.0004;0.0005;0.0107;
988917456171834;-0.0004;-0.0016;0.0085;
988917466269074;0.0007;-0.0005;0.0075;
988917476373761;0.0007;-0.0016;0.0064;
988917486453032;-0.0015;-0.0005;0.0064;
988917496578813;-0.0025;-0.0005;0.0064;
988917506671886;-0.0025;-0.0005;0.0053;
988917516780584;0.0007;-0.0005;0.0021;
988917526883501;-0.0004;-0.0016;0.0011;
988917536987459;0.0007;-0.0016;0.0000;
988917547085584;0.0007;-0.0016;0.0000;
988917557189126;0.0007;-0.0016;-0.0021;
988917567296626;0.0007;0.0005;-0.0043;
988917577401209;0.0028;0.0027;-0.0043;
988917587505897;0.0007;0.0016;-0.0075;
988917597614230;0.0017;0.0005;-0.0096;
988917607715063;0.0028;0.0016;-0.0096;
988917617821469;0.0028;-0.0005;-0.0085;
988917627919126;0.0007;-0.0016;-0.0096;
988917638018501;0.0007;0.0005;-0.0085;
988917648129542;0.0007;0.0016;-0.0064;
988917658229178;-0.0015;0.0027;-0.0053;
988917668340480;-0.0025;0.0048;-0.0011;
988917678431209;-0.0047;0.0059;0.0064;
988917688542667;-0.0057;0.0037;0.0170;
988917698642251;-0.0057;0.0016;0.0320;
988917708746730;-0.0079;-0.0037;0.0490;
988917718848397;-0.0111;-0.0091;0.0682;
988917728961209;-0.0142;-0.0112;0.0842;
988917739082303;-0.0217;-0.0112;0.1044;
988917749173084;-0.0270;-0.0059;0.1257;
988917759298188;-0.0324;-0.0037;0.1470;
988917769378605;-0.0377;-0.0048;0.1694;
988917779478188;-0.0430;-0.0069;0.1875;
988917789583501;-0.0473;-0.0112;0.2067;
988917799667876;-0.0515;-0.0123;0.2248;
988917809786834;-0.0569;-0.0101;0.2407;
988917819903709;-0.0601;-0.0069;0.2546;
988917830001626;-0.0643;-0.0059;0.2684;
988917840116001;-0.0675;-0.0069;0.2780;
988917850209230;-0.0696;-0.0080;0.2887;
988917860317251;-0.0707;-0.0112;0.2972;
988917870435584;-0.0728;-0.0112;0.3047;
988917880528188;-0.0718;-0.0101;0.3068;
988917890627667;-0.0707;-0.0101;0.3068;
988917900726001;-0.0707;-0.0091;0.3068;
988917910835480;-0.0686;-0.0091;0.3025;
988917920957459;-0.0675;-0.0080;0.2961;
988917931044386;-0.0611;-0.0069;0.2887;
988917941155219;-0.0505;-0.0048;0.2802;
988917951260011;-0.0387;-0.0037;0.2695;
988917961368084;-0.0387;-0.0037;0.2578;
988917971458501;-0.0430;-0.0037;0.2397;
988917981559542;-0.0483;-0.0016;0.2237;
988917991686053;-0.0505;-0.0027;0.2056;
988918001769022;-0.0483;-0.0037;0.1885;
988918011885219;-0.0419;-0.0027;0.1694;
988918021996417;-0.0345;-0.0027;0.1491;
988918032091105;-0.0196;-0.0048;0.1300;
988918042193397;-0.0015;-0.0037;0.1140;
988918052310792;0.0177;-0.0037;0.0980;
988918062403084;0.0390;-0.0037;0.0831;
988918072507251;0.0593;-0.0016;0.0714;
988918082620480;0.0774;-0.0016;0.0607;
988918092706417;0.0901;-0.0027;0.0511;
988918102802667;0.0912;-0.0027;0.0458;
988918112919230;0.0848;-0.0016;0.0415;
988918123048969;0.0720;-0.0016;0.0405;
988918133163397;0.0561;-0.0016;0.0362;
988918143250376;0.0305;0.0037;0.0330;
988918153328188;-0.0068;0.0059;0.0298;
988918163424959;-0.0196;0.0091;0.0256;
988918173521730;-0.0153;0.0123;0.0256;
988918183651157;-0.0121;0.0112;0.0277;
988918193749855;-0.0111;0.0059;0.0266;
988918203849647;-0.0089;0.0016;0.0245;
988918213951105;-0.0111;-0.0027;0.0245;
988918224079751;-0.0068;-0.0027;0.0266;
988918234148397;-0.0068;-0.0005;0.0277;
988918244266626;-0.0100;-0.0016;0.0213;
988918254383709;-0.0100;-0.0059;0.0138;
988918264482355;-0.0057;-0.0112;0.0096;
988918274579751;0.0081;-0.0144;-0.0117;
988918284684751;-0.0025;-0.0144;-0.0245;
988918294808917;-0.0185;-0.0272;0.0149;
988918304893605;0.0220;0.0048;0.0437;
988918314996730;0.0113;0.0485;0.0320;
988918325126834;-0.0174;0.0112;-0.0085;
988918335223813;-0.0079;-0.0186;-0.0170;
988918345316105;0.0209;0.0133;-0.0075;
988918355409230;0.0209;0.0165;-0.0245;
988918365524334;-0.0004;-0.0080;-0.0511;
988918375619282;0.0007;-0.0101;-0.0522;
988918385733084;0.0284;-0.0037;-0.0426;
988918395833917;0.0859;-0.0048;-0.0554;
988918405937147;0.1594;-0.0005;-0.0778;
988918416044751;0.1541;0.0165;-0.0767;
988918426145792;0.0039;0.0240;-0.0628;
988918436250272;-0.0228;0.0208;-0.0575;
988918446355219;-0.0142;0.0261;-0.0575;
988918456457147;0.0007;0.0144;-0.0469;
988918466564230;0.0124;-0.0154;-0.0266;
988918476698501;0.0188;-0.0282;-0.0107;
988918486786261;0.0017;-0.0176;-0.0053;
988918496885480;-0.0153;-0.0069;0.0021;
988918506984699;-0.0142;0.0080;0.0192;
988918517085167;-0.0089;0.0144;0.0309;
988918527184386;-0.0111;-0.0027;0.0320;
988918537283553;-0.0132;-0.0112;0.0320;
988918547399542;-0.0121;-0.0112;0.0405;
988918557498761;-0.0111;-0.0101;0.0543;
988918567597928;-0.0174;0.0027;0.0607;
988918577709126;-0.0206;0.0133;0.0618;
988918587808344;-0.0164;0.0069;0.0650;
988918597907511;-0.0111;-0.0016;0.0692;
988918608023709;-0.0089;-0.0080;0.0692;
988918618122876;-0.0164;-0.0101;0.0650;
988918628222094;-0.0228;-0.0027;0.0618;
988918638332876;-0.0196;0.0048;0.0575;
988918648432094;-0.0142;0.0037;0.0501;
988918658531261;-0.0068;0.0027;0.0394;
988918668658605;-0.0047;-0.0016;0.0341;
988918678757824;-0.0079;-0.0037;0.0309;
988918688856990;-0.0111;0.0016;0.0309;
988918698955792;-0.0111;0.0027;0.0277;
988918709055011;-0.0057;0.0048;0.0256;
988918719154178;-0.0015;0.0069;0.0266;
988918729293761;-0.0015;0.0016;0.0288;
988918739392980;-0.0089;-0.0037;0.0383;
988918749492199;-0.0153;0.0005;0.0469;
988918759585792;-0.0174;0.0016;0.0554;
988918769685011;-0.0164;0.0037;0.0628;
988918779784178;-0.0111;0.0048;0.0692;
988918789898188;-0.0132;0.0027;0.0788;
988918799997355;-0.0228;-0.0016;0.0884;
988918810096574;-0.0270;-0.0059;0.0969;
988918820204334;-0.0238;-0.0059;0.1023;
988918830303553;-0.0217;-0.0016;0.0980;
988918840402719;-0.0196;-0.0027;0.0831;
988918850515949;-0.0206;-0.0080;0.0735;
988918860615167;-0.0164;-0.0091;0.0628;
988918870714334;-0.0111;-0.0059;0.0501;
988918880876313;-0.0132;-0.0069;0.0288;
988918890975480;-0.0111;-0.0059;0.0117;
988918901074699;-0.0047;0.0005;0.0011;
988918911143397;0.0007;0.0037;-0.0032;
988918921242563;-0.0025;0.0027;-0.0064;
988918931341782;-0.0036;-0.0016;-0.0064;
988918941455688;-0.0047;-0.0059;0.0032;
988918951554855;-0.0036;-0.0069;0.0160;
988918961654074;-0.0057;-0.0016;0.0245;
988918971768709;-0.0089;0.0048;0.0320;
988918981867876;-0.0111;0.0059;0.0394;
988918991967094;-0.0111;0.0027;0.0479;
988919002089022;-0.0121;0.0027;0.0533;
988919012188240;-0.0142;0.0037;0.0586;
988919022287407;-0.0153;0.0027;0.0650;
988919032396313;-0.0164;-0.0005;0.0735;
988919042495532;-0.0164;0.0005;0.0810;
988919052594699;-0.0185;-0.0005;0.0852;
988919062692772;-0.0238;-0.0027;0.0873;
988919072791938;-0.0217;-0.0059;0.0884;
988919082891157;-0.0185;-0.0048;0.0820;
988919093018709;-0.0196;0.0005;0.0714;
988919103117876;-0.0153;0.0016;0.0597;
988919113217094;-0.0142;0.0027;0.0522;
988919123335688;-0.0121;-0.0016;0.0469;
988919133434907;-0.0121;-0.0037;0.0426;
988919143534074;-0.0142;-0.0069;0.0373;
988919153691782;-0.0153;-0.0080;0.0330;
988919163790949;-0.0132;-0.0080;0.0320;
988919173890167;-0.0121;-0.0101;0.0320;
988919183944907;-0.0153;-0.0080;0.0373;
988919194044126;-0.0132;-0.0048;0.0405;
988919204143292;-0.0196;-0.0048;0.0362;
988919214292199;-0.0387;-0.0059;0.0288;
988919224391417;-0.0473;-0.0080;0.0213;
988919234490584;-0.0473;-0.0069;0.0192;
988919244573188;-0.0356;-0.0037;0.0160;
988919254672407;-0.0174;0.0016;0.0138;
988919264771574;-0.0015;0.0016;0.0085;
988919274895949;-0.0015;0.0016;0.0064;
988919284995115;0.0007;0.0048;0.0053;
988919295094334;-0.0004;0.0080;0.0053;
988919305209022;0.0017;0.0112;0.0021;
988919315308240;0.0028;0.0069;0.0000;
988919325407407;0.0028;0.0005;-0.0011;
988919335538709;0.0039;0.0005;-0.0064;
988919345637928;0.0007;0.0016;-0.0138;
988919355737147;-0.0004;-0.0005;-0.0170;
988919365832980;0.0017;0.0005;-0.0128;
988919375932147;0.0039;0.0016;-0.0117;
988919386031365;0.0017;0.0005;-0.0096;
988919396143188;-0.0015;-0.0005;-0.0032;
988919406242407;-0.0036;-0.0037;0.0085;
988919416341574;-0.0025;-0.0048;0.0202;
988919426452042;-0.0068;-0.0027;0.0245;
988919436551261;-0.0089;-0.0016;0.0256;
988919446650480;-0.0068;-0.0027;0.0320;
988919456760063;-0.0025;-0.0005;0.0341;
988919466859282;-0.0047;0.0016;0.0330;
988919476958449;-0.0079;0.0027;0.0288;
988919487101157;-0.0111;0.0037;0.0362;
988919497204334;-0.0111;0.0059;0.0511;
988919507307563;-0.0142;0.0080;0.0671;
988919517390428;-0.0174;0.0059;0.0788;
988919527493657;-0.0206;-0.0037;0.0873;
988919537596834;-0.0217;-0.0112;0.0948;
988919547701626;-0.0238;-0.0112;0.0991;
988919557804803;-0.0260;-0.0080;0.0969;
988919567908032;-0.0281;-0.0091;0.0863;
988919578019438;-0.0281;-0.0144;0.0767;
988919588122615;-0.0174;-0.0176;0.0618;
988919598225844;-0.0142;-0.0101;0.0511;
988919608325376;-0.0079;-0.0016;0.0373;
988919618428605;-0.0079;0.0091;0.0256;
988919628531782;-0.0068;0.0112;0.0085;
988919638641938;-0.0047;-0.0005;-0.0075;
988919648745167;0.0017;-0.0069;-0.0149;
988919658848344;0.0124;-0.0059;-0.0213;
988919668964178;0.0060;-0.0005;-0.0330;
988919679067355;0.0092;0.0059;-0.0447;
988919689170532;0.0134;0.0112;-0.0522;
988919699256417;0.0166;0.0144;-0.0597;
988919709359594;0.0177;0.0101;-0.0682;
988919719462824;0.0156;0.0027;-0.0692;
988919729580636;0.0177;-0.0005;-0.0618;
988919739683813;0.0177;0.0027;-0.0533;
988919749786990;0.0113;0.0091;-0.0501;
988919759904647;0.0103;0.0133;-0.0447;
988919770007824;0.0113;0.0123;-0.0330;
988919780111001;0.0103;0.0059;-0.0202;
988919790198292;0.0028;-0.0005;-0.0096;
988919800301522;-0.0015;-0.0059;0.0011;
988919810404699;-0.0047;-0.0027;0.0128;
988919820511626;-0.0089;-0.0016;0.0256;
988919830614855;-0.0100;-0.0027;0.0362;
988919840718032;-0.0142;-0.0069;0.0437;
988919850828188;-0.0313;-0.0091;0.0565;
988919860931365;-0.1590;0.0059;0.0735;
988919871034594;-0.1739;-0.0112;0.0660;
988919881153501;-0.0430;-0.0250;0.0671;
988919891256678;-0.0515;-0.0027;0.0980;
988919901359907;-0.0622;-0.0186;0.1065;
988919911448709;-0.0451;-0.0218;0.0895;
988919921551938;-0.0760;0.0165;0.0767;
988919931655115;-0.0835;0.0091;0.0852;
988919941767980;-0.0100;-0.0154;0.0884;
988919951871209;0.0060;-0.0261;0.0756;
988919961974386;-0.0153;-0.0229;0.0565;
988919972076522;-0.0249;-0.0080;0.0437;
988919982179751;-0.0079;0.0048;0.0405;
988919992282928;-0.0111;0.0154;0.0415;
988920002395272;-0.0004;0.0101;0.0426;
988920012498449;0.0145;-0.0186;0.0394;
988920022601678;0.0678;-0.0453;0.0490;
988920032707511;0.1945;-0.0549;0.0533;
988920042810688;0.3426;-0.0336;0.0383;
988920052913865;0.4246;0.0091;0.0138;
988920063012199;0.4523;0.0495;0.0043;
988920073115376;0.4310;0.0591;0.0117;
988920083218553;0.3586;0.0442;0.0117;
988920093326990;0.2542;0.0197;0.0011;
988920103430167;0.1178;-0.0059;-0.0053;
988920113533344;-0.0270;-0.0144;0.0043;
988920123693188;-0.0270;-0.0112;0.0277;
988920133796365;-0.0079;-0.0080;0.0426;
988920143899542;-0.0409;-0.0016;0.0479;
988920153943813;-0.0664;0.0123;0.0650;
988920164047042;-0.0686;0.0091;0.1012;
988920174150219;-0.0409;-0.0080;0.1395;
988920184294022;-0.0068;-0.0304;0.1651;
988920194397199;-0.0217;-0.0613;0.1822;
988920204500428;0.0124;-0.0676;0.1981;
988920214569022;0.1434;-0.0495;0.2226;
988920224672251;0.3607;-0.0144;0.2482;
988920234775428;0.5278;0.0154;0.2695;
988920244896209;0.5885;0.0218;0.2791;
988920254999386;0.5758;0.0048;0.2759;
988920265102615;0.5694;-0.0154;0.2684;
988920275219959;0.6013;-0.0336;0.2684;
988920285323136;0.6588;-0.0293;0.2674;
988920295426313;0.8218;0.0091;0.2482;
988920305515376;1.3160;0.1092;0.2003;
988920315595011;1.8101;0.1774;0.1939;
988920325698188;1.5002;0.0431;0.2013;
988920335801365;1.2648;-0.0421;0.1587;
988920345937980;1.0509;-0.1092;0.1449;
988920356041157;0.7441;-0.2124;0.1449;
988920366144386;0.5055;-0.2092;0.0969;
988920376245584;0.2648;-0.1316;0.0160;
988920386348761;-0.0100;-0.0975;-0.0501;
988920396451990;-0.1421;-0.0932;-0.0831;
988920406562042;-0.2804;-0.0783;-0.1055;
988920416665219;-0.2676;-0.0442;-0.1406;
988920426768449;-0.1495;-0.0314;-0.1481;
988920436877511;-0.0664;-0.0399;-0.1268;
988920446980688;0.0379;-0.0389;-0.1044;
988920457083917;0.1892;0.0804;-0.0863;
988920467186001;0.2840;0.1976;-0.0948;
988920477289178;0.3628;0.3169;-0.1543;
988920487392407;0.3373;0.4190;-0.1905;
988920497502042;0.2371;0.0740;-0.0916;
988920507605219;0.2851;-0.1699;0.0053;
988920517708449;0.3607;-0.0442;-0.0213;
988920527814334;0.4481;0.1007;-0.0980;
988920537917511;0.4033;0.0431;-0.1140;
988920548020740;0.2819;-0.0357;-0.0842;
988920558129751;0.1786;0.0847;-0.0959;
988920568232928;0.1232;0.1443;-0.1427;
988920578336157;0.0987;0.0549;-0.1417;
988920588436626;0.0411;0.1550;-0.1459;
988920598539803;0.0230;0.2828;-0.1459;
988920608643032;0.1551;0.2434;-0.1374;
988920618741730;0.1818;0.2178;-0.1395;
988920628844907;0.1807;0.3222;-0.1385;
988920638948084;0.2286;0.4563;-0.1257;
988920649058397;0.1935;0.4021;-0.0969;
988920659161574;0.1189;0.1454;-0.0437;
988920669264803;0.1029;-0.0037;0.0032;
988920679430532;0.1381;0.0346;0.0330;
988920689533657;0.1839;0.0549;0.0565;
988920699636886;0.2425;-0.0868;0.1076;
988920709685428;0.3138;-0.1060;0.1577;
988920719788657;0.4140;0.0282;0.1577;
988920729891834;0.4012;0.0858;0.1118;
988920739996157;0.1807;0.0719;0.1129;
988920750099334;0.0241;-0.0059;0.1300;
988920760202511;-0.0079;-0.0123;0.1076;
988920770304230;-0.0899;0.0421;0.0788;
988920780407407;-0.1632;0.0751;0.0650;
988920790510636;-0.2442;0.0687;0.0628;
988920800594074;-0.2985;0.0186;0.0415;
988920810697251;-0.3007;0.0123;0.0149;
988920820800480;-0.2186;0.0634;-0.0011;
988920830927667;-0.1059;0.0847;0.0170;
988920841030897;-0.0547;-0.0154;0.0341;
988920851134074;-0.0249;-0.0634;0.0138;
988920861243501;0.0071;-0.0154;0.0149;
988920871346730;0.0337;0.0059;0.0149;
988920881449907;0.1051;0.0112;-0.0320;
988920891558501;0.1455;0.0506;-0.0458;
988920901661678;0.1519;0.0431;-0.0341;
988920911764907;0.1573;-0.0165;-0.0266;
988920921864751;0.1125;-0.0847;-0.0479;
988920931967928;0.0614;-0.1028;-0.0703;
988920942071157;0.0678;-0.0911;-0.0597;
988920952175063;0.0838;-0.0442;-0.0820;
988920962278240;0.0923;0.0985;-0.0980;
988920972381417;0.1445;0.1646;-0.0799;
988920982487563;0.1573;0.0985;-0.0714;
988920992590688;0.0806;0.1113;-0.0778;
988921002693917;0.0688;0.4425;-0.0916;
988921012797094;-0.0036;0.8526;-0.1332;
988921022920063;-0.0324;1.0506;-0.1799;
988921033023240;-0.0079;0.9730;-0.1905;
988921043126417;0.0252;0.2168;-0.0937;
988921053252407;-0.2293;-0.7503;-0.0383;
988921063355584;0.2798;-0.7216;-0.0628;
988921073458761;0.7036;0.1337;-0.1959;
988921083546209;0.2297;0.2871;-0.1692;
988921093649438;-0.0238;-0.1976;-0.0650;
988921103752615;0.2382;-0.2134;-0.0128;
988921113883605;0.1945;-0.1092;-0.0245;
988921123986782;0.0763;-0.4073;-0.0650;
988921134089959;0.0731;-0.5565;-0.1044;
988921144159647;0.0071;-0.4233;-0.1161;
988921154262824;-0.0526;-0.3722;-0.0703;
988921164366001;-0.0654;-0.3988;-0.0639;
988921174483188;-0.1760;-0.2507;-0.1502;
988921184586365;-0.5627;0.0059;-0.2534;
988921194689594;-0.9098;0.1401;-0.3333;
988921204781938;-1.1335;0.2594;-0.4345;
988921214885167;-1.3498;0.3233;-0.4760;
988921224988344;-1.4093;0.2988;-0.4611;
988921235087303;-1.3551;0.2370;-0.4590;
988921245190480;-1.2305;0.1656;-0.4600;
988921255293657;-1.1005;0.0900;-0.4675;
988921265431105;-0.9951;0.0336;-0.4632;
988921275534282;-0.7991;-0.0527;-0.4441;
988921285637459;-0.5371;-0.1901;-0.4441;
988921295714594;-0.3007;-0.1603;-0.3887;
988921305817824;-0.1474;-0.1358;-0.2939;
988921315921001;0.0593;-0.1433;-0.2406;
988921326044751;0.2457;-0.1071;-0.1746;
988921336148969;0.4810;-0.0346;-0.1140;
988921346253188;0.6120;-0.0293;-0.0703;
988921356356105;0.6322;-0.0463;-0.0181;
988921366460324;0.6897;0.0325;0.0383;
988921376564542;0.7036;0.1049;0.0756;
988921386659022;0.6695;0.1326;0.1502;
988921396763240;0.7036;0.0549;0.1960;
988921406867459;0.7377;-0.0708;0.2280;
988921416969751;0.6098;-0.0218;0.2855;
988921427073969;0.4065;0.0527;0.2993;
988921437178188;0.2638;-0.0005;0.2961;
988921447290376;0.1754;-0.0570;0.3174;
988921457416053;0.0603;-0.0783;0.3377;
988921467520272;-0.1037;-0.0740;0.3377;
988921477624542;-0.1526;0.0069;0.3451;
988921487702251;-0.2698;0.1017;0.3196;
988921497806469;-0.4700;0.1198;0.3110;
988921507910740;-0.5457;0.0506;0.3174;
988921518032928;-0.5318;-0.0016;0.2897;
988921528137147;-0.7214;0.1007;0.2514;
988921538241365;-0.9397;0.1273;0.2067;
988921548328709;-1.0025;0.0517;0.1704;
988921558432928;-1.0387;0.0463;0.1555;
988921568537147;-1.1612;0.0687;0.1150;
988921578651105;-1.3295;0.0453;0.0352;
988921588755324;-1.4487;-0.0165;-0.0064;
988921598859542;-1.4253;-0.0218;-0.0447;
988921608958292;-1.4594;0.0506;-0.0788;
988921619062511;-1.5062;0.0261;-0.1182;
988921629166730;-1.4168;-0.0559;-0.1991;
988921639262667;-1.2763;-0.0272;-0.2012;
988921649366886;-1.2486;0.0261;-0.1991;
988921659471157;-1.1591;0.0250;-0.2193;
988921669597042;-0.9993;0.0485;-0.2129;
988921679701261;-0.8225;0.0410;-0.2363;
988921689805480;-0.7246;0.0112;-0.2395;
988921699882876;-0.6671;0.0027;-0.2118;
988921709987094;-0.6650;0.0091;-0.2278;
988921720091313;-0.7097;0.0005;-0.2044;
988921730201001;-0.7385;0.0186;-0.2129;
988921740305272;-0.7097;0.0005;-0.2321;
988921750409438;-0.6575;-0.0431;-0.2204;
988921760528917;-0.5435;-0.0186;-0.2076;
988921770633136;-0.4924;-0.0389;-0.2150;
988921780737355;-0.4530;-0.0538;-0.1852;
988921790827094;-0.4285;-0.0485;-0.2001;
988921800931313;-0.4264;-0.1475;-0.2161;
988921811035584;-0.3859;-0.1774;-0.1948;
988921821147876;-0.3987;-0.0804;-0.2044;
988921831252094;-0.4114;-0.0165;-0.2097;
988921841356313;-0.4008;-0.0123;-0.2012;
988921851452772;-0.3869;-0.0059;-0.2044;
988921861556990;-0.3997;0.0027;-0.2076;
988921871661209;-0.3891;0.0655;-0.2417;
988921881758761;-0.4029;0.0762;-0.2470;
988921891862980;-0.4051;-0.0176;-0.2470;
988921901967199;-0.3806;-0.0911;-0.2960;
988921912086417;-0.3923;-0.1007;-0.3056;
988921922190636;-0.4072;-0.0016;-0.3248;
988921932294855;-0.4136;0.0485;-0.3312;
988921942390792;-0.4051;0.0325;-0.3141;
988921952495011;-0.3401;0.1145;-0.3290;
988921962599282;-0.3198;0.1891;-0.3237;
988921972725688;-0.3379;0.0591;-0.3503;
988921982829907;-0.2059;0.1124;-0.3557;
988921992934178;-0.1973;0.1912;-0.3706;
988922003020428;-0.3145;0.0932;-0.4270;
988922013124647;-0.3273;0.0975;-0.4015;
988922023228865;-0.3209;0.0176;-0.4324;
988922033326365;-0.2144;0.0453;-0.3972;
988922043430636;-0.1728;0.0858;-0.4334;
988922053534855;-0.1474;0.0421;-0.4409;
988922063610584;-0.0515;0.1092;-0.4313;
988922073714803;-0.0079;0.0698;-0.4217;
988922083819022;0.1242;0.0218;-0.3589;
988922093945063;0.2467;0.0879;-0.3738;
988922104049282;0.2957;0.1007;-0.3567;
988922114153501;0.3330;0.0304;-0.3503;
988922124272667;0.4513;0.0836;-0.3280;
988922134376886;0.5981;0.2349;-0.3301;
988922144481105;0.5768;0.1965;-0.3067;
988922154593188;0.5161;0.0911;-0.2960;
988922164697407;0.5182;-0.0005;-0.2598;
988922174801626;0.6184;-0.0453;-0.2438;
988922184894022;0.6269;-0.0538;-0.2246;
988922194998240;0.6290;-0.0421;-0.2108;
988922205102511;0.6482;0.0410;-0.1543;
988922215199959;0.5992;-0.0027;-0.1543;
988922225304178;0.6045;0.0059;-0.1321;
988922235408449;0.5758;0.1166;-0.1438;
988922245520272;0.5331;0.1305;-0.1513;
988922255624490;0.4660;0.0527;-0.1257;
988922265728709;0.4650;0.0069;-0.1087;
988922275840584;0.4374;0.0314;-0.0959;
988922285944803;0.3341;0.0218;-0.1097;
988922296049022;0.3075;-0.0336;-0.0969;
988922306141001;0.3021;-0.0431;-0.0916;
988922316245219;0.2233;-0.0506;-0.0756;
988922326349438;0.1530;-0.0623;-0.1097;
988922336461001;0.0944;-0.0410;-0.1310;
988922346565219;0.0603;-0.0144;-0.1586;
988922356669438;0.0071;-0.0357;-0.1513;
988922366767355;0.0134;-0.0154;-0.1522;
988922376871574;0.0230;-0.0080;-0.1332;
988922386975844;0.0348;-0.0091;-0.1470;
988922397078292;0.0646;-0.0123;-0.1353;
988922407182511;0.1019;-0.0229;-0.1385;
988922417286782;0.0763;-0.0208;-0.1289;
988922427386834;0.1115;-0.0272;-0.1449;
988922437491053;0.0742;-0.1145;-0.1278;
988922447595272;0.0443;-0.2177;-0.0873;
988922457703761;0.1423;-0.2156;-0.1257;
988922467807719;0.3234;-0.0879;-0.1502;
988922477911678;0.3128;0.0410;-0.1660;
988922487999074;0.2489;0.1348;-0.1097;
988922498103032;0.2158;0.1582;-0.1023;
988922508207042;0.3501;0.0911;-0.1108;
988922518336313;0.4491;0.0591;-0.1300;
988922528440272;0.4225;0.0250;-0.1182;
988922538544230;0.3533;0.0847;-0.1278;
988922548652094;0.3170;0.0336;-0.1236;
988922558756053;0.3575;-0.0559;-0.1257;
988922568860011;0.3671;0.0304;-0.0905;
988922578973813;0.2766;-0.0666;-0.0884;
988922589077772;0.2872;-0.0815;-0.0948;
988922599181730;0.2414;-0.0229;-0.1449;
988922609269230;0.2563;-0.0772;-0.1459;
988922619373188;0.2691;-0.0506;-0.1639;
988922629477147;0.2627;0.0005;-0.1449;
988922639581105;0.2297;0.0336;-0.1342;
988922649685063;0.2031;0.0591;-0.1618;
988922659789074;0.2169;0.0431;-0.2087;
988922669899594;0.2680;0.0357;-0.1916;
988922680003553;0.2031;0.0985;-0.1852;
988922690107563;0.1668;0.1337;-0.2033;
988922700208240;0.2190;0.0740;-0.2236;
988922710312199;0.1786;0.0399;-0.2332;
988922720416157;0.1945;0.0495;-0.1980;
988922730519490;0.1722;0.0889;-0.2065;
988922740623449;0.2340;0.2328;-0.2470;
988922750727407;0.2553;0.2168;-0.3184;
988922760821313;0.4427;0.0346;-0.3003;
988922770925324;0.5363;-0.1177;-0.2470;
988922781029282;0.5236;-0.2124;-0.1660;
988922791145480;0.4703;-0.1582;-0.1417;
988922801249386;0.4746;-0.0953;-0.1246;
988922811353397;0.5523;-0.0474;-0.1470;
988922821455324;0.6716;0.0453;-0.1204;
988922831559282;0.7196;0.0985;-0.1065;
988922841663240;0.8591;0.0527;-0.0788;
988922851776365;1.0402;0.0368;-0.0458;
988922861880324;1.0976;0.0655;0.0266;
988922871984282;1.0891;0.0879;0.1300;
988922882078813;1.0880;0.0879;0.2045;
988922892182772;1.0805;0.0485;0.2482;
988922902286730;1.0242;0.0069;0.2578;
988922912390636;0.8644;0.1017;0.2802;
988922922494594;0.7238;0.1742;0.3537;
988922932598553;0.7494;-0.0634;0.3750;
988922942691261;0.5885;-0.1348;0.3590;
988922952795219;0.1764;0.1869;0.3409;
988922962961834;0.0465;0.3489;0.3590;
988922973065844;0.4204;0.2083;0.3792;
988922983169803;0.4438;0.1688;0.3686;
988922993224386;0.3533;0.2306;0.3015;
988923003328344;0.4097;0.1603;0.2897;
988923013432355;0.3522;0.0378;0.2759;
988923023512459;0.2105;0.1007;0.2258;
988923033616417;0.0156;0.1582;0.1822;
988923043720428;0.0678;0.0549;0.1619;
988923053892615;0.1668;0.0229;0.1076;
988923063996626;0.1615;0.0613;0.0788;
988923074100584;0.2297;0.0261;0.0788;
988923084161938;0.3149;0.0154;0.0735;
988923094265897;0.3724;0.0059;0.0628;
988923104369855;0.3916;-0.0123;0.0650;
988923114468761;0.3682;0.0517;0.0597;
988923124572719;0.3820;0.1475;0.0330;
988923134676678;0.4703;0.1081;0.0000;
988923144810740;0.4746;0.0282;-0.0032;
988923154914647;0.3948;0.0644;-0.0107;
988923165018657;0.4001;0.0868;-0.0415;
988923175099542;0.3991;0.0794;-0.0490;
988923185203501;0.4129;0.0154;-0.0383;
988923195307511;0.3756;0.0549;-0.0458;
988923205431313;0.4225;0.3766;-0.0916;
988923215535272;0.5736;0.1742;-0.0149;
988923225639282;0.7078;-0.2603;0.0671;
988923235747094;0.6098;-0.2486;0.0969;
988923245851105;0.3266;-0.0378;0.1001;
988923255955063;0.4502;0.0304;0.1108;
988923266031261;0.4937;0.0240;0.1236;
988923276135219;0.4895;0.1230;0.0948;
988923286239178;0.4959;0.1518;0.1268;
988923296361469;0.5363;0.0868;0.1758;
988923306465376;0.5012;0.0815;0.2162;
988923316569386;0.4055;0.1422;0.2226;
988923326682563;0.4182;0.0176;0.2589;
988923336786574;0.3692;-0.0581;0.3174;
988923346890532;0.3490;0.0815;0.3121;
988923356983344;0.3831;0.1518;0.3068;
988923367087303;0.4129;0.1209;0.3505;
988923377191261;0.4076;0.0975;0.3931;
988923387285844;0.3650;0.0591;0.4261;
988923397389803;0.3373;0.0815;0.4176;
988923407493761;0.3351;0.1422;0.4069;
988923417608188;0.3639;0.0889;0.4474;
988923427712199;0.3501;0.0719;0.4632;
988923437816157;0.3458;0.1156;0.4664;
988923447916001;0.3490;0.0527;0.4686;
988923458019959;0.3245;0.0336;0.4632;
988923468123969;0.3021;0.0996;0.4304;
988923478243240;0.3256;0.0868;0.4293;
988923488347251;0.3383;0.0048;0.4304;
988923498451209;0.2308;0.0304;0.3963;
988923508544803;0.0912;0.0996;0.3920;
988923518648761;0.0742;0.0399;0.3771;
988923528752719;0.0230;0.0250;0.3270;
988923538854282;-0.1686;0.0559;0.2961;
988923548958240;-0.2367;0.0495;0.2791;
988923559062199;-0.3294;0.0517;0.2365;
988923569180011;-0.3912;0.0250;0.1928;
988923579283969;-0.4583;0.0293;0.1587;
988923589387928;-0.5457;0.0463;0.1332;
988923599494074;-0.5723;0.0037;0.1118;
988923609598032;-0.5915;-0.0463;0.0905;
988923619702042;-0.5925;-0.0644;0.0873;
988923629789490;-0.6149;-0.0368;0.0767;
988923639893397;-0.6351;-0.0016;0.0447;
988923649997407;-0.5382;-0.0027;0.0692;
988923660108553;-0.4530;-0.0549;0.0927;
988923670212511;-0.4455;-0.0080;0.0724;
988923680316469;-0.4434;0.0133;0.0565;
988923690413553;-0.4221;-0.0410;0.0554;
988923700517511;-0.4008;-0.0687;0.0469;
988923710621469;-0.3848;-0.0815;0.0501;
988923720753084;-0.4083;-0.0826;0.0138;
988923730857094;-0.3347;-0.0719;0.0245;
988923740961053;-0.2772;-0.0325;0.0234;
988923751026157;-0.2101;-0.0336;0.0341;
988923761130115;-0.1133;-0.0527;0.0501;
988923771234126;-0.0228;-0.0613;0.0671;
988923781360532;-0.0185;-0.0346;0.0692;
988923791464490;0.0401;-0.0080;0.0778;
988923801568449;0.1146;-0.0154;0.0916;
988923811657980;0.1583;-0.0453;0.1172;
988923821761990;0.1594;-0.0186;0.1353;
988923831865949;0.1892;0.0027;0.1651;
988923841977928;0.2286;-0.0133;0.1949;
988923852081886;0.2393;0.0080;0.2152;
988923862185844;0.2585;0.0208;0.2471;
988923872311157;0.2095;0.0325;0.2461;
988923882415115;0.1764;0.0282;0.2578;
988923892519126;0.1605;0.0208;0.3132;
988923902599490;0.0422;0.0016;0.3100;
988923912703397;-0.0015;-0.0336;0.2844;
988923922807407;-0.0217;-0.0794;0.3089;
988923932904803;-0.0302;-0.0506;0.3025;
988923943008761;-0.0345;-0.0293;0.2908;
988923953112719;-0.0558;-0.0080;0.2514;
988923963245792;-0.1410;-0.0123;0.2439;
988923973349699;-0.1739;0.0165;0.2738;
988923983453553;-0.1888;0.0389;0.2620;
988923993537824;-0.2357;0.0463;0.2248;
988924003641678;-0.2740;0.0495;0.1971;
988924013745584;-0.3209;0.0591;0.1875;
988924023894959;-0.3390;0.0740;0.1928;
988924033998813;-0.3614;0.0368;0.1790;
988924044102719;-0.4796;-0.0218;0.1427;
988924054140532;-0.4988;-0.0368;0.1214;
988924064244386;-0.4445;-0.0463;0.1278;
988924074348292;-0.4200;-0.0336;0.1044;
988924084493188;-0.4168;-0.0826;0.0788;
988924094597094;-0.3624;-0.1124;0.0852;
988924104701001;-0.2282;-0.0751;0.0863;
988924114777772;-0.1218;-0.0186;0.0980;
988924124881678;-0.1453;-0.0485;0.0969;
988924134985584;-0.1728;-0.0719;0.0863;
988924145096209;-0.1431;-0.0538;0.0937;
988924155200115;-0.1218;0.0240;0.0937;
988924165304022;-0.1664;0.0325;0.0597;
988924175426209;-0.1632;0.0229;0.0309;
988924185530063;-0.1856;0.0336;0.0586;
988924195633969;-0.2357;0.0389;0.0479;
988924205733969;-0.2240;0.0442;0.0479;
988924215837824;-0.2399;0.0091;0.0447;
988924225941730;-0.2538;-0.0240;0.0075;
988924236024334;-0.2304;-0.0421;0.0170;
988924246128240;-0.2133;-0.0538;0.0107;
988924256232147;-0.1941;-0.0602;0.0085;
988924266350844;-0.1952;-0.1060;-0.0032;
988924276454699;-0.1696;-0.0964;0.0075;
988924286558605;-0.1526;-0.0357;0.0256;
988924296667980;-0.1686;-0.0304;0.0170;
988924306771834;-0.1739;0.0123;0.0224;
988924316875740;-0.1718;0.0772;0.0309;
988924326990532;-0.1792;0.1401;0.0447;
988924337094386;-0.1963;0.1486;0.0415;
988924347198292;-0.2772;0.0804;0.0415;
988924357292824;-0.3465;0.0133;0.0597;
988924367396678;-0.3933;-0.0016;0.0415;
988924377500584;-0.3656;-0.0602;0.0032;
988924387602928;-0.2815;-0.0549;-0.0138;
988924397706782;-0.2367;-0.0506;0.0117;
988924407810688;-0.2133;-0.0474;0.0181;
988924417904178;-0.1931;-0.0581;0.0320;
988924428008032;-0.2069;-0.0261;0.0170;
988924438111990;-0.1941;-0.0112;0.0245;
988924448233813;-0.2154;-0.0037;0.0277;
988924458337667;-0.2112;0.0005;0.0128;
988924468441574;-0.2165;0.0368;0.0032;
988924478552459;-0.2197;0.0549;0.0224;
988924488656365;-0.2005;0.0655;0.0383;
988924498760272;-0.2069;0.0325;0.0330;
988924508858865;-0.2154;0.0282;0.0149;
988924518962719;-0.2144;0.0399;0.0266;
988924529066626;-0.2154;0.0059;0.0405;
988924539173032;-0.2176;-0.0740;0.0447;
988924549276886;-0.2059;-0.1337;0.0405;
988924559380792;-0.1814;-0.1454;0.0352;
988924569479803;-0.1739;-0.1188;0.0458;
988924579583657;-0.1569;-0.0666;0.0309;
988924589687563;-0.1547;-0.0037;0.0107;
988924599798605;-0.1803;0.0421;0.0000;
988924609902511;-0.2016;0.0783;-0.0021;
988924620006365;-0.2091;0.0921;-0.0234;
988924630105532;-0.2165;0.1017;-0.0256;
988924640209386;-0.2442;0.0708;-0.0320;
988924650313292;-0.2453;0.0570;-0.0309;
988924660422563;-0.2421;0.0005;-0.0266;
988924670526417;-0.2325;-0.0463;-0.0288;
988924680630324;-0.2325;-0.0559;-0.0394;
988924690730949;-0.2016;-0.0570;-0.0266;
988924700834803;-0.2154;-0.0517;-0.0192;
988924710938709;-0.2293;-0.0602;-0.0298;
988924721057355;-0.2517;-0.0879;-0.0256;
988924731161261;-0.2431;-0.0613;-0.0288;
988924741265167;-0.2272;-0.0399;-0.0447;
988924751331730;-0.2410;-0.0325;-0.0479;
988924761435636;-0.2463;-0.0197;-0.0543;
988924771539542;-0.2314;-0.0123;-0.0607;
988924781674386;-0.2250;-0.0005;-0.0703;
988924791778240;-0.2261;0.0240;-0.0639;
988924801882147;-0.2165;0.0218;-0.0639;
988924811979594;-0.1973;0.0357;-0.0778;
988924822083449;-0.2069;0.0399;-0.1023;
988924832187355;-0.2037;0.0250;-0.1065;
988924842289803;-0.1888;0.0218;-0.0863;
988924852393657;-0.1867;0.0176;-0.0852;
988924862497563;-0.1814;0.0399;-0.1044;
988924872611157;-0.1909;0.0346;-0.1076;
988924882715011;-0.1803;0.0325;-0.1140;
988924892818917;-0.1537;0.0304;-0.1065;
988924902911522;-0.1696;0.0804;-0.1044;
988924913015428;-0.1750;0.0868;-0.1118;
988924923119334;-0.1750;0.0730;-0.1087;
988924933251001;-0.1611;0.1198;-0.1129;
988924943354907;-0.1899;0.1124;-0.1214;
988924953458813;-0.1803;0.0794;-0.1300;
988924963551938;-0.1867;0.0666;-0.1406;
988924973656001;-0.1792;0.0751;-0.1650;
988924983760063;-0.1739;0.0868;-0.1692;
988924993900167;-0.1877;0.0314;-0.1565;
988925004004230;-0.1771;-0.0048;-0.1575;
988925014108292;-0.1867;0.0197;-0.1788;
988925024174647;-0.2282;-0.1475;-0.2001;
988925034278709;-0.2634;-0.3977;-0.1820;
988925044382772;-0.1059;-0.3274;-0.1682;
988925054485480;0.1455;0.0059;-0.1756;
988925064589542;0.1786;0.2423;-0.1895;
988925074693605;0.0241;0.3095;-0.1449;
988925084804230;-0.1154;0.2498;-0.0873;
988925094908240;-0.1803;0.2413;-0.0756;
988925105012355;-0.1782;0.2860;-0.1076;
988925115117251;-0.2112;0.2573;-0.1607;
988925125221313;-0.2772;0.1390;-0.2055;
988925135325376;-0.2730;0.0399;-0.2108;
988925145432459;-0.2250;-0.0112;-0.2310;
988925155536522;-0.1835;-0.0698;-0.2566;
988925165640584;-0.1728;-0.1049;-0.2715;
988925175743813;-0.1325;-0.1316;-0.2438;
988925185847876;-0.1186;-0.1422;-0.2566;
988925195951938;-0.0387;-0.0921;-0.2779;
988925206036522;0.0209;0.0272;-0.3098;
988925216140584;0.0507;0.0858;-0.3056;
988925226244647;0.1168;0.2413;-0.2811;
988925236376261;0.1434;0.5501;-0.2875;
988925246480324;0.0550;0.3851;-0.2875;
988925256584438;-0.0004;-0.1145;-0.2768;
988925266660272;0.0944;-0.2614;-0.2342;
988925276764334;0.3213;-0.1912;-0.1767;
988925286868397;0.4076;-0.2156;-0.1427;
988925296974959;0.3053;-0.3232;-0.0469;
988925307079022;0.2233;-0.2901;-0.0170;
988925317183084;0.3202;-0.1838;-0.0660;
988925327292980;0.3288;-0.1561;-0.0969;
988925337397042;0.1434;-0.1177;-0.1417;
988925347501105;0.0752;-0.0037;-0.1459;
988925357614803;0.0550;0.0644;-0.1491;
988925367718813;0.0348;0.1092;-0.1607;
988925377822876;0.0337;0.1710;-0.1618;
988925387912563;0.0273;0.1326;-0.1650;
988925398016626;0.0156;0.0889;-0.1597;
988925408120688;0.0475;0.0772;-0.1406;
988925418243397;0.0912;0.0037;-0.1246;
988925428347459;0.0763;-0.0719;-0.0937;
988925438451522;0.1115;-0.0826;-0.0916;
988925448544022;0.1881;-0.1166;-0.0671;
988925458648084;0.1690;-0.1390;-0.0394;
988925468752147;0.1850;-0.1113;-0.0053;
988925478854542;0.1562;-0.0921;-0.0170;
988925488958605;0.1125;-0.0687;-0.0181;
988925499062667;0.0923;-0.0293;-0.0075;
988925509169959;0.0774;0.0442;-0.0096;
988925519274022;0.0401;0.0900;-0.0373;
988925529378084;-0.0025;0.1252;-0.0724;
988925539482251;0.0124;0.1603;-0.0533;
988925549586313;-0.0025;0.1433;-0.0511;
988925559690428;-0.0068;0.1305;-0.0820;
988925569797876;0.0145;0.0953;-0.0788;
988925579901938;0.0124;0.0868;-0.0575;
988925590006001;0.0369;0.0229;-0.0341;
988925600107980;0.0475;0.0091;-0.0437;
988925610212042;0.0859;0.0133;-0.0405;
988925620316105;0.0582;-0.0037;-0.0426;
988925630421522;0.0688;-0.0059;-0.0447;
988925640525584;0.0731;0.0154;-0.0447;
988925650629647;0.1019;0.0229;-0.0383;
988925660734074;0.0742;0.0091;-0.0479;
988925670838136;0.1029;0.0293;-0.0575;
988925680942147;0.1242;0.0698;-0.0650;
988925691044178;0.1413;0.0655;-0.0724;
988925701148240;0.2009;0.1177;-0.0842;
988925711252303;0.1935;0.1550;-0.0692;
988925721372355;0.1796;0.1177;-0.0543;
988925731476417;0.2031;0.0943;-0.0522;
988925741580480;0.2265;0.0879;-0.0575;
988925751677355;0.2126;0.0559;-0.0607;
988925761781417;0.2084;0.0123;-0.0639;
988925771885480;0.1913;-0.0304;-0.0277;
988925781980584;0.1668;-0.0570;-0.0234;
988925792084647;0.1850;-0.0847;-0.0170;
988925802188709;0.1647;-0.1060;0.0107;
988925812291001;0.1743;-0.0687;0.0032;
988925822395063;0.1402;-0.0644;0.0117;
988925832499126;0.0838;-0.0847;0.0447;
988925842610688;0.0859;-0.1017;0.0373;
988925852714751;0.1434;-0.0666;0.0352;
988925862818813;0.1487;0.0272;0.0213;
988925872929594;0.1391;0.1113;-0.0117;
988925883033605;0.1317;0.1507;0.0128;
988925893137719;0.0880;0.1209;0.0511;
988925903254594;0.0838;0.0858;0.0639;
988925913358605;0.0667;0.0868;0.0415;
988925923462719;0.0550;0.0858;0.0277;
988925933549334;0.0316;0.0218;0.0330;
988925943653397;-0.0068;-0.0581;0.0437;
988925953757459;0.0124;-0.0943;0.0533;
988925963907667;0.0688;-0.1166;0.0511;
988925974012147;0.1019;-0.0826;0.0554;
988925984116626;0.1008;-0.0527;0.0511;
988925994191105;0.1168;-0.0676;0.0650;
988926004295636;0.1146;-0.0399;0.0937;
988926014400063;0.1285;0.0389;0.0916;
988926024469855;0.1647;0.1241;0.0863;
988926034574386;0.1541;0.1646;0.0714;
988926044678865;0.1360;0.0964;0.0724;
988926054790167;0.1221;0.0698;0.0671;
988926064894647;0.1349;0.0453;0.1044;
988926074999178;0.0965;-0.0421;0.1172;
988926085120167;0.1072;-0.1134;0.1204;
988926095224647;0.1253;-0.1156;0.1289;
988926105329178;0.1157;-0.0762;0.1257;
988926115413344;0.1178;-0.0581;0.1246;
988926125517824;0.1178;-0.0005;0.1172;
988926135622355;0.1189;0.1103;0.1065;
988926145729751;0.0997;0.1624;0.0927;
988926155834230;0.0742;0.1507;0.0873;
988926165938761;0.0433;0.1177;0.1044;
988926176042876;0.0497;0.1252;0.1129;
988926186147355;0.0422;0.0900;0.1268;
988926196251886;0.0337;0.0389;0.1300;
988926206354438;0.0379;0.0144;0.1257;
988926216458917;0.0486;0.0048;0.1140;
988926226563449;0.0454;-0.0133;0.1236;
988926236698709;0.0475;-0.0336;0.1534;
988926246803188;0.0358;-0.0293;0.1438;
988926256907719;0.0710;0.0037;0.1363;
988926266986730;0.0518;0.0836;0.1214;
988926277091209;0.0422;0.0921;0.1193;
988926287195740;0.0401;0.0485;0.1395;
988926297301834;0.0017;0.0101;0.1385;
988926307406313;0.0209;-0.0016;0.1395;
988926317510844;0.0103;-0.0091;0.1534;
988926327611313;-0.0185;-0.0879;0.1640;
988926337715792;-0.0047;-0.0602;0.1662;
988926347820324;0.0220;-0.0186;0.1726;
988926357917355;0.0124;-0.0218;0.1800;
988926368021834;-0.0142;-0.0357;0.1662;
988926378126365;0.0124;0.0059;0.1523;
988926388231209;0.0103;0.0538;0.1300;
988926398335740;0.0113;0.0815;0.1246;
988926408440219;0.0188;0.0730;0.1332;
988926418560480;-0.0089;0.0559;0.1182;
988926428664959;-0.0174;0.0421;0.1087;
988926438769438;-0.0260;0.0123;0.1204;
988926448862928;-0.0377;-0.0506;0.1172;
988926458967407;-0.0462;-0.0911;0.1193;
988926469071938;-0.0387;-0.0943;0.1172;
988926479191105;-0.0590;-0.0858;0.1161;
988926489295584;-0.0622;-0.1241;0.1065;
988926499400063;-0.0409;-0.1433;0.1342;
988926509494959;-0.0196;-0.0932;0.1427;
988926519599438;0.0071;-0.0389;0.1459;
988926529703969;0.0081;-0.0133;0.1513;
988926539801834;-0.0004;0.0282;0.1651;
988926549906313;-0.0196;0.0602;0.1651;
988926560010844;-0.0366;0.0804;0.1459;
988926570111001;-0.0601;0.0804;0.1523;
988926580215480;-0.0952;0.0623;0.1459;
988926590320011;-0.1346;0.0368;0.1353;
988926600436209;-0.2027;0.0027;0.1108;
988926610540688;-0.2197;-0.0112;0.0863;
988926620645167;-0.2037;-0.0048;0.0842;
988926630737511;-0.2154;-0.0336;0.0895;
988926640842042;-0.2378;-0.0346;0.0788;
988926650946522;-0.2282;-0.0304;0.0479;
988926661054855;-0.1963;-0.0240;0.0447;
988926671159334;-0.1654;-0.0154;0.0565;
988926681263865;-0.1378;0.0037;0.0703;
988926691360584;-0.1197;-0.0229;0.0501;
988926701465115;-0.0664;-0.0346;0.0522;
988926711569594;-0.0441;-0.0272;0.0703;
988926721662667;-0.0292;-0.0197;0.0597;
988926731767147;-0.0260;-0.0293;0.0756;
988926741871678;-0.0419;-0.0357;0.0873;
988926751990688;-0.0377;-0.0591;0.0959;
988926762095167;-0.0505;-0.0506;0.0937;
988926772199647;-0.0643;-0.0133;0.0724;
988926782294959;-0.0888;-0.0059;0.0618;
988926792399490;-0.1144;-0.0453;0.0682;
988926802503969;-0.1378;-0.0581;0.0533;
988926812605011;-0.1410;-0.0442;0.0447;
988926822709542;-0.1506;-0.0964;0.0639;
988926832814022;-0.1293;-0.0964;0.0618;
988926842915792;-0.0707;0.0101;0.0767;
988926853020272;-0.0728;0.1060;0.0873;
988926863124751;-0.0835;0.1561;0.0746;
988926873232355;-0.0696;0.1869;0.0852;
988926883336886;-0.1346;0.2083;0.0937;
988926893441365;-0.1664;0.2178;0.0788;
988926903551730;-0.1877;0.1997;0.0863;
988926913656209;-0.2538;0.1667;0.0863;
988926923760688;-0.2975;0.1369;0.0607;
988926933853605;-0.3113;0.0964;0.0501;
988926943958084;-0.3678;0.0314;0.0479;
988926954062615;-0.4051;0.0005;0.0256;
988926964187355;-0.3955;-0.0048;0.0170;
988926974291313;-0.4040;-0.0016;0.0160;
988926984395272;-0.4136;0.0091;-0.0032;
988926994490949;-0.4136;0.0357;-0.0298;
988927004594855;-0.3933;0.0378;-0.0170;
988927014698813;-0.4264;-0.0059;-0.0266;
988927024799230;-0.3720;-0.0325;-0.0298;
988927034903188;-0.3294;-0.0591;-0.0543;
988927045007147;-0.2804;-0.1230;-0.0469;
988927055113188;-0.2293;-0.1262;-0.0405;
988927065217147;-0.2122;-0.0900;-0.0160;
988927075321157;-0.2005;-0.0751;0.0032;
988927085426730;-0.2357;-0.0581;-0.0394;
988927095530688;-0.2154;-0.0304;-0.0682;
988927105634699;-0.2336;-0.0304;-0.0682;
988927115744803;-0.2346;-0.0154;-0.0788;
988927125848761;-0.2293;0.0240;-0.1087;
988927135952667;-0.2304;0.0229;-0.1172;
988927146058344;-0.2453;-0.0037;-0.1055;
988927156162303;-0.2197;-0.0133;-0.1289;
988927166266209;-0.1728;-0.0069;-0.1278;
988927176357303;-0.1632;0.0399;-0.1257;
988927186461261;-0.1696;0.0644;-0.1321;
988927196565219;-0.1611;0.0666;-0.1353;
988927206673397;-0.1421;0.0495;-0.1246;
988927216777355;-0.1537;0.0421;-0.1481;
988927226881313;-0.1218;0.0357;-0.1575;
988927237009282;-0.1080;0.0005;-0.1417;
988927247113240;-0.1208;0.0069;-0.1459;
988927257217199;-0.1154;-0.0016;-0.1470;
988927267304386;-0.1261;0.0016;-0.1406;
988927277408344;-0.1547;-0.0218;-0.1406;
988927287512303;-0.1261;-0.0208;-0.1374;
988927297618449;-0.1547;0.0101;-0.1257;
988927307722355;-0.1718;-0.0154;-0.1278;
988927317826365;-0.1579;-0.0229;-0.1278;
988927327930844;-0.1410;0.0016;-0.1204;
988927338034803;-0.1590;-0.0101;-0.1161;
988927348138709;-0.1421;-0.0250;-0.1150;
988927358245219;-0.1357;-0.0474;-0.1087;
988927368349178;-0.1186;-0.0453;-0.1065;
988927378453084;-0.1016;-0.0421;-0.1108;
988927388543761;-0.0441;-0.0154;-0.1012;
988927398647719;-0.0398;0.0048;-0.0820;
988927408751678;-0.0515;0.0229;-0.0820;
988927418881990;-0.0377;0.0133;-0.0991;
988927428986001;-0.0196;0.0282;-0.0884;
988927439089959;-0.0441;0.0549;-0.0980;
988927449176990;-0.0324;0.0485;-0.0778;
988927459280897;-0.0696;0.0282;-0.0533;
988927469384907;-0.1101;-0.0133;-0.0682;
988927479500219;-0.0931;-0.0698;-0.0873;
988927489604178;-0.0867;-0.1134;-0.0873;
988927499708136;-0.0739;-0.1156;-0.0852;
988927509805897;-0.0718;-0.1145;-0.0873;
988927519909803;-0.0590;-0.1060;-0.0895;
988927530013761;-0.0377;-0.0517;-0.1108;
988927540110011;-0.0196;-0.0197;-0.1065;
988927550213969;-0.0142;0.0229;-0.0852;
988927560317980;-0.0206;0.0634;-0.1033;
988927570438969;-0.0004;0.0549;-0.1108;
988927580542928;-0.0111;0.0517;-0.1268;
988927590646834;-0.0313;0.0410;-0.1161;
988927600756417;-0.0654;-0.0016;-0.1140;
988927610860428;-0.0675;-0.0357;-0.1108;
988927620964386;-0.0537;-0.0591;-0.1172;
988927631052563;-0.0547;-0.0549;-0.1140;
988927641156469;-0.0654;-0.0474;-0.1065;
988927651260480;-0.0324;0.0208;-0.1076;
988927661371886;-0.0238;0.0794;-0.1374;
988927671475844;-0.0249;0.1017;-0.1682;
988927681579751;-0.0142;0.1028;-0.1554;
988927691681157;-0.0121;0.1103;-0.1639;
988927701785115;0.0103;0.1241;-0.1714;
988927711889074;0.0145;0.1156;-0.1639;
988927721997094;0.0337;0.0932;-0.1639;
988927732101001;0.0465;0.0762;-0.1607;
988927742205011;0.0433;0.0410;-0.1459;
988927752298709;0.0582;0.0091;-0.1417;
988927762402719;0.0539;0.0218;-0.1395;
988927772506678;0.0337;0.0154;-0.1374;
988927782610688;-0.0004;0.0016;-0.1406;
988927792714647;-0.0409;-0.1593;-0.1417;
988927802818657;0.0220;-0.2656;-0.1257;
988927812916105;0.1487;-0.0517;-0.1353;
988927823020011;0.2009;0.2061;-0.1692;
988927833124022;0.1402;0.2423;-0.1363;
988927843234907;0.0443;0.1518;-0.0980;
988927853338865;0.0305;0.1124;-0.1023;
988927863442824;0.0614;0.1518;-0.1108;
988927873561209;0.0316;0.1209;-0.1363;
988927883665167;0.0103;0.0304;-0.1618;
988927893769178;0.0060;-0.0144;-0.1618;
988927903859855;0.0113;-0.0410;-0.1459;
988927913963813;0.0007;-0.0879;-0.1395;
988927924067772;0.0007;-0.1220;-0.1502;
988927934183657;0.0198;-0.1891;-0.1246;
988927944287615;0.0358;-0.1720;-0.1193;
988927954391626;0.0795;-0.0964;-0.1406;
988927964499647;0.1136;0.0921;-0.1427;
988927974603761;0.1168;0.1742;-0.1650;
988927984707876;0.0784;-0.1198;-0.1491;
988927994809855;0.1008;-0.2486;-0.1033;
988928004913969;0.1839;-0.0975;-0.1161;
988928015018084;0.2105;-0.0240;-0.0842;
988928025116938;0.0891;-0.1113;-0.0373;
988928035221053;0.1040;-0.1252;-0.0501;
988928045325167;0.1647;-0.0442;-0.0927;
988928055426678;0.0987;-0.0495;-0.1193;
988928065530792;0.0603;-0.0889;-0.1225;
988928075634907;0.0838;-0.0485;-0.1225;
988928085734959;0.0933;-0.0421;-0.1087;
988928095839074;0.0465;-0.0655;-0.1065;
988928105943188;0.0891;-0.0389;-0.0863;
988928116049751;0.1445;0.0027;-0.0873;
988928126153865;0.1562;0.0208;-0.0852;
988928136257980;0.1594;0.0325;-0.0756;
988928146379959;0.1679;0.0623;-0.0586;
988928156484074;0.1583;0.0602;-0.0575;
988928166588188;0.1679;0.0304;-0.0660;
988928176690688;0.1668;0.0463;-0.0426;
988928186794803;0.1274;0.0708;-0.0447;
988928196898917;0.1349;0.0453;-0.0671;
988928206997094;0.0976;-0.0091;-0.0671;
988928217101209;0.1136;-0.0218;-0.0597;
988928227205324;0.1157;0.0005;-0.0522;
988928237297980;0.1125;-0.0282;-0.0341;
988928247402094;0.1253;-0.0655;-0.0330;
988928257506209;0.1306;-0.0442;-0.0511;
988928267617772;0.1605;-0.0123;-0.0234;
988928277721886;0.1945;0.0442;0.0107;
988928287826001;0.1871;0.1007;0.0266;
988928297941678;0.1839;0.1294;0.0202;
988928308045792;0.1509;0.1017;0.0117;
988928318149907;0.1157;0.0932;0.0000;
988928328248084;0.1125;0.1007;-0.0011;
988928338352199;0.1040;0.0698;-0.0011;
988928348456313;0.1061;0.0517;-0.0234;
988928358559855;0.0976;0.0389;-0.0320;
988928368663969;0.0859;0.0421;-0.0288;
988928378768084;0.0763;0.0240;-0.0320;
988928388870167;0.0784;-0.0112;-0.0352;
988928398974282;0.0933;-0.0389;-0.0352;
988928409078397;0.1125;-0.0368;-0.0522;
988928419197042;0.1413;-0.0591;-0.0405;
988928429301157;0.1541;-0.0676;-0.0383;
988928439405324;0.1956;-0.0719;-0.0341;
988928449496678;0.2158;-0.1252;0.0213;
988928459600792;0.2222;-0.1486;0.0362;
988928469704907;0.2659;-0.1028;0.0021;
988928479838605;0.3011;-0.0240;0.0245;
988928489942719;0.2457;0.0027;0.0394;
988928500046834;0.2616;0.0250;0.0224;
988928510123344;0.2585;0.0091;0.0202;
988928520227459;0.1967;0.0559;0.0181;
988928530331574;0.1679;0.0559;0.0213;
988928540432667;0.1583;0.0442;0.0032;
988928550536782;0.1466;0.0442;-0.0011;
988928560640949;0.1125;-0.0208;0.0075;
988928570746105;0.1125;-0.0442;0.0128;
988928580850219;0.1402;-0.0176;0.0117;
988928590954334;0.1530;-0.0144;0.0032;
988928601076417;0.1807;-0.0037;-0.0032;
988928611180532;0.1871;-0.0293;0.0320;
988928621284647;0.2009;-0.0314;0.0266;
988928631374230;0.2585;0.0101;0.0437;
988928641478344;0.2244;0.0186;0.0607;
988928651582459;0.2158;0.0059;0.0501;
988928661691626;0.2297;-0.0069;0.0522;
988928671795792;0.1732;-0.0208;0.1012;
988928681899855;0.1391;0.0080;0.1108;
988928691999959;0.1274;-0.0059;0.0991;
988928702104074;0.0869;-0.0655;0.0980;
988928712208188;0.0688;-0.0453;0.0959;
988928722314438;0.0699;0.0240;0.0916;
988928732418553;0.0720;0.0559;0.0778;
988928742522667;0.0752;0.0804;0.0586;
988928752636834;0.0614;0.0900;0.0927;
988928762740949;0.0113;0.0453;0.1023;
988928772845063;0.0305;0.0218;0.0501;
988928782940740;0.0486;0.0453;0.0437;
988928793044855;0.0124;-0.0133;0.0565;
988928803148969;0.0358;-0.0772;0.0703;
988928813244907;0.0518;-0.0804;0.0820;
988928823349022;0.0358;-0.0900;0.0692;
988928833453136;0.0390;-0.1571;0.0756;
988928843582042;0.0561;-0.1656;0.0831;
988928853686157;0.0827;-0.1145;0.0937;
988928863790272;0.0752;-0.0549;0.0618;
988928873867772;0.0901;-0.0410;0.0927;
988928883971886;0.0603;-0.0240;0.1087;
988928894076001;0.1019;-0.0048;0.0991;
988928904175688;0.1019;0.0314;0.0959;
988928914279803;0.0710;0.0421;0.0692;
988928924383917;0.0379;-0.0357;0.0383;
988928934506938;0.0656;-0.1017;0.0852;
988928944611053;0.0965;-0.0847;0.0991;
988928954715167;0.1200;0.0080;0.0607;
988928964833605;0.1210;0.0740;0.0405;
988928974937928;0.0869;0.1092;0.0437;
988928985042251;0.0806;0.0602;0.0543;
988928995144647;0.0784;0.0506;0.0575;
988929005248969;0.1466;0.2594;0.0426;
988929015353292;0.1253;0.3020;0.0426;
988929025434126;0.0869;0.1997;0.0650;
988929035538449;0.1242;0.2487;0.0703;
988929045642772;0.1296;0.3989;0.0660;
988929055747980;0.0635;0.2786;0.0884;
988929065852303;0.0113;0.0176;0.0799;
988929075956626;0.0465;0.0005;0.0969;
988929086059126;0.0859;0.1774;0.0692;
988929096163449;0.1072;0.2434;0.0490;
988929106267772;-0.0057;0.0005;0.0543;
988929116381001;0.0124;-0.0634;0.0597;
988929126485324;0.0838;0.0325;0.0458;
988929136589647;0.0688;0.0165;0.0724;
988929146692980;0.0166;0.0016;0.0927;
988929156797303;0.0582;-0.0549;0.0948;
988929166901626;0.0305;-0.1411;0.1023;
988929177012876;0.0433;-0.1198;0.1566;
988929187117199;0.0145;-0.1443;0.1491;
988929197221522;0.0348;-0.2049;0.1736;
988929207305376;0.0326;-0.1624;0.1704;
988929217409699;0.0571;-0.0144;0.1417;
988929227514022;0.0475;0.1220;0.1374;
988929237655376;-0.0004;0.1401;0.1278;
988929247759699;-0.0068;0.1284;0.1108;
988929257864022;0.0049;0.2690;0.0799;
988929267936417;-0.0356;0.3009;0.1118;
988929278040740;-0.1208;0.1593;0.0980;
988929288145115;-0.1304;0.0517;0.1076;
988929298265480;-0.0835;-0.0027;0.1076;
988929308369803;-0.0494;-0.0836;0.0980;
988929318474126;-0.0302;-0.1092;0.0959;
988929328575792;0.0017;-0.1348;0.1076;
988929338680115;0.0039;-0.1454;0.1534;
988929348784438;0.0113;-0.0879;0.1406;
988929358884959;0.0166;-0.0272;0.0959;
988929368989282;0.0049;0.0229;0.1129;
988929379093605;-0.0409;0.0368;0.1268;
988929389187094;-0.0569;0.0431;0.1395;
988929399291417;-0.1197;0.0336;0.1118;
988929409395740;-0.1154;0.0517;0.1161;
988929419519022;-0.1792;0.0208;0.1172;
988929429623344;-0.2687;-0.0378;0.1182;
988929439727667;-0.3007;-0.0197;0.0810;
988929449823501;-0.3273;-0.0357;0.0256;
988929459927824;-0.3880;-0.0687;-0.0266;
988929470032147;-0.4061;-0.1188;-0.0405;
988929480132667;-0.3454;-0.0431;-0.0842;
988929490236990;-0.3262;0.0314;-0.1150;
988929500341313;-0.3539;0.0069;-0.1522;
988929510449334;-0.2581;0.0581;-0.1810;
988929520553657;-0.1718;0.1614;-0.1799;
988929530657980;-0.1877;0.2008;-0.1639;
988929540754334;-0.1675;0.1933;-0.1788;
988929550858657;-0.1410;0.1422;-0.1991;
988929560962980;-0.1526;0.0932;-0.2225;
988929571071001;-0.1526;0.0346;-0.2427;
988929581175324;-0.1336;-0.0421;-0.2438;
988929591279647;-0.1122;-0.1230;-0.2459;
988929601398397;-0.0728;-0.1337;-0.2939;
988929611502719;-0.0228;-0.0730;-0.2917;
988929621607042;-0.0036;-0.0229;-0.2853;
988929631695897;0.0529;0.0261;-0.2939;
988929641800219;0.1551;-0.0730;-0.2758;
988929651904542;0.2670;-0.0666;-0.2811;
988929662011834;0.2563;0.0421;-0.2598;
988929672116157;0.2648;-0.0730;-0.2044;
988929682220480;0.3479;-0.1891;-0.1650;
988929692326834;0.3213;-0.1561;-0.1639;
988929702431157;0.1892;-0.0975;-0.1459;
988929712535480;0.1146;-0.0836;-0.1374;
988929722646417;0.1072;-0.0932;-0.1470;
988929732750740;0.0582;-0.0911;-0.1575;
988929742855063;-0.0057;-0.0591;-0.1852;
988929752958501;0.0060;-0.0368;-0.1959;
988929763062824;-0.0334;0.0016;-0.1873;
988929773167147;-0.0228;0.0133;-0.1639;
988929783268917;-0.0057;-0.0559;-0.1406;
988929793373240;0.0124;-0.0538;-0.1491;
988929803477615;0.0369;0.0154;-0.1778;
988929813578917;0.0507;-0.0442;-0.1565;
988929823683240;0.1061;-0.0666;-0.1321;
988929833787563;0.1146;-0.0218;-0.1150;
988929843878501;0.1019;0.0037;-0.1310;
988929853982824;0.1349;-0.0229;-0.1129;
988929864087147;0.1423;-0.0357;-0.0873;
988929874180688;0.1285;-0.0208;-0.0618;
988929884285011;0.1221;-0.0101;-0.0437;
988929894389334;0.1264;0.0410;-0.0447;
988929904524334;0.1541;0.1156;-0.0320;
988929914628657;0.2095;0.1262;0.0202;
988929924732980;0.2521;0.0218;0.0533;
988929934814438;0.2403;-0.0272;0.0692;
988929944918761;0.1807;-0.0186;0.0948;
988929955023084;0.1615;-0.0208;0.0842;
988929965151730;0.2031;-0.0655;0.0959;
988929975255949;0.1541;-0.0687;0.1172;
988929985360219;0.0997;-0.0421;0.1044;
988929995455167;0.0965;-0.0314;0.1204;
988930005559438;0.0262;-0.0325;0.1513;
988930015663657;-0.0206;-0.0261;0.1459;
988930025761626;-0.0835;0.0144;0.1523;
988930035865897;-0.1517;0.0879;0.1225;
988930045970115;-0.1792;0.1166;0.0746;
988930056076678;-0.1909;0.1262;0.0522;
988930066180949;-0.2282;0.1571;0.0447;
988930076285167;-0.2346;0.0772;0.0522;
988930086388188;-0.2527;-0.0421;0.0266;
988930096492407;-0.2559;-0.0208;-0.0053;
988930106596678;-0.2964;0.0463;-0.0138;
988930116707459;-0.2399;0.0378;-0.0469;
988930126811678;-0.1632;-0.0133;-0.0650;
988930136915949;-0.1771;-0.0272;-0.0756;
988930147017667;-0.1474;-0.0005;-0.0852;
988930157121886;-0.1048;-0.0783;-0.0650;
988930167226157;-0.1027;-0.1262;-0.0714;
988930177321522;-0.0771;-0.0655;-0.0916;
988930187425740;-0.0281;-0.0442;-0.0863;
988930197530011;0.0156;-0.0591;-0.0746;
988930207634542;0.0774;-0.0410;-0.0607;
988930217738813;0.1338;0.0272;-0.0437;
988930227843032;0.1871;0.0666;-0.0533;
988930237968501;0.2574;0.0794;-0.0458;
988930248072719;0.2702;0.0836;-0.0160;
988930258176990;0.2872;0.0474;0.0160;
988930268268813;0.2947;-0.0474;0.0437;
988930278373084;0.3256;-0.0730;0.0575;
988930288477303;0.3138;-0.0889;0.0831;
988930298572355;0.2872;-0.1284;0.1076;
988930308676626;0.2723;-0.1241;0.1363;
988930318780844;0.2105;-0.0549;0.1278;
988930328885219;0.1945;-0.0112;0.1310;
988930338989490;0.1541;0.0623;0.1609;
988930349093709;0.1498;0.1209;0.1768;
988930359200428;0.1519;0.0964;0.2013;
988930369304647;0.1178;0.0463;0.1768;
988930379408865;0.1423;0.0570;0.1800;
988930389511938;0.1221;0.0389;0.2067;
988930399616157;0.1178;-0.0250;0.2471;
988930409720428;0.0901;-0.0517;0.2194;
988930419825688;0.0507;-0.0048;0.2130;
988930429929959;0.0262;0.0069;0.1960;
988930440034178;0.0273;-0.0123;0.2162;
988930450137511;-0.0260;0.0293;0.2099;
988930460241782;-0.0089;0.0879;0.1779;
988930470346001;0.0422;0.0474;0.1864;
988930480473084;0.0326;0.0453;0.2013;
988930490577303;0.0422;0.0378;0.2088;
988930500681574;0.0763;-0.0048;0.2067;
988930510773344;0.0497;-0.0389;0.2130;
988930520877615;0.0241;-0.0421;0.2024;
988930530981834;0.0198;-0.0282;0.1917;
988930541083501;0.0156;-0.0208;0.1960;
988930551187772;-0.0047;-0.0048;0.1811;
988930561291990;-0.0036;0.0069;0.1736;
988930571391730;-0.0206;0.0048;0.1662;
988930581495949;-0.0036;-0.0378;0.1587;
988930591600219;-0.0174;-0.0485;0.1747;
988930601699751;-0.0728;-0.0485;0.1555;
988930611803969;-0.0398;-0.0144;0.1427;
988930621908240;-0.0345;0.0154;0.1438;
988930632019334;-0.0366;-0.0069;0.1289;
988930642123605;-0.0302;0.0027;0.1204;
988930652227824;-0.0313;0.0772;0.0991;
988930662326417;-0.0057;0.0911;0.1108;
988930672430636;0.0145;0.0655;0.1182;
988930682534907;0.0071;0.0495;0.1108;
988930692638292;-0.0111;0.0378;0.1033;
988930702742563;-0.0217;-0.0048;0.0788;
988930712846782;-0.0228;-0.0666;0.1118;
988930722950167;-0.0505;-0.0282;0.1118;
988930733054386;-0.0409;0.0186;0.1023;
988930743158709;-0.0366;0.0463;0.0842;
988930753260167;-0.0217;0.0687;0.1118;
988930763364386;-0.0238;0.0868;0.1257;
988930773468657;-0.0068;0.0783;0.1268;
988930783550688;-0.0292;0.0431;0.1257;
988930793654959;-0.0515;0.0048;0.1097;
988930803759178;-0.0835;-0.2230;0.1342;
988930813891001;-0.0547;-0.3136;0.1513;
988930823995219;-0.0441;-0.0218;0.1150;
988930834099490;-0.0877;0.2541;0.0767;
988930844217772;-0.0814;0.2359;0.1012;
988930854321990;-0.0995;0.1497;0.1438;
988930864426261;-0.1240;0.1326;0.1502;
988930874518657;-0.1792;0.1582;0.1268;
988930884622876;-0.2421;0.0794;0.1204;
988930894727147;-0.2495;-0.0112;0.0916;
988930904834855;-0.1835;-0.0921;0.0905;
988930914939126;-0.1506;-0.1816;0.1172;
988930925043344;-0.1517;-0.1667;0.0842;
988930935154230;-0.1282;-0.0751;0.0692;
988930945258449;-0.1218;-0.0154;0.0980;
988930955362719;-0.1314;0.2391;0.0756;
988930965462459;-0.1144;0.3457;0.0511;
988930975566626;-0.0941;-0.0932;0.0831;
988930985670792;-0.0558;-0.2465;0.1044;
988930995766730;-0.0036;-0.0911;0.1214;
988931005870897;-0.0547;-0.0613;0.1449;
988931015975063;-0.0835;-0.0964;0.1523;
988931026088292;-0.0867;-0.0527;0.1406;
988931036192459;-0.1069;0.0613;0.1278;
988931046296626;-0.1091;0.0953;0.1225;
988931056402251;-0.1229;0.1017;0.1097;
988931066506417;-0.1325;0.1667;0.0735;
988931076610584;-0.1080;0.1731;0.0895;
988931086709230;-0.0963;0.1028;0.1182;
988931096813397;-0.1101;0.0708;0.1172;
988931106917563;-0.1442;0.0059;0.1033;
988931117029594;-0.1537;-0.0964;0.1076;
988931127133761;-0.1686;-0.0932;0.0927;
988931137237928;-0.2091;-0.1081;0.0969;
988931147334126;-0.2602;-0.1092;0.0884;
988931157438292;-0.2836;-0.0144;0.0511;
988931167542459;-0.2623;0.0293;0.0522;
988931177648501;-0.2527;0.0794;0.0469;
988931187752667;-0.2410;0.1145;0.0469;
988931197856834;-0.2410;0.1028;0.0309;
988931207957511;-0.2591;0.1007;0.0085;
988931218061678;-0.2826;0.0868;0.0107;
988931228165844;-0.3230;0.0282;0.0075;
988931238302355;-0.3326;0.0123;-0.0405;
988931248406522;-0.3678;0.0336;-0.0831;
988931258510688;-0.3848;0.0059;-0.1001;
988931268587667;-0.3731;-0.0197;-0.1225;
988931278691834;-0.3273;0.0091;-0.1639;
988931288796001;-0.2868;0.0613;-0.1895;
988931298899438;-0.2367;0.0559;-0.1746;
988931309003605;-0.1803;0.0740;-0.1746;
988931319115844;-0.1240;0.0794;-0.1756;
988931329220011;-0.1325;0.0037;-0.1714;
988931339324178;-0.1261;-0.0421;-0.1884;
988931349437667;-0.0963;-0.0495;-0.1980;
988931359541834;-0.0963;-0.0485;-0.1927;
988931369646001;-0.1005;-0.0293;-0.2033;
988931379733188;-0.0835;0.0080;-0.2310;
988931389837355;-0.1005;0.0059;-0.2449;
988931399941522;-0.1112;-0.0250;-0.2491;
988931410044334;-0.0782;-0.0154;-0.2470;
988931420148501;-0.0675;0.0176;-0.2640;
988931430252667;-0.0409;0.0282;-0.2513;
988931440350115;-0.0228;0.0229;-0.2332;
988931450454334;0.0060;-0.0261;-0.2087;
988931460558501;0.0411;-0.0719;-0.1980;
988931470685063;0.0806;-0.0676;-0.1980;
988931480789230;0.1029;0.0027;-0.2140;
988931490893397;0.1317;0.0666;-0.1831;
988931500981834;0.1232;0.0591;-0.1597;
988931511086001;0.1168;0.0570;-0.1873;
988931521190167;0.1360;0.0474;-0.1799;
988931531296626;0.1029;-0.0197;-0.1671;
988931541400792;0.1115;-0.0272;-0.1438;
988931551504959;0.0965;-0.0197;-0.1300;
988931561597563;0.0742;-0.0399;-0.1406;
988931571701730;0.1083;-0.0410;-0.1246;
988931581805897;0.0742;-0.0282;-0.0863;
988931591908709;0.0465;-0.0463;-0.0703;
988931602012876;0.0699;-0.0336;-0.0788;
988931612117042;0.0593;-0.0112;-0.1055;
988931622238501;0.0486;-0.0005;-0.0969;
988931632342667;0.0348;0.0016;-0.0724;
988931642446834;0.0433;0.0005;-0.0682;
988931652540480;0.0305;0.0048;-0.0788;
988931662644647;-0.0057;-0.0176;-0.0852;
988931672748865;-0.0132;-0.0154;-0.1012;
988931682859334;-0.0228;-0.0762;-0.0852;
988931692963501;-0.0302;-0.1262;-0.0810;
988931703067667;0.0113;-0.0378;-0.0969;
988931713204126;0.0326;0.0826;-0.1065;
988931723308292;0.0561;0.0570;-0.0799;
988931733412459;0.0550;0.0037;-0.0437;
988931743499855;0.0454;0.0293;-0.0511;
988931753604022;0.0465;0.0527;-0.0948;
988931763708188;0.0433;0.0549;-0.0873;
988931773838084;0.0316;0.0463;-0.0692;
988931783942251;0.0039;0.0240;-0.0852;
988931794046417;0.0060;0.0080;-0.1268;
988931804116834;-0.0036;-0.0368;-0.1204;
988931814221001;-0.0260;-0.0485;-0.1161;
988931824325167;0.0294;-0.0208;-0.1278;
988931834435011;0.0316;0.0581;-0.1586;
988931844539178;0.0614;0.0517;-0.1491;
988931854643344;0.0603;-0.1688;-0.1140;
988931864755063;0.1029;-0.1465;-0.1140;
988931874859230;0.1594;-0.0080;-0.1214;
988931884963397;0.1423;0.0101;-0.1172;
988931895067251;0.1892;-0.0229;-0.0724;
988931905171417;0.1945;-0.0144;-0.0266;
988931915275584;0.1605;0.0282;-0.0533;
988931925367042;0.1615;0.0208;-0.0948;
988931935471209;0.1413;-0.0048;-0.1076;
988931945575376;0.1168;0.0154;-0.0980;
988931955694855;0.1072;0.0282;-0.0831;
988931965799022;0.1189;0.0293;-0.0810;
988931975903188;0.1189;0.0218;-0.0788;
988931986012876;0.1146;-0.0208;-0.0756;
988931996117042;0.1253;-0.0080;-0.0682;
988932006221209;0.1434;0.0517;-0.0628;
988932016305376;0.1658;0.0069;-0.0522;
988932026409542;0.1562;-0.0879;-0.0543;
988932036513709;0.1871;-0.0325;-0.0373;
988932046630167;0.1999;0.0112;0.0032;
988932056734334;0.1818;0.0186;0.0085;
988932066838501;0.2009;0.0197;0.0288;
988932076934126;0.1530;0.0144;0.0138;
988932087038292;0.1338;-0.0112;-0.0043;
988932097142459;0.1338;-0.0325;-0.0021;
988932107241626;0.1296;-0.0549;0.0192;
988932117345792;0.1178;-0.0602;0.0298;
988932127449959;0.1498;-0.0623;0.0309;
988932137562980;0.1636;-0.0517;0.0714;
988932147667147;0.1647;-0.0165;0.0650;
988932157771313;0.1764;-0.0399;0.0607;
988932167877251;0.1807;-0.0346;0.0788;
988932177981417;0.1818;0.0133;0.1065;
988932188085584;0.1423;0.0080;0.1108;
988932198190844;0.1477;-0.0399;0.0980;
988932208295011;0.1285;-0.0197;0.0927;
988932218399178;0.1040;0.0197;0.1012;
988932228513397;0.0997;0.0091;0.1236;
988932238617563;0.0827;-0.0112;0.1225;
988932248721730;0.0699;0.0517;0.0873;
988932258816626;0.0848;0.0613;0.0842;
988932268920792;0.0891;0.0016;0.1246;
988932279024959;0.0869;-0.0197;0.1225;
988932289130376;0.0997;-0.0154;0.1161;
988932299234542;0.1093;-0.0027;0.1108;
988932309338709;0.0838;-0.0048;0.1481;
988932319439751;0.0614;-0.0176;0.1449;
988932329544022;0.0838;-0.0048;0.1406;
988932339648292;0.0379;-0.0080;0.1257;
988932349743917;0.0635;-0.0304;0.1161;
988932359848188;0.0262;-0.0304;0.1321;
988932369952407;0.0145;-0.0250;0.1150;
988932380052980;0.0539;-0.0431;0.1118;
988932390157251;0.0379;-0.0282;0.1129;
988932400261522;0.0454;0.0037;0.1268;
988932410367667;0.0667;0.0112;0.1417;
988932420471938;0.0678;0.0357;0.1289;
988932430576157;0.0571;0.0186;0.1065;
988932440672147;0.0603;0.0229;0.1236;
988932450776417;0.0475;0.0517;0.1545;
988932460880688;0.0230;0.0559;0.1534;
988932471009855;-0.0142;0.0410;0.1182;
988932481114126;-0.0174;0.0325;0.1172;
988932491218344;-0.0558;-0.0091;0.1321;
988932501310063;-0.0739;-0.0154;0.0969;
988932511414334;-0.0558;-0.0048;0.0756;
988932521518605;-0.0526;-0.0027;0.0991;
988932531648813;-0.0270;-0.0059;0.1257;
988932541753084;-0.0079;-0.0794;0.1363;
988932551857355;0.0081;-0.0996;0.1395;
988932561943188;-0.0228;-0.0634;0.1193;
988932572047459;-0.0025;-0.0336;0.1246;
988932582151678;0.0081;0.0027;0.1640;
988932592250688;-0.0057;-0.0005;0.1630;
988932602354959;-0.0260;-0.1007;0.1566;
988932612459178;-0.0846;-0.0985;0.1417;
988932622570376;-0.0909;-0.1220;0.1417;
988932632674647;-0.1611;-0.1401;0.1225;
988932642778865;-0.0654;0.0378;0.1172;
988932652867980;0.0220;0.3201;0.1246;
988932662972199;-0.0356;0.3329;0.1609;
988932673076522;-0.0984;0.1795;0.1960;
988932683249699;-0.0728;0.2274;0.1683;
988932693353865;-0.0590;0.3755;0.1374;
988932703458136;-0.1485;0.3670;0.1225;
988932713478709;-0.2314;0.2146;0.1427;
988932723582980;-0.3017;0.1326;0.1278;
988932733687251;-0.3262;0.0794;0.0991;
988932743855167;-0.3678;0.0410;0.0639;
988932753959438;-0.4200;0.0368;0.0309;
988932764063657;-0.4178;-0.0506;0.0224;
988932774123240;-0.3678;-0.0037;-0.0234;
988932784227511;-0.3241;-0.1188;-0.0288;
988932794331730;-0.2559;-0.3583;-0.0149;
988932804460532;-0.1622;-0.3221;0.0309;
988932814564751;-0.1091;-0.2230;0.0479;
988932824669022;-0.1016;-0.2071;0.0788;
988932834748292;-0.1346;-0.2252;0.0735;
988932844852563;-0.0675;-0.1007;0.0692;
988932854956782;-0.1261;0.0176;0.0873;
988932865063292;-0.1846;0.0325;0.0490;
988932875167563;-0.1846;0.0751;-0.0128;
988932885271834;-0.2240;0.1348;-0.0288;
988932895362772;-0.2836;0.1220;-0.0447;
988932905467042;-0.2783;0.0644;-0.0660;
988932915571313;-0.2346;0.0900;-0.0969;
988932925679542;-0.1973;0.0772;-0.0863;
988932935783813;-0.2059;-0.0399;-0.0788;
988932945888032;-0.1293;-0.0559;-0.0767;
988932956004022;-0.1101;0.0112;-0.0767;
988932966108292;-0.1091;-0.0357;-0.0948;
988932976212563;-0.0547;-0.0751;-0.0916;
988932986306209;-0.0526;-0.0613;-0.0692;
988932996410480;-0.0270;-0.0495;-0.0714;
988933006514751;-0.0004;0.0474;-0.1044;
988933016634334;-0.0409;0.0431;-0.0884;
988933026738605;-0.0579;0.0708;-0.0905;
988933036842824;-0.0590;0.0921;-0.0873;
988933046946417;-0.0909;0.0527;-0.0810;
988933057050688;-0.0963;0.0080;-0.0788;
988933067154907;-0.0558;-0.0197;-0.0650;
988933077254959;-0.0505;-0.0591;-0.0554;
988933087359230;-0.0260;-0.0463;-0.0469;
988933097463449;-0.0601;-0.0634;-0.0575;
988933107567563;-0.0483;-0.0293;-0.0522;
988933117671834;-0.0771;0.0112;-0.0170;
988933127776053;-0.0888;0.0048;-0.0224;
988933137883188;-0.0696;0.0005;-0.0522;
988933147987459;-0.1144;0.0293;-0.0362;
988933158091678;-0.1048;0.0719;-0.0437;
988933168201417;-0.0835;0.0751;-0.0458;
988933178305688;-0.1208;0.0357;-0.0554;
988933188409907;-0.0856;0.0762;-0.0447;
988933198517355;-0.0835;0.1060;-0.0138;
988933208621626;-0.0867;0.0751;-0.0415;
988933218725897;-0.0771;0.0623;-0.0352;
988933228837147;-0.0920;-0.0112;-0.0426;
988933238941365;-0.0814;-0.0123;-0.0075;
988933249045636;-0.1165;-0.0037;-0.0021;
988933259139542;-0.0899;-0.0666;-0.0011;
988933269243813;-0.1622;-0.1752;-0.0394;
988933279348032;-0.1080;-0.1838;-0.0479;
988933289454334;-0.1080;-0.0591;-0.0501;
988933299558553;-0.1048;0.0218;-0.0618;
988933309662824;-0.1048;0.0474;-0.0447;
988933319732355;-0.1261;0.0666;-0.0309;
988933329836365;-0.1048;0.0346;-0.0362;
988933339940376;-0.0909;0.0037;-0.0341;
988933350069022;-0.1080;0.0314;-0.0533;
988933360173032;-0.0803;0.0325;-0.0575;
988933370277042;-0.1069;-0.0357;-0.0660;
988933380384438;-0.1112;-0.0634;-0.0554;
988933390488449;-0.1240;-0.0932;-0.0767;
988933400592459;-0.0664;-0.0218;-0.1065;
988933410693605;-0.0867;0.0431;-0.0991;
988933420797615;-0.0856;0.0730;-0.1353;
988933430901626;-0.0494;-0.0368;-0.1395;
988933441026417;-0.0547;-0.0964;-0.1342;
988933451130428;-0.0174;-0.0250;-0.1278;
988933461234438;0.0379;-0.0037;-0.1087;
988933471340844;0.0507;0.0325;-0.1055;
988933481444803;0.0635;0.0080;-0.1182;
988933491548813;0.1115;-0.0485;-0.1140;
988933501637928;0.1168;-0.0101;-0.1310;
988933511741886;0.1104;0.0336;-0.1150;
988933521845949;0.1189;0.0453;-0.0927;
988933531948917;0.1338;0.0218;-0.1129;
988933542052928;0.1317;0.0154;-0.1374;
988933552156938;0.1072;0.0048;-0.1204;
988933562257511;0.0561;0.0059;-0.1108;
988933572361522;0.0859;-0.0091;-0.1150;
988933582465532;0.0848;-0.0538;-0.0969;
988933592570688;0.0582;-0.0847;-0.0767;
988933602674699;0.0539;-0.1316;-0.0692;
988933612778709;0.0646;-0.1433;-0.0597;
988933622884126;0.0624;-0.1145;-0.0724;
988933632988188;0.0806;-0.1060;-0.0778;
988933643092199;0.0816;-0.0602;-0.0330;
988933653267928;0.0475;0.0357;-0.0288;
988933663371990;0.1232;0.1742;-0.0628;
988933673476001;0.1402;0.2434;-0.0682;
988933683529126;0.0838;0.2125;-0.0607;
988933693633136;0.0507;0.1624;-0.0437;
988933703737199;0.0060;0.1369;-0.0362;
988933713864126;-0.0313;0.1113;-0.0554;
988933723968136;-0.1176;0.0602;-0.0820;
988933734072147;-0.1739;0.0123;-0.0991;
988933744152355;-0.1431;-0.0037;-0.0980;
988933754256365;-0.0909;-0.0186;-0.1182;
988933764360376;-0.0483;-0.0336;-0.1289;
988933774471834;-0.0196;0.0133;-0.1268;
988933784575844;0.0220;-0.0176;-0.1023;
988933794679855;0.0497;-0.0804;-0.1076;
988933804762772;0.1008;-0.0879;-0.0916;
988933814866782;0.0614;-0.1124;-0.0724;
988933824970792;0.0337;-0.0644;-0.0671;
988933835078344;0.0539;-0.0549;-0.0575;
988933845182355;0.0667;-0.0357;-0.0735;
988933855286365;0.0539;-0.0208;-0.0756;
988933865375897;0.0422;-0.0410;-0.0788;
988933875479907;0.0497;-0.0389;-0.0948;
988933885583917;0.0454;0.0005;-0.1044;
988933895705688;0.0582;-0.0133;-0.1065;
988933905809699;0.0475;-0.0282;-0.0873;
988933915913709;0.0433;-0.0442;-0.0842;
988933926018188;0.0539;-0.0868;-0.1033;
988933936122199;0.0646;-0.1060;-0.1087;
988933946226209;0.0699;-0.0953;-0.1023;
988933956330480;0.0784;-0.0772;-0.0799;
988933966434490;0.0763;-0.0847;-0.0756;
988933976538501;0.0933;-0.0708;-0.0852;
988933986704803;0.1338;-0.0208;-0.0660;
988933996808761;0.1296;0.0208;-0.0639;
988934006912772;0.1679;0.0357;-0.0597;
988934016948813;0.1818;0.0410;-0.0501;
988934027052824;0.1796;0.0676;-0.0415;
988934037156834;0.1679;0.0676;-0.0181;
988934047273188;0.1445;0.0282;-0.0224;
988934057377199;0.1093;0.0123;-0.0309;
988934067481261;0.0976;0.0357;-0.0256;
988934077579438;0.0784;-0.0069;-0.0181;
988934087683449;0.0710;-0.0804;-0.0011;
988934097787459;0.0646;-0.0964;-0.0043;
988934107898397;0.0965;-0.0676;0.0011;
988934118002407;0.0997;-0.0389;0.0021;
988934128106417;0.1391;-0.0144;0.0213;
988934138212042;0.1274;-0.0410;0.0650;
988934148316053;0.1477;-0.0240;0.0575;
988934158420063;0.1743;0.0527;0.0511;
988934168518709;0.1413;0.0549;0.0703;
988934178622719;0.1083;0.0080;0.0650;
988934188726730;0.1136;0.0485;0.0447;
988934198832042;0.0763;0.0730;0.0469;
988934208936053;0.0624;0.0698;0.0330;
988934219040063;0.0699;0.0474;0.0405;
988934229145792;0.0294;0.0666;0.0256;
988934239249803;0.0561;0.0410;0.0117;
988934249353813;0.0827;-0.0378;0.0373;
988934259472563;0.0742;-0.0463;0.0426;
988934269576574;0.0795;-0.0399;0.0383;
988934279680636;0.0944;-0.0836;0.0320;
988934289774334;0.0784;-0.0666;0.0565;
988934299878344;0.0869;-0.0101;0.0810;
988934309982355;0.0965;-0.0272;0.0778;
988934320100480;0.1029;-0.0112;0.0394;
988934330205063;0.0965;0.0399;0.0479;
988934340309647;0.0763;0.0698;0.0437;
988934350391105;0.0912;0.0559;0.0437;
988934360495688;0.0667;0.0154;0.0479;
988934370600272;0.0635;0.0218;0.0170;
988934380706001;0.0678;0.0304;0.0149;
988934390810584;0.0582;0.0346;0.0309;
988934400915167;0.0710;0.0123;0.0394;
988934411023709;0.0635;-0.0048;0.0288;
988934421128292;0.0582;0.0229;0.0202;
988934431232876;0.0635;0.0059;0.0352;
988934441351938;0.0646;-0.0538;0.0170;
988934451456522;0.0795;-0.0463;0.0128;
988934461561105;0.0593;-0.0517;0.0053;
988934471657147;0.0678;-0.0602;-0.0053;
988934481761730;0.0784;-0.0474;0.0202;
988934491866313;0.0997;-0.0186;0.0352;
988934501956834;0.1391;0.0570;0.0309;
988934512061417;0.1530;0.0932;0.0341;
988934522166001;0.1498;0.0794;0.0607;
988934532283188;0.1360;0.0325;0.0607;
988934542387772;0.0987;-0.0059;0.0405;
988934552492407;0.0646;-0.0495;0.0256;
988934562598709;0.0529;-0.0889;0.0511;
988934572703292;0.0454;-0.1294;0.0288;
988934582807876;0.0688;-0.1433;0.0234;
988934592902042;0.0710;-0.1156;0.0234;
988934603006626;0.0933;-0.0719;0.0522;
988934613111209;0.1029;-0.0272;0.0479;
988934623265376;0.1285;-0.0549;0.0458;
988934633369959;0.1498;-0.1443;0.0820;
988934643474542;0.1573;-0.0570;0.1033;
988934653512251;0.1594;0.0154;0.1257;
988934663616834;0.1370;-0.1017;0.1630;
988934673721469;0.1466;-0.0069;0.1651;
988934683877876;0.1700;0.3222;0.1694;
988934693982459;0.1786;0.5224;0.1960;
988934704087042;0.1818;0.4915;0.1811;
988934714165740;0.2073;0.4819;0.1630;
988934724270324;0.1509;0.4819;0.1630;
988934734374907;0.0305;0.4233;0.1534;
988934744470792;-0.0632;0.2296;0.1640;
988934754575376;-0.2378;0.0698;0.1449;
988934764679959;-0.3763;0.0272;0.1246;
988934774791261;-0.4210;-0.0027;0.0842;
988934784895844;-0.3443;-0.1795;0.1087;
988934795000428;-0.2804;-0.2699;0.1150;
988934805110584;-0.2218;0.0059;0.0575;
988934815215167;-0.0941;-0.2262;0.1204;
988934825319751;-0.0654;-0.4723;0.1609;
988934835406417;0.0166;-0.3232;0.1470;
988934845511001;0.0454;-0.1688;0.1885;
988934855615584;0.0124;-0.1188;0.2120;
988934865737563;0.0401;-0.0879;0.2280;
988934875842147;0.0593;0.0186;0.1949;
988934885946730;0.0273;0.1422;0.1523;
988934896031678;0.0028;0.1795;0.1214;
988934906136261;-0.0036;0.1944;0.1161;
988934916240844;-0.0398;0.1656;0.1140;
988934926349855;-0.0909;0.0964;0.0746;
988934936454438;-0.1069;0.0772;0.0415;
988934946559022;-0.1346;0.0304;0.0565;
988934956661417;-0.1750;-0.0783;0.0543;
988934966766001;-0.1122;-0.1103;0.0170;
988934976870584;-0.0515;-0.0804;0.0053;
988934986957876;-0.0366;-0.1305;0.0138;
988934997062459;-0.0047;-0.1209;0.0192;
988935007167042;0.0209;-0.1092;0.0479;
988935017283709;0.0614;-0.1188;0.0352;
988935027388292;0.1285;-0.0517;0.0565;
988935037492876;0.1647;-0.0005;0.0873;
988935047594594;0.1605;-0.0282;0.1140;
988935057699178;0.1871;0.0613;0.1214;
988935067803761;0.1551;0.1316;0.1353;
988935077904126;0.0944;0.1028;0.1822;
988935088008709;0.0379;0.1497;0.1630;
988935098113292;0.0177;0.1880;0.1374;
988935108217042;-0.0281;0.1230;0.1214;
988935118321626;-0.0941;0.0847;0.1108;
988935128426261;-0.1782;0.0293;0.1268;
988935138532667;-0.2804;-0.0069;0.0969;
988935148637251;-0.3060;-0.0261;0.0607;
988935158741834;-0.2932;-0.0613;0.0469;
988935168852772;-0.2634;-0.0740;0.0479;
988935178957355;-0.2431;-0.0421;0.0213;
988935189061938;-0.1750;-0.0389;0.0117;
988935199158084;-0.1314;-0.0911;0.0085;
988935209262667;-0.0952;-0.0794;0.0075;
988935219367251;-0.0920;-0.0474;0.0096;
988935229473292;-0.0664;-0.0570;0.0021;
988935239577876;-0.0686;-0.0336;0.0032;
988935249682459;-0.0920;-0.0336;0.0138;
988935259789022;-0.0601;-0.0826;0.0075;
988935269893605;-0.0664;-0.1103;0.0032;
988935279998188;-0.0707;-0.0964;0.0085;
988935290098084;-0.0675;-0.0133;0.0181;
988935300202667;-0.0345;0.1188;0.0053;
988935310307251;0.0049;0.1656;0.0117;
988935320426834;-0.0473;0.1561;0.0160;
988935330531157;-0.0270;0.1348;0.0330;
988935340635532;-0.0419;0.1891;0.0160;
988935350721834;-0.0856;0.2040;-0.0288;
988935360826209;-0.1005;0.1294;-0.0479;
988935370930532;-0.1506;0.0964;-0.0724;
988935381031313;-0.1941;0.0719;-0.0852;
988935391135688;-0.2069;0.0474;-0.0618;
988935401240063;-0.2165;0.0719;-0.0937;
988935411341834;-0.1421;0.0687;-0.1140;
988935421446209;-0.0792;0.0176;-0.1012;
988935431550584;-0.0707;-0.0953;-0.0607;
988935441648917;-0.0611;-0.1465;-0.0714;
988935451753292;0.0039;-0.1103;-0.0671;
988935461857615;-0.0079;-0.0751;-0.0320;
988935471991209;-0.0228;-0.0826;-0.0224;
988935482095584;0.0305;-0.0176;-0.0490;
988935492199907;0.0326;0.0655;-0.0501;
988935502289542;-0.0334;0.0943;-0.0479;
988935512393917;-0.0441;0.0964;-0.0746;
988935522498240;-0.0111;0.1007;-0.1044;
988935532600844;-0.0132;0.0921;-0.0937;
988935542705219;-0.0356;0.0676;-0.0767;
988935552809594;-0.0281;0.0623;-0.0778;
988935562911626;-0.0430;0.0378;-0.1055;
988935573015949;-0.0356;-0.0186;-0.1193;
988935583120324;-0.0281;-0.0378;-0.0895;
988935593251626;-0.0249;-0.0431;-0.0980;
988935603356001;0.0166;-0.0357;-0.1246;
988935613460324;0.0198;-0.0218;-0.1363;
988935623544126;0.0369;-0.0186;-0.1182;
988935633648501;0.0550;-0.0250;-0.0778;
988935643752824;0.0614;-0.0261;-0.0788;
988935653885584;0.0955;0.0112;-0.0959;
988935663989959;0.0848;0.0229;-0.0682;
988935674094282;0.0561;-0.0218;-0.0469;
988935684167303;0.0486;-0.0314;-0.0192;
988935694271730;0.0422;-0.0144;-0.0383;
988935704376053;0.0305;-0.0399;-0.0426;
988935714474178;0.0071;-0.0549;-0.0309;
988935724578553;0.0188;-0.0101;-0.0437;
988935734682876;0.0379;0.0336;-0.0511;
988935744799647;0.0230;0.0240;-0.0469;
988935754904022;-0.0079;0.0336;-0.0522;
988935765008344;0.0092;0.0229;-0.0234;
988935775108084;0.0060;0.0378;-0.0192;
988935785212459;0.0081;0.0336;-0.0192;
988935795316782;0.0113;0.0144;0.0043;
988935805412876;0.0028;0.0399;0.0245;
988935815517251;-0.0025;0.0815;0.0288;
988935825621574;-0.0238;0.0581;0.0000;
988935835731209;-0.0398;0.0304;-0.0011;
988935845835584;-0.0494;-0.0069;-0.0117;
988935855939907;-0.0164;-0.0069;-0.0213;
988935866031417;-0.0270;-0.0229;-0.0213;
988935876135792;-0.0398;-0.0591;0.0053;
988935886240167;-0.0217;-0.0836;0.0181;
988935896360272;-0.0004;-0.0836;0.0362;
988935906464647;-0.0015;-0.0762;0.0256;
988935916568969;0.0092;-0.0794;0.0511;
988935926677667;-0.0068;-0.0836;0.0842;
988935936782042;-0.0185;-0.0581;0.0873;
988935946886365;-0.0196;-0.0442;0.0692;
988935956987459;-0.0292;-0.0506;0.0639;
988935967091834;-0.0387;-0.0240;0.0692;
988935977196157;-0.0345;0.0538;0.0405;
988935987323292;-0.0228;0.0953;0.0170;
988935997427667;-0.0483;0.0634;0.0362;
988936007532042;-0.0877;0.0346;0.0415;
988936017600063;-0.1336;0.0186;0.0288;
988936027704438;-0.1941;-0.0357;0.0011;
988936037808813;-0.1304;-0.0538;-0.0043;
988936047924647;0.0017;-0.0112;0.0405;
988936058029022;-0.0398;-0.0016;0.0277;
988936068133344;-0.0558;-0.0314;0.0309;
988936078237459;-0.0526;-0.0836;0.0170;
988936088341834;-0.0153;-0.0399;0.0128;
988936098446157;-0.0089;0.0240;0.0202;
988936108548188;-0.0377;0.0091;0.0053;
988936118652563;-0.0537;0.0080;-0.0085;
988936128756886;-0.1005;0.0112;-0.0107;
988936138859647;-0.1421;-0.0325;-0.0011;
988936148964022;-0.1526;-0.0506;0.0021;
988936159068344;-0.1197;-0.0346;-0.0181;
988936169174594;-0.0728;0.0005;-0.0330;
988936179278969;-0.0686;-0.0357;-0.0192;
988936189383292;-0.0558;-0.0549;-0.0075;
988936199507772;-0.0270;0.0112;0.0000;
988936209612147;-0.0185;0.0644;-0.0075;
988936219716522;-0.0451;0.0868;-0.0170;
988936229805272;-0.0451;0.0772;-0.0160;
988936239909647;-0.0345;0.0506;-0.0266;
988936250013969;-0.0387;0.0900;-0.0330;
988936260118084;-0.0920;0.0794;-0.0224;
988936270222459;-0.0782;-0.0069;-0.0266;
988936280326834;-0.0707;-0.0304;-0.0117;
988936290424178;-0.0590;-0.0112;-0.0138;
988936300528553;-0.0483;-0.0485;-0.0149;
988936310632876;-0.0366;-0.0762;-0.0256;
988936320751834;-0.0121;-0.0591;-0.0107;
988936330856209;0.0039;-0.1039;0.0064;
988936340960532;0.0401;-0.1007;0.0096;
988936351055480;0.0710;-0.0197;0.0330;
988936361159855;-0.0313;-0.0154;0.0426;
988936371264230;-0.0281;-0.0740;0.0383;
988936381359386;-0.0430;-0.0581;0.0341;
988936391463761;-0.0750;-0.0272;0.0202;
988936401568136;-0.0760;-0.0517;0.0245;
988936411677459;-0.0803;-0.0091;0.0234;
988936421781834;-0.0750;0.0314;0.0021;
988936431886157;-0.0835;-0.0186;0.0053;
988936441997772;-0.0515;-0.0559;0.0107;
988936452102147;-0.0345;-0.0250;0.0277;
988936462206469;-0.0483;-0.0261;-0.0096;
988936472294803;-0.0174;-0.0453;0.0011;
988936482399178;-0.0270;-0.0602;0.0288;
988936492503553;-0.0302;-0.0932;0.0490;
988936502613709;-0.0515;-0.0218;0.0107;
988936512718084;-0.0622;0.0378;0.0021;
988936522822407;-0.0728;0.0037;0.0341;
988936532923292;-0.0920;-0.0453;0.0192;
988936543027615;-0.0547;-0.0037;0.0000;
988936553131990;-0.0356;0.0304;-0.0085;
988936563237876;-0.0366;0.0123;0.0192;
988936573342251;-0.0526;0.0666;0.0298;
988936583446574;-0.0249;0.0953;0.0096;
988936593547251;-0.0792;0.0197;0.0021;
988936603651626;-0.0771;0.0453;0.0107;
988936613755949;-0.0547;0.0953;-0.0011;
988936623868292;-0.0750;0.0410;-0.0138;
988936633972667;-0.1208;0.0069;-0.0043;
988936644076990;-0.0846;0.0304;0.0011;
988936654170063;-0.0569;0.0240;0.0202;
988936664274438;-0.0398;-0.0144;-0.0011;
988936674378761;-0.0217;0.0154;-0.0352;
988936684494022;-0.0111;0.0314;-0.0309;
988936694598397;-0.0047;0.0250;-0.0202;
988936704702772;-0.0345;0.0176;-0.0277;
988936714807147;-0.0356;-0.0037;-0.0107;
988936724911522;-0.0579;-0.0336;-0.0181;
988936735015844;-0.0569;0.0165;-0.0277;
988936745136001;-0.0451;0.0463;-0.0415;
988936755240376;-0.0696;0.0240;-0.0618;
988936765344751;-0.1016;0.0325;-0.0639;
988936775436105;-0.1091;0.0208;-0.0873;
988936785540480;-0.0622;0.0069;-0.0905;
988936795644803;-0.0419;0.0442;-0.1065;
988936805753397;-0.0409;0.0527;-0.1310;
988936815857772;-0.0366;0.0144;-0.1129;
988936825962094;-0.0292;-0.0123;-0.0916;
988936836065897;-0.0238;-0.0293;-0.1097;
988936846170272;-0.0132;-0.0282;-0.1225;
988936856274594;-0.0057;-0.0463;-0.1225;
988936866379855;-0.0047;-0.0687;-0.1363;
988936876484230;-0.0025;-0.1230;-0.1278;
988936886588553;-0.0121;-0.1198;-0.1257;
988936896693084;-0.0324;-0.0847;-0.1513;
988936906797459;0.0071;-0.1049;-0.1300;
988936916901782;0.0294;-0.0517;-0.1363;
988936927005167;0.0262;0.0581;-0.1522;
988936937109542;0.0134;-0.0027;-0.1044;
988936947213865;-0.0047;-0.1379;-0.0778;
988936957316626;0.0550;-0.0485;-0.0831;
988936967421001;0.1040;0.1305;-0.0959;
988936977525376;0.0774;0.1593;-0.0820;
988936987619022;0.0326;0.1145;-0.0575;
988936997723397;0.0198;0.1156;-0.0927;
988937007827772;0.0198;0.1326;-0.0969;
988937017917772;-0.0334;0.1454;-0.1214;
988937028022147;-0.0036;0.1049;-0.1214;
988937038126469;0.0113;0.0357;-0.1118;
988937048250792;0.0134;-0.0197;-0.1225;
988937058355167;0.0177;-0.1337;-0.0916;
988937068459490;0.0241;-0.1795;-0.0628;
988937078569230;0.0593;0.0069;-0.0628;
988937088673605;0.0752;-0.0208;-0.0522;
988937098777928;0.0774;-0.2720;-0.0383;
988937108885167;0.0465;-0.2901;-0.0245;
988937118989542;0.0593;-0.1113;-0.0138;
988937129093865;0.1189;-0.0165;-0.0298;
988937139192980;0.0731;-0.0421;-0.0320;
988937149297355;0.0220;-0.0261;-0.0160;
988937159401678;0.0134;0.0740;-0.0213;
988937169504178;0.0262;0.1177;-0.0234;
988937179608553;0.0017;0.1092;-0.0192;
988937189712876;-0.0068;0.1049;-0.0352;
988937199849855;-0.0068;0.0517;-0.0245;
988937209954178;-0.0121;0.0538;-0.0330;
988937220058553;-0.0089;0.0154;-0.0447;
988937230138188;0.0358;-0.0123;-0.0543;
988937240242563;0.0358;-0.0176;-0.0330;
988937250346886;0.0401;0.0144;-0.0458;
988937260451626;0.0795;0.0261;-0.0618;
988937270556001;0.0635;0.0048;-0.0586;
988937280660376;0.0593;-0.0218;-0.0447;
988937290755480;0.0614;-0.0112;-0.0224;
988937300859855;0.0614;0.0048;-0.0224;
988937310964178;0.0614;0.0059;-0.0170;
988937321063136;0.0497;-0.0080;0.0043;
988937331167511;0.0316;0.0346;-0.0064;
988937341271886;0.0529;0.0314;0.0053;
988937351371157;0.0284;-0.0016;-0.0330;
988937361475532;0.0433;0.0399;-0.0469;
988937371579855;0.0433;0.0783;-0.0394;
988937381703709;0.0411;0.0453;-0.0458;
988937391808084;0.0348;-0.0197;-0.0575;
988937401912459;0.0390;-0.0506;-0.0565;
988937412007355;0.0358;-0.0644;-0.0543;
988937422111730;0.0614;-0.0634;-0.0522;
988937432216053;0.0699;-0.0826;-0.0522;
988937442329178;0.0688;-0.0847;-0.0320;
988937452433553;0.0635;0.0037;-0.0330;
988937462537876;0.0774;0.0431;-0.0277;
988937472642511;0.0976;0.0304;-0.0479;
988937482746886;0.0891;0.0431;-0.0575;
988937492851209;0.0688;0.0751;-0.0501;
988937502940688;0.0869;0.0762;-0.0671;
988937513045011;0.0965;0.1337;-0.0820;
988937523149386;0.0646;0.1124;-0.0628;
988937533247355;0.0582;0.0186;-0.0437;
988937543351730;0.0667;-0.0016;-0.0511;
988937553456105;0.0603;0.0133;-0.0703;
988937563580792;0.0593;-0.0240;-0.0735;
988937573685167;0.0614;-0.0506;-0.0511;
988937583789490;0.0891;-0.0879;-0.0234;
988937593917147;0.0880;-0.1156;-0.0096;
988937604021522;0.0784;-0.1220;-0.0362;
988937614125844;0.0806;-0.0900;-0.0352;
988937624196313;0.0827;-0.0399;-0.0202;
988937634300688;0.1125;-0.0069;-0.0213;
988937644405011;0.0784;0.0016;-0.0234;
988937654498761;0.0667;-0.0431;-0.0330;
988937664603136;0.0774;0.0005;-0.0309;
988937674707459;0.0603;0.0208;-0.0160;
988937684827407;0.0486;-0.0069;-0.0043;
988937694931782;0.0710;-0.0250;0.0075;
988937705036105;0.0614;-0.0357;0.0117;
988937715157147;0.0667;-0.0368;-0.0021;
988937725261522;0.0667;-0.0581;0.0170;
988937735365897;0.0454;-0.0687;0.0224;
988937745478397;0.0774;-0.0538;0.0107;
988937755582772;0.0816;-0.1220;0.0213;
988937765687094;0.0742;-0.0080;-0.0075;
988937775771417;0.0699;0.0218;-0.0149;
988937785875792;0.0614;-0.1635;0.0426;
988937795980115;0.0880;-0.1891;0.0522;
988937806076417;0.1157;-0.0037;0.0160;
988937816180792;0.1605;0.0858;0.0330;
988937826285115;0.1668;0.0623;0.0831;
988937836393813;0.1828;0.0794;0.1427;
988937846498188;0.1232;0.1028;0.1459;
988937856602511;0.1083;0.1177;0.1332;
988937866707042;0.0678;0.0996;0.1140;
988937876811417;0.0646;0.0932;0.1150;
988937886915740;0.0667;0.1411;0.0820;
988937897028709;0.0454;0.1177;0.0671;
988937907133084;0.0411;-0.0826;0.1055;
988937917237407;-0.0153;0.1113;0.0746;
988937927337667;0.0166;0.2818;0.0415;
988937937442042;0.0806;-0.0378;0.0788;
988937947546365;-0.0089;-0.1507;0.1140;
988937957646730;0.0177;-0.0644;0.1140;
988937967751105;0.0784;-0.0495;0.1268;
988937977855480;0.0571;-0.1518;0.1406;
988937987944126;0.0369;-0.1646;0.1363;
988937998048501;0.0348;-0.0048;0.1278;
988938008152876;0.0497;0.0655;0.1182;
988938018288292;0.0518;0.0165;0.1055;
988938028392615;0.0379;0.0261;0.0735;
988938038496990;0.0486;0.0613;0.0469;
988938048587251;0.0454;0.0091;0.0650;
988938058691626;0.0209;-0.0080;0.0554;
988938068795949;0.0326;0.0165;0.0756;
988938078907667;0.0273;-0.0059;0.0831;
988938089012042;0.0390;-0.0165;0.0863;
988938099116365;0.0273;-0.0357;0.0916;
988938109217511;0.0188;-0.0357;0.0586;
988938119321834;0.0486;0.0176;0.0352;
988938129426209;0.0443;0.0027;0.0405;
988938139521417;0.0454;-0.0080;0.0192;
988938149625792;0.0454;-0.0069;0.0128;
988938159730167;0.0262;-0.0336;-0.0021;
988938169843188;0.0305;-0.0570;-0.0011;
988938179947563;0.0156;-0.0634;-0.0117;
988938190051886;0.0443;-0.0357;0.0053;
988938200153292;0.0337;-0.0037;0.0437;
988938210257667;0.0614;0.0495;0.0660;
988938220361990;0.0699;0.0559;0.0820;
988938230474959;0.0571;0.0879;0.0533;
988938240579334;0.0401;0.1337;0.0405;
988938250683709;0.0348;0.1124;0.0565;
988938260774438;0.0177;0.0591;0.0501;
988938270878813;-0.0260;0.0549;0.0245;
988938280983188;-0.0611;0.0495;-0.0064;
988938291086626;-0.0973;0.0474;-0.0202;
988938301191001;-0.1027;0.0506;-0.0224;
988938311295324;-0.0920;0.0272;-0.0138;
988938321381782;-0.0792;-0.0005;-0.0256;
988938331486157;-0.0419;-0.0123;-0.0170;
988938341590532;-0.0153;-0.0634;0.0181;
988938351716313;-0.0238;-0.0772;0.0213;
988938361820688;-0.0047;-0.0581;0.0181;
988938371925011;0.0007;-0.0325;0.0415;
988938382015636;-0.0366;0.0112;0.0469;
988938392120011;-0.0270;0.0421;0.0096;
988938402224386;-0.0228;0.0623;0.0011;
988938412332251;-0.0654;0.0421;-0.0085;
988938422436626;-0.0601;0.0261;-0.0021;
988938432541001;-0.0867;0.0037;-0.0160;
988938442650167;-0.0760;-0.0197;-0.0032;
988938452754542;-0.0728;-0.0368;0.0170;
988938462858865;-0.0515;-0.0762;0.0096;
988938472971417;-0.0377;-0.1262;0.0107;
988938483075740;-0.0228;-0.0666;0.0011;
988938493180115;0.0060;-0.0059;-0.0096;
988938503279022;0.0092;-0.0336;0.0138;
988938513383397;-0.0004;-0.0378;-0.0096;
988938523487772;0.0049;-0.0293;-0.0309;
988938533589386;-0.0057;-0.0144;-0.0543;
988938543693761;0.0262;-0.0154;-0.0224;
988938553798084;0.0081;-0.0399;-0.0160;
988938563894438;0.0262;-0.0357;-0.0213;
988938573998813;0.0326;-0.0730;0.0011;
988938584103136;0.0614;-0.0708;0.0117;
988938594242355;0.0997;0.0985;0.0000;
988938604346730;0.0880;-0.0080;0.0107;
988938614451053;0.0720;-0.1806;0.0288;
988938624520480;0.1221;-0.0911;0.0309;
988938634624855;0.1455;0.0804;0.0021;
988938644729178;0.1530;0.1103;0.0011;
988938654838709;0.1381;0.0740;0.0096;
988938664943084;0.1306;0.0751;0.0437;
988938675047407;0.0869;0.1220;0.0501;
988938685169022;0.0848;0.1710;0.0405;
988938695273397;0.0624;0.1720;0.0511;
988938705377719;0.0411;0.1614;0.0394;
988938715463501;0.0667;0.1284;0.0522;
988938725567876;0.0369;-0.0698;0.0692;
988938735672199;-0.0164;0.0218;0.0522;
988938745787928;-0.0632;0.3137;0.0426;
988938755892303;-0.0366;0.0527;0.0490;
988938765996626;0.0166;-0.1869;0.0352;
988938776099542;-0.0079;-0.0762;0.0085;
988938786203917;-0.0398;-0.0069;0.0234;
988938796308240;-0.0505;-0.0868;0.0511;
988938806400063;-0.0142;-0.1965;0.0565;
988938816504438;-0.0121;-0.1252;0.0714;
988938826608761;-0.0100;-0.0847;0.0799;
988938836729751;0.0049;-0.1348;0.0916;
988938846834126;-0.0238;-0.0730;0.0597;
988938856938449;0.0188;0.0197;0.0490;
988938867036313;-0.0089;0.0005;0.0554;
988938877140688;-0.0047;-0.0005;0.0479;
988938887245011;-0.0238;0.0644;0.0362;
988938897339178;-0.0089;0.1060;0.0043;
988938907443553;-0.0036;0.0708;-0.0075;
988938917547876;-0.0260;-0.0027;0.0213;
988938927672355;-0.0483;-0.0091;0.0117;
988938937776730;-0.0366;0.0368;0.0064;
988938947881105;-0.0366;0.0005;0.0234;
988938957983709;-0.0185;-0.0943;0.0362;
988938968088084;-0.0047;-0.0666;0.0170;
988938978192459;0.0177;0.0016;0.0011;
988938988291834;0.0198;-0.0165;0.0341;
988938998396209;0.0103;0.0154;0.0309;
988939008500584;0.0411;0.0581;0.0181;
988939018633917;0.0230;0.0133;0.0298;
988939028738240;0.0145;0.0165;0.0288;
988939038842615;0.0230;0.0613;0.0309;
988939048920272;0.0060;0.0442;0.0352;
988939059024647;-0.0068;0.0559;0.0501;
988939069128969;-0.0047;0.0463;0.0682;
988939079239230;0.0071;-0.0165;0.0650;
988939089343605;-0.0100;0.0016;0.0501;
988939099447980;-0.0142;0.0165;0.0266;
988939109545688;-0.0025;-0.0016;0.0501;
988939119650063;-0.0036;-0.0410;0.0490;
988939129754386;0.0166;-0.0591;0.0373;
988939139857042;-0.0015;-0.0453;0.0256;
988939149961417;-0.0025;-0.0431;0.0085;
988939160065792;0.0390;0.0186;0.0224;
988939170167251;-0.0057;-0.1060;0.0554;
988939180271626;-0.0185;-0.1880;0.0714;
988939190375949;-0.0238;-0.0900;0.0639;
988939200461001;0.0188;0.0431;0.0565;
988939210565376;0.0518;0.0847;0.0650;
988939220669699;0.0028;0.0719;0.0437;
988939230784647;-0.0068;0.0463;0.0650;
988939240889022;-0.0238;0.0527;0.0650;
988939250993397;-0.0270;0.0879;0.0330;
988939261111261;-0.0377;0.0943;0.0181;
988939271215636;-0.0419;0.0826;0.0128;
988939281319959;-0.0462;0.0549;0.0309;
988939291423292;-0.0877;-0.0804;0.0383;
988939301527667;-0.1122;0.0005;0.0138;
988939311631990;-0.1453;0.1880;0.0075;
988939321723501;-0.0547;-0.0293;0.0714;
988939331827876;-0.0292;-0.1710;0.0735;
988939341932251;-0.0814;-0.1262;0.0149;
988939352032772;-0.1144;-0.0399;0.0138;
988939362137147;-0.1304;-0.0144;0.0586;
988939372241522;-0.0984;-0.0325;0.0490;
988939382356001;-0.0877;0.0176;0.0043;
988939392460376;-0.0909;0.0517;-0.0107;
988939402564751;-0.1154;0.0463;-0.0085;
988939412692147;-0.1218;0.0613;0.0032;
988939422796522;-0.1336;0.0623;-0.0021;
988939432900897;-0.1304;-0.0112;-0.0021;
988939442968709;-0.1101;-0.0165;-0.0043;
988939453073084;-0.1048;-0.0165;-0.0011;
988939463177459;-0.0952;-0.0154;-0.0330;
988939473300897;-0.0622;-0.0261;-0.0575;
988939483405272;-0.0622;-0.0293;-0.0362;
988939493509699;-0.0537;-0.0261;-0.0458;
988939503642251;-0.0111;0.0016;-0.0724;
988939513746626;-0.0196;-0.0027;-0.0714;
988939523851001;-0.0057;-0.0644;-0.0618;
988939533915480;0.0071;-0.0559;-0.0362;
988939544019855;-0.0345;0.0016;-0.0298;
988939554124230;-0.0164;-0.0112;-0.0053;
988939564260897;-0.0281;-0.0197;-0.0224;
988939574365272;-0.0302;-0.0229;-0.0075;
988939584469647;-0.0366;-0.0229;-0.0383;
988939594549855;-0.0089;0.0261;-0.0554;
988939604654230;-0.0473;0.0655;-0.0256;
988939614758605;-0.0547;0.0538;-0.0383;
988939624856730;-0.0324;0.0336;-0.0618;
988939634961105;-0.0569;0.0368;-0.0543;
988939645065480;-0.0643;0.0442;-0.0469;
988939655175167;-0.0558;0.0133;-0.0373;
988939665279542;-0.0792;0.0037;-0.0224;
988939675383917;-0.0856;-0.0154;-0.0245;
988939685514959;-0.0686;-0.0282;-0.0266;
988939695619334;-0.0462;-0.0250;-0.0181;
988939705723709;-0.0686;-0.0154;-0.0394;
988939715814751;-0.0281;0.0154;-0.0522;
988939725919126;-0.0409;0.0261;-0.0277;
988939736023501;-0.0430;0.0133;-0.0234;
988939746119751;-0.0356;0.0218;-0.0543;
988939756224126;-0.0409;0.0336;-0.0597;
988939766328501;-0.0505;0.0123;-0.0352;
988939776428917;-0.0569;0.0037;-0.0330;
988939786533292;-0.0750;0.0186;-0.0234;
988939796637667;-0.0579;0.0133;-0.0266;
988939806753969;-0.0590;-0.0261;-0.0043;
988939816858344;-0.0611;-0.0272;-0.0117;
988939826962719;-0.0419;-0.0197;-0.0362;
988939837066105;-0.0419;0.0176;-0.0565;
988939847170480;-0.0409;0.0250;-0.0373;
988939857274855;-0.0398;-0.0123;-0.0277;
988939867364959;-0.0206;0.0261;-0.0554;
988939877469334;-0.0281;0.0485;-0.0778;
988939887573709;-0.0377;-0.0016;-0.0660;
988939897678084;-0.0430;-0.0517;-0.0362;
988939907782459;-0.0377;-0.0538;-0.0415;
988939917886834;-0.0142;-0.0549;-0.0447;
988939927996730;-0.0356;-0.0815;-0.0234;
988939938101105;-0.0206;-0.0719;-0.0096;
988939948205480;-0.0068;-0.0602;-0.0330;
988939958310688;-0.0153;0.0250;-0.0884;
988939968415063;-0.0025;-0.0005;-0.0735;
988939978519438;-0.0334;-0.0602;-0.0426;
988939988605949;-0.0111;0.0229;-0.0905;
988939998710324;0.0316;0.1358;-0.0927;
988940008814699;-0.0047;0.1348;-0.0628;
988940018929334;-0.0228;0.0964;-0.0383;
988940029033709;-0.0270;0.1411;-0.0522;
988940039138084;-0.0409;0.1795;-0.0724;
988940049242147;-0.0473;0.0581;-0.0746;
988940059346522;-0.0345;-0.0240;-0.0607;
988940069450897;-0.0089;0.1092;-0.0650;
988940079550792;0.0103;0.2455;-0.0959;
988940089655167;-0.0111;0.0325;-0.0756;
988940099759594;-0.0483;-0.2337;-0.0533;
988940109874126;-0.0238;-0.0591;-0.1118;
988940119978501;0.0241;0.0101;-0.1225;
988940130082876;0.0273;-0.0826;-0.0820;
988940140200792;0.0209;-0.1784;-0.0799;
988940150305167;0.0103;-0.2145;-0.0511;
988940160409542;-0.0356;-0.1667;-0.0426;
988940170499438;0.0188;-0.0623;-0.0533;
988940180603813;0.0603;0.0346;-0.0490;
988940190708188;0.0156;0.0293;-0.0916;
988940200815688;0.0497;-0.1774;-0.0778;
988940210920063;0.0561;-0.1720;-0.0330;
988940221024438;0.0071;0.1603;-0.0650;
988940231123188;0.0454;0.3734;-0.1044;
988940241227563;0.0582;0.1784;-0.0927;
988940251331938;0.0049;-0.0751;-0.0873;
988940261449022;0.0028;-0.0538;-0.1161;
988940271553397;0.0369;0.1806;-0.1140;
988940281657772;0.0017;0.1273;-0.0842;
988940291763084;0.0134;-0.1273;-0.0884;
988940301867459;0.0742;-0.1795;-0.0341;
988940311971834;0.0667;-0.0740;-0.0330;
988940322064907;0.0401;0.0921;-0.0895;
988940332169282;0.0827;0.2178;-0.0927;
988940342273657;0.0933;-0.0059;-0.0554;
988940352379126;0.0550;-0.1923;-0.0298;
988940362483501;0.0401;-0.0442;-0.0735;
988940372587876;0.0624;0.0304;-0.0895;
988940382677459;0.0145;-0.0719;-0.0724;
988940392781834;0.0390;-0.0410;-0.0522;
988940402886209;0.0326;-0.0495;-0.0043;
988940412989751;0.0049;-0.0613;-0.0085;
988940423094126;0.0475;0.0272;-0.0543;
988940433198501;0.0710;0.0538;-0.0309;
988940443315584;0.0294;-0.0346;-0.0160;
988940453419959;0.0486;-0.0463;-0.0128;
988940463524386;0.0486;-0.0463;-0.0075;
988940473637251;0.0028;0.0240;-0.0639;
988940483741626;0.0379;0.1486;-0.0671;
988940493846001;0.0166;0.1230;-0.0884;
988940503941522;0.0358;0.0080;-0.0810;
988940514045897;0.0113;-0.0389;-0.0916;
988940524150272;0.0145;-0.0059;-0.0991;
988940534255584;0.0571;0.0261;-0.0863;
988940544359959;0.0848;0.0581;-0.0618;
988940554464334;0.1008;-0.0495;-0.0415;
988940564587876;0.0720;-0.0506;-0.0490;
988940574692251;0.0816;-0.0144;-0.0202;
988940584796626;0.0806;0.0016;-0.0192;
988940594890792;0.1019;0.0538;-0.0607;
988940604995167;0.0688;-0.1145;-0.0575;
988940615099542;0.0188;-0.1752;-0.1140;
988940625199022;0.0518;0.0144;-0.1268;
988940635303397;0.0465;0.0964;-0.0948;
988940645407772;0.0869;0.0410;-0.0884;
988940655504542;0.1360;-0.0804;-0.0415;
988940665608917;0.0912;-0.0549;-0.0405;
988940675713292;0.1093;0.0421;-0.0820;
988940685838397;0.1338;-0.0634;-0.0735;
988940695942772;0.0869;-0.0858;-0.0554;
988940706047147;0.0923;-0.0154;-0.0543;
988940716130376;0.1168;-0.0059;-0.0831;
988940726234751;0.1029;-0.0314;-0.0959;
988940736339126;0.0688;0.0463;-0.1182;
988940746455688;0.0901;0.1859;-0.1161;
988940756560063;0.0848;0.1145;-0.1044;
988940766664438;0.0891;-0.0549;-0.1097;
988940776762667;0.0848;0.0186;-0.1502;
988940786867042;0.0933;0.0730;-0.1459;
988940796971417;0.0869;-0.0314;-0.1001;
988940807069542;0.1051;-0.0368;-0.0756;
988940817173917;0.1093;0.1060;-0.0948;
988940827278292;0.1253;0.1411;-0.1161;
988940837385063;0.1498;0.0506;-0.1118;
988940847489438;0.1349;0.0165;-0.0948;
988940857593813;0.0912;0.0815;-0.1172;
988940867720480;0.1157;0.0591;-0.1076;
988940877824855;0.0571;-0.0613;-0.1310;
988940887929230;0.0795;-0.1646;-0.1332;
988940898014751;0.0838;-0.0858;-0.1140;
988940908119126;0.0923;0.0112;-0.1182;
988940918223501;0.1221;0.0005;-0.1342;
988940928332667;0.1178;-0.1039;-0.1470;
988940938437042;0.1232;-0.1103;-0.1459;
988940948541417;0.1370;-0.1901;-0.1204;
988940958649855;0.1477;-0.2188;-0.1321;
988940968754230;0.1892;-0.1411;-0.1257;
988940978858605;0.2084;-0.1145;-0.1055;
988940988941313;0.2180;-0.1443;-0.0756;
988940999045688;0.2787;-0.0783;-0.0288;
988941009150063;0.2489;0.0921;-0.0373;
988941019283397;0.2776;0.2402;-0.0639;
988941029387772;0.3607;0.0836;-0.0533;
988941039492147;0.3043;0.0069;-0.0383;
988941049578709;0.3096;0.2519;-0.0788;
988941059683084;0.3873;0.2977;-0.0479;
988941069787459;0.3234;0.1337;0.0075;
988941079897563;0.2755;0.0804;0.0245;
988941090001938;0.3011;0.0836;0.0107;
988941100106313;0.3330;0.0368;0.0181;
988941110203605;0.3117;0.0208;0.0671;
988941120307980;0.2851;0.0005;0.0756;
988941130412355;0.3565;-0.0293;0.1321;
988941140513865;0.3426;-0.1092;0.2237;
988941150618240;0.2563;-0.0740;0.2642;
988941160722615;0.2638;0.0676;0.2397;
988941170837459;0.2798;0.1806;0.1885;
988941180941834;0.3075;0.0069;0.2237;
988941191046209;0.2265;-0.0740;0.2429;
988941201157876;0.2009;0.1017;0.2088;
988941211262251;0.2233;0.1720;0.2344;
988941221366626;0.1988;0.1177;0.2642;
988941231459594;0.1977;0.0730;0.2887;
988941241563969;0.1573;-0.0101;0.2972;
988941251668344;0.0901;-0.0282;0.2780;
988941261774647;0.0774;-0.0378;0.2684;
988941271879022;0.0880;-0.0687;0.2865;
988941281983397;0.0699;-0.0091;0.2876;
988941292088813;0.0688;0.0293;0.2450;
988941302193188;0.1370;0.0261;0.2407;
988941312297563;0.1274;0.0570;0.2620;
988941322382824;0.0987;0.1443;0.2322;
988941332487199;0.1519;0.0794;0.2269;
988941342591574;0.1210;0.0581;0.2099;
988941352712355;0.1104;0.0165;0.2535;
988941362816730;0.0656;-0.0037;0.2844;
988941372921105;0.0401;0.0506;0.2834;
988941383027042;0.0454;-0.0091;0.2748;
988941393131417;0.0486;-0.0463;0.2578;
988941403235792;0.0188;-0.0282;0.2706;
988941413326001;-0.0238;-0.0602;0.2546;
988941423430376;0.0134;-0.0538;0.2578;
988941433534803;0.0220;-0.0123;0.2589;
988941443644126;0.0145;-0.0250;0.2354;
988941453748501;0.0262;-0.0208;0.2226;
988941463852876;0.0358;0.0059;0.2429;
988941473950376;0.0071;0.0591;0.2706;
988941484054751;0.0028;0.0868;0.2695;
988941494159126;0.0113;0.0911;0.2535;
988941504286522;0.0156;0.0581;0.2802;
988941514390897;-0.0590;0.1156;0.2727;
988941524495272;-0.0867;0.1518;0.2194;
988941534571417;-0.1133;0.1134;0.1907;
988941544675792;-0.1325;0.0698;0.2130;
988941554780167;-0.2080;0.0676;0.1939;
988941564920167;-0.2453;0.0549;0.1289;
988941575024542;-0.2282;0.0293;0.1076;
988941585128917;-0.2325;0.0218;0.1417;
988941595228605;-0.2336;-0.0197;0.1523;
988941605332980;-0.2080;-0.0730;0.1363;
988941615437355;-0.1931;-0.0826;0.1374;
988941625519751;-0.1984;-0.0559;0.1310;
988941635624126;-0.1495;-0.0581;0.1332;
988941645728501;-0.1091;-0.0740;0.1161;
988941655842042;-0.1027;-0.0357;0.0852;
988941665946417;-0.0984;-0.0591;0.0873;
988941676050792;-0.0579;0.0218;0.0831;
988941686155272;0.0156;0.2051;0.0330;
988941696259647;0.0145;0.0634;0.0586;
988941706364022;-0.0675;-0.1379;0.0810;
988941716468344;-0.0601;-0.0964;0.0650;
988941726572719;-0.0494;-0.0016;0.0671;
988941736677094;-0.0111;0.0293;0.0682;
988941746784022;0.0113;-0.0240;0.0831;
988941756888397;-0.0142;-0.0538;0.0852;
988941766992772;-0.0068;-0.0442;0.0991;
988941777091001;-0.0142;-0.0357;0.0724;
988941787195376;0.0103;-0.0048;0.0746;
988941797299751;0.0443;0.0644;0.0586;
988941807395272;0.1136;0.0154;0.0565;
988941817499647;0.0976;-0.1816;0.1300;
988941827604022;-0.0196;0.0676;0.1065;
988941837711417;-0.0409;0.2999;0.1076;
988941847815792;-0.0004;0.0186;0.1502;
988941857920167;0.0273;-0.0911;0.1417;
988941868021626;0.0113;0.0037;0.1417;
988941878126001;-0.0952;0.0826;0.1577;
988941888230428;-0.1133;0.0282;0.1523;
988941898342928;-0.0941;-0.0069;0.1097;
988941908447303;-0.1080;0.0474;0.1161;
988941918551678;-0.1485;0.0421;0.1427;
988941928658292;-0.1325;-0.0101;0.1118;
988941938762667;-0.1154;0.0123;0.1023;
988941948867042;-0.1495;0.0389;0.1289;
988941958970584;-0.1506;-0.0186;0.1470;
988941969074959;-0.1517;-0.0218;0.1353;
988941979179334;-0.1963;-0.0048;0.1129;
988941989302147;-0.1771;-0.0059;0.1097;
988941999406522;-0.1984;0.0346;0.1246;
988942009510897;-0.2144;0.0293;0.0916;
988942019624959;-0.1643;0.0144;0.0714;
988942029729334;-0.2176;-0.0304;0.0650;
988942039833709;-0.2495;0.0261;0.0245;
988942049904959;-0.1643;0.0197;-0.0085;
988942060009334;-0.1558;0.0442;-0.0107;
988942070113709;-0.1899;0.0399;-0.0021;
988942080212147;-0.1622;-0.0325;0.0288;
988942090316522;-0.1675;-0.0357;-0.0043;
988942100420897;-0.1495;-0.0144;-0.0149;
988942110534542;-0.1336;-0.0314;-0.0053;
988942120638917;-0.0899;0.0080;-0.0053;
988942130743292;-0.1165;-0.0655;-0.0085;
988942140848084;-0.1122;-0.0804;-0.0543;
988942150952459;-0.0782;-0.0186;-0.0479;
988942161056834;-0.0984;-0.0389;-0.0458;
988942171160792;-0.0515;-0.0453;-0.0660;
988942181265167;-0.0324;0.0218;-0.0778;
988942191369542;-0.0004;0.1230;-0.0501;
988942201500272;-0.0238;0.1049;-0.0096;
988942211604647;-0.0569;0.0421;0.0064;
988942221709022;-0.0462;0.0687;0.0085;
988942231793917;-0.0728;0.1060;-0.0053;
988942241898292;-0.0920;0.0836;-0.0192;
988942252002667;-0.1176;0.0197;-0.0490;
988942262099230;-0.1261;0.0069;-0.0756;
988942272203605;-0.1059;0.0495;-0.0788;
988942282307980;-0.0984;-0.0059;-0.0884;
988942292403501;-0.0867;0.0059;-0.0991;
988942302507876;-0.0643;-0.0133;-0.0746;
988942312612251;-0.0601;-0.1294;-0.0639;
988942322734282;-0.0441;-0.1774;-0.0565;
988942332838657;-0.0856;-0.1944;-0.0288;
988942342943032;-0.0356;-0.1220;-0.0277;
988942353029334;-0.0206;-0.0740;-0.0032;
988942363133709;-0.0526;-0.0208;-0.0170;
988942373238084;-0.0409;-0.0069;-0.0213;
988942383340063;-0.0750;0.0218;-0.0586;
988942393444438;-0.0249;0.1379;-0.0820;
988942403548865;-0.0473;0.1156;-0.0895;
988942413713084;-0.0622;0.0613;-0.0778;
988942423817459;-0.0696;0.0602;-0.0831;
988942433921834;-0.1016;0.0229;-0.0756;
988942443972042;-0.1027;-0.0623;-0.0618;
988942454076417;-0.0718;-0.0485;-0.0650;
988942464180792;-0.0728;-0.0037;-0.0543;
988942474324751;-0.0622;-0.0762;-0.0671;
988942484429126;-0.0387;-0.1081;-0.0543;
988942494533501;-0.0292;-0.0378;-0.0437;
988942504593084;0.0039;0.0634;-0.0607;
988942514697459;0.0081;0.0570;-0.0415;
988942524801834;-0.0153;-0.0613;-0.0501;
988942534932667;-0.0409;0.0346;-0.0895;
988942545037042;0.0475;0.2679;-0.0660;
988942555141417;-0.0174;0.1646;-0.0213;
988942565238397;-0.0696;-0.1060;0.0011;
988942575342772;-0.0995;-0.1454;-0.0565;
988942585447147;-0.1133;-0.0208;-0.0927;
988942595535792;-0.1027;0.0027;-0.0607;
988942605640167;-0.0302;-0.0314;-0.0330;
988942615744542;-0.0334;-0.0453;-0.0160;
988942625864126;-0.0611;-0.0751;-0.0320;
988942635968501;-0.0419;-0.0474;-0.0362;
988942646072876;-0.0292;0.0538;-0.0277;
988942656172772;-0.0462;0.0549;-0.0479;
988942666277147;-0.0462;-0.0123;-0.0756;
988942676381522;-0.0132;-0.0868;-0.0170;
988942686491522;-0.0750;0.0644;-0.0170;
988942696595897;-0.0867;0.1955;-0.0394;
988942706700272;-0.0579;0.1017;-0.0394;
988942716797511;-0.0345;0.0304;-0.0373;
988942726901886;-0.0462;-0.0005;-0.0575;
988942737006261;-0.0494;-0.1007;-0.0415;
988942747121834;-0.1304;-0.1731;-0.0682;
988942757226209;-0.0238;-0.0229;-0.0905;
988942767330584;-0.0196;0.0708;-0.0767;
988942777428188;-0.0451;-0.1124;-0.0383;
988942787532563;-0.0920;-0.1156;-0.0671;
988942797636938;-0.0068;0.0975;-0.0607;
988942807731678;0.0369;0.0485;-0.0149;
988942817836053;-0.0196;-0.0314;-0.0469;
988942827940428;-0.0483;-0.0740;-0.0543;
988942838053605;-0.0675;-0.1827;-0.0149;
988942848157980;-0.1133;-0.0676;-0.0501;
988942858262355;-0.0036;0.0687;-0.0937;
988942868370897;0.0134;0.1305;-0.0788;
988942878475272;-0.0036;0.0911;-0.0618;
988942888579647;0.0284;-0.1379;-0.0479;
988942898676209;-0.0228;-0.0634;-0.0767;
988942908780584;-0.0100;0.1379;-0.0586;
988942918884959;0.0071;0.1103;-0.0554;
988942928987772;0.0305;-0.1326;-0.0202;
988942939092147;-0.0174;-0.2827;0.0064;
988942949196522;-0.0718;-0.0932;-0.0213;
988942959346522;-0.0686;0.1443;-0.0586;
988942969450897;0.0177;0.1901;-0.0607;
988942979555272;0.0166;0.0517;-0.0586;
988942989632042;0.0252;-0.1518;-0.0298;
988942999736417;-0.0217;-0.0218;-0.0618;
988943009840792;0.0103;0.1518;-0.0405;
988943019921522;0.0390;0.1369;-0.0277;
988943030025897;0.0198;-0.0176;-0.0096;
988943040130272;-0.0356;-0.1433;0.0181;
988943050232667;-0.0814;-0.1220;0.0021;
988943060337042;-0.0590;-0.0016;-0.0288;
988943070441417;-0.0579;0.1103;-0.0213;
988943080572407;-0.0409;0.0943;-0.0032;
988943090676782;-0.0483;0.0144;-0.0277;
988943100781157;-0.0302;0.0016;-0.0607;
988943110858917;-0.0142;0.1177;-0.0458;
988943120963292;-0.0228;0.1071;0.0043;
988943131067667;-0.0728;0.0346;-0.0234;
988943141188605;-0.0398;-0.1188;-0.0192;
988943151292980;-0.0728;-0.1230;-0.0320;
988943161397355;-0.1101;-0.0783;-0.0309;
988943171501105;-0.1814;-0.1422;-0.0554;
988943181605480;-0.0931;-0.1561;-0.0522;
988943191709855;-0.0196;-0.1081;-0.0341;
988943201797459;-0.0643;-0.0602;-0.0522;
988943211901834;-0.0004;-0.1028;-0.0490;
988943222006209;-0.0537;-0.2071;-0.0373;
988943232122042;-0.0164;-0.0059;-0.0298;
988943242226417;0.0316;0.1838;-0.0192;
988943252330792;-0.0153;0.1156;-0.0213;
988943262425428;-0.0409;0.0591;-0.0501;
988943272529803;-0.0718;0.1007;-0.0479;
988943282634178;-0.0792;0.1646;-0.0767;
988943292747094;-0.0654;0.2274;-0.0991;
988943302851469;-0.0611;0.2509;-0.0948;
988943312955844;-0.0356;0.0826;-0.0724;
988943323061834;-0.0366;0.0964;-0.0597;
988943333166209;-0.0515;0.1635;-0.0692;
988943343270584;-0.0228;0.0218;-0.0959;
988943353365897;-0.0132;0.0985;-0.1001;
988943363470272;-0.0196;-0.1294;-0.0778;
988943373574647;-0.0334;-0.2529;-0.0788;
988943383680219;-0.0206;0.1262;-0.1204;
988943393784594;-0.0004;0.0623;-0.0714;
988943403888969;-0.0803;-0.2273;-0.0405;
988943413980740;-0.0217;-0.1944;-0.0735;
988943424085115;0.0209;0.0559;-0.1033;
988943434189490;0.0177;0.0921;-0.0873;
988943444337407;0.0465;-0.0399;-0.0181;
988943454441782;0.0273;-0.0154;-0.0245;
988943464546157;0.0433;0.1752;-0.0842;
988943474615167;0.0209;0.2328;-0.0767;
988943484719542;0.0316;0.1624;-0.0373;
988943494823917;-0.0142;0.1806;-0.0852;
988943504952772;-0.0111;0.1390;-0.1161;
988943515057147;-0.0164;0.0357;-0.0927;
988943525161522;-0.0526;0.0186;-0.1023;
988943535274647;-0.0111;0.0836;-0.1427;
988943545379022;0.0039;-0.0581;-0.1363;
988943555483397;0.0103;-0.1198;-0.1268;
988943565582563;0.0401;-0.0889;-0.1001;
988943575686938;0.0965;-0.1230;-0.0884;
988943585791313;0.1178;-0.1827;-0.0959;
988943595877459;0.1700;-0.1465;-0.0586;
988943605981834;0.1636;-0.0250;-0.0320;
988943616086209;0.1913;0.0676;-0.0213;
988943626188605;0.2031;0.0666;-0.0117;
988943636292980;0.1168;0.0517;-0.0085;
988943646397355;0.0869;0.0421;-0.0213;
988943656504438;0.0752;0.0762;-0.0543;
988943666608813;0.0497;0.0527;-0.0373;
988943676713188;0.0571;0.0676;-0.0383;
988943686829334;0.0699;0.0080;-0.0266;
988943696933709;0.0262;-0.0474;-0.0245;
988943707038084;0.0518;-0.0485;-0.0618;
988943717130376;0.0635;-0.1145;-0.0032;
988943727234751;0.0561;-0.1326;0.0298;
988943737339126;0.0614;-0.0996;0.0053;
988943747436313;0.0486;-0.0836;0.0277;
988943757540688;-0.0228;-0.2252;0.0394;
988943767645063;0.0007;-0.1731;0.0565;
988943777753292;0.0071;-0.1103;0.0511;
988943787857667;0.0156;-0.0985;0.0437;
988943797962042;0.0230;0.0378;0.0362;
988943808064022;0.0454;0.0453;0.0511;
988943818168397;0.0241;0.0559;0.0501;
988943828272772;0.0220;0.1017;0.0597;
988943838378292;0.0443;0.0985;0.0916;
988943848482667;0.0273;0.1188;0.0703;
988943858587042;0.0230;0.1156;0.0628;
988943868707251;-0.0206;0.0410;0.0884;
988943878811626;-0.0377;-0.0900;0.1023;
988943888916001;-0.0814;-0.0176;0.0724;
988943899015897;-0.1240;-0.0080;0.0458;
988943909120272;-0.0846;-0.1262;0.0810;
988943919224647;-0.0451;-0.0570;0.0362;
988943929332876;-0.0057;-0.0101;0.0256;
988943939437251;0.0188;0.0250;0.0458;
988943949541626;0.0571;0.0921;0.0756;
988943959622980;0.0561;0.1092;0.1182;
988943969727355;0.0262;0.1230;0.1353;
988943979831730;0.0071;0.1369;0.1023;
988943989975376;-0.0356;0.0996;0.0905;
988944000079751;-0.0654;0.0751;0.0788;
988944010184126;-0.0686;0.0357;0.0799;
988944020261001;-0.1048;0.0154;0.0639;
988944030365376;-0.1133;0.0559;0.0405;
988944040469751;-0.0611;-0.0037;0.0341;
988944050570428;-0.0025;-0.0186;0.0565;
988944060674803;0.0028;-0.0474;0.0469;
988944070779178;0.0188;-0.1880;0.0682;
988944080903501;-0.0068;-0.1209;0.0799;
988944091007876;-0.0142;-0.0975;0.0895;
988944101112251;-0.0132;-0.1156;0.0937;
988944111194334;-0.0111;-0.1017;0.0831;
988944121298709;-0.0611;-0.0474;0.0735;
988944131403084;-0.0430;0.0730;0.0575;
988944141506417;-0.0803;0.0165;0.0565;
988944151610792;-0.0835;-0.0069;0.0458;
988944161715167;-0.0302;0.0826;0.0043;
988944171820584;-0.0132;0.0655;0.0181;
988944181924959;-0.0313;-0.0091;0.0075;
988944192029334;-0.0132;-0.0740;0.0149;
988944202128032;-0.0654;-0.0996;0.0309;
988944212232407;-0.0835;-0.0804;0.0117;
988944222336782;-0.0483;0.0165;0.0053;
988944232445688;-0.0270;-0.0240;0.0330;
988944242550063;-0.0675;-0.0900;0.0288;
988944252654438;-0.0686;-0.0485;0.0213;
988944262758917;-0.1027;-0.0048;0.0000;
988944272863292;-0.0995;0.1166;-0.0043;
988944282967667;-0.0505;0.0815;0.0064;
988944293099022;-0.0473;-0.0240;0.0085;
988944303203397;-0.1048;0.0261;-0.0394;
988944313307772;-0.1027;0.0815;-0.0554;
988944323389751;-0.0782;0.0708;-0.0181;
988944333494126;-0.0718;0.0591;-0.0181;
988944343598501;-0.0643;0.0655;-0.0426;
988944353686574;-0.0675;-0.0154;-0.0277;
988944363790897;-0.1027;-0.0889;-0.0160;
988944373895272;-0.0963;-0.0517;-0.0245;
988944384001209;-0.0803;-0.0069;-0.0138;
988944394105584;-0.0643;-0.0282;-0.0202;
988944404209959;-0.0451;-0.0431;-0.0128;
988944414321417;-0.0664;-0.0240;-0.0181;
988944424425792;-0.0387;0.0048;-0.0586;
988944434530167;-0.0292;-0.0165;-0.0586;
988944444634542;-0.0238;0.0186;-0.0639;
988944454738917;-0.0015;0.0772;-0.0628;
988944464843240;-0.0260;0.0229;-0.0415;
988944474954022;-0.0398;-0.0080;-0.0085;
988944485058344;-0.0473;0.0005;-0.0107;
988944495162719;-0.0473;0.0282;-0.0298;
988944505305376;-0.0611;0.0101;-0.0309;
988944515409751;-0.0707;-0.0399;-0.0138;
988944525514074;-0.0611;-0.0208;-0.0128;
988944535581522;-0.0526;-0.0037;-0.0170;
988944545685897;-0.0217;0.0133;-0.0575;
988944555790272;-0.0047;0.0549;-0.0511;
988944565892719;-0.0036;0.0389;0.0213;
988944575997094;-0.0281;0.0357;-0.0107;
988944586101417;0.0060;0.0005;-0.0266;
988944596216522;-0.0462;-0.0368;-0.0426;
988944606320897;-0.0206;-0.0495;-0.0202;
988944616425219;-0.0462;-0.1049;-0.0213;
988944626521938;-0.0302;-0.1145;-0.0107;
988944636626313;-0.0398;-0.0676;-0.0085;
988944646730636;-0.0366;-0.0368;-0.0021;
988944656834438;-0.0270;-0.0378;0.0043;
988944666938813;-0.0111;-0.0176;-0.0170;
988944677043188;0.0007;0.0559;-0.0224;
988944687151417;-0.0270;0.0751;-0.0234;
988944697255792;-0.0281;0.0836;-0.0149;
988944707360115;-0.0324;0.0655;-0.0128;
988944717463397;-0.0409;0.0101;-0.0075;
988944727567772;-0.0409;0.0165;-0.0320;
988944737672094;-0.0515;-0.0112;-0.0064;
988944747795844;-0.0409;0.0336;-0.0341;
988944757900167;-0.0036;-0.0037;-0.0053;
988944768004542;-0.0228;-0.0591;0.0032;
988944778104959;-0.0025;-0.0282;-0.0224;
988944788209334;-0.0036;-0.0208;-0.0224;
988944798313657;-0.0185;-0.0570;0.0096;
988944808397667;-0.0025;-0.0325;0.0149;
988944818502042;-0.0292;0.0123;-0.0011;
988944828606365;-0.0643;-0.0197;0.0075;
988944838709751;-0.0664;-0.0687;0.0234;
988944848814126;-0.0686;-0.0261;0.0202;
988944858918449;-0.0483;0.0197;0.0128;
988944869054647;-0.0505;0.0847;0.0075;
988944879159022;-0.0632;0.0953;0.0064;
988944889263397;-0.0206;0.0474;0.0405;
988944899338397;-0.0451;0.0261;0.0075;
988944909442772;-0.0356;0.0368;-0.0117;
988944919547094;-0.0856;-0.0037;-0.0107;
988944929661417;-0.0760;-0.0240;-0.0202;
988944939765792;-0.0707;-0.0644;-0.0096;
988944949870115;-0.0888;-0.1071;-0.0064;
988944959968709;-0.1016;-0.1103;-0.0288;
988944970073032;-0.0803;-0.0655;-0.0330;
988944980177407;-0.0686;-0.0091;-0.0501;
988944990302355;-0.0441;-0.0570;-0.0437;
988945000406730;-0.0569;-0.0975;-0.0160;
988945010511053;-0.0356;-0.0304;-0.0138;
988945020603761;-0.0153;0.0495;-0.0202;
988945030708136;-0.0398;0.0282;-0.0362;
988945040812511;-0.0718;-0.1188;-0.0202;
988945050904542;-0.1122;-0.0772;-0.0447;
988945061008865;-0.0718;0.0996;-0.0842;
988945071113240;-0.0462;0.1859;-0.0724;
988945081240897;-0.0260;0.1774;-0.0554;
988945091345219;-0.0473;0.1539;-0.0490;
988945101449594;-0.0419;0.1571;-0.0586;
988945111534855;-0.0292;0.1688;-0.0405;
988945121639230;-0.0366;0.1411;-0.0469;
988945131743553;-0.0398;0.0783;-0.0660;
988945141847980;-0.0718;0.0069;-0.1087;
988945151952355;-0.0547;-0.0165;-0.1172;
988945162056678;-0.0547;-0.0218;-0.0969;
988945172165272;-0.0526;0.1656;-0.1395;
988945182269647;-0.0015;0.0570;-0.1172;
988945192374022;-0.0164;-0.1944;-0.1023;
988945202479855;0.0092;-0.1433;-0.1182;
988945212584230;0.0348;-0.0996;-0.0884;
988945222688605;0.0071;-0.1507;-0.0714;
988945232773709;0.0358;-0.1720;-0.0256;
988945242878032;0.0262;-0.1561;-0.0405;
988945252982407;0.0422;-0.0900;-0.0842;
988945263078449;0.0220;-0.0431;-0.1118;
988945273182772;0.0060;0.0037;-0.1097;
988945283287147;0.0220;0.0559;-0.1055;
988945293395167;0.0337;0.0538;-0.1427;
988945303499542;0.0454;0.0453;-0.1417;
988945313603917;0.0081;0.0730;-0.1097;
988945323734334;0.0433;0.0634;-0.0905;
988945333838709;0.0188;-0.0027;-0.1108;
988945343943084;0.0028;0.0080;-0.1353;
988945354020063;0.0198;-0.0059;-0.1055;
988945364124438;0.0316;-0.0676;-0.0884;
988945374228813;0.0635;-0.0538;-0.1044;
988945384339751;0.0731;-0.0431;-0.1236;
988945394444178;0.0624;-0.0538;-0.0980;
988945404548553;0.0923;-0.0325;-0.0724;
988945414674855;0.1051;-0.0421;-0.0746;
988945424779230;0.0838;-0.0772;-0.0575;
988945434883605;0.0667;-0.0932;-0.0458;
988945444975167;0.0880;-0.0495;-0.0415;
988945455079542;0.0699;0.0101;-0.0405;
988945465183969;0.0667;0.0538;-0.0021;
988945475321574;0.0497;0.0506;0.0256;
988945485425949;0.0486;0.0879;0.0053;
988945495530324;0.0422;0.1348;-0.0117;
988945505608605;0.0241;0.1092;-0.0330;
988945515712980;0.0241;0.1071;-0.0224;
988945525817355;0.0071;0.0953;0.0064;
988945535919126;-0.0004;0.0666;-0.0128;
988945546023501;-0.0153;-0.0059;-0.0192;
988945556127928;-0.0153;-0.0123;-0.0256;
988945566227355;0.0198;0.0889;-0.0362;
988945576331730;0.0284;0.0293;-0.0298;
988945586436105;0.0337;-0.0772;0.0000;
988945596547459;0.0465;-0.1060;0.0394;
988945606651834;0.0539;-0.0975;0.0490;
988945616756209;0.0784;-0.0442;0.0192;
988945626859855;0.0752;-0.0751;0.0224;
988945636964230;0.0316;-0.1081;0.0533;
988945647068605;0.0507;0.0069;0.0394;
988945657179126;0.0561;0.1134;0.0362;
988945667283501;0.0369;0.1742;0.0469;
988945677387876;0.0422;0.2168;0.0320;
988945687486261;0.0593;0.1678;0.0415;
988945697590636;-0.0057;-0.0282;0.0469;
988945707695011;-0.0036;0.0613;0.0352;
988945717797355;0.0049;0.1017;0.0639;
988945727901730;-0.0217;-0.0325;0.0778;
988945738006105;0.0166;-0.0495;0.0277;
988945748119230;0.0188;-0.0666;0.0075;
988945758223605;-0.0089;-0.0431;0.0128;
988945768327980;0.0252;0.0858;0.0021;
988945778433292;0.0230;-0.0868;0.0277;
988945788537667;0.0007;-0.1379;0.0298;
988945798642042;0.0198;-0.0900;0.0288;
988945808745584;0.0039;-0.0538;0.0565;
988945818849959;-0.0025;-0.0037;0.0458;
988945828954334;0.0071;-0.0080;0.0522;
988945839049594;-0.0174;-0.0208;0.0469;
988945849153969;-0.0089;0.0154;0.0437;
988945859258344;-0.0036;0.0048;0.0352;
988945869369855;0.0049;-0.0080;0.0138;
988945879474230;0.0081;0.0517;0.0224;
988945889578605;0.0156;-0.0037;0.0426;
988945899679438;-0.0345;-0.0517;0.0277;
988945909783813;0.0007;-0.0133;0.0341;
988945919888240;-0.0238;0.0218;0.0352;
988945929998188;-0.0164;0.0165;0.0298;
988945940102563;-0.0334;0.0005;0.0149;
988945950206938;-0.0526;-0.0165;0.0383;
988945960289022;-0.0622;-0.0197;0.0128;
988945970393397;-0.0260;0.0687;-0.0021;
988945980497772;-0.0206;0.0325;-0.0032;
988945990635584;-0.0079;0.0378;-0.0202;
988946000739959;-0.0121;0.0506;-0.0128;
988946010844334;-0.0025;0.0176;0.0032;
988946020930688;-0.0345;-0.0101;0.0181;
988946031035063;-0.0185;-0.0005;-0.0149;
988946041139490;-0.0015;-0.0421;-0.0043;
988946051251626;-0.0153;-0.0304;0.0128;
988946061356001;-0.0036;-0.0431;0.0256;
988946071460376;-0.0579;-0.1262;0.0341;
988946081545376;-0.0174;-0.0517;0.0224;
988946091649751;0.0156;0.0708;0.0085;
988946101754126;0.0134;0.0591;-0.0170;
988946111880688;-0.0057;0.0325;-0.0128;
988946121985063;-0.0409;0.0730;-0.0192;
988946132089438;-0.0238;0.0836;-0.0320;
988946142176834;-0.0206;0.0389;-0.0181;
988946152281209;-0.0462;0.0314;-0.0298;
988946162385584;-0.0302;0.0463;-0.0373;
988946172494959;-0.0270;-0.0176;-0.0234;
988946182599334;-0.0409;-0.0868;-0.0383;
988946192703761;-0.0089;-0.0655;-0.0224;
988946202796886;-0.0196;0.0517;-0.0437;
988946212901261;0.0593;-0.0399;-0.0298;
988946223005636;0.0188;-0.1316;-0.0362;
988946233126001;0.0188;-0.0698;-0.0447;
988946243230376;0.0561;-0.0197;-0.0053;
988946253334751;0.0220;0.0005;-0.0096;
988946263447667;0.0379;0.0154;-0.0213;
988946273552094;-0.0142;0.0336;-0.0288;
988946283656469;-0.0047;0.0336;-0.0437;
988946293759126;-0.0025;0.0208;-0.0362;
988946303863501;-0.0270;0.0399;-0.0479;
988946313967876;-0.0036;0.0272;-0.0352;
988946324066209;-0.0164;-0.0378;-0.0383;
988946334170584;0.0060;-0.0517;-0.0469;
988946344274959;0.0060;-0.0591;-0.0469;
988946354376522;0.0156;-0.0495;-0.0650;
988946364480897;0.0209;0.0048;-0.0692;
988946374585272;0.0422;-0.0410;-0.0202;
988946384700584;0.0156;-0.0549;0.0032;
988946394804959;0.0507;-0.0208;-0.0064;
988946404909334;0.0262;0.0112;-0.0160;
988946415009959;0.0092;0.0037;-0.0149;
988946425114334;0.0241;0.0027;-0.0160;
988946435218709;0.0134;0.0186;0.0096;
988946445300063;0.0326;0.0517;-0.0032;
988946455404438;0.0337;0.0399;-0.0053;
988946465508813;0.0166;0.0144;-0.0234;
988946475626105;0.0379;0.0421;-0.0085;
988946485730480;0.0284;0.0144;0.0192;
988946495834855;0.0209;-0.0144;0.0202;
988946505933084;0.0007;0.0154;0.0032;
988946516037459;0.0017;0.0016;0.0234;
988946526141834;-0.0057;-0.0336;0.0256;
988946536246730;-0.0121;-0.0399;0.0149;
988946546351105;-0.0068;-0.0336;0.0181;
988946556455480;-0.0025;-0.0154;0.0309;
988946566566626;0.0273;-0.0133;0.0533;
988946576671001;0.0188;-0.0069;0.0447;
988946586775376;0.0241;0.0389;0.0362;
988946596879178;0.0028;0.0644;0.0565;
988946606983553;0.0081;0.0517;0.0458;
988946617087928;0.0092;0.0229;0.0245;
988946627185376;-0.0206;-0.0229;0.0426;
988946637289751;-0.0196;-0.0336;0.0533;
988946647394126;-0.0228;-0.0282;0.0437;
988946657499751;-0.0260;-0.0218;0.0256;
988946667604126;-0.0196;-0.0048;0.0298;
988946677708501;0.0103;0.0112;0.0426;
988946687824022;-0.0036;0.0037;0.0288;
988946697928397;0.0188;0.0016;0.0469;
988946708032772;0.0071;0.0325;0.0362;
988946718124959;-0.0015;0.0442;0.0170;
988946728229334;-0.0217;0.0059;0.0415;
988946738333709;-0.0430;-0.0027;0.0256;
988946748443188;-0.0164;0.0325;0.0043;
988946758547563;-0.0260;0.0613;0.0160;
988946768651938;-0.0196;0.0410;0.0362;
988946778765688;-0.0409;-0.0037;0.0181;
988946788870063;-0.0206;-0.0261;-0.0064;
988946798974438;-0.0100;-0.0517;0.0224;
988946809070688;0.0049;-0.0538;0.0309;
988946819175063;0.0198;-0.0176;0.0160;
988946829279438;0.0134;-0.0037;0.0011;
988946839448188;-0.0142;0.0080;0.0330;
988946849552563;-0.0153;0.0208;0.0373;
988946859656938;-0.0228;0.0069;0.0117;
988946869693605;-0.0324;-0.0186;-0.0064;
988946879798032;-0.0345;-0.0112;-0.0170;
988946889902355;-0.0462;0.0368;-0.0021;
988946900011522;-0.0515;0.0123;-0.0011;
988946910115897;-0.0153;-0.0080;0.0128;
988946920220272;-0.0430;-0.0005;0.0128;
988946930323761;-0.0089;-0.0037;0.0107;
988946940428136;-0.0079;0.0123;0.0000;
988946950532511;0.0060;0.0314;-0.0043;
988946960611990;-0.0313;0.0261;-0.0085;
988946970716365;-0.0441;-0.0154;-0.0128;
988946980820740;-0.0547;0.0112;-0.0213;
988946990941365;-0.0483;0.0527;-0.0352;
988947001045740;-0.0462;0.0261;-0.0160;
988947011150115;-0.0718;-0.0101;-0.0149;
988947021263917;-0.0590;-0.0144;-0.0671;
988947031368292;-0.0132;-0.0336;-0.0320;
988947041472667;-0.0238;-0.0197;-0.0202;
988947051584022;0.0113;-0.0133;-0.0117;
988947061688397;0.0071;-0.0272;-0.0234;
988947071792772;-0.0057;-0.0474;-0.0522;
988947081908501;0.0103;-0.0389;-0.0138;
988947092012876;0.0039;-0.0314;-0.0245;
988947102117251;-0.0366;-0.0644;-0.0565;
988947112202772;-0.0547;-0.0943;-0.0618;
988947122307147;-0.0313;-0.0740;-0.0383;
988947132411522;-0.0430;-0.0474;-0.0394;
988947142507459;-0.0121;-0.0336;-0.0618;
988947152611834;-0.0036;-0.0154;-0.0660;
988947162716209;-0.0004;-0.0687;-0.0607;
988947172818188;0.0071;-0.0889;-0.0714;
988947182922563;0.0156;-0.0581;-0.0511;
988947193026938;0.0103;-0.0091;-0.0383;
988947203124126;0.0486;0.0730;-0.0288;
988947213228501;0.0188;0.0463;-0.0458;
988947223332876;-0.0281;-0.1369;-0.0277;
988947233444751;-0.0313;-0.1774;-0.0383;
988947243549178;0.0039;0.0985;-0.0927;
988947253653553;0.0007;0.1401;-0.0852;
988947263775480;0.0049;0.0623;-0.0842;
988947273879855;0.0454;0.1124;-0.0383;
988947283984230;0.0241;0.1901;0.0000;
988947294097042;0.0593;0.2306;-0.0192;
988947304201417;0.0273;0.1976;-0.0628;
988947314305792;0.0103;0.1177;-0.0469;
988947324396834;-0.0121;0.0847;-0.0469;
988947334501209;0.0198;-0.0154;-0.0479;
988947344605584;-0.0270;-0.0613;-0.0469;
988947354710011;-0.0185;0.1486;-0.0863;
988947364814386;0.0103;0.1390;-0.0842;
988947374918761;-0.0387;-0.2241;-0.0533;
988947385034855;-0.0057;-0.2007;-0.0692;
988947395139230;0.0603;-0.0591;-0.0650;
988947405243605;0.0443;-0.2017;-0.0383;
988947415356730;0.0358;-0.2518;-0.0128;
988947425461105;0.0358;-0.1411;-0.0447;
988947435565480;0.0529;0.0005;-0.0320;
988947445660063;0.0433;-0.0048;-0.0043;
988947455764438;0.0475;-0.0165;-0.0469;
988947465868813;0.0518;0.0485;-0.0746;
988947475959230;0.0071;0.1017;-0.0799;
988947486063605;0.0273;0.1177;-0.0778;
988947496167980;0.0166;0.1145;-0.0937;
988947506274855;0.0220;0.0474;-0.0980;
988947516379230;0.0294;-0.0112;-0.0852;
988947526483605;0.0593;0.0261;-0.0756;
988947536587667;0.0529;0.0474;-0.0756;
988947546692042;0.0827;-0.0676;-0.0895;
988947556796417;0.0912;-0.0847;-0.0575;
988947566904959;0.0923;-0.0389;-0.0447;
988947577009334;0.1509;-0.0549;-0.0426;
988947587113709;0.1253;0.0069;-0.0501;
988947597216105;0.1029;0.0304;-0.0394;
988947607320480;0.1051;-0.0559;0.0032;
988947617424855;0.0593;-0.0644;-0.0224;
988947627525584;0.0688;-0.0378;-0.0575;
988947637629959;0.0806;-0.0442;-0.0522;
988947647734334;0.0806;-0.0357;-0.0117;
988947657838709;0.0816;-0.0431;0.0085;
988947667943084;0.0678;-0.0325;-0.0128;
988947678047459;0.0806;-0.0176;-0.0075;
988947688155688;0.0784;-0.0144;-0.0021;
988947698260063;0.0880;-0.0708;0.0043;
988947708364438;0.0624;-0.0208;0.0107;
988947718470272;0.0390;-0.0123;-0.0043;
988947728574647;0.0422;-0.0431;0.0149;
988947738679022;0.0198;-0.0314;-0.0117;
988947748782667;0.0411;-0.0527;-0.0309;
988947758887042;0.0624;-0.0325;-0.0234;
988947768991417;0.1072;0.0655;-0.0224;
988947779096105;0.1168;0.0932;-0.0117;
988947789200480;0.1200;0.0602;-0.0213;
988947799304855;0.1061;0.0730;0.0011;
988947809404542;0.0688;0.0623;0.0192;
988947819508917;0.0923;0.0304;0.0064;
988947829613292;0.0731;0.0357;-0.0170;
988947839698084;0.0454;0.0325;-0.0192;
988947849802459;0.0134;-0.0293;0.0320;
988947859906834;0.0348;-0.0165;0.0352;
988947870018709;0.0646;0.0634;0.0075;
988947880123084;0.0774;0.1305;-0.0011;
988947890227459;0.1008;0.1092;-0.0064;
988947900342147;0.0891;-0.0293;0.0021;
988947910446522;0.0411;-0.0410;0.0181;
988947920550897;0.0699;-0.0176;0.0043;
988947930665688;0.0667;-0.0762;0.0298;
988947940770063;0.0475;-0.0410;0.0149;
988947950874438;0.0507;0.0091;-0.0021;
988947960991105;0.0348;-0.0218;0.0043;
988947971095480;0.0539;-0.0176;0.0053;
988947981199855;0.0550;-0.0027;-0.0149;
988947991271105;0.0912;0.0101;-0.0202;
988948001375480;0.1104;0.0059;-0.0032;
988948011479855;0.1040;-0.0527;0.0043;
988948021600376;0.0710;-0.0783;-0.0075;
988948031704751;0.1072;0.0048;-0.0117;
988948041809126;0.0550;-0.0389;-0.0064;
988948051914022;0.0635;-0.0975;-0.0277;
