Sensor: bmi160 Accelerometer Non-wakeup
Vendor: BOSCH
TimestampAcc [ns]; AccX [m/s^2]; AccY [m/s^2]; AccZ [m/s^2]
2136933885237;-9.2898;2.9958;-1.2906;
2136943960289;-9.2779;2.8905;-1.3122;
2136954057112;-9.2465;2.8352;-1.3935;
2136964180966;-9.2731;2.7873;-1.3744;
2136974296227;-9.2946;2.7323;-1.2691;
2136984394821;-9.2850;2.7371;-1.2257;
2136994474977;-9.3497;2.7826;-1.2185;
2137004605029;-9.3855;2.8256;-1.1755;
2137014705237;-9.3425;2.8304;-1.1539;
2137024814821;-9.3616;2.8424;-1.2401;
2137034920550;-9.3688;2.8352;-1.2882;
2137044997008;-9.2898;2.8256;-1.2691;
2137055143831;-9.2369;2.8472;-1.3289;
2137065248935;-9.2755;2.7993;-1.3744;
2137075351644;-9.2731;2.7179;-1.3648;
2137085462112;-9.3305;2.6868;-1.2978;
2137095562269;-9.3927;2.7084;-1.2353;
2137105680081;-9.3808;2.7156;-1.1635;
2137115778935;-9.3449;2.7419;-1.1563;
2137125892685;-9.3592;2.7036;-1.1803;
2137135997998;-9.3233;2.7060;-1.2643;
2137146103310;-9.3114;2.7179;-1.3337;
2137156216123;-9.3066;2.6916;-1.3720;
2137166326539;-9.2489;2.6892;-1.3600;
2137176430498;-9.2922;2.6773;-1.3672;
2137186536539;-9.3592;2.6701;-1.3457;
2137196640706;-9.3209;2.7347;-1.2425;
2137206758310;-9.3185;2.7826;-1.2401;
2137216862581;-9.3353;2.7586;-1.2401;
2137226961279;-9.3090;2.8065;-1.3385;
2137237073623;-9.3042;2.8496;-1.5060;
2137247178414;-9.2707;2.8017;-1.5996;
2137257287789;-9.2465;2.7897;-1.6068;
2137267399769;-9.2489;2.7969;-1.5924;
2137277502998;-9.2632;2.7491;-1.6020;
2137287614248;-9.2393;2.7323;-1.5661;
2137297751591;-9.2417;2.7108;-1.5661;
2137307835185;-9.2489;2.5789;-1.5326;
2137317937269;-9.3497;2.6174;-1.5302;
2137328062998;-9.4190;2.6821;-1.6235;
2137338154039;-9.3712;2.6103;-1.5374;
2137348263779;-9.2755;2.4138;-1.5398;
2137358366956;-9.3233;2.3707;-1.7097;
2137368481539;-9.3114;2.2938;-1.9253;
2137378584404;-9.2489;2.2220;-2.1003;
2137388689352;-9.1508;2.2842;-2.2367;
2137398815185;-9.0455;2.4975;-2.3471;
2137408922581;-9.0215;2.6270;-2.2917;
2137419015602;-9.0503;2.6821;-2.0716;
2137429124248;-9.2034;2.8424;-2.0426;
2137439231279;-9.3473;3.1178;-2.1577;
2137449331539;-9.4502;3.2210;-2.0764;
2137459447269;-9.5219;2.9886;-1.7456;
2137469561331;-9.4406;2.5549;-1.1420;
2137479662373;-9.2731;3.0389;-1.7216;
2137489771123;-9.0622;2.9934;-1.8655;
2137499875706;-9.0550;3.0317;-2.0979;
2137509986435;-9.2465;3.1178;-2.6991;
2137520095810;-9.3760;2.8304;-2.7182;
2137530201696;-9.3664;2.7299;-2.5528;
2137540310810;-9.2369;2.3755;-1.7671;
2137550445602;-9.1364;1.7668;-0.9431;
2137560535289;-9.4143;1.6759;-1.0534;
2137570641019;-9.7950;2.0856;-1.8823;
2137580737685;-9.4884;2.5717;-2.4404;
2137590846331;-8.9542;2.8929;-2.6632;
2137600962164;-8.9279;3.1370;-2.9530;
2137611076852;-9.0096;2.8496;-3.0105;
2137621167060;-9.1484;2.1263;-2.4308;
2137631276748;-9.3473;1.4698;-1.8870;
2137641411071;-9.0431;1.0866;-1.4533;
2137651562216;-8.7389;0.9093;-1.4103;
2137661610237;-9.1244;1.2302;-2.0163;
2137671698935;-9.4669;1.8796;-2.6608;
2137681818414;-9.5845;2.5621;-3.1301;
2137691908987;-9.5701;2.9862;-3.7723;
2137702033206;-9.1555;2.9551;-3.6595;
2137712181279;-8.4296;2.5238;-2.6800;
2137722264769;-8.0273;2.1455;-2.1840;
2137732381696;-9.0598;2.4832;-3.1325;
2137742465498;-9.9341;2.1335;-2.9650;
2137752606019;-10.0035;1.2111;-1.5326;
2137762689456;-10.2383;1.2374;-1.7121;
2137772787164;-9.7687;2.2699;-3.3051;
2137782893206;-8.0345;2.4305;-3.3386;
2137793026852;-7.7064;2.2412;-2.6010;
2137803134091;-8.6883;2.2005;-2.6728;
2137813229039;-10.3173;2.1048;-2.8235;
2137823339248;-9.7328;2.7419;-3.5064;
2137833445706;-8.6836;3.6449;-5.9306;
2137843571435;-8.9566;0.5213;-2.3806;
2137853674873;-9.5701;2.2005;-3.2070;
2137863845966;-8.9901;1.4076;-1.1970;
2137873870446;-9.4214;1.8245;-0.2174;
2137883976956;-8.8992;1.7524;-0.2557;
2137894092789;-8.8585;2.7945;-1.8272;
2137904193519;-8.9877;3.9156;-4.0621;
2137914307789;-7.6415;3.9060;-4.2227;
2137924412269;-6.4415;4.4931;-4.9460;
2137934518102;-6.2665;6.0571;-7.0684;
2137944642269;-5.2292;5.9471;-6.7546;
2137954737164;-6.6667;4.6199;-4.2395;
2137964841956;-14.0519;3.0485;-0.9936;
2137974951539;-16.1001;-0.3580;6.2264;
2137985057477;-14.4377;-0.7819;8.9791;
2137995159039;-13.8844;3.3000;2.5831;
2138005275289;-9.2273;6.2824;-3.3218;
2138015378519;-3.8495;5.1661;-2.5792;
2138025489612;-4.2449;2.5717;-4.0358;
2138035596748;-7.5075;0.2001;-9.9144;
2138045726956;-10.4157;2.3297;-5.8684;
2138055836539;-10.9020;2.6052;-3.2668;
2138065946123;-11.7643;2.7754;-3.1663;
2138076032685;-10.0585;4.0235;-3.7460;
2138086142269;-6.5085;5.3985;-2.6058;
2138096251852;-4.8843;6.0933;-1.7862;
2138106366435;-8.4512;3.7289;-1.9301;
2138116476019;-10.3268;1.6232;-1.3098;
2138126585550;-9.7974;0.5237;0.2833;
2138136679560;-10.5664;1.9059;-2.5552;
2138146789144;-10.3702;5.5759;-8.2591;
2138156898675;-9.3281;5.4129;-7.8374;
2138167020029;-8.1757;2.4425;-2.8283;
2138177129560;-6.5276;2.5478;-0.2390;
2138187239091;-7.0259;4.7037;-1.9229;
2138197318206;-8.7915;4.8141;-2.1888;
2138207427789;-9.8025;4.5027;-2.9363;
2138217537321;-9.4884;4.2751;-2.9626;
2138227651435;-9.4597;4.4883;-3.1687;
2138237761019;-10.8395;4.6702;-3.7364;
2138247870550;-9.8312;4.6008;-3.5877;
2138257975706;-8.1975;3.9494;-3.2477;
2138268085289;-6.8871;3.6784;-2.9291;
2138278194821;-7.1842;3.5276;-2.5959;
2138288303310;-8.0847;3.1469;-2.5265;
2138298412894;-9.7759;2.8834;-2.9100;
2138308522425;-10.4611;2.6438;-3.3601;
2138318631748;-9.3377;2.7419;-2.9076;
2138328741331;-8.5783;2.8735;-3.3984;
2138338850914;-9.6538;2.5597;-4.3304;
2138348953050;-9.9748;2.3369;-4.6155;
2138359062633;-8.4177;2.2938;-3.0344;
2138369172164;-7.4836;2.3563;-2.4260;
2138379272894;-8.3172;2.9599;-2.9626;
2138389382477;-8.7485;2.2723;-2.9363;
2138399492008;-8.9734;2.2890;-3.3888;
2138409586748;-10.1186;2.4855;-5.2023;
2138419696331;-10.9211;1.7285;-4.7665;
2138429805914;-9.4238;2.0016;-3.3601;
2138439921852;-8.8394;2.3850;-2.9291;
2138450031435;-7.7686;1.9896;-2.3542;
2138460141019;-7.1097;1.9896;-3.0942;
2138470244456;-8.9518;1.9896;-4.4453;
2138480354039;-9.9461;1.0316;-2.7565;
2138490463623;-9.6275;1.7716;-2.6130;
2138500566748;-9.6754;1.9059;-4.0741;
2138510676331;-10.0681;1.1871;-4.2036;
2138520785862;-9.7041;0.6505;-3.4178;
2138530885706;-8.1613;0.5931;-2.2199;
2138540995289;-7.8595;0.8566;-2.9291;
2138551104873;-9.6419;0.9930;-4.4958;
2138561213050;-9.4621;0.7609;-3.4107;
2138571322425;-7.8739;2.0016;-4.1530;
2138581432008;-10.6840;2.5238;-7.1258;
2138591541539;-9.5749;1.5419;-3.4490;
2138601634456;-4.4509;3.0867;1.1312;
2138611744039;-6.6476;3.6544;0.8270;
2138621853623;-7.9050;4.4354;-1.3050;
2138632018727;-9.0742;6.5578;-6.9607;
2138642128258;-17.0943;9.2432;-17.2469;
2138652237841;-17.0198;7.8514;-12.6547;
2138662282373;-7.5817;4.9241;0.3191;
2138672391956;-1.3917;4.9385;2.8394;
2138682501539;-1.1928;6.0212;-1.9062;
2138692626019;-6.4822;5.9997;-2.4236;
2138702735654;-11.3498;4.4836;0.5827;
2138712845185;-12.2794;5.2020;0.9781;
2138722964977;-11.2301;4.4665;-0.1430;
2138733074560;-6.9829;2.5119;1.7447;
2138743184144;-5.9934;2.3130;3.2106;
2138753277060;-8.8035;3.3838;1.3516;
2138763386644;-11.7763;6.0619;-5.9402;
2138773496227;-11.0504;5.8681;-7.0899;
2138783581644;-9.3473;4.8021;-4.5867;
2138793691227;-4.6639;4.2918;-2.6680;
2138803800758;-4.2425;2.7419;-3.2836;
2138813912685;-9.7735;1.8150;-4.5485;
2138824022269;-12.4110;-0.2859;-2.5792;
2138834131800;-9.9844;-2.2959;-1.5326;
2138844224144;-9.6323;-2.5475;-3.1424;
2138854333727;-10.1306;-4.0229;-3.2022;
2138864443310;-9.4286;-4.1309;-2.4141;
2138874565394;-7.6825;-3.4983;-3.8441;
2138884674977;-8.8729;-3.5632;-4.9795;
2138894784560;-7.8619;-4.3729;-4.4548;
2138904882581;-8.8729;-5.1945;-4.9579;
2138914992164;-11.7188;-5.9731;-3.9832;
2138925101696;-8.6237;-5.9994;-2.0788;
2138935203727;-8.3435;-5.3764;-4.8670;
2138945313310;-11.2684;-5.0770;-4.7016;
2138955422841;-8.5519;-5.0195;-2.4787;
2138965524977;-8.6764;-3.7044;-4.5843;
2138975634560;-9.2225;-2.8923;-3.1158;
2138985744144;-9.0742;-2.2217;-3.3075;
2138995853310;-10.7868;-2.3294;-4.6394;
2139005962894;-9.9078;-2.2457;-3.5686;
2139016072425;-8.5663;-2.4924;-3.1472;
2139026180706;-9.4525;-2.2241;-3.3338;
2139036290289;-8.5328;-1.7450;-3.4825;
2139046399873;-9.2273;-0.8154;-4.6202;
2139056505966;-9.7065;-1.6418;-3.7819;
2139066615550;-9.7711;-1.2610;-4.4839;
2139076725133;-9.9891;-0.0655;-3.8058;
2139086818779;-8.1039;-0.5925;-1.9181;
2139096928310;-7.7447;-1.8239;-3.1277;
2139107037894;-8.6453;-2.3916;-4.4620;
2139117156227;-9.4693;-1.8120;-4.3472;
2139127265810;-9.1244;-1.4264;-3.3242;
2139137375341;-8.7027;-1.7880;-2.4811;
2139147474300;-8.2956;-1.2179;-3.2213;
2139157583883;-8.8681;-0.3218;-5.1257;
2139167693466;-11.3617;-0.5375;-5.0324;
2139177796331;-11.3521;0.9093;-3.7029;
2139187905914;-9.0072;-0.1065;-1.8823;
2139198015446;-9.4334;0.5357;-1.8607;
2139208136487;-9.5124;0.5453;-1.7073;
2139218246019;-8.2717;1.3023;-1.5012;
2139228355602;-8.4368;1.3238;-3.2166;
2139238441748;-10.2981;1.0771;-4.2275;
2139248551383;-8.0776;2.6294;-1.9325;
2139258660914;-7.5314;2.0207;-3.7699;
2139268764716;-9.8551;1.6328;-6.3353;
2139278874300;-12.3488;1.9633;-5.2286;
2139288983831;-8.9399;2.1885;-2.7613;
2139299110706;-6.9781;1.0149;-1.4127;
2139309220289;-9.1220;1.8532;-3.0176;
2139319329873;-8.9327;2.5430;-3.5183;
2139329406956;-10.9140;2.1646;-4.1219;
2139339516539;-8.3602;2.1239;-2.9722;
2139349626123;-9.7567;1.1273;-3.3505;
2139359735914;-9.8240;1.8556;-3.2213;
2139369845498;-9.1819;1.6208;-1.9110;
2139379955081;-10.5042;1.9107;-2.7805;
2139390062894;-8.4706;1.7548;-2.2678;
2139400172477;-7.6896;1.6878;-3.7460;
2139410282060;-10.0035;1.1991;-4.6035;
2139420387633;-8.9423;0.8112;-4.7761;
2139430497216;-8.2813;0.5524;-4.7231;
2139440606748;-9.0646;0.8088;-3.9544;
2139450711123;-7.1025;0.6745;-3.2764;
2139460820706;-8.9590;0.9284;-4.2060;
2139470930237;-8.4559;0.2076;-4.2060;
2139481029769;-11.1365;-0.2740;-4.9842;
2139491139352;-10.1545;-0.2405;-4.0095;
2139501248935;-8.8561;-1.0119;-2.2487;
2139511377789;-6.2354;-0.4825;-3.7029;
2139521487373;-9.8910;-0.8946;-4.9316;
2139531596852;-9.7783;0.0398;-4.1195;
2139541675237;-8.1924;-0.2979;-3.9855;
2139551784769;-7.5625;-1.1629;-4.9651;
2139561894352;-9.1149;-1.7761;-6.2731;
2139572003935;-12.2483;-0.5207;-5.8636;
2139582141279;-9.5486;-0.4083;-1.8105;
2139592249716;-7.8787;-0.3867;-1.9516;
2139602358206;-8.3339;-0.8465;-2.3830;
2139612426487;-9.0766;-0.2883;-3.2022;
2139622534977;-11.3617;0.5405;-2.7517;
2139632643466;-9.5605;1.0723;-2.6489;
2139642782060;-9.4549;0.2698;-2.8908;
2139652890498;-8.6836;1.2903;-2.0282;
2139662998935;-8.3315;0.2961;-3.0894;
2139673107477;-10.1569;-0.4250;-6.2013;
2139683215966;-11.5104;1.1800;-4.2610;
2139693324404;-9.4167;0.9021;-3.7555;
2139703415185;-7.4213;0.6147;-3.0105;
2139713523623;-8.3698;0.3583;-3.3099;
2139723632112;-9.2946;0.6673;-3.6981;
2139733728414;-8.1565;0.7128;-3.7149;
2139743836852;-8.3650;0.6936;-4.0717;
2139753945341;-10.2096;1.1632;-4.0502;
2139764079560;-9.1220;0.0948;-4.0047;
2139774187946;-9.1244;-0.1352;-3.3051;
2139784296487;-8.4849;-0.6622;-2.2582;
2139794404873;-8.9255;-0.0706;-3.9015;
2139804513258;-11.0839;-0.7914;-4.0286;
2139814621748;-10.2622;-0.3027;-2.8187;
2139824706019;-7.2009;-1.0573;-2.0067;
2139834814404;-8.4993;-0.5614;-4.0956;
2139844922894;-10.5736;-1.2443;-4.5867;
2139855036071;-10.3463;-0.5016;-3.1014;
2139865144508;-7.2846;-1.4288;-2.6608;
2139875253050;-7.2894;-1.8168;-5.8516;
2139885360237;-11.3450;-0.6431;-4.5485;
2139895468675;-9.7950;-0.7388;-3.3577;
2139905577216;-7.7231;-0.6981;-3.9111;
2139915679352;-8.2430;-1.0597;-3.7627;
2139925787737;-10.0537;-0.3580;-3.4705;
2139935896279;-10.3268;-0.1448;-3.4585;
2139946001644;-8.7485;-0.4131;-3.3984;
2139956110081;-8.1374;-0.1854;-3.8249;
2139966218571;-10.1067;-0.6168;-3.8106;
2139976325758;-9.3855;-0.3748;-3.4633;
2139986434196;-10.0298;0.0829;-3.9927;
2139996542685;-8.8848;-0.0826;-4.2586;
2140006643935;-9.6156;0.3344;-3.5830;
2140016752321;-9.2297;-0.2907;-2.4045;
2140026860862;-7.9193;-0.0081;-2.6776;
2140036968310;-7.9074;-0.1065;-4.2084;
2140047076696;-9.2560;-0.2477;-4.7426;
2140057185185;-9.7807;0.4301;-4.4118;
2140067299925;-8.9662;-0.6311;-4.6059;
2140077408414;-8.5998;-0.5303;-4.8096;
2140087516904;-9.1675;-0.5040;-3.4466;
2140097623571;-9.1651;-0.7603;-3.6981;
2140107732060;-8.8394;-0.6694;-4.0789;
2140117840498;-9.9604;-0.3242;-3.4250;
2140127936383;-9.9676;-0.5495;-3.6452;
2140138044769;-9.2656;-0.1161;-2.2439;
2140148153310;-8.8609;-0.2788;-1.3265;
2140158270185;-9.8264;-0.9281;-2.9578;
2140168378675;-10.9570;0.0685;-2.6201;
2140178487112;-8.4945;-0.1472;-2.7757;
2140188592946;-7.6705;-0.8417;-4.0741;
2140198701435;-9.0335;-0.5614;-4.4886;
2140208809925;-9.2970;-0.4322;-4.7880;
2140218925446;-9.4047;-0.0176;-4.6657;
2140229033883;-8.7676;-0.4466;-3.7484;
2140239142373;-9.5773;-0.1591;-3.3242;
2140249231123;-9.1962;-0.7890;-3.6981;
2140259339508;-10.1163;-0.8970;-3.6619;
2140269448050;-9.9365;-0.5399;-1.9397;
2140279566435;-8.3100;-1.3017;-2.3204;
2140289674873;-9.3449;-0.7938;-2.1242;
2140299783362;-9.6227;-0.0224;-3.2979;
2140309891175;-9.4406;0.2889;-3.7244;
2140319999612;-8.4826;0.3655;-3.1038;
2140330108102;-8.9351;0.3416;-5.3007;
2140340214300;-9.8719;0.7223;-4.7136;
2140350322737;-9.1436;0.6960;-3.5255;
2140360431227;-9.6634;0.4998;-2.9602;
2140370541279;-8.4177;1.0125;-3.9182;
2140380649716;-9.5701;0.8614;-2.6536;
2140390758258;-9.3951;0.1283;-4.1507;
2140400869404;-8.5639;0.3392;-4.2060;
2140410977841;-8.2310;0.6697;-3.6452;
2140421086331;-9.9676;0.4516;-3.8728;
2140431192112;-8.4921;0.6338;-4.3352;
2140441300550;-10.0107;0.7008;-3.5471;
2140451409039;-8.7676;0.3200;-2.8546;
2140461572008;-8.4778;-0.3915;-2.8908;
2140471680446;-8.1948;-0.4561;-4.4046;
2140481788935;-9.9939;-0.5064;-4.1411;
2140491818623;-9.5486;-0.8249;-4.0430;
2140501927060;-9.6515;-1.0789;-2.5528;
2140512035498;-9.7256;-1.6059;-2.2678;
2140522193727;-8.9518;-1.3065;-2.1601;
2140532302164;-9.2731;-1.1964;-3.4944;
2140542410602;-10.8227;-0.2429;-3.6667;
2140552482581;-10.2526;-0.7340;-2.1099;
2140562591019;-8.1063;-1.1677;-2.0617;
2140572699456;-10.1785;-0.4848;-3.9350;
2140582778831;-10.5401;-0.6909;-2.5481;
2140592887269;-9.0048;-0.7723;-2.9626;
2140602995758;-7.1746;-0.3027;-4.0406;
2140613152633;-9.6682;-0.0802;-4.3783;
2140623261123;-10.0131;0.0326;-3.9254;
2140633369612;-9.3473;0.2387;-3.3410;
2140643467998;-8.9518;0.2794;-2.8570;
2140653576435;-7.9699;-0.2118;-3.0751;
2140663684873;-9.2827;-0.1950;-4.4668;
2140673775341;-9.9365;-0.4513;-3.8393;
2140683883258;-9.4860;-0.2453;-2.2175;
2140693991175;-8.7075;-0.4155;-3.3314;
2140704120966;-8.4009;-0.4801;-2.8765;
2140714228883;-8.7532;-0.5997;-2.9889;
2140724336800;-9.3353;-0.5877;-4.6059;
2140734426591;-9.4908;-0.1687;-4.0621;
2140744534508;-9.5243;-0.8994;-3.5949;
2140754642425;-10.0828;-1.6442;-3.4346;
2140764747425;-9.8719;-1.0167;-2.6632;
2140774855341;-9.1747;-0.8608;-3.3697;
2140784963258;-9.1005;-1.7928;-2.6752;
2140795098050;-8.0178;-1.7904;-2.1673;
2140805205966;-9.1220;-0.5088;-4.7737;
2140815313883;-10.8538;0.0302;-4.7351;
2140825404196;-9.4741;0.0374;-3.1878;
2140835512112;-7.9531;-0.1639;-2.5935;
2140845620029;-8.7147;-0.1280;-3.2189;
2140855740602;-9.5438;-0.1208;-4.9101;
2140865848519;-9.5438;0.4062;-4.7713;
2140875956435;-9.0239;0.3368;-2.9961;
2140886047946;-8.8777;0.0398;-3.3482;
2140896155862;-8.9566;-0.0009;-3.6380;
2140906263779;-9.9317;-0.2046;-2.8741;
2140916374612;-8.1206;-0.2213;-3.3912;
2140926482529;-8.1948;0.3751;-3.6141;
2140936590446;-9.9245;0.4660;-2.9100;
2140946695446;-9.6395;0.5237;-3.2142;
2140956803362;-8.3243;0.8782;-3.1472;
2140966911279;-7.2296;-0.0129;-3.4633;
2140977022946;-7.2918;0.2363;-4.4285;
2140987130862;-12.2889;0.3727;-3.8824;
2140997238779;-13.6137;0.7561;-3.3242;
2141007328466;-8.6309;0.0733;-0.7636;
2141017436383;-9.5243;-0.0559;-0.4953;
2141027544300;-11.6707;-0.7842;-1.7575;
2141037670966;-10.0370;-0.0009;-1.2715;
2141047778883;-8.5519;-0.3676;-2.5313;
2141057886800;-8.6381;-0.2500;-3.7699;
2141067990758;-9.4334;-0.3532;-4.0214;
2141078098675;-8.4706;0.6864;-4.0167;
2141088206591;-8.7317;0.4564;-4.5006;
2141098320966;-8.7939;0.8160;-5.6504;
2141108428883;-9.9461;0.6793;-4.4767;
2141118536800;-9.4956;0.4062;-2.9961;
2141128657946;-9.1890;0.4612;-1.1061;
2141138765862;-7.9292;0.0541;-1.9181;
2141148873779;-8.3243;0.3081;-2.9841;
2141158960133;-12.5883;0.2722;-2.7446;
2141169068050;-8.9590;0.6864;-2.3037;
2141179175966;-7.9412;0.6075;-1.8320;
2141189292685;-5.0139;0.0876;-2.8546;
2141199400602;-7.1746;-0.1448;-9.6963;
2141209508519;-13.1919;-0.0272;-9.4208;
2141219618571;-9.7807;1.0627;-4.5197;
2141229726487;-7.8380;-0.7268;-4.7136;
2141239834404;-9.4932;-0.8465;-2.5744;
2141249936800;-8.5974;-0.0416;-0.8163;
2141260044716;-10.5520;-0.7938;-1.5470;
2141270152633;-11.2971;-0.0730;-0.5815;
2141280262008;-10.2742;-0.0945;-1.1157;
2141290369925;-9.2058;-0.0706;-1.1348;
2141300477841;-8.5448;0.3416;-2.0836;
2141310589352;-8.1924;-0.3123;-3.9760;
2141320697269;-9.3999;-0.3194;-4.9627;
2141330805185;-11.3091;1.3095;-3.9063;
2141340912425;-6.7481;0.9882;-2.8837;
2141351020341;-6.7648;-1.2945;-7.1692;
2141361128258;-11.5487;-0.1950;-6.8288;
2141371230341;-10.6672;0.4445;-1.7001;
2141381338258;-7.9555;-0.4418;-0.2581;
2141391446175;-6.7528;-0.6263;-0.5958;
2141401549508;-9.6060;-0.7101;-1.4366;
2141411657425;-10.8275;-0.8130;-1.8368;
2141421765341;-7.1435;-0.6670;-2.9148;
2141431853362;-11.7787;-0.5375;-4.3065;
2141441961279;-13.1225;-0.5973;-2.6369;
2141452069196;-7.6582;-0.6742;-1.7169;
2141462195914;-8.6357;-0.3604;-3.0057;
2141472303831;-10.3391;-0.4490;-3.3386;
2141482411748;-9.1388;0.3392;-2.5528;
2141492534196;-7.2751;0.3727;-2.5193;
2141502642112;-7.8332;0.1522;-4.0597;
2141512750029;-10.1306;0.2315;-4.7713;
2141522854664;-10.0250;0.6338;-3.8943;
2141532962581;-6.0197;0.4564;-4.3926;
2141543070498;-6.3338;0.4229;-5.4084;
2141553199091;-8.7532;0.1451;-4.9962;
2141563307008;-12.1714;0.4660;-3.9927;
2141573414925;-12.6362;-1.0047;-1.9516;
2141583487633;-6.7505;-0.6646;-1.3026;
2141593595550;-3.2315;-1.7641;-2.8451;
2141603703466;-9.4860;-0.0081;-4.7952;
2141613859196;-18.9413;0.6529;-1.6929;
2141623967112;-11.3856;-0.0105;-1.3696;
2141634075029;-8.3674;-1.2203;-1.8392;
2141644140758;-10.4276;-0.2859;0.0221;
2141654248675;-8.7724;-0.1400;-0.1358;
2141664356591;-8.1661;0.6984;-2.7374;
2141674467946;-9.3018;0.7705;-3.0559;
2141684575966;-9.6203;1.0220;-3.3529;
2141694683935;-10.2191;-0.1591;-4.3759;
2141704791591;-11.4984;-1.1004;-6.6733;
2141714899612;-9.9891;-0.4633;-4.6418;
2141725007581;-9.6323;-1.5820;-1.5060;
2141735114716;-4.9250;-0.7101;1.4596;
2141745222737;-3.1430;-1.1004;-4.8981;
2141755330706;-11.3880;-1.9316;-11.3683;
2141765435862;-12.2025;0.6769;-6.1032;
2141775543883;-9.2827;1.5224;-2.6465;
2141785651852;-7.9675;0.0661;-3.2644;
2141795778779;-6.3673;-0.6502;-3.0679;
2141805886800;-10.5066;-1.7115;-3.3817;
2141815994769;-11.9007;0.2411;-2.4930;
2141826089716;-11.0958;-0.0296;-2.0282;
2141836197737;-10.0250;0.5094;-2.5122;
2141846305706;-8.3507;-0.2022;-0.7277;
2141856413050;-6.8079;-0.7101;-2.0354;
2141866521071;-9.4143;-0.7364;-6.6278;
2141876629039;-9.7184;0.7920;-7.2099;
2141886735341;-9.4573;0.9595;-5.4371;
2141896843362;-8.6237;0.4158;-3.8512;
2141906951331;-9.5677;-0.0535;-3.6141;
2141917057685;-12.8351;0.3105;-2.0644;
2141927165706;-11.0982;0.5548;1.9914;
2141937273675;-7.2153;0.3918;2.4320;
2141947383779;-6.8175;-1.1725;-2.3686;
2141957491800;-7.7351;-2.0013;-5.6408;
2141967599769;-12.1834;-1.4719;-4.9244;
2141977712946;-10.9116;-0.2285;-2.6536;
2141987820966;-6.1612;0.8016;-3.2788;
2141997928935;-6.8079;-0.0129;-6.5510;
2142008049769;-8.2286;-1.2395;-6.5462;
2142018157737;-9.4669;-1.2706;-5.0515;
2142028265706;-10.1976;-0.8058;-3.6814;
2142038351487;-9.9532;-0.8058;-0.6580;
2142048459508;-9.4573;-0.8922;-0.3299;
2142058567477;-10.6337;-1.5245;-1.4318;
2142068688362;-11.5223;-0.6837;-0.4065;
2142078796383;-9.1890;-1.0430;-1.2787;
2142088904352;-7.1121;-0.6287;-4.3926;
2142099005550;-7.3421;-1.8144;-6.2946;
2142109113571;-8.4873;-0.4992;-6.6374;
2142119221539;-8.1948;-0.2237;-4.9890;
2142129320237;-9.1651;0.0087;-3.6404;
2142139428258;-11.4242;0.0924;-3.1229;
2142149536227;-14.0833;-0.9855;-0.8019;
2142159656279;-12.6099;-1.7067;2.1254;
2142169764300;-7.7231;-2.3055;0.5468;
2142179872269;-9.1125;-2.6815;-2.1482;
2142189974091;-4.7647;-1.7521;-1.4868;
2142200082112;-4.3406;-0.8393;-5.9306;
2142210190081;-9.0287;-0.8584;-10.0603;
2142220312269;-11.3450;1.0986;-7.2506;
2142230420289;-10.6337;1.3047;-3.2477;
2142240528258;-6.4080;-0.2931;-3.0320;
2142250622633;-11.0504;-1.8957;-2.6130;
2142260730654;-16.5841;-0.6191;0.5946;
2142270838623;-14.0471;0.2937;5.7476;
2142280940446;-5.8690;-0.2118;5.0647;
2142291048466;-8.5232;-0.7388;-2.4763;
2142301156435;-10.7366;-1.2491;-6.5438;
2142311262269;-6.7840;-0.0535;-6.6876;
2142321370289;-5.3659;1.3884;-9.7250;
2142331478258;-7.3899;0.1427;-9.3682;
2142341590654;-7.8380;0.0924;-4.9795;
2142351698675;-9.1938;1.1201;-3.5949;
2142361806644;-11.8840;1.3645;-0.5503;
2142371935810;-8.1852;0.9308;3.4621;
2142382043831;-6.6428;0.0613;1.2440;
2142392151800;-10.3367;-1.0334;-3.2907;
2142402231331;-10.9283;-1.1028;-4.7498;
2142412339352;-10.5664;-0.7914;-4.5891;
2142422447321;-7.2129;-0.5710;-5.9330;
2142432592529;-9.7113;-0.3724;-8.9369;
2142442700550;-13.7166;-0.1041;-6.5868;
2142452808519;-8.2071;0.2195;0.8797;
2142462901279;-4.2999;-0.0826;-1.4174;
2142473009300;-10.2766;-1.1605;-3.8991;
2142483117269;-14.1766;1.2879;0.1301;
2142493220654;-10.7151;-0.3051;4.6624;
2142503328675;-6.9541;-0.6383;2.5639;
2142513436644;-9.8025;-1.0454;-1.7169;
2142523531279;-7.1794;-1.5963;-5.2430;
2142533639300;-11.5774;-0.2644;-7.3415;
2142543747269;-8.5304;-0.9855;-3.0416;
2142553860341;-5.4616;-0.9449;-6.1798;
2142563968362;-9.8049;-0.1089;-9.1454;
2142574076331;-10.8012;-0.3628;-4.1195;
2142584185341;-10.9953;-0.6191;-1.2882;
2142594293362;-7.1121;-1.0908;-1.7408;
2142604401331;-8.3172;-2.3868;-2.9052;
2142614518050;-14.5406;-1.0884;-1.1444;
2142624626071;-12.4134;-0.8249;2.1685;
2142634734039;-9.0383;-1.1821;1.3756;
2142644830966;-9.7663;-0.6766;-2.8980;
2142654938987;-10.7533;-1.0190;-4.6777;
2142665046956;-7.6367;-0.3147;-4.4094;
2142675158258;-10.5784;-0.9664;-4.0573;
2142685266279;-8.4849;1.3023;-2.7733;
2142695374248;-5.1503;0.3224;-5.3103;
2142705486383;-13.0098;-0.3461;-5.9234;
2142715594404;-9.1364;-1.1988;-0.8761;
2142725702373;-0.9413;-0.2931;-2.7350;
2142735801591;-7.1459;-1.2036;-7.3487;
2142745909612;-14.6533;-1.4169;-6.3257;
2142756017581;-12.0398;-0.8465;-2.4452;
2142766125133;-8.3961;-1.3854;-0.2031;
2142776233154;-10.7916;-0.8608;-3.5877;
2142786341123;-12.4014;-1.8000;-3.2668;
2142796456383;-7.0929;-1.4097;-0.3969;
2142806564404;-2.2660;-0.3365;-4.3496;
2142816672373;-10.7653;-0.8608;-6.1008;
2142826787633;-13.1608;0.6864;-4.0980;
2142836895654;-10.2215;1.0101;-1.8344;
2142847003623;-7.5266;0.3129;-0.0185;
2142857107529;-6.1851;-0.3051;-1.5108;
2142867215550;-11.9560;-1.0382;-6.0574;
2142877323519;-13.6496;-1.8383;-1.6953;
2142887433571;-4.3190;0.2387;1.6223;
2142897541591;-3.9742;-0.0200;-3.8201;
2142907649560;-14.0255;-1.4022;-7.7273;
2142917757216;-13.7572;-1.2754;-3.5853;
2142927865237;-9.3616;1.4698;-1.7456;
2142937973206;-8.6955;-0.3987;-3.1134;
2142948072529;-10.2861;-1.4862;-3.0535;
2142958180550;-11.2995;0.4636;-0.2222;
2142968288519;-6.9541;1.0890;2.7796;
2142978396487;-5.1144;0.9715;-2.0859;
2142988504508;-10.6576;-1.9630;-7.7967;
2142998612477;-10.0298;-0.2429;-6.3209;
2143008738154;-5.9001;1.0675;-2.9818;
2143018846175;-7.8787;0.9476;-4.4022;
2143028954144;-12.2387;0.0565;-5.6336;
2143039041175;-13.3573;-0.5638;-3.5399;
2143049149196;-10.8467;0.7753;2.1852;
2143059257164;-4.5586;0.2554;0.3263;
2143069367216;-7.4118;0.0398;-3.6141;
2143079475237;-10.7462;-0.4178;-7.2290;
2143089583206;-11.4506;0.8710;-5.4419;
2143099695029;-9.4813;0.5166;-3.1998;
2143109803050;-8.6548;0.3081;-2.4093;
2143119911019;-11.8193;-1.7306;-2.1170;
2143130035966;-8.3243;-0.1974;-1.6140;
2143140143987;-12.0326;-0.5088;-0.7301;
2143150251956;-10.6840;0.0541;-0.2868;
2143160340758;-9.4860;-0.5566;-0.1983;
2143170448779;-9.9652;0.7466;-3.1950;
2143180556748;-11.4410;0.1977;-2.9387;
2143190667737;-8.9542;0.0996;-3.2788;
2143200775758;-8.8274;0.1570;-3.7220;
2143210883727;-2.3955;-0.7484;-4.9412;
2143220988050;-4.3310;-0.6598;-8.5609;
2143231096071;-9.3162;0.2626;-7.4351;
2143241204039;-5.1191;0.2698;-5.4658;
2143251318102;-3.3945;-0.1950;-4.0310;
2143261426071;-9.6945;-1.1677;-7.1692;
2143271534039;-19.0107;-1.2849;-4.2467;
2143281636123;-16.4402;-1.5030;2.9877;
2143291744144;-11.1488;-1.8072;5.7691;
2143301852112;-7.9914;-2.1257;1.3181;
2143311982633;-7.8787;-0.8994;-2.9243;
2143322090654;-10.2431;-1.0143;-6.1534;
2143332198623;-10.4516;-0.7244;-3.3697;
2143342278987;-6.4941;0.6625;-4.2467;
2143352387008;-9.8097;1.5586;-5.0587;
2143362494977;-10.5688;1.6448;-0.3203;
2143372620446;-5.6629;2.0880;2.0824;
2143382728466;-8.1470;-0.1854;-1.4677;
2143392836435;-10.2838;-1.0597;-1.1037;
2143402961175;-9.1077;-0.4705;-1.2930;
2143413069196;-9.1053;-0.6981;-6.5007;
2143423177164;-8.4897;-1.0095;-9.4735;
2143433271591;-12.7199;-0.4848;-11.0091;
2143443379612;-11.7380;-0.3242;-4.6370;
2143453487581;-4.9155;-0.8898;-1.0175;
2143463608831;-6.9613;-1.4886;-1.3504;
2143473716800;-9.4071;-1.0454;-1.6331;
2143483824769;-13.6950;0.6027;-2.4835;
2143493908050;-11.9318;1.1393;4.2885;
2143504016071;-10.3774;0.9643;2.9758;
2143514124039;-11.2373;-0.0730;-1.6331;
2143524230446;-9.7639;-1.0980;-2.7494;
2143534338466;-8.2214;-0.4298;-4.1841;
2143544446435;-8.6237;-0.1519;-6.3739;
2143554559508;-9.9102;0.7681;-7.4997;
2143564667529;-6.9924;1.4100;-5.7245;
2143574775498;-2.7715;0.8710;-3.6814;
2143584892008;-8.1924;1.2254;-7.5619;
2143595000029;-15.4511;0.9021;-4.5508;
2143605107998;-9.5366;1.0699;0.8581;
2143615213258;-4.4533;-0.0511;-0.5527;
2143625321279;-10.4994;-1.1052;-3.5447;
2143635429248;-13.0364;-1.5796;-2.8669;
2143645532841;-9.2560;-1.0765;-3.1998;
2143655640862;-8.4105;-1.3974;-3.7579;
2143665748831;-9.9197;-0.5255;-4.4743;
2143675856904;-12.5644;0.2506;-4.6107;
2143685964977;-11.0527;0.4878;-0.2797;
2143696073050;-6.8151;0.5309;0.8653;
2143706165341;-7.0355;-0.4322;-1.3935;
2143716273414;-8.6955;-0.4753;-0.6532;
2143726381487;-6.0221;0.2961;-1.6714;
2143736506383;-9.2489;0.6194;-6.6685;
2143746614456;-12.9595;0.3272;-7.6914;
2143756722529;-8.0776;-0.4322;-3.9520;
2143766819873;-6.1205;-0.6455;-3.0105;
2143776927894;-9.3784;-2.0348;-5.1090;
2143787035966;-13.3095;-1.0932;-4.0334;
2143797170341;-13.9394;-0.9568;0.9948;
2143807278362;-11.2277;0.1307;1.2033;
2143817386435;-6.8366;-1.7330;-0.2486;
2143827470341;-10.8515;-1.8072;-2.6489;
2143837578414;-13.5081;-0.1352;-2.0450;
2143847686487;-9.9796;0.1810;-0.9479;
2143857794091;-5.2436;-0.0344;-1.1085;
2143867902164;-3.2483;-0.8058;-4.3519;
2143878010237;-5.5959;-0.5710;-8.0602;
2143888136696;-9.4860;0.5692;-8.6471;
2143898244769;-8.1206;0.3272;-4.3711;
2143908352841;-8.2741;1.8508;-3.9230;
2143918443258;-8.1494;-0.7747;-4.7689;
2143928551331;-10.8419;-0.5973;-4.3639;
2143938659404;-9.5988;-0.1448;-2.5289;
2143948766175;-9.5124;-1.5365;-2.9267;
2143958874248;-12.3033;-1.6609;-1.5132;
2143968982321;-10.9810;-1.1195;-0.2103;
2143979086696;-12.1451;-1.0645;-1.5446;
2143989194769;-10.0923;-0.2022;-0.4834;
2143999302841;-9.4837;-0.3147;0.5157;
2144009404300;-9.6299;-0.3170;0.8557;
2144019512373;-7.5769;-0.0344;2.0752;
2144029620446;-8.7341;0.6960;-2.1099;
2144039740966;-9.1077;0.5740;-3.9449;
2144049849039;-8.4105;2.4712;-5.5451;
2144059957112;-10.8996;1.2422;-5.1664;
2144070064873;-9.6036;0.7466;-3.3769;
2144080172946;-9.4430;-0.4848;-3.7005;
2144090281019;-8.2837;-1.1677;-4.4839;
2144100396800;-6.8991;-1.6202;-4.1578;
2144110504873;-8.5639;-0.2716;-4.4767;
2144120612946;-10.0851;-0.3003;-3.6766;
2144130725341;-11.4745;-0.7699;-2.6177;
2144140833414;-8.5854;-0.2572;-0.3108;
2144150941487;-8.1685;-0.6502;-1.9445;
2144161037216;-15.7265;-0.3580;-2.3447;
2144171145289;-9.1771;0.1259;0.1540;
2144181253362;-4.4435;0.8853;-0.9072;
2144191354144;-7.0259;0.2100;-3.5112;
2144201462164;-8.0082;-0.0033;-6.4193;
2144211570237;-11.4024;1.1776;-7.8422;
2144221693466;-15.0532;1.4267;-4.0286;
2144231801539;-9.0048;0.0350;0.0126;
2144241909560;-9.0120;0.8064;-0.6556;
2144251990446;-8.6524;-1.7115;0.6356;
2144262098519;-5.3874;-1.0980;-1.2595;
2144272206591;-8.9327;-1.2945;-5.4873;
2144282324196;-11.5774;0.1953;-5.1832;
2144292432269;-7.8476;0.8997;-2.3276;
2144302540341;-8.2430;0.4854;-4.5461;
2144312643779;-11.7284;-0.8874;-3.2261;
2144322751852;-10.0899;-0.1591;-0.4137;
2144332859925;-8.2980;0.0613;-0.8880;
2144342983779;-10.2598;-0.7579;-0.2438;
2144353091852;-9.0120;-0.2524;-2.0498;
2144363199925;-13.4100;-0.4872;-4.7040;
2144373312216;-11.8792;-0.1902;-2.3590;
2144383420289;-4.9657;-0.6479;-2.0115;
2144393528362;-9.8336;-1.1749;-6.3763;
2144403632946;-11.1703;0.6721;-2.7565;
2144413741019;-8.0824;1.4985;0.9948;
2144423849091;-8.8753;-0.2333;-0.3514;
2144433942841;-9.0120;-0.6072;-2.1769;
2144444050914;-9.5195;-0.1519;-4.3639;
2144454158987;-11.9318;-0.0057;-5.3438;
2144464282008;-10.3846;-1.0382;-3.0272;
2144474390081;-5.3850;-0.5375;-4.0860;
2144484498154;-8.0704;-1.4264;-5.9330;
2144494602112;-10.1880;-1.7115;-4.8574;
2144504710185;-7.6152;-1.0334;-4.9316;
2144514818258;-9.7161;-0.3338;-5.2840;
2144524928675;-10.9977;-0.1519;-2.6130;
2144535036748;-11.0791;-0.2477;1.3684;
2144545144821;-7.6415;-0.6861;-0.2940;
2144555255341;-9.2273;-1.3591;-2.6560;
2144565363414;-10.0899;-0.0969;-4.5628;
2144575422737;-7.5601;0.0733;-3.6045;
2144585530758;-6.5779;-0.3338;-3.7436;
2144595638831;-10.5138;-0.9808;-6.4385;
2144605796852;-14.3994;-0.5925;-4.5772;
2144615904925;-7.0044;-0.5160;0.7504;
2144626012998;-5.7586;-0.9616;-1.6570;
2144636120966;-15.8964;-0.5686;-5.3892;
2144646229039;-8.7628;-0.3338;1.1145;
2144656337112;-4.2401;-0.5853;0.2354;
2144666438466;-8.7485;-0.2764;-6.4768;
2144676546539;-11.6276;-0.0368;-6.1056;
2144686654612;-9.6538;-0.0488;-2.6536;
2144696753623;-11.7284;-0.6598;-3.2166;
2144706861696;-7.6511;-0.5327;-1.8344;
2144716969769;-6.7792;-2.0204;-1.3792;
2144727085862;-10.1282;-1.8479;-1.7934;
2144737193935;-9.3784;-1.8144;-2.8837;
2144747302008;-13.5344;-1.1243;-4.9627;
2144757404716;-10.6672;-0.9927;-1.7001;
2144767512789;-4.3717;0.0996;-0.8354;
2144777620862;-8.7317;-0.4131;-6.8551;
2144787723519;-13.7764;-2.1401;-3.6236;
2144797831591;-11.3641;0.1546;0.5013;
2144807939664;-11.1221;1.3549;0.2091;
2144818067269;-9.9221;-0.3437;-0.6772;
2144828175341;-8.0154;-1.0813;-3.0751;
2144838283414;-7.8380;-0.7244;-4.9890;
2144848392008;-8.9686;-1.3184;-2.6943;
2144858500081;-8.9614;-0.2142;-3.9712;
2144868608154;-9.9820;1.5443;-6.1415;
2144878702633;-10.9786;-0.3556;-1.9636;
2144888810706;-7.5577;0.3966;-2.2726;
2144898918779;-7.8260;-0.3027;-2.8741;
2144909026904;-7.8954;-0.3580;-3.6981;
2144919134977;-10.0226;0.1642;-3.3649;
2144929243050;-10.2407;-0.0655;-3.6428;
2144939350133;-8.2813;-0.1950;-4.5245;
2144949458206;-10.1833;-0.8803;-4.6537;
2144959566279;-11.1269;0.0422;-2.4739;
2144969685966;-12.6673;-0.0511;0.3888;
2144979794039;-11.8146;0.8518;0.7863;
2144989902112;-8.1757;0.6003;2.0895;
2145000001800;-7.4836;0.9858;-0.2821;
2145010109873;-8.9614;0.2841;-4.4142;
2145020217946;-5.4592;0.6721;-7.2673;
2145030324300;-8.0058;0.5333;-6.6108;
2145040432373;-11.2253;1.4171;-3.2022;
2145050540446;-10.6600;1.1512;-1.2114;
2145060649925;-9.3999;-0.3556;-1.7025;
2145070757998;-7.4859;-0.4968;-3.0727;
2145080866071;-9.0000;-0.1878;-4.5317;
2145090979821;-12.5142;0.3488;-2.7805;
2145101087894;-9.4334;-0.1974;-1.2377;
2145111195966;-8.3435;-0.4442;-2.6608;
2145121294664;-10.5281;-0.5542;-4.1650;
2145131402685;-8.4778;-0.2907;-1.7527;
2145141510758;-8.7509;-0.0224;-2.7063;
2145151626696;-11.5965;-0.3123;-0.7277;
2145161734769;-8.1254;0.1451;1.5601;
2145171842789;-7.6920;-0.8106;-2.6321;
2145181945758;-10.1067;-0.4609;-6.5342;
2145192053831;-10.8586;-0.9664;-5.1497;
2145202161904;-11.1727;-0.1567;-3.2501;
2145212260758;-6.7505;-0.0897;-1.5278;
2145222368831;-8.1063;-0.2596;-3.3482;
2145232476904;-10.2120;-0.9114;-4.5126;
2145242621904;-6.1421;-0.0583;-2.5935;
2145252729977;-7.2440;-0.7651;-4.5437;
2145262838050;-11.8433;-0.9138;-4.3137;
2145272933571;-8.2454;-0.0682;-0.8904;
2145283041644;-8.4826;-1.5317;-1.3265;
2145293149716;-10.9857;-1.1605;-3.2261;
2145303269612;-11.6396;-0.6885;-1.1970;
2145313377685;-13.6711;-0.6239;-2.7182;
2145323485758;-11.5702;-0.8273;-0.2629;
2145333558258;-8.1182;-0.6383;1.5482;
2145343666331;-9.5701;-0.9903;-2.7302;
2145353774404;-7.5242;-0.4298;-3.1687;
2145363887216;-6.9996;-0.3867;-3.3338;
2145373995289;-11.2086;-0.0802;-3.9350;
2145384103362;-7.3397;0.4660;-1.3983;
2145394201800;-8.7772;-0.2022;-2.9554;
2145404309873;-12.7056;-0.9018;-4.1052;
2145414417946;-12.6051;-0.7627;-2.0617;
2145424533050;-9.7543;0.3248;-2.7900;
2145434641123;-7.3445;-0.9401;-3.7603;
2145444749196;-6.6212;-0.9808;-5.6432;
2145454867529;-9.5533;-0.4178;-6.0718;
2145464975602;-10.0466;0.0470;-3.5830;
2145475083675;-7.9484;0.4014;-2.3252;
2145485182112;-10.1091;0.2913;-2.4284;
2145495290185;-9.2321;0.4831;-0.9502;
2145505398258;-8.5950;0.0302;-1.6427;
2145515515185;-9.2803;-0.8225;-2.5026;
2145525623258;-8.8131;-0.7316;-3.3864;
2145535731331;-9.2731;-0.4442;-6.3329;
2145545825029;-9.4310;-0.4202;-6.1702;
2145555933102;-10.6170;0.3583;-3.5207;
2145566041123;-11.0671;0.5955;-1.3433;
2145576176487;-8.3028;0.0350;0.2593;
2145586284977;-7.1937;0.6314;-1.5036;
2145596393519;-10.6576;0.1235;-2.6010;
2145606490029;-9.4669;-0.2405;-1.2209;
2145616598519;-8.6261;-1.0310;-1.8296;
2145626707060;-10.2814;-0.9209;-4.3304;
2145636811591;-10.6361;-0.0826;-4.0502;
2145646920081;-7.0211;0.3009;-3.3027;
2145657028623;-8.6620;0.3511;-3.9999;
2145667128466;-9.5533;0.3559;-3.2333;
2145677237008;-9.1460;0.7872;-1.5251;
2145687345498;-7.5027;0.5931;-3.4178;
2145697453675;-7.6032;-0.0849;-5.6623;
2145707562164;-12.7705;-0.1998;-4.1937;
2145717670706;-13.0603;-0.4513;0.2139;
2145727779508;-9.1819;-0.4346;0.0676;
2145737888050;-8.8777;-1.3424;-2.5361;
2145747996539;-9.7328;-1.6756;-3.2309;
2145758096487;-7.1913;-0.2477;-3.7196;
2145768204977;-7.4859;0.6003;-3.7292;
2145778313466;-9.7807;1.0460;-1.7985;
2145788418831;-10.3558;0.7968;-2.0354;
2145798527321;-9.7926;-0.0200;-3.4896;
2145808635810;-10.2933;0.6601;-3.7962;
2145818767737;-12.2267;0.3009;-1.6786;
2145828876227;-7.7088;-0.9162;0.3649;
2145838984769;-5.1144;-1.8239;-4.4094;
2145849071591;-11.0743;-1.6633;-8.2328;
2145859180081;-12.3631;-0.0153;-3.7651;
2145869288623;-8.7027;0.8662;-0.0999;
2145879399404;-8.7915;0.2219;-1.6570;
2145889507946;-8.8561;-0.3628;-0.5958;
2145899616435;-7.8787;-0.3051;-0.3395;
2145909719716;-7.8835;-0.4872;-3.5614;
2145919828206;-10.7151;-0.4944;-5.2262;
2145929936748;-10.1689;-0.7436;-3.8704;
2145940042685;-8.6620;-0.2261;-3.1807;
2145950151123;-8.4464;-1.4503;-5.0515;
2145960259664;-10.6457;-0.3915;-4.0310;
2145970373362;-8.1517;-0.2094;-1.4174;
2145980481904;-4.9322;-0.2835;-2.4165;
2145990590394;-10.1282;-0.6072;-3.7699;
2146000698571;-14.9097;0.1977;-1.4318;
2146010807060;-13.0173;0.5333;1.0522;
2146020915602;-6.4893;-1.1315;0.4032;
2146031009456;-8.6524;-1.0621;-3.6619;
2146041117894;-10.1282;-2.4060;-3.7460;
2146051226435;-10.1952;-0.4346;-1.9899;
2146061352841;-8.6309;-0.3338;-1.0032;
2146071461331;-7.8715;0.4974;-4.5078;
2146081569873;-7.6008;-0.7938;-5.0133;
2146091673987;-8.2789;0.7944;-3.5806;
2146101782477;-8.8561;-0.3099;-1.5156;
2146111891019;-9.9461;0.4349;-1.8679;
2146122011956;-10.1378;-0.9497;-3.0105;
2146132120394;-10.6624;-0.7268;-5.7963;
2146142228987;-11.3809;-1.3496;-4.9771;
2146152307373;-9.0287;-0.8106;-0.6604;
2146162415862;-7.5506;-1.8383;-0.7804;
2146172524404;-11.1102;-0.9855;-3.1325;
2146182662581;-12.9284;-0.1280;-1.6451;
2146192771071;-8.2645;0.8925;0.0173;
2146202879612;-7.6777;-0.0105;-0.5240;
2146212948154;-7.5506;0.2339;-3.8177;
2146223056644;-8.8920;-0.3724;-2.8642;
2146233165185;-7.4429;0.6817;-4.3902;
2146243299039;-8.8107;-0.1639;-7.1019;
2146253407477;-12.6864;-0.2740;-5.9067;
2146263516019;-9.3951;-0.2405;-1.5350;
2146273635081;-8.0656;-1.0478;-2.4643;
2146283743519;-10.9283;-0.9401;-2.6441;
2146293852060;-8.4224;-0.3628;-1.1109;
2146303941591;-8.6764;-0.3963;-3.1014;
2146314050133;-13.5562;-0.1184;-2.6034;
2146324158623;-9.3449;0.3057;-0.8306;
2146334255185;-5.9575;0.8183;-0.7995;
2146344363675;-6.2282;-0.3147;-3.4394;
2146354472216;-7.9265;-0.3867;-5.3175;
2146364580654;-10.0011;-0.2309;-2.8235;
2146374689144;-9.7089;0.7271;-3.1134;
2146384797685;-11.5415;0.0111;-4.3687;
2146394909300;-11.3713;-0.4825;-2.6824;
2146405017789;-8.8633;-0.1711;-1.6092;
2146415126331;-7.7064;-0.5471;-2.3109;
2146425232529;-6.1995;-0.4609;-3.1277;
2146435341019;-9.0287;-1.1219;-3.0559;
2146445449560;-14.4616;-0.2835;-3.9808;
2146455557841;-13.6496;0.7370;0.0150;
2146465666331;-8.3267;0.1594;3.8288;
2146475774873;-8.0393;-0.8010;0.9541;
2146485879612;-11.0791;-1.1076;-2.7087;
2146495988102;-13.4291;-0.8249;-2.6465;
2146506096644;-4.4459;-0.2692;-3.4609;
2146516207737;-1.2912;-0.3700;-8.8005;
2146526316227;-8.3530;-1.3735;-10.2138;
2146536424769;-13.8003;-0.7555;-4.0214;
2146546551696;-12.3631;3.2043;1.6223;
2146556660185;-6.5755;1.2182;1.0092;
2146566768727;-8.2382;-2.1640;-3.9520;
2146576861019;-9.6299;-2.1185;-5.8971;
2146586969091;-9.2178;-1.1339;-4.3400;
2146597077112;-10.1833;-0.7938;-3.4322;
2146607179716;-9.6754;-1.3663;-3.3840;
2146617287789;-10.2287;-0.8058;-3.7555;
2146627395810;-12.8662;-0.7747;-1.3528;
2146637497216;-10.7557;0.0470;5.6468;
2146647605289;-8.1613;1.2111;6.0206;
2146657713310;-9.0574;-0.8489;-0.8091;
2146667816487;-10.5784;-1.0095;-7.9020;
2146677924560;-7.7686;-0.5495;-6.9488;
2146688032581;-5.1933;-2.4251;-5.5137;
2146698140862;-9.9628;-1.5580;-6.1582;
2146708248935;-9.2489;0.5261;-2.8837;
2146718356956;-7.3038;1.9585;-1.5108;
2146728487112;-9.6682;-0.7244;-3.0272;
2146738595185;-10.6983;-0.7555;-3.9326;
2146748703206;-9.2417;-0.6598;-2.2128;
2146758790446;-7.1530;-0.4226;-1.4079;
2146768898519;-10.8108;-1.1557;-4.8957;
2146779006539;-14.3058;-1.3424;-3.6718;
2146789114404;-12.0326;-0.4202;0.7074;
2146799222477;-13.0002;-0.1687;1.9651;
2146809330498;-3.2004;-0.5160;0.9182;
2146819446904;-4.2353;-0.7388;-3.3577;
2146829554977;-13.9394;-0.2692;-7.1115;
2146839662998;-9.5964;1.4459;-0.4666;
2146849762529;-3.9766;1.7644;-0.4881;
2146859870602;-16.6271;0.6553;-7.9068;
2146869978623;-20.1317;0.4038;-2.4476;
2146880091800;-3.5644;1.5224;5.2971;
2146890199873;-1.6026;-0.3580;-3.5686;
2146900307894;-13.7764;-2.9545;-11.9746;
2146910415029;-11.7165;-1.7713;-4.6155;
2146920523102;-6.2258;1.1130;0.2641;
2146930631123;-9.9987;2.0255;-2.8044;
2146940737269;-9.3951;1.2808;-1.4438;
2146950845341;-8.6285;0.8471;-0.8713;
2146960953362;-8.8370;1.0627;-3.3386;
2146971062633;-5.3970;0.5835;-2.4212;
2146981170706;-5.9169;0.1044;-7.2601;
2146991278727;-12.6697;-0.4753;-11.9169;
2147001392998;-17.4823;0.0182;-3.8465;
2147011501019;-11.4171;1.9274;4.8586;
2147021609039;-1.3032;-0.2309;1.8547;
2147031708466;-5.5648;-1.2826;-6.4576;
2147041816487;-10.0346;-0.1113;-5.8083;
2147051924560;-10.1354;2.3898;0.8031;
2147062044977;-14.6124;2.0833;0.3431;
2147072152998;-14.2723;0.8207;-0.9263;
2147082261019;-7.3756;-0.1687;0.3000;
2147092363050;-8.1063;-1.1052;-1.0463;
2147102471123;-14.3297;-0.8755;-3.1639;
2147112579144;-11.4171;0.5955;-0.0688;
2147122666852;-3.5189;-0.2835;-1.6546;
2147132774925;-8.4634;-0.9832;-10.8867;
2147142882946;-9.4310;-0.6814;-7.1883;
2147153024925;-6.5085;2.1120;1.2870;
2147163132998;-8.2214;1.6448;0.5204;
2147173241019;-12.1092;0.1714;-4.0549;
2147183346071;-13.2111;-0.7842;-5.7221;
2147193454144;-9.5267;-1.7737;-3.9135;
2147203562164;-5.7084;-2.1329;-2.7685;
2147213640237;-7.4261;-0.4490;-6.4241;
2147223748310;-9.9269;-0.9951;-6.3619;
2147233856331;-13.5464;0.1140;-3.0009;
2147243982946;-11.6830;0.3918;0.6763;
2147254091019;-9.8336;-0.5638;2.6142;
2147264199039;-7.5721;-0.2333;2.7939;
2147274297946;-8.6668;-0.5614;-0.6628;
2147284406019;-8.4440;-0.7914;-3.8847;
2147294514039;-9.7472;0.2076;-6.3209;
2147304633050;-11.3234;-0.7340;-6.1487;
2147314741123;-10.7533;0.2195;-4.8144;
2147324849144;-6.3721;-0.9903;-1.9588;
2147334962425;-6.9517;-0.2812;-1.8488;
2147345070498;-11.0695;-1.2179;-3.4825;
2147355178519;-11.2732;-0.3027;-2.7039;
2147365278779;-8.6955;-1.1988;-0.9359;
2147375386852;-9.4980;0.0685;-3.1472;
2147385494873;-9.5148;-1.4623;-3.5160;
2147395599404;-6.7337;-1.0095;-2.9650;
2147405707477;-7.4620;-1.3256;-2.7254;
2147415815498;-10.6959;-0.5949;-4.6346;
2147425933571;-10.3558;-1.0214;-3.2501;
2147436041644;-8.0345;-0.0392;-1.0104;
2147446149664;-10.3415;-0.0440;-2.6752;
2147456257633;-9.2707;-1.0238;-2.6345;
2147466365706;-9.4597;0.2315;-2.6728;
2147476473727;-8.7772;-1.1291;-2.8618;
2147486569612;-10.2885;-0.7842;-3.0081;
2147496677685;-9.0622;-0.3147;-2.7350;
2147506785706;-7.3229;-0.3290;-1.2906;
2147516894196;-10.1258;-0.7675;-2.5768;
2147527002269;-10.5951;-0.8225;-0.5240;
2147537110289;-12.3416;-0.7675;0.0461;
2147547244300;-18.6057;-0.8560;-1.1707;
2147557352373;-19.1928;-1.5221;3.4717;
2147567460394;1.1091;-1.8239;3.4741;
2147577544612;8.7317;-1.0023;-8.1129;
2147587652581;-4.4653;-0.0009;-17.6925;
2147597760498;-13.1943;-1.7952;-8.2950;
2147607857008;-24.2928;0.5309;2.2597;
2147617964977;-23.5884;4.4617;7.6304;
2147628072894;5.2941;-0.8946;7.2159;
2147638185550;12.2339;-4.4973;-9.6317;
2147648293519;-5.4114;-2.0779;-24.6682;
2147658401435;-17.0800;-1.8718;-12.1708;
2147668521435;-21.3751;0.2913;4.5951;
2147678629404;-21.4923;4.1240;0.0150;
2147688737321;-7.7064;-0.4250;6.0613;
2147698832685;5.2606;-1.3280;11.6333;
2147708940654;-4.7022;-0.2835;2.7529;
2147719048571;-16.6152;0.0015;-6.7857;
2147729195446;-9.9844;-2.2047;-9.7322;
2147739303414;-11.1197;-0.6191;-15.9078;
2147749411331;-18.8405;0.3607;-0.1286;
2147759485654;-4.5682;2.9432;15.6936;
2147769593623;-1.4994;2.6509;7.6448;
2147779701539;-11.1197;-1.2586;-12.5590;
2147789809716;-16.2221;-2.8732;-15.2300;
2147799917685;-13.8820;-0.9329;-2.7661;
2147810025602;-6.7576;0.8447;4.1593;
2147820138883;-5.4257;-0.0081;0.2330;
2147830246852;-5.3109;-2.1520;-5.0635;
2147840354769;-6.9924;-0.8898;-7.8829;
2147850460133;-9.4478;0.5309;-5.3605;
2147860568102;-8.9447;0.6505;-2.5935;
2147870676019;-11.6949;1.3765;-4.3448;
2147880780029;-11.4458;0.5572;-2.9985;
2147890887998;-9.6586;-0.4872;0.1947;
2147900995914;-11.6181;0.8614;-1.6140;
2147911098883;-12.8830;-0.9473;-2.9387;
2147921206852;-11.7930;-0.6455;-1.4844;
2147931314769;-6.4989;0.2937;2.3171;
2147941466383;-4.0986;0.6170;-1.2954;
2147951574352;-11.7428;0.3416;-4.9364;
2147961682269;-11.3306;0.9523;-1.1755;
2147971738050;-9.8982;1.5754;0.8581;
2147981845966;-9.7496;0.2435;-0.6915;
2147991953935;-6.5659;-0.5518;-5.1329;
2148002082998;-7.2655;-0.7819;-7.9669;
2148012190966;-7.0259;-0.4155;-5.9785;
2148022298883;-4.7527;-0.0873;-7.7632;
2148032418883;-8.1063;-0.7795;-8.0746;
2148042526852;-13.0436;-0.1424;-4.1722;
2148052634769;-11.9342;0.1379;1.1506;
2148062773883;-10.2311;-0.1017;3.2345;
2148072881852;-8.0345;-1.6370;2.6644;
2148082989769;-4.9875;-2.5020;-2.0450;
2148093050446;-7.2631;-1.8359;-6.7092;
2148103158414;-19.3771;-0.9951;-6.4505;
2148113266331;-19.4345;0.9619;4.4611;
2148123371435;-2.7739;0.9523;7.4626;
2148133479404;-3.4687;-0.7316;-3.0248;
2148143587321;-13.4291;-1.2108;-5.3007;
2148153698935;-8.5161;0.8830;-0.6197;
2148163806904;-6.3841;0.9188;-3.4322;
2148173914821;-4.5826;0.8327;-8.8723;
2148184025185;-11.7069;-0.7220;-8.1105;
2148194133154;-16.2150;0.6601;-2.8717;
2148204241071;-9.3209;-0.8489;3.2680;
2148214337008;-8.5424;-0.8680;3.1196;
2148224444977;-10.1737;-1.4551;-3.2213;
2148234552894;-9.3305;-3.9057;-5.4371;
2148244667529;-7.6681;-0.3676;-4.2443;
2148254775498;-8.4177;-0.0849;-2.5026;
2148264883414;-14.8615;0.7729;-1.7527;
2148274987529;-10.7007;0.8136;-0.8521;
2148285095498;-5.0904;0.5166;0.5037;
2148295203414;-2.6327;0.0829;1.1626;
2148305320862;-11.0169;-0.1878;-8.0148;
2148315428831;-18.1795;0.4253;-8.8938;
2148325536748;-4.2066;1.0962;0.6691;
2148335649716;-3.4854;0.8399;-5.2262;
2148345757685;-14.3201;-1.8263;-9.0425;
2148355865602;-8.7867;-0.4107;-1.4964;
2148365985133;-7.2751;0.6960;1.7997;
2148376093102;-8.9279;-0.2166;0.3383;
2148386201019;-9.0574;-0.8970;-3.4274;
2148396294196;-9.9867;-0.7077;-3.9592;
2148406402164;-9.7041;0.6099;0.3673;
2148416510081;-10.3487;0.9093;0.4941;
2148426621383;-14.0351;-0.9018;-2.2654;
2148436729352;-19.1542;-0.0778;-0.7756;
2148446837269;-10.7653;0.5285;6.2336;
2148456935029;-0.3544;-1.7521;-0.2892;
2148467042998;-11.3617;-2.2047;-11.1649;
2148477150914;-8.8466;0.5835;-3.4609;
2148487254821;-4.9753;-0.9353;1.8428;
2148497362789;-9.4908;0.6912;-5.6599;
2148507470706;-9.6060;-0.5542;-6.0311;
2148517595862;-9.8288;-0.7316;-2.9435;
2148527703831;-7.1097;-0.0153;-2.4452;
2148537811748;-7.3636;-1.4527;-5.6216;
2148547933935;-9.1364;-0.9114;-9.8928;
2148558041904;-12.8973;-1.6226;-9.1478;
2148568149821;-12.1738;-0.4418;-2.8499;
2148578225237;-11.3450;-0.4968;2.6453;
2148588333154;-8.8250;-1.2395;5.0958;
2148598441019;-7.5625;-1.4288;2.6213;
2148608578571;-11.5726;0.1211;-1.6977;
2148618686487;-13.8939;0.7585;0.9039;
2148628794404;-4.1994;-0.3413;1.2942;
2148638893883;-7.4189;0.4158;-6.6254;
2148649001800;-13.5826;0.2001;-7.7584;
2148659109716;-7.8332;0.2794;-3.3625;
2148669205029;-7.4333;-0.2572;-5.6695;
2148679312946;-11.0791;-0.4585;-4.4839;
2148689420810;-7.1097;-0.7986;-1.4151;
2148699531071;-10.3077;-1.1940;-2.5576;
2148709638987;-11.2014;-0.8827;-2.7805;
2148719746852;-6.9661;-0.0392;-0.6221;
2148729857008;-4.7169;-1.1315;-1.9660;
2148739964925;-11.3163;-1.1605;-6.9679;
2148750072789;-11.7571;-0.8034;-2.5911;
2148760173675;-8.2095;0.5524;-1.0128;
2148770281591;-12.8686;0.0015;-2.6465;
2148780389456;-11.2493;-0.1591;-0.4137;
2148790500966;-8.1159;-0.8201;1.0977;
2148800608883;-8.2478;-0.4968;-2.2869;
2148810716800;-10.7414;-0.6144;-3.7890;
2148820828258;-9.9150;0.4878;-4.6466;
2148830936175;-10.0155;-0.8994;-1.7240;
2148841044039;-8.2837;0.8040;-0.8809;
2148851158466;-6.1564;-0.5495;-2.4452;
2148861266383;-8.2573;-0.0826;-5.8110;
2148871374300;-7.9316;-0.0392;-4.4886;
2148881514091;-6.1636;0.1020;-3.6141;
2148891622008;-6.8127;-0.8489;-5.3103;
2148901729925;-7.7423;0.5740;-6.1965;
2148911786383;-5.5409;0.7633;-5.3677;
2148921894300;-2.4194;-0.3266;-4.6872;
2148932002164;-5.3372;-0.3170;-5.7006;
2148942173571;-44.3070;-1.1964;2.7915;
2148952281487;-42.4579;-0.3485;21.3685;
2148962389404;9.3640;2.6318;20.5397;
2148972445654;12.1235;-2.7727;-11.9527;
2148982553571;-11.6853;-10.2224;-10.0627;
2148992661435;-12.1738;-0.9449;-2.8717;
2149002758675;-16.0522;3.2713;3.6443;
2149012866591;-11.1918;2.9169;3.6227;
2149022974456;-3.6266;3.4702;-4.8766;
2149033091696;-1.1809;2.0375;-6.9535;
2149043199612;-4.8293;-0.5638;-2.2654;
2149053307477;0.0574;-0.5638;-8.6830;
2149063436956;-14.0758;-3.8698;-36.9308;
2149073544821;-31.7644;-6.0784;-29.4018;
2149083652685;-8.0847;-0.5734;13.0561;
2149093748935;6.1804;2.0136;17.1835;
2149103856852;-9.9987;0.9141;2.3387;
2149113964716;-20.2660;0.7442;2.5711;
2149124087946;-11.6806;-0.9090;6.0757;
2149134195862;-6.8246;-3.5342;-2.2271;
2149144303779;-13.8652;-2.2047;-5.5427;
2149154395602;-2.4960;2.7156;5.0719;
2149164503519;3.8952;1.9226;0.0846;
2149174611435;-7.3373;-0.1400;-20.5167;
2149184720133;-14.2125;-0.4370;-16.7919;
2149194828050;-10.7940;3.2880;3.7208;
2149204935966;-10.2263;3.4702;1.5960;
2149215042633;-14.0686;2.0710;-6.4624;
2149225150550;-7.8667;-0.8130;1.8835;
2149235258466;-4.7815;-1.7785;-0.0425;
2149245374352;-12.4756;-1.7545;-8.0483;
2149255482269;-10.9546;-1.5365;-1.9325;
2149265590185;-7.0331;-0.3724;1.9651;
2149275698258;-8.4464;0.8590;-0.7947;
2149285806175;-6.5037;0.0422;1.6463;
2149295914091;-7.7782;0.7777;2.6668;
2149306020550;-10.9714;1.3262;-1.3600;
2149316128466;-34.7085;0.8136;-1.0845;
2149326236383;-8.5854;1.4554;3.4430;
2149336359404;12.6844;-2.8995;-4.5724;
2149346467321;-2.8337;-5.3548;-19.5826;
2149356575237;-11.0719;-0.6479;-15.0526;
2149366662060;-9.8240;4.1336;4.4539;
2149376769977;-10.4420;7.1255;2.7171;
2149386877894;-7.1097;4.3828;-5.4036;
2149397015029;-7.8380;0.5716;-0.9263;
2149407123287;-14.0880;0.5405;4.0872;
2149417231151;-20.1724;1.6902;4.5066;
2149427313391;-8.5232;0.0182;0.3383;
2149437421307;-14.6940;-3.0840;-17.9130;
2149447529172;-12.3033;-5.5944;-9.9909;
2149457639693;4.3119;-2.2768;13.3244;
2149467747610;-4.2927;2.4999;6.6482;
2149477855526;-14.6294;3.2880;-4.4309;
2149487952766;-11.4099;1.7620;-0.0520;
2149498060682;-13.3525;2.4425;1.5553;
2149508168599;-23.0351;1.8987;1.1049;
2149518288703;-22.5847;-2.0898;3.6634;
2149528396620;-5.1933;-6.1214;0.9589;
2149538504537;1.8182;-4.5811;-10.1611;
2149548602141;-9.2803;-1.5341;-17.2732;
2149558710057;-14.9743;-0.5734;-6.8432;
2149568817922;-2.0264;1.0603;7.8242;
2149578920474;3.3371;4.4139;-2.7182;
2149589028495;-1.1186;1.9131;-11.9722;
2149599136516;0.8216;-0.2788;-8.1607;
2149609245995;7.6178;0.9356;-12.9254;
2149619354016;-10.3582;-0.5183;-19.0890;
2149629462037;-34.1982;0.1235;-18.8662;
2149639577141;-34.2963;-1.5437;0.6906;
2149649685162;-8.2573;-3.5270;19.2748;
2149659793182;4.3789;-3.6757;17.8065;
2149669903026;-12.3057;1.4841;-3.2548;
2149680011047;-14.6845;-0.4657;-0.9431;
2149690119068;-3.3993;-4.5069;11.7864;
2149700223391;-7.4429;-0.2237;4.3077;
2149710331412;-13.2111;0.3511;1.0140;
2149720439432;-10.4444;2.2938;7.6304;
2149730537922;-1.7800;3.2091;13.2838;
2149740645891;4.7073;0.6434;-10.3214;
2149750753860;-20.0504;-2.7341;-47.4877;
2149760864016;-25.3397;-4.0902;-31.9361;
2149770972037;-0.6514;-4.5715;14.1078;
2149781080057;1.9020;5.1398;7.7189;
2149791207818;-11.1727;0.6386;-12.7747;
2149801315787;-17.3004;-2.4634;-1.6834;
2149811423807;-8.3578;0.4110;12.8381;
2149821542453;-6.0559;2.2675;2.9542;
2149831650474;-15.0724;-0.9042;-9.3586;
2149841758495;-11.1583;-2.2839;-2.1769;
2149851830891;-4.9995;-1.2897;3.6945;
2149861938912;-11.0001;-0.6335;-5.6671;
2149872046932;-13.3549;0.4807;-4.0741;
2149882201360;-5.8403;0.6673;0.2426;
2149892309328;-7.3110;0.7585;-4.0884;
2149902417349;-13.1130;1.2565;-5.5810;
2149912483391;-7.8308;1.4339;-1.2520;
2149922591412;-6.4726;2.0542;-2.7541;
2149932699432;-9.6108;0.1379;-5.8875;
2149942810787;-9.9628;-0.5040;-4.5150;
2149952918807;-10.9283;-0.1998;-4.5341;
2149963026828;-11.3928;-1.1028;-2.2247;
2149973144953;-8.2573;-0.5566;-0.5695;
2149983252974;-8.1278;-0.8898;-0.8115;
2149993360995;-11.0527;-2.0013;-0.3156;
2150003461724;-10.0828;-0.5375;0.8773;
2150013569745;-5.8546;-0.0224;-1.0056;
2150023677766;-6.1899;-0.0921;-5.2214;
2150033788599;-9.2130;-0.3290;-5.6695;
2150043896620;-9.7639;-1.3807;-4.4357;
2150054004641;-11.0336;0.0829;-2.7852;
2150064113287;-11.9246;0.1690;-2.6584;
2150074221307;-11.9680;-0.5830;-3.4131;
2150084329328;-11.4697;-0.9808;-0.6604;
2150094438287;-9.9844;-0.7890;1.6606;
2150104546307;-8.8705;-0.3314;0.0990;
2150114654328;-9.3951;-1.0741;-2.2223;
2150124769537;-10.0131;-0.1998;-2.1123;
2150134877557;-8.7963;0.0350;-0.9622;
2150144985578;-8.7963;-0.4848;-1.2811;
2150155082453;-7.4907;-0.5495;-2.4428;
2150165190474;-9.1316;-0.4537;-6.1343;
2150175298495;-9.8958;-1.0071;-5.7150;
2150185410578;-8.7772;-0.0320;-3.3769;
2150195518599;-10.2431;0.1905;-3.3147;
2150205626620;-8.6907;0.0135;-3.4466;
2150215733599;-5.4664;0.0135;-3.5949;
2150225841620;-10.7605;-0.0320;-2.6034;
2150235949641;-14.7802;1.1106;-2.2463;
2150246065578;-12.8255;-0.1519;3.1125;
2150256173599;-5.2678;-0.1807;0.6452;
2150266281620;-5.7203;-0.5542;-4.6155;
2150276385943;-10.0202;-0.0873;-4.5580;
2150286493964;-12.0302;0.7032;-0.8498;
2150296601985;-12.5955;2.1407;1.2176;
2150306725370;-7.6391;1.3190;-2.4141;
2150316833391;-9.7591;0.8207;-3.8512;
2150326941412;-10.1163;0.3344;-1.9923;
2150337049537;-9.2632;-0.7699;-0.9960;
2150347157557;-6.7313;0.5189;-3.3099;
2150357265578;-9.8025;-0.8345;-8.9225;
2150367332557;-12.0518;-0.6096;-7.2410;
2150377440578;-8.4535;0.3535;2.3459;
2150387548547;-7.1985;0.2841;2.1613;
2150397705266;-9.4980;-0.3003;-2.1888;
2150407813287;-7.6391;-1.4480;-3.4178;
2150417921307;-8.9016;-0.7842;-4.1435;
2150428008860;-7.5960;-0.1735;-4.6968;
2150438116880;-7.0427;0.1881;-5.5137;
2150448224901;-5.8642;-1.4982;-5.2047;
2150458329693;-5.9073;-0.9138;-4.6848;
2150468437714;-26.3743;-0.3700;-1.6762;
2150478545735;-24.9036;0.0039;8.8639;
2150488670266;-3.3416;-1.0502;11.0848;
2150498778287;-1.8374;-3.4935;0.0437;
2150508886307;-7.4333;-2.9354;-11.3611;
2150518979849;-9.6562;0.5596;-6.6084;
2150529087870;-8.6285;-0.0153;1.0905;
2150539195891;-7.9484;-0.6311;-0.5240;
2150549288599;-10.4396;0.2387;-5.1162;
2150559396620;-7.5841;0.0063;-3.3697;
2150569504641;-7.4907;-0.1831;-0.4256;
2150579623495;-2.9489;-0.0105;-1.7384;
2150589731620;-9.4190;-1.3208;-17.3836;
2150599839693;-19.0920;-4.1859;-15.1196;
2150609954276;-9.9078;-1.3256;1.4644;
2150620062401;-5.8379;1.3884;2.0512;
2150630170474;-7.7399;-0.5949;1.2033;
2150640275526;-9.7352;-0.8536;3.1460;
2150650383651;-12.2025;-0.1065;2.3028;
2150660491724;-9.6945;0.7633;0.0365;
2150670600474;-9.1340;0.1187;-3.0727;
2150680708599;-11.0432;0.3129;-3.6643;
2150690816672;-11.1799;0.7175;-2.3590;
2150700915057;-8.0871;-0.2261;-3.3218;
2150711023182;-7.0451;-0.3314;-5.3940;
2150721131255;-8.3842;-0.4083;-4.8670;
2150731281203;-8.8466;-0.1472;-4.0071;
2150741389276;-11.0719;-0.6622;-3.6595;
2150751497349;-9.8025;-0.6144;-2.1027;
2150761565162;-8.3172;-0.9855;-2.6584;
2150771673287;-9.4358;-1.0765;-3.3625;
2150781781360;-10.0059;-0.9975;-1.0510;
2150791870578;-9.0479;-0.6670;-0.5934;
2150801978651;-7.4022;-0.3389;-3.4705;
2150812086724;-9.6993;0.2554;-4.7761;
2150822216724;-12.0350;-0.4322;-1.6379;
2150832324849;-6.1828;-0.1974;-0.1358;
2150842432922;-12.8782;-0.0057;-2.7589;
2150852576828;-14.8687;-2.0563;-0.6508;
2150862684953;-5.2173;-1.7258;-0.9239;
2150872793026;-6.6356;-1.3280;-5.1879;
2150882861099;-10.5185;-0.7747;-4.6202;
2150892969224;-8.5878;0.0087;-1.2667;
2150903077297;-8.4009;-0.5782;-1.8296;
2150913204537;-11.5965;-0.2285;-3.6476;
2150923312662;-10.7510;-0.4801;-1.1444;
2150933420735;-8.3172;-0.7196;-0.6269;
2150943525318;-7.6609;-1.3400;-3.6500;
2150953633391;-8.5280;-1.1509;-1.8631;
2150963741464;-10.3702;-1.8670;-6.2061;
2150973838182;-14.0040;-1.4432;-6.0694;
2150983946307;-9.7615;0.1714;2.7027;
2150994054380;-5.5792;-0.1448;0.6595;
2151004150474;-7.4788;-0.6024;-1.7432;
2151014258599;-9.0239;-0.8994;-1.5012;
2151024366672;-9.3018;-0.4322;-3.6332;
2151034489641;-9.7639;-1.1749;-4.8933;
2151044597766;-14.7802;-1.9965;-4.2443;
2151054705839;-11.7906;-1.5006;-1.0008;
2151064842245;-4.9442;-0.8154;0.3120;
2151074950370;-6.7911;-0.8369;-3.6284;
2151085058443;-13.3502;-0.9162;-4.1195;
2151095135943;-11.1317;-0.1280;0.8294;
2151105244068;-8.4512;0.6529;-0.9168;
2151115352141;-6.4080;0.1475;-3.6380;
2151125464224;-9.6036;-0.7316;-3.6069;
2151135572349;-11.9871;-0.5495;-2.9818;
2151145680422;-11.0767;-0.1376;-1.5589;
2151155785057;-6.3793;-0.6072;-1.8799;
2151165893182;-9.2731;-0.6096;-7.6866;
2151176001255;-15.4271;-0.6359;-4.2251;
2151186104120;-9.2560;1.7524;2.8657;
2151196212245;-3.4878;0.5429;-0.1095;
2151206320318;-9.9126;0.6529;-5.2816;
2151216438182;-12.7466;0.7343;-2.7637;
2151226546307;-9.0838;1.1728;-1.6283;
2151236654380;-10.2168;0.1475;-1.6235;
2151246756672;-7.6992;-0.1878;-2.8618;
2151256864745;-6.8919;-0.2548;-4.3998;
2151266972818;-9.8815;0.4950;-4.8957;
2151277090682;-11.8672;0.8997;-2.6560;
2151287198807;-8.8083;1.7333;-1.9014;
2151297306880;-7.2583;1.0866;-2.2917;
2151307409328;-10.9164;0.6170;-2.5481;
2151317517453;-10.3220;0.8949;-1.5251;
2151327625526;-7.9484;0.2243;-1.5132;
2151337732037;-10.4300;-0.3891;-3.9879;
2151347840162;-9.8958;-0.8417;-2.5839;
2151357948235;-8.1087;-0.2979;-2.9148;
2151368073235;-10.9594;-0.1256;-2.3686;
2151378181307;-10.2000;-0.0607;0.1493;
2151388289380;-6.9182;0.1666;-0.2940;
2151398378287;-7.4166;-0.0969;-4.0334;
2151408486412;-10.9140;0.8662;-5.0204;
2151418594485;-11.2995;-0.5375;-1.7480;
2151428704120;-9.2154;-0.1759;-3.0009;
2151438812245;-8.7218;-1.7617;-2.9219;
2151448920318;-9.1938;-1.2826;-3.7244;
2151459021724;-9.4478;-0.7149;-3.0057;
2151469129849;-12.4325;-0.3796;-2.1482;
2151479237922;-9.9293;-0.0921;0.9063;
2151489342037;-8.0824;-0.7412;-1.8368;
2151499450162;-9.7352;-0.4537;-2.3180;
2151509558235;-9.9652;-0.0416;-1.1515;
2151519673182;-10.6696;-0.2548;-2.1769;
2151529781307;-7.1698;-0.9185;-2.5433;
2151539889380;-6.5901;-1.2227;-6.2731;
2151550014953;-9.7543;-0.9425;-5.7891;
2151560123078;-11.8528;-0.2668;-2.7063;
2151570231151;-13.1895;0.1187;-0.1310;
2151580320370;-9.8910;0.8590;0.5180;
2151590428443;-6.5874;-0.7651;-1.4629;
2151600536516;-8.0704;-1.1291;-4.7928;
2151610646932;-12.1594;-0.5016;-4.5365;
2151620755005;-8.2908;0.1355;0.3912;
2151630863078;-8.3602;-0.0320;-3.3745;
2151640962557;-13.1871;-0.8225;-3.9350;
2151651070630;-9.0120;-0.2022;-0.4618;
2151661178703;-6.4247;0.2148;-0.5815;
2151671288339;-9.5390;0.2674;-2.7685;
2151681396360;-9.2082;-0.2716;-4.3615;
2151691504432;-10.5233;0.1116;-3.7268;
2151701614745;-11.5271;0.2602;-3.0775;
2151711722818;-10.2239;0.2913;-2.1242;
2151721830891;-8.9806;-0.2955;-1.3504;
2151731950995;-9.6347;-0.3843;-0.8976;
2151742059068;-9.7352;-0.9616;-0.9984;
2151752167141;-8.2478;-0.5471;-2.1769;
2151762255578;-10.4563;-0.0488;-5.0034;
2151772363651;-13.4937;-0.1807;-1.5398;
2151782471724;-8.9327;0.5740;2.6883;
2151792575266;-7.1507;0.5094;-1.7551;
2151802683339;-8.9231;-0.7364;-5.3916;
2151812791412;-9.0000;-0.6239;-4.1937;
2151822910943;-9.2632;-0.3843;-3.9616;
2151833019016;-11.2875;-0.5088;-4.3543;
2151843127089;-10.2766;-1.2538;-2.8717;
2151853250266;-9.3760;-0.5566;-1.9445;
2151863358339;-11.1823;-0.4944;-2.0330;
2151873466412;-9.4956;-0.1878;-0.1860;
2151883560526;-6.3745;-0.1256;0.1277;
2151893668599;-8.8083;-0.4753;-3.8273;
2151903776672;-10.7127;-0.6861;-5.6886;
2151913901672;-9.2201;-0.3075;-2.2319;
2151924009745;-6.1923;-0.4346;-2.5863;
2151934117818;-9.7950;-1.1844;-3.7771;
2151944190787;-8.9088;-1.0860;-2.7302;
2151954298860;-6.5300;-0.8994;-4.4285;
2151964406932;-8.4535;-0.4777;-5.9976;
2151974536307;-7.6247;-0.3820;-3.1926;
2151984644380;-4.1201;-0.2740;-2.1697;
2151994752453;-4.6161;-0.6933;-4.7641;
2152004855370;-21.5522;-0.9233;-3.2477;
2152014963443;-25.9505;-0.2429;6.8590;
2152025071516;-4.1177;-0.5542;9.8486;
2152035178287;-4.2712;-1.1940;-1.0893;
2152045286360;-4.9394;-3.1199;-8.3883;
2152055394432;-7.2081;-3.1271;-5.7987;
2152065520162;-18.7472;1.3765;-2.1027;
2152075628235;-21.7343;2.8496;6.0254;
2152085736307;-5.8499;1.9729;6.3870;
2152095841620;3.0951;-1.1339;-4.1004;
2152105949693;-9.1460;-2.2193;-6.4361;
2152116057766;-14.1981;0.3248;-2.6345;
2152126152610;-12.9093;1.7692;-8.5729;
2152136260682;-43.1333;-5.2926;-7.2218;
2152146368755;-12.3009;1.7046;7.0699;
2152156480057;23.3369;-2.7341;7.4626;
2152166588130;-0.5222;-5.6183;-7.0636;
2152176696203;-13.8437;1.5320;-12.1660;
2152186803026;-9.3999;4.8212;-5.6791;
2152196911099;-11.0169;5.3291;-10.8269;
2152207019172;-15.4582;4.0427;-9.5309;
2152217130057;-5.1072;1.8772;4.7222;
2152227238130;-0.7499;-1.3041;1.9026;
2152237346203;-10.6098;-1.3615;-9.8207;
2152247454745;-12.2842;-2.2193;-11.3348;
2152257562818;-16.9241;0.0422;-14.6357;
2152267670891;-20.8074;-0.5471;1.7686;
2152277782557;1.3008;0.9117;19.7946;
2152287890630;2.4577;1.0460;9.0150;
2152297998703;-11.0767;-0.9090;-7.4973;
2152308103443;-14.2196;-0.7819;-6.8913;
2152318211516;-10.0442;1.4865;2.4488;
2152328319589;-4.1465;1.1177;-1.2954;
2152338423860;-8.3842;0.2100;-11.5433;
2152348531932;-12.2722;-1.0167;-6.8216;
2152358640005;-9.4143;0.8279;0.3431;
2152368759849;-6.2139;1.5610;-4.3567;
2152378867922;-10.1904;-0.6455;-4.4070;
2152388975995;-8.5759;-0.8850;-0.0879;
2152399073443;-12.3751;0.0805;-0.9431;
2152409181516;-15.6879;-1.0430;2.4009;
2152419289589;-6.2091;-0.9927;4.2359;
2152429391776;-4.6543;-2.3031;-3.4298;
2152439499849;-8.4153;-1.0382;-8.5753;
2152449607922;-7.2894;0.3296;-3.2955;
2152459719120;-8.9973;0.8758;-2.5935;
2152469827193;-7.8811;0.1140;-3.3218;
2152479935266;-5.5768;0.1020;-5.1042;
2152490050943;-9.1723;1.1249;-5.2693;
2152500159016;-10.7533;-0.0511;-2.4284;
2152510267089;-8.7891;0.4711;-1.5084;
2152520372245;-10.8323;-0.6837;-6.6852;
2152530480318;-12.8662;-2.4179;-3.6694;
2152540588391;-11.1365;-2.0874;2.6812;
2152550683391;-11.7141;-0.9568;2.8466;
2152560791464;-12.0924;-0.6383;3.3951;
2152570899537;-6.4271;-0.4226;3.4071;
2152581009797;-6.7624;-0.4202;-1.8033;
2152591117818;-8.9710;-0.8584;-4.7327;
2152601225787;-5.3013;0.5381;-1.8583;
2152611341672;-29.9629;0.4612;-1.7288;
2152621449641;-54.9790;-3.9870;9.0245;
2152631557610;17.9136;-4.7704;15.0180;
2152641667974;34.8233;-1.0167;-11.4930;
2152651775995;-4.1130;-2.8828;-29.0590;
2152661883964;-22.7213;-2.1832;-20.1766;
2152671994224;-18.2178;2.6916;10.7877;
2152682102245;-7.1435;3.6114;-3.3888;
2152692210214;-2.8962;0.4253;-10.2185;
2152702301099;-5.9121;-1.7761;-2.0907;
2152712409120;-13.0149;-1.7928;2.7604;
2152722517089;-15.1756;-1.2299;7.9035;
2152732653703;-2.4888;-3.9799;-16.8470;
2152742761724;-29.2011;-4.7656;-35.5702;
2152752869693;-17.7912;-1.3591;13.9280;
2152762955474;8.3483;2.0255;40.0367;
2152773063495;-0.4863;1.9131;11.2044;
2152783171464;-19.3795;-0.6311;-16.6433;
2152793300370;-20.2971;0.6936;-8.1607;
2152803408391;-7.6582;2.4784;8.2412;
2152813516360;-4.2018;1.4195;-1.4174;
2152823636516;-7.3804;-2.1497;-12.2115;
2152833744537;-8.9303;-2.1999;-9.1549;
2152843852505;-5.6175;0.1642;-8.9632;
2152853936360;-16.1408;0.1307;-10.1587;
2152864044380;-14.6462;-0.4920;1.2535;
2152874152349;2.0770;-0.1041;5.5463;
2152884251203;-0.2157;-1.9726;-7.0612;
2152894359224;-6.5013;-1.9845;-11.8235;
2152904467193;-12.4325;-0.2764;-4.6896;
2152914580057;-23.4326;1.5706;-0.6676;
2152924688078;-14.1550;-0.8946;3.3425;
2152934796047;-3.3993;-1.6107;2.7580;
2152944895057;-7.8691;-1.4743;-2.5648;
2152955003078;-10.1976;-1.1390;-3.1831;
2152965111047;-7.9579;1.0388;-1.0391;
2152975231724;-8.7003;1.8915;-4.3472;
2152985339745;-9.6180;0.9332;-5.6001;
2152995447714;-6.6715;0.9619;-2.3973;
2153005562141;-6.1995;1.0507;-0.5791;
2153015670162;-7.4022;-0.2740;0.6090;
2153025778130;-5.6892;-0.1735;-5.1114;
2153035880943;-10.9834;-1.3256;-14.7317;
2153045988964;-14.5071;-1.4743;-7.7728;
2153056096932;-6.3362;0.2794;2.0943;
2153066197037;-4.3047;-1.0597;-1.4438;
2153076305057;-7.3493;-1.3926;-3.1134;
2153086413026;-4.7743;-1.1605;-1.3983;
2153096533807;-18.9796;0.2578;-0.6580;
2153106641828;-21.5258;-0.6431;6.2435;
2153116749797;-8.0513;-0.0607;9.8916;
2153126855110;-3.5883;-1.5102;0.7433;
2153136963078;-8.9949;-1.9917;-11.4691;
2153147071047;-12.0159;-1.1171;-7.0899;
2153157177349;-10.2622;0.3464;0.0413;
2153167285370;-9.0574;0.9212;1.1121;
2153177393339;-11.5247;1.3980;-1.1779;
2153187502766;-9.8073;-0.8417;-1.8344;
2153197610787;-9.0526;0.0015;-0.2390;
2153207718755;-4.7862;-0.6191;-1.1300;
2153217830682;-8.5065;-1.4623;-11.6991;
2153227938703;-14.1191;-2.1114;-12.2788;
2153238046672;-9.7184;-1.9388;-1.9253;
2153248155787;-8.6429;-0.5016;-0.2653;
2153258263807;-11.9584;-1.5413;-0.9909;
2153268371776;-12.4277;-0.3413;1.2440;
2153278468807;-9.6371;-0.4753;3.1699;
2153288576828;-5.9839;-1.0836;-0.3706;
2153298684797;-8.3076;-0.8297;-6.0239;
2153308800370;-10.1163;0.0015;-6.6302;
2153318908391;-10.5353;-1.4169;-2.5672;
2153329016360;-11.0958;-0.7938;-1.3433;
2153339121203;-10.9881;-1.0860;-2.5600;
2153349229224;-7.3926;-0.3051;-1.6738;
2153359337193;-5.7948;-0.7388;-2.3853;
2153369432870;-11.9294;-0.9688;-3.3817;
2153379540891;-10.5616;-0.9305;-2.0883;
2153389648860;-9.0909;-0.3628;-3.4944;
2153399767349;-12.0446;-1.5604;-3.5183;
2153409875370;-10.4324;-0.6933;0.2641;
2153419983339;-5.9934;-1.3663;0.8151;
2153430100266;-7.9531;-1.6274;-1.3576;
2153440208287;-9.8575;-1.0047;-4.0693;
2153450316255;-11.6276;-0.0631;-5.9186;
2153460421516;-10.6887;1.0340;-1.4677;
2153470529537;-7.7949;0.9739;0.1947;
2153480637505;-7.8356;0.2674;-2.9291;
2153490744224;-9.9652;-0.6191;-6.3787;
2153500852245;-11.7643;0.0326;-3.2237;
2153510960214;-10.1234;-0.3485;-0.5838;
2153521057245;-9.3066;-1.0095;-1.9923;
2153531165266;-11.1392;-0.7220;-3.2836;
2153541273287;-8.5567;-0.7627;0.1038;
2153551393443;-6.6811;-0.5686;-1.0869;
2153561501412;-8.8896;0.7585;-5.1975;
2153571609380;-10.8634;0.7271;-3.1014;
2153581690474;-9.5195;1.1656;-1.8416;
2153591798391;-9.7304;1.2015;-3.9568;
2153601906307;-12.1953;0.1714;-3.0129;
2153612046151;-10.1856;0.0757;-1.4198;
2153622154016;-6.5109;-0.5997;-1.2811;
2153632261932;-9.2154;-0.1256;-5.0348;
2153642337453;-12.8064;-0.2835;-4.2227;
2153652445370;-8.3243;0.3894;-0.8809;
2153662553287;-5.1407;1.3813;-1.6834;
2153672679693;-7.0690;0.2865;-4.1794;
2153682787610;-9.3138;0.5979;-3.7555;
2153692895526;-10.6313;0.9476;-1.9349;
2153703004432;-14.2603;1.2302;-1.6499;
2153713112349;-8.6166;-0.0129;-1.3744;
2153723220266;-3.5716;-1.3352;-3.9832;
2153733348182;-13.2135;-1.0860;-6.3114;
2153743456099;-13.9250;-0.5399;-0.3993;
2153753564016;-7.3397;0.6505;1.4333;
2153763670474;-10.1952;0.3727;-2.6297;
2153773778391;-9.8049;-0.3508;-1.5422;
2153783886307;-7.7088;1.1919;0.1923;
2153793969276;-9.2513;0.8088;0.1421;
2153804077193;-5.7491;-0.0033;-3.6045;
2153814185110;-9.8599;-0.2668;-8.2256;
2153824312453;-11.5774;-0.1639;-5.7054;
2153834420370;-11.2995;0.0326;-0.9168;
2153844528287;-8.9758;-0.3099;-0.8115;
2153854618599;-6.6069;-1.2132;-4.1937;
2153864726516;-8.8681;-0.5542;-5.8229;
2153874834432;-11.1464;-0.2740;-2.4356;
2153884950474;-11.5367;-0.4872;-0.6820;
2153895058391;-10.1833;-0.0535;0.4941;
2153905166307;-7.0307;-0.5806;0.4439;
2153915273807;-9.5366;-0.9066;-3.0296;
2153925381724;-12.0254;-1.0023;-2.4069;
2153935489641;-9.2082;-0.5183;-1.7240;
2153945597453;-8.1278;-0.2070;-2.4380;
2153955705370;-8.6692;-0.8321;-5.3749;
2153965813287;-11.9175;1.0364;-5.5041;
2153975921724;-9.6180;-0.2213;0.1540;
2153986029641;-7.2057;-0.0583;-1.1037;
2153996137557;-9.7232;-0.9951;-4.0023;
2154006247349;-11.0456;-0.6048;-4.1530;
2154016355266;-9.2850;-0.9497;-1.5060;
2154026463182;-7.5242;-0.9951;-2.0859;
2154036585682;-11.0719;-0.7914;-4.0047;
2154046693599;-10.7079;-0.8273;-2.2558;
2154056801516;-9.0479;-0.8707;-1.3193;
2154066896932;-9.3162;0.0589;-2.9985;
2154077004849;-8.8011;0.3870;-2.5839;
2154087112766;-10.9187;-0.6407;-2.0210;
2154097220057;-8.5256;-0.0368;-2.3566;
2154107327974;-4.6591;-0.2261;-3.9302;
2154117435891;-6.2282;-0.3676;-6.9488;
2154127553287;-10.1593;-1.0597;-5.9210;
2154137661203;-12.6888;0.0709;-2.8693;
2154147769120;-9.2970;0.7394;-0.2581;
2154157872141;-11.7835;0.2052;-0.2127;
2154167980057;-11.7188;-0.6909;-1.2930;
2154178087974;-12.8614;-0.7292;-0.9960;
2154188183130;-7.4812;-0.6359;0.9733;
2154198291047;-6.8031;-0.3508;-1.7192;
2154208398964;-12.7319;-0.5112;-6.0622;
2154218517141;-6.3410;-0.8058;-1.2353;
2154228625057;-6.7409;0.5501;0.1301;
2154238732974;-16.7686;1.1130;-1.8129;
2154248855995;-7.8930;0.4421;0.9206;
2154258963912;-4.4773;-0.0272;-4.5820;
2154269071828;-10.6720;-0.6933;-8.9632;
2154279171412;-10.1976;-0.2740;-6.6565;
2154289279328;-8.2669;-0.6526;-3.7149;
2154299387245;-9.3066;-0.4131;-4.3543;
2154309505682;-11.9632;-0.8034;-2.7637;
2154319613599;-6.7840;-0.0559;0.9063;
2154329721516;-11.3474;-0.9114;-0.8569;
2154339809276;-11.6013;0.2001;0.9326;
2154349917193;-2.7763;-0.1280;2.0895;
2154360025110;-10.5449;-0.8560;-9.9503;
2154370135162;-14.3034;0.1307;-9.0712;
2154380243078;-7.1049;0.2506;2.3770;
2154390350995;-8.1924;-0.1902;0.0078;
2154400462766;-13.7261;-0.4178;-4.5341;
2154410570682;-11.1102;-1.3400;-0.7995;
2154420678599;-6.7696;0.0254;0.8581;
2154430775266;-7.2368;-0.8441;-2.9698;
2154440883182;-11.0791;-0.7866;-6.3185;
2154450991099;-9.2946;-0.8010;-1.9277;
2154461103807;-8.5950;0.0876;-1.9780;
2154471211724;-8.7485;-0.0464;-4.1219;
2154481319641;-10.2885;-0.7675;-3.1277;
2154491439953;-11.6372;-0.5614;-0.1262;
2154501547870;-7.2368;-0.3987;-1.9253;
2154511655787;-7.1387;-1.3950;-3.8871;
2154521732557;-10.6911;-0.3242;-5.3270;
2154531840474;-11.2205;-0.9664;-3.5662;
2154541948391;-11.5750;-0.6933;-0.9574;
2154552076985;-8.3770;-0.2500;0.5085;
2154562184901;-10.2861;-0.6311;-3.2501;
2154572292818;-11.4147;-0.8225;-2.7015;
2154582417297;-7.1216;0.5357;0.2354;
2154592525526;-6.8031;0.1020;-2.1266;
2154602633807;-7.6777;-0.2907;-6.5103;
2154612713495;-10.2670;0.6362;-5.8732;
2154622821776;-8.6046;0.7872;-3.5303;
2154632930057;-12.4086;-0.9114;-1.5470;
2154643047193;-14.4879;-0.1831;-0.3108;
2154653155474;-3.9646;0.0254;0.7839;
2154663263755;-6.1612;-0.8106;-5.5232;
2154673370682;-10.4970;-1.1462;-8.9201;
2154683478964;-12.7271;0.6482;-1.0534;
2154693587245;-9.9437;0.6434;2.1087;
2154703714693;-6.5180;0.6840;-2.1601;
2154713822922;-12.4950;-0.4920;-4.0621;
2154723931203;-6.3314;0.1499;-0.2725;
2154734026360;-6.5515;-0.6837;-0.6126;
2154744134589;-9.3975;0.2435;-5.0779;
2154754242870;-7.8619;0.2530;-6.4600;
2154764370526;-11.1535;-0.7005;-7.9403;
2154774478755;-7.8260;0.2530;-1.9947;
2154784587037;-5.1407;-0.2429;-0.9168;
2154794662193;-13.6926;0.1355;-3.1591;
2154804770474;-19.8730;-0.7962;1.9122;
2154814878755;-15.2306;0.3607;6.7582;
2154825002089;-7.5314;-2.1353;5.7380;
2154835110318;-7.1578;-2.0515;-6.2133;
2154845218599;-9.6012;-2.4419;-6.6589;
2154855333964;-5.6151;0.8614;0.3601;
2154865442193;-8.0082;0.6649;-4.3208;
2154875550474;-12.2001;-0.4059;-5.0034;
2154885642193;-9.3425;0.6817;0.2354;
2154895750474;-6.4415;0.5883;-0.9526;
2154905858755;-6.2737;-0.4250;-4.6825;
2154915972297;-7.2224;-1.5102;-9.8306;
2154926080526;-12.2507;-1.4838;-10.9182;
2154936188807;-13.3956;-1.1291;-6.8913;
2154946294068;-9.1699;-0.5590;-0.9502;
2154956402297;-6.6787;-1.3926;-0.5001;
2154966510578;-9.8934;-0.9760;0.4080;
2154976607662;-14.4784;-0.2692;2.9973;
2154986715943;-12.8758;0.2387;6.3990;
2154996824224;-5.4497;-0.2453;2.8059;
2155006952610;-7.0929;-0.1232;-6.7594;
2155017060891;-11.8959;0.2148;-7.5188;
2155027169172;-12.5764;0.1451;-1.5757;
2155037265318;-10.1593;-0.3365;0.4654;
2155047373547;-7.0810;0.7848;-3.7460;
2155057481828;-11.8313;-1.0358;-6.3476;
2155067590630;-12.1068;-0.5566;-3.3194;
2155077698860;-9.7591;-0.4513;1.1794;
2155087807141;-5.8857;-1.0884;-0.9909;
2155097917662;-5.8786;-1.1844;-6.3978;
2155108025891;-6.2641;-0.8512;-7.7560;
2155118134172;-9.3042;-0.6502;-5.4658;
2155128236047;-8.8729;-0.2931;-3.0105;
2155138344276;-5.2965;-0.5327;-3.1519;
2155148452557;-7.9412;-1.1390;-6.2587;
2155158559485;-13.9514;-0.8850;-3.9425;
2155168667714;-11.8600;0.3105;-0.8761;
2155178775995;-9.0718;-0.0969;-1.6522;
2155188897505;-11.3115;-0.5686;-2.3327;
2155199005735;-9.5291;-1.5221;-0.2581;
2155209114016;-10.8805;-0.8273;-0.7349;
2155219213964;-11.4864;-0.8393;1.4213;
2155229322193;-10.3196;-0.1687;3.1938;
2155239430474;-6.9517;-0.3365;1.2535;
2155249525057;-9.4358;-0.1783;-2.1817;
2155259633339;-8.4873;-0.3314;-3.9254;
2155269741620;-5.9719;-0.4274;-5.6145;
2155279862089;-9.7950;-0.5207;-8.5466;
2155289970318;-11.1006;-1.2491;-6.2085;
2155300078599;-8.1900;-1.5963;-2.2367;
2155310197089;-5.6270;-1.7426;-4.2514;
2155320305318;-7.4405;-0.8130;-5.0803;
2155330413547;-6.8533;-1.0597;-4.0406;
2155340506464;-5.1239;-0.6790;-4.0980;
2155350614693;-6.5085;-0.3194;-4.3759;
2155360722974;-20.4144;-1.1243;-2.6345;
2155370834589;-46.9708;-0.2788;9.6520;
2155380942818;-4.0484;-3.3978;22.1662;
2155391051099;5.9097;-3.3284;-0.1836;
2155401160110;-11.0958;1.2446;-14.5926;
2155411268339;-4.4243;-1.6705;-1.2787;
2155421376568;-11.2014;2.1024;-4.5006;
2155431492401;-12.5357;2.3082;-2.3877;
2155441600630;-4.3597;0.9236;-0.4762;
2155451708912;-6.8390;1.3597;-4.9962;
2155461786203;-2.9489;0.4974;-6.3042;
2155471894485;-8.3794;0.4807;-6.8985;
2155482002766;-9.3855;-0.8249;-12.5901;
2155492173443;-17.3004;-2.3174;-24.2441;
2155502281672;-16.7157;-3.1080;-4.7474;
2155512389953;1.9044;0.9858;3.6586;
2155522453755;-15.4271;-0.4107;-0.2749;
2155532561985;-10.3101;-1.4767;15.9571;
2155542670214;-1.9379;-0.0200;12.5889;
2155552794901;-14.3587;-0.4657;-9.5237;
2155562903130;-12.1929;-0.5638;-7.8900;
2155573011412;-6.7816;1.6854;0.4510;
2155583098651;-7.6992;1.9298;2.0201;
2155593206828;-4.0484;0.6936;-7.7536;
2155603315005;-15.9685;-0.7340;-18.3559;
2155613414328;-11.9776;0.1714;-2.2367;
2155623522557;-4.1898;2.7084;5.4482;
2155633630735;-11.9222;1.4028;-5.1162;
2155643744537;-9.5940;-1.1219;-1.1348;
2155653852766;-4.7192;-1.2658;0.4343;
2155663960943;-10.1402;-1.6947;-6.0263;
2155674069328;-9.9748;-1.2467;-3.5830;
2155684177557;-8.2597;-0.0511;-1.5948;
2155694285735;-11.5869;-0.5327;-3.1854;
2155704392349;-9.5533;-0.7196;-0.2270;
2155714500578;-7.9217;-0.6550;-0.7732;
2155724608755;-12.4660;-0.1974;-3.8201;
2155734724485;-10.1019;0.4636;-0.3897;
2155744832662;-5.7323;-0.2333;-1.8416;
2155754940839;-11.4793;-0.4537;-6.6996;
2155765039537;-11.7739;0.6529;-3.5590;
2155775147766;-7.7351;0.9500;-0.7660;
2155785255943;-10.0346;0.5189;-3.0918;
2155795387401;-8.3291;0.2387;-1.2835;
2155805495578;-7.6008;0.0494;-1.4509;
2155815603755;-10.2838;-0.1974;-3.7603;
2155825697714;-12.8231;0.4445;-2.7517;
2155835805891;-8.1685;-0.1208;-0.7660;
2155845914068;-6.7170;-0.2405;-3.6452;
2155856019589;-9.2441;-0.8417;-5.0563;
2155866127766;-8.3004;0.4735;-4.4453;
2155876235943;-10.8515;-0.7603;-3.2668;
2155886340318;-14.0327;0.8830;-1.5494;
2155896448495;-7.5529;0.0494;0.1923;
2155906556672;-6.8342;-0.8489;-1.4246;
2155916679380;-12.6745;-0.8034;-3.0081;
2155926787557;-12.0063;0.3057;-1.1061;
2155936895735;-4.8365;0.0996;-0.8593;
2155946990162;-6.0607;-0.6072;-5.5256;
2155957098339;-10.3869;-0.7484;-6.8169;
2155967206516;-10.9642;0.0015;-2.4858;
2155977308651;-10.7294;0.8112;-1.0750;
2155987416828;-10.4085;-0.5231;-0.8498;
2155997525005;-7.9098;-0.5088;-1.7815;
2156007662037;-9.5366;-1.5293;-3.5973;
2156017770214;-9.6562;-0.5566;-3.7747;
2156027878391;-10.1019;-0.2285;-2.3638;
2156037954953;-7.5936;-0.7675;-3.3458;
2156048063182;-8.0680;-0.7890;-4.1913;
2156058171360;-9.8695;-0.6550;-2.3252;
2156068289589;-7.9074;-0.1065;-0.2294;
2156078397766;-9.3903;0.0613;-3.2285;
2156088505943;-13.8509;-0.8130;-3.1229;
2156098612818;-11.0934;-0.4561;0.0317;
2156108720995;-7.8500;-1.1486;-0.8378;
2156118829172;-8.6620;-1.2132;-4.9986;
2156128951255;-8.7867;-0.0583;-4.1961;
2156139059432;-9.5510;-0.8010;-1.6187;
2156149167610;-10.3822;-0.3266;-1.6666;
2156159262766;-9.5940;-0.8273;-1.4797;
2156169370943;-8.0824;-0.1663;-1.8320;
2156179479120;-9.5219;-0.3556;-3.1687;
2156189581568;-10.9786;-0.3027;-2.7637;
2156199689745;-7.4070;-0.3772;-2.0498;
2156209797922;-8.1398;-1.1052;-5.0611;
2156219912089;-11.4123;-0.6885;-5.9498;
2156230020266;-11.9342;-0.2166;-2.2558;
2156240128443;-9.3257;0.1762;0.1205;
2156250237089;-6.6547;-0.4202;-0.2294;
2156260345266;-7.5482;-0.8898;-3.7364;
2156270453443;-10.1115;-0.8946;-4.8790;
2156280559380;-10.9977;-0.5112;-2.7470;
2156290667557;-11.2373;0.8710;-2.1314;
2156300775735;-8.3985;-0.0153;-1.8272;
2156310884068;-8.0106;-0.3628;-2.1697;
2156320992245;-10.0804;-0.2955;-2.0593;
2156331100422;-11.1293;0.3033;-2.4858;
2156341196151;-8.9542;0.1403;-1.1779;
2156351304328;-6.2545;0.2195;-3.6718;
2156361412505;-12.2674;-1.2993;-4.6346;
2156371555005;-9.8743;-0.2405;-3.1735;
2156381663182;-8.1254;0.7152;-2.0812;
2156391771360;-10.0346;0.0206;-2.1410;
2156401866985;-8.8083;-0.2357;-1.8153;
2156411975162;-6.2641;0.1020;-3.0823;
2156422083339;-9.9820;-0.7675;-4.0478;
2156432165630;-13.0388;1.1560;-2.7900;
2156442273807;-7.1746;0.5381;-1.0582;
2156452381985;-8.2119;-0.3604;-2.2080;
2156462484380;-9.7400;-0.4394;-4.9747;
2156472592557;-10.8251;-0.4825;-2.4571;
2156482700735;-8.4754;-0.2620;-2.6249;
2156492816776;-9.7448;-0.2979;-4.2586;
2156502925005;-8.8968;-0.0033;-0.8330;
2156513033182;-10.0179;-0.1543;-1.0080;
2156523160214;-12.3607;-0.9473;-1.3313;
2156533268391;-9.0359;1.1393;0.2258;
2156543376568;-6.1301;-0.1663;-0.7493;
2156553493964;-6.9805;-0.4490;-6.1582;
2156563602141;-7.4237;-0.2309;-7.1764;
2156573710318;-8.3172;-0.2812;-3.6404;
2156583785682;-5.8857;0.3368;-4.4719;
2156593893860;-21.0470;-0.4872;-4.2658;
2156604001985;-22.9681;-0.3748;5.5750;
2156614149537;-3.8255;-0.7627;9.3646;
2156624257714;-4.3549;-2.8134;-0.5145;
2156634365839;-11.7978;-1.5102;-12.5662;
2156644440266;-4.5802;-0.3628;-5.2382;
2156654548443;-5.5071;-1.8598;0.6595;
2156664656568;-14.2914;-2.3342;-3.5566;
2156674768912;-14.7443;1.1106;-3.2070;
2156684877089;-5.5768;0.3105;0.0652;
2156694985214;-6.5085;-0.1735;-3.2668;
2156705085943;-8.4344;-2.6982;-1.4462;
2156715194120;-7.9795;-2.4443;-8.0578;
2156725302245;-14.4042;-1.9750;-13.7638;
2156735416099;-12.5572;-0.0488;-4.1961;
2156745524276;-5.0713;0.0326;0.3529;
2156755632401;-5.5911;-0.5686;-3.0535;
2156765740787;-12.7801;-0.0945;1.3493;
2156775848964;-11.2588;0.7777;2.6070;
2156785957089;-6.2761;0.1881;-1.2401;
2156796083287;-10.0202;-0.0802;-5.9163;
2156806191464;-11.6830;0.2195;-4.2203;
2156816299589;-8.3435;1.1249;-0.5527;
2156826391412;-9.2707;0.1187;-4.0741;
2156836499589;-13.0579;0.6314;-5.2502;
2156846607714;-7.8739;1.0412;0.3912;
2156856719953;-4.7384;1.4626;-2.2893;
2156866828130;-9.9820;0.5692;-5.0539;
2156876936255;-9.0000;1.5754;-2.1314;
2156887095943;-7.1578;1.0172;-3.8584;
2156897204068;-13.7357;1.6663;-9.1358;
2156907312193;-12.2001;1.5033;0.2354;
2156917359328;-5.4903;2.0303;1.5649;
2156927467505;-9.5004;0.5620;-2.9195;
2156937575630;-9.7376;-0.8393;-2.6489;
2156947677557;-6.8704;0.3703;-1.8966;
2156957785735;-9.4932;1.0484;-3.3075;
2156967893860;-10.0756;-0.2477;-4.0502;
2156978008495;-9.8575;0.7247;-2.8813;
2156988116672;-7.9579;-0.4394;-2.6177;
2156998224797;-9.4956;-0.1280;-3.9903;
2157008350735;-10.0107;-0.8803;-2.7613;
2157018458912;-8.3937;-1.0645;-1.4821;
2157028567037;-8.8968;-1.0908;-2.6154;
2157038649016;-11.5415;-1.0478;-2.7446;
2157048757193;-10.1689;-0.9903;-1.3672;
2157058865318;-7.5027;-0.9999;-1.0080;
2157068987766;-6.5755;-1.4934;-1.9756;
2157079095943;-10.4659;-1.8885;-3.5853;
2157089204068;-10.7486;-1.4264;-3.1735;
2157099301932;-9.2297;-1.2826;-3.4394;
2157109410110;-9.0885;-1.7067;-3.0416;
2157119518235;-8.5089;-1.4934;-1.6307;
2157129622974;-10.0418;-1.8048;-2.7278;
2157139731151;-9.5291;-0.6837;-2.0859;
2157149839276;-6.5085;-1.8335;-1.5805;
2157159946568;-9.7639;-0.7244;-3.8369;
2157170054745;-10.4157;-1.9558;-3.0535;
2157180162870;-10.0179;-0.9377;-1.9564;
2157190287245;-8.4754;-1.5126;-0.7971;
2157200395422;-9.2441;-1.2514;-3.8441;
2157210503547;-9.2683;-1.1486;-2.8908;
2157220606307;-2.8795;-0.6120;-2.2247;
2157230714485;-16.2006;-1.0597;-3.2716;
2157240822610;-23.1547;0.7247;0.7935;
2157250936203;-6.6260;-0.7723;4.5162;
2157261044380;-2.6830;-0.7268;-0.2701;
2157271152505;-12.8040;-0.6837;-5.9426;
2157281249797;-11.5152;-0.0105;-1.7312;
2157291357922;-7.9962;1.0866;0.0846;
2157301466047;-6.7002;1.2808;-4.8670;
2157311573547;-9.3808;-0.0105;-7.0301;
2157321681724;-11.1847;1.7979;-3.8249;
2157331789849;-10.5425;1.5754;-0.4666;
2157341896828;-6.7074;0.9069;0.8605;
2157352005005;-0.1750;0.3511;-6.8719;
2157362113130;-12.5740;-0.4322;-15.8767;
2157372216516;-18.3999;-0.3485;-4.8646;
2157382324693;-6.4606;0.8901;3.0718;
2157392432818;-4.4964;-0.3147;-2.9650;
2157402558599;-12.8255;-0.7842;-2.8499;
2157412666776;-11.2301;-0.2309;2.4081;
2157422774901;-7.3253;0.6266;1.9579;
2157432856620;-9.3712;-0.6670;-1.0941;
2157442964797;-11.7595;0.7872;-4.6370;
2157453072922;-8.6883;0.5931;-3.4298;
2157463208495;-8.6788;0.0733;-3.0966;
2157473316672;-8.3507;-1.2156;-3.2979;
2157483424797;-8.8466;-0.2285;-4.5150;
2157493520057;-8.2813;-1.3208;-2.4476;
2157503628235;-8.6883;-0.1926;-3.9206;
2157513736360;-8.3267;-1.2730;-2.9435;
2157523863912;-8.9088;-0.2620;-3.2883;
2157533972089;-12.8184;-0.4920;-3.2405;
2157544080214;-12.9930;-0.8970;1.5170;
2157554159537;-4.3669;-0.9592;0.1325;
2157564267714;-8.5113;-0.3915;-4.3639;
2157574375839;-12.7439;-0.8417;-2.5313;
2157584487037;-10.5233;-0.2429;-0.5432;
2157594595214;-7.7758;-0.1280;-2.5337;
2157604703339;-9.1316;0.1379;-3.5542;
2157614824537;-9.5390;-0.4178;-3.3075;
2157624932714;-9.9939;0.0541;-2.4643;
2157635040839;-9.1531;0.5070;-1.5203;
2157645129224;-7.9723;-0.1878;-2.9722;
2157655237401;-9.5892;-0.9018;-5.2238;
2157665345526;-11.3402;0.1140;-4.2514;
2157675454953;-9.1053;-0.4848;-1.6403;
2157685563130;-7.3493;-0.7244;-2.1649;
2157695671255;-9.8456;-1.3496;-2.5457;
2157705782662;-10.5162;-0.6024;-3.1277;
2157715890787;-8.6501;-0.7244;-2.2152;
2157725998964;-8.7556;-0.0607;-1.8918;
2157736114224;-9.3568;0.0829;-1.7049;
2157746222401;-10.3965;0.1499;-2.8932;
2157756330526;-8.9686;0.1738;-2.7709;
2157766439432;-7.0164;0.1092;-1.8176;
2157776547610;-7.8643;-0.8010;-4.7641;
2157786655735;-10.0514;-0.2668;-4.4405;
2157796772349;-12.6936;-0.8130;-2.9770;
2157806880474;-9.8456;-0.6383;-1.2978;
2157816988599;6.5157;-0.8321;-3.8871;
2157827082870;-23.5454;-2.7990;-5.4179;
2157837191047;-32.1859;0.9332;4.0513;
2157847299172;1.5858;1.8700;11.7362;
2157857409224;7.1411;-2.2552;-3.9111;
2157867517401;-12.6147;-2.4996;-16.5595;
2157877625526;-14.4999;-0.6550;-3.2501;
2157887737505;-8.0608;1.2111;3.9461;
2157897845630;-8.0058;2.4592;-3.1376;
2157907953755;-8.7147;-0.8034;-7.0397;
2157918047870;-8.8442;-0.9951;-6.4816;
2157928156047;-12.9188;1.2135;-2.4188;
2157938264172;-9.2922;-0.0296;9.5420;
2157948372453;4.0747;0.5022;-7.6816;
2157958480630;-19.0466;-4.0732;-27.5860;
2157968588755;-18.7783;-0.3772;2.1422;
2157978701516;-1.3199;3.2330;14.7209;
2157988809693;-3.9574;0.8327;-3.5518;
2157998917818;-12.6266;-1.5365;-7.1163;
2158009042974;-12.8207;0.4564;1.6774;
2158019151151;-7.1770;1.5296;2.8753;
2158029259276;-9.7400;-0.0081;-6.6972;
2158039349276;-17.6572;-0.5064;-5.1042;
2158049457453;-6.1684;1.1225;2.2860;
2158059565578;-0.9990;-0.7412;-4.0358;
2158069681203;-13.5897;-0.6407;-8.8747;
2158079789380;-10.8781;2.0734;0.1899;
2158089897505;-5.2364;1.2541;-0.5312;
2158099995787;-14.4521;-0.9975;-6.1702;
2158110103964;-11.2564;-0.1376;0.1732;
2158120212089;-6.9924;0.5453;-0.4472;
2158130334537;-12.5381;-1.3831;-4.6418;
2158140442714;-12.8112;-0.1184;0.3167;
2158150550839;-6.2043;0.8662;-0.6197;
2158160643182;-6.5850;-0.7986;-7.5930;
2158170751360;-8.1541;-0.6168;-4.6035;
2158180859485;-9.9413;1.3095;-1.1683;
2158190970266;-17.5158;0.7753;-1.3552;
2158201078443;-8.4200;0.0470;-1.5709;
2158211186568;-2.6949;-1.7378;-3.1687;
2158221287193;-8.5711;-2.2528;-7.6962;
2158231395318;-13.4100;0.2626;-5.8971;
2158241503443;-7.5601;-0.0224;-1.1779;
2158251633182;-7.2272;0.0900;-4.4501;
2158261741360;-5.8857;-1.5126;-4.6561;
2158271849485;-9.7161;0.2411;-5.1664;
2158281939537;-14.4090;0.0517;-1.5446;
2158292047714;-7.4524;0.0494;4.1761;
2158302155839;-0.5988;-0.7172;-1.6977;
2158312259016;-11.6396;-2.6599;-12.7457;
2158322367193;-16.0116;-1.4192;-5.4802;
2158332475318;-10.4372;0.3392;5.7428;
2158342619537;-7.8452;0.0948;-1.5996;
2158352727714;-13.7357;-1.0956;-2.7661;
2158362835839;-6.8175;-0.7555;4.2885;
2158372909641;-9.0455;0.9954;1.5362;
2158383017818;-14.5693;-0.1065;-2.8307;
2158393125943;-12.7466;-0.5040;-0.9072;
2158403235162;-6.6236;-0.8898;-3.7316;
2158413343339;-1.9187;-1.1725;-6.1008;
2158423451464;5.3420;0.2243;-9.7896;
2158433559849;-9.8815;0.0948;-11.2869;
2158443668026;-21.6386;1.7381;-2.3734;
2158453776151;-13.0914;2.0734;1.6271;
2158463881932;-5.0976;-0.6814;-0.2294;
2158473990110;-1.5165;-2.4084;-2.7254;
2158484098235;-6.3960;-1.8335;-7.0325;
2158494195943;-10.6768;0.0541;-4.5748;
2158504304120;-7.9651;-0.8874;-3.2644;
2158514412245;-11.7260;-0.6144;-7.2673;
2158524536932;-15.2091;-1.1844;-1.2520;
2158534645110;-14.3563;0.6601;8.2819;
2158544753235;-9.4047;0.8782;15.2862;
2158554865266;-6.0631;1.9346;6.8471;
2158564973443;-10.1737;-1.3256;-13.7830;
2158575081568;-14.1885;-3.4552;-13.2775;
2158585184016;-17.8056;-1.8024;0.7409;
2158595292141;-6.5997;1.9442;7.4746;
2158605400266;-1.5643;1.3573;-2.2989;
2158615518599;-8.9495;-2.5092;-7.4686;
2158625626724;-7.9146;0.5501;-2.4260;
2158635734849;-7.3445;1.6113;-2.4835;
2158645831724;-15.3072;-0.4083;-7.1258;
2158655939849;-12.2842;0.1379;-3.9664;
2158666047974;-3.8686;-1.2993;-3.5279;
2158676166203;-8.3507;-1.4719;-8.2184;
2158686274328;-13.6328;0.0374;-4.9268;
2158696382453;-5.4353;0.2913;1.8978;
2158706483391;-10.5616;-1.1028;-5.9928;
2158716591516;-17.7912;-1.2778;-3.7005;
2158726699641;-7.6777;0.4612;5.9680;
2158736803287;-6.2163;0.4950;1.0235;
2158746911412;-10.6265;-0.3820;-2.5648;
2158757019537;-9.8192;-0.2453;-1.8296;
2158767137245;-7.6176;0.9954;-5.6504;
2158777245370;-7.0451;0.6529;-7.8589;
2158787353495;-9.7567;0.6888;-5.9593;
2158797437193;-6.8222;1.2135;-2.7541;
2158807545318;-4.5993;0.0326;-3.4609;
2158817653443;-3.6604;-0.5231;-6.9416;
2158827785370;-13.0866;-0.3604;-6.4241;
2158837893495;-22.0361;-0.7938;-0.3132;
2158848001620;-18.6081;0.4349;5.9055;
2158858112662;-13.9537;-0.2309;7.1871;
2158868220787;-7.2942;-2.7150;2.8442;
2158878328912;-1.3104;-3.4193;-0.5216;
2158888424537;-10.7510;-0.0272;-4.3639;
2158898532662;-6.2856;1.6376;-1.4892;
2158908640787;-0.7017;3.7648;-6.1056;
2158918748807;-7.8212;0.7319;-11.2726;
2158928856932;-10.9690;1.6807;-5.8011;
2158938965057;-7.7231;2.6677;-1.4198;
2158949071932;-5.1766;0.3727;-7.1955;
2158959180057;-7.0857;-1.4480;-12.6380;
2158969288182;-12.6721;-3.0242;-9.1597;
2158979398807;-19.3005;-2.1377;-5.2911;
2158989506932;-16.3182;-1.2395;3.0790;
2158999615057;-0.9676;-0.1280;10.1336;
2159009727766;-4.0364;-1.5078;2.9088;
2159019835891;-15.2545;-0.6383;-1.1874;
2159029944016;-9.4478;1.3741;5.8146;
2159040049120;-6.6332;2.1239;2.3818;
2159050157245;-11.9656;0.8566;-5.9928;
2159060265370;-12.2770;1.0460;-5.8732;
2159070392141;-9.5438;0.8399;-4.7761;
2159080500266;-5.4233;1.1991;-1.2353;
2159090608391;-3.0087;-0.0706;-6.5414;
2159100701620;-10.5162;-1.0286;-13.6561;
2159110809745;-12.9906;-0.3389;-6.5988;
2159120917870;-8.9471;-0.0631;0.3263;
2159131034589;-7.0594;-0.6981;0.3144;
2159141142714;-5.0282;-0.3532;-0.9215;
2159151250839;-11.7715;-0.3748;-3.3505;
2159161364380;-17.7529;0.8423;1.1097;
2159171472505;-8.7628;-0.1831;3.5315;
2159181580578;-7.5960;-0.5423;-3.9784;
2159191670474;-14.7275;-0.9257;-5.5857;
2159201778599;-7.9364;-1.0836;0.3601;
2159211886724;-6.5180;0.0039;-0.9837;
2159221988235;-12.5046;-0.2237;-4.3017;
2159232096360;-9.2034;-0.3365;-2.2630;
2159242204485;-9.7304;-0.2333;-2.9913;
2159252307037;-11.6516;0.7968;-3.1998;
2159262415162;-7.2846;0.0015;-0.1382;
2159272523287;-7.6753;-0.3242;-3.8201;
2159282634745;-10.4516;-0.7986;-5.5328;
2159292742870;-10.5832;-0.3724;-5.0515;
2159302850995;-9.6586;-0.8632;-3.0631;
2159312969745;-7.6176;-1.2443;-2.1242;
2159323077870;-10.2191;-1.0143;-3.7412;
2159333185995;-5.4879;-1.5508;-1.2162;
2159343286412;-4.8891;-0.4131;-4.9962;
2159353394537;-14.3225;-1.3208;-5.9163;
2159363502662;-14.2125;1.0268;-0.0736;
2159373647089;-5.6916;-0.5830;0.4989;
2159383755162;-10.1115;-0.4178;-3.3290;
2159393863287;-13.6089;-0.9568;-2.5193;
2159403947453;-12.6362;0.5477;0.6643;
2159414055578;-7.8452;-0.9951;1.3851;
2159424163703;-5.3228;-1.1773;-4.3089;
2159434264120;-7.9579;-1.4934;-5.1473;
2159444372245;-12.6506;-0.1783;-4.6848;
2159454480370;-11.7571;2.2005;-0.3419;
2159464621360;-4.9609;1.4267;1.7183;
2159474729432;-4.2520;0.1116;-4.9986;
2159484837557;-9.9724;-0.5542;-9.2964;
2159494902870;-11.1006;0.5501;-4.3496;
2159505010995;-7.4405;0.4612;-2.6345;
2159515119120;-9.7400;-1.5245;-6.7929;
2159525230370;-10.8781;-1.8311;-5.0157;
2159535338495;-8.3937;-2.2385;-0.1860;
2159545446620;-6.7720;-1.4073;0.0461;
2159555570891;-12.0111;-0.3748;-0.8234;
2159565679016;-11.2397;0.3583;0.9278;
2159575787141;-5.8522;-0.0296;0.7169;
2159585878703;-7.0618;0.0996;-3.3218;
2159595986828;-3.7178;-0.1256;-6.6924;
2159606094901;-11.5606;1.6543;-5.4323;
2159616211620;-31.9200;0.2865;1.4019;
2159626319745;-8.4607;-0.8154;8.3106;
2159636427818;12.3368;-2.5211;-1.9540;
2159646523860;-2.8938;-3.3093;-16.6409;
2159656631985;-19.3316;-0.3242;-7.4853;
2159666740057;-7.0977;2.4855;6.8758;
2159676839328;14.5310;1.4770;-5.4347;
2159686947453;7.0980;0.2650;-20.3803;
2159697055526;-25.9672;2.0207;-8.6471;
2159707178495;-64.4199;-3.1487;11.0943;
2159717286620;-47.3399;-4.2410;36.4771;
2159727394693;32.7658;1.6280;13.4560;
2159737499641;27.5794;-10.2320;-20.9743;
2159747607766;-33.8940;-11.4491;-15.2085;
2159757715839;-23.2460;1.9513;5.2732;
2159767817037;9.9628;9.0876;19.1264;
2159777925162;-7.0044;7.3555;-15.8719;
2159788033287;-39.4968;1.0914;-14.5735;
2159798133287;4.5897;3.5157;31.9783;
2159808241412;25.1312;1.8796;18.6975;
2159818349537;-4.4988;-5.1081;-50.4604;
2159828470891;-33.3093;-7.2329;-56.0851;
2159838579016;-27.0165;-2.3940;-21.9374;
2159848687089;-9.5940;0.1905;10.5745;
2159858799120;5.5098;-0.5447;17.4183;
2159868907245;0.5342;-0.2812;16.4483;
2159879015318;-13.5368;0.8327;9.1585;
2159889152870;-14.1790;0.9978;5.3258;
2159899260995;-3.9069;2.5167;-0.1860;
2159909369120;-15.9443;1.3334;-19.1536;
2159919447714;-19.9089;0.6625;-5.1018;
2159929555839;0.0885;0.6362;9.1633;
2159939663912;-6.8055;-1.8742;-10.1827;
2159949765682;-14.9240;-2.4467;-13.5577;
2159959873807;-13.5515;-0.1376;2.3746;
2159969981880;-10.4850;0.0039;7.0313;
2159980086203;-1.5165;-2.7607;1.4067;
2159990194328;-4.6519;-2.1018;-8.6040;
2160000302401;-10.2287;-0.6981;-6.3667;
2160010427037;-8.3913;-1.4264;-1.2568;
2160020535162;-8.5519;-1.8814;-4.1554;
2160030643235;-8.8370;-2.2337;-6.2515;
2160040755787;-6.7337;-0.8632;-5.9761;
2160050863912;-8.5041;-0.7292;-7.9259;
2160060972037;-12.3296;-0.1161;-4.7160;
2160071075995;-6.5925;-0.2692;0.3287;
2160081184120;-5.6175;0.0900;-3.5303;
2160091292245;-12.5213;-0.4872;-7.3271;
2160101401360;-11.9366;-0.2524;-1.0750;
2160111509432;-10.6122;-0.1496;3.6778;
2160121617557;-10.2718;-0.7244;3.6227;
2160131717870;-5.5935;-1.1533;-0.0688;
2160141825995;-9.9365;-1.4264;-5.4275;
2160151934068;-12.9571;-0.9616;-2.3276;
2160162016828;-9.2225;0.5955;0.5420;
2160172124953;-8.7075;0.9356;-2.0186;
2160182233026;-7.1674;-0.0033;-2.8355;
2160192349641;-8.1852;-0.1567;-3.2213;
2160202457766;-9.3640;0.3990;-4.2203;
2160212565839;-10.6313;0.5166;-3.4131;
2160222674537;-8.1685;0.1259;-2.4212;
2160232782662;-8.2167;-0.7651;-4.4743;
2160242890735;-11.1416;-1.4264;-4.3065;
2160253012974;-9.7831;-0.8656;-0.4376;
2160263121099;-8.2023;0.0781;-1.1515;
2160273229172;-9.5438;0.4636;-4.3280;
2160283337766;-8.2837;1.0364;-1.8464;
2160293445839;-8.5184;0.0996;-0.6700;
2160303553964;-8.8322;0.8327;-1.9708;
2160313665682;-10.2048;0.2001;-2.6584;
2160323773807;-11.3402;-0.1615;-3.4059;
2160333881880;-9.2345;-0.0344;-2.0521;
2160343985266;-7.8284;-0.5614;-1.1755;
2160354093391;-10.7581;-0.6263;-3.6188;
2160364201464;-12.9188;0.2650;-2.7781;
2160374308287;-9.3616;0.0374;0.0580;
2160384416412;-8.2525;0.3870;-0.0401;
2160394524485;-10.6023;0.1834;-1.2401;
2160404643495;-11.1102;0.0182;-0.8545;
2160414751620;-11.8576;0.0900;-0.6341;
2160424859693;-8.5663;-0.3796;-0.3945;
2160434952453;-4.9971;-0.8177;-4.1794;
2160445060578;-7.6080;-1.2227;-7.1210;
2160455168651;-9.3808;-1.0190;-5.0420;
2160465271516;-9.8192;-0.0559;-2.5170;
2160475379641;-10.2383;0.4735;-3.7819;
2160485487714;-10.9116;0.4950;-2.6249;
2160495593443;-9.2082;-0.6120;-1.4318;
2160505701568;-7.2464;-0.7196;-2.5792;
2160515809641;-7.3998;-0.2931;-5.3725;
2160525916724;-10.9905;-0.2333;-4.6250;
2160536024849;-14.1670;-1.1892;-2.9578;
2160546132974;-13.0843;-0.7651;0.6236;
2160556261307;-10.0250;-0.0464;3.0359;
2160566369432;-9.0335;-0.1328;0.0173;
2160576477505;-8.1087;-0.3218;-2.2606;
2160586573391;-7.8882;0.5788;-1.9899;
2160596681516;-10.0226;0.5309;-4.1363;
2160606789589;-10.5544;0.3272;-6.4959;
2160616905995;-11.2373;-0.0802;-5.5089;
2160627014120;-9.7519;-0.1041;-1.2425;
2160637122193;-6.5109;-0.9138;-0.4328;
2160647239328;-7.7614;-1.1124;-4.6226;
2160657347453;-9.7376;-0.6048;-6.3257;
2160667455526;-9.6275;-0.1687;-5.8059;
2160677551412;-8.7461;-0.2788;-3.9784;
2160687659537;-10.4085;0.0159;-1.9947;
2160697767610;-9.7089;-0.2022;-0.6030;
2160707874953;-8.8202;-0.0897;-0.9191;
2160717983078;-10.8586;-0.3075;-2.5959;
2160728091151;-9.7496;-0.1854;-1.8464;
2160738197453;-6.3266;-0.7196;-1.8511;
2160748305578;-9.9700;-0.7149;-5.0228;
2160758413651;-12.4397;-0.3099;-3.8201;
2160768516620;-8.1087;0.1594;-1.1515;
2160778624745;-7.7614;0.4253;-1.9445;
2160788732818;-10.4827;0.1140;-1.9851;
2160798860057;-9.1962;-0.1998;-1.3481;
2160808968182;-7.5960;0.3416;-2.2175;
2160819076255;-8.9877;-0.3867;-4.8096;
2160829177974;-9.9221;-0.5542;-4.4189;
2160839286099;-9.1173;-0.8922;-2.2630;
2160849394172;-9.5076;-0.8803;-1.5948;
2160859499224;-10.1761;-0.5375;-1.2882;
2160869607349;-8.7748;-0.3724;-2.4452;
2160879715422;-9.5342;-0.3987;-1.8320;
2160889829953;-9.2201;0.0829;-1.5589;
2160899938078;-8.4272;-0.0296;-1.4151;
2160910046151;-8.4320;-0.0416;-3.4250;
2160920143443;-10.7486;-0.4681;-4.3902;
2160930251568;-10.1234;-0.4801;-2.0186;
2160940359641;-9.4358;-1.0860;-0.6365;
2160950465370;-9.9078;-1.1629;-1.6834;
2160960573495;-10.5138;-0.5088;-2.6512;
2160970681568;-7.6777;-0.5255;-2.4069;
2160980777557;-8.6381;-0.0873;-3.6909;
2160990885682;-9.9796;-0.1304;-2.7063;
2161000993755;-9.0072;-0.3194;-2.0402;
2161011111932;-8.0106;-0.2309;-3.0488;
2161021220057;-10.3893;-0.3461;-2.9195;
2161031328130;-9.0742;-0.9185;-2.3901;
2161041479693;-9.2273;-1.0119;-1.8368;
2161051587766;-11.4577;-1.1509;-2.4141;
2161061695839;-11.9151;-0.7771;-2.0931;
2161071750995;-7.0666;-0.5638;-1.8511;
2161081859068;-5.9025;0.2746;-4.3615;
2161091967141;-8.3243;0.2650;-4.1148;
2161102075891;-8.0632;0.3655;-2.8642;
2161112183964;-8.6692;0.1331;-2.3590;
2161122292037;-12.0829;-0.2835;-2.5098;
2161132392974;-9.7615;-0.7507;-0.7875;
2161142501099;-9.0311;-1.1701;-1.9181;
2161152609172;-10.2838;-1.6059;-3.0416;
2161162750474;-9.8312;-0.7005;-2.4547;
2161172858599;-9.5315;-1.2251;-3.4657;
2161182966672;-10.6050;-0.7172;-3.2931;
2161193038287;-9.1220;0.1092;-0.3299;
2161203146360;-8.1637;-0.1663;1.0666;
2161213254485;-8.8633;0.2291;-1.2978;
2161223401932;-10.6648;0.2483;-3.0894;
2161233510057;-10.1665;-0.2764;-1.8033;
2161243618130;-9.2656;-0.6837;-2.8789;
2161253728964;-10.8682;-1.3424;-4.8359;
2161263837037;-11.5008;-1.0167;-2.7230;
2161273945110;-7.8069;-0.6144;-1.5805;
2161284029432;-8.5926;-0.0009;-4.3184;
2161294137557;-10.2455;-0.2740;-3.0057;
2161304245630;-9.1173;0.2722;-1.0845;
2161314355578;-9.7256;0.3870;-1.7360;
2161324463703;-9.7519;0.2148;-2.4595;
2161334571776;-7.9002;-0.3485;-2.5433;
2161344678391;-7.4836;-0.6120;-3.8130;
2161354786516;-9.6395;-0.2883;-5.3916;
2161364894589;-9.9221;-0.0631;-4.2156;
2161375005995;-14.2029;0.2554;-1.9469;
2161385114120;-16.0642;0.2722;0.4439;
2161395222193;-9.4095;0.1594;2.3315;
2161405330110;-5.9743;-0.4035;-0.4905;
2161415438235;-8.2214;-1.3496;-4.7207;
2161425546307;-10.9044;0.1762;-4.2467;
2161435644537;-2.7308;0.7609;-2.3276;
2161445752662;-4.5706;0.2387;-7.1620;
2161455860735;-23.1260;0.3224;-5.4969;
2161465984641;-19.9786;0.9452;6.5788;
2161476092766;-4.5012;0.4086;7.3334;
2161486200839;-0.1941;-2.4924;-6.6374;
2161496302557;-7.6128;-1.3567;-14.8394;
2161506410682;-11.4936;0.1331;-9.8207;
2161516518755;-7.0834;0.2243;-1.0391;
2161526616828;-6.9661;0.7442;-1.0702;
2161536724901;-8.5424;-0.7125;-4.9890;
2161546833026;-12.6793;-0.7938;-2.6345;
2161556954953;-10.2144;0.8423;5.0647;
2161567063078;-2.0336;-0.4394;3.7591;
2161577171151;-11.2804;-1.5485;-13.9292;
2161587275370;-18.3637;-0.9736;-14.8370;
2161597383495;-9.3042;-0.2094;3.2082;
2161607491568;-5.5792;0.2674;4.9953;
2161617602349;-8.3459;-0.7268;-1.9995;
2161627710474;-11.0097;-1.6322;-1.2954;
2161637818547;-10.4061;0.5357;3.6323;
2161647931672;-10.6744;0.1092;3.0838;
2161658039745;-8.8179;-0.6479;-2.3566;
2161668147818;-6.1804;-0.7507;-6.4337;
2161678247141;-7.8906;0.1379;-7.8733;
2161688355266;-10.8538;-0.4322;-6.0359;
2161698463339;-11.8337;-0.4394;-3.0296;
2161708559849;-10.0490;-0.9879;-0.5815;
2161718667974;-6.4558;-1.2610;-2.8283;
2161728776047;-8.4177;-1.3304;-3.3266;
2161738883807;-10.2120;-1.2778;-0.5480;
2161748991932;-13.6208;-0.6885;-0.3682;
2161759100005;-11.7571;-1.3137;-0.3921;
2161769230787;-9.7352;-1.2156;-1.9014;
2161779338912;-9.7639;-0.0849;-3.1038;
2161789446985;-7.9460;-0.1902;-0.8665;
2161799533443;-6.5949;-0.1615;-0.7756;
2161809641568;-10.4396;-0.5160;-5.0492;
2161819749641;-12.5309;0.0206;-5.6647;
2161829869641;-11.3928;0.0254;-1.1874;
2161839977766;-9.5677;-0.6550;0.4439;
2161850085839;-9.4621;-1.4480;-2.4643;
2161860185370;-7.0235;-1.0262;-3.8369;
2161870293495;-7.9699;-0.4872;-5.4443;
2161880401568;-11.2660;-0.5997;-6.2109;
2161890524276;-9.9724;-0.1328;-2.3327;
2161900632401;-8.8179;0.0015;-0.2581;
2161910740474;-7.3110;-0.3338;-1.3050;
2161920834849;-8.0321;-0.4131;-2.3518;
2161930942974;-9.0120;-0.5064;-2.9746;
2161941051047;-10.3149;-0.1065;-3.4490;
2161951152453;-11.3234;-0.2094;-4.2945;
2161961260578;-9.2779;-0.7675;-3.2261;
2161971368651;-11.4194;-0.3867;-3.0416;
2161981498860;-12.9547;-0.3580;-0.5743;
2161991606932;-9.3975;-0.0320;1.8500;
2162001715005;-7.6152;-0.9449;0.4845;
2162011779224;-7.2177;-0.1831;-2.6584;
2162021887297;-9.5773;-0.4825;-4.2706;
2162031995422;-10.2479;-0.1376;-1.7025;
2162042161568;-10.4372;0.0422;-1.7551;
2162052269589;-9.4860;-0.3170;-3.6814;
2162062377662;-7.6367;-0.2333;-4.0023;
2162072485735;-7.5960;0.1977;-5.2095;
2162082571203;-8.3387;-0.0057;-6.0793;
2162092679328;-6.9637;0.1762;-4.9077;
2162102787401;-8.9327;-0.1687;-4.5341;
2162112882349;-9.6945;0.0517;-3.8536;
2162122990474;-11.5008;0.0302;-1.0893;
2162133098547;-11.4649;0.2459;1.7351;
2162143230057;-11.4673;0.3846;1.4309;
2162153338182;-11.9656;-0.8707;-0.7277;
2162163446255;-7.8236;-0.1089;-1.1157;
2162173532974;-4.2281;0.5716;-3.7723;
2162183641099;-7.6534;0.9571;-7.0564;
2162193749172;-9.7615;0.8542;-4.3208;
2162203858495;-11.3306;1.6232;0.0437;
2162213966620;-10.6528;1.2760;0.6404;
2162224074693;-10.8227;0.4516;-1.6355;
2162234180474;-9.4095;-0.3891;-1.9158;
2162244288599;-8.0560;-0.3003;-3.6694;
2162254396672;-7.1818;-0.3891;-5.2406;
2162264505370;-8.9327;-0.0754;-6.0287;
2162274613495;-13.3932;0.0374;-6.0311;
2162284721568;-12.9069;0.8638;0.3960;
2162294845057;-7.5242;0.3727;5.8840;
2162304953182;-5.6438;-0.1113;2.2406;
2162315061255;-8.0393;-0.3748;-4.3304;
2162325160995;-10.5855;0.3607;-5.6551;
2162335269120;-10.1785;0.5644;-4.6729;
2162345377193;-7.8954;0.0589;-4.6705;
2162355477349;-11.3809;-0.6814;-5.2744;
2162365585474;-14.6052;-0.4322;-1.5637;
2162375693547;-9.2994;-0.3652;1.6175;
2162385801932;-6.7720;-0.5327;0.1780;
2162395910057;-10.2048;-0.5016;-3.1038;
2162406018130;-9.0550;-0.9281;-2.5696;
2162416127141;-8.1326;-0.7747;-1.7384;
2162426235266;-10.6816;-0.1232;-2.7446;
2162436343339;-10.4994;-0.7747;-1.8727;
2162446442557;-7.0259;-0.8779;-2.2845;
2162456550682;-7.7542;-0.4250;-3.1639;
2162466658755;-8.7676;-0.8779;-3.4825;
2162476768912;-11.0671;-0.4681;-5.6910;
2162486877037;-12.9547;-0.8512;-4.9723;
2162496985110;-9.6251;-0.8393;-0.5097;
2162507101776;-6.1851;-1.5867;-0.7397;
2162517209901;-7.9579;-1.1267;-4.0406;
2162527317974;-10.0202;-0.7388;-2.1051;
2162537409641;-8.7485;-0.3939;-0.2797;
2162547517766;-7.8523;-0.7101;-2.5839;
2162557625839;-9.4884;-0.4944;-3.3817;
2162567776568;-11.5247;-0.4992;-2.6058;
2162577884641;-10.4946;-0.4298;-1.5852;
2162587992714;-5.9240;-0.7364;-1.9684;
2162598069432;-6.2761;-0.8827;-5.6097;
2162608177505;-8.6477;-1.5508;-6.1439;
2162618285578;-11.3904;-0.9640;-3.5997;
2162628391099;-14.0399;0.1092;0.5396;
2162638499172;-11.9318;0.3009;3.1627;
2162648607245;-11.0001;-0.9855;2.3530;
2162658714693;-9.9939;-1.8263;-0.7178;
2162668822766;-8.0441;-0.9879;-2.9028;
2162678930839;-7.9340;0.2195;-4.2275;
2162689058755;-9.5195;-0.5901;-4.2802;
2162699166828;-9.7352;-0.3218;-3.0990;
2162709274901;-8.9136;-0.2189;-0.7445;
2162719366307;-8.9495;0.4735;-0.8282;
2162729474380;-9.8073;0.6960;-2.7422;
2162739582453;-8.1781;-0.0849;-3.7412;
2162749684120;-8.1999;-0.5088;-6.3257;
2162759792193;-8.5759;-0.3796;-7.5404;
2162769900266;-9.7328;-0.6933;-7.3008;
2162780017557;-10.6744;-0.4346;-3.7531;
2162790125630;-10.6481;0.1475;1.4333;
2162800233703;-8.1446;-0.0224;2.6477;
2162810349641;-7.5793;0.1857;0.5276;
2162820457714;-10.7366;-0.1687;-2.1673;
2162830565787;-11.5367;0.8662;-1.8775;
2162840679693;-7.9555;0.0996;-0.9407;
2162850787766;-9.3401;-0.1854;-3.9544;
2162860895839;-11.7188;0.2554;-4.8455;
2162871005162;-10.1330;0.4229;-2.4188;
2162881113235;-10.5473;0.4950;-0.5551;
2162891221307;-10.7797;0.8303;0.2306;
2162901303912;-8.8992;-0.1783;-0.1382;
2162911411932;-9.2297;-0.0535;-2.5074;
2162921520005;-11.2062;0.3368;-3.2046;
2162931632037;-9.5315;0.7466;-1.2377;
2162941740110;-6.5949;-0.1807;-1.8655;
2162951848182;-8.7556;-0.1017;-5.0755;
2162962009693;-9.2178;0.0781;-5.4993;
2162972117714;-9.4238;0.6362;-4.4910;
2162982225787;-10.2311;0.1211;-3.4681;
2162992273182;-8.7532;0.4950;-2.0644;
2163002381255;-8.2214;-0.3508;-2.8741;
2163012489328;-10.9164;-0.3843;-4.1674;
2163022624745;-12.7849;0.3081;-1.9828;
2163032732818;-9.3090;0.1834;-0.1549;
2163042840891;-6.5659;-0.7986;-1.6427;
2163052947349;-10.2814;-0.6048;-4.1578;
2163063055422;-10.1115;0.2722;-2.1984;
2163073163495;-8.5328;0.2028;-1.1922;
2163083266412;-8.7820;0.4660;-2.0764;
2163093374485;-8.1517;-0.1735;-3.0559;
2163103482557;-8.9853;-0.3266;-2.8837;
2163113590682;-8.2047;-0.2046;-2.6776;
2163123698755;-10.4587;-0.0344;-4.7928;
2163133806828;-9.4980;-0.5255;-2.9889;
2163143935370;-8.4802;-1.0836;-2.4715;
2163154043443;-10.8515;-0.8082;-3.2859;
2163164151516;-9.7400;-1.0358;-1.7599;
2163174230891;-9.7065;-0.7053;-1.8464;
2163184338964;-10.0250;-0.3604;-0.9455;
2163194447037;-7.6801;-0.8827;-0.5145;
2163204555057;-7.7183;-0.7555;-1.4007;
2163214663130;-9.4478;-0.5064;-3.6212;
2163224771203;-12.3296;0.0350;-2.9124;
2163234879432;-7.3493;-0.7149;-0.9335;
2163244987505;-7.4405;-0.9712;-3.6595;
2163255095578;-10.8203;-1.0406;-5.4778;
2163265263964;-9.7543;-1.2634;-3.9832;
2163275371985;-10.1067;-0.9114;-2.7948;
2163285480057;-9.8504;-0.6550;-1.9804;
2163295513078;-8.4153;-1.4982;-0.9526;
2163305621151;-9.6156;-1.1100;-1.4246;
2163315729224;-12.6625;-0.6479;-0.6772;
2163325858807;-10.4396;-0.0802;0.8725;
2163335966880;-6.8127;-1.2227;-0.0042;
2163346074953;-8.7963;-0.7388;-4.9819;
2163356174953;-9.4573;-0.9257;-5.1640;
2163366283026;-7.5171;-0.2907;-3.4274;
2163376391099;-10.7940;0.0206;-4.6466;
2163386502870;-12.0135;-0.0921;-2.2415;
2163396610943;-8.7987;-0.3437;0.3482;
2163406719016;-8.1975;-0.5423;-1.5278;
2163416830943;-11.2086;0.0685;-3.6332;
2163426939016;-10.6241;-0.1639;-2.0521;
2163437047089;-7.7542;-0.7077;-0.9048;
2163447161464;-9.5414;-0.2070;-3.8967;
2163457269537;-11.2780;-0.4992;-3.8297;
2163467377610;-10.5162;0.0757;-1.0845;
2163477477662;-10.3846;0.3033;-0.1334;
2163487585735;-9.2656;0.1570;-0.5456;
2163497693807;-8.0728;-0.0631;-2.2080;
2163507795891;-10.6098;-0.1328;-4.4357;
2163517903964;-11.1317;0.6027;-4.1267;
2163528012037;-7.1913;0.1475;-1.6331;
2163538136724;-6.7528;0.3464;-4.0478;
2163548244797;-11.1775;-0.3027;-6.1080;
2163558352870;-9.7591;-0.1496;-2.4236;
2163568447089;-8.2406;0.2124;-1.7240;
2163578555162;-11.2780;0.6505;-3.8656;
2163588663235;-9.6802;0.1283;-1.2449;
2163598785005;-7.5218;-0.1854;-1.3887;
2163608893078;-11.9776;-0.2094;-3.5806;
2163619001151;-11.9414;0.1355;-2.1649;
2163629085057;-8.5208;0.0302;0.1086;
2163639193182;-8.0130;0.1881;-1.7862;
2163649301255;-10.5975;-0.0009;-3.8680;
2163659407245;-9.3497;-0.1472;-1.9181;
2163669515370;-9.1771;0.1499;-2.6130;
2163679623443;-8.1015;0.0948;-3.5160;
2163689734432;-6.7840;0.1714;-3.2668;
2163699842557;-9.0191;-0.2883;-4.2754;
2163709950630;-10.4611;0.7992;-3.8297;
2163720063703;-7.5027;-0.0631;-2.9339;
2163730171828;-6.3960;-0.2596;-4.0047;
2163740279901;-8.3602;-0.5447;-5.8059;
2163750383391;-10.9738;-0.5423;-5.0731;
2163760491516;-11.2612;-0.2788;-0.8641;
2163770599589;-9.9293;0.0829;0.7648;
2163780697037;-9.9915;-0.8130;-0.5168;
2163790805162;-9.9389;-1.0286;-0.3514;
2163800913235;-9.6802;-0.8731;0.4104;
2163811038391;-10.1498;0.6338;-1.0032;
2163821146516;-9.1196;-0.6383;-1.7910;
2163831254589;-8.5328;-0.2524;-1.9564;
2163841358755;-9.9987;-0.3915;-2.8451;
2163851466828;-10.6074;-0.7029;-2.5146;
2163861574901;-9.4047;-0.5040;-1.8392;
2163871666464;-8.1517;-0.4537;-3.9712;
2163881774589;-7.5290;-0.9808;-4.7689;
2163891882662;-8.6333;-0.6766;-3.8584;
2163902000266;-11.3785;-0.8393;-2.6106;
2163912108391;-10.1665;0.0278;-1.8440;
2163922216464;-7.1291;-0.7101;-1.5374;
2163932329953;-8.4778;-0.7292;-3.3745;
2163942438078;-10.1426;-0.8441;-3.7388;
2163952546151;-9.0909;-0.6263;-1.9445;
2163962622610;-8.9064;-0.5853;-2.5481;
2163972730735;-8.9112;-0.1208;-4.5437;
2163982838807;-9.3257;-0.3003;-3.8249;
2163992982870;-10.9977;-0.1232;-0.4857;
2164003090995;-11.5630;0.5907;1.6774;
2164013199068;-8.9853;0.0015;-0.6652;
2164023290266;-8.4392;-0.3604;-3.4657;
2164033398391;-10.2311;-0.3676;-3.5231;
2164043506464;-10.0083;-0.7484;-1.4174;
2164053664485;-10.0274;-0.4490;-1.7503;
2164063772557;-10.2383;-0.3580;-2.0617;
2164073880630;-9.6849;-0.3365;-2.2439;
2164083944224;-9.6586;-0.5016;-1.4342;
2164094052349;-10.1043;-0.2142;-0.4280;
2164104160422;-9.6802;0.6266;-1.0128;
2164114273599;-6.9733;-0.2596;-4.5676;
2164124381724;-8.2214;-0.2524;-6.1893;
2164134489797;-9.8910;-0.5351;-4.1578;
2164144597662;-10.9020;-0.6024;-2.6560;
2164154705787;-10.4109;0.0111;-2.4308;
2164164813860;-10.3367;0.0948;-2.6393;
2164174913182;-9.0383;-0.4657;-2.7565;
2164185021307;-8.8944;-0.1328;-1.6427;
2164195129380;-10.5688;-0.0200;-1.5517;
2164205239016;-10.8852;0.2818;-2.2558;
2164215347141;-7.7949;-0.2883;-2.1793;
2164225455214;-8.1805;-0.0129;-3.2979;
2164235560526;-10.4133;-0.5518;-2.5170;
2164245668651;-11.8935;0.0278;-1.8033;
2164255776724;-8.1517;-0.1232;-1.7743;
2164265893807;-8.9614;-0.0105;-4.6561;
2164276001932;-9.9269;-0.6790;-4.1172;
2164286110005;-8.4177;-0.2668;-2.1505;
2164296234537;-10.3798;-0.0849;-2.8980;
2164306342662;-10.0274;-0.0655;-2.0450;
2164316450735;-8.2095;-0.1687;-2.2319;
2164326545057;-10.3534;-0.1041;-2.6967;
2164336653182;-9.9987;-0.4418;-1.5494;
2164346761255;-8.5065;-0.5447;-1.5613;
2164356865474;-8.2908;-0.5088;-2.4882;
2164366973599;-8.3818;-0.3580;-4.9196;
2164377081672;-11.4841;-0.7292;-4.8766;
2164387189328;-12.0183;-0.4777;-1.2018;
2164397297453;-10.6935;0.2219;0.9135;
2164407405526;-7.3086;-0.2118;-1.3959;
2164417511724;-6.7935;0.4854;-4.3591;
2164427619849;-10.5401;-0.2955;-3.8752;
2164437727922;-10.9594;-0.8369;-2.5696;
2164447837505;-9.9628;-0.5207;-2.1170;
2164457945578;-9.4047;-0.2357;-2.6393;
2164468053651;-8.0871;-0.6096;-2.8717;
2164478156620;-9.7902;-0.2118;-2.5361;
2164488264745;-10.0250;0.1786;-1.0247;
2164498372818;-9.6610;0.5094;-1.9660;
2164508489328;-8.8274;-0.1089;-3.4442;
2164518597453;-10.3869;0.0206;-4.1602;
2164528705526;-10.8610;-0.1352;-1.8823;
2164538812610;-7.3851;-0.1998;-0.5240;
2164548920735;-8.7051;-0.4370;-3.4178;
2164559028807;-8.7772;-0.0296;-4.1483;
2164569142870;-9.8599;-0.6335;-3.0990;
2164579250995;-11.6901;-0.1902;-1.6905;
2164589359068;-10.6744;0.2148;-0.0114;
2164599461203;-8.6453;-0.6215;-0.5958;
2164609569276;-7.6295;-0.0368;-2.6489;
2164619677297;-10.4803;0.0398;-4.0813;
2164629786828;-10.2263;-0.4968;-3.0559;
2164639894901;-9.5342;-0.6024;-2.3542;
2164650002922;-10.4372;-0.7149;-2.3518;
2164660100474;-7.8595;-0.9329;-2.2032;
2164670208547;-8.4153;-0.3485;-2.8860;
2164680316568;-10.4181;-0.3170;-2.5648;
2164690432974;-10.2838;0.1666;-1.4007;
2164700541047;-7.5434;-0.6742;-2.2080;
2164710649068;-8.5041;-0.0272;-3.9278;
2164720752557;-10.7797;-0.0153;-4.7641;
2164730860630;-9.5797;-0.9018;-1.7480;
2164740968651;-8.3435;-0.8970;-1.7312;
2164751066776;-8.5711;-0.8010;-3.2931;
2164761174849;-9.2010;-0.9257;-3.4681;
2164771282870;-11.3569;-0.3075;-2.4978;
2164781414328;-12.6266;-0.3147;0.0580;
2164791522349;-8.6453;-0.1831;0.9470;
2164801630370;-6.4774;-0.9353;-0.9694;
2164811713599;-10.0609;0.4445;-4.8359;
2164821821672;-11.6276;0.1140;-3.1687;
2164831929693;-8.8418;-0.7268;-0.3993;
2164842058651;-9.5076;-0.4418;-3.0081;
2164852166672;-8.9303;-0.6048;-3.6021;
2164862274693;-8.1948;-0.7149;-2.8860;
2164872378391;-10.4587;-0.2261;-3.0823;
2164882486464;-11.6228;-0.1232;-1.4414;
2164892594485;-7.6920;-0.5471;-1.3768;
2164902696360;-7.2057;-0.1950;-3.4633;
2164912804432;-9.3808;0.2746;-4.6059;
2164922912453;-8.9447;-0.4370;-3.2836;
2164933037349;-8.9303;-0.4202;-2.0836;
2164943145422;-11.2588;-0.8994;-3.3362;
2164953253443;-10.2981;-0.9257;-2.2463;
2164963358912;-9.1484;-0.7412;-1.1420;
2164973466985;-10.2790;-0.5710;-2.1529;
2164983575005;-10.2909;0.3033;-1.1252;
2164993652349;-7.2799;-0.5327;-1.0128;
2165003760422;-8.6740;-0.1256;-3.5542;
2165013868443;-11.6157;0.1451;-3.3697;
2165024020266;-10.9259;-0.3796;-1.1994;
2165034128339;-9.0096;-0.4729;-0.2294;
2165044236360;-8.8609;-0.5830;-2.4547;
2165054318443;-8.1829;-0.8010;-3.0870;
2165064426516;-8.9447;-0.3628;-4.4501;
2165074534537;-12.7415;-0.3413;-3.9855;
2165084633182;-11.0862;0.0996;-0.9215;
2165094741255;-7.0618;-0.9329;-0.2940;
2165104849276;-8.5783;0.0350;-2.7398;
2165114970682;-10.0609;-0.1352;-3.6619;
2165125078755;-8.6501;0.1259;-1.4653;
2165135186776;-8.5878;-0.4298;-3.0559;
2165145290995;-10.6433;-0.7723;-4.5700;
2165155399068;-9.7854;-1.0382;-3.1759;
2165165507089;-9.6682;-0.7436;-2.8669;
2165175611360;-10.8299;0.2459;-2.0668;
2165185719432;-7.0594;-0.1424;-1.1611;
2165195827453;-7.9914;-0.0921;-2.6297;
2165205943391;-10.7270;0.1905;-4.3256;
2165216051464;-11.1102;0.0350;-2.5457;
2165226159485;-9.0311;-0.0176;-1.2906;
2165236262193;-8.1063;-0.5279;-1.8200;
2165246370266;-8.8848;-0.7172;-2.9865;
2165256478287;-10.1593;-0.2692;-2.1266;
2165266585474;-12.3488;-0.3891;-2.5672;
2165276693547;-13.1943;0.3799;-1.4773;
2165286801568;-6.8318;-0.2955;0.5922;
2165296935943;-6.5468;0.0087;-1.8248;
2165307044016;-10.4085;0.6338;-3.8752;
2165317152037;-10.1019;0.3679;-3.1158;
2165327234068;-9.1340;0.2339;-1.9445;
2165337342141;-7.9316;-0.3099;-4.0454;
2165347450162;-8.6572;-0.6383;-4.2730;
2165357564120;-8.8537;-0.2788;-3.1062;
2165367672193;-10.1258;0.3272;-3.4992;
2165377780214;-9.4478;0.7394;-3.2405;
2165387881516;-6.3984;-0.2692;-3.1519;
2165397989589;-9.5510;0.2267;-4.1937;
2165408097610;-11.3856;0.0039;-3.2405;
2165418203078;-9.2608;0.5189;-0.3491;
2165428311151;-8.5184;-0.2620;-0.6843;
2165438419172;-9.3808;-0.3218;-2.6728;
2165448523807;-11.1870;-0.6431;-1.8990;
2165458631880;-9.5964;-0.3218;-0.7373;
2165468739901;-10.0923;0.1211;-1.9110;
2165478853703;-9.5219;0.0135;-2.3252;
2165488961776;-9.3712;0.0805;-1.2763;
2165499069797;-9.6730;0.1044;-1.3337;
2165509178391;-8.0465;-0.4083;-2.5528;
2165519286464;-7.4142;0.3823;-4.2009;
2165529394485;-9.0933;-0.0945;-4.0884;
2165539501932;-9.7089;-0.6885;-3.9497;
2165549610005;-9.8599;-0.8898;-2.0139;
2165559718026;-9.8910;-1.4192;-2.3686;
2165569834016;-11.4864;-0.4609;-3.1687;
2165579942089;-8.3674;-0.8898;-1.4390;
2165590050110;-7.3564;-0.4322;-0.6437;
2165600153807;-8.1063;-0.6024;-3.1496;
2165610261880;-9.9963;-0.1807;-4.5150;
2165620369901;-14.2244;-0.6191;-2.1458;
2165630473182;-13.0388;-1.5556;1.4237;
2165640581255;-7.8715;-1.5963;1.1770;
2165650689276;-8.5113;-1.4527;-1.4725;
2165660793703;-12.7490;-0.9233;-3.4585;
2165670901776;-9.9006;-0.0802;-2.5457;
2165681009797;-5.6222;-0.6574;-2.4260;
2165691119016;-7.7399;-0.3194;-4.1172;
2165701227089;-9.2970;-0.7962;-4.5150;
2165711335110;-10.5090;-0.0559;-3.7412;
2165721472610;-10.4037;-0.0511;-1.2257;
2165731580630;-8.0560;-1.1940;-1.8224;
2165741688651;-9.9269;-1.7498;-5.1951;
2165751767557;-11.2612;-1.3831;-5.2478;
2165761875578;-9.4143;-0.5112;-2.3276;
2165771983651;-8.5926;-0.4753;-2.7015;
2165782092974;-9.4238;-0.3724;-2.0450;
2165792200995;-11.0432;-0.1902;-0.4881;
2165802309016;-11.4529;0.1594;1.2846;
2165812425630;-9.2874;0.3679;0.5133;
2165822533651;-9.0120;-0.4801;-1.9971;
2165832641672;-9.1914;-0.6502;-3.6547;
2165842757037;-9.2369;-1.1653;-4.2275;
2165852865110;-10.0418;-0.8249;-4.2921;
2165862973130;-11.8098;0.1905;-4.6322;
2165873077453;-8.9231;-0.2788;-2.4069;
2165883185526;-7.7207;0.2746;-0.4256;
2165893293547;-8.0130;0.0565;-2.3662;
2165903405266;-8.1541;0.2052;-3.5351;
2165913513339;-10.0226;0.1044;-4.5365;
2165923621360;-10.4922;-0.2883;-4.1459;
2165933714432;-8.0656;-0.6909;-2.2965;
2165943822505;-8.8155;-1.1124;-3.3888;
2165953930526;-10.8371;-0.1065;-3.1663;
2165964028807;-9.9580;0.5620;-1.8153;
2165974136880;-8.4320;-0.0559;-1.5278;
2165984244901;-9.9676;0.5572;-2.1458;
2165994360526;-10.6959;-0.0535;-1.2906;
2166004468599;-9.5243;0.0230;-1.7480;
2166014576620;-9.6323;0.1905;-1.9493;
2166024686360;-9.6730;0.0613;-1.7360;
2166034794432;-9.0550;-0.8154;-2.4787;
2166044902453;-9.8121;-0.3437;-2.9052;
2166055019537;-9.8480;0.0661;-2.1577;
2166065127610;-9.5605;0.0924;-3.3697;
2166075235630;-8.6189;0.0685;-2.4882;
2166085347141;-8.4826;0.6697;-1.9684;
2166095455214;-8.2190;-0.2548;-3.8058;
2166105563235;-7.4955;0.2770;-4.9173;
2166115664849;-9.3425;0.2339;-4.6490;
2166125772922;-10.2622;-0.0754;-2.6489;
2166135880943;-9.8336;-0.6455;-0.9311;
2166145989224;-11.7858;-1.0310;-1.6546;
2166156097297;-11.2325;-0.1783;-1.4007;
2166166205318;-7.3998;-0.5686;-0.9479;
2166176303182;-7.4572;-0.4801;-2.6895;
2166186411255;-9.1220;0.0470;-3.3147;
2166196519276;-9.3425;0.1259;-2.3686;
2166206641307;-11.7763;0.2746;-2.2056;
2166216749380;-12.6242;1.0053;-0.9574;
2166226857401;-7.3325;-0.3556;1.4548;
2166236954120;-7.1626;-1.3663;-2.1314;
2166247062193;-10.2670;-1.1701;-5.3246;
2166257170214;-10.8876;0.1020;-3.8847;
2166267275370;-9.6897;-0.2859;-2.8116;
2166277383443;-9.1651;0.0326;-2.3542;
2166287491464;-9.1173;0.2148;-1.8320;
2166297587245;-9.7161;-0.1496;-1.3433;
2166307695318;-8.4248;-0.0200;-1.1180;
2166317803339;-10.7653;0.2052;-2.1314;
2166327910578;-9.9389;-0.8512;-2.8789;
2166338018651;-10.5640;-1.1052;-3.1902;
2166348126672;-10.8805;-0.6885;-2.3157;
2166358252974;-7.6080;-0.4633;-2.3542;
2166368361047;-5.5385;-0.4202;-3.3888;
2166378469068;-10.6409;0.0565;-4.5054;
2166388572557;-10.7007;0.2195;-2.2606;
2166398680630;-8.1254;0.1977;-0.6245;
2166408788651;-9.7208;-0.4561;-3.4274;
2166418892610;-9.7687;-0.4992;-3.6838;
2166429000682;-7.6295;-1.2179;-1.2667;
2166439108703;-10.2168;-0.9305;-3.8225;
2166449214849;-12.9835;-0.4442;-3.6165;
2166459322922;-7.6609;-0.4418;-1.5203;
2166469430943;-7.4285;-0.1256;-2.6369;
2166479554120;-10.6600;-0.4107;-1.9684;
2166489662193;-9.9987;0.0230;0.4630;
2166499770214;-8.7003;-0.0778;-1.1444;
2166509876099;-9.7280;-0.0057;-3.8680;
2166519984172;-10.0995;-0.7531;-2.8741;
2166530092193;-9.3999;-0.7340;-1.9732;
2166540192766;-9.6060;-0.7986;-3.3840;
2166550300839;-10.6409;0.1427;-2.7972;
2166560408860;-7.0092;-0.6885;-2.7350;
2166570532141;-7.7016;0.3583;-4.3496;
2166580640214;-9.9987;0.5333;-2.8092;
2166590748235;-9.0407;-0.1567;-1.0295;
2166600843182;-8.4897;0.0637;-2.2510;
2166610951203;-9.6132;-0.1041;-4.3831;
2166621059224;-9.4190;-0.5662;-2.5170;
2166631169849;-9.5749;-0.4777;-1.5326;
2166641277922;-12.2722;-0.5662;-2.9722;
2166651385943;-11.4864;-0.1496;-1.1755;
2166661553339;-8.5998;-0.3437;-0.4519;
2166671661360;-9.2058;-0.0754;-2.2654;
2166681769380;-9.9006;0.1953;-1.8368;
2166691807453;-10.6816;0.1786;0.0054;
2166701915474;-10.7581;-0.2955;-0.4977;
2166712023495;-8.1589;-0.0511;-2.1170;
2166722184276;-8.2214;-0.6120;-3.1519;
2166732292297;-8.6572;-0.2859;-3.6981;
2166742400318;-11.0791;0.1953;-3.7101;
2166752465891;-9.6802;-0.2812;-3.5830;
2166762573912;-7.1530;-0.3580;-3.6814;
2166772681985;-9.9054;0.2722;-5.1233;
2166782799849;-10.1210;-0.0416;-3.3625;
2166792907870;-7.9914;-0.0802;-1.0774;
2166803015943;-9.0981;-0.1902;-1.8440;
2166813127766;-10.0851;-0.6814;-3.8201;
2166823235787;-9.7184;-0.5566;-1.9493;
2166833343860;-9.4908;-0.9138;-0.6413;
2166843449641;-11.9055;-1.1821;-1.7791;
2166853557662;-8.6070;-0.8850;-0.5958;
2166863665735;-6.7193;-0.1998;-2.8546;
2166873759224;-9.3903;0.0589;-4.9484;
2166883867245;-10.2048;0.1881;-2.7087;
2166893975266;-10.0035;-0.1089;-1.7169;
2166904084432;-9.2922;-0.2309;-2.2152;
2166914192453;-8.1398;-0.5303;-2.5361;
2166924300474;-10.4204;-0.7531;-2.5074;
2166934418078;-9.4525;-1.0238;-1.9469;
2166944526099;-9.4190;-1.0430;-1.7671;
2166954634172;-7.4596;-1.1076;-2.7039;
2166964730266;-8.4296;-0.2979;-4.5317;
2166974838287;-11.5558;-0.0706;-3.8177;
2166984946307;-10.1234;-0.0559;-0.5934;
2166995059120;-8.4512;-0.1831;0.0894;
2167005167141;-8.5232;-0.5183;-2.6919;
2167015275162;-11.0432;-0.9257;-3.9879;
2167025380474;-10.9283;-0.2524;-0.8067;
2167035488495;-9.6586;-1.3304;-1.4940;
2167045596516;-8.5232;-0.9281;-3.3817;
2167055700474;-7.7830;-0.3628;-2.1745;
2167065808495;-9.9509;-0.2883;-3.3099;
2167075916516;-8.4272;0.3081;-3.2836;
2167086024693;-7.2033;0.3751;-2.2534;
2167096132714;-9.7854;-0.1639;-3.3314;
2167106240735;-8.5400;-0.1352;-3.7603;
2167116363182;-9.7472;-0.7507;-3.4298;
2167126471203;-10.4563;-0.8536;-1.8655;
2167136579224;-11.4266;-0.6407;-2.3037;
2167146673703;-11.9127;-0.6574;-1.5900;
2167156781776;-10.1019;-0.8417;0.5492;
2167166889797;-8.4177;-0.1496;-0.3012;
2167177007193;-7.4859;-0.1424;-2.6752;
2167187115214;-8.5328;0.6027;-3.5183;
2167197223235;-8.5352;0.1427;-1.2595;
2167207292141;-6.7026;0.3200;-2.7637;
2167217400162;-8.0680;0.1427;-5.6480;
2167227508182;-8.9662;0.1140;-4.4261;
2167237649120;-9.8599;-0.0224;-3.3840;
2167247757141;-9.6538;-0.7603;-3.6766;
2167257865214;-7.4213;-0.3242;-3.9135;
2167267969953;-10.2622;-0.3724;-5.2454;
2167278077974;-11.3402;-0.7579;-3.3027;
2167288185995;-10.0083;0.2554;1.1865;
2167298315057;-11.6133;-0.2429;2.5232;
2167308423078;-9.6921;-0.3194;1.1841;
2167318531099;-8.5831;-0.5136;-0.3179;
2167328639120;-9.0670;-0.6526;-1.7073;
2167338747193;-10.7294;0.4783;-1.7671;
2167348855214;-9.9030;-0.2046;-1.6953;
2167358953495;-9.5219;0.3368;-3.8010;
2167369061516;-11.3426;0.1116;-3.8704;
2167379169537;-7.8978;-0.3580;-2.8956;
2167389273182;-5.2484;-0.2285;-3.0440;
2167399381203;-8.9327;0.1451;-5.8732;
2167409489224;-11.2875;-0.1280;-4.8909;
2167419596516;-8.9423;-0.1424;-1.8583;
2167429704537;-10.4874;-0.1017;-1.7886;
2167439812557;-11.4218;-0.9114;-1.5757;
2167449923443;-8.6333;-0.7244;-0.1884;
2167460031516;-9.6658;-0.4825;-2.1936;
2167470139485;-11.6731;0.0015;-4.0597;
2167480244849;-8.6189;-0.0488;-1.8200;
2167490352870;-7.9651;-0.0921;-2.1840;
2167500460891;-9.1699;-0.0511;-2.8570;
2167510561932;-10.7653;0.6577;-1.1803;
2167520669953;-10.4492;1.3789;-0.2677;
2167530777974;-14.9073;0.3583;-1.2329;
2167540891516;-14.5334;-0.7531;-0.2055;
2167550999537;-6.9637;-0.9951;0.3239;
2167561107610;-6.4199;-1.3759;-4.3807;
2167571221776;-10.7821;-0.6766;-6.3547;
2167581329797;-11.2253;0.7080;-3.1998;
2167591437818;-8.9614;1.0268;-0.0401;
2167601557245;-7.5649;0.7657;-2.2989;
2167611665266;-9.2058;0.4373;-3.9401;
2167621773339;-10.1689;0.3727;-2.3013;
2167631857349;-10.1569;0.5788;-2.6465;
2167641965422;-7.6681;-1.2443;-5.1473;
2167652073495;-7.7782;-1.1390;-7.0947;
2167662221360;-1.2434;0.9523;-10.7791;
2167672329380;-1.9068;-0.3003;-10.4749;
2167682437453;-32.3082;1.1201;-0.2414;
2167692497037;-19.6334;2.4664;12.3613;
2167702605110;6.7122;-0.1567;7.8027;
2167712713182;0.5222;-3.8001;-10.4797;
2167722820787;-15.5157;-1.5532;-9.0927;
2167732928860;-16.6104;0.9811;1.3756;
2167743036932;-11.4147;1.5969;3.8862;
2167753167141;-1.7991;-0.1950;-4.1028;
2167763275214;-4.4701;-1.8957;-9.7609;
2167773383287;-13.7022;1.5969;-5.2238;
2167783476360;-16.8308;1.5105;10.9816;
2167793584432;2.6016;1.0244;9.2689;
2167803692505;-7.9938;-2.3533;-25.4827;
2167813820995;-17.8128;-3.0673;-18.2052;
2167823929068;-28.6358;0.7343;15.7176;
2167834037141;-52.7728;1.0747;22.8754;
2167844115787;27.0763;-6.9359;4.4180;
2167854223860;29.6085;-7.7049;1.7877;
2167864331932;-23.3393;-0.7484;-22.1363;
2167874444016;-25.6152;4.3756;-12.6284;
2167884552089;1.2027;5.4607;14.1485;
2167894660162;3.8351;1.8341;-10.3840;
2167904773495;-9.4980;-0.5782;-29.2843;
2167914881568;-17.1183;0.8423;-6.8913;
2167924989641;-15.4774;0.2674;14.5268;
2167935103703;0.7690;-0.6502;6.4253;
2167945211776;4.9851;-3.4959;-27.7849;
2167955319849;-36.9027;-5.4461;-39.6281;
2167965427193;-22.4219;-2.5187;23.6300;
2167975535266;10.1234;2.3273;38.9372;
2167985643339;-5.1479;0.4445;0.8895;
2167995751932;-15.6305;-4.6388;-11.9264;
2168005860005;-11.6635;0.3870;6.3535;
2168015968078;-9.5462;2.2053;7.2063;
2168026089432;-6.6308;1.6663;-2.3973;
2168036197505;-9.5510;-1.4336;-13.9531;
2168046305578;-15.5803;-0.1831;-14.5185;
2168056414432;-4.6950;0.0733;-1.3935;
2168066522505;-4.7695;-0.5088;-3.6909;
2168076630578;-12.6003;-0.3389;-7.2434;
2168086717349;-7.2631;-1.2730;-1.9181;
2168096825422;-8.5878;-2.9617;-3.5734;
