Sensor: bmi160 Accelerometer Non-wakeup
Vendor: BOSCH
TimestampAcc [ns]; AccX [m/s^2]; AccY [m/s^2]; AccZ [m/s^2]
79240370607116;-9.2755;1.2975;-3.1229;
79240380725345;-9.2130;1.3190;-2.9913;
79240390817845;-9.2755;1.3669;-2.9913;
79240400961491;-9.3616;1.3023;-2.9554;
79240411053991;-9.3353;1.2254;-2.9530;
79240421151907;-9.2994;1.2709;-3.0200;
79240431244407;-9.2297;1.3071;-3.0105;
79240441374459;-9.1723;1.1560;-2.9506;
79240451462220;-9.2417;0.9643;-3.0392;
79240461591491;-9.3903;1.0172;-3.1854;
79240471707064;-9.3688;1.1441;-3.1950;
79240481818105;-9.2922;1.1512;-3.0966;
79240491908261;-9.3090;1.1345;-2.9459;
79240502010501;-9.3544;1.0819;-2.8956;
79240512120501;-9.3832;0.9954;-2.8427;
79240522221959;-9.3664;0.9212;-2.7757;
79240532328886;-9.3544;0.9021;-2.8020;
79240542428834;-9.3185;0.9093;-2.8522;
79240552539564;-9.3042;0.8303;-2.9052;
79240562649147;-9.3114;0.7175;-2.9650;
79240572766699;-9.2922;0.6410;-2.9530;
79240582850553;-9.3042;0.5764;-3.0009;
79240592956543;-9.3185;0.5572;-3.0296;
79240603056282;-9.3425;0.5835;-3.0368;
79240613161126;-9.3353;0.5955;-2.9841;
79240623273626;-9.2608;0.5931;-2.9315;
79240633374980;-9.2731;0.5788;-2.9794;
79240643480709;-9.3209;0.5907;-3.0464;
79240653590709;-9.3114;0.6410;-3.0344;
79240663692220;-9.3377;0.7513;-3.0535;
79240673806386;-9.3592;0.8997;-3.0200;
79240683925866;-9.3209;1.0388;-2.9794;
79240694024876;-9.2779;1.1441;-3.0511;
79240704102376;-9.3185;1.2951;-3.1591;
79240714219876;-9.3305;1.4530;-3.2189;
79240724298470;-9.2321;1.5610;-3.1158;
79240734442897;-9.1292;1.7333;-3.0631;
79240744611439;-9.0814;1.9178;-3.0105;
79240754644511;-9.1723;2.0279;-2.9339;
79240764774980;-9.1986;1.9059;-2.9411;
79240774871491;-9.2417;1.7692;-3.0942;
79240784954095;-9.3209;1.6807;-3.2501;
79240795049303;-9.2632;1.5033;-3.1110;
79240805183053;-9.1723;1.3095;-2.9195;
79240815274980;-9.2034;1.2182;-3.0344;
79240825383626;-9.2779;1.1536;-3.2524;
79240835496855;-9.3281;1.0340;-3.1301;
79240845620553;-9.4669;0.9452;-2.9243;
79240855708834;-9.4406;1.0053;-2.6824;
79240865847689;-9.2225;1.0149;-2.6082;
79240875921230;-9.0957;0.8925;-2.8908;
79240886027584;-9.2321;0.7032;-3.2596;
79240896120605;-9.2034;0.4878;-3.3027;
79240906241543;-9.1196;0.4636;-3.2836;
79240916339564;-9.1101;0.3966;-3.1615;
79240926451959;-9.2683;0.3631;-2.8837;
79240936559720;-9.3233;0.3846;-2.5959;
79240946688261;-9.3975;0.4516;-2.4547;
79240956772584;-9.4741;0.4540;-2.6991;
79240966869876;-9.5414;0.3655;-3.0272;
79240976978053;-9.5195;0.4711;-3.1663;
79240987098314;-9.2755;0.7032;-3.0344;
79240997196439;-9.2034;1.0412;-3.0942;
79241007303209;-9.2970;1.1824;-3.0368;
79241017419564;-9.2683;1.3047;-2.8068;
79241027511959;-9.2034;1.4530;-2.4978;
79241037619043;-9.3281;1.5706;-2.2415;
79241047731751;-9.4669;1.6998;-2.4188;
79241057835918;-9.5267;1.9920;-2.8932;
79241067940918;-9.3784;2.2675;-3.0488;
79241078047793;-9.0215;2.2531;-2.8693;
79241088146126;-8.9806;2.2364;-2.9387;
79241098260814;-9.2010;2.2555;-3.0224;
79241108370709;-9.2898;2.1072;-2.7613;
79241118473626;-9.3090;1.9250;-2.8669;
79241128577584;-9.6395;1.8891;-3.8082;
79241138687064;-9.9126;1.8317;-3.9377;
79241148784043;-9.3544;1.1919;-2.2343;
79241158892168;-8.9255;0.4086;-1.0391;
79241168993001;-9.5366;0.1618;-1.6187;
79241179103886;-9.9150;0.1235;-2.3638;
79241189216751;-9.3879;-0.2524;-2.0859;
79241199307897;-9.0431;-0.6024;-2.4308;
79241209434147;-9.5701;-0.7005;-3.5351;
79241219531959;-9.4621;-0.9664;-3.4753;
79241229631230;-8.8848;-1.2610;-2.6800;
79241239724095;-9.2656;-1.1486;-3.1615;
79241249849459;-9.6993;-0.9233;-3.6571;
79241259953626;-9.3616;-0.9209;-2.8789;
79241270061126;-9.1627;-0.6766;-2.3686;
79241280159251;-9.3209;-0.0754;-2.6489;
79241290259355;-9.4382;0.5548;-2.7159;
79241300377480;-8.8657;1.8173;-3.7436;
79241310480293;-8.3554;2.9192;-4.9962;
79241320586126;-8.8155;0.3799;-3.5183;
79241330714199;-10.3173;-0.5758;-2.8789;
79241340794043;-9.9676;-0.2046;-2.3351;
79241350903314;-8.9375;0.6960;-1.9014;
79241360996230;-9.4956;0.7008;-2.2750;
79241371115189;-9.8743;0.7199;-2.0234;
79241381216386;-9.4717;1.2661;-1.7791;
79241391316751;-9.5964;1.8389;-2.4906;
79241401423053;-9.8551;1.9322;-2.8092;
79241411524095;-9.5773;2.1981;-2.3925;
79241421635397;-8.5424;2.6557;-1.9564;
79241431741543;-8.3411;2.9695;-2.6010;
79241441848886;-9.0120;2.8041;-3.3673;
79241451940761;-8.9303;2.6821;-3.5136;
79241462059564;-8.8872;2.8905;-4.1770;
79241472172168;-9.2560;2.9480;-4.5317;
79241482273886;-9.4143;2.9743;-3.9975;
79241492377532;-8.9590;3.0173;-3.0511;
79241502480761;-8.7365;3.2593;-2.8092;
79241512583939;-8.9064;3.1226;-3.0823;
79241522724043;-9.0455;2.9767;-3.7819;
79241532786751;-9.3233;2.8280;-4.9244;
79241542889980;-9.7065;2.3731;-5.5328;
79241552993157;-9.3138;2.2292;-5.3533;
79241563129616;-8.6788;2.1239;-4.4668;
79241573232845;-7.9866;1.9561;-3.8082;
79241583336022;-8.1446;1.8365;-4.2323;
79241593444095;-8.6333;1.6400;-5.3007;
79241603547324;-9.1149;1.2613;-5.9809;
79241613650553;-9.0383;0.9117;-5.5881;
79241623749147;-8.7389;0.7319;-4.4070;
79241633852324;-7.8858;0.7872;-3.5160;
79241643955553;-8.3363;1.0747;-4.3567;
79241654067741;-10.0561;0.7705;-4.8096;
79241664171022;-9.7663;0.5788;-3.3362;
79241674274199;-8.7963;1.3358;-2.9243;
79241684441699;-8.5208;2.1933;-3.6718;
79241694544876;-8.3459;2.4688;-5.2095;
79241704648053;-9.3185;2.9480;-7.1788;
79241714694616;-9.1460;2.0833;-5.1568;
79241724797845;-8.1470;0.8303;-2.2199;
79241734901022;-9.4286;0.7271;-3.6500;
79241745071803;-11.1990;1.6974;-5.6671;
79241755174980;-9.9461;1.5610;-3.6093;
79241765278209;-7.2488;1.1489;-1.6642;
79241775347949;-7.6753;1.7548;-4.2514;
79241785451178;-9.2874;2.2890;-6.7475;
79241795554355;-8.7290;1.3406;-4.6083;
79241805675605;-9.4430;0.2530;-2.7805;
79241815778782;-10.2766;1.6663;-3.6861;
79241825882011;-8.3770;2.5119;-3.3840;
79241836001803;-6.9972;2.2292;-3.1926;
79241846105032;-8.6022;1.7237;-5.4562;
79241856208209;-11.1245;0.9787;-4.9699;
79241866300136;-10.1928;0.8495;-2.3638;
79241876403314;-7.9074;1.3693;-2.3399;
79241886506543;-8.1781;1.7764;-5.1353;
79241896631022;-9.0120;1.5419;-6.2109;
79241906734199;-8.9495;0.3631;-4.3352;
79241916837428;-9.5291;-0.2883;-2.7924;
79241926933261;-8.4849;0.6314;-2.3901;
79241937036491;-8.4559;1.6328;-3.5160;
79241947139668;-8.4105;1.5272;-3.6332;
79241957265553;-8.6429;1.3502;-3.8512;
79241967368730;-10.0756;1.4554;-4.6298;
79241977471959;-9.5797;1.3813;-3.5016;
79241987561230;-7.7758;1.8628;-2.3518;
79241997664407;-7.7518;1.9202;-3.7890;
79242007767636;-9.4454;1.7453;-5.8110;
79242017899459;-9.8097;1.1608;-4.7450;
79242028002689;-8.0130;1.4171;-3.6500;
79242038105866;-8.4296;1.6208;-4.2730;
79242048210761;-7.4381;1.0026;-4.2897;
79242058313991;-8.9901;0.2219;-6.0984;
79242068417168;-11.1847;0.0781;-5.1784;
79242078524720;-8.1757;-0.0993;-1.7623;
79242088627949;-8.4945;0.2985;-3.3290;
79242098731126;-10.7318;0.1977;-4.0741;
79242108853626;-10.5999;0.1786;-3.8632;
79242118956803;-8.8179;-0.0129;-3.1110;
79242129059980;-7.3014;0.2291;-2.1290;
79242139175657;-10.1521;0.0924;-2.4619;
79242149278886;-10.6528;0.0757;-4.1052;
79242159382064;-10.5281;-0.8898;-4.5006;
79242169488991;-9.4621;-1.5676;-3.1352;
79242179592220;-8.0010;-0.9855;-2.0067;
79242189695397;-8.3913;-0.3796;-2.6393;
79242199799928;-10.5042;-0.5231;-2.9602;
79242209903105;-11.1870;-0.8225;-3.3912;
79242220006334;-10.2861;-1.2323;-2.2893;
79242230134355;-7.7830;-0.5088;-1.7623;
79242240237584;-9.9245;-0.6957;-2.6560;
79242250340761;-9.4358;-1.2132;-2.0521;
79242260444043;-9.4406;-1.3543;-3.3984;
79242270547272;-10.2550;-1.4480;-4.3687;
79242280650449;-9.7902;-1.7043;-2.3375;
79242290772272;-9.6371;-0.9018;-2.9148;
79242300875449;-8.6931;-1.0167;-3.7484;
79242310978678;-8.2645;-0.6526;-4.7569;
79242321068053;-9.4478;-1.2371;-4.0310;
79242331171282;-9.0144;-0.5566;-3.3218;
79242341274459;-7.9866;0.1857;-3.3218;
79242351379095;-8.8035;0.4014;-3.4657;
79242361482324;-10.3029;0.5572;-4.2443;
79242371585501;-12.6841;0.1762;-4.5126;
79242381687324;-10.7079;0.4540;-2.8908;
79242391790553;-7.1674;0.6577;-2.2104;
79242401893730;-7.3780;0.8279;-3.1543;
79242412039928;-9.7496;1.2565;-3.7771;
79242422143105;-10.0059;1.5224;-3.2501;
79242432246282;-6.9326;0.9428;-2.5624;
79242442334459;-8.9686;0.1140;-5.4060;
79242452437689;-11.5199;0.5333;-4.9412;
79242462540866;-8.6381;-0.1352;-2.0644;
79242472650293;-8.6620;-0.0897;-3.6742;
79242482753522;-10.4181;-0.3508;-3.8249;
79242492856699;-7.6968;-0.3027;-2.0186;
79242502976074;-7.8141;-0.5997;-2.3806;
79242513079303;-10.8203;-0.5303;-3.7436;
79242523182480;-10.2622;-0.1735;-2.3806;
79242533269303;-8.0632;-0.6502;-1.3433;
79242543374616;-9.8480;-0.4346;-3.9159;
79242553479928;-10.1809;0.1116;-3.5925;
79242563591595;-8.7147;0.0900;-2.6417;
79242573696907;-10.0226;-0.3461;-2.4500;
79242583802220;-8.8274;0.7442;-2.1266;
79242593979564;-7.3756;1.4602;-3.0799;
79242604084928;-10.2790;0.9428;-3.5495;
79242614190241;-10.7988;1.3908;-3.0224;
79242624234616;-8.6285;1.1776;-2.5481;
79242634339928;-9.0479;1.0460;-3.7795;
79242644445293;-10.5520;0.7295;-3.0224;
79242654600918;-7.5721;1.1297;-2.4906;
79242664706282;-9.0455;1.2541;-5.1377;
79242674811595;-12.5620;0.4831;-3.6718;
79242684885814;-7.6944;0.3176;-0.4519;
79242694991178;-6.6619;0.9571;-2.8741;
79242705096491;-11.1631;0.8973;-4.7351;
79242715203157;-10.3678;1.6496;-3.5040;
79242725308470;-6.8270;0.7223;-1.6522;
79242735413782;-10.0322;0.7968;-4.3161;
79242745505032;-11.6348;1.3717;-5.5881;
79242755610345;-6.5420;0.1475;-0.7564;
79242765715657;-8.5519;-0.6048;-2.9722;
79242775847532;-12.1618;1.5248;-6.8384;
79242785952845;-6.9565;1.2784;-3.2453;
79242796058157;-6.1349;-0.5590;-2.5170;
79242806144459;-10.2479;1.5272;-7.4830;
79242816249772;-11.0839;3.0197;-5.4826;
79242826355084;-10.4181;0.2435;-2.1338;
79242836462741;-9.4741;0.0541;-2.4236;
79242846568053;-8.5472;1.0101;-2.3133;
79242856673366;-9.0909;1.2230;-2.9100;
79242866772532;-10.4133;2.1479;-4.6418;
79242876877845;-9.6108;1.2470;-3.2859;
79242886983157;-8.4849;1.5272;-2.9172;
79242897111491;-6.9757;2.8810;-3.5925;
79242907216803;-6.8510;2.3034;-4.8885;
79242917322116;-9.1436;2.0833;-5.8588;
79242927420241;-6.2378;1.9202;-4.6442;
79242937525553;-7.9170;1.3956;-5.8277;
79242947630866;-9.8647;1.7812;-4.4743;
79242957735970;-8.7341;0.1068;-2.3758;
79242967841282;-10.0226;0.2818;-4.2658;
79242977946595;-7.5864;-0.1472;-2.5648;
79242988074876;-9.6060;-0.9162;-3.7627;
79242998180189;-10.5042;-0.3796;-3.1472;
79243008285501;-8.4945;-1.1892;-2.0139;
79243018373366;-9.8886;-1.9220;-3.7938;
79243028478678;-9.4406;-1.0023;-4.1363;
79243038583991;-8.5878;-0.7747;-4.7183;
79243048694928;-9.8073;-0.1352;-5.2935;
79243058800241;-11.1823;0.5883;-5.7485;
79243068905553;-9.2465;0.5501;-4.8359;
79243079008053;-9.1029;1.9035;-3.1735;
79243089113366;-9.8599;1.7764;-3.5279;
79243099218678;-9.3927;2.6749;-4.0813;
79243109326386;-9.4214;2.7682;-3.4490;
79243119431699;-11.3761;2.8448;-3.3386;
79243129537011;-9.1508;2.5119;-4.5102;
79243139648366;-7.9026;1.7931;-4.5676;
79243149753678;-12.7729;0.7920;-4.8263;
79243159858991;-10.0035;1.2760;-4.6920;
79243169956126;-8.2621;2.2627;-3.7484;
79243180061439;-9.8958;1.4171;-5.1640;
79243190166751;-12.3248;2.5430;-5.8899;
79243200294303;-12.7152;2.2125;-5.7365;
79243210399616;-8.6644;2.1814;-2.3228;
79243220504928;-5.5720;1.6854;-1.2377;
79243230595761;-6.3984;0.2746;-1.8368;
79243240701074;-5.3109;0.1594;-1.4653;
79243250806386;-3.1932;-0.2931;-3.3434;
79243260910866;-4.4195;-0.4585;-8.4577;
79243271016178;-11.0695;-2.7966;-13.4812;
79243281121491;-12.3894;-3.8722;-12.7576;
79243291248105;-8.5735;-4.2458;-9.7490;
79243301353470;-0.0479;-3.8674;-7.4255;
79243311458782;3.4184;-0.5471;-5.9545;
79243321555553;-1.8996;1.0101;-1.1515;
79243331660866;0.4169;3.8222;-0.1286;
79243341766230;-9.3329;1.2398;-4.6801;
79243351870345;-29.1198;-1.6513;-9.1430;
79243361975657;-24.7406;-0.5231;-5.7413;
79243372080970;-10.0155;-2.4610;8.0566;
79243382180293;-10.8682;-5.3309;8.1383;
79243392285605;-15.1514;-1.6035;1.2464;
79243402390918;-17.0800;1.5706;-2.0282;
79243412521282;-5.9432;2.7108;-3.1687;
79243422626595;-0.4552;2.7443;-3.4920;
79243432731907;-7.8739;-0.3051;-8.3477;
79243442822949;-14.2436;-2.3868;-8.8268;
79243452928261;-7.8165;-2.9617;-6.3114;
79243463033574;-5.3492;-2.3103;-2.6656;
79243473125657;-9.8192;-2.2863;-2.4500;
79243483230970;-12.2794;-1.3184;-1.1468;
79243493336282;-9.4765;-0.7842;1.0690;
79243503447376;-9.4238;-1.3304;2.2478;
79243513552689;-9.3999;-2.2504;-0.7131;
79243523658001;-10.8371;-2.1855;-1.9493;
79243533800970;-9.1723;-2.4419;-4.0430;
79243543907168;-7.9388;-1.8120;-5.2023;
79243554013314;-8.4081;-1.7593;-6.2563;
79243564074668;-8.4105;-1.1797;-5.9856;
79243574180866;-7.5386;-0.7627;-6.0048;
79243584287011;-7.5649;-0.0754;-4.2993;
79243594453782;-7.2416;-1.2060;-3.6045;
79243604559980;-9.1244;-0.4561;-3.7890;
79243614666126;-9.0479;0.0637;-1.6475;
79243624712376;-10.1665;-0.1831;-3.3649;
79243634818574;-9.4932;-0.1878;-2.2510;
79243644924720;-10.5760;-0.0416;-2.8187;
79243655052897;-12.5285;-0.0921;-2.4643;
79243665159043;-7.4716;0.7490;-0.8593;
79243675265241;-4.4844;0.7777;-1.6618;
79243685347064;-8.5759;-0.1161;-5.0803;
79243695453261;-9.2489;0.3057;-7.8733;
79243705559407;-12.0278;-1.7258;-12.9374;
79243715690709;-16.6008;-0.4920;-6.5103;
79243725796907;-5.5887;0.8734;1.1961;
79243735903053;-3.7466;-0.2046;0.3024;
79243746017480;-9.6108;0.2554;-2.3614;
79243756123678;-13.8820;1.2374;-2.7398;
79243766229824;-9.4143;0.5429;-1.0008;
79243776312741;-6.9805;0.2459;-2.2774;
79243786418939;-8.2406;0.1857;-3.5662;
79243796525084;-10.0490;-0.3461;-6.2492;
79243806625397;-7.9914;0.3296;-5.8899;
79243816731595;-7.7255;-1.3687;-5.3055;
79243826837741;-9.6491;-0.3075;-6.0000;
79243836945814;-9.3185;-1.2826;-4.1052;
79243847052011;-9.0455;-0.6120;-3.7627;
79243857158157;-12.0398;-0.3772;-2.2750;
79243867272793;-10.5616;0.0230;-1.7599;
79243877378991;-9.5940;0.1618;-2.4619;
79243887485136;-8.2214;0.2483;-2.5361;
79243897576959;-8.7194;0.2698;-3.3218;
79243907683157;-8.5400;0.7442;-4.3639;
79243917789303;-8.7485;1.2063;-5.1066;
79243927898105;-10.3053;2.1048;-5.0803;
79243938004303;-7.1842;1.5419;-4.5796;
79243948110449;-5.0856;0.9619;-5.7341;
79243958216230;-10.6792;0.4110;-5.6456;
79243968322428;-11.3617;0.0374;-3.8847;
79243978428574;-8.0034;0.2841;-3.6694;
79243988533626;-7.8093;-0.9855;-3.2022;
79243998639824;-10.1306;-1.6899;-2.7278;
79244008745970;-11.0719;-1.7186;-1.4773;
79244018850605;-9.1149;-0.6837;-1.8511;
79244028956803;-9.5462;-1.0908;-2.7446;
79244039062949;-8.8011;-0.9999;-2.3303;
79244049174668;-8.4682;-0.4872;-2.6249;
79244059280866;-8.3842;-0.5590;-4.0119;
79244069387011;-8.7820;0.0661;-4.9412;
79244079490084;-9.3185;-0.4490;-4.1483;
79244089596282;-9.9437;-1.6202;-3.6838;
79244099702428;-9.0120;-1.8048;-1.9014;
79244109809980;-9.1268;-1.4767;-2.5648;
79244119916178;-8.5472;-1.6059;-4.5437;
79244130022324;-9.0335;-0.8656;-5.2119;
79244140130657;-9.6515;-1.0262;-6.0311;
79244150236855;-8.8322;-0.7101;-5.1808;
79244160343001;-9.8432;-1.3184;-2.5528;
79244170456334;-7.4405;-1.0573;-1.4127;
79244180562532;-8.7171;-0.7890;-2.9674;
79244190668678;-12.1953;-1.2754;-1.7599;
79244200768001;-9.2082;0.1355;-1.2835;
79244210874199;-5.6294;-0.4298;-2.1817;
79244220980345;-8.9375;-0.8850;-5.7174;
79244231075605;-11.3809;-0.1998;-4.7928;
79244241181803;-9.7519;-0.5638;-4.0908;
79244251287949;-6.7385;-0.2261;-4.0502;
79244261398105;-10.1521;-0.1639;-4.0621;
79244271504303;-9.0814;-0.8369;-3.4944;
79244281610449;-8.6261;-0.5734;-3.4226;
79244291706855;-10.2718;-0.7125;-3.5471;
79244301813053;-9.2106;0.4516;-3.5112;
79244311919199;-9.5414;0.2243;-2.5146;
79244322042793;-8.2406;0.2052;-2.5361;
79244332148991;-7.4429;0.2985;-3.5160;
79244342255136;-8.9973;0.6960;-5.1473;
79244352343314;-10.9786;0.6625;-5.5113;
79244362449511;-9.9556;0.4349;-4.5341;
79244372555657;-10.7438;0.0685;-3.8560;
79244382660293;-9.1938;0.3248;-1.8105;
79244392766491;-6.1062;0.3631;-2.3518;
79244402872636;-8.1661;-0.2931;-3.9254;
79244412998939;-8.8250;0.3153;-3.7699;
79244423105136;-10.1928;0.9978;-4.7641;
79244433211282;-9.4478;0.7872;-3.4513;
79244443289564;-8.6836;0.6218;-4.5891;
79244453395761;-9.8934;0.2698;-3.3314;
79244463501907;-9.8791;-0.0081;-1.8583;
79244473606126;-8.7580;-1.0956;-1.3911;
79244483712324;-7.6295;-0.8154;-3.2644;
79244493818470;-10.4444;-0.1639;-3.7196;
79244504001074;-9.9054;0.1164;-2.5935;
79244514107272;-10.8132;0.2435;-5.1281;
79244524213418;-10.2503;-1.0621;-2.8693;
79244534244199;-7.3110;-0.3843;-3.1591;
79244544349824;-6.6787;-0.6718;-4.7928;
79244554455449;-8.3052;-0.5662;-5.3127;
79244564613574;-8.6261;-0.5447;-3.9039;
79244574719199;-9.3879;-0.7699;-4.3663;
79244584824824;-7.7614;-0.0511;-3.5160;
79244594886491;-9.2154;-1.2897;-3.8154;
79244604992116;-10.3077;-1.1052;-4.0286;
79244615097741;-9.4071;-0.9616;-3.8177;
79244625196386;-8.5854;-1.2108;-3.0224;
79244635302011;-9.2225;-0.6766;-3.0894;
79244645407636;-8.9351;-1.0813;-1.7910;
79244655528053;-9.5100;-0.6526;-2.2056;
79244665633678;-9.8815;-1.0358;-2.3877;
79244675739303;-8.7700;-0.8632;-3.9592;
79244685843157;-7.4716;-1.0645;-4.5078;
79244695948782;-9.8240;-0.9281;-4.3496;
79244706054407;-12.3751;-0.6168;-4.8790;
79244716157741;-11.2086;-0.2692;-2.5409;
79244726263366;-9.0239;-0.3915;-1.9660;
79244736368991;-9.2536;-1.2395;-1.4222;
79244746502116;-8.9686;-1.1725;-4.0717;
79244756607741;-8.3363;0.0757;-3.9302;
79244766713366;-8.6477;-0.0655;-3.4705;
79244776798886;-6.8246;-0.1256;-3.2955;
79244786904511;-10.3367;-0.1424;-3.1783;
79244797010136;-11.9414;0.0182;-2.5959;
79244807104199;-9.4358;0.5788;-1.6690;
79244817209824;-7.9508;-0.3796;-3.6718;
79244827315449;-10.0274;-1.0836;-4.3711;
79244837421491;-9.5821;-0.5782;-2.5433;
79244847527116;-8.7051;-0.1352;-2.9602;
79244857632741;-10.1856;-0.1304;-2.1769;
79244867732116;-10.0657;0.0876;-2.0569;
79244877837741;-8.1087;-0.1041;-3.3960;
79244887943366;-7.9675;-0.0706;-4.8407;
79244898061386;-8.0919;0.1379;-5.4132;
79244908167011;-6.2689;0.5213;-5.1042;
79244918272636;-9.5701;-0.0057;-5.8158;
79244928386907;-9.2178;0.4445;-6.1199;
79244938492532;-8.8585;0.0326;-6.2563;
79244948598157;-11.3880;-0.3843;-5.4921;
79244958697116;-11.1269;-0.2524;-1.4725;
79244968802741;-9.1986;0.1235;0.9494;
79244978908366;-9.7472;-0.4513;-0.5982;
79244989036907;-9.1795;-0.4059;-0.7804;
79244999142532;-8.8609;0.2746;-1.4294;
79245009248157;-10.4755;0.0374;-5.5304;
79245019339303;-10.9546;-0.1878;-5.4036;
79245029444928;-11.0049;0.2506;-2.6847;
79245039550553;-7.3277;0.2315;-4.2802;
79245049657532;-8.6022;-0.1017;-5.2502;
79245059763157;-8.3913;-0.2500;-4.3424;
79245069868782;-6.9517;-0.4298;-4.4910;
79245079972220;-8.2932;0.2770;-4.3352;
79245090077845;-8.4344;0.6218;-5.1760;
79245100183470;-9.7783;0.4134;-3.3171;
79245110288782;-8.1135;0.3727;-1.1707;
79245120394407;-8.2717;0.2028;-2.3949;
79245130500032;-10.3965;-1.4384;-1.6642;
79245140610449;-9.8408;-0.8608;-2.0955;
79245150716074;-8.7099;-0.6215;-2.9339;
79245160821699;-6.8198;-0.7819;-3.6619;
79245170914511;-8.5352;-0.9879;-6.2372;
79245181020136;-10.5018;-0.6407;-5.2262;
79245191125761;-10.0466;-0.3413;-3.9999;
79245201245970;-10.3101;-0.0464;-2.5433;
79245211351595;-9.1771;-1.1052;-2.3133;
79245221457220;-8.6524;-0.4418;-1.3672;
79245231564928;-9.3114;-0.9520;-2.9985;
79245241670553;-10.2263;-0.8154;-2.0668;
79245251776178;-8.7194;0.3440;-2.0426;
79245261870866;-8.7556;0.6984;-3.0823;
79245271976491;-9.5076;-0.4490;-3.7555;
79245282082116;-8.2502;-0.1041;-2.9411;
79245292188053;-6.9613;0.6099;-3.0966;
79245302293678;-9.6538;0.4684;-4.6561;
79245312399303;-10.0107;1.0986;-4.3854;
79245322527949;-10.3558;0.5357;-3.5423;
79245332633574;-8.7485;-0.0511;-3.2381;
79245342739199;-8.9686;0.3583;-4.6705;
79245352827793;-11.4625;-0.1759;-3.4992;
79245362933418;-10.1115;0.6218;0.2976;
79245373039043;-8.3459;0.5692;0.0365;
79245383148886;-10.2598;0.3129;-1.6355;
79245393254511;-9.8839;0.1642;-4.3496;
79245403360136;-7.6848;0.2076;-4.1913;
79245413463574;-7.8954;-0.0511;-3.5830;
79245423569199;-8.2525;0.4181;-3.7795;
79245433674824;-9.6108;0.8638;-4.9196;
79245443777116;-9.8169;0.6027;-3.9855;
79245453882741;-8.5137;1.3334;-2.8475;
79245463988366;-8.2645;0.1259;-3.4418;
79245474101491;-10.4420;-0.1926;-2.9674;
79245484207116;-10.5975;0.6027;-0.8928;
79245494312741;-8.0178;0.9667;-0.9837;
79245504429407;-9.0670;-0.9784;-3.5064;
79245514535032;-11.7045;-0.2500;-5.4945;
79245524640657;-9.8743;0.1714;-4.1961;
79245534725084;-9.0957;-0.1041;-2.7470;
79245544830918;-9.7137;0.2722;-3.3577;
79245554936699;-7.8811;1.1417;-3.5112;
79245565054147;-8.5280;0.4229;-4.3831;
79245575159980;-8.2430;0.3176;-4.7809;
79245585265761;-8.6692;0.3583;-4.6537;
79245595385501;-10.8757;-0.0778;-4.8766;
79245605491334;-10.4252;0.2052;-2.0186;
79245615597116;-7.3301;0.3631;-0.7373;
79245625706803;-8.8131;-0.9951;-2.3638;
79245635812636;-7.9098;-1.0406;-4.7713;
79245645918418;-9.8695;-1.4169;-4.8622;
79245656007897;-10.7797;-0.7771;-3.1926;
79245666113730;-7.6920;-1.2562;-3.2859;
79245676219511;-5.5672;-0.6766;-6.7283;
79245686320709;-10.3822;-1.8215;-6.5629;
79245696426543;-11.5558;-0.2381;-3.6718;
79245706532324;-11.1655;-1.1916;-1.3002;
79245716632480;-12.7920;-0.2118;-1.1683;
79245726738314;-8.3818;-0.9568;0.1158;
79245736844095;-5.7395;-0.9377;-1.1755;
79245746963730;-7.4596;-0.5231;-4.5150;
79245757069564;-8.6022;-0.5016;-4.9268;
79245767175345;-11.8528;-0.8225;-3.7651;
79245777281647;-11.5367;-0.7699;-2.3662;
79245787387480;-9.7161;-0.6479;-3.5566;
79245797493261;-8.9614;-1.2634;-2.1099;
79245807595814;-8.9782;-1.4022;-2.0617;
79245817701647;-13.3071;-1.1557;-2.4930;
79245827807480;-11.1847;-1.0406;0.1397;
79245837917741;-6.4558;-0.3485;-1.9325;
79245848023574;-8.8657;0.4253;-4.2945;
79245858129355;-6.4606;0.6242;-2.1984;
79245868230084;-6.1181;-0.0559;-4.2299;
79245878335918;-10.0561;0.0135;-7.2577;
79245888441699;-12.7896;-0.9329;-5.5905;
79245898554772;-12.2001;-0.8512;-4.6083;
79245908660605;-10.1521;-0.0009;-2.6345;
79245918766386;-7.4022;0.5166;0.7528;
79245928868678;-6.7744;-0.1232;2.0441;
79245938974459;-7.9699;-0.4322;-2.9315;
79245949080293;-10.8419;-0.9927;-7.0851;
79245959189147;-12.0278;-0.7125;-6.3571;
79245969294980;-10.6241;-0.6837;-2.7805;
79245979400761;-9.5773;-0.1974;-3.0488;
79245989518522;-8.2071;-0.7220;-4.3328;
79245999624355;-10.5927;-1.0047;-5.5137;
79246009730136;-11.2995;-0.6837;-2.5839;
79246019821751;-9.5892;1.0026;-0.5121;
79246029927636;-7.9531;0.9476;0.2498;
79246040033366;-5.1479;-0.1902;-0.1382;
79246050125709;-5.6438;0.1499;-5.2887;
79246060231543;-7.7327;-0.2094;-8.6830;
79246070337324;-11.2086;-0.0969;-8.7356;
79246080452480;-14.2173;-0.5710;-4.8120;
79246090558366;-14.7945;-0.5925;0.0990;
79246100664095;-11.5750;-0.9233;2.2837;
79246110768314;-7.6319;-0.9233;1.1602;
79246120874147;-4.5993;-0.5806;-4.0932;
79246130979980;-5.1335;-0.7986;-8.5250;
79246141096022;-6.8198;0.0087;-6.2396;
79246151201855;-11.7308;1.5344;-3.2070;
79246161307636;-17.2834;2.1383;-1.4366;
79246171398418;-12.2291;1.0531;-0.4834;
79246181504251;-4.8389;-0.5375;-1.0702;
79246191610032;-4.7910;-0.9090;-4.8024;
79246201720709;-7.7614;0.1475;-6.3185;
79246211826543;-8.9136;0.3751;-3.5183;
79246221932324;-8.6812;1.3167;-1.6762;
79246232034876;-7.6176;1.0292;-2.4715;
79246242140709;-10.8012;-0.9520;-4.0860;
79246252246543;-9.5028;-1.1773;-6.1917;
79246262366543;-8.9710;-0.7507;-7.0540;
79246272472376;-10.3798;-1.7115;-8.5537;
79246282578157;-12.3224;-1.1533;-4.1243;
79246292665397;-7.7399;0.4445;4.1809;
79246302771230;-5.6605;0.7175;5.6348;
79246312877011;-11.4000;0.5405;0.4774;
79246322987949;-13.2135;0.7633;-3.2524;
79246333093730;-7.2129;0.0135;-5.0010;
79246343199564;-5.6940;-0.1854;-8.7909;
79246353326230;-8.1900;-0.1902;-8.1177;
79246363432064;-9.2058;0.5764;-2.4858;
79246373537845;-6.5731;0.9188;0.8895;
79246383622272;-6.0870;0.4564;-1.4964;
79246393728157;-10.9044;-0.0631;-4.1124;
79246403833939;-10.7031;-0.1065;-2.8908;
79246414002793;-11.0815;-1.2826;-2.9913;
79246424108574;-12.1499;-1.7713;-2.9698;
79246434214407;-9.2393;-1.1653;-0.7253;
79246444255814;-8.0871;-0.1902;-0.8833;
79246454361647;-10.2670;-0.0392;-0.6556;
79246464467428;-9.0263;0.3942;0.4391;
79246474617584;-10.3316;-0.0583;-1.4318;
79246484723418;-12.7176;-0.4035;-4.0621;
79246494829199;-12.8638;-0.4011;-3.5064;
79246504894355;-9.0670;0.1666;0.0413;
79246515000189;-8.4945;-0.7340;1.3014;
79246525105970;-9.2369;-1.4097;-1.3457;
79246535231751;-10.3487;-1.5485;-2.7206;
79246545337845;-9.7615;-1.5197;-1.5278;
79246555443886;-6.4343;-1.8861;-2.1553;
79246565529668;-5.9671;-1.5461;-7.6409;
79246575635761;-9.4884;-1.8239;-9.1406;
79246585741803;-9.8982;-1.1797;-3.9302;
79246595866022;-10.8515;-0.4896;-0.2653;
79246605972116;-10.1474;0.2291;-0.5695;
79246616078157;-8.6883;0.3918;-0.7732;
79246626165189;-8.3459;0.2171;-1.0510;
79246636271282;-9.6586;-0.3338;-0.3108;
79246646377324;-9.7184;-0.2261;-1.9995;
79246656488939;-11.9222;0.3248;-2.8499;
79246666595032;-10.0514;-0.0320;-2.3686;
79246676701074;-8.7437;-0.9879;-1.5036;
79246686799854;-11.5487;-0.5279;-2.1649;
79246696905947;-9.7448;-0.5303;-1.2691;
79246707011989;-7.1240;-0.8779;-0.7421;
79246717121989;-10.5832;-0.5518;-2.8068;
79246727228083;-12.1881;0.7944;-2.1362;
79246737334124;-8.7317;0.1786;1.4979;
79246747438187;-8.2932;-0.4777;1.5123;
79246757544281;-8.3172;-0.5495;-1.0223;
79246767650322;-9.3305;-1.0621;-2.2152;
79246777759229;-11.1894;0.0254;-2.4236;
79246787865322;-12.3200;-0.4848;-0.9455;
79246797971364;-8.6596;0.3033;-1.9564;
79246808076156;-7.2799;-0.6766;-1.2497;
79246818182249;-7.8476;-0.6311;-2.8669;
79246828288291;-10.5066;-0.5949;-3.9855;
79246838395687;-9.4454;0.4564;-3.5997;
79246848501781;-8.1494;-1.1390;-1.4653;
79246858607822;-8.3626;0.2171;-2.9506;
79246868707145;-10.6887;0.1522;-3.5016;
79246878813239;-13.0364;0.0111;-0.1430;
79246888919281;-9.3425;0.7104;-0.0879;
79246899028916;-7.7183;-0.3051;-0.2246;
79246909135010;-8.7413;0.0135;-1.3385;
79246919241051;-11.7045;0.2195;-1.9158;
79246929341729;-9.0933;0.3679;-1.7961;
79246939447822;-6.8895;0.3870;-2.9315;
79246949553864;-9.8862;0.0541;-5.7174;
79246959665270;-11.0097;0.4493;-4.0597;
79246969771364;-9.2970;0.2171;-3.2070;
79246979877406;-10.2909;0.1187;-3.4418;
79246989995374;-7.0140;-0.0631;-1.6714;
79247000101468;-8.5711;-0.5447;-0.8402;
79247010207510;-9.1412;0.2698;-1.1252;
79247020298604;-10.3292;0.6290;-0.9072;
79247030404697;-12.8423;0.5046;-0.8856;
79247040510739;-10.9020;1.5562;-1.0271;
79247050634489;-9.0311;0.0805;-0.1597;
79247060740583;-6.5420;0.2770;-2.5409;
79247070846624;-9.6682;-0.4513;-2.7254;
79247080934229;-10.7366;0.6577;-2.4332;
79247091040322;-9.0239;0.9476;-3.7029;
79247101146364;-10.0732;0.7968;-3.1400;
79247111251156;-9.6012;0.3535;-1.5227;
79247121357249;-9.1747;0.0685;-1.2185;
79247131463291;-8.8585;0.0063;-1.3983;
79247141576312;-10.3316;-0.3242;-2.2726;
79247151682406;-11.0743;-0.3915;-1.2858;
79247161788447;-9.0814;-0.2453;0.6138;
79247171894958;-7.7279;-0.4848;-1.5326;
79247182001051;-11.2756;0.2124;-3.0823;
79247192107093;-12.8375;-0.0033;-1.5876;
79247202204854;-7.9074;0.2148;-1.2353;
79247212310947;-6.1828;-0.1089;-2.6154;
79247222416989;-10.1785;0.3583;-3.9592;
79247232521104;-11.9943;0.1762;-3.1472;
79247242627197;-8.5567;-0.8512;-1.1396;
79247252733239;-7.1865;0.3823;-2.0474;
79247262841937;-10.5712;-0.0129;-2.2008;
79247272948031;-11.4769;0.3894;-1.6666;
79247283054072;-8.7891;-0.5112;-1.3385;
79247293154020;-8.3578;-0.8584;-1.6546;
79247303260114;-9.5797;-0.6168;-2.4308;
79247313366156;-10.4683;-0.8707;-1.5733;
79247323477249;-9.9197;-0.1735;-2.0091;
79247333583343;-9.5988;0.0159;-2.6919;
79247343689385;-12.9308;-0.5327;-0.9526;
79247353791104;-8.8585;-0.0488;-1.2114;
79247363897197;-5.3468;0.1068;-1.2185;
79247374003239;-9.5653;-1.6131;-2.4763;
79247384114020;-11.7739;-0.4490;-3.5016;
79247394220114;-8.0680;0.2435;-2.4356;
79247404326156;-8.8083;-0.3027;-2.4308;
79247414424749;-10.2598;-0.1663;-3.0535;
79247424530843;-10.8156;-0.2716;-1.6331;
79247434636885;-9.4980;-0.8441;-1.2811;
79247444730374;-7.7758;-0.2931;-1.4103;
79247454836468;-8.5089;-0.9999;-2.9363;
79247464942510;-9.4214;-0.4561;-2.4284;
79247475061051;-9.7352;0.2746;-2.5098;
79247485167093;-9.8336;-0.2142;-2.2271;
79247495273187;-10.7725;0.2243;-2.1912;
79247505375270;-9.2898;0.4831;-2.3901;
79247515481364;-7.8308;-0.5183;-0.3012;
79247525587406;-9.6299;0.3990;-3.1639;
79247535722458;-13.6161;-0.3963;-2.3133;
79247545828447;-9.4023;0.2100;1.1121;
79247555934437;-7.3181;-0.3338;-0.5958;
79247566020739;-10.4563;-0.0778;-2.6393;
79247576126729;-10.5018;0.4277;-1.3792;
79247586232718;-8.5184;-0.2213;-1.8153;
79247596327249;-10.3774;-0.4825;-2.9028;
79247606433239;-8.9495;-0.0993;-2.9387;
79247616539229;-9.0024;-0.6335;-2.4165;
79247626656416;-9.9485;-0.0969;-1.5156;
79247636762406;-9.8384;-0.2118;-1.5565;
79247646868395;-9.2369;0.6075;-2.1338;
79247656974854;-10.3630;0.0517;-2.0378;
79247667080843;-10.2861;-0.2261;-0.6269;
79247677186833;-9.6060;0.3488;-0.4810;
79247687303395;-9.2632;0.1666;-1.7216;
79247697409385;-14.0638;1.1130;-1.7480;
79247707515374;-8.2406;-0.3123;-1.4198;
79247717608812;-0.0814;-1.4456;-3.1158;
79247727714801;-10.3606;-0.1591;-7.5547;
79247737820791;-16.8212;-0.0754;-5.9186;
79247747933239;-8.3076;0.3272;-1.5203;
79247758039229;-5.7395;-0.6670;-1.5541;
79247768145218;-8.7099;-0.3242;-3.5040;
79247778250166;-14.4879;-0.3748;-2.5409;
79247788356156;-9.3903;-0.2142;-0.0544;
79247798462145;-8.0991;-0.7101;-1.0941;
79247808562145;-11.0791;0.1618;-2.8932;
79247818668135;-7.6487;-0.2955;-1.8918;
79247828774124;-8.7652;0.2100;-3.1253;
79247838879854;-10.6146;-0.0368;-4.4572;
79247848985843;-9.2034;0.8016;-4.6394;
79247859091833;-9.0191;-0.2261;-4.6585;
79247869199749;-7.2918;0.1283;-4.4886;
79247879305739;-9.9580;0.3607;-4.4429;
79247889411729;-12.3081;0.2770;-4.7064;
79247899510791;-7.3325;0.5883;1.9457;
79247909616781;-4.3525;-0.6215;0.7122;
79247919722770;-10.5401;-0.4202;-5.0946;
79247929832770;-11.8050;-0.0706;-2.8451;
79247939938760;-10.4970;-0.1184;-2.1817;
79247950044749;-9.4741;0.7175;-3.4681;
79247960154229;-9.5916;0.3033;-3.6236;
79247970260218;-9.5940;-0.1280;-3.4107;
79247980366208;-10.6672;0.5477;-1.8392;
79247990482041;-9.6491;0.7247;-0.3826;
79248000588031;-9.0168;0.4253;-1.6427;
79248010694020;-9.7854;-0.2548;-2.5098;
79248020789437;-8.7963;0.3870;-3.0009;
79248030895426;-10.2814;0.0254;-3.3338;
79248041001416;-9.6778;-0.1137;-1.3026;
79248051108395;-6.5779;-0.0033;-1.1827;
79248061214385;-6.5707;-0.7986;-5.4586;
79248071320374;-11.5606;-0.6311;-4.0884;
79248081423291;-13.1536;-0.6144;0.5324;
79248091529281;-9.9389;-0.4633;2.0919;
79248101635270;-10.1928;-0.3365;-0.5503;
79248111740270;-10.9235;-0.9042;-3.3817;
79248121846260;-8.4033;-0.5925;-2.2654;
79248131952249;-7.3373;-0.5830;-1.1515;
79248142053291;-10.3869;-0.6981;-2.9291;
79248152159281;-10.5903;-0.4418;-2.7278;
79248162265270;-9.1771;-0.7723;-1.9325;
79248172390999;-9.0718;-0.4442;-2.3495;
79248182496989;-10.1521;-0.2213;-2.5792;
79248192602979;-12.3942;-0.5088;-1.2954;
79248202692614;-9.3353;-0.0631;1.4213;
79248212798604;-7.8141;-1.3376;-0.4977;
79248222904593;-9.5243;-1.1315;-2.6489;
79248233004541;-11.9752;-0.2764;-0.7971;
79248243110531;-9.2584;-1.5030;2.0201;
79248253216520;-8.4873;-0.7292;-0.3203;
79248263333812;-11.3330;0.1475;-5.4251;
79248273439801;-10.1593;-0.6694;-4.0549;
79248283545791;-8.4200;-0.4561;-2.1529;
79248293647770;-9.2707;-0.0826;-2.9722;
79248303753760;-10.7055;-0.4418;-2.3614;
79248313859749;-9.4262;0.0757;-1.1898;
79248323991624;-8.7844;-0.6622;-1.6929;
79248334097614;-9.9126;0.4038;-1.9397;
79248344203604;-10.5305;0.7442;-2.3303;
79248354284801;-9.0718;0.6410;-1.1563;
79248364390791;-8.5735;-0.7962;-1.1659;
79248374496781;-9.6778;-0.0153;-3.9903;
79248384614020;-10.4635;0.5213;-3.5064;
79248394720010;-10.0947;0.0876;-2.6728;
79248404825999;-10.2814;-0.6048;-1.9349;
79248414913187;-8.3698;0.6386;-2.9315;
79248425019176;-6.4176;-0.0320;-4.5796;
79248435125166;-10.7390;-0.1400;-4.4094;
79248445236312;-11.4817;1.0053;-3.4585;
79248455342301;-8.4248;1.1225;-2.1075;
79248465448291;-7.0714;0.0230;-2.2917;
79248475546208;-8.8825;0.1307;-3.7029;
79248485652197;-10.3774;0.2291;-3.7866;
79248495758187;-11.1078;0.6170;-3.5949;
79248505870322;-9.1819;-0.2381;-2.7996;
79248515976312;-7.5266;-0.3508;-2.8379;
79248526082301;-7.3110;-0.6790;-3.5231;
79248536218083;-10.7151;-0.2907;-4.3089;
79248546324072;-11.5582;-0.5231;-3.3840;
79248556430114;-10.5760;-0.2979;-2.6656;
79248566505270;-11.4338;-0.1208;-1.8416;
79248576611260;-8.9423;-0.7579;-1.5278;
79248586717301;-7.2105;-0.5447;-2.2798;
79248596822822;-9.7113;-0.9736;-2.4906;
79248606928812;-9.7400;-0.2859;-3.1615;
79248617034854;-8.0991;0.1092;-3.7723;
79248627140687;-8.6357;-0.4466;-4.6681;
79248637246676;-9.9461;-0.1065;-4.0358;
79248647352718;-8.6548;0.0517;-3.1878;
79248657463395;-10.2742;0.1379;-3.7507;
79248667569385;-9.4382;-0.5064;-2.2319;
79248677675426;-7.8284;-0.4729;-2.3925;
79248687780999;-10.2790;-0.5136;-3.1878;
79248697886989;-10.3893;0.0446;-1.7240;
79248707993031;-8.6931;0.0063;-0.6939;
79248718093708;-9.4143;-0.0392;-2.3061;
79248728199697;-8.5543;0.1834;-4.2009;
79248738305739;-10.0394;0.7319;-4.8287;
79248748415895;-11.6973;0.0996;-3.2261;
79248758521885;-8.0967;0.7394;-1.2233;
79248768627926;-8.0297;0.4636;-1.6451;
79248778732822;-10.5616;-0.0057;-1.8129;
79248788838812;-10.8972;-0.5590;-0.0018;
79248798944854;-9.1699;-0.4753;-0.4089;
79248809047458;-9.6036;0.5453;-2.5098;
79248819153447;-9.0144;-0.1472;-2.3782;
79248829259489;-9.9915;-1.2730;-2.1434;
79248839369489;-9.1890;-0.8034;-2.2128;
79248849475479;-8.9231;-0.2835;-2.4763;
79248859581520;-10.5114;-0.4035;-2.9746;
79248869683083;-10.8467;0.0709;-1.8679;
79248879789072;-8.3076;-0.5566;-1.8870;
79248889895114;-8.3148;-0.1184;-2.8717;
79248900001312;-9.9221;-0.0730;-1.8200;
79248910107301;-10.2383;-0.2548;-0.8115;
79248920213343;-8.6548;-0.2835;-1.3241;
79248930317562;-9.7950;0.1475;-3.3338;
79248940423551;-8.9638;-0.7914;-3.2070;
79248950529593;-9.9245;-0.2429;-2.3061;
79248960640999;-10.1737;0.0063;-2.3949;
79248970746989;-10.5879;-0.0945;-2.3638;
79248980853031;-9.5148;-0.2213;-1.4868;
79248990969854;-8.5280;-0.3389;-1.6618;
79249001075843;-9.9628;-0.6837;-2.7900;
79249011181885;-9.9772;-0.7364;-2.4188;
79249021283187;-9.8456;0.3535;-2.1912;
79249031389176;-6.9541;-0.4466;-2.2175;
79249041495218;-7.9508;0.4588;-4.4815;
79249051608447;-10.7270;0.7585;-4.6537;
79249061714437;-10.4611;-0.0320;-2.2128;
79249071820479;-8.2789;0.5333;-1.2162;
79249081910687;-8.3363;-0.3338;-2.9554;
79249092016676;-11.4000;-0.1280;-3.2812;
79249102122718;-12.0039;0.4181;-1.0630;
79249112230479;-7.8643;0.1762;-0.8450;
79249122336468;-8.8179;-0.3867;-1.7432;
79249132442510;-9.0526;-0.2883;-1.3026;
79249142540999;-9.4406;-0.1065;-2.6249;
79249152646989;-10.0609;-0.5853;-4.0860;
79249162753031;-11.5774;-0.4585;-2.6154;
79249172889437;-8.9686;0.4277;-1.8583;
79249182995426;-7.9579;0.0757;-2.4404;
79249193101468;-9.3090;-0.1400;-2.6680;
79249203181781;-11.1341;-0.0392;-2.0163;
79249213287770;-10.2933;0.3296;-1.1276;
79249223393812;-8.7437;-0.0682;-0.9359;
79249233484385;-10.4659;-0.0248;-1.9325;
79249243590322;-7.5601;-0.5925;-2.4571;
79249253696364;-8.3626;0.1810;-3.5255;
79249263802354;-11.5774;-0.2859;-3.6814;
79249273986208;-9.7878;-0.2357;-3.2644;
79249284092197;-6.7385;0.1187;-3.3649;
79249294198239;-9.8240;-0.4513;-4.3735;
79249304249749;-11.8098;-0.6933;-2.9985;
79249314355791;-10.8948;0.3057;-1.3409;
79249324461781;-8.8155;-0.5040;-0.2844;
79249334605479;-7.5338;-0.5183;-1.8488;
79249344711468;-8.3842;0.2865;-3.4226;
79249354817510;-10.3534;0.5931;-3.8800;
79249364881051;-9.5533;0.3033;-2.3327;
79249374987041;-7.6609;0.6505;-3.3625;
79249385093083;-8.5472;0.0254;-4.8191;
79249395193812;-10.8036;0.1977;-4.4237;
79249405299801;-9.5366;0.4711;-2.4811;
79249415405843;-8.6405;0.5572;-1.9062;
79249425505479;-10.9738;0.0805;-2.4763;
79249435611468;-9.8527;0.3176;-0.6293;
79249445717510;-8.9112;-0.2046;-1.1683;
79249455832562;-11.5463;0.2674;-2.2917;
79249465938604;-9.0096;-0.4226;-0.9311;
79249476044593;-9.1125;-0.0754;-1.8176;
79249486140479;-11.2971;-0.0754;-2.3997;
79249496246468;-8.7796;0.2818;-2.3399;
79249506352510;-8.7580;0.3488;-3.2812;
79249516466937;-9.9197;0.7657;-3.3075;
79249526572926;-10.0442;0.7585;-1.6834;
79249536678968;-8.0871;0.4711;-0.6987;
79249546784124;-8.6668;-0.0272;-2.2104;
79249556889906;-10.0346;-0.4298;-2.4930;
79249566995583;-9.1914;0.2076;-2.9841;
79249577097562;-9.8791;-0.1974;-3.2453;
79249587203291;-9.1196;-0.4226;-2.9889;
79249597309020;-7.0451;-0.3389;-2.8164;
79249607422145;-9.2010;-0.3604;-4.2467;
79249617527926;-12.9858;-0.8034;-3.9278;
79249627633604;-11.8241;-0.2835;-1.3552;
79249637741676;-6.6906;-0.0272;-0.2844;
79249647847354;-7.5194;-0.1783;-3.1663;
79249657953135;-11.5439;-0.5231;-4.3496;
79249668054489;-10.2503;0.1786;-2.1147;
79249678160218;-9.0335;-0.4370;-0.9287;
79249688265999;-8.4248;0.6003;-2.5193;
79249698376104;-10.6122;-0.7555;-2.5026;
79249708481833;-11.8289;-0.0009;-1.8176;
79249718587562;-10.2790;-0.3266;-1.2353;
79249728692249;-8.4129;-0.6670;-3.1038;
79249738798031;-8.9495;-0.4059;-2.4500;
79249748903708;-10.1498;-0.5327;-1.3146;
79249759011729;-9.6227;-0.2237;-1.8511;
79249769117458;-10.4539;-0.2046;-2.0955;
79249779223239;-10.1258;-0.1137;-2.6465;
79249789333864;-7.7112;-0.3628;-2.0163;
79249799439593;-10.0226;-1.0502;-2.6512;
79249809545322;-11.1655;1.0555;-4.0621;
79249819643604;-9.4765;0.0470;-1.9828;
79249829749333;-10.7222;-0.5231;-0.7588;
79249839855114;-7.1889;0.3009;-2.1505;
79249849958968;-8.9973;-0.2907;-2.6297;
79249860064645;-11.6806;-0.0272;-2.3710;
79249870170426;-11.9151;-0.2931;-2.2367;
79249880279749;-6.6165;-0.4896;-3.2429;
79249890385531;-7.5099;-1.3208;-4.5389;
79249900491260;-10.5138;-0.2189;-4.7426;
79249910601104;-12.2650;-0.0583;-1.7623;
79249920706885;-9.0909;0.0494;-1.3624;
79249930812614;-8.6189;-0.4035;-4.5245;
79249940919906;-9.3903;-0.4226;-4.0167;
79249951025687;-9.1555;0.1977;-1.8559;
79249961131364;-9.9126;-0.3891;-3.0511;
79249971244854;-11.4123;0.5740;-3.1902;
79249981350583;-8.6548;0.0254;-0.9670;
79249991456364;-5.9145;-0.1615;-2.1888;
79250001560531;-11.8887;-0.6981;-4.9675;
79250011666260;-10.4396;-0.0464;-2.9698;
79250021771989;-7.3086;0.2506;-1.2906;
79250031875947;-8.1374;-0.5279;-3.7101;
79250041981676;-10.4492;-0.3147;-4.9436;
79250052087354;-9.9748;-0.0248;-1.9253;
79250062192041;-8.4033;-0.0559;-2.1864;
79250072297770;-11.2756;-0.3338;-3.0631;
79250082403499;-10.3511;-0.1352;-1.2906;
79250092531051;-6.5973;-0.2812;-0.9048;
79250102636833;-8.2167;-0.4418;-4.1267;
79250112742562;-11.6444;0.0589;-4.8526;
79250122835791;-10.3149;0.2650;-1.1635;
79250132941468;-8.2932;-0.1065;-1.2978;
79250143047249;-8.8490;-0.3075;-3.6141;
79250153144229;-9.9413;-0.2046;-2.7876;
79250163249906;-8.4945;0.3823;-1.8033;
79250173355635;-11.9294;-0.2166;-2.0668;
79250183473031;-10.6481;-0.6479;-1.2930;
79250193578708;-9.0335;-0.9616;-0.4376;
79250203684489;-7.3756;-0.4418;-1.3433;
79250213784906;-10.7892;-1.1124;-2.8092;
79250223890635;-11.8098;0.1427;-2.6536;
79250233996312;-9.1579;-0.1496;-1.0295;
79250244083343;-8.6548;-0.4155;-1.7503;
79250254189072;-9.5677;-0.7699;-3.0129;
79250264294749;-9.2898;-0.0778;-4.3352;
79250274417979;-9.4286;-0.0778;-2.5552;
79250284523760;-9.5533;0.0470;-1.5565;
79250294629437;-8.8442;0.4134;-3.3434;
79250304727458;-10.0394;-0.5806;-3.3123;
79250314833187;-8.9734;0.0350;-2.0139;
79250324938916;-8.9925;-0.3843;-3.0440;
79250335072874;-8.4464;-0.8994;-3.3625;
79250345178656;-9.1914;-0.5830;-3.4274;
79250355284385;-6.8366;-0.3266;-4.2467;
79250365361937;-9.1220;-0.9281;-4.7231;
79250375467666;-11.2756;0.2818;-3.7125;
79250385573395;-7.6128;0.3320;-2.3758;
79250395702458;-7.6199;-0.4155;-3.6766;
79250405808187;-10.5927;-0.4537;-3.7890;
79250415913916;-8.7003;0.0948;-2.7135;
79250426002874;-9.6754;0.0230;-2.9291;
79250436108604;-9.0838;-0.2453;-2.4858;
79250446214333;-7.8141;0.6745;-2.2247;
79250456321676;-11.7476;0.0661;-2.1745;
79250466427354;-12.0302;-0.0176;-1.3552;
79250476533083;-8.2478;0.0996;-1.5446;
79250486690218;-7.8404;0.0159;-3.1926;
79250496795895;-11.4458;-0.7125;-3.5495;
79250506901676;-10.2383;-0.1639;-0.8713;
79250516950791;-8.9160;-0.9808;-0.4376;
79250527056520;-10.3029;-0.4178;-3.1735;
79250537162301;-8.4535;-0.6455;-2.7517;
79250547278395;-6.7624;-0.4346;-2.3252;
79250557384333;-10.5305;-0.3242;-3.4226;
79250567490270;-11.1341;0.4588;-3.4992;
79250577600270;-8.7171;-0.4801;-1.6355;
79250587706208;-6.5635;0.2291;-2.9148;
79250597812145;-11.0504;-0.6622;-4.6872;
79250607919229;-10.7916;-0.8898;-2.0931;
79250618025166;-8.5663;0.1666;-0.0209;
79250628131104;-8.5304;-0.3266;-3.0703;
79250638238187;-8.3674;-0.9832;-6.0841;
79250648344124;-9.4980;-0.6502;-4.5341;
79250658450062;-8.1852;-0.5255;-2.6656;
79250668548916;-12.1283;0.2267;-2.9865;
79250678654854;-12.3512;-0.2453;-2.8837;
79250688760791;-7.6777;-0.4753;-0.7059;
79250698874229;-8.1494;-0.2524;-2.3252;
79250708980166;-11.9175;-0.5160;-3.7914;
79250719086104;-13.1824;0.3511;-1.2138;
79250729203395;-8.3674;-0.4346;1.3828;
79250739309333;-7.5051;-0.0344;-3.9425;
79250749415270;-11.9728;-1.1076;-4.9747;
79250759525895;-9.4286;0.1738;-1.1850;
79250769631833;-6.7361;-0.5183;-2.5911;
79250779737770;-8.1278;-0.4370;-6.5294;
79250789839333;-8.7341;0.2339;-5.7963;
79250799945270;-10.0514;0.5381;-3.7005;
79250810051208;-10.5353;0.4110;-1.1827;
79250820141416;-9.3425;-0.1663;-0.8378;
79250830247354;-7.4716;-0.4753;-2.1170;
79250840353291;-7.8930;-0.4226;-3.6141;
79250850453916;-11.1006;-0.2405;-4.5700;
79250860559854;-9.4884;-0.0802;-2.8355;
79250870665791;-8.2837;0.3918;-2.9746;
79250880773812;-9.3736;0.9619;-4.4357;
79250890879749;-10.0442;0.5835;-3.3434;
79250900985687;-10.4300;1.2159;-1.9301;
79250911090687;-9.7065;0.2100;-1.0582;
79250921196624;-7.8284;-0.6359;-1.5996;
79250931302562;-9.2369;0.0541;-3.4226;
79250941403291;-9.9269;0.9452;-2.5361;
79250951509229;-9.4884;-0.2405;-0.0018;
79250961615166;-10.2048;-0.7077;-0.7493;
79250971763604;-9.8862;-0.4490;-3.2859;
79250981869541;-7.9819;-0.7196;-4.0645;
79250991975479;-8.9136;-0.4896;-3.4370;
79251002048395;-9.0383;0.0541;-2.3686;
79251012154333;-8.8059;-0.1161;-3.1424;
79251022260270;-9.5219;0.2243;-4.3519;
79251032370999;-10.6241;-0.2118;-2.4404;
79251042476937;-9.3329;-0.2333;-0.1334;
79251052582874;-9.5581;-0.3413;-1.2305;
79251062696624;-11.1727;-0.1543;-2.2630;
79251072802562;-7.7758;-0.7101;-1.9086;
79251082908499;-9.1436;-0.6383;-4.1578;
79251093009854;-11.4553;-0.6096;-3.0320;
79251103115791;-10.1378;-0.3147;-0.4256;
79251113221729;-9.9891;-0.2548;-1.6427;
79251123310062;-7.3181;-0.8201;-2.6871;
79251133415999;-6.6858;-0.7220;-4.6394;
79251143521989;-10.3101;-0.8393;-4.5078;
79251153641520;-11.3115;-0.1950;-2.7350;
79251163747458;-11.7691;-0.4322;-2.1817;
79251173853395;-9.5267;0.0541;-1.1085;
79251183984020;-8.9327;-0.6455;-0.4690;
79251194089958;-7.9962;-1.0047;-1.8368;
79251204195895;-8.5998;-0.1448;-4.1124;
79251214283968;-7.9795;-0.1615;-4.3974;
79251224389906;-6.8895;0.3224;-4.8670;
79251234495843;-9.9724;0.3368;-5.5400;
79251244642874;-12.1427;0.5118;-3.0009;
79251254748812;-11.2851;0.9021;-0.4857;
79251264854749;-9.2970;0.4660;-1.3792;
79251274903708;-6.8486;-0.6048;-3.3769;
79251285009645;-8.8848;-0.6694;-4.7880;
79251295115583;-9.7591;-0.1065;-2.1745;
79251305239437;-8.7700;0.0637;-0.8833;
79251315345374;-9.3449;0.7080;-3.7149;
79251325451312;-10.1737;0.2052;-3.4250;
79251335565687;-9.6730;0.2483;-2.7254;
79251345671624;-10.0226;0.6577;-3.5566;
79251355777562;-9.9939;-0.4681;-2.1721;
79251365873083;-8.6477;-0.6957;-1.5203;
79251375979020;-8.9925;-0.1328;-2.1458;
79251386084958;-10.5712;-0.3700;-1.1228;
79251396204541;-9.9030;-0.1759;0.4271;
79251406310479;-7.6896;0.1714;-1.5326;
79251416416416;-8.8585;-0.5136;-5.5618;
79251426502874;-10.4037;-0.8393;-5.4826;
79251436608812;-10.0537;-0.9401;-3.1277;
79251446714749;-8.8298;-0.1400;-3.0105;
79251456818916;-9.5605;-0.0826;-3.6045;
79251466924854;-10.5640;-0.2405;-1.9971;
79251477030791;-10.2885;-0.5471;-0.3873;
79251487138604;-10.5999;-0.2500;-0.9814;
79251497244541;-11.7236;-1.4336;-2.0716;
79251507350479;-8.2693;-1.5341;-1.3313;
79251517448812;-7.5817;-0.8177;-3.3003;
79251527554749;-11.2229;-0.6120;-4.8359;
79251537660687;-12.1714;-0.9544;-2.1075;
79251547778187;-8.8513;-1.2347;-0.5719;
79251557884229;-6.1732;-1.0836;-3.7172;
79251567990270;-7.9699;-0.7220;-6.0718;
79251578090583;-8.0369;-0.2237;-4.9962;
79251588196624;-5.4497;-0.6024;-4.6848;
79251598302666;-7.7710;-0.5925;-6.8961;
79251608406156;-8.7171;-0.1232;-4.8766;
79251618512197;-8.5328;-0.2285;-2.0282;
79251628618239;-8.6309;-0.2333;-2.3423;
79251638737041;-10.3558;-0.2716;-4.0478;
79251648843083;-12.6338;-1.2610;-1.5541;
79251658949124;-11.9632;-0.6191;-0.2127;
79251669044749;-12.9882;-0.3123;-1.4749;
79251679150791;-12.1522;-0.6239;0.3311;
79251689256833;-11.2373;-1.0549;2.3746;
79251699376312;-8.2717;-0.8010;0.2306;
79251709482354;-10.6122;0.7585;-3.5471;
79251719588395;-9.9341;0.5237;-3.3793;
79251729700374;-7.4309;0.2028;-2.1673;
79251739806416;-7.0283;1.1010;-4.1076;
79251749912458;-7.2679;1.4124;-4.1770;
79251759996937;-4.1680;2.4592;-2.0716;
79251770102979;-3.8279;0.6505;-3.8441;
79251780209020;-9.1244;-0.0368;-7.6890;
79251790325062;-9.6275;-0.5160;-5.0276;
79251800431104;-7.0786;-0.1591;-3.0392;
79251810537145;-6.7720;-0.1878;-4.5437;
79251820637354;-7.7112;-0.8803;-5.8660;
79251830743395;-9.3353;-0.9114;-5.2573;
79251840849437;-11.1293;-0.5877;-2.9937;
79251850932145;-13.4219;-0.4226;-0.5551;
79251861038187;-16.0427;0.1283;0.9613;
79251871144229;-11.2804;1.2159;3.6634;
79251881270166;-15.0078;0.1427;2.1350;
79251891376208;-12.3224;-0.6933;0.4247;
79251901482249;-5.2965;-0.1998;1.4907;
79251911581729;-5.3372;-0.4346;0.7050;
79251921687770;-9.8575;0.8136;-2.6321;
79251931793812;-8.6620;0.7609;-1.3935;
79251941903812;-4.1608;1.3214;-3.1687;
79251952009854;-5.7900;0.5357;-9.3180;
79251962115895;-8.7027;-0.3796;-9.0999;
79251972238395;-7.0594;-0.2859;-4.1004;
79251982344437;-4.3741;-0.1711;-4.7207;
79251992450479;-3.6987;-0.9233;-6.6781;
79252002551833;-3.5859;-0.8512;-6.4720;
79252012657874;-0.2300;-0.4872;-6.3978;
79252022763916;0.6733;-0.6311;-9.5886;
79252032854958;-4.9947;-1.2156;-10.8030;
79252042960999;-8.8585;0.3248;-5.2143;
79252053067041;-24.1514;0.4062;0.1995;
79252063182041;-68.3603;-5.2639;16.4746;
79252073288083;-29.8864;0.9930;36.9559;
79252083394124;23.4473;0.7370;15.2288;
79252093496729;2.8436;-4.5906;-18.5285;
79252103602770;-24.8318;-4.7656;6.5405;
79252113708812;-20.7281;2.4066;13.9185;
79252123837874;-0.9102;4.6941;-2.3710;
79252133943916;-0.8599;-1.1414;-12.5447;
79252144049958;-10.7725;0.9188;-11.7565;
79252154138499;-9.4741;1.0627;-4.0597;
79252164244541;-7.6582;0.3727;-4.3950;
79252174350583;-8.8992;0.0852;-5.0252;
79252184464124;-6.1229;-0.6742;3.9437;
79252194570166;-3.3631;-1.3256;4.6143;
79252204676208;-8.8537;-3.8025;-5.7604;
79252214753812;-8.4583;-5.0985;-8.2038;
79252224859854;-10.1737;-7.8846;-24.1747;
79252234965895;-24.6856;-6.9383;-38.3776;
79252245125479;-11.6853;0.2243;-1.9229;
79252255231520;6.0033;5.9901;15.6506;
79252265337562;-4.4749;0.6170;-2.6776;
79252275405062;-14.1215;0.9667;-2.4691;
79252285511104;-15.8270;4.6343;6.2073;
79252295617145;-15.4343;3.5372;5.5247;
79252305742145;-7.9026;2.1120;1.2344;
79252315848187;-6.2809;0.4540;-3.8010;
79252325954229;-11.6830;-0.5901;-3.9736;
79252336050270;-9.5486;0.7681;-2.8044;
79252346156312;-7.9484;0.4974;-5.5570;
79252356262354;-8.6572;0.3918;-5.1018;
79252366347458;-7.2177;1.8365;-3.1663;
79252376453499;-10.1258;3.8174;-5.3246;
79252386559541;-12.7849;4.2248;-3.2022;
79252396671312;-9.5605;4.2102;1.2511;
79252406777354;-5.6629;2.9360;-0.5862;
79252416883395;-8.3937;2.1263;-3.8776;
79252426993291;-9.9676;1.5993;-2.5528;
79252437099333;-9.8671;2.3369;0.3793;
79252447205374;-8.1565;1.7955;0.9685;
79252457317770;-9.2106;2.0590;-3.6141;
79252467423812;-11.9198;1.6807;-5.6001;
79252477529854;-9.6491;1.7812;-0.7756;
79252487652666;-7.5697;1.3238;0.7720;
79252497758708;-9.8121;0.4349;-1.5709;
79252507864749;-10.0851;-0.7316;0.3960;
79252517936520;-7.5793;-1.1004;1.7183;
79252528042562;-8.9710;-2.1162;-2.2965;
79252538148604;-10.9714;-1.8861;-2.3662;
79252548272979;-7.4261;-2.7126;-0.1190;
79252558379020;-9.0766;-3.2444;-2.8789;
79252568485010;-12.2363;-3.2539;-3.2285;
79252578585999;-11.4000;-2.5881;-0.5264;
79252588692041;-9.3712;-2.8062;-0.3467;
79252598798031;-9.2898;-1.7904;-1.2281;
79252608897041;-11.5439;-0.3508;-2.1482;
79252619003083;-11.3378;-0.5231;-0.7804;
79252629109072;-9.2082;-0.3437;-0.1836;
79252639228708;-10.5664;-0.7029;-2.1745;
79252649334749;-10.6361;0.0470;-2.6776;
79252659440739;-6.6356;-0.2309;-1.5084;
79252669534124;-7.9026;0.6960;-4.9125;
79252679640166;-12.3942;1.5009;-6.0407;
79252689746156;-8.9375;0.7992;-2.5863;
79252699868395;-5.5217;0.9021;-3.0799;
79252709974437;-8.8155;0.8662;-5.5328;
79252720080426;-11.4290;1.2254;-3.5782;
79252730175322;-9.7256;0.9715;-1.5060;
79252740281364;-7.3851;-0.5877;-2.5986;
79252750387354;-7.9938;0.9093;-3.8369;
79252760502354;-13.0508;-0.0559;-4.1985;
79252770608343;-10.6887;0.8782;-2.1697;
79252780714385;-6.8991;1.5176;-0.9455;
79252790823812;-9.3042;-0.3820;-1.9493;
79252800929854;-11.0934;0.1905;-2.7517;
79252811035843;-10.7868;0.6242;-2.4643;
79252821130374;-11.4048;0.3416;-2.5361;
79252831236416;-9.6873;-0.1256;-0.6293;
79252841342406;-5.7203;-0.0730;0.2689;
79252851451833;-8.3243;-0.0105;-2.1147;
79252861557874;-11.7811;0.2171;-3.5877;
79252871663864;-7.6463;0.0829;-2.8813;
79252881765270;-7.7710;-0.4155;-3.2644;
79252891871312;-11.6204;-0.5136;-5.0611;
79252901977301;-11.8217;-0.1256;-3.6814;
79252912081520;-9.4023;0.0900;-1.0223;
79252922187510;-6.1660;-0.2429;-0.5551;
79252932293551;-8.0297;-0.0849;-2.2726;
79252942402666;-12.2291;0.7657;-2.7900;
79252952508708;-10.6146;-0.3194;-1.1707;
79252962614697;-8.5137;0.1164;-2.3686;
79252972737979;-10.8299;1.3860;-3.3314;
79252982844020;-9.4645;-0.2118;-2.1218;
79252992950010;-9.2632;1.0101;-1.5326;
79253003036989;-11.5846;0.2578;-2.9459;
79253013143031;-10.6170;-0.4848;-1.6905;
79253023249020;-7.4931;0.4831;-0.7178;
79253033348083;-6.2976;0.9476;-1.9181;
79253043454124;-10.0035;0.5931;-3.5303;
79253053560114;-10.9690;0.5740;-3.0583;
79253063671312;-10.2838;0.4421;-3.0511;
79253073777301;-11.3043;-0.0129;-1.3217;
79253083883343;-11.2828;0.4516;-0.5575;
79253093993708;-7.5123;-0.6646;0.0604;
79253104099749;-7.6657;-0.9903;-1.2066;
79253114205739;-9.8384;-0.2764;-4.2754;
79253124293395;-8.6524;-0.5877;-3.8489;
79253134399437;-7.8260;0.4014;-2.2582;
79253144505426;-10.8515;0.8088;-2.6393;
79253154625062;-12.7176;0.0709;-2.8884;
79253164731051;-10.0250;-0.5566;-1.2138;
79253174837093;-8.2406;-0.3604;-3.1301;
79253184930895;-10.9164;-0.4202;-3.2429;
79253195036937;-12.8949;0.4110;-1.3385;
79253205142926;-8.4512;1.1345;0.6643;
79253215254333;-4.9825;0.9356;-0.6628;
79253225360374;-8.5352;0.3464;-4.4692;
79253235466364;-11.1727;0.9547;-5.6599;
79253245570270;-10.8347;1.0914;-4.0741;
79253255676312;-9.0000;1.0196;-3.2883;
79253265782301;-9.0622;1.1560;-3.8871;
79253275912562;-10.3798;0.6649;-2.3782;
79253286018604;-10.7629;0.9380;-0.1693;
79253296124593;-10.0059;0.3153;-0.2246;
79253306202249;-8.1135;-1.0167;-1.7097;
79253316308291;-9.2970;0.0805;-3.7412;
79253326414281;-10.7103;0.0805;-4.0358;
79253336534437;-9.2345;1.2230;-3.6476;
79253346640479;-8.4826;0.3775;-3.9640;
79253356746468;-9.0909;0.2722;-4.5030;
79253366859593;-9.3736;0.4038;-3.6236;
79253376965635;-8.5017;1.5610;-2.2295;
79253387071624;-8.3172;1.3262;-1.9325;
79253397168291;-9.7591;0.6745;-1.2930;
79253407274333;-9.4741;1.1489;-1.7432;
79253417380322;-7.5290;0.1068;-3.3529;
79253427491208;-9.6515;0.5548;-3.5662;
79253437597249;-11.2804;1.0292;-2.5433;
79253447703239;-10.4707;0.0900;-1.4079;
79253457808812;-9.0168;-0.1328;-3.3314;
79253467914801;-9.9820;-0.0105;-4.5365;
79253478020843;-9.0000;0.8471;-2.0306;
79253488132822;-9.7854;0.1929;-2.0859;
79253498238864;-9.9197;0.9021;-2.4954;
79253508344854;-7.3974;0.4588;-1.2691;
79253518439281;-8.7266;0.2865;-1.6451;
79253528545322;-9.3736;0.9308;-2.5050;
79253538651312;-10.6457;-0.5040;-2.4595;
79253548766937;-11.8241;-0.5495;-1.7049;
79253558872926;-7.2775;-0.9185;-0.4834;
79253568978968;-6.7935;-1.2849;-3.6861;
79253579082666;-10.0899;-0.9640;-4.2730;
79253589188656;-10.9857;-1.3639;-1.9181;
79253599294697;-8.1975;-1.6971;-1.3026;
79253609390479;-8.8298;-1.3352;-3.9808;
79253619496468;-9.8432;-0.7579;-4.2610;
79253629602510;-10.0804;-0.8707;-1.8009;
79253639712458;-9.1101;-1.1195;-0.9622;
79253649818447;-9.3138;-0.1687;-2.0378;
79253659924489;-10.6361;-0.7771;-1.5470;
79253670025791;-10.8012;-0.6024;-0.3706;
79253680131781;-9.3520;-0.7364;0.3144;
79253690237822;-10.4468;-0.7149;-1.0893;
79253700353187;-8.5232;-1.0693;-2.3447;
79253710459176;-8.2382;-0.9736;-4.2897;
79253720565218;-10.4563;-1.0047;-3.9999;
79253730683395;-8.9399;-0.5686;-1.9947;
79253740789385;-8.2813;-0.3099;-2.0979;
79253750895426;-8.9925;-0.6191;-3.8728;
79253760990687;-10.1210;-0.6383;-3.9975;
79253771096676;-10.4109;-0.5160;-1.5661;
79253781202718;-9.5219;-0.4753;-1.1348;
79253791307770;-10.6600;0.6649;-2.9770;
79253801413760;-8.7987;0.3655;-2.2175;
79253811519801;-8.7051;-0.0826;-1.4988;
79253821615062;-10.0155;-0.0655;-2.4332;
79253831721051;-9.7950;-0.0224;-3.0105;
79253841827093;-8.9806;0.2052;-3.7268;
79253851920479;-7.9316;0.8590;-4.1602;
79253862026468;-9.3138;1.0603;-4.3017;
79253872132510;-10.5808;1.3167;-1.8200;
79253882259124;-9.2393;-0.5925;0.0126;
79253892365114;-10.3005;-1.1916;-2.1601;
79253902471156;-9.2683;-0.7819;-2.1721;
79253912574958;-8.1541;-0.2285;-1.5251;
79253922680947;-8.3554;-0.5447;-2.3662;
79253932786989;-11.0073;-0.0873;-3.8584;
79253942892562;-10.8682;-0.0993;-2.7972;
79253952998551;-8.1975;-0.7484;-1.1874;
79253963104593;-8.7820;0.2291;-3.1229;
79253973202249;-12.7032;-0.2596;-3.6452;
79253983308239;-10.8972;-0.5183;0.2498;
79253993414281;-6.4917;-0.7268;0.4391;
79254003533708;-7.9699;-0.4490;-4.3902;
79254013639697;-10.5712;0.4974;-4.9436;
79254023745739;-9.6945;0.2841;-1.3863;
79254033864437;-9.5868;-1.0765;-0.7516;
79254043970426;-8.3219;-1.3352;-2.7326;
79254054076468;-10.2479;-0.7699;-5.2071;
79254064159854;-11.2708;-0.1998;-2.8956;
79254074265843;-7.2440;-0.5518;-1.3193;
79254084371885;-8.9662;-0.9257;-3.4825;
79254094504697;-9.9461;-0.0682;-2.4141;
79254104610687;-7.9193;0.0206;-1.8583;
79254114716729;-9.5845;-0.3147;-3.1181;
79254124822770;-10.4803;-0.4944;-2.6967;
79254134928760;-8.9518;-0.2716;-2.8642;
79254145034801;-8.3219;-0.1232;-3.7603;
79254155144541;-10.7246;0.0063;-3.0464;
79254165250531;-10.9714;-0.7268;-0.1382;
79254175356572;-9.6993;-1.2227;0.0437;
79254185438187;-7.9460;-1.0071;-1.5302;
79254195544176;-8.0393;0.3942;-4.2778;
79254205650218;-10.0657;0.0206;-4.0741;
79254215755322;-8.8250;-0.5399;-1.5517;
79254225861312;-7.0403;-0.7268;-2.3542;
79254235967354;-8.2071;-0.6550;-5.5400;
79254246077979;-13.5440;0.6745;-3.1543;
79254256183968;-20.7763;-1.1821;3.3760;
79254266290010;-11.8552;-2.4514;6.6936;
79254276389437;-3.7346;-3.6876;2.9088;
79254286495426;-4.8676;-1.9149;-5.9378;
79254296601468;-9.9628;2.0614;-10.5873;
79254306712979;-9.8025;0.9930;-5.6910;
79254316818968;-8.0608;-0.6120;-0.7277;
79254326925010;-8.3794;-0.7268;-2.2582;
79254337033499;-10.6911;-0.2357;-4.7952;
79254347139489;-8.9830;0.2291;-4.0334;
79254357245531;-9.2225;-0.5901;-0.9550;
79254367353083;-8.4583;-0.6646;-0.9000;
79254377459072;-9.8791;-0.1759;-2.3276;
79254387565114;-10.4420;0.4086;-1.5900;
79254397659958;-9.9628;0.0206;1.0116;
79254407765947;-10.2766;-0.5949;1.2176;
79254417871989;-7.3564;0.2506;-2.4236;
79254427984958;-9.4502;0.0470;-12.0870;
79254438090947;-13.1584;0.8566;-12.0464;
79254448196989;-8.0178;1.6950;-0.2414;
79254458305479;-7.9747;0.8375;4.0418;
79254468411468;-9.9078;-0.4035;1.1145;
79254478517510;-9.9126;0.1618;-0.3012;
79254488635687;-9.0479;1.0914;-1.3576;
79254498741676;-11.0288;0.4134;-1.8153;
79254508847718;-10.3678;-0.3003;-0.7059;
79254518943499;-6.8246;-0.2046;-2.4763;
79254529049489;-7.9771;-0.3556;-5.0898;
79254539155531;-10.7653;-0.0272;-5.1329;
79254549256520;-10.0298;-0.9544;-1.4103;
79254559362510;-7.5817;-0.9736;-0.7178;
79254569468447;-10.3149;0.0135;-4.1961;
79254579580583;-9.7352;-0.8755;-2.9100;
79254589686572;-8.4081;-0.0849;-1.4605;
79254599792510;-10.1306;-0.4657;-3.1807;
79254609885270;-11.1150;0.1379;-1.9134;
79254619991260;-9.0000;-1.0525;0.7289;
79254630097197;-8.8274;-1.3567;-1.8894;
79254640205999;-11.1488;0.2794;-4.1794;
79254650311989;-10.8538;0.4950;-2.8235;
79254660417926;-8.7676;-1.2443;-1.0917;
79254670529749;-7.8332;-1.2108;-3.7771;
79254680635739;-11.3354;0.0494;-5.6623;
79254690741676;-9.2130;-0.6574;-1.5637;
79254700845999;-7.8452;-0.5303;-0.9790;
79254710951989;-10.4420;0.3392;-3.3601;
79254721057926;-10.1115;0.0829;-2.5839;
79254731142301;-8.1494;-0.3485;-1.9038;
79254741248291;-9.2249;-0.1543;-3.0057;
79254751354229;-10.2622;0.2722;-4.4767;
79254761490166;-11.1392;-0.5399;-2.5409;
79254771596156;-8.2884;-0.6861;-1.9229;
79254781702093;-7.9866;-0.1543;-4.6561;
79254791799645;-10.0609;-0.2261;-4.7665;
79254801905635;-8.2430;-0.8656;-1.5805;
79254812011572;-7.4142;-0.0392;-3.7531;
79254822114645;-8.4464;1.2541;-5.9713;
79254832220635;-10.1067;1.6161;-4.5724;
79254842326572;-10.3511;0.5572;-0.3060;
79254852449749;-10.4970;-1.2658;1.6152;
79254862555739;-10.6146;-1.2634;0.6691;
79254872661676;-9.7184;-1.3424;-0.5456;
79254882754437;-7.8500;-0.4872;-2.7446;
79254892860426;-8.0728;-0.3772;-4.8263;
79254902966364;-10.9522;0.4974;-4.5341;
79254913073499;-10.6098;-1.1557;-1.8153;
79254923179489;-9.4238;-2.3222;-1.3624;
79254933285426;-10.7821;-1.8455;-1.9469;
79254943388812;-10.0537;-1.6899;-1.4390;
79254953494801;-8.0010;-1.0956;-1.2497;
79254963600739;-9.3760;-1.0836;-3.0583;
79254973712145;-10.6241;-0.0081;-1.9684;
79254983818083;-9.6969;-0.7603;-0.6102;
79254993924072;-11.0408;-0.7675;0.1445;
79255004035687;-10.2000;-1.2036;-0.3538;
79255014141676;-6.9924;-1.3017;-2.6465;
79255024247614;-8.1733;-0.5375;-4.9507;
79255034372666;-10.3534;-0.3365;-4.9986;
79255044478656;-10.3196;-0.7555;-3.0655;
79255054584593;-7.9962;-1.5078;-1.7312;
79255064672718;-7.1626;-0.1950;-2.6465;
79255074778708;-8.8226;-0.6383;-3.7149;
79255084884645;-9.5438;-0.1543;-3.3410;
79255095013708;-9.8815;-0.4585;-1.6881;
79255105119697;-7.2177;0.2913;-2.0067;
79255115225635;-9.4645;0.1857;-3.5303;
79255125286937;-11.4506;1.2999;-2.2510;
79255135392926;-11.4386;-0.6814;0.5109;
79255145498864;-10.1761;-0.4394;1.3947;
79255155636833;-8.6166;-0.6144;-0.2246;
79255165742822;-8.1494;-0.4202;-3.8345;
79255175848760;-11.5439;0.6625;-4.7569;
79255185950999;-10.8251;-0.8417;-0.6987;
79255196056989;-9.8192;-0.5471;1.4163;
79255206162926;-10.8538;-0.4585;-0.4161;
79255216251729;-8.9064;-0.5853;-2.0210;
79255226357718;-9.8958;-1.0238;-1.4916;
79255236463656;-9.5557;-1.0884;-0.9574;
79255246568187;-10.2503;-1.0190;-0.3203;
79255256674176;-10.2048;-1.5748;0.4917;
79255266780114;-6.7193;-1.1677;-1.2882;
79255276890166;-8.7218;-0.1376;-4.0956;
79255286996156;-9.9150;-0.7484;-3.2166;
79255297102093;-10.3053;-1.1797;-2.3157;
79255307211937;-10.3798;-0.6670;-1.8655;
79255317317926;-9.0479;-1.1868;-2.5313;
79255327423864;-9.7424;-1.2251;-2.4284;
79255337529749;-10.3196;0.1211;-2.3423;
79255347635739;-9.2827;-0.2572;-2.3375;
79255357741676;-10.3149;0.3392;-2.5289;
79255367839645;-10.2215;0.2411;-2.4380;
79255377945635;-8.0704;0.1881;-2.4882;
79255388051572;-8.8442;0.4445;-3.0679;
79255398149124;-8.8059;0.3033;-2.9219;
79255408255114;-8.7987;0.6410;-3.2429;
79255418361051;-9.9700;1.0316;-3.4394;
79255428472770;-12.6841;0.9021;-3.2716;
79255438578760;-9.9461;0.9835;-2.2654;
79255448684697;-8.0560;0.0494;0.5468;
79255458791208;-9.6156;-0.1759;-1.1683;
79255468897197;-9.7328;-0.1974;-2.3180;
79255479003135;-6.2330;0.5046;-2.0378;
79255489125270;-8.0560;-0.0320;-3.9182;
79255499231260;-10.6193;0.2913;-5.8421;
79255509337197;-9.6778;0.2506;-3.9927;
79255519429645;-8.6979;0.2889;-2.7589;
79255529535635;-9.3855;-1.1148;-2.7661;
79255539641572;-10.9092;-0.8417;-2.1577;
79255549748499;-10.9881;-0.8154;-0.8258;
79255559854489;-8.0943;-1.3017;1.0211;
79255569960479;-8.9279;-0.8034;0.3096;
79255580068395;-10.8972;-0.5207;-1.1970;
79255590174385;-10.7055;-1.2179;-1.0487;
79255600280374;-9.9772;-0.5518;-1.8655;
79255610374645;-8.7365;-0.0607;-3.4944;
79255620480635;-8.0130;-0.4394;-3.3314;
79255630586624;-7.6848;-0.1854;-4.0717;
79255640696572;-8.6094;-0.2333;-4.3711;
79255650802562;-8.9303;0.0374;-3.7819;
79255660908551;-8.0393;-0.1328;-1.7599;
79255671017406;-6.3769;-0.3437;-1.2257;
79255681123395;-7.8715;-0.1304;-3.0535;
79255691229385;-7.3445;-0.9329;-3.8632;
79255701332145;-0.4047;-0.6431;-5.1568;
79255711438135;-22.1393;0.2363;-4.6537;
79255721544124;-46.1875;-0.9305;7.9226;
79255731639124;-10.6050;-0.1974;14.0886;
79255741745114;10.9427;-4.1118;0.8318;
79255751851104;-8.2621;-4.1524;-2.0354;
79255761983812;-14.9719;2.1000;-7.7584;
79255772089801;-7.6247;1.4028;-3.5997;
79255782195791;-5.9623;0.1475;-3.4274;
79255792294645;-6.4798;2.3683;-7.2721;
79255802400635;-9.4262;1.8843;-8.9465;
79255812506624;-9.9604;0.6601;-4.9890;
79255822604958;-7.3974;-0.3604;-1.3385;
79255832710947;-8.3291;-0.5064;-2.4787;
79255842816937;-8.9518;-1.4121;-1.6164;
79255852951051;-8.8872;-1.6155;-0.7516;
79255863057041;-9.2273;-1.2778;-0.4256;
79255873163031;-9.9221;-1.4480;1.5314;
79255883238604;-4.2592;-0.3652;5.3856;
79255893344593;-3.0709;-0.2166;-13.8165;
79255903450583;-26.3961;0.2028;-32.9638;
79255913554906;-16.2823;0.5046;-5.8181;
79255923660895;1.7967;0.5189;13.5090;
79255933766833;-5.0450;-0.2453;1.4501;
79255943881312;-13.2302;-0.2788;-1.1276;
79255953987301;-11.8241;3.0054;3.8862;
79255964093291;-9.9796;1.3262;5.4960;
79255974212874;-5.7682;0.6386;0.8701;
79255984318864;-8.9806;0.2052;-4.3352;
79255994424854;-11.1293;-0.4513;-5.0348;
79256004513395;-8.4488;-0.4346;-3.9832;
79256014619385;-9.9772;-0.2261;-4.2969;
79256024725374;-11.0695;-1.4360;-0.4570;
79256034827562;-7.8045;-0.2716;-0.5312;
79256044933551;-11.7428;-0.4418;-3.1615;
79256055039541;-11.6901;-0.8010;1.0283;
79256065165166;-7.6271;0.2674;2.1996;
79256075271156;-8.3148;0.3631;-1.0654;
79256085377145;-8.6429;0.2028;-2.2367;
79256095488604;-11.0264;0.9021;-3.2453;
79256105594593;-10.9499;0.7442;-0.6652;
79256115700583;-9.9126;0.6649;0.0317;
79256125804645;-10.4133;0.5979;-1.8272;
79256135910635;-9.1316;0.7271;-3.1448;
79256146016624;-7.4142;-0.0057;-1.7599;
79256156124958;-9.6897;-0.1639;-3.2501;
79256166230947;-10.6911;0.2315;-2.3471;
79256176336937;-7.4620;-0.6431;-0.6820;
79256186430374;-9.6658;-1.0286;-2.8570;
79256196536364;-11.4410;-0.5231;-3.0918;
79256206642354;-10.4850;-1.2203;-2.0234;
79256216744072;-9.5510;-1.0214;-2.3662;
79256226850062;-6.6954;-0.6144;-2.8860;
79256236956051;-7.4285;-0.6096;-3.7364;
79256247064854;-9.7926;-0.5901;-4.3543;
79256257170843;-8.5496;-0.1615;-4.7160;
79256267276833;-8.8418;-0.2524;-3.8273;
79256277385062;-7.4524;-0.4226;-3.4777;
79256287491051;-9.3808;-0.0706;-3.1998;
79256297597041;-11.5319;0.1810;-2.2223;
79256307699437;-12.3200;-1.0597;-1.2377;
79256317805426;-12.4756;-0.5901;-1.7961;
79256327911416;-8.3100;-0.6861;0.0990;
79256338015270;-8.0321;-1.9101;0.7648;
79256348121260;-12.8590;-0.2237;-1.1492;
79256358227249;-10.6720;-0.0682;-0.4594;
79256368340166;-9.2632;0.0852;-2.1649;
79256378446156;-7.7495;-0.0033;-4.3089;
79256388552145;-7.9122;-0.0897;-4.0813;
79256398644749;-8.6979;0.0374;-4.6896;
79256408750739;-10.0250;0.6434;-3.3505;
79256418856729;-7.8476;0.0541;-2.1051;
79256428968239;-10.3630;-1.2371;-1.8009;
79256439074229;-9.4406;-0.1831;-1.5350;
79256449180218;-10.1282;0.0063;0.0030;
79256459291104;-10.6696;-1.7521;1.4764;
79256469397093;-8.2071;-0.6694;0.8438;
79256479503083;-7.6825;-1.2562;-1.9684;
79256489627145;-11.4553;-1.4767;-3.7125;
79256499733135;-12.3200;-0.4202;-3.1496;
79256509839124;-7.3851;-1.3854;-3.2524;
79256519926989;-8.0297;-0.4825;-4.8383;
79256530032979;-10.7749;0.4158;-4.3902;
79256540138968;-10.5497;-0.7842;-2.5409;
79256550239489;-7.1216;-0.3532;-0.2151;
79256560345479;-8.7580;0.5189;-0.8163;
79256570451416;-10.8805;0.3655;-0.3682;
79256580566729;-11.0145;0.0326;0.4630;
79256590672718;-7.1025;0.5524;-0.1669;
79256600778656;-11.0001;0.2243;-2.3157;
79256610879749;-13.0795;0.1834;-2.3303;
79256620985739;-8.5591;-0.4825;-1.9756;
79256631091676;-6.1708;0.5166;-2.1123;
79256641204906;-8.3315;-0.8297;-4.2156;
79256651310895;-10.1282;-0.8803;-5.2717;
79256661416833;-7.9866;0.0541;-3.4537;
79256671517354;-9.2946;-0.7292;-1.7647;
79256681623343;-13.9274;-0.4585;-2.6680;
79256691729281;-11.6252;-0.6144;-1.5494;
79256701831416;-5.9264;0.0948;1.5362;
79256711937406;-7.5194;0.9212;0.5994;
79256722043343;-12.9523;-0.2859;-1.1563;
79256732148395;-11.6396;1.3167;-0.6628;
79256742254385;-8.8705;-0.8803;0.5396;
79256752360322;-7.4046;0.4110;-1.4964;
79256762479958;-8.7341;-0.5016;-4.6202;
79256772585947;-12.7896;-0.0631;-5.2190;
79256782691885;-9.7352;0.9595;-2.8546;
79256792791520;-5.7108;0.0565;-2.2199;
79256802897510;-9.0383;0.2483;-5.2334;
79256813003447;-10.4946;0.1140;-3.5518;
79256823108083;-9.1866;0.7490;-1.5494;
79256833214072;-12.4684;0.4735;-0.5719;
79256843320010;-11.1006;0.4253;0.3840;
79256853422562;-9.1125;1.7237;0.6834;
79256863528551;-10.4157;-0.0535;0.1158;
79256873634489;-11.1030;-0.1854;-0.6556;
79256883736312;-11.4793;0.5668;-2.4404;
79256893842301;-8.0273;0.5572;-2.5935;
79256903948239;-8.2262;-0.1807;-2.2989;
79256914066729;-10.6023;-0.2381;-3.3218;
79256924172718;-4.3860;-0.1998;-4.9220;
79256934278708;-10.3196;-0.7723;-5.9976;
79256944385270;-11.5846;1.5033;-2.6321;
79256954491260;-7.3086;0.0206;0.3096;
79256964597197;-8.6644;-0.9066;-2.0043;
79256974686312;-13.5873;-0.1448;-2.6297;
79256984792301;-10.2335;0.5883;-0.1525;
79256994898239;-10.1833;-1.1363;1.2033;
79257005044333;-11.8720;0.0757;0.3697;
79257015150322;-8.4802;1.7668;-1.2858;
79257025256260;-6.5587;-0.1711;-1.7001;
79257035323083;-12.9691;-0.3075;-3.6236;
79257045429072;-11.8241;0.2698;-4.6537;
79257055535010;-6.2186;0.1953;-3.7507;
79257065649020;-4.6974;-0.4968;-3.8034;
79257075755010;-9.8336;-0.2477;-4.6537;
79257085860947;-13.1943;-0.5183;-3.1229;
79257095998187;-9.6562;0.4229;-0.5623;
79257106104176;-7.5649;-0.6191;0.3024;
79257116210114;-12.0781;0.3823;0.0532;
79257126277979;-13.1848;0.0230;2.3267;
79257136383968;-7.1192;-1.1462;1.1961;
79257146489906;-9.0335;-0.3485;-1.4079;
79257156600166;-12.4134;-2.0276;-1.6379;
79257166706156;-10.6887;-0.7292;-2.7876;
79257176812093;-8.5400;0.2387;-2.6847;
79257186925166;-5.0713;-0.8898;-3.5064;
79257197031156;-10.2072;-0.3290;-7.1306;
79257207137093;-13.7189;0.1594;-4.8861;
79257217241729;-10.1689;0.3823;0.4606;
79257227347718;-7.2966;0.3129;-1.1252;
79257237453656;-9.7472;0.5644;-1.2138;
79257247557822;-8.8179;0.3894;0.0197;
79257257663812;-10.5568;-0.1998;0.6284;
79257267769749;-8.8083;0.0685;0.4175;
79257277874437;-9.7328;-0.6646;-1.5374;
79257287980426;-13.7979;-0.2213;-2.8741;
79257298086364;-5.4138;-0.0535;-1.4246;
79257308201312;-6.4128;-1.5245;-3.6141;
79257318307301;-15.0700;-1.0167;-6.5557;
79257328413239;-11.4194;0.0565;-2.6560;
79257338532979;-6.4343;-1.4527;0.3144;
79257348638968;-7.1626;-0.4178;-2.2678;
79257358744906;-10.5018;-0.9233;-3.0823;
79257368835583;-11.6372;0.6051;-1.1180;
79257378941572;-8.7652;0.1475;-0.3778;
79257389047510;-9.1675;0.0900;0.0799;
79257399160270;-10.0971;-0.6072;-1.5132;
79257409266260;-9.2345;0.4564;-1.5156;
79257419372197;-10.6983;-0.5566;-1.6762;
79257429471729;-11.5893;-0.3170;-2.2965;
79257439577718;-6.9135;0.0206;-2.1051;
79257449683656;-6.9661;-0.4490;-2.6656;
79257459786416;-14.8304;-0.3508;-1.9325;
79257469892406;-15.8629;-0.3314;0.4175;
79257479998343;-5.7467;-0.4944;0.7792;
79257490116624;-5.2053;-0.6574;-1.2401;
79257500222614;-11.7332;-1.1557;-2.0668;
79257510328551;-14.1933;1.1728;-1.0965;
79257520424020;-7.0738;-1.1390;-2.0402;
79257530530010;-7.3301;-1.2682;-2.9076;
79257540635947;-9.1914;0.8877;-4.0334;
79257550740895;-10.3678;-0.2524;-2.3686;
79257560846885;-9.1531;-0.5447;-2.2391;
79257570952874;-9.4621;-0.2524;-2.0378;
79257581057822;-11.1583;0.2100;-1.7121;
79257591163812;-8.3554;-0.0969;-1.1085;
79257601269801;-9.7017;-1.5556;-0.9790;
79257611380062;-11.1535;0.0829;-2.0907;
79257621486051;-7.1001;-0.4394;-1.2185;
79257631592041;-9.4286;-0.5806;-2.1362;
79257641688239;-9.3592;0.4516;-3.0942;
79257651794229;-6.3745;0.2698;-2.2128;
79257661900218;-7.1459;-1.6585;-5.1377;
79257672011729;-14.8687;0.0350;-8.0818;
79257682117718;-14.8807;1.2517;-3.7460;
79257692223708;-6.2880;-1.8311;2.1206;
79257702325374;-5.1646;-1.4551;-0.3395;
79257712431364;-10.3244;-1.0454;-3.1253;
79257722537354;-13.1656;-0.9233;0.0078;
79257732646051;-11.7739;-0.1687;0.3072;
79257742752041;-4.2975;-1.3998;-0.3921;
79257752858031;-7.0522;-0.8273;-2.1529;
79257762970895;-13.6376;-0.2309;-5.6695;
79257773076885;-11.0671;-1.6226;-4.2873;
79257783182874;-5.7060;-2.5307;-2.4476;
79257793309541;-10.6098;-0.7531;-3.8752;
79257803415531;-12.3799;-1.1557;-4.4022;
79257813521520;-5.9504;-0.1783;-0.9526;
79257823598499;-7.1865;-0.8994;-0.1621;
79257833704489;-11.7380;-0.5423;-3.5160;
79257843810479;-9.6610;0.9667;-2.2032;
79257853981104;-9.5510;0.5501;-1.4868;
79257864087093;-10.0179;0.1259;-2.1888;
79257874193083;-6.0846;0.7705;-2.2391;
79257884213343;-8.2262;-0.0464;-4.7880;
79257894319333;-12.8375;0.3129;-6.3882;
79257904425322;-9.9891;0.9858;-3.6814;
79257914604958;-8.0536;1.8317;-2.9459;
79257924710947;-10.4731;0.2818;-2.8068;
79257934816937;-9.0622;0.3344;-2.8546;
79257944876624;-11.0097;2.0809;-1.6905;
79257954982614;-8.9303;0.8016;0.9182;
79257965088604;-8.7509;-0.0778;-4.4886;
79257975185479;-13.5129;0.6194;-3.5614;
79257985291468;-6.9326;1.1345;0.7122;
79257995397458;-6.9326;0.8183;-2.8499;
79258005510687;-7.4644;-0.1663;-6.5653;
79258015616676;-11.4817;0.3511;-4.9555;
79258025722666;-10.6959;1.4100;-2.5959;
79258035829333;-5.1024;1.2589;-3.0009;
79258045935322;-9.1531;0.8662;-3.8417;
79258056041312;-11.2588;0.3272;-2.1984;
79258066151208;-6.0655;0.7513;-1.4868;
79258076257197;-9.6156;0.1307;-3.9087;
79258086363187;-11.1221;-0.3437;-3.7172;
79258096472979;-11.6516;0.2626;-0.3730;
79258106578968;-19.5688;-1.0645;2.0273;
79258116684958;-13.2159;-0.4681;5.5487;
79258126782770;-2.6040;-0.7699;1.1674;
79258136888760;-6.8007;-2.3581;-7.1524;
79258146994749;-10.1880;-2.3486;-6.4361;
79258157095374;-7.9436;-0.0320;-2.9937;
79258167201364;-9.8408;0.0996;-1.4773;
79258177307354;-12.2049;-0.6096;-4.1459;
79258187425166;-8.4272;-0.5782;-3.7364;
79258197531156;-7.9914;-0.4250;-2.4715;
79258207637145;-9.1579;-1.8239;0.0580;
79258217744229;-8.5878;-0.5877;-1.3169;
79258227850218;-10.6217;-1.0382;-2.7206;
79258237956208;-11.5487;-0.7101;-1.3768;
79258248054020;-8.3459;0.0230;-1.6977;
79258258160010;-8.5711;-1.1363;-2.5002;
79258268265999;-8.0154;-0.5303;-2.1984;
79258278374645;-9.8623;0.1140;-2.4954;
79258288480635;-8.6405;1.2159;-1.0869;
79258298586624;-2.7308;0.7223;-4.5389;
79258308695166;-12.3823;-3.5489;-15.3425;
79258318801156;-20.7066;-0.4633;-7.4590;
79258328907145;-10.4372;1.5081;8.7634;
79258339013239;-2.4721;0.3655;4.4803;
79258349119229;-7.8069;-0.0873;-3.5566;
79258359225218;-14.5190;0.0374;-1.0726;
79258369334958;-12.4902;1.4578;3.2608;
79258379440947;-9.3018;0.1140;0.0990;
79258389546937;-7.6176;-1.0597;-4.6178;
79258399626208;-8.0847;-0.0969;-4.1243;
79258409732197;-10.1617;-0.0873;-4.7088;
79258419838187;-14.1790;1.9992;-5.1305;
79258429957354;-9.5629;1.6256;-0.7804;
79258440063343;-6.1158;1.3406;-2.1745;
79258450169333;-11.5295;1.1441;-2.5672;
79258460287562;-8.3770;2.0064;-0.1214;
79258470393551;-6.3841;2.3468;-1.1707;
79258480499541;-14.3178;0.6362;-4.1195;
79258490628395;-12.2578;0.9188;-0.0927;
79258500734385;-6.2689;0.8495;0.1349;
79258510840374;-10.1234;0.0589;-2.9219;
79258520911156;-9.8216;-0.4442;-4.0454;
79258531017145;-11.2923;0.6051;-1.9277;
79258541123135;-13.3789;0.9188;-0.8474;
79258551247666;-7.3253;-0.2046;-1.9780;
79258561353708;-7.8858;-1.6011;-3.9999;
79258571459697;-10.6840;0.1738;-2.5576;
79258581552249;-9.9126;-1.0143;-2.8693;
79258591658291;-14.7203;-0.5016;-3.9015;
79258601764281;-9.9772;0.5142;1.2033;
79258611844437;-3.5453;0.2506;-0.5384;
79258621950479;-9.2922;-1.9678;-5.1209;
79258632056468;-15.4654;-1.2275;-4.0741;
79258642180687;-8.8250;-0.4322;-0.0473;
79258652286729;-7.7447;0.0039;-0.0736;
79258662392718;-8.2334;-1.8861;-3.2285;
79258672513812;-10.3702;-0.6048;-4.4070;
79258682619854;-11.8170;-1.6083;-2.7206;
79258692725843;-9.6778;-1.3400;-3.0416;
79258702829072;-8.9758;-1.9268;-3.4848;
79258712935114;-7.3564;0.0541;-2.0859;
79258723041104;-10.3893;-1.4886;-3.4753;
79258733137145;-8.4706;-0.6814;-3.4490;
79258743243187;-8.4754;0.1355;-1.7312;
79258753349176;-10.8538;-0.2309;-3.8943;
79258763458499;-10.5329;-1.0454;-3.5064;
79258773564541;-10.4085;0.2171;-3.0799;
79258783670531;-7.0164;0.7681;-0.8186;
79258793778604;-13.3214;0.1977;-2.5696;
79258803884645;-12.6123;0.5405;-1.6594;
79258813990635;-4.9801;0.6147;0.3311;
79258824107458;-7.9364;-1.2754;-1.3337;
79258834213499;-12.5931;-0.6598;-4.6346;
79258844319489;-12.6864;2.3803;-2.8475;
79258854415895;-7.6439;1.5682;0.3455;
79258864521937;-6.5013;0.4158;-2.1888;
79258874627926;-11.7667;-0.0488;-4.4333;
79258884724541;-10.1282;-0.5447;-3.0129;
79258894830583;-6.5157;0.0254;-2.8164;
79258904936572;-9.6586;0.1331;-3.2692;
79258915053187;-10.4276;0.0398;-3.5040;
79258925159229;-8.9351;0.7056;-3.4513;
79258935265218;-9.4262;-0.1232;-2.7302;
79258945355999;-9.1795;-0.1496;-2.2989;
79258955462041;-11.1392;-0.0631;-1.3193;
79258965568031;-9.5366;0.2794;-0.6843;
79258975693604;-6.7050;-0.3652;-1.5924;
79258985799645;-9.0479;-0.1400;-4.0980;
79258995905635;-12.5261;0.2363;-4.8957;
79259006023499;-11.6396;0.1235;-2.9267;
79259016129541;-8.2214;-1.0190;-1.1563;
79259026235531;-6.0150;0.2315;-3.2620;
79259036332874;-10.1737;-1.2682;-4.7303;
79259046438916;-7.7375;1.2517;-4.1698;
79259056544906;-13.0173;-1.3376;-2.4045;
79259066647354;-10.4874;1.2063;-1.7815;
79259076753395;-4.7527;-1.3137;-1.8607;
79259086859385;-7.7973;-0.5806;-5.5280;
79259096973604;-13.7189;-0.2835;-4.6872;
79259107079645;-10.3292;0.3296;0.7672;
79259117185635;-7.8882;0.4134;-0.5838;
79259127291208;-9.3114;-0.4131;-3.4155;
79259137397249;-10.3439;-1.2275;-3.4370;
79259147503239;-11.2158;-0.4346;-1.8057;
79259157609229;-9.7065;-0.6072;-0.2174;
79259167715270;-9.6586;-0.8584;-0.8928;
79259177821260;-6.2713;0.0972;-2.4188;
79259187917979;-9.0120;0.2889;-4.1937;
79259198024020;-12.5836;-0.3915;-3.3194;
79259208130010;-11.1559;0.0206;-0.4424;
79259218233604;-7.2583;-0.6120;-0.9048;
79259228339645;-4.3190;-1.4671;-2.6249;
79259238445635;-8.8896;-0.7172;-5.1209;
79259248559229;-12.1187;0.2243;-2.0859;
79259258665270;-11.2756;-0.6383;-0.2749;
79259268771260;-7.8930;-0.8034;0.3191;
79259278872145;-8.0178;-0.5518;-2.9435;
79259288978187;-10.4276;-0.4705;-3.7627;
79259299084176;-8.9423;-0.2070;0.7361;
79259309192145;-6.9565;0.0613;-0.3610;
79259319298187;-10.0155;-1.0430;-4.5054;
79259329404176;-7.9241;-0.1376;-1.6714;
79259339513916;-12.7247;-1.1363;-1.9851;
79259349619958;-13.4578;0.2171;-0.9909;
79259359725947;-6.5372;-0.1902;0.3673;
79259369820895;-10.0418;-0.0607;-0.8856;
79259379926937;-12.9308;0.2387;-0.7540;
79259390032926;-6.6978;-0.0009;0.9326;
79259400155374;-8.2238;-0.1256;-2.1003;
79259410261416;-13.9609;-1.2538;-2.3566;
79259420367406;-11.2899;0.5524;0.3769;
79259430466520;-5.7802;-0.8632;1.1264;
79259440572562;-7.2248;-1.3926;-2.5720;
79259450678551;-11.0480;-0.4346;-6.0215;
79259460781572;-8.8657;0.2985;-2.5337;
79259470887614;-6.3434;-0.4968;-0.6197;
79259480993604;-7.6295;-1.1004;-4.3735;
79259491104020;-8.9207;-0.3724;-4.3687;
79259501210062;-7.0810;1.7524;-2.1888;
79259511316051;-7.0451;-0.1448;-1.5637;
79259521429854;-10.8682;-0.9855;-1.1013;
79259531535895;-8.1637;2.2771;-2.6536;
79259541641885;-11.2182;-1.0908;-4.0669;
79259551745062;-13.9633;-1.0047;-3.1591;
79259561851104;-7.2177;0.8064;0.2593;
79259571957093;-10.0875;-0.6287;0.0102;
79259582049749;-10.9331;-0.4035;-0.5312;
79259592155791;-11.1535;0.2889;-0.8378;
79259602261781;-11.9175;0.1427;-0.3251;
79259612378812;-8.1135;0.3703;-2.4619;
79259622484854;-11.5271;0.2841;-4.3831;
79259632590843;-9.6491;0.6242;-2.4547;
79259642692822;-4.6448;0.3607;-0.8498;
79259652798864;-10.0995;0.4735;-3.9640;
79259662904854;-21.8204;0.9332;-1.5876;
79259673005166;-10.0179;1.0026;2.6285;
79259683111208;-2.4960;0.1331;2.3435;
79259693217197;-7.8978;-1.4982;0.0150;
79259703312458;-7.9531;-0.0344;-0.9024;
79259713418499;-11.8505;0.1881;-2.5433;
79259723524489;-14.8567;0.9404;-1.7695;
79259733600635;-9.8432;-0.5112;-1.9158;
79259743706572;-3.7777;-1.3902;-1.4103;
79259753812614;-6.0413;-0.4561;-4.7785;
79259763918656;-16.2392;-1.1339;-5.7078;
79259774048812;-15.5970;-0.7268;-3.2213;
79259784154854;-4.9202;-1.3663;-0.8258;
79259794260843;-3.5046;-1.7306;-1.3050;
79259804370687;-11.6877;-0.7316;-2.9339;
79259814476729;-14.1287;-0.6742;-2.4954;
79259824582718;-9.8097;0.1164;-1.5829;
79259834694333;-6.9685;0.6386;-1.8320;
79259844800374;-8.5567;-1.1291;-0.6820;
79259854906364;-10.0971;-0.4178;-1.6451;
79259865042249;-6.4439;-0.1376;-2.1649;
79259875148291;-10.0804;-1.7306;-6.0598;
79259885254281;-14.3297;0.6649;-6.3066;
79259895329333;-8.5041;0.1762;-1.8751;
79259905435374;-4.7743;0.4181;-2.3877;
79259915541364;-4.3884;0.0733;-3.4059;
79259925667354;-12.9428;1.0364;-4.4166;
79259935773395;-13.7118;2.4999;-2.4069;
79259945879385;-9.6180;1.6041;-0.5958;
79259955965374;-8.9423;-0.5877;-1.3528;
79259966071416;-14.3731;1.2230;-1.8009;
79259976177406;-10.9546;-0.1519;-0.1430;
79259986290843;-1.3606;-0.7125;-1.5781;
79259996396885;-0.7834;-1.1052;-4.0382;
79260006502874;-18.9532;0.0350;-6.3425;
79260016601572;-17.0752;2.2220;-0.1238;
79260026707614;-4.6950;0.7609;0.4415;
79260036813604;-2.3067;-0.7436;-1.7145;
79260046928239;-14.2962;-0.6574;-1.7097;
79260057034281;-21.4564;0.3224;1.7351;
79260067140270;-13.7189;0.4807;3.8336;
79260077240895;-4.2999;-1.5987;3.8527;
79260087346937;-3.1669;-2.5714;-1.2449;
79260097452926;-7.3588;0.0087;-2.7446;
79260107578708;-22.6543;0.3176;-1.6929;
79260117684749;-15.1588;2.2771;0.3311;
79260127790739;-0.4600;0.1786;-1.2739;
79260137883395;-4.8939;-1.3041;-4.6944;
79260147989437;-4.8221;0.5548;-5.4323;
79260158095426;-8.1565;-0.8297;-6.7714;
79260168204124;-10.4204;-0.4226;-9.1549;
79260178310166;7.3759;2.3492;-8.9776;
79260188416156;-2.8938;0.7104;-7.6146;
79260198505062;-20.2660;2.4066;2.3483;
79260208611104;-11.6204;4.1288;5.0815;
79260218717093;-41.4039;-1.5891;9.2330;
79260228848708;-42.4002;1.1106;9.8605;
79260238954749;12.0661;-1.6059;7.6543;
79260249060739;19.6768;-9.5495;22.6502;
79260259164854;4.1659;-0.6168;-6.8264;
79260269270895;-28.6741;-4.6268;-26.1126;
79260279376885;-21.8877;1.6711;-14.0345;
79260289471156;-10.2455;6.8381;-11.4356;
79260299577197;-26.7793;4.0522;-1.0965;
79260309683187;-9.9006;2.4377;5.5056;
79260319784437;0.0526;-1.5963;2.0393;
79260329890479;-15.9227;-8.2415;7.2948;
79260339996468;-8.9303;-5.7263;6.9811;
79260350126520;-8.3339;-0.3413;-2.4523;
79260360232562;-24.6449;-2.9976;4.3053;
79260370338551;-16.9792;0.6984;7.1369;
79260380433604;4.9059;2.0136;6.6936;
79260390539645;7.8165;0.9500;15.4947;
79260400645635;-16.9457;0.2746;6.7753;
79260410789541;-15.7648;-1.5006;-10.7360;
79260420895583;3.0159;-6.7971;-44.4263;
79260431001572;-18.7065;-7.7121;-51.9290;
79260441069749;-14.6052;5.3578;-8.4987;
79260451175791;18.4262;3.0150;6.1355;
79260461281781;10.0038;1.2111;-2.0163;
79260471371416;-8.2167;7.4587;8.4784;
79260481477458;-28.8395;6.5937;9.8246;
79260491583447;-28.8180;6.2417;6.6936;
79260501701416;-1.1880;1.0986;10.6080;
79260511807458;6.6404;-5.3166;-2.1553;
79260521913447;-16.4569;-7.2138;-25.3798;
79260532014437;-25.9337;-6.3610;-18.5572;
79260542120479;-12.0350;1.5443;8.2508;
79260552226468;-3.0039;2.3946;4.4061;
79260562332249;-0.9102;3.1780;-1.1204;
79260572438239;-4.4821;6.2154;4.1354;
79260582544229;-10.0657;4.8141;-0.0951;
79260592649645;-15.8103;1.1465;-8.3596;
79260602755635;-18.7759;-0.8130;-3.4466;
79260612861624;-5.1191;1.7812;10.9409;
79260622970791;1.3175;0.4902;-0.1358;
79260633076781;-17.0560;-3.4026;-13.2894;
79260643182770;-18.7376;-0.3266;1.5314;
79260653296104;-4.8508;2.2819;17.3943;
79260663402093;-2.7930;1.7836;4.4420;
79260673508083;-8.7461;-0.5183;-4.4982;
79260683605999;-8.9758;0.4397;1.9531;
79260693711989;-10.4731;1.9202;5.5606;
79260703817979;-10.0107;-0.6957;-4.3711;
79260713950322;-12.8638;-2.7894;-16.4898;
79260724056312;-12.6218;-2.5618;-7.3989;
79260734162354;-4.5634;-0.6407;5.6133;
79260744252458;-3.9168;-0.4896;-2.2654;
79260754358447;-12.1786;-1.7306;-9.5237;
79260764464437;-15.9515;-0.4202;1.5697;
79260774601729;-9.0383;1.0651;5.8816;
79260784707718;-8.0895;-1.8718;-0.3132;
79260794813708;-12.1211;-2.3940;0.8318;
79260804907562;-11.1751;-0.4920;3.6706;
79260815013551;-11.3641;-1.5221;3.0069;
79260825119541;-9.4860;-2.0898;0.7074;
79260835201312;-6.3673;-3.6565;-2.6536;
79260845307301;-8.6237;-2.0228;-8.0172;
79260855413291;-12.4998;-0.0129;-9.1884;
79260865491729;-10.6863;1.3143;-5.8469;
79260875597718;-5.3755;-0.1663;-3.6284;
79260885703708;-4.9107;-1.1749;-7.5715;
79260895821416;-11.5247;0.0685;-8.0435;
79260905927406;-9.6323;0.8375;-1.8870;
79260916033395;-7.7638;1.3908;0.5276;
79260926138812;-8.4320;-0.1711;-2.2582;
79260936244801;-11.9680;-0.4681;-3.8058;
79260946350791;-9.9389;-0.2668;-2.3997;
79260956460687;-8.9877;0.2243;-3.6742;
79260966566676;-7.8141;0.2052;-2.8717;
79260976672666;-8.3889;0.6888;-4.2658;
79260986793604;-10.3798;0.7681;-3.9182;
79260996899593;-10.1498;0.5357;-3.0535;
79261007005583;-11.2851;0.8949;-2.8522;
79261017107249;-4.5036;0.9428;-3.5686;
79261027213239;-7.5099;-0.0368;-6.8384;
79261037319229;-14.1574;0.6314;-3.5183;
79261047425166;-2.3979;1.4171;-1.1444;
79261057531156;-7.0570;0.0087;-5.3127;
79261067637145;-12.0852;0.2052;-5.0898;
79261077737770;-11.9871;0.7896;0.3649;
79261087843760;-9.6897;1.3119;0.7959;
79261097949749;-9.8862;-0.5542;-1.4031;
79261108062926;-11.0982;-1.2467;-2.2415;
79261118168916;-8.9710;-0.6766;0.8342;
79261128274906;-9.4980;-0.5423;-0.6820;
79261138375895;-9.5195;-0.6359;-1.9301;
79261148481885;-9.8432;0.1522;-3.0105;
79261158587874;-10.7414;-0.2524;-4.4572;
79261168693916;-10.4827;0.0876;-1.9732;
79261178799906;-9.2273;1.2999;-0.6389;
79261188905895;-8.8035;0.1499;-1.2018;
79261199014020;-10.6887;-0.1161;-3.1591;
79261209120010;-12.2842;0.3129;-2.3590;
79261219225999;-10.6217;0.4878;-0.5025;
79261229342145;-7.9026;-0.2668;-0.4184;
79261239448135;-6.5133;-0.6598;-3.7795;
79261249554124;-12.0039;-1.6202;-4.4886;
79261259654020;-11.6901;0.8423;-1.3887;
79261269760010;-6.7050;1.1010;0.2880;
79261279865999;-7.1363;-0.9999;-4.3950;
79261289979854;-12.2554;-0.7555;-7.2338;
79261300085843;-9.7974;1.0795;-2.3638;
79261310191833;-7.1267;-0.3700;-2.6297;
79261320298083;-9.2755;-0.9401;-7.3774;
79261330404072;-10.1928;-0.4705;-3.7484;
79261340510062;-8.0752;-0.5279;-2.1793;
79261350620583;-10.6696;-1.0095;-4.1722;
79261360726572;-10.0971;0.1690;-2.8908;
79261370832562;-7.7877;-0.3027;-1.3744;
79261380909333;-8.3602;-0.4585;-3.1831;
79261391015322;-12.6745;-0.0969;-4.0167;
79261401121312;-14.1742;-0.2740;-1.2497;
79261411244437;-7.6633;0.6410;-1.3313;
79261421350426;-6.7600;-1.6155;-4.6370;
79261431456416;-11.5032;-0.0153;-5.1951;
79261441559124;-11.1293;-0.1639;-1.0606;
79261451665114;-11.8911;0.1116;-1.8607;
79261461771104;-9.3808;-0.3338;-1.8583;
79261471866624;-7.5314;-0.7149;-2.5409;
79261481972614;-8.4488;-0.4346;-3.4442;
79261492078604;-7.5290;-0.2764;-2.8980;
79261502206312;-10.5305;-0.7388;-4.1554;
79261512312301;-10.4372;-0.0081;-4.2826;
79261522418291;-7.8643;0.5812;-2.8570;
79261532519645;-7.0642;0.0374;-1.5972;
79261542625635;-12.3368;-0.1543;-3.9903;
79261552731624;-13.4602;0.3799;-2.9865;
79261562830062;-9.1890;0.8351;1.3205;
79261572936051;-7.4429;0.1331;0.7361;
79261583042093;-11.5798;-0.7579;-4.4142;
79261593138499;-12.4110;-0.6646;-3.6957;
79261603244489;-8.6644;0.3176;-0.0784;
79261613350531;-7.5218;-0.8154;-1.8679;
79261623455322;-9.4980;-0.0945;-5.2334;
79261633561312;-10.6528;0.6314;-3.2405;
79261643667301;-8.4993;1.5129;-2.4236;
79261653790739;-9.7878;-0.2070;-4.1578;
79261663896729;-8.2214;0.1905;-4.2634;
79261674002718;-10.4444;0.0565;-3.3171;
79261684106416;-11.3928;-0.3051;-0.7059;
79261694212406;-7.7207;-0.1304;0.1062;
79261704318447;-8.7772;0.1475;-1.5108;
79261714420062;-9.4525;-0.3508;-3.3505;
79261724526051;-10.3798;-0.9568;-2.3276;
79261734632093;-8.6022;0.3033;-0.5862;
79261744732874;-8.4658;-0.3796;-2.5504;
79261754838864;-11.7835;-0.5949;-5.7150;
79261764944906;-10.9283;0.4110;-2.3518;
79261775057145;-8.9375;0.0781;0.2067;
79261785163135;-8.7939;-0.4059;-1.9660;
79261795269124;-8.6931;-0.5255;-4.2730;
79261805360895;-11.4817;0.4564;-3.4609;
79261815466885;-10.2383;0.4086;-0.7828;
79261825572926;-7.8188;-0.1759;-0.5216;
79261835708604;-8.5376;-1.1438;-4.0167;
79261845814593;-9.1484;-0.2812;-4.2562;
79261855920635;-10.8733;0.1810;-1.7432;
79261866048447;-10.9259;0.3894;0.2474;
79261876154437;-10.5329;-0.5542;-0.2988;
79261886260426;-8.4658;-0.6718;-3.2189;
79261896345479;-8.7676;-1.3472;-4.0765;
79261906451468;-11.2708;-0.7005;-2.3276;
79261916557510;-9.3975;-0.3843;-2.1936;
79261926645687;-9.8312;-1.0454;-1.8535;
79261936751676;-9.7974;-0.0682;-2.0163;
79261946857718;-9.3568;-0.5638;-2.6489;
79261956973708;-8.4993;-1.2060;-2.9937;
79261967079697;-8.2932;-0.7484;-3.4609;
79261977185687;-9.0215;-0.1161;-4.6848;
79261987290479;-9.7854;1.5419;-5.8083;
79261997396468;-11.0671;-0.5949;-3.6694;
79262007502510;-7.4213;0.5166;-1.5733;
79262017602874;-8.5352;-1.3017;-3.6380;
79262027708864;-10.5879;0.1092;-4.2009;
79262037814906;-9.3425;-0.2788;-1.6427;
79262047922041;-8.9207;-0.2548;-1.1922;
79262058028031;-8.9877;-0.5518;-2.0907;
79262068134072;-7.0953;-0.9808;-3.7029;
79262078229124;-10.0179;0.0350;-5.0779;
79262088335114;-11.4290;0.6314;-4.5293;
79262098441156;-9.2201;0.5405;-2.6847;
79262108557979;-7.3421;-1.2538;-2.7302;
79262118663968;-9.1484;-0.3772;-3.6117;
79262128770010;-8.8585;0.8375;-4.1985;
79262138870062;-9.3592;-0.5830;-1.9325;
79262148976051;-7.5338;0.0948;-1.5350;
79262159082093;-9.1819;-0.3290;-3.7675;
79262169197354;-14.8017;0.5381;-3.0751;
79262179303343;-11.0240;-0.0392;1.2057;
79262189409385;-5.3324;-0.6550;0.2785;
79262199493395;-8.7365;-0.1137;-4.6968;
79262209599385;-12.0350;0.1044;-3.7890;
79262219705426;-9.7280;-0.1759;-0.5001;
79262229835895;-9.9891;0.6218;-1.6738;
79262239941885;-10.0490;-0.0129;-2.9889;
79262250047874;-7.7901;-0.4944;-2.6345;
79262260150062;-8.3004;0.8279;-3.8130;
79262270256051;-10.8275;0.2052;-3.6308;
79262280362093;-11.1054;0.7008;-1.6451;
79262290451312;-9.3329;0.6003;-1.7360;
79262300557301;-6.9900;-1.1243;-3.0655;
79262310663343;-8.1829;0.5477;-4.5676;
79262320781312;-8.6979;0.1714;-2.4260;
79262330887301;-8.5161;-0.0969;-2.0306;
79262340993343;-9.7567;0.8279;-4.3998;
79262351098812;-12.0494;0.4158;-3.3505;
79262361204801;-6.9159;-0.0368;-1.5036;
79262371310843;-7.3660;0.1211;-4.4572;
79262381413187;-12.4445;-0.6574;-5.5881;
79262391519176;-10.9020;-0.8273;-1.6690;
79262401625218;-8.9279;-0.0897;-1.9708;
79262411747354;-7.8811;0.9069;-2.6967;
79262421853343;-10.8924;-1.6178;-2.8427;
79262431959333;-8.7867;-0.0129;-3.5806;
79262442042145;-8.8466;1.2182;-3.6885;
79262452148135;-12.0661;0.1235;-2.7446;
79262462254176;-10.5401;1.0149;-0.9526;
79262472359749;-10.0780;0.2554;-1.1874;
79262482465739;-4.1489;-0.6455;-3.9449;
79262492571781;-8.8944;-0.7196;-5.9617;
79262502693395;-11.0073;0.9882;-2.9195;
79262512799385;-11.3641;0.2124;-1.7312;
79262522905374;-7.3875;0.2243;-2.0330;
79262532987666;-8.4706;0.9930;-2.9698;
79262543093656;-11.2875;0.2339;-4.6992;
79262553199697;-10.0828;-0.3242;-3.4155;
79262563319854;-8.9590;0.1570;-1.1300;
79262573425843;-7.1961;-0.2668;-2.1864;
79262583531833;-10.0202;-0.2453;-4.2682;
79262593631156;-8.6812;-0.2644;-3.4920;
79262603737145;-8.1302;0.6697;-1.7623;
79262613843135;-8.4105;0.4373;-4.0932;
79262624003656;-10.3606;0.1379;-4.0932;
79262634109645;-8.8418;0.9045;-1.4390;
79262644215635;-8.0441;0.3942;-2.1864;
79262654244489;-9.2058;-0.0897;-3.8106;
79262664350479;-9.4238;-0.0826;-4.6777;
79262674456468;-11.6300;-0.2500;-2.1099;
79262684620479;-6.9230;0.4134;1.4931;
79262694726468;-5.6844;0.1164;-3.1711;
79262704832458;-8.5089;-0.3461;-6.3882;
79262714919958;-10.6744;-0.2835;-3.2261;
79262725025947;-3.1860;0.0541;-2.6991;
79262735131937;-6.9948;0.0876;-8.3548;
79262745233187;-34.6484;-0.8345;-1.7527;
79262755339176;-18.4023;0.6697;11.9782;
79262765445166;4.0388;-0.4298;8.7275;
79262775554020;-2.9991;-3.7451;-7.5069;
79262785660010;-14.8137;-1.0382;-14.3291;
79262795765999;-8.9566;2.1718;-0.7875;
79262805857458;-4.8748;0.4493;5.7858;
79262815963447;-12.6314;-0.5973;-2.8068;
79262826069437;-12.0254;0.2554;-6.1774;
79262836177822;-5.3372;-0.0706;-3.1950;
79262846283812;-6.8127;0.2171;-6.2061;
79262856389801;-9.5390;-0.8058;-7.0205;
79262866495999;-8.6309;-1.1533;-3.2859;
79262876601989;-7.0164;-0.3242;-3.3697;
79262886707979;-8.3172;-0.9090;-4.3256;
79262896813708;-9.9150;-0.2453;-2.3180;
79262906919697;-9.2393;-1.0669;0.4798;
79262917025687;-9.9796;0.1020;1.7183;
79262927132458;-2.9034;-1.6609;0.9111;
79262937238447;-12.6793;-2.2983;-20.5935;
79262947344437;-22.1608;-0.4490;-20.6629;
79262957446833;-5.9719;0.8782;9.6209;
79262967552822;-8.3818;-0.1400;9.3718;
79262977658812;-12.9787;0.3990;-0.7684;
79262987782666;-15.1298;-0.8922;2.5854;
79262997888656;1.0947;0.5429;2.6453;
79263007994645;2.6064;2.3444;-12.4056;
79263018105583;-20.9557;-0.2500;-16.9953;
79263028211572;-13.3478;1.1560;3.1101;
79263038317562;-4.6280;-1.1291;7.0241;
79263048407458;-9.8456;-0.9114;-8.3955;
79263058513447;-11.2588;-0.7292;-6.0912;
79263068619437;-8.4057;-0.7819;2.1661;
79263078731312;-7.5386;0.2267;-1.6451;
79263088837301;-9.3185;-0.9449;-6.1223;
79263098943291;-14.1191;-0.9305;-2.9746;
79263109041729;-6.7768;-1.0502;-0.1645;
79263119147718;-5.8020;0.6649;-4.8311;
79263129253708;-14.0856;1.0699;-4.0358;
79263139374229;-7.4692;0.5907;-0.1047;
79263149480218;-9.1268;-0.0583;-3.6045;
79263159586208;-10.3005;-0.7268;-3.1759;
79263169681729;-7.5649;-0.9568;-4.1650;
79263179787718;-21.2456;0.6314;-4.4309;
79263189893708;-6.2474;1.3789;9.3742;
79263199986416;3.7729;-0.0682;2.1063;
79263210092406;-14.3755;-0.6455;-12.7819;
79263220198395;-14.1048;-0.4944;-4.9651;
79263230318187;-5.3109;-0.3075;2.1589;
79263240424176;-10.6792;-0.1256;-3.8943;
79263250530166;-10.6744;-0.7938;-7.5595;
79263260635739;-17.6022;0.7585;-0.6532;
79263270741729;-8.3435;1.8413;5.2540;
79263280847718;8.5208;-1.4192;-4.7498;
79263290948291;-11.0240;-1.2682;-15.1388;
79263301054281;-16.0235;1.2951;-0.5192;
79263311160270;-11.3569;0.5142;7.0890;
79263321274333;-9.1603;0.0159;-1.7145;
79263331380322;-10.5209;0.4564;-8.0554;
79263341486312;-11.8193;-0.8827;-5.0492;
79263351584489;-8.5137;-1.7785;2.1254;
79263361690479;-9.0622;-0.8489;-0.2031;
79263371796468;-12.0565;-0.2333;-2.8765;
79263381896729;-8.9973;-1.5556;0.5037;
79263392002718;-4.0866;-0.1137;0.0365;
79263402108708;-7.3181;0.3416;-6.9846;
79263412207874;-14.4473;-0.3604;-6.8480;
79263422313864;-11.6204;0.0685;1.1530;
79263432419854;-8.0776;-0.4394;0.9709;
79263442534749;-8.8705;-1.7521;-3.1110;
79263452640739;-10.1617;-0.1208;-1.8799;
79263462746729;-9.0694;-0.2524;-1.0558;
79263472858239;-6.6165;-0.0655;-1.8200;
79263482964229;-10.7845;-0.8106;-6.3858;
79263493070218;-12.5477;-0.9305;-4.2299;
79263503185739;-5.8499;-1.3950;0.8725;
79263513291729;-4.3382;-1.2251;-3.0272;
79263523397718;-8.6788;0.9428;-9.5166;
79263533499645;-13.1584;-0.8417;-6.2707;
79263543605635;-9.8240;-0.8225;-0.2055;
79263553711624;-5.8738;-0.2142;-0.3897;
79263563827770;-8.4464;1.3382;-5.0707;
79263573933812;-14.0542;0.8566;-4.2706;
79263584039801;-12.6194;1.7309;3.3712;
79263594115687;-6.7241;0.0661;1.8476;
79263604221729;-7.7471;-0.8034;-5.2310;
79263614327770;-13.6472;0.0637;-6.1008;
79263624459645;-8.3483;0.7080;-2.0569;
79263634565687;-3.4424;-0.8130;-2.1362;
79263644671676;-8.3172;0.3464;-6.4792;
79263654753604;-10.0923;2.1622;-7.9355;
79263664859645;-7.4333;0.5046;-3.7053;
79263674965635;-7.1889;-0.5758;-2.9219;
79263685104437;-15.8246;0.5285;-2.8813;
79263695210479;-12.0494;0.0494;4.3484;
79263705316468;-9.4621;0.3751;3.9030;
79263715419229;-8.7652;-1.3711;-2.8187;
79263725525270;-11.6611;-1.2921;-4.4572;
79263735631260;-10.7151;0.3703;-1.1228;
79263745739124;-7.5841;-0.8994;0.0221;
79263755845166;-5.5409;-0.2429;-3.8656;
79263765951156;-8.2334;0.5644;-7.9765;
79263776036104;-8.5878;1.2182;-6.7762;
79263786142145;-7.5769;1.5514;-4.9244;
79263796248135;-11.6396;1.3071;-4.6442;
79263806352979;-11.4745;0.7223;-1.0152;
79263816459020;-6.4463;0.6936;2.2092;
79263826565010;-8.1063;-0.2213;-1.1444;
79263836677354;-11.8887;0.1499;-3.1352;
79263846783395;-10.9977;-0.8489;0.6380;
79263856889385;-5.6725;-0.6885;0.5037;
79263866988187;-6.9613;-0.8560;-7.7656;
79263877094229;-13.0819;-0.4968;-11.3587;
79263887200218;-8.7171;0.1570;-4.6107;
79263897312979;-3.7681;0.5907;-0.9359;
79263907419020;-4.6783;0.6936;-4.6825;
79263917525010;-5.9480;0.7705;-4.3376;
79263927628499;-19.8443;1.1321;0.4582;
79263937734541;-53.5681;2.0761;13.8108;
79263947840531;-15.5611;0.1953;27.3404;
79263957942354;24.6042;-8.4117;2.0489;
79263968048395;0.1080;-5.9154;-12.0966;
79263978154385;-20.4814;2.8663;-16.6170;
79263988260479;-11.8026;3.5228;-8.1368;
79263998366520;-3.7753;1.4363;0.6066;
79264008472510;-7.0618;-0.1687;-3.4298;
79264018576937;-8.3148;0.1499;-7.9235;
79264028682979;-10.2742;1.1393;-5.8493;
79264038788968;-9.6969;1.3214;-1.4581;
79264048901312;-10.1498;0.5716;-0.6078;
79264059007354;-8.0536;0.5046;-0.2701;
79264069113343;-8.2645;0.3009;1.7830;
79264079216989;-9.1986;-1.4791;3.2345;
79264089323031;-11.1221;-0.4777;2.0417;
79264099429020;-3.8853;0.0254;-0.7540;
79264109526312;-0.4624;-0.6622;-17.2612;
79264119632354;-34.3968;0.2650;-38.4350;
79264129738343;-20.7616;4.1647;-2.9387;
79264139858083;8.6767;-1.0167;29.2738;
79264149964124;-2.2110;-3.6135;4.8849;
79264160070114;-15.6760;2.4185;-9.4831;
79264170169854;-13.6759;3.8318;3.5387;
79264180275895;-8.0082;1.8628;5.5774;
79264190381885;-7.7877;-1.8814;-2.0569;
79264200512249;-13.3765;-0.6479;-3.2836;
79264210618291;-5.5983;0.3799;1.2153;
79264220724281;-7.3899;-2.3031;-4.5604;
79264230807249;-16.6295;-1.0669;-10.5778;
79264240913291;-9.7878;-0.7795;-0.2533;
79264251019281;-2.7284;-2.9330;1.4692;
79264261126729;-9.8886;-0.8874;-8.2711;
79264271232770;-14.0231;-0.2261;-3.5877;
79264281338760;-4.3382;-1.6155;2.2717;
79264291450999;-8.7051;-2.1090;-3.3242;
79264301557041;-10.8852;1.3884;-6.9990;
79264311663031;-9.9317;0.1642;-3.1301;
79264321753187;-5.5361;-1.1414;0.7528;
79264331859229;-8.7266;1.3693;-1.2401;
79264341965218;-13.1800;2.2747;-4.6585;
79264352078708;-11.2229;-0.5351;-2.1314;
79264362184749;-6.9350;0.0924;-1.4605;
79264372290739;-10.4731;1.1225;-2.6154;
79264382395999;-15.2569;-1.9654;1.4333;
79264392502041;-6.4271;-0.2309;-0.4666;
79264402608031;2.3716;-0.4418;-4.1148;
79264412730270;-15.5013;-0.2022;-10.1539;
79264422836312;-15.9996;1.4435;-4.4596;
79264432942301;-5.8977;-0.7579;2.5161;
79264443024020;-8.0130;-0.5088;-3.3075;
79264453130062;-9.4549;1.0914;-6.6422;
79264463236051;-9.9772;0.0230;0.4152;
79264473346312;-10.3029;0.4014;2.2597;
79264483452354;-12.3751;0.4854;-2.4571;
79264493558343;-10.6887;0.3296;-1.0606;
79264503675374;-10.2168;-0.3003;-0.7851;
79264513781416;-8.2262;0.4301;-1.0654;
79264523887406;-7.1025;0.3559;-1.5876;
79264533993708;-8.1661;0.3870;-3.8393;
79264544099749;-8.5687;0.4588;-4.4357;
79264554205739;-7.1937;1.1991;-5.8011;
79264564299333;-8.9399;2.2866;-6.7307;
79264574405322;-8.0034;1.3406;-4.2419;
79264584511260;-5.3563;-0.5255;-1.9660;
79264594618916;-5.4185;0.2411;-2.9985;
79264604724906;-3.8303;0.5979;-4.1937;
79264614830843;-21.3559;-0.3580;-3.2070;
79264624937718;-41.9166;0.2530;10.4354;
79264635043708;-8.8466;0.4854;17.0925;
79264645149645;4.0531;-7.4533;-0.3227;
79264655252666;-7.4285;-3.8698;-0.8498;
79264665358656;-8.5711;1.9777;-1.9660;
79264675464593;-8.9255;1.6137;-8.3501;
79264685573499;-9.8025;2.1455;-8.6375;
79264695679489;-11.3354;0.3129;-4.8718;
79264705785426;-2.8241;1.7118;-4.1387;
79264715905895;-4.7934;1.8604;-6.5127;
79264726011885;-13.0579;0.7056;-6.6012;
79264736117874;-13.1465;0.2124;0.4104;
79264746206989;-10.7294;0.8853;4.9164;
79264756312979;-7.5458;-2.6360;1.5936;
79264766418916;-6.7935;-1.8718;-0.9168;
79264776531833;-9.8599;-0.6814;0.4582;
79264786637822;-8.2454;-1.6923;4.1641;
79264796743760;-2.8675;-1.8168;-4.6155;
79264806840895;-19.6382;-0.6335;-27.0207;
79264816946885;-14.5214;-0.2955;-16.8685;
79264827052822;-2.4123;-0.9066;6.2049;
79264837172041;-9.4669;0.6840;5.8552;
79264847278031;-6.9494;1.5272;0.8294;
79264857383968;-11.6109;3.7959;0.5587;
79264867480791;-12.5213;1.5610;4.8156;
79264877586781;-9.0790;0.7753;0.6787;
79264887692718;-6.2880;0.0757;0.0317;
79264897803499;-11.9270;0.3129;1.1626;
79264907909489;-11.8217;-1.0980;-3.6885;
79264918015426;-6.6619;-3.0024;-3.6141;
79264928115010;-10.1091;0.7442;-4.7809;
79264938220999;-11.4506;-1.3065;-5.2119;
79264948326937;-11.2229;-0.3580;-1.0104;
79264958435583;-8.3937;0.1331;-0.4857;
79264968541572;-8.4440;-1.5269;-2.2702;
79264978647510;-7.3062;0.5668;-2.0210;
79264988755895;-11.8289;-0.1400;-0.3682;
79264998861885;-8.9830;-0.2118;2.4488;
79265008967822;-8.1876;-1.0334;-1.0989;
79265019079072;-9.2946;-1.2371;-4.9914;
79265029185062;-12.5883;2.2340;-1.7575;
79265039290999;-6.3529;-0.2955;1.2153;
79265049400166;-11.2062;-0.0057;-3.9951;
79265059506156;-9.3449;0.5668;-2.8741;
79265069612093;-8.2693;0.1642;-2.5744;
79265079707666;-15.5300;-0.9162;-1.1300;
79265089813656;-2.1416;-1.5556;-1.9421;
79265099919593;-5.2340;0.6673;-7.1548;
79265110028187;-19.4130;-1.8120;-2.4811;
79265120134176;-12.4253;3.4941;5.4697;
79265130240114;-1.6839;-1.8359;0.5970;
79265140355479;-9.2970;1.1225;-7.5930;
79265150461468;-11.1269;0.9835;-1.1611;
79265160567406;-12.1977;-0.6909;-1.2185;
79265170693499;-9.9078;0.6888;-2.1577;
79265180799489;-7.4692;-0.3820;-2.4141;
79265190905426;-8.3219;0.4612;-3.4083;
79265200983083;-16.6534;1.2589;-3.2070;
79265211089072;-12.3942;-0.6191;-1.4246;
79265221195010;-0.7379;0.1618;2.3602;
79265231310166;-5.0976;0.2770;-2.9052;
79265241416156;-14.5382;-0.1902;-6.4313;
79265251522093;-14.3249;1.0747;-4.0717;
79265261617249;-7.7183;0.1451;1.0307;
79265271723239;-5.7012;0.4831;-3.1352;
79265281829176;-12.6649;1.5176;-4.5532;
79265291940791;-10.6409;-0.6287;0.4941;
79265302046781;-6.1828;1.0436;-2.2534;
79265312152718;-12.1020;0.7490;-5.6097;
79265322264020;-10.1809;1.3047;2.0847;
79265332370010;-5.6988;-0.6502;3.7089;
79265342475947;-8.7509;1.1369;-5.4610;
79265352576416;-14.8759;0.7152;-4.5748;
79265362682406;-10.6648;0.3200;0.7002;
79265372788343;-8.3961;-0.3532;-2.3949;
79265382889645;-5.6103;1.2784;-2.9195;
79265392995635;-8.5759;-0.9281;-2.7015;
79265403101572;-15.9996;0.4086;-4.9412;
79265413199020;-9.7687;-0.5662;0.6547;
79265423305010;-1.9116;-0.1831;1.7279;
79265433410947;-9.3114;0.3679;-3.9712;
79265443517666;-12.8830;-0.4346;-2.8642;
79265453623656;-12.4540;0.8088;-1.8368;
79265463729593;-10.8972;0.4807;0.7576;
79265473845739;-7.6801;-1.3280;0.6667;
79265483951729;-8.2693;-0.4633;-3.2429;
79265494057666;-12.3488;-0.1639;-1.3911;
79265504156416;-8.5591;-0.2835;0.4654;
79265514262406;-9.5291;-1.5963;-1.6499;
79265524368395;-10.1569;-0.0921;-3.5471;
79265534494281;-10.4994;-0.4083;-2.0426;
79265544600270;-9.5868;-1.3711;-1.9612;
79265554706208;-4.9011;0.3655;-2.3351;
79265564775062;-10.9020;-1.6490;-2.4356;
79265574880999;-11.3617;-0.4346;-3.0655;
79265584986937;-12.7032;-0.6359;-0.8186;
79265595112354;-13.2063;0.3392;0.0126;
79265605218291;-1.6624;-1.4599;0.9063;
79265615324229;-6.8103;-0.4825;-2.3518;
79265625432666;-11.5869;0.9547;-3.7460;
79265635538604;-14.8711;-1.4862;-3.2979;
79265645644541;-9.5148;-0.2907;-0.0855;
79265655752979;-5.9264;-0.9401;-0.3395;
79265665858916;-8.6309;-0.5112;-4.3424;
79265675964854;-10.2957;0.2363;-3.2381;
79265686069489;-11.3809;-0.5518;-1.9660;
79265696175426;-10.7127;0.0900;-2.4954;
79265706281364;-6.0126;0.0470;-1.2544;
79265716402562;-8.5137;-0.0897;-2.3830;
79265726508499;-15.3311;-0.4657;-1.0343;
79265736614437;-8.6333;-0.1735;0.4510;
79265746697770;-6.9805;-1.2323;-1.3935;
79265756803708;-12.9308;-0.0464;-2.6010;
79265766909645;-9.9126;-0.1184;-1.6546;
79265777024854;-7.7375;-0.9114;-0.9790;
79265787130791;-6.1732;1.6831;-3.1950;
79265797236729;-13.5706;-0.1735;-3.8321;
79265807334020;-10.6887;0.1714;-1.0965;
79265817439958;-6.6763;1.8915;-2.1649;
79265827545895;-9.3090;-0.4992;-5.6647;
79265837656520;-11.8289;-0.0224;-2.7374;
79265847762458;-10.0226;0.7175;-0.2629;
79265857868395;-7.5769;0.2387;-0.0233;
79265867981624;-8.3004;-0.4394;0.0870;
79265878087562;-9.9126;0.2554;-2.9219;
79265888193499;-11.4482;0.9835;-3.0775;
79265898295999;-9.4549;-0.2166;-2.3782;
79265908401937;-10.8924;-0.3676;-2.8837;
79265918507874;-7.2344;0.9165;-3.3123;
79265928613187;-7.6199;0.4878;-3.2788;
79265938719124;-8.4081;0.5046;-3.7388;
79265948825062;-10.3220;-0.0224;-3.4298;
79265958930062;-11.5534;1.0436;-2.5050;
79265969035999;-6.6978;0.5979;-1.4414;
79265979141937;-7.3038;0.4301;-3.0464;
79265989279229;-14.1168;0.1283;-3.5710;
79265999385166;-10.2550;0.4564;-0.2103;
79266009491104;-7.0020;-0.1472;-0.8330;
79266019586572;-11.3378;0.2626;-1.8033;
79266029692510;-9.4214;0.5405;-1.5972;
79266039798447;-8.5400;-0.8874;-3.1639;
79266049893916;-9.0957;0.1618;-3.1543;
79266059999854;-8.9160;1.0651;-2.8259;
79266070105791;-10.5640;-0.6048;-2.7326;
79266080213708;-8.2573;-0.1687;-3.3840;
79266090319645;-10.8203;0.6170;-4.4094;
79266100425583;-11.3330;0.5429;-3.7842;
79266110532354;-9.9030;0.8542;-0.4280;
79266120638291;-3.5596;0.2530;0.6066;
79266130744229;-7.9460;-0.0488;-2.0450;
79266140841624;-14.0112;0.3320;-4.2203;
79266150947562;-13.6663;-0.0682;-1.1061;
79266161053499;-6.8151;0.7848;-0.1238;
79266171155062;-9.2321;-0.3389;-2.3013;
79266181260999;-10.4587;-0.9760;-3.1277;
79266191366937;-7.5529;-0.3604;-2.2774;
79266201476312;-5.9982;-0.3891;-2.9459;
79266211582249;-10.3101;-0.5542;-6.2420;
79266221688187;-13.3765;-0.2979;-3.9473;
79266231806416;-7.6872;0.4950;-1.0487;
79266241912354;-8.6022;-0.9568;-1.2209;
79266252018291;-11.2397;-0.5064;-2.7781;
79266262117770;-12.5118;0.2315;-2.1673;
79266272223708;-4.9513;-1.5939;-0.0425;
79266282329645;-8.3459;-1.1390;-3.0368;
79266292451312;-11.4769;-0.2237;-3.4896;
79266302557249;-10.0899;0.3105;-1.5541;
79266312663187;-9.0550;-0.0511;-3.1496;
79266322772666;-8.0847;0.0733;-3.4513;
79266332878604;-9.6227;-0.2477;-3.2548;
79266342984541;-11.0527;-1.1171;-3.1687;
79266353077145;-10.3582;0.2411;-2.6919;
79266363183083;-6.4678;-0.4872;-1.4821;
79266373289020;-9.0646;-0.8803;-3.7842;
79266383394124;-9.5677;-0.3314;-5.1281;
79266393500062;-10.5497;-0.5375;-1.6977;
79266403605999;-10.2000;0.0805;0.6380;
79266413697354;-13.6232;-1.1100;-2.3204;
79266423803291;-10.7222;0.1738;-1.1109;
79266433909229;-2.8842;-0.3820;-0.6150;
79266444021208;-7.4309;-0.9449;-6.7164;
79266454127145;-13.3382;0.1259;-7.4614;
79266464233083;-9.4214;-0.2620;-0.3275;
79266474333604;-4.4892;0.2124;-1.1850;
79266484439541;-9.4525;-0.1711;-5.9330;
79266494545479;-14.9504;0.0805;-3.0105;
79266504646468;-13.9131;0.6601;2.1494;
79266514752406;-4.2449;-0.2812;3.2130;
79266524858343;-4.3406;-0.1735;-5.0420;
79266534975687;-13.1848;0.2435;-9.0015;
79266545081624;-13.2470;-1.4288;0.0006;
79266555187562;-4.0627;0.1857;2.1182;
79266565312041;-10.1330;0.4038;-5.2406;
79266575418083;-11.0312;0.1427;-2.7805;
79266585524124;-8.8992;0.5213;0.1947;
79266595625999;-9.3975;-0.0631;-2.5146;
79266605732041;-9.7328;-1.4360;-4.9412;
79266615838083;-9.0263;-0.7484;-2.7948;
79266625928395;-9.6251;-0.0129;0.4630;
79266636034437;-11.2732;0.6553;0.3191;
79266646140479;-9.3257;-0.0440;-0.6700;
79266656250739;-11.2277;-0.3867;-1.5251;
79266666356781;-11.6133;-0.0849;0.7050;
79266676462822;-8.1805;-0.1256;1.6247;
79266686564020;-8.4392;-0.4059;-3.9736;
79266696670062;-13.2206;-1.0454;-6.7594;
79266706776104;-7.3469;-0.3772;0.0269;
79266716874645;-7.4142;-0.2883;2.0345;
79266726980687;-9.4813;-0.6191;-2.9937;
79266737086729;-11.0886;-0.7125;-2.9530;
79266747202249;-13.5610;-0.0464;-0.8713;
79266757308291;-10.6361;0.8734;0.9039;
79266767414333;-8.8059;-1.5700;-0.6604;
79266777526312;-10.4827;-1.0813;-1.4629;
79266787632354;-6.3072;-1.0573;-0.8880;
79266797738395;-9.6754;-0.8273;-3.5686;
79266807827458;-12.8399;-0.0200;-3.3482;
79266817933499;-5.7299;0.2841;-0.8737;
79266828039541;-8.3267;-0.6311;-3.8201;
79266838147458;-11.2397;0.2578;-4.6585;
79266848253499;-12.4636;0.3942;-1.0989;
79266858359541;-7.5482;0.6123;-1.8535;
79266868474854;-8.7891;1.3717;-3.9063;
79266878580895;-9.4382;-0.6981;-1.9493;
79266888686937;-10.2742;1.0962;-2.4356;
79266898787666;-11.0097;2.7179;-1.9086;
79266908893708;-7.4883;-0.6861;0.9733;
79266918999749;-10.2526;0.5764;0.2354;
79266929110999;-9.5773;0.8423;-2.4428;
79266939217041;-6.3482;-0.1352;-5.0492;
79266949323083;-10.1665;0.3440;-5.0970;
79266959427979;-11.8983;-1.3448;-2.9411;
79266969534020;-8.8011;0.9356;-3.1591;
79266979640062;-8.2549;-0.7747;-3.4848;
79266989765895;-7.9098;0.6817;-2.9889;
79266999871937;-10.8876;0.0733;-1.5446;
79267009977979;-10.1354;-0.3652;2.0728;
79267020062822;-8.2884;-0.4442;1.7471;
79267030168864;-11.5534;0.9284;-3.6790;
79267040274906;-8.9710;-0.2070;0.1612;
79267050382770;-7.8763;-0.4681;-3.0966;
79267060488812;-13.0050;-0.0057;-4.1961;
79267070594854;-9.5533;-0.5925;-1.4964;
79267080700322;-12.1020;-0.3485;-0.4280;
79267090806364;-8.8920;-0.2070;0.4678;
79267100912406;-3.9335;-1.4862;-2.3925;
79267111009958;-7.9193;0.1307;-5.2286;
79267121115999;-14.1909;0.2028;-3.0009;
79267131222041;-11.5534;-0.7723;1.2846;
79267141332562;-9.0144;-1.5030;2.4153;
79267151438604;-8.3602;-0.2788;-1.9445;
79267161544645;-8.6788;0.3248;-3.9592;
79267171630218;-10.6146;0.6362;-4.2419;
79267181736260;-11.4242;0.0254;-0.5073;
79267191842301;-9.6921;-0.8946;3.0287;
79267201965999;-9.3425;-1.3256;0.4487;
79267212072041;-8.1470;-0.4848;-3.5614;
79267222178083;-8.1111;-0.4777;-3.5758;
79267232290687;-9.1220;-0.3099;-1.9062;
79267242396729;-11.7428;0.5979;-3.9326;
79267252502770;-12.5237;-1.0262;-1.9277;
79267262616312;-10.5760;-0.1017;-0.1501;
79267272722354;-4.8772;1.7022;-2.2271;
79267282828395;-7.7901;-0.5542;-4.5317;
79267292921833;-12.5907;-0.2883;-3.4872;
79267303027874;-12.1881;-0.0655;1.5529;
79267313133916;-6.3215;1.2398;2.6836;
79267323232145;-9.4143;0.8734;-3.2668;
79267333338187;-9.8288;0.6362;-4.6585;
79267343444229;-12.0900;0.2001;-2.8932;
79267353564489;-11.3450;-0.3556;-1.2066;
79267363670531;-8.5424;-0.7364;-0.6843;
79267373776572;-7.0905;-0.2477;-2.0139;
79267383900374;-9.1196;-0.0583;-2.8956;
79267394006416;-12.4421;0.1953;-2.5265;
79267404112458;-8.4706;-0.4274;-0.2773;
79267414177041;-8.2908;0.7848;-4.0023;
79267424283083;-10.1210;-0.4537;-3.0033;
79267434389124;-9.8695;0.0422;-2.0115;
79267444517249;-10.4946;0.8495;0.2354;
79267454623291;-7.3804;-1.1100;0.6978;
79267464729333;-9.4860;-0.2548;-4.2682;
79267474840479;-8.9518;0.0589;-3.5590;
79267484946520;-10.5616;0.0111;-0.4929;
79267495052562;-10.4850;-0.5830;-1.4557;
79267505161208;-9.0479;-0.3485;-1.4964;
79267515267249;-9.9796;-0.5279;-2.7230;
79267525373291;-12.8973;-1.2323;-1.6451;
79267535457249;-2.5104;-0.0993;-1.4151;
79267545563291;-8.7700;-0.2907;-4.4862;
79267555669333;-14.5047;-0.8850;-3.2285;
79267565780687;-9.0909;0.0398;0.8007;
79267575886676;-8.0871;0.2818;-0.8091;
79267585992666;-7.3708;0.5142;-2.2774;
79267596119749;-7.3684;-0.4848;-2.7709;
79267606225739;-11.0264;-0.6191;-3.5949;
79267616331729;-10.5927;0.6458;-2.7829;
79267626407249;-7.6633;-0.0009;-1.0439;
79267636513239;-7.2583;0.0015;-2.4619;
79267646619229;-6.0870;-0.1065;-1.5829;
79267656732041;-4.8413;-0.0009;-3.0511;
79267666838031;3.7825;0.0924;-8.4075;
79267676944020;-21.9093;0.1786;-8.5226;
79267687041312;-56.1721;1.3214;15.0538;
79267697147301;-16.4043;0.1307;33.6551;
79267707253291;15.3697;0.1068;-21.2928;
79267717364541;-3.3033;-3.6876;-3.3960;
79267727470531;-19.4034;-2.8756;10.9935;
79267737576520;-12.7080;0.7442;-6.6036;
79267747693187;-1.4300;-0.0368;-2.3758;
79267757799176;-5.1838;-1.4719;-4.2562;
79267767905166;-12.5213;2.3970;-10.1898;
79267778002874;-2.9154;1.2685;-7.1692;
79267788108864;-7.8165;-0.7244;-5.9019;
79267798214854;-10.0490;0.3942;-0.4424;
79267808317562;-10.3869;0.7490;-0.3682;
79267818423551;-11.4000;-1.9077;-1.7886;
79267828529541;-7.3564;-0.8827;0.1229;
79267838635739;-7.8428;0.1642;-1.1563;
79267848741729;-10.4468;-0.1232;-2.6728;
79267858847718;-10.3965;-2.0707;0.3505;
79267868962666;-9.5653;-0.0033;1.8045;
79267879068656;-9.7783;-0.4035;3.4597;
79267889174645;-1.6481;-0.5064;9.3670;
79267899290479;-1.4803;-1.2921;-17.7308;
79267909396468;-30.1738;-0.8441;-42.5148;
79267919502458;-16.8500;1.3382;-7.0325;
79267929611833;0.3930;0.9404;18.6018;
79267939717822;-6.7241;-1.8335;2.2382;
79267949823812;-13.0508;0.9811;-4.9795;
79267959915687;-9.9772;4.4907;3.8958;
79267970021676;-4.4004;2.1096;8.1861;
79267980127666;-10.8084;1.2302;-2.0521;
79267990254541;-18.2513;2.4832;-4.2514;
79268000360531;-8.0895;0.2148;8.4257;
79268010466520;-3.9045;-2.9928;1.2440;
79268020552979;-13.5945;-1.0119;-8.5131;
79268030658968;-9.0838;0.1068;-1.7216;
79268040764958;-5.4592;-2.5164;-1.5084;
79268050882770;-11.5965;-2.9019;-10.5395;
79268060988760;-7.3181;-0.5662;-4.5197;
79268071094749;-10.2239;-2.1808;-0.0640;
79268081206989;-10.8180;-2.6958;-1.2209;
79268091312979;-8.5567;-1.1797;0.4295;
79268101418968;-9.6515;0.7753;-2.5457;
79268111505687;-9.1938;0.5261;-2.3806;
79268121611676;-10.6911;-0.4490;0.7887;
79268131717666;-9.6251;1.4171;-1.7240;
79268141819645;-12.6506;2.0566;-1.2595;
79268151925635;-7.2057;0.9356;1.8500;
79268162031624;-9.3425;0.3727;-1.6068;
79268172136416;-11.4075;-0.0583;-3.3553;
79268182242406;-11.0360;0.2506;-1.6666;
79268192348395;-10.5377;1.0268;-1.1611;
79268202459749;-7.6223;0.5788;-1.7985;
79268212565739;-6.3577;-1.0836;-2.6417;
79268222671729;-9.5988;-1.3615;-5.2645;
79268232788135;-15.1322;0.9356;-3.8536;
79268242894124;-4.9442;-0.5566;0.8007;
79268253000114;-7.9292;-2.1353;-3.7484;
79268263096729;-13.8245;0.1427;-4.5604;
79268273202718;-9.4525;0.1355;1.8835;
79268283308708;-8.7939;0.3200;-0.2916;
79268293426416;-9.9389;0.1810;-2.3710;
79268303532406;-7.9364;-0.7627;-2.6991;
79268313638395;-11.5989;-0.2189;-1.8272;
79268323736937;-9.1412;1.6998;-0.7588;
79268333842926;-10.3654;-0.0488;-2.4691;
79268343948916;-6.9374;-0.2644;-1.3098;
79268354035374;-10.7581;-0.0655;-2.1601;
79268364141364;-11.0288;0.8112;-2.7398;
79268374247354;-9.0766;-0.2764;-0.8617;
79268384465687;-9.0981;-0.1256;-3.2261;
79268394571676;-13.2278;-0.1041;-3.4729;
79268404677666;-7.6128;0.2985;-0.0281;
79268414672770;-7.8260;-0.6407;-0.7226;
79268424778760;-9.2465;0.5022;-1.8559;
79268434884749;-10.8156;1.3382;-3.3601;
79268445045895;-11.0264;-0.2955;0.0461;
79268455151885;-9.2489;-0.4513;-0.1262;
79268465257874;-9.2755;0.9739;-3.0440;
79268475313916;-7.8308;-0.6431;-2.2726;
79268485419906;-7.7183;-0.9616;-1.3863;
79268495525895;-11.0192;-0.0176;-2.7063;
79268505637145;-11.5367;-1.1076;-3.1998;
79268515743135;-7.3158;-0.8560;-2.1505;
79268525849124;-8.3435;-0.3194;-2.7565;
79268535975166;-9.0120;-0.4872;-1.2377;
79268546081156;-7.1913;-1.8622;-0.6604;
79268556187145;-12.6673;1.0603;-4.1219;
79268566276416;-12.3033;0.1857;-0.1693;
79268576382406;-10.9666;-1.9582;0.5492;
79268586488395;-8.4945;-0.1519;-0.7756;
79268596632874;-9.8958;-0.0224;-2.6201;
79268606738864;-10.7892;-0.7603;-1.1874;
79268616844854;-10.3726;-0.2333;-0.7059;
79268626919854;-7.0642;1.3717;-1.9540;
79268637025843;-10.3029;-0.6526;-4.2754;
79268647131833;-9.2584;0.1618;-3.0607;
79268657234229;-9.6778;-0.2596;-2.2104;
79268667340218;-10.8132;-0.7292;-1.7623;
79268677446208;-8.3770;-0.0607;-2.1817;
79268687544229;-8.7915;-0.5542;-2.8068;
79268697650218;-12.8542;-0.3628;-1.9110;
79268707756208;-5.8762;0.4301;0.1851;
79268717871833;-9.3832;0.4902;-3.7675;
79268727977822;-12.4469;-1.1267;-2.0668;
79268738083812;-8.5926;0.7370;0.6332;
79268748199749;-7.1339;-0.8465;-2.2510;
79268758305739;-9.6491;0.2865;-3.4131;
79268768411729;-11.4793;0.5213;-1.1276;
79268778511208;-10.7390;0.9691;-1.4318;
79268788617197;-8.0082;0.4950;-1.6570;
79268798723187;-6.4702;-1.4432;0.2450;
79268808826312;-10.7821;0.1929;-5.9880;
79268818932301;-11.1990;-0.0945;-3.1854;
79268829038291;-9.0383;0.1618;-0.2318;
79268839137354;-10.8203;0.6482;-2.4906;
79268849243343;-8.0249;0.7657;-2.8140;
79268859349333;-9.4286;-0.3242;-3.4920;
79268869454958;-12.2411;-0.2118;-1.8631;
79268879560947;-8.6213;-0.1041;0.1421;
79268889666937;-9.5052;0.2171;-1.5446;
79268899788395;-10.4731;-0.0153;-1.0439;
79268909894385;-10.1833;0.4660;-0.8976;
79268920000374;-8.9447;-0.6072;-1.0893;
79268930086312;-8.7844;-0.1807;-2.4547;
79268940192301;-9.5821;-0.0802;-3.3266;
79268950298291;-9.2803;0.0924;-2.9219;
79268960404437;-10.2287;-0.8034;-1.2090;
79268970510426;-8.0465;0.1068;-1.4797;
79268980616416;-7.2224;-0.2285;-3.5710;
79268990719645;-9.9604;0.6745;-3.7651;
79269000825635;-12.5620;0.1355;-0.8952;
79269010931624;-9.1699;-0.7507;0.8557;
79269021041937;-9.4143;-0.1400;-2.0668;
79269031147926;-10.0155;0.5261;-2.3351;
79269041253916;-8.8394;0.0182;-2.0402;
79269051365895;-11.2086;0.3559;-0.3730;
79269061471885;-9.3281;-0.1567;1.1264;
79269071577874;-9.5510;0.7032;-3.1038;
79269081689854;-10.8347;-0.5495;-2.2152;
79269091795843;-9.2441;0.2674;-2.2654;
79269101901833;-9.4262;-0.1878;-2.4715;
79269112000479;-9.8791;-1.0813;-1.6475;
79269122106468;-11.0025;0.3248;-2.4452;
79269132212458;-8.7437;-0.5542;-1.0822;
79269142316624;-5.7060;-0.1232;-1.1707;
79269152422614;-14.4377;0.5548;-3.1711;
79269162528604;-7.5984;-0.6646;-0.5982;
79269172649854;-6.4415;-1.0502;-2.5624;
79269182755843;-11.3067;0.7008;-4.3615;
79269192861833;-11.1894;-0.0897;-0.9861;
79269202959229;-8.5184;-1.4264;0.9326;
79269213065218;-9.4549;0.9045;-2.2510;
79269223171208;-11.6276;-0.5112;-2.4332;
79269233253291;-11.1365;-0.2189;1.1674;
79269243359281;-6.5925;0.3176;0.3697;
79269253465270;-7.1073;-0.5351;-2.6249;
79269263592666;-11.1392;0.0733;-4.1219;
79269273698656;-12.2889;-0.1017;-2.2774;
79269283804645;-9.3760;-0.8106;-0.8378;
79269293955374;-8.0249;-0.1089;-1.5541;
79269304061364;-10.1952;-0.3939;-1.4988;
79269314167354;-10.7653;0.1044;-1.8057;
79269324231833;-9.2393;-0.6861;-1.0774;
79269334337822;-6.9565;-0.3170;-0.7612;
79269344443812;-12.2794;-0.8225;-3.2524;
79269354555114;-13.9370;-0.5518;-0.6556;
79269364661104;-7.7207;-0.2285;0.7816;
79269374767093;-6.2163;-0.6694;-0.9550;
79269384845687;-10.8586;-0.1615;-2.5648;
79269394951676;-13.1513;-0.4992;-2.2917;
79269405057666;-8.4224;-0.1783;-0.6030;
79269415170895;-6.0413;-0.0849;-0.7756;
79269425276885;-12.2073;0.4998;-3.3410;
79269435382874;-11.0360;-0.6622;-0.3969;
79269445499854;-7.6968;-0.2189;-0.0305;
79269455605843;-9.4382;1.1154;-2.7422;
79269465711833;-11.1030;-0.2453;-1.0439;
79269475804229;-8.3554;0.1810;-1.2066;
79269485910218;-7.6944;0.1857;-3.1472;
79269496016208;-10.8203;-0.5734;-3.3840;
79269506147145;-11.0934;1.1177;-1.5446;
79269516253135;-8.3483;0.2267;-0.8282;
79269526359124;-8.0776;0.8973;-2.5528;
79269536444124;-10.5544;0.8303;-1.3552;
79269546550114;-11.2875;0.2171;-1.5685;
79269556656104;-11.5893;0.3823;-0.4496;
79269566779645;-8.6429;-0.6335;-0.5551;
79269576885635;-9.7519;0.8542;-0.6843;
79269586991676;-9.6945;0.0278;-0.8928;
79269597085583;-9.1412;0.0541;-1.0798;
79269607191572;-9.8599;0.2554;-0.9096;
79269617297614;-9.4167;0.6242;-0.9670;
79269627399541;-10.0202;0.9260;-1.3792;
79269637505531;-9.2178;-0.5542;-2.5576;
79269647611572;-9.4645;-0.2596;-0.8521;
79269657735270;-11.0958;-0.3003;-0.7804;
79269667841260;-14.0207;0.5931;-0.4977;
79269677947301;-0.5749;-0.8584;2.1829;
79269688051416;-3.6772;-0.4083;-0.4810;
79269698157406;-31.0816;1.2903;-3.4131;
79269708263447;-7.6319;0.3511;2.3052;
79269718361572;7.1459;-2.4395;4.4874;
79269728467562;-16.7468;1.4985;-5.6001;
79269738573604;-16.5171;0.3942;-2.3758;
79269748684437;-6.6835;-2.7655;1.8858;
79269758790426;-7.8954;0.8136;-1.5852;
79269768896468;-10.1067;1.0579;-1.4462;
79269779005687;-12.5979;-1.2084;-0.7011;
79269789111676;-7.5218;0.4158;-0.8689;
79269799217718;-8.9925;0.2913;-0.6030;
79269809308239;-11.8935;0.4759;-0.9455;
79269819414229;-9.6993;0.2001;-1.2691;
79269829520270;-9.4837;-0.8345;0.4175;
79269839633812;-9.5940;0.7633;-0.9861;
79269849739801;-12.0063;-0.6526;-0.9550;
79269859845843;-9.4143;-0.4633;-0.6867;
79269869945687;-6.6691;-1.3017;-1.3098;
79269880051676;-13.1249;0.5477;-2.0091;
79269890157718;-10.1282;-0.8345;-1.4940;
79269900265062;-6.6787;0.6194;-1.0869;
79269910371051;-10.0971;-0.6239;-0.2174;
79269920477093;-9.7615;0.1475;-2.1458;
79269930584020;-8.4993;-1.0310;-1.2568;
79269940690010;-11.5869;0.2339;-1.2018;
79269950796051;-10.6098;-0.2429;-1.4868;
79269960905999;-9.2010;-0.6694;-0.3634;
79269971011989;-6.4702;-0.0706;0.3553;
79269981118031;-12.6482;0.0039;-1.6546;
79269991241312;-11.1990;-0.7986;-2.1434;
79270001347301;-10.9857;-0.0849;-1.9684;
79270011453343;-11.5152;0.6482;-0.4496;
79270021536833;-7.2416;-1.1821;3.7017;
79270031642822;-6.5324;0.2339;-0.6054;
79270041748864;-11.9848;-0.3075;0.9302;
79270051850895;-10.5975;1.4794;0.3553;
79270061956885;-11.9175;-0.1041;-3.3003;
79270072062926;-10.5425;-1.0789;-2.6608;
79270082179020;-8.4105;0.6147;-2.5696;
79270092285010;-8.1350;-0.0802;-0.3921;
79270102391051;-14.5765;-1.5078;-2.5002;
79270112496520;-8.2190;1.0053;-1.9804;
79270122602510;-5.6055;0.9332;0.7744;
79270132708551;-10.2479;2.1646;-1.5036;
79270142809072;-7.9412;1.2350;-3.0559;
79270152915062;-10.0179;1.1273;-0.5145;
79270163021104;-12.7128;2.1407;-2.1793;
79270173117406;-11.6758;-0.1615;-1.0702;
79270183223395;-7.3974;1.7285;1.0164;
79270193329437;-7.0187;0.3033;-0.2342;
79270203439541;-12.2650;0.4277;-2.3830;
79270213545531;-13.0002;-0.5447;-0.7131;
79270223651572;-5.0330;0.0063;0.6619;
79270233748239;-7.6825;0.3607;-2.4715;
79270243854176;-13.4770;0.8686;-2.3925;
79270253960218;-8.5687;-0.4513;0.6954;
79270264066208;-10.2479;1.1656;-1.8583;
79270274186520;-12.4469;0.9571;-0.6867;
79270284292562;-6.9517;0.0852;1.9627;
79270294398551;-8.8801;0.1403;-0.6173;
79270304515374;-11.7930;-0.2405;-1.0941;
79270314621364;-11.5176;0.7825;-0.4376;
79270324727406;-9.6826;0.2865;-0.6676;
79270334812770;-9.4382;-0.7388;-0.1262;
79270344918760;-8.3339;0.1020;-0.5168;
79270355024801;-9.8049;-0.9114;-1.6140;
79270365129437;-10.6241;-0.5853;-0.5408;
79270375235426;-8.4802;0.6505;-2.0883;
79270385341468;-10.2263;-0.5877;-2.7876;
79270395464124;-10.7653;-0.0754;0.1588;
79270405570114;-8.4826;0.5859;-0.9191;
79270415676156;-10.6023;-1.2969;-0.8904;
79270425773187;-10.6935;-0.4298;-0.6221;
79270435879176;-10.4324;0.1786;-1.4821;
79270445985218;-10.2335;-0.4466;0.2593;
79270456095062;-10.5664;-0.8970;0.4678;
79270466201051;-8.3770;-0.2620;-0.4929;
79270476307093;-10.6193;-0.7172;-0.7636;
79270486403499;-11.7260;-0.1280;-1.4414;
79270496509489;-9.5988;-0.8154;-0.7325;
79270506615531;-6.9661;-0.3676;-0.7155;
79270516724906;-8.6453;-0.9018;-1.0510;
79270526830895;-9.7591;-0.1065;-3.1325;
79270536936937;-14.0447;-0.8536;-4.7761;
79270547051729;-13.1082;-1.0023;-0.4881;
79270557157718;-3.6939;0.1116;3.6275;
79270567263760;-6.9398;-1.3519;1.4067;
79270577385999;-13.9202;-0.0849;-4.5174;
79270587492041;-12.8160;0.7537;-1.7216;
79270597598031;-4.1728;0.0206;4.7342;
79270607680895;-6.8079;-0.4298;-0.6102;
79270617786937;-14.0184;-0.3628;-5.9330;
79270627892926;-13.5320;-0.5710;-3.1301;
79270637999645;-8.7485;-0.5853;0.7552;
79270648105687;-7.0092;-0.4944;-0.2749;
79270658211676;-8.9231;-1.4288;0.3912;
79270668318187;-11.3330;-0.8177;0.4319;
79270678424229;-11.0934;0.4134;0.7720;
79270688530218;-8.1637;-0.4609;1.0116;
79270698647145;-10.2526;-1.9125;-2.2630;
79270708753187;-13.8556;-0.5686;-3.7938;
79270718859176;-8.0608;-0.8201;1.6822;
79270728970583;-6.2976;-2.1664;1.7806;
79270739076624;-11.4506;-1.1701;-2.8908;
79270749182614;-12.5453;-1.4022;-1.5398;
79270759284124;-7.3540;-0.9951;-0.7947;
79270769390166;-7.4118;-0.7388;-1.8751;
79270779496156;-11.4362;-0.9305;-3.5112;
79270789595999;-10.8781;-0.3796;-3.3218;
79270799702041;-7.8954;-0.7627;-1.6618;
