Sensor: bmi160 Accelerometer Non-wakeup
Vendor: BOSCH
TimestampAcc [ns]; AccX [m/s^2]; AccY [m/s^2]; AccZ [m/s^2]
3979585675683884;-9.4789;1.4339;-2.0163;
3979585685788519;-9.4837;1.4315;-2.0067;
3979585695882998;-9.5148;1.4052;-2.0019;
3979585705987634;-9.4860;1.3645;-2.0067;
3979585716096800;-9.4956;1.3789;-2.0378;
3979585726201384;-9.4837;1.3860;-1.9899;
3979585736310446;-9.4813;1.3836;-1.9947;
3979585746415081;-9.5052;1.3813;-2.0258;
3979585756519613;-9.5004;1.3765;-1.9421;
3979585766624352;-9.5342;1.3765;-1.8990;
3979585776729040;-9.5172;1.4028;-1.9205;
3979585786833571;-9.5195;1.3884;-1.9708;
3979585796907217;-9.5028;1.3836;-1.9851;
3979585807036748;-9.4932;1.3884;-1.9493;
3979585817132529;-9.5243;1.3669;-1.9445;
3979585827237165;-9.5195;1.3478;-1.9134;
3979585837341748;-9.4956;1.3358;-1.8918;
3979585847437634;-9.5291;1.3023;-1.9134;
3979585857542269;-9.5366;1.2589;-1.9181;
3979585867646852;-9.5315;1.2254;-1.9493;
3979585877780550;-9.5315;1.1895;-1.9756;
3979585887885186;-9.5267;1.1130;-2.0354;
3979585897989769;-9.5243;1.0771;-2.0474;
3979585908076279;-9.5581;1.0699;-2.0234;
3979585918180915;-9.5195;1.0436;-1.9851;
3979585928285498;-9.5219;1.0842;-1.9086;
3979585938384404;-9.5486;1.1465;-1.8583;
3979585948489040;-9.5291;1.2230;-1.8607;
3979585958593623;-9.5004;1.2999;-1.9421;
3979585968695654;-9.5004;1.4387;-1.9780;
3979585978800290;-9.4813;1.5682;-2.0668;
3979585988904873;-9.4597;1.6232;-2.0474;
3979585999033050;-9.4884;1.6232;-1.9158;
3979586009137686;-9.5291;1.6184;-1.8009;
3979586019242269;-9.5124;1.6113;-1.8009;
3979586029329404;-9.4956;1.6591;-1.8799;
3979586039434040;-9.4813;1.7166;-1.9493;
3979586049538623;-9.4669;1.7548;-1.9899;
3979586059658571;-9.4860;1.7859;-2.0163;
3979586069763154;-9.4956;1.7644;-1.9516;
3979586079867790;-9.4813;1.6735;-1.8846;
3979586089958050;-9.5124;1.5778;-1.7961;
3979586100062686;-9.5100;1.5057;-1.8200;
3979586110167269;-9.5124;1.4219;-1.8535;
3979586120259821;-9.5100;1.3143;-1.8846;
3979586130364456;-9.5052;1.2159;-1.9158;
3979586140469040;-9.5028;1.1345;-1.8823;
3979586150610550;-9.4980;1.1297;-1.8583;
3979586160715186;-9.5052;1.1991;-1.8727;
3979586170819769;-9.4765;1.4339;-2.0883;
3979586180912790;-9.4525;1.3765;-2.0210;
3979586191017373;-9.5028;1.4100;-2.0043;
3979586201122009;-9.5195;1.3597;-1.9158;
3979586211203467;-9.4860;1.4052;-1.9229;
3979586221308102;-9.4765;1.4626;-2.0091;
3979586231412738;-9.4765;1.4746;-2.0692;
3979586241538571;-9.4789;1.4674;-2.0740;
3979586251643154;-9.4789;1.4746;-2.0330;
3979586261747790;-9.4597;1.4961;-1.9469;
3979586271827529;-9.4837;1.5419;-1.9229;
3979586281932165;-9.4789;1.6376;-1.9851;
3979586292036748;-9.4358;1.5921;-1.8655;
3979586302181696;-9.5267;1.6543;-1.9158;
3979586312286279;-9.4741;1.6998;-1.9373;
3979586322390915;-9.4334;1.7548;-1.9086;
3979586332474821;-9.4741;1.7812;-1.9086;
3979586342579456;-9.4956;1.8051;-1.8679;
3979586352684040;-9.4621;1.8604;-1.8057;
3979586362795654;-9.4454;1.8915;-1.7815;
3979586372900290;-9.4573;1.9155;-1.8081;
3979586383004873;-9.4525;1.9394;-1.8440;
3979586393100706;-9.4573;1.9705;-1.8368;
3979586403205342;-9.4454;1.9561;-1.8344;
3979586413309925;-9.4525;1.9896;-1.7934;
3979586423419821;-9.4813;1.9131;-1.6977;
3979586433524456;-9.4549;1.8939;-1.7961;
3979586443629040;-9.4358;1.9059;-1.8655;
3979586453751436;-9.4119;1.9011;-1.8775;
3979586463856019;-9.4406;1.8580;-1.9134;
3979586473960654;-9.4765;1.8269;-1.9205;
3979586484063050;-9.4860;1.7692;-1.7456;
3979586494167686;-9.4908;1.7620;-1.6810;
3979586504272269;-9.5243;1.7859;-1.7336;
3979586514386488;-9.4741;1.8027;-1.8033;
3979586524491123;-9.4884;1.8173;-1.8775;
3979586534595706;-9.5076;1.7764;-2.0019;
3979586544675134;-9.4095;1.8652;-2.0282;
3979586554779717;-9.4143;1.6041;-1.6475;
3979586564884352;-9.5605;1.7189;-1.7575;
3979586574995290;-9.5004;1.6472;-1.6953;
3979586585099925;-9.4813;1.7166;-1.9277;
3979586595204509;-9.5342;1.7046;-1.9971;
3979586605304300;-9.4717;1.6089;-1.9086;
3979586615408936;-9.4525;1.5921;-1.7791;
3979586625513519;-9.4956;1.6137;-1.7456;
3979586635615029;-9.4956;1.6735;-1.8153;
3979586645719665;-9.4956;1.7118;-1.8679;
3979586655824248;-9.4860;1.7524;-1.9325;
3979586665934613;-9.4478;1.7692;-1.9445;
3979586676039248;-9.4119;1.7213;-1.8894;
3979586686143831;-9.4430;1.6567;-1.8703;
3979586696243259;-9.5291;1.5897;-1.8416;
3979586706347894;-9.5438;1.5586;-1.8607;
3979586716452477;-9.4741;1.5586;-1.8966;
3979586726555654;-9.4908;1.5897;-1.9516;
3979586736660290;-9.4813;1.5993;-1.9756;
3979586746764873;-9.4549;1.6137;-1.9732;
3979586756875654;-9.4860;1.6113;-1.9708;
3979586766980290;-9.4980;1.5826;-1.9540;
3979586777084873;-9.4597;1.5200;-1.9660;
3979586787202425;-9.4669;1.4171;-1.9684;
3979586797307061;-9.5076;1.2422;-1.9134;
3979586807411644;-9.5004;1.1177;-1.9708;
3979586817498363;-9.4956;1.0962;-2.0979;
3979586827602998;-9.4741;1.1441;-2.1362;
3979586837707634;-9.4693;1.1608;-2.1529;
3979586847824717;-9.5291;1.0747;-2.1290;
3979586857929352;-9.5291;0.8399;-2.1147;
3979586868033988;-9.4956;1.0460;-1.8775;
3979586878098415;-9.4621;0.8853;-2.2439;
3979586888203102;-9.5366;0.7825;-2.4691;
3979586898307738;-9.4717;0.7008;-2.2199;
3979586908440863;-9.5725;0.6194;-2.2319;
3979586918545498;-9.6323;0.6386;-2.1721;
3979586928650134;-9.4645;0.4974;-1.9660;
3979586938759040;-9.4956;0.4974;-1.9708;
3979586948863675;-9.5390;0.6482;-2.1075;
3979586958968259;-9.5076;0.7729;-2.1697;
3979586969072842;-9.4502;0.8925;-2.2558;
3979586979177477;-9.4119;0.9906;-2.3686;
3979586989282113;-9.4645;1.0002;-2.3037;
3979586999398936;-9.4597;0.9523;-2.1290;
3979587009503571;-9.4669;0.9428;-1.9564;
3979587019608206;-9.4908;0.8853;-1.8942;
3979587029711279;-9.4525;0.9739;-1.9158;
3979587039815915;-9.3688;1.3454;-2.1553;
3979587049920550;-9.3018;1.7548;-2.4835;
3979587060001279;-9.2584;1.9083;-2.4523;
3979587070105915;-9.2994;1.8051;-2.1577;
3979587080210550;-9.3999;1.6424;-1.8248;
3979587090331175;-9.4047;1.6041;-1.6857;
3979587100435811;-9.3114;1.9346;-1.9181;
3979587110540446;-9.2273;2.3369;-2.3423;
3979587120645134;-9.1747;2.4353;-2.4763;
3979587130749769;-9.2560;2.3369;-2.2319;
3979587140854404;-9.3855;2.3492;-2.0186;
3979587150966904;-9.3329;2.6294;-1.9947;
3979587161071540;-9.1914;2.9073;-2.0617;
3979587171176175;-9.1436;2.9216;-2.1266;
3979587181248050;-9.2417;2.7849;-2.1123;
3979587191352686;-9.2608;2.6222;-1.9516;
3979587201457321;-9.2369;2.8905;-2.3180;
3979587211582842;-9.2106;3.0796;-2.3758;
3979587221687477;-9.2273;3.0820;-2.3782;
3979587231792113;-9.2249;3.3168;-2.8475;
3979587241893363;-8.9423;3.5683;-3.9254;
3979587251997998;-8.8848;3.0126;-2.7685;
3979587262102634;-9.5100;1.9346;-0.9024;
3979587272200446;-10.0756;2.1239;-1.0510;
3979587282305081;-9.6706;2.2101;-1.6594;
3979587292409717;-9.0144;2.2125;-2.6393;
3979587302525446;-8.9423;1.9729;-3.7053;
3979587312630081;-8.9542;1.9059;-3.7795;
3979587322734717;-8.8633;1.9705;-2.7924;
3979587332826279;-9.1412;2.1646;-2.0644;
3979587342930915;-9.5462;2.1048;-2.0812;
3979587353035550;-9.4167;2.1168;-2.4236;
3979587363162842;-9.0455;2.6988;-2.7015;
3979587373267477;-8.9686;3.6858;-2.7374;
3979587383372113;-9.0144;4.2102;-2.5122;
3979587393483259;-8.9806;3.8868;-2.2582;
3979587403587894;-8.8729;3.6377;-2.4021;
3979587413692529;-8.9686;3.7696;-2.4595;
3979587423787009;-9.1388;4.5147;-3.4442;
3979587433891644;-8.9016;4.8954;-3.6981;
3979587443996279;-8.8513;3.8844;-2.7685;
3979587454087217;-8.9973;3.1684;-2.4858;
3979587464191852;-8.9710;3.0628;-2.4284;
3979587474296488;-9.0574;3.0413;-2.5098;
3979587484416800;-9.3185;3.0054;-3.0224;
3979587494521436;-9.2082;3.0532;-3.5518;
3979587504626071;-8.8226;2.9862;-3.7866;
3979587514739665;-8.8202;3.0604;-3.7053;
3979587524844352;-9.2536;3.0245;-3.1926;
3979587534948988;-9.3257;2.8065;-2.7326;
3979587545057686;-8.8442;2.6773;-2.8451;
3979587555162321;-8.5328;2.7491;-3.0894;
3979587565266956;-8.8561;2.7371;-3.2524;
3979587575357634;-9.5701;2.7921;-3.4490;
3979587585462269;-9.6371;2.7108;-3.2836;
3979587595566904;-8.7844;2.4616;-3.0320;
3979587605679456;-8.4105;2.1503;-3.0129;
3979587615784092;-9.1173;1.8604;-2.8980;
3979587625888727;-9.3066;1.8963;-2.7829;
3979587635991384;-9.3688;1.9298;-3.0535;
3979587646096019;-9.7376;1.7524;-3.5279;
3979587656200654;-9.3138;1.4985;-3.1472;
3979587666300550;-8.5974;1.3789;-2.5624;
3979587676405186;-8.5065;1.4052;-2.7541;
3979587686509821;-9.4860;1.3908;-3.4107;
3979587696611800;-10.0609;1.3286;-3.3290;
3979587706716436;-9.1795;1.3382;-2.6225;
3979587716821071;-8.7389;1.4626;-2.7757;
3979587726924821;-9.3329;1.5419;-2.8522;
3979587737029456;-9.3281;1.5538;-2.1362;
3979587747134092;-9.0383;1.7740;-2.6225;
3979587757232321;-9.4693;2.1790;-3.5758;
3979587767336956;-9.4214;2.4640;-3.0272;
3979587777441592;-9.1292;2.6653;-2.1721;
3979587787558467;-9.0646;2.7371;-2.0450;
3979587797663102;-9.1268;2.8615;-2.4045;
3979587807767738;-8.8202;3.1178;-2.8307;
3979587817865863;-6.2785;3.2785;-4.8311;
3979587827970498;-2.4936;3.6664;-7.7752;
3979587838075186;-16.6463;3.5539;-11.3037;
3979587848201956;-15.4798;1.9035;-5.4108;
3979587858306644;-6.6547;2.3827;-3.4825;
3979587868411279;-6.7768;2.7873;-5.8612;
3979587878501696;-4.7118;0.3535;1.2918;
3979587888606331;-4.8939;-2.0085;7.1178;
3979587898711019;-12.3631;-1.4934;1.0810;
3979587908812842;-15.0030;0.6242;-5.9043;
3979587918917529;-10.7605;1.6328;-6.6135;
3979587929022165;-8.0417;1.9681;-6.3257;
3979587939120654;-7.2033;0.9858;-4.0741;
3979587949225342;-6.7768;-0.3389;-0.0401;
3979587959329977;-7.6920;-0.1543;-0.8498;
3979587969438623;-11.1847;1.3023;-6.4289;
3979587979543311;-11.9342;1.8389;-7.6505;
3979587989647946;-8.2502;1.1967;-3.3123;
3979587999783571;-6.9829;0.8351;-2.1625;
3979588009888206;-8.0584;1.4506;-3.5399;
3979588019992894;-8.3076;2.1383;-2.9076;
3979588030067217;-9.9532;2.9384;-3.3817;
3979588040171904;-11.3019;3.9299;-4.5724;
3979588050276540;-8.9686;4.2200;-4.2036;
3979588060401175;-6.5827;4.3134;-4.6801;
3979588070505863;-6.9876;4.6008;-5.8181;
3979588080610498;-8.4583;4.6152;-4.9842;
3979588090695863;-10.3989;4.4234;-3.2501;
3979588100800498;-10.3196;3.9829;-2.3901;
3979588110905134;-9.1364;3.7887;-3.2955;
3979588121061175;-8.8944;3.6592;-4.2299;
3979588131165811;-8.6118;2.9575;-3.3027;
3979588141270498;-8.2238;2.5956;-2.5935;
3979588151307946;-7.4859;1.7046;-2.8522;
3979588161412581;-8.8011;1.8293;-4.1435;
3979588171517269;-10.1163;1.8796;-3.5710;
3979588181633206;-10.8562;1.5921;-1.7815;
3979588191737894;-9.8719;1.0986;-0.2222;
3979588201842477;-8.0680;1.2039;-0.5815;
3979588211958102;-9.7591;1.5778;-3.0033;
3979588222062738;-11.2851;1.3382;-2.5337;
3979588232167425;-8.9758;1.3597;-0.4208;
3979588242264977;-7.2703;2.1048;-1.1276;
3979588252369665;-7.7542;2.8711;-2.6704;
3979588262474352;-10.4827;3.1469;-3.5830;
3979588272572790;-13.3693;3.2593;-2.4739;
3979588282677477;-10.0202;3.3694;0.7241;
3979588292782113;-7.3229;3.8653;-0.2605;
3979588302870342;-8.9207;4.1791;-2.1314;
3979588312974925;-10.2957;2.8017;-1.1013;
3979588323079561;-11.5056;1.6950;-0.5216;
3979588333184248;-9.6586;1.3956;0.3697;
3979588343326488;-8.4945;1.1130;-0.3251;
3979588353431175;-9.6132;1.3980;-2.8669;
3979588363535811;-11.6013;0.1570;-2.5385;
3979588373636488;-11.4482;-1.0286;-0.1382;
3979588383741123;-8.3052;-1.2012;0.5061;
3979588393845811;-6.9039;-0.9449;-1.6427;
3979588403949925;-10.3005;-0.7531;-4.0358;
3979588414054561;-12.8064;-2.3797;-2.2439;
3979588424159248;-9.7376;-3.7235;0.0197;
3979588434281384;-7.2583;-1.8431;-2.6201;
3979588444386019;-9.3592;-1.6298;-4.2467;
3979588454490706;-9.7519;-2.6647;-2.6225;
3979588464612634;-10.2359;-2.7317;-2.9076;
3979588474717269;-10.4133;-2.1712;-3.0224;
3979588484821956;-8.3913;-1.4743;-2.0498;
3979588494895654;-8.0824;-0.4872;-2.9387;
3979588505000290;-9.9126;-0.0511;-4.7545;
3979588515104925;-11.5846;-0.1519;-4.8000;
3979588525217529;-9.5243;0.0398;-2.9363;
3979588535322217;-7.6008;0.8901;-2.9148;
3979588545426852;-8.8035;1.5634;-3.4705;
3979588555471696;-11.1245;1.1297;-3.8776;
3979588565576331;-10.2024;0.4660;-1.8344;
3979588575680967;-7.8380;0.9978;-1.6857;
3979588585846696;-8.1661;1.7094;-4.6561;
3979588595951331;-11.3761;0.7104;-5.3222;
3979588606056019;-11.2660;-0.1663;-1.8823;
3979588616158571;-7.4788;-0.5590;0.6236;
3979588626263206;-7.6008;0.4807;-1.8105;
3979588636367894;-10.6552;0.5620;-4.3017;
3979588646469717;-12.0494;-0.6933;-2.3518;
3979588656574352;-8.5424;-0.9305;-0.1071;
3979588666679040;-6.4104;0.2124;-2.4930;
3979588676782321;-9.5243;0.6458;-5.5137;
3979588686886956;-11.0504;0.2554;-3.9951;
3979588696991644;-8.5998;-0.2572;-1.5541;
3979588707094821;-6.7959;0.9308;-2.9124;
3979588717199456;-9.6012;2.3393;-4.3089;
3979588727304144;-9.7831;2.0710;-2.6847;
3979588737403206;-9.7663;1.6017;-2.4571;
3979588747507842;-8.6883;2.9097;-3.1301;
3979588757612477;-7.2009;4.3971;-3.3027;
3979588767722009;-8.6788;4.9409;-4.3424;
3979588777826644;-11.0743;4.4521;-4.9029;
3979588787931331;-9.2441;3.8988;-3.1376;
3979588798010394;-6.5133;2.8496;-0.6843;
3979588808152581;-9.9365;3.2809;-1.1922;
3979588818257269;-12.3631;2.5956;-3.2620;
3979588828361904;-9.6538;1.2254;-1.7145;
3979588838457113;-6.9063;0.1235;-0.7349;
3979588848561748;-10.9044;-0.3700;-3.2046;
3979588858666436;-11.6396;0.1427;-3.2596;
3979588868772946;-8.2406;-1.3065;-0.9311;
3979588878877581;-8.7724;-2.2816;-0.8450;
3979588888982269;-10.8132;-2.3486;-2.4691;
3979588899083571;-11.2756;-2.1233;-2.8235;
3979588909188206;-8.8561;-1.3328;-1.6187;
3979588919292894;-8.4057;-0.7507;-1.9684;
3979588929399404;-10.7414;-0.5590;-3.3171;
3979588939504040;-10.6170;-0.0129;-3.0081;
3979588949608727;-7.9193;0.3823;-1.4557;
3979588959727634;-7.8236;0.7152;-2.3997;
3979588969832269;-10.9259;1.4746;-4.1100;
3979588979936956;-10.6241;2.1000;-2.9937;
3979588990019196;-7.3612;1.9322;-1.8272;
3979589000123831;-8.1206;1.7213;-3.2022;
3979589010228519;-9.1603;1.9513;-4.3089;
3979589020331592;-8.5974;2.6462;-3.8058;
3979589030436227;-8.8202;1.9490;-3.0823;
3979589040540915;-9.1268;0.9978;-3.4370;
3979589050647634;-10.5616;1.5009;-4.0454;
3979589060752269;-9.1508;1.7261;-1.8033;
3979589070856904;-7.7997;1.5897;-1.7192;
3979589081001384;-10.3798;1.5467;-3.3027;
3979589091106019;-11.0551;1.6519;-2.5863;
3979589101210706;-8.6788;1.8652;-0.9574;
3979589111275029;-9.0383;1.6687;-1.0678;
3979589121379665;-10.7103;1.0316;-2.5433;
3979589131484300;-10.2981;1.1201;-2.6010;
3979589141585342;-8.9710;1.2159;-1.2930;
3979589151689977;-9.3784;1.2135;-2.0979;
3979589161794665;-10.6170;1.2951;-4.2132;
3979589171918571;-9.1962;1.7740;-3.3171;
3979589182023154;-8.8107;1.5658;-2.4500;
3979589192127894;-10.8156;0.9619;-3.1086;
3979589202222321;-9.3736;0.7199;-2.7039;
3979589212326956;-8.3842;0.8495;-2.8669;
3979589222431644;-10.2981;1.0675;-3.4322;
3979589232534456;-11.6300;0.8183;-3.1424;
3979589242639092;-8.9973;1.0771;-1.3911;
3979589252743779;-7.9074;1.3502;-1.9995;
3979589262857113;-10.5640;1.4554;-3.7866;
3979589272961748;-11.1775;1.3645;-3.0248;
3979589283066436;-7.6176;1.2087;-1.6211;
3979589293159925;-8.5759;1.2637;-2.9818;
3979589303264561;-9.8815;0.8710;-4.1172;
3979589313369248;-6.9302;1.0507;-4.1100;
3979589323492842;-9.0120;1.5009;-4.2538;
3979589333597477;-10.1593;0.8662;-4.5293;
3979589343702165;-6.5707;0.9643;-4.9149;
3979589353791904;-7.8380;1.3597;-4.4620;
3979589363896540;-11.8720;0.7585;-4.9149;
3979589374001227;-8.8394;0.1427;-3.3242;
3979589384109300;-8.1470;-0.2620;-2.6991;
3979589394213936;-9.3257;0.1714;-4.0430;
3979589404318623;-9.6921;-0.3843;-4.3519;
3979589414428623;-7.8332;-0.3987;-3.5231;
3979589424533259;-9.5533;-0.5160;-4.5748;
3979589434637946;-9.1986;0.1642;-4.2921;
3979589444739509;-8.2406;0.1499;-3.5830;
3979589454844144;-9.7065;0.4735;-4.7474;
3979589464948831;-9.0144;0.3990;-3.4633;
3979589475047529;-8.4033;0.8303;-3.6428;
3979589485152165;-10.2335;0.8231;-4.5102;
3979589495256852;-8.8274;1.4195;-2.9674;
3979589505364821;-8.5950;1.0627;-3.7699;
3979589515469509;-8.6740;1.4171;-3.6667;
3979589525574144;-9.3425;2.1790;-2.9483;
3979589535684456;-10.4252;2.1024;-4.0406;
3979589545789144;-8.9279;2.5908;-3.2836;
3979589555893779;-9.5100;2.8304;-2.1912;
3979589566004092;-8.8657;2.7179;-2.2128;
3979589576108779;-9.4525;2.7945;-3.0129;
3979589586213415;-10.6217;2.2244;-3.1400;
3979589596311800;-9.6897;2.6486;-2.3133;
3979589606416436;-8.1254;1.8867;-1.9851;
3979589616521123;-8.3339;2.0255;-3.6957;
3979589626628363;-10.6696;2.0351;-3.5255;
3979589636732998;-10.1210;1.2254;-3.1062;
3979589646837686;-7.2081;0.6840;-2.9602;
3979589656933363;-8.6381;0.5859;-3.3075;
3979589667037998;-9.7328;-0.5231;-4.2084;
3979589677142686;-9.7304;-0.5327;-3.2237;
3979589687253988;-8.9399;-1.7641;-3.1807;
3979589697358675;-8.6668;-1.4336;-3.6619;
3979589707463311;-10.3965;-0.8393;-1.8990;
3979589717577373;-10.4013;-2.1449;-2.4667;
3979589727682009;-10.4252;-0.9138;-0.7684;
3979589737786696;-9.8551;-1.3974;-1.7575;
3979589747888259;-10.5185;0.0661;-2.5265;
3979589757992894;-9.2874;0.6697;-2.0043;
3979589768097581;-9.9245;0.4998;-3.8034;
3979589778193259;-9.5653;1.9274;-3.7914;
3979589788297894;-9.7998;2.0638;-3.5758;
3979589798402581;-8.9471;2.8881;-3.1352;
3979589808495550;-8.1924;3.5348;-3.2261;
3979589818600186;-9.4932;3.0413;-3.8512;
3979589828704769;-8.3004;3.6688;-3.2309;
3979589838840134;-7.4836;2.2531;-3.4513;
3979589848944769;-8.1063;2.5071;-3.3362;
3979589859049352;-7.4524;2.1742;-4.1913;
3979589869123571;-8.5376;1.5586;-5.5666;
3979589879228206;-8.3865;2.5621;-5.1066;
3979589889332842;-8.3602;1.1680;-5.0803;
3979589899458467;-6.9661;1.6400;-4.6920;
3979589909563102;-8.4057;0.9021;-5.0204;
3979589919667686;-9.6706;1.3190;-4.8550;
3979589929765550;-8.4248;1.1584;-3.8082;
3979589939870186;-8.1350;0.5524;-4.2514;
3979589949974769;-8.9614;1.1967;-4.2682;
3979589960074300;-9.5438;-0.1304;-3.9975;
3979589970178936;-10.3726;0.7032;-3.5351;
3979589980283519;-9.4789;-0.5112;-2.5193;
3979589990397946;-10.4850;0.4421;-3.4729;
3979590000502581;-9.6849;-0.5303;-2.5313;
3979590010607165;-10.1043;0.0278;-2.9770;
3979590020715342;-9.8432;-0.3266;-2.8427;
3979590030819977;-9.2779;0.0398;-3.1229;
3979590040924561;-10.0585;-0.1639;-3.5160;
3979590051044040;-10.2742;0.0589;-2.5696;
3979590061148623;-7.9508;0.4301;-2.8451;
3979590071253259;-8.4033;0.3511;-4.2634;
3979590081349509;-9.2755;0.9452;-4.9890;
3979590091454144;-8.9734;0.6625;-5.4156;
3979590101558727;-8.7218;0.8351;-4.8790;
3979590111684821;-8.0201;-0.1424;-4.3280;
3979590121789456;-8.8083;0.1642;-4.6370;
3979590131894040;-9.3688;0.4253;-4.3998;
3979590141979613;-10.9187;-0.6096;-3.0153;
3979590152084248;-9.2249;-0.0464;-2.4595;
3979590162188831;-8.9160;0.0924;-2.6321;
3979590172271696;-10.2646;0.7104;-3.2692;
3979590182376331;-9.6802;0.8255;-2.7876;
3979590192480915;-8.6405;1.4530;-3.1134;
3979590202589821;-9.2154;1.3238;-3.6643;
3979590212694456;-8.7580;1.3908;-4.0143;
3979590222799040;-9.7950;1.5129;-3.0296;
3979590232909821;-7.9193;1.3789;-3.6909;
3979590243014456;-8.4464;1.4985;-4.1243;
3979590253119040;-7.9217;1.7501;-3.4825;
3979590263247321;-8.4153;0.9045;-4.4237;
3979590273351956;-8.6812;0.9906;-3.2189;
3979590283456540;-7.3253;1.6831;-4.7809;
3979590293541071;-7.9914;0.7223;-4.3137;
3979590303645654;-9.9102;0.5596;-4.9747;
3979590313750290;-8.4634;-0.2309;-3.9182;
3979590323853779;-8.1135;-0.2979;-5.4586;
3979590333958415;-9.2513;-1.0860;-5.7748;
3979590344062998;-10.7366;0.1834;-5.7174;
3979590354159613;-9.8623;-0.7053;-4.5461;
3979590364264248;-9.6538;0.1020;-3.8752;
3979590374368831;-8.3554;0.4373;-3.7460;
3979590384477425;-8.5639;0.0446;-3.9568;
3979590394582061;-11.1655;1.2685;-2.4428;
3979590404686644;-9.1843;0.4421;-2.4763;
3979590414792998;-8.8609;0.6936;-2.9291;
3979590424897634;-8.9016;-0.1065;-3.4801;
3979590435002217;-9.7831;-0.9233;-4.4166;
3979590445105706;-9.7113;-1.2036;-4.1004;
3979590455210342;-7.9866;-2.5762;-4.3496;
3979590465314925;-9.7137;-1.6513;-4.3232;
3979590475425759;-9.4573;-2.4251;-3.7316;
3979590485530394;-7.1770;-2.3198;-3.6428;
3979590495634977;-10.7222;-2.1927;-2.9100;
3979590505743675;-11.6782;-2.4730;-1.4677;
3979590515848311;-8.8179;-1.4121;-1.1563;
3979590525952894;-9.8575;-1.3041;-1.2090;
3979590536057738;-9.8145;-0.7149;-1.5278;
3979590546162373;-10.0155;0.0924;-2.7805;
3979590556266956;-8.6118;-0.1328;-2.6800;
3979590566370342;-8.8753;0.4684;-3.5518;
3979590576474977;-9.4597;1.1082;-4.6513;
3979590586579561;-9.7735;1.9011;-4.6322;
3979590596688988;-9.4214;3.0461;-4.7207;
3979590606793623;-8.1852;2.9934;-4.9196;
3979590616898206;-8.6453;2.7873;-4.7713;
3979590626998779;-8.9351;2.0662;-4.4261;
3979590637103415;-8.7290;2.7179;-5.2863;
3979590647207998;-10.7916;2.9982;-4.3974;
3979590657310863;-8.9447;3.0772;-4.1028;
3979590667415498;-9.1125;2.3635;-3.7699;
3979590677520081;-10.1426;2.2842;-3.2118;
3979590687619821;-9.0861;1.8891;-3.7364;
3979590697724456;-9.1938;1.6400;-3.0392;
3979590707829040;-9.3688;0.8064;-3.7914;
3979590717925915;-9.5390;0.3535;-3.1448;
3979590728030550;-8.4849;-0.2500;-2.5313;
3979590738135186;-8.9255;-0.9377;-3.4920;
3979590748260238;-9.0742;-0.6263;-3.3625;
3979590758364873;-8.9973;-0.4777;-4.7976;
3979590768469456;-9.9269;-0.0993;-3.8201;
3979590778569821;-8.7290;-0.8273;-3.4298;
3979590788674456;-9.1819;-1.1100;-2.4045;
3979590798779040;-8.4706;-1.4022;-3.2166;
3979590808906904;-9.1531;-1.1076;-4.9125;
3979590819011644;-9.0742;-0.9449;-4.2395;
3979590829116384;-8.6955;-1.1438;-4.0167;
3979590839189144;-7.2296;-0.8417;-3.9039;
3979590849293936;-8.7485;-1.4360;-4.5604;
3979590859398623;-10.0971;-1.5078;-3.1639;
3979590869523988;-8.8585;-0.5830;-3.5447;
3979590879628727;-11.2397;-0.3051;-1.5852;
3979590889733467;-11.7667;-0.0706;-1.9588;
3979590899836540;-10.8948;0.9667;-0.9120;
3979590909941279;-11.8098;0.9691;-1.6642;
3979590920046019;-11.6396;0.9404;-1.3624;
3979590930139613;-8.1613;0.6721;-2.1553;
3979590940244352;-9.6251;1.0002;-3.8919;
3979590950349092;-9.8504;0.9811;-5.6743;
3979590960461592;-8.4464;1.3023;-3.6236;
3979590970566331;-7.0020;1.5682;-4.7064;
3979590980671019;-9.0287;1.2927;-4.7689;
3979590990776540;-7.4118;0.7729;-4.7593;
3979591000881227;-6.0365;0.8040;-4.3543;
3979591010985967;-8.2430;0.7681;-6.3595;
3979591021089404;-8.3507;1.2182;-5.1975;
3979591031194144;-7.7901;1.3621;-3.2501;
3979591041298884;-8.4081;0.6912;-1.8368;
3979591051400186;-7.7495;0.2794;-3.0344;
3979591061504925;-8.2502;0.4759;-2.7494;
3979591071609665;-10.1952;0.1714;-2.4165;
3979591081707529;-9.0981;-0.1663;-1.7886;
3979591091812269;-7.7662;-0.3051;-3.0392;
3979591101916956;-8.8705;-0.4011;-5.7485;
3979591112045602;-10.1402;0.6529;-6.2444;
3979591122150342;-9.2082;0.8423;-6.3882;
3979591132255081;-8.4344;0.9212;-5.5184;
3979591142329300;-9.0814;0.6745;-5.6862;
3979591152434040;-9.9580;0.6553;-5.2358;
3979591162538779;-10.6146;0.9882;-2.9028;
3979591172674404;-9.3855;0.3368;-2.2104;
3979591182779144;-10.5855;0.1881;-0.1047;
3979591192883831;-8.3435;-0.0081;-0.0760;
3979591202992321;-7.5673;-0.4346;-1.2978;
3979591213097061;-10.0370;-0.9018;-2.4595;
3979591223201748;-8.7485;-0.9042;-2.3710;
3979591233283363;-7.7279;-0.6383;-2.3686;
3979591243388102;-5.8164;-0.7914;-3.2596;
3979591253492842;-7.1818;-0.6694;-4.8742;
3979591263594717;-9.0574;-0.6790;-5.9498;
3979591273699456;-5.4401;-0.0344;-4.7785;
3979591283804196;-9.5366;0.7801;-4.2634;
3979591293912790;-12.3248;0.3129;-4.2323;
3979591304017529;-9.0479;0.7872;-2.4188;
3979591314122217;-6.9135;2.0040;-1.6881;
3979591324226279;-8.7171;2.0785;-3.3482;
3979591334331019;-6.9709;2.4425;-5.6216;
3979591344435759;-1.8326;1.7142;-6.3835;
3979591354547321;-19.1857;1.9896;-7.2242;
3979591364652061;-39.9066;3.2258;2.5591;
3979591374756748;-4.0220;3.0748;15.1427;
3979591384852009;10.4468;-1.1773;9.0556;
3979591394956748;-13.9777;-2.8134;-9.3754;
3979591405061488;-21.3344;2.1861;-9.4831;
3979591415181696;-5.6151;2.2149;-3.0559;
3979591425286436;-1.7462;-0.9401;-4.5174;
3979591435391175;-10.5927;-0.6335;-8.0483;
3979591445493571;-11.4482;0.5883;-3.2501;
3979591455598311;-6.3482;-0.9784;-2.9076;
3979591465702998;-10.0442;-0.4944;-1.6044;
3979591475795342;-13.4052;-0.8632;0.1540;
3979591485900081;-9.9796;-0.2118;1.1578;
3979591496004821;-8.5448;-1.0406;-2.4284;
3979591506125654;-8.5041;-1.1653;-2.8642;
3979591516230394;-8.1326;-1.0023;-5.2669;
3979591526335134;-11.3809;-0.7866;-4.4094;
3979591536437946;-10.8084;0.1714;-1.4055;
3979591546542686;-2.5558;-0.3365;1.0355;
3979591556647425;0.2204;-1.8814;-14.2908;
3979591566756904;-20.8002;0.2459;-23.8968;
3979591576861644;-17.6788;4.8452;-7.3056;
3979591586966384;-3.5740;4.7590;-0.2653;
3979591597072373;-4.1393;1.0053;0.6188;
3979591607177113;-15.1828;1.1489;-0.2079;
3979591617281852;-15.5013;1.7333;0.2928;
3979591627372842;-5.9145;0.6147;-0.8258;
3979591637477581;-4.4004;-0.5279;-5.2549;
3979591647582269;-11.1918;0.1666;-4.8335;
3979591657685446;-9.3760;1.0388;-3.2022;
3979591667790186;-4.9899;-0.1807;-6.7403;
3979591677894873;-9.0168;-0.4801;-7.2386;
3979591688000446;-9.9724;-0.1256;-4.8909;
3979591698105186;-7.0044;-1.2467;-3.7149;
3979591708209925;-6.9254;-1.2179;-2.5552;
3979591718309613;-9.7974;-0.7914;-2.0450;
3979591728414352;-10.3077;-0.7747;-3.3601;
3979591738519092;-10.6720;0.0517;-1.7838;
3979591748624300;-7.9412;0.4974;0.4032;
3979591758729040;-7.6944;-0.1113;-1.9971;
3979591768833779;-10.8491;-0.2907;-3.4777;
3979591778946071;-10.7198;0.7872;-2.7398;
3979591789050811;-8.4730;0.8423;-3.1974;
3979591799155498;-9.8432;0.5429;-3.8010;
3979591809271279;-9.7017;1.0747;-2.9530;
3979591819376019;-9.9604;0.7944;-3.5207;
3979591829480706;-10.8108;0.4684;-2.8259;
3979591839594300;-9.0861;0.5213;-2.3228;
3979591849699040;-8.6261;0.6673;-3.0153;
3979591859803727;-11.2612;0.5309;-2.3614;
3979591869899717;-11.0743;1.1919;-0.9383;
3979591880004456;-8.8155;1.3310;-0.6796;
3979591890109144;-10.4898;1.0866;-1.1707;
3979591900189509;-10.8972;1.2736;-1.3313;
3979591910294248;-11.1197;1.4339;-1.8344;
3979591920398988;-10.4587;1.6639;-2.6177;
3979591930501279;-7.6128;1.3190;-2.6895;
3979591940606019;-5.1503;1.0053;-4.7785;
3979591950710706;-6.8991;0.1642;-7.7560;
3979591960827946;-8.7051;0.3990;-8.6255;
3979591970932686;-8.3602;0.5333;-6.9153;
3979591981037373;-7.3373;0.8375;-5.3605;
3979591991139717;-6.0389;0.2435;-4.2826;
3979592001244456;-7.4548;0.0350;-4.4094;
3979592011349144;-9.1986;0.2506;-4.3472;
3979592021509248;-9.7543;-0.3772;-3.0727;
3979592031613936;-10.2263;-0.1304;-1.0439;
3979592041718675;-10.5185;0.1307;-2.1960;
3979592051768884;-11.5702;0.4445;-2.8884;
3979592061873623;-8.8920;0.4469;-2.7278;
3979592071978311;-7.9555;0.1235;-4.2084;
3979592082137113;-8.4658;-0.2046;-6.0864;
3979592092241852;-8.7748;-0.2907;-6.7546;
3979592102346540;-9.6658;-0.5255;-5.6599;
3979592112427634;-10.7438;-0.8034;-3.1759;
3979592122532373;-10.4228;-0.5375;-0.6054;
3979592132637113;-9.0933;0.1546;0.9254;
3979592142715550;-8.7413;-0.0778;0.1325;
3979592152820290;-10.5162;-0.1065;-1.4605;
3979592162924977;-9.1412;0.1834;-1.4318;
3979592173051384;-7.5266;-0.0368;-1.2954;
3979592183156123;-7.3780;0.3583;-1.8129;
3979592193260811;-7.0092;0.2554;-3.6838;
3979592203352321;-10.6385;0.0948;-6.5366;
3979592213457061;-9.8815;0.6314;-6.0479;
3979592223561800;-7.5721;1.0771;-5.1018;
3979592233649821;-8.4897;0.8566;-3.6260;
3979592243754561;-10.4468;0.9667;-2.4691;
3979592253859248;-9.7831;0.9428;-1.2377;
3979592263972738;-11.3976;0.2411;-0.5408;
3979592274077477;-13.3047;0.8016;0.1684;
3979592284182165;-13.3262;0.8782;0.1205;
3979592294288467;-11.5152;1.2326;0.3407;
3979592304393206;-8.3195;0.5644;-1.1683;
3979592314497894;-7.7303;0.4998;-3.8991;
3979592324597738;-7.3158;0.1690;-6.1415;
3979592334702477;-6.8608;0.0757;-7.1426;
3979592344807217;-7.8117;0.1044;-7.7201;
3979592354915967;-7.5266;0.1403;-6.1080;
3979592365020706;-5.0210;0.0087;-4.0884;
3979592375125446;-9.0311;-0.5710;-3.7842;
3979592385232738;-12.4277;0.0494;-1.3863;
3979592395337477;-10.5808;0.1044;-0.1765;
3979592405442165;-9.7376;0.6649;-0.3108;
3979592415553363;-10.7892;0.3272;-1.3002;
3979592425658102;-11.7739;0.4711;-2.4763;
3979592435762842;-9.6323;0.7872;-3.6045;
3979592445865446;-7.7375;0.3894;-6.1582;
3979592455970186;-9.5315;0.3918;-8.7284;
3979592466074873;-11.4721;0.8112;-7.4495;
3979592476176279;-8.4248;0.6338;-3.7244;
3979592486281019;-8.5280;0.7585;-2.5887;
3979592496385706;-8.6189;0.6290;-1.0893;
3979592506485029;-8.3124;0.4301;-0.1911;
3979592516589769;-6.5755;0.2794;-0.4496;
3979592526694509;-9.1340;-0.0826;-0.8402;
3979592536808675;-10.4827;0.0733;-1.0941;
3979592546913415;-8.1709;0.2554;-2.3399;
3979592557018102;-7.6415;0.3511;-4.5820;
3979592567118363;-10.4228;0.5859;-6.1654;
3979592577223102;-10.7988;0.7247;-6.0984;
3979592587327790;-9.0168;1.2951;-4.8000;
3979592597426279;-8.8466;0.9691;-4.6322;
3979592607531019;-11.4984;0.8638;-3.1352;
3979592617635706;-9.8910;1.0196;-1.5060;
3979592627742321;-9.7256;0.3296;-0.9431;
3979592637847061;-12.6745;0.9045;-1.0463;
3979592647951800;-12.6912;1.0077;0.0724;
3979592658058988;-9.1723;0.7992;1.3014;
3979592668163675;-8.0704;0.0685;-0.4256;
3979592678268415;-7.9460;-0.2453;-1.9086;
3979592688369925;-7.0594;-0.2285;-4.4118;
3979592698474665;-7.2344;-0.6550;-7.4327;
3979592708579352;-9.3903;-0.4394;-8.6710;
3979592718694092;-10.4061;0.0948;-5.6336;
3979592728798831;-8.7796;0.5596;-3.8465;
3979592738903519;-8.4969;0.0924;-3.8871;
3979592749004717;-8.7485;0.3033;-2.6393;
3979592759109456;-8.5184;0.1331;-1.6714;
3979592769214196;-11.6372;-0.0440;-3.4633;
3979592779318363;-11.2588;0.6194;-2.3853;
3979592789423102;-9.0191;1.1154;-1.9516;
3979592799527842;-8.5376;0.2985;-2.8594;
3979592809650238;-10.2120;0.4277;-4.7641;
3979592819754977;-9.9413;1.1417;-3.9497;
3979592829859717;-8.8681;0.8734;-3.8034;
3979592839933571;-8.5735;0.8088;-5.2863;
3979592850038311;-8.9830;0.7128;-2.7470;
3979592860143050;-8.1876;0.3655;-2.5863;
3979592870265029;-6.5133;-0.5064;-4.8024;
3979592880369769;-6.0054;0.0996;-4.9436;
3979592890474509;-7.8811;-0.0488;-5.1497;
3979592900570550;-8.6716;0.1283;-4.6633;
3979592910675290;-9.1268;0.6840;-1.6068;
3979592920780029;-9.3832;0.6745;-2.3710;
3979592930905863;-9.5219;0.2602;-3.3194;
3979592941010602;-10.6552;1.5634;-0.5910;
3979592951115342;-10.6887;0.2435;-1.4509;
3979592961196696;-10.8781;0.8447;-3.5040;
3979592971301488;-9.3736;1.2736;-1.1492;
3979592981406227;-9.6562;0.4301;-3.3338;
3979592991535446;-11.9294;1.0531;-3.0488;
3979593001640186;-11.1078;0.9739;-1.0630;
3979593011744925;-9.9054;0.3679;-2.1649;
3979593021829717;-9.3162;0.7490;-0.3275;
3979593031934456;-9.4884;0.1499;-1.8129;
3979593042039144;-7.6343;0.3655;-1.8320;
3979593052154092;-7.8643;0.3679;-2.6871;
3979593062258831;-9.4358;0.3823;-4.5006;
3979593072363571;-8.1829;0.7872;-2.2989;
3979593082472217;-5.8666;-0.3461;-5.6264;
3979593092576956;-8.2095;0.3416;-4.8957;
3979593102681696;-9.2874;0.3823;-6.8049;
3979593112792946;-6.7624;1.1249;-5.6216;
3979593122897686;-7.5888;0.5022;-5.6240;
3979593133002425;-8.6309;0.6194;-5.9904;
3979593143094925;-11.2947;0.9739;-4.3519;
3979593153199665;-11.7117;1.1943;-2.7135;
3979593163304404;-9.4334;0.8471;0.1995;
3979593173401696;-8.5184;0.9308;-2.5600;
3979593183506436;-10.5209;0.9978;-2.4117;
3979593193611175;-11.1703;0.6697;-3.0775;
3979593203739092;-7.5984;0.3009;-0.0257;
3979593213843831;-7.9771;-0.4107;-3.6933;
3979593223948571;-13.1560;0.4086;-2.1170;
3979593234038779;-12.2100;0.0206;-1.1898;
3979593244143519;-8.0154;0.7370;0.9685;
3979593254248259;-10.2024;-0.1352;-2.6321;
3979593264354717;-11.9704;0.4469;-0.3084;
3979593274459456;-8.3650;0.0972;-1.5203;
3979593284564196;-8.0824;0.1451;-1.8942;
3979593294665290;-8.3076;-0.1807;-4.4886;
3979593304770029;-8.1589;0.3631;-5.5642;
3979593314874769;-8.7748;0.5524;-6.8097;
3979593324984613;-8.7652;0.1905;-4.5317;
3979593335089352;-10.3630;0.8207;-2.6632;
3979593345194092;-5.7443;-0.1376;-2.6106;
3979593355295029;-6.0413;0.3751;-2.4835;
3979593365399769;-7.1121;-0.2142;-6.5031;
3979593375504509;-7.8715;0.2578;-6.3233;
3979593385612321;-10.2335;0.4349;-7.0158;
3979593395717061;-10.9953;0.3679;-5.1185;
3979593405821800;-7.6032;0.9117;-3.5016;
3979593415925446;-9.6897;0.3870;-3.5590;
3979593426030186;-13.5658;0.7394;-0.6891;
3979593436134925;-12.3129;0.6745;-0.6006;
3979593446240290;-10.5377;0.8447;0.2737;
3979593456345029;-11.9991;0.6410;0.8246;
3979593466449769;-11.9608;0.0063;0.7217;
3979593476548467;-7.4213;0.2339;-0.7301;
3979593486653206;-9.3401;-0.0730;-3.3673;
3979593496757946;-7.8667;-0.2572;-2.8331;
3979593506868571;-6.0679;0.1092;-3.4298;
3979593516973311;-8.1230;-0.8321;-4.7521;
3979593527078050;-10.0226;-0.5710;-4.1483;
3979593537180134;-9.2584;-0.3461;-4.2586;
3979593547284873;-9.3520;-0.1974;-2.5504;
3979593557389613;-8.7099;0.2459;-1.0726;
3979593567495446;-10.0780;1.2613;-4.3232;
3979593577600186;-10.0298;0.8638;-3.7699;
3979593587704925;-7.8069;1.4291;-4.1985;
3979593597822217;-5.8427;1.0890;-5.6169;
3979593607926956;-8.6596;1.2879;-8.7117;
3979593618031748;-9.0359;1.6854;-6.4481;
3979593628121175;-5.9073;1.3693;-4.0813;
3979593638225915;-7.5123;0.8183;-3.7771;
3979593648330654;-11.4075;0.3272;-2.5887;
3979593658443259;-14.0806;0.6960;-0.3658;
3979593668547998;-11.1966;1.0555;1.7566;
3979593678652738;-7.7423;0.7825;0.0461;
3979593688749509;-9.3975;1.3741;-2.7063;
3979593698854248;-10.9666;0.7705;-3.7196;
3979593708959040;-13.1584;1.3597;-3.1086;
3979593719087634;-10.9690;1.4148;-1.2185;
3979593729192373;-6.0197;0.4445;-0.7708;
3979593739297113;-9.3903;-0.0511;-2.6201;
3979593749378363;-9.9628;-0.2524;-1.4988;
3979593759483102;-6.4391;-0.6646;-0.8378;
3979593769587842;-6.8584;-0.8632;-2.9650;
3979593779699821;-8.6309;-1.1100;-3.5040;
3979593789804561;-8.5543;-1.1414;-3.8130;
3979593799909300;-5.3683;-0.4561;-6.6446;
3979593810024300;-3.1573;-0.1328;-9.2722;
3979593820129040;-22.8817;0.5189;-6.8216;
3979593830233831;-18.3494;1.5538;4.0226;
3979593840324509;-0.0048;2.2651;4.2144;
3979593850429300;-5.6533;0.5261;-4.1770;
3979593860534040;-18.4478;0.5524;-5.5642;
3979593870654144;-12.3033;1.2541;-0.7971;
3979593880758884;-2.9249;1.0460;-2.9052;
3979593890863623;-7.0331;-0.2070;-5.7580;
3979593900966488;-14.0495;-0.1400;-4.2203;
3979593911071227;-12.0757;-0.2309;-1.4509;
3979593921176019;-5.8427;-0.2524;-1.4677;
3979593931271904;-7.1913;-0.2883;-3.7771;
3979593941376644;-12.0661;0.4421;-1.2066;
3979593951481384;-6.9733;-1.5150;0.6739;
3979593961580863;-8.1733;-0.4035;-8.3883;
3979593971685602;-13.2470;0.3990;-7.4590;
3979593981790342;-9.4502;-0.3051;-0.1262;
3979593991908727;-5.0210;0.2818;-3.8824;
3979594002013519;-6.6356;0.5022;-5.3103;
3979594012118311;-11.0456;-0.3003;-5.1257;
3979594022210654;-11.6037;-0.6861;-3.0344;
3979594032315446;-7.2751;-0.3700;-0.4448;
3979594042420186;-7.2033;0.0924;-4.8838;
3979594052525342;-11.4000;0.9069;-4.5628;
3979594062630081;-9.6706;0.5166;-1.1109;
3979594072734873;-10.0609;0.6027;-2.0955;
3979594082866592;-10.4635;0.7872;-1.2954;
3979594092971331;-8.1829;0.9117;-2.4787;
3979594103076123;-9.2154;0.6840;-4.2036;
3979594113181488;-8.1087;0.9571;-4.2993;
3979594123286227;-6.6165;0.2578;-4.2802;
3979594133391019;-10.1354;0.3272;-4.1459;
3979594143478154;-13.4315;0.0398;-1.7216;
3979594153582894;-10.6959;0.7609;0.4702;
3979594163687686;-7.7016;0.9141;-1.7121;
3979594173792113;-9.7065;0.5285;-2.2223;
3979594183896904;-7.6271;0.7513;-1.6642;
3979594194001644;-5.7826;0.5405;-4.5820;
3979594204104873;-12.7777;0.4588;-5.5304;
3979594214209613;-16.3540;1.0268;-3.1663;
3979594224314404;-16.5529;2.1526;1.6056;
3979594234414613;-9.6299;2.1742;3.3568;
3979594244519352;-3.6003;1.0316;0.0652;
3979594254624144;-7.9170;0.1164;-4.7785;
3979594264727113;-10.7557;0.4711;-6.2420;
3979594274831852;-7.3373;0.6314;-6.7618;
3979594284936644;-7.7949;0.7944;-9.3658;
3979594295061071;-8.4344;0.6505;-5.8469;
3979594305165811;-9.7232;0.7223;-3.1134;
3979594315270602;-10.4994;0.4516;-1.4055;
3979594325361071;-7.3636;0.5405;1.5673;
3979594335465811;-5.7395;0.2315;-3.1854;
3979594345570602;-8.3459;-0.1591;-8.1823;
3979594355674821;-8.9686;0.5668;-9.3921;
3979594365779561;-14.2364;0.8830;-8.5442;
3979594375884352;-14.1024;1.0220;-0.6748;
3979594385985446;-6.6308;0.5213;3.0117;
3979594396090186;-4.9442;0.5883;-1.7408;
3979594406194977;-8.7027;-0.1065;-2.8522;
3979594416299509;-9.6299;-1.4336;-2.3614;
3979594426404248;-10.9427;-1.6322;-1.7408;
3979594436509040;-12.1786;-1.2108;-1.7145;
3979594446623363;-13.2398;-0.6502;0.1397;
3979594456728102;-12.4831;0.3679;1.3875;
3979594466832894;-5.6151;0.7992;0.4941;
3979594476937321;-1.2168;-0.1807;-4.9747;
3979594487042061;-8.1975;-1.3735;-8.8005;
3979594497146852;-13.7405;-0.8154;-8.2328;
3979594507241488;-11.8289;0.5501;-5.3677;
3979594517346227;-6.6045;0.5142;-1.7838;
3979594527451019;-4.9995;-0.0754;0.6090;
3979594537558571;-9.1603;-0.3891;-0.7226;
3979594547663311;-11.7667;0.1140;-1.4055;
3979594557768050;-9.1531;0.5907;-2.5193;
3979594567881384;-10.7318;0.3535;-4.7833;
3979594577986123;-11.1870;0.8590;-5.8445;
3979594588090915;-10.1258;2.1383;-4.5461;
3979594598196748;-10.2909;1.4506;-2.7302;
3979594608301540;-8.4248;0.8806;0.1923;
3979594618406279;-7.8188;0.5835;-2.4236;
3979594628504717;-10.0083;0.6840;-3.4992;
3979594638609509;-10.3750;0.1570;-2.6608;
3979594648714248;-8.1900;0.1690;-1.2233;
3979594658814873;-8.7027;0.7128;-1.2763;
3979594668919613;-6.3769;0.2267;-2.4045;
3979594679024404;-9.4238;0.6027;-4.4237;
3979594689129717;-10.0633;0.4564;-4.1746;
3979594699234509;-10.0899;0.9356;-5.1473;
3979594709339248;-9.9317;0.9380;-4.2443;
3979594719458467;-9.7591;1.0101;-2.9889;
3979594729563206;-11.6707;1.4578;-2.2654;
3979594739667998;-10.3846;1.8796;0.2952;
3979594749756123;-6.4774;0.7920;-0.2701;
3979594759860915;-6.0583;-0.5279;-3.8441;
3979594769965654;-10.0681;0.4469;-5.0683;
3979594780074404;-11.7906;0.8279;-3.6284;
3979594790179144;-9.3377;0.7513;-2.7829;
3979594800283936;-6.9757;0.5405;-1.5996;
3979594810401123;-6.3410;-0.1519;-3.8369;
3979594820505863;-8.7266;-0.0607;-5.0300;
3979594830610602;-11.2708;0.3727;-5.0659;
3979594840702217;-12.8830;0.8207;-4.3328;
3979594850807009;-9.8384;0.9571;-0.6245;
3979594860911748;-6.7696;0.4926;-0.8426;
3979594871049613;-8.6333;0.1499;-2.6608;
3979594881154404;-12.7343;0.6314;-2.4835;
3979594891259144;-8.6501;0.2818;-0.8330;
3979594901319873;-7.0331;0.0015;-2.4835;
3979594911424665;-8.9806;-0.3987;-4.2658;
3979594921529404;-6.8895;-0.1280;-4.3974;
3979594931680498;-6.9063;-0.6120;-4.7303;
3979594941785290;-10.8419;-0.1280;-4.7303;
3979594951890029;-12.3751;0.4950;-2.3327;
3979594961956644;-6.0679;0.3894;-1.1779;
3979594972061436;-6.1947;0.3033;-3.6356;
3979594982166175;-12.6625;-0.1448;-4.2921;
3979594992270186;-15.1564;1.2422;-0.2868;
3979595002374977;-11.3258;1.3836;1.2033;
3979595012479769;-9.1914;1.0842;0.2952;
3979595022605811;-8.3507;0.5764;-1.4797;
3979595032710602;-8.9016;0.0781;-4.0789;
3979595042815394;-11.6830;0.6505;-3.2501;
3979595052879769;-10.1234;1.2111;-3.0200;
3979595062984509;-7.6657;0.9188;-3.0296;
3979595073089300;-6.9829;0.0135;-3.6212;
3979595083193988;-7.8404;0.5285;-5.1353;
3979595093324196;-10.2718;0.1929;-3.9640;
3979595103428936;-11.4697;0.8495;-2.5986;
3979595113533727;-9.1149;0.6242;-2.1434;
3979595123638206;-7.8188;0.8877;-3.9760;
3979595133743050;-9.8910;0.8064;-5.0228;
3979595143847790;-8.3746;1.1871;-4.1052;
3979595153957373;-8.5041;0.6601;-3.8249;
3979595164062165;-11.8672;0.8040;-4.9579;
3979595174166904;-11.7523;1.0890;-2.1242;
3979595184274717;-8.7867;0.1810;-0.1741;
3979595194379509;-8.5807;-0.2142;-0.7035;
3979595204484248;-10.6672;0.2674;-1.3863;
3979595214581331;-10.6528;0.2171;-1.7623;
3979595224686123;-6.7816;0.0374;-2.4380;
3979595234790863;-8.4464;-0.3194;-6.2970;
3979595244899717;-11.0408;0.2195;-4.9531;
3979595255004456;-8.5232;0.2602;-2.1936;
3979595265109196;-6.6954;-0.0945;-3.7555;
3979595275210915;-7.1169;-0.2166;-3.9302;
3979595285315759;-9.5124;-0.3027;-4.2993;
3979595295420498;-11.2851;-0.2381;-3.3099;
3979595305502842;-9.8097;-0.0105;-1.3026;
3979595315607581;-8.7437;0.3990;-1.8248;
3979595325712321;-9.9102;0.7705;-2.4858;
3979595335839561;-8.8490;0.1786;-2.7326;
3979595345944404;-12.8638;0.7418;-2.4882;
3979595356049144;-12.0613;0.3416;-0.7899;
3979595366156384;-5.8857;0.7008;-1.5398;
3979595376261175;-7.7040;0.4181;-5.4610;
3979595386365915;-12.1929;0.8231;-4.1602;
3979595396475446;-10.9379;0.3703;-0.5049;
3979595406580238;-5.0282;0.2243;-0.4280;
3979595416684925;-6.2593;-0.3987;-4.6202;
3979595426787790;-10.7486;0.7056;-5.7054;
3979595436892529;-8.7290;0.2865;-3.9039;
3979595446997269;-8.3219;0.2865;-3.8560;
3979595457096227;-12.0063;0.3727;-2.8642;
3979595467201071;-7.3998;1.0268;-1.4940;
3979595477305759;-7.7447;0.7609;-5.6001;
3979595487411071;-13.7070;1.1082;-4.1507;
3979595497515915;-10.8299;1.7022;0.0461;
3979595507620654;-8.3722;0.5070;-0.3849;
3979595517789196;-9.1795;0.8877;-1.7815;
3979595527893936;-11.9728;0.7825;-2.0306;
3979595537998675;-11.4099;0.9954;-1.3074;
3979595548045863;-6.8175;0.5118;-0.8163;
3979595558150602;-8.0895;0.0805;-2.9841;
3979595568255394;-8.9566;0.0613;-4.0645;
3979595578364717;-6.8175;0.4926;-6.5964;
3979595588469509;-11.5391;0.7633;-7.0421;
3979595598574248;-10.0011;0.8518;-1.5924;
3979595608674925;-6.9326;0.3057;-2.0426;
3979595618779717;-8.1685;0.2483;-3.5734;
3979595628884456;-10.1402;0.3870;-3.8106;
3979595638996644;-11.9342;1.0436;-3.0368;
3979595649101436;-7.6944;0.4086;-2.4404;
3979595659206227;-7.0475;0.3535;-3.5614;
3979595669291696;-9.9652;-0.1807;-4.0023;
3979595679396436;-9.3209;0.4564;-3.1181;
3979595689501227;-10.7701;0.4588;-3.4705;
3979595699611175;-11.3641;0.0063;-0.3849;
3979595709715915;-8.6692;0.1762;-0.1789;
3979595719820654;-10.0561;-0.2381;-1.8942;
3979595729937634;-10.5185;-0.0849;-2.1386;
3979595740042425;-10.9786;0.5022;-1.8607;
3979595750147113;-7.2535;-0.3461;-2.0812;
3979595760236644;-8.9734;0.1762;-4.0932;
3979595770341488;-13.3645;-0.1113;-3.5925;
3979595780446227;-6.0583;-0.2548;0.2330;
3979595790558102;-5.6246;0.3392;-5.3557;
3979595800662946;-12.4926;-0.2285;-6.0455;
3979595810767686;-10.8443;0.2339;-0.5049;
3979595820897946;-6.0461;0.1857;-1.9875;
3979595831002738;-8.1924;0.4735;-4.9890;
3979595841107581;-13.5921;0.9404;-3.7244;
3979595851171071;-12.5548;1.5200;-0.2940;
3979595861275915;-8.0321;1.3454;-0.2222;
3979595871380654;-8.9399;0.8853;-2.4380;
3979595881489040;-6.2282;0.1881;-3.4633;
3979595891593884;-8.4559;0.6697;-6.8913;
3979595901698675;-10.3244;0.4636;-3.6045;
3979595911812581;-7.6128;0.2674;-0.5862;
3979595921917425;-9.6562;0.5524;-2.6800;
3979595932022217;-10.2981;0.4062;-1.9158;
3979595942120498;-10.0995;0.3535;1.0738;
3979595952225342;-10.4109;0.5046;-0.2246;
3979595962330186;-10.5736;0.2435;-2.7374;
3979595972434769;-12.3392;0.9188;-1.8153;
3979595982539613;-8.8896;0.5644;0.6236;
3979595992644404;-8.2860;1.0962;-2.2582;
3979596002762425;-10.2646;1.2975;-2.2750;
3979596012867269;-7.8045;0.6888;0.8007;
3979596022972009;-9.4286;0.3583;0.0485;
3979596033109769;-11.7188;0.6960;-0.3849;
3979596043214613;-11.5128;0.2889;0.4774;
3979596053319456;-9.5749;1.2254;0.3745;
3979596063390446;-7.2272;0.3272;-1.7312;
3979596073495290;-8.2406;0.3081;-3.8441;
3979596083600081;-9.7567;0.2626;-3.7866;
3979596093712113;-8.9423;0.3846;-4.5652;
3979596103816904;-12.4325;0.6314;-3.9111;
3979596113921748;-12.4229;1.4961;0.4367;
3979596124018519;-9.8599;1.1297;1.5003;
3979596134123415;-7.6080;0.5357;1.0857;
3979596144228206;-6.2545;0.3081;-1.8488;
3979596154335654;-8.2908;-0.8584;-5.9210;
3979596164440498;-10.1521;-0.1328;-5.4873;
3979596174545290;-11.8385;0.3153;-3.8177;
3979596184650446;-12.8375;0.3607;-0.6150;
3979596194755290;-8.5639;0.3631;1.5003;
3979596204860029;-9.3855;-0.2357;-1.4342;
3979596214962946;-9.6347;-0.6814;-1.9732;
3979596225067790;-6.4822;-0.3194;-2.7182;
3979596235172581;-8.2190;-1.0717;-5.6216;
3979596245281800;-12.2722;-0.2213;-5.4826;
3979596255386644;-11.6396;-0.2788;-3.2118;
3979596265491436;-9.8360;1.2736;-0.1597;
3979596275591956;-6.9159;-0.2668;0.7122;
3979596285696800;-8.7604;-0.2620;-1.7432;
3979596295801592;-7.3974;0.0709;-2.5146;
3979596305885654;-4.9561;-0.6407;-7.0445;
3979596315990498;-9.7639;0.1403;-9.2602;
3979596326095342;-10.3941;0.7104;-5.9067;
3979596336220081;-9.0191;1.1632;-2.3566;
3979596346324977;-8.6548;0.5142;-0.2797;
3979596356429769;-11.3186;0.7466;0.2569;
3979596366548571;-15.0796;1.1560;0.9470;
3979596376653415;-13.2781;0.8590;2.0752;
3979596386758206;-10.9714;0.9715;0.4941;
3979596396854300;-8.6955;1.0986;1.0020;
3979596406959144;-3.4998;0.5764;-1.2954;
3979596417063936;-6.7265;0.4086;-5.4826;
3979596427168571;-10.5233;0.0517;-5.7413;
3979596437273415;-9.4597;0.1618;-2.3877;
3979596447378206;-7.6705;0.1116;-2.1793;
3979596457487425;-7.8308;0.3464;-2.6895;
3979596467592269;-8.9207;-0.0754;-1.9277;
3979596477697061;-8.5232;0.5189;-3.3314;
3979596487797529;-8.9542;-0.1376;-4.6801;
3979596497902373;-13.9920;0.7418;-5.2935;
3979596508007165;-16.8021;1.4937;-1.2138;
3979596518116852;-13.4650;2.5190;3.4621;
3979596528221644;-12.2602;1.9011;4.8371;
3979596538326540;-8.5496;0.8686;5.7141;
3979596548426488;-4.4363;0.1451;1.1097;
3979596558531331;-6.3458;-0.5160;-4.5269;
3979596568636123;-7.5769;-0.2094;-6.7116;
3979596578744196;-9.2010;0.9308;-7.0516;
3979596588849040;-8.7987;0.2506;-4.7856;
3979596598953779;-9.1101;0.1881;-2.6321;
3979596609054404;-9.7208;0.5309;-1.0989;
3979596619159248;-6.5539;0.5405;-1.5179;
3979596629264040;-8.3961;0.7128;-8.1368;
3979596639391956;-12.7343;0.3440;-7.6122;
3979596649496800;-10.5975;0.5812;-0.9790;
3979596659601644;-8.4129;1.1058;0.1851;
3979596669691071;-9.7639;1.7213;0.8581;
3979596679795863;-12.4158;0.9093;2.6931;
3979596689900706;-11.5415;1.3382;3.9724;
3979596699995081;-6.5228;0.2028;1.9531;
3979596710099977;-8.7963;-0.5662;-2.8307;
3979596720204717;-10.5592;-0.8321;-2.4332;
3979596730312686;-7.4572;-0.1496;-2.4093;
3979596740417529;-8.6477;0.1642;-6.0936;
3979596750522321;-12.0254;-0.1184;-3.8154;
3979596760629404;-10.7127;0.3535;1.5147;
3979596770734196;-11.0480;0.6482;0.7385;
3979596780839040;-14.2914;1.3573;0.2043;
3979596790924821;-13.4554;1.3836;2.6979;
3979596801029613;-6.1923;1.1201;1.1384;
3979596811134456;-3.2841;-0.3532;-4.0286;
3979596821240446;-9.4932;-1.2179;-8.0818;
3979596831345186;-10.3220;-0.6814;-4.3902;
3979596841449977;-5.7754;-0.0559;-3.2213;
3979596851570967;-8.3267;0.2411;-5.2190;
3979596861675706;-11.0432;-0.0730;-1.2497;
3979596871780446;-7.0092;0.0350;2.0273;
3979596881864873;-8.1494;0.2171;-2.9052;
3979596891969665;-8.3052;0.4831;-5.6336;
3979596902074404;-9.3855;0.4110;-5.2549;
3979596912206696;-14.5143;0.7008;-3.9449;
3979596922311384;-13.4842;1.1584;1.2033;
3979596932416175;-10.1282;1.8867;5.8409;
3979596942509613;-7.8356;1.7261;4.1330;
3979596952614352;-8.4105;1.5491;-2.5146;
3979596962719092;-10.4946;-0.1256;-3.6718;
3979596972845134;-10.5784;0.0302;0.4917;
3979596982949873;-7.8787;0.8830;0.8031;
3979596993054613;-6.3410;0.2698;-1.9708;
3979597003152842;-5.4497;-0.3365;-2.7446;
3979597013257581;-18.7113;0.5166;-2.7829;
3979597023362321;-20.4192;2.3492;4.2335;
3979597033456540;2.9082;2.9240;3.1268;
3979597043561279;-8.8657;-0.6622;-7.4662;
3979597053666019;-14.7203;0.0015;-5.1592;
3979597063761175;-6.1038;1.6424;-2.6082;
3979597073865915;-6.8270;0.8542;-5.3988;
3979597083970654;-13.3693;0.4735;-2.0617;
3979597094093050;-15.9876;1.5658;1.6534;
3979597104197790;-11.6300;2.6533;2.5878;
3979597114302529;-5.5481;0.8064;0.7026;
3979597124407634;-9.1388;0.5620;-0.3826;
3979597134512373;-5.4209;-0.9760;-2.2750;
3979597144617113;-7.4692;-0.7077;-12.2931;
3979597154719196;-19.5018;-0.5016;-9.5501;
3979597164823936;-5.5959;-1.1414;7.1130;
3979597174928675;-1.9259;0.2076;-4.8311;
3979597185036540;-11.1102;0.7418;-9.4280;
3979597195141279;-10.5066;-1.5748;2.6477;
3979597205246019;-8.7915;-1.3113;2.6237;
3979597215347217;-10.7797;0.1977;-5.0348;
3979597225451956;-13.7740;-0.4107;-4.8383;
3979597235556696;-13.3573;0.0757;0.8055;
3979597245659613;-7.5841;1.6137;2.6572;
3979597255764352;-8.8513;0.2770;-0.8545;
3979597265869092;-11.5487;-0.1256;-0.9984;
3979597275975238;-5.7275;0.0517;-0.6891;
3979597286079977;-6.1205;-1.0047;-6.5892;
3979597296184717;-11.2277;-0.3748;-6.5653;
3979597306314925;-10.1952;0.5740;-0.4161;
3979597316419665;-7.8739;2.0952;1.4524;
3979597326524404;-7.1889;1.1991;-0.1813;
3979597336607373;-9.5315;0.0805;-3.9377;
3979597346712113;-13.6615;0.5692;-4.9723;
3979597356816852;-12.3942;2.0231;-1.1228;
3979597366927842;-10.3798;3.2354;0.0245;
3979597377032581;-9.3855;3.4077;-0.8330;
3979597387137321;-5.4305;1.3430;-1.6116;
3979597397236384;-5.3420;0.7920;-4.7617;
3979597407341123;-11.3665;0.7777;-5.9354;
3979597417445863;-12.8590;1.6041;0.4917;
3979597427559040;-10.4468;3.2378;4.2598;
3979597437663779;-10.2072;1.2326;1.2176;
3979597447768519;-9.9197;-2.0755;-0.6963;
3979597457872738;-9.1531;-0.9257;-1.7312;
3979597467977477;-11.2564;0.7175;-2.2319;
3979597478082217;-9.6299;-0.6861;-1.9923;
3979597488187634;-10.0370;0.3583;-3.7675;
3979597498292373;-9.1866;0.1068;-3.7101;
3979597508397113;-9.6012;0.7343;-1.7169;
3979597518496904;-10.7868;0.9858;-1.7480;
3979597528601644;-9.1340;-0.0897;0.8486;
3979597538706384;-6.9111;-1.0358;0.1253;
3979597548804821;-7.4070;-1.6011;-4.1435;
3979597558909561;-10.2263;-0.6072;-4.9029;
3979597569014300;-10.1354;-0.2070;-4.0119;
3979597579139613;-9.1077;0.1211;-2.8259;
3979597589244352;-6.0823;-0.6239;-2.3901;
3979597599349092;-7.5027;-0.4944;-5.0180;
3979597609438050;-8.7796;-0.1807;-4.1626;
3979597619542790;-8.8370;0.1499;-1.9373;
3979597629647529;-12.9643;0.5285;-2.0740;
3979597639776488;-16.3708;0.7370;0.0748;
3979597649881227;-13.0531;0.3416;4.7127;
3979597659985967;-8.1063;-0.7436;3.8839;
3979597670059925;-8.7290;-0.9042;0.8198;
3979597680164665;-10.7988;0.4735;-1.0247;
3979597690269404;-10.1450;0.9476;-2.4978;
3979597700379613;-6.8632;0.3416;-2.4093;
3979597710484352;-8.0967;0.3751;-4.1339;
3979597720589092;-10.6193;0.8231;-4.2634;
3979597730686540;-9.4860;0.7753;0.0485;
3979597740791279;-7.4237;0.8207;-0.0808;
3979597750896019;-10.5138;0.0685;-2.9028;
3979597761067009;-11.4314;0.9476;-2.9315;
3979597771171748;-7.6609;1.6783;-3.4657;
3979597781276488;-8.2430;1.1776;-4.8718;
3979597791310863;-8.9183;1.7668;-4.8168;
3979597801415550;-9.1436;1.6974;-3.7340;
3979597811520290;-10.8757;2.0423;-2.1840;
3979597821675602;-12.0518;1.5153;-0.0760;
3979597831780498;-13.5200;1.4937;1.5123;
3979597841885342;-9.5605;1.1895;2.8490;
3979597851949300;-4.4749;-0.0706;1.3660;
3979597862054248;-6.2833;0.2052;-4.8120;
3979597872159040;-9.2946;0.1451;-7.2625;
3979597882287321;-7.6582;0.3296;-5.7652;
3979597892392165;-8.7003;0.6290;-5.3916;
3979597902497061;-9.7878;0.7657;-2.4811;
3979597912577686;-11.1365;0.6123;-0.0712;
3979597922682634;-15.3909;1.3908;1.7566;
3979597932787425;-9.8240;1.2135;4.7940;
3979597942891956;-6.7409;0.8351;1.4668;
3979597952996852;-8.9686;0.1499;-3.0296;
3979597963101748;-9.1531;-0.4537;-5.2645;
3979597973209300;-8.9542;-0.1328;-5.6862;
3979597983314144;-10.5688;0.2746;-3.7603;
3979597993419040;-11.7476;1.1895;-0.4352;
3979598003523519;-10.2598;0.7657;2.4969;
3979598013628467;-8.1422;0.2746;2.2262;
3979598023733311;-9.1412;-0.3314;-0.6604;
3979598033847790;-11.6611;-0.6455;-2.3877;
3979598043952686;-10.7892;0.0398;-1.5757;
3979598054057529;-7.9002;-0.3676;-3.4801;
3979598064174717;-8.9734;0.0517;-4.5508;
3979598074279613;-11.1966;-0.1567;-3.7077;
3979598084384456;-9.3305;0.4636;-1.7121;
3979598094472842;-7.7040;0.0589;-1.8894;
3979598104577738;-9.8647;-0.0057;-3.2979;
3979598114682581;-11.2062;0.4684;-1.6881;
3979598124791279;-9.6299;0.3870;-0.4376;
3979598134896175;-8.2167;0.2100;-1.1970;
3979598145001019;-9.8456;-0.3676;-1.6283;
3979598155098519;-9.9437;0.7537;-2.0617;
3979598165203467;-7.5936;0.3511;-2.1960;
3979598175308311;-6.6308;0.4445;-3.7077;
3979598185416540;-10.7270;0.2171;-5.3940;
3979598195521436;-13.9346;0.5859;-2.7852;
3979598205626279;-11.1727;1.3908;2.5591;
3979598215733154;-10.0035;1.5296;0.0485;
3979598225838050;-11.8385;0.6912;-0.6987;
3979598235942894;-7.1240;0.9547;0.6356;
3979598246043988;-6.7648;0.8231;-1.7647;
3979598256148884;-9.4980;0.0159;-4.0693;
3979598266253727;-12.5740;0.6051;-3.7938;
3979598276366488;-9.8384;1.2808;-2.0450;
3979598286471384;-7.5290;0.9523;-1.4055;
3979598296576227;-9.2874;0.7370;-1.6570;
3979598306647998;-10.2814;0.9141;-1.1803;
3979598316752946;-5.7754;0.3775;-0.8115;
3979598326857790;-5.6342;-0.0416;-4.0645;
3979598336984977;-10.3893;0.3272;-7.0038;
3979598347089873;-14.2077;1.5320;-6.0670;
3979598357194769;-11.5223;2.1646;-1.9708;
3979598367295186;-10.9379;1.8197;1.1025;
3979598377400081;-10.6361;1.8078;3.0574;
3979598387504977;-9.5004;0.5237;1.1937;
3979598397643154;-10.9379;0.8064;-1.2763;
3979598407748050;-10.0083;0.2291;-2.0836;
3979598417833988;-9.3090;0.4469;-2.0091;
3979598427938884;-10.6911;0.4735;-2.5887;
3979598438043727;-8.9255;-0.2285;-2.0426;
3979598448137477;-6.4917;0.2076;-2.4858;
3979598458242373;-8.1975;-1.0430;-4.0932;
3979598468347217;-9.7208;-0.3820;-4.4692;
3979598478451540;-11.5917;-0.4920;-2.7446;
3979598488556436;-10.5449;-0.3556;-1.4198;
3979598498661279;-7.9651;0.0278;-2.5337;
3979598508765602;-8.7218;-0.5207;-3.9401;
3979598518870498;-11.7858;0.3918;-3.3984;
3979598528975394;-9.1436;-0.1759;-1.8296;
3979598539081071;-7.6199;-0.0778;-2.7876;
3979598549185967;-12.0326;-0.4226;-3.6766;
3979598559290863;-10.9187;-0.0200;-1.7216;
3979598569404404;-7.2631;0.0709;-1.8105;
3979598579509248;-7.7973;-0.6096;-2.9435;
3979598589614144;-8.1470;-0.2859;-4.3400;
3979598599734665;-8.6094;-0.7196;-3.6093;
3979598609839613;-8.9255;-0.7005;-2.9435;
3979598619944456;-10.1904;-0.7220;-3.8010;
3979598630026019;-13.1584;-0.1687;-2.9411;
3979598640130915;-9.0622;0.4564;-0.2318;
3979598650235811;-6.7098;0.1714;-1.5470;
3979598660336540;-9.5195;-0.1926;-2.8570;
3979598670441488;-11.5774;0.1259;-2.3109;
3979598680546331;-8.7700;0.2387;-1.9612;
3979598690646436;-8.5543;0.2506;-3.7364;
3979598700751384;-11.8816;0.1786;-3.9350;
3979598710856227;-11.6252;0.8614;-1.2619;
3979598721046488;-7.1985;1.5634;-0.0951;
3979598731151384;-3.3320;0.3081;-1.0582;
3979598741256227;-2.6040;-0.3939;-5.7078;
3979598751272634;-7.0522;-1.4073;-8.3070;
3979598761377477;-15.7744;-0.1041;-6.7810;
3979598771482373;-16.6726;1.4148;0.9015;
3979598781593363;-10.1976;1.8987;4.8849;
3979598791698259;-8.6477;1.8843;2.8537;
3979598801803102;-10.5520;0.9045;0.6500;
3979598811929977;-10.8996;0.5381;-1.7049;
3979598822034821;-11.8457;0.8925;-4.7375;
3979598832139717;-8.7820;1.4506;-3.3529;
3979598842226227;-7.8045;1.3478;-2.4811;
3979598852331123;-10.2598;0.8518;-2.9530;
3979598862436019;-7.5984;0.5955;-0.7253;
3979598872540811;-8.7772;-0.1472;0.4343;
3979598882645759;-10.1330;0.1044;2.3052;
3979598892750602;-9.1675;0.0015;0.9422;
3979598902855186;-10.8299;0.0302;-4.7040;
3979598912960081;-9.4358;-0.1352;-4.9819;
3979598923064977;-4.4028;0.7537;-3.8847;
3979598933174665;-4.8006;0.7537;-7.7512;
3979598943279561;-10.9379;1.3765;-8.1751;
3979598953384456;-11.3378;2.0833;-3.4250;
3979598963506540;-10.7892;2.1144;-0.7469;
3979598973611488;-10.7868;1.2760;2.1422;
3979598983716279;-10.6648;0.8853;2.7556;
3979598993801852;-12.9523;0.7032;2.0584;
3979599003906800;-9.9748;0.4229;2.7482;
3979599014011644;-7.4596;-0.0993;-0.9263;
3979599024121019;-10.0708;-0.2907;-3.4801;
3979599034225915;-9.5821;0.8088;-3.9449;
3979599044330811;-8.5352;0.4086;-4.3208;
3979599054446956;-8.5831;1.0244;-4.2538;
3979599064551748;-9.1244;1.0364;-3.1205;
3979599074656592;-9.3736;0.9428;-0.8713;
3979599084761436;-9.6491;0.1522;0.5492;
3979599094852061;-10.2215;-0.1615;1.1722;
3979599104957009;-8.7266;-0.1902;-0.7421;
3979599115061852;-10.5640;-0.1591;-2.8331;
3979599125163831;-10.0346;1.0026;-3.5112;
3979599135268727;-8.3722;0.4373;-3.8919;
3979599145373623;-8.2621;0.5596;-4.2730;
3979599155481540;-9.5916;0.5931;-4.8766;
3979599165586488;-9.8743;0.1786;-4.2227;
3979599175691331;-9.7256;0.7920;-2.9961;
3979599185796175;-9.3760;0.1570;-2.7541;
3979599195901019;-11.3498;0.4421;-0.9694;
3979599206005915;-9.4143;0.3823;0.4630;
3979599216107477;-7.2033;-0.2883;-1.1037;
3979599226212321;-7.2272;-0.1496;-3.4992;
3979599236317217;-9.6371;0.2961;-5.9354;
3979599246423988;-10.0322;0.6386;-5.4156;
3979599256528884;-7.2727;0.6075;-5.0683;
3979599266633779;-8.3363;-0.0488;-4.7689;
3979599276735602;-12.7152;0.0541;-2.6656;
3979599286840550;-9.5821;-0.3218;-0.7035;
3979599296945394;-6.0437;-0.1184;-0.6245;
3979599307079144;-10.1330;-0.1807;-3.6308;
3979599317184092;-12.1187;-0.0368;-3.4059;
3979599327288936;-7.7471;0.2698;-2.2439;
3979599337372321;-7.7638;-0.1807;-3.1205;
3979599347477217;-10.3005;0.2195;-4.1913;
3979599357582061;-11.4434;0.9858;-3.6957;
3979599367685081;-10.0346;0.8447;-1.3193;
3979599377789977;-8.9734;0.6529;-0.9550;
3979599387894873;-10.1354;0.4759;-1.7503;
3979599398004144;-10.2287;0.0829;-1.3552;
3979599408108988;-7.9938;0.4998;-2.2965;
3979599418213936;-7.5553;0.3990;-4.7976;
3979599428315186;-10.5832;0.7319;-5.8995;
3979599438420134;-10.8658;1.0866;-4.3902;
3979599448524977;-8.2119;1.2613;-3.3314;
3979599458630394;-8.4105;0.5572;-2.7182;
3979599468735342;-9.8049;0.6912;-2.6010;
3979599478840186;-9.4143;0.9236;-3.1229;
3979599488946071;-7.6968;0.8710;-2.6656;
3979599499050915;-7.7495;0.1666;-3.7292;
3979599509155811;-11.8840;0.1211;-4.6657;
3979599519279300;-10.6648;0.9930;-2.8379;
3979599529384196;-4.6089;0.4759;-2.5648;
3979599539489040;-8.7218;0.0422;-6.3209;
3979599549572894;-13.9537;1.0531;-4.3854;
3979599559677790;-9.5486;0.8997;-0.3897;
3979599569782686;-6.3936;0.0446;-1.6379;
3979599579886748;-8.9662;-0.2716;-3.0775;
3979599589991696;-11.0910;-0.4944;-3.2764;
3979599600096540;-8.8011;-0.2764;-3.1543;
3979599610201071;-8.5831;-0.1902;-2.3276;
3979599620306019;-10.1809;-1.0430;-2.6106;
3979599630410863;-11.0169;-0.8249;-1.6331;
3979599640516904;-7.4548;-0.4585;-1.6187;
3979599650621852;-7.8332;-0.3628;-5.1329;
3979599660726696;-10.7701;-0.1519;-4.0238;
3979599670836071;-10.1498;0.0757;-1.0845;
3979599680940967;-9.8599;-0.1998;-2.1625;
3979599691045811;-10.2526;-0.0009;-1.9134;
3979599701150811;-7.6295;0.5285;-1.3122;
3979599711255706;-9.4980;0.4783;-3.9640;
3979599721360550;-13.0675;0.7920;-2.2869;
3979599731469144;-9.3233;0.9667;-0.0951;
3979599741574040;-5.9025;0.2195;-2.7661;
3979599751678884;-8.1206;-0.2189;-3.8201;
3979599761768311;-9.7735;0.2937;-4.4118;
3979599771873206;-12.6601;1.4219;-3.5949;
3979599781978102;-8.9327;1.8915;-0.7995;
3979599792074561;-6.2091;1.0412;-0.8737;
3979599802179509;-8.9853;0.2770;-2.7494;
3979599812284352;-11.3689;1.0938;-2.3061;
3979599822401852;-11.0169;1.1943;-2.3542;
3979599832506696;-10.6696;1.6089;-0.5815;
3979599842611592;-8.7389;1.1297;-0.6341;
3979599852721904;-9.5701;0.9069;-1.8775;
3979599862826696;-12.4660;0.8518;-2.2391;
3979599872931540;-10.0011;1.0292;-0.1358;
3979599883035863;-7.0762;1.1130;-1.1444;
3979599893140654;-10.5090;0.3679;-2.6919;
3979599903245550;-13.2565;1.5200;-1.7312;
3979599913338154;-8.5807;1.4626;-0.5623;
3979599923442998;-4.9059;0.1857;-1.4270;
3979599933547894;-6.6978;0.3751;-3.6452;
3979599943663102;-10.2000;0.1307;-4.9507;
3979599953767998;-10.0899;0.9667;-3.6861;
3979599963872842;-8.9303;0.5740;-2.4452;
3979599973986540;-12.1044;0.5596;-1.2066;
3979599984091331;-10.9164;0.7343;0.2904;
3979599994196227;-7.7734;0.8853;-0.9311;
3979600004295967;-11.1416;0.5118;-2.8693;
3979600014400759;-12.3990;0.5548;-1.3313;
3979600024505602;-7.7399;1.1465;-1.1396;
3979600034605498;-8.7772;-0.2309;-3.0248;
3979600044710394;-10.4683;0.3200;-3.1086;
3979600054815238;-9.4023;1.0244;-2.1170;
3979600064925446;-7.0283;0.5692;-0.9526;
3979600075030238;-6.3888;-0.1496;-2.3061;
3979600085135134;-9.6706;-0.4322;-3.1950;
3979600095240654;-9.9461;0.0135;-2.1099;
3979600105345498;-6.0990;0.1044;-4.0358;
3979600115450290;-7.1169;0.0182;-5.8229;
3979600125555706;-10.0250;0.5668;-4.3113;
3979600135660498;-9.6036;1.1560;-3.3362;
3979600145765342;-10.8347;1.0795;-2.4356;
3979600155870029;-12.9882;0.4926;0.3769;
3979600165974873;-13.4794;1.4483;1.0618;
3979600176079665;-12.2602;0.7442;2.0632;
3979600186183623;-10.1186;1.1871;1.7806;
3979600196288467;-7.8691;-0.3700;-0.2892;
3979600206393363;-7.8571;0.3918;-1.2882;
3979600216497373;-8.5998;0.4181;-3.4011;
3979600226602217;-6.1899;0.5501;-6.8456;
3979600236707061;-8.6142;0.8160;-7.9860;
3979600246818779;-12.7223;1.5344;-5.0157;
3979600256923571;-8.7772;1.3813;-1.6690;
3979600267028467;-8.2669;0.2411;-0.6628;
3979600277121748;-10.0585;0.0182;-1.1061;
3979600287226592;-11.2182;0.5812;-3.1134;
3979600297331436;-10.8634;0.9619;-4.5054;
3979600307430081;-9.2010;1.4195;-5.7341;
3979600317534977;-7.3205;0.7968;-5.5475;
3979600327639769;-8.3004;0.7152;-4.4285;
3979600337757529;-6.0269;0.6458;-4.7450;
3979600347862373;-6.8390;0.7896;-5.5451;
3979600357967217;-11.1583;0.0876;-3.5255;
3979600368074040;-7.0331;-0.0464;-1.5156;
3979600378178831;-7.8284;0.2219;-4.0119;
3979600388283727;-14.9886;-0.6933;-3.2309;
3979600398397061;-13.7501;0.6601;-1.1850;
3979600408501904;-9.4621;0.7944;-0.3108;
3979600418606748;-10.7198;0.4831;-0.4690;
3979600428692998;-11.3833;0.7056;-2.6201;
3979600438797842;-11.8648;1.2039;-2.3252;
3979600448902686;-6.0221;0.6170;-0.9984;
3979600459012165;-4.3597;0.0852;-4.9507;
3979600469117061;-9.4884;0.0111;-4.9436;
3979600479221852;-8.4057;0.0757;-3.1014;
3979600489330863;-8.5878;-0.3939;-4.8048;
3979600499435654;-9.8934;-0.7842;-2.3949;
3979600509540498;-7.9026;-0.4896;-2.6082;
3979600519657165;-10.4994;0.3368;-5.9904;
3979600529762009;-13.3884;0.9787;-4.4261;
3979600539866852;-10.1234;0.9930;-3.6742;
3979600549960967;-10.2646;1.3860;-2.5457;
3979600560065811;-10.6023;1.6113;-2.0282;
3979600570170654;-8.8083;1.4124;-3.0607;
3979600580265186;-10.2838;1.1512;-1.5227;
3979600590370029;-7.7901;0.1211;-0.7923;
3979600600474873;-7.0379;-0.4083;-1.5517;
3979600610580706;-8.7003;-0.8779;-3.3027;
3979600620685602;-8.9207;-1.0143;-4.2610;
3979600630790446;-7.1097;-0.6431;-4.3161;
3979600640920654;-6.5731;-0.7340;-5.4873;
3979600651025498;-8.2597;-0.9832;-5.7437;
3979600661130342;-11.2229;-0.7819;-4.6609;
3979600671201696;-11.7045;-0.3508;-2.5576;
3979600681306540;-13.5033;0.4950;-0.5910;
3979600691411384;-14.7251;1.0172;2.5017;
3979600701538831;-7.9938;1.6543;3.6203;
3979600711643623;-7.5506;0.6817;-0.9670;
3979600721748519;-10.2790;0.1092;-2.8379;
3979600731859352;-9.6921;0.5501;-3.4442;
3979600741964196;-9.1531;0.3344;-3.4585;
3979600752069040;-9.9485;0.0948;-2.8717;
3979600762169821;-9.2970;0.2028;-1.9540;
3979600772274665;-6.8656;-0.0849;-1.1324;
3979600782379456;-6.4367;-0.1567;-3.3984;
3979600792471852;-8.0824;-0.0200;-6.0841;
3979600802576696;-9.1292;0.3511;-6.3257;
3979600812681540;-7.4979;0.9045;-7.2721;
3979600822807790;-9.2441;1.5395;-6.1343;
3979600832912686;-11.2564;1.4363;-2.1745;
3979600843017581;-9.3185;1.5873;-1.2305;
3979600853109144;-7.4572;0.8758;-0.6820;
3979600863214040;-7.2416;0.5716;-2.2223;
3979600873318936;-8.0489;-0.5351;-3.6308;
3979600883421331;-6.0245;-0.3338;-3.5542;
3979600893526227;-7.3899;-0.4442;-5.0157;
3979600903631123;-11.2277;-0.1567;-3.9135;
3979600913766748;-12.8614;-0.0655;0.0078;
3979600923871644;-13.0771;0.4684;2.0608;
3979600933976540;-13.7955;0.9452;1.9481;
3979600944050811;-11.8265;1.3836;2.4511;
3979600954155706;-9.2106;1.2374;-0.2557;
3979600964260602;-9.0287;0.5596;-3.1759;
3979600974365290;-11.2038;1.1058;-4.3567;
3979600984470186;-11.6731;1.2182;-2.4452;
3979600994575081;-7.6391;1.4506;-0.5312;
3979601004683623;-8.0417;0.9691;-2.4284;
3979601014788519;-8.4634;0.3176;-2.6536;
3979601024893415;-6.7528;0.5022;-3.4801;
3979601034994144;-6.4702;0.3392;-6.1223;
3979601045099040;-7.4740;-0.0559;-8.8508;
3979601055203988;-11.0647;0.9332;-9.7609;
3979601065310081;-12.3153;2.0112;-7.7058;
3979601075414977;-9.9556;1.9059;-3.8489;
3979601085519873;-9.0311;1.5586;-1.4653;
3979601095627269;-10.9164;0.2195;-0.4786;
3979601105732165;-13.0986;0.8183;-0.2773;
3979601115837061;-13.2808;0.7442;-1.8392;
3979601125929873;-10.0250;0.4878;0.2521;
3979601136034769;-6.3120;-0.3748;-1.8320;
3979601146139717;-4.3573;-0.6383;-4.0621;
3979601156270081;-7.7279;-0.9927;-6.9511;
3979601166374977;-11.3833;-0.7627;-5.9330;
3979601176479873;-8.1254;-0.5758;-3.8680;
3979601186572269;-7.6295;-1.3591;-3.8465;
3979601196677165;-12.9763;-0.7388;-2.4882;
3979601206782061;-12.2554;-0.3314;0.6188;
3979601216884665;-8.2262;0.1714;0.2378;
3979601226989561;-6.3072;-0.2381;-3.1496;
3979601237094456;-6.0317;-0.6766;-5.8469;
3979601247199144;-9.0790;-0.3628;-8.8316;
3979601257304040;-9.9293;1.2015;-5.9450;
3979601267408936;-8.6859;1.1489;-1.9493;
3979601277513467;-8.9925;0.4421;1.1360;
3979601287618311;-10.2191;0.0661;0.6138;
3979601297723206;-11.9151;0.3918;-0.1741;
3979601307838988;-9.8121;0.0757;-0.1382;
3979601317943936;-6.3912;0.6649;-3.9302;
3979601328048779;-10.6792;1.6639;-7.3965;
3979601338147477;-12.4660;2.3417;-4.1698;
3979601348252373;-9.2465;2.4640;-1.6451;
3979601358357269;-5.8020;1.6543;-1.2906;
3979601368460394;-8.0991;0.8925;-1.5709;
3979601378565290;-10.8132;0.9308;-0.9984;
3979601388670186;-9.0287;0.2937;-0.7301;
3979601398782946;-7.8882;-0.4633;-2.8570;
3979601408887842;-9.6251;0.0852;-3.5351;
3979601418992738;-7.9531;0.3224;-3.5734;
3979601429082425;-12.5022;1.2661;-5.5328;
3979601439187373;-12.5213;1.7022;-1.1348;
3979601449292269;-8.1398;1.6041;-0.4834;
3979601459403311;-9.2082;0.5213;-2.5433;
3979601469508206;-13.2927;0.4974;-2.3061;
3979601479613102;-11.4529;0.8351;-0.8833;
3979601489718988;-5.0474;0.1092;-0.3754;
3979601499823884;-6.0126;-0.8827;-4.0573;
3979601509928779;-12.9930;-0.6431;-5.7843;
3979601520026227;-9.8695;-0.0368;-3.4705;
3979601530131123;-8.1063;-0.1759;-3.7364;
3979601540236019;-11.7930;0.0637;-3.2070;
3979601550339352;-8.0680;-0.1926;-2.2223;
3979601560444248;-6.6858;-0.5710;-4.5796;
3979601570549144;-9.9174;-0.4442;-5.6336;
3979601580659509;-11.0551;-0.0344;-5.2549;
3979601590764404;-9.0885;0.0541;-4.3400;
3979601600869300;-9.0550;0.5572;-2.5696;
3979601611006904;-13.5754;-0.6048;-1.5350;
3979601621111800;-12.2530;0.1020;1.2894;
3979601631216696;-4.8245;0.2626;-0.5958;
3979601641284873;-4.3525;-0.6742;-5.1473;
3979601651389821;-4.4797;-0.5949;-7.4901;
3979601661494717;-5.5648;-0.4346;-9.7107;
3979601671626644;-10.5784;-0.5064;-7.2123;
3979601681731540;-11.1703;0.1786;-3.3290;
3979601691836436;-12.2124;0.3655;0.9924;
3979601701924456;-10.7438;-0.0754;2.4272;
3979601712029352;-10.5185;0.8997;1.7614;
3979601722134248;-8.9112;0.6529;-0.5192;
3979601732238311;-6.6404;0.3535;-4.8646;
3979601742343206;-11.8050;1.6352;-8.1105;
3979601752448102;-13.4028;1.6184;-1.9349;
3979601762560915;-7.0546;1.8293;1.6295;
3979601772665811;-5.9671;0.1857;1.3564;
3979601782770706;-9.4023;-0.4107;-0.0736;
3979601792870238;-12.0374;-0.7627;-2.9602;
3979601802975134;-8.5639;0.0876;-2.5648;
3979601813080029;-8.7987;0.2770;-6.3209;
3979601823180238;-11.2493;1.5562;-4.7617;
3979601833285134;-10.1210;2.1120;-3.7819;
3979601843390029;-11.1488;2.4018;-3.7196;
3979601853514040;-11.7523;2.1550;-0.0999;
3979601863618936;-6.7887;1.4674;-0.4929;
3979601873723779;-7.9747;0.0972;-3.4155;
3979601883828884;-10.3822;0.5453;-4.4357;
3979601893933779;-9.4071;1.0866;-3.6332;
3979601904038623;-5.7299;0.2148;-3.2979;
3979601914161696;-6.5252;-0.3987;-5.7341;
3979601924266540;-9.0766;0.1187;-5.2549;
3979601934371436;-9.5605;-0.0921;-5.2816;
3979601944447790;-11.4338;0.4181;-3.5399;
3979601954552686;-11.9366;0.5429;-0.0353;
3979601964657529;-6.0197;0.3727;-0.3969;
3979601974761488;-8.0871;-0.0511;-2.8187;
3979601984866384;-13.8245;-0.1854;-3.2285;
3979601994971227;-11.7380;0.7319;-1.4844;
3979602005084925;-8.2167;0.3751;-0.5910;
3979602015189821;-8.6094;-0.1639;-2.2223;
3979602025294665;-11.2636;-0.1615;-1.2090;
3979602035394821;-10.2191;0.0541;-1.2835;
3979602045499665;-11.5989;0.2219;-1.8296;
3979602055604561;-11.5271;0.1810;-0.7397;
3979602065730134;-8.9686;0.6314;-1.4414;
3979602075835029;-6.8175;0.0757;-3.7986;
3979602085939873;-4.6376;0.2459;-6.0096;
3979602096028571;-2.0312;0.3057;-8.9130;
3979602106133467;1.0564;-0.8177;-12.3888;
3979602116238311;-6.3144;-0.9257;-12.4223;
3979602126339300;-17.4320;0.2889;-5.8875;
3979602136444196;-18.5100;1.5033;1.8332;
3979602146549040;-12.3464;2.1407;9.6209;
3979602156655029;-10.0179;3.0987;5.5056;
3979602166759925;-9.5988;-0.0200;-1.5108;
3979602176864769;-10.3077;-0.9808;-4.4166;
3979602186966956;-12.2483;1.3669;-8.3237;
3979602197071852;-12.5046;1.7859;-2.5911;
3979602207176696;-10.8924;1.0002;3.7448;
3979602217281696;-9.2345;-0.4394;5.6635;
3979602227386592;-3.1549;-1.0717;5.4386;
3979602237491436;-4.0914;-2.2241;-5.5451;
3979602247605134;-11.7643;-1.7163;-13.0358;
3979602257710029;-8.2837;0.0876;-10.4175;
3979602267814873;-2.8866;1.2760;-9.3514;
3979602277886592;-3.4926;1.1106;-10.7743;
3979602287991488;-9.7256;1.3621;-7.1501;
3979602298096384;-13.8269;2.5454;-2.4093;
3979602308236123;-13.9801;1.8051;1.7136;
3979602318340967;-13.9035;1.7788;3.4837;
3979602328445863;-11.8768;1.6256;3.8862;
3979602338542946;-7.8787;-0.1017;0.8342;
3979602348647842;-5.2268;-0.8154;-3.7531;
3979602358752686;-7.9986;0.2459;-7.2649;
3979602368856904;-10.1641;0.1259;-4.2060;
3979602378961800;-12.5405;0.4445;-0.9526;
3979602389066644;-12.1499;0.9093;2.4105;
3979602399171540;-5.3587;-0.0754;3.1412;
3979602409276488;-4.0029;-1.0143;-1.3720;
3979602419352217;-10.9570;-1.1749;-6.8937;
3979602429457113;-12.8184;0.4878;-6.2444;
3979602439561956;-11.0504;2.3970;-5.6815;
3979602449714144;-8.1470;1.9346;-1.8248;
3979602459819092;-5.9456;1.3884;1.4285;
3979602469923936;-9.9269;0.1594;-1.0152;
3979602480004613;-11.8265;0.4636;-0.3778;
3979602490109509;-8.4464;0.6505;-1.8440;
3979602500214300;-10.3750;-0.0081;-3.3769;
3979602510321800;-10.7390;0.3320;-2.3997;
3979602520426696;-8.3291;0.6434;0.5396;
3979602530531488;-7.6777;0.3607;-1.7073;
3979602540625654;-13.9107;0.5477;-3.6141;
3979602550730602;-16.6008;1.6926;-0.2916;
3979602560835446;-8.7461;1.6807;1.7112;
3979602570978467;-2.5678;-0.0153;1.0307;
3979602581083311;-8.5974;-0.7819;-4.5772;
3979602591188206;-14.7108;0.5261;-5.5810;
3979602601282009;-9.7376;0.9476;-2.5552;
3979602611386852;-3.8949;-0.4322;-2.8860;
3979602621491748;-8.4416;0.0326;-3.2668;
3979602631589509;-11.7069;0.3368;-4.0430;
3979602641694352;-12.0135;0.9093;-2.4978;
3979602651799196;-7.9938;0.7319;0.4917;
3979602661909769;-8.0297;0.1116;-3.1519;
3979602672014665;-12.1259;0.3823;-3.9135;
3979602682119509;-10.1139;0.6194;-1.9301;
3979602692203154;-6.1445;0.5118;-2.1625;
3979602702307998;-6.7816;-0.0105;-3.6667;
3979602712412842;-11.6707;-0.0682;-5.1520;
3979602722527425;-13.2422;0.9428;-1.1468;
3979602732632269;-9.6849;1.0986;-0.8402;
3979602742737113;-9.1460;0.8327;-0.8426;
3979602752834352;-7.9217;1.0125;-0.5384;
3979602762939248;-8.3530;0.6386;-2.7948;
3979602773044092;-9.2560;0.5716;-3.9568;
3979602783144144;-13.2541;1.1776;-4.0430;
3979602793249092;-12.1211;1.4674;-1.5661;
3979602803353936;-5.1526;1.2999;-0.1669;
3979602813456488;-5.5552;-0.1352;-2.5720;
3979602823561384;-10.0681;0.1594;-2.6321;
3979602833666227;-10.9235;0.5142;-4.6226;
3979602843796384;-11.9198;0.9165;-4.4524;
3979602853901279;-10.8706;1.1465;-1.1803;
3979602864006123;-5.8211;0.9835;-0.4905;
3979602874113884;-6.8557;0.0230;-1.7169;
3979602884218779;-12.5405;-0.1472;-3.2333;
3979602894323623;-13.6615;0.6075;-2.7685;
3979602904421592;-9.5414;0.3775;-1.9732;
3979602914526488;-6.8680;-0.8225;-1.3361;
3979602924631331;-5.7562;-0.3580;-1.4964;
3979602934735029;-5.5744;-0.4896;-4.2682;
3979602944839925;-10.0514;-0.8608;-5.7317;
3979602954944769;-12.6194;-0.0344;-3.8345;
3979602965054821;-10.0298;0.1786;-1.4103;
3979602975159717;-8.3028;-0.1711;-0.5049;
3979602985264561;-9.1412;-0.8608;0.4271;
3979602995368206;-10.3244;0.0924;-0.5815;
3979603005473102;-9.9987;-0.3796;-2.9602;
3979603015577946;-11.8361;-0.4705;-2.5552;
3979603025678206;-10.9810;0.5620;-0.8809;
3979603035783102;-11.5582;0.7705;0.3936;
3979603045887946;-11.2253;0.5740;2.8561;
3979603056002477;-9.5172;0.5453;3.3473;
3979603066107321;-8.1063;-0.3915;0.2282;
3979603076212217;-7.3588;0.2339;-2.9770;
3979603086317738;-10.4252;0.5740;-5.8110;
3979603096422634;-11.4048;1.7309;-4.1100;
3979603106527477;-7.6271;1.8604;-3.1759;
3979603116617790;-7.5242;0.6601;-3.6165;
3979603126722686;-10.0011;0.9763;-2.1769;
3979603136827529;-10.6863;1.8963;-3.4202;
3979603146939196;-11.8026;0.9739;-1.2544;
3979603157044092;-9.9317;1.8051;0.4415;
3979603167148936;-7.2703;0.7199;-0.2486;
3979603177255290;-7.1001;0.4807;-2.3228;
3979603187360186;-8.1159;0.6577;-3.9927;
3979603197465029;-8.0058;1.0651;-3.7412;
3979603207561904;-9.5868;0.6936;-3.0966;
3979603217666800;-11.4960;0.2961;-2.4332;
3979603227771644;-13.3813;0.8590;0.4128;
3979603237852217;-13.7309;1.7692;2.4440;
3979603247957061;-12.3823;1.2446;2.4703;
3979603258061956;-10.4061;1.1082;3.1101;
3979603268201123;-8.9949;0.7561;0.3431;
3979603278305967;-6.0269;0.3823;-2.7374;
3979603288410811;-7.2846;0.0661;-4.8909;
3979603298501644;-8.3267;-0.1472;-5.9617;
3979603308606592;-5.1455;-0.1472;-2.9985;
3979603318711436;-3.6242;-0.7196;-4.8287;
3979603328821227;-11.1990;-1.1363;-4.8598;
3979603338926175;-18.8668;0.6769;-2.1649;
3979603349030967;-14.4449;1.2685;-1.2401;
3979603359128102;-4.8006;0.1738;1.9193;
3979603369233050;-5.6055;1.0268;-0.0664;
3979603379337842;-10.7438;0.9093;-5.2887;
3979603389457113;-13.4267;1.7070;-5.5714;
3979603399561956;-12.3823;1.8365;-1.2667;
3979603409666852;-10.2287;1.0555;1.3756;
3979603419774456;-10.4013;-0.1161;3.2776;
3979603429879352;-8.2765;-0.7603;3.8336;
3979603439984144;-6.2378;-1.8359;1.2727;
3979603450092738;-7.5506;-1.4791;-4.9819;
3979603460197581;-13.3190;-0.5901;-9.0855;
3979603470302477;-13.3980;0.1905;-6.0670;
3979603480410290;-5.9360;-0.2333;-1.0367;
3979603490515134;-6.0532;-0.5997;-2.0931;
3979603500619977;-13.7309;-0.6502;-1.7815;
3979603510705967;-13.2951;-0.1519;0.4032;
3979603520810863;-8.1446;-1.0143;0.0341;
3979603530915706;-6.5779;-0.8536;-1.9301;
3979603541017581;-8.7194;-0.8827;-3.4657;
3979603551122477;-11.3330;0.5453;-4.4501;
3979603561227321;-10.3220;0.0757;-2.5816;
3979603571354456;-10.4252;0.8710;-0.6532;
3979603581459352;-9.6156;0.9954;-1.1157;
3979603591564196;-7.2679;0.6242;-2.0210;
3979603601661852;-8.4272;0.9547;-4.0573;
3979603611766748;-10.8108;1.3167;-4.3591;
3979603621871592;-6.4008;1.1871;-3.8393;
3979603631960186;-5.5887;0.6410;-5.2454;
3979603642065081;-11.6085;0.9117;-4.3041;
3979603652169977;-12.8710;2.2077;-1.2835;
3979603662284873;-10.4779;2.1718;0.4630;
3979603672389769;-10.1856;1.1656;3.2177;
3979603682494613;-10.6433;1.9370;1.9771;
3979603692580342;-6.9589;1.2135;0.0365;
3979603702685186;-7.5075;1.1584;-2.9913;
3979603712790081;-11.4697;1.7859;-4.6250;
3979603722921279;-10.8900;1.6472;-2.4308;
3979603733026175;-8.5113;0.3870;-2.0498;
3979603743130967;-8.4488;0.6553;-1.1874;
3979603753231019;-8.9566;-0.0296;0.6066;
3979603763335915;-7.5458;-0.1352;-2.1123;
3979603773440759;-10.2263;0.1953;-3.9664;
3979603783540498;-12.6362;1.1417;-2.0450;
3979603793645394;-9.1292;0.6936;-1.3409;
3979603803750290;-7.0762;0.7295;-2.3204;
3979603813888727;-7.4046;0.9811;-2.3973;
3979603823993727;-3.9646;0.4014;-2.7374;
3979603834098675;1.8805;-0.1352;-6.5557;
3979603844187061;-20.7616;-0.7914;-8.0435;
3979603854292061;-36.8381;1.8003;2.8083;
3979603864397009;-4.8891;3.3168;11.4823;
3979603874502894;2.1105;-0.4968;5.5654;
3979603884607894;-16.1528;0.2363;2.6596;
3979603894712842;-17.5807;1.7429;-2.5098;
3979603904810498;-2.7476;-0.1065;-1.4653;
3979603914915498;-2.3668;-0.0105;-6.1702;
3979603925020446;-13.3167;0.7271;-10.2784;
3979603935117061;-13.0866;1.5873;-4.1459;
3979603945222061;-4.9274;0.1786;0.7002;
3979603955327009;-3.7968;-0.7364;3.4597;
3979603965432686;-1.4850;-1.8694;0.1229;
3979603975537686;-9.6323;-1.1677;-16.1426;
3979603985642634;-16.2464;0.8542;-14.0273;
3979603995749561;-5.9384;1.5897;-1.1898;
3979604005854561;-2.9536;1.3741;-3.3027;
3979604015959509;-13.5272;1.1584;-2.8522;
3979604026073936;-16.7516;1.3047;3.3592;
3979604036178936;-5.6821;1.3430;5.7739;
3979604046283884;2.8579;-0.5183;1.0499;
3979604056384717;-2.8241;-1.5269;-6.8695;
3979604066489717;-30.4541;-0.2596;-5.6504;
3979604076594665;-29.0644;1.0579;9.9395;
3979604086700602;-1.5571;3.0724;7.5897;
3979604096805602;-1.4539;-1.6899;7.2805;
3979604106910550;-17.1446;-0.1926;2.0417;
3979604117012894;-17.1972;1.6615;-2.3566;
3979604127117894;-3.5764;-0.1161;1.1794;
3979604137222842;-2.1392;-0.6072;-5.5570;
3979604147330498;-12.2219;0.1044;-10.5873;
3979604157435498;-14.8448;0.8542;-5.6216;
3979604167540446;-4.6519;0.6218;0.2163;
3979604177644769;-1.7007;-0.2309;1.8978;
3979604187749769;-4.8102;-1.5078;-1.3457;
3979604197854769;-16.7444;-0.3891;-16.1163;
3979604207954144;-19.0944;1.8102;-10.3840;
3979604218059144;-6.7983;2.7036;0.5061;
3979604228164092;-4.2281;1.9226;-1.4557;
3979604238271956;-13.2903;1.0914;-1.9612;
3979604248376956;-18.5172;2.9360;-0.2821;
3979604258481904;-10.3774;2.8519;2.4153;
3979604268591123;-3.8590;0.1546;2.1087;
3979604278696123;-6.6212;0.4711;-1.4198;
3979604288801071;-14.3755;0.4564;-4.0143;
3979604298901904;-10.8706;0.7295;0.1804;
3979604309006904;-3.5931;0.1977;-2.8741;
3979604319111904;-7.4189;0.0302;-5.8923;
3979604329219821;-9.6562;0.7442;-3.2740;
3979604339324821;-8.1374;0.8638;-3.9326;
3979604349429769;-9.0838;0.5237;-4.2754;
3979604359552373;-9.9365;0.4950;-2.9291;
3979604369657373;-12.1714;0.5740;-2.2032;
3979604379762321;-10.2383;1.1082;0.5420;
3979604389844665;-9.6610;0.1355;-0.1765;
3979604399949665;-13.0866;0.2913;0.4223;
3979604410054613;-9.5557;0.3296;2.3554;
3979604420161227;-5.7347;0.0302;-2.1840;
3979604430266227;-9.9221;-0.1519;-4.0454;
3979604440371175;-10.2215;0.7394;-2.2128;
3979604450471644;-5.3755;0.2483;-1.9301;
3979604460576644;-5.8307;0.0470;-4.7593;
3979604470681592;-10.8156;-0.1663;-5.2310;
3979604480791175;-11.6949;0.4612;-2.7230;
3979604490896175;-8.2908;0.2171;-1.5852;
3979604501001123;-7.9050;0.0374;-1.3122;
3979604511105654;-9.9652;-0.3123;-1.7791;
3979604521210654;-13.0026;0.5285;-1.3744;
3979604531315602;-9.9724;0.5883;-0.6317;
3979604541426956;-9.6849;0.7152;-0.6341;
3979604551531956;-13.0843;0.6314;0.4893;
3979604561636904;-10.9187;0.4612;2.1996;
3979604571745394;-7.5266;0.1235;1.3875;
3979604581850394;-7.3660;-0.5518;-0.8019;
3979604591955342;-11.8576;-0.0730;-2.4906;
3979604602065915;-11.2038;0.0422;-2.3327;
3979604612170915;-8.0847;0.1666;-2.6991;
3979604622275863;-9.2707;0.0302;-2.5792;
3979604632353415;-9.5749;1.0723;-2.2487;
3979604642458415;-6.2856;0.5812;-3.1902;
3979604652563363;-7.5386;0.5668;-5.3055;
3979604662699977;-11.8528;0.6936;-3.1615;
3979604672804977;-9.2249;1.7477;-2.0593;
3979604682909925;-6.7600;0.5261;-2.0306;
3979604693002842;-7.9603;1.0771;-3.5734;
3979604703107790;-10.4157;0.6290;-3.2477;
3979604713212790;-10.0394;1.0866;-1.0869;
3979604723312165;-8.7796;0.7561;-1.4797;
3979604733417165;-11.3258;0.7295;-2.3109;
3979604743522113;-11.7523;0.5046;-0.2749;
3979604753630602;-10.0011;1.4650;-0.5527;
3979604763735602;-8.9231;0.6625;-1.2835;
3979604773840550;-10.5592;0.9858;-0.4208;
3979604783939040;-7.7638;0.8255;0.2689;
3979604794044040;-6.5635;0.0206;-1.9564;
3979604804149040;-12.1355;0.0541;-3.8010;
3979604814277686;-14.7778;0.6482;-2.1960;
3979604824382686;-11.6061;1.2517;1.6872;
3979604834487634;-6.7600;0.3224;2.1829;
3979604844587269;-7.5075;-0.1783;-1.3409;
3979604854692269;-10.1474;-0.5853;-3.3410;
3979604864797217;-10.5425;0.1259;-3.1878;
3979604874894977;-9.1244;-0.1950;-4.1722;
3979604884999977;-10.6217;0.6769;-3.8130;
3979604895104925;-11.4936;1.0412;-1.7575;
3979604905208936;-6.6715;0.8160;-0.4929;
3979604915313936;-6.8366;0.0302;-1.7838;
3979604925418884;-10.4276;-0.6837;-3.2716;
3979604935518571;-12.1116;0.4878;-4.0573;
3979604945623571;-9.4645;0.0900;-2.5792;
3979604955728519;-7.9292;0.2148;-3.8225;
3979604965834040;-13.6783;0.2363;-2.9554;
3979604975939040;-14.3225;1.1345;0.8486;
3979604986043988;-8.2334;0.9667;1.7351;
3979604996151644;-9.0598;0.4831;-1.2882;
3979605006256644;-12.3751;-0.0778;-1.0128;
3979605016361592;-8.1206;0.1044;-1.4773;
3979605026464561;-5.9719;-0.2740;-3.1926;
3979605036569561;-9.7783;-0.9138;-4.4743;
3979605046674561;-9.1029;-0.4944;-3.1735;
3979605056722946;-5.6390;-0.5518;-3.1902;
3979605066827842;-6.1923;-1.0860;-5.4156;
3979605076932842;-12.9523;-0.6096;-5.2454;
3979605087099144;-15.4582;0.1307;0.7696;
3979605097204144;-9.0861;1.2446;2.8322;
3979605107309092;-7.4046;0.9595;-3.3362;
3979605117404040;-13.0412;-0.0826;-2.7111;
3979605127509040;-11.2421;1.4148;-0.9984;
3979605137613988;-7.7327;1.2446;-1.6834;
3979605147722634;-12.4783;0.4397;-1.9851;
3979605157827634;-17.3172;1.7022;-0.1358;
3979605167932529;-13.5850;1.7883;3.1316;
3979605178036436;-10.0875;0.5907;2.6189;
3979605188141436;-9.0359;0.2339;0.7648;
3979605198246384;-7.2344;-0.4537;-0.8402;
3979605208344769;-3.0182;-0.1448;-4.7737;
3979605218449769;0.2444;-1.2610;-11.5720;
3979605228554717;-7.4668;-0.1519;-16.2529;
3979605238650134;-10.7294;0.8925;-8.5633;
3979605248755134;-4.9609;1.7692;-1.8631;
3979605258860081;-4.6089;0.7920;-2.2965;
3979605268991800;-13.0388;0.5524;-1.1133;
3979605279096748;-15.1035;1.3167;1.9603;
3979605289201696;-12.5309;2.1263;1.0786;
3979605299289248;-10.4276;2.4927;-3.2429;
3979605309394248;-9.9197;0.8877;-3.7914;
3979605319499196;-14.9312;0.6840;-2.5816;
3979605329609873;-14.2340;2.1909;1.3780;
3979605339714873;-8.4440;1.8796;3.2106;
3979605349819873;-7.1865;0.0254;4.1474;
3979605359913936;-5.3468;-0.8249;3.5148;
3979605370018936;-4.6400;-0.9353;-1.6020;
3979605380123884;-6.5515;-1.7952;-4.6753;
3979605390235811;-5.1239;-1.2156;-4.8766;
3979605400340811;-6.6141;-1.2395;-7.6098;
3979605410445759;-9.7639;-0.6072;-7.7273;
3979605420559352;-9.0550;-0.0440;-4.2179;
3979605430664352;-8.3411;0.7295;-3.2405;
3979605440769300;-8.4224;0.8112;-0.6556;
3979605450881904;-9.1005;1.4291;-1.0989;
3979605460986904;-14.7419;1.9825;-4.0382;
3979605471091852;-16.3182;2.4832;1.1985;
3979605481170342;-9.0215;2.9049;6.1570;
3979605491275290;-7.3469;2.2603;0.9757;
3979605501380290;-11.9871;-0.5016;-1.5326;
3979605511494144;-11.1054;-0.0682;-0.5025;
3979605521599144;-8.9351;0.4878;1.6175;
3979605531704092;-10.0756;-0.8656;2.2549;
3979605541797790;-10.0851;-0.4801;-0.4714;
3979605551902790;-10.5090;-0.4322;-2.2582;
3979605562007738;-9.4382;-0.3867;-1.7743;
3979605572130602;-7.9843;-0.1998;-2.7709;
3979605582235602;-7.5649;-0.1400;-3.5901;
3979605592340550;-6.9661;-0.1759;-3.9520;
3979605602435394;-6.1277;0.3296;-5.6886;
3979605612540394;-9.6778;0.7056;-5.6360;
3979605622645342;-11.3186;0.6458;-2.5433;
3979605632775498;-8.7437;1.2565;-1.8296;
3979605642880498;-9.4334;1.2278;-2.6201;
3979605652985446;-9.8384;0.7319;-0.5432;
3979605663111644;-10.7055;0.5764;-1.2835;
3979605673216644;-11.9991;0.1618;-1.9445;
3979605683321592;-9.9772;0.8183;-0.2581;
3979605693376436;-9.7184;0.1403;-0.8833;
3979605703481436;-13.0316;0.5716;-1.6140;
3979605713586384;-13.3765;1.1512;0.1205;
3979605723703831;-10.3316;0.2650;2.4631;
3979605733808831;-8.4559;0.7561;1.2488;
3979605743913779;-8.4296;-0.7603;-0.8091;
3979605754024248;-9.4119;0.0494;-3.8010;
3979605764129248;-10.3415;-0.3365;-3.1229;
3979605774234196;-6.1851;-0.1496;-2.5457;
3979605784333727;-6.0341;-0.3290;-4.3783;
3979605794438727;-10.8972;-0.6814;-4.6513;
3979605804543727;-12.0972;0.4612;-2.9219;
3979605814659561;-9.8671;0.6458;-1.6570;
3979605824764561;-11.5223;0.8160;-1.1204;
3979605834869509;-13.0074;0.9284;-0.4208;
3979605844970081;-9.5390;1.0579;-0.4208;
3979605855075081;-7.2320;0.0541;-2.0091;
3979605865180029;-9.6969;0.7343;-5.1473;
3979605875279873;-10.3511;0.6960;-5.2525;
3979605885384873;-8.2406;0.9763;-3.8632;
3979605895489821;-7.5553;0.5740;-3.6547;
3979605905599665;-9.5172;0.3846;-3.9182;
3979605915704665;-10.6170;0.0685;-0.7875;
3979605925809613;-9.2994;0.2961;0.4415;
3979605935912321;-8.1781;-0.1950;-1.6020;
3979605946017321;-8.9662;-0.1735;-3.2524;
3979605956122269;-10.6122;0.3894;-3.0009;
3979605966220915;-9.6993;0.5644;-3.2333;
3979605976325915;-9.0670;0.6338;-3.3793;
3979605986430863;-11.5319;0.3344;-2.8642;
3979605996534821;-12.8279;1.1010;-1.1372;
3979606006639821;-10.7390;0.9045;0.4558;
3979606016744769;-8.9231;0.5453;0.9087;
3979606026861019;-9.3257;0.0541;-0.2222;
3979606036966019;-8.7485;-0.2285;-0.9790;
3979606047070967;-7.1530;-0.4729;-2.1984;
3979606057152477;-4.9585;-0.7699;-4.0358;
3979606067257477;-4.9705;-0.4729;-7.3941;
3979606077362425;-8.1182;-0.1615;-8.0698;
3979606087486956;-7.3540;-0.2740;-4.0765;
3979606097591956;-6.5901;0.2483;-1.2930;
3979606107696904;-11.9752;0.1905;-2.5720;
3979606117783884;-14.8017;0.4974;-0.4256;
3979606127888831;-11.6372;1.3597;3.0718;
3979606137993779;-9.8839;1.3023;0.4917;
3979606148112061;-10.5520;0.5118;-1.1994;
3979606158217061;-10.8972;0.6625;-1.0128;
3979606168322009;-11.3474;1.2589;-1.9995;
3979606178435290;-11.1197;0.5333;-0.4953;
3979606188540290;-9.6897;0.6697;1.0379;
3979606198645238;-11.7212;0.4469;0.6547;
3979606208740811;-11.5511;-0.0440;2.9207;
3979606218845811;-7.2894;-0.2453;2.7386;
3979606228950759;-5.7706;-1.0860;-0.9646;
3979606239046540;-8.6931;-1.2347;-3.7531;
3979606249151540;-12.0398;-0.0897;-5.0970;
3979606259256488;-8.5998;0.0087;-4.7327;
3979606269376488;-4.9681;0.1451;-5.7867;
3979606279481488;-8.2621;0.2387;-6.6996;
3979606289586436;-11.0432;0.4902;-4.7569;
3979606299683936;-9.5052;1.1776;-0.9550;
3979606309788936;-6.2402;0.9260;-1.3002;
3979606319893884;-11.1823;0.5740;-3.6814;
3979606330004873;-13.9633;1.5730;0.1229;
3979606340109873;-9.3401;1.4794;1.2655;
3979606350214821;-10.3220;0.9260;-1.5541;
3979606360322686;-14.5502;0.9763;-1.7503;
3979606370427686;-12.3416;1.6424;1.0211;
3979606380532686;-6.6332;1.5562;1.3421;
3979606390623311;-6.8752;0.4277;-3.2692;
3979606400728363;-10.4707;0.9763;-6.0215;
3979606410833311;-8.3052;0.6434;-2.3830;
3979606420963467;-8.0393;1.0484;-1.4079;
3979606431068467;-11.0264;0.6936;-0.9550;
3979606441173467;-13.5658;0.9428;0.0341;
3979606451237113;-13.5344;1.9274;1.7830;
3979606461342113;-6.8557;1.9992;2.5950;
3979606471447113;-4.5658;0.2770;-2.7087;
3979606481582477;-9.6395;0.8136;-5.8397;
3979606491687477;-12.0589;2.0734;-6.1510;
3979606501792477;-9.8360;1.7285;-4.4791;
3979606511872581;-7.8619;1.0026;-3.2501;
3979606521977581;-10.2550;0.6817;-3.2788;
3979606532082581;-12.0015;0.7080;-0.2940;
3979606542205238;-10.6217;0.1762;1.1889;
3979606552310238;-9.1627;-0.4896;1.5864;
3979606562415238;-7.7686;-0.8898;0.3769;
3979606572520081;-10.6050;-0.6239;-3.6742;
3979606582625081;-12.4038;0.0924;-3.6933;
3979606592730081;-10.3463;0.0685;-3.0751;
3979606602857581;-8.3435;0.6027;-2.6656;
3979606612962634;-9.0072;-0.6502;-4.0190;
3979606623067581;-8.9806;-0.4178;-2.7972;
3979606633143571;-7.4979;-0.6120;-3.4609;
3979606643248571;-8.9375;-0.8656;-3.7268;
3979606653353571;-10.1569;-0.4896;-1.7862;
3979606663463936;-9.5510;-0.4825;-0.6245;
3979606673568936;-10.6170;-0.1567;-0.9960;
3979606683673936;-9.9700;-0.2022;-0.4570;
3979606693766436;-8.6070;-0.0754;-1.2667;
3979606703871436;-10.5664;-0.0009;-3.7412;
3979606713976488;-9.6945;0.4134;-1.7647;
3979606724093154;-7.9675;0.1140;-2.8451;
3979606734198154;-10.9427;0.2363;-4.3137;
3979606744303154;-12.3129;0.1164;-3.0224;
3979606754410498;-10.2861;1.9825;-0.1286;
3979606764515498;-9.8264;1.4339;0.4750;
3979606774620498;-8.7820;0.2937;0.5037;
3979606784732269;-8.9495;-0.0583;-0.9694;
3979606794837269;-10.2191;-0.2189;-0.9960;
3979606804942321;-11.3115;0.3176;-1.8081;
3979606815037946;-9.9174;0.9380;-0.9191;
3979606825142842;-8.3339;0.5261;-3.0655;
3979606835247842;-8.7820;1.2879;-3.7364;
3979606845352790;-7.1267;0.8136;-3.7125;
3979606855463571;-4.8843;0.6170;-3.6069;
3979606865568519;-6.0413;-0.6359;-6.2539;
3979606875673519;-10.1019;-0.4107;-5.9809;
3979606885792686;-9.9245;0.0757;-3.1277;
3979606895897686;-8.5902;0.6482;-0.9718;
3979606906002686;-9.9150;0.4998;-1.2787;
3979606916094977;-10.7749;0.7152;-1.0199;
3979606926199977;-11.4218;1.6184;0.6715;
3979606936304977;-11.4625;1.7764;0.2139;
3979606946409665;-8.9399;1.8293;0.1373;
3979606956514717;-9.2779;1.0890;-3.8991;
3979606966619665;-12.4636;1.2182;-3.9664;
3979606976719456;-10.0995;1.5057;-0.2797;
3979606986824456;-7.1216;1.3597;0.6691;
3979606996929456;-9.3066;-0.1639;-1.1252;
3979607007037061;-10.8060;-0.3437;-0.3467;
3979607017142061;-9.0694;1.1489;0.9135;
3979607027247061;-8.4706;0.5572;-0.9096;
3979607037348831;-8.3339;-0.4513;-1.5972;
3979607047453884;-7.5266;-0.7555;-3.5231;
3979607057558884;-9.9915;-0.5518;-4.0621;
3979607067656904;-12.6075;0.1259;-1.9397;
3979607077761904;-10.4970;0.3870;-0.8856;
3979607087866852;-10.8299;0.8566;-1.5517;
3979607097983311;-12.9093;0.8734;-2.2080;
3979607108088311;-9.7280;1.5586;0.3769;
3979607118193311;-7.2631;1.0412;-0.5097;
3979607128291123;-8.7099;0.1953;-4.0071;
3979607138396123;-10.5520;-0.1208;-3.6547;
3979607148501123;-8.7218;0.3009;-3.0129;
3979607158618311;-7.8356;0.0637;-3.0535;
3979607168723311;-10.1856;-0.5112;-3.4490;
3979607178828311;-7.6848;-0.3796;-2.4476;
3979607188920706;-7.0020;-0.9808;-2.6417;
3979607199025706;-9.8695;-1.0238;-2.8044;
3979607209130706;-9.2058;-0.6694;-0.7155;
3979607219234977;-8.2980;-0.1567;-3.5806;
3979607229339977;-11.9414;0.0015;-4.6681;
3979607239444977;-10.1785;0.7848;-1.0678;
3979607249553988;-7.6415;0.8662;-1.7910;
3979607259659040;-10.3220;0.5931;-2.3997;
3979607269763988;-11.5176;0.7056;-1.0343;
3979607279893102;-9.2465;0.6697;-0.8641;
3979607289998102;-8.9231;0.7319;-0.2701;
3979607300103102;-9.8910;0.3320;-0.7923;
3979607310194665;-8.6237;0.0900;-0.8952;
3979607320299665;-6.4128;-0.2094;-2.4978;
3979607330404665;-8.3650;-0.3891;-3.4872;
3979607340524248;-10.5903;0.1427;-0.5623;
3979607350629248;-11.4362;0.9835;-0.0114;
3979607360734300;-14.2412;1.0651;-1.2401;
3979607370817738;-12.5764;1.6017;1.3253;
3979607380922738;-7.5984;1.7764;2.2164;
3979607391027738;-8.1829;0.8064;-1.5203;
3979607401116904;-10.9020;0.9236;-3.4513;
3979607411221904;-10.8610;1.6017;-2.8669;
3979607421326852;-9.7711;1.5368;-3.0224;
3979607431445186;-10.3316;1.0340;-2.5002;
3979607441550186;-10.3173;1.4674;-1.6857;
3979607451655186;-9.3281;1.2039;-1.8440;
3979607461748831;-10.0131;0.6218;-2.4811;
3979607471853831;-11.0192;0.8040;-0.0760;
3979607481958831;-8.6931;0.2626;1.5170;
3979607492087269;-7.9531;0.2363;-1.4342;
3979607502192269;-10.3965;0.1810;-4.1626;
3979607512297269;-7.3926;0.3176;-4.8383;
3979607522412425;-6.6667;0.1738;-7.1282;
3979607532517425;-11.3498;0.5118;-7.0229;
3979607542622425;-13.9609;0.8973;-2.6010;
3979607552703311;-13.1034;1.9011;0.8919;
3979607562808311;-11.5056;1.7740;2.1852;
3979607572913311;-9.3760;1.0914;1.4333;
3979607583009665;-7.3493;0.3057;-1.0271;
3979607593114665;-8.6931;-0.3338;-4.0717;
3979607603219665;-9.5533;0.2267;-5.4251;
3979607613335602;-8.3961;-0.5758;-3.5399;
3979607623440602;-5.9001;-0.6479;-2.8594;
3979607633545602;-9.8886;0.2889;-5.7341;
3979607643651227;-11.8600;-0.0081;-3.5207;
3979607653756227;-9.8743;0.3966;1.1530;
3979607663861227;-10.0681;0.9954;0.9422;
3979607673965915;-11.8816;0.4325;0.3167;
3979607684070915;-12.2698;0.9045;0.9709;
3979607694175915;-10.9953;1.4554;-0.4594;
3979607704283102;-8.8490;0.6338;-2.8259;
3979607714388154;-7.4261;0.1977;-5.0372;
3979607724493102;-7.6176;0.2076;-6.3090;
3979607734595290;-9.5076;0.4229;-5.3270;
3979607744700290;-10.6409;0.4086;-2.2869;
3979607754805290;-9.2082;0.3679;0.7409;
3979607764910811;-8.9136;0.7223;0.2450;
3979607775015811;-12.7968;0.9045;-0.3802;
3979607785120811;-10.3606;0.7442;1.7901;
3979607795242998;-7.9436;0.5620;0.9302;
3979607805347998;-10.0804;-0.0849;-2.7805;
3979607815452998;-13.0220;-0.3147;-3.0870;
3979607825548311;-11.6925;0.3990;-1.4821;
3979607835653363;-9.0287;0.8662;-2.7111;
3979607845758363;-9.1077;0.1522;-4.4118;
3979607855867061;-11.0192;0.5166;-4.3974;
3979607865972113;-11.3402;0.7490;-2.3061;
3979607876077113;-9.1866;0.4588;-0.5958;
3979607886176852;-8.9375;0.2841;0.5157;
3979607896281904;-7.7207;-0.4801;1.1746;
3979607906386904;-7.2464;-0.1137;-1.9301;
3979607916480759;-9.9867;-0.3772;-4.2873;
3979607926585759;-8.6931;0.0278;-3.1831;
3979607936690759;-6.5587;0.4086;-3.6571;
3979607946808936;-7.5960;0.0494;-5.3366;
3979607956913988;-9.6036;0.0326;-5.3821;
3979607967018988;-9.2608;0.4636;-3.9568;
3979607977118623;-8.7218;0.7561;-4.1889;
3979607987223675;-9.6203;0.8423;-3.4442;
3979607997328675;-10.3101;1.0412;-1.4103;
3979608007432998;-9.9413;1.2903;-0.6676;
3979608017538050;-10.3965;0.9787;-0.5838;
3979608027643050;-9.4717;1.0747;-0.4738;
3979608037798206;-8.5256;0.3248;-0.3419;
3979608047903206;-8.4368;0.4062;-1.4414;
3979608058008206;-10.5329;0.4926;-2.4643;
3979608068071852;-9.5916;0.3296;-1.3289;
3979608078176904;-6.9661;0.1714;-0.4762;
3979608088281904;-7.6056;-0.2788;-2.3973;
3979608098375186;-8.9088;-0.8010;-2.9267;
3979608108480238;-8.0225;-0.6861;-2.2104;
3979608118585238;-7.2799;-0.6024;-2.5170;
3979608128687165;-7.7997;-0.6191;-2.4356;
3979608138792217;-9.6371;-0.5279;-1.8942;
3979608148897217;-9.4813;0.1235;-0.8426;
3979608159026227;-9.7567;0.1187;-0.5432;
3979608169131227;-11.4529;0.6888;-0.9718;
3979608179236279;-12.3847;0.7992;0.2282;
3979608189318519;-10.1833;1.2422;1.6872;
3979608199423571;-8.9614;0.8758;-0.5743;
3979608209528571;-10.2838;0.6027;-1.9277;
3979608219636071;-8.9303;0.6793;-1.4533;
3979608229741123;-7.5314;0.8877;-2.2080;
3979608239846123;-8.1637;0.4878;-3.2166;
3979608249953415;-8.8920;0.6386;-3.1974;
3979608260058467;-10.0059;0.7152;-2.4308;
3979608270163467;-11.1751;1.1943;-0.3778;
3979608280252790;-9.2178;0.7032;0.4343;
3979608290357790;-8.4248;0.5285;0.3577;
3979608300462790;-7.6729;-0.1783;-0.8689;
3979608310607269;-8.7027;-0.2883;-2.2534;
3979608320712321;-11.8792;0.9835;-2.9291;
3979608330817321;-11.4817;1.3789;-1.0104;
3979608340902269;-9.6682;1.2517;-1.8799;
3979608351007321;-11.7165;1.4770;-3.0870;
3979608361112321;-13.6017;2.1598;-2.2295;
3979608371197998;-11.0551;2.9336;-0.2174;
3979608381302998;-10.5736;2.0255;0.4463;
3979608391407998;-10.0370;0.9763;-0.1071;
3979608401537529;-9.1149;0.9260;-0.9861;
3979608411642581;-9.0168;0.3057;-1.7767;
3979608421747581;-9.6012;0.4878;-2.3061;
3979608431837634;-8.9949;0.2530;-3.0679;
3979608441942686;-10.1593;0.0015;-4.1698;
3979608452047686;-10.3367;-0.0296;-2.6417;
3979608462200342;-8.6094;-0.2022;-1.8440;
3979608472305342;-7.4716;-0.2859;-2.3109;
3979608482410342;-7.4644;-0.8560;-2.3013;
3979608492464092;-8.1975;-0.3147;-3.9326;
3979608502569092;-9.6993;0.0876;-5.6910;
3979608512674092;-10.1306;0.8136;-5.5929;
3979608522785394;-9.2465;0.8351;-3.8369;
3979608532890446;-10.5162;0.8973;-3.0488;
3979608542995446;-10.2144;1.0747;-2.5959;
3979608553096800;-10.5281;0.7944;-2.7326;
3979608563201800;-10.1378;0.4421;-1.4366;
3979608573306800;-8.1374;0.4493;-1.0463;
3979608583425238;-8.3937;-0.2692;-2.3830;
3979608593530290;-8.7290;-0.4681;-2.2822;
3979608603635290;-7.7830;-0.4801;-3.0368;
3979608613738936;-9.6275;-0.7029;-4.5174;
3979608623843988;-11.2062;0.1786;-3.0320;
3979608633948988;-10.8634;0.3368;0.4678;
3979608644045706;-9.1843;0.7056;1.5529;
3979608654150759;-9.8623;0.3990;-0.6293;
3979608664255759;-10.2598;0.2435;-1.4366;
3979608674362738;-8.5041;0.2698;-0.4714;
3979608684467790;-8.2908;0.8830;-1.8057;
3979608694572790;-10.0011;0.2650;-2.9818;
3979608704681540;-10.2861;0.7223;-3.0894;
3979608714786592;-10.7318;1.0627;-2.1482;
3979608724891592;-10.1139;1.3190;-1.4988;
3979608734989248;-9.2465;0.6170;-1.3911;
3979608745094300;-9.8862;0.5189;-0.5121;
3979608755199300;-9.4119;0.2913;-0.7178;
3979608765300029;-10.5712;0.0517;-0.8067;
3979608775405029;-9.8575;0.4038;0.0652;
3979608785510029;-9.7041;-0.1376;-0.5767;
3979608795623519;-10.2909;0.0350;-0.9646;
3979608805728571;-10.2814;0.4253;-2.1242;
3979608815833571;-10.0681;0.5620;-3.5590;
3979608825931019;-8.2908;0.6601;-3.3649;
3979608836036019;-8.8107;0.8566;-3.1591;
3979608846141019;-9.5052;0.6290;-3.2501;
3979608856256331;-9.3401;0.3153;-2.6704;
3979608866361384;-9.6443;0.3033;-2.4906;
3979608876466331;-9.9102;0.7104;-1.9588;
3979608886573415;-8.7939;0.4062;-1.7408;
3979608896678415;-8.8848;0.4735;-2.3399;
3979608906783415;-8.0800;0.2435;-2.0644;
3979608916870081;-8.1111;0.4636;-2.5792;
3979608926975081;-9.4645;0.3870;-3.5088;
3979608937080081;-9.2130;0.4831;-2.3252;
3979608947201071;-6.8991;0.4373;-2.4117;
3979608957306071;-7.8188;0.1187;-3.3960;
3979608967411071;-9.8839;0.6553;-4.6633;
3979608977510081;-11.3330;0.9978;-3.4083;
3979608987615081;-10.1641;0.8016;0.0990;
3979608997720134;-10.4516;1.1154;0.5515;
3979609007828623;-12.2530;1.0002;-0.0449;
3979609017933623;-13.2206;1.0316;0.8462;
3979609028038623;-10.3750;0.6936;1.4716;
3979609038118727;-9.4214;0.4134;-0.6293;
3979609048223727;-10.3292;0.2483;-1.7312;
3979609058328727;-9.7328;0.5022;-1.4318;
3979609068467113;-8.7844;0.4998;-2.4260;
3979609078572061;-9.6826;0.1618;-2.6967;
3979609088677061;-8.7796;0.4998;-1.9253;
3979609098765394;-7.7806;0.0374;-2.0258;
3979609108870394;-8.4778;-0.3218;-1.7527;
3979609118975394;-9.9389;-0.0655;-2.1482;
3979609129085498;-9.7759;0.2219;-2.1745;
3979609139190498;-9.3185;-0.1448;-1.0989;
3979609149295498;-8.0728;0.0948;-1.1803;
3979609159419456;-9.5004;-0.3003;-2.2271;
3979609169524509;-10.1163;0.1475;-2.7470;
3979609179629456;-9.3138;0.4205;-3.5112;
3979609189711488;-8.5328;0.2267;-4.0573;
3979609199816488;-9.0000;1.0101;-5.3246;
3979609209921488;-10.7103;1.0651;-5.0970;
3979609220029352;-10.4300;1.3813;-2.6584;
3979609230134352;-9.3951;1.3789;-1.6235;
3979609240239352;-11.5056;0.8327;-1.4174;
3979609250338571;-11.4984;0.7247;0.3335;
3979609260443571;-9.4167;0.2650;1.2224;
3979609270548571;-8.0895;-0.3891;0.3745;
3979609280651279;-9.6108;-0.1783;-1.2329;
3979609290756331;-10.1617;0.1092;-2.8187;
3979609300861331;-8.3172;0.2530;-2.9195;
3979609311008623;-6.9685;0.2052;-3.1158;
3979609321113623;-8.1230;-0.0320;-4.3902;
3979609331218571;-8.9830;0.1092;-4.2754;
3979609341274248;-8.1350;0.3511;-3.2692;
3979609351379248;-8.7580;0.6697;-2.6680;
3979609361484248;-10.2718;0.7657;-1.7985;
3979609371599248;-10.3292;0.7104;-0.2964;
3979609381704248;-10.8900;1.0962;0.3263;
3979609391809248;-10.6863;0.9476;0.5252;
3979609401915498;-11.2134;0.6745;-0.2031;
3979609412020498;-10.2431;0.6099;-0.2079;
3979609422125498;-9.5653;0.3033;-0.5480;
3979609432223936;-9.7328;0.3368;-1.4773;
3979609442328936;-9.4669;0.7681;-2.4452;
3979609452433936;-9.2201;1.1632;-3.9159;
3979609462527165;-8.4081;1.0484;-3.9568;
3979609472632165;-8.4921;0.8088;-2.8451;
3979609482737165;-10.4922;0.3894;-2.0740;
3979609492858154;-10.6146;0.1259;-0.5121;
3979609502963154;-10.2670;0.4349;0.1038;
3979609513068154;-10.5233;0.5381;0.2115;
3979609523170394;-9.6945;0.5189;0.0102;
3979609533275394;-8.1757;0.4445;-0.6508;
3979609543380394;-7.9217;0.1762;-1.9971;
3979609553507998;-8.5591;0.0661;-3.1062;
3979609563612998;-9.8551;-0.1735;-3.8560;
3979609573717998;-10.3750;0.3033;-4.0167;
3979609583818519;-10.9403;0.7104;-3.4226;
3979609593923519;-9.6371;0.8399;-1.9253;
3979609604028519;-9.9365;0.6793;-1.7025;
3979609614125602;-10.4133;0.8997;-2.6417;
3979609624230602;-9.4908;0.8183;-2.1601;
3979609634335602;-9.2584;0.2794;-0.8713;
3979609644454977;-8.4634;0.2937;-1.4797;
3979609654559977;-9.9461;0.2411;-1.6953;
3979609664664977;-10.3463;0.1810;-1.3169;
3979609674754821;-9.1843;0.6673;-1.7985;
3979609684859821;-8.8753;0.1953;-2.7159;
3979609694964821;-8.8872;-0.0344;-3.1950;
3979609705078727;-9.9006;0.1116;-3.5327;
3979609715183727;-9.0311;0.6170;-2.7470;
3979609725288727;-9.0263;0.4735;-2.7637;
3979609735384352;-10.5305;0.7825;-2.2319;
3979609745489352;-9.4478;1.0603;-0.9742;
3979609755594352;-8.7099;0.3799;-1.1994;
3979609765700706;-10.3415;0.4469;-1.4414;
3979609775805706;-10.6624;0.6745;-1.2691;
3979609785910706;-9.2683;1.3143;-2.6249;
3979609796026956;-9.9987;0.9356;-2.6680;
3979609806132009;-9.5940;1.4985;-1.5661;
3979609816236956;-9.5605;0.9978;-1.5900;
3979609826336436;-8.4320;0.6936;-1.4940;
3979609836441488;-8.9327;0.3464;-2.4930;
3979609846546488;-11.1365;1.1943;-2.6512;
3979609856660394;-10.5473;1.1919;-1.6307;
3979609866765446;-9.7687;1.1249;-1.3337;
3979609876870446;-8.4488;0.7753;-1.3265;
3979609886975498;-9.1747;0.2387;-1.8679;
3979609897080550;-10.9522;0.5740;-1.7288;
3979609907185550;-9.7711;0.5213;-1.0965;
3979609917276331;-9.3520;0.8518;-2.1410;
3979609927381384;-10.5903;0.2913;-1.1348;
3979609937486384;-9.2130;0.1642;-0.6939;
3979609947596852;-8.9255;0.0924;-1.7073;
3979609957701852;-9.4813;-0.1184;-3.7053;
3979609967806904;-9.8432;0.0781;-3.0799;
3979609977909821;-8.8322;0.6147;-2.3686;
3979609988014873;-9.7041;0.1786;-3.0248;
3979609998119873;-10.5018;0.1211;-1.9804;
3979610008220602;-9.9221;0.2578;-0.8928;
3979610018325654;-9.0766;-0.0488;-0.9383;
3979610028430654;-9.3688;0.4540;-2.1553;
3979610038537790;-9.9078;0.3942;-2.3423;
3979610048642842;-9.8527;0.6147;-2.2128;
3979610058747842;-9.3138;0.2578;-2.4212;
3979610068869821;-10.1545;0.2913;-2.4547;
3979610078974821;-9.7807;0.3942;-1.5948;
3979610089079821;-9.4334;0.7968;-2.1410;
3979610099174665;-8.1039;0.2124;-2.2008;
3979610109279717;-6.7528;0.3918;-2.7541;
3979610119384717;-8.3076;-0.0511;-3.9688;
3979610129474352;-8.6309;0.7705;-4.5891;
3979610139579404;-7.8523;0.8136;-3.8752;
3979610149684404;-7.6319;1.1728;-2.9770;
3979610159825081;-10.5999;1.0436;-2.4141;
3979610169930081;-10.7892;0.9978;0.1564;
3979610180035134;-10.6193;1.4985;0.5755;
3979610190112269;-11.2205;1.5610;-0.5121;
3979610200217321;-12.2889;0.9260;0.0676;
3979610210322321;-10.9235;0.7537;0.4247;
3979610220416279;-10.3869;0.2770;0.0293;
3979610230521279;-10.1163;0.4516;-0.6006;
3979610240626279;-9.6299;0.7056;-1.6762;
3979610250732477;-9.6156;0.5405;-3.0703;
3979610260837529;-9.0048;0.2530;-3.2405;
3979610270942529;-9.1196;-0.1424;-2.9698;
3979610281047373;-8.8825;-0.0583;-1.9947;
3979610291152425;-10.0585;0.1427;-1.7503;
3979610301257425;-10.5688;0.5237;-1.3887;
3979610311349092;-9.0694;0.4229;-0.0138;
3979610321454092;-9.1173;-0.0826;0.4606;
3979610331559092;-9.8934;-0.1041;-0.0138;
3979610341678727;-10.0561;0.2363;0.4678;
3979610351783779;-8.8729;-0.0993;-1.3169;
3979610361888779;-9.0909;-0.7005;-2.3830;
3979610372026748;-9.2273;-0.8608;-2.6225;
3979610382131800;-8.8107;-0.5782;-4.8431;
3979610392236800;-9.8360;-0.0081;-5.6240;
3979610402305863;-11.4936;0.2818;-4.9220;
3979610412410863;-10.3340;0.4974;-2.7661;
3979610422515863;-10.9786;0.8830;-1.8870;
3979610432623363;-11.2397;1.6902;-1.4988;
3979610442728363;-10.7198;1.8652;-0.3802;
3979610452833363;-9.0120;0.7609;-0.0975;
3979610462953519;-8.8011;0.8590;-1.0654;
3979610473058571;-8.9351;0.3535;-1.3026;
3979610483163571;-8.9949;0.1164;-2.3133;
3979610493263727;-7.6391;0.8806;-3.5375;
3979610503368779;-7.8284;0.2674;-4.7641;
3979610513473779;-8.2980;0.3799;-4.9460;
3979610523570394;-8.9806;0.4277;-4.0286;
3979610533675446;-9.0048;0.3799;-3.4131;
3979610543780446;-8.6979;1.1943;-3.1663;
3979610553891019;-8.2860;1.0340;-2.7924;
3979610563996019;-8.6309;1.2832;-2.7589;
3979610574101071;-9.3449;0.4469;-1.8272;
3979610584224561;-9.9915;1.1656;-1.9875;
3979610594329613;-8.3937;0.9165;-1.8966;
3979610604434613;-10.3702;0.3320;-2.2558;
3979610614529561;-11.5343;0.3081;-1.3026;
3979610624634613;-10.6672;0.3751;-0.8474;
3979610634739613;-10.3726;0.6721;-1.1204;
3979610644848936;-11.3904;0.2028;0.6042;
3979610654953988;-10.8972;-0.1041;0.5539;
3979610665058988;-10.1330;-0.2237;-1.1874;
3979610675161436;-9.7591;0.1786;-1.8153;
3979610685266488;-9.8982;-0.3075;-1.2473;
3979610695371488;-10.6528;-0.5112;-1.1468;
3979610705461488;-9.9891;-0.6981;-0.3897;
3979610715566540;-8.1111;-1.3208;-0.9550;
3979610725671540;-8.3315;-0.5399;-2.0668;
3979610735774977;-9.4908;-0.9401;-2.1434;
3979610745880029;-11.5104;-1.3256;-1.7934;
3979610755985029;-10.9451;-0.4155;-0.6700;
3979610766106436;-8.5567;-0.9138;0.4199;
3979610776211436;-9.1196;-0.2429;-0.5719;
3979610786316488;-10.2000;-0.6885;-1.0247;
3979610796426123;-10.5162;-0.3099;-1.5781;
3979610806531175;-9.6658;0.1427;-2.3518;
3979610816636175;-9.4406;0.3200;-3.0559;
3979610826727998;-7.6391;0.4807;-3.0703;
3979610836832998;-9.6347;0.7271;-4.0789;
3979610846937998;-10.5544;0.9954;-4.6226;
3979610857044977;-8.3578;1.2494;-4.1291;
3979610867149977;-8.0584;1.0699;-3.3051;
3979610877254977;-11.4075;1.1177;-1.9493;
3979610887354404;-11.1966;0.8495;0.1038;
3979610897459404;-10.3316;0.7490;0.4080;
3979610907564404;-10.2742;-0.0921;0.2450;
3979610917691644;-9.9317;0.0302;0.4654;
3979610927796644;-9.5028;-0.1519;0.0221;
3979610937901644;-10.6911;-0.1950;-0.4424;
3979610947990081;-8.7820;-0.2429;-1.0295;
3979610958095134;-9.5557;-0.3915;-2.1577;
3979610968200081;-11.0743;0.0733;-3.3625;
3979610978301644;-8.7194;0.6817;-2.9004;
3979610988406696;-8.2525;0.8064;-2.8594;
3979610998511644;-7.8906;1.0149;-2.4882;
3979611008611331;-6.9135;0.8327;-3.1014;
3979611018716331;-7.7925;1.8245;-3.7866;
3979611028821331;-8.9375;1.5921;-2.2582;
3979611038915759;-9.1723;2.2579;-2.5074;
3979611049020706;-10.4707;1.6567;-1.5179;
3979611059125706;-10.9570;1.8003;1.0810;
3979611069232165;-11.5846;1.1895;1.8212;
3979611079337217;-11.1440;0.0900;1.8260;
3979611089442217;-10.0875;0.4902;1.3014;
3979611099567581;-9.7950;0.7896;-0.1071;
3979611109672581;-11.1799;0.7944;-1.8966;
3979611119777581;-10.5879;0.8040;-2.7781;
3979611129877165;-8.7532;0.8638;-2.7757;
3979611139982165;-9.9174;1.3932;-2.0521;
3979611150087165;-10.8395;0.6099;-2.9746;
3979611160188102;-10.9929;0.6003;-1.9253;
3979611170293102;-10.4492;1.1608;0.1014;
3979611180398102;-8.8131;0.3559;0.0580;
3979611190493363;-9.2994;-0.1448;-0.9984;
3979611200598311;-9.9078;0.4277;-0.9861;
3979611210703311;-9.1699;0.3870;-0.5145;
3979611220817269;-9.2946;0.1259;-0.9960;
3979611230922321;-8.9590;0.5931;-0.8450;
3979611241027269;-7.6128;0.3607;-0.5240;
3979611251128779;-6.2737;-0.4298;-2.2941;
3979611261233727;-9.1149;0.6864;-3.5518;
3979611271338727;-9.9652;1.2855;-3.7196;
3979611281454352;-8.2238;0.1714;-3.3362;
3979611291559352;-7.1698;1.3143;-4.1841;
3979611301664352;-9.8025;1.8102;-4.0621;
3979611311767790;-11.4123;1.1536;-2.7709;
3979611321872842;-9.9197;1.3190;-1.0702;
3979611331977790;-9.4478;1.2685;-0.4017;
3979611342103311;-11.7236;1.0340;0.5252;
3979611352208311;-10.2431;1.0531;0.2761;
3979611362313311;-10.8658;0.9858;0.1158;
3979611372382842;-11.4793;-0.1759;0.8103;
3979611382487842;-9.3832;0.2483;-1.2906;
3979611392592790;-10.8610;0.5883;-2.0955;
3979611402712061;-10.2694;0.0135;-1.5326;
3979611412817113;-8.9495;0.1690;-2.4667;
3979611422922061;-11.3091;0.4711;-1.8823;
3979611433036852;-10.0537;-0.7627;0.3455;
3979611443141852;-8.7242;-0.0272;-0.8402;
3979611453246852;-9.6371;0.7247;-1.0774;
3979611463348206;-10.2718;0.6362;-0.5049;
3979611473453206;-9.5701;0.9571;-0.5599;
3979611483558206;-9.2755;0.9117;-0.1789;
3979611493653936;-9.1436;0.2626;-0.2797;
3979611503758936;-8.5328;0.8088;-1.4605;
3979611513863936;-7.9603;1.2015;-2.1553;
3979611523968936;-8.3626;0.6362;-3.0129;
3979611534073936;-9.1819;1.6041;-4.0478;
3979611544178988;-7.1530;1.4698;-2.8283;
3979611554277217;-8.8681;1.5754;-3.4394;
3979611564382165;-10.2909;1.3597;-3.2788;
3979611574487165;-9.1555;2.0495;-1.6714;
3979611584618936;-10.5999;1.3621;-0.9670;
3979611594723936;-10.8948;1.9848;-0.2797;
3979611604828936;-10.7222;1.7692;0.0221;
3979611614921227;-11.1317;1.3860;0.0461;
3979611625026227;-9.9748;1.3214;0.0676;
3979611635131227;-10.2526;1.3095;-0.7828;
3979611645245915;-12.2219;0.7729;-1.2930;
3979611655350915;-10.0756;0.1786;-0.6317;
3979611665455915;-9.0670;-0.1208;-1.3481;
3979611675549977;-9.7113;-0.2788;-2.5457;
3979611685655029;-11.0504;0.2052;-2.6895;
3979611695759977;-10.0899;-0.1304;-1.8344;
3979611705865654;-9.0981;-0.3796;-1.0558;
3979611715970706;-9.9724;-0.2285;-0.7971;
3979611726075654;-10.6289;0.5453;-0.9239;
3979611736178727;-9.7639;-0.1950;-0.5480;
3979611746283727;-9.6921;0.1211;-0.3108;
3979611756388727;-10.0899;-0.4490;0.1684;
3979611766476852;-9.4334;-0.5183;0.0078;
3979611776581904;-9.0838;-0.4466;-1.0965;
3979611786686904;-9.9939;-0.5303;-1.3409;
3979611796813311;-10.0561;0.0087;-0.9215;
3979611806918363;-9.3784;-0.5160;-1.5852;
3979611817023311;-10.1856;0.0685;-1.7886;
3979611827118415;-9.7663;0.4950;-1.6834;
3979611837223415;-9.7998;0.0876;-2.0716;
3979611847328467;-9.1771;0.8471;-2.3782;
3979611857435290;-9.1866;0.5046;-2.8331;
3979611867540342;-11.1799;1.2613;-3.2788;
3979611877645342;-11.1966;1.3095;-1.8511;
3979611887757165;-10.0780;0.6362;-1.4294;
3979611897862165;-9.1029;1.6950;-1.4246;
3979611907967165;-9.6562;0.7056;-1.7961;
3979611918062061;-9.8145;1.2855;-3.0966;
3979611928167061;-9.6849;0.9571;-2.1745;
3979611938272061;-9.1316;0.9117;-2.7326;
3979611948371123;-8.6094;1.2808;-3.1134;
3979611958476123;-9.1866;0.5070;-2.3710;
3979611968581123;-8.2454;1.0699;-2.6871;
3979611978696227;-8.5448;0.2124;-2.4523;
3979611988801227;-10.4563;0.5692;-2.6417;
3979611998906227;-10.7127;0.8040;-0.8282;
3979612009022477;-8.9662;-0.0849;-0.1789;
3979612019127477;-8.9495;0.2339;-0.7516;
3979612029232477;-10.1904;-0.2979;-0.3203;
3979612039339717;-10.0131;0.4445;-1.8081;
3979612049444717;-10.6313;-0.5231;-0.3179;
3979612059549769;-10.4324;0.4421;-1.1157;
3979612069625550;-9.6395;0.2315;-0.7732;
3979612079730498;-10.3101;0.0565;-1.3983;
3979612089835498;-10.3244;0.2339;-1.8488;
3979612099963936;-9.9700;0.0829;-0.9885;
3979612110068936;-10.3053;0.7370;-1.9851;
3979612120173936;-10.9140;-0.2979;-0.7804;
3979612130262790;-9.2898;0.8375;-0.7588;
3979612140367790;-8.8394;-0.2644;-1.1372;
3979612150472790;-9.2082;0.4277;-1.8416;
3979612160574561;-9.9126;0.0111;-2.6752;
3979612170679561;-10.0899;0.4711;-2.1290;
3979612180784613;-8.2813;0.5285;-1.9062;
3979612190905238;-10.6146;0.2602;-1.7503;
3979612201010238;-10.2383;0.6769;-0.7540;
3979612211115238;-8.8968;-0.3290;-0.6987;
3979612221196384;-9.1938;0.4902;-0.6724;
3979612231301384;-10.1665;-0.3748;-0.2222;
3979612241406384;-9.5219;0.4926;-1.8081;
3979612251531956;-9.3401;-0.6144;0.3936;
3979612261636956;-9.4167;-0.5806;-1.6977;
3979612271741956;-9.7831;-1.1653;-1.1755;
3979612281815811;-10.6887;-0.4705;-1.4749;
3979612291920811;-9.6730;-1.1749;-0.9766;
3979612302025811;-9.4908;-0.3532;-1.7934;
3979612312152894;-9.2755;-0.8345;-1.0056;
3979612322257894;-10.4276;0.2148;-2.2319;
3979612332362894;-9.2536;-0.1854;-1.6738;
3979612342487581;-9.8336;0.0111;-1.8655;
3979612352592581;-9.0526;0.3272;-2.5935;
3979612362697581;-9.0311;0.0446;-2.8259;
3979612372785394;-10.1856;0.7513;-2.5074;
3979612382890394;-10.2215;0.5931;-1.7432;
3979612392995394;-8.7242;0.6936;-1.4844;
3979612403106019;-9.6706;0.6769;-1.6786;
3979612413211019;-9.1531;0.8830;-1.1324;
3979612423316019;-9.2130;0.8303;-1.3169;
3979612433407894;-8.9112;0.9356;-1.6307;
3979612443512894;-9.5195;1.0507;-2.0258;
3979612453617894;-9.9078;1.1680;-2.0617;
3979612463738311;-9.8264;1.2470;-1.3720;
3979612473843311;-8.4873;1.0986;-1.2353;
3979612483948311;-9.3760;1.0172;-1.6068;
3979612494052269;-10.1665;1.0316;-1.9038;
3979612504157269;-10.3391;1.2087;-1.1515;
3979612514262321;-9.4047;1.1608;-1.3122;
3979612524352165;-9.9150;1.3167;-1.1157;
3979612534457165;-9.5940;1.1441;-1.1994;
3979612544562165;-10.4970;1.2517;-1.5494;
3979612554690811;-9.4525;0.7681;-1.1228;
3979612564795811;-9.8169;0.8686;-1.6546;
3979612574900811;-9.5916;0.2770;-1.4605;
3979612585004977;-9.6873;0.8686;-2.3949;
3979612595109977;-9.6227;0.1307;-2.0692;
3979612605214977;-9.9844;0.6218;-2.6130;
3979612615304248;-9.9078;0.0637;-1.7121;
3979612625409248;-9.2898;0.3392;-2.0955;
3979612635514248;-9.2321;0.3727;-1.7623;
3979612645629144;-9.3449;0.0350;-1.8966;
3979612655734144;-8.8202;0.0709;-1.9899;
3979612665839144;-9.8791;-0.5207;-2.5217;
3979612675935081;-10.4827;0.5764;-1.5829;
3979612686040081;-8.4535;-0.2189;-0.9383;
3979612696145081;-9.9700;0.4831;-1.7910;
3979612706247998;-9.8456;-0.2812;-1.1922;
3979612716352998;-10.6241;1.1417;-1.4773;
3979612726457998;-8.7724;-0.1472;-1.1180;
3979612736563831;-9.3353;0.8040;-2.3303;
3979612746668831;-11.0623;0.0374;-2.3375;
3979612756773831;-11.1416;1.5443;-1.4773;
3979612766884561;-8.4730;0.7585;-0.9263;
3979612776989561;-9.8169;1.0651;-2.0067;
3979612787094613;-9.3712;0.6888;-1.7240;
3979612797206540;-10.5760;1.0747;-1.7671;
3979612807311592;-9.0766;0.8495;-1.3911;
3979612817416540;-9.1555;0.7128;-2.0019;
3979612827501748;-10.4755;1.1752;-2.2917;
3979612837606800;-9.3138;0.8112;-1.3265;
3979612847711696;-9.4693;1.2398;-1.9540;
3979612857827686;-8.6477;0.0254;-1.9804;
3979612867932686;-9.9317;0.7657;-2.0716;
3979612878037634;-9.6993;-0.2189;-2.3734;
3979612888137113;-10.9283;1.0026;-2.3590;
3979612898242061;-8.6596;0.2124;-1.2858;
3979612908347009;-9.4071;0.8853;-2.1266;
3979612918450706;-10.2383;0.2818;-2.2582;
3979612928555706;-10.4420;0.6936;-1.6977;
3979612938660654;-9.9676;0.8279;-1.6116;
3979612948774873;-8.3339;0.5070;-1.4892;
3979612958879873;-9.5462;0.7032;-2.5768;
3979612968984821;-10.6023;0.1355;-1.9684;
3979612979089040;-9.5291;1.0364;-1.5374;
3979612989194092;-8.6788;-0.2357;-1.9277;
3979612999298988;-10.0923;0.1594;-2.1362;
3979613009398154;-9.0670;-0.5758;-1.6140;
3979613019503154;-9.2154;-0.0969;-1.8894;
3979613029608102;-9.4406;-0.3796;-2.5528;
3979613039733415;-8.9686;-0.4202;-2.2845;
3979613049838415;-9.6826;0.0182;-3.7842;
3979613059943363;-10.5281;-0.3676;-2.9387;
3979613070031071;-9.7113;0.9930;-2.0043;
3979613080136019;-8.7413;0.2770;-1.5613;
3979613090241019;-10.2503;0.7825;-2.0234;
3979613100333571;-9.6730;0.2387;-2.1338;
3979613110438571;-9.9269;0.4038;-1.7408;
3979613120543519;-8.9758;0.2674;-1.5685;
3979613130654352;-9.8336;-0.1184;-1.8631;
3979613140759404;-9.6945;0.2770;-2.0282;
3979613150864352;-9.0909;-0.6072;-1.9516;
3979613161048154;-10.1139;0.2363;-2.2510;
3979613171153154;-8.8083;-0.5782;-2.0354;
3979613181258102;-9.1316;0.5189;-2.3806;
3979613191271175;-9.2707;-0.4035;-2.3157;
3979613201376123;-9.9844;0.4516;-2.8164;
3979613211481123;-10.2191;0.4974;-1.5805;
3979613221611436;-9.0598;0.4759;-1.2787;
3979613231716436;-9.6897;1.2879;-2.2463;
3979613241821384;-10.1402;0.1068;-1.6905;
3979613251918831;-10.0107;1.3908;-1.7527;
3979613262023831;-9.5653;0.5716;-1.8081;
3979613272128779;-9.3664;1.0172;-2.1075;
3979613282247581;-9.1029;1.1225;-2.1314;
3979613292352581;-11.1416;0.2650;-3.0033;
3979613302457529;-10.0083;1.0220;-1.6020;
3979613312536904;-8.6979;0.7705;-1.4246;
3979613322641904;-10.0514;1.4411;-1.8392;
3979613332746852;-9.2656;-0.5590;-1.5565;
3979613342862686;-9.6515;-0.1831;-2.4021;
3979613352967686;-9.4430;0.0972;-1.8870;
3979613363072634;-9.6969;-0.9832;-1.8488;
3979613373179977;-9.0503;-0.1783;-2.6991;
3979613383284977;-9.7567;-1.0071;-1.5060;
3979613393389925;-10.7198;-0.2429;-2.1601;
3979613403502061;-9.3018;-0.7603;-0.5240;
3979613413607061;-10.4013;-0.7149;-1.4486;
3979613423712009;-10.5401;-0.9185;-0.9598;
3979613433803571;-9.7041;-1.3161;-0.7804;
3979613443908571;-11.1392;-0.4992;-1.5685;
3979613454013519;-8.5161;-0.6479;-0.5647;
3979613464125394;-8.4248;-0.3338;-3.1926;
3979613474230394;-8.8968;0.1499;-2.9770;
3979613484335342;-9.4908;0.0015;-3.6236;
3979613494436644;-8.9303;0.2913;-3.7316;
3979613504541644;-7.7399;0.2913;-2.5672;
3979613514646592;-7.7973;0.4134;-4.8144;
3979613524749352;-10.1665;1.0484;-3.2859;
3979613534854352;-10.6768;1.7548;-2.8020;
3979613544959300;-8.8346;1.5514;-2.1170;
3979613555045759;-9.8192;1.0531;-1.5203;
3979613565150654;-9.0072;1.8748;-2.6010;
3979613575255602;-9.3449;1.1297;-1.8846;
3979613585360602;-11.1488;1.9083;-3.1325;
3979613595499561;-9.9102;1.8365;-1.9612;
3979613605604561;-9.2656;1.7453;-2.2774;
3979613615709509;-9.0000;2.0904;-2.8355;
3979613625804665;-10.5401;1.2951;-2.2893;
3979613635909665;-10.2215;1.5200;-3.4059;
3979613646014613;-10.0732;0.4205;-2.0402;
3979613656121852;-9.2707;0.2985;-2.7709;
3979613666226904;-9.0048;-0.4537;-2.2917;
3979613676331800;-9.3281;-0.4202;-2.0569;
3979613686436540;-8.9806;0.0685;-3.0176;
3979613696541540;-9.9078;-0.5112;-1.8368;
3979613706646488;-9.1555;0.3129;-2.8140;
3979613716747321;-9.3449;0.1810;-2.1218;
3979613726852321;-10.0059;0.6553;-2.9267;
3979613736971071;-9.7161;0.4277;-2.3447;
3979613747076019;-9.7639;0.2722;-1.9397;
3979613757180967;-9.5964;0.5812;-2.4141;
3979613767272998;-10.5951;0.0087;-2.0593;
3979613777377998;-8.5017;0.6793;-2.3877;
3979613787482946;-9.6419;0.2554;-2.4428;
3979613797606696;-10.3511;0.9787;-3.5399;
3979613807711644;-9.6826;0.7080;-2.6321;
3979613817816592;-9.4406;0.5213;-2.4882;
3979613827897998;-8.3291;1.2784;-3.4035;
3979613838003050;-11.2851;0.7825;-2.8259;
3979613848107998;-9.5677;0.8877;-2.0569;
3979613858221331;-8.4778;0.7537;-1.3887;
3979613868326331;-9.3832;0.8662;-2.3686;
3979613878431279;-9.9006;0.3727;-1.6810;
3979613888533311;-9.7352;0.6242;-1.5251;
3979613898638311;-7.6247;1.0771;-2.3471;
3979613908743259;-9.7280;0.7513;-3.0823;
3979613918827998;-9.7687;1.6807;-4.6346;
3979613928932998;-9.8982;1.0149;-3.1301;
3979613939037946;-7.5888;1.0460;-4.0765;
3979613949159561;-9.9724;1.0220;-4.1770;
3979613959264561;-10.9977;0.8255;-3.1902;
3979613969369509;-8.8896;1.2302;-2.9387;
3979613979473415;-10.5664;0.6769;-2.1529;
3979613989578415;-8.6572;0.8925;-2.2223;
3979613999683363;-10.4827;0.4564;-2.2391;
3979614009789665;-9.0311;0.7848;-2.4523;
3979614019894665;-10.2574;0.7657;-2.6321;
3979614029999613;-8.3028;0.6386;-2.7805;
3979614040095394;-9.8599;0.9141;-4.0071;
3979614050200394;-10.0179;0.1427;-3.5303;
3979614060305342;-9.3114;0.2818;-3.5806;
3979614070427061;-9.4837;0.1211;-3.1253;
3979614080532061;-9.0191;-0.0009;-3.1854;
3979614090637009;-9.9987;-0.3003;-2.9291;
3979614100727842;-8.4607;-0.2429;-2.7589;
3979614110832842;-10.1091;-0.5399;-2.7446;
3979614120937790;-8.4488;0.0565;-2.8499;
3979614131036384;-9.5653;-0.1807;-3.1950;
3979614141141331;-9.0287;-0.0631;-3.0105;
3979614151246331;-9.9413;-0.1783;-3.6933;
3979614161350550;-8.1063;0.4564;-3.4346;
3979614171455550;-8.1924;0.7152;-4.1315;
3979614181560498;-9.6060;1.1728;-4.5628;
3979614191671644;-9.5172;1.3454;-3.9206;
3979614201776644;-8.5352;1.9011;-3.5303;
3979614211881592;-7.9292;1.8700;-3.4059;
3979614221981956;-9.9102;1.6783;-3.3290;
3979614232086956;-8.2860;1.9801;-3.0224;
3979614242191904;-8.9542;2.2651;-3.8991;
3979614252298102;-9.3114;2.0761;-3.5590;
3979614262403102;-9.0263;1.9944;-3.5183;
3979614272508050;-9.4023;2.4209;-3.9425;
3979614282636748;-10.3750;2.4066;-3.6069;
3979614292741748;-8.9447;2.4879;-2.4380;
3979614302846696;-8.5639;1.8293;-2.8259;
3979614312925081;-8.5232;1.9801;-3.4968;
3979614323030081;-9.6586;1.8604;-4.2323;
3979614333135029;-8.4583;1.7429;-3.8130;
3979614343262581;-8.7461;1.7022;-4.1387;
3979614353367581;-9.8599;1.1512;-4.0956;
3979614363472529;-9.0072;0.4902;-3.4059;
3979614373571644;-8.9064;0.3368;-2.8789;
3979614383676644;-8.4081;0.0661;-3.3745;
3979614393781644;-10.1306;-0.1400;-2.9219;
3979614403888831;-9.6945;-0.5566;-2.6489;
3979614413993831;-9.0574;-0.3218;-2.8164;
3979614424098779;-8.4057;-0.3915;-2.9315;
3979614434194144;-10.7868;-0.1280;-3.3386;
3979614444299144;-9.7902;0.2578;-3.6404;
3979614454404092;-7.8691;0.1642;-2.6536;
3979614464518519;-7.9241;0.4086;-3.7268;
3979614474623519;-11.1030;0.0182;-4.5867;
3979614484728467;-10.7749;0.9978;-3.8369;
3979614494834509;-8.3291;1.5248;-1.8009;
3979614504939456;-8.0728;0.5716;-3.9903;
3979614515044404;-11.9489;1.2808;-3.1998;
3979614525151904;-9.9221;1.6878;-3.0583;
3979614535256904;-7.9627;2.0710;-3.2620;
3979614545361852;-8.2573;1.5419;-3.7603;
3979614555434040;-11.9800;2.0734;-5.3821;
3979614565538988;-8.4224;2.8089;-3.1301;
3979614575643936;-6.7265;2.7802;-4.5796;
3979614585748884;-7.4788;0.9500;-5.1760;
3979614595888571;-8.7317;1.6783;-6.0841;
3979614605993519;-7.6777;0.4301;-5.0324;
3979614616098467;-8.4368;1.0795;-6.1128;
3979614626206123;-10.6744;0.5070;-3.8369;
3979614636311123;-9.9006;0.9069;-3.9951;
3979614646416071;-8.6501;0.4205;-1.3863;
3979614656519873;-8.5591;-0.5183;-2.8717;
3979614666624873;-10.2790;-0.5901;-2.5720;
3979614676729821;-8.7676;-0.9018;-2.9004;
3979614686827061;-8.7147;-0.8369;-4.0143;
3979614696932113;-9.1244;-1.7521;-3.9302;
3979614707037009;-9.4549;-0.3242;-4.4958;
3979614717146488;-7.5912;-1.9558;-4.4189;
3979614727251488;-10.1641;-0.2907;-5.0492;
3979614737356436;-9.5438;-1.0549;-3.9111;
3979614747459561;-8.6740;-0.9353;-3.9832;
3979614757564561;-10.0442;-0.2309;-3.1086;
3979614767669509;-9.8264;-0.2381;-2.7517;
3979614777773154;-10.4109;0.5046;-3.1205;
3979614787878102;-8.8920;-0.2261;-2.3662;
3979614797983102;-8.9016;0.1331;-2.8789;
3979614808083571;-10.3173;-0.2835;-4.1076;
3979614818188519;-10.9977;-0.0921;-3.5638;
3979614828293519;-9.4119;0.9093;-3.2501;
3979614838391540;-7.9484;0.2746;-2.7805;
3979614848496488;-8.9471;0.7585;-3.6308;
3979614858601436;-9.5390;0.4974;-3.8967;
3979614868733779;-8.7099;1.1441;-2.8140;
3979614878838727;-7.8093;1.1225;-2.6154;
