Sensor: bmi160 Gyroscope Non-wakeup
Vendor: BOSCH
TimestampGyro [ns]; GyroX [rad/s]; GyroY [rad/s]; GyroZ [rad/s]
258613894033367;-0.3798;-0.0056;-0.0121;
258613899078888;-0.3734;-0.0056;-0.0196;
258613904139930;-0.3595;0.0189;-0.0100;
258613909196700;-0.3201;0.0274;-0.0025;
258613914247534;-0.2541;0.0146;-0.0047;
258613919297221;-0.1667;-0.0003;-0.0036;
258613924358367;-0.0730;-0.0035;-0.0025;
258613929417794;0.0133;-0.0067;-0.0025;
258613934460346;0.0858;-0.0152;-0.0036;
258613939522742;0.1262;-0.0237;-0.0057;
258613944573628;0.1358;-0.0248;-0.0057;
258613949676075;0.1177;-0.0109;-0.0079;
258613954678107;0.0858;-0.0035;-0.0100;
258613959706753;0.0421;-0.0067;-0.0111;
258613964783107;-0.0005;-0.0088;-0.0121;
258613969833575;-0.0314;0.0040;-0.0111;
258613974889461;-0.0453;0.0200;-0.0057;
258613979924669;-0.0453;0.0232;-0.0036;
258613984986805;-0.0282;0.0093;-0.0057;
258613990036753;-0.0059;-0.0088;-0.0057;
258613995107586;0.0154;-0.0120;-0.0057;
258614000174669;0.0261;-0.0035;-0.0057;
258614005215086;0.0304;0.0083;-0.0036;
258614010258159;0.0314;0.0083;-0.0036;
258614015323419;0.0272;-0.0003;-0.0047;
258614020380034;0.0250;-0.0067;-0.0036;
258614025433315;0.0186;-0.0035;-0.0025;
258614030491700;0.0080;0.0104;0.0017;
258614035530138;0.0037;0.0178;0.0017;
258614040597898;0.0112;0.0178;0.0017;
258614045649930;0.0325;0.0146;0.0007;
258614050708003;0.0687;0.0125;0.0007;
258614055745242;0.1103;0.0093;-0.0015;
258614060810242;0.1529;-0.0067;-0.0047;
258614065880867;0.1774;-0.0269;-0.0068;
258614070913680;0.1836;-0.0216;-0.0057;
258614075960555;0.1752;-0.0077;-0.0025;
258614081018471;0.1443;-0.0013;-0.0015;
258614086065815;0.0943;-0.0067;-0.0025;
258614091116857;0.0442;-0.0077;-0.0015;
258614096179825;-0.0048;0.0019;0.0017;
258614101238263;-0.0463;0.0157;0.0017;
258614106287221;-0.0676;0.0200;0.0017;
258614111336232;-0.0666;0.0178;0.0017;
258614116399825;-0.0421;0.0157;0.0028;
258614121442482;0.0037;0.0104;0.0007;
258614126501023;0.0613;0.0040;-0.0004;
258614131559513;0.1145;-0.0013;0.0017;
258614136618471;0.1624;-0.0035;0.0049;
258614141666388;0.1911;-0.0024;0.0017;
258614146721544;0.1943;-0.0045;0.0039;
258614151776180;0.1742;-0.0109;0.0017;
258614156829617;0.1358;-0.0173;0.0017;
258614161884357;0.0847;-0.0088;0.0017;
258614166933055;0.0208;0.0008;0.0017;
258614171994513;-0.0453;0.0019;0.0017;
258614177044930;-0.1017;-0.0003;0.0007;
258614182095555;-0.1422;0.0051;0.0017;
258614187156492;-0.1667;0.0200;0.0017;
258614192206492;-0.1699;0.0242;0.0039;
258614197265659;-0.1390;0.0115;0.0039;
258614202316805;-0.0879;0.0019;0.0017;
258614207369825;-0.0357;-0.0045;0.0039;
258614212428940;0.0176;-0.0003;0.0049;
258614217480607;0.0687;0.0051;0.0071;
258614222534513;0.1145;0.0061;0.0060;
258614227585138;0.1454;-0.0035;0.0071;
258614232637638;0.1678;-0.0024;0.0060;
258614237693680;0.1826;0.0072;0.0092;
258614242750242;0.1921;0.0104;0.0092;
258614247829409;0.1943;0.0040;0.0081;
258614252861805;0.1953;-0.0013;0.0071;
258614257933419;0.1889;-0.0077;0.0071;
258614262983003;0.1731;-0.0152;0.0060;
258614268015763;0.1390;-0.0173;0.0060;
258614273094565;0.0964;-0.0045;0.0049;
258614278143836;0.0527;0.0072;0.0049;
258614283200815;0.0080;0.0008;0.0028;
258614288213888;-0.0293;-0.0067;0.0007;
258614293311700;-0.0602;-0.0067;-0.0004;
258614298364669;-0.0815;0.0008;0.0039;
258614303418367;-0.0932;0.0093;0.0060;
258614308443992;-0.0889;0.0200;0.0060;
258614313513367;-0.0698;0.0242;0.0060;
258614318559565;-0.0250;0.0200;0.0060;
258614323647482;0.0399;0.0178;0.0060;
258614328691440;0.1145;0.0146;0.0039;
258614333725450;0.1953;0.0051;0.0071;
258614338779096;0.2667;-0.0045;0.0049;
258614343836805;0.3221;-0.0035;0.0049;
258614348906284;0.3594;-0.0003;0.0039;
258614353947221;0.3775;-0.0024;0.0039;
258614359028055;0.3679;-0.0067;0.0039;
258614364051180;0.3487;0.0008;0.0017;
258614369156388;0.3189;0.0093;0.0007;
258614374160190;0.2731;0.0509;0.0017;
258614379223055;0.1497;0.1563;0.0113;
258614384268471;-0.0165;0.1073;0.0071;
258614389312690;-0.0698;-0.0461;-0.0111;
258614394377534;-0.0101;-0.0493;-0.0100;
258614399432117;0.0431;0.0700;0.0007;
258614404483523;0.0985;0.1095;0.0071;
258614409572742;0.1305;0.0498;0.0028;
258614414596648;0.0836;0.0274;0.0017;
258614419642690;0.0176;0.0509;0.0071;
258614424703315;-0.0059;0.0157;0.0049;
258614429778992;0.0005;-0.0344;0.0039;
258614434808263;0.0165;-0.0109;0.0113;
258614439872742;0.0336;0.0221;0.0209;
258614444918992;0.0538;0.0061;0.0241;
258614449970190;0.0676;-0.0152;0.0294;
258614455017950;0.0730;-0.0035;0.0390;
258614460093680;0.0836;0.0051;0.0465;
258614465139096;0.1081;-0.0045;0.0518;
258614470207273;0.1241;-0.0067;0.0593;
258614475248055;0.1326;0.0072;0.0688;
258614480294825;0.1401;0.0072;0.0774;
258614485354721;0.1411;-0.0056;0.0816;
258614490440190;0.1379;-0.0056;0.0901;
258614495464305;0.1369;-0.0013;0.0965;
258614500515867;0.1379;-0.0067;0.1040;
258614505570242;0.1465;-0.0088;0.1104;
258614510643836;0.1539;0.0019;0.1200;
258614515700086;0.1603;0.0072;0.1264;
258614520751961;0.1667;0.0072;0.1338;
258614525806440;0.1678;0.0072;0.1381;
258614530863419;0.1646;0.0104;0.1434;
258614535914773;0.1656;0.0083;0.1509;
258614540966440;0.1667;0.0115;0.1583;
258614546021336;0.1656;0.0157;0.1626;
258614551077586;0.1635;0.0168;0.1668;
258614556130034;0.1635;0.0093;0.1732;
258614561169200;0.1667;0.0061;0.1796;
258614566227430;0.1656;0.0061;0.1871;
258614571285034;0.1731;0.0083;0.1935;
258614576335659;0.1836;0.0072;0.2009;
258614581389773;0.2028;0.0072;0.2095;
258614586442950;0.2134;0.0146;0.2169;
258614591502117;0.2241;0.0189;0.2190;
258614596550450;0.2316;0.0178;0.2212;
258614601605190;0.2305;0.0178;0.2254;
258614606654721;0.2241;0.0168;0.2276;
258614611717430;0.2188;0.0178;0.2297;
258614616768992;0.2156;0.0232;0.2308;
258614621823471;0.2124;0.0285;0.2329;
258614626880034;0.2060;0.0381;0.2329;
258614631932690;0.1911;0.0360;0.2329;
258614636984513;0.1731;0.0296;0.2308;
258614642045971;0.1539;0.0253;0.2297;
258614647113055;0.1369;0.0285;0.2297;
258614652147846;0.1252;0.0306;0.2265;
258614657202690;0.1113;0.0338;0.2244;
258614662256180;0.0943;0.0338;0.2222;
258614667309200;0.0719;0.0317;0.2180;
258614672361180;0.0474;0.0296;0.2137;
258614677420659;0.0240;0.0253;0.2084;
258614682474513;0.0037;0.0253;0.2041;
258614687537846;-0.0080;0.0253;0.1999;
258614692582638;-0.0123;0.0274;0.1945;
258614697633471;-0.0123;0.0328;0.1945;
258614702697846;-0.0133;0.0370;0.1913;
258614707745867;-0.0144;0.0360;0.1871;
258614712795607;-0.0176;0.0328;0.1860;
258614717854096;-0.0197;0.0296;0.1828;
258614722961753;-0.0218;0.0306;0.1807;
258614727975659;-0.0229;0.0349;0.1764;
258614733017221;-0.0240;0.0381;0.1732;
258614738069513;-0.0272;0.0381;0.1700;
258614743141544;-0.0368;0.0296;0.1647;
258614748194148;-0.0463;0.0200;0.1658;
258614753248419;-0.0453;0.0189;0.1658;
258614758303836;-0.0325;0.0253;0.1679;
258614763356440;-0.0154;0.0306;0.1711;
258614768390659;-0.0048;0.0328;0.1732;
258614773464253;0.0037;0.0360;0.1722;
258614778520607;0.0048;0.0296;0.1732;
258614783578836;0.0048;0.0221;0.1732;
258614788637586;0.0123;0.0189;0.1732;
258614793683419;0.0304;0.0200;0.1754;
258614798736023;0.0453;0.0274;0.1775;
258614803793107;0.0570;0.0338;0.1807;
258614808810711;0.0698;0.0328;0.1839;
258614813888159;0.0740;0.0296;0.1871;
258614818996075;0.0751;0.0253;0.1892;
258614823989305;0.0794;0.0253;0.1892;
258614829050815;0.0836;0.0253;0.1924;
258614834101596;0.0879;0.0242;0.1977;
258614839152430;0.0911;0.0253;0.2020;
258614844211180;0.0911;0.0285;0.2031;
258614849256805;0.0889;0.0274;0.2052;
258614854316492;0.0815;0.0253;0.2073;
258614859382950;0.0751;0.0242;0.2084;
258614864428888;0.0730;0.0242;0.2148;
258614869489930;0.0730;0.0232;0.2190;
258614874535867;0.0772;0.0242;0.2222;
258614879627846;0.0826;0.0253;0.2276;
258614884639200;0.0921;0.0253;0.2340;
258614889692169;0.1039;0.0328;0.2425;
258614894751700;0.1124;0.0360;0.2478;
258614899812378;0.1209;0.0338;0.2499;
258614904861700;0.1262;0.0274;0.2585;
258614909909409;0.1294;0.0210;0.2638;
258614914967221;0.1465;0.0104;0.2563;
258614920035919;0.1124;-0.0706;0.2265;
258614925077430;-0.0964;0.0072;0.2883;
258614930126857;-0.0953;0.1915;0.3043;
258614935186180;-0.0964;-0.1100;0.2659;
258614940274461;-0.0666;-0.1696;0.2755;
258614945293263;0.0410;0.1553;0.3234;
258614950379357;0.0911;0.1457;0.3373;
258614955403680;0.1635;0.0285;0.3224;
258614960476023;0.1571;0.0360;0.3479;
258614965511700;0.1443;0.1148;0.3650;
258614970596857;0.1816;0.0626;0.3650;
258614975622846;0.2337;0.0509;0.3831;
258614980691648;0.2742;0.1734;0.4172;
258614985731023;0.2656;0.1616;0.4300;
258614990784825;0.2209;0.0413;0.4300;
258614995839773;0.1656;0.0232;0.4565;
258615000909357;0.1230;0.0796;0.4820;
258615005961336;0.0964;0.0328;0.4927;
258615011017169;0.1241;-0.0162;0.5086;
258615016075398;0.1889;0.0487;0.5395;
258615021127690;0.2497;0.1212;0.5694;
258615026180711;0.2933;0.1052;0.5875;
258615031233419;0.3083;0.0722;0.6056;
258615036289669;0.3093;0.0903;0.6237;
258615041344253;0.2923;0.0988;0.6375;
258615046396909;0.2539;0.1052;0.6557;
258615051453419;0.2081;0.1318;0.6716;
258615056503315;0.1497;0.1265;0.6812;
258615061552846;0.0783;0.1084;0.6972;
258615066600607;0.0037;0.1190;0.7121;
258615071648367;-0.0687;0.1020;0.7292;
258615076696128;-0.1103;0.0967;0.7430;
258615081743888;-0.1262;0.1276;0.7611;
258615086791648;-0.1316;0.1585;0.7792;
258615091870190;-0.1369;0.1734;0.7941;
258615096917950;-0.1603;0.1776;0.8069;
258615101965711;-0.1859;0.1893;0.8250;
258615107013471;-0.2008;0.1851;0.8367;
258615112061232;-0.1997;0.1616;0.8421;
258615117108992;-0.2104;0.1787;0.8548;
258615122184148;-0.2232;0.2106;0.8580;
258615127231909;-0.2359;0.1435;0.8378;
258615132279669;-0.1891;0.2160;0.8708;
258615137327430;-0.2935;0.2755;0.9294;
258615142375190;-0.5373;0.1755;0.9763;
258615147422950;-0.7130;0.0200;0.9912;
258615152522534;-0.7525;-0.0514;0.9976;
258615157570294;-0.6172;0.1201;1.0146;
258615162618055;-0.4371;0.2957;1.0402;
258615167665815;-0.3467;0.3394;1.0455;
258615172713575;-0.3947;0.2851;1.0497;
258615177761336;-0.5138;0.1680;1.0592;
258615182847638;-0.6055;0.0818;1.0678;
258615187895398;-0.6097;0.1329;1.0912;
258615192943159;-0.5373;0.2979;1.1264;
258615197990919;-0.4393;0.4023;1.1594;
258615203038680;-0.3766;0.3746;1.1807;
258615208086440;-0.3851;0.3075;1.1892;
258615213170763;-0.4499;0.2607;1.2041;
258615218218523;-0.5234;0.1968;1.2158;
258615223266284;-0.5618;0.1382;1.2297;
258615228314044;-0.5447;0.1563;1.2499;
258615233361805;-0.5128;0.2320;1.2712;
258615238409565;-0.4734;0.2872;1.2904;
258615243496284;-0.4478;0.2787;1.3032;
258615248544044;-0.4531;0.2415;1.3096;
258615253591805;-0.4648;0.2117;1.3170;
258615258639565;-0.4723;0.1925;1.3245;
258615263687325;-0.4659;0.2043;1.3319;
258615268735138;-0.4542;0.2415;1.3437;
258615273838784;-0.4467;0.2682;1.3511;
258615278886544;-0.4435;0.2618;1.3564;
258615283934305;-0.4510;0.2362;1.3586;
258615288982065;-0.4830;0.2213;1.3596;
258615294029825;-0.5351;0.2181;1.3575;
258615299077586;-0.5905;0.2106;1.3511;
258615304146023;-0.6257;0.2032;1.3426;
258615309193784;-0.6278;0.2149;1.3383;
258615314241544;-0.6055;0.2266;1.3383;
258615319289305;-0.5841;0.2266;1.3351;
258615324337065;-0.5916;0.2245;1.3341;
258615329384825;-0.6246;0.2075;1.3319;
258615334475346;-0.6672;0.1872;1.3319;
258615339523107;-0.6896;0.1766;1.3298;
258615344570867;-0.6779;0.1830;1.3287;
258615349618628;-0.6481;0.2021;1.3309;
258615354666388;-0.6225;0.2181;1.3298;
258615359714148;-0.6289;0.2128;1.3234;
258615364794096;-0.6566;0.1904;1.3181;
258615369841857;-0.6768;0.1627;1.3096;
258615374919773;-0.6651;0.1499;1.3106;
258615379967482;-0.6225;0.1702;1.3160;
258615385015242;-0.5660;0.2117;1.3192;
258615390063055;-0.5447;0.2266;1.3213;
258615395110815;-0.5724;0.2021;1.3181;
258615400158575;-0.6108;0.1659;1.3128;
258615405232273;-0.6353;0.1425;1.3064;
258615410280034;-0.6406;0.1531;1.3010;
258615415327794;-0.6406;0.1830;1.3000;
258615420375555;-0.6576;0.1979;1.2957;
258615425423315;-0.6864;0.1936;1.2872;
258615430471075;-0.7194;0.1585;1.2819;
258615435562273;-0.7471;0.1499;1.2744;
258615440610034;-0.7642;0.1638;1.2691;
258615445657794;-0.7695;0.1393;1.2606;
258615450705555;-0.7599;0.1457;1.2574;
258615455791440;-0.7418;0.1766;1.2574;
258615460839200;-0.7354;0.1776;1.2531;
258615465886961;-0.7546;0.1648;1.2489;
258615470934721;-0.7897;0.1297;1.2414;
258615475982482;-0.8185;0.1212;1.2286;
258615481030242;-0.8196;0.1435;1.2180;
258615486118940;-0.8153;0.1499;1.2116;
258615491166700;-0.8153;0.1329;1.1967;
258615496214461;-0.8196;0.1212;1.1849;
258615501262221;-0.8196;0.0892;1.1754;
258615506309982;-0.8004;0.1126;1.1647;
258615511357742;-0.7780;0.1478;1.1615;
258615516445711;-0.7823;0.1340;1.1519;
258615521523992;-0.8078;0.1052;1.1381;
258615526571648;-0.8409;0.0668;1.1242;
258615531619461;-0.8462;0.0658;1.1136;
258615536667221;-0.8260;0.0807;1.1008;
258615541714982;-0.7929;0.0860;1.0901;
258615546762742;-0.7556;0.0881;1.0795;
258615551810503;-0.7301;0.0786;1.0699;
258615556856388;-0.7152;0.0636;1.0571;
258615561904096;-0.7066;0.0626;1.0477;
258615566951857;-0.7024;0.0690;1.0391;
258615571999617;-0.6960;0.0647;1.0274;
258615577047378;-0.6864;0.0541;1.0125;
258615582095138;-0.6672;0.0477;1.0019;
258615587142898;-0.6385;0.0455;0.9891;
258615592251388;-0.6044;0.0477;0.9805;
258615597299148;-0.5671;0.0562;0.9720;
258615602346909;-0.5383;0.0551;0.9667;
258615607394669;-0.5234;0.0466;0.9571;
258615612442430;-0.5149;0.0370;0.9529;
258615617490190;-0.5096;0.0317;0.9475;
258615622577534;-0.5096;0.0360;0.9401;
258615627625294;-0.5085;0.0423;0.9358;
258615632673055;-0.5138;0.0370;0.9315;
258615637720815;-0.5181;0.0338;0.9241;
258615642768575;-0.5256;0.0285;0.9188;
258615647816336;-0.5256;0.0274;0.9124;
258615652903003;-0.5181;0.0274;0.9081;
258615657950763;-0.5043;0.0221;0.8996;
258615662998523;-0.4893;0.0317;0.9007;
258615668046284;-0.4744;0.0349;0.8975;
258615673094044;-0.4606;0.0264;0.8943;
258615678141805;-0.4425;0.0285;0.8921;
258615683225971;-0.4202;0.0338;0.8900;
258615688273732;-0.4000;0.0413;0.8889;
258615693321492;-0.3861;0.0370;0.8836;
258615698369253;-0.3787;0.0296;0.8772;
258615703417013;-0.3787;0.0221;0.8730;
258615708464773;-0.3702;0.0168;0.8666;
258615713546388;-0.3585;0.0168;0.8591;
258615718594148;-0.3574;0.0221;0.8548;
258615723641909;-0.3627;0.0264;0.8474;
258615728689669;-0.3787;0.0189;0.8378;
258615733737430;-0.4000;0.0051;0.8293;
258615738785242;-0.4202;-0.0003;0.8208;
258615743883784;-0.4371;0.0008;0.8133;
258615748931544;-0.4478;0.0008;0.8090;
258615753979305;-0.4499;0.0019;0.8048;
258615759027065;-0.4499;0.0008;0.8005;
258615764074825;-0.4510;0.0019;0.7941;
258615769122586;-0.4361;-0.0003;0.7877;
258615774214200;-0.4192;-0.0099;0.7803;
258615779261961;-0.4032;-0.0056;0.7739;
258615784309721;-0.3787;-0.0013;0.7718;
258615789357482;-0.3521;-0.0077;0.7664;
258615794405242;-0.3233;-0.0056;0.7622;
258615799453003;-0.2956;0.0040;0.7579;
258615804538523;-0.2700;0.0083;0.7547;
258615809586284;-0.2530;0.0083;0.7494;
258615814634044;-0.2487;0.0029;0.7419;
258615819681805;-0.2445;-0.0024;0.7355;
258615824729565;-0.2338;-0.0024;0.7313;
258615829777325;-0.2146;0.0008;0.7281;
258615834847638;-0.2019;0.1393;0.7600;
258615839895398;-0.0740;0.3799;1.0349;
258615844943159;0.0005;-0.3623;0.7174;
258615849990919;-0.4297;-0.0099;0.5907;
258615855038680;-0.6225;0.1542;0.7973;
258615860086440;-0.3126;-0.2378;0.6695;
258615865175555;-0.1656;-0.0823;0.5949;
258615870223315;-0.2722;0.2607;0.6333;
258615875271075;-0.3616;0.0754;0.7036;
258615880318836;-0.3148;-0.1068;0.6503;
258615885366596;-0.3616;0.2106;0.6152;
258615890414357;-0.4574;0.0200;0.5555;
258615895498680;-0.4989;-0.2410;0.5726;
258615900546440;-0.4245;-0.0184;0.6610;
258615905594200;-0.2700;0.3224;0.6184;
258615910641961;-0.1582;0.2426;0.5640;
258615915689721;-0.2498;-0.1451;0.5118;
258615920737482;-0.4563;-0.1632;0.5449;
258615925831180;-0.4478;0.1020;0.5566;
258615930878940;-0.2168;0.0977;0.4948;
258615935926700;-0.1071;0.0391;0.4671;
258615940974461;-0.2125;0.1286;0.4778;
258615946022221;-0.3180;0.1340;0.4799;
258615951069982;-0.3201;-0.0045;0.4289;
258615956146961;-0.3180;-0.0759;0.3948;
258615961194721;-0.3297;0.0317;0.4118;
258615966242482;-0.2743;0.1734;0.4321;
258615971290242;-0.1869;0.1414;0.4087;
258615976338003;-0.2232;0.0732;0.3703;
258615981385763;-0.3574;0.0083;0.3639;
258615986486284;-0.4224;-0.0141;0.3607;
258615991534044;-0.3510;0.0093;0.3501;
258615996581805;-0.2530;0.0881;0.3277;
258616001629565;-0.2210;0.1201;0.3192;
258616006677325;-0.2423;0.0956;0.3117;
258616011725086;-0.2818;0.0274;0.2883;
258616016820815;-0.3020;0.0051;0.2638;
258616021868575;-0.2892;0.0146;0.2510;
258616026916336;-0.2434;0.0402;0.2489;
258616031964096;-0.1848;0.0818;0.2318;
258616037011857;-0.1699;0.0839;0.2116;
258616042059617;-0.2029;0.0189;0.1924;
258616047171648;-0.2349;-0.0248;0.1796;
258616052219409;-0.2114;-0.0056;0.1711;
258616057267221;-0.1433;0.0413;0.1519;
258616062314930;-0.0794;0.0413;0.1402;
258616067362690;-0.0602;0.0381;0.1274;
258616072410450;-0.0730;-0.0109;0.1008;
258616077458055;-0.1071;-0.0024;0.0731;
258616082505815;-0.0804;0.1031;0.0816;
258616087553575;0.0368;0.0349;0.0529;
258616092601336;0.0591;-0.1025;-0.0036;
258616097649096;-0.0613;-0.0493;-0.0025;
258616102696857;-0.0943;0.0317;0.0156;
258616107781388;0.0154;0.0115;-0.0206;
258616112829148;0.0783;-0.0216;-0.0622;
258616117876909;0.0559;-0.0173;-0.0718;
258616122924669;0.0346;0.0083;-0.0728;
258616127972430;0.0229;-0.0226;-0.0963;
258616133020190;0.0005;-0.0493;-0.1197;
258616138104200;0.0027;-0.0301;-0.1293;
258616143151961;0.0410;-0.0045;-0.1431;
258616148199721;0.0698;0.0210;-0.1623;
258616153247482;0.0538;0.0051;-0.1877;
258616158295242;0.0218;-0.0354;-0.2037;
258616163343003;-0.0005;-0.0450;-0.2208;
258616168431700;-0.0080;-0.0120;-0.2421;
258616173516492;0.0037;0.0019;-0.2676;
258616178564253;0.0091;-0.0162;-0.2921;
258616183632482;-0.0037;-0.0205;-0.3092;
258616188680242;-0.0112;-0.0109;-0.3241;
258616193728003;0.0005;-0.0109;-0.3454;
258616198775815;0.0176;-0.0354;-0.3688;
258616203823575;0.0304;-0.0280;-0.3880;
258616208871336;0.0325;0.0029;-0.4061;
258616213925867;0.0261;-0.0088;-0.4317;
258616218973628;0.0186;-0.0439;-0.4583;
258616224021388;0.0186;-0.0407;-0.4786;
258616229069148;0.0261;-0.0130;-0.5031;
258616234116909;0.0336;-0.0216;-0.5318;
258616239164669;0.0336;-0.0535;-0.5616;
258616244249773;0.0186;-0.0503;-0.5829;
258616249297534;0.0123;-0.0312;-0.6064;
258616254345294;0.0176;-0.0375;-0.6383;
258616259393055;0.0250;-0.0567;-0.6692;
258616264440815;0.0261;-0.0557;-0.7012;
258616269488575;0.0186;-0.0471;-0.7278;
258616274574200;0.0176;-0.0557;-0.7587;
258616279621961;0.0176;-0.0652;-0.7895;
258616284669721;0.0154;-0.0599;-0.8140;
258616289717482;0.0176;-0.0589;-0.8438;
258616294765242;0.0133;-0.0748;-0.8747;
258616299813003;0.0112;-0.0897;-0.9035;
258616304900555;0.0186;-0.0855;-0.9290;
258616309948315;0.0368;-0.0738;-0.9514;
258616314996075;0.0602;-0.0684;-0.9791;
258616320043836;0.0676;-0.0663;-1.0078;
258616325091596;0.0506;-0.0269;-1.0291;
258616330139357;0.0080;0.2064;-1.0760;
258616335224930;0.0431;0.1329;-1.0686;
258616340272690;0.2241;-0.3538;-0.8299;
258616345320450;0.3178;-0.3889;-0.6980;
258616350368211;0.2443;0.0956;-0.7204;
258616355415971;0.3189;0.0786;-0.7310;
258616360463732;0.4766;-0.0493;-0.7873;
258616365551388;0.4499;0.2798;-0.9407;
258616370599148;0.4137;0.2405;-1.0015;
258616375646909;0.5298;-0.1909;-0.9993;
258616380694669;0.5501;-0.0237;-1.0174;
258616385742430;0.4105;0.2575;-0.9216;
258616390790190;0.3849;0.1318;-0.8204;
258616395894773;0.3903;-0.0194;-0.8449;
258616400942534;0.3264;0.0945;-0.8566;
258616405990294;0.3338;0.1542;-0.8598;
258616411038055;0.4329;0.0136;-0.9631;
258616416085815;0.5043;0.0296;-1.0206;
258616421133575;0.4233;0.2032;-1.0291;
258616426222586;0.2539;0.1425;-1.0686;
258616431270346;0.1390;-0.0727;-1.0696;
258616436318107;0.1039;-0.1387;-1.0547;
258616441365867;0.1614;0.0541;-1.0313;
258616446413628;0.3402;0.1340;-1.0121;
258616451461388;0.4947;0.1031;-1.0377;
258616456548107;0.4403;0.2117;-1.0568;
258616461595867;0.2411;0.1616;-1.0813;
258616466643628;0.0964;-0.0514;-1.1293;
258616471691388;0.0943;-0.1185;-1.1506;
258616476739148;0.1932;0.0125;-1.1357;
258616481786909;0.3338;0.1585;-1.1271;
258616486851075;0.4212;0.1648;-1.1314;
258616491898836;0.3541;0.1233;-1.1442;
258616496946596;0.2124;0.0647;-1.1655;
258616501994357;0.1614;-0.0120;-1.1825;
258616507042117;0.2422;-0.0173;-1.1996;
258616512089878;0.3679;0.0658;-1.2060;
258616517180450;0.4318;0.1659;-1.2028;
258616522228211;0.3818;0.1648;-1.2113;
258616527275971;0.2742;0.0445;-1.2273;
258616532323732;0.2071;-0.0184;-1.2358;
258616537371492;0.2422;0.0264;-1.2347;
258616542419253;0.3455;0.0945;-1.2390;
258616547511284;0.4265;0.1318;-1.2528;
258616552559044;0.4158;0.1457;-1.2646;
258616557606805;0.3423;0.1148;-1.2837;
258616562654565;0.2752;0.0498;-1.3082;
258616567702325;0.2646;0.0136;-1.3189;
258616572750086;0.3083;0.0370;-1.3232;
258616577842898;0.3562;0.0967;-1.3242;
258616582890659;0.3764;0.1212;-1.3232;
258616587938419;0.3636;0.1020;-1.3327;
258616592986180;0.3370;0.0700;-1.3466;
258616598033940;0.3210;0.0487;-1.3583;
258616603081700;0.3349;0.0434;-1.3732;
258616608179930;0.3700;0.0636;-1.3817;
258616613227690;0.3935;0.1009;-1.3869;
258616618275450;0.3860;0.1148;-1.3891;
258616623323211;0.3604;0.0818;-1.3955;
258616628370971;0.3381;0.0360;-1.4082;
258616633418732;0.3423;0.0306;-1.4125;
258616638502273;0.3839;0.0615;-1.4125;
258616643550034;0.4318;0.1063;-1.4125;
258616648597794;0.4521;0.1233;-1.4157;
258616653645555;0.4435;0.1020;-1.4232;
258616658693367;0.4308;0.0690;-1.4295;
258616663741075;0.4286;0.0466;-1.4327;
258616668816805;0.4435;0.0743;-1.4359;
258616673864565;0.4659;0.0977;-1.4338;
258616678912325;0.4755;0.0924;-1.4285;
258616683960086;0.4595;0.0796;-1.4263;
258616689007846;0.4382;0.0530;-1.4253;
258616694055607;0.4371;0.0306;-1.4221;
258616699129096;0.4606;0.0391;-1.4178;
258616704176857;0.4915;0.0626;-1.4093;
258616709224617;0.5202;0.0786;-1.4040;
258616714272378;0.5469;0.0743;-1.3997;
258616719320138;0.5533;0.0636;-1.3965;
258616724367898;0.5373;0.0605;-1.3891;
258616729492117;0.5245;0.0498;-1.3817;
258616734539878;0.5224;0.0349;-1.3722;
258616739587638;0.5202;0.0423;-1.3615;
258616744635398;0.5266;0.0583;-1.3477;
258616749683159;0.5373;0.0551;-1.3370;
258616754730919;0.5479;0.0455;-1.3242;
258616759802586;0.5554;0.0402;-1.3125;
258616764850346;0.5650;0.0285;-1.2976;
258616769898107;0.5980;0.0093;-1.2837;
258616774945867;0.6449;0.0083;-1.2635;
258616779993628;0.7013;0.0178;-1.2443;
258616785041388;0.7588;0.0221;-1.2241;
258616790148784;0.8056;0.0253;-1.1975;
258616795196544;0.8493;0.0178;-1.1772;
258616800244305;0.8833;0.0061;-1.1580;
258616805292065;0.9164;0.0040;-1.1346;
258616810339825;0.9377;0.0104;-1.1122;
258616815387586;0.9355;0.0061;-1.0909;
258616820440242;0.9366;-0.0141;-1.0750;
258616825488003;0.9515;-0.0333;-1.0568;
258616830535763;0.9952;-0.0194;-1.0334;
258616835583523;1.0570;0.0040;-1.0089;
258616840631284;1.1038;0.0061;-0.9833;
258616845679096;1.1049;-0.0067;-0.9578;
258616850767534;1.0719;-0.0407;-0.9311;
258616855815294;1.0548;-0.0834;-0.9077;
258616860863055;1.0847;-0.0855;-0.8811;
258616865910815;1.1401;-0.0354;-0.8513;
258616870958575;1.1848;0.0019;-0.8193;
258616876006336;1.1837;-0.0205;-0.7969;
258616881110815;1.1422;-0.0748;-0.7799;
258616886158575;1.1038;-0.1164;-0.7598;
258616891206336;1.1049;-0.1057;-0.7342;
258616896254096;1.1347;-0.0620;-0.7012;
258616901301857;1.1678;-0.0471;-0.6735;
258616906349617;1.2018;-0.0727;-0.6511;
258616911442534;1.2306;-0.0823;-0.6266;
258616916490294;1.2338;-0.0471;-0.6011;
258616921538055;1.2029;-0.0471;-0.5808;
258616926585815;1.1699;-0.0983;-0.5680;
258616931633575;1.1987;-0.1377;-0.5531;
258616936681336;1.2828;-0.0834;-0.5297;
258616941751180;1.3595;0.0061;-0.5031;
258616946798940;1.3829;0.0029;-0.4860;
258616951846700;1.3595;-0.0823;-0.4775;
258616956894461;1.2775;-0.1057;-0.4700;
258616961942221;1.1592;-0.0812;-0.4477;
258616966990034;1.0836;-0.1036;-0.4274;
258616972077013;1.0921;-0.1451;-0.4264;
258616977124773;1.1102;-0.1142;-0.4178;
258616982172534;1.0996;-0.0407;-0.3965;
258616987220294;1.0580;-0.0567;-0.3880;
258616992268055;0.9995;-0.1515;-0.3880;
258616997315815;0.9664;-0.1750;-0.3763;
258617002403523;0.9782;-0.0961;-0.3529;
258617007451284;1.0048;-0.0290;-0.3326;
258617012499044;1.0027;-0.0482;-0.3209;
258617017546805;0.9750;-0.1142;-0.3092;
258617022594565;0.9568;-0.1196;-0.3017;
258617027642325;0.9494;-0.0823;-0.2879;
258617032725034;0.9355;-0.0631;-0.2708;
258617037772794;0.9110;-0.0610;-0.2591;
258617042820555;0.8599;-0.0834;-0.2506;
258617047868315;0.8013;-0.1132;-0.2399;
258617052916075;0.7823;-0.1249;-0.2272;
258617057963836;0.7844;-0.1004;-0.2133;
258617063050971;0.7802;-0.0557;-0.1963;
258617068098732;0.7663;-0.0450;-0.1835;
258617073146492;0.7343;-0.0812;-0.1739;
258617078194253;0.7109;-0.1132;-0.1634;
258617083242013;0.7290;-0.1036;-0.1506;
258617088289773;0.7802;-0.0557;-0.1304;
258617093379096;0.8194;-0.0099;-0.1122;
258617098426857;0.8024;0.0040;-0.0995;
258617103474617;0.7418;-0.0312;-0.0920;
258617108522378;0.6811;-0.0855;-0.0835;
258617113570138;0.6662;-0.0940;-0.0739;
258617118617898;0.7003;-0.0471;-0.0569;
258617123717898;0.7354;0.0008;-0.0419;
258617128765659;0.7375;0.0115;-0.0334;
258617133813419;0.6864;-0.0173;-0.0185;
258617138861232;0.6257;-0.0578;-0.0068;
258617143908940;0.6161;-0.0791;-0.0025;
258617148956753;0.6694;-0.0482;0.0145;
258617154045034;0.7322;0.0210;0.0390;
258617159092794;0.7439;0.0647;0.0561;
258617164140555;0.6779;0.0455;0.0656;
258617169188315;0.5501;-0.0173;0.0624;
258617174236075;0.4265;-0.0695;0.0561;
258617179283836;0.3818;-0.0642;0.0582;
258617184356753;0.4020;-0.0077;0.0678;
258617189409617;0.4212;0.0541;0.0763;
258617194462482;0.3967;0.0743;0.0859;
258617199515398;0.3146;0.0509;0.0912;
258617204568263;0.1964;0.0019;0.0859;
258617209621128;0.1060;-0.0312;0.0848;
258617214678107;0.0719;-0.0194;0.0838;
258617219730971;0.0804;0.0338;0.0838;
258617224783836;0.0826;0.0754;0.0838;
258617229836753;0.0421;0.0626;0.0838;
258617234889617;-0.0144;0.0115;0.0795;
258617239942482;-0.0538;-0.0173;0.0774;
258617245006440;-0.0836;0.0146;0.0869;
258617250059305;-0.1028;0.0583;0.0944;
258617255112169;-0.1103;0.0434;0.0965;
258617260165086;-0.1209;0.0189;0.0965;
258617265218003;-0.1241;0.0402;0.0997;
258617270270815;-0.1071;0.0445;0.0997;
258617275330294;-0.0708;0.0168;0.0955;
258617280383211;-0.0410;0.0221;0.0965;
258617285436023;-0.0282;0.0455;0.1040;
258617290488940;-0.0186;0.0296;0.1051;
258617295541805;-0.0005;0.0072;0.1051;
258617300594669;0.0261;0.0264;0.1104;
258617305650346;0.0613;0.0487;0.1146;
258617310703211;0.0858;0.0509;0.1168;
258617315756075;0.0794;0.0530;0.1146;
258617320808992;0.0527;0.0434;0.1125;
258617325861857;0.0261;0.0146;0.1072;
258617330914721;0.0123;-0.0003;0.1040;
258617335980190;0.0218;0.0157;0.1072;
258617341033055;0.0506;0.0338;0.1061;
258617346085919;0.0804;0.0317;0.1061;
258617351138836;0.1028;0.0264;0.1040;
258617356191700;0.1007;0.0285;0.1008;
258617361244565;0.0772;0.0221;0.0965;
258617366324982;0.0655;0.0040;0.0923;
258617371377846;0.0836;-0.0120;0.0880;
258617376430711;0.1273;0.0093;0.0880;
258617381483575;0.1784;0.0573;0.0912;
258617386536492;0.2230;0.0732;0.0944;
258617391589357;0.2465;0.0487;0.0944;
258617396650607;0.2507;0.0328;0.0933;
258617401703471;0.2401;0.0391;0.0912;
258617406756336;0.2326;0.0328;0.0869;
258617411809253;0.2177;0.0189;0.0784;
258617416862117;0.1836;0.0328;0.0752;
258617421914982;0.1337;0.0413;0.0720;
258617426965190;0.0975;-0.0056;0.0593;
258617432018107;0.0815;-0.0375;0.0486;
258617437070971;0.0953;-0.0035;0.0465;
258617442123836;0.1188;0.0455;0.0422;
258617447176753;0.1103;0.0573;0.0369;
258617452229617;0.0751;0.0285;0.0294;
258617457285398;0.0357;0.0040;0.0284;
258617462338315;-0.0037;0.0136;0.0326;
258617467391180;-0.0421;0.0125;0.0316;
258617472444044;-0.0644;-0.0099;0.0273;
258617477496909;-0.0708;-0.0205;0.0230;
258617482549825;-0.0581;-0.0013;0.0188;
258617487635294;-0.0282;0.0146;0.0209;
258617492688211;0.0080;0.0104;0.0230;
258617497741023;0.0293;0.0157;0.0252;
258617502793940;0.0250;0.0328;0.0305;
258617507846805;-0.0027;0.0232;0.0305;
258617512899721;-0.0357;-0.0120;0.0273;
258617517944513;-0.0431;-0.0375;0.0252;
258617522997325;-0.0123;-0.0205;0.0284;
258617528050190;0.0399;0.0242;0.0348;
258617533103107;0.0730;0.0349;0.0390;
258617538155971;0.0730;0.0232;0.0411;
258617543208888;0.0368;0.0051;0.0411;
258617548261596;0.0101;-0.0333;0.0369;
258617553314461;0.0325;-0.0471;0.0337;
258617558367325;0.0676;-0.0013;0.0390;
258617563420242;0.1049;0.0402;0.0454;
258617568473159;0.1198;0.0274;0.0465;
258617573525971;0.1007;-0.0194;0.0411;
258617578588575;0.0666;-0.0280;0.0443;
258617583641388;0.0538;-0.0120;0.0497;
258617588694305;0.0730;-0.0194;0.0518;
258617593747169;0.1071;-0.0194;0.0529;
258617598800086;0.1198;0.0051;0.0582;
258617603852898;0.1124;0.0104;0.0614;
258617608958159;0.1028;-0.0162;0.0635;
258617614010971;0.0932;-0.0141;0.0656;
258617619063888;0.0879;0.0178;0.0720;
258617624116700;0.0953;0.0168;0.0763;
258617629169669;0.1209;-0.0088;0.0774;
258617634222482;0.1475;-0.0013;0.0806;
258617639257950;0.1550;0.0413;0.0859;
258617644310763;0.1454;0.0434;0.0891;
258617649363628;0.1145;0.0040;0.0869;
258617654416544;0.0783;-0.0120;0.0891;
258617659469409;0.0581;-0.0035;0.0901;
258617664522325;0.0719;0.0040;0.0933;
258617669576336;0.0985;0.0115;0.0976;
258617674629200;0.1124;0.0296;0.1019;
258617679682065;0.1134;0.0328;0.1029;
258617684734982;0.1049;0.0178;0.1061;
258617689787846;0.0889;0.0157;0.1072;
258617694840711;0.0794;0.0178;0.1093;
258617699906961;0.0826;0.0157;0.1125;
258617704959773;0.0921;0.0317;0.1146;
258617710012638;0.0943;0.0338;0.1168;
258617715065555;0.0474;0.0615;0.0997;
258617720118419;-0.0293;0.0839;0.0774;
258617725171284;-0.0762;0.0232;0.0965;
258617730233732;-0.1220;0.0690;0.0656;
258617735286648;-0.1710;0.1265;0.0667;
258617740339461;-0.1688;0.0562;0.0529;
258617745392378;-0.1103;-0.0493;0.0422;
258617750445294;-0.0453;-0.0482;0.0113;
258617755498107;0.0314;0.0328;0.0134;
258617760550346;0.0463;0.0775;0.0092;
258617765603211;-0.0527;0.0040;0.0092;
258617770656075;-0.1539;-0.0972;0.0166;
258617775708940;-0.1848;-0.0908;0.0518;
258617780761805;-0.1593;0.0466;0.0912;
258617785814669;-0.1103;0.1031;0.1232;
258617790875763;-0.0815;0.0221;0.1221;
258617795928628;-0.1113;-0.0397;0.1051;
258617800981492;-0.2221;-0.0152;0.0699;
258617806034357;-0.3467;-0.0620;0.0326;
258617811087221;-0.4128;-0.0919;-0.0057;
258617816140138;-0.4371;-0.0248;-0.0366;
258617821206700;-0.4382;0.0434;-0.0228;
258617826259513;-0.4192;0.0764;-0.0132;
258617831312378;-0.3968;0.0338;-0.0249;
258617836365294;-0.3947;-0.0035;-0.0196;
258617841418159;-0.4021;0.0125;-0.0015;
258617846471023;-0.3989;0.0168;-0.0004;
258617851531388;-0.3798;-0.0269;0.0028;
258617856584200;-0.3350;-0.0248;0.0071;
258617861637065;-0.2860;-0.0013;0.0145;
258617866689982;-0.2402;-0.0130;0.0039;
258617871742846;-0.2306;-0.0333;-0.0004;
258617876795711;-0.2796;-0.0194;0.0028;
258617881867898;-0.3031;-0.0333;0.0039;
258617886920815;-0.2594;-0.0429;0.0145;
258617891973628;-0.1859;0.0178;0.0284;
258617897026492;-0.1092;0.0764;0.0358;
258617902079409;-0.0644;0.0264;0.0316;
258617907132273;-0.0964;-0.0375;0.0177;
258617912192794;-0.1720;-0.0674;0.0071;
258617917245659;-0.2104;-0.0802;0.0049;
258617922298523;-0.1720;-0.0099;0.0220;
258617927351440;-0.0836;0.0871;0.0326;
258617932404357;-0.0133;0.0818;0.0358;
258617937457169;-0.0144;0.0455;0.0337;
258617942507013;-0.0889;0.0360;0.0316;
258617947559878;-0.1635;-0.0120;0.0220;
258617952612742;-0.1806;-0.0642;0.0113;
258617957665607;-0.1465;-0.0365;0.0049;
258617962718523;-0.0985;0.0434;0.0017;
258617967771336;-0.0634;0.0679;-0.0057;
258617972829930;-0.0666;0.0189;-0.0196;
258617977882794;-0.1241;-0.0226;-0.0292;
258617982935711;-0.2029;-0.0546;-0.0313;
258617987988575;-0.2509;-0.0908;-0.0324;
258617993041440;-0.2594;-0.0674;-0.0313;
258617998094305;-0.2402;0.0306;-0.0238;
258618003156440;-0.2019;0.0903;-0.0153;
258618008209305;-0.1806;0.0562;-0.0334;
258618013262221;-0.2189;0.0083;-0.0569;
258618018315086;-0.3052;-0.0088;-0.0771;
258618023368003;-0.3819;-0.0184;-0.0941;
258618028420815;-0.4224;-0.0056;-0.1091;
258618033491388;-0.4213;0.0370;-0.1112;
258618038544200;-0.3787;0.0381;-0.1091;
258618043597117;-0.3095;-0.0237;-0.1069;
258618048649982;-0.2455;-0.0407;-0.1016;
258618053702898;-0.2136;0.0562;-0.0867;
258618058755763;-0.2338;0.0967;-0.0760;
258618063813992;-0.2722;-0.0194;-0.0920;
258618068866857;-0.3116;-0.1302;-0.1229;
258618073919721;-0.3233;-0.1142;-0.1367;
258618078972586;-0.2807;-0.0599;-0.1410;
258618084025450;-0.2072;-0.0375;-0.1538;
258618089078367;-0.1667;-0.0035;-0.1612;
258618094136232;-0.1465;0.0242;-0.1431;
258618099189096;-0.0975;-0.0088;-0.1346;
258618104241961;-0.0421;-0.0610;-0.1314;
258618109294825;0.0091;-0.0248;-0.1176;
258618114347742;0.0730;0.0285;-0.1059;
258618119400555;0.1379;-0.0067;-0.1122;
258618124462430;0.1763;-0.0525;-0.1165;
258618129515294;0.1847;-0.0120;-0.1133;
258618134568107;0.1742;0.0562;-0.1133;
258618139621023;0.1688;0.0360;-0.1165;
258618144673888;0.2028;-0.0429;-0.1240;
258618149726753;0.2433;-0.0716;-0.1261;
258618154806336;0.2678;-0.0333;-0.1154;
258618159859200;0.2923;0.0029;-0.1059;
258618164912065;0.3104;-0.0045;-0.0973;
258618169964930;0.3221;0.0210;-0.0856;
258618175017846;0.3434;0.0573;-0.0707;
258618180070763;0.3786;0.0285;-0.0632;
258618185110242;0.4094;-0.0578;-0.0654;
258618190164305;0.4073;-0.0525;-0.0707;
258618195218315;0.3594;0.0551;-0.0739;
258618200272325;0.2656;0.0498;-0.0920;
258618205326336;0.1603;-0.0429;-0.1154;
258618210380398;0.0868;-0.1025;-0.1282;
258618215438367;0.0719;-0.0929;-0.1378;
258618220492430;0.0985;-0.0471;-0.1410;
258618225546440;0.1134;-0.0205;-0.1293;
258618230600450;0.1071;0.0285;-0.1240;
258618235654461;0.0847;0.0413;-0.1250;
258618240708523;0.0836;-0.0003;-0.1250;
258618245767325;0.1134;-0.0141;-0.1304;
258618250821388;0.1486;-0.0099;-0.1527;
258618255875398;0.1964;-0.0418;-0.1803;
258618260929409;0.2411;-0.0684;-0.1931;
258618265983419;0.2411;-0.0077;-0.1899;
258618271037482;0.2039;0.0157;-0.1899;
258618276087950;0.1603;-0.0482;-0.1888;
258618281142013;0.1294;-0.0812;-0.1782;
258618286196023;0.1252;-0.0375;-0.1634;
258618291250034;0.1486;0.0317;-0.1538;
258618296304044;0.2017;-0.0120;-0.1431;
258618301358107;0.2901;-0.1068;-0.1707;
258618306419200;0.3839;-0.1473;-0.1920;
258618311473263;0.4265;-0.0386;-0.1739;
258618316527273;0.4308;0.0466;-0.1527;
258618321581336;0.4190;-0.0631;-0.1559;
258618326635294;0.4031;-0.2378;-0.1602;
258618331689357;0.4052;-0.2399;-0.1506;
258618336748159;0.4861;-0.1622;-0.1463;
258618341802221;0.6289;-0.1750;-0.1602;
258618346856232;0.7205;-0.2016;-0.1750;
258618351910242;0.7375;-0.1590;-0.1867;
258618356964253;0.7035;-0.1505;-0.1835;
258618362018315;0.6704;-0.1334;-0.1602;
258618367111336;0.6885;-0.0333;-0.1367;
258618372165346;0.7716;0.0807;-0.0931;
258618377219357;0.9579;0.0306;-0.0867;
258618382273367;1.2072;-0.2900;-0.1824;
258618387327378;1.1763;-0.2772;-0.2282;
258618392381440;0.7791;-0.0173;-0.2027;
258618397413055;0.5735;-0.2112;-0.2570;
258618402467117;0.5916;-0.3399;-0.3198;
258618407521128;0.5437;0.1201;-0.2868;
258618412575138;0.4606;0.6398;-0.2261;
258618417629148;0.3285;0.4843;-0.2165;
258618422683211;0.0421;-0.2325;-0.2591;
258618427751909;-0.2498;-0.5082;-0.2836;
258618432805971;-0.2019;-0.0312;-0.1899;
258618437859982;0.1007;0.4140;-0.1112;
258618442913992;0.3498;0.0008;-0.1549;
258618447968003;0.7205;-0.7554;-0.2623;
258618453022065;1.3915;-0.6766;-0.2911;
258618458047742;1.9815;0.3437;-0.2208;
258618463101805;1.4765;1.5205;-0.0931;
258618468155815;0.2103;0.0583;-0.1846;
258618473209825;-0.6513;-1.6648;-0.4114;
258618478263836;-0.7173;-1.2761;-0.4051;
258618483317898;-0.2391;0.4896;-0.2346;
258618488397638;0.1795;1.2948;-0.0952;
258618493451700;0.1996;0.0786;-0.1899;
258618498505711;0.2103;-1.3241;-0.3124;
258618503559721;0.6576;-0.9130;-0.2442;
258618508613784;1.2413;0.6249;-0.0686;
258618513667794;1.4936;1.0264;-0.0270;
258618518717794;1.1188;0.4715;-0.1261;
258618523771805;0.0176;-0.4752;-0.2091;
258618528825815;-0.8132;-1.0088;-0.2900;
258618533879825;-0.5927;-0.6627;-0.2208;
258618538933888;0.0091;0.1020;-0.1421;
258618543987898;0.3573;0.5567;-0.0473;
258618549036805;0.6598;0.1276;-0.0835;
258618554090815;0.8983;-0.3634;-0.1389;
258618559144878;0.6790;0.2469;-0.0963;
258618564198888;0.0943;0.4704;-0.0292;
258618569252898;-0.2114;-0.3996;-0.0856;
258618574306909;-0.1869;-0.6670;-0.0984;
258618579358159;-0.1923;-0.0407;-0.0217;
258618584412221;-0.0293;0.3117;0.0390;
258618589466232;0.3157;-0.0802;-0.0089;
258618594520242;0.2880;-0.2133;-0.0398;
258618599574305;-0.0314;0.1648;0.0539;
258618604628315;-0.2125;0.0115;0.0763;
258618609672221;-0.2178;-0.4379;0.0465;
258618614726284;-0.2189;-0.3028;0.0699;
258618619780294;-0.1667;0.0977;0.1019;
258618624834305;-0.0069;0.0796;0.0891;
258618629888367;0.0176;-0.0716;0.0646;
258618634942378;-0.1252;0.0072;0.1029;
258618639996596;-0.2732;0.1190;0.1381;
258618645050659;-0.3446;-0.0546;0.1328;
258618650104669;-0.3553;-0.2463;0.1125;
258618655158680;-0.3553;-0.1153;0.1136;
258618660212690;-0.3893;0.1095;0.1242;
258618665266753;-0.4521;0.0562;0.1306;
258618670342221;-0.5373;-0.1121;0.1253;
258618675396284;-0.6342;-0.0482;0.1274;
258618680450294;-0.6864;0.0711;0.1189;
258618685504305;-0.6790;-0.1047;0.0667;
258618690558315;-0.7141;-0.3049;0.0049;
258618695612378;-0.8505;0.0423;0.0539;
258618700680659;-0.9261;0.3980;0.1093;
258618705734721;-0.8366;0.0146;0.0571;
258618710788732;-0.7493;-0.3156;-0.0366;
258618715842742;-0.8206;0.0668;-0.0068;
258618720896805;-0.9186;0.3533;0.0230;
258618725950815;-0.9016;-0.1100;-0.0675;
258618731002430;-0.8707;-0.4049;-0.1176;
258618736056492;-0.9495;-0.0620;-0.1059;
258618741110503;-0.9282;0.0860;-0.1314;
258618746164513;-0.8707;0.1318;-0.1378;
258618751218575;-0.9154;0.2724;-0.0867;
258618756272586;-1.0060;0.2957;-0.0760;
258618761312534;-1.1134;-0.0344;-0.1591;
258618766366596;-1.2082;-0.3305;-0.1931;
258618771420607;-1.2200;-0.1164;-0.1421;
258618776474617;-1.0719;0.1574;-0.0750;
258618781528628;-0.7908;0.0370;-0.1186;
258618786582690;-0.5128;-0.3804;-0.1931;
258618791634617;-0.2008;-0.4699;-0.1803;
258618796688680;0.2901;-0.2165;-0.1165;
258618801742690;0.7365;0.1680;-0.0483;
258618806796700;0.5277;0.4672;-0.0174;
258618811850711;-0.0740;-0.3113;-0.1165;
258618816904773;-0.3521;-1.1867;-0.2005;
258618821960867;-0.1784;-0.8204;-0.1399;
258618827014930;0.3615;0.2904;0.0028;
258618832068940;0.9345;0.6941;0.0529;
258618837122950;1.2242;0.0338;-0.0111;
258618842176961;1.1379;-0.2069;-0.0494;
258618847231023;0.7120;0.1659;0.0337;
258618852305034;0.3743;-0.0844;0.0550;
258618857359096;0.3583;-0.4635;0.0092;
258618862413107;0.3796;-0.2740;-0.0228;
258618867467117;0.3828;0.1308;0.0039;
258618872521128;0.5458;0.1254;0.0348;
258618877575190;0.6939;-0.1068;0.0358;
258618882630138;0.5788;0.0264;0.0582;
258618887684200;0.4073;0.0860;0.0603;
258618892738211;0.4435;-0.2676;0.0113;
258618897792221;0.5841;-0.3399;0.0273;
258618902846232;0.7407;0.0818;0.1051;
258618907900294;0.9387;0.3490;0.1690;
258618912952950;1.0719;0.1702;0.1328;
258618918007013;1.0144;-0.0727;0.0539;
258618923061023;0.8311;-0.0439;0.0550;
258618928115034;0.7280;0.1009;0.0912;
258618933169096;0.7333;0.1063;0.1136;
258618938223107;0.7493;0.0051;0.0827;
258618943266388;0.7631;-0.0897;0.0156;
258618948320450;0.8013;-0.1515;0.0326;
258618953374461;0.8908;0.0242;0.0912;
258618958428471;1.0186;0.1861;0.1264;
258618963482482;1.1017;0.1009;0.0891;
258618968536544;1.1571;-0.1164;0.0348;
258618973591805;1.2391;-0.1750;0.0752;
258618978645867;1.3169;0.0370;0.1221;
258618983699878;1.2977;0.1382;0.1306;
258618988753888;1.2295;-0.0035;0.0976;
258618993807898;1.1347;-0.0897;0.0742;
258618998861961;1.0442;-0.0184;0.1455;
258619003915867;1.0666;-0.1228;0.1391;
258619008969930;1.1582;-0.2591;0.0869;
258619014023940;1.0708;-0.1132;0.0305;
258619019077950;0.7556;-0.0908;0.0209;
258619024131961;0.5799;-0.1824;0.0337;
258619029186023;0.6800;-0.1132;-0.0100;
258619034244513;0.7908;0.0317;-0.0611;
258619039298575;0.8035;0.1531;-0.0654;
258619044352586;0.7780;0.3426;-0.0387;
258619049406596;0.6587;0.1499;-0.0877;
258619054460659;0.3732;-0.0631;-0.1888;
258619059514669;0.0868;0.0732;-0.2101;
258619064565555;0.0240;0.1201;-0.2133;
258619069619617;0.1103;0.0093;-0.2091;
258619074673628;0.1635;-0.0173;-0.2857;
258619079727638;0.0485;0.1095;-0.3145;
258619084781648;-0.2317;0.3053;-0.2996;
258619089835659;-0.3574;0.3170;-0.2485;
258619094889825;-0.2189;0.0530;-0.2751;
258619099943888;-0.2189;-0.1792;-0.3326;
258619104997898;-0.2338;-0.3911;-0.3529;
258619110051909;0.1209;-0.5338;-0.2730;
258619115105919;0.5149;-0.0642;-0.2101;
258619120159982;0.5138;0.3138;-0.1410;
258619125220138;0.5362;-0.1196;-0.1792;
258619130274200;0.6086;-0.6808;-0.2037;
258619135328211;0.6406;-0.2751;-0.1122;
258619140382221;0.8908;0.3245;0.0039;
258619145436232;1.2849;-0.0194;-0.0068;
258619150490294;1.3861;-0.4646;-0.0920;
258619155559721;1.0793;-0.0684;-0.0057;
258619160613784;1.0112;-0.1228;0.0103;
258619165667794;1.2445;-0.4486;-0.0121;
258619170721805;1.2508;-0.0642;0.0209;
258619175775867;1.1933;0.3810;0.1221;
258619180829878;1.3126;0.0935;0.1306;
258619185870294;1.2764;-0.1462;0.1370;
258619190924565;0.9824;0.0434;0.1754;
258619195978784;0.8439;0.0125;0.1967;
258619201033055;0.9323;0.0530;0.2510;
258619206087378;1.0421;0.3469;0.3288;
258619211141648;1.1465;0.3373;0.3351;
258619216202430;1.0783;0.0146;0.3032;
258619221256700;0.7024;-0.0067;0.3437;
258619226310971;0.4872;0.0104;0.3628;
258619231365242;0.6619;-0.0929;0.3533;
258619236419513;0.8397;-0.0418;0.3596;
258619241473836;0.8801;0.1702;0.4374;
258619246522325;0.8897;0.2565;0.5023;
258619251576596;0.7780;0.1499;0.5023;
258619256630919;0.4872;-0.0919;0.4703;
258619261685138;0.1879;-0.3410;0.4395;
258619266739461;0.0613;-0.1952;0.4788;
258619271793732;0.2081;0.1531;0.5363;
258619276851961;0.4457;0.2021;0.5289;
258619281906232;0.5149;0.0530;0.4799;
258619286960503;0.1836;-0.0269;0.4543;
258619292014773;-0.2754;-0.2399;0.4437;
258619297069044;-0.3585;-0.2538;0.4374;
258619302123367;-0.1262;0.0700;0.4565;
258619307177534;0.1017;0.4097;0.4682;
258619312231805;0.2134;0.3767;0.4161;
258619317286075;0.0549;0.1276;0.4055;
258619322340398;-0.2924;0.1819;0.4108;
258619327394669;-0.5149;0.2787;0.3916;
258619332448940;-0.4574;-0.1473;0.3554;
258619337500763;-0.4075;-0.0120;0.2893;
258619342554982;-0.4648;0.5141;0.3415;
258619347609253;-0.4531;0.4917;0.3522;
258619352663575;-0.3276;-0.0045;0.3021;
258619357717846;-0.1390;-0.2250;0.2009;
258619362772117;-0.0059;-0.1132;0.2031;
258619367823784;-0.2019;0.1201;0.2414;
258619372878055;-0.4840;-0.0130;0.2446;
258619377932378;-0.4979;0.0008;0.2766;
258619382986648;-0.3403;0.3149;0.2872;
258619388040919;-0.1273;0.0786;0.2627;
258619393095242;0.1411;-0.5264;0.2095;
258619398174357;0.2166;-0.1643;0.2595;
258619403228628;-0.1465;0.6355;0.3043;
258619408282898;-0.4702;0.2415;0.2425;
258619413337169;-0.4584;-0.4486;0.1370;
258619418391440;-0.4830;-0.2932;0.1445;
258619423445711;-0.4276;0.2213;0.1999;
258619428498888;-0.0762;0.3298;0.1370;
258619433553159;0.0538;0.0317;0.0603;
258619438607430;-0.2530;0.0445;0.0081;
258619443661700;-0.5682;0.2936;0.0806;
258619448716023;-0.5575;0.1233;0.0401;
258619453770294;-0.3308;-0.2261;-0.0164;
258619458810242;-0.0772;-0.1899;-0.0345;
258619463864513;0.0676;0.1989;-0.0153;
258619468918784;-0.0080;0.3032;0.0188;
258619473973055;-0.1933;0.1244;-0.0196;
258619479027378;-0.2967;-0.1121;-0.0856;
258619484081648;-0.3031;-0.2399;-0.1069;
258619489135138;-0.3158;-0.1345;-0.0760;
258619494189409;-0.2679;0.0594;-0.0494;
258619499243680;-0.1518;0.1798;-0.0366;
258619504297950;-0.0176;0.0530;-0.0664;
258619509352273;0.0559;-0.1356;-0.0675;
258619514406544;-0.0080;0.0647;0.0071;
258619519445815;-0.1081;0.3320;0.0113;
258619524500086;-0.1252;0.0796;-0.0505;
258619529554357;-0.1869;-0.2751;-0.1218;
258619534608628;-0.3830;-0.1409;-0.0590;
258619539662898;-0.3616;0.1052;-0.0324;
258619544717221;0.0368;-0.1696;-0.1101;
258619549775711;0.4361;-0.4955;-0.1325;
258619554829982;0.3849;0.2405;-0.0324;
258619559884253;0.0889;0.6590;0.0529;
258619564938471;-0.0112;-0.2346;-0.0664;
258619569992794;-0.0442;-0.6851;-0.1357;
258619575047065;-0.2168;-0.0908;-0.0302;
258619580180138;-0.1028;0.2968;0.0433;
258619585234409;0.2912;0.0328;-0.0100;
258619590288732;0.3583;-0.0120;-0.0366;
258619595342950;0.1305;0.3948;0.0571;
258619600397273;-0.0495;0.3660;0.1093;
258619605451596;-0.0751;-0.1100;0.0337;
258619610454461;-0.1294;-0.1835;0.0060;
258619615508732;-0.2839;0.0775;0.0933;
258619620563003;-0.3009;0.1595;0.1477;
258619625617273;-0.1326;0.0668;0.1019;
258619630671544;-0.0123;-0.1366;0.0699;
258619635725867;-0.1252;-0.0354;0.1146;
258619640783732;-0.3350;0.2744;0.1860;
258619645838003;-0.4170;0.1872;0.1445;
258619650892273;-0.4361;-0.1941;0.1008;
258619655946544;-0.5426;-0.2144;0.1391;
258619661000815;-0.6097;0.2309;0.1658;
258619666055138;-0.5351;0.2957;0.1168;
258619671103315;-0.5810;-0.1803;0.0624;
258619676157534;-1.0134;0.2117;0.1125;
258619681211857;-1.4980;0.9262;0.2020;
258619686266128;-1.5907;0.0189;0.0134;
258619691320398;-1.3915;-1.7458;-0.1750;
258619696374669;-1.0751;-1.5265;-0.1666;
258619701420138;-0.6225;0.5375;-0.0057;
258619706474461;-0.6747;1.5130;0.0284;
258619711528680;-1.2668;0.0083;-0.1080;
258619716583003;-2.0507;-0.8566;-0.2037;
258619721637221;-2.5544;-0.6041;-0.2367;
258619726691544;-2.2647;-0.0695;-0.2389;
258619731760659;-1.7343;0.0136;-0.2730;
258619736814930;-1.6130;0.0061;-0.2996;
258619741869200;-1.7301;0.4321;-0.3102;
258619746923471;-2.0518;0.2426;-0.3379;
258619751977794;-2.4223;-0.1728;-0.4264;
258619757032065;-2.5800;0.0200;-0.4104;
258619762069825;-2.4191;0.3256;-0.4125;
258619767124096;-2.1391;0.3565;-0.4551;
258619772178367;-1.9591;0.1361;-0.4807;
258619777232638;-1.9122;0.2618;-0.4913;
258619782286909;-1.9516;0.3799;-0.4956;
258619787341232;-2.0209;0.1371;-0.5563;
258619792396284;-2.0539;0.1755;-0.5212;
258619797450607;-1.8622;0.3341;-0.5244;
258619802504825;-1.5044;-0.0173;-0.5798;
258619807559148;-1.2839;-0.1366;-0.5616;
258619812613367;-1.0602;0.3277;-0.4551;
258619817667690;-0.7674;0.6228;-0.4423;
258619822716753;-0.6875;0.2744;-0.4924;
258619827771023;-0.7311;0.0860;-0.4455;
258619832825242;-0.6012;0.3298;-0.3912;
258619837879565;-0.3403;0.1808;-0.4541;
258619842933784;-0.2498;-0.1622;-0.4530;
258619847988107;-0.2157;0.1244;-0.3603;
258619853050242;0.0197;0.4577;-0.3209;
258619858104565;0.1889;0.2840;-0.3529;
258619863158836;0.1305;0.1563;-0.3028;
258619868213055;0.1614;0.2766;-0.2431;
258619873267378;0.3317;0.1084;-0.3039;
258619878321648;0.3477;-0.1441;-0.2943;
258619883389565;0.3093;-0.0056;-0.2261;
258619888443836;0.4339;0.1638;-0.2229;
258619893498107;0.5575;-0.0258;-0.2410;
258619898552378;0.5298;0.0754;-0.2069;
258619903606648;0.4861;0.5120;-0.0856;
258619908660971;0.6076;0.3735;-0.1165;
258619913716544;0.6875;-0.3060;-0.2346;
258619918770763;0.4819;-0.4028;-0.1931;
258619923825034;0.3402;0.3628;-0.0739;
258619928879357;0.5980;0.4374;-0.0771;
258619933933628;0.8599;-0.2154;-0.1453;
258619938987898;0.8365;-0.0897;-0.0686;
258619944025555;0.8130;0.3181;-0.0185;
258619949079825;0.8077;0.0413;-0.0835;
258619954134148;0.6363;-0.2250;-0.0569;
258619959188367;0.5053;0.0423;0.0092;
258619964242638;0.6182;0.3181;-0.0036;
258619969296961;0.8152;0.0125;-0.0750;
258619974346857;0.8088;-0.1814;-0.0196;
258619979401128;0.7780;0.2618;0.0635;
258619984455398;0.8610;0.2893;0.0145;
258619989509617;0.8035;-0.2165;-0.0238;
258619994563888;0.5650;-0.2048;0.0411;
258619999618211;0.5043;0.1329;0.0582;
258620004671753;0.6715;0.2776;0.0294;
258620009726023;0.7780;0.1361;0.0667;
258620014780294;0.8152;-0.0120;0.0955;
258620019834565;0.9153;-0.1185;0.0486;
258620024888836;0.9260;-0.0194;0.0198;
258620029943107;0.7780;0.0775;0.1636;
258620034998419;0.7354;0.1126;0.1210;
258620040052690;0.7514;-0.0823;0.0422;
258620045106909;0.6694;-0.0876;0.0656;
258620050161180;0.6406;0.1095;0.1306;
258620055215503;0.6992;0.0509;0.0614;
258620060269773;0.5586;0.0104;-0.0228;
258620065327378;0.2710;0.0423;0.0529;
258620070381648;0.1582;-0.0003;0.0731;
258620075435867;0.2028;0.1872;-0.0057;
258620080490190;0.2252;0.1755;-0.0132;
258620085544461;0.2092;-0.1228;0.0305;
258620090598732;0.0559;-0.0876;-0.0313;
258620095651180;-0.2370;0.0647;-0.0888;
258620100705398;-0.3446;-0.0929;-0.0782;
258620105759721;-0.1784;-0.2517;-0.0345;
258620110813940;-0.0719;0.0509;-0.1091;
258620115868263;-0.1443;0.3320;-0.1304;
258620120922534;-0.2189;-0.0120;-0.0771;
258620125996440;-0.2551;-0.2346;-0.1666;
258620131050711;-0.3286;0.0157;-0.1856;
258620136104982;-0.3606;0.0700;-0.1931;
258620141159253;-0.2434;-0.2549;-0.1707;
258620146213523;-0.1390;-0.3113;-0.2091;
258620151267846;-0.1880;0.1638;-0.2346;
258620156322586;-0.1795;0.3650;-0.1696;
258620161376857;0.0272;-0.1537;-0.2037;
258620166431128;0.1816;-0.3357;-0.2570;
258620171485398;0.1028;0.0370;-0.2389;
258620176539669;0.0474;-0.0493;-0.1995;
258620181593940;0.1337;-0.3783;-0.1920;
258620186640242;0.1795;-0.1206;-0.2559;
258620191694617;0.2252;0.2947;-0.2154;
258620196748992;0.4734;0.0690;-0.1549;
258620201803367;0.7397;-0.2602;-0.2059;
258620206857742;0.7077;-0.0024;-0.1984;
258620211912117;0.5735;0.1712;-0.1421;
258620216963680;0.6278;-0.2378;-0.1250;
258620222018055;0.7301;-0.3549;-0.1538;
258620227072430;0.8120;0.1297;-0.1559;
258620232126805;1.0058;0.1499;-0.0824;
258620237181180;1.1987;-0.1931;-0.0856;
258620242235555;1.1987;0.0061;-0.0483;
258620247286180;1.0762;0.1925;-0.0601;
258620252340555;1.0463;-0.1579;-0.0142;
258620257394930;1.0399;-0.2857;0.0379;
258620262449305;0.9782;0.1105;-0.0153;
258620267503628;1.0133;0.1702;0.0422;
258620272558003;1.1869;-0.3431;0.0433;
258620277610659;1.2018;-0.4305;0.0369;
258620282665034;0.9867;0.1989;0.1285;
258620287719409;0.8578;0.4108;0.1796;
258620292773784;0.9377;-0.1249;0.1722;
258620297828107;0.9185;-0.3134;0.1125;
258620302882534;0.7514;0.0530;0.1370;
258620307932117;0.6907;0.0700;0.1871;
258620312986492;0.7013;-0.1632;0.1647;
258620318040867;0.6076;0.1105;0.1850;
258620323095242;0.5256;0.3181;0.1903;
258620328149617;0.4915;-0.0578;0.1732;
258620333203992;0.3178;-0.2240;0.1711;
258620338265711;0.0751;0.2000;0.1903;
258620343320086;0.0623;0.2160;0.1775;
258620348374461;0.1507;-0.1174;0.1839;
258620353428836;0.1348;0.0306;0.1647;
258620358483159;0.0048;0.3852;0.1455;
258620363537534;-0.1092;0.0999;0.2084;
258620368608523;-0.1774;-0.1079;0.1636;
258620373662898;-0.2434;0.0125;0.1423;
258620378717273;-0.3201;0.0828;0.1786;
258620383771648;-0.3499;0.1105;0.2126;
258620388826023;-0.2796;0.1340;0.1530;
258620393880398;-0.3020;-0.0503;0.1115;
258620398957221;-0.4595;0.0413;0.1562;
258620404011596;-0.4766;0.1872;0.1381;
258620409065971;-0.4106;-0.1941;0.0209;
258620414120346;-0.5586;-0.5967;-0.0196;
258620419174721;-0.8025;-0.4081;0.0145;
258620424229096;-0.9314;0.1297;0.0454;
258620429244253;-0.8877;1.0967;0.2659;
258620434298628;-0.6811;1.4269;0.4406;
258620439352950;-0.4574;0.1830;0.3618;
258620444407325;-0.5937;-0.9120;0.1370;
258620449461700;-1.0092;-0.5775;0.2691;
258620454516128;-1.1252;0.2394;0.4746;
258620459616700;-1.1134;0.1286;0.4321;
258620464671075;-1.2295;-0.8097;0.3309;
258620469725450;-0.9985;-1.4093;0.3224;
258620474779825;-0.2466;-1.0184;0.3437;
258620479834200;0.2593;-0.0280;0.4214;
258620484888575;-0.3840;0.8486;0.4969;
258620489910971;-1.4777;-0.6691;0.4097;
258620494965346;-2.1572;-1.8342;0.2531;
258620500019721;-2.1636;-1.1909;0.2425;
258620505074096;-1.5491;0.4278;0.4895;
258620510128471;-0.6449;1.6536;0.8538;
258620515182846;0.1305;1.3789;0.6546;
258620520225763;0.2656;-0.6808;-0.1792;
258620525280138;-0.3616;-2.4594;-0.7747;
258620530334513;-2.0464;-1.6915;-0.7257;
258620535388888;-2.7227;-1.8747;-0.8598;
258620540443263;-1.5715;-0.3506;-0.4892;
258620545497638;-0.4064;1.5407;-0.0494;
258620550547950;0.2795;1.6760;-0.0611;
258620555602325;0.8343;0.6686;-0.2847;
258620560656700;-0.2274;0.4236;-0.3784;
258620565711075;-1.8185;-0.1686;-0.6362;
258620570765450;-2.1455;-0.8129;-0.6937;
258620575819825;-1.4873;-0.1601;-0.6767;
258620580895763;-0.8888;1.3747;-0.4967;
258620585950138;-0.5618;1.4184;-0.4008;
258620591004513;-0.5405;0.3628;-0.4466;
258620596058888;-0.5330;-0.2644;-0.5531;
258620601113263;-0.4467;0.0679;-0.5574;
258620606167638;-0.4574;0.8220;-0.4029;
258620611220450;-0.4425;0.7676;-0.4913;
258620616274825;-0.3659;-0.2762;-0.6447;
258620621329200;-0.3776;-0.4294;-0.5829;
258620626383575;-0.4339;0.5035;-0.4956;
258620631437950;-0.3318;0.6366;-0.4924;
258620636492325;-0.1731;-0.3676;-0.5531;
258620641545346;-0.1774;-0.6968;-0.5798;
258620646599721;-0.1124;-0.0780;-0.5116;
258620651654096;0.2933;0.1830;-0.4626;
258620656708471;0.7109;-0.1835;-0.4189;
258620661762846;0.9931;-0.3559;-0.4242;
258620666817221;1.4105;-0.2016;-0.4253;
258620671868784;1.6076;0.3405;-0.2112;
258620676923159;1.0857;1.4162;-0.0973;
258620681977534;0.4084;0.2000;-0.2549;
258620687031909;0.1784;-1.6478;-0.3262;
258620692086284;0.4041;-0.6659;-0.2676;
258620697140659;1.4105;0.3873;-0.2506;
258620702184305;2.3275;0.7719;-0.0164;
258620707238680;2.5480;1.9104;0.1594;
258620712293055;2.3488;1.5056;0.0284;
258620717347430;1.3616;1.8912;0.2371;
258620722401753;-0.7951;5.1756;0.6194;
258620727456180;-4.9528;7.4335;1.3532;
258620732512846;-8.8635;5.2011;0.9401;
258620737567221;-8.9328;-2.0462;-0.7502;
258620742621596;-5.9613;-8.1018;-1.9004;
258620747675971;-2.2934;-4.8258;-1.8056;
258620752730346;0.5181;-1.0812;-0.6937;
258620757784721;2.0623;-0.0397;0.1679;
258620762829200;1.9080;2.1563;0.4108;
258620767883575;2.1305;2.5483;0.9859;
258620772937950;3.8366;2.1211;0.8772;
258620777992325;5.5716;0.7229;0.4321;
258620783046700;6.4246;-1.0109;0.0742;
258620788101075;6.7036;-1.7192;0.0869;
258620793152325;6.6088;-1.1217;0.2254;
258620798206700;6.2649;-1.1718;0.1551;
258620803261075;5.4725;-0.1579;0.2329;
258620808315398;2.3851;2.4876;0.7110;
258620813369773;-0.4000;-1.0311;0.5768;
258620818424148;0.1039;-2.6202;-0.0111;
258620823478055;-0.0272;-1.5615;-0.1293;
258620828532430;-0.2029;0.0999;0.0326;
258620833586805;0.5170;0.8752;-0.0494;
258620838641180;0.1401;0.4470;-0.0121;
258620843695555;0.3871;0.4939;0.0838;
258620848749930;0.6481;1.1371;-0.0281;
258620853806492;0.4244;0.5599;0.0624;
258620858860867;0.6438;-0.0674;-0.0547;
258620863915242;0.4201;0.4108;-0.1314;
258620868969617;-0.2178;1.1009;0.1051;
258620874023940;-0.4435;1.4109;0.1562;
258620879078367;-0.8004;0.9901;0.0401;
258620884141857;-1.3382;-0.0067;0.0731;
258620889196232;-1.5480;-0.1601;-0.0260;
258620894250607;-1.7940;0.4140;0.0539;
258620899304982;-2.0528;0.7932;0.2957;
258620904359357;-1.7982;0.1968;0.1796;
258620909413732;-1.3414;-0.9120;-0.0760;
258620914450555;-0.7375;-1.5073;-0.0782;
258620919504930;0.2071;-0.7447;0.0071;
258620924559305;1.1241;0.1766;0.1381;
258620929613680;1.9825;0.2064;0.2276;
258620934668055;2.9506;-0.2612;0.1413;
258620939722378;3.6972;-0.8193;-0.0302;
258620944784044;4.1114;-0.9811;-0.0324;
258620949838419;4.2105;0.3053;0.1306;
258620954892794;2.1816;3.1713;0.3266;
258620959947169;-1.0655;1.2714;0.3277;
258620965001492;-2.2052;-2.0888;-0.0451;
258620970055867;-2.5566;-2.3006;-0.3326;
258620975107794;-3.1135;0.1031;-0.2250;
258620980162169;-2.7888;1.1084;0.0838;
258620985216544;-2.8632;0.7421;0.1264;
258620990270919;-3.2052;0.3075;-0.0696;
258620995325242;-3.0070;-0.1654;0.0166;
258621000379617;-2.7653;0.4726;-0.0153;
258621005433992;-2.7217;0.5418;0.0198;
258621010488367;-2.3265;-0.3294;-0.0707;
258621015542742;-1.6587;-0.8491;-0.1973;
258621020597117;-1.1177;-0.4592;-0.1877;
258621025651492;-0.3915;-0.0375;-0.0174;
258621030705867;0.6246;0.0818;-0.0324;
258621035760659;1.3606;-0.0365;-0.1144;
258621040815034;1.8771;-0.4603;-0.0941;
258621045869409;2.4415;-0.3772;-0.1069;
258621050923784;2.6843;0.3138;-0.1059;
258621055978107;2.5566;0.5322;-0.0579;
258621061032482;2.3361;0.0594;-0.0824;
258621066087742;1.3712;0.7804;-0.1591;
258621071142117;-0.9719;1.0082;-0.1357;
258621076196492;-2.4863;-1.2772;-0.3156;
258621081250867;-2.3382;-1.8800;-0.4636;
258621086305190;-2.5608;0.1254;-0.4391;
258621091359617;-2.5885;1.0647;-0.1399;
258621096417221;-2.1679;0.3799;-0.2485;
258621101471596;-2.0486;-0.5541;-0.4935;
258621106525971;-1.7940;-0.7458;-0.4604;
258621111580346;-1.1188;0.0477;-0.2826;
258621116634669;-0.4616;0.8529;-0.1952;
258621121689044;0.0613;0.0594;-0.1367;
258621126759200;0.7908;-1.0418;-0.3571;
258621131813575;1.5383;-1.1654;-0.4072;
258621136867950;2.1891;-0.5327;-0.0920;
258621141922325;3.0081;0.3096;0.0198;
258621146976700;3.7110;0.0434;0.0092;
258621152031075;4.0667;-1.0556;0.0390;
258621157083992;4.4256;-1.2868;-0.0483;
258621162138367;4.6023;-0.4720;0.0901;
258621167192742;4.3617;0.4406;0.4533;
258621172247117;3.4873;1.8763;0.5491;
258621177301492;0.8748;1.1627;0.5704;
258621182355867;-1.0676;-1.7298;0.3213;
258621187394096;-1.2125;-2.4018;0.0252;
258621192448419;-1.6939;-0.7085;0.0593;
258621197502742;-1.8121;1.1052;0.5161;
258621202557065;-1.6226;1.2714;0.5363;
258621207611440;-1.9442;0.0562;0.2563;
258621212665711;-1.8717;-0.9811;0.1391;
258621217712482;-1.2935;-0.7522;0.1455;
258621222766805;-0.9527;-0.0130;0.1711;
258621227821128;-0.3435;-0.0162;0.2712;
258621232875450;0.5735;-0.2016;0.1807;
258621237929773;1.0591;-0.2794;0.1125;
258621242984096;1.4968;-0.2485;0.1690;
258621248041284;2.1283;0.0892;0.1881;
258621253095607;2.3361;0.4353;0.2244;
258621258149930;2.2221;0.1329;0.3000;
258621263204253;2.0729;-0.4347;0.2180;
258621268258575;1.8174;-0.6329;0.1530;
258621273312898;1.3627;0.0402;0.2531;
258621278367534;0.0602;0.8603;0.3469;
258621283421857;-1.1528;-0.7032;0.1711;
258621288476180;-1.2881;-1.8896;0.0571;
258621293530503;-1.2892;-0.7788;0.1061;
258621298584825;-1.1092;0.8857;0.2819;
258621303639148;-1.0092;1.2437;0.3788;
258621308688471;-1.2050;0.3916;0.2180;
258621313742794;-1.4500;-0.3262;-0.0377;
258621318797117;-1.6917;-0.5072;-0.0675;
258621323851440;-1.6875;-0.2975;-0.0419;
258621328905763;-1.5012;-0.0482;-0.1644;
258621333960086;-1.2413;-0.3071;-0.1612;
258621339016232;-0.7461;-0.3166;-0.1272;
258621344070555;-0.2072;0.4758;-0.1389;
258621349124878;0.0719;0.7218;0.0262;
258621354179200;0.3370;0.1830;-0.0473;
258621359233523;0.5362;-0.4965;-0.3028;
258621364287846;0.3775;-0.5051;-0.1549;
258621369367950;0.5501;0.3863;-0.0601;
258621374422273;0.7141;0.9603;-0.0867;
258621379476648;0.2955;0.3660;0.0454;
258621384530919;0.2071;-0.1441;-0.0760;
258621389585242;0.1379;0.0871;-0.0675;
258621394639565;-0.3670;0.4023;0.1860;
258621399681700;-0.5128;0.3735;0.0923;
258621404736023;-0.6491;-0.1036;0.1115;
258621409790346;-0.9325;-0.3655;0.1668;
258621414844669;-0.6630;-0.3326;0.0465;
258621419898992;-0.3521;-0.3039;0.1338;
258621424953315;-0.1305;-0.3623;0.1423;
258621430026180;0.5927;-0.5913;-0.0132;
258621435080503;1.2317;-0.2730;0.1807;
258621440134825;1.7386;0.8518;0.4469;
258621445189148;2.4330;1.1201;0.3916;
258621450243471;2.6120;-0.4071;0.3351;
258621455297794;2.6885;-1.6478;0.1253;
258621460320450;3.3062;-1.4136;0.0646;
258621465374773;3.5022;-0.1345;0.3351;
258621470429096;3.4617;0.9401;0.4916;
258621475483419;2.5310;2.0595;0.4991;
258621480537742;0.1156;0.2776;0.5726;
258621485592065;-0.8835;-1.4711;0.1903;
258621490656596;-0.9101;-1.2655;0.1583;
258621495710919;-1.1326;0.9454;0.4863;
258621500765242;-1.0644;2.1105;0.7036;
258621505819565;-1.2445;1.1062;0.5779;
258621510873888;-1.5715;-0.7618;0.4108;
258621515928211;-1.3489;-1.1430;0.2851;
258621520987325;-0.9485;-0.0077;0.4469;
258621526041648;-0.5799;0.9422;0.7260;
258621531095971;0.1113;0.8805;0.6706;
258621536150294;0.6417;-0.0983;0.4724;
258621541204617;0.9515;-0.8097;0.3660;
258621546258940;1.3915;-0.4241;0.3341;
258621551313471;1.6896;0.2501;0.4618;
258621556367794;1.9229;0.3117;0.4236;
258621561422117;1.8515;-0.3347;0.2457;
258621566476440;1.3233;-0.2229;0.2393;
258621571530763;-0.3095;1.5865;0.3266;
258621576585086;-2.4980;-0.0237;0.1796;
258621581639096;-2.7962;-2.2442;-0.1538;
258621586693419;-2.6333;-1.8257;-0.2453;
258621591747742;-2.5779;0.3160;-0.0856;
258621596802065;-1.9879;1.1797;0.1658;
258621601856388;-1.8654;0.5929;-0.0643;
258621606910711;-1.9452;-0.4976;-0.2740;
258621611983367;-1.6375;-0.5977;-0.2101;
258621617037690;-1.4064;0.4640;-0.2101;
258621622092013;-1.2945;0.5876;-0.2069;
258621627146336;-0.9602;-0.4230;-0.2378;
258621632200659;-0.6768;-0.7319;-0.4285;
258621637254982;-0.5692;-0.0567;-0.3071;
258621642304305;-0.3542;0.9518;-0.0356;
258621647358628;-0.0634;0.9678;-0.1655;
258621652412950;0.0005;-0.2921;-0.2964;
258621657467273;0.0730;-0.8747;-0.2612;
258621662521596;0.2806;0.0296;-0.3007;
258621667575919;0.1028;0.9763;-0.0931;
258621672648784;-0.1401;1.0178;-0.0111;
258621677703055;-0.2594;0.2064;-0.2804;
258621682757378;-0.5394;-0.5658;-0.2602;
258621687811700;-0.5181;-0.3623;-0.2378;
258621692866023;-0.3766;0.1968;-0.3028;
258621697920346;-0.4819;0.1968;-0.0920;
258621702974669;-0.2636;0.0700;-0.1803;
258621707992378;-0.0123;-0.0130;-0.2453;
258621713046700;-0.0623;0.1201;-0.0281;
258621718101023;0.2294;0.2234;-0.1495;
258621723155346;0.5362;-0.2549;-0.1760;
258621728209669;0.5639;-0.4486;-0.0483;
258621733263992;0.9920;-0.0642;-0.1474;
258621738310138;1.2785;0.1073;-0.0068;
258621743364461;1.1976;0.1766;0.0848;
258621748418784;1.3851;0.1329;-0.0835;
258621753473107;1.2285;-0.1579;0.0688;
258621758527430;0.9132;0.0945;0.0454;
258621763581753;0.9803;0.0381;-0.0281;
258621768637117;0.6768;-0.3762;0.0912;
258621773691440;0.4382;-0.2740;-0.0164;
258621778745763;0.3264;-0.0365;0.0209;
258621783800086;-0.1688;0.3202;0.1743;
258621788854409;-0.2647;0.3969;0.0742;
258621793908732;-0.4627;-0.1654;0.0731;
258621799015138;-0.7759;-0.5125;0.0252;
258621804069461;-0.5596;-0.4848;-0.0270;
258621809123784;-0.6012;-0.0333;0.0944;
258621814178107;-0.4702;0.3724;0.1338;
258621819232430;-0.1912;0.1638;0.0891;
258621824286753;-0.3041;-0.1931;0.0454;
258621829303575;-0.1060;-0.5168;-0.0260;
258621834357898;0.1134;-0.3996;0.0220;
258621839412221;0.2997;0.0871;0.0752;
258621844466544;0.5309;0.2607;0.0806;
258621849520867;0.4808;0.1361;0.1008;
258621854575190;0.6385;-0.1739;0.0177;
258621859655086;0.5351;-0.1909;0.0134;
258621864709409;0.3796;-0.0301;0.0443;
258621869763732;0.3168;0.1340;0.0230;
258621874818055;-0.0772;0.3234;0.0795;
258621879872378;-0.1965;0.0999;0.0390;
258621884926700;-0.5138;-0.3028;-0.0164;
258621889945346;-0.7375;-0.4145;0.0007;
258621894999669;-0.6885;-0.0940;-0.0111;
258621900054044;-0.8941;0.1734;0.0699;
258621905108315;-0.7386;-0.1611;0.0145;
258621910162638;-0.6768;-0.3538;-0.0068;
258621915216961;-0.5682;-0.0184;0.1019;
258621920264565;-0.2264;0.2861;0.0891;
258621925318836;-0.1742;0.1776;0.1189;
258621930373159;0.0719;-0.2676;0.0614;
258621935427482;0.2358;-0.3453;0.0273;
258621940481805;0.4212;0.0349;0.1178;
258621945536128;0.7823;0.2021;0.0901;
258621950621180;0.8375;0.0551;0.1274;
258621955675503;1.0367;-0.1654;0.0603;
258621960729825;1.0112;0.0306;0.0539;
258621965784148;0.8674;0.4065;0.1700;
258621970838471;0.8003;0.5546;0.0518;
258621975892794;0.3924;0.1446;0.0699;
258621980945034;0.2060;-0.5072;-0.0750;
258621985999357;-0.0506;-0.6190;-0.1314;
258621991053680;-0.2732;-0.0684;-0.0068;
258621996108003;-0.3137;0.3224;-0.0632;
258622001162325;-0.5320;0.1265;-0.0185;
258622006216648;-0.5075;-0.2943;-0.1186;
258622011243471;-0.5820;-0.3198;-0.1686;
258622016297794;-0.6055;0.1648;-0.0164;
258622021352117;-0.4861;0.5301;-0.0739;
258622026406440;-0.5469;0.2607;0.0134;
258622031460763;-0.3925;0.0881;-0.0590;
258622036515086;-0.2615;-0.1771;-0.1261;
258622041581596;-0.1561;-0.8054;-0.1644;
258622046635919;0.0293;-0.7106;-0.2815;
258622051690242;0.2561;0.1585;-0.0590;
258622056744565;0.5586;0.8411;0.0007;
258622061798888;0.7013;0.6100;-0.0334;
258622066853211;0.8471;-0.1462;-0.0398;
258622071910659;0.9899;-0.1366;-0.1814;
258622076964982;0.9590;0.1371;-0.0483;
258622082019305;0.8556;0.0945;-0.1261;
258622087073628;0.6821;-0.3209;-0.1782;
258622092127950;0.5873;-0.4060;-0.1304;
258622097182273;0.6417;-0.1185;-0.1899;
258622102246805;0.6587;-0.2091;-0.1218;
258622107301128;0.5980;-0.3943;-0.1527;
258622112355450;0.5991;0.2819;-0.0345;
258622117409773;0.5565;1.1659;0.1722;
258622122464096;0.4201;0.8113;0.0806;
258622127518419;0.2113;-0.6915;-0.0867;
258622132576596;-0.0154;-1.6872;-0.2900;
258622137630919;0.0879;-1.2186;-0.2815;
258622142685242;0.1858;0.1915;-0.0313;
258622147739565;0.3945;0.9092;0.1051;
258622152793888;0.8141;0.1393;0.0443;
258622157848211;0.8865;-0.7234;-0.0696;
258622162903367;1.2008;-0.4976;0.0017;
258622167957690;1.3371;0.6419;0.1509;
258622173012013;1.1582;0.9987;0.2414;
258622178066336;1.0399;0.0349;0.1850;
258622183120659;0.6044;-0.6339;0.0976;
258622188175034;0.4478;-0.4230;0.1711;
258622193215346;0.3072;0.3596;0.2499;
258622198269721;0.1103;0.3991;0.3288;
258622203324096;0.1273;-0.1846;0.2510;
258622208378419;-0.1124;-0.3156;0.2329;
258622213432794;-0.1156;-0.0333;0.3053;
258622218487169;-0.3318;0.3991;0.3373;
258622223537846;-0.6587;0.4268;0.3969;
258622228592221;-0.9165;0.2597;0.3863;
258622233646596;-1.2913;0.1446;0.4118;
258622238700971;-1.2210;-0.2357;0.3735;
258622243755294;-0.9676;-0.7660;0.3149;
258622248809669;-0.4893;-0.8545;0.2851;
258622253864409;0.0943;-0.1260;0.3383;
258622258918784;0.3509;0.6707;0.5150;
258622263973159;0.6140;0.5514;0.4905;
258622269027534;0.6150;-0.0876;0.4097;
258622274081857;0.7599;-0.7469;0.3852;
258622279136232;1.1007;-0.4784;0.2936;
258622284196909;1.1933;0.3873;0.4820;
258622289251284;1.4009;0.4715;0.4332;
258622294305659;1.2423;-0.1941;0.3405;
258622299359982;0.9931;-0.1387;0.2925;
258622304414357;-0.1774;0.7634;0.3341;
258622309468732;-1.3084;-0.0365;0.2627;
258622314517638;-1.3318;-0.5690;0.0965;
258622319572013;-2.1082;0.6803;0.2616;
258622324626336;-2.5182;1.2991;0.3096;
258622329680711;-2.2956;0.1180;0.1338;
258622334735086;-2.2382;-1.1377;-0.0547;
258622339789461;-1.7322;-0.7160;-0.0632;
258622344839617;-1.1401;0.8475;0.1264;
258622349893992;-0.9261;1.2383;0.1850;
258622354948367;-0.6502;0.2053;0.0838;
258622360002690;-0.2477;-0.9269;-0.1760;
258622365057065;0.1635;-0.7735;-0.1165;
258622370111440;0.6960;0.2660;-0.0057;
258622375176909;1.1880;0.5152;0.0369;
258622380231284;1.3723;-0.0482;-0.0121;
258622385285659;1.4883;-0.5786;-0.1527;
258622390339982;1.4819;-0.2357;-0.0718;
258622395394357;1.2508;0.3298;-0.0537;
258622400448732;0.9260;0.5770;0.0230;
258622405510659;0.0218;0.5855;-0.0260;
258622410565034;-0.8622;-0.5498;-0.1538;
258622415619409;-0.9431;-1.3028;-0.2378;
258622420673784;-0.9591;-0.3145;-0.2517;
258622425728159;-0.9900;0.9720;-0.0174;
258622430782482;-0.9730;0.8699;-0.1027;
258622435822430;-1.0804;-0.2943;-0.1675;
258622440876805;-1.0410;-0.6691;-0.3007;
258622445931180;-0.6608;-0.0312;-0.1941;
258622450985503;-0.3361;0.7197;-0.0739;
258622456039878;-0.0240;0.4321;-0.1623;
258622461094253;0.2529;-0.2346;-0.1867;
258622466144513;0.2806;-0.0439;-0.2815;
258622471198888;0.4648;0.2543;-0.1261;
258622476253263;0.5703;0.3937;-0.1728;
258622481307586;0.7109;-0.1132;-0.1696;
258622486361961;0.8290;-0.2282;-0.2325;
258622491416336;0.7908;0.1723;-0.1782;
258622496474825;0.6353;0.5205;-0.1048;
258622501529200;0.3636;0.2202;-0.1920;
258622506583575;0.2433;-0.7011;-0.2218;
258622511637898;0.1582;-0.6702;-0.2762;
258622516692273;0.2784;-0.0344;-0.1304;
258622521746648;0.2422;0.5940;-0.0579;
258622526787325;0.1678;0.2628;-0.0356;
258622531841700;0.0581;-0.2804;-0.0654;
258622536896075;-0.0037;-0.4156;-0.1005;
258622541950398;0.1497;-0.1015;0.0262;
258622547004773;0.1646;0.4353;0.0518;
258622552059148;0.1720;0.1787;0.1061;
258622557119721;0.0591;-0.2154;0.0188;
258622562174096;0.0932;-0.4337;0.0571;
258622567228471;0.3083;0.0051;0.1019;
258622572282794;0.6012;0.1499;0.1413;
258622577337169;0.8056;-0.1047;0.1328;
258622582391544;0.8759;-0.1622;0.1125;
258622587444825;0.9451;0.0072;0.1509;
258622592499200;0.9260;0.0775;0.1658;
258622597553575;0.9089;-0.1771;0.1242;
258622602607898;0.7855;-0.0493;0.1573;
258622607662273;0.7130;0.2075;0.1903;
258622612716648;0.5490;0.3682;0.2340;
258622617788471;0.3466;-0.0173;0.1477;
258622622842846;-0.0154;-0.2847;0.1264;
258622627897221;-0.4510;0.0072;0.1551;
258622632951544;-0.6246;0.0956;0.1317;
258622638005919;-0.7727;0.0360;0.1658;
258622643060294;-0.8941;-0.1004;0.1221;
258622648092846;-0.8856;-0.0589;0.1498;
258622653147221;-0.8132;0.1734;0.1594;
258622658201596;-0.7780;0.4885;0.2308;
258622663255919;-0.6939;0.1989;0.1636;
258622668310294;-0.6726;-0.3305;0.0965;
258622673364721;-0.5618;-0.4060;0.1104;
258622678445867;-0.2903;0.0445;0.1370;
258622683500242;-0.0378;0.4193;0.2361;
258622688554565;0.2614;0.0903;0.1530;
258622693608940;0.5415;-0.4007;0.1274;
258622698663315;0.6907;-0.3570;0.0635;
258622703717690;0.7716;0.1563;0.1455;
258622708749409;0.7365;0.5493;0.2286;
258622713803784;0.5959;0.2968;0.2148;
258622718858159;0.4702;-0.5402;0.0784;
258622723912482;0.3775;-0.7746;0.0113;
258622728966909;0.2869;0.2447;0.1647;
258622734021232;-0.1358;1.0679;0.1583;
258622739082638;-0.4297;0.1734;0.1477;
258622744136961;-0.5660;-0.6457;-0.0345;
258622749191388;-0.8664;-0.2016;0.0049;
258622754245711;-0.9879;0.4587;0.0475;
258622759300086;-0.9900;0.2394;0.0411;
258622764354461;-1.0602;-0.2985;-0.0313;
258622769424721;-0.8803;-0.2804;-0.0643;
258622774479096;-0.5373;0.1478;0.0294;
258622779533471;-0.4011;0.3746;-0.0281;
258622784587794;-0.2114;-0.0045;0.0113;
258622789642169;-0.0123;-0.0961;-0.1005;
258622794696544;0.1284;-0.0322;-0.0196;
258622799719721;0.3391;0.1329;-0.0292;
258622804774096;0.6097;-0.1909;-0.0590;
258622809828419;0.6704;-0.2069;-0.0398;
258622814882794;0.8066;0.1819;-0.0015;
258622819937169;0.9036;0.2660;0.0379;
258622824991544;0.8738;-0.0141;-0.0238;
258622830040190;0.9462;-0.5551;-0.0324;
258622835094565;0.9196;-0.3252;-0.0835;
258622840148940;0.8706;0.0690;0.0422;
258622845203263;0.7727;0.2128;0.0103;
258622850257638;0.6363;-0.3156;-0.0047;
258622855312013;0.3455;-0.1973;-0.0228;
258622860371388;-0.0410;0.3149;0.0401;
258622865425763;-0.3787;0.3586;0.0838;
258622870480086;-0.4979;-0.1366;-0.0057;
258622875534461;-0.5096;-0.7447;-0.0451;
258622880588836;-0.3521;-0.6478;-0.0899;
258622885643211;-0.1230;-0.0823;-0.0153;
258622890724513;-0.1145;0.6419;0.0912;
258622895778888;-0.1241;0.5951;0.1040;
258622900833263;-0.2168;-0.0301;0.0241;
258622905887586;-0.2402;-0.4816;-0.0526;
258622910941961;-0.1539;-0.1473;0.0071;
258622915996336;-0.0772;0.2415;0.0188;
258622921055138;-0.0613;0.1073;0.0582;
258622926109513;0.0399;-0.3188;-0.0121;
258622931163888;0.1379;-0.3549;-0.0206;
258622936218263;0.1667;0.3149;0.0869;
258622941272586;0.2518;0.4981;0.0955;
258622946326961;0.1889;0.1585;0.0859;
258622951360555;0.1847;-0.5125;-0.0185;
258622956414930;0.2273;-0.5306;-0.0004;
258622961469253;0.2582;0.0306;0.0539;
258622966523628;0.2092;0.4907;0.1242;
258622971578003;0.0868;0.2851;0.1115;
258622976632378;-0.0581;-0.1100;0.0593;
258622981691180;-0.1273;-0.3007;0.0561;
258622986745555;-0.0644;-0.2985;0.0305;
258622991799930;-0.0165;0.0008;0.1189;
258622996854253;0.0495;0.1478;0.0774;
258623001908628;0.0666;-0.0471;0.1370;
258623006963003;-0.0453;-0.0493;0.0656;
258623012016805;-0.1337;0.0881;0.1519;
258623017071180;-0.2604;0.1861;0.1125;
258623022125555;-0.2849;-0.0983;0.1413;
258623027179878;-0.2807;-0.1824;0.0987;
258623032234253;-0.1827;-0.0674;0.1338;
258623037288628;-0.0762;0.0583;0.1498;
258623042344305;-0.0858;0.1031;0.1402;
258623047398680;-0.0943;0.1893;0.2148;
258623052453055;-0.1081;0.0999;0.1306;
258623057507378;-0.0879;-0.2570;0.1455;
258623062561753;-0.0613;-0.1835;0.1051;
258623067616128;0.1145;0.0029;0.1455;
258623072663159;0.1497;0.0945;0.1253;
258623077717534;0.2230;-0.2080;0.1360;
258623082771909;0.1571;-0.0141;0.1072;
258623087826232;0.0410;0.2861;0.1626;
258623092880607;-0.1028;0.4459;0.1722;
258623097934982;-0.2370;-0.1814;0.0795;
258623103003992;-0.2146;-0.5913;0.0230;
258623108058367;-0.1763;-0.3740;-0.0292;
258623113112742;-0.1113;0.1148;0.0710;
258623118167065;-0.3063;0.5620;0.0624;
258623123221440;-0.5415;0.2597;0.0571;
258623128275815;-0.8568;0.0722;0.0198;
258623133332221;-1.0687;0.1787;0.0955;
258623138386596;-1.0985;0.4374;0.0241;
258623143440971;-1.1241;-0.1920;-0.0356;
258623148495294;-1.0953;-0.6915;-0.1421;
258623153549669;-0.9314;-0.6510;-0.1634;
258623158604044;-0.8515;0.3149;-0.0334;
258623163654409;-0.7130;0.7346;0.0209;
258623168708784;-0.6481;0.2373;-0.0292;
258623173763159;-0.5170;-0.6212;-0.1655;
258623178817534;-0.1667;-0.6425;-0.1218;
258623183871857;0.2124;0.0264;-0.1112;
258623188926232;0.5447;0.3288;-0.0025;
258623193965763;0.6086;0.1702;-0.0877;
258623199020086;0.5788;-0.2272;-0.0909;
258623204074357;0.5213;-0.1356;-0.1133;
258623209128680;0.4925;-0.1931;-0.0824;
258623214183003;0.4947;-0.0525;-0.1101;
258623219237325;0.4712;-0.0674;-0.1016;
258623224288888;0.3093;0.0296;-0.1122;
258623229343211;0.0602;-0.0322;-0.1378;
258623234397482;-0.2700;0.1009;-0.0973;
258623239451857;-0.5799;0.1936;-0.1165;
258623244506128;-0.6907;0.0093;-0.1240;
258623249560398;-0.8409;-0.2762;-0.1856;
258623254679305;-0.8505;-0.3847;-0.2069;
258623259733575;-0.7993;-0.0333;-0.1909;
258623264787898;-0.7695;0.2618;-0.1325;
258623269842221;-0.7450;0.3117;-0.1282;
258623274896544;-0.6949;-0.0312;-0.1867;
258623279950867;-0.6353;-0.1004;-0.1549;
258623284941596;-0.4265;0.0541;-0.1634;
258623289995867;-0.1358;0.0977;-0.1144;
258623295050190;0.1294;-0.0482;-0.1803;
258623300104513;0.3754;-0.2218;-0.1707;
258623305158836;0.4446;0.0871;-0.1792;
258623310213107;0.3732;0.5237;-0.0824;
258623315268159;0.1985;0.4353;-0.1686;
258623320322430;0.0708;-0.2900;-0.1995;
258623325376753;0.1060;-0.7128;-0.3124;
258623330431075;0.2976;-0.3495;-0.2165;
258623335485398;0.4020;0.4055;-0.1792;
258623340539721;0.4190;0.4076;-0.1304;
258623345597117;0.2337;0.0477;-0.2101;
258623350651440;0.0176;-0.1846;-0.2197;
258623355705711;-0.1742;0.1787;-0.1899;
258623360760034;-0.3222;0.3043;-0.1782;
258623365814357;-0.4308;-0.0557;-0.2197;
258623370868628;-0.5064;-0.3017;-0.2975;
258623375936596;-0.5096;-0.1664;-0.2485;
258623380990919;-0.5128;0.1542;-0.2708;
258623386045190;-0.5181;0.3714;-0.1549;
258623391099513;-0.5639;0.5471;-0.1814;
258623396153836;-0.4904;0.1222;-0.1538;
258623401208159;-0.4798;-0.1217;-0.2879;
258623406264200;-0.3553;-0.3836;-0.2165;
258623411318523;-0.2264;0.0636;-0.2591;
258623416372794;-0.1241;0.2766;-0.1485;
258623421427117;-0.0517;0.3053;-0.2133;
258623426481440;0.1081;-0.1931;-0.1696;
258623431535763;0.1964;-0.0652;-0.2442;
258623436574721;0.4627;-0.0312;-0.1144;
258623441629044;0.6545;0.1553;-0.1750;
258623446683315;0.7897;-0.1696;-0.1229;
258623451737638;0.7770;-0.0439;-0.1931;
258623456791961;0.7003;0.1318;-0.0771;
258623461846284;0.5554;0.3522;-0.1240;
258623466894513;0.5394;-0.2495;-0.1208;
258623471948836;0.5032;-0.4465;-0.2208;
258623477003107;0.5969;-0.3581;-0.1410;
258623482057430;0.5841;0.2479;-0.1154;
258623487111753;0.5032;0.3607;-0.0419;
258623492166075;0.3061;0.1553;-0.1218;
258623497232742;0.0953;-0.1142;-0.0995;
258623502287065;-0.1060;0.1254;-0.1005;
258623507341336;-0.1273;0.0636;-0.0909;
258623512395659;-0.1955;-0.1164;-0.1133;
258623517449982;-0.2274;-0.1366;-0.1154;
258623522504253;-0.2977;0.1819;-0.1357;
258623527558471;-0.3851;0.1606;-0.0920;
258623532612742;-0.4329;0.0903;-0.0803;
258623537667065;-0.3169;-0.0077;-0.0760;
258623542721336;-0.1433;-0.0045;-0.0909;
258623547775659;0.0549;-0.0471;-0.0803;
258623552829982;0.2230;0.0647;-0.0792;
258623557879825;0.3413;0.0679;-0.0846;
258623562934148;0.3594;0.1201;-0.0696;
258623567988419;0.4808;-0.0972;-0.0888;
258623573042742;0.5703;-0.1313;-0.0899;
258623578097065;0.7226;-0.0716;-0.0707;
258623583151388;0.9739;0.0072;-0.0377;
258623588228992;1.0559;-0.0248;-0.0611;
258623593283263;1.0367;-0.1142;-0.0579;
258623598337586;0.8919;0.0083;-0.0505;
258623603391909;0.6832;0.2245;-0.0047;
258623608446232;0.6086;0.0115;-0.0324;
258623613500503;0.5916;-0.3847;-0.0760;
258623618550971;0.6044;-0.4092;-0.1133;
258623623605294;0.5724;0.0115;-0.0292;
258623628659565;0.3945;0.4172;-0.0089;
258623633713888;0.1593;0.2501;-0.0047;
258623638768211;-0.1262;-0.0983;-0.0675;
258623643822534;-0.2690;-0.1888;-0.0281;
258623648889930;-0.2317;0.0200;-0.0675;
258623653944253;-0.1624;0.0210;-0.0100;
258623658998575;-0.1081;0.0093;-0.0984;
258623664052846;-0.1635;-0.0130;-0.0654;
258623669107169;-0.2615;0.0828;-0.1250;
258623674161492;-0.2189;-0.0045;-0.0430;
258623679174721;-0.1188;0.0732;-0.0909;
258623684228992;0.0879;-0.0344;-0.0313;
258623689283315;0.2582;0.1212;-0.0718;
258623694337638;0.3999;0.0509;-0.0228;
258623699391909;0.4094;0.0583;-0.1261;
258623704446232;0.3604;-0.1121;-0.0643;
258623709520138;0.3690;-0.0269;-0.1282;
258623714574461;0.3849;0.0924;-0.0366;
258623719628732;0.4137;0.2628;-0.1005;
258623724683055;0.4222;-0.0695;-0.0558;
258623729737378;0.2869;-0.0940;-0.1410;
258623734791700;0.1539;-0.0162;-0.0590;
258623739854930;0.0059;0.2032;-0.0973;
258623744909253;-0.1379;-0.0354;-0.0803;
258623749963523;-0.1156;-0.3474;-0.1696;
258623755017846;-0.0346;-0.3698;-0.1154;
258623760072169;0.1422;0.1073;-0.0995;
258623765126492;0.2816;0.2618;-0.0451;
258623770169200;0.2433;0.2011;-0.0643;
258623775223471;0.1826;-0.0770;-0.0899;
258623780277794;0.1635;-0.1675;-0.1027;
258623785332117;0.2156;-0.1345;-0.0792;
258623790386440;0.3828;0.0008;-0.0590;
258623795440711;0.4606;0.0818;-0.0505;
258623800487534;0.4925;0.0562;-0.0547;
258623805541805;0.4084;0.0509;-0.0686;
258623810596128;0.3434;0.0157;-0.0441;
258623815650450;0.3178;-0.0045;-0.0387;
258623820704773;0.3573;-0.0407;-0.0302;
258623825759096;0.3690;0.0072;-0.0270;
258623830835555;0.3317;0.1254;0.0060;
258623835889878;0.2614;0.1318;0.0166;
258623840944148;0.1975;-0.0461;-0.0015;
258623845998471;0.1401;-0.1718;-0.0068;
258623851052794;0.2071;-0.1111;0.0209;
258623856107117;0.2944;0.0232;0.0401;
258623861160034;0.3945;0.0232;0.0529;
258623866214357;0.4478;-0.0557;0.0358;
258623871268628;0.4169;-0.1153;0.0433;
258623876322950;0.4041;-0.0386;0.1029;
258623881377273;0.4574;0.0498;0.0880;
258623886431596;0.6001;-0.2048;0.1093;
258623891488471;0.7812;-0.2719;0.0806;
258623896542794;0.9430;-0.1622;0.1296;
258623901597065;1.0272;0.0466;0.1210;
258623906651388;1.0037;-0.0056;0.1732;
258623911705711;0.9036;-0.0908;0.1221;
258623916760034;0.7397;-0.1547;0.1573;
258623921819565;0.5810;0.1371;0.1764;
258623926873836;0.4521;0.2298;0.2201;
258623931928159;0.2784;-0.0184;0.1796;
258623936982430;0.0783;-0.2208;0.1690;
258623942036753;-0.1305;-0.0237;0.1594;
258623947091075;-0.2818;-0.0471;0.1573;
258623952126700;-0.3904;-0.1356;0.1700;
258623957181023;-0.4117;-0.0099;0.1711;
258623962235294;-0.3787;0.1723;0.1956;
258623967289617;-0.3861;0.1542;0.1839;
258623972343940;-0.3595;0.0125;0.1945;
258623977398211;-0.2700;-0.1643;0.1040;
258623982451284;-0.1230;-0.3442;0.1370;
258623987505555;0.0815;-0.1217;0.1136;
258623992559878;0.2518;0.1371;0.1935;
258623997614200;0.2497;0.5312;0.1850;
258624002668523;0.1932;0.4150;0.2265;
258624007722794;0.0101;0.0967;0.1168;
258624012774305;-0.1039;-0.3964;0.1093;
258624017828575;-0.0442;-0.4752;0.0071;
258624022882898;0.1028;-0.2644;0.0806;
258624027937221;0.2465;0.1265;0.0742;
258624032991544;0.2859;0.1318;0.1146;
258624038045815;0.1582;0.1744;0.0571;
258624043098055;-0.0005;0.0466;0.0880;
258624048152378;-0.1859;0.0913;0.0529;
258624053206648;-0.3073;-0.1196;0.0252;
258624058260971;-0.3670;-0.1835;0.0220;
258624063315294;-0.4138;0.0988;0.0443;
258624068369617;-0.4616;0.2554;0.0795;
258624073421128;-0.5501;0.1350;0.0486;
258624078475398;-0.5682;-0.1515;0.0284;
258624083529721;-0.5128;-0.2176;-0.0270;
258624088584044;-0.3670;-0.1196;0.0443;
258624093638367;-0.2232;0.2309;0.0582;
258624098692690;-0.0804;0.2533;0.1061;
258624103751492;0.0059;-0.0024;0.0518;
258624108805815;0.0985;-0.3081;0.0571;
258624113860086;0.2838;-0.1228;0.0443;
258624118914409;0.5671;0.0370;0.1146;
258624123968732;0.7493;0.0200;0.0869;
258624129023055;0.8727;-0.1537;0.1168;
258624134090138;0.8439;0.1329;0.1178;
258624139144461;0.7152;0.4193;0.2148;
258624144198732;0.6129;0.2064;0.1828;
258624149253055;0.5362;-0.4592;0.1093;
258624154307378;0.5778;-0.6467;0.0688;
258624159361700;0.6406;-0.1111;0.1445;
258624164418367;0.5575;0.3501;0.1871;
258624169472690;0.3658;0.2053;0.2009;
258624174527013;0.1699;-0.1174;0.1445;
258624179581284;-0.0229;-0.2378;0.1828;
258624184635607;-0.0996;-0.0493;0.1615;
258624189689930;-0.1071;0.0477;0.2286;
258624194734565;-0.1209;0.0093;0.1796;
258624199788940;-0.1699;-0.0716;0.1999;
258624204843315;-0.2828;0.1020;0.2169;
258624209897638;-0.3489;0.1350;0.2446;
258624214952013;-0.3574;-0.0024;0.1700;
258624220006388;-0.2328;-0.3145;0.1913;
258624225050138;-0.0783;-0.1601;0.1764;
258624230104513;-0.0240;0.2149;0.2371;
258624235158888;-0.0197;0.3586;0.2478;
258624240213263;-0.0804;-0.0056;0.2190;
258624245267638;-0.1113;-0.3177;0.1732;
258624250322013;0.0346;-0.2165;0.1828;
258624255399825;0.2603;0.0871;0.2169;
258624260454200;0.3700;0.1169;0.2052;
258624265508575;0.3029;0.0051;0.2222;
258624270562950;0.0975;0.1233;0.1913;
258624275617325;-0.0581;0.1158;0.2638;
258624280671700;-0.1113;-0.1004;0.1668;
258624285705763;-0.0091;-0.4614;0.1828;
258624290760138;0.1593;-0.1771;0.1519;
258624295814513;0.2454;0.1606;0.2201;
258624300868888;0.1188;0.2692;0.1860;
258624305923263;-0.1177;-0.0397;0.1786;
258624310977586;-0.3009;-0.2059;0.1391;
258624316031388;-0.3467;-0.0972;0.1668;
258624321085763;-0.2423;0.0104;0.1786;
258624326140138;-0.2232;-0.0365;0.1541;
258624331194513;-0.2881;0.1659;0.2201;
258624336248888;-0.3659;0.4204;0.2148;
258624341303211;-0.4435;0.0178;0.2169;
258624346361492;-0.4851;-0.3399;0.1040;
258624351415867;-0.3148;-0.4848;0.1115;
258624356470242;-0.1774;-0.0652;0.1104;
258624361524617;-0.0495;0.1883;0.2052;
258624366578992;0.0218;0.4513;0.2254;
258624371633315;0.0378;0.3479;0.2340;
258624376699357;0.0431;-0.0812;0.1349;
258624381753732;0.0996;-0.3431;0.1381;
258624386808107;0.2912;-0.2240;0.1221;
258624391862482;0.4648;-0.0620;0.1562;
258624396916857;0.5447;0.0221;0.1541;
258624401971232;0.4968;0.1073;0.1541;
258624407033888;0.2944;0.1691;0.1881;
258624412088263;0.0080;0.3096;0.1807;
258624417142638;-0.0740;0.0754;0.1988;
258624422197013;-0.1230;-0.1217;0.1391;
258624427251388;-0.1571;-0.0109;0.1690;
258624432305763;-0.2647;0.3991;0.1956;
258624437345450;-0.5959;0.7325;0.2478;
258624442399825;-0.9421;0.2554;0.1615;
258624447454200;-1.2445;-0.6212;0.0891;
258624452508575;-1.2913;-0.7394;0.0497;
258624457562950;-1.1262;0.0903;0.1541;
258624462617325;-0.9293;0.7442;0.2595;
258624467677742;-0.7919;0.6121;0.2659;
258624472732117;-0.6821;-0.0312;0.1626;
258624477786492;-0.4925;-0.3889;0.0869;
258624482840867;-0.1028;-0.1984;0.1168;
258624487895242;0.3881;-0.2847;0.0475;
258624492949617;0.7887;-0.6936;0.0337;
258624497995815;1.1539;-0.5157;0.0411;
258624503050190;1.5330;-0.0205;0.1466;
258624508104565;1.7194;0.2714;0.1818;
258624513158940;1.8025;0.0807;0.1732;
258624518213315;1.5639;0.0370;0.1253;
258624523267638;0.2273;0.9667;0.2095;
258624528317221;-1.2924;0.0828;0.1807;
258624533371596;-1.4234;-1.2101;-0.0174;
258624538425971;-1.6386;-0.4603;0.0656;
258624543480346;-1.8590;0.6803;0.2435;
258624548534721;-1.2498;0.2330;0.2116;
258624553589096;-0.8835;-0.7085;0.0635;
258624558635711;-0.5778;-0.6063;0.0912;
258624563690086;-0.0666;0.3991;0.2340;
258624568744461;0.0570;0.9635;0.3394;
258624573798836;0.1678;0.3106;0.2947;
258624578853211;0.4638;-0.6318;0.1370;
258624583907586;0.6140;-0.5146;0.1562;
258624589039357;0.7631;0.3799;0.2403;
258624594093732;0.9867;0.6260;0.2883;
258624599148107;1.0112;-0.2048;0.1487;
258624604202482;0.9952;-0.6734;0.0624;
258624609256857;0.4425;0.9113;0.1626;
258624614311232;-0.8782;1.2628;0.2169;
258624619311180;-1.3797;-0.7596;-0.0483;
258624624365555;-1.5566;-1.0876;-0.1367;
258624629419930;-2.1540;0.8070;0.1029;
258624634474305;-2.1785;1.4981;0.1700;
258624639528680;-2.0763;-0.0237;-0.0728;
258624644583055;-2.1658;-1.3773;-0.2644;
258624649621492;-1.7418;-0.7863;-0.1867;
258624654675867;-1.2817;1.0807;0.0838;
258624659730242;-1.0570;1.4439;0.2158;
258624664784617;-0.6289;-0.0759;-0.0292;
258624669838992;-0.0996;-1.3710;-0.2176;
258624674893367;0.4915;-1.0205;-0.1846;
258624679942846;1.1049;0.2904;0.0284;
258624684997221;1.5064;1.0317;0.1956;
258624690051596;1.5852;0.3660;0.1136;
258624695105971;1.5863;-0.6670;-0.0057;
258624700160346;1.6289;-0.5136;0.0124;
258624705214721;1.6395;0.3447;0.1168;
258624710265034;1.4808;0.5471;0.1402;
258624715319409;0.5085;0.5993;0.1040;
258624720373784;-1.0081;-0.2016;0.0593;
258624725428159;-1.4010;-1.3571;-0.1229;
258624730482534;-1.3212;-0.6957;-0.0707;
258624735536909;-1.6290;0.9710;0.1168;
258624740597534;-1.4415;1.0082;0.1402;
258624745651909;-1.2796;-0.3996;-0.0462;
258624750706284;-1.2423;-0.9056;-0.0963;
258624755760659;-0.7951;-0.0269;0.0071;
258624760815034;-0.4872;1.0391;0.1668;
258624765869409;-0.4011;0.9113;0.1977;
258624770931805;-0.1965;-0.3442;-0.0057;
258624775986180;-0.0186;-1.0098;-0.1048;
258624781040555;0.2582;-0.4316;-0.0249;
258624786094930;0.7088;0.5077;0.0816;
258624791149305;0.9494;0.5439;0.1083;
258624796203628;1.0335;-0.1142;0.0411;
258624801250034;1.0378;-0.5658;-0.0249;
258624806304409;0.9494;-0.2900;-0.0270;
258624811358784;0.9409;0.1297;0.1008;
258624816413159;0.8865;0.0764;0.0688;
258624821467534;0.6086;-0.0141;0.0241;
258624826521857;-0.0921;0.2437;0.0582;
258624831576492;-0.7961;-0.1324;0.0518;
258624836630867;-0.8409;-0.6403;-0.0132;
258624841685242;-0.8600;-0.3209;-0.0100;
258624846739617;-1.0113;0.5312;0.1360;
258624851793992;-0.9548;0.7122;0.1391;
258624856848315;-1.0262;0.1766;0.0838;
258624861921440;-1.0793;-0.3889;-0.0174;
258624866975815;-0.8313;-0.4656;-0.0526;
258624872030190;-0.5288;-0.0312;0.0337;
258624877084565;-0.1827;0.3181;0.0848;
258624882138940;0.2134;0.3000;0.0976;
258624887193315;0.4350;0.0594;0.0486;
258624892250971;0.5905;0.0178;0.0582;
258624897305346;0.6875;0.0711;0.0316;
258624902359721;0.7088;-0.0599;0.0049;
258624907414096;0.6513;-0.0237;0.0305;
258624912468471;0.5437;0.3011;0.0507;
258624917522846;0.4084;0.3841;0.0667;
258624922585190;0.2326;0.1361;0.0166;
258624927639513;0.0250;-0.0184;-0.0281;
258624932693888;-0.3595;0.1531;-0.0313;
258624937748263;-0.8057;0.1435;-0.0558;
258624942802638;-1.0762;-0.1217;-0.0750;
258624947857013;-1.2807;-0.1387;-0.1069;
258624952911388;-1.3691;0.0200;-0.0622;
258624957933367;-1.2775;0.1851;-0.0579;
258624962987742;-1.1443;0.1180;-0.0409;
258624968042117;-1.0081;-0.0450;-0.0760;
258624973096492;-0.8313;0.0732;-0.0675;
258624978150867;-0.6907;0.3032;-0.0228;
258624983205242;-0.4627;0.1723;-0.0494;
258624988248784;-0.1731;-0.2570;-0.1304;
258624993303159;0.1603;-0.5370;-0.2069;
258624998357534;0.5767;-0.2815;-0.1208;
258625003411909;0.8610;0.5503;-0.0132;
258625008466284;0.9398;0.7154;0.0188;
258625013520659;0.8290;-0.0535;-0.0750;
258625018592325;0.6555;-0.4720;-0.1495;
258625023646700;0.6086;-0.3039;-0.1154;
258625028701075;0.5969;-0.0269;-0.1506;
258625033755450;0.4627;0.0711;-0.0995;
258625038809825;0.1284;0.4342;-0.0728;
258625043864200;-0.4192;0.4566;-0.0430;
258625048958107;-0.7429;-0.0173;-0.1059;
258625054012482;-0.8654;-0.2527;-0.1814;
258625059066857;-0.9857;-0.1995;-0.1527;
258625064121232;-0.9612;-0.0642;-0.1941;
258625069175607;-0.9186;0.0264;-0.1559;
258625074229982;-0.9431;0.1489;-0.1389;
258625079235555;-0.8664;0.0509;-0.1336;
258625084289930;-0.7130;-0.0610;-0.1080;
258625089344253;-0.4851;0.1393;-0.1133;
258625094398628;-0.1358;0.2256;-0.1091;
258625099453055;0.0687;0.1073;-0.1453;
258625104507378;0.1868;0.1329;-0.1410;
258625109620086;0.3114;0.0924;-0.1824;
258625114674461;0.4286;-0.1558;-0.2218;
258625119728836;0.6225;-0.3602;-0.2144;
258625124783211;0.8056;-0.0897;-0.1899;
258625129837586;0.7525;0.5216;-0.1325;
258625134891961;0.4787;0.5961;-0.1314;
258625139904513;0.0730;0.0104;-0.2005;
258625144958888;-0.3180;-0.4976;-0.2666;
258625150013263;-0.5181;-0.3655;-0.2666;
258625155067638;-0.6161;0.3469;-0.1792;
258625160122013;-0.7152;0.6473;-0.1549;
258625165176388;-0.7727;0.1137;-0.2229;
258625170213523;-0.7471;-0.5242;-0.2964;
258625175267898;-0.5788;-0.5445;-0.3060;
258625180322273;-0.3041;0.0935;-0.2325;
258625185376648;-0.1965;0.5248;-0.1686;
258625190431023;-0.2690;0.3341;-0.1867;
258625195485398;-0.4202;-0.0961;-0.2176;
258625200572013;-0.4521;-0.3538;-0.2602;
258625205626440;-0.2104;-0.3305;-0.2304;
258625210680919;0.1369;-0.0013;-0.1909;
258625215735346;0.4510;0.3873;-0.1325;
258625220789773;0.6502;0.1744;-0.1410;
258625225844253;0.7045;-0.2165;-0.1696;
258625230899200;0.7343;-0.1238;-0.1634;
258625235953628;0.8865;-0.1313;-0.1792;
258625241008107;1.0101;-0.1973;-0.1399;
258625246062534;0.9505;0.2149;-0.0750;
258625251116961;0.7130;0.6419;-0.0217;
258625256171388;0.3413;0.3895;-0.0260;
258625261208159;0.0772;-0.5168;-0.1240;
258625266262586;0.0357;-0.8427;-0.1931;
258625271317065;0.1017;-0.0684;-0.0835;
258625276371492;0.1348;0.7794;0.0177;
258625281425919;-0.0538;0.6313;0.0028;
258625286480346;-0.2413;-0.3666;-0.0782;
258625291523159;-0.3851;-0.6819;-0.1272;
258625296577586;-0.4318;-0.0248;-0.0451;
258625301632013;-0.3776;0.5493;0.0348;
258625306686492;-0.4563;0.3927;0.0305;
258625311740919;-0.5383;-0.1654;-0.0036;
258625316795346;-0.4286;-0.4252;-0.0419;
258625321879721;-0.0943;-0.3623;-0.0089;
258625326934200;0.4009;-0.1664;0.0039;
258625331988628;0.7578;0.1371;0.0593;
258625337043055;0.9334;0.3096;0.1232;
258625342097482;1.0101;0.0370;0.1072;
258625347151961;1.0921;-0.5349;0.0507;
258625352192742;1.3552;-0.6553;0.0081;
258625357247169;1.6427;-0.4188;0.0252;
258625362301648;1.5319;0.2362;0.1296;
258625367356075;0.6023;1.4631;0.2755;
258625372410503;-0.5320;0.4108;0.2371;
258625377464930;-0.6630;-1.4753;-0.0558;
258625382514930;-0.6065;-1.2165;-0.0547;
258625387569357;-0.5586;0.4459;0.1423;
258625392623836;-0.3382;1.1808;0.2648;
258625397678263;-0.5362;0.5567;0.1850;
258625402732690;-0.7684;-0.4347;0.0507;
258625407787117;-0.7269;-0.4443;0.0379;
258625412841700;-0.6129;0.2426;0.1253;
258625417896128;-0.3585;0.4896;0.1466;
258625422950607;-0.1007;-0.0088;0.0912;
258625428005034;-0.0048;-0.2762;0.0369;
258625433059461;0.1348;-0.0216;0.0646;
258625438113940;0.3892;0.1638;0.0933;
258625443160034;0.5969;0.0828;0.0475;
258625448214461;0.6395;0.0818;0.0443;
258625453268940;0.4893;0.4225;0.0720;
258625458323367;0.1507;0.5993;0.0497;
258625463377794;-0.1582;0.0434;0.0071;
258625468432221;-0.2732;-0.5274;-0.1037;
258625473481388;-0.3393;-0.4252;-0.1728;
258625478535815;-0.4202;0.0562;-0.0984;
258625483590294;-0.7205;0.6728;-0.0100;
258625488644721;-1.2285;0.7825;0.0134;
258625493699148;-1.5374;-0.0322;-0.0590;
258625498753575;-1.5001;-0.8704;-0.2208;
258625503816075;-1.1220;-0.9449;-0.2389;
258625508870555;-0.5192;0.0115;-0.1037;
258625513924982;-0.1699;1.0125;0.0571;
258625518979409;-0.0911;0.8156;0.0433;
258625524033836;0.0048;-0.2815;-0.1059;
258625529088315;0.0581;-0.9630;-0.2208;
258625534134825;0.2316;-0.4252;-0.1240;
258625539189253;0.4766;0.7549;0.0273;
258625544243680;0.5202;0.8113;0.0422;
258625549298159;0.5351;-0.2644;-0.0771;
258625554352586;0.6545;-1.0674;-0.2016;
258625559407013;0.8599;-0.5178;-0.1559;
258625564457742;1.1007;0.5248;-0.0036;
258625569512169;1.0538;0.6217;0.0635;
258625574566648;0.7077;0.2341;0.0198;
258625579621075;0.1262;-0.0013;-0.0494;
258625584675503;-0.5064;-0.2836;-0.0569;
258625589729930;-0.5554;-0.5359;-0.1154;
258625594791805;-0.5607;-0.2240;-0.1122;
258625599846232;-0.7674;0.4353;0.0305;
258625604900659;-0.8611;0.8678;0.1019;
258625609955138;-0.9900;0.2565;0.0209;
258625615009565;-0.9389;-0.8044;-0.1410;
258625620063992;-0.4979;-1.0386;-0.1750;
258625625126284;-0.1305;0.0722;-0.0739;
258625630180711;0.0314;0.9539;0.1125;
258625635235190;0.1475;0.6888;0.0891;
258625640289617;0.2188;-0.2037;-0.0153;
258625645344044;0.4712;-0.7948;-0.1080;
258625650398471;0.9377;-0.4923;-0.0696;
258625655451700;1.2221;0.5141;0.0869;
258625660506128;1.2977;0.7069;0.1200;
258625665560607;1.2690;-0.3399;-0.0068;
258625670615034;1.1955;-0.9715;-0.0984;
258625675669513;1.1805;-0.2016;-0.0089;
258625680723888;0.7706;1.1520;0.1210;
258625685766180;-0.1635;0.7485;0.1019;
258625690820607;-0.7077;-0.8353;-0.0643;
258625695875086;-0.8931;-0.9438;-0.1048;
258625700929513;-1.0591;0.2968;0.0635;
258625705983940;-0.8856;0.7911;0.1242;
258625711038367;-0.8590;0.1031;0.0049;
258625716088784;-0.9644;-0.6755;-0.0803;
258625721143263;-0.9325;-0.2080;-0.0004;
258625726197690;-0.8473;0.6387;0.1200;
258625731252117;-0.5075;0.2011;0.0923;
258625736306544;-0.0165;-0.6979;-0.0505;
258625741360971;0.4201;-0.6393;-0.0750;
258625746417638;0.7791;0.3703;0.0624;
258625751472065;0.8993;0.9891;0.1913;
258625756526544;0.8109;0.3256;0.0816;
258625761580971;0.7216;-0.8523;-0.0856;
258625766635398;0.6843;-0.7671;-0.0814;
258625771689825;0.5650;0.4257;0.0348;
258625776741284;0.2933;0.8900;0.1136;
258625781795711;0.0165;-0.0237;0.0209;
258625786850138;-0.2253;-0.9290;-0.1122;
258625791904617;-0.3499;-0.5604;-0.0750;
258625796959044;-0.3776;0.4992;0.0539;
258625802013471;-0.5394;0.8070;0.0912;
258625807104409;-0.7738;0.0338;-0.0015;
258625812158836;-0.9144;-0.5679;-0.0792;
258625817213263;-0.8313;-0.5168;-0.0803;
258625822267742;-0.5778;-0.1079;-0.0324;
258625827322169;-0.3542;0.3703;-0.0025;
258625832376596;-0.2445;0.2904;-0.0079;
258625837392221;-0.2679;-0.0077;-0.0100;
258625842446648;-0.2892;-0.1004;-0.0579;
258625847501075;-0.0772;-0.3410;-0.0963;
258625852555555;0.2113;-0.2740;-0.1186;
258625857609982;0.4052;0.1265;-0.0867;
258625862664409;0.4361;0.4033;-0.0462;
258625867720346;0.2539;0.3959;-0.0174;
258625872774773;0.0410;0.0519;-0.0856;
258625877829200;-0.0996;-0.2996;-0.1325;
258625882883680;-0.1838;-0.0929;-0.1272;
258625887938107;-0.2328;0.2511;-0.0760;
258625892992534;-0.3052;0.2787;-0.0899;
258625898049096;-0.3371;-0.1451;-0.1325;
258625903103523;-0.3233;-0.3794;-0.1655;
258625908157950;-0.2722;-0.0184;-0.1314;
258625913212430;-0.2328;0.3596;-0.0590;
258625918266857;-0.2487;0.2511;-0.0846;
258625923321284;-0.2711;-0.1356;-0.1133;
258625928386180;-0.2072;-0.1696;-0.1154;
258625933440607;-0.0900;0.1073;-0.0973;
258625938495086;-0.0293;0.3085;-0.0771;
258625943549513;-0.0751;0.1531;-0.1176;
258625948603940;-0.1656;-0.1952;-0.1570;
258625953658419;-0.1571;-0.3889;-0.1325;
258625958693055;0.0165;-0.0631;-0.1165;
258625963747482;0.2944;0.1467;-0.0888;
258625968801961;0.4840;0.0423;-0.0856;
258625973856388;0.4840;0.0200;-0.1218;
258625978910815;0.3743;-0.0471;-0.1091;
258625983965242;0.2614;-0.1515;-0.1027;
258625989024409;0.2209;-0.0844;-0.0941;
258625994078836;0.2656;0.0626;-0.0814;
258625999133315;0.2241;0.1787;-0.0611;
258626004187742;0.0911;0.0967;-0.0877;
258626009242169;0.0186;-0.2666;-0.1133;
258626014296596;-0.0080;-0.4007;-0.1389;
258626019388367;0.0240;-0.1558;-0.1229;
258626024442846;0.0069;0.1787;-0.0931;
258626029497273;-0.1401;0.3383;-0.0611;
258626034551700;-0.3009;0.1585;-0.0835;
258626039606128;-0.4021;-0.2655;-0.1261;
258626044660607;-0.3925;-0.2197;-0.1581;
258626049673680;-0.3553;0.2043;-0.0973;
258626054728159;-0.3734;0.5067;-0.0760;
258626059782586;-0.5085;0.2808;-0.1272;
258626064837013;-0.5895;-0.4198;-0.2165;
258626069891440;-0.5192;-0.5647;-0.2389;
258626074945919;-0.2636;0.0210;-0.1675;
258626080027430;0.0154;0.4417;-0.1272;
258626085081857;0.1816;0.2373;-0.1602;
258626090136336;0.2390;-0.1888;-0.2474;
258626095190763;0.2571;-0.3262;-0.2357;
258626100245190;0.2422;0.1126;-0.1952;
258626105299669;0.2060;0.4885;-0.1474;
258626110320242;0.1379;0.3224;-0.1686;
258626115374669;0.0240;-0.1281;-0.2293;
258626120429148;0.0069;-0.4262;-0.2783;
258626125483575;0.0772;-0.2964;-0.2762;
258626130538003;0.1273;0.0636;-0.2336;
258626135592430;0.1039;0.2501;-0.1877;
258626140668888;-0.0399;0.2202;-0.1931;
258626145723315;-0.1838;-0.0407;-0.1814;
258626150777794;-0.1784;-0.3198;-0.2229;
258626155832221;-0.0826;-0.2399;-0.2059;
258626160886648;0.0495;0.1467;-0.1517;
258626165941075;0.0676;0.4534;-0.0995;
258626171003471;-0.0474;0.3746;-0.1101;
258626176057898;-0.1252;-0.2027;-0.1984;
258626181112378;-0.0336;-0.6936;-0.2272;
258626186166805;0.2316;-0.2474;-0.1718;
258626191221232;0.5085;0.4268;-0.1091;
258626196275711;0.6236;0.3213;-0.1101;
258626201309200;0.5596;-0.1111;-0.1570;
258626206363471;0.4382;-0.1419;-0.1675;
258626211417742;0.3828;0.0178;-0.1421;
258626216472013;0.3349;0.0487;-0.1367;
258626221526284;0.2518;0.0551;-0.1474;
258626226580555;0.1326;0.0977;-0.1229;
258626231635659;0.0176;0.0455;-0.1101;
258626236689930;-0.0250;-0.1782;-0.1474;
258626241744200;-0.0293;-0.1824;-0.1293;
258626246798471;-0.0304;0.1340;-0.1005;
258626251852742;-0.0346;0.2405;-0.0718;
258626256907065;-0.0485;-0.0077;-0.0877;
258626261967117;0.0282;-0.3326;-0.1154;
258626267021388;0.1953;-0.4880;-0.1325;
258626272075659;0.3306;-0.0493;-0.0728;
258626277129930;0.3658;0.5237;0.0028;
258626282184200;0.2593;0.5045;0.0337;
258626287238471;0.1518;-0.0269;-0.0622;
258626292295450;0.1720;-0.6680;-0.1602;
258626297349773;0.3264;-0.6254;-0.1485;
258626302404044;0.5011;0.2639;-0.0451;
258626307458263;0.4830;0.7016;-0.0004;
258626312512534;0.2603;0.2256;-0.0590;
258626317566857;-0.0336;-0.2911;-0.1336;
258626322612482;-0.1774;-0.3431;-0.1346;
258626327666753;-0.1923;-0.0418;-0.1112;
258626332720971;-0.2743;0.3778;-0.0814;
258626337775294;-0.3638;0.2776;-0.0771;
258626342829513;-0.4702;-0.1483;-0.1229;
258626347883784;-0.4830;-0.4465;-0.1675;
258626352952273;-0.3297;-0.2495;-0.1485;
258626358006544;-0.1678;0.2554;-0.0750;
258626363060815;-0.0698;0.3873;-0.0654;
258626368115086;0.0261;-0.0471;-0.0931;
258626373169357;0.0911;-0.3421;-0.1431;
258626378223628;0.2294;-0.2517;-0.1240;
258626383278940;0.3349;0.2224;-0.0654;
258626388333211;0.2859;0.5738;-0.0089;
258626393387482;0.2433;0.1915;-0.0345;
258626398441753;0.2039;-0.4497;-0.1357;
258626403496023;0.3445;-0.7437;-0.2261;
258626408550294;0.7045;-0.4955;-0.1814;
258626413603628;0.8833;0.3075;-0.0728;
258626418657898;0.8738;0.8145;-0.0015;
258626423712169;0.6651;0.3895;-0.0792;
258626428766388;0.3093;-0.4571;-0.1527;
258626433820659;0.1752;-0.6318;-0.2069;
258626438874930;0.1071;-0.0525;-0.1707;
258626443923992;-0.0644;0.5525;-0.0739;
258626448978263;-0.2413;0.6100;-0.0664;
258626454032534;-0.5714;0.1702;-0.1186;
258626459086805;-0.8398;-0.3049;-0.1909;
258626464141128;-0.7844;-0.4507;-0.1973;
258626469195346;-0.6214;-0.1196;-0.1602;
258626474250294;-0.4276;0.2415;-0.1080;
258626479304617;-0.2040;0.1659;-0.1133;
258626484358888;-0.0591;-0.0759;-0.1069;
258626489413107;0.1900;-0.2367;-0.1197;
258626494467430;0.4734;-0.1377;-0.1059;
258626499521648;0.6662;0.2650;-0.0451;
258626504565763;0.8098;0.4150;0.0188;
258626509619982;0.9110;0.1382;-0.0366;
258626514674305;0.9995;-0.4891;-0.1165;
258626519728575;1.1678;-0.7479;-0.1612;
258626524782794;1.2956;-0.1963;-0.0632;
258626529837117;1.2189;0.7357;0.0252;
258626534894253;1.0261;0.6441;0.0624;
258626539948523;0.7928;-0.1782;-0.0505;
258626545002742;0.6385;-0.8683;-0.1410;
258626550057065;0.4584;-0.4880;-0.0995;
258626555111336;0.0591;0.5610;0.0294;
258626560165607;-0.1774;0.5567;0.0550;
258626565221492;-0.2668;-0.2059;-0.0451;
258626570275815;-0.4744;-0.5029;-0.0654;
258626575330034;-0.3627;-0.1739;-0.0292;
258626580384357;-0.2551;0.3213;0.0561;
258626585438575;-0.3734;0.4939;0.0752;
258626590492846;-0.3350;0.0562;0.0422;
258626595542794;-0.2498;-0.3751;0.0166;
258626600597013;-0.0826;-0.3156;0.0337;
258626605651284;0.2220;0.0988;0.0816;
258626610705607;0.3285;0.5610;0.1743;
258626615759878;0.3594;0.4342;0.1956;
258626620814148;0.4584;-0.2399;0.1029;
258626625889148;0.6182;-0.7298;0.0166;
258626630943419;0.9430;-0.6222;0.0390;
258626635997690;1.1465;0.2650;0.1541;
258626641051961;1.0208;0.8932;0.2478;
258626646106232;0.7716;0.4630;0.2201;
258626651160503;0.4286;-0.4039;0.1072;
258626656216075;0.1465;-0.5306;0.0869;
258626661270346;0.0751;0.2309;0.1743;
258626666324617;-0.0921;0.6867;0.2446;
258626671378888;-0.3137;0.0178;0.1360;
258626676433107;-0.4318;-0.9311;0.0454;
258626681487430;-0.4297;-0.7873;0.0497;
258626686526700;-0.2807;0.1073;0.1860;
258626691580971;-0.1369;0.6409;0.2595;
258626696635242;-0.0900;0.2170;0.2169;
258626701689513;-0.0186;-0.5008;0.1264;
258626706743784;0.1124;-0.6574;0.1306;
258626711798055;0.2561;-0.0088;0.2158;
258626716852534;0.3210;0.5216;0.2925;
258626721906805;0.2358;0.4257;0.3138;
258626726961075;0.1688;-0.2091;0.2308;
258626732015346;0.2092;-0.6126;0.1743;
258626737069617;0.3668;-0.2570;0.1839;
258626742123888;0.4979;0.1925;0.2222;
258626747180555;0.4542;0.3341;0.2606;
258626752234825;0.3168;0.2170;0.2403;
258626757289096;0.1731;-0.0280;0.2063;
258626762343367;0.1209;-0.2474;0.1658;
258626767397638;0.0325;0.0274;0.1732;
258626772451961;-0.2264;0.3202;0.1700;
258626777501440;-0.4670;0.1222;0.1530;
258626782555711;-0.7311;0.1254;0.1296;
258626787609982;-1.1571;0.6153;0.1743;
258626792664200;-1.5385;0.6185;0.1796;
258626797718471;-1.6960;-0.1142;0.0859;
258626802772794;-1.6205;-0.6457;-0.0057;
258626807851700;-1.2594;-0.4156;0.0209;
258626812905971;-0.7716;0.2096;0.0955;
258626817960294;-0.4382;0.4182;0.1338;
258626823014513;-0.2498;0.1169;0.1434;
258626828068836;-0.1039;-0.1941;0.1168;
258626833123055;0.1550;-0.1952;0.1274;
258626838149773;0.6768;-0.1760;0.1786;
258626843203992;1.2700;-0.1590;0.1498;
258626848258315;1.6640;-0.1792;0.1317;
258626853312586;1.8664;-0.2197;0.1381;
258626858366857;1.8132;0.0051;0.2031;
258626863421128;1.5458;0.3841;0.2403;
258626868480711;1.2008;0.3288;0.2265;
258626873534982;0.2731;0.3959;0.2137;
258626878589253;-0.8132;-0.4262;0.1093;
258626883643523;-0.9666;-1.3092;0.0145;
258626888697742;-1.0570;-0.2730;0.0901;
258626893752065;-1.1933;1.2000;0.2936;
258626898819200;-1.0676;0.9688;0.2702;
258626903873523;-1.1007;-0.3857;0.1125;
258626908927742;-1.0102;-0.9651;0.0092;
258626913982065;-0.6140;-0.2208;0.0955;
258626919036284;-0.2913;0.7794;0.2425;
258626924090607;-0.0186;0.5652;0.2329;
258626929115346;0.1092;-0.1931;0.1200;
258626934169565;0.0687;-0.2410;0.1264;
258626939223836;0.1795;0.1510;0.2073;
258626944278159;0.5075;0.1680;0.1786;
258626949332430;0.8397;-0.2666;0.1509;
258626954386700;1.1390;-0.3698;0.1040;
258626959479461;1.1763;0.0072;0.1146;
258626964533732;0.9430;0.4023;0.2105;
258626969587950;0.6683;0.2968;0.2084;
258626974642273;0.3924;-0.2250;0.1168;
258626979696544;0.0080;-0.1814;0.1104;
258626984750763;-0.5383;0.2330;0.1200;
258626989788107;-0.7897;-0.0642;0.0763;
258626994842325;-0.8558;-0.3857;0.0369;
258626999896596;-1.0964;-0.0514;0.0742;
258627004950919;-1.0453;0.2415;0.1061;
258627010005138;-0.8718;0.0573;0.0848;
258627015059409;-0.8430;-0.2676;0.0518;
258627020137169;-0.6257;-0.2080;0.0742;
258627025191440;-0.3819;0.0913;0.1051;
258627030245711;-0.2296;0.2011;0.1349;
258627035299982;-0.0250;0.1126;0.1232;
258627040354253;0.0932;0.1116;0.1285;
258627045408523;0.1422;0.0775;0.1253;
258627050431857;0.3296;-0.0407;0.1328;
258627055486128;0.6044;-0.2826;0.0859;
258627060540398;0.8216;-0.3273;0.0795;
258627065594669;0.9739;-0.1068;0.0646;
258627070648940;0.8695;0.0967;0.0720;
258627075703211;0.6246;0.2181;0.1264;
258627080786232;0.4190;0.2277;0.1104;
258627085840503;0.1900;-0.0365;0.0912;
258627090894773;-0.1433;0.0605;0.0763;
258627095948992;-0.4435;-0.0866;0.0518;
258627101003263;-0.6214;-0.4092;-0.0302;
258627106057586;-0.7919;-0.0812;0.0316;
258627111113523;-0.9996;0.7261;0.0944;
258627116167794;-1.1614;0.6632;0.1168;
258627121222013;-1.2764;-0.2389;-0.0121;
258627126276336;-1.2114;-0.8353;-0.1005;
258627131330607;-0.8568;-0.5370;-0.0814;
258627136384878;-0.5032;0.1563;0.0433;
258627141432169;-0.2125;0.5258;0.0976;
258627146486440;0.0101;0.3320;0.0987;
258627151540711;0.1443;-0.1217;0.0337;
258627156594982;0.3913;-0.3847;0.0188;
258627161649253;0.7620;-0.0951;0.0262;
258627166703523;0.9963;0.3011;0.1072;
258627171760815;0.9973;0.4608;0.1019;
258627176815034;0.7908;0.2096;-0.0004;
258627181869305;0.4893;-0.3198;-0.0206;
258627186923575;0.2742;-0.3060;-0.0153;
258627191977846;0.2316;0.0274;-0.0057;
258627197032117;0.1262;0.1680;0.0230;
258627202076075;-0.0506;0.0115;-0.0004;
258627207130450;-0.2764;-0.2314;-0.0579;
258627212184773;-0.5586;0.0157;-0.0089;
258627217239148;-0.7802;0.6920;0.0752;
258627222293471;-0.9751;0.6579;0.0497;
258627227347846;-1.1891;-0.1547;-0.0260;
258627232408211;-1.1997;-0.6968;-0.1240;
258627237462586;-0.9932;-0.4944;-0.1229;
258627242516909;-0.8771;0.1521;-0.0334;
258627247571284;-0.7738;0.5077;0.0507;
258627252625607;-0.6065;0.2618;0.0284;
258627257679982;-0.4256;-0.1909;-0.0057;
258627262728055;-0.0112;-0.5274;-0.0238;
258627267782430;0.5980;-0.3442;-0.0132;
258627272836753;1.0570;0.0988;0.0763;
258627277891128;1.3158;0.3746;0.0965;
258627282945450;1.3478;0.1957;0.0284;
258627287999825;1.1944;-0.3900;-0.0387;
258627293048367;1.0346;-0.3676;0.0071;
258627298102690;0.9068;0.5844;0.0869;
258627303157065;0.3413;1.1009;0.1264;
258627308211440;-0.5522;-0.1622;-0.0206;
258627313265763;-1.0337;-1.4615;-0.1909;
258627318320138;-1.2477;-0.6925;-0.1782;
258627323373940;-1.3062;0.8592;0.0188;
258627328428315;-1.2317;1.2788;0.0944;
258627333482638;-1.2913;0.2000;-0.0228;
258627338537013;-1.2668;-0.7469;-0.1686;
258627343591388;-1.0463;-0.4337;-0.1495;
258627348645711;-0.8835;0.6121;-0.0238;
258627353702950;-0.7940;0.9049;0.0081;
258627358757325;-0.6683;0.0178;-0.0984;
258627363811648;-0.4574;-0.8097;-0.2027;
258627368866023;0.0368;-0.7799;-0.2027;
258627373920346;0.6342;0.1702;-0.0707;
258627378974721;0.9782;0.9912;0.0518;
258627384045034;1.0847;0.6174;0.0060;
258627389099409;1.0122;-0.4177;-0.1782;
258627394153732;0.8940;-1.0407;-0.2666;
258627399208107;0.9015;-0.2985;-0.1581;
258627404262430;0.8780;0.8635;0.0092;
258627409316805;0.6694;0.8996;-0.0132;
258627414372950;0.1816;0.0104;-0.1240;
258627419427325;-0.5639;-0.4848;-0.1909;
258627424481648;-0.9953;-0.3644;-0.2048;
258627429536023;-1.1156;0.2064;-0.1399;
258627434590398;-1.2796;0.6537;-0.0696;
258627439644721;-1.2647;0.1063;-0.1357;
258627444678992;-1.0453;-0.6691;-0.2506;
258627449733367;-0.7759;-0.5445;-0.2293;
258627454787690;-0.5032;0.4012;-0.0846;
258627459842065;-0.3542;1.0327;0.0198;
258627464896388;-0.2541;0.5045;-0.0334;
258627469950763;-0.0282;-0.6126;-0.1527;
258627475005450;0.3711;-1.0567;-0.2261;
258627480059825;0.8652;-0.1185;-0.0931;
258627485114148;1.1624;1.0327;0.0624;
258627490168523;1.1827;0.8060;0.0454;
258627495222846;1.0751;-0.4049;-0.1091;
258627500277273;0.9419;-1.0578;-0.2250;
258627505329721;0.9441;-0.2687;-0.0973;
258627510384044;0.9558;0.8656;0.0880;
258627515438419;0.8684;0.6015;0.0720;
258627520492794;0.7546;-0.6670;-0.1304;
258627525547117;0.5224;-0.8672;-0.1538;
258627530601492;-0.0037;0.4683;0.0230;
258627535655867;-0.4489;0.9092;0.0720;
258627540710242;-0.5628;0.0178;-0.0526;
258627545764565;-0.8611;-0.7735;-0.1197;
258627550818940;-0.9272;-0.5722;-0.1176;
258627555873263;-0.7045;0.3138;-0.0121;
258627560927638;-0.7354;0.7463;0.0774;
258627565977742;-0.7951;0.3330;0.0390;
258627571032117;-0.6843;-0.2985;-0.0611;
258627576086440;-0.4808;-0.6126;-0.0654;
258627581140815;-0.0762;-0.2932;-0.0387;
258627586195138;0.3466;0.3724;0.0401;
258627591249513;0.5170;0.5695;0.1008;
258627596303680;0.5799;0.0519;0.0486;
258627601358055;0.6960;-0.5999;-0.0963;
258627606412378;0.8056;-0.6851;-0.0877;
258627611466753;0.9813;0.1201;0.0262;
258627616521075;1.1049;0.7421;0.1189;
258627621575450;1.0570;0.2128;0.0433;
258627626657430;0.9132;-0.6968;-0.1037;
258627631711805;0.4318;-0.2144;-0.0888;
258627636766128;-0.6331;0.6728;0.0465;
258627641820503;-1.0283;0.2533;-0.0100;
258627646874825;-1.0081;-0.2953;-0.0856;
258627651929200;-1.4745;0.0903;-0.0409;
258627656956388;-1.4330;0.2682;-0.0111;
258627662010711;-1.2583;-0.0024;-0.0686;
258627667065086;-1.2711;-0.2410;-0.0718;
258627672119461;-0.9421;-0.3527;-0.1357;
258627677173784;-0.5000;-0.2676;-0.0909;
258627682228159;-0.0943;0.0626;-0.0206;
258627687290242;0.4478;0.1382;-0.0260;
258627692344565;0.7397;0.2735;-0.0068;
258627697398940;0.8386;0.3149;0.0124;
258627702453315;0.9771;-0.0248;-0.0377;
258627707507638;0.9824;-0.4134;-0.1314;
258627712562013;0.9696;-0.2847;-0.1133;
258627717622221;1.0080;0.2160;-0.0356;
258627722676544;0.8738;0.3628;-0.0185;
258627727730919;0.6331;0.0455;-0.0696;
258627732785294;0.2092;-0.0557;-0.0952;
258627737839617;-0.4776;-0.1206;-0.1122;
258627742893992;-0.7652;-0.4113;-0.1453;
258627747939721;-0.7887;-0.1153;-0.1154;
258627752994096;-0.8185;0.3607;-0.0430;
258627758048419;-0.7152;0.2565;-0.0441;
258627763102794;-0.6960;-0.0983;-0.0952;
258627768157117;-0.7493;-0.0525;-0.0814;
258627773211492;-0.6811;0.1020;-0.0760;
258627778256805;-0.5224;-0.1366;-0.0995;
258627783311128;-0.2413;-0.2751;-0.0803;
258627788365555;0.1411;0.0530;-0.0473;
258627793419878;0.3849;0.5290;0.0401;
258627798474200;0.5426;0.5226;0.0017;
258627803528575;0.6204;-0.1941;-0.0430;
258627808588315;0.6555;-0.6031;-0.1240;
258627813642638;0.7333;-0.2943;-0.1229;
258627818696961;0.8035;0.1925;-0.0441;
258627823751336;0.8471;0.1340;0.0039;
258627828805711;0.8972;-0.2506;-0.0601;
258627833860034;0.7971;-0.1792;-0.0750;
258627838934200;0.5618;0.3501;0.0113;
258627843988523;0.2656;0.5109;0.0156;
258627849042898;-0.0602;0.0242;-0.0494;
258627854097273;-0.2722;-0.5647;-0.0973;
258627859151648;-0.3872;-0.5317;-0.1059;
258627864205971;-0.4840;0.0839;-0.0611;
258627869236596;-0.6395;0.5684;0.0454;
258627874290919;-0.7578;0.3011;0.0198;
258627879345346;-0.7876;-0.4230;-0.0846;
258627884399669;-0.6374;-0.7426;-0.1101;
258627889454044;-0.3329;-0.1952;-0.0228;
258627894508367;-0.0421;0.5716;0.0593;
258627899617117;0.1731;0.5525;0.0880;
258627904671492;0.3477;-0.1153;0.0049;
258627909725815;0.4595;-0.5296;-0.0771;
258627914780190;0.4915;-0.1462;-0.0483;
258627919834565;0.5000;0.2957;0.0060;
258627924888888;0.5085;0.1574;0.0156;
258627929883367;0.6182;-0.2549;-0.0398;
258627934937690;0.7077;-0.3506;-0.0579;
258627939992065;0.6630;0.1020;-0.0238;
258627945046440;0.5149;0.4427;0.0230;
258627950100815;0.2656;0.1606;-0.0089;
258627955155138;0.0368;-0.1909;-0.0334;
258627960238992;-0.1433;0.0072;-0.0302;
258627965293367;-0.4318;0.3170;-0.0004;
258627970347690;-0.6992;0.3064;-0.0228;
258627975402065;-0.9058;-0.2655;-0.0750;
258627980456440;-0.9517;-0.7245;-0.1314;
258627985510763;-0.7578;-0.3284;-0.0973;
258627990570138;-0.5106;0.3895;-0.0089;
258627995624513;-0.3872;0.6952;0.0710;
258628000678836;-0.2935;0.3128;0.0348;
258628005733211;-0.1784;-0.3177;-0.0739;
258628010787586;-0.0389;-0.4699;-0.0888;
258628015841909;0.1688;0.0594;-0.0281;
258628020880242;0.2710;0.4843;-0.0036;
258628025934617;0.2987;0.0487;-0.0409;
258628030988940;0.4244;-0.5743;-0.1048;
258628036043315;0.6385;-0.4092;-0.0824;
258628041097638;0.7674;0.2277;0.0049;
258628046152013;0.7322;0.5503;0.0124;
258628051201805;0.5895;0.1531;-0.0270;
258628056256180;0.4126;-0.3474;-0.0835;
258628061310503;0.2933;-0.3326;-0.0718;
258628066364878;0.1262;0.4182;0.0092;
258628071419200;-0.1390;0.8889;0.0848;
258628076473575;-0.4446;0.2405;0.0007;
258628081525034;-0.6800;-0.8758;-0.1760;
258628086579409;-0.6896;-1.1281;-0.1920;
258628091633732;-0.4553;-0.2367;-0.1037;
258628096688107;-0.2061;0.5716;0.0369;
258628101742430;-0.0485;0.5237;0.0369;
258628106796805;0.0240;0.0296;0.0166;
258628111871596;0.0836;-0.1430;-0.0462;
258628116925971;0.1071;0.0072;-0.0121;
258628121980346;0.1113;0.1979;0.0124;
258628127034669;0.1337;-0.1025;-0.0558;
258628132088992;0.1593;-0.3900;-0.0771;
258628137143367;0.2071;0.2053;0.0092;
258628142198992;0.2763;0.6345;0.0848;
258628147253367;0.2198;0.3895;0.0433;
258628152307690;0.2113;-0.5189;-0.0867;
258628157362065;0.2944;-1.0620;-0.1495;
258628162416388;0.4009;-0.3794;-0.0952;
258628167470763;0.3935;0.8156;0.0795;
258628172525555;0.1975;1.0668;0.1264;
258628177579930;-0.0847;0.1148;0.0177;
258628182634253;-0.2029;-0.6723;-0.0846;
258628187688628;-0.1624;-0.4571;-0.0664;
258628192743003;-0.1912;0.3756;0.0252;
258628197797325;-0.3137;0.6366;0.0433;
258628202838055;-0.4680;-0.0983;-0.0238;
258628207892378;-0.5682;-0.8683;-0.1154;
258628212946753;-0.4329;-0.5317;-0.0931;
258628218001128;-0.1635;0.3554;0.0656;
258628223055450;-0.0591;0.7453;0.1445;
258628228109825;0.0027;0.2138;0.0475;
258628233170450;0.1539;-0.8204;-0.0771;
258628238224773;0.3200;-0.7138;-0.0590;
258628243279148;0.6608;0.2808;0.0710;
258628248333523;0.8525;0.6473;0.0955;
258628253387846;0.7876;0.0146;0.0209;
258628258442221;0.7791;-0.6893;-0.0601;
258628263486492;0.6640;-0.4401;-0.0462;
258628268540867;0.4371;0.5908;0.0816;
258628273595190;0.1953;0.9049;0.1338;
258628278649565;-0.1273;0.0455;0.0369;
258628283703888;-0.3084;-0.8331;-0.0601;
258628288758263;-0.1667;-0.7106;-0.0792;
258628293815763;-0.0730;0.1158;0.0198;
258628298870138;-0.1007;0.6952;0.0742;
258628303924461;-0.3414;0.6121;0.0593;
258628308978836;-0.6779;-0.0546;-0.0004;
258628314033159;-0.8547;-0.5945;-0.0835;
258628319087534;-0.7919;-0.2634;-0.0505;
258628324133680;-0.5554;0.2362;0.0316;
258628329188055;-0.3478;0.2522;-0.0004;
258628334242378;-0.1550;-0.3431;-0.0984;
258628339296753;0.0069;-0.5157;-0.0877;
258628344351075;0.0751;0.4768;0.0561;
258628349405450;0.1795;1.0466;0.1391;
258628354461492;0.2550;0.1968;0.0103;
258628359515815;0.3210;-1.1760;-0.1824;
258628364570190;0.4627;-1.1377;-0.1867;
258628369624565;0.4915;0.5716;0.0156;
258628374678888;0.3093;1.6792;0.2041;
258628379733263;0.0943;0.6920;0.0987;
258628384803888;-0.0144;-1.0844;-0.1304;
258628389858263;0.1571;-1.4370;-0.2208;
258628394912586;0.4382;-0.1771;-0.0814;
258628399967013;0.4084;1.0924;0.0806;
258628405021284;0.2656;0.8262;0.0507;
258628410075659;-0.0218;-0.4060;-0.1005;
258628415129513;-0.2764;-0.9375;-0.1666;
258628420183888;-0.3073;0.0115;-0.0675;
258628425238211;-0.3393;0.9326;0.0784;
258628430292586;-0.4117;0.3980;-0.0047;
258628435346909;-0.4670;-0.8033;-0.1899;
258628440401284;-0.4648;-0.8193;-0.1920;
258628445439409;-0.3957;0.5205;0.0134;
258628450493732;-0.3297;1.1478;0.0912;
258628455548107;-0.2700;0.0743;-0.0345;
258628460602482;-0.1518;-1.1931;-0.2208;
258628465656805;-0.0016;-0.8438;-0.1920;
258628470711180;0.1028;0.7527;0.0316;
258628475766805;0.0911;1.4152;0.1594;
258628480821128;0.1049;0.2032;0.0166;
258628485875503;0.2497;-1.2868;-0.1760;
258628490929878;0.5618;-1.1441;-0.2016;
258628495984200;0.8578;0.3245;-0.0164;
258628501038575;0.8823;1.1712;0.1019;
258628506092638;0.7066;0.3170;-0.0185;
258628511146961;0.4851;-0.8736;-0.1517;
258628516201336;0.3168;-0.6574;-0.1282;
258628521255711;0.2603;0.5418;0.0241;
258628526310034;0.1220;0.8857;0.0859;
258628531364409;-0.0314;-0.0983;-0.0302;
258628536419044;-0.2146;-0.9386;-0.1803;
258628541473367;-0.3510;-0.6254;-0.1506;
258628546527742;-0.4160;0.5695;0.0273;
258628551582117;-0.4499;0.8943;0.0646;
258628556636440;-0.4638;-0.1494;-0.0558;
258628561690815;-0.4680;-0.8662;-0.1686;
258628566742117;-0.3531;-0.4060;-0.1027;
258628571796440;-0.3371;0.7059;0.0337;
258628576850815;-0.4213;1.0029;0.1008;
258628581905190;-0.3723;-0.0194;-0.0238;
258628586959513;-0.2253;-1.0674;-0.1602;
258628592013888;0.0815;-0.7895;-0.1378;
258628597088888;0.4339;0.4481;0.0124;
258628602143211;0.4638;1.1020;0.1019;
258628607197586;0.3679;0.2309;0.0092;
258628612251961;0.3200;-0.9949;-0.1707;
258628617306284;0.3359;-0.9981;-0.1696;
258628622360659;0.4766;0.4481;0.0678;
258628627413263;0.5980;1.3491;0.1871;
258628632467586;0.5969;0.3170;0.0688;
258628637521961;0.5138;-1.2485;-0.1792;
258628642576336;0.4297;-1.4540;-0.2325;
258628647630659;0.4148;0.1489;-0.0238;
258628652685034;0.3423;1.3694;0.1541;
258628657739721;0.2731;0.5280;0.0869;
258628662794044;0.1571;-1.0844;-0.1272;
258628667848419;0.0676;-0.9290;-0.1229;
258628672902794;-0.1305;0.9347;0.0976;
258628677957117;-0.4011;1.6334;0.2137;
258628683011492;-0.5522;-0.0162;0.0028;
258628688044409;-0.7045;-1.6371;-0.2027;
258628693098732;-0.6182;-0.8566;-0.1293;
258628698153107;-0.3542;1.0338;0.1072;
258628703207482;-0.3744;1.5077;0.1967;
258628708261805;-0.3776;0.0498;0.0060;
258628713316180;-0.4085;-1.1004;-0.1463;
258628718370659;-0.3979;-0.5296;-0.0877;
258628723424982;-0.1550;0.7666;0.1040;
258628728479357;0.0197;0.9539;0.1573;
258628733533732;0.2262;-0.3357;-0.0089;
258628738588055;0.4276;-1.2303;-0.1952;
258628743642430;0.4073;-0.2857;-0.0824;
258628748693055;0.3242;1.2490;0.1732;
258628753747378;0.2166;1.1552;0.1850;
258628758801753;0.2326;-0.6233;-0.0356;
258628763856128;0.3455;-1.7021;-0.2144;
258628768910450;0.5160;-0.6190;-0.0973;
258628773964825;0.5043;1.1414;0.1711;
258628779043159;0.3423;1.2224;0.2212;
258628784097482;0.2379;-0.3102;0.0166;
258628789151857;0.0932;-1.2080;-0.0888;
258628794206180;0.1475;-0.3921;0.0028;
258628799260555;0.2326;0.7431;0.1328;
258628804314930;0.1889;0.4289;0.0997;
258628809354669;0.2134;-0.8299;-0.0782;
258628814408940;0.1113;-0.8576;-0.0664;
258628819463315;0.0069;0.6334;0.1168;
258628824517690;-0.0623;1.2074;0.2031;
258628829572013;-0.1997;0.0658;0.0838;
258628834626388;-0.2498;-1.0003;-0.0771;
258628839685346;-0.1678;-0.7809;-0.0909;
258628844739669;-0.1731;0.3511;0.0475;
258628849794044;-0.2200;0.9656;0.1786;
258628854848419;-0.1624;0.3245;0.0944;
258628859902742;-0.1923;-0.6659;-0.0270;
258628864957117;-0.1571;-0.6105;-0.0728;
258628870026596;-0.0655;0.1574;0.0369;
258628875080919;-0.0719;0.5312;0.0880;
258628880135294;-0.0431;0.2085;0.0656;
258628885189669;0.1198;-0.4007;-0.0196;
258628890243992;0.1401;-0.2517;0.0092;
258628895298367;0.2134;0.4300;0.0806;
258628900348159;0.2880;0.5098;0.0699;
258628905402482;0.1975;-0.1835;0.0007;
258628910456857;0.1486;-0.6446;-0.0792;
258628915511232;0.1134;-0.2857;-0.0281;
258628920565555;0.0410;0.4129;0.0550;
258628925619930;0.1220;0.3351;0.0795;
258628930681857;0.2294;-0.3932;-0.0132;
258628935736232;0.2422;-0.5296;-0.0494;
258628940790555;0.2571;0.2224;0.0198;
258628945844930;0.1241;0.5312;0.0603;
258628950899253;-0.0442;0.0722;0.0316;
258628955953628;-0.0197;-0.4848;-0.0398;
258628960996492;-0.0176;-0.3326;-0.0302;
258628966050815;-0.0751;0.3543;0.0624;
258628971105190;-0.1475;0.4768;0.0678;
258628976159565;-0.2860;-0.1132;-0.0057;
258628981213888;-0.2796;-0.4795;-0.0345;
258628986268263;-0.1028;-0.2091;-0.0281;
258628991326700;-0.0197;0.2639;0.0156;
258628996381023;0.0186;0.3160;0.0337;
258629001435398;0.1060;-0.1696;0.0017;
258629006489773;0.0581;-0.2868;-0.0579;
258629011544096;0.0975;0.0115;-0.0228;
258629016598471;0.0708;0.4374;0.0624;
258629021640138;0.0282;0.2128;0.0454;
258629026694461;0.1273;-0.3964;-0.0622;
258629031748836;0.2273;-0.6510;-0.0632;
258629036803211;0.3668;-0.0493;-0.0004;
258629041857534;0.4126;0.4960;0.0369;
258629046911909;0.3583;0.1510;0.0124;
258629051970294;0.2987;-0.3252;-0.0036;
258629057024617;0.2582;-0.0951;-0.0132;
258629062078992;0.1975;0.4374;0.0401;
258629067133367;0.1071;0.2277;0.0071;
258629072187690;-0.0431;-0.4092;-0.0718;
258629077242065;-0.1166;-0.3071;-0.0462;
258629082298055;-0.1465;0.4236;0.0060;
258629087352430;-0.2391;0.5908;0.0422;
258629092406753;-0.3883;0.0381;-0.0366;
258629097461128;-0.5234;-0.4422;-0.0963;
258629102515450;-0.5660;-0.1505;-0.0782;
258629107569825;-0.5937;0.4587;0.0060;
258629112634513;-0.5682;0.5897;0.0465;
258629117688836;-0.5128;-0.0684;-0.0409;
258629122743211;-0.4064;-0.7096;-0.1304;
258629127797586;-0.1667;-0.4007;-0.1048;
258629132851909;0.0325;0.2968;0.0134;
258629137906284;0.1017;0.6696;0.0582;
258629142953471;0.1656;0.0413;-0.0398;
258629148007794;0.3434;-0.7756;-0.1027;
258629153062169;0.6513;-0.4933;-0.0537;
258629158116544;0.9696;0.3043;0.0422;
258629163170867;0.9856;0.6632;0.1125;
258629168225242;0.8812;0.2266;0.0646;
258629173281388;0.8343;-0.5860;-0.0377;
258629178335711;0.7992;-0.6435;-0.0441;
258629183390034;0.9142;-0.0397;0.0188;
258629188444461;0.8365;0.4395;0.0795;
258629193498784;0.3349;0.5993;0.0720;
258629198553107;-0.1976;-0.0525;0.0103;
258629203597378;-0.5245;-0.5445;-0.0387;
258629208651700;-0.6768;-0.0578;0.0156;
258629213706075;-0.7162;0.5887;0.0976;
258629218760398;-0.7237;0.2766;0.0763;
258629223814721;-0.7141;-0.3751;0.0028;
258629228869096;-0.7322;-0.1675;-0.0153;
258629233918471;-0.7248;0.5280;0.1093;
258629238972794;-0.6598;0.5216;0.0816;
258629244027169;-0.4840;-0.5807;-0.0398;
258629249081492;-0.1081;-1.0471;-0.0771;
258629254135815;0.3221;-0.0109;0.0348;
258629259190190;0.5820;1.0242;0.1967;
258629264251492;0.6427;0.6813;0.1913;
258629269305815;0.6502;-0.4230;0.0348;
258629274360190;0.8109;-1.0290;-0.0249;
