Sensor: bmi160 Gyroscope Non-wakeup
Vendor: BOSCH
TimestampGyro [ns]; GyroX [rad/s]; GyroY [rad/s]; GyroZ [rad/s]
2496540628919138;-0.0081;-0.0097;0.0123;
2496540639030544;-0.0124;-0.0033;0.0123;
2496540649146169;-0.0039;-0.0055;0.0154;
2496540659239867;-0.0049;-0.0065;0.0165;
2496540669342575;-0.0049;-0.0076;0.0165;
2496540679479815;-0.0028;-0.0087;0.0165;
2496540689549919;-0.0049;-0.0065;0.0154;
2496540699688877;-0.0039;-0.0065;0.0154;
2496540709776013;-0.0039;-0.0065;0.0176;
2496540719901794;-0.0039;-0.0055;0.0176;
2496540729988096;-0.0028;-0.0055;0.0165;
2496540740118461;-0.0028;-0.0065;0.0165;
2496540750211325;-0.0060;-0.0076;0.0154;
2496540760312784;-0.0039;-0.0055;0.0154;
2496540770428565;-0.0039;-0.0055;0.0144;
2496540780530492;-0.0049;-0.0055;0.0133;
2496540790640909;-0.0049;-0.0055;0.0133;
2496540800746221;-0.0039;-0.0065;0.0133;
2496540810849815;-0.0028;-0.0055;0.0123;
2496540820959138;-0.0028;-0.0055;0.0123;
2496540831061430;-0.0017;-0.0055;0.0112;
2496540841173565;-0.0017;-0.0065;0.0091;
2496540851273930;-0.0028;-0.0065;0.0091;
2496540861383252;-0.0017;-0.0065;0.0101;
2496540871495909;-0.0028;-0.0065;0.0112;
2496540881598252;-0.0049;-0.0055;0.0101;
2496540891708721;-0.0028;-0.0055;0.0101;
2496540901817159;-0.0060;-0.0044;0.0101;
2496540911924242;-0.0092;-0.0055;0.0101;
2496540922036430;-0.0060;-0.0065;0.0112;
2496540932143721;-0.0049;-0.0076;0.0112;
2496540942238409;-0.0060;-0.0055;0.0123;
2496540952369763;-0.0081;-0.0076;0.0133;
2496540962469242;-0.0092;-0.0076;0.0176;
2496540972574867;-0.0113;-0.0065;0.0165;
2496540982694607;-0.0092;-0.0044;0.0197;
2496540992796846;-0.0103;-0.0055;0.0208;
2496541002895075;-0.0124;-0.0065;0.0197;
2496541012999138;-0.0124;-0.0097;0.0229;
2496541023113930;-0.0103;-0.0119;0.0250;
2496541033218148;-0.0113;-0.0119;0.0272;
2496541043327680;-0.0113;-0.0150;0.0282;
2496541053437367;-0.0113;-0.0161;0.0293;
2496541063538930;-0.0134;-0.0140;0.0314;
2496541073647159;-0.0134;-0.0129;0.0314;
2496541083752575;-0.0134;-0.0140;0.0325;
2496541093872992;-0.0145;-0.0140;0.0336;
2496541103967471;-0.0134;-0.0129;0.0346;
2496541114080596;-0.0134;-0.0150;0.0346;
2496541124191221;-0.0134;-0.0161;0.0336;
2496541134310700;-0.0124;-0.0140;0.0346;
2496541144406325;-0.0145;-0.0161;0.0357;
2496541154516742;-0.0134;-0.0140;0.0357;
2496541164621221;-0.0134;-0.0129;0.0336;
2496541174728096;-0.0134;-0.0129;0.0325;
2496541184832159;-0.0124;-0.0119;0.0325;
2496541194950075;-0.0134;-0.0108;0.0304;
2496541205031586;-0.0134;-0.0097;0.0272;
2496541215153721;-0.0113;-0.0076;0.0261;
2496541225252419;-0.0092;-0.0087;0.0240;
2496541235366638;-0.0081;-0.0097;0.0229;
2496541245461950;-0.0081;-0.0087;0.0208;
2496541255578721;-0.0060;-0.0087;0.0208;
2496541265688982;-0.0060;-0.0055;0.0186;
2496541275792680;-0.0049;-0.0055;0.0154;
2496541285882055;-0.0039;-0.0055;0.0112;
2496541296019867;-0.0028;-0.0044;0.0091;
2496541306108252;-0.0028;-0.0033;0.0080;
2496541316240440;-0.0007;-0.0001;0.0048;
2496541326349711;0.0004;-0.0001;0.0027;
2496541336444034;0.0015;-0.0023;0.0005;
2496541346546325;0.0015;-0.0023;-0.0016;
2496541356653513;0.0036;0.0009;-0.0027;
2496541366778825;0.0036;0.0009;-0.0048;
2496541376870909;0.0025;0.0041;-0.0059;
2496541386968096;0.0025;0.0031;-0.0080;
2496541397106846;0.0057;0.0041;-0.0080;
2496541407214034;0.0047;0.0041;-0.0069;
2496541417290909;0.0036;0.0041;-0.0091;
2496541427398565;0.0036;0.0041;-0.0101;
2496541437529294;0.0025;0.0052;-0.0101;
2496541447694919;0.0025;0.0041;-0.0101;
2496541457734919;0.0047;0.0041;-0.0091;
2496541467850648;0.0036;0.0052;-0.0091;
2496541477961846;0.0047;0.0041;-0.0080;
2496541488017471;0.0036;0.0031;-0.0069;
2496541498211898;0.0025;0.0020;-0.0069;
2496541508312211;0.0036;0.0009;-0.0069;
2496541518366534;0.0025;-0.0001;-0.0059;
2496541528470596;0.0015;0.0020;-0.0037;
2496541538570388;0.0004;0.0009;-0.0027;
2496541548715961;0.0004;-0.0012;-0.0016;
2496541558807992;0.0004;-0.0012;-0.0005;
2496541568911534;0.0004;-0.0012;0.0016;
2496541579009711;-0.0017;-0.0012;0.0048;
2496541589124450;-0.0017;-0.0023;0.0048;
2496541599232211;-0.0039;-0.0023;0.0069;
2496541609346221;-0.0039;-0.0033;0.0080;
2496541619447055;-0.0039;-0.0055;0.0091;
2496541629556117;-0.0028;-0.0055;0.0112;
2496541639680388;-0.0049;-0.0055;0.0133;
2496541649769294;-0.0039;-0.0055;0.0154;
2496541659880648;-0.0028;-0.0065;0.0165;
2496541669985909;-0.0039;-0.0065;0.0165;
2496541680080544;-0.0060;-0.0076;0.0165;
2496541690187627;-0.0049;-0.0097;0.0186;
2496541700321013;-0.0049;-0.0087;0.0176;
2496541710430596;-0.0071;-0.0076;0.0186;
2496541720540023;-0.0060;-0.0065;0.0186;
2496541730638513;-0.0049;-0.0076;0.0176;
2496541740748044;-0.0049;-0.0065;0.0186;
2496541750857523;-0.0060;-0.0065;0.0176;
2496541760959346;-0.0039;-0.0065;0.0176;
2496541771068877;-0.0028;-0.0065;0.0165;
2496541781178357;-0.0028;-0.0076;0.0176;
2496541791285596;-0.0039;-0.0076;0.0165;
2496541801395127;-0.0028;-0.0065;0.0176;
2496541811504607;-0.0017;-0.0108;0.0165;
2496541821605492;-0.0039;-0.0108;0.0165;
2496541831715023;-0.0028;-0.0108;0.0154;
2496541841824502;-0.0028;-0.0108;0.0176;
2496541851932263;-0.0039;-0.0097;0.0197;
2496541862041794;-0.0049;-0.0087;0.0218;
2496541872151273;-0.0039;-0.0087;0.0272;
2496541882249242;-0.0092;-0.0119;0.0325;
2496541892358773;-0.0092;-0.0161;0.0389;
2496541902468252;-0.0103;-0.0214;0.0474;
2496541912569346;-0.0145;-0.0268;0.0549;
2496541922678930;-0.0177;-0.0289;0.0676;
2496541932788409;-0.0220;-0.0342;0.0815;
2496541942883825;-0.0262;-0.0395;0.0964;
2496541952993252;-0.0326;-0.0449;0.1103;
2496541963102784;-0.0379;-0.0502;0.1262;
2496541973212263;-0.0411;-0.0566;0.1443;
2496541983304711;-0.0486;-0.0640;0.1624;
2496541993414190;-0.0518;-0.0704;0.1806;
2496542003523669;-0.0550;-0.0779;0.1987;
2496542013660075;-0.0593;-0.0875;0.2146;
2496542023769607;-0.0603;-0.0981;0.2306;
2496542033879086;-0.0656;-0.1056;0.2455;
2496542043973513;-0.0667;-0.1109;0.2594;
2496542054083044;-0.0699;-0.1152;0.2711;
2496542064192523;-0.0731;-0.1184;0.2818;
2496542074292680;-0.0742;-0.1216;0.2913;
2496542084402263;-0.0774;-0.1258;0.2977;
2496542094511690;-0.0784;-0.1301;0.2999;
2496542104617992;-0.0763;-0.1344;0.3009;
2496542114727523;-0.0763;-0.1365;0.2988;
2496542124837055;-0.0742;-0.1365;0.2956;
2496542134932784;-0.0731;-0.1333;0.2935;
2496542145042315;-0.0742;-0.1290;0.2860;
2496542155151794;-0.0731;-0.1237;0.2775;
2496542165242471;-0.0699;-0.1173;0.2700;
2496542175351950;-0.0667;-0.1130;0.2615;
2496542185461482;-0.0646;-0.1109;0.2519;
2496542195587992;-0.0582;-0.1099;0.2413;
2496542205697523;-0.0390;-0.1067;0.2370;
2496542215807002;-0.0049;-0.1035;0.2338;
2496542225900700;0.0270;-0.1013;0.2306;
2496542236010232;0.0473;-0.1003;0.2285;
2496542246119711;0.0558;-0.1003;0.2264;
2496542256225075;0.0569;-0.0992;0.2232;
2496542266334607;0.0515;-0.1003;0.2200;
2496542276444086;0.0430;-0.0981;0.2200;
2496542286563357;0.0387;-0.0939;0.2189;
2496542296672836;0.0366;-0.0917;0.2178;
2496542306782315;0.0292;-0.0907;0.2157;
2496542316865127;0.0206;-0.0896;0.2157;
2496542326974607;0.0217;-0.0896;0.2168;
2496542337084086;0.0313;-0.0928;0.2200;
2496542347194867;0.0473;-0.0939;0.2242;
2496542357304398;0.0707;-0.0939;0.2285;
2496542367413877;0.0941;-0.0949;0.2317;
2496542377528148;0.1133;-0.0949;0.2359;
2496542387637627;0.1324;-0.0992;0.2402;
2496542397747107;0.1483;-0.1035;0.2434;
2496542407831638;0.1579;-0.1067;0.2434;
2496542417941117;0.1664;-0.1067;0.2423;
2496542428050648;0.1760;-0.1013;0.2455;
2496542438176273;0.1792;-0.0928;0.2455;
2496542448285752;0.1643;-0.0875;0.2445;
2496542458395284;0.1101;-0.0907;0.2317;
2496542468469711;-0.0944;-0.1237;0.1923;
2496542478579190;-0.1924;-0.1546;0.1539;
2496542488688721;-0.2830;-0.1471;0.1582;
2496542498793357;-0.3224;-0.0971;0.1955;
2496542508902888;-0.2052;-0.0364;0.2285;
2496542519012419;-0.0774;-0.0023;0.2178;
2496542529132055;-0.0891;-0.0033;0.1838;
2496542539241638;-0.0944;-0.0161;0.1646;
2496542549351065;-0.0720;-0.0225;0.1667;
2496542559444398;-0.0646;-0.0257;0.1603;
2496542569553877;-0.0667;-0.0268;0.1358;
2496542579663357;-0.0688;-0.0225;0.1124;
2496542589759086;-0.0614;-0.0193;0.0975;
2496542599868617;-0.0518;-0.0214;0.0826;
2496542609978044;-0.0465;-0.0161;0.0644;
2496542620092680;-0.0433;-0.0087;0.0463;
2496542630202211;-0.0379;-0.0044;0.0282;
2496542640311690;-0.0326;-0.0001;0.0091;
2496542650431898;-0.0241;0.0095;-0.0027;
2496542660541430;-0.0209;0.0116;-0.0144;
2496542670650857;-0.0198;0.0084;-0.0304;
2496542680736586;-0.0124;0.0116;-0.0421;
2496542690846065;-0.0081;0.0158;-0.0506;
2496542700955544;-0.0081;0.0095;-0.0431;
2496542711062888;-0.1040;0.0563;-0.1411;
2496542721170752;-0.0550;0.0744;-0.1060;
2496542731278565;0.0686;0.0702;-0.1273;
2496542741386586;0.1260;0.0340;-0.1688;
2496542751494450;0.1154;0.0531;-0.1976;
2496542761602263;0.0409;0.0691;-0.1965;
2496542771707732;0.0164;0.0222;-0.1294;
2496542781815596;0.0153;0.0478;-0.0804;
2496542791923409;0.0686;0.0915;-0.1071;
2496542802024502;0.0750;0.0574;-0.1784;
2496542812132367;0.0899;0.0638;-0.2125;
2496542822240180;0.1186;0.0904;-0.1827;
2496542832352836;0.1091;0.0521;-0.1656;
2496542842460700;0.1133;0.0467;-0.1678;
2496542852568513;0.1154;0.0787;-0.1646;
2496542862675336;0.0558;0.0606;-0.1784;
2496542872783200;0.0366;0.0563;-0.1859;
2496542882891013;0.0824;0.0755;-0.1795;
2496542893002888;0.0963;0.0574;-0.1869;
2496542903110752;0.1112;0.0457;-0.1848;
2496542913218565;0.1377;0.0585;-0.1667;
2496542923320961;0.1419;0.0606;-0.1699;
2496542933428825;0.1632;0.0670;-0.1901;
2496542943536690;0.1963;0.0766;-0.2125;
2496542953639398;0.1877;0.0798;-0.2285;
2496542963747263;0.1409;0.0893;-0.2306;
2496542973855075;0.1101;0.0893;-0.2317;
2496542983963669;0.1217;0.0893;-0.2423;
2496542994071534;0.1505;0.1032;-0.2498;
2496543004179346;0.1686;0.1021;-0.2646;
2496543014285752;0.1941;0.0957;-0.2774;
2496543024393617;0.2314;0.1064;-0.2752;
2496543034501430;0.2431;0.1000;-0.2806;
2496543044614086;0.2293;0.0915;-0.2838;
2496543054721950;0.2133;0.1085;-0.2816;
2496543064829763;0.1824;0.1181;-0.2869;
2496543074930127;0.1345;0.1181;-0.2944;
2496543085037992;0.0771;0.1309;-0.2891;
2496543095145805;0.0142;0.1277;-0.2827;
2496543105261377;0.0206;0.1160;-0.2795;
2496543115369242;0.0079;0.1181;-0.2646;
2496543125477055;-0.0071;0.1213;-0.2423;
2496543135571638;0.0079;0.1021;-0.2274;
2496543145679502;0.0036;0.0798;-0.2168;
2496543155787315;0.0079;0.0712;-0.1965;
2496543165915544;0.0079;0.0574;-0.1731;
2496543176023409;0.0025;0.0510;-0.1539;
2496543186131221;-0.0071;0.0553;-0.1348;
2496543196245857;-0.0156;0.0585;-0.1145;
2496543206353721;-0.0166;0.0467;-0.1007;
2496543216461534;-0.0134;0.0308;-0.0879;
2496543226549398;-0.0156;0.0265;-0.0730;
2496543236657263;-0.0156;0.0233;-0.0602;
2496543246765075;-0.0198;0.0137;-0.0527;
2496543256867523;-0.0252;0.0169;-0.0399;
2496543266975388;-0.0230;0.0265;-0.0261;
2496543277083200;-0.0241;0.0158;-0.0250;
2496543287181586;-0.0252;0.0073;-0.0250;
2496543297289450;-0.0262;0.0137;-0.0186;
2496543307397263;-0.0273;0.0052;-0.0144;
2496543317538200;-0.0273;0.0009;-0.0144;
2496543327646013;-0.0284;0.0137;-0.0091;
2496543337753825;-0.0284;0.0105;-0.0101;
2496543347827523;-0.0262;0.0009;-0.0133;
2496543357935388;-0.0252;0.0041;-0.0101;
2496543368043200;-0.0220;0.0031;-0.0080;
2496543378177732;-0.0220;-0.0012;-0.0112;
2496543388285596;-0.0220;0.0041;-0.0101;
2496543398393409;-0.0252;0.0063;-0.0091;
2496543408473461;-0.0284;0.0041;-0.0080;
2496543418581325;-0.0220;0.0009;-0.0059;
2496543428689138;-0.0177;-0.0023;-0.0016;
2496543438803044;-0.0188;-0.0023;0.0016;
2496543448910909;-0.0198;-0.0023;0.0027;
2496543459018721;-0.0220;-0.0001;0.0091;
2496543469124502;-0.0198;0.0063;0.0186;
2496543479232367;-0.0188;0.0009;0.0229;
2496543489340180;-0.0156;-0.0097;0.0165;
2496543499440023;-0.0156;-0.0119;0.0101;
2496543509547888;-0.0156;-0.0129;0.0112;
2496543519655700;-0.0134;-0.0119;0.0123;
2496543529789815;-0.0145;0.0020;0.0144;
2496543539897680;-0.0145;0.0095;0.0048;
2496543550005492;-0.0134;0.0073;-0.0059;
2496543560096586;-0.0124;0.0063;-0.0037;
2496543570204450;-0.0103;-0.0023;0.0027;
2496543580312263;-0.0092;-0.0150;0.0069;
2496543590439294;-0.0134;-0.0161;0.0154;
2496543600547159;-0.0177;-0.0129;0.0282;
2496543610654971;-0.0188;-0.0172;0.0399;
2496543620740023;-0.0220;-0.0193;0.0506;
2496543630847888;-0.0326;-0.0204;0.0613;
2496543640955700;-0.0465;-0.0300;0.0666;
2496543651056586;-0.0529;-0.0300;0.0719;
2496543661164450;-0.0443;-0.0257;0.0804;
2496543671272263;-0.0273;-0.0246;0.0900;
2496543681372732;-0.0284;-0.0257;0.0943;
2496543691480596;-0.0305;-0.0310;0.0953;
2496543701588409;-0.0294;-0.0374;0.0964;
2496543711717836;-0.0305;-0.0427;0.0996;
2496543721825492;-0.0326;-0.0427;0.1028;
2496543731933200;-0.0326;-0.0342;0.1039;
2496543742033461;-0.0337;-0.0278;0.1017;
2496543752141117;-0.0316;-0.0300;0.0996;
2496543762248825;-0.0284;-0.0321;0.0975;
2496543772366221;-0.0273;-0.0364;0.0932;
2496543782473877;-0.0284;-0.0438;0.0911;
2496543792581586;-0.0305;-0.0427;0.0900;
2496543802676377;-0.0316;-0.0364;0.0889;
2496543812784034;-0.0316;-0.0321;0.0879;
2496543822891742;-0.0358;-0.0289;0.0858;
2496543833002523;-0.0454;-0.0289;0.0826;
2496543843110180;-0.0614;-0.0342;0.0783;
2496543853217888;-0.0688;-0.0364;0.0783;
2496543863332055;-0.0710;-0.0342;0.0772;
2496543873439711;-0.0869;-0.0332;0.0730;
2496543883547419;-0.1136;-0.0278;0.0644;
2496543893642627;-0.1296;-0.0214;0.0549;
2496543903750284;-0.1200;-0.0150;0.0410;
2496543913857992;-0.0816;-0.0044;0.0293;
2496543923968565;-0.0507;0.0009;0.0186;
2496543934076221;-0.0539;-0.0001;0.0037;
2496543944183930;-0.0806;0.0009;-0.0080;
2496543954288669;-0.1253;0.0041;-0.0176;
2496543964396325;-0.1775;0.0116;-0.0229;
2496543974504034;-0.2244;0.0212;-0.0240;
2496543984609711;-0.2574;0.0265;-0.0250;
2496543994717367;-0.2659;0.0201;-0.0229;
2496544004825075;-0.2297;0.0180;-0.0197;
2496544014936794;-0.1647;0.0095;-0.0165;
2496544025044450;-0.1168;-0.0023;-0.0165;
2496544035152159;-0.1019;-0.0076;-0.0186;
2496544045225544;-0.0976;-0.0033;-0.0176;
2496544055333200;-0.0944;0.0052;-0.0144;
2496544065440857;-0.1093;0.0148;-0.0101;
2496544075581377;-0.1391;0.0233;-0.0112;
2496544085689034;-0.1775;0.0201;-0.0144;
2496544095796742;-0.1977;0.0137;-0.0186;
2496544105900388;-0.1818;0.0105;-0.0208;
2496544116008096;-0.1381;0.0095;-0.0197;
2496544126115752;-0.0912;0.0084;-0.0176;
2496544136232419;-0.0422;0.0084;-0.0197;
2496544146340075;0.0004;0.0095;-0.0229;
2496544156447784;0.0111;0.0137;-0.0293;
2496544166561065;0.0068;0.0158;-0.0378;
2496544176668721;0.0047;0.0158;-0.0453;
2496544186776430;0.0047;0.0190;-0.0485;
2496544196888252;0.0089;0.0222;-0.0506;
2496544206995909;0.0089;0.0276;-0.0495;
2496544217103617;0.0121;0.0340;-0.0517;
2496544227187211;0.0121;0.0329;-0.0527;
2496544237294867;0.0036;0.0286;-0.0549;
2496544247402575;-0.0134;0.0190;-0.0527;
2496544257526690;-0.0262;0.0095;-0.0485;
2496544267634398;-0.0209;0.0084;-0.0357;
2496544277742055;-0.0071;0.0137;-0.0218;
2496544287850440;0.0079;0.0201;-0.0069;
2496544297958096;0.0089;0.0190;-0.0027;
2496544308065805;0.0079;0.0126;-0.0005;
2496544318169138;0.0057;0.0063;0.0027;
2496544328276742;0.0025;0.0020;0.0059;
2496544338384450;0.0057;-0.0012;0.0069;
2496544348466794;0.0036;-0.0023;0.0069;
2496544358574450;0.0036;-0.0001;0.0101;
2496544368682159;0.0121;0.0020;0.0123;
2496544378827627;0.0036;0.0063;0.0112;
2496544388935284;0.0100;0.0052;0.0101;
2496544399042992;0.0057;0.0009;0.0080;
2496544409130961;0.0036;-0.0033;0.0037;
2496544419238617;0.0089;-0.0065;-0.0005;
2496544429346325;0.0100;-0.0065;-0.0016;
2496544439460440;0.0100;-0.0001;-0.0027;
2496544449568096;0.0111;0.0063;-0.0027;
2496544459675805;0.0089;0.0073;-0.0069;
2496544469805961;0.0100;0.0063;-0.0112;
2496544479913617;0.0111;0.0020;-0.0144;
2496544490021325;0.0111;0.0020;-0.0186;
2496544500096898;0.0132;0.0041;-0.0208;
2496544510204555;0.0132;0.0073;-0.0229;
2496544520312263;0.0132;0.0126;-0.0250;
2496544530428877;0.0132;0.0158;-0.0293;
2496544540536534;0.0121;0.0148;-0.0336;
2496544550644242;0.0142;0.0137;-0.0368;
2496544560742315;0.0153;0.0137;-0.0399;
2496544570849971;0.0153;0.0137;-0.0431;
2496544580957680;0.0153;0.0180;-0.0463;
2496544591064398;0.0153;0.0201;-0.0495;
2496544601172055;0.0174;0.0222;-0.0538;
2496544611279763;0.0164;0.0233;-0.0570;
2496544621385127;0.0174;0.0222;-0.0602;
2496544631492784;0.0185;0.0222;-0.0655;
2496544641600492;0.0174;0.0244;-0.0676;
2496544651714711;0.0185;0.0276;-0.0719;
2496544661822367;0.0185;0.0318;-0.0730;
2496544671930075;0.0185;0.0329;-0.0762;
2496544682033461;0.0217;0.0318;-0.0794;
2496544692141169;0.0228;0.0318;-0.0815;
2496544702248825;0.0217;0.0297;-0.0847;
2496544712360909;0.0206;0.0297;-0.0911;
2496544722468513;0.0132;0.0190;-0.1092;
2496544732576013;0.0089;0.0041;-0.1337;
2496544742696638;0.0196;0.0063;-0.1316;
2496544752804190;0.0473;0.0478;-0.1092;
2496544762911742;0.0409;0.0989;-0.0921;
2496544773019971;0.0270;0.1224;-0.1134;
2496544783127523;0.0206;0.1053;-0.1401;
2496544793235075;0.0206;0.0574;-0.1518;
2496544803324034;0.0419;0.0041;-0.1486;
2496544813431534;0.0483;-0.0055;-0.1337;
2496544823539138;0.0366;0.0340;-0.1273;
2496544833650440;0.0270;0.0787;-0.1316;
2496544843757992;0.0228;0.1000;-0.1316;
2496544853865544;0.0334;0.0883;-0.1209;
2496544863966690;0.0398;0.0499;-0.1177;
2496544874074242;0.0366;0.0095;-0.1273;
2496544884181794;0.0356;0.0052;-0.1337;
2496544894287888;0.0345;0.0361;-0.1262;
2496544904395440;0.0356;0.0670;-0.1124;
2496544914502992;0.0345;0.0819;-0.1049;
2496544924623357;0.0334;0.0734;-0.1071;
2496544934730909;0.0334;0.0393;-0.1145;
2496544944838461;0.0366;0.0116;-0.1198;
2496544954937263;0.0419;0.0137;-0.1134;
2496544965044763;0.0398;0.0361;-0.1060;
2496544975152367;0.0324;0.0574;-0.1007;
2496544985262367;0.0249;0.0691;-0.0964;
2496544995369919;0.0270;0.0595;-0.0964;
2496545005477419;0.0324;0.0457;-0.1028;
2496545015582523;-0.0177;0.0670;-0.1252;
2496545025690127;-0.0071;0.0286;-0.1635;
2496545035797627;0.0377;-0.0353;-0.1614;
2496545045895284;0.0387;0.0212;-0.0868;
2496545056002836;0.0057;0.0553;-0.0485;
2496545066110336;-0.0049;0.0244;-0.0442;
2496545076224867;-0.0060;0.0169;-0.0112;
2496545086332419;0.0036;-0.0023;0.0368;
2496545096439971;0.0004;-0.0758;0.0623;
2496545106549555;-0.0198;-0.1280;0.0826;
2496545116657107;-0.0539;-0.1045;0.1177;
2496545126764607;-0.0699;-0.0768;0.1497;
2496545136876117;-0.0656;-0.0875;0.1774;
2496545146983669;-0.0486;-0.0917;0.2296;
2496545157091169;-0.0433;-0.0843;0.2849;
2496545167181950;0.0387;-0.1130;0.3105;
2496545177289502;0.1803;-0.1429;0.3276;
2496545187397002;0.2485;-0.1280;0.3551;
2496545197539294;0.1867;-0.1141;0.3754;
2496545207646846;0.1091;-0.1258;0.3786;
2496545217754398;0.0963;-0.1269;0.3828;
2496545227838669;0.0952;-0.1280;0.3849;
2496545237946273;0.0526;-0.1450;0.3775;
2496545248053773;-0.0209;-0.1514;0.3679;
2496545258171325;-0.1104;-0.1482;0.3541;
2496545268278877;-0.1583;-0.1439;0.3318;
2496545278386430;-0.1466;-0.1461;0.3126;
2496545288494815;-0.1551;-0.1471;0.3052;
2496545298602367;-0.2063;-0.1301;0.3009;
2496545308709919;-0.2744;-0.1045;0.2935;
2496545318829659;-0.2947;-0.0917;0.2871;
2496545328937211;-0.2595;-0.0843;0.2828;
2496545339044763;-0.1956;-0.0822;0.2860;
2496545349146013;-0.1349;-0.0854;0.2881;
2496545359253565;-0.1200;-0.0864;0.2881;
2496545369361117;-0.1253;-0.0779;0.2871;
2496545379468096;-0.1104;-0.0758;0.2849;
2496545389575648;-0.0614;-0.0768;0.2839;
2496545399683200;-0.0252;-0.0736;0.2924;
2496545409775023;-0.0305;-0.0704;0.2945;
2496545419882575;-0.0497;-0.0726;0.2881;
2496545429990075;-0.0933;-0.0758;0.2775;
2496545440109086;-0.1562;-0.0790;0.2604;
2496545450216638;-0.1647;-0.0704;0.2477;
2496545460324190;-0.1626;-0.0523;0.2455;
2496545470428617;-0.2052;-0.0459;0.2370;
2496545480536169;-0.2585;-0.0555;0.2168;
2496545490643721;-0.2819;-0.0672;0.1976;
2496545500751273;-0.2925;-0.0917;0.1816;
2496545510858825;-0.2819;-0.1130;0.1699;
2496545520966377;-0.2393;-0.1120;0.1699;
2496545531076273;-0.2020;-0.1045;0.1688;
2496545541183825;-0.1828;-0.0992;0.1667;
2496545551291377;-0.1956;-0.0917;0.1624;
2496545561387888;-0.2489;-0.0864;0.1561;
2496545571495440;-0.3117;-0.0811;0.1507;
2496545581602992;-0.3543;-0.0747;0.1454;
2496545591713200;-0.3692;-0.0630;0.1454;
2496545601820752;-0.3565;-0.0449;0.1465;
2496545611928305;-0.3586;-0.0342;0.1358;
2496545622044346;-0.3948;-0.0310;0.1220;
2496545632151898;-0.4385;-0.0225;0.1113;
2496545642259450;-0.4873;-0.0129;0.0985;
2496545652359242;-0.5523;-0.0108;0.0815;
2496545662466794;-0.6035;-0.0023;0.0666;
2496545672574294;-0.6141;0.0105;0.0591;
2496545682696742;-0.6173;0.0158;0.0527;
2496545692804242;-0.6546;0.0190;0.0410;
2496545702911846;-0.7015;0.0190;0.0336;
2496545713015127;-0.7196;0.0190;0.0261;
2496545723122732;-0.7185;0.0233;0.0208;
2496545733230336;-0.7387;0.0233;0.0133;
2496545743336586;-0.7590;0.0158;0.0059;
2496545753444190;-0.7430;0.0169;0.0005;
2496545763551794;-0.7164;0.0265;0.0027;
2496545773654555;-0.7025;0.0372;0.0059;
2496545783767992;-0.6759;0.0467;0.0080;
2496545793904971;-0.6429;0.0627;0.0069;
2496545804012575;-0.6109;0.0787;0.0133;
2496545814120180;-0.5768;0.0989;0.0240;
2496545824195440;-0.5406;0.1138;0.0378;
2496545834303044;-0.4726;0.1703;0.0570;
2496545844410700;-0.3959;0.2597;0.0868;
2496545854508825;-0.4534;0.2202;0.0154;
2496545864616430;-0.5651;0.1043;-0.0751;
2496545874723982;-0.6226;0.0393;-0.0453;
2496545884852836;-0.5449;0.0233;-0.0154;
2496545894960492;-0.3341;0.0403;-0.0101;
2496545905068096;-0.1786;0.0979;0.0069;
2496545915152315;-0.0667;0.1256;0.0080;
2496545925259919;-0.1594;0.0968;-0.0048;
2496545935367575;-0.2989;0.1021;-0.0112;
2496545945498825;-0.3927;0.1138;-0.0357;
2496545955606430;-0.4395;0.1181;-0.0591;
2496545965713982;-0.4374;0.1469;-0.0421;
2496545975799555;-0.4385;0.1714;-0.0357;
2496545985907159;-0.5044;0.1778;-0.0527;
2496545996014763;-0.5576;0.2032;-0.0847;
2496546006139450;-0.5704;0.2138;-0.1103;
2496546016247002;-0.5704;0.2213;-0.1177;
2496546026354607;-0.6301;0.2170;-0.1103;
2496546036449555;-0.6748;0.1959;-0.1209;
2496546046557211;-0.6535;0.2032;-0.1241;
2496546056664815;-0.6035;0.2202;-0.1326;
2496546066765284;-0.6194;0.2170;-0.1401;
2496546076872888;-0.6098;0.2117;-0.1273;
2496546086980440;-0.5971;0.2032;-0.1252;
2496546097094294;-0.5992;0.1989;-0.1593;
2496546107201898;-0.5065;0.2298;-0.1838;
2496546117309502;-0.3927;0.2639;-0.1614;
2496546127412107;-0.4012;0.2479;-0.1742;
2496546137519711;-0.4108;0.2288;-0.2029;
2496546147627315;-0.3351;0.2735;-0.2242;
2496546157737211;-0.3224;0.2873;-0.2125;
2496546167844815;-0.3810;0.2490;-0.2157;
2496546177952471;-0.3533;0.2469;-0.2328;
2496546188072575;-0.2414;0.3001;-0.2498;
2496546198180180;-0.1754;0.3044;-0.2519;
2496546208287784;-0.1605;0.2873;-0.2359;
2496546218373513;-0.1019;0.2799;-0.2317;
2496546228481117;-0.0049;0.2884;-0.2477;
2496546238588721;0.0750;0.2991;-0.2349;
2496546248723044;0.1091;0.2746;-0.2381;
2496546258830700;0.1281;0.2362;-0.2614;
2496546268938252;0.2250;0.2341;-0.2646;
2496546279045596;0.3113;0.2426;-0.2551;
2496546289153148;0.3358;0.2554;-0.2720;
2496546299260805;0.3582;0.2660;-0.2923;
2496546309373513;0.3454;0.2437;-0.2774;
2496546319481117;0.3784;0.2426;-0.2742;
2496546329588721;0.3955;0.2597;-0.2987;
2496546339702002;0.3592;0.2202;-0.3029;
2496546349809607;0.3987;0.2021;-0.2912;
2496546359917211;0.4391;0.2575;-0.2933;
2496546370000752;0.3752;0.2692;-0.2976;
2496546380108409;0.2943;0.2106;-0.2806;
2496546390216013;0.3699;0.2160;-0.2774;
2496546400318721;0.4040;0.2714;-0.2763;
2496546410426273;0.3017;0.2788;-0.2603;
2496546420533877;0.2538;0.2181;-0.2434;
2496546430647107;0.3497;0.2106;-0.2402;
2496546440754711;0.3592;0.2788;-0.2200;
2496546450862315;0.1920;0.2458;-0.2029;
2496546460981794;0.1165;0.1479;-0.2104;
2496546471089398;0.1888;0.1650;-0.2136;
2496546481197002;0.1462;0.2096;-0.1955;
2496546491311482;0.0302;0.1352;-0.1997;
2496546501419086;0.0643;0.0563;-0.2019;
2496546511526690;0.0856;0.0840;-0.1848;
2496546521619398;-0.0454;0.0989;-0.1784;
2496546531727002;-0.1264;0.0403;-0.1891;
2496546541834607;-0.1296;0.0212;-0.1869;
2496546551942211;-0.1892;0.0776;-0.1699;
2496546562049815;-0.3096;0.1160;-0.1646;
2496546572157419;-0.3351;0.0595;-0.1752;
2496546582246482;-0.3224;0.0457;-0.1624;
2496546592354138;-0.3320;0.1000;-0.1241;
2496546602461690;-0.3937;0.0989;-0.1039;
2496546612583044;-0.3863;0.0521;-0.1124;
2496546622690648;-0.3426;0.0563;-0.1060;
2496546632798252;-0.3788;0.0680;-0.0708;
2496546642910961;-0.4118;0.0574;-0.0581;
2496546653018565;-0.3873;0.0190;-0.0762;
2496546663126169;-0.3810;0.0063;-0.0900;
2496546673229502;-0.3969;0.0190;-0.0613;
2496546683337107;-0.4118;0.0222;-0.0431;
2496546693444763;-0.3980;-0.0182;-0.0644;
2496546703548461;-0.3756;-0.0374;-0.0858;
2496546713656013;-0.3660;-0.0055;-0.0815;
2496546723763617;-0.4129;0.0041;-0.0719;
2496546733871221;-0.4289;-0.0140;-0.0921;
2496546743978825;-0.3778;-0.0310;-0.1188;
2496546754086430;-0.3075;0.0052;-0.1145;
2496546764198877;-0.2947;0.0329;-0.0921;
2496546774306482;-0.3106;0.0212;-0.1113;
2496546784414138;-0.2766;0.0148;-0.1326;
2496546794508044;-0.2734;0.0403;-0.1454;
2496546804615232;-0.2702;0.0766;-0.1454;
2496546814722419;-0.2968;0.0819;-0.1348;
2496546824842211;-0.2904;0.0691;-0.1550;
2496546834949398;-0.2957;0.0648;-0.1667;
2496546845056586;-0.2744;0.0851;-0.1763;
2496546855156221;-0.2893;0.1053;-0.1688;
2496546865263409;-0.3032;0.0744;-0.1901;
2496546875370596;-0.2776;0.0254;-0.2264;
2496546885493825;-0.1679;0.0563;-0.2264;
2496546895601013;-0.1477;0.0766;-0.1955;
2496546905708252;-0.1775;0.0190;-0.1827;
2496546915808409;-0.0326;-0.0150;-0.1795;
2496546925915596;0.1249;0.0265;-0.1465;
2496546936022784;0.1473;0.0372;-0.1071;
2496546946141325;0.1877;-0.0097;-0.0953;
2496546956248513;0.3188;-0.0246;-0.0889;
2496546966355700;0.3848;0.0190;-0.0581;
2496546976460909;0.3358;0.0116;-0.0218;
2496546986568096;0.2911;-0.0566;-0.0240;
2496546996675284;0.3571;-0.0257;-0.0325;
2496547006795909;0.3316;0.0201;-0.0165;
2496547016903096;0.1867;-0.0545;-0.0261;
2496547027010336;0.1675;-0.0459;-0.0527;
2496547037090284;0.1686;0.0158;-0.0623;
2496547047197471;0.0270;-0.0310;-0.0794;
2496547057304659;-0.0241;-0.0332;-0.1230;
2496547067428200;0.0036;0.0286;-0.1390;
2496547077535388;-0.0646;0.0158;-0.1529;
2496547087642627;-0.1360;0.0073;-0.1901;
2496547097743617;-0.1551;0.0190;-0.1987;
2496547107850805;-0.1274;0.0180;-0.2242;
2496547117957992;-0.0838;0.0723;-0.2688;
2496547128076950;-0.1274;0.0659;-0.2763;
2496547138184138;-0.1796;0.0329;-0.3104;
2496547148291325;-0.1913;0.0467;-0.3274;
2496547158385805;-0.2020;0.0414;-0.3104;
2496547168492992;-0.1562;0.0883;-0.3210;
2496547178600180;-0.1413;0.1469;-0.3232;
2496547188730700;-0.1850;0.1107;-0.3146;
2496547198837888;-0.1519;0.1128;-0.3338;
2496547208945075;-0.1413;0.1490;-0.3253;
2496547219024763;-0.2063;0.0968;-0.3264;
2496547229131950;-0.2020;0.0680;-0.3519;
2496547239239138;-0.1274;0.1149;-0.3455;
2496547249337159;0.0004;0.1362;-0.3264;
2496547259444346;0.0899;0.1671;-0.3210;
2496547269551534;-0.0113;0.1682;-0.2880;
2496547279682107;-0.2201;0.1362;-0.2678;
2496547289789294;-0.2893;0.1352;-0.2827;
2496547299896482;-0.3884;0.1703;-0.2699;
2496547310026013;-0.5023;0.1714;-0.2806;
2496547320133200;-0.5555;0.1256;-0.3296;
2496547330240388;-0.6088;0.1192;-0.3498;
2496547340331638;-0.6088;0.1245;-0.3881;
2496547350438825;-0.6045;0.1117;-0.4084;
2496547360546013;-0.6493;0.0904;-0.3839;
2496547370656117;-0.5619;0.0776;-0.3807;
2496547380763305;-0.4800;0.0617;-0.3807;
2496547390870492;-0.4555;0.0382;-0.3615;
2496547400979971;-0.3160;0.0190;-0.3786;
2496547411087159;-0.2116;0.0329;-0.3924;
2496547421194346;-0.1850;0.0286;-0.3711;
2496547431304971;-0.0358;-0.0012;-0.3679;
2496547441412159;0.1186;0.0190;-0.3551;
2496547451519346;0.2591;0.0489;-0.3296;
2496547461622888;0.4775;0.0478;-0.3296;
2496547471730075;0.6117;0.0297;-0.3072;
2496547481837263;0.7607;0.0180;-0.2614;
2496547491952888;0.9961;-0.0065;-0.2498;
2496547502060075;1.1389;-0.0609;-0.2221;
2496547512167263;1.3274;-0.0917;-0.1720;
2496547522269867;1.5094;-0.1088;-0.1443;
2496547532377055;1.5776;-0.1258;-0.1209;
2496547542484242;1.6021;-0.1439;-0.0836;
2496547552612627;1.6735;-0.1141;-0.0549;
2496547562719815;1.6916;-0.0651;-0.0336;
2496547572827055;1.5947;-0.0811;0.0197;
2496547582921742;1.5414;-0.0672;0.0431;
2496547593028930;1.4988;-0.0140;0.0336;
2496547603136117;1.3285;-0.0523;0.0698;
2496547613236950;1.2262;-0.0704;0.0985;
2496547623344138;1.1421;-0.0182;0.0953;
2496547633451325;0.9461;-0.0598;0.1262;
2496547643561013;0.8225;-0.0907;0.1358;
2496547653668200;0.7596;-0.0736;0.1134;
2496547663775388;0.6298;-0.0726;0.1316;
2496547673896742;0.5595;-0.0491;0.1422;
2496547684003930;0.4722;-0.0353;0.1220;
2496547694111117;0.3529;-0.0214;0.1156;
2496547704217940;0.2815;0.0116;0.1145;
2496547714325127;0.2016;0.0414;0.0868;
2496547724432315;0.1686;0.0542;0.0900;
2496547734531690;0.1377;0.0648;0.0964;
2496547744638877;0.0803;0.0617;0.0794;
2496547754746065;0.0142;0.0308;0.0964;
2496547764866221;0.0260;0.0244;0.0911;
2496547774973409;0.0473;0.0382;0.0751;
2496547785080596;0.0505;0.0297;0.1156;
2496547795166742;0.1377;0.0595;0.1337;
2496547805273930;0.2197;0.0947;0.1529;
2496547815381117;0.2293;0.0989;0.2061;
2496547825497888;0.2367;0.1320;0.2210;
2496547835605075;0.2634;0.1788;0.2828;
2496547845712263;0.2740;0.2000;0.3626;
2496547855818721;0.2868;0.1820;0.3499;
2496547865925909;0.2059;0.0606;0.3318;
2496547876033096;0.1398;-0.0545;0.4297;
2496547886126117;0.1027;-0.0459;0.4670;
2496547896233305;-0.0220;-0.0619;0.4542;
2496547906340492;-0.2222;-0.0779;0.4403;
2496547916460909;-0.3831;0.0020;0.4190;
2496547926568096;-0.7153;0.0308;0.4084;
2496547936675284;-1.0295;0.0787;0.3711;
2496547946793357;-1.2787;0.1298;0.2881;
2496547956900544;-1.5365;0.0979;0.2381;
2496547967007732;-1.6462;0.1085;0.2359;
2496547977113513;-1.7206;0.1277;0.1827;
2496547987220700;-1.7931;0.0808;0.1156;
2496547997327888;-1.7217;0.0403;0.0399;
2496548007421273;-1.6185;-0.0001;-0.0485;
2496548017528461;-1.4917;-0.0246;-0.0879;
2496548027635700;-1.2457;-0.0289;-0.1081;
2496548037755075;-1.0551;-0.0640;-0.1379;
2496548047862263;-0.8346;-0.0513;-0.1379;
2496548057969450;-0.5885;0.0063;-0.1305;
2496548068077992;-0.4097;0.0446;-0.1688;
2496548078185180;-0.1636;0.0723;-0.2136;
2496548088292367;0.0515;0.0734;-0.2646;
2496548098389346;0.2293;0.0787;-0.2583;
2496548108496534;0.3997;0.1064;-0.1965;
2496548118603721;0.5126;0.1043;-0.1710;
2496548128722680;0.5606;0.0787;-0.1646;
2496548138829867;0.6533;0.0510;-0.1497;
2496548148937055;0.7246;0.0105;-0.1348;
2496548159028930;0.6863;-0.0257;-0.0794;
2496548169136117;0.6682;-0.0502;-0.0442;
2496548179243305;0.6085;-0.0470;-0.0357;
2496548189368409;0.4509;-0.0246;0.0005;
2496548199475596;0.3134;0.0041;0.0144;
2496548209582784;0.1281;0.0350;0.0154;
2496548219689242;-0.0529;0.0776;0.0399;
2496548229796430;-0.1338;0.0904;0.0325;
2496548239903617;-0.2499;0.1011;0.0282;
2496548250021430;-0.3927;0.1138;0.0399;
2496548260128617;-0.4822;0.0648;0.0368;
2496548270235805;-0.5619;0.0254;0.0463;
2496548280336534;-0.5545;0.0329;0.0325;
2496548290443721;-0.5928;-0.0065;0.0197;
2496548300550909;-0.6162;-0.0108;0.0623;
2496548310668825;-0.5395;0.0169;0.0708;
2496548320776013;-0.5204;0.0158;0.0836;
2496548330883200;-0.5076;0.0553;0.0932;
2496548340983200;-0.4587;0.0542;0.0719;
2496548351090388;-0.4662;0.0595;0.0964;
2496548361197575;-0.4481;0.0808;0.0953;
2496548371306638;-0.4395;0.0467;0.0900;
2496548381413825;-0.4662;0.0563;0.0932;
2496548391521013;-0.4427;0.0446;0.0613;
2496548401626117;-0.4726;0.0116;0.0559;
2496548411733305;-0.5108;0.0361;0.0399;
2496548421840492;-0.4937;0.0308;0.0027;
2496548431964867;-0.5427;0.0148;0.0133;
2496548442072055;-0.5768;0.0318;-0.0037;
2496548452179242;-0.5694;-0.0001;-0.0485;
2496548462283617;-0.6237;-0.0023;-0.0613;
2496548472390805;-0.6876;0.0052;-0.1039;
2496548482497992;-0.7057;-0.0353;-0.1486;
2496548492604034;-0.7323;-0.0065;-0.1635;
2496548502711221;-0.7377;0.0329;-0.1859;
2496548512818409;-0.7515;0.0254;-0.2253;
2496548522927784;-0.8144;0.0467;-0.2423;
2496548533034971;-0.8378;0.0606;-0.2551;
2496548543142159;-0.7675;0.0425;-0.2912;
2496548553254607;-0.7345;0.0403;-0.2880;
2496548563362055;-0.5971;0.0648;-0.2562;
2496548573469502;-0.3533;0.0648;-0.2688;
2496548583571430;-0.2276;0.0435;-0.2603;
2496548593678877;-0.1541;0.0478;-0.2391;
2496548603786325;0.0377;0.0563;-0.2519;
2496548613891013;0.1750;0.0361;-0.2455;
2496548623998461;0.2581;0.0201;-0.2210;
2496548634105909;0.4413;0.0244;-0.2338;
2496548644207055;0.5350;0.0084;-0.2498;
2496548654314502;0.5968;-0.0150;-0.2349;
2496548664421950;0.7351;-0.0225;-0.2242;
2496548674542159;0.7841;-0.0332;-0.2349;
2496548684649607;0.7916;-0.0481;-0.2168;
2496548694757002;0.8321;-0.0395;-0.2168;
2496548704850232;0.8651;-0.0268;-0.2445;
2496548714957680;0.8566;-0.0427;-0.2455;
2496548725065127;0.8853;-0.0257;-0.2274;
2496548735183305;0.9833;0.0009;-0.2509;
2496548745290752;0.9716;-0.0182;-0.2551;
2496548755398200;0.9759;-0.0214;-0.2423;
2496548765511950;1.0526;-0.0001;-0.2646;
2496548775619398;1.0568;-0.0278;-0.2752;
2496548785726846;1.0323;-0.0523;-0.2530;
2496548795820023;1.1026;-0.0342;-0.2509;
2496548805927471;1.1591;-0.0364;-0.2551;
2496548816034919;1.1442;-0.0555;-0.2285;
2496548826150805;1.2241;-0.0513;-0.2083;
2496548836258252;1.2837;-0.0236;-0.2178;
2496548846365648;1.2699;-0.0385;-0.2008;
2496548856467992;1.2592;-0.0577;-0.1720;
2496548866575440;1.3168;-0.0332;-0.1742;
2496548876682888;1.3050;-0.0236;-0.1593;
2496548886803825;1.2805;-0.0672;-0.1166;
2496548896911273;1.3050;-0.0704;-0.0921;
2496548907018721;1.3422;-0.0427;-0.0858;
2496548917111117;1.3008;-0.0523;-0.0410;
2496548927218565;1.3008;-0.0662;-0.0059;
2496548937326013;1.3061;-0.0300;-0.0154;
2496548947444034;1.2678;-0.0076;-0.0091;
2496548957551482;1.2283;-0.0321;0.0453;
2496548967658930;1.2102;-0.0044;0.0644;
2496548977756638;1.1911;0.0499;0.0602;
2496548987864086;1.1133;0.0158;0.0900;
2496548997971482;1.0664;-0.0150;0.1145;
2496549008102367;1.0718;0.0318;0.1103;
2496549018209815;1.0164;0.0095;0.1486;
2496549028317263;0.9706;-0.0513;0.1806;
2496549038400596;1.0110;-0.0033;0.1624;
2496549048508044;1.0196;0.0403;0.1688;
2496549058615492;0.9727;0.0063;0.2189;
2496549068752992;0.9525;0.0169;0.2210;
2496549078860440;0.9439;0.0808;0.1848;
2496549088967888;0.8917;0.0947;0.1880;
2496549099051273;0.8321;0.0553;0.2210;
2496549109158721;0.7841;0.0893;0.2200;
2496549119266169;0.7543;0.1447;0.2040;
2496549129380700;0.7383;0.0989;0.2359;
2496549139488148;0.7033;0.0766;0.2487;
2496549149595596;0.6852;0.1170;0.2264;
2496549159716013;0.7033;0.1000;0.2477;
2496549169823461;0.6927;0.0606;0.2818;
2496549179930909;0.6756;0.0883;0.2679;
2496549190015180;0.6831;0.1000;0.2519;
2496549200122627;0.6895;0.0904;0.2796;
2496549210230075;0.6586;0.1053;0.2807;
2496549220355857;0.6554;0.1298;0.2658;
2496549230463305;0.6437;0.1309;0.2636;
2496549240570752;0.6096;0.1085;0.2711;
2496549250665284;0.5659;0.1128;0.2647;
2496549260772732;0.5350;0.1277;0.2477;
2496549270880180;0.4935;0.1075;0.2711;
2496549280992471;0.4423;0.0968;0.2754;
2496549291099919;0.4359;0.1128;0.2668;
2496549301207367;0.3667;0.1138;0.2807;
2496549311328513;0.2794;0.1064;0.3009;
2496549321435961;0.2048;0.1330;0.2999;
2496549331543409;0.1228;0.1234;0.2956;
2496549341652263;0.0334;0.1170;0.3031;
2496549351759711;-0.0358;0.1096;0.3009;
2496549361867159;-0.1285;0.0968;0.3105;
2496549371966534;-0.2595;0.0979;0.3148;
2496549382073982;-0.3799;0.0947;0.3031;
2496549392181430;-0.4948;0.0883;0.2722;
2496549402289659;-0.6493;0.0957;0.2551;
2496549412397107;-0.7888;0.0862;0.2626;
2496549422504555;-0.8964;0.0893;0.2573;
2496549432619555;-0.9955;0.0830;0.2157;
2496549442727002;-1.1189;0.0691;0.2019;
2496549452834450;-1.2478;0.0606;0.2125;
2496549462939867;-1.3298;0.0617;0.2136;
2496549473047315;-1.3543;0.0617;0.1784;
2496549483154763;-1.3873;0.0712;0.1443;
2496549493273096;-1.4257;0.0766;0.1433;
2496549503380544;-1.4012;0.0723;0.1486;
2496549513487992;-1.3021;0.0723;0.1156;
2496549523585180;-1.2425;0.0755;0.0836;
2496549533692627;-1.2350;0.0638;0.0826;
2496549543800075;-1.2020;0.0446;0.0794;
2496549553918669;-1.1466;0.0244;0.0314;
2496549564026325;-1.0445;0.0286;-0.0059;
2496549574133982;-0.9582;0.0372;0.0005;
2496549584207419;-0.8975;0.0073;0.0144;
2496549594315075;-0.8165;-0.0076;-0.0229;
2496549604422732;-0.6450;-0.0129;-0.0687;
2496549614541065;-0.5470;-0.0246;-0.0879;
2496549624648721;-0.4873;-0.0438;-0.0794;
2496549634756377;-0.3778;-0.0406;-0.0975;
2496549644887211;-0.2638;-0.0257;-0.1326;
2496549654994867;-0.1605;-0.0119;-0.1561;
2496549665102523;-0.1093;-0.0172;-0.1411;
2496549675194919;-0.0071;-0.0087;-0.0858;
2496549685302575;0.0345;-0.0129;-0.0985;
2496549695410232;0.1547;0.0073;-0.1198;
2496549705512211;0.3347;0.0222;-0.0975;
2496549715619867;0.4232;0.0148;-0.0495;
2496549725727523;0.5339;0.0158;-0.0261;
2496549735835544;0.6628;0.0158;-0.0229;
2496549745943200;0.7268;-0.0182;0.0037;
2496549756050857;0.7778;-0.0257;0.0485;
2496549766154867;0.8385;-0.0214;0.0740;
2496549776262523;0.8054;-0.0193;0.0794;
2496549786370180;0.7140;-0.0150;0.0879;
2496549796479346;0.6192;-0.0193;0.1156;
2496549806587002;0.5222;-0.0140;0.1273;
2496549816694659;0.3912;0.0212;0.1092;
2496549826808565;0.2293;0.0222;0.1124;
2496549836916221;0.0909;0.0308;0.1273;
2496549847023877;-0.0049;0.0254;0.1337;
2496549857125648;-0.0507;0.0329;0.1262;
2496549867233305;-0.1413;0.0372;0.1369;
2496549877340961;-0.2190;0.0180;0.1646;
2496549887444086;-0.2393;0.0158;0.1614;
2496549897551742;-0.2531;0.0190;0.1401;
2496549907659398;-0.2851;0.0158;0.1433;
2496549917764086;-0.3170;0.0126;0.1742;
2496549927871742;-0.3320;0.0126;0.1795;
2496549937979450;-0.3362;-0.0001;0.1561;
2496549948065336;-0.3479;-0.0140;0.1433;
2496549958172940;-0.3735;-0.0055;0.1624;
2496549968280596;-0.4055;-0.0097;0.1784;
2496549978411898;-0.4236;-0.0108;0.1720;
2496549988519607;-0.4470;0.0052;0.1465;
2496549998627211;-0.5129;0.0190;0.1454;
2496550008747002;-0.5821;0.0233;0.1561;
2496550018854659;-0.6280;0.0212;0.1443;
2496550028962367;-0.6887;0.0041;0.1305;
2496550039081169;-0.7323;0.0137;0.1177;
2496550049188825;-0.7739;0.0222;0.1262;
2496550059296482;-0.8442;0.0073;0.1348;
2496550069385961;-0.8900;-0.0023;0.1241;
2496550079493617;-0.8857;0.0073;0.1081;
2496550089601273;-0.9241;0.0308;0.0996;
2496550099737419;-0.9816;0.0297;0.0985;
2496550109845075;-0.9912;0.0169;0.0868;
2496550119952732;-0.9933;0.0244;0.0708;
2496550130035648;-0.9774;0.0286;0.0666;
2496550140143305;-0.9635;0.0116;0.0666;
2496550150250961;-0.9582;0.0063;0.0719;
2496550160345752;-0.9049;0.0126;0.0623;
2496550170453409;-0.8367;0.0052;0.0549;
2496550180561065;-0.8122;-0.0001;0.0559;
2496550190679502;-0.7643;-0.0065;0.0613;
2496550200787159;-0.7196;-0.0001;0.0698;
2496550210894815;-0.6908;0.0180;0.0591;
2496550221009502;-0.6525;0.0201;0.0442;
2496550231117159;-0.6269;0.0318;0.0314;
2496550241224815;-0.6045;0.0329;0.0293;
2496550251340127;-0.5790;0.0265;0.0282;
2496550261447784;-0.5481;0.0489;0.0144;
2496550271555440;-0.5257;0.0563;0.0059;
2496550281652419;-0.5321;0.0446;-0.0016;
2496550291760075;-0.5118;0.0393;-0.0059;
2496550301867732;-0.4905;0.0254;-0.0154;
2496550311986169;-0.4608;0.0372;-0.0229;
2496550322093825;-0.4353;0.0393;-0.0250;
2496550332201482;-0.4427;0.0180;-0.0378;
2496550342305857;-0.4118;0.0212;-0.0399;
2496550352413513;-0.3916;0.0425;-0.0346;
2496550362521169;-0.3863;0.0595;-0.0293;
2496550372630388;-0.3831;0.0595;-0.0325;
2496550382738044;-0.3852;0.0585;-0.0346;
2496550392845700;-0.3746;0.0606;-0.0346;
2496550402941586;-0.3596;0.0712;-0.0325;
2496550413049242;-0.3437;0.0723;-0.0368;
2496550423156898;-0.3394;0.0542;-0.0304;
2496550433274086;-0.3415;0.0510;-0.0282;
2496550443381794;-0.3373;0.0617;-0.0272;
2496550453489398;-0.3437;0.0414;-0.0261;
2496550463590648;-0.3213;0.0212;-0.0176;
2496550473698305;-0.3011;0.0372;-0.0069;
2496550483805961;-0.3245;0.0393;0.0005;
2496550493910440;-0.3341;0.0286;-0.0027;
2496550504018096;-0.3213;0.0169;-0.0016;
2496550514125752;-0.3106;0.0308;0.0176;
2496550524242107;-0.3277;0.0393;0.0346;
2496550534349763;-0.3511;0.0382;0.0463;
2496550544457419;-0.3735;0.0361;0.0506;
2496550554566482;-0.4129;0.0169;0.0389;
2496550564674086;-0.4225;0.0105;0.0442;
2496550574781638;-0.4363;0.0148;0.0570;
2496550584877002;-0.4790;0.0190;0.0644;
2496550594984659;-0.5331;0.0233;0.0634;
2496550605092159;-0.5875;-0.0055;0.0559;
2496550615190805;-0.5981;0.0073;0.0549;
2496550625298357;-0.6216;0.0158;0.0666;
2496550635405961;-0.6802;-0.0033;0.0772;
2496550645530805;-0.7313;0.0265;0.0687;
2496550655638409;-0.7963;0.0158;0.0549;
2496550665745909;-0.8378;-0.0001;0.0602;
2496550675844555;-0.8335;0.0137;0.0730;
2496550685952107;-0.8559;0.0095;0.0698;
2496550696059659;-0.8730;0.0265;0.0623;
2496550706167523;-0.8921;0.0478;0.0474;
2496550716275127;-0.8847;0.0276;0.0368;
2496550726382680;-0.8527;0.0329;0.0346;
2496550736493565;-0.8538;0.0467;0.0240;
2496550746601169;-0.8293;0.0457;0.0112;
2496550756708721;-0.7654;0.0755;-0.0123;
2496550766835180;-0.7419;0.0979;-0.0282;
2496550776942732;-0.6876;0.0755;-0.0421;
2496550787050336;-0.5896;0.0595;-0.0559;
2496550797127680;-0.4980;0.0744;-0.0538;
2496550807235284;-0.4310;0.0851;-0.0538;
2496550817342784;-0.3767;0.0893;-0.0687;
2496550827453877;-0.3309;0.0680;-0.0889;
2496550837561482;-0.3170;0.0297;-0.1060;
2496550847669034;-0.2755;0.0510;-0.1145;
2496550857784398;-0.2340;0.0638;-0.1284;
2496550867892002;-0.2009;0.0723;-0.1348;
2496550877999607;-0.1413;0.0904;-0.1369;
2496550888119138;-0.0667;0.0542;-0.1475;
2496550898226742;0.0451;0.0478;-0.1475;
2496550908334294;0.1059;0.0617;-0.1284;
2496550918421638;0.1387;0.0723;-0.0932;
2496550928529242;0.1483;0.1075;-0.0794;
2496550938636794;0.1356;0.0947;-0.0900;
2496550948759034;0.1696;0.0776;-0.0847;
2496550958866586;0.1569;0.1043;-0.0655;
2496550968974190;0.1154;0.1075;-0.0634;
2496550979088200;0.0909;0.1064;-0.0921;
2496550989195805;0.0419;0.1064;-0.1316;
2496550999303357;0.0121;0.0947;-0.1635;
2496551009394190;0.0164;0.0851;-0.2051;
2496551019501742;0.0164;0.1075;-0.2530;
2496551029609346;0.0196;0.1181;-0.2816;
2496551039720961;0.0494;0.1138;-0.2827;
2496551049828617;0.0984;0.1117;-0.2806;
2496551059936117;0.1750;0.0925;-0.2912;
2496551070037055;0.3113;0.0659;-0.2933;
2496551080144607;0.4743;0.0595;-0.2806;
2496551090252159;0.6053;0.0627;-0.2551;
2496551100369294;0.6991;0.0457;-0.2306;
2496551110476898;0.8268;0.0308;-0.2189;
2496551120584450;0.9514;0.0276;-0.2061;
2496551130693565;1.0387;0.0095;-0.1901;
2496551140801221;1.1271;-0.0182;-0.1720;
2496551150908721;1.2007;-0.0204;-0.1337;
2496551161020232;1.2081;0.0020;-0.0953;
2496551171127836;1.1485;-0.0076;-0.0751;
2496551181235388;1.1250;-0.0172;-0.0762;
2496551191349034;1.1133;-0.0065;-0.0719;
2496551201456586;1.0430;0.0063;-0.0506;
2496551211564138;0.9290;0.0116;-0.0218;
2496551221668669;0.7767;0.0297;0.0037;
2496551231776273;0.6138;0.0499;-0.0016;
2496551241883825;0.4051;0.0340;-0.0250;
2496551251992732;0.2506;0.0009;-0.0495;
2496551262100336;0.1590;-0.0023;-0.0453;
2496551272207888;0.0366;0.0105;-0.0154;
2496551282309919;-0.0720;0.0286;0.0048;
2496551292417523;-0.1072;0.0393;-0.0080;
2496551302525075;-0.1636;0.0372;-0.0304;
2496551312629607;-0.1999;0.0361;-0.0421;
2496551322737211;-0.2318;0.0414;-0.0208;
2496551332844763;-0.2595;0.0382;0.0197;
2496551342960023;-0.2574;0.0329;0.0389;
2496551353067627;-0.2190;0.0254;0.0421;
2496551363175180;-0.1754;-0.0150;0.0517;
2496551373282211;-0.1274;-0.0236;0.0783;
2496551383389815;-0.1019;-0.0023;0.1369;
2496551393497367;-0.0987;-0.0001;0.1816;
2496551403597419;-0.0891;-0.0044;0.2029;
2496551413705023;-0.1125;-0.0001;0.1891;
2496551423812575;-0.1349;0.0212;0.1752;
2496551433929398;-0.1583;0.0467;0.1859;
2496551444037055;-0.1722;0.0542;0.2061;
2496551454144555;-0.2180;0.0425;0.2029;
2496551464247419;-0.2382;0.0201;0.1763;
2496551474355023;-0.2286;0.0137;0.1582;
2496551484462575;-0.2105;0.0105;0.1518;
2496551494575388;-0.1807;-0.0001;0.1539;
2496551504682992;-0.1434;-0.0310;0.1475;
2496551514790544;-0.1115;-0.0545;0.1369;
2496551524930648;-0.1072;-0.0459;0.1134;
2496551535038252;-0.0816;-0.0342;0.1028;
2496551545145805;-0.0774;-0.0257;0.1039;
2496551555212107;-0.0923;-0.0364;0.0996;
2496551565319659;-0.1029;-0.0406;0.0783;
2496551575427211;-0.0976;-0.0076;0.0538;
2496551585533825;-0.1189;0.0158;0.0474;
2496551595641377;-0.1274;-0.0161;0.0442;
2496551605748930;-0.1253;-0.0491;0.0154;
2496551615859034;-0.1370;-0.0278;-0.0197;
2496551625966586;-0.1828;-0.0268;-0.0399;
2496551636074138;-0.2382;-0.0481;-0.0336;
2496551646167002;-0.2297;-0.0395;-0.0485;
2496551656274555;-0.1615;-0.0150;-0.0847;
2496551666382055;-0.2116;0.0201;-0.1124;
2496551676512263;-0.2585;0.0041;-0.1401;
2496551686619815;-0.2318;-0.0353;-0.1603;
2496551696727367;-0.1828;0.0105;-0.1784;
2496551706823096;-0.1338;0.0510;-0.1593;
2496551716930648;-0.1445;-0.0044;-0.1624;
2496551727038200;-0.1349;-0.0204;-0.1955;
2496551737149867;-0.1402;-0.0001;-0.2072;
2496551747257419;-0.1615;-0.0427;-0.2189;
2496551757364919;-0.1594;-0.0119;-0.2413;
2496551767477002;-0.1732;0.0531;-0.2487;
2496551777584555;-0.2041;0.0542;-0.2699;
2496551787692107;-0.2947;0.0734;-0.3093;
2496551797804398;-0.4395;0.0883;-0.3455;
2496551807911950;-0.5875;0.1277;-0.4052;
2496551818019502;-0.7387;0.2075;-0.4414;
2496551828127263;-0.8879;0.1959;-0.5096;
2496551838234815;-0.9976;0.2224;-0.5724;
2496551848342367;-0.9475;0.2767;-0.6044;
2496551858432055;-0.8943;0.2756;-0.6012;
2496551868539607;-0.8698;0.2501;-0.5565;
2496551878647159;-0.7100;0.1660;-0.5170;
2496551888764450;-0.4246;0.1703;-0.4819;
2496551898871950;-0.1477;0.2032;-0.4915;
2496551908979555;-0.0284;0.1458;-0.4936;
2496551919082367;0.2069;0.1266;-0.4766;
2496551929189919;0.3710;0.1224;-0.4286;
2496551939297471;0.4913;0.1426;-0.3647;
2496551949400023;0.5925;0.1117;-0.3264;
2496551959507575;0.5829;0.0830;-0.2635;
2496551969615127;0.6288;0.0830;-0.2455;
2496551979730180;0.5265;0.0659;-0.2221;
2496551989837732;0.4690;0.0872;-0.2509;
2496551999945284;0.3582;0.0734;-0.2816;
2496552010059034;0.2644;0.0553;-0.2656;
2496552020166586;0.2314;0.0521;-0.2646;
2496552030274138;0.1345;0.0382;-0.2253;
2496552040374346;0.1069;0.0297;-0.2232;
2496552050481898;0.0664;0.0095;-0.2359;
2496552060589450;0.0569;0.0286;-0.2008;
2496552070702471;0.1080;0.0414;-0.2008;
2496552080810023;0.1059;0.0244;-0.1656;
2496552090917575;0.1803;0.0169;-0.1326;
2496552101024867;0.2154;-0.0140;-0.1273;
2496552111132419;0.2154;-0.0406;-0.0762;
2496552121239971;0.2612;-0.0332;-0.0655;
2496552131348200;0.2453;-0.0545;-0.0655;
2496552141455752;0.2549;-0.0513;-0.0304;
2496552151563305;0.3124;-0.0321;-0.0336;
2496552161669138;0.2847;-0.0342;-0.0272;
2496552171776690;0.2612;-0.0119;-0.0123;
2496552181884190;0.2389;-0.0097;-0.0559;
2496552191986221;0.1643;-0.0300;-0.0644;
2496552202093773;0.1707;-0.0129;-0.0676;
2496552212201325;0.1909;-0.0087;-0.1017;
2496552222316638;0.1803;-0.0257;-0.0911;
2496552232424190;0.2549;-0.0236;-0.1007;
2496552242531742;0.3198;-0.0385;-0.1379;
2496552252641638;0.3465;-0.0609;-0.1230;
2496552262749190;0.4551;-0.0513;-0.1039;
2496552272856742;0.5712;-0.0513;-0.1241;
2496552282961273;0.6543;-0.0587;-0.1060;
2496552293068825;0.8108;-0.0683;-0.0826;
2496552303176377;0.9588;-0.0694;-0.0836;
2496552313288930;1.0728;-0.0726;-0.0570;
2496552323396482;1.2092;-0.0779;-0.0293;
2496552333504034;1.2987;-0.0854;-0.0389;
2496552343609971;1.3603;-0.0832;-0.0293;
2496552353717471;1.3987;-0.0758;-0.0037;
2496552363825075;1.4189;-0.0459;-0.0069;
2496552373933513;1.3933;-0.0225;0.0091;
2496552384041065;1.3093;-0.0353;0.0474;
2496552394148617;1.2880;-0.0140;0.0389;
2496552404255700;1.2113;-0.0023;0.0368;
2496552414363252;1.0664;-0.0545;0.0591;
2496552424470805;0.9983;-0.0513;0.0463;
2496552434573357;0.8864;-0.0598;0.0485;
2496552444680909;0.7129;-0.0981;0.0772;
2496552454788461;0.6330;-0.0640;0.0644;
2496552464907940;0.5020;-0.0523;0.0527;
2496552475015492;0.3486;-0.0523;0.0730;
2496552485123044;0.3305;-0.0097;0.0762;
2496552495224242;0.2826;0.0031;0.0826;
2496552505331794;0.2101;0.0031;0.1241;
2496552515439294;0.1877;0.0297;0.1475;
2496552525546534;0.1398;0.0361;0.1699;
2496552535654086;0.1122;0.0489;0.2072;
2496552545761638;0.1302;0.0670;0.2232;
2496552555863773;0.0899;0.0627;0.2551;
2496552565971377;0.0877;0.0776;0.2860;
2496552576078982;0.0814;0.0957;0.2849;
2496552586190388;0.0270;0.0723;0.3158;
2496552596297992;0.0185;0.0787;0.3222;
2496552606405544;-0.0049;0.0723;0.3041;
2496552616515909;-0.0688;0.0499;0.3233;
2496552626623513;-0.0816;0.0851;0.2679;
2496552636731065;-0.1221;0.0638;0.2413;
2496552646852888;-0.1381;0.0425;0.2285;
2496552656960440;-0.1061;0.0766;0.1593;
2496552667068044;-0.1157;0.0680;0.1422;
2496552677153096;-0.1370;0.0553;0.1049;
2496552687260700;-0.0933;0.0606;0.0666;
2496552697368200;-0.0518;0.0574;0.0666;
2496552707483148;-0.0230;0.0425;0.0581;
2496552717590752;0.0675;0.0382;0.0772;
2496552727698305;0.0771;0.0041;0.0815;
2496552737804659;0.1462;-0.0236;0.0953;
2496552747912263;0.2357;-0.0033;0.1028;
2496552758019867;0.2549;-0.0055;0.1049;
2496552768123930;0.2889;0.0020;0.1188;
2496552778231482;0.2996;0.0190;0.0964;
2496552788339086;0.2826;0.0020;0.1113;
2496552798464763;0.2655;0.0009;0.0623;
2496552808572315;0.2826;0.0084;0.0613;
2496552818679919;0.2485;-0.0321;0.0336;
2496552828778721;0.2687;-0.0491;0.0261;
2496552838886325;0.2804;-0.0555;0.0240;
2496552848993825;0.2634;-0.0640;0.0069;
2496552859094242;0.2549;-0.0502;0.0154;
2496552869201846;0.2165;-0.0406;-0.0080;
2496552879309398;0.2357;-0.0289;0.0250;
2496552889421846;0.2836;0.0265;0.0069;
2496552899529450;0.3177;0.0116;-0.0059;
2496552909637002;0.3933;-0.0449;-0.0027;
2496552919748565;0.5563;-0.0119;-0.0080;
2496552929856221;0.6778;-0.0087;0.0421;
2496552939963773;0.6288;-0.0992;0.0879;
2496552950062055;0.7182;-0.1141;0.1422;
2496552960169607;0.7809;-0.1056;0.1497;
2496552970277211;0.6937;-0.1194;0.1880;
2496552980390388;0.6682;-0.0949;0.2264;
2496552990497992;0.5648;-0.0449;0.2285;
2496553000605544;0.4509;0.0116;0.2519;
2496553010719398;0.2794;0.0627;0.2242;
2496553020827002;0.1664;0.0489;0.2498;
2496553030934555;0.0228;0.0563;0.2413;
2496553041046586;-0.1413;0.0435;0.2391;
2496553051154242;-0.3085;-0.0150;0.2498;
2496553061261742;-0.4566;-0.0289;0.2093;
2496553071355805;-0.5108;-0.0289;0.2040;
2496553081463357;-0.6535;-0.0427;0.1923;
2496553091570909;-0.7153;-0.0161;0.2061;
2496553101687159;-0.7494;0.0063;0.1774;
2496553111794763;-0.8027;0.0105;0.1582;
2496553121902263;-0.7877;0.0052;0.1646;
2496553132011638;-0.8303;0.0095;0.1539;
2496553142119294;-0.8005;0.0222;0.1795;
2496553152226846;-0.8133;0.0340;0.1582;
2496553162332523;-0.8559;0.0318;0.1720;
2496553172440127;-0.8495;0.0180;0.1763;
2496553182547680;-0.8772;0.0254;0.1465;
2496553192666013;-0.8804;0.0041;0.1529;
2496553202773513;-0.9220;-0.0246;0.1390;
2496553212881117;-0.9241;-0.0012;0.1550;
2496553222988721;-0.8825;0.0063;0.1571;
2496553233087732;-0.8410;0.0276;0.1369;
2496553243195336;-0.7441;0.0403;0.1465;
2496553253302888;-0.7057;0.0510;0.1252;
2496553263412523;-0.6663;0.0531;0.1316;
2496553273520127;-0.6429;0.0308;0.1124;
2496553283627732;-0.6130;0.0329;0.0996;
2496553293743252;-0.5001;0.0276;0.0975;
2496553303850857;-0.4012;0.0297;0.0676;
2496553313958409;-0.2680;0.0169;0.0751;
2496553324056169;-0.1605;0.0084;0.0506;
2496553334163825;-0.1264;0.0318;0.0453;
2496553344271325;-0.0614;0.0340;0.0442;
2496553354375805;-0.0465;0.0457;0.0037;
2496553364483357;-0.0113;0.0521;0.0037;
2496553374590909;0.0419;0.0457;-0.0208;
2496553384700023;0.0611;0.0670;-0.0240;
2496553394807575;0.1281;0.0403;-0.0389;
2496553404915127;0.1398;0.0169;-0.0676;
2496553415029086;0.1483;0.0169;-0.0602;
2496553425136690;0.1899;0.0031;-0.0858;
2496553435244294;0.1909;0.0126;-0.0868;
2496553445323721;0.2293;-0.0236;-0.1039;
2496553455431273;0.2367;-0.0300;-0.1401;
2496553465538877;0.2634;-0.0321;-0.1188;
2496553475676690;0.3433;-0.0566;-0.1348;
2496553485784346;0.4104;-0.0300;-0.1348;
2496553495891898;0.5137;-0.0268;-0.1134;
2496553505993252;0.5712;-0.0289;-0.1198;
2496553516100909;0.6053;-0.0182;-0.0740;
2496553526208461;0.7257;-0.0097;-0.0666;
2496553536312055;0.7905;0.0521;-0.0357;
2496553546419659;0.8129;0.0276;-0.0186;
2496553556527211;0.8140;-0.0268;-0.0687;
2496553566657836;0.7246;-0.0300;-0.0623;
2496553576765700;0.7076;-0.0811;-0.0559;
2496553586873617;0.6181;-0.1067;-0.0634;
2496553596958044;0.5020;-0.0875;-0.0506;
2496553607065909;0.4754;-0.0598;-0.0708;
2496553617173773;0.3752;-0.0257;-0.0676;
2496553627276169;0.3646;0.0052;-0.0336;
2496553637384034;0.3720;0.0329;-0.0378;
2496553647491950;0.3177;0.0286;0.0186;
2496553657627107;0.3316;0.0212;0.0527;
2496553667735023;0.2421;0.0382;0.0783;
2496553677842888;0.2069;0.0318;0.1017;
2496553687914190;0.1824;0.0105;0.0953;
2496553698022055;0.1069;0.0052;0.1422;
2496553708129919;0.1154;-0.0001;0.1316;
2496553718257627;0.1133;-0.0236;0.1358;
2496553728365544;0.1027;-0.0268;0.1443;
2496553738473409;0.0558;-0.0012;0.1145;
2496553748581065;-0.0017;-0.0119;0.1401;
2496553758688930;0.0899;-0.0502;0.1188;
2496553768796846;0.0334;-0.0214;0.1156;
2496553778898773;-0.0411;0.0126;0.1571;
2496553789006638;0.0036;0.0073;0.1475;
2496553799114555;0.0238;-0.0012;0.1838;
2496553809225752;0.0782;-0.0332;0.1944;
2496553819333617;0.0313;-0.0268;0.1720;
2496553829441482;-0.0923;0.0084;0.1997;
2496553839544294;-0.1892;0.0510;0.1880;
2496553849652159;-0.2861;0.0702;0.1944;
2496553859760023;-0.2244;0.0180;0.2040;
2496553869869398;-0.1860;-0.0076;0.1774;
2496553879977263;-0.2670;0.0009;0.2029;
2496553890085127;-0.2286;-0.0353;0.1806;
2496553900189398;-0.2872;-0.0193;0.1603;
2496553910297263;-0.3469;-0.0001;0.1933;
2496553920405127;-0.3426;-0.0033;0.1784;
2496553930514815;-0.4278;0.0212;0.2168;
2496553940622680;-0.4012;0.0222;0.2136;
2496553950730596;-0.4555;0.0340;0.1806;
2496553960843565;-0.5342;0.0446;0.2146;
2496553970951430;-0.4959;0.0297;0.2051;
2496553981059294;-0.4959;0.0148;0.2051;
2496553991168148;-0.4715;-0.0001;0.2157;
2496554001276013;-0.5331;0.0446;0.1827;
2496554011383877;-0.6343;0.0521;0.1763;
2496554021490336;-0.5853;0.0180;0.1497;
2496554031598200;-0.5939;0.0297;0.1198;
2496554041706117;-0.5779;0.0169;0.1316;
2496554051809919;-0.5214;0.0105;0.0953;
2496554061917836;-0.5662;0.0340;0.0826;
2496554072025648;-0.4790;0.0073;0.0708;
2496554082132419;-0.4023;0.0126;0.0389;
2496554092240284;-0.3660;0.0254;0.0538;
2496554102348200;-0.2265;-0.0001;0.0453;
2496554112457940;-0.2254;0.0425;0.0389;
2496554122565805;-0.1786;0.0286;0.0389;
2496554132673721;-0.1285;0.0212;0.0186;
2496554142782419;-0.1232;0.0574;0.0165;
2496554152890284;-0.0699;0.0126;0.0368;
2496554162998200;-0.0923;0.0393;0.0069;
2496554173110336;-0.1413;0.0531;0.0250;
2496554183218200;-0.0965;0.0031;0.0154;
2496554193326117;-0.1818;0.0361;-0.0101;
2496554203432419;-0.2329;0.0190;0.0048;
2496554213540284;-0.2340;0.0137;-0.0250;
2496554223648200;-0.3852;0.0585;-0.0304;
2496554233747002;-0.3788;0.0126;-0.0123;
2496554243854867;-0.2979;-0.0140;-0.0293;
2496554253962784;-0.3469;0.0031;0.0123;
2496554264065127;-0.2936;-0.0087;0.0410;
2496554274172992;-0.3032;0.0308;0.0304;
2496554284280857;-0.3437;0.0595;0.0644;
2496554294396794;-0.2190;0.0308;0.0772;
2496554304504659;-0.2148;0.0467;0.0772;
2496554314612523;-0.1913;0.0254;0.1028;
2496554324723461;-0.1775;0.0201;0.0953;
2496554334831325;-0.2041;0.0372;0.0911;
2496554344939190;-0.1796;-0.0076;0.1273;
2496554355043669;-0.2329;0.0148;0.1124;
2496554365151586;-0.3799;0.0521;0.0932;
2496554375259398;-0.4182;0.0297;0.0836;
2496554385362107;-0.4118;0.0318;0.0368;
2496554395469971;-0.4800;0.0190;0.0304;
2496554405577836;-0.4257;-0.0108;0.0059;
2496554415679711;-0.4097;0.0063;-0.0346;
2496554425787575;-0.4395;0.0414;-0.0272;
2496554435895440;-0.3383;0.0244;-0.0368;
2496554446010127;-0.2808;0.0372;-0.0506;
2496554456117992;-0.2393;0.0467;-0.0421;
2496554466225909;-0.1487;0.0286;-0.0591;
2496554476334398;-0.1636;0.0372;-0.0676;
2496554486442263;-0.1509;0.0169;-0.0581;
2496554496550127;-0.1445;0.0158;-0.0666;
2496554506657055;-0.1807;0.0425;-0.0953;
2496554516764919;-0.1562;0.0084;-0.0836;
2496554526872784;-0.1754;-0.0033;-0.1060;
2496554536978044;-0.2254;0.0201;-0.1401;
2496554547085909;-0.2861;0.0148;-0.1326;
2496554557193773;-0.2968;0.0254;-0.1667;
2496554567329398;-0.4012;0.0499;-0.2061;
2496554577437211;-0.5214;0.0670;-0.2051;
2496554587545023;-0.5310;0.0712;-0.2242;
2496554597679815;-0.5193;0.0648;-0.2573;
2496554607787627;-0.5140;0.0435;-0.2646;
2496554617895440;-0.4417;0.0329;-0.2763;
2496554627947940;-0.3831;0.0414;-0.2923;
2496554638055752;-0.3852;0.0670;-0.2699;
2496554648163565;-0.2915;0.0691;-0.2710;
2496554658312211;-0.1818;0.0862;-0.2848;
2496554668420023;-0.1519;0.0957;-0.2583;
2496554678527836;-0.0912;0.0574;-0.2402;
2496554688598565;0.0419;0.0382;-0.2720;
2496554698706377;0.0654;0.0467;-0.2752;
2496554708814190;0.1112;0.0340;-0.2264;
2496554718918773;0.2037;0.0350;-0.2019;
2496554729026586;0.1952;0.0446;-0.1891;
2496554739134398;0.2048;0.0403;-0.1529;
2496554749259190;0.2836;0.0425;-0.1198;
2496554759367002;0.3497;0.0212;-0.0996;
2496554769474815;0.3145;0.0308;-0.0549;
2496554779565127;0.3284;0.0425;-0.0304;
2496554789672940;0.4125;0.0169;-0.0495;
2496554799780752;0.3358;0.0340;-0.0559;
2496554809895752;0.2570;0.0244;-0.0538;
2496554820003565;0.2751;-0.0087;-0.0964;
2496554830111377;0.1101;0.0286;-0.1518;
2496554840213461;-0.0656;0.0425;-0.1816;
2496554850321273;-0.0316;-0.0225;-0.2264;
2496554860429086;-0.0816;-0.0023;-0.2742;
2496554870537732;-0.1850;0.0372;-0.2710;
2496554880645544;-0.1125;-0.0204;-0.2816;
2496554890753357;-0.0742;-0.0076;-0.3253;
2496554900860648;-0.2457;0.0851;-0.3498;
2496554910968461;-0.2574;0.0617;-0.3455;
2496554921076273;-0.0156;-0.0023;-0.3647;
2496554931182732;0.0643;0.0169;-0.3935;
2496554941290544;0.0856;0.0222;-0.3871;
2496554951398357;0.2517;-0.0023;-0.3935;
2496554961507002;0.3475;0.0297;-0.4222;
2496554971614815;0.2815;0.0585;-0.4212;
2496554981722627;0.3401;0.0233;-0.3871;
2496554991837836;0.6980;-0.0342;-0.3754;
2496555001945648;1.1346;-0.0566;-0.3743;
2496555012053461;1.4210;-0.0704;-0.3264;
2496555022152732;1.5670;-0.0662;-0.2624;
2496555032260544;1.6064;-0.0129;-0.2530;
2496555042368357;1.4508;0.0617;-0.2381;
2496555052481794;1.2475;0.0606;-0.1774;
2496555062589607;1.2443;0.0212;-0.1507;
2496555072697419;1.2688;0.0105;-0.1561;
2496555082806169;1.2038;-0.0385;-0.1124;
2496555092913982;1.1612;-0.0758;-0.0623;
2496555103021794;1.1378;-0.0747;-0.0581;
2496555113129711;0.9493;-0.0672;-0.0506;
2496555123237523;0.6128;-0.0310;-0.0229;
2496555133345336;0.5393;-0.0353;-0.0091;
2496555143462732;0.6043;-0.0704;-0.0027;
2496555153570544;0.5957;-0.0885;0.0346;
2496555163678357;0.5904;-0.0843;0.0836;
2496555173784502;0.6213;-0.0534;0.0868;
2496555183892315;0.5989;-0.0108;0.0858;
2496555194000127;0.5254;0.0052;0.1337;
2496555204097732;0.5286;0.0254;0.2051;
2496555214205544;0.6703;0.0329;0.2487;
2496555224313357;0.7309;0.0414;0.2743;
2496555234425336;0.7660;0.0670;0.3190;
2496555244533148;0.8449;0.0744;0.3530;
2496555254640961;0.7948;0.0893;0.3478;
2496555264745388;0.5968;0.0989;0.3604;
2496555274853200;0.4391;0.0957;0.3881;
2496555284961013;0.3039;0.1043;0.3647;
2496555295066273;0.1228;0.1064;0.3286;
2496555305174086;-0.0209;0.0872;0.3190;
2496555315281898;-0.1860;0.0691;0.2881;
2496555325380961;-0.3991;0.0585;0.2402;
2496555335488773;-0.6610;0.0531;0.2178;
2496555345596586;-0.8836;0.0467;0.1955;
2496555355712888;-0.9997;0.0382;0.1390;
2496555365820700;-1.1466;0.0478;0.0911;
2496555375928513;-1.2659;0.0446;0.0847;
2496555386034971;-1.2627;0.0276;0.0495;
2496555396142784;-1.2084;0.0222;-0.0123;
2496555406250596;-1.2297;0.0329;-0.0197;
2496555416356065;-1.2094;0.0414;-0.0133;
2496555426463877;-1.0945;0.0318;-0.0538;
2496555436571690;-1.0274;0.0276;-0.0847;
2496555446666794;-1.0019;0.0489;-0.0708;
2496555456774607;-0.9273;0.0393;-0.0666;
2496555466882419;-0.7792;0.0286;-0.0847;
2496555477005752;-0.7270;0.0585;-0.0794;
2496555487113565;-0.6972;0.0425;-0.0517;
2496555497221377;-0.5246;0.0063;-0.0527;
2496555507328357;-0.4055;0.0276;-0.0613;
2496555517436169;-0.4044;0.0574;-0.0336;
2496555527543982;-0.3320;0.0414;-0.0176;
2496555537703773;-0.1764;0.0158;-0.0282;
2496555547811586;-0.0763;0.0276;-0.0176;
2496555557919398;-0.0326;0.0489;0.0048;
2496555567951117;-0.0049;0.0233;-0.0091;
2496555578058513;0.0973;0.0084;-0.0453;
2496555588165909;0.1356;0.0340;-0.0495;
2496555598333148;0.0984;0.0308;-0.0357;
2496555608440544;0.1260;0.0126;-0.0687;
2496555618547940;0.1558;0.0169;-0.1103;
2496555628609502;0.1334;0.0222;-0.1113;
2496555638716898;0.1569;0.0073;-0.1124;
2496555648824294;0.2346;-0.0161;-0.1422;
2496555658948617;0.2687;-0.0012;-0.1571;
2496555669056013;0.2666;0.0126;-0.1379;
2496555679163409;0.3284;-0.0001;-0.1284;
2496555689258617;0.3997;-0.0076;-0.1550;
2496555699366013;0.4391;-0.0033;-0.1646;
2496555709473409;0.4668;0.0073;-0.1379;
2496555719593513;0.5094;0.0031;-0.1326;
2496555729700909;0.5414;0.0020;-0.1550;
2496555739808305;0.5467;0.0137;-0.1475;
2496555749950075;0.5925;0.0158;-0.1166;
2496555760057471;0.6458;0.0031;-0.1039;
2496555770164867;0.6543;-0.0012;-0.1049;
2496555780238200;0.6639;-0.0055;-0.0762;
2496555790345596;0.7001;0.0063;-0.0474;
2496555800452992;0.6991;0.0095;-0.0474;
2496555810567992;0.6554;0.0116;-0.0357;
2496555820675388;0.6096;0.0148;-0.0027;
2496555830782784;0.5861;0.0084;-0.0005;
2496555840885492;0.5339;0.0169;-0.0059;
2496555850992888;0.4221;0.0254;0.0144;
2496555861100284;0.3486;0.0137;0.0314;
2496555871208773;0.2815;0.0137;0.0154;
2496555881316169;0.1803;0.0233;0.0208;
2496555891423565;0.1144;0.0254;0.0591;
2496555901536273;0.0973;0.0158;0.0644;
2496555911643669;0.0664;0.0244;0.0538;
2496555921751065;0.0249;0.0276;0.0815;
2496555931855805;0.0068;0.0222;0.1103;
2496555941963200;-0.0124;0.0244;0.0932;
2496555952070596;-0.0497;0.0190;0.0975;
2496555962186638;-0.0486;0.0105;0.1241;
2496555972294034;-0.0443;-0.0033;0.1241;
2496555982401430;-0.0646;0.0126;0.1134;
2496555992501117;-0.0699;0.0020;0.1326;
2496556002608513;-0.0688;-0.0076;0.1390;
2496556012715909;-0.0869;0.0020;0.1081;
2496556022827263;-0.1115;0.0063;0.0964;
2496556032934659;-0.1157;0.0095;0.1039;
2496556043042055;-0.1253;0.0169;0.0772;
2496556053144346;-0.1445;0.0286;0.0453;
2496556063251742;-0.1306;0.0212;0.0527;
2496556073359138;-0.1285;0.0169;0.0421;
2496556083475388;-0.1423;0.0095;0.0048;
2496556093582784;-0.1402;-0.0076;0.0005;
2496556103690180;-0.1296;-0.0108;-0.0101;
2496556113796742;-0.1285;-0.0033;-0.0485;
2496556123904138;-0.1083;-0.0055;-0.0410;
2496556134011534;-0.1061;-0.0161;-0.0208;
2496556144130909;-0.1115;-0.0044;-0.0655;
2496556154238305;-0.1072;0.0116;-0.0858;
2496556164345700;-0.1125;-0.0055;-0.0644;
2496556174433461;-0.1253;0.0009;-0.0826;
2496556184540857;-0.1264;0.0095;-0.1145;
2496556194648252;-0.1232;-0.0172;-0.0911;
2496556204763513;-0.1381;-0.0193;-0.0868;
2496556214870909;-0.1274;-0.0214;-0.1134;
2496556224978305;-0.1178;-0.0364;-0.0985;
2496556235094242;-0.1136;-0.0395;-0.0847;
2496556245201638;-0.0933;-0.0257;-0.1017;
2496556255309034;-0.0912;-0.0129;-0.0794;
2496556265410284;-0.1146;-0.0140;-0.0570;
2496556275517680;-0.0912;0.0020;-0.0868;
2496556285625075;-0.0774;0.0286;-0.0889;
2496556295736273;-0.0699;0.0233;-0.0613;
2496556305843669;-0.0145;0.0031;-0.0666;
2496556315951065;0.0292;0.0052;-0.0538;
2496556326083200;0.0238;0.0148;-0.0272;
2496556336190596;0.0377;0.0073;-0.0506;
2496556346297992;0.0441;-0.0012;-0.0559;
2496556356376013;0.0462;0.0126;-0.0325;
2496556366483409;0.0952;0.0276;-0.0485;
2496556376590805;0.0995;0.0180;-0.0346;
2496556386702888;0.1133;0.0190;-0.0133;
2496556396810284;0.1931;0.0318;-0.0272;
2496556406917680;0.1920;0.0435;-0.0069;
2496556417024190;0.2602;0.0467;-0.0059;
2496556427131586;0.3305;0.0499;-0.0027;
2496556437238982;0.3422;0.0702;0.0261;
2496556447347940;0.4189;0.0830;-0.0005;
2496556457455336;0.4381;0.0648;0.0059;
2496556467562680;0.4583;0.0702;0.0091;
2496556477676638;0.4668;0.0776;-0.0101;
2496556487784034;0.4253;0.0574;-0.0069;
2496556497891430;0.4391;0.0233;-0.0474;
2496556507980180;0.4051;-0.0044;-0.0527;
2496556518087575;0.3891;-0.0310;-0.0687;
2496556528194971;0.3869;-0.0459;-0.0921;
2496556538319763;0.3422;-0.0662;-0.0889;
2496556548427159;0.3592;-0.0555;-0.1284;
2496556558534555;0.3337;-0.0321;-0.1422;
2496556568646794;0.3326;-0.0246;-0.1497;
2496556578754711;0.3624;-0.0001;-0.1731;
2496556588862627;0.3582;0.0041;-0.1582;
2496556598953148;0.4157;-0.0012;-0.1731;
2496556609061065;0.4104;-0.0278;-0.1816;
2496556619168982;0.4413;-0.0640;-0.1699;
2496556629286065;0.4658;-0.0395;-0.1880;
2496556639393982;0.4764;-0.0491;-0.1827;
2496556649501898;0.5563;-0.0683;-0.1731;
2496556659625284;0.5798;-0.0417;-0.1646;
2496556669733200;0.6309;-0.0555;-0.1390;
2496556679841117;0.6778;-0.0459;-0.1422;
2496556689937002;0.6799;-0.0481;-0.1124;
2496556700044919;0.7076;-0.0481;-0.0975;
2496556710152836;0.7108;-0.0321;-0.0751;
2496556720262002;0.7383;-0.0342;-0.0431;
2496556730369919;0.7511;-0.0278;-0.0346;
2496556740477836;0.7596;-0.0300;-0.0005;
2496556750591586;0.7799;-0.0182;0.0059;
2496556760699502;0.7788;-0.0332;0.0431;
2496556770807419;0.8054;-0.0406;0.0676;
2496556780918669;0.8023;-0.0310;0.0879;
2496556791026586;0.8097;-0.0214;0.1220;
2496556801134502;0.8129;-0.0140;0.1230;
2496556811238148;0.8289;0.0052;0.1571;
2496556821346065;0.8555;0.0233;0.1582;
2496556831453982;0.8683;0.0403;0.1816;
2496556841552940;0.8395;0.0340;0.1838;
2496556851660857;0.8321;0.0116;0.1987;
2496556861768773;0.7831;0.0350;0.2029;
2496556871874190;0.7575;0.0627;0.2040;
2496556881982107;0.7225;0.0595;0.2242;
2496556892090023;0.6820;0.0648;0.2178;
2496556902205232;0.6671;0.0883;0.2519;
2496556912313148;0.6458;0.0862;0.2519;
2496556922421065;0.6479;0.0606;0.2839;
2496556932525232;0.6277;0.0393;0.2786;
2496556942633148;0.6362;0.0435;0.3009;
2496556952741065;0.6096;0.0521;0.2945;
2496556962847211;0.6106;0.0297;0.3244;
2496556972955127;0.5595;0.0478;0.3116;
2496556983063044;0.5467;0.0723;0.3212;
2496556993175544;0.5169;0.0414;0.3201;
2496557003283461;0.4977;0.0574;0.3371;
2496557013391377;0.4849;0.0776;0.3212;
2496557023494294;0.4956;0.0617;0.3425;
2496557033602211;0.4658;0.0702;0.3626;
2496557043710127;0.4445;0.0680;0.3828;
2496557053810857;0.3933;0.0798;0.3796;
2496557063918773;0.3731;0.0680;0.3849;
2496557074026690;0.2932;0.0414;0.3913;
2496557084155752;0.2591;0.0446;0.3956;
2496557094263669;0.1952;0.0638;0.4041;
2496557104371586;0.1281;0.0840;0.3988;
2496557114470023;0.0153;0.0979;0.3913;
2496557124577940;-0.1008;0.0851;0.3924;
2496557134685857;-0.2947;0.0766;0.3849;
2496557144797732;-0.4619;0.0499;0.3647;
2496557154905648;-0.6791;0.0201;0.3489;
2496557165013565;-0.8825;0.0158;0.3254;
2496557175115232;-1.0125;0.0126;0.3137;
2496557185223148;-1.1040;0.0148;0.2935;
2496557195331065;-1.1668;0.0382;0.2796;
2496557205421169;-1.1604;0.0691;0.2573;
2496557215529086;-1.1583;0.0702;0.2487;
2496557225637002;-1.1285;0.0489;0.2370;
2496557235766586;-1.0743;0.0521;0.2413;
2496557245874502;-1.0061;0.0403;0.2487;
2496557255982419;-0.9337;0.0212;0.2541;
2496557266077836;-0.8101;0.0063;0.2636;
2496557276185752;-0.7068;-0.0055;0.2679;
2496557286293669;-0.5907;-0.0236;0.2871;
2496557296400752;-0.4790;-0.0246;0.2892;
2496557306508669;-0.4023;-0.0055;0.3041;
2496557316616586;-0.3415;-0.0087;0.2924;
2496557326740857;-0.2979;-0.0172;0.2999;
2496557336848773;-0.2712;-0.0214;0.2722;
2496557346956690;-0.2606;-0.0289;0.2754;
2496557357051065;-0.2723;-0.0449;0.2466;
2496557367158982;-0.2446;-0.0321;0.2370;
2496557377266898;-0.2670;-0.0204;0.1901;
2496557387359294;-0.2638;-0.0268;0.1720;
2496557397467211;-0.2883;-0.0310;0.1305;
2496557407575127;-0.2798;-0.0300;0.1177;
2496557417688252;-0.3096;-0.0150;0.0783;
2496557427796169;-0.2680;0.0020;0.0570;
2496557437904086;-0.2435;0.0403;0.0431;
2496557447997107;-0.2148;0.0478;0.0240;
2496557458105023;-0.1711;0.0702;0.0346;
2496557468212940;-0.1477;0.0489;0.0091;
2496557478331377;-0.1317;0.0340;0.0208;
2496557488439294;-0.1189;0.0126;0.0059;
2496557498547211;-0.1242;-0.0300;0.0240;
2496557508650961;-0.0901;-0.0364;0.0250;
2496557518758877;-0.1232;-0.0523;0.0357;
2496557528866794;-0.1093;-0.0491;0.0644;
2496557538980127;-0.1264;-0.0364;0.0708;
2496557549088044;-0.1317;-0.0161;0.1081;
2496557559195961;-0.1434;0.0020;0.1198;
2496557569316169;-0.1754;0.0137;0.1422;
2496557579423982;-0.1892;0.0329;0.1699;
2496557589531794;-0.2659;0.0233;0.1848;
2496557599653617;-0.2830;0.0201;0.2200;
2496557609761430;-0.3245;0.0105;0.2264;
2496557619869242;-0.3554;0.0148;0.2317;
2496557629960544;-0.3682;0.0435;0.2530;
2496557640068357;-0.4310;0.0265;0.2530;
2496557650176169;-0.4427;-0.0044;0.2764;
2496557660285232;-0.4449;-0.0257;0.2796;
2496557670393044;-0.4449;-0.0300;0.2860;
2496557680500857;-0.4470;-0.0129;0.2913;
2496557690613669;-0.4598;-0.0076;0.2796;
2496557700721482;-0.4672;0.0020;0.2818;
2496557710829294;-0.4800;0.0169;0.2722;
2496557720946065;-0.5150;0.0222;0.2583;
2496557731053877;-0.5576;0.0276;0.2359;
2496557741161690;-0.5939;0.0233;0.2136;
2496557751266586;-0.6312;0.0308;0.1880;
2496557761374398;-0.6439;0.0393;0.1624;
2496557771482211;-0.6557;0.0595;0.1401;
2496557781578669;-0.6812;0.0798;0.1103;
2496557791686482;-0.6940;0.0776;0.0836;
2496557801794294;-0.7078;0.0691;0.0634;
2496557811910544;-0.6876;0.0755;0.0314;
2496557822018357;-0.6674;0.0904;0.0048;
2496557832126169;-0.6855;0.0659;-0.0080;
2496557842223982;-0.6695;0.0372;-0.0325;
2496557852331794;-0.6120;0.0308;-0.0634;
2496557862439607;-0.5939;0.0350;-0.0985;
2496557872542002;-0.5715;0.0308;-0.1060;
2496557882649815;-0.5491;0.0393;-0.1220;
2496557892757627;-0.5033;0.0670;-0.1379;
2496557902870232;-0.4864;0.1085;-0.1401;
2496557912978044;-0.5012;0.1447;-0.1550;
2496557923085857;-0.5118;0.1522;-0.1795;
2496557933185961;-0.4991;0.1575;-0.1965;
2496557943293825;-0.5044;0.1437;-0.2093;
2496557953401586;-0.5257;0.1245;-0.2210;
2496557963515648;-0.5118;0.0893;-0.2306;
2496557973623461;-0.4704;0.0446;-0.2349;
2496557983731273;-0.4300;0.0318;-0.2477;
2496557993828982;-0.4129;0.0212;-0.2466;
2496558003936794;-0.3873;0.0105;-0.2391;
2496558014044607;-0.3767;0.0031;-0.2274;
2496558024161482;-0.3170;0.0254;-0.2178;
2496558034269294;-0.3064;0.0318;-0.1987;
2496558044377107;-0.3106;0.0595;-0.1678;
2496558054483252;-0.2734;0.1149;-0.1497;
2496558064591065;-0.2904;0.1597;-0.1582;
2496558074698877;-0.3660;0.1373;-0.1624;
2496558084829502;-0.3831;0.1224;-0.1561;
2496558094937315;-0.3692;0.1554;-0.1433;
2496558105045127;-0.4033;0.1288;-0.1369;
2496558115142055;-0.4108;0.0670;-0.1475;
2496558125249815;-0.3841;0.0585;-0.1422;
2496558135357627;-0.3841;0.0680;-0.1422;
2496558145465648;-0.3895;0.0478;-0.1422;
2496558155573461;-0.3927;0.0318;-0.1401;
2496558165681273;-0.3628;0.0297;-0.1486;
2496558175777627;-0.3490;0.0553;-0.1379;
2496558185885440;-0.3831;0.0563;-0.1241;
2496558195993252;-0.3788;0.0617;-0.1379;
2496558206080752;-0.3288;0.0712;-0.1561;
2496558216188565;-0.3213;0.1064;-0.1656;
2496558226296377;-0.3341;0.1426;-0.1518;
2496558236429711;-0.3383;0.1373;-0.1614;
2496558246537523;-0.3138;0.1288;-0.1869;
2496558256645336;-0.2744;0.1405;-0.2008;
2496558266735127;-0.2702;0.1149;-0.1848;
2496558276842940;-0.2755;0.0776;-0.1976;
2496558286950752;-0.2382;0.0574;-0.2168;
2496558297072940;-0.1935;0.0617;-0.2136;
2496558307180752;-0.1786;0.0766;-0.2083;
2496558317288565;-0.2095;0.0712;-0.2114;
2496558327387732;-0.2020;0.0851;-0.2232;
2496558337495544;-0.1860;0.1192;-0.2509;
2496558347603357;-0.2276;0.1288;-0.2573;
2496558357727211;-0.2574;0.1138;-0.2763;
2496558367835023;-0.2489;0.0755;-0.2859;
2496558377942836;-0.2361;0.0617;-0.2933;
2496558388029867;-0.2414;0.0510;-0.3029;
2496558398137680;-0.2425;0.0169;-0.3093;
2496558408245492;-0.2095;0.0574;-0.3274;
2496558418355961;-0.1636;0.0691;-0.3274;
2496558428463773;-0.1668;0.0329;-0.3157;
2496558438571586;-0.1232;0.0350;-0.3146;
2496558448692836;-0.0486;0.0670;-0.3146;
2496558458800648;-0.0369;0.0734;-0.3029;
2496558468908461;-0.0230;0.0372;-0.2880;
2496558479006117;0.0281;-0.0065;-0.2933;
2496558489113930;0.0782;-0.0332;-0.3029;
2496558499221742;0.1016;-0.0204;-0.2838;
2496558509355544;0.1313;-0.0119;-0.2541;
2496558519463357;0.1846;-0.0182;-0.2349;
2496558529571169;0.2485;0.0009;-0.2253;
2496558539666273;0.2826;0.0659;-0.2221;
2496558549774086;0.2538;0.0862;-0.1965;
2496558559881898;0.2346;0.0617;-0.1752;
2496558569986482;0.2485;0.0574;-0.1646;
2496558580094294;0.2346;0.0648;-0.1646;
2496558590202107;0.2165;0.0638;-0.1603;
2496558600326377;0.2091;0.0648;-0.1443;
2496558610434190;0.1792;0.0691;-0.1433;
2496558620542002;0.1654;0.0425;-0.1518;
2496558630627419;0.1814;0.0233;-0.1337;
2496558640735232;0.1675;0.0435;-0.1156;
2496558650843044;0.1324;0.0361;-0.1145;
2496558660949190;0.1334;-0.0140;-0.1092;
2496558671057002;0.1441;-0.0523;-0.0996;
2496558681164815;0.0941;-0.0332;-0.1241;
2496558691285648;0.0707;0.0148;-0.1486;
2496558701393461;0.0718;0.0425;-0.1411;
2496558711501273;0.0696;0.0457;-0.1230;
2496558721600336;0.0814;0.0403;-0.1230;
2496558731708148;0.0782;0.0308;-0.1337;
2496558741815961;0.0782;-0.0140;-0.1230;
2496558751920544;0.0782;-0.0640;-0.1166;
2496558762028357;0.0803;-0.0907;-0.1124;
2496558772136169;0.0803;-0.0960;-0.1092;
2496558782247523;0.0867;-0.0768;-0.0858;
2496558792355336;0.0824;-0.0683;-0.0708;
2496558802463096;0.0664;-0.0885;-0.0911;
2496558812573252;0.0846;-0.0800;-0.0932;
2496558822681065;0.0867;-0.0427;-0.0730;
2496558832788877;0.0601;0.0020;-0.0794;
2496558842895648;0.0526;-0.0119;-0.1007;
2496558853003461;0.0664;-0.0065;-0.0826;
2496558863111273;0.0643;0.0297;-0.0868;
2496558873214294;0.0601;0.0617;-0.1092;
2496558883322107;0.0345;0.0680;-0.1252;
2496558893429919;0.0579;0.0254;-0.1188;
2496558903540388;0.0739;-0.0097;-0.1305;
2496558913648200;0.0590;-0.0417;-0.1475;
2496558923756013;0.0664;-0.0310;-0.1582;
2496558933868982;0.0824;0.0020;-0.1507;
2496558943976794;0.0920;0.0031;-0.1454;
2496558954084607;0.1165;0.0073;-0.1507;
2496558964187211;0.1302;0.0041;-0.1305;
2496558974295023;0.1409;0.0126;-0.1284;
2496558984402836;0.1696;0.0222;-0.1188;
2496558994511169;0.1632;-0.0001;-0.0932;
2496559004618982;0.1462;0.0126;-0.0889;
2496559014726794;0.1611;0.0393;-0.0708;
2496559024833148;0.1473;0.0169;-0.0762;
2496559034940961;0.1547;-0.0459;-0.0698;
2496559045048773;0.1451;-0.0896;-0.0581;
2496559055154294;0.1441;-0.0981;-0.0581;
2496559065262107;0.1441;-0.0981;-0.0581;
2496559075369919;0.1345;-0.0651;-0.0602;
2496559085495544;0.1238;-0.0268;-0.0463;
2496559095603357;0.1133;0.0073;-0.0389;
2496559105711169;0.1270;0.0457;-0.0368;
2496559115827419;0.1176;0.0851;-0.0474;
2496559125935232;0.1080;0.0659;-0.0527;
2496559136043044;0.1154;0.0084;-0.0463;
2496559146135388;0.1292;-0.0076;-0.0474;
2496559156243200;0.1292;-0.0353;-0.0282;
2496559166351013;0.1197;-0.0726;-0.0069;
2496559176450961;0.0920;-0.0928;0.0069;
2496559186558773;0.0675;-0.1109;-0.0005;
2496559196666586;0.0771;-0.1077;-0.0027;
2496559206789607;0.0846;-0.0715;0.0165;
2496559216897419;0.0739;-0.0449;0.0421;
2496559227005232;0.0292;-0.0417;0.0240;
2496559237087836;0.0590;-0.0225;0.0059;
2496559247195648;0.0558;0.0190;-0.0005;
2496559257303461;0.0462;0.0499;-0.0069;
2496559267424919;0.0441;0.0148;0.0261;
2496559277532732;0.0569;-0.0364;0.0101;
2496559287640544;0.0995;-0.0150;0.0165;
2496559297745440;0.0760;0.0425;0.0282;
2496559307853252;0.0345;0.0318;0.0410;
2496559317961013;0.0249;-0.0513;0.0282;
2496559328073044;0.0707;-0.0619;0.0325;
2496559338180857;0.0750;-0.0214;0.0602;
2496559348288669;0.0462;-0.0321;0.0410;
2496559358387315;0.0430;-0.0374;0.0218;
2496559368495127;0.0409;-0.0065;0.0250;
2496559378602940;0.0430;0.0585;0.0229;
2496559388744659;0.0302;0.0862;0.0197;
2496559398852471;-0.0081;0.0489;0.0144;
2496559408960284;0.0238;-0.0236;0.0197;
2496559419023565;0.0494;-0.0278;0.0218;
2496559429131377;0.0494;0.0244;0.0112;
2496559439239190;0.0377;0.0148;0.0133;
2496559449388461;0.0441;-0.0342;0.0154;
2496559459496273;0.0441;-0.0161;-0.0208;
2496559469604086;0.0430;0.0137;-0.0389;
2496559479692107;0.0515;-0.0172;-0.0250;
2496559489799919;0.0696;-0.0917;-0.0165;
2496559499907732;0.0899;-0.0694;-0.0186;
2496559510009815;0.0579;-0.0395;-0.0016;
2496559520117627;0.0356;-0.0342;0.0005;
2496559530225440;0.0366;-0.0129;0.0027;
2496559540322627;0.0089;0.0329;0.0112;
2496559550430440;0.0057;0.0499;-0.0101;
2496559560538252;0.0387;-0.0342;-0.0165;
2496559570657211;0.0739;-0.1120;-0.0218;
2496559580765023;0.1048;-0.1280;-0.0037;
2496559590872836;0.0856;-0.0885;0.0027;
2496559600978565;0.0174;-0.0598;-0.0293;
2496559611086377;0.0079;-0.0502;-0.0378;
2496559621194190;0.0004;-0.0182;-0.0474;
2496559631302211;-0.0049;0.0201;-0.0623;
2496559641410023;0.0260;0.0595;-0.0644;
2496559651517836;0.0569;0.0925;-0.0794;
2496559661622055;0.1186;0.1352;-0.0730;
2496559671729867;0.0398;0.0766;-0.0921;
2496559681837627;0.0611;0.0052;-0.0570;
2496559691964190;0.1441;-0.0065;-0.0591;
2496559702072002;0.1654;0.0265;-0.0751;
2496559712179815;0.0558;-0.0108;-0.0549;
2496559722279190;0.0430;-0.0747;-0.0442;
2496559732387002;0.0537;-0.0939;-0.0463;
2496559742494815;0.0494;-0.0843;-0.0559;
2496559752602211;0.0345;-0.0609;-0.0634;
2496559762710023;0.0377;-0.0278;-0.0676;
2496559772817836;0.0260;-0.0055;-0.0826;
2496559782912002;0.0164;0.0318;-0.0847;
2496559793019815;0.0356;0.0233;-0.0506;
2496559803127627;0.0686;0.0350;-0.0527;
2496559813246898;0.0973;0.0446;-0.0644;
2496559823354711;0.1144;0.0425;-0.0634;
2496559833462523;0.1122;0.0063;-0.0602;
2496559843565648;0.1249;-0.0822;-0.0357;
2496559853673461;0.2005;-0.0864;-0.0208;
2496559863781221;0.2165;-0.0161;-0.0272;
2496559873890336;0.1165;-0.0033;-0.0304;
2496559883998148;0.0696;-0.0214;-0.0325;
2496559894105961;0.0856;-0.0087;-0.0346;
2496559904220023;0.0877;0.0180;-0.0410;
2496559914327836;0.0909;0.0553;-0.0538;
2496559924435648;0.0782;0.0979;-0.0527;
2496559934538461;0.0430;0.0936;-0.0751;
2496559944646325;0.0483;0.0755;-0.0666;
2496559954754086;0.0792;0.0670;-0.0634;
2496559964882055;0.1324;0.0116;-0.0591;
2496559974989867;0.1707;-0.0321;-0.0495;
2496559985097627;0.1803;-0.0321;-0.0410;
2496559995177523;0.1664;-0.0555;-0.0197;
2496560005285336;0.1483;-0.0928;-0.0037;
2496560015393096;0.1537;-0.0854;0.0059;
2496560025511065;0.1324;-0.0225;0.0112;
2496560035618877;0.1059;0.0126;0.0016;
2496560045726638;0.1059;-0.0438;0.0016;
2496560055827315;0.1419;-0.0502;0.0229;
2496560065935127;0.1547;0.0148;0.0154;
2496560076042940;0.1281;0.0318;0.0229;
2496560086153252;0.1112;0.0169;0.0261;
2496560096261065;0.1122;0.0137;0.0059;
2496560106368877;0.1059;0.0276;0.0005;
2496560116491065;0.0973;0.0105;0.0165;
2496560126598877;0.1080;-0.0214;0.0080;
2496560136706690;0.1197;-0.0076;-0.0112;
2496560146798461;0.1048;0.0297;-0.0186;
2496560156906273;0.0867;0.0116;-0.0218;
2496560167014086;0.1122;-0.0342;-0.0314;
2496560177125752;0.1515;-0.0598;-0.0165;
2496560187233565;0.1590;-0.0278;-0.0059;
2496560197341377;0.1409;-0.0193;0.0005;
2496560207440648;0.1622;-0.0438;0.0261;
2496560217548461;0.1920;-0.0214;0.0314;
2496560227656273;0.2037;-0.0374;0.0304;
2496560237771273;0.2336;-0.0523;0.0410;
2496560247879086;0.2538;-0.0012;0.0336;
2496560257986846;0.1952;0.0478;0.0240;
2496560268092002;0.1494;0.0478;0.0261;
2496560278199815;0.1622;-0.0012;0.0272;
2496560288307627;0.2122;0.0286;0.0197;
2496560298419919;0.1888;0.0979;0.0016;
2496560308527732;0.1398;0.1000;-0.0037;
2496560318635544;0.1356;0.0095;0.0112;
2496560328757732;0.1899;-0.0300;0.0272;
2496560338865544;0.1718;0.0201;0.0186;
2496560348973357;0.1441;0.0158;0.0154;
2496560359083773;0.1537;-0.0459;0.0325;
2496560369191586;0.1803;-0.0427;0.0485;
2496560379299398;0.1792;0.0041;0.0581;
2496560389387315;0.1771;0.0254;0.0581;
2496560399495127;0.1952;0.0095;0.0666;
2496560409602940;0.2101;0.0126;0.0708;
2496560419707732;0.1941;0.0574;0.0815;
2496560429815544;0.1739;0.0606;0.0975;
2496560439923305;0.1654;0.0531;0.1007;
2496560450035023;0.1515;0.0627;0.0953;
2496560460142836;0.1515;0.0233;0.1113;
2496560470250648;0.1387;-0.0332;0.1284;
2496560480349086;0.1292;-0.0332;0.1177;
2496560490456898;0.1154;0.0116;0.1220;
2496560500564711;0.0814;0.0180;0.1326;
2496560510681794;0.0579;0.0265;0.1305;
2496560520789607;0.0643;0.0734;0.1379;
2496560530897419;0.0569;0.1000;0.1379;
2496560541004502;0.0643;0.0734;0.1369;
2496560551112315;0.0909;0.0446;0.1188;
2496560561220127;0.0931;0.0286;0.1017;
2496560571325961;0.0824;-0.0087;0.1166;
2496560581433773;0.0824;-0.0566;0.1262;
2496560591541534;0.0547;-0.0459;0.1124;
2496560601648565;0.0398;-0.0033;0.1071;
2496560611756377;0.0430;0.0212;0.1092;
2496560621864138;0.0558;0.0073;0.1092;
2496560631973461;0.0494;0.0180;0.0953;
2496560642081273;0.0398;0.0457;0.0879;
2496560652189034;0.0366;0.0276;0.0889;
2496560662295336;0.0387;-0.0055;0.0794;
2496560672403148;0.0366;-0.0214;0.0762;
2496560682510909;0.0132;-0.0097;0.0751;
2496560692602002;-0.0081;-0.0182;0.0687;
2496560702709711;-0.0262;-0.0300;0.0368;
2496560712817523;-0.0252;-0.0129;-0.0048;
2496560722925284;-0.0316;0.0084;-0.0208;
2496560733058148;-0.0422;0.0158;-0.0442;
2496560743165961;-0.0113;0.0233;-0.0719;
2496560753273721;0.0238;0.0286;-0.0836;
2496560763375805;0.0409;0.0063;-0.0826;
2496560773483617;0.0547;-0.0033;-0.0868;
2496560783591377;0.0707;-0.0204;-0.0889;
2496560793692419;0.0877;-0.0470;-0.0836;
2496560803800232;0.0963;-0.0587;-0.0868;
2496560813907992;0.1197;-0.0534;-0.0879;
2496560824027471;0.1292;-0.0470;-0.0762;
2496560834135284;0.1430;-0.0310;-0.0847;
2496560844243044;0.1579;-0.0129;-0.0772;
2496560854353044;0.1569;0.0052;-0.0943;
2496560864460857;0.1739;0.0254;-0.1081;
2496560874568617;0.1771;0.0393;-0.0996;
2496560884669294;0.1803;0.0435;-0.1039;
2496560894777107;0.1963;0.0244;-0.1092;
2496560904884867;0.2101;0.0105;-0.1049;
2496560914990857;0.1995;0.0009;-0.1007;
2496560925098669;0.1867;-0.0161;-0.0943;
2496560935206430;0.2122;-0.0427;-0.0815;
2496560945340961;0.2463;-0.0459;-0.0719;
2496560955448773;0.2367;-0.0300;-0.0666;
2496560965556534;0.2602;-0.0033;-0.0517;
2496560975634502;0.3081;0.0340;-0.0293;
2496560985742315;0.3284;0.0435;-0.0165;
2496560995850075;0.3475;0.0595;0.0037;
2496561005979502;0.3273;-0.0843;-0.0091;
2496561016087315;0.3838;-0.1908;0.0133;
2496561026195075;0.4061;0.0361;0.0325;
2496561036280127;0.3188;0.1447;0.0581;
2496561046387940;0.3134;0.0361;0.0730;
2496561056495700;0.4562;0.0180;0.0932;
2496561066614971;0.4274;0.0957;0.1017;
2496561076722784;0.2804;0.0872;0.1113;
2496561086830544;0.2783;-0.0140;0.1188;
2496561096926169;0.2804;-0.0523;0.1028;
2496561107033982;0.2240;-0.0385;0.0975;
2496561117141742;0.2005;-0.0481;0.1092;
2496561127243982;0.2197;-0.0694;0.1198;
2496561137351794;0.2186;-0.0427;0.1284;
2496561147459555;0.2144;-0.0033;0.1294;
2496561157592836;0.2101;0.0382;0.1166;
2496561167700648;0.2091;0.2831;0.0719;
2496561177808409;0.2676;0.0542;0.1262;
2496561187902211;0.2666;-0.1972;0.1497;
2496561198010023;0.2154;0.0105;0.1049;
2496561208117784;0.1281;0.0126;0.1252;
2496561218229815;0.1675;-0.0800;0.1550;
2496561228337627;0.1984;-0.0577;0.1710;
2496561238445388;0.1739;0.0212;0.1614;
2496561248530232;0.1622;0.0904;0.1411;
2496561258638044;0.1728;0.0617;0.1465;
2496561268745805;0.1803;0.0372;0.1422;
2496561278875440;0.1569;0.0382;0.1422;
2496561288983252;0.1462;-0.0427;0.1614;
2496561299091013;0.1430;-0.0651;0.1497;
2496561309210127;0.1515;-0.0140;0.1614;
2496561319317940;0.1601;-0.0289;0.1923;
2496561329425700;0.1707;-0.0150;0.1976;
2496561339531950;0.1579;0.0830;0.2083;
2496561349639763;0.1398;0.0968;0.2221;
2496561359747523;0.1441;0.0297;0.2274;
2496561369845805;0.1387;0.0137;0.2253;
2496561379953617;0.1027;0.0041;0.2359;
2496561390061377;0.0909;-0.0044;0.2466;
2496561400155127;0.0909;0.0063;0.2679;
2496561410262940;0.0707;0.0180;0.2839;
2496561420370700;0.0473;0.0531;0.2881;
2496561430488669;0.0270;0.0510;0.2722;
2496561440596482;0.0015;0.0531;0.2477;
2496561450704242;-0.0177;0.0595;0.2445;
2496561460813982;-0.0294;0.0393;0.2583;
2496561470921794;-0.0582;0.0499;0.2594;
2496561481029555;-0.1008;0.0680;0.2626;
2496561491139919;-0.1328;0.0276;0.2615;
2496561501247732;-0.1583;-0.0289;0.2551;
2496561511355492;-0.2020;-0.0374;0.2317;
2496561521466169;-0.2403;-0.0012;0.2157;
2496561531573982;-0.2638;0.0020;0.1965;
2496561541681742;-0.2478;-0.0172;0.1923;
2496561551776898;-0.2403;0.0084;0.1774;
2496561561884711;-0.2212;0.0201;0.1656;
2496561571992471;-0.2105;0.0340;0.1475;
2496561582092419;-0.1924;0.0723;0.1348;
2496561592200180;-0.1743;0.0638;0.1316;
2496561602307940;-0.1658;0.0190;0.1273;
2496561612428982;-0.1605;0.0063;0.1081;
2496561622536742;-0.1530;0.0041;0.0943;
2496561632644502;-0.1477;-0.0577;0.0932;
2496561642753148;-0.1232;-0.1216;0.0794;
2496561652860909;-0.0838;-0.0939;0.0708;
2496561662968669;-0.0838;0.0009;0.0644;
2496561673088252;-0.0869;0.0553;0.0826;
2496561683196013;-0.0838;0.0574;0.0953;
2496561693303773;-0.0593;0.0435;0.0975;
2496561703410180;-0.0752;0.0414;0.0921;
2496561713517940;-0.0912;0.0489;0.0676;
2496561723625700;-0.0912;0.0510;0.0815;
2496561733729555;-0.1061;0.0244;0.0847;
2496561743837315;-0.1115;0.0169;0.0740;
2496561753945075;-0.1402;0.0531;0.0644;
2496561764047627;-0.1647;0.0403;0.0655;
2496561774155388;-0.1956;-0.0161;0.0485;
2496561784263148;-0.1913;-0.0097;0.0229;
2496561794382471;-0.1850;0.0361;0.0165;
2496561804490232;-0.2063;0.0244;0.0389;
2496561814597992;-0.1796;-0.0033;0.0506;
2496561824704919;-0.1391;-0.0023;0.0527;
2496561834812680;-0.1402;0.0041;0.0698;
2496561844920440;-0.1349;0.0169;0.0676;
2496561855014086;-0.1200;0.0712;0.0644;
2496561865121846;-0.1232;0.1128;0.0889;
2496561875229607;-0.1264;0.0957;0.0996;
2496561885321065;-0.1338;0.1043;0.0815;
2496561895428825;-0.1370;0.0968;0.0740;
2496561905536586;-0.1477;0.0286;0.0676;
2496561915635544;-0.1338;-0.0385;0.0570;
2496561925743305;-0.1210;-0.0502;0.0463;
2496561935851065;-0.1115;-0.0523;0.0495;
2496561945985336;-0.0816;-0.0672;0.0687;
2496561956093096;-0.0539;-0.0459;0.1071;
2496561966200857;-0.0465;-0.0513;0.1209;
2496561976311638;-0.0081;-0.0523;0.1156;
2496561986419398;-0.0017;-0.0236;0.1007;
2496561996527159;-0.0060;0.0020;0.1188;
2496562006656794;-0.0241;-0.0300;0.1262;
2496562016764555;-0.0571;-0.0055;0.1071;
2496562026872315;-0.0774;0.0638;0.0730;
2496562036947627;-0.1008;0.0499;0.0442;
2496562047055388;-0.1083;-0.0023;0.0186;
2496562057163148;-0.1136;0.0350;-0.0091;
2496562067291065;-0.1083;0.0776;-0.0357;
2496562077398825;-0.1029;0.0457;-0.0613;
2496562087506586;-0.0965;0.0308;-0.0772;
2496562097614502;-0.0923;0.0340;-0.1039;
2496562107722263;-0.0465;0.0222;-0.1156;
2496562117830023;-0.0284;0.0190;-0.1401;
2496562127922523;-0.0166;0.0126;-0.1507;
2496562138030284;-0.0273;-0.0225;-0.1316;
2496562148138096;-0.0230;-0.0097;-0.1316;
2496562158312732;-0.0230;0.0297;-0.1273;
2496562168420492;-0.0465;-0.0055;-0.1262;
2496562178528252;-0.0134;-0.0300;-0.1262;
2496562188578877;0.0025;0.0031;-0.1081;
2496562198686638;0.0079;0.0073;-0.0964;
2496562208794398;0.0324;-0.0545;-0.0687;
2496562218905232;0.0398;-0.1216;-0.0378;
2496562229012992;0.0228;-0.1216;-0.0112;
2496562239120752;0.0217;-0.0662;-0.0037;
2496562249217107;0.0164;-0.0427;-0.0037;
2496562259324867;-0.0081;-0.0150;0.0186;
2496562269432627;-0.0337;0.0329;0.0325;
2496562279557523;-0.0593;0.0840;0.0282;
2496562289665284;-0.0731;0.0659;0.0314;
2496562299773044;-0.0880;0.0212;0.0229;
2496562309865336;-0.1104;0.0009;0.0080;
2496562319973096;-0.1519;-0.0236;-0.0123;
2496562330080857;-0.1391;-0.0630;-0.0314;
2496562340187523;-0.1317;-0.0651;-0.0431;
2496562350295284;-0.1019;-0.0523;-0.0410;
2496562360403044;-0.0443;-0.0481;-0.0517;
2496562370521794;-0.0166;-0.0108;-0.0698;
2496562380629555;-0.0124;0.0126;-0.0783;
2496562390737315;0.0196;0.0446;-0.0666;
2496562400835023;0.0238;0.0606;-0.0431;
2496562410942784;0.0100;0.0063;-0.0357;
2496562421050544;-0.0039;-0.0289;-0.0282;
2496562431163305;-0.0273;-0.0321;-0.0410;
2496562441271065;-0.0284;-0.0395;-0.0389;
2496562451378825;-0.0337;-0.0385;-0.0399;
2496562461490805;-0.0433;-0.0417;-0.0325;
2496562471598565;-0.0390;-0.0278;-0.0357;
2496562481706325;-0.0241;-0.0150;-0.0442;
2496562491814502;-0.0145;0.0052;-0.0357;
2496562501922263;-0.0284;0.0063;-0.0421;
2496562512030023;-0.0230;0.0009;-0.0410;
2496562522140388;-0.0401;0.0137;-0.0123;
2496562532248148;-0.0443;0.0190;-0.0144;
2496562542355909;-0.0614;0.0020;-0.0144;
2496562552453982;-0.0550;0.0063;-0.0091;
2496562562561742;-0.0603;0.0169;-0.0059;
2496562572669502;-0.0433;0.0041;-0.0027;
2496562582766898;-0.0561;-0.0055;0.0048;
2496562592874711;-0.0433;-0.0023;0.0101;
2496562602982471;-0.0411;0.0158;0.0154;
2496562613105805;-0.0337;0.0222;0.0144;
2496562623213617;-0.0465;-0.0364;0.0293;
2496562633321377;-0.0593;-0.0427;0.0240;
2496562643428305;-0.0752;0.0009;0.0421;
2496562653536117;-0.0901;-0.0150;0.0538;
2496562663643877;-0.0859;-0.0321;0.0570;
2496562673750544;-0.1061;-0.0278;0.0527;
2496562683858305;-0.1178;-0.0012;0.0442;
2496562693966117;-0.1306;-0.0129;0.0485;
2496562704070752;-0.1370;-0.0119;0.0527;
2496562714178565;-0.1679;0.0297;0.0378;
2496562724286325;-0.1871;0.0372;0.0431;
2496562734404711;-0.2244;0.0286;0.0421;
2496562744512523;-0.2489;-0.0001;0.0304;
2496562754620284;-0.2457;-0.0342;0.0101;
2496562764719711;-0.2158;-0.0119;-0.0005;
2496562774827471;-0.1999;-0.0150;-0.0037;
2496562784935284;-0.1871;-0.0310;-0.0112;
2496562795037523;-0.1487;0.0169;-0.0208;
2496562805145336;-0.1413;0.0659;-0.0208;
2496562815253096;-0.1636;0.0403;-0.0208;
2496562825375648;-0.1477;-0.0097;-0.0293;
2496562835483461;-0.1210;-0.0289;-0.0431;
2496562845591221;-0.1200;-0.0278;-0.0368;
2496562855686377;-0.1083;-0.0438;-0.0336;
2496562865794138;-0.0859;-0.0640;-0.0368;
2496562875901950;-0.1061;-0.0310;-0.0421;
2496562886031377;-0.1093;0.0521;-0.0623;
2496562896139190;-0.1264;0.0925;-0.0527;
2496562906246950;-0.1402;0.0617;-0.0602;
2496562916365700;-0.1232;0.0499;-0.0847;
2496562926473461;-0.1285;0.0446;-0.0911;
2496562936581273;-0.1253;0.0052;-0.1028;
2496562946671898;-0.1104;-0.0214;-0.1177;
2496562956779711;-0.1146;-0.0119;-0.1262;
2496562966887471;-0.0912;-0.0150;-0.1379;
2496562976990648;-0.0784;-0.0161;-0.1507;
2496562987098461;-0.0624;-0.0119;-0.1624;
2496562997206221;-0.0475;-0.0119;-0.1624;
2496563007296794;-0.0326;0.0063;-0.1710;
2496563017404607;-0.0518;0.0009;-0.1646;
2496563027512367;-0.0731;-0.0566;-0.1433;
2496563037689398;-0.0561;-0.0502;-0.1518;
2496563047797211;-0.0305;-0.0342;-0.1624;
2496563057904971;-0.0486;-0.0257;-0.1710;
2496563067946586;-0.0486;-0.0236;-0.1784;
2496563078054346;0.0004;-0.0321;-0.1923;
2496563088162107;0.0217;0.0265;-0.2008;
2496563098314711;-0.0007;0.0744;-0.2104;
2496563108422523;-0.0103;0.0414;-0.2019;
2496563118530284;-0.0230;-0.0001;-0.1880;
2496563128600336;-0.0124;-0.0278;-0.1944;
2496563138708148;0.0164;-0.0545;-0.2072;
2496563148815909;0.0419;-0.0800;-0.1955;
2496563158932107;0.0814;-0.0736;-0.1976;
2496563169039919;0.1260;-0.0300;-0.2019;
2496563179147680;0.1334;0.0105;-0.1880;
2496563189263044;0.1133;-0.0012;-0.1923;
2496563199370857;0.1505;-0.0268;-0.1635;
2496563209478617;0.1664;-0.0289;-0.1550;
2496563219591117;0.2048;-0.0225;-0.1348;
2496563229698930;0.2176;-0.0385;-0.0964;
2496563239806690;0.2059;-0.0715;-0.0666;
2496563249922523;0.2261;-0.0395;-0.0506;
2496563260030336;0.2325;-0.0065;-0.0453;
2496563270138096;0.2080;-0.0001;-0.0229;
2496563280219815;0.1973;0.0372;-0.0250;
2496563290327627;0.2005;0.0531;-0.0261;
2496563300435388;0.1664;0.0627;-0.0176;
2496563310541221;0.1249;0.0350;0.0091;
2496563320649034;0.1080;-0.0193;0.0218;
2496563330756794;0.1122;-0.0119;0.0261;
2496563340866690;0.1080;0.0286;0.0165;
2496563350974502;0.0909;-0.0246;0.0474;
2496563361082263;0.0846;-0.0342;0.0794;
2496563371188721;0.0941;0.0233;0.0698;
2496563381296482;0.0760;0.0190;0.0730;
2496563391404294;0.0601;-0.0097;0.0772;
2496563401514294;0.0877;-0.0087;0.0634;
2496563411622107;0.0707;-0.0001;0.0751;
2496563421729867;0.0622;0.0158;0.0762;
2496563431851482;0.0718;-0.0119;0.0911;
2496563441959294;0.0728;-0.0236;0.1007;
2496563452067055;0.0664;-0.0001;0.0836;
2496563462160648;0.0803;-0.0044;0.0996;
2496563472268461;0.0718;-0.0417;0.1198;
2496563482376221;0.0814;-0.0289;0.1252;
2496563492491169;0.0547;-0.0161;0.1049;
2496563502598982;0.0505;-0.0182;0.1092;
2496563512706742;0.0515;-0.0065;0.1273;
2496563522810857;0.0430;0.0318;0.1103;
2496563532918669;0.0334;0.0659;0.0900;
2496563543026430;0.0025;0.0212;0.0858;
2496563553128982;-0.0273;-0.0662;0.0889;
2496563563236742;-0.0113;-0.0715;0.0794;
2496563573344555;0.0345;0.0126;0.0538;
2496563583440857;0.0356;0.0276;0.0858;
2496563593548669;-0.0039;-0.0310;0.0975;
2496563603656430;0.0217;0.0020;0.0900;
2496563613770857;0.0238;0.0009;0.0676;
2496563623878669;-0.0007;-0.0427;0.0804;
2496563633986430;0.0228;-0.0044;0.0868;
2496563644097419;0.0451;0.0446;0.0581;
2496563654205232;0.0217;0.0446;0.0581;
2496563664312992;-0.0103;0.0393;0.0538;
2496563674426794;-0.0060;0.0180;0.0538;
2496563684534607;-0.0134;0.0276;0.0442;
2496563694642419;-0.0081;0.0190;0.0314;
2496563704746482;0.0174;-0.0300;0.0431;
2496563714854294;0.0185;0.0041;0.0570;
2496563724962055;0.0153;0.0137;0.0506;
2496563735081586;0.0111;-0.0246;0.0495;
2496563745189398;0.0281;0.0297;0.0485;
2496563755297159;0.0228;0.0446;0.0389;
2496563765421482;0.0068;0.0329;0.0389;
2496563775529294;0.0057;0.0361;0.0272;
2496563785621273;0.0100;-0.0076;0.0389;
2496563795729086;-0.0017;-0.0044;0.0463;
2496563805836846;0.0196;0.0403;0.0336;
2496563815936898;0.0196;-0.0001;0.0421;
2496563826044711;0.0004;-0.0182;0.0613;
2496563836152471;0.0196;-0.0161;0.0644;
2496563846278461;0.0068;-0.0513;0.0634;
2496563856386273;0.0079;-0.0246;0.0559;
2496563866494034;0.0238;-0.0172;0.0613;
2496563876576169;0.0111;-0.0278;0.0676;
2496563886683982;0.0132;0.0489;0.0687;
2496563896791742;-0.0092;0.0574;0.0751;
2496563906902211;-0.0305;-0.0065;0.0751;
2496563917010023;-0.0294;-0.0353;0.0644;
2496563927117784;-0.0134;-0.0161;0.0666;
2496563937227419;-0.0316;-0.0161;0.0847;
2496563947335232;-0.0284;-0.0150;0.0964;
2496563957442992;-0.0198;-0.0427;0.0964;
2496563967569502;-0.0241;-0.0385;0.0900;
2496563977677315;-0.0071;0.0340;0.1007;
2496563987785075;-0.0177;0.0574;0.0964;
2496563997857107;-0.0401;0.0680;0.0900;
2496564007964867;-0.0763;0.0020;0.1028;
2496564018072680;-0.1115;-0.0609;0.1166;
2496564028203773;-0.0901;-0.0108;0.1028;
2496564038311586;-0.0475;-0.0044;0.1071;
2496564048419346;-0.0742;-0.0374;0.1284;
2496564058528982;-0.0848;0.0276;0.1316;
2496564068636794;-0.0497;0.0233;0.1475;
2496564078744555;-0.0838;-0.0225;0.1550;
2496564088844919;-0.0816;0.0286;0.1507;
2496564098952732;-0.0593;0.0318;0.1624;
2496564109060492;-0.0997;0.0180;0.1561;
2496564119164190;-0.1115;-0.0012;0.1571;
2496564129272002;-0.1296;-0.0161;0.1571;
2496564139379763;-0.1093;0.0446;0.1539;
2496564149505492;-0.0997;0.0638;0.1593;
2496564159613305;-0.1583;0.0638;0.1624;
2496564169721065;-0.1881;0.0723;0.1539;
2496564179808148;-0.1732;-0.0065;0.1624;
2496564189915961;-0.1807;-0.0459;0.1433;
2496564200023721;-0.1626;0.0361;0.1188;
2496564210137211;-0.1636;0.0350;0.1252;
2496564220245023;-0.2212;-0.0076;0.1209;
2496564230352784;-0.2308;-0.0023;0.0953;
2496564240458148;-0.2201;0.0126;0.0730;
2496564250565961;-0.2585;0.0116;0.0506;
2496564260673721;-0.2425;-0.0406;0.0389;
2496564270784919;-0.2169;-0.0555;0.0357;
2496564280892732;-0.2095;0.0180;0.0357;
2496564291000492;-0.2095;0.0084;0.0517;
2496564301114294;-0.2425;-0.0119;0.0389;
2496564311222107;-0.2414;0.0180;0.0005;
2496564321329867;-0.2201;0.0361;-0.0186;
2496564331436169;-0.2318;0.0553;-0.0495;
2496564341543982;-0.2297;0.1202;-0.0570;
2496564351651742;-0.2638;0.1075;-0.0719;
2496564361766221;-0.2840;0.0787;-0.0911;
2496564371874034;-0.2510;0.1000;-0.1166;
2496564381981794;-0.2350;0.0787;-0.1230;
2496564392090752;-0.2691;0.0563;-0.1358;
2496564402198565;-0.2553;-0.0257;-0.1348;
2496564412306325;-0.1988;-0.0896;-0.1475;
2496564422407732;-0.1509;-0.0204;-0.1912;
2496564432515544;-0.1551;0.0222;-0.1944;
2496564442623305;-0.1679;0.0148;-0.1933;
2496564452732888;-0.1423;0.0403;-0.2104;
2496564462840700;-0.1413;0.0372;-0.2114;
2496564472948461;-0.1349;0.0233;-0.2178;
2496564483062211;-0.1040;-0.0001;-0.2210;
2496564493170023;-0.0869;-0.0214;-0.2125;
2496564503277784;-0.0731;0.0712;-0.2093;
2496564513382419;-0.0891;0.0766;-0.2029;
2496564523490232;-0.1210;0.0254;-0.2146;
2496564533597992;-0.1019;0.0691;-0.2551;
2496564543706794;-0.0678;0.0723;-0.2710;
2496564553814607;-0.0784;0.0329;-0.2795;
2496564563922367;-0.0518;0.0382;-0.2987;
2496564574018252;-0.0284;0.0489;-0.2976;
2496564584126065;-0.0230;0.0297;-0.2827;
2496564594233825;0.0174;0.0009;-0.2763;
2496564604346169;0.0835;0.0084;-0.2614;
2496564614453982;0.1208;0.0723;-0.2370;
2496564624561742;0.0931;0.0414;-0.2040;
2496564634666221;0.0281;-0.0417;-0.1891;
2496564644774034;0.0771;-0.0747;-0.2019;
2496564654881794;0.2133;-0.0523;-0.2114;
2496564664993148;0.2463;0.0095;-0.2104;
2496564675100961;0.1973;0.0329;-0.1944;
2496564685208721;0.1281;0.0148;-0.1646;
2496564695316169;0.1101;-0.0268;-0.1624;
2496564705423982;0.1728;-0.0885;-0.1465;
2496564715531742;0.2069;-0.0736;-0.1252;
2496564725640127;0.1973;-0.0406;-0.0964;
2496564735747940;0.1505;-0.1109;-0.0495;
2496564745855700;0.1526;-0.0779;-0.0261;
2496564755966169;0.2336;0.1021;-0.0570;
2496564766073982;0.2453;0.2501;-0.0666;
2496564776181742;0.0760;0.2117;-0.0325;
2496564786281898;-0.0379;0.0808;-0.0325;
2496564796389659;-0.0284;0.0254;-0.0463;
2496564806497419;0.0121;0.0180;-0.0815;
2496564816607055;0.0515;-0.0917;-0.0751;
2496564826714815;0.0398;-0.1237;-0.0858;
2496564836822575;0.0632;-0.0481;-0.0847;
2496564846949711;0.0473;-0.0896;-0.0655;
2496564857057471;0.0675;-0.1301;-0.0495;
2496564867165284;0.1005;-0.1322;-0.0527;
2496564877246065;0.1462;-0.1024;-0.0314;
2496564887353825;0.1441;-0.0662;0.0048;
2496564897461638;0.1059;0.0116;0.0154;
2496564907608357;0.0483;0.1000;0.0069;
2496564917716117;0.0100;0.0862;-0.0048;
2496564927823877;-0.0134;0.0340;-0.0165;
2496564937911325;-0.0081;0.1085;-0.0517;
2496564948019086;-0.0017;0.1085;-0.0836;
2496564958126846;-0.0305;-0.0097;-0.0858;
2496564968227523;-0.0092;0.0212;-0.0900;
2496564978335284;0.0473;0.0787;-0.1198;
2496564988443044;0.0419;0.0340;-0.1134;
2496564998527523;0.0260;-0.0459;-0.0879;
2496565008635284;0.0846;-0.0864;-0.0826;
2496565018743044;0.0995;-0.0896;-0.0740;
2496565028881638;0.0909;-0.1067;-0.0591;
2496565038989398;0.1016;-0.0779;-0.0517;
2496565049097159;0.1238;0.0233;-0.0644;
2496565059212627;0.1260;0.0137;-0.0495;
2496565069320388;0.0973;0.0063;-0.0378;
2496565079428148;0.1217;0.0361;-0.0304;
2496565089516794;0.1398;0.0031;-0.0410;
2496565099624555;0.1249;-0.0033;-0.0336;
2496565109732315;0.1133;0.0041;-0.0208;
2496565119844086;0.1101;0.0201;-0.0293;
2496565129951846;0.0867;0.0531;-0.0389;
2496565140059607;0.0686;-0.0076;-0.0293;
2496565150170127;0.0558;-0.0577;-0.0165;
2496565160277888;0.0675;-0.0459;-0.0282;
2496565170385648;0.0707;-0.0704;-0.0091;
2496565180481586;0.0909;-0.0683;0.0112;
2496565190589346;0.1069;-0.0268;0.0144;
2496565200697107;0.1016;0.0340;-0.0016;
2496565210815440;0.0952;0.0606;0.0144;
2496565220923200;0.0803;0.0265;0.0197;
2496565231030961;0.0984;0.0276;0.0059;
2496565241141586;0.0888;0.0350;-0.0027;
2496565251249346;0.0664;-0.0065;0.0101;
2496565261357107;0.0462;0.0265;0.0133;
2496565271462471;0.0398;0.0095;0.0112;
2496565281570232;0.0217;-0.0811;0.0176;
2496565291677992;0.0206;-0.1162;0.0059;
2496565301788044;0.0398;-0.1759;0.0005;
2496565311895805;0.0675;-0.1834;-0.0186;
2496565322003565;0.1154;-0.1130;0.0165;
2496565332114138;0.1451;-0.0417;0.0282;
2496565342221898;0.1601;0.0947;0.0272;
2496565352329659;0.1080;0.1277;0.0485;
2496565362434815;0.0313;0.0563;0.0730;
2496565372542575;0.0345;0.0542;0.0772;
2496565382650336;0.0547;0.0265;0.0666;
2496565392754242;0.0483;0.0329;0.0613;
2496565402862002;0.0409;0.0755;0.0218;
2496565412969763;0.0334;0.1032;-0.0059;
2496565423080023;-0.0134;0.1117;-0.0389;
2496565433187784;-0.0230;-0.0044;-0.0389;
2496565443295596;0.0281;-0.1077;-0.0463;
2496565453411221;0.1101;-0.0917;-0.0357;
2496565463518982;0.0803;-0.1567;0.0080;
2496565473626742;0.0718;-0.1716;0.0399;
2496565483731898;0.1345;-0.1312;0.0623;
2496565493839659;0.1462;-0.0939;0.0847;
2496565503947419;0.0909;-0.0257;0.0911;
2496565514047211;0.0909;-0.0023;0.0847;
2496565524154971;0.1186;0.0031;0.0644;
2496565534262732;0.1228;0.0766;0.0527;
2496565544367836;0.1016;0.1394;0.0634;
2496565554475596;0.0760;0.1873;0.0527;
2496565564583357;0.0409;0.1245;0.0474;
2496565574696065;0.0068;-0.0012;0.0623;
2496565584803825;0.0387;-0.0044;0.0613;
2496565594911586;0.0718;-0.0438;0.0655;
2496565605011742;0.0462;-0.0981;0.0804;
2496565615119502;0.0569;-0.0960;0.0868;
2496565625227263;0.0941;-0.0491;0.0858;
2496565635344398;0.1080;0.0126;0.0836;
2496565645452159;0.0846;0.0169;0.1134;
2496565655559919;0.0632;-0.0119;0.1337;
2496565665662627;0.0696;-0.0044;0.1369;
2496565675770388;0.0537;0.0073;0.1571;
2496565685878148;0.0206;0.0553;0.1646;
2496565695998877;0.0121;0.0372;0.1635;
2496565706106638;-0.0113;-0.0076;0.1667;
2496565716214398;-0.0305;0.0446;0.1571;
2496565726296482;-0.0465;0.0563;0.1465;
2496565736404242;-0.0603;0.0009;0.1475;
2496565746512002;-0.0497;-0.0278;0.1188;
2496565756640232;-0.0092;-0.0076;0.1369;
2496565766747992;-0.0379;0.0137;0.1230;
2496565776855752;-0.0305;-0.0097;0.1348;
2496565786956586;-0.0422;-0.0161;0.1401;
2496565797064346;-0.0390;-0.0065;0.1422;
2496565807172159;-0.0582;-0.0513;0.1486;
2496565817287211;-0.0752;-0.0289;0.1422;
2496565827395023;-0.0678;0.0297;0.1316;
2496565837502784;-0.0923;0.0222;0.1369;
2496565847619971;-0.1381;0.0073;0.1124;
2496565857727784;-0.1157;-0.0119;0.0911;
2496565867835544;-0.0912;-0.0332;0.0900;
2496565877919919;-0.0923;-0.0321;0.0815;
2496565888027680;-0.0795;-0.0289;0.0815;
2496565898135492;-0.0859;0.0095;0.0794;
2496565908310544;-0.0891;-0.0523;0.0975;
2496565918418357;-0.0912;-0.0843;0.0889;
2496565928526117;-0.0454;-0.0225;0.0847;
2496565938577784;-0.0401;0.0009;0.0911;
2496565948685596;-0.0710;0.0105;0.0889;
2496565958793357;-0.0795;0.0052;0.0783;
2496565968903982;-0.0593;0.0265;0.0804;
2496565979011794;-0.0529;0.0521;0.0602;
2496565989119555;-0.0582;0.0617;0.0634;
2496565999239711;-0.0848;0.0862;0.0687;
2496566009347523;-0.0923;0.0105;0.0794;
2496566019455284;-0.0742;-0.0545;0.0889;
2496566029543461;-0.0379;0.0126;0.0804;
2496566039651221;-0.0433;0.0489;0.0783;
2496566049759034;-0.0688;-0.0012;0.1028;
2496566059884607;-0.0561;-0.0395;0.0953;
2496566069992419;-0.0284;0.0084;0.0900;
2496566080100180;-0.0379;0.0361;0.0953;
2496566090202107;-0.0443;0.0052;0.0836;
2496566100309919;-0.0646;0.0702;0.0847;
2496566110417680;-0.0912;0.1107;0.0953;
2496566120513461;-0.1061;0.0457;0.1188;
2496566130621273;-0.1061;0.0372;0.1177;
2496566140729034;-0.1189;0.0414;0.1028;
2496566150843461;-0.1189;-0.0214;0.1071;
2496566160951273;-0.1168;-0.0672;0.1049;
2496566171059034;-0.0880;-0.0630;0.0751;
2496566181164919;-0.0550;-0.0204;0.0762;
2496566191272680;-0.0742;0.0190;0.0730;
2496566201380492;-0.0933;0.0489;0.0815;
2496566211489502;-0.1253;0.0190;0.0975;
2496566221597315;-0.1285;-0.0939;0.1177;
2496566231705075;-0.1008;-0.1003;0.1177;
2496566241810961;-0.0646;0.0318;0.1017;
2496566251918773;-0.0976;0.1000;0.1103;
2496566262026534;-0.1636;0.0840;0.0996;
2496566272140648;-0.2084;0.0627;0.0655;
2496566282248461;-0.1977;0.0915;0.0399;
2496566292356221;-0.1626;0.0691;0.0325;
2496566302469555;-0.1668;0.0009;0.0240;
2496566312577367;-0.1732;-0.0065;0.0176;
2496566322685127;-0.1498;-0.0300;0.0240;
2496566332795336;-0.1306;-0.0470;0.0325;
2496566342903148;-0.1210;0.0052;0.0229;
2496566353010909;-0.1242;-0.0182;0.0314;
2496566363111638;-0.1317;-0.0758;0.0293;
2496566373219450;-0.1029;-0.0715;0.0261;
2496566383327211;-0.0827;0.0084;0.0005;
2496566393425336;-0.1008;0.0648;0.0112;
2496566403533148;-0.1338;0.0542;0.0112;
2496566413640909;-0.1477;0.1021;-0.0016;
2496566423754815;-0.1541;0.0883;0.0027;
2496566433862627;-0.1807;-0.0055;0.0091;
2496566443970388;-0.1562;-0.0033;-0.0037;
2496566454088357;-0.0965;0.0467;-0.0112;
2496566464196169;-0.1328;0.0446;-0.0059;
2496566474303930;-0.1381;0.0126;-0.0048;
2496566484396482;-0.1157;0.0148;-0.0250;
2496566494504294;-0.0944;0.0265;-0.0314;
2496566504612055;-0.1210;-0.0214;-0.0144;
2496566514721065;-0.1168;-0.0129;-0.0165;
2496566524828877;-0.1360;-0.0214;-0.0101;
2496566534936638;-0.1360;-0.0555;-0.0016;
2496566545047836;-0.1136;0.0180;-0.0069;
2496566555155648;-0.1168;0.0872;-0.0016;
2496566565263409;-0.1477;0.0691;0.0016;
2496566575368461;-0.1658;0.0254;0.0037;
2496566585476221;-0.1541;0.0169;-0.0069;
2496566595584034;-0.1136;0.0595;-0.0293;
2496566605690023;-0.1317;0.0084;-0.0133;
2496566615797836;-0.1519;-0.0055;-0.0272;
2496566625905596;-0.1402;0.0254;-0.0442;
2496566636015232;-0.1541;-0.0214;-0.0368;
2496566646122992;-0.1157;0.0052;-0.0410;
2496566656230805;-0.1242;0.0244;-0.0325;
2496566666337419;-0.1360;-0.0214;-0.0197;
2496566676445180;-0.1338;-0.0854;-0.0080;
2496566686552992;-0.1115;-0.0832;-0.0261;
2496566696684502;-0.0859;0.0031;-0.0538;
2496566706792315;-0.1306;0.0201;-0.0378;
2496566716900075;-0.1445;0.0723;-0.0549;
2496566727013044;-0.1551;0.1266;-0.0676;
2496566737120857;-0.1743;0.0553;-0.0581;
2496566747228617;-0.1519;0.0233;-0.0634;
2496566757307888;-0.1157;0.0286;-0.0730;
2496566767415700;-0.1168;0.0158;-0.0676;
2496566777523461;-0.1157;0.0180;-0.0676;
2496566787690023;-0.1083;0.0489;-0.0772;
2496566797797940;-0.1115;0.0691;-0.1177;
2496566807905857;-0.1253;-0.0001;-0.1166;
2496566817950023;-0.1242;-0.0065;-0.1198;
2496566828057940;-0.1061;0.0190;-0.1188;
2496566838165857;-0.1381;-0.0236;-0.1039;
2496566848325127;-0.1146;-0.0214;-0.1092;
2496566858433044;-0.1157;0.0126;-0.1198;
2496566868540961;-0.1253;0.0372;-0.1262;
2496566878597784;-0.1274;0.0116;-0.1177;
2496566888705700;-0.1115;-0.0129;-0.1262;
2496566898813617;-0.0859;0.0308;-0.1582;
2496566908921482;-0.1040;0.0563;-0.1529;
2496566919029398;-0.1264;0.0798;-0.1550;
2496566929137315;-0.1232;0.0670;-0.1614;
2496566939265857;-0.1423;-0.0044;-0.1646;
2496566949373773;-0.0955;-0.0278;-0.1784;
2496566959481690;-0.0774;-0.0161;-0.1869;
2496566969579190;-0.0806;0.0020;-0.1891;
2496566979687107;-0.0827;-0.0012;-0.1763;
2496566989795023;-0.0784;0.0095;-0.1795;
2496566999887419;-0.0720;0.0169;-0.2083;
2496567009995336;-0.0742;-0.0172;-0.2083;
2496567020103252;-0.0699;-0.0214;-0.2051;
2496567030228877;-0.0252;0.0276;-0.2189;
2496567040336794;-0.0422;0.0563;-0.2125;
2496567050444711;-0.0933;0.0691;-0.2136;
2496567060552627;-0.0667;0.0382;-0.2264;
2496567070660544;-0.0688;-0.0012;-0.2328;
2496567080768461;-0.0539;-0.0427;-0.2328;
2496567090878877;-0.0326;-0.0566;-0.2359;
2496567100986794;-0.0134;-0.0790;-0.2509;
2496567111094711;0.0260;-0.0779;-0.2624;
2496567121197836;0.0835;-0.0182;-0.2562;
2496567131305752;0.1186;0.0308;-0.2487;
2496567141413669;0.0473;0.0095;-0.2274;
2496567151536690;-0.0433;-0.0364;-0.2104;
2496567161644607;0.0153;-0.0513;-0.2136;
2496567171752523;0.1080;-0.0044;-0.2274;
2496567181849607;0.1409;0.0382;-0.2274;
2496567191957523;0.0728;0.0595;-0.2168;
2496567202065440;0.0292;0.0776;-0.2264;
2496567212180023;0.0579;0.0563;-0.2487;
2496567222287940;0.0739;0.0723;-0.2423;
2496567232395857;0.0601;0.0457;-0.2413;
2496567242496377;0.0451;-0.0768;-0.2136;
2496567252604294;0.0569;-0.0896;-0.2157;
2496567262712211;0.1494;-0.0513;-0.2189;
2496567272818305;0.1750;-0.0097;-0.2168;
2496567282926221;0.1144;0.0254;-0.1838;
2496567293034138;0.0569;-0.0161;-0.1731;
2496567303141898;0.0835;-0.0598;-0.1742;
2496567313249815;0.0920;-0.0758;-0.1848;
2496567323357732;0.1133;-0.0427;-0.1816;
2496567333479398;0.1334;-0.0268;-0.1720;
2496567343587315;0.0909;0.0063;-0.1688;
2496567353695232;0.0526;0.0510;-0.1806;
2496567363785023;0.0611;0.0158;-0.1923;
2496567373892940;0.0398;-0.0619;-0.1976;
2496567384000857;0.0941;-0.1184;-0.1848;
2496567394099242;0.1334;-0.0917;-0.1891;
2496567404207159;0.1824;-0.0289;-0.1848;
2496567414315075;0.2197;0.0254;-0.1838;
2496567424431377;0.1877;0.1128;-0.1688;
2496567434539294;0.1356;0.1053;-0.1582;
2496567444647159;0.0995;0.0531;-0.1582;
2496567454754815;0.0952;0.0563;-0.1614;
2496567464862732;0.1324;0.0372;-0.1763;
2496567474970648;0.1526;0.0329;-0.1944;
2496567485092627;0.1611;0.0680;-0.2072;
2496567495200544;0.1281;0.0563;-0.2146;
2496567505308461;0.1334;-0.0172;-0.2146;
2496567515389711;0.1441;-0.0885;-0.2264;
2496567525497627;0.1867;-0.0609;-0.2072;
2496567535605544;0.1920;-0.0864;-0.1784;
2496567545728044;0.1601;-0.0917;-0.1710;
2496567555835961;0.1686;-0.0449;-0.1731;
2496567565943877;0.1888;-0.0417;-0.1774;
2496567576047002;0.2005;-0.0278;-0.1923;
2496567586154919;0.2293;-0.0108;-0.1965;
2496567596262836;0.2634;0.0489;-0.1880;
2496567606355857;0.2889;0.0563;-0.1827;
2496567616463773;0.2964;0.0372;-0.1795;
2496567626571690;0.3102;0.0787;-0.1603;
2496567636694398;0.2932;0.0297;-0.1411;
2496567646802315;0.2591;-0.0055;-0.1273;
2496567656910232;0.2943;0.0020;-0.1252;
2496567667013877;0.3422;-0.0236;-0.1177;
2496567677121794;0.3379;-0.0406;-0.1145;
2496567687229711;0.3816;-0.0289;-0.0879;
2496567697354086;0.4242;0.0095;-0.0613;
2496567707462002;0.4200;-0.0278;-0.0091;
2496567717569919;0.4200;-0.0736;0.0176;
2496567727684502;0.4722;-0.0470;0.0506;
2496567737792419;0.4690;-0.0875;0.1039;
2496567747900336;0.4296;-0.0523;0.1401;
2496567757986690;0.4338;0.0212;0.1390;
2496567768094607;0.4061;0.0180;0.1635;
2496567778202523;0.3411;0.0350;0.1848;
2496567788311898;0.3134;0.0712;0.2072;
2496567798419711;0.3071;0.0446;0.2242;
2496567808527471;0.3060;-0.0012;0.2754;
2496567818629919;0.2857;0.0712;0.2839;
2496567828737732;0.2676;0.1341;0.2924;
2496567838845492;0.2080;0.0989;0.3052;
2496567848948148;0.1718;0.1522;0.3116;
2496567859055961;0.1101;0.1746;0.2945;
2496567869163721;0.0494;0.1138;0.2924;
2496567879278721;0.0057;0.0521;0.2881;
2496567889386534;0.0164;0.0265;0.2935;
2496567899494294;0.0174;0.0478;0.2881;
2496567909619607;0.0174;-0.0204;0.2988;
2496567919727419;-0.0092;-0.0449;0.2924;
2496567929835180;0.0377;-0.0470;0.3095;
2496567939917836;0.0430;-0.0470;0.3169;
2496567950025648;0.0249;-0.0087;0.3180;
2496567960133409;0.0153;-0.0172;0.3084;
2496567970254502;0.0164;-0.0385;0.3126;
2496567980362315;0.0196;-0.0385;0.3031;
2496567990470075;0.0377;-0.0055;0.2913;
2496568000574555;0.0441;-0.0150;0.2956;
2496568010682367;0.0451;-0.0225;0.3148;
2496568020790127;0.0664;0.0467;0.2935;
2496568030908461;0.0643;0.0542;0.3105;
2496568041016273;0.0153;0.0212;0.3244;
2496568051124034;-0.0113;0.0382;0.3063;
2496568061227627;-0.0177;0.0254;0.2924;
2496568071335440;-0.0390;-0.0182;0.2903;
2496568081443200;-0.0497;-0.0268;0.2860;
2496568091557419;-0.0390;0.0126;0.2786;
2496568101665232;-0.0571;-0.0236;0.2828;
2496568111772992;-0.0891;-0.0555;0.2988;
2496568121875440;-0.0774;-0.0513;0.2818;
2496568131983252;-0.0550;-0.0885;0.3105;
2496568142091013;-0.0901;-0.0545;0.3137;
2496568152199138;-0.0784;0.0372;0.2988;
2496568162306950;-0.1445;0.0702;0.2967;
2496568172414711;-0.2851;0.0393;0.3158;
2496568182500232;-0.3415;0.0329;0.2849;
2496568192608044;-0.2840;0.0585;0.2551;
2496568202715805;-0.2893;0.0372;0.2370;
2496568212844815;-0.3288;0.0648;0.2168;
2496568222952627;-0.3288;0.0947;0.1933;
2496568233060388;-0.3660;0.0659;0.1816;
2496568243174294;-0.3735;0.0467;0.1529;
2496568253282107;-0.3149;0.0574;0.1177;
2496568263389867;-0.3362;0.0020;0.1156;
2496568273493252;-0.3341;-0.0907;0.1145;
2496568283601065;-0.2169;-0.0417;0.0932;
2496568293708825;-0.1477;0.0148;0.0996;
2496568303819971;-0.2116;-0.0172;0.1081;
2496568313927784;-0.1988;-0.0278;0.1007;
2496568324035544;-0.1711;-0.0683;0.1028;
2496568334144138;-0.1274;-0.0598;0.1060;
2496568344251950;-0.0656;-0.0001;0.0804;
2496568354359711;-0.0774;0.0350;0.0783;
2496568364468252;-0.1445;0.0276;0.0943;
2496568374576065;-0.1487;0.0137;0.1113;
2496568384683825;-0.1253;0.0542;0.0975;
2496568394777002;-0.1402;0.0222;0.1049;
2496568404884815;-0.1679;-0.0236;0.1273;
2496568414992575;-0.1615;-0.0236;0.1124;
2496568425107107;-0.1402;-0.0545;0.0975;
2496568435214919;-0.1264;-0.0310;0.0964;
2496568445322680;-0.0848;0.0606;0.0698;
2496568455445752;-0.1200;0.1032;0.0613;
2496568465553565;-0.2137;0.0265;0.0975;
2496568475661325;-0.2244;-0.0193;0.0996;
2496568485747627;-0.1583;0.0190;0.0911;
2496568495855440;-0.1583;-0.0172;0.1028;
2496568505963200;-0.1903;-0.0172;0.1177;
2496568516097627;-0.1700;0.0244;0.0847;
2496568526205440;-0.1818;0.0830;0.0804;
2496568536313200;-0.2126;0.1341;0.0602;
2496568546398305;-0.2585;0.1192;0.0442;
2496568556506117;-0.3650;0.0329;0.0346;
2496568566613877;-0.3650;-0.0523;0.0261;
2496568576722888;-0.2499;-0.0289;0.0037;
2496568586830700;-0.2095;-0.0161;-0.0229;
2496568596938461;-0.2478;-0.0278;-0.0165;
2496568607078773;-0.2340;0.0169;-0.0240;
2496568617186586;-0.2105;-0.0023;-0.0453;
2496568627294346;-0.2286;-0.0278;-0.0389;
2496568637364086;-0.2031;-0.0268;-0.0602;
2496568647471898;-0.1935;-0.0300;-0.0794;
2496568657579659;-0.2137;-0.0193;-0.0964;
2496568667687002;-0.1850;0.0073;-0.1060;
2496568677794815;-0.1764;0.0340;-0.1241;
2496568687902575;-0.1764;0.0308;-0.1348;
2496568698023877;-0.1807;0.0563;-0.1230;
2496568708131638;-0.1807;0.0126;-0.1422;
2496568718239450;-0.1658;-0.0619;-0.1646;
2496568728335700;-0.1104;-0.0310;-0.1624;
2496568738443513;-0.0518;0.0489;-0.2019;
2496568748551273;-0.0656;0.0734;-0.2114;
2496568758673877;-0.1402;0.0148;-0.1880;
2496568768781690;-0.0848;0.0137;-0.1997;
2496568778889450;0.0025;0.0329;-0.2104;
2496568788980752;-0.0124;0.0190;-0.1912;
2496568799088565;-0.0369;-0.0055;-0.1710;
2496568809196325;0.0079;-0.0278;-0.1784;
2496568819330857;0.0398;0.0510;-0.1901;
2496568829438669;0.0281;0.0947;-0.1933;
2496568839546430;-0.0348;0.0893;-0.2008;
2496568849654815;-0.0774;0.0627;-0.1997;
2496568859762627;-0.0518;0.0329;-0.1944;
2496568869870388;-0.0390;0.0510;-0.2125;
2496568879955440;-0.0443;0.0222;-0.2029;
2496568890063252;-0.0603;0.0116;-0.1901;
2496568900171013;-0.0284;-0.0023;-0.1859;
2496568910279971;-0.0337;-0.0300;-0.2029;
2496568920387784;-0.0124;0.0063;-0.2104;
2496568930495544;0.0015;0.0190;-0.2178;
2496568940609607;-0.0348;0.0052;-0.2178;
2496568950717419;-0.0454;-0.0310;-0.2210;
2496568960825180;-0.0220;-0.0502;-0.2242;
2496568970930857;-0.0188;-0.0875;-0.2253;
2496568981038669;-0.0060;-0.1088;-0.2157;
2496568991146430;0.0185;-0.0758;-0.2157;
2496569001252002;0.0601;-0.0971;-0.1976;
2496569011359815;0.0675;-0.0385;-0.2072;
2496569021467575;0.0792;0.0350;-0.2019;
2496569031577732;0.0377;0.0244;-0.2051;
2496569041685544;-0.0049;0.0063;-0.1987;
2496569051793305;0.0142;0.0180;-0.2093;
2496569061903982;0.0356;0.0318;-0.2306;
2496569072011794;0.0537;0.0276;-0.2285;
2496569082119555;0.0430;0.0819;-0.2189;
2496569092231482;0.0515;0.0585;-0.2114;
2496569102339294;0.0483;0.0095;-0.2285;
2496569112447055;0.0835;0.0137;-0.2359;
2496569122553565;0.1217;0.0063;-0.2114;
2496569132661377;0.1144;0.0169;-0.2146;
2496569142769138;0.0888;0.0169;-0.2136;
2496569152890648;0.0995;0.0009;-0.2104;
2496569162998461;0.1324;-0.0161;-0.2157;
2496569173106221;0.1494;-0.0012;-0.1997;
2496569183212523;0.1398;0.0244;-0.1731;
2496569193320336;0.1430;-0.0076;-0.1539;
2496569203428096;0.1451;0.0116;-0.1688;
2496569213521065;0.1494;0.0510;-0.1635;
2496569223628877;0.1228;0.0553;-0.1816;
2496569233736638;0.1112;0.0340;-0.1816;
2496569243845023;0.0952;-0.0001;-0.1912;
2496569253952836;0.1059;-0.0385;-0.1997;
2496569264060596;0.1133;-0.1003;-0.2040;
2496569274173721;0.1419;-0.0811;-0.1944;
2496569284281534;0.1569;-0.0854;-0.1859;
2496569294389294;0.1675;-0.1301;-0.1635;
2496569304494555;0.2101;-0.0662;-0.1795;
2496569314602367;0.2730;0.0148;-0.1614;
2496569324710127;0.2272;0.0297;-0.1593;
2496569334823982;0.1664;0.0105;-0.1454;
2496569344931794;0.1792;0.0563;-0.1539;
2496569355039555;0.2250;0.0787;-0.1561;
2496569365137732;0.1952;0.1170;-0.1603;
2496569375245544;0.1526;0.1117;-0.1624;
2496569385353305;0.1643;0.0116;-0.1486;
2496569395453148;0.1824;-0.0055;-0.1806;
2496569405560961;0.2059;0.0041;-0.1880;
2496569415668721;0.2069;-0.0534;-0.1774;
2496569425781482;0.2218;-0.0683;-0.1624;
2496569435889294;0.2325;-0.0427;-0.1646;
2496569445997055;0.2623;-0.0577;-0.1390;
2496569456105752;0.2730;-0.0790;-0.1092;
2496569466213565;0.2921;-0.0768;-0.0794;
2496569476321325;0.3145;-0.0619;-0.0591;
2496569486437211;0.3252;0.0031;-0.0538;
2496569496545023;0.2964;0.0830;-0.0719;
2496569506652784;0.2836;0.1128;-0.0549;
2496569516758877;0.2655;0.0957;-0.0719;
2496569526866690;0.2698;0.1000;-0.0815;
2496569536974450;0.2474;0.0989;-0.0698;
2496569547077002;0.2218;0.0095;-0.0538;
2496569557184815;0.2037;-0.0065;-0.0538;
2496569567292575;0.2048;0.0073;-0.0485;
2496569577400752;0.2048;-0.0683;-0.0293;
2496569587508565;0.2122;-0.0704;-0.0442;
2496569597616325;0.2378;0.0041;-0.0325;
2496569607731742;0.2208;0.0105;-0.0091;
2496569617839555;0.2378;-0.0182;0.0080;
2496569627947315;0.2304;0.0372;0.0059;
2496569638072523;0.2272;0.0382;0.0080;
2496569648180336;0.2037;0.0276;0.0154;
2496569658288096;0.2091;0.0574;0.0123;
2496569668365127;0.2048;0.0606;0.0186;
2496569678472940;0.2101;0.0808;0.0154;
2496569688580700;0.2048;0.0766;-0.0240;
2496569698728357;0.2005;-0.0044;-0.0123;
2496569708836169;0.2037;-0.0438;-0.0016;
2496569718943930;0.2122;-0.0044;-0.0123;
2496569729031950;0.2005;-0.0172;-0.0037;
2496569739139763;0.1941;-0.0438;0.0176;
2496569749247523;0.1941;0.0233;0.0229;
2496569759364867;0.1888;0.0254;0.0357;
2496569769472680;0.1973;-0.0108;0.0442;
2496569779580440;0.1931;-0.0257;0.0165;
2496569789675232;0.2059;0.0148;0.0112;
2496569799783096;0.1899;0.0638;0.0091;
2496569809890909;0.1867;0.1107;-0.0059;
2496569819995648;0.1750;0.1096;-0.0080;
2496569830103513;0.1771;0.0148;0.0016;
2496569840211325;0.1835;-0.0119;0.0059;
2496569850336065;0.1782;0.0031;0.0304;
2496569860443930;0.1398;-0.0225;0.0368;
2496569870551742;0.1387;-0.0609;0.0304;
2496569880638357;0.1632;-0.0374;-0.0016;
2496569890746221;0.1856;0.0148;0.0027;
2496569900854034;0.1792;-0.0161;0.0027;
2496569910957836;0.1920;-0.0044;0.0101;
2496569921065700;0.1877;0.0063;0.0250;
2496569931173513;0.1707;0.0063;0.0378;
2496569941286794;0.1675;-0.0065;0.0495;
2496569951394659;0.1632;-0.0055;0.0698;
2496569961502471;0.1728;0.0244;0.0644;
2496569971616065;0.1558;0.0350;0.0410;
2496569981723930;0.1579;0.0595;0.0176;
2496569991831742;0.1803;-0.0087;0.0325;
2496570001934815;0.1696;0.0531;0.0357;
2496570012042680;0.1718;0.0968;0.0240;
2496570022150492;0.1483;-0.0342;0.0613;
2496570032264294;0.1494;-0.0214;0.0623;
2496570042372159;0.1611;0.0009;0.0740;
2496570052479971;0.1526;-0.0417;0.0868;
2496570062584086;0.1707;-0.0768;0.0836;
2496570072691950;0.1622;-0.0523;0.0751;
2496570082799763;0.1856;0.0435;0.0740;
2496570092917419;0.1760;0.0617;0.0676;
2496570103025284;0.1473;0.0041;0.0900;
2496570113133096;0.1483;-0.0246;0.0996;
2496570123245544;0.1398;0.0095;0.0964;
2496570133353409;0.1334;-0.0225;0.1060;
2496570143461221;0.1281;-0.0427;0.1209;
2496570153560961;0.1515;0.0084;0.1177;
2496570163668825;0.1366;0.0308;0.0932;
2496570173776638;0.1377;0.0361;0.0953;
2496570183893461;0.1430;-0.0023;0.1124;
2496570194001325;0.1483;0.0276;0.1092;
2496570204109138;0.1398;0.0414;0.1188;
2496570214215752;0.1208;-0.0065;0.1326;
2496570224323617;0.1154;-0.0204;0.1284;
2496570234431430;0.1366;-0.0001;0.1379;
2496570244527471;0.1324;0.0190;0.1475;
2496570254635336;0.1345;0.0201;0.1411;
2496570264743148;0.1249;0.0435;0.1220;
2496570274848461;0.1176;0.0308;0.1305;
2496570284956325;0.1249;0.0403;0.1326;
2496570295064138;0.1302;0.0212;0.1465;
2496570305172419;0.0995;0.0201;0.1624;
2496570315280284;0.0718;0.0222;0.1486;
2496570325388096;0.0973;-0.0268;0.1582;
2496570335491377;0.1016;-0.0108;0.1752;
2496570345599242;0.0984;0.0137;0.1806;
2496570355707055;0.0856;0.0063;0.1486;
2496570365792940;0.1048;0.0137;0.1582;
2496570375900805;0.0984;0.0467;0.1646;
2496570386008617;0.0941;0.1128;0.1475;
2496570396141273;0.0696;0.0787;0.1635;
2496570406249138;0.0164;-0.0129;0.1667;
2496570416356950;0.0462;-0.0438;0.1646;
2496570426461221;0.0899;-0.0012;0.1624;
2496570436569086;0.0760;-0.0023;0.1646;
2496570446676898;0.0622;-0.0193;0.1710;
2496570456782523;0.0728;-0.0055;0.1752;
2496570466890388;0.0718;-0.0257;0.2040;
2496570476998200;0.0494;-0.0491;0.1869;
2496570487095857;0.0643;-0.0864;0.2040;
2496570497203721;0.0313;-0.0768;0.2210;
2496570507311534;0.0356;-0.0598;0.2125;
2496570517452471;0.0398;-0.0278;0.2274;
2496570527560336;0.0111;0.0467;0.2306;
2496570537668148;-0.0209;0.0414;0.2423;
2496570547750023;-0.0678;0.0095;0.2189;
2496570557857888;-0.0731;0.0457;0.2189;
2496570567965700;-0.0987;0.0755;0.2072;
2496570578079294;-0.1338;0.0723;0.1933;
2496570588187159;-0.1924;0.0361;0.1806;
2496570598294971;-0.2233;-0.0012;0.1593;
