Sensor: bmi160 Accelerometer Non-wakeup
Vendor: BOSCH
TimestampAcc [ns]; AccX [m/s^2]; AccY [m/s^2]; AccZ [m/s^2]
1789754998144636;-9.5438;-0.4705;-2.0955;
1789755008314792;-9.5219;-0.5183;-1.9923;
1789755018393281;-9.5462;-0.4107;-1.9181;
1789755028555886;-9.4837;-0.4346;-1.8751;
1789755038634375;-9.5028;-0.4394;-1.9540;
1789755048751042;-9.5315;-0.4298;-2.1123;
1789755058829531;-9.5291;-0.4083;-2.1936;
1789755068989063;-9.5219;-0.3556;-2.2510;
1789755079091979;-9.4789;-0.3099;-2.2271;
1789755089165521;-9.4525;-0.2740;-2.1242;
1789755099290990;-9.4860;-0.2596;-2.0545;
1789755109387448;-9.4789;-0.2285;-2.0836;
1789755119446667;-9.5100;-0.2285;-2.1721;
1789755129597083;-9.5195;-0.2596;-2.2463;
1789755139680156;-9.4717;-0.3075;-2.3157;
1789755149824167;-9.4549;-0.3242;-2.3133;
1789755159882448;-9.4645;-0.3290;-2.2726;
1789755170003281;-9.4693;-0.3556;-2.1864;
1789755180082240;-9.4980;-0.3652;-2.1338;
1789755190193386;-9.5100;-0.3485;-2.1434;
1789755200305990;-9.4884;-0.3987;-2.1745;
1789755210391927;-9.4669;-0.4155;-2.2415;
1789755220530156;-9.4813;-0.4226;-2.2271;
1789755230602240;-9.4932;-0.4442;-2.1960;
1789755240713490;-9.4908;-0.4633;-2.1458;
1789755250795833;-9.4884;-0.4896;-2.1003;
1789755260901458;-9.4884;-0.5136;-2.0716;
1789755271019948;-9.4884;-0.5447;-2.0258;
1789755281111094;-9.5219;-0.5614;-2.0644;
1789755291206875;-9.5124;-0.6144;-2.1482;
1789755301337656;-9.4693;-0.7292;-2.2199;
1789755311414375;-9.4837;-0.8417;-2.2510;
1789755321523073;-9.4765;-0.9473;-2.2487;
1789755331622552;-9.4932;-1.1076;-2.1625;
1789755341722396;-9.5390;-1.3878;-2.0234;
1789755351828594;-9.5510;-1.7330;-1.9995;
1789755361934844;-9.5243;-2.0492;-2.0258;
1789755372039948;-9.5004;-2.2672;-2.2367;
1789755382133490;-9.4454;-2.3964;-2.5193;
1789755392237031;-9.3688;-2.3390;-2.7446;
1789755402347761;-9.3855;-2.1808;-2.6273;
1789755412438906;-9.4813;-2.0468;-2.4141;
1789755422541094;-9.5366;-2.0300;-2.1529;
1789755432649427;-9.5028;-2.1185;-2.0740;
1789755442747969;-9.4454;-2.1927;-2.2319;
1789755452853906;-9.3544;-2.3031;-2.4141;
1789755462951302;-9.3066;-2.2911;-2.6704;
1789755473066615;-9.3353;-2.2265;-2.7852;
1789755483160990;-9.3305;-2.1808;-2.8741;
1789755493265156;-9.2656;-2.0970;-2.9554;
1789755503361250;-9.2201;-2.0420;-2.9243;
1789755513459167;-9.2082;-1.9750;-2.7015;
1789755523565052;-9.2779;-1.9005;-2.4308;
1789755533674531;-9.3138;-1.8263;-2.2822;
1789755543775781;-9.3592;-1.5867;-2.4691;
1789755553892240;-9.3305;-1.3807;-2.7422;
1789755563976198;-9.2297;-1.3232;-2.8355;
1789755574079323;-9.1508;-1.0765;-2.9172;
1789755584194948;-9.1460;-0.8177;-2.8570;
1789755594278750;-9.1340;-0.5542;-2.6465;
1789755604391615;-9.1149;-0.1902;-2.6249;
1789755614481823;-9.1196;0.0398;-2.6656;
1789755624587865;-9.1053;0.2722;-2.7374;
1789755634672031;-9.1244;0.4783;-2.7996;
1789755644791927;-9.1723;0.5931;-2.8164;
1789755654896511;-9.1986;0.9667;-2.7206;
1789755664997083;-9.0526;1.1608;-2.7709;
1789755675118802;-9.0072;1.1919;-2.9722;
1789755685197969;-8.9901;1.3789;-3.0009;
1789755695304636;-9.0670;1.5033;-2.9650;
1789755705409948;-9.2513;1.5993;-2.9219;
1789755715527240;-9.1531;1.8051;-2.7589;
1789755725615156;-8.9662;1.9083;-2.7039;
1789755735710156;-9.0933;1.8604;-2.8331;
1789755745813281;-9.1866;1.9513;-2.9243;
1789755755935365;-9.2513;2.1861;-3.0583;
1789755766022031;-9.2560;2.3345;-3.3314;
1789755776122969;-9.1555;2.5717;-3.4633;
1789755786227240;-8.8872;2.8881;-3.1181;
1789755796312292;-8.6955;2.9504;-2.7087;
1789755806435573;-8.6453;3.1011;-3.2668;
1789755816530990;-9.1531;2.7036;-3.4561;
1789755826645677;-9.8767;2.9097;-4.0621;
1789755836739740;-8.8825;3.5755;-4.7665;
1789755846837656;-8.3794;3.0365;-3.6332;
1789755856953802;-8.8155;2.6342;-3.3482;
1789755867025833;-9.1938;3.3048;-4.7474;
1789755877140886;-8.6883;3.3479;-3.6141;
1789755887254427;-8.7844;3.3766;-3.1615;
1789755897353490;-9.5243;3.5946;-3.9087;
1789755907443490;-9.4813;3.0652;-3.5710;
1789755917537604;-9.2369;2.1191;-3.0033;
1789755927654740;-9.3688;1.5344;-3.3075;
1789755937757656;-8.9016;1.4889;-3.5423;
1789755947854219;-8.4272;1.4961;-3.9182;
1789755957961406;-8.5232;1.4363;-4.2682;
1789755968056250;-8.5735;1.2613;-3.5806;
1789755978166250;-9.2369;1.3884;-3.1831;
1789755988271823;-9.6897;1.9705;-4.2323;
1789755998380573;-9.7472;2.4592;-4.5891;
1789756008469323;-8.7628;2.2005;-2.8594;
1789756018560729;-7.8882;2.0662;-2.5146;
1789756028661354;-9.5916;2.9551;-4.2610;
1789756038768906;-10.0179;3.3096;-4.2993;
1789756048875469;-8.9686;2.9049;-3.7292;
1789756058985677;-8.9566;2.8017;-4.0693;
1789756069143177;-8.0943;2.1263;-3.6356;
1789756079188802;-7.7877;1.6041;-3.6021;
1789756089273333;-8.9160;1.9561;-3.8154;
1789756099399636;-10.4013;2.4784;-3.0894;
1789756109519011;-9.7998;2.9121;-3.4298;
1789756119610781;-9.4143;3.0413;-5.4251;
1789756129753281;-9.6730;1.8652;-4.6872;
1789756139791458;-8.4730;1.0364;-1.4533;
1789756149889115;-6.7768;1.8580;-1.3528;
1789756159986719;-8.2765;2.8208;-4.6298;
1789756170092396;-11.0336;2.1598;-5.6408;
1789756180190052;-11.6758;1.4818;-3.7340;
1789756190287708;-9.2850;1.8772;-2.5481;
1789756200401615;-7.5529;3.0006;-3.3051;
1789756210499271;-7.0116;2.9504;-3.5255;
1789756220596875;-7.8787;2.2938;-3.0440;
1789756230712865;-9.2130;2.2914;-2.7996;
1789756240810521;-11.2325;2.6581;-3.4777;
1789756250908125;-11.4984;2.7347;-3.9640;
1789756261024115;-8.9160;2.5071;-3.6332;
1789756271121771;-7.9265;2.5860;-3.3984;
1789756281219375;-9.3090;2.3106;-3.2237;
1789756291332240;-8.4224;1.8532;-2.2343;
1789756301429896;-8.4464;2.3034;-3.3051;
1789756311527500;-9.0550;3.0006;-5.2744;
1789756321640156;-8.9112;2.2172;-3.5040;
1789756331737813;-8.8322;1.9202;-2.3133;
1789756341835417;-9.5291;2.5047;-3.8680;
1789756351933542;-11.4936;2.8591;-5.3725;
1789756362031198;-10.7222;1.7931;-3.2524;
1789756372128802;-7.2679;1.4961;-1.7551;
1789756382242969;-6.6093;2.2196;-2.5720;
1789756392340625;-8.6118;2.0590;-2.8594;
1789756402438229;-9.6897;1.1010;-2.3228;
1789756412557240;-9.7065;1.0747;-3.7172;
1789756422654896;-10.2526;1.5586;-5.5570;
1789756432752500;-8.7556;0.9236;-4.2419;
1789756442863698;-8.6070;0.5142;-2.6632;
1789756452961302;-8.0201;0.8160;-2.8211;
1789756463058958;-5.9384;1.0723;-2.5217;
1789756473173386;-7.1818;1.6352;-3.5064;
1789756483271042;-9.7137;3.0796;-6.7235;
1789756493368646;-11.3665;3.3096;-7.6026;
1789756503464792;-11.0647;3.2019;-7.8159;
1789756513562396;-11.2397;1.1082;-7.4303;
1789756523660052;-7.9122;-1.9798;-4.1315;
1789756533789011;-6.8294;-2.7894;-2.0812;
1789756543886667;-6.4080;-1.5293;-0.9311;
1789756553984271;-6.2306;0.4229;-0.1358;
1789756564095573;-8.7891;2.0904;-2.3925;
1789756574193229;-13.3765;1.4100;-4.7833;
1789756584290833;-13.1536;-0.7531;-4.9412;
1789756594380938;-8.7604;-1.6442;-3.7651;
1789756604478594;-6.0607;-1.7833;-2.2845;
1789756614576250;-6.7241;-1.3854;-2.6417;
1789756624697865;-6.3912;-0.2716;-3.4585;
1789756634795521;-9.0742;1.5706;-5.6216;
1789756644893125;-11.7428;2.1718;-5.9569;
1789756655011198;-10.3654;1.6807;-4.2730;
1789756665108906;-8.8944;2.0904;-3.4202;
1789756675206458;-7.9962;2.3417;-2.4165;
1789756685324011;-7.7303;2.3468;-0.8880;
1789756695421667;-8.4105;2.0833;-1.4629;
1789756705519271;-11.1583;2.5071;-5.7221;
1789756715614427;-12.2001;1.4148;-5.1353;
1789756725712083;-8.1685;-0.1711;1.8882;
1789756735809688;-8.4153;1.4506;-0.3227;
1789756745929219;-12.7128;1.4028;-5.5929;
1789756756026875;-11.3641;-0.4442;-1.3600;
1789756766124479;-8.1876;0.3296;1.5051;
1789756776236511;-8.4730;0.2794;-1.1994;
1789756786334167;-8.4634;-1.4480;-1.5422;
1789756796431771;-10.5473;-2.5546;-0.0712;
1789756806543281;-10.9451;-3.8937;0.0173;
1789756816640938;-9.6849;-4.5715;-1.2858;
1789756826738542;-10.0514;-3.0936;-1.8176;
1789756836845469;-9.7519;-2.5068;-1.2739;
1789756846943125;-10.6720;-3.3165;-2.0521;
1789756857040729;-9.4956;-3.1391;-1.1946;
1789756867170625;-8.2837;-1.6705;-1.6355;
1789756877268281;-9.7783;-1.5461;-3.4585;
1789756887365938;-10.9283;-2.7894;-2.2367;
1789756897467969;-10.7677;-2.3725;-1.9445;
1789756907565625;-10.3268;-0.5997;-1.1013;
1789756917663229;-7.7686;-0.9568;-0.7397;
1789756927764740;-10.9331;-1.0502;-4.1148;
1789756937862396;-10.4372;-0.4801;-3.2524;
1789756947960000;-9.2393;-0.1424;-0.2605;
1789756958077761;-9.0431;0.4612;-1.6068;
1789756968175469;-8.4607;0.7080;-2.8451;
1789756978273073;-9.6515;1.2422;-3.0272;
1789756988372031;-9.2584;1.1010;-2.0210;
1789756998469688;-8.7051;0.5094;-2.6130;
1789757008567292;-9.4980;1.1058;-4.1578;
1789757018675990;-9.5195;0.7513;-3.3386;
1789757028773646;-9.0287;0.7848;-2.3399;
1789757038871250;-8.8729;0.9332;-1.7312;
1789757048999740;-9.2273;0.5166;-2.0139;
1789757059097396;-10.0732;0.1570;-3.6885;
1789757069195000;-10.2168;0.3727;-4.0932;
1789757079283021;-7.6152;0.1666;-2.0812;
1789757089380677;-8.4033;-0.3413;-2.3013;
1789757099478281;-10.3367;-0.5279;-2.6106;
1789757109620052;-8.7099;-0.6407;-3.3936;
1789757119717708;-9.1603;-0.1161;-5.4347;
1789757129815365;-8.0680;0.2913;-4.4596;
1789757139903958;-8.4081;-0.8058;-2.9674;
1789757150001615;-9.6515;-2.9234;-3.0607;
1789757160099219;-9.8623;-2.6719;-3.2309;
1789757170222917;-10.1426;-1.5628;-2.2606;
1789757180320573;-8.9255;-1.9077;-2.0210;
1789757190418177;-6.6165;-2.1090;-3.1831;
1789757200518594;-6.7217;-1.9534;-4.8598;
1789757210616198;-11.0264;-2.2744;-4.3567;
1789757220713854;-9.8599;-1.6923;-2.4380;
1789757230830886;-10.3726;-0.9520;-2.9339;
1789757240928542;-12.9021;-0.4370;-2.3830;
1789757251026146;-10.2407;-0.5518;-1.1946;
1789757261166042;-7.6558;0.3057;-2.2056;
1789757271263698;-9.8097;-0.2070;-3.7101;
1789757281361354;-9.7854;-0.8345;-3.9855;
1789757291437448;-9.5315;0.2626;-3.4394;
1789757301535104;-8.5352;1.0819;-3.5327;
1789757311632708;-9.0144;0.8183;-3.9326;
1789757321749219;-9.8862;0.8255;-3.6571;
1789757331846875;-8.8059;1.6472;-3.1519;
1789757341944479;-9.5414;1.3214;-4.2132;
1789757352058698;-9.9772;1.0699;-5.7437;
1789757362156354;-7.9002;1.0340;-4.7088;
1789757372253958;-6.4271;0.6840;-4.8885;
1789757382386511;-10.4013;1.0795;-5.5427;
1789757392484167;-9.2707;1.9633;-4.0693;
1789757402581771;-9.8599;1.8078;-2.8355;
1789757412669531;-9.0359;2.4138;-3.5064;
1789757422767188;-9.6084;2.2555;-2.6249;
1789757432864792;-8.7341;1.7070;-2.2606;
1789757442980781;-7.8380;1.4171;-3.0464;
1789757453078438;-9.7137;0.9954;-3.8871;
1789757463176042;-8.7389;0.8518;-3.6236;
1789757473288386;-9.1101;0.7968;-3.9425;
1789757483386042;-9.6610;0.9882;-4.1746;
1789757493483646;-8.4488;1.4219;-3.5136;
1789757503618698;-6.6691;1.6591;-4.1626;
1789757513716302;-9.4023;1.0436;-5.0850;
1789757523814011;-12.9117;0.8997;-4.1818;
1789757533889427;-15.2043;1.2278;-2.0692;
1789757543987083;-11.2516;2.3683;-1.1587;
1789757554084688;-6.6284;1.5419;-1.1515;
1789757564196302;-7.5912;-0.0802;-3.5279;
1789757574293958;-8.4682;-0.7340;-4.5269;
1789757584391563;-8.0178;-0.7771;-4.5963;
1789757594537813;-7.7375;-0.0655;-5.5786;
1789757604635469;-10.2383;0.3272;-5.0228;
1789757614733073;-10.1856;0.5477;-3.6308;
1789757624816406;-8.6668;0.4998;-3.4035;
1789757634914063;-9.4454;0.3966;-3.3290;
1789757645011667;-6.9541;0.2363;-3.6188;
1789757655125573;-8.1350;0.2387;-4.8814;
1789757665223229;-7.1145;-1.0286;-6.1630;
1789757675320833;-8.2837;-1.9316;-6.7307;
1789757685432240;-10.4061;-2.6049;-5.6121;
1789757695529896;-9.2827;-1.8144;-2.7302;
1789757705627500;-8.0249;-1.4073;-3.2142;
1789757715757031;-9.4932;-1.9534;-3.7890;
1789757725854636;-8.6046;-2.4060;-3.4753;
1789757735952292;-9.5677;-2.6145;-3.0296;
1789757746042448;-9.8360;-1.6059;-2.7565;
1789757756140104;-9.7089;-1.2993;-2.7302;
1789757766237708;-11.1631;-1.0238;-1.9588;
1789757776357344;-7.4189;-0.7555;-1.9325;
1789757786455000;-8.8298;-1.0741;-3.3147;
1789757796552604;-8.7194;-1.9340;-3.7412;
1789757806665365;-8.9064;-1.0382;-3.1711;
1789757816763021;-8.2884;-0.5853;-4.0741;
1789757826860625;-10.2742;-0.9688;-4.2514;
1789757836960781;-9.4645;-0.7555;-3.5830;
1789757847058438;-9.2827;-1.2203;-2.8522;
1789757857156042;-9.4047;-1.3831;-3.5782;
1789757867272865;-10.3340;-0.4274;-1.8320;
1789757877370469;-6.3410;-0.1711;-1.9540;
1789757887468125;-8.9542;-2.1377;-5.5810;
1789757897586667;-10.3678;-2.3701;-7.4231;
1789757907684323;-13.3502;-2.9378;-4.2419;
1789757917781927;-12.3775;-0.5303;-0.2031;
1789757927893594;-7.4764;-0.7196;2.1182;
1789757938004740;-8.8155;0.2028;-0.7107;
1789757948102396;-8.6501;0.7848;-1.7169;
1789757958200052;-9.8767;2.3563;-2.6680;
1789757968290833;-9.7065;2.8543;-3.3793;
1789757978388490;-9.3329;3.1804;-3.2429;
1789757988486094;-8.4849;2.0471;-3.8177;
1789757998589167;-9.1484;2.5310;-3.4394;
1789758008686823;-7.5912;1.7213;-3.2979;
1789758018784427;-9.8743;1.9657;-3.9449;
1789758028894115;-9.1508;1.4004;-3.7196;
1789758038991719;-9.6586;1.7046;-3.2309;
1789758049089375;-8.4129;1.2230;-3.2692;
1789758059203646;-8.8896;1.1369;-2.9746;
1789758069301250;-9.9102;0.1140;-2.6608;
1789758079398906;-9.3999;0.2219;-2.5600;
1789758089527344;-8.0824;-0.2979;-2.4141;
1789758099625000;-8.1900;-1.1940;-3.4681;
1789758109722656;-10.3316;-1.7163;-3.4322;
1789758119813750;-10.3196;-1.2012;-2.2032;
1789758129911406;-8.9806;-1.4695;-2.3925;
1789758140009063;-9.7615;-1.6059;-3.0559;
1789758150157500;-9.2656;-1.6322;-2.8669;
1789758160255156;-9.3712;-2.1114;-2.5863;
1789758170352761;-8.6501;-2.1233;-3.1301;
1789758180416927;-8.8035;-1.2826;-3.6981;
1789758190514583;-9.0694;-1.8144;-3.0655;
1789758200612188;-9.3927;-1.7067;-3.9497;
1789758210748281;-9.4262;-1.5341;-3.9568;
1789758220845938;-7.6920;-1.2634;-3.3194;
1789758230943542;-8.4272;-2.6097;-4.6107;
1789758241051615;-9.2946;-1.1844;-3.6718;
1789758251149271;-9.2560;-1.6202;-3.2596;
1789758261246875;-9.6658;-0.8249;-3.5399;
1789758271356302;-10.0537;-1.1868;-2.1960;
1789758281453958;-9.4956;-1.0047;-3.3147;
1789758291551563;-9.4023;-0.7651;-2.7111;
1789758301660781;-8.1613;-0.8707;-3.4705;
1789758311758438;-9.7328;-0.4633;-3.3003;
1789758321856042;-11.8026;0.1092;-2.9195;
1789758331964636;-8.7461;0.6769;-2.4404;
1789758342062292;-6.8680;-0.0849;-3.8871;
1789758352159896;-7.9170;0.0852;-4.8287;
1789758362275781;-7.9627;0.2674;-5.0659;
1789758372373490;-6.8127;1.2808;-5.3127;
1789758382471042;-6.9996;0.9978;-5.9426;
1789758392593177;-6.4630;1.2951;-6.1152;
1789758402690833;-4.9322;1.6065;-6.6972;
1789758412788438;-6.2952;1.6950;-8.4745;
1789758422890469;-8.1661;1.6280;-6.6036;
1789758432988125;-16.6630;0.4253;-2.9554;
1789758443085729;-21.1690;-3.2830;3.6682;
1789758453196511;-15.0293;-5.6518;7.7572;
1789758463294115;-6.3649;-5.4891;3.9556;
1789758473391771;-6.7098;-3.8243;-2.9195;
1789758483501094;-9.9915;-1.6202;-7.4566;
1789758493598750;-9.0000;-1.2347;-2.9746;
1789758503696354;-7.9890;-0.6120;-0.9024;
1789758513825261;-9.2536;0.2459;-2.8669;
1789758523922917;-11.4745;-0.3218;-3.2285;
1789758534020521;-9.5988;-0.9999;-3.5614;
1789758544113177;-9.7711;-0.6694;-3.4322;
1789758554210833;-7.6872;0.0996;-4.5341;
1789758564308438;-8.8825;-0.2453;-4.8383;
1789758574414531;-9.0359;0.0757;-4.0549;
1789758584512188;-7.1578;-0.2189;-4.4189;
1789758594609792;-8.6764;-0.3051;-4.8311;
1789758604722761;-8.6740;-0.2405;-4.1770;
1789758614820417;-9.1053;-0.0754;-3.5016;
1789758624918021;-8.7820;-0.0416;-2.2295;
1789758635069844;-10.4444;-0.6431;-1.6690;
1789758645167500;-11.5176;-0.6239;-1.4701;
1789758655265104;-9.0120;-0.2309;-1.2138;
1789758665365677;-7.1530;-0.1496;-0.7373;
1789758675463333;-8.7218;0.8399;-0.6341;
1789758685560990;-9.3760;1.5969;-2.0812;
1789758695654115;-5.7514;1.6017;-5.0228;
1789758705751771;-7.7207;0.5166;-13.6537;
1789758715849375;-14.4664;-2.1042;-15.3281;
1789758725960781;-12.9260;-3.8219;-2.4212;
1789758736058438;-8.5687;-3.4385;4.1474;
1789758746156042;-9.9820;-2.0157;-0.6341;
1789758756264531;-10.9211;-1.3017;-4.4405;
1789758766362136;-10.0995;-0.1902;-1.4605;
1789758776459792;-7.3950;0.5166;-1.3026;
1789758786578333;-10.5162;1.9992;-3.7340;
1789758796675990;-11.2134;2.8424;-2.3973;
1789758806773594;-9.4071;1.7453;-0.5049;
1789758816878594;-9.9078;1.7046;-1.2858;
1789758826976250;-8.2669;2.7491;-3.1205;
1789758837073854;-9.7472;2.3082;-2.9315;
1789758847191198;-10.3268;1.7142;-1.5613;
1789758857288854;-10.0657;2.0375;-1.7480;
1789758867386458;-9.5076;1.6352;-2.2726;
1789758877484531;-8.2047;0.9835;-3.8201;
1789758887582083;-9.5390;0.5477;-4.2562;
1789758897679740;-10.5401;-0.1089;-3.8512;
1789758907801615;-10.1689;-0.8536;-1.8631;
1789758917899271;-8.1876;-0.1639;-2.7565;
1789758927996875;-9.6658;-0.3628;-4.0525;
1789758938117188;-9.6371;-0.7149;-3.0440;
1789758948218386;-9.4167;-0.5231;-2.7781;
1789758958319636;-9.9796;0.6673;-2.6943;
1789758968409271;-8.4993;0.3655;-3.3888;
1789758978510469;-12.1714;0.6362;-3.4202;
1789758988611719;-9.6658;-0.1591;-2.3375;
1789758998711771;-9.0574;0.6553;-1.8153;
1789759008812969;-9.4071;0.6505;-1.9564;
1789759018914167;-8.6740;0.5070;-2.4284;
1789759029045886;-9.1914;1.2422;-4.0190;
1789759039147136;-10.0756;0.7343;-3.3745;
1789759049248386;-9.9461;0.5812;-3.4226;
1789759059322083;-11.1365;0.1594;-2.1386;
1789759069423333;-8.6572;-0.4011;-2.8164;
1789759079524531;-10.9235;-0.2740;-3.5423;
1789759089657031;-10.9427;-0.8034;-2.5744;
1789759099758229;-9.3975;-0.5590;-2.1003;
1789759109859427;-8.0536;-0.4753;-3.4585;
1789759119961042;-9.5100;-0.4681;-4.0502;
1789759130062292;-9.8408;-1.0789;-2.7494;
1789759140163490;-10.9235;-0.5088;-1.7575;
1789759150246094;-9.6132;-0.4777;-1.9373;
1789759160347344;-8.9542;-0.4059;-2.7948;
1789759170448542;-8.2741;-0.3580;-4.7231;
1789759180567604;-12.0063;-0.3891;-3.8273;
1789759190668802;-8.7051;-0.6574;-1.3935;
1789759200770052;-9.3162;0.7729;-3.2453;
1789759210885886;-10.7390;1.5105;-2.7613;
1789759220987083;-9.1986;0.8782;-1.1659;
1789759231088333;-8.4368;1.5224;-2.9339;
1789759241175625;-8.1302;1.7189;-3.5207;
1789759251276823;-7.9699;1.0340;-3.9879;
1789759261378073;-9.2154;0.5764;-4.3543;
1789759271482604;-9.3449;-0.6526;-5.1832;
1789759281583802;-10.5281;0.7032;-4.0573;
1789759291685052;-10.0995;0.1020;-2.3037;
1789759301793125;-7.7734;-0.5040;-2.6680;
1789759311894323;-8.9183;-0.5686;-5.0061;
1789759321995573;-9.5195;-0.2166;-2.9961;
1789759332096979;-9.4071;-0.7005;-2.1218;
1789759342198177;-9.2731;0.6601;-3.0727;
1789759352299427;-9.9532;0.7295;-2.9267;
1789759362385677;-11.1559;-0.0344;-3.2022;
1789759372486927;-9.8791;0.1762;-2.3542;
1789759382588125;-9.5964;-0.1854;-3.6141;
1789759392688386;-8.5256;0.4588;-2.8499;
1789759402789636;-7.3349;0.2267;-2.9459;
1789759412890886;-9.9365;0.0876;-4.3687;
1789759423011979;-12.4756;0.1427;-4.3902;
1789759433113177;-9.0407;-0.5207;-2.3303;
1789759443214375;-8.9255;0.1020;-2.5672;
1789759453315833;-8.6596;-0.1878;-3.7268;
1789759463417031;-8.7485;0.0709;-4.2156;
1789759473518229;-9.4358;0.1786;-3.8704;
1789759483630313;-6.8462;-0.0224;-3.2213;
1789759493731511;-6.1684;0.6075;-4.7016;
1789759503832761;-7.5099;-0.0105;-4.9914;
1789759513951719;-7.3950;-0.7962;-5.7580;
1789759524052969;-6.0150;-0.3266;-5.5666;
1789759534154219;-6.5997;-0.9090;-4.9244;
1789759544228281;-7.4309;-1.1195;-4.9268;
1789759554329531;-14.8881;-1.2036;-4.2538;
1789759564430729;-15.5731;-2.5522;-1.3744;
1789759574549115;3.5764;-2.1927;-2.3061;
1789759584650313;-16.6702;0.4926;-6.8145;
1789759594751511;-50.8206;-3.1008;6.4612;
1789759604850938;-11.7356;-7.4031;16.2518;
1789759614952136;23.2077;2.8472;3.1101;
1789759625053333;4.1324;8.2828;-12.6882;
1789759635151511;-14.3489;-1.7450;-12.4152;
1789759645252761;-15.2163;-4.7201;-6.9057;
1789759655353958;-11.8768;-1.6609;-1.8846;
1789759665480938;-11.6300;-0.1208;-1.1276;
1789759675582136;-9.1005;1.2398;-2.8475;
1789759685683386;-5.5672;-1.9702;-1.8105;
1789759695783750;-8.4177;-1.9965;-5.0348;
1789759705884948;-8.6620;0.0948;-3.8704;
1789759715986198;-8.0106;0.1690;-1.5613;
1789759726088854;-10.0035;0.9667;-1.9828;
1789759736190052;-7.9819;1.9155;-0.1406;
1789759746291302;-5.2101;1.8748;-0.9502;
1789759756379375;-8.8681;1.9992;-5.0803;
1789759766480573;-10.7151;0.7199;-4.6346;
1789759776581823;-11.6901;-1.5054;-6.6036;
1789759786693438;-13.8676;0.7513;-1.7408;
1789759796794636;1.2362;-1.3831;4.3005;
1789759806895886;-5.7754;-7.9780;-19.7432;
1789759817000208;-28.5015;-7.2425;-25.3053;
1789759827101406;-15.3455;-5.4075;8.9121;
1789759837202656;3.0664;-6.1597;23.3064;
1789759847303281;-1.2335;0.1546;1.1408;
1789759857404479;-13.7859;5.9231;-14.4921;
1789759867505677;-13.2278;4.1839;-2.4954;
1789759877638073;-7.6920;1.5778;2.6501;
1789759887739219;-10.7533;1.9681;-5.1999;
1789759897840469;-10.7773;2.7826;-3.7316;
1789759907920417;-5.0904;0.4445;0.0245;
1789759918021615;-9.0096;0.4110;-5.4012;
1789759928122865;-11.9342;-0.2189;-4.0262;
1789759938224219;-7.3469;-1.1940;-3.0511;
1789759948326146;-10.7222;-0.4035;-6.2492;
1789759958428073;-8.4512;-0.0559;-2.3662;
1789759968530677;-4.4100;-0.9425;-1.9110;
1789759978632604;-10.0851;-1.0286;-7.2027;
1789759988734531;-11.7356;-0.8201;-2.9363;
1789759998829063;-7.6968;-1.2227;-1.4462;
1789760008930990;-9.4860;0.1762;-4.1746;
1789760019032917;-8.8011;-0.9975;-2.7876;
1789760029132969;-9.5028;-0.3147;-2.4523;
1789760039234896;-9.8169;-0.3147;-2.4930;
1789760049336823;-9.4597;0.2626;-0.2438;
1789760059447708;-5.8499;0.7585;-1.2643;
1789760069549583;-8.4416;0.3464;-4.8670;
1789760079651563;-11.5750;0.3200;-4.4429;
1789760089784479;-10.8203;-1.5843;-3.6212;
1789760099886406;-8.9160;-0.3604;-2.4188;
1789760109988333;-7.0140;-0.6598;-2.8379;
1789760120060208;-10.0298;-1.1291;-4.9005;
1789760130162136;-12.9691;-1.0095;-2.4284;
1789760140264115;-10.9618;-0.5471;-0.7947;
1789760150372396;-7.6367;-0.2094;-1.8176;
1789760160474375;-10.6720;-0.1472;-1.6140;
1789760170576302;-11.8457;-0.2907;-0.7995;
1789760180663281;-9.0359;0.8160;-0.5025;
1789760190765208;-6.7505;0.5477;-2.6680;
1789760200867136;-9.3138;0.2985;-4.5676;
1789760211000573;-10.9546;0.4134;-2.3157;
1789760221102500;-6.8557;-0.8898;-3.2094;
1789760231204479;-7.9555;0.6338;-4.6298;
1789760241300052;-10.6457;0.2650;-3.4155;
1789760251401927;-10.0923;-0.1424;-3.3242;
1789760261503906;-8.6261;0.9117;-2.6680;
1789760271605990;-7.6104;-0.5949;-3.6165;
1789760281707917;-7.0187;0.7442;-3.3099;
1789760291809844;-9.4908;-0.3290;-3.9999;
1789760301917448;-8.9949;0.3535;-4.5628;
1789760312019323;-10.3965;0.6362;-4.0214;
1789760322121302;-9.7352;0.1092;-2.2630;
1789760332232344;-7.4764;-0.3724;-2.8594;
1789760342334219;-8.4921;0.0996;-5.1353;
1789760352436198;-10.4803;-0.1400;-3.2524;
1789760362523177;-10.7318;-0.0969;-3.1783;
1789760372625052;-8.5304;-1.1363;-3.0200;
1789760382727031;-8.9423;-0.3748;-4.1267;
1789760392810781;-10.0633;-0.5375;-2.7876;
1789760402912708;-10.1498;-0.1184;-1.6834;
1789760413014636;-10.2335;0.3105;-1.5278;
1789760423132136;-8.0608;0.3153;-1.1659;
1789760433234063;-7.7758;0.1068;-2.8475;
1789760443335990;-11.7404;0.3009;-3.6021;
1789760453438177;-10.5784;0.3368;-1.1348;
1789760463540104;-7.5936;0.6721;-2.1314;
1789760473642031;-13.4315;-0.1878;-2.5528;
1789760483749219;-8.9734;0.5716;-1.8583;
1789760493851146;0.8767;0.6936;-4.2562;
1789760503953073;-6.5779;0.4588;-5.4754;
1789760514057344;-12.9763;0.0470;-5.7078;
1789760524159271;-12.9308;0.0805;-1.6762;
1789760534261198;-10.8371;0.3488;-2.1769;
1789760544355052;-9.5557;0.6505;-2.0593;
1789760554456979;-7.7375;-0.0873;-2.9913;
1789760564558906;-8.1637;-0.2716;-3.6284;
1789760574657396;-9.1077;-0.7196;-2.2845;
1789760584759271;-8.6524;-0.5016;-2.5696;
1789760594861198;-9.4884;-0.2955;-2.6249;
1789760604964063;-10.7557;-0.8297;-3.9302;
1789760615065990;-9.8216;-1.0669;-2.8259;
1789760625167865;-8.5448;-0.2405;-1.8224;
1789760635273594;-8.3363;-0.0416;-3.1205;
1789760645375521;-9.9796;-1.9268;-4.0573;
1789760655477448;-11.5199;-1.3926;-3.1998;
1789760665586719;-8.4224;-1.1219;-4.2009;
1789760675688646;-11.5487;-0.3891;-3.2692;
1789760685790573;-8.3339;1.5921;2.5161;
1789760695893281;-4.5826;1.3645;0.7911;
1789760705995208;-9.8743;0.6817;-5.6719;
1789760716097136;-11.2828;0.2506;-5.0635;
1789760726199636;-10.1785;0.0422;-3.9544;
1789760736301563;-9.0957;-0.4178;-4.3376;
1789760746403490;-8.9590;-1.5126;-3.9808;
1789760756508177;-9.1149;-1.3208;-3.0057;
1789760766610104;-8.7147;-1.1940;-2.4380;
1789760776712031;-8.7867;-1.1076;-3.4274;
1789760786815990;-8.8609;-0.4226;-2.9626;
1789760796917917;-8.1661;0.2100;-2.5935;
1789760807019844;-11.4194;-0.4705;-4.0860;
1789760817121719;-13.1249;0.0135;-2.5265;
1789760827223646;-9.5462;0.8423;0.3721;
1789760837325573;-7.4070;-0.0655;-0.7397;
1789760847417813;-6.2163;0.1690;-3.1229;
1789760857519740;-8.5137;0.2100;-3.2788;
1789760867621667;-10.8347;0.6529;-3.9350;
1789760877709583;-10.0657;0.5189;-2.7206;
1789760887811458;-6.2210;0.3894;-3.3553;
1789760897913438;-8.9710;-0.0009;-5.5546;
1789760908044323;-9.9867;-0.5518;-3.7579;
1789760918146250;-9.4525;-0.6981;-2.8741;
1789760928248177;-10.1545;-0.8707;-3.2213;
1789760938350573;-9.8169;-0.8731;-2.3037;
1789760948452813;-8.8155;-0.7340;-2.0306;
1789760958555000;-8.2214;0.2650;-2.1769;
1789760968649531;-9.6036;-0.0129;-2.8717;
1789760978751771;-10.8323;-0.7579;-2.2582;
1789760988853958;-10.1833;-0.0200;-1.3074;
1789760998967344;-8.2143;-0.0224;-2.1482;
1789761009069531;-9.0144;-0.9066;-3.2548;
1789761019171771;-11.2971;-0.8441;-3.2189;
1789761029264323;-10.3893;-0.2477;-1.7336;
1789761039366563;-8.7147;0.6553;-1.3146;
1789761049468750;-6.4223;-0.0993;-2.7350;
1789761059565365;-9.9102;-0.5207;-4.6011;
1789761069667552;-11.9390;-0.0033;-3.1086;
1789761079769740;-9.9724;0.1594;-1.5565;
1789761089864167;-7.3950;0.1451;-2.6895;
1789761099966406;-8.5543;-0.7292;-3.2716;
1789761110068594;-9.4789;-0.5136;-2.9770;
1789761120191563;-10.1976;0.0446;-2.9650;
1789761130293854;-10.2790;-0.9305;-3.1424;
1789761140395990;-10.2981;-0.0631;-2.9148;
1789761150474011;-10.2072;-0.0826;-1.8799;
1789761160576250;-9.2803;-0.9162;-2.6680;
1789761170678438;-7.6872;-0.3508;-2.6034;
1789761180815156;-6.1780;0.7319;-2.4739;
1789761190917396;-9.3616;-0.5351;-4.0190;
1789761201019583;-10.7821;0.1259;-5.0635;
1789761211103386;-10.9881;-0.0993;-3.1615;
1789761221205573;-9.8791;-0.3147;-2.3228;
1789761231307813;-7.3950;-0.7005;-2.8020;
1789761241410469;-7.7566;-0.9257;-3.8393;
1789761251512708;-10.0394;-0.7364;-3.7172;
1789761261614896;-12.7490;-1.0286;-1.8607;
1789761271722136;-12.2435;-0.4609;-0.9837;
1789761281824375;-7.5649;0.2291;-0.7421;
1789761291926563;-5.3037;-0.8922;-3.2716;
1789761302031094;-9.7256;-0.7675;-5.0468;
1789761312133333;-12.6529;-0.1783;-2.5744;
1789761322235521;-9.7854;0.9547;-1.1109;
1789761332349479;-7.4836;0.3081;-2.7661;
1789761342451719;-10.0633;-0.5231;-4.2538;
1789761352553958;-10.3077;0.5668;-2.2295;
1789761362661250;-8.0800;0.7561;-1.6187;
1789761372763542;-9.2441;0.2698;-2.9267;
1789761382865729;-8.3028;0.2171;-3.4155;
1789761392936406;-9.1460;-1.2945;-4.4333;
1789761403038646;-11.2469;-0.9497;-4.2323;
1789761413140833;-10.5162;0.2387;-1.2473;
1789761423239479;-8.0249;-0.8560;-1.1659;
1789761433341719;-7.0020;-1.2993;-4.8120;
1789761443443906;-10.0466;-1.6178;-5.8229;
1789761453553698;-12.7753;-1.0621;-2.5170;
1789761463655938;-9.0861;0.5477;-0.7397;
1789761473758125;-7.3421;-0.1448;-1.1300;
1789761483877552;-8.4081;-0.0488;-2.8307;
1789761493979792;-11.9198;-0.1400;-2.9698;
1789761504081979;-12.3272;0.5118;-2.3375;
1789761514162188;-8.5304;0.2195;-1.7961;
1789761524264427;-7.7112;-0.1854;-2.6034;
1789761534366615;-8.8274;-0.6646;-3.7005;
1789761544475677;-5.7251;-0.8417;-4.5365;
1789761554577865;-8.2406;-0.9449;-5.2744;
1789761564680104;-12.3512;-0.3027;-4.3711;
1789761574780156;-11.0049;-0.5973;-2.3638;
1789761584882344;-9.4980;-0.6455;-2.4835;
1789761594984583;-9.2393;-1.6899;-3.5638;
1789761605079011;-10.1952;-1.5843;-2.3518;
1789761615181198;-9.4621;-0.7555;-1.5541;
1789761625283438;-8.8896;-0.0009;-1.3839;
1789761635399896;-7.7830;-0.3242;-1.8488;
1789761645502188;-7.9962;-0.2189;-3.0631;
1789761655604375;-11.3091;0.3799;-3.9350;
1789761665699219;-11.2564;0.0063;-3.3984;
1789761675801406;-8.0728;0.0230;-2.9052;
1789761685903646;-7.9938;-0.6670;-3.6667;
1789761696010677;-9.8934;-1.7593;-4.0478;
1789761706112917;-10.7845;-0.2166;-2.9291;
1789761716215104;-8.1374;1.0484;-0.2892;
1789761726311615;-5.3013;1.2855;-1.7862;
1789761736413854;-8.0560;0.0350;-5.4491;
1789761746516042;-11.2923;-1.3041;-6.1750;
1789761756627136;-10.9235;-0.2812;-3.9903;
1789761766729375;-8.5328;0.9404;-1.5565;
1789761776831563;-8.3339;-0.6909;-2.6369;
1789761786930990;-8.0273;-0.8874;-3.4513;
1789761797033229;-9.8862;-0.6766;-2.2008;
1789761807135417;-10.4037;0.4998;-2.2750;
1789761817232396;-8.9495;-0.3604;-2.4715;
1789761827334583;-7.9579;-0.0105;-3.1277;
1789761837436823;-10.2838;-0.6502;-3.3194;
1789761847545365;-11.2708;-0.4609;-2.3614;
1789761857647604;-9.2994;-0.1424;-2.0644;
1789761867749792;-8.6596;-0.0416;-1.8679;
1789761877854323;-8.2621;-0.2668;-2.6871;
1789761887956563;-10.5281;-0.1041;-3.9855;
1789761898058750;-8.4248;0.5979;-2.3157;
1789761908146823;-9.1149;1.0531;-2.4452;
1789761918249063;-10.9594;1.5200;-2.2893;
1789761928351250;-8.3267;1.3310;-1.8751;
1789761938466302;-8.1852;0.7271;-2.7087;
1789761948568490;-8.6405;1.0699;-3.8847;
1789761958670677;-9.7137;0.1451;-3.7555;
1789761968759896;-9.7496;0.7056;-3.4825;
1789761978862083;-7.7877;0.8136;-2.9626;
1789761988964271;-10.5209;-0.6502;-3.3960;
1789761999140469;-9.6467;-0.8922;-2.7111;
1789762009242656;-9.9556;0.3631;-2.3949;
1789762019344844;-9.9963;-0.5255;-1.9588;
1789762029364375;-8.0991;-1.2610;-3.6093;
1789762039466511;-10.1641;-1.3161;-3.0416;
1789762049568750;-9.8719;-0.7388;-2.0569;
1789762059747813;-10.0875;0.5907;-1.4270;
1789762069850000;-7.7136;0.6482;-1.5661;
1789762079952240;-7.6896;0.0996;-3.4155;
1789762089978646;-10.1809;-0.0802;-3.3218;
1789762100080833;-10.3340;0.1881;-2.9172;
1789762110183021;-10.2574;0.7370;-2.2415;
1789762120303854;-9.0024;0.7223;-1.7288;
1789762130406094;-10.8323;-0.5830;-3.0559;
1789762140508229;-9.8049;-0.7196;-2.8499;
1789762150624688;-8.9758;-1.3543;-2.0955;
1789762160726927;-10.9786;-0.3700;-2.3877;
1789762170829063;-11.0025;-1.0023;-2.1960;
1789762180900469;-9.9580;-0.0511;-3.0440;
1789762191002656;-9.1747;-0.1328;-1.6044;
1789762201104844;-8.5663;0.2889;-1.6355;
1789762211216094;-9.4286;0.4229;-3.0488;
1789762221318281;-9.8527;0.7872;-2.9483;
1789762231420469;-11.2253;1.1824;-2.2893;
1789762241523594;1.4614;1.0460;-4.1052;
1789762251625781;-9.4765;1.6376;-5.9378;
1789762261727969;-13.4842;1.4171;-4.2993;
1789762271837344;-5.9886;0.7920;-3.9592;
1789762281939531;-7.7160;0.4783;-6.5701;
1789762292041719;-12.9476;-0.8082;-3.3888;
1789762302140261;-11.3833;-0.1878;-0.6604;
1789762312242448;-7.1192;-0.6766;-2.1482;
1789762322344636;-8.4535;-1.4480;-4.7231;
1789762332476823;-10.0107;-1.4456;-1.9971;
1789762342579011;-10.4348;0.6840;-1.0726;
1789762352681198;-10.1976;-0.3338;-2.1697;
1789762362742761;-9.6921;-0.6263;-2.5241;
1789762372844948;-10.9044;0.9547;-1.1180;
1789762382947136;-11.4314;0.5692;-1.2329;
1789762393071719;-11.2493;-0.2094;-2.5528;
1789762403173906;-7.8165;1.6615;2.7482;
1789762413276094;-3.5668;0.5812;-0.8737;
1789762423371094;-17.8394;0.7896;-7.0421;
1789762433473281;-12.5357;0.0781;0.6138;
1789762443575469;-3.6171;2.2316;-0.0927;
1789762453677344;-5.5337;0.6075;-6.4935;
1789762463779531;-9.2683;-0.9520;-6.8623;
1789762473881719;-12.3248;0.5046;-3.6909;
1789762483986094;-9.7591;1.8461;-1.0271;
1789762494088281;-7.2057;-0.2094;-2.9195;
1789762504190469;-8.2932;-0.7651;-4.3424;
1789762514271406;-9.1149;-0.7149;-3.5734;
1789762524373542;-9.5677;-0.5518;-5.0396;
1789762534475781;-9.2130;-0.4011;-2.2295;
1789762544590469;-9.1484;-0.9927;-3.4705;
1789762554692656;-12.2746;-2.2600;-4.4142;
1789762564794844;-10.9929;-1.6418;-0.4762;
1789762574899844;-6.7122;-0.2668;-0.9191;
1789762585002031;-9.2345;-1.7186;-5.7197;
1789762595104219;-14.8376;-1.5796;-2.6106;
1789762605203906;-9.6682;-0.3987;0.3191;
1789762615306094;-7.9265;1.4100;-1.3313;
1789762625408281;-8.8825;0.7633;-0.4738;
1789762635509948;-7.6247;0.4349;-3.0583;
1789762645612136;-8.8513;0.3727;-4.3759;
1789762655714323;-11.2014;1.5562;-2.4739;
1789762665817448;-9.0215;0.5429;-2.9818;
1789762675919636;-6.6571;0.3727;-3.8489;
1789762686021823;-8.1757;-0.0826;-4.3328;
1789762696130677;-12.0422;-0.9018;-4.7207;
1789762706232865;-11.5822;0.2506;-1.8799;
1789762716335052;-5.9815;-1.1267;-2.4021;
1789762726434115;-6.1684;-1.2132;-6.3090;
1789762736536302;-7.8284;0.0302;-3.3529;
1789762746638490;-11.0719;-0.5518;-2.1625;
1789762756741094;-16.3804;-0.3748;-1.5613;
1789762766843281;-12.8351;-0.4178;0.8895;
1789762776945469;0.1654;-0.6311;-1.8751;
1789762787051250;-4.6089;1.1489;-4.6561;
1789762797153490;-13.2685;0.0159;-3.3051;
1789762807255677;-12.2770;-1.6298;-1.7384;
1789762817355052;-10.6840;0.6314;-1.7456;
1789762827457240;-10.0418;0.1164;-3.7723;
1789762837559427;-9.2321;-0.2189;-1.2544;
1789762847668906;-8.2932;-0.6072;-2.3351;
1789762857771094;-11.9175;-1.4216;-5.4443;
1789762867873281;-13.6926;-0.5207;-1.2353;
1789762877974792;-7.0403;0.3176;-0.2318;
1789762888077031;-5.8618;1.5081;-0.6365;
1789762898179219;-9.0311;0.5716;-2.6824;
1789762908268906;-8.4826;-0.7460;-5.2478;
1789762918371094;-6.4654;-0.0607;-6.6924;
1789762928473281;-7.6657;-0.4131;-5.3892;
1789762938581823;-5.8714;1.4530;-0.2366;
1789762948684011;-11.1440;0.0398;-4.2108;
1789762958786198;-15.8342;-1.0119;-5.1975;
1789762968881927;-10.8538;-1.7426;-2.4571;
1789762978984115;-6.0269;-0.8922;-2.0378;
1789762989086250;-8.0847;-0.8584;-3.8249;
1789762999194531;-13.2541;-2.1329;-3.8345;
1789763009296719;-9.8719;-1.6899;1.0140;
1789763019398906;-8.1135;-1.1219;-3.6093;
1789763029513229;-11.3067;0.0757;-1.1109;
1789763039615417;-8.8418;-0.1376;-0.7708;
1789763049717604;-7.3636;0.5501;-2.0521;
1789763059793490;-12.5907;-0.5327;-3.7819;
1789763069895677;-10.6863;1.2135;0.0006;
1789763079997917;-1.8661;1.8604;0.3649;
1789763090106250;-2.9560;0.9691;-5.1042;
1789763100208438;-10.3005;0.2243;-7.9741;
1789763110310625;-14.1455;-0.6072;-7.9573;
1789763120412240;-13.8939;-2.0922;-3.7699;
1789763130514427;-8.7700;-1.1701;-2.2917;
1789763140616615;-5.8283;-0.7627;-2.1170;
1789763150731615;-9.4334;-2.8110;-4.1865;
1789763160833802;-11.5391;-1.1844;-1.4892;
1789763170935990;-9.8408;-0.5279;-0.8617;
1789763181053802;-9.2608;0.4445;-0.4065;
1789763191155990;-10.4803;0.1475;-2.3375;
1789763201258177;-10.1928;-0.4226;-0.3969;
1789763211332136;-8.5065;-0.2524;-2.7829;
1789763221434323;-11.0384;0.5668;-0.7301;
1789763231536511;-10.5257;0.3894;-0.3467;
1789763241658073;-3.2913;0.9380;-2.3303;
1789763251760261;-3.5405;-0.0176;-6.7499;
1789763261862448;-10.7366;0.0206;-7.3319;
1789763271958802;-13.7477;-0.2237;-4.9244;
1789763282060990;-11.9441;-0.1208;-2.2056;
1789763292163177;-8.4921;-0.2644;-2.2534;
1789763302269115;-8.6740;-1.6059;-3.9039;
1789763312371302;-10.4922;-0.7795;-2.1864;
1789763322473490;-9.1316;-0.7316;-1.9516;
1789763332578177;-7.6825;-0.4298;-1.5589;
1789763342680365;-9.0144;-0.3700;-3.6838;
1789763352782552;-9.7998;-0.6359;-1.7216;
1789763362887031;-9.5124;-0.0607;-1.9780;
1789763372989219;-9.7854;-0.4202;-3.8800;
1789763383091406;-14.6076;-0.8779;-2.2822;
1789763393195156;-9.9652;0.5931;0.6308;
1789763403297344;-4.2497;2.0255;0.3024;
1789763413399531;-6.4343;-0.1663;-3.1062;
1789763423497240;-11.6611;0.8949;-3.4561;
1789763433599427;-12.3655;0.6051;-4.2682;
1789763443701615;-10.0274;-0.0873;-3.9879;
1789763453805261;-8.8011;0.2722;-3.6957;
1789763463907448;-7.0020;-1.0693;-3.5638;
1789763474009636;-8.6333;-1.1363;-3.8608;
1789763484104636;-12.0948;-0.1041;-2.5768;
1789763494206823;-10.4874;-0.4896;-1.5757;
1789763504309011;-8.5448;0.4062;-2.6225;
1789763514421563;-8.8681;-0.8970;-3.5662;
1789763524523802;-10.6146;0.4902;-1.2643;
1789763534625938;-9.0383;0.2148;-1.6810;
1789763544722761;-9.4382;0.5668;-2.2415;
1789763554824948;-9.8719;1.3525;-1.0582;
1789763564927136;-7.2392;-0.0320;-3.6861;
1789763575020052;-8.6859;0.0709;-4.6418;
1789763585122240;-11.3498;0.5189;-3.4370;
1789763595224375;-9.5653;-0.5734;-3.2118;
1789763605326406;-9.6323;-0.0730;-2.7517;
1789763615428594;-7.4046;-0.5782;-2.9267;
1789763625530781;-8.1541;-1.0645;-4.3615;
1789763635632031;-13.8389;-0.5782;-3.8967;
1789763645734219;-11.8840;-0.0129;-1.1731;
1789763655836406;-9.9245;0.2267;0.4845;
1789763665949740;-8.8705;-0.2740;-1.1444;
1789763676051927;-7.7351;-0.4418;-2.7733;
1789763686154115;-8.7676;0.4516;-1.5374;
1789763696249479;-9.4549;0.6553;-2.6441;
1789763706351667;-10.0585;0.9165;-3.6188;
1789763716453854;-8.5783;0.5692;-2.2247;
1789763726550313;-9.2656;0.1187;-3.7890;
1789763736652500;-12.0039;-0.2931;-3.3194;
1789763746754688;-9.2225;-0.4083;-2.3495;
1789763756861927;-5.2005;-1.1315;-4.5269;
1789763766964115;-6.1540;-0.1950;-4.4886;
1789763777066302;-9.9604;-0.1376;-2.9339;
1789763787187136;-12.5764;-0.9520;-4.4429;
1789763797289323;-12.2435;-0.9042;-2.8355;
1789763807391458;-9.4765;-0.7507;-1.8224;
1789763817477344;-8.5974;-1.3926;-1.3361;
1789763827579531;-9.9341;-0.5590;-0.9742;
1789763837681719;-9.0024;-0.2524;-0.9072;
1789763847788594;-6.8919;-0.4968;-3.0464;
1789763857890781;-8.8561;0.0781;-3.1424;
1789763867992969;-9.9341;0.0302;-2.7446;
1789763878099583;-10.4587;-0.7771;-5.2119;
1789763888201823;-12.1475;-0.5734;-4.1865;
1789763898304011;-10.6433;0.0948;0.5874;
1789763908393386;-5.0952;1.6854;0.5061;
1789763918495573;-7.1097;0.8782;-3.8058;
1789763928597761;-12.3942;-1.2060;-4.0430;
1789763938703386;-11.0647;-0.9808;-3.7244;
1789763948805625;-7.2655;0.4445;-3.3338;
1789763958907813;-8.2095;-0.5112;-2.7206;
1789763969003802;-9.0981;-1.3831;-3.6356;
1789763979106042;-9.0287;-0.6790;-4.1626;
1789763989208229;-9.1795;0.0876;-2.4021;
1789763999300156;-9.6754;-0.0754;-2.0883;
1789764009402344;-11.5128;-0.3580;-3.9473;
1789764019504583;-10.2000;-0.2453;-1.4246;
1789764029626354;-6.6667;0.8830;-0.5982;
1789764039728542;-7.2799;0.3990;-2.9267;
1789764049830781;-10.0780;-0.6814;-3.9254;
1789764059910677;-11.4024;-0.5136;-3.2859;
1789764070012865;-11.6133;0.4759;-2.0617;
1789764080115104;-10.7821;0.2363;-1.2811;
1789764090225573;-9.3018;-0.3652;-2.0955;
1789764100327813;-5.9288;-0.8130;-2.1099;
1789764110430000;-7.0786;-0.0631;-3.1783;
1789764120545729;-9.9844;0.1642;-3.9302;
1789764130647917;-11.0791;0.5405;-3.7316;
1789764140750156;-8.6644;0.4711;-2.8594;
1789764150853386;-5.7395;0.2913;-3.8847;
1789764160955625;-7.4118;-0.8970;-4.4910;
1789764171057813;-12.4636;-0.1161;-3.3888;
1789764181175208;-12.7920;0.8877;-0.5408;
1789764191277396;-9.6180;0.7370;-0.7178;
1789764201379636;-7.7327;0.1092;-2.3180;
1789764211453594;-8.0154;-2.5187;-3.5973;
1789764221555781;-10.5520;-1.7761;-4.0071;
1789764231658021;-12.3416;-0.3413;-2.3901;
1789764241780261;-10.9546;-0.6694;-0.3873;
1789764251882500;-7.1049;-0.4226;-2.1242;
1789764261984688;-7.6128;-0.0272;-1.8823;
1789764272074636;-9.4238;0.3942;-2.0764;
1789764282176875;-9.5725;0.5812;-2.1218;
1789764292279063;-8.6955;1.5969;-2.7565;
1789764302389948;-7.2057;1.1584;-2.9961;
1789764312492136;-8.6237;0.1690;-4.4910;
1789764322594375;-13.2975;-0.3604;-4.3567;
1789764332698073;-14.2029;-0.9784;-2.8618;
1789764342800261;-3.6508;-0.9090;-1.4031;
1789764352902500;2.1224;-1.6035;-4.7856;
1789764363001823;-12.2985;-1.6418;-7.3869;
1789764373104063;-20.7162;-0.8489;-3.1325;
1789764383206302;-12.3847;0.3823;1.8882;
1789764393314896;-4.9035;1.1776;0.5683;
1789764403417083;-7.0235;-1.4958;-3.1134;
1789764413519271;-12.4564;-1.8407;-1.8799;
1789764423616979;-8.9136;0.6673;-0.3754;
1789764433719219;-6.1229;1.5802;-1.8679;
1789764443821406;-7.9962;0.8949;-3.2883;
1789764453917865;-10.0804;-0.1113;-4.7279;
1789764464020052;-10.7031;0.2770;-5.5786;
1789764474122344;-11.5176;-0.7603;-4.2299;
1789764484224011;-11.1464;0.8662;-0.9072;
1789764494326250;-5.1766;1.8341;2.4631;
1789764504428438;-6.9541;0.6745;-5.2887;
1789764514524115;-13.0723;-1.2491;-5.7221;
1789764524626302;-10.6959;-0.8946;-1.5972;
1789764534728542;-9.7352;1.0364;-2.6752;
1789764544834896;-8.4344;-0.4418;-2.2606;
1789764554937083;-9.2225;-1.1171;-2.7948;
1789764565039323;-10.4803;0.9643;-1.1994;
1789764575139427;-7.4596;0.6553;-1.5685;
1789764585241667;-8.4754;0.7513;-2.8451;
1789764595343854;-8.4897;0.7223;-3.0392;
1789764605447865;-10.2742;0.4014;-5.3749;
1789764615550104;-12.5333;0.7442;-3.4537;
1789764625652292;-9.6515;0.5405;-0.5671;
1789764635760156;-6.1301;0.5429;-2.1147;
1789764645862344;-10.1258;-0.8803;-3.5973;
1789764655964583;-11.2373;0.2530;-2.1266;
1789764666073073;-9.1244;-0.0009;-2.3566;
1789764676175313;-9.0622;-0.4992;-3.3625;
1789764686277500;-8.8011;0.1714;-2.0716;
1789764696366042;-8.7485;0.0637;-2.4476;
1789764706468229;-9.8025;-0.1232;-2.5648;
1789764716570469;-9.4023;-0.0105;-2.9818;
1789764726679115;-10.7773;-0.0945;-3.6093;
1789764736781302;-10.0131;0.1020;-1.9923;
1789764746883542;-7.3636;-0.2357;-1.5251;
1789764756983177;-8.8561;-0.5112;-3.0918;
1789764767085365;-11.5247;-0.7220;-2.9602;
1789764777187604;-9.1914;0.1187;-2.2415;
1789764787297656;-6.9685;-0.6479;-3.3577;
1789764797399896;-9.3808;-0.7747;-3.5686;
1789764807502083;-10.6911;-0.2668;-2.6321;
1789764817605573;-8.8322;-0.7460;-2.2223;
1789764827707761;-7.1240;-0.2620;-2.5050;
1789764837810000;-9.7759;-0.7962;-4.4118;
1789764847910990;-11.5199;-0.8584;-3.5064;
1789764858013177;-10.9355;-0.0826;-1.7575;
1789764868115417;-8.3961;-0.8994;-1.7432;
1789764878215208;-8.2860;-0.5710;-1.7049;
1789764888317396;-10.1737;-0.7842;-2.1147;
1789764898419636;-10.3125;-0.8512;-3.3888;
1789764908516979;-8.9758;0.1786;-2.0955;
1789764918619167;-8.4200;0.0087;-2.0091;
1789764928721406;-7.0929;-0.1424;-3.2788;
1789764938822344;-7.2488;-0.6957;-3.4011;
1789764948924531;-10.7940;-0.2740;-3.8297;
1789764959026771;-12.9571;-0.6550;-3.9326;
1789764969122917;-10.0418;0.1187;-1.9421;
1789764979225156;-9.2201;-0.0272;-1.3122;
1789764989327396;-8.3961;-1.6851;-2.5385;
1789764999440052;-10.1761;-0.4035;-2.8451;
1789765009542240;-11.8624;-0.3075;-1.2018;
1789765019644531;-9.8886;-0.1448;-1.6690;
1789765029738229;-7.4859;-0.6072;-2.3758;
1789765039840469;-9.4454;0.0613;-2.6010;
1789765049942708;-7.9795;-0.1759;-1.9181;
1789765060044896;-7.4548;0.5429;-3.2955;
1789765070147136;-9.4502;1.4913;-3.7603;
1789765080249375;-9.6562;0.2961;-4.2634;
1789765090342813;-10.4037;0.4974;-3.8177;
1789765100445000;-8.8346;-0.0009;-2.5122;
1789765110547292;-7.3732;-0.3170;-4.3065;
1789765120659636;-11.0504;-1.1486;-4.6609;
1789765130761875;-12.4182;-0.5471;-1.4509;
1789765140864063;-7.3851;-0.5112;-1.4725;
1789765150970313;-8.5448;-0.5686;-3.1400;
1789765161072552;-11.9752;-0.6646;-2.4212;
1789765171174740;-13.0866;-0.5662;0.7241;
1789765181289583;-6.9565;0.9691;-0.1478;
1789765191391875;2.2448;-0.3843;-4.6633;
1789765201494063;-15.2617;1.8556;-5.4012;
1789765211599740;-13.8269;0.0302;-0.3467;
1789765221701927;-7.4261;1.7405;-2.0668;
1789765231804219;-8.0417;1.2302;-3.8895;
1789765241895156;-9.5315;-0.3147;-3.6117;
1789765251997344;-10.5951;-0.0320;-2.9985;
1789765262099636;-9.6730;-0.3891;-3.0846;
1789765272190573;-10.9235;-0.4178;-2.6632;
1789765282292813;-9.1436;-0.4322;-1.6140;
1789765292395052;-6.1947;-0.8994;-2.4906;
1789765302511563;-10.5305;-1.8909;-6.5653;
1789765312613750;-15.4606;-2.3844;-2.1290;
1789765322716042;-7.4907;2.9838;5.7547;
1789765332811406;-1.9714;0.9930;-0.9598;
1789765342913646;-12.1187;-0.5423;-8.0913;
1789765353015886;-11.4817;0.2722;-1.9062;
1789765363131406;-12.0685;1.5368;-0.6269;
1789765373233594;-8.7509;0.4831;-2.5050;
1789765383335833;-7.3926;-1.3543;-4.6561;
1789765393425990;-9.0311;-0.3413;-3.2548;
1789765403528229;-7.2488;-0.7460;-2.2295;
1789765413630469;-11.4458;-1.3902;-6.3500;
1789765423726511;-11.3928;0.0470;-3.3577;
1789765433828750;-6.9494;-0.5399;-1.0917;
1789765443930990;-8.2406;-0.3194;-2.9578;
1789765454041823;-10.2718;0.1786;-1.6451;
1789765464144063;-10.2885;0.7175;-1.1874;
1789765474246250;-12.4684;0.2028;-2.0788;
1789765484349219;-8.5663;-0.2812;-1.4055;
1789765494451458;-7.7136;-0.4513;-2.9172;
1789765504553698;-11.4386;-0.8465;-3.2237;
1789765514651823;-7.4285;-0.5518;-1.3217;
1789765524754063;-6.4606;0.3392;-3.9350;
1789765534856250;-11.5247;-0.1854;-4.7207;
1789765544956302;-11.8792;0.2506;-2.3542;
1789765555058542;-9.8743;0.7872;-1.0606;
1789765565160781;-6.9852;0.2746;-1.7312;
1789765575262031;-7.2105;0.3224;-2.8235;
1789765585364271;-10.0035;0.0326;-3.0751;
1789765595466458;-10.3487;-0.4035;-3.7412;
1789765605562552;-10.2790;-0.3867;-3.2740;
1789765615664792;-9.4956;-0.6814;-2.5002;
1789765625766979;-9.5653;-0.4059;-1.9636;
1789765635876719;-8.8155;-0.9042;-2.9937;
1789765645978958;-12.1427;-0.6072;-2.7924;
1789765656081198;-10.7701;0.7537;0.1732;
1789765666191198;-10.2048;-0.4442;-0.0401;
1789765676293438;-8.9255;-0.1591;-2.5313;
1789765686395677;-7.8069;-0.2166;-2.6249;
1789765696495729;-8.0441;1.1321;-2.0716;
1789765706597969;-9.1101;0.0733;-3.6814;
1789765716700156;-8.3937;0.1116;-4.6896;
1789765726800573;-10.1186;0.5812;-3.8943;
1789765736902813;-8.0776;0.0039;-2.8427;
1789765747005052;-5.7203;-0.3748;-5.0755;
1789765757112865;-9.4980;-0.5877;-5.5762;
1789765767215104;-13.4937;-0.4681;-3.0416;
1789765777317344;-12.7367;-0.3242;-0.7155;
1789765787418802;-7.9866;-1.4647;-0.7469;
1789765797521042;-9.2297;-1.7163;-3.6861;
1789765807623281;-12.1690;-1.3567;-1.9229;
1789765817727969;-13.0986;0.4783;1.4405;
1789765827830208;-7.8069;-0.4513;0.8824;
1789765837932448;-6.4319;0.2148;-2.4763;
1789765848034063;-5.7323;1.5153;-3.3194;
1789765858136302;-8.6381;0.4564;-4.6250;
1789765868238542;-12.8758;1.5993;-4.9316;
1789765878288802;-11.3091;2.1383;-1.0678;
1789765888391042;-7.5817;0.5333;-2.2798;
1789765898493229;-7.4094;0.3248;-5.9234;
1789765908631302;-8.2813;-1.8191;-4.9196;
1789765918733542;-11.4936;-2.1353;-3.7149;
1789765928835729;-10.8900;-0.2596;-2.6752;
1789765938952656;-7.6633;-2.0133;-2.5385;
1789765949054948;-9.9652;-2.5857;-4.0286;
1789765959157292;-11.3737;-1.1195;-2.1936;
1789765969261979;-9.2034;-0.0392;-0.0090;
1789765979364219;-10.8682;0.1499;-0.0592;
1789765989466563;-8.1087;0.0446;-0.7397;
1789765999560677;-6.8175;0.5620;-3.1277;
1789766009662917;-9.8599;0.0661;-3.3434;
1789766019765261;-11.3498;0.9045;-2.9602;
1789766029860886;-11.9608;0.4878;-2.5816;
1789766039963177;-7.8093;0.8590;-2.2008;
1789766050065469;-6.9087;-0.2070;-3.7005;
1789766060189531;-12.0924;-0.5901;-3.3912;
1789766070291771;-9.7998;-0.4537;-2.1314;
1789766080394115;-8.7867;-0.9162;-3.9497;
1789766090466823;-8.5615;-0.6335;-4.1267;
1789766100569115;-6.3601;-0.2524;-2.4236;
1789766110671406;-11.1126;-0.2668;-3.8441;
1789766120787552;-12.4660;-0.1902;-1.6666;
1789766130889844;-7.9579;1.0555;-1.1898;
1789766140992136;-7.8595;0.3703;-2.6225;
1789766151092813;-7.2751;-0.0607;-2.7494;
1789766161195104;-8.9255;-0.8345;-3.8919;
1789766171297396;-10.6911;0.0757;-2.9363;
1789766181392240;-11.5750;0.2171;-1.8296;
1789766191494531;-11.8457;-1.2179;-3.1376;
1789766201596875;-15.8510;-1.1195;-2.0330;
1789766211709323;-5.6055;-0.0511;-0.0927;
1789766221811615;3.1765;1.1608;-1.7121;
1789766231913906;-3.7992;-0.8874;-5.6647;
1789766242019115;-11.7954;-0.0535;-7.9475;
1789766252121406;-19.4731;2.0016;-3.2836;
1789766262223698;-12.9643;1.4578;2.3530;
1789766272315990;-7.4094;0.8877;-0.5743;
1789766282418281;-6.7648;0.7944;-3.6909;
1789766292520573;-5.4592;-0.7603;-0.8641;
1789766302622188;-8.5328;-1.7545;-4.8694;
1789766312724427;-13.8556;-0.3027;-4.9436;
1789766322826719;-11.0886;-1.5150;-2.4284;
1789766332935365;-13.3741;-1.8957;-3.0057;
1789766343037656;-10.9307;-0.2189;2.8729;
1789766353139948;-3.4256;1.6854;4.0418;
1789766363245677;-6.8752;3.2617;-1.1635;
1789766373347969;-6.9159;0.3655;-4.4070;
1789766383450261;-11.3330;-0.8034;-7.0540;
1789766393537396;-10.8467;1.2709;-5.1497;
1789766403639688;-9.0574;-0.4992;-1.8511;
1789766413741979;-10.0875;-1.4408;-3.4825;
1789766423857136;-8.7003;-0.3485;-2.4212;
1789766433959427;-7.8380;-0.9592;-2.2152;
1789766444061719;-10.2311;-0.8465;-3.5375;
1789766454152969;-10.9451;-1.0741;-2.0979;
1789766464255261;-12.4878;-1.0765;-2.2678;
1789766474357604;-9.7783;-0.1687;-0.0473;
1789766484467136;-5.8307;-0.0778;0.1062;
1789766494569427;-9.1388;-0.2500;-2.6321;
1789766504689271;-11.3737;0.4831;-1.1372;
1789766514791615;-8.3004;0.2554;-0.8330;
1789766524893854;-7.1001;0.1235;-4.0119;
1789766534988802;-12.0757;0.1499;-3.9951;
1789766545091094;-14.6605;-0.2716;-0.7828;
1789766555193386;-6.9398;-0.2907;-1.2739;
1789766565274115;-4.0795;-0.5399;-3.7340;
1789766575376406;-9.6395;-0.4274;-4.3902;
1789766585478698;-13.4315;-1.1486;-3.1831;
1789766595608542;-12.9452;-1.2969;-2.4787;
1789766605710781;-9.3736;-0.4585;-0.8880;
1789766615813125;-6.1158;-0.7077;-0.5049;
1789766625895886;-9.0670;-1.2227;-3.8321;
1789766635998177;-12.2267;-0.1017;-2.7230;
1789766646100469;-10.5879;0.1331;0.7648;
1789766656203594;-5.6031;0.7056;-1.0630;
1789766666305886;-7.9938;-1.4312;-5.5905;
1789766676408177;-13.0890;-0.5734;-4.7402;
1789766686520365;-9.8910;0.1977;-0.0449;
1789766696622656;-7.8308;-0.4896;-2.3710;
1789766706725000;-9.6634;-1.0382;-4.8838;
1789766716817917;-11.3785;-0.0392;-2.3638;
1789766726920156;-9.6419;-0.3987;-2.3686;
1789766737022448;-8.7266;-1.2084;-4.3424;
1789766747123594;-8.5017;-0.1663;-2.8451;
1789766757225886;-8.9853;-0.2524;-2.2702;
1789766767328177;-8.6189;-0.5973;-3.3099;
1789766777436563;-8.9351;0.5716;-3.1301;
1789766787538854;-10.7175;-0.3003;-2.3830;
1789766797641146;-9.7041;0.7920;-2.3303;
1789766807744896;-8.7676;0.4301;-1.9373;
1789766817847136;-8.2789;0.0494;-2.5457;
1789766827949427;-8.2382;0.3942;-2.5863;
1789766838053177;-9.1460;0.0733;-4.1148;
1789766848155469;-11.8241;-0.4944;-5.0010;
1789766858257761;-10.2694;0.2937;-2.4978;
1789766868352865;-7.6319;-0.4131;-2.9650;
1789766878455156;-9.4358;-0.2716;-2.5457;
1789766888557448;-9.2273;-0.3147;-1.5326;
1789766898659479;-8.5854;0.1953;-2.5911;
1789766908761771;-8.2262;0.4014;-2.0836;
1789766918864063;-11.5487;0.6601;-2.6847;
1789766928981094;-9.6395;-0.0945;-2.8355;
1789766939083386;-8.2238;-0.0081;-1.7886;
1789766949185729;-8.9853;-0.0081;-3.5112;
1789766959267604;-7.8571;0.2076;-3.2237;
1789766969369844;-10.1210;-0.3508;-3.3147;
1789766979472188;-12.0422;-0.5638;-3.5782;
1789766989602761;-8.9088;-0.3987;-2.7852;
1789766999705000;-7.7231;-0.6263;-2.5504;
1789767009807344;-9.4095;-0.8130;-2.9889;
1789767019865625;-10.2526;-0.4968;-2.0836;
1789767029967865;-9.9030;-0.1735;-1.5781;
1789767040070208;-9.2779;-0.8177;-2.4619;
1789767050194740;-9.0048;-0.0033;-2.2630;
1789767060297031;-8.6883;-0.9784;-3.0703;
1789767070399323;-10.5449;-0.5566;-2.9554;
1789767080506979;-8.3148;-0.0706;-2.4236;
1789767090609271;-9.2154;-0.3939;-3.1110;
1789767100711563;-9.1938;-1.1821;-3.8034;
1789767110817708;-6.2115;-0.2668;-3.8010;
1789767120919948;-13.3262;-1.1486;-3.2979;
1789767131022292;-18.8525;-1.5389;-2.0474;
1789767141114844;-9.3305;-1.1390;0.3697;
1789767151217136;5.8738;-0.0200;-1.2544;
1789767161319427;-11.4673;0.2435;-3.3649;
1789767171426406;-22.7453;-2.3342;-3.8847;
1789767181528698;-9.1220;0.5405;-0.3419;
1789767191630990;0.9272;1.6615;-2.6106;
1789767201737136;-5.7972;-0.7388;-3.3553;
1789767211839427;-14.0327;-0.8010;-4.5174;
1789767221941719;-14.0088;-0.1759;-4.2682;
1789767232035313;-5.8905;0.9188;-2.1505;
1789767242137604;-3.2722;-0.6383;-4.3017;
1789767252239896;-9.5821;-2.3127;-6.9870;
1789767262340573;-16.7013;-1.8239;-4.8335;
1789767272442865;-10.5616;1.5129;1.4979;
1789767282545156;-1.4803;-0.5495;-1.6092;
1789767292652552;-9.0383;-2.3629;-6.8865;
1789767302754844;-14.1574;0.3918;-0.9622;
1789767312857136;-10.2550;0.6864;1.1073;
1789767322966302;-7.1291;0.3320;-1.4127;
1789767333068594;-10.3726;-0.0826;-1.7985;
1789767343170886;-10.0923;-0.1184;-1.5924;
1789767353259115;-8.7437;0.5692;-1.1898;
1789767363361406;-8.8418;-0.2764;-2.0668;
1789767373463698;-8.7290;0.5907;-3.7412;
1789767383560313;-7.3732;-0.7005;-4.4886;
1789767393662604;-9.1412;0.1211;-4.4118;
1789767403764896;-10.6600;-0.0802;-3.6814;
1789767413874115;-11.6539;0.1307;-2.8522;
1789767423976406;-9.3855;0.1283;-1.5060;
1789767434078698;-8.0824;0.3272;-2.0979;
1789767444176823;-8.3243;-0.7819;-1.9588;
1789767454279115;-11.9632;-1.3711;-3.6571;
1789767464381406;-13.3573;0.9715;0.3215;
1789767474485781;-5.3803;0.5979;0.1158;
1789767484588021;-7.1961;-0.5877;-4.9699;
1789767494690365;-8.8561;0.9811;-2.1601;
1789767504793698;-7.6128;1.2685;-2.3518;
1789767514895833;-8.5256;1.1154;-4.0980;
1789767524997917;-11.4482;0.8040;-4.4934;
1789767535103594;-12.9739;0.2100;-3.8560;
1789767545205677;-13.6352;-0.1376;-0.9502;
1789767555307813;-11.0456;0.0015;-0.9287;
1789767565412240;-10.2670;-0.8994;0.2545;
1789767575514323;-8.4488;-1.1749;-0.3969;
1789767585616458;-9.0072;-1.3017;-2.7900;
1789767595728333;-6.8824;0.3870;-2.2750;
1789767605830469;-4.7192;1.8508;-2.5911;
1789767615932604;-6.8871;1.0244;-4.0765;
1789767626016563;-9.9365;2.5190;-4.1530;
1789767636118646;-9.4669;1.8676;-2.4595;
1789767646220833;-9.3449;2.1072;-4.8694;
1789767656334219;-12.1977;0.2650;-5.3055;
1789767666436354;-12.4564;-1.7521;-3.2812;
1789767676538438;-12.7729;-1.6681;-2.5241;
1789767686640261;-10.9738;-2.4060;-2.2319;
1789767696742344;-7.7351;-1.5461;-1.0845;
1789767706844479;-6.9446;-0.9018;0.1301;
1789767716936927;-10.2909;0.2076;-0.0497;
1789767727039063;-10.2144;1.8221;1.1865;
1789767737141198;-7.5841;2.3106;0.5348;
1789767747241094;-6.2545;1.7524;-3.0535;
1789767757343229;-8.9231;1.7094;-3.6814;
1789767767445365;-12.7920;1.7405;-4.3400;
1789767777550261;-8.7772;-0.0368;-3.2620;
1789767787652396;-6.7002;-0.9712;-6.8312;
1789767797754531;-9.8025;-2.2816;-8.4841;
1789767807858229;-12.0230;-2.6838;-4.2754;
1789767817960313;-12.1666;-1.2347;-0.0449;
1789767828062448;-7.7327;-0.9760;0.0078;
1789767838176094;-8.2741;-0.6598;-1.8607;
1789767848278177;-8.5424;-0.5782;-1.6164;
1789767858380365;-9.1603;0.2578;-1.2162;
1789767868478594;-10.9905;0.5548;-0.3706;
1789767878580729;-9.5438;0.2818;-0.7971;
1789767888682865;-8.1613;-0.1089;-3.3529;
1789767898778386;-10.7701;-1.0980;-3.6742;
1789767908880521;-7.1889;0.4181;-1.6762;
1789767918982604;-7.0092;-0.2620;-3.1950;
1789767929147813;-10.8829;-1.5413;-5.5522;
1789767939249948;-12.8327;-1.2897;-4.0717;
1789767949352031;-10.1737;-0.1041;-1.3696;
1789767959401511;-6.1469;-0.8225;-2.0836;
1789767969503646;-9.8456;-1.9077;-4.0549;
1789767979605729;-12.0829;-0.1232;-0.8809;
1789767989749583;-8.1757;-0.5949;-0.2462;
1789767999851719;-9.4573;-0.9688;-5.0061;
1789768009953854;-9.5291;-0.2716;-2.8765;
1789768020024115;-8.6620;0.1068;-0.6820;
1789768030126198;-8.3842;-0.3676;-1.9732;
1789768040228333;-9.6347;0.7128;-2.5026;
1789768050292188;-10.8012;-0.5686;-3.3529;
1789768060394323;-11.2086;0.5429;-2.7039;
1789768070496458;-9.1627;-0.9425;-1.4103;
1789768080662813;-8.9518;-0.1161;-2.4715;
1789768090764896;-6.7887;-0.6096;-2.6776;
1789768100867031;-9.5315;-0.8803;-5.1353;
1789768110944688;-9.1508;-0.1615;-4.4743;
1789768121046875;-9.3903;0.8806;-1.3265;
1789768131148958;-10.6696;0.7657;-1.5948;
1789768141236511;-9.0766;0.1379;-2.3638;
1789768151338594;-9.5845;0.4711;-1.9564;
1789768161440781;-9.3975;0.3679;-1.5661;
1789768171537656;-10.4659;-0.4872;-2.6130;
1789768181639792;-8.7194;0.1618;-1.7886;
1789768191741927;-7.3684;-0.3891;-1.5084;
1789768201853646;-9.4645;0.2506;-3.2524;
1789768211955781;-12.0015;0.4807;-2.2893;
1789768222057865;-10.4659;0.8973;0.9374;
1789768232159740;-10.6313;1.2182;0.6212;
1789768242261875;-8.1805;0.3464;-1.6164;
1789768252363958;-7.9531;0.2028;-4.4668;
1789768262465573;-8.9830;0.2195;-2.2008;
1789768272567708;-10.1234;0.7705;-1.1061;
1789768282669844;-11.6420;0.0230;-2.0644;
1789768292771719;-11.9294;0.2650;-0.9263;
1789768302873854;-8.6979;0.0685;-0.9048;
1789768312975938;-9.8121;1.4698;-1.7216;
1789768323083490;-6.1516;1.1560;-1.3528;
1789768333185625;-7.9938;0.3488;-2.4021;
1789768343287708;-10.2383;-0.0416;-3.4825;
1789768353380990;-12.5309;-0.5949;-3.0368;
1789768363483125;-13.0771;0.3607;-0.8593;
1789768373585261;-9.4573;-0.7675;0.0652;
1789768383696719;-7.1339;-1.3591;-1.8727;
1789768393798854;-8.4177;0.1331;-1.8799;
1789768403900990;-8.1975;-1.8120;-1.9253;
1789768413996042;-9.2513;-1.5317;-5.0755;
1789768424098125;-10.8467;-0.2883;-2.2415;
1789768434200261;-8.9112;-0.3820;-1.9828;
1789768444305261;-11.4625;-1.3376;-2.3133;
1789768454407344;-6.1540;0.3320;1.1913;
1789768464509531;-7.7710;-1.6202;-2.6776;
1789768474638073;-9.0431;-0.0754;-2.2606;
1789768484740156;-12.9595;-2.1066;-1.6546;
1789768494842292;-16.1910;-0.9066;-1.5733;
1789768504914948;-9.8886;-1.5150;1.0259;
1789768515017136;-7.9098;-1.5652;-0.6532;
1789768525119375;-9.7161;0.1522;-0.2844;
1789768535230886;-8.2430;0.8949;1.4163;
1789768545333125;-7.2583;-0.1376;-1.0678;
1789768555435313;-8.2980;1.3071;-2.1577;
1789768565538646;-8.8777;0.8614;-2.8741;
1789768575640886;-10.6959;0.5357;-2.8307;
1789768585743073;-9.4310;0.2554;-2.6943;
1789768595847083;-9.2106;-0.1591;-2.9483;
1789768605949323;-10.0732;0.3416;-2.2415;
1789768616051563;-7.4812;-0.8680;-2.8140;
1789768626142396;-10.8299;-1.6394;-4.9412;
1789768636244583;-12.3129;-0.3147;-1.5805;
1789768646346823;-8.9207;-0.6646;0.2282;
1789768656451927;-8.0201;-0.8512;-1.1611;
1789768666554167;-8.9303;1.1225;-0.0138;
1789768676656354;-9.3042;0.3535;0.9661;
1789768686762448;-10.0756;0.2722;-0.8952;
1789768696864688;-10.3367;0.9954;-0.1959;
1789768706966875;-10.2622;0.9452;-1.5179;
1789768717049375;-8.4320;-0.2309;-1.4270;
1789768727151563;-7.5075;-0.9281;-2.6201;
1789768737253802;-11.9632;-0.2405;-4.3161;
1789768747364427;-10.0466;-0.0320;-1.6570;
1789768757466667;-8.6046;-0.8731;-2.5744;
1789768767568854;-10.9881;-0.4968;-2.8741;
1789768777684479;-10.0828;-0.5375;-1.5709;
1789768787786667;-11.0456;-1.2347;-0.6748;
1789768797888906;-9.0335;-0.4155;0.2378;
1789768807984427;-9.1531;-0.3700;-0.6604;
1789768818086667;-12.9978;-1.0047;-0.8880;
1789768828188854;-13.1417;-1.1701;0.3529;
1789768838288281;-9.9628;-0.6790;-0.7732;
1789768848390469;-7.1818;-0.8177;-1.4916;
1789768858492708;-4.1656;-0.0009;-1.0941;
1789768868595677;-6.1205;-0.1902;-4.3711;
1789768878697917;-9.2345;-0.8680;-6.2348;
1789768888800104;-8.0704;0.0494;-6.9799;
1789768898917136;-8.9734;-0.8154;-6.4863;
1789768909019323;-9.0646;-0.6646;-4.5891;
1789768919121563;-10.9618;-1.3352;-3.2788;
1789768929209011;-10.9594;-0.8465;-1.6355;
1789768939311250;-7.2033;-1.1892;-0.1717;
1789768949413438;-10.5712;-1.4408;-1.5302;
1789768959541354;-15.1588;-1.1701;-1.3768;
1789768969643646;-10.6983;-1.8646;1.9627;
1789768979745781;-5.4903;-0.9688;1.9337;
1789768989818750;-6.9613;0.7944;1.1889;
1789768999920990;-7.5242;1.0531;0.0556;
1789769010023229;-11.0527;0.8016;-1.3935;
1789769020160833;-14.1383;2.9001;-0.9072;
1789769030263125;-10.1593;2.0136;-2.4093;
1789769040365313;-8.4826;0.2770;-2.3133;
1789769050449792;-6.2354;-0.1831;-1.2978;
1789769060552031;-12.4493;0.8423;-3.0320;
1789769070654219;-12.3033;0.1690;-3.6045;
1789769080745729;-7.7806;-0.8465;-2.0450;
1789769090847917;-9.3951;-0.1017;-2.2678;
1789769100950156;-12.2195;0.0063;-1.0534;
1789769111065208;-8.9758;-0.2668;-0.3945;
1789769121167500;-8.1709;0.1714;-0.1454;
1789769131269636;-12.8160;1.6089;1.0666;
1789769141363073;-9.5390;0.4902;-0.2246;
1789769151465313;-9.7615;-1.2443;-2.7948;
1789769161567500;-10.1450;0.3344;-0.7971;
1789769171662552;-11.2923;-0.4872;-2.1075;
1789769181764740;-10.3726;-0.7292;-3.6643;
1789769191866979;-9.4549;-0.7651;-2.1673;
1789769201983594;-9.9580;-0.3604;-2.6824;
1789769212085833;-10.0322;-0.4944;-1.4988;
1789769222188021;-8.4658;-0.0559;-2.1027;
1789769232288802;-8.7242;-0.2835;-2.3375;
1789769242391042;-11.4529;-0.2285;-0.1382;
1789769252493229;-10.9044;0.7705;-0.6341;
1789769262599531;-9.7496;-0.9664;-2.8403;
1789769272701771;-7.2870;-0.4202;0.4941;
1789769282803958;-9.7113;-0.5925;-1.8200;
1789769292893906;-10.7557;-1.1964;-3.2644;
1789769302996146;-9.5988;-0.6431;-1.6235;
1789769313098333;-9.2417;-1.0597;-2.8068;
1789769323211406;-9.8575;-0.8994;-1.0965;
1789769333313646;-8.7194;-1.3878;-2.3734;
1789769343415833;-10.8275;-0.6622;-2.1218;
1789769353505729;-10.0780;-0.0105;-0.5336;
1789769363607969;-8.2214;-0.9927;-1.2544;
1789769373710156;-9.1627;-0.3314;-1.2835;
1789769383827240;-10.3822;-0.9975;-1.0534;
1789769393929427;-11.9055;-0.5877;-1.0295;
1789769404031667;-11.1727;0.4086;-0.9984;
1789769414118906;-6.9924;-1.1315;-0.9000;
1789769424221094;-9.3305;0.1283;-1.4079;
1789769434323333;-13.1848;0.2124;-0.0808;
1789769444434740;-6.4774;-0.7149;-1.5948;
1789769454536979;-5.9719;0.2530;-2.5816;
1789769464639167;-12.3153;0.2148;-2.2008;
1789769474761563;-10.4635;-0.2859;-2.2726;
1789769484863802;-9.3281;-0.2118;-2.1840;
1789769494966042;-8.8753;-0.1424;-1.7623;
1789769505042813;-8.5807;0.2794;-0.4113;
1789769515145104;-8.5208;0.5644;-2.4739;
1789769525247344;-8.7099;-0.7029;-2.8020;
1789769535358386;-9.9532;0.7199;-2.1793;
1789769545460625;-11.3928;0.5094;-0.9960;
1789769555562969;-9.1651;0.3153;-1.3265;
1789769565659063;-7.8093;-0.5327;-2.4284;
1789769575761302;-9.8527;0.0063;-0.5432;
1789769585863646;-10.8634;0.9452;0.8198;
1789769595984323;-10.9379;0.2722;-1.4701;
1789769606086563;-9.6897;0.3200;-1.2162;
1789769616188854;-7.5697;0.0781;0.5611;
1789769626285000;-10.3774;0.8423;-0.8761;
1789769636387292;-12.3966;-0.3556;-1.9660;
1789769646489583;-12.5644;-0.5327;-1.2425;
1789769656579427;-7.5123;1.3071;0.2785;
1789769666681667;-4.5514;0.4926;-1.2066;
1789769676783958;-11.6539;0.3942;-2.2869;
1789769686891823;-13.4076;-0.0778;-1.9134;
1789769696994063;-8.6070;0.8495;-2.2223;
1789769707096354;-5.4951;0.4134;-1.5422;
1789769717188698;-7.8404;0.1068;-2.0067;
1789769727290938;-15.3479;-0.8850;-2.7159;
1789769737393229;-18.1460;-0.6096;-0.4041;
1789769747494427;-2.6925;0.3009;-0.2868;
1789769757596667;9.4190;-0.1137;-2.8259;
1789769767698958;-9.1364;-0.6574;-4.1674;
1789769777804636;-26.2570;-1.5413;-5.1281;
1789769787906875;-17.6692;-1.4145;-1.5084;
1789769798009167;-3.9598;0.2602;-0.6437;
1789769808111094;-4.2066;0.0876;1.3875;
1789769818213386;-10.7390;-0.8608;0.7169;
1789769828315677;-15.9589;-0.6239;-0.5192;
1789769838414844;-14.8328;0.3392;1.1312;
1789769848517136;-6.0559;0.8303;1.6175;
1789769858619427;-5.6916;0.0278;1.1746;
1789769868721302;-11.0934;-1.4216;-3.0129;
1789769878823542;-13.1608;-2.9163;-5.6647;
1789769888925886;-12.4349;1.1512;-1.6690;
1789769899046198;-5.2965;1.0531;1.2416;
1789769909148490;-4.8508;1.1728;-3.3529;
1789769919250781;-10.7821;0.9930;-3.2955;
1789769929314740;-13.5897;-0.5183;-3.5016;
1789769939417031;-10.6816;0.1905;-4.1195;
1789769949519271;-10.4085;-0.8560;-2.7159;
1789769959641354;-9.1962;-0.1065;-1.6116;
1789769969743646;-8.3363;-1.2658;-1.6187;
1789769979845938;-10.9834;-0.9449;-1.8511;
1789769989956719;-12.2698;0.6170;-1.4868;
1789770000058958;-5.9791;-0.1089;-1.1372;
1789770010161250;-8.5280;-0.2835;-2.5313;
1789770020252031;-14.6198;1.1082;-1.2162;
1789770030354271;-8.9925;0.7247;-1.4533;
1789770040456615;-4.7192;0.4926;-2.0764;
1789770050584427;-9.4549;1.0723;-2.5648;
1789770060686667;-14.3707;-0.5734;-2.1505;
1789770070788958;-12.0183;1.3693;-2.8044;
1789770080881302;-8.0991;-0.3413;-2.2463;
1789770090983594;-8.0417;-0.6144;-0.9670;
1789770101085886;-9.5629;-0.2142;-1.8511;
1789770111173386;-11.3091;-0.3748;-1.4127;
1789770121275625;-9.6180;-0.6048;-2.2582;
1789770131377917;-8.1852;0.3799;-2.4763;
1789770141494531;-9.4454;-0.4202;-1.1803;
1789770151596771;-10.2646;0.0230;-1.3983;
1789770161699063;-8.3746;-0.0511;-1.7456;
1789770171799323;-7.6753;-0.0057;-2.2463;
1789770181901615;-10.0490;0.3105;-1.8631;
1789770192003854;-9.9054;0.0757;-2.0907;
1789770202102136;-9.1053;-0.1496;-3.6694;
1789770212204375;-8.0871;-1.1677;-1.6977;
1789770222306667;-10.7486;-1.1243;-3.0846;
1789770232407031;-13.4865;-0.6694;-2.1362;
1789770242509271;-9.2536;-0.7005;0.1684;
1789770252611563;-6.0751;-0.9018;-1.5589;
1789770262716719;-10.7916;-0.9377;-1.3289;
1789770272818958;-12.9882;-0.0057;-0.5719;
1789770282921250;-8.1302;0.1857;-0.8498;
1789770293018906;-7.7638;-0.0200;-1.1324;
1789770303121146;-10.5784;-0.0897;-0.7708;
1789770313223438;-11.3880;0.9165;-0.6867;
1789770323333021;-10.1043;1.1154;-1.7599;
1789770333435261;-8.6094;0.4038;-1.1180;
1789770343537552;-9.1388;-0.7005;-1.2353;
1789770353626719;-11.1990;0.6793;-1.6522;
1789770363728958;-9.3520;0.7825;-1.5326;
1789770373831302;-6.8390;0.4493;-2.3830;
1789770383941042;-9.0598;-1.2467;-3.7723;
1789770394043333;-11.1245;0.6410;-2.9794;
1789770404145573;-9.9987;1.4195;-1.2138;
1789770414247969;-7.5864;-0.0057;-2.7111;
1789770424350261;-9.4047;-0.3915;-1.7432;
1789770434452552;-9.8575;1.6831;-0.9814;
1789770444553490;-9.5148;0.7032;-1.5733;
1789770454655729;-10.3316;-0.6861;-1.9397;
1789770464758073;-9.7017;0.6721;0.0532;
1789770474858542;-8.7676;-0.0706;-0.4690;
1789770484960781;-9.8264;-0.5279;-1.8823;
1789770495063073;-9.4358;-1.1195;-1.8224;
1789770505164375;-9.8982;-0.2835;-1.7192;
1789770515266667;-9.6969;-0.5830;-3.2955;
1789770525368958;-10.1402;-0.4011;-1.3193;
1789770535490469;-9.2010;-0.4418;-1.6810;
1789770545592708;-9.1723;-0.0945;-0.8474;
1789770555695000;-10.1067;0.1499;-0.5815;
1789770565798281;-9.2584;0.4660;-0.4089;
1789770575900521;-10.1641;-0.5112;-1.1133;
1789770586002813;-10.7198;-0.2213;-1.2691;
1789770596082448;-8.8131;-0.8874;-0.3562;
1789770606184688;-8.9016;-1.0956;-2.1601;
1789770616286979;-10.6217;-0.9832;-1.4725;
1789770626380938;-9.6610;-1.1844;-1.5852;
1789770636483177;-8.1446;-1.6202;-2.9746;
1789770646585469;-9.1173;-1.5317;-3.1831;
1789770656715677;-11.4506;-0.5351;-2.1170;
1789770666817917;-9.5533;-0.6670;-1.3337;
1789770676920208;-7.3660;-1.5126;-1.7384;
1789770687013646;-8.6189;-0.6814;-1.1276;
1789770697115886;-10.8658;-0.2118;-1.9804;
1789770707218177;-10.4157;-0.6455;-1.7886;
1789770717288281;-10.5544;-1.2778;-1.2715;
1789770727390573;-9.3449;-1.0549;-1.5446;
1789770737492813;-9.1292;-0.9784;-0.9984;
1789770747627761;-10.7988;-0.8345;-2.0163;
1789770757730000;-10.3196;-0.3413;-0.7851;
1789770767832292;-7.6319;-1.0143;-1.6834;
1789770777926615;-9.3209;-1.1557;-3.4896;
1789770788028854;-12.5142;-0.2046;-1.5805;
1789770798131146;-9.9796;-0.2046;-1.6020;
1789770808238490;-7.4333;-0.4777;-2.0498;
1789770818340729;-7.7973;0.8207;-1.3983;
1789770828443021;-9.8815;0.4277;-1.1683;
1789770838542240;-10.8852;0.7992;-1.9971;
1789770848644479;-10.6935;0.5429;-1.9014;
1789770858746771;-8.6046;0.3703;-1.0223;
1789770868848073;-8.5687;0.2459;-1.2930;
1789770878950313;-9.9987;0.0517;-2.6967;
1789770889052656;-9.9939;-0.4226;-1.1492;
1789770899171563;-8.3483;0.0350;-1.9134;
1789770909273802;-10.6241;-1.0478;-3.7531;
1789770919376094;-12.3703;-0.5638;-2.5217;
1789770929455886;-9.1699;0.1666;-0.4929;
1789770939558125;-7.8165;-0.5638;-1.5613;
1789770949660417;-9.8480;-0.1998;-1.1348;
1789770959768490;-9.9341;0.3033;-0.2749;
1789770969870729;-9.6897;0.6577;-1.2401;
1789770979973021;-10.4803;0.4612;-1.0534;
1789770990067761;-9.1412;-0.1807;-0.6508;
1789771000170000;-8.8801;0.3320;-1.4438;
1789771010272292;-10.4204;0.2001;-2.4619;
1789771020387865;-9.7519;-0.6837;-2.0426;
1789771030490104;-8.1302;-0.7914;-1.9971;
1789771040592396;-9.4095;-0.1041;-2.7302;
1789771050706198;-12.7992;-0.2788;-3.0679;
1789771060808438;-9.6897;-0.2596;-1.4031;
1789771070910729;-8.3435;-0.8225;-1.2233;
1789771081015208;-8.5902;0.2124;-0.9215;
1789771091117448;-8.7341;0.1762;-0.8186;
1789771101219740;-10.6696;-0.4226;-1.6570;
1789771111300052;-11.4912;1.1273;-1.2930;
1789771121402292;-9.7256;0.0685;-1.1492;
1789771131504583;-9.0359;-0.4657;-1.0295;
1789771141610677;-8.7099;0.3775;-1.5517;
1789771151712917;-7.9819;-0.1615;-2.3495;
1789771161815261;-8.8250;-0.9090;-2.2678;
1789771171927344;-9.5172;0.0374;-2.5098;
1789771182029636;-10.1234;-0.1304;-3.3194;
1789771192131875;-10.7127;-0.2859;-2.8116;
1789771202230729;-9.1555;-0.5351;-1.9421;
1789771212332969;-10.0875;-1.1267;-1.3289;
1789771222435261;-10.0298;-0.0535;-0.5695;
1789771232538594;-9.4430;-0.2524;-0.5862;
1789771242640833;-10.5592;-0.2333;-0.2103;
1789771252743125;-10.3750;0.9858;-0.3419;
1789771262841719;-9.2683;-0.6550;-0.3538;
1789771272943958;-9.3999;0.3129;-0.9359;
1789771283046250;-9.2827;0.3488;-1.9971;
1789771293156823;-9.6610;-0.8656;-2.9554;
1789771303259063;-8.5926;-0.6431;-1.8870;
1789771313361354;-7.9074;0.5812;-1.6140;
1789771323463073;-9.4358;0.0398;-3.4872;
1789771333565313;-10.7797;-0.0176;-2.8932;
1789771343667604;-10.0418;0.3224;-2.1840;
1789771353766406;-8.5519;0.1307;-1.3098;
1789771363868646;-8.8825;-0.2094;-1.1228;
1789771373970938;-11.0408;0.2626;-1.1061;
1789771384082969;-10.7198;-0.4753;-0.8043;
1789771394185261;-10.4922;0.2459;-0.7540;
1789771404287500;-8.4778;-0.9760;-0.7995;
1789771414369011;-9.8839;-0.9592;-1.0223;
1789771424471250;-10.5114;-0.5997;-1.3504;
1789771434573594;-9.2393;-0.7364;-2.1649;
1789771444675313;-8.8011;-0.2692;-1.7599;
1789771454777552;-9.3999;-0.2166;-1.5996;
1789771464879896;-9.8910;0.4229;-2.5986;
1789771475026563;-8.9255;0.6194;-2.2199;
1789771485128854;-9.3473;0.8423;-1.9373;
1789771495231146;-11.8193;-0.3628;-1.7192;
1789771505295990;-11.5247;0.6649;-1.2257;
1789771515398333;-8.5280;0.0589;-0.4929;
1789771525500625;-8.8513;-0.8465;-0.6197;
1789771535601198;-11.3569;0.6290;-1.0104;
1789771545703490;-10.5568;-0.7531;-1.6834;
1789771555805833;-9.2249;-0.8177;-1.4557;
1789771565911094;-8.3411;-0.1759;-1.7767;
1789771576013386;-9.7496;-0.3796;-2.7972;
1789771586115729;-9.8360;-1.0167;-2.8451;
1789771596204011;-9.3999;0.2841;-2.6393;
1789771606306354;-8.4009;0.7271;-1.8535;
1789771616408646;-8.3028;0.0733;-3.3936;
1789771626508698;-11.6252;0.1738;-2.4045;
1789771636610990;-11.9366;0.5381;-0.7469;
1789771646713333;-8.4754;0.5405;-0.8617;
1789771656838073;-6.9302;0.0470;-0.3323;
1789771666940365;-10.9881;-0.8536;-1.3983;
1789771677042708;-12.7223;0.4807;-1.7408;
1789771687137344;-8.6046;-0.9018;-1.8320;
1789771697239636;-7.2775;-0.9090;-1.9923;
1789771707341979;-10.5951;-0.5566;-1.7695;
1789771717429636;-11.9704;-0.6263;-2.7613;
1789771727531927;-9.1125;-0.7531;-2.4835;
1789771737634271;-6.7098;-0.5279;-1.5470;
1789771747743594;-9.4262;0.6266;-0.9814;
1789771757845886;-10.2622;-0.0416;-1.9469;
1789771767948229;-10.4874;0.2578;-2.4188;
1789771778068073;-9.2178;0.2770;-1.0510;
1789771788170417;-9.1555;-0.3676;-1.2329;
1789771798272708;-9.7567;-0.3915;-1.2377;
1789771808352969;-8.6883;0.0039;-1.7432;
1789771818455261;-8.8059;-0.6526;-1.3074;
1789771828557604;-9.8982;-0.3365;-2.3518;
1789771838660781;-8.7341;-0.8058;-2.7661;
1789771848763125;-9.3042;-0.3532;-1.8511;
1789771858865469;-13.8604;-0.0849;-0.7349;
1789771868988073;-15.3550;0.5692;-0.2677;
1789771879090417;-8.2310;-0.6622;0.3263;
1789771889192761;-6.2330;-0.1711;0.5635;
1789771899279583;-9.4860;0.2052;0.6882;
1789771909381875;-11.4625;-0.1400;-0.8019;
1789771919484219;-10.5329;0.4540;-2.3686;
1789771929608386;-9.6993;-0.0682;-2.4571;
1789771939710677;-7.8260;0.2291;-1.7719;
1789771949813021;-8.1135;0.3751;-2.7398;
1789771959885781;-10.2000;0.3703;-3.1735;
1789771969988073;-11.0480;-0.1041;-2.6201;
1789771980090417;-8.9303;1.0364;-1.7192;
1789771990250938;-7.7040;0.3009;-1.2544;
1789772000353281;-8.6620;-0.0849;-1.9373;
1789772010455625;-11.5463;1.3908;-0.0568;
1789772020530208;-8.1805;0.6290;-0.7923;
1789772030632500;-7.0451;-1.2993;-3.9015;
1789772040734844;-11.3856;-1.1339;-3.6093;
1789772050810886;-12.2674;-0.8898;-2.6345;
1789772060913229;-9.2417;-1.6585;-3.1181;
1789772071015573;-7.8045;-1.9774;-2.4571;
1789772081145625;-11.0504;-1.1653;-1.9708;
1789772091247917;-12.1977;-0.7388;-0.9048;
1789772101350261;-9.8623;-0.8850;-0.2509;
1789772111426511;-8.4921;0.3655;0.3984;
1789772121528802;-9.4382;0.2411;1.0475;
1789772131631146;-10.0011;0.3153;-0.7612;
1789772141738386;-10.0708;0.3942;-0.9526;
1789772151840729;-9.3018;-0.3314;-1.5302;
1789772161943021;-10.3173;-0.1089;-2.6177;
1789772172042552;-10.0609;0.0972;-2.3782;
1789772182144844;-7.8787;-0.7603;-2.4619;
1789772192247188;-8.1805;-1.3448;-3.3314;
1789772202358594;-10.1569;-0.3338;-2.8813;
1789772212460886;-11.4242;-0.1687;-1.3361;
1789772222563229;-7.8212;-0.9257;-2.2367;
1789772232664427;-8.0560;-0.3652;-2.7613;
1789772242766719;-10.8515;-0.1759;-0.9359;
1789772252869063;-9.7759;-0.3314;-1.3217;
1789772262970365;-8.5998;0.2363;-1.7264;
1789772273072656;-10.3439;0.0805;-1.3169;
1789772283175000;-11.7643;-0.0248;-1.5084;
1789772293279115;-9.6323;0.1235;-1.4821;
1789772303381406;-7.8547;-0.3290;-1.1970;
1789772313483750;-8.7724;-0.4011;-1.0247;
1789772323588177;-11.7978;0.4086;-1.3265;
1789772333690469;-8.2167;-0.2261;-2.7087;
1789772343792813;-8.4754;-0.6622;-2.3830;
1789772353903073;-10.4037;-0.2907;-2.2822;
1789772364005417;-9.8599;0.1977;-2.3997;
1789772374107708;-9.9054;0.0924;-1.8703;
1789772384179011;-7.9098;-0.1208;-1.4964;
1789772394281354;-9.2082;-0.3748;-2.5720;
1789772404383646;-11.8361;-0.3843;-1.6140;
1789772414499740;-11.8624;0.4469;-0.1334;
1789772424602083;-8.1999;0.8112;-0.5192;
1789772434704375;-7.0211;-0.0176;-0.8545;
1789772444801615;-9.8671;0.8949;-1.3959;
1789772454903906;-12.2865;0.4421;-1.3648;
1789772465006250;-9.5291;-0.2500;-1.6977;
1789772475107240;-8.9542;-0.0607;-2.1338;
1789772485209531;-11.5032;-0.6598;-1.5422;
1789772495311875;-9.9532;-0.1519;-1.0199;
1789772505421719;-7.4285;-0.6168;-2.2128;
1789772515524011;-7.9265;-0.2955;-2.0812;
1789772525626302;-10.3340;0.5189;-1.8368;
1789772535736667;-10.8323;0.1164;-2.2750;
1789772545838906;-9.1149;0.1140;-1.8057;
1789772555941198;-9.4119;-0.0081;-1.7336;
1789772566035677;-10.6337;-1.0382;-1.8129;
1789772576137969;-10.5377;0.0733;-1.1204;
1789772586240208;-9.6419;0.1451;-1.3098;
1789772596364219;-8.8657;-0.5160;-1.5470;
1789772606466458;-9.8815;-0.5590;-1.9564;
1789772616568750;-9.6778;0.2746;-1.1276;
1789772626624427;-7.9412;-0.3891;-0.8856;
1789772636726667;-9.2345;-1.0382;-2.6273;
1789772646828906;-10.7868;-0.1184;-2.9483;
1789772656931198;-10.1354;-0.0778;-2.0812;
1789772667071198;-8.6979;-0.6168;-3.1998;
1789772677173490;-8.9662;-1.4432;-2.8068;
1789772687275729;-9.7161;-0.4274;-2.2367;
1789772697376615;-9.0096;-1.0430;-1.3385;
1789772707478906;-8.3674;-0.3075;-1.2162;
1789772717581198;-8.7987;-0.0009;-2.0402;
1789772727677136;-11.6420;-0.4490;-2.3471;
1789772737779427;-10.7151;-0.4490;-1.4892;
1789772747881667;-8.5232;-0.2740;-1.4773;
1789772757980781;-6.7959;-0.9760;-1.3457;
1789772768083073;-11.8983;-0.5279;-1.6235;
1789772778185313;-11.6563;-0.3843;-1.9804;
1789772788298906;-7.7782;-0.4729;-2.0282;
1789772798401198;-6.3410;-0.7555;-1.8248;
1789772808503490;-10.8610;0.4301;-1.6283;
1789772818590573;-11.5630;0.2411;-1.9732;
1789772828692865;-8.5161;-0.6814;-2.4428;
1789772838795156;-8.6309;0.3224;-0.7756;
1789772848897656;-7.8667;-0.1902;-1.6666;
1789772858999948;-11.4697;-0.1591;-2.7063;
1789772869102188;-12.7128;0.1403;-1.0917;
1789772879174375;-9.8360;0.3200;-0.1860;
1789772889276667;-6.6715;-0.2955;-0.5384;
1789772899378906;-8.6955;-0.0511;-1.1563;
1789772909516927;-11.7284;0.5764;-1.1276;
1789772919619167;-11.9055;0.6793;-1.7360;
1789772929721458;-8.2286;0.0733;-1.8966;
1789772939817448;-10.3534;-0.1352;-0.8306;
1789772949919740;-10.3196;0.8566;-0.6341;
1789772960021979;-8.7867;-0.5830;-1.6714;
1789772970130469;-9.2345;-0.2381;-2.0258;
1789772980232761;-11.1942;0.7008;-1.1683;
1789772990335000;-10.7653;0.6625;-1.5422;
1789773000430781;-7.7279;-0.1807;-1.0798;
1789773010533073;-8.8729;0.0733;-2.0402;
1789773020635313;-10.5951;0.0972;-1.3528;
1789773030752969;-9.3975;-0.0392;-2.2295;
1789773040855261;-10.5257;-0.0033;-2.1529;
1789773050957552;-8.5208;-0.1232;-1.6762;
1789773061045886;-7.9122;-0.5614;-3.1615;
1789773071148177;-12.5094;-0.2237;-2.8522;
1789773081250469;-12.1187;-1.4791;-2.6560;
1789773091352969;-7.9986;-1.0071;-1.3983;
1789773101455261;-7.0403;-0.5351;-1.5733;
1789773111557500;-9.3999;-0.1089;-2.1458;
1789773121664479;-11.5654;-0.4681;-2.1888;
1789773131766771;-10.0274;0.0709;-1.2739;
1789773141869063;-7.1698;-0.6263;-2.1553;
1789773151966563;-10.3268;-0.1424;-2.4882;
1789773162068854;-10.8491;-0.1017;-2.6871;
1789773172171094;-9.9365;-1.0956;-2.4165;
1789773182268802;-6.9900;-1.0502;-1.6164;
1789773192371094;-10.2215;-0.6168;-2.6010;
1789773202473333;-11.9414;-1.2347;-2.6345;
1789773212580573;-8.6764;-0.4753;-1.9181;
1789773222682865;-9.2560;0.0613;-1.7961;
1789773232785104;-8.5615;-0.6191;-0.9407;
1789773242908177;-10.6744;-1.1004;-1.9493;
1789773253010469;-12.8710;-0.3652;-1.7985;
1789773263112708;-9.8456;-0.2022;-1.3385;
1789773273190365;-7.5936;0.0876;-1.0989;
1789773283292656;-10.1545;-0.4155;-0.7493;
1789773293394896;-11.5893;0.4950;-1.2858;
1789773303506563;-9.2489;-0.1878;-1.1779;
1789773313608854;-7.4548;0.8925;-1.8416;
1789773323711094;-10.2479;0.9476;-1.7575;
1789773333807552;-10.6792;0.6817;-2.3495;
1789773343909844;-10.0828;0.5237;-2.0545;
1789773354012136;-8.3052;0.3392;-1.8057;
1789773364108073;-6.9230;0.6553;-3.0655;
1789773374210365;-11.0288;1.1058;-1.9636;
1789773384312604;-11.3833;0.4205;-1.5517;
1789773394442813;-8.8466;-0.0682;-2.5600;
1789773404545104;-9.3951;0.6984;-1.4414;
1789773414647396;-8.9495;0.4878;-1.3098;
1789773424727136;-9.5486;0.1642;-1.9397;
1789773434829427;-12.2315;0.2626;-1.0798;
1789773444931719;-10.0035;-0.6455;-1.5084;
1789773455034219;-9.0072;0.7080;-1.8248;
1789773465136511;-9.3903;0.0446;-1.9373;
1789773475238802;-8.7772;0.4421;-1.0917;
1789773485348177;-8.2837;-0.3437;-1.8703;
1789773495450469;-8.4033;-0.2596;-2.9195;
1789773505552761;-11.2253;0.8758;-2.8116;
1789773515670000;-12.2387;0.6840;-1.7145;
1789773525772500;-8.4416;-1.1052;-1.3648;
1789773535874896;-7.8691;-0.0009;-1.2114;
1789773545969740;-7.5912;0.5453;-1.2930;
1789773556072188;-11.2684;-0.1328;-2.5648;
1789773566174636;-12.2387;-0.6191;-1.2906;
1789773576259948;-9.2707;-0.3123;-0.1167;
1789773586362396;-7.3899;-0.4298;-1.4725;
1789773596464844;-10.5233;-0.1735;-2.0043;
1789773606571927;-9.7304;-0.7555;-1.3433;
1789773616674375;-9.8264;-1.0836;-1.6187;
1789773626776823;-8.8801;-0.1472;-1.9421;
1789773636895052;-9.3066;-0.1878;-1.6953;
1789773646997500;-11.5941;0.0565;-2.5146;
1789773657099948;-10.6576;-0.9185;-1.1157;
1789773667199427;-8.0991;0.0924;-1.1228;
1789773677301875;-9.5725;0.2243;-1.4294;
1789773687404323;-9.7328;0.5979;-0.8545;
1789773697478750;-11.2325;0.8710;-0.4714;
1789773707581146;-8.8633;0.9404;-1.1324;
1789773717683594;-7.6439;1.1393;-1.1420;
1789773727804427;-8.9040;0.8088;-2.1338;
1789773737906875;-12.6864;0.0135;-2.0764;
1789773748009323;-9.8958;-0.6598;-1.6211;
1789773758107136;-6.9565;0.4588;-2.0330;
1789773768209583;-8.3578;0.0326;-2.4141;
1789773778312031;-11.0958;-0.9425;-2.1984;
1789773788418073;-11.2971;0.4445;-1.4414;
1789773798520521;-8.7987;0.0230;-1.6881;
1789773808622969;-8.5567;-0.0296;-1.8033;
1789773818709636;-11.5439;0.6505;-0.9861;
1789773828812083;-11.4266;-0.3724;-0.5551;
1789773838914531;-7.1387;-0.0248;-0.9861;
1789773849052656;-9.0335;1.2015;-1.0893;
1789773859155104;-9.0526;-0.0416;-1.0080;
1789773869257552;-8.5304;0.0111;-2.2319;
1789773879333542;-9.5124;0.2363;-2.3638;
1789773889435990;-14.1000;0.1044;-1.1396;
1789773899538438;-14.0160;0.4926;0.1158;
1789773909648229;-7.3660;-1.0980;0.2450;
1789773919750677;-7.2488;0.4711;0.0990;
1789773929853125;-11.2325;0.5812;0.6332;
1789773939961458;-10.5879;0.3488;0.9446;
1789773950063906;-6.7265;0.1929;0.0485;
1789773960166354;-7.9890;0.5477;-1.3098;
1789773970272344;-6.5492;1.6519;-1.5829;
1789773980374740;-7.1387;0.7418;-1.9205;
1789773990477240;-10.7725;0.0015;-2.0617;
1789774000571302;-15.1370;0.4397;-1.3983;
1789774010673750;-11.9198;1.1895;-0.2246;
1789774020776198;-4.4964;0.4181;0.7337;
1789774030887656;-8.4248;0.1331;0.3912;
1789774040990104;-9.2513;0.3344;0.8533;
1789774051092552;-16.1097;-0.2572;2.0082;
1789774061203073;-20.2155;0.6505;0.8991;
1789774071305469;-14.1503;-0.9568;2.6142;
1789774081407917;-5.5696;0.8806;3.0718;
1789774091494479;-7.6008;0.8830;4.3412;
1789774101596927;-13.9011;-0.6502;2.9542;
1789774111699375;-13.8509;0.2459;1.0714;
1789774121789427;-6.4199;-0.7412;0.4295;
1789774131891875;-7.8858;0.1618;-0.4137;
1789774141994323;-11.1054;-0.3843;-3.4298;
1789774152100990;-11.5822;-1.3807;-4.1578;
1789774162203438;-6.1301;-0.7842;-4.1459;
1789774172305886;-6.3841;-1.0789;-2.1218;
1789774182410052;-10.7581;-1.3424;-2.7230;
1789774192512500;-13.7931;1.3167;-0.7083;
1789774202614948;-21.0347;2.0809;2.5663;
1789774212709531;-7.4596;0.9428;3.1053;
1789774222811979;-0.4911;3.0724;7.5754;
1789774232914427;-11.1006;2.3563;4.5951;
1789774243023958;-9.0670;1.3454;5.2516;
1789774253126354;-2.8241;1.4148;1.6032;
1789774263228802;-7.4836;-1.3567;-7.5165;
1789774273322761;-19.0537;-4.9573;-10.6184;
1789774283425208;-10.0851;-0.7866;-5.3007;
1789774293527656;0.4026;-3.1152;-5.3629;
1789774303633386;-9.8982;-7.8894;-9.1860;
1789774313735833;-16.0642;-5.3189;-1.8679;
1789774323838281;-8.4826;-3.6541;0.2617;
1789774333933073;-7.9460;-3.1702;2.3698;
1789774344035521;-13.5033;-0.5949;3.4167;
1789774354137969;-11.2588;1.5368;5.5893;
1789774364231563;-9.0957;1.1297;5.2588;
1789774374334011;-10.4037;0.2554;3.0670;
1789774384436458;-12.8064;0.4181;3.0550;
1789774394541719;-9.5988;-0.0057;0.1516;
1789774404644115;-9.9197;-1.7976;-1.4222;
1789774414746563;-10.1282;-1.0693;-2.5887;
1789774424850261;-9.4980;-1.5915;-3.3099;
1789774434952708;-10.1713;-0.5590;-3.4609;
1789774445055156;-9.9389;-1.0454;-1.2520;
1789774455160729;-9.2731;1.0220;-0.3802;
1789774465263177;-11.0480;0.0039;0.5779;
1789774475365625;-12.9165;1.0531;0.8414;
1789774485468229;-10.9355;0.6673;2.3363;
1789774495570677;-9.8958;1.2760;1.8404;
1789774505673125;-10.2981;0.9547;3.1579;
1789774515778698;-8.4296;1.3071;2.5950;
1789774525880886;-7.8069;1.9035;0.9302;
1789774535983073;-9.4190;0.9236;0.1038;
1789774546090365;-10.6361;1.1608;-2.6489;
1789774556192552;-10.3798;-0.4490;-1.9540;
1789774566294740;-6.9111;0.6577;-1.4844;
1789774576387396;-7.4189;-0.5853;-2.5839;
1789774586489583;-10.4635;-0.0224;-2.4308;
1789774596591771;-10.1019;0.6194;-0.5097;
1789774606704896;-9.5797;0.5883;-0.3634;
1789774616807083;-7.6128;1.4004;2.0082;
1789774626909271;-10.4444;-0.1591;2.2164;
1789774637012552;-14.6749;1.8003;1.7471;
1789774647114740;-10.6193;-0.1663;3.6443;
1789774657216927;-7.9388;-0.0802;3.1316;
1789774667333386;-8.8944;-0.1089;2.1900;
1789774677435573;-12.5429;-2.1138;1.2607;
1789774687537761;-11.9318;-2.1449;-0.9885;
1789774697625990;-7.6008;-3.5824;-0.2916;
1789774707728177;-9.5677;-3.6613;-0.7155;
1789774717830313;-11.0862;-2.5714;-1.1946;
1789774727938490;-9.6706;-2.6049;-0.7851;
1789774738040677;-10.0083;-1.1267;-0.4448;
1789774748142865;-9.7352;0.0087;0.7816;
1789774758227656;-12.5046;0.1331;1.9675;
1789774768329844;-11.2564;-0.4490;1.0020;
1789774778432031;-6.3434;0.6194;2.5735;
1789774788531823;-12.2435;0.3248;1.7471;
1789774798634011;-12.7466;1.1584;-0.1597;
1789774808736198;-8.2190;0.8183;0.8246;
1789774818842865;-13.2999;-0.7412;-0.6556;
1789774828945052;-11.2349;-1.3591;-0.8378;
1789774839047240;-7.7901;-0.7651;0.8629;
1789774849149636;-12.4878;-0.9784;0.1851;
1789774859251875;-11.9390;-0.1687;-0.0616;
1789774869354063;-8.0489;0.2913;1.5840;
1789774879567083;-9.1986;2.1933;0.8701;
1789774889669271;-11.2636;2.4042;0.2186;
1789774899771458;-10.3558;3.6930;1.3014;
1789774909766979;-6.8728;5.8128;1.9385;
1789774919869167;-9.4478;6.8620;0.5492;
1789774929971354;-11.9222;6.2632;0.2426;
1789774940067083;-7.6319;4.4450;0.4774;
1789774950169271;-10.5903;3.2402;-0.3682;
1789774960271511;-12.1929;2.7873;-0.7107;
1789774970390261;-11.0312;2.0785;0.4678;
1789774980492448;-8.0967;1.8820;1.5003;
1789774990594636;-9.1460;2.7036;1.4115;
1789775000685052;-10.9020;2.9838;1.1913;
1789775010787240;-10.4731;3.7959;2.5615;
1789775020889375;-9.6993;4.4931;3.1412;
1789775031004948;-9.9987;4.9481;3.4358;
1789775041107083;-10.5903;5.4511;2.4153;
1789775051209271;-11.5750;6.1388;2.2573;
1789775061294896;-10.2933;5.6955;1.2272;
1789775071397083;-10.3822;4.6128;0.6212;
1789775081499219;-10.5401;3.3263;1.9555;
1789775091602448;-9.4190;1.5105;2.1446;
1789775101704636;-9.2779;-0.3027;0.9326;
1789775111806823;-10.2646;-1.0454;0.5587;
1789775121911927;-10.0226;-3.1534;-0.8498;
1789775132014115;-9.9963;-5.2424;-1.2281;
1789775142116250;-11.5223;-6.8976;-0.9526;
1789775152227240;-11.5199;-7.1157;1.3564;
1789775162329427;-9.4621;-5.7144;2.4105;
1789775172431615;-9.0407;-4.0397;0.6906;
1789775182535052;-10.2814;-3.0721;-0.8402;
1789775192637240;-9.8527;-3.2180;-0.3538;
1789775202739427;-8.5089;-3.4648;0.3311;
1789775212842969;-9.1651;-3.1678;-0.0329;
1789775222945156;-10.2024;-2.7341;-0.8210;
1789775233047344;-9.1962;-2.0755;-2.0378;
1789775243152136;-9.7208;-2.1042;-4.0143;
1789775253254323;-10.9738;-2.4610;-4.1578;
1789775263356511;-9.5076;-2.4395;-2.6536;
1789775273458490;-7.6968;-1.2084;-2.6297;
1789775283560677;-8.2573;-0.4920;-3.4083;
1789775293662865;-9.3640;0.1020;-2.9148;
1789775303758698;-8.3554;0.9595;-1.5829;
1789775313860886;-7.6801;0.9236;-2.5504;
1789775323963073;-9.8599;0.9547;-4.9651;
1789775334073906;-10.9738;1.4937;-4.4719;
1789775344176094;-8.9327;2.1024;-2.4404;
1789775354278229;-8.1517;2.4927;-2.7900;
1789775364371406;-8.4778;2.7323;-4.3567;
1789775374473594;-8.8346;2.4305;-3.9688;
1789775384575781;-9.5677;1.6783;-2.1075;
1789775394696302;-9.7208;1.4650;-2.0812;
1789775404798490;-10.2072;2.1479;-3.9473;
1789775414900677;-10.1761;2.8977;-3.5112;
1789775424978594;-8.9231;2.8280;-2.0234;
1789775435080781;-9.2178;2.8017;-1.8942;
1789775445182969;-9.0431;2.4951;-1.9875;
1789775455292240;-8.5615;2.6677;-2.2295;
1789775465394427;-9.2946;2.7491;-2.9530;
1789775475496563;-10.2550;2.1957;-3.6452;
1789775485607656;-10.2359;2.4832;-3.7484;
1789775495709844;-9.2297;3.8916;-4.1818;
1789775505812031;-8.7796;2.1790;-1.0917;
1789775515888802;-10.1521;0.3535;0.5109;
1789775525990990;-10.8757;0.0446;-0.7899;
1789775536093177;-9.6299;-0.1998;-0.2701;
1789775546206511;-9.4143;0.0972;-1.3576;
1789775556308698;-10.1665;-0.3532;-1.7815;
1789775566410886;-9.9844;-0.2142;-1.8751;
1789775576512136;-9.0144;-0.0631;-0.9383;
1789775586614323;-9.4502;0.4014;-1.0678;
1789775596716458;-9.5964;1.4770;-1.3217;
1789775606822761;-9.0072;1.6687;-0.7684;
1789775616924896;-10.6074;-0.4083;-0.6508;
1789775627027083;-11.6925;-1.3878;-0.8186;
1789775637139844;-9.8097;-1.0214;0.4845;
1789775647242031;-8.4368;0.1905;-2.5552;
1789775657344219;-10.0756;0.9212;-6.9559;
1789775667425000;-9.8791;0.4445;-3.7125;
1789775677527136;-8.3052;-0.1424;1.4572;
1789775687629323;-8.8298;-0.6215;1.0857;
1789775697761823;-10.0514;-0.4418;-1.7838;
1789775707864011;-10.0995;-0.1831;-1.9086;
1789775717966198;-10.1402;-0.4657;-1.5326;
1789775728049427;-10.0923;-0.6383;-2.6680;
1789775738151615;-9.4478;-0.2740;-3.2572;
1789775748253750;-8.6261;0.2339;-2.3204;
1789775758353698;-8.4296;0.3416;-1.5948;
1789775768455886;-9.5148;0.4038;-2.1266;
1789775778558021;-10.1785;0.3775;-1.4988;
1789775788657136;-9.6108;0.0159;0.0676;
1789775798759323;-9.5342;-0.3891;-0.8043;
1789775808861458;-10.4683;-0.1089;-3.6885;
1789775818981719;-10.4252;0.8590;-4.6394;
1789775829083854;-9.0933;1.3525;-2.6225;
1789775839186042;-8.1278;1.0795;-1.2377;
1789775849267500;-8.7580;0.5812;-1.6451;
1789775859369688;-9.6993;0.1235;-1.3409;
1789775869526250;-10.1928;-0.0392;-1.4797;
1789775879628438;-10.9044;0.6123;-3.5686;
1789775889730625;-10.0394;1.4865;-3.5447;
1789775899789688;-8.5448;1.9274;-0.7636;
1789775909891875;-9.0503;2.0351;0.2617;
1789775919994063;-10.3316;1.6280;-0.4089;
1789775930084688;-9.9580;1.2182;-0.9694;
1789775940186875;-9.3018;1.2446;-2.4500;
1789775950289063;-9.2513;1.3119;-3.6838;
1789775960403177;-8.7389;1.6974;-3.5183;
1789775970505365;-8.2597;1.4650;-2.2104;
1789775980607552;-8.5783;0.9667;-1.4462;
1789775990714219;-9.6084;0.4902;-2.1362;
1789776000816354;-10.6600;-0.2692;-2.4332;
1789776010918542;-10.6217;0.0230;-1.7647;
1789776021032292;-9.8145;0.2841;-1.5278;
1789776031134479;-8.9566;0.2722;-1.4509;
1789776041236667;-8.4153;0.2195;-1.8416;
1789776051335521;-8.6118;-0.3676;-2.1984;
1789776061437708;-9.1125;-0.3796;-2.4787;
1789776071539896;-9.2946;-0.3796;-2.6656;
1789776081637552;-9.3544;-0.5399;-3.0727;
1789776091739740;-9.5342;-1.4503;-2.9291;
1789776101841875;-9.7352;-2.4610;-2.0716;
1789776111955938;-9.4454;-3.2587;-1.2882;
1789776122058177;-9.1508;-3.2228;-1.4916;
1789776132160313;-9.2536;-3.0024;-1.9995;
1789776142267604;-9.4143;-2.5164;-2.1817;
1789776152369844;-9.4334;-2.5810;-2.1242;
1789776162471979;-9.8551;-2.3797;-3.3649;
1789776172559427;-10.1809;-2.5211;-4.0238;
1789776182661615;-9.3090;-3.5943;-2.0426;
1789776192763802;-8.9471;-4.0998;-0.3969;
1789776202868594;-9.5390;-3.8219;-0.8474;
1789776212970781;-9.7472;-3.0048;-1.8703;
1789776223072969;-9.6275;-1.7043;-3.5495;
1789776233167136;-9.5291;-1.8479;-4.2275;
1789776243269323;-9.2779;-1.8503;-3.6667;
1789776253371511;-9.2898;-2.0228;-2.3109;
1789776263474427;-9.4478;-2.3581;-1.3409;
1789776273576615;-9.7400;-2.2528;-1.5685;
1789776283678802;-10.1139;-1.9726;-2.3303;
1789776293779219;-9.8145;-1.8646;-2.5504;
1789776303881406;-9.5148;-1.8191;-2.9411;
1789776313983594;-9.3185;-1.8311;-2.9363;
1789776324081511;-9.1962;-1.9172;-2.2822;
1789776334183646;-9.3257;-2.1042;-1.7312;
1789776344285833;-9.5172;-2.0611;-1.9469;
1789776354395469;-9.6849;-1.2586;-2.4571;
1789776364497656;-9.5486;-0.8177;-2.4691;
1789776374599792;-9.3233;-0.9257;-2.2032;
1789776384695886;-9.4573;-0.5423;-2.2319;
1789776394798073;-9.4597;-0.2931;-2.0450;
1789776404900208;-9.3712;-0.4513;-1.7288;
1789776415001823;-9.5486;-0.3652;-2.0907;
1789776425103958;-9.6395;-0.3389;-2.4811;
1789776435206146;-9.3114;-0.5471;-2.2702;
1789776445308177;-9.2513;-0.5303;-2.5528;
1789776455410365;-9.5366;-0.4107;-3.0870;
1789776465512552;-9.4932;-0.5351;-3.0033;
1789776475627604;-9.4645;-0.8177;-2.5887;
1789776485729792;-9.3520;-1.1533;-1.9732;
1789776495831979;-9.1795;-1.1988;-1.5900;
1789776505922240;-9.7208;-0.9975;-1.8583;
1789776516024375;-10.2072;-1.1414;-2.0258;
1789776526126563;-9.9532;-1.1964;-2.0139;
1789776536228802;-9.4621;-0.9305;-2.2319;
1789776546330990;-9.0981;-0.7986;-2.3662;
1789776556433177;-9.1699;-0.7507;-2.1027;
1789776566538936;-9.6443;-0.6694;-1.6929;
1789776576641123;-9.9389;-0.5495;-1.6451;
1789776586743259;-9.6921;-0.2118;-1.6427;
1789776596844665;-9.3544;-0.0344;-1.6905;
1789776606946853;-9.3353;-0.0706;-1.8368;
1789776617048988;-9.4741;-0.3604;-1.6211;
1789776627152790;-9.6132;-0.5495;-1.3792;
1789776637254925;-9.6682;-0.5806;-1.4844;
1789776647357113;-9.6730;-0.7651;-1.7862;
1789776657459248;-9.5172;-0.9353;-2.0836;
1789776667565238;-9.3664;-0.8249;-2.3204;
1789776677667373;-9.4167;-0.7149;-2.2271;
1789776687769613;-9.5510;-0.7268;-1.8344;
1789776697867738;-9.6395;-0.7484;-1.5470;
1789776707969873;-9.6849;-0.7795;-1.5374;
1789776718072061;-9.6060;-0.7771;-1.6810;
1789776728171332;-9.4908;-0.7388;-1.9684;
1789776738273467;-9.5267;-0.8465;-2.2989;
1789776748375655;-9.5653;-1.1509;-2.3566;
1789776758470134;-9.5219;-1.5628;-2.1242;
1789776768572269;-9.6945;-2.3390;-2.1817;
1789776778674405;-9.6371;-3.2061;-2.2367;
1789776788778832;-9.4310;-3.5342;-2.0617;
1789776798881019;-9.0814;-2.5187;-2.0354;
1789776808983155;-9.3353;-0.7077;-2.3375;
1789776819143103;-9.5892;0.0541;-2.6297;
1789776829245290;-9.4454;0.1259;-2.6321;
1789776839347425;-9.5581;0.5740;-2.9674;
1789776849400238;-9.5124;0.8710;-3.1711;
1789776859502425;-9.1843;-0.3338;-2.1553;
1789776869604613;-9.4095;-1.5867;-1.2811;
1789776879722530;-9.8767;-1.3974;-2.1793;
1789776889824665;-9.5701;-1.0741;-2.8813;
1789776899926800;-9.2345;-0.9090;-2.9124;
1789776910015446;-9.4908;-0.6718;-3.0200;
1789776920117582;-9.5510;-0.6622;-2.4188;
1789776930219717;-9.2922;-0.2118;-1.7480;
1789776940327530;-9.3592;0.1379;-1.7961;
1789776950429665;-9.5797;0.2076;-2.1505;
1789776960531800;-9.4334;-0.0057;-2.1505;
1789776970651384;-9.3975;-0.1352;-2.1147;
1789776980753519;-9.5148;-0.0945;-2.2774;
1789776990855655;-9.4621;0.2124;-2.4117;
1789777000932061;-9.2536;0.4349;-2.2893;
1789777011034196;-9.2898;0.6410;-2.4428;
1789777021136280;-9.3927;0.8853;-2.5839;
1789777031238988;-9.3544;1.0747;-2.4547;
1789777041341123;-9.3784;1.1465;-2.2558;
1789777051443207;-9.3688;1.0723;-2.2487;
1789777061537269;-9.3736;1.0316;-2.3061;
1789777071639405;-9.3736;1.0627;-2.3276;
1789777081741488;-9.3688;1.0002;-2.4356;
1789777091852582;-9.3568;0.9212;-2.6201;
1789777101954717;-9.2345;0.8638;-2.6034;
1789777112056800;-9.2106;0.9571;-2.5768;
1789777122164353;-9.3377;1.1201;-2.5313;
1789777132266488;-9.4741;1.1225;-2.3542;
1789777142368571;-9.4860;0.9452;-2.2750;
1789777152475915;-9.4406;0.7295;-2.3806;
1789777162578050;-9.3760;0.5022;-2.5313;
1789777172680134;-9.3329;0.1786;-2.6656;
1789777182779405;-9.4023;-0.0969;-2.7494;
1789777192881540;-9.4813;-0.3556;-2.6943;
1789777202983623;-9.4095;-0.3987;-2.4523;
1789777213082165;-9.3975;-0.1639;-2.4045;
1789777223184300;-9.4334;0.0685;-2.5648;
1789777233286436;-9.3951;0.2411;-2.6512;
1789777243391019;-9.4214;0.4038;-2.6584;
1789777253493155;-9.4884;0.2913;-2.3375;
1789777263595290;-9.5510;0.3176;-2.1817;
1789777273687582;-9.4621;0.4735;-2.2941;
1789777283789717;-9.4143;0.4134;-2.2439;
1789777293891800;-9.5291;0.1834;-2.2463;
1789777304003936;-9.5148;-0.0033;-2.1529;
1789777314106071;-9.4980;-0.1232;-2.0139;
1789777324208155;-9.5845;-0.2764;-1.9804;
1789777334309040;-9.5342;-0.2142;-2.0498;
1789777344411175;-9.4741;-0.0200;-2.2247;
1789777354513311;-9.5124;0.1092;-2.2750;
1789777364618728;-9.5438;0.2052;-2.1721;
1789777374720863;-9.5267;0.3368;-2.0402;
1789777384822946;-9.5557;0.3416;-2.0115;
1789777394941019;-9.5366;0.2267;-1.9804;
1789777405043103;-9.5004;0.1259;-2.0019;
1789777415145238;-9.5486;-0.1472;-1.8511;
1789777425229978;-9.6156;-0.3843;-1.7336;
1789777435332113;-9.5916;-0.5183;-1.8224;
1789777445434196;-9.5821;-0.5542;-2.0474;
1789777455540186;-9.5605;-0.4848;-2.3423;
1789777465642321;-9.5219;-0.3365;-2.4236;
1789777475744405;-9.5243;-0.1543;-2.3471;
1789777485846540;-9.5366;-0.0320;-2.1147;
1789777495948675;-9.5243;0.0757;-2.0186;
1789777506057530;-9.5124;0.1187;-1.9875;
1789777516159613;-9.5581;0.0996;-2.0692;
1789777526261748;-9.5510;0.0446;-2.2726;
1789777536356957;-9.5124;-0.0272;-2.3949;
1789777546459092;-9.5172;-0.0440;-2.4500;
1789777556561175;-9.4693;-0.1041;-2.4523;
1789777566664353;-9.4214;-0.1161;-2.3901;
1789777576766488;-9.4693;-0.0921;-2.3710;
1789777586868571;-9.4837;-0.1113;-2.3566;
1789777596971748;-9.4286;0.0063;-2.5241;
1789777607073884;-9.3425;0.2626;-2.7111;
1789777617175967;-9.2922;0.5524;-2.6130;
1789777627282738;-9.3736;0.7319;-2.3399;
1789777637384873;-9.5148;0.8207;-2.1458;
1789777647487009;-9.4908;0.8830;-2.1290;
1789777657589092;-9.4358;0.9117;-2.3614;
1789777667694144;-9.3449;0.8973;-2.6728;
1789777677796280;-9.3305;0.8542;-2.6680;
1789777687898363;-9.2946;0.7920;-2.4284;
1789777697997269;-9.4478;0.5644;-2.0306;
1789777708099405;-9.4765;0.2602;-2.0521;
1789777718201488;-9.4741;0.3009;-2.2941;
1789777728294405;-9.4525;0.3057;-2.4715;
1789777738396540;-9.4310;0.2506;-2.5911;
1789777748498623;-9.4334;0.2028;-2.3566;
1789777758600655;-9.4478;0.2841;-2.0955;
1789777768702790;-9.4765;0.2315;-1.9038;
1789777778804925;-9.5677;0.1283;-1.9971;
1789777788911853;-9.5366;0.1044;-2.1434;
1789777799013988;-9.5052;0.0517;-2.3252;
1789777809116123;-9.4932;-0.0826;-2.4069;
1789777819215811;-9.4454;-0.2812;-2.2965;
1789777829317894;-9.4789;-0.4370;-2.2008;
1789777839420030;-9.5076;-0.4825;-2.1482;
1789777849579717;-9.5076;-0.5830;-2.0931;
1789777859681853;-9.5557;-0.6694;-2.1003;
1789777869783988;-9.5462;-0.6239;-2.2247;
1789777879845446;-9.5028;-0.5255;-2.3276;
1789777889947634;-9.5004;-0.4274;-2.3471;
1789777900049717;-9.5100;-0.3676;-2.2606;
1789777910163363;-9.5315;-0.3508;-2.1793;
1789777920265550;-9.5366;-0.4131;-2.1793;
1789777930367634;-9.4980;-0.4968;-2.2247;
1789777940437738;-9.4860;-0.5183;-2.3228;
1789777950539873;-9.4621;-0.4920;-2.4021;
1789777960641957;-9.4478;-0.4609;-2.3734;
1789777970753207;-9.4717;-0.4226;-2.3447;
1789777980855342;-9.4741;-0.4178;-2.3228;
1789777990957425;-9.4837;-0.4346;-2.3542;
1789778001059978;-9.4813;-0.4466;-2.4500;
1789778011162113;-9.4573;-0.4298;-2.5098;
1789778021264196;-9.4334;-0.4346;-2.5146;
1789778031367373;-9.4525;-0.4059;-2.5241;
1789778041469509;-9.4430;-0.3939;-2.5074;
1789778051571592;-9.4478;-0.3413;-2.4906;
1789778061671228;-9.4406;-0.2955;-2.4739;
1789778071773363;-9.4382;-0.2668;-2.4835;
1789778081875498;-9.4406;-0.2620;-2.5337;
1789778091977998;-9.4430;-0.2788;-2.5265;
1789778102080134;-9.4430;-0.3027;-2.4547;
1789778112182217;-9.4789;-0.3194;-2.4093;
1789778122293155;-9.4717;-0.3147;-2.4404;
1789778132395290;-9.4621;-0.3123;-2.4858;
1789778142497373;-9.4406;-0.3290;-2.5170;
1789778152597165;-9.4190;-0.3099;-2.5217;
1789778162699300;-9.4358;-0.2716;-2.4332;
1789778172801436;-9.4502;-0.2572;-2.3590;
1789778182907790;-9.4765;-0.2644;-2.3157;
1789778193009925;-9.4741;-0.2381;-2.2774;
1789778203112061;-9.4549;-0.1639;-2.2798;
1789778213207269;-9.4693;-0.1352;-2.2726;
1789778223309405;-9.5004;-0.1161;-2.2630;
1789778233411488;-9.4884;-0.0754;-2.2750;
1789778243517686;-9.4669;-0.0826;-2.2367;
1789778253619821;-9.4741;-0.1113;-2.2534;
1789778263721957;-9.4789;-0.1304;-2.2295;
1789778273864821;-9.4525;-0.1304;-2.2128;
1789778283967009;-9.4884;-0.1352;-2.1960;
1789778294069092;-9.4837;-0.0730;-2.1769;
1789778304132165;-9.4717;-0.0368;-2.1482;
1789778314234300;-9.5052;0.0111;-2.1505;
1789778324336436;-9.4597;-0.0248;-2.1218;
1789778334437321;-9.4741;0.1164;-2.6034;
1789778344539457;-9.4214;0.0159;-2.4188;
1789778354641540;-9.4717;0.0135;-2.3495;
1789778364734300;-9.4669;-0.0320;-2.2391;
1789778374836384;-9.4669;-0.1113;-2.3228;
1789778384938519;-9.4525;-0.1783;-2.5576;
1789778395048832;-9.4334;-0.2835;-2.6082;
1789778405150967;-9.4310;-0.3843;-2.5074;
1789778415253103;-9.4454;-0.4920;-2.4260;
1789778425352686;-9.4813;-0.5638;-2.4212;
1789778435454821;-9.4741;-0.5997;-2.4284;
1789778445556905;-9.4765;-0.5710;-2.5074;
1789778455665915;-9.4693;-0.5447;-2.5552;
1789778465768050;-9.4765;-0.5518;-2.5146;
1789778475870134;-9.4837;-0.5495;-2.3925;
1789778485973780;-9.5219;-0.5303;-2.2487;
1789778496075915;-9.5438;-0.5471;-2.1147;
1789778506177998;-9.5533;-0.4777;-2.0545;
1789778516305707;-9.5749;-0.4083;-2.1170;
1789778526407946;-9.5315;-0.3365;-2.3252;
1789778536510134;-9.4406;-0.2357;-2.4547;
1789778546585655;-9.4837;-0.1974;-2.2917;
1789778556687842;-9.5219;-0.1663;-2.0474;
1789778566790082;-9.5219;-0.1089;-1.9325;
