Sensor: bmi160 Gyroscope Non-wakeup
Vendor: BOSCH
TimestampGyro [ns]; GyroX [rad/s]; GyroY [rad/s]; GyroZ [rad/s]
3099568223640312;-0.0092;-0.0120;0.0087;
3099568233755729;-0.0007;-0.0184;0.0044;
3099568243856249;0.0132;-0.0184;0.0065;
3099568253963124;0.0462;-0.0162;0.0129;
3099568264063697;0.0856;-0.0099;0.0204;
3099568274159426;0.1048;-0.0056;0.0289;
3099568284284426;0.0963;-0.0067;0.0353;
3099568294377083;0.0632;-0.0099;0.0342;
3099568304491510;0.0132;-0.0141;0.0332;
3099568314603854;-0.0294;-0.0120;0.0332;
3099568324707656;-0.0284;-0.0045;0.0364;
3099568334815051;-0.0241;0.0019;0.0385;
3099568344924426;-0.0241;0.0051;0.0374;
3099568355032239;-0.0220;0.0061;0.0342;
3099568365142916;-0.0294;0.0040;0.0321;
3099568375242031;-0.0485;-0.0013;0.0278;
3099568385349947;-0.0634;-0.0035;0.0236;
3099568395463697;-0.0517;-0.0035;0.0225;
3099568405564739;-0.0220;-0.0035;0.0225;
3099568415666249;0.0025;-0.0045;0.0214;
3099568425768489;-0.0007;-0.0035;0.0225;
3099568435880051;-0.0060;-0.0045;0.0193;
3099568445991718;-0.0092;-0.0035;0.0182;
3099568456095364;-0.0007;0.0029;0.0140;
3099568466206041;0.0004;0.0061;0.0140;
3099568476308906;-0.0039;0.0040;0.0172;
3099568486417447;-0.0124;-0.0003;0.0214;
3099568496526510;-0.0220;-0.0067;0.0268;
3099568506627864;-0.0241;-0.0120;0.0300;
3099568516743541;-0.0262;-0.0141;0.0364;
3099568526846406;-0.0241;-0.0141;0.0427;
3099568536959635;-0.0124;-0.0109;0.0491;
3099568547060260;0.0004;-0.0067;0.0545;
3099568557164531;-0.0124;-0.0067;0.0619;
3099568567271406;-0.0389;-0.0045;0.0726;
3099568577375051;-0.0517;-0.0056;0.0779;
3099568587491822;-0.0559;-0.0056;0.0854;
3099568597592031;-0.0581;-0.0056;0.0992;
3099568607708489;-0.0549;-0.0109;0.1184;
3099568617808229;-0.0517;-0.0226;0.1322;
3099568627928645;-0.0368;-0.0269;0.1386;
3099568638022083;-0.0166;-0.0237;0.1461;
3099568648132343;0.0004;-0.0152;0.1567;
3099568658229947;-0.0145;-0.0162;0.1652;
3099568668345676;-0.0602;-0.0205;0.1674;
3099568678447760;-0.0900;-0.0173;0.1652;
3099568688557760;-0.0921;-0.0130;0.1631;
3099568698659843;-0.0879;-0.0173;0.1663;
3099568708767135;-0.0858;-0.0205;0.1706;
3099568718881145;-0.0900;-0.0226;0.1727;
3099568728999583;-0.0932;-0.0248;0.1674;
3099568739095156;-0.0964;-0.0237;0.1652;
3099568749196926;-0.0964;-0.0280;0.1631;
3099568759302187;-0.0921;-0.0280;0.1642;
3099568769411249;-0.0740;-0.0130;0.1589;
3099568779524426;-0.0772;-0.0056;0.1514;
3099568789643176;-0.0889;-0.0162;0.1418;
3099568799738072;-0.0900;-0.0258;0.1429;
3099568809846614;-0.0836;-0.0280;0.1503;
3099568819944999;-0.0858;-0.0322;0.1482;
3099568830054010;-0.0943;-0.0258;0.1439;
3099568840164426;-0.0911;-0.0141;0.1503;
3099568850266249;-0.0815;-0.0130;0.1535;
3099568860379322;-0.0900;-0.0184;0.1546;
3099568870494531;-0.1028;-0.0237;0.1674;
3099568880582135;-0.1028;-0.0407;0.1855;
3099568890684531;-0.0943;-0.0503;0.2025;
3099568900803489;-0.0399;-0.0418;0.2153;
3099568910910833;0.0494;-0.0226;0.2270;
3099568920998229;0.1197;-0.0152;0.2409;
3099568931112760;0.1367;-0.0269;0.2600;
3099568941220468;0.1261;-0.0375;0.2782;
3099568951323489;0.1101;-0.0450;0.2856;
3099568961464583;0.0601;-0.0589;0.2888;
3099568971539426;0.0238;-0.0535;0.2899;
3099568981640833;0.0292;-0.0375;0.2909;
3099568991759166;0.0398;-0.0280;0.2931;
3099569001846666;0.0249;-0.0375;0.2675;
3099569012015729;-1.0156;-0.2229;0.1237;
3099569022079426;-1.6982;-0.2367;0.1045;
3099569032171510;-1.2105;-0.0141;0.1620;
3099569042272395;-0.8845;0.0455;0.2153;
3099569052409635;-0.7631;0.0551;0.1993;
3099569062493229;-0.5949;0.1434;0.1727;
3099569072631979;-0.5800;0.1732;0.1812;
3099569082725572;-0.8973;0.0328;0.1759;
3099569092856406;-1.0976;-0.0652;0.1525;
3099569102952395;-0.8995;-0.0258;0.1386;
3099569113050416;-0.6843;-0.0269;0.1258;
3099569123146249;-0.6077;-0.0738;0.1280;
3099569133279114;-0.3702;-0.0067;0.1557;
3099569143355051;-0.1816;0.0477;0.1780;
3099569153480624;-0.1806;0.0125;0.1652;
3099569163604479;-0.1230;0.0072;0.1525;
3099569173680676;-0.0826;0.0296;0.1482;
3099569183807083;-0.1539;-0.0013;0.1216;
3099569193892656;-0.2104;-0.0184;0.0885;
3099569203996197;-0.1838;0.0328;0.0704;
3099569214108176;-0.1880;0.0700;0.0630;
3099569224214635;-0.2349;0.0498;0.0534;
3099569234343854;-0.2242;0.0391;0.0406;
3099569244433176;-0.2125;0.0530;0.0236;
3099569254536666;-0.2114;0.0402;-0.0020;
3099569264633749;-0.1614;0.0242;-0.0329;
3099569274741822;-0.0421;0.0445;-0.0329;
3099569284883489;0.0601;0.0615;-0.0095;
3099569294968593;0.1144;0.0487;0.0044;
3099569305078385;0.1559;0.0317;0.0012;
3099569315188229;0.2007;0.0349;-0.0031;
3099569325296510;0.2411;0.0413;-0.0084;
3099569335406301;0.2731;0.0445;-0.0116;
3099569345516145;0.3242;0.0445;0.0065;
3099569355621093;0.3679;0.0349;0.0310;
3099569365730885;0.3647;0.0338;0.0385;
3099569375840729;0.3381;0.0360;0.0374;
3099569385934426;0.3040;0.0210;0.0342;
3099569396044218;0.2699;0.0072;0.0289;
3099569406154062;0.2443;-0.0003;0.0332;
3099569416258593;0.2454;0.0104;0.0417;
3099569426368385;0.2465;0.0264;0.0491;
3099569436478229;0.2039;0.0264;0.0438;
3099569446574010;0.1293;0.0168;0.0342;
3099569456683801;0.0601;0.0253;0.0150;
3099569466793645;-0.0039;0.0413;0.0033;
3099569476896614;-0.0676;0.0338;0.0023;
3099569487006406;-0.0985;0.0306;0.0012;
3099569497116249;-0.1220;0.0487;-0.0009;
3099569507210729;-0.1635;0.0296;-0.0041;
3099569517320572;-0.1806;0.1157;0.0332;
3099569527423124;-0.2679;0.3075;-0.0489;
3099569537532968;-0.5353;0.3469;-0.1320;
3099569547642812;-0.9197;0.1658;-0.3076;
3099569557755364;-1.0539;-0.0546;-0.3534;
3099569567865156;-0.7216;-0.0855;-0.2895;
3099569577974999;-0.2839;0.0264;-0.2383;
3099569588072551;-0.1561;0.0690;-0.1979;
3099569598182343;-0.2093;-0.0439;-0.2149;
3099569608292187;-0.1465;-0.0823;-0.2511;
3099569618391614;-0.0071;0.0061;-0.2394;
3099569628501406;0.0995;0.0551;-0.1937;
3099569638611249;0.1612;0.0796;-0.1117;
3099569648717447;0.1282;0.0509;-0.0691;
3099569658827239;0.0004;-0.0312;-0.1160;
3099569668937083;-0.1422;-0.0226;-0.1735;
3099569679030676;-0.2242;0.0562;-0.2053;
3099569689140468;-0.1987;0.0786;-0.2032;
3099569699250312;-0.1710;0.0764;-0.2000;
3099569709354531;-0.1838;0.0722;-0.2096;
3099569719464322;-0.1891;0.0913;-0.2192;
3099569729574166;-0.1987;0.0850;-0.2117;
3099569739684739;-0.1827;0.0402;-0.2181;
3099569749794531;-0.1486;0.0381;-0.2341;
3099569759904322;-0.0826;0.0626;-0.2437;
3099569769997031;-0.0762;0.0338;-0.2245;
3099569780106822;-0.0762;-0.0269;-0.2202;
3099569790216666;0.0121;-0.0035;-0.2288;
3099569800312760;0.1048;0.0700;-0.2234;
3099569810422551;0.0888;0.0423;-0.2213;
3099569820532395;0.1080;0.0019;-0.2341;
3099569830634947;0.2561;0.0722;-0.2426;
3099569840744739;0.3061;0.0828;-0.2426;
3099569850854531;0.2784;0.0125;-0.2224;
3099569860951874;0.3881;-0.0173;-0.2352;
3099569871061718;0.5829;0.0764;-0.2501;
3099569881171510;0.7289;0.1200;-0.2224;
3099569891269843;0.7864;0.0083;-0.2032;
3099569901379635;0.8972;-0.0130;-0.1927;
3099569911489426;1.0975;0.0700;-0.1511;
3099569921603958;1.1113;-0.0130;-0.1128;
3099569931713801;1.0431;-0.1057;-0.1288;
3099569941823645;1.0730;-0.0035;-0.1160;
3099569951928229;1.0847;0.0168;-0.0830;
3099569962038072;0.9153;-0.0578;-0.1000;
3099569972147916;0.7513;0.0381;-0.1138;
3099569982218229;0.5756;0.1115;-0.1288;
3099569992328020;0.2156;-0.0162;-0.1820;
3099570002437864;-0.0708;-0.0035;-0.2213;
3099570012561301;-0.1784;0.0935;-0.2565;
3099570022671093;-0.4138;0.0530;-0.3161;
3099570032780937;-0.7652;0.0690;-0.3736;
3099570042881510;-1.0358;0.1530;-0.4312;
3099570052991301;-1.2435;0.1072;-0.4876;
3099570063101093;-1.4618;0.0743;-0.5004;
3099570073225364;-1.4639;0.1146;-0.5174;
3099570083335156;-1.3510;0.1146;-0.5366;
3099570093444947;-1.3041;0.1125;-0.5089;
3099570103521041;-1.1796;0.1349;-0.4929;
3099570113630885;-1.1082;0.0956;-0.4503;
3099570123740676;-1.0060;0.0796;-0.3864;
3099570133858176;-0.8270;0.0700;-0.3640;
3099570143967968;-0.7780;0.0700;-0.3246;
3099570154077812;-0.7471;0.0360;-0.2895;
3099570164160312;-0.6555;0.0168;-0.2788;
3099570174270156;-0.5704;0.0626;-0.2170;
3099570184379947;-0.5193;0.0700;-0.1692;
3099570194481093;-0.4650;0.0232;-0.1554;
3099570204590937;-0.3414;0.0519;-0.0989;
3099570214700729;-0.2786;0.0519;-0.0670;
3099570224801562;-0.2551;-0.0322;-0.0329;
3099570234911406;-0.0815;0.0051;0.0204;
3099570245021197;0.0718;0.0168;0.0513;
3099570255120624;0.0494;-0.0503;0.1067;
3099570265230468;0.1985;-0.0248;0.1674;
3099570275340312;0.4063;0.0072;0.1834;
3099570285455676;0.4094;-0.0194;0.2281;
3099570295565468;0.4212;-0.0024;0.2963;
3099570305675312;0.4819;0.0210;0.3016;
3099570315763437;0.3945;-0.0045;0.3304;
3099570325873281;0.2305;-0.0088;0.3474;
3099570335983124;0.0984;0.0125;0.3293;
3099570346089479;-0.0900;0.0200;0.3325;
3099570356199270;-0.2711;0.0146;0.3101;
3099570366309062;-0.3670;0.0221;0.2728;
3099570376406458;-0.4479;0.0871;0.2558;
3099570386516301;-0.6205;0.0594;0.2100;
3099570396626145;-0.7833;0.0445;0.1642;
3099570406737551;-0.8196;0.0615;0.1386;
3099570416847343;-0.8718;0.0338;0.0726;
3099570426957187;-0.9090;0.0615;0.0332;
3099570437049010;-0.8739;0.0754;0.0044;
3099570447158854;-0.8377;0.0690;-0.0521;
3099570457268697;-0.7567;0.0860;-0.0691;
3099570467377395;-0.6960;0.0775;-0.1224;
3099570477487187;-0.6120;0.1020;-0.1479;
3099570487597031;-0.4905;0.0754;-0.1618;
3099570497698176;-0.3606;0.0924;-0.2032;
3099570507807968;-0.2562;0.1146;-0.1959;
3099570517917812;-0.1784;0.1136;-0.2192;
3099570528003333;0.0015;0.1274;-0.2043;
3099570538110781;0.1208;0.0903;-0.2011;
3099570548218229;0.2816;0.0988;-0.1842;
3099570558337447;0.4382;0.0924;-0.1682;
3099570568444895;0.5106;0.0892;-0.1735;
3099570578552343;0.5872;0.0487;-0.1341;
3099570588647187;0.5639;0.0274;-0.1170;
3099570598754635;0.5543;0.0115;-0.0830;
3099570608862083;0.4798;0.0221;-0.0798;
3099570618973645;0.3903;-0.0184;-0.0510;
3099570629081093;0.2987;-0.0248;-0.0702;
3099570639188541;0.2369;-0.0152;-0.0372;
3099570649300364;0.0260;-0.0407;-0.0702;
3099570659407812;-0.0708;-0.0173;-0.0574;
3099570669515260;-0.2253;0.0061;-0.1000;
3099570679624479;-0.3499;-0.0035;-0.0925;
3099570689731926;-0.5278;0.0274;-0.1373;
3099570699839374;-0.5981;0.0381;-0.1266;
3099570709944583;-0.7088;0.0360;-0.1778;
3099570720052031;-0.6939;0.0391;-0.1989;
3099570730159479;-0.6971;0.0487;-0.2383;
3099570740260833;-0.6502;0.0615;-0.2117;
3099570750368281;-0.6417;0.0498;-0.2245;
3099570760475729;-0.5917;0.0083;-0.2383;
3099570770582812;-0.4778;0.0008;-0.2714;
3099570780690260;-0.3808;0.0115;-0.2554;
3099570790797708;-0.3297;-0.0035;-0.2831;
3099570800899687;-0.2242;-0.0269;-0.2831;
3099570811007187;-0.1550;-0.0226;-0.2916;
3099570821114635;-0.0314;-0.0226;-0.2565;
3099570831229374;0.0622;0.0072;-0.2373;
3099570841336822;0.1389;0.0381;-0.2192;
3099570851444270;0.2081;0.0381;-0.2266;
3099570861534791;0.2848;0.0370;-0.1959;
3099570871642187;0.3264;0.0690;-0.1735;
3099570881749687;0.3541;0.0647;-0.1224;
3099570891872760;0.3604;0.0285;-0.1394;
3099570901980260;0.3967;0.0136;-0.0936;
3099570912087708;0.3562;0.0168;-0.0851;
3099570922204166;0.3157;-0.0056;-0.0691;
3099570932311614;0.3019;-0.0652;-0.0563;
3099570942419062;0.3019;-0.0834;-0.0254;
3099570952495416;0.2699;0.0019;-0.0350;
3099570962602864;0.2113;0.0583;0.0001;
3099570972710312;0.1698;0.0264;-0.0009;
3099570982815624;0.1719;0.0029;0.0108;
3099570992923072;0.1282;0.0072;0.0097;
3099571003030520;0.0142;-0.0130;0.0044;
3099571013143229;-0.0325;-0.0205;-0.0222;
3099571023250676;-0.0772;-0.0184;-0.0212;
3099571033358124;-0.1103;-0.0727;-0.0340;
3099571043456666;-0.0868;-0.0333;-0.0414;
3099571053564114;-0.1305;0.0200;-0.0403;
3099571063671562;-0.1209;0.0093;-0.0585;
3099571073787604;-0.0772;0.0285;-0.0489;
3099571083895051;-0.0911;0.0658;-0.0553;
3099571094002499;-0.0698;0.0956;-0.0648;
3099571104109062;-0.0570;0.1391;-0.0659;
3099571114216510;-0.0762;0.1031;-0.1000;
3099571124323958;-0.0527;0.0519;-0.0989;
3099571134450104;-0.0804;0.0594;-0.0979;
3099571144557551;-0.0570;0.0562;-0.0680;
3099571154664999;-0.0740;0.0850;-0.1021;
3099571164751197;-0.0357;0.0775;-0.0744;
3099571174858645;-0.0378;-0.0045;-0.0925;
3099571184966093;-0.0357;0.0157;-0.0851;
3099571195076458;-0.0368;0.0285;-0.1213;
3099571205183906;-0.0273;-0.0067;-0.0840;
3099571215291354;0.0206;-0.0056;-0.0787;
3099571225387031;0.0228;0.0104;-0.1021;
3099571235494479;0.0111;-0.0652;-0.1192;
3099571245601926;0.0398;-0.1174;-0.1213;
3099571255716354;0.0931;-0.1068;-0.0936;
3099571265823801;0.0739;-0.0897;-0.1075;
3099571275931249;0.1144;-0.0258;-0.0798;
3099571286055624;0.0920;-0.0088;-0.1149;
3099571296163072;0.1261;0.0083;-0.1107;
3099571306270520;0.1517;0.0285;-0.0979;
3099571316365104;0.1495;-0.0386;-0.0510;
3099571326472551;0.1549;-0.0365;-0.0467;
3099571336579999;0.1144;-0.0237;-0.0702;
3099571346681614;0.0313;-0.0237;-0.0872;
3099571356789062;0.0281;0.0594;-0.1000;
3099571366896510;0.0111;-0.0003;-0.1075;
3099571377006562;0.0185;-0.0471;-0.1330;
3099571387114010;0.0015;-0.0152;-0.1032;
3099571397221458;-0.0103;-0.0152;-0.0925;
3099571407336874;0.0164;0.0328;-0.0936;
3099571417444322;0.0164;0.0157;-0.1149;
3099571427551770;0.0643;-0.0695;-0.0851;
3099571437646458;0.0792;-0.0599;-0.0819;
3099571447753906;0.0611;-0.0919;-0.0116;
3099571457861354;0.0441;-0.2059;0.0310;
3099571467948020;0.0419;-0.1931;0.0321;
3099571478055468;-0.0007;-0.2367;0.0598;
3099571488162916;-0.0220;-0.2666;0.0758;
3099571498279270;0.0121;-0.1941;0.1045;
3099571508386718;0.0089;-0.1228;0.1088;
3099571518494166;0.0334;-0.0024;0.1450;
3099571528608541;0.0462;0.0722;0.1130;
3099571538715729;0.0089;0.0828;0.0843;
3099571548822916;0.0292;0.0605;0.1035;
3099571558928437;-0.0028;0.0360;0.1109;
3099571569035624;-0.0081;0.0391;0.1056;
3099571579142812;-0.0092;0.0072;0.0928;
3099571589238697;-0.0177;-0.0439;0.0875;
3099571599345885;-0.0325;-0.0812;0.0278;
3099571609453072;-0.0378;-0.0631;-0.0116;
3099571619569479;-0.0772;-0.2399;-0.0180;
3099571629676666;-0.1103;-0.5967;-0.0510;
3099571639783854;-0.1475;-0.8449;-0.0808;
3099571649883541;0.0270;-0.2708;-0.1000;
3099571659990729;0.0068;0.1647;-0.0680;
3099571670097916;-0.0166;-0.0216;-0.0883;
3099571680199479;0.1037;0.1605;-0.1650;
3099571690306666;0.0632;0.4587;-0.2021;
3099571700413854;0.0419;0.2382;-0.1895;
3099571710532708;0.0750;0.2052;-0.1873;
3099571720639895;0.0888;0.4087;-0.1565;
3099571730747083;0.0952;0.3756;-0.1362;
3099571740853854;0.1826;0.0647;-0.0883;
3099571750961041;0.1772;-0.0482;-0.0957;
3099571761068229;0.0675;-0.0482;-0.1447;
3099571771166041;0.0302;-0.2208;-0.1234;
3099571781273229;0.0526;-0.3102;-0.0851;
3099571791380416;0.0142;-0.1483;-0.1149;
3099571801506354;0.0260;-0.1334;-0.1256;
3099571811613541;0.0270;-0.0684;-0.1064;
3099571821720729;-0.0453;0.1328;-0.1277;
3099571831796197;-0.0421;0.2393;-0.1085;
3099571841903385;-0.0294;0.2297;-0.0702;
3099571852010572;-0.0421;0.3128;-0.0851;
3099571862135416;0.0217;0.6121;-0.0872;
3099571872242604;0.0601;1.0988;-0.1352;
3099571882349791;-0.0325;0.1477;-0.0968;
3099571892500208;-0.0762;-0.8204;0.0342;
3099571902607395;-0.1582;-0.4423;0.0790;
3099571912714583;-0.1049;-0.0152;0.0310;
3099571922769583;-0.0039;-0.3603;-0.0073;
3099571932876770;0.1644;-0.4519;0.0044;
3099571942983958;0.1154;-0.0226;-0.0382;
3099571953109687;0.0015;0.1913;-0.0041;
3099571963216874;-0.0368;0.0445;0.0204;
3099571973324062;-0.0506;0.0892;0.0087;
3099571983475676;-0.1774;0.3383;-0.0340;
3099571993582864;-0.2093;0.1977;-0.0190;
3099572003690051;-0.1326;0.0658;-0.0361;
3099572013738749;-0.0858;0.2222;-0.0819;
3099572023845937;-0.1049;0.1391;-0.1277;
3099572033953124;-0.0613;-0.0557;-0.0893;
3099572044065104;-0.0431;-0.0024;-0.0968;
3099572054172291;-0.0602;-0.0130;-0.1586;
3099572064279479;-0.0666;-0.1366;-0.1735;
3099572074381197;-0.0134;-0.0834;-0.1756;
3099572084488385;-0.0209;-0.0620;-0.2011;
3099572094595572;0.0430;-0.0407;-0.2138;
3099572104713645;0.0313;0.1605;-0.1884;
3099572114820833;0.0664;0.0679;-0.1820;
3099572124928020;0.1399;-0.1814;-0.1842;
3099572135034531;0.2230;-0.0184;-0.1927;
3099572145141718;0.2103;0.1115;-0.1660;
3099572155248906;0.2646;-0.1057;-0.1053;
3099572165340520;0.3253;-0.0684;-0.1107;
3099572175447708;0.2997;-0.0109;-0.1352;
3099572185554895;0.2571;-0.1643;-0.1053;
3099572195660781;0.2103;-0.1260;-0.0627;
3099572205767968;0.1602;-0.0407;-0.1000;
3099572215875156;0.2294;-0.0674;-0.0968;
3099572226000729;0.2220;-0.0929;-0.0840;
3099572236107916;0.1644;-0.0397;-0.0595;
3099572246215104;0.1623;-0.0099;-0.0585;
3099572256303958;0.2134;-0.0397;-0.0957;
3099572266411145;0.2454;-0.0280;-0.0936;
3099572276518333;0.2358;-0.0184;-0.0883;
3099572286635937;0.2667;0.0029;-0.1043;
3099572296743124;0.2976;0.0115;-0.1415;
3099572306850312;0.3189;-0.1377;-0.1522;
3099572316948854;0.3519;-0.1430;-0.1341;
3099572327056041;0.3754;0.1605;-0.1298;
3099572337163229;0.4531;0.2340;-0.1501;
3099572347278749;0.6085;-0.0354;-0.1149;
3099572357385937;0.6266;-0.1334;-0.0872;
3099572367493124;0.4744;0.0413;-0.0893;
3099572377592708;0.4925;0.0743;-0.0755;
3099572387699895;0.6671;-0.1068;-0.0276;
3099572397807083;0.7012;-0.1387;-0.0244;
3099572407922604;0.6181;0.0306;-0.0265;
3099572418029791;0.6181;0.0008;-0.0126;
3099572428136979;0.6788;-0.0535;0.0257;
3099572438243020;0.6266;0.0775;0.0097;
3099572448350208;0.5650;0.0700;0.0193;
3099572458457395;0.5714;-0.0578;0.0513;
3099572468567291;0.5543;0.0157;0.0779;
3099572478674479;0.4531;0.0519;0.1088;
3099572488781666;0.4350;0.0093;0.1194;
3099572498887708;0.4308;0.0413;0.1258;
3099572508994895;0.3487;0.0328;0.1418;
3099572519102083;0.3370;-0.0003;0.1546;
3099572529205833;0.3349;-0.0407;0.2004;
3099572539312916;0.3083;-0.0514;0.2036;
3099572549419947;0.3083;-0.0397;0.1770;
3099572559513229;0.3083;-0.0152;0.1855;
3099572569620312;0.2997;-0.0077;0.1908;
3099572579727343;0.3178;0.0146;0.1876;
3099572589831770;0.3114;0.0700;0.1684;
3099572599938854;0.2848;0.0743;0.1770;
3099572610045885;0.2731;0.0807;0.1748;
3099572620152604;0.2720;0.0818;0.1940;
3099572630259687;0.2348;0.0125;0.1865;
3099572640366718;0.2177;-0.0834;0.1887;
3099572650478281;0.1826;-0.0301;0.1993;
3099572660585364;0.1378;-0.0003;0.2025;
3099572670692395;0.1378;0.0232;0.2142;
3099572680797708;0.1485;0.0658;0.2196;
3099572690904791;0.1037;0.0754;0.2270;
3099572701011822;0.0664;0.0871;0.2036;
3099572711109270;0.0079;-0.0045;0.2292;
3099572721216354;0.0047;0.0296;0.2334;
3099572731323385;-0.0166;0.1264;0.1652;
3099572741440208;-0.0783;0.0988;0.1535;
3099572751547291;-0.1369;0.0178;0.1663;
3099572761654322;-0.1188;0.0477;0.1557;
3099572771751197;-0.1124;0.0807;0.0949;
3099572781858281;-0.1348;0.0274;0.0885;
3099572791965312;-0.1561;-0.0120;0.1067;
3099572802089687;-0.1262;0.0040;0.1184;
3099572812196770;-0.1220;-0.0173;0.0960;
3099572822303801;-0.1198;-0.0397;0.1162;
3099572832399791;-0.1081;0.0871;0.1024;
3099572842506874;-0.1145;0.0530;0.0854;
3099572852613906;-0.1379;-0.0919;0.1109;
3099572862707708;-0.1081;-0.0162;0.1354;
3099572872814791;-0.0644;0.0104;0.1216;
3099572882921822;-0.0783;-0.0834;0.1354;
3099572893041979;-0.0964;-0.0791;0.1514;
3099572903149062;-0.0762;0.0125;0.1280;
3099572913256093;-0.0719;0.0306;0.1216;
3099572923383020;-0.1113;0.0200;0.1365;
3099572933490104;-0.1422;0.0562;0.1429;
3099572943597135;-0.1209;0.0754;0.1205;
3099572953679270;-0.1294;0.0402;0.1258;
3099572963786354;-0.1561;0.0264;0.1333;
3099572973893385;-0.1390;0.0541;0.1248;
3099572984001354;-0.1134;0.0349;0.1386;
3099572994108437;-0.1007;-0.0184;0.1471;
3099573004215468;-0.0655;-0.0088;0.1663;
3099573014323281;-0.0453;0.0083;0.1770;
3099573024430364;-0.0378;0.0200;0.1908;
3099573034537395;-0.0527;0.0210;0.2206;
3099573044658541;-0.0666;0.0051;0.2121;
3099573054765624;-0.0634;0.0115;0.2036;
3099573064872656;-0.0815;0.0136;0.2196;
3099573074962187;-0.0964;-0.0035;0.2089;
3099573085069270;-0.0794;0.0360;0.2164;
3099573095176301;-0.1220;0.0594;0.2302;
3099573105281666;-0.1784;0.0040;0.2174;
3099573115388749;-0.1678;0.0285;0.1993;
3099573125495781;-0.1976;0.0594;0.1993;
3099573135612291;-0.2668;0.0434;0.1897;
3099573145719374;-0.3478;0.0051;0.1865;
3099573155826406;-0.3989;-0.0184;0.1684;
3099573165929531;-0.4309;-0.0429;0.1535;
3099573176036614;-0.4479;-0.0855;0.1557;
3099573186143645;-0.4117;-0.0375;0.1290;
3099573196247395;-0.3893;-0.0237;0.1471;
3099573206354479;-0.4469;-0.0684;0.1312;
3099573216461510;-0.4288;-0.0397;0.1301;
3099573226561770;-0.3819;-0.0024;0.1237;
3099573236668854;-0.3659;0.0104;0.0907;
3099573246775885;-0.3680;0.0423;0.1045;
3099573256885937;-0.3808;0.0647;0.0928;
3099573266993020;-0.3648;0.0743;0.0683;
3099573277100051;-0.3936;0.0413;0.0438;
3099573287200416;-0.3723;0.0434;0.0427;
3099573297307499;-0.3276;0.0381;0.0587;
3099573307414531;-0.3244;0.0019;0.0406;
3099573317546666;-0.2977;-0.0354;0.0321;
3099573327653749;-0.2328;-0.0280;0.0651;
3099573337760781;-0.1965;-0.0067;0.0609;
3099573347867395;-0.1699;0.0296;0.0577;
3099573357974479;-0.1752;0.0530;0.0747;
3099573368081510;-0.2146;0.0083;0.0800;
3099573378176145;-0.2019;0.0157;0.0726;
3099573388283229;-0.1752;0.0573;0.0704;
3099573398390260;-0.2051;0.0285;0.0438;
3099573408503281;-0.2083;0.0296;0.0481;
3099573418610364;-0.1944;0.0381;0.0768;
3099573428717395;-0.1923;0.0125;0.0779;
3099573438822395;-0.2072;0.0210;0.0694;
3099573448929479;-0.2178;0.0168;0.0736;
3099573459036510;-0.2477;-0.0109;0.0854;
3099573469144166;-0.2860;-0.0439;0.0790;
3099573479251249;-0.2562;-0.0514;0.0800;
3099573489358281;-0.2668;-0.0471;0.0939;
3099573499459166;-0.2924;-0.0258;0.0758;
3099573509566249;-0.2999;-0.0269;0.0854;
3099573519673281;-0.3212;-0.0407;0.0949;
3099573529779687;-0.3414;-0.0290;0.0928;
3099573539886510;-0.3425;0.0189;0.0619;
3099573549993385;-0.3521;-0.0109;0.0875;
3099573560126770;-0.4245;-0.0716;0.0747;
3099573570233593;-0.4288;-0.0780;0.0534;
3099573580340468;-0.3041;-0.0599;0.0768;
3099573590417447;-0.1955;0.0573;0.0364;
3099573600524270;-0.1838;0.1434;0.0150;
3099573610631145;-0.2722;0.1924;0.0236;
3099573620737708;-0.3659;0.1818;0.0119;
3099573630844531;-0.4586;0.0977;0.0140;
3099573640951406;-0.4351;0.1338;0.0055;
3099573651057187;-0.3318;0.2169;-0.0126;
3099573661164010;-0.3265;0.1807;-0.0435;
3099573671270885;-0.4011;0.0828;-0.0510;
3099573681392708;-0.4309;0.0391;-0.0744;
3099573691499531;-0.3585;-0.0141;-0.0830;
3099573701606406;-0.2455;-0.0056;-0.0712;
3099573711699687;-0.2573;0.0370;-0.1021;
3099573721806510;-0.2423;0.0136;-0.1245;
3099573731913385;-0.2019;0.0764;-0.0968;
3099573742040781;-0.1859;0.1786;-0.1000;
3099573752147604;-0.2658;0.0370;-0.1437;
3099573762254479;-0.3403;-0.1686;-0.1394;
3099573772354010;-0.2573;-0.0493;-0.1405;
3099573782460833;-0.1454;-0.0152;-0.1383;
3099573792567708;-0.1987;-0.0695;-0.1170;
3099573802662083;-0.2604;-0.1025;-0.0925;
3099573812768906;-0.2253;0.0115;-0.1064;
3099573822875781;-0.2328;0.0210;-0.1426;
3099573832984999;-0.2796;-0.0695;-0.1394;
3099573843091822;-0.2594;-0.0194;-0.1447;
3099573853198697;-0.2157;0.0306;-0.1692;
3099573863309999;-0.1901;0.0615;-0.2064;
3099573873416822;-0.1944;0.1338;-0.2128;
3099573883523697;-0.2296;0.1455;-0.1937;
3099573893616458;-0.2892;0.0328;-0.1873;
3099573903723281;-0.2423;0.0530;-0.2106;
3099573913830156;-0.1550;0.1253;-0.2490;
3099573923940937;-0.2189;0.0360;-0.2522;
3099573934047760;-0.3510;-0.1590;-0.2170;
3099573944154635;-0.4011;-0.2836;-0.2320;
3099573954274374;-0.1784;-0.2495;-0.2117;
3099573964381197;0.0558;-0.1462;-0.2021;
3099573974488072;0.2198;-0.1164;-0.1799;
3099573984584114;0.2486;-0.0344;-0.1628;
3099573994690937;0.2379;0.0690;-0.1288;
3099574004797812;0.1240;0.0551;-0.1405;
3099574014908645;-0.0314;0.0509;-0.1362;
3099574025015468;-0.1539;0.0509;-0.1479;
3099574035122343;-0.1614;0.0573;-0.1650;
3099574045249479;-0.1646;0.0466;-0.1490;
3099574055356301;-0.1656;0.0146;-0.1543;
3099574065463176;-0.1358;0.0232;-0.1873;
3099574075553749;-0.1220;-0.0407;-0.1692;
3099574085660572;-0.0996;-0.0887;-0.1511;
3099574095767447;0.0228;0.0008;-0.1469;
3099574105860624;0.1943;0.1583;-0.1650;
3099574115967447;0.2060;0.1178;-0.1756;
3099574126074322;0.0558;-0.0077;-0.1458;
3099574136202499;0.0270;0.0083;-0.0947;
3099574146309322;0.1676;0.0636;-0.1107;
3099574156416197;0.2667;0.0317;-0.0968;
3099574166504791;0.2134;0.0264;-0.0840;
3099574176611614;0.1442;-0.0322;-0.0585;
3099574186718489;0.1911;-0.0610;-0.0212;
3099574196839999;0.2774;0.0168;-0.0254;
3099574206946822;0.2955;0.0125;-0.0457;
3099574217053697;0.2593;-0.0312;-0.0063;
3099574227187083;0.2252;0.0296;0.0236;
3099574237293906;0.2454;0.0828;0.0172;
3099574247400781;0.1964;0.0530;0.0257;
3099574257483020;0.1059;0.0136;0.0097;
3099574267589843;0.0771;-0.0269;0.0172;
3099574277696718;0.0963;0.0221;0.0150;
3099574287829374;0.0952;0.0349;0.0278;
3099574297936197;0.0451;-0.0557;0.0491;
3099574308043072;0.0185;-0.0493;0.0395;
3099574318127864;0.0164;-0.0045;0.0097;
3099574328234687;0.0270;-0.0386;0.0619;
3099574338341562;-0.0103;0.0040;0.0758;
3099574348459166;-0.0357;0.0051;0.0534;
3099574358565989;-0.0581;0.0093;0.0364;
3099574368672864;-0.1156;0.0221;0.0300;
3099574378767395;-0.1209;-0.0216;0.0587;
3099574388874218;-0.1401;-0.0130;0.0459;
3099574398981093;-0.1369;0.0189;0.0289;
3099574409091562;-0.1326;-0.0024;0.0204;
3099574419198385;-0.1742;-0.0471;0.0406;
3099574429305260;-0.1433;0.0008;0.0417;
3099574439414583;-0.1294;0.0210;-0.0009;
3099574449521406;-0.1369;-0.0567;0.0214;
3099574459628281;-0.1859;-0.0823;-0.0105;
3099574469725833;-0.0943;-0.0482;-0.0190;
3099574479832656;-0.0007;0.0189;-0.0190;
3099574489939531;-0.0081;0.0242;-0.0105;
3099574500049374;-0.0314;0.0338;-0.0020;
3099574510156197;-0.0453;0.0626;-0.0084;
3099574520263072;-0.0676;0.0668;-0.0126;
3099574530368645;-0.1156;0.0328;0.0076;
3099574540490937;-0.0964;0.0040;0.0172;
3099574550597864;-0.0719;-0.0312;0.0055;
3099574560704843;-0.0284;-0.0130;-0.0063;
3099574570806666;0.0025;-0.0173;0.0023;
3099574580913593;0.0153;-0.0226;0.0033;
3099574591020520;0.0313;-0.0269;0.0300;
3099574601135312;-0.0049;0.0253;-0.0031;
3099574611242239;-0.0188;0.0551;0.0044;
3099574621349166;-0.0357;0.0423;0.0129;
3099574631431562;-0.0847;-0.0088;0.0300;
3099574641538489;-0.0975;0.0072;0.0406;
3099574651645416;-0.1177;-0.0035;0.0087;
3099574661751145;-0.1529;-0.0525;0.0161;
3099574671858072;-0.1529;-0.0141;0.0374;
3099574681964999;-0.1550;-0.0194;0.0417;
3099574692071979;-0.2136;-0.0620;0.0172;
3099574702178906;-0.1987;-0.0375;0.0481;
3099574712285833;-0.1390;0.0551;0.0257;
3099574722426979;-0.1965;0.0285;-0.0009;
3099574732533906;-0.2775;0.0232;-0.0126;
3099574742640833;-0.3712;-0.0354;-0.0350;
3099574752746562;-0.3425;-0.0397;-0.0233;
3099574762853489;-0.2551;0.0136;-0.0318;
3099574772960416;-0.2264;-0.0322;-0.0595;
3099574783079166;-0.2264;-0.0503;-0.0574;
3099574793186093;-0.2029;-0.0365;-0.0691;
3099574803293020;-0.1838;-0.0397;-0.0712;
3099574813354374;-0.1763;-0.0557;-0.0340;
3099574823461301;-0.1529;-0.1164;-0.0308;
3099574833568229;-0.0676;-0.0141;-0.0648;
3099574843705208;-0.0124;0.0828;-0.0691;
3099574853812135;-0.0858;0.0168;-0.0553;
3099574863919062;-0.1646;0.0178;-0.0382;
3099574874016666;-0.1582;0.0658;-0.0403;
3099574884123593;-0.1582;0.0136;-0.0830;
3099574894230520;-0.1475;0.0083;-0.0766;
3099574904316562;-0.1156;0.0264;-0.0787;
3099574914423489;-0.1007;-0.0184;-0.0904;
3099574924530416;-0.0879;0.0040;-0.1107;
3099574934639791;-0.0932;0.0370;-0.1149;
3099574944746718;-0.1220;0.0423;-0.1021;
3099574954853645;-0.1795;-0.0418;-0.0957;
3099574964963229;-0.1252;-0.0290;-0.1032;
3099574975070156;-0.0879;0.0391;-0.1320;
3099574985177083;-0.1305;-0.0194;-0.1341;
3099574995292812;-0.1379;-0.0482;-0.1160;
3099575005399739;-0.0996;0.0274;-0.1021;
3099575015506666;-0.1262;-0.0077;-0.1383;
3099575025601145;-0.1603;-0.0375;-0.1682;
3099575035708072;-0.1017;0.0551;-0.1660;
3099575045814999;-0.1209;0.0722;-0.1660;
3099575055930937;-0.1869;0.0093;-0.1810;
3099575066037864;-0.1134;0.0605;-0.2064;
3099575076144791;-0.1188;0.0818;-0.2075;
3099575086257499;-0.1784;-0.0237;-0.2149;
3099575096364426;-0.1518;-0.0993;-0.2149;
3099575106471354;-0.0368;-0.0248;-0.2224;
3099575116573124;0.0611;0.0136;-0.2565;
3099575126680051;-0.0049;-0.0067;-0.2586;
3099575136786979;-0.0220;-0.0067;-0.2458;
3099575146885833;0.0515;0.0423;-0.2234;
3099575156992760;0.0579;0.0583;-0.2650;
3099575167099687;0.0590;0.0956;-0.2692;
3099575177205729;0.0569;0.0583;-0.2479;
3099575187312656;0.0558;0.0434;-0.2554;
3099575197419583;0.0867;0.0541;-0.2820;
3099575207528541;0.1165;0.0274;-0.2682;
3099575217635468;0.0664;-0.0802;-0.2373;
3099575227742395;0.0814;-0.0961;-0.2309;
3099575237850624;0.2379;-0.0525;-0.2479;
3099575247957551;0.3413;-0.0109;-0.2660;
3099575258064479;0.2443;-0.0876;-0.2170;
3099575268178854;0.1815;-0.1121;-0.1788;
3099575278285781;0.3114;-0.0333;-0.1586;
3099575288392708;0.3338;-0.0109;-0.1650;
3099575298494895;0.1655;-0.1238;-0.1170;
3099575308601822;0.2433;-0.1004;-0.0957;
3099575318708749;0.4830;0.0573;-0.1149;
3099575328819687;0.4297;0.0711;-0.1149;
3099575338926614;0.2220;0.0871;-0.0755;
3099575349033541;0.1133;0.0743;-0.0499;
3099575359137187;0.1282;0.0029;-0.0435;
3099575369244114;0.1879;0.0466;-0.0776;
3099575379351041;0.3008;0.1487;-0.0787;
3099575389448333;0.2103;0.0423;-0.0510;
3099575399555260;0.1421;-0.0173;-0.0244;
3099575409662187;0.1996;0.0306;-0.0521;
3099575419770104;0.2188;-0.0120;-0.0755;
3099575429877031;0.2049;-0.0823;-0.0329;
3099575439983958;0.2806;0.0541;-0.0308;
3099575450100520;0.3573;0.1221;-0.0403;
3099575460207447;0.2060;-0.0855;0.0087;
3099575470314374;0.1570;0.0072;0.0023;
3099575480411458;0.2454;0.0285;-0.0137;
3099575490518385;0.2550;-0.0482;0.0353;
3099575500625312;0.1996;0.0264;0.0385;
3099575510748124;0.1900;-0.0248;0.0182;
3099575520855051;0.2049;-0.0237;0.0417;
3099575530961979;0.2326;0.0700;0.0406;
3099575541038958;0.2017;0.0019;0.0364;
3099575551145885;0.1889;0.0040;0.0385;
3099575561252864;0.2316;0.0732;0.0406;
3099575571380312;0.2081;0.0285;0.0374;
3099575581487239;0.1858;-0.0013;0.0182;
3099575591594166;0.2113;0.0051;0.0449;
3099575601683958;0.1879;0.0509;0.0651;
3099575611790885;0.1719;0.0136;0.0577;
3099575621897812;0.1868;0.0306;0.0768;
3099575632066041;0.1815;0.0764;0.0790;
3099575642172968;0.1549;0.0786;0.0640;
3099575652279895;0.1272;0.0668;0.0598;
3099575662356354;0.1154;0.0200;0.1067;
3099575672463281;0.0835;0.0178;0.0822;
3099575682570208;0.1240;0.0296;0.0310;
3099575692662499;0.1549;0.0210;0.0715;
3099575702769426;0.1293;0.0551;0.0651;
3099575712876354;0.1346;0.0892;0.0609;
3099575722975416;0.1112;0.0743;0.0662;
3099575733082343;0.0462;0.0200;0.0800;
3099575743189270;-0.0410;-0.0738;0.0736;
3099575753311458;-0.0230;-0.1228;0.0694;
3099575763418385;0.0973;-0.0503;0.0364;
3099575773525312;0.1538;-0.0248;0.0555;
3099575783655520;0.0931;-0.0972;0.0758;
3099575793762447;0.1080;-0.0056;0.0694;
3099575803869374;0.1474;0.0423;0.0523;
3099575813949270;0.1154;-0.0067;0.0406;
3099575824056197;0.0909;0.0253;0.0619;
3099575834163124;0.0899;0.0125;0.0577;
3099575844271666;0.0675;-0.0184;0.0619;
3099575854378593;0.0760;-0.0152;0.0630;
3099575864485520;0.0718;-0.0716;0.0587;
3099575874589531;0.1016;-0.0620;0.0704;
3099575884696458;0.1527;0.0328;0.0438;
3099575894803385;0.1399;0.0328;0.0385;
3099575904915729;0.0782;-0.0354;0.0587;
3099575915022656;0.0707;-0.0525;0.0619;
3099575925129583;0.1367;-0.0152;0.0587;
3099575935234895;0.1591;-0.0120;0.0364;
3099575945341822;0.1506;-0.0205;0.0694;
3099575955448749;0.1431;0.0019;0.1162;
3099575965557395;0.1655;0.0434;0.1024;
3099575975664322;0.1357;0.0913;0.0960;
3099575985771249;0.0249;0.0232;0.1077;
3099575995876041;-0.0623;-0.0578;0.1162;
3099576005982968;-0.0262;-0.0237;0.1312;
3099576016089895;0.0782;0.0125;0.1109;
3099576026200468;0.0750;-0.0290;0.1248;
3099576036307395;0.0345;-0.0120;0.1354;
3099576046414322;0.0728;0.0349;0.1301;
3099576056522135;0.0803;0.0370;0.1269;
3099576066629062;0.0537;0.0786;0.1301;
3099576076735989;0.0057;0.1157;0.1333;
3099576086841354;-0.0804;0.0903;0.1482;
3099576096948281;-0.1784;0.0434;0.1482;
3099576107055208;-0.2615;-0.0482;0.1344;
3099576117160624;-0.2359;-0.0599;0.1141;
3099576127267551;-0.0996;-0.0003;0.0885;
3099576137374479;-0.0517;0.0242;0.0417;
3099576147477291;-0.0613;-0.0003;0.0662;
3099576157584218;-0.0815;0.0040;0.1067;
3099576167691145;-0.0549;0.0594;0.0779;
3099576177792864;-0.0463;0.0487;0.0630;
3099576187899791;-0.1369;-0.0610;0.0395;
3099576198006718;-0.1603;-0.1036;0.0577;
3099576208121458;-0.0804;-0.1089;0.0662;
3099576218228385;0.0089;-0.0951;0.0726;
3099576228335312;0.0526;-0.0631;0.0896;
3099576238437187;0.0835;0.0029;0.0726;
3099576248544114;0.0995;0.0967;0.0651;
3099576258651041;-0.0028;0.1072;0.0630;
3099576268776562;-0.0751;0.0903;0.0694;
3099576278883489;-0.1262;0.0860;0.0598;
3099576288990416;-0.1742;0.0306;0.0321;
3099576299082187;-0.1241;-0.0162;0.0406;
3099576309189114;-0.0581;-0.0386;0.0044;
3099576319296041;-0.0060;-0.1079;0.0204;
3099576329409479;0.0196;-0.0780;0.0598;
3099576339516406;0.1027;0.0072;0.0374;
3099576349623333;0.1357;0.0146;0.0470;
3099576359725208;-0.0156;-0.0525;0.0459;
3099576369832135;-0.0442;-0.1068;0.0566;
3099576379939062;0.0142;-0.0983;0.0715;
3099576390048437;0.0228;-0.0834;0.0779;
3099576400155364;-0.0017;-0.0983;0.0843;
3099576410262291;-0.0188;-0.0876;0.0971;
3099576420370312;0.0047;-0.0301;0.1141;
3099576430477239;-0.0124;-0.0035;0.0960;
3099576440584166;-0.0284;0.0168;0.0811;
3099576450692499;-0.0378;0.0636;0.0832;
3099576460799426;-0.0826;0.0807;0.0864;
3099576470906354;-0.1912;-0.0525;0.0790;
3099576481011145;-0.2594;-0.1398;0.0619;
3099576491118072;-0.2040;-0.1430;0.0427;
3099576501224999;-0.0985;-0.2623;0.0555;
3099576511322187;-0.0060;-0.1792;0.0534;
3099576521429114;0.2550;0.0732;0.0939;
3099576531536041;0.2933;0.0988;0.0939;
3099576541673281;-0.0538;-0.0099;0.1194;
3099576551780260;-0.1454;-0.0397;0.1642;
3099576561887187;-0.0836;0.0700;0.1354;
3099576571991666;-0.0453;0.2084;0.1120;
3099576582098593;-0.1039;0.2031;0.1184;
3099576592205520;-0.1688;0.1945;0.1248;
3099576602300729;-0.2328;0.2521;0.0960;
3099576612407656;-0.2786;0.2648;0.0662;
3099576622514583;-0.2988;0.2478;0.0364;
3099576632623854;-0.3286;0.2158;0.0097;
3099576642730781;-0.3616;0.0296;-0.0286;
3099576652837708;-0.2924;-0.2431;-0.0542;
3099576662942812;-0.0911;-0.1036;-0.0553;
3099576673049739;-0.0028;-0.0738;-0.0531;
3099576683156666;-0.0655;-0.2367;-0.0137;
3099576693243749;-0.0836;-0.1473;0.0076;
3099576703350676;-0.0314;-0.0589;0.0001;
3099576713457604;-0.1017;-0.1334;-0.0169;
3099576723592343;-0.1933;-0.1526;-0.0244;
3099576733699270;-0.1358;-0.0674;-0.0233;
3099576743806197;-0.0868;0.0935;-0.0372;
3099576753891145;-0.1912;0.0903;-0.0563;
3099576763998072;-0.3009;0.0828;-0.0776;
3099576774104999;-0.3158;0.1839;-0.1138;
3099576784259895;-0.3265;0.0850;-0.1543;
3099576794366822;-0.3371;-0.0354;-0.1873;
3099576804473749;-0.2402;0.0615;-0.2128;
3099576814541979;-0.0762;0.1009;-0.2437;
3099576824648906;-0.1071;-0.0951;-0.2341;
3099576834755833;-0.1284;-0.1004;-0.2170;
3099576844869791;0.0302;0.0668;-0.2266;
3099576854976718;0.1282;-0.0365;-0.2213;
3099576865083645;0.0601;-0.0897;-0.2053;
3099576875191458;-0.0049;-0.0514;-0.2138;
3099576885298385;0.0494;-0.0631;-0.1788;
3099576895405312;0.0760;-0.0567;-0.1831;
3099576905498541;0.1527;-0.0333;-0.1607;
3099576915605468;0.2284;0.1115;-0.1884;
3099576925712395;0.1719;0.1370;-0.1639;
3099576935827604;0.0089;0.0594;-0.1160;
3099576945934531;-0.0549;0.1020;-0.1415;
3099576956041458;0.0292;0.1839;-0.1628;
3099576966151458;0.0047;0.1658;-0.1575;
3099576976258385;-0.0634;0.0807;-0.1447;
3099576986365312;-0.0294;0.1083;-0.1522;
3099576996462499;-0.0262;-0.0099;-0.1554;
3099577006569426;0.0473;-0.0067;-0.1575;
3099577016676354;0.1346;0.1072;-0.1618;
3099577026802187;0.1463;-0.0216;-0.1501;
3099577036909114;0.0409;-0.1206;-0.1341;
3099577047016041;0.0707;-0.0684;-0.1181;
3099577057116562;0.1868;-0.0983;-0.1064;
3099577067223489;0.1953;-0.0866;-0.0851;
3099577077330416;0.1623;-0.0450;-0.0755;
3099577087435520;0.1495;-0.0333;-0.0425;
3099577097542447;0.1186;-0.0013;-0.0372;
3099577107649374;0.0856;0.0764;-0.0457;
3099577117748020;0.0537;0.1242;-0.0403;
3099577127854947;0.0260;0.1530;-0.0766;
3099577137961874;-0.0527;-0.0077;-0.0712;
3099577148077916;-0.1081;-0.0184;-0.0872;
3099577158184843;0.0409;0.0722;-0.0819;
3099577168291770;0.1229;-0.0173;-0.1032;
3099577178380937;0.1176;-0.0642;-0.1043;
3099577188487864;0.1389;-0.0109;-0.1032;
3099577198594791;0.2284;-0.0141;-0.1053;
3099577208721197;0.2571;-0.0620;-0.0510;
3099577218828124;0.2145;-0.0237;-0.0329;
3099577228935051;0.1591;-0.1068;-0.0286;
3099577239031145;0.0920;-0.1345;-0.0116;
3099577249138072;0.1091;-0.1260;0.0150;
3099577259244999;0.1772;-0.1292;-0.0041;
3099577269359895;0.2529;-0.0120;0.0012;
3099577279466822;0.2965;0.0796;0.0044;
3099577289573749;0.2252;0.0573;0.0225;
3099577299680729;0.0952;0.0391;0.0140;
3099577309787656;0.1250;0.0935;0.0129;
3099577319894583;0.1016;0.0391;0.0310;
3099577329997447;0.0249;-0.0663;0.0129;
3099577340104374;0.0430;-0.1111;0.0385;
3099577350211301;0.1389;-0.0599;0.0406;
3099577360341458;0.1740;0.0008;0.0182;
3099577370448385;0.1655;-0.0003;0.0353;
3099577380555312;0.1453;-0.0205;0.0630;
3099577390631562;0.1506;0.1104;0.0406;
3099577400738489;0.1218;-0.0056;0.0502;
3099577410845416;0.0664;-0.0780;0.0534;
3099577420954479;0.0771;0.0530;0.0395;
3099577431061406;0.0547;-0.0578;0.0491;
3099577441168333;-0.0410;-0.1803;0.0651;
3099577451272187;-0.0623;-0.0589;0.0513;
3099577461379114;0.0217;-0.0418;0.0108;
3099577471486041;0.0782;-0.1206;0.0694;
3099577481619791;0.0196;-0.0599;0.0523;
3099577491726718;0.0931;0.0775;0.0598;
3099577501833645;0.1059;0.1168;0.0438;
3099577511928124;0.0441;0.0253;0.0481;
3099577522035051;-0.0357;-0.1387;0.0619;
3099577532141979;-0.0847;-0.0141;0.0161;
3099577542243645;-0.0198;0.0743;0.0140;
3099577552350416;0.0068;0.0306;0.0427;
3099577562457239;-0.0092;0.1423;-0.0116;
3099577572570937;-0.0007;0.1178;-0.0521;
3099577582677708;-0.0538;0.0093;-0.0222;
3099577592784531;-0.0868;0.0200;-0.0510;
3099577602897499;-0.0007;0.0626;-0.0499;
3099577613004270;0.0142;-0.1483;-0.0350;
3099577623111093;0.0270;-0.1430;-0.0393;
3099577633203437;0.0707;-0.0770;-0.0265;
3099577643310208;0.1389;-0.0237;0.0001;
3099577653417031;0.2049;0.0221;0.0321;
3099577663535416;0.1421;-0.0067;-0.0009;
3099577673642187;0.0675;0.0796;-0.0020;
3099577683749010;0.0079;-0.0344;-0.0297;
3099577693836666;0.0025;-0.1409;0.0033;
3099577703943437;0.0281;0.0530;-0.0201;
3099577714050260;0.0654;0.0498;-0.0372;
3099577724158854;-0.0220;-0.1260;-0.0095;
3099577734265624;-0.0783;-0.0961;-0.0297;
3099577744372447;0.0398;-0.0919;-0.0180;
3099577754479791;0.1879;0.0125;0.0001;
3099577764586562;0.2571;0.1402;0.0001;
3099577774693385;0.1612;0.0115;-0.0254;
3099577784777604;0.0174;-0.1451;0.0001;
3099577794884374;0.0196;-0.1558;0.0555;
3099577804991197;0.1836;0.1509;0.0545;
3099577815124687;0.3200;0.2297;0.0683;
3099577825231458;0.1751;0.0391;0.0790;
3099577835338281;-0.0007;0.0860;0.1077;
3099577845453437;0.0057;0.1828;0.1205;
3099577855560208;0.0132;0.0977;0.0619;
3099577865667031;-0.0410;0.0136;0.0811;
3099577875773541;-0.0762;0.0189;0.0726;
3099577885880312;-0.0049;0.0285;0.0364;
3099577895987135;0.0142;-0.0301;0.0300;
3099577906091562;-0.0028;-0.1079;0.1024;
3099577916198333;0.0164;-0.0983;0.0907;
3099577926305156;0.1272;-0.0471;0.0949;
3099577936418854;0.0984;-0.1281;0.1375;
3099577946525624;0.1240;-0.0748;0.1674;
3099577956632447;0.2113;0.0573;0.1695;
3099577966735208;0.1165;0.0775;0.1599;
3099577976841979;-0.0527;-0.0109;0.1695;
3099577986948801;-0.0591;0.0125;0.1589;
3099577997051614;-0.0676;0.0700;0.1344;
3099578007158385;-0.1518;0.0221;0.0981;
3099578017265208;-0.1316;-0.0035;0.1130;
3099578027369062;0.0079;0.1041;0.0896;
3099578037475833;-0.0007;0.1052;0.0726;
3099578047582656;-0.1411;-0.0429;0.1099;
3099578057709791;-0.1294;-0.0216;0.0971;
3099578067816562;-0.0294;-0.0365;0.0981;
3099578077923385;-0.0453;-0.1164;0.0758;
3099578088031874;0.0004;-0.0652;0.0939;
3099578098138645;0.1069;0.0306;0.0864;
3099578108245468;0.1517;-0.0184;0.1003;
3099578118336874;0.1570;0.0029;0.0896;
3099578128443645;0.0686;0.0700;0.0726;
3099578138550468;-0.0389;-0.1132;0.1099;
3099578148669895;0.0111;-0.1419;0.1258;
3099578158776666;0.2262;0.0807;0.1312;
3099578168883489;0.1644;0.1732;0.1024;
3099578178973541;-0.2157;-0.3337;0.1823;
3099578189080312;-0.2541;-0.4455;0.2025;
3099578199187135;0.2113;0.1009;0.1706;
3099578209304895;0.4606;0.2989;0.0694;
3099578219411666;0.1059;0.0871;0.1141;
3099578229518489;0.0302;-0.0567;0.1951;
3099578239617708;-0.1294;-0.1057;0.1834;
3099578249724479;-0.1582;0.0498;0.1652;
3099578259831301;-0.0623;0.0881;0.1418;
3099578269936458;-0.0166;0.0221;0.1695;
3099578280043229;-0.1049;-0.0876;0.2238;
3099578290150051;-0.1039;-0.0162;0.1663;
3099578300264374;0.0164;0.6345;0.1226;
3099578310371145;-0.0463;0.1860;0.1248;
3099578320477968;-0.2359;-0.4285;0.1642;
3099578330582812;-0.2924;-0.0216;0.1194;
3099578340689583;-0.1443;0.1157;0.1120;
3099578350796406;-0.0517;0.2148;0.0928;
3099578360903385;-0.0156;0.2830;0.1194;
3099578371010156;0.0111;0.2340;0.1620;
3099578381116979;-0.0410;0.2925;0.1716;
3099578391213124;-0.1017;0.1850;0.1791;
3099578401319895;-0.1869;0.1168;0.1354;
3099578411426718;-0.1933;0.2616;0.1184;
3099578421532708;-0.1880;0.2627;0.1280;
3099578431639479;-0.2732;0.1146;0.1130;
3099578441746301;-0.3403;0.0551;0.0747;
3099578451861770;-0.3105;0.1413;0.0257;
3099578461968541;-0.3329;-0.0237;-0.0020;
3099578472075364;-0.4128;-0.6158;0.0012;
3099578482176249;-0.2136;-0.3582;0.0055;
3099578492283020;-0.0868;-0.0439;0.0225;
3099578502389843;-0.2051;-0.1931;0.0640;
3099578512529687;-0.2391;-0.2378;0.0406;
3099578522636458;-0.1529;-0.0599;0.0491;
3099578532743281;-0.1497;0.1306;0.0129;
3099578542831666;-0.2242;0.1083;-0.0063;
3099578552938593;-0.2967;0.0658;-0.0606;
3099578563045468;-0.2647;0.2084;-0.0830;
3099578573169426;-0.3638;0.0786;-0.1064;
3099578583276354;-0.4746;-0.1132;-0.1149;
3099578593383229;-0.3425;0.1031;-0.1650;
3099578603482604;-0.2818;0.0168;-0.1895;
3099578613589531;-0.3041;-0.1899;-0.2160;
3099578623696406;-0.1646;0.0061;-0.2309;
3099578633804895;-0.1550;0.0242;-0.2415;
3099578643911822;-0.1880;-0.1579;-0.2383;
3099578654018697;-0.0858;-0.0855;-0.2330;
3099578664114062;-0.0039;-0.0184;-0.2064;
3099578674220989;-0.0262;-0.1068;-0.1948;
3099578684327864;0.0185;-0.0162;-0.1692;
3099578694425624;0.0036;0.0594;-0.1884;
3099578704532551;-0.0314;0.0839;-0.1831;
3099578714639426;-0.0442;0.0775;-0.1810;
3099578724759166;-0.0751;0.0360;-0.1979;
3099578734866093;-0.0581;0.0551;-0.2149;
3099578744972968;-0.0687;0.0509;-0.2373;
3099578755077812;-0.0431;0.0040;-0.2224;
3099578765184739;-0.0230;0.0200;-0.2447;
3099578775291614;-0.0060;-0.0035;-0.2245;
3099578785419687;0.0324;-0.1004;-0.2138;
3099578795526614;0.1197;-0.0929;-0.2138;
3099578805633489;0.1740;0.0083;-0.1618;
3099578815728229;0.0952;-0.0652;-0.1362;
3099578825835156;0.1421;-0.2027;-0.1043;
3099578835942031;0.2593;-0.0802;-0.1341;
3099578846042708;0.2646;0.0903;-0.1341;
3099578856149635;0.1676;0.0860;-0.0755;
3099578866256510;0.1229;0.0690;-0.0595;
3099578876372447;0.2124;0.1455;-0.0648;
3099578886479374;0.1985;0.2553;-0.0766;
3099578896586249;0.0782;0.1285;-0.0180;
3099578906683854;0.0217;-0.0929;-0.0041;
3099578916790781;0.1069;-0.1100;-0.0041;
3099578926897656;0.1186;0.0360;-0.0180;
3099578937007812;0.0675;0.1615;-0.0052;
3099578947114739;-0.0060;0.0274;-0.0031;
3099578957221614;0.0441;-0.0695;0.0300;
3099578967341614;0.1080;-0.0099;0.0087;
3099578977448541;0.1208;-0.0184;0.0108;
3099578987555416;0.0664;-0.1025;0.0459;
3099578997647708;0.0462;-0.1632;0.0619;
3099579007754635;0.0632;-0.1398;0.0800;
3099579017861510;0.0111;-0.0620;0.0704;
3099579027983854;-0.0145;-0.0216;0.0811;
3099579038090781;-0.0113;0.0104;0.0768;
3099579048197656;-0.0252;-0.1750;0.0758;
3099579058297447;0.0111;-0.1238;0.0609;
3099579068404374;0.0547;0.0764;0.0768;
3099579078511249;0.0164;-0.1036;0.1024;
3099579088611874;0.0483;-0.1015;0.0949;
3099579098718801;0.0654;0.0413;0.0864;
3099579108825676;0.0398;0.0338;0.1045;
3099579118936666;0.0409;0.0519;0.1184;
3099579129043593;0.0249;0.0626;0.1088;
3099579139150468;0.0206;0.0743;0.1130;
3099579149249374;0.0238;0.0690;0.1184;
3099579159356301;-0.0081;-0.0407;0.0981;
3099579169463176;-0.0028;-0.0333;0.1003;
3099579179564687;-0.0177;-0.0077;0.1120;
3099579189671614;-0.0442;-0.0738;0.1077;
3099579199778489;-0.0357;-0.0887;0.1099;
3099579209894531;-0.0783;-0.2346;0.1248;
3099579220001458;-0.0953;-0.5317;0.1557;
3099579230108333;-0.0698;-0.4626;0.0949;
3099579240207187;-0.0007;-0.1835;0.1269;
3099579250314114;-0.0410;-0.0450;0.1589;
3099579260420989;-0.0932;0.0594;0.1748;
3099579270555104;-0.1028;0.1221;0.1610;
3099579280662031;-0.0442;0.1573;0.1525;
3099579290768906;-0.0389;0.1924;0.1301;
3099579300851249;-0.1092;0.3053;0.1099;
3099579310958176;-0.1667;0.3479;0.1067;
3099579321065051;-0.2359;0.2840;0.0854;
3099579331174687;-0.2391;0.3479;0.0417;
3099579341281614;-0.2732;0.4417;-0.0212;
3099579351388489;-0.4277;-0.0013;-0.0606;
3099579361477343;-0.4011;-0.3603;-0.0414;
3099579371584270;-0.2658;-0.6712;-0.0840;
3099579381691145;-0.1369;-0.7032;-0.1989;
3099579391804791;0.1101;-0.3028;-0.1383;
3099579401911718;0.1623;0.0956;-0.0467;
3099579412018593;0.0952;0.3415;-0.0084;
3099579422131145;0.1570;0.2009;0.0374;
3099579432238072;0.1964;0.2744;0.0577;
3099579442344947;0.1367;0.4214;0.0332;
3099579452504895;-0.1348;0.1285;0.0768;
3099579462611822;-0.1763;0.2925;-0.0340;
3099579472718697;-0.0676;0.6174;-0.1724;
3099579482785676;-0.0071;1.3214;-0.1320;
3099579492892604;-0.4458;0.9252;-0.1852;
3099579502999479;-0.4479;-0.6723;-0.1989;
3099579513135104;0.1421;-0.0386;-0.3385;
3099579523242031;-0.0495;0.1583;-0.3374;
3099579533348906;-0.1912;-0.4903;-0.2160;
3099579543427708;0.0505;-0.5232;-0.2256;
3099579553534687;0.2209;-0.4690;-0.1959;
3099579563641718;0.2411;0.2425;-0.2234;
3099579573762916;0.0867;0.0019;-0.1746;
3099579583869895;0.0441;-0.7522;-0.1533;
3099579593976926;0.5320;-0.0130;-0.1607;
3099579604089374;0.5639;0.1956;-0.1852;
3099579614196354;0.2497;-0.2186;-0.1522;
3099579624303385;0.2028;0.0711;-0.0798;
3099579634400833;0.1900;-0.1185;-0.0617;
3099579644507812;0.3264;-0.1004;-0.0851;
3099579654614843;0.4180;0.5642;-0.1011;
3099579664704062;0.0846;0.2840;-0.0893;
3099579674811041;-0.0463;-0.2655;-0.0659;
3099579684918072;0.1325;-0.3465;-0.1202;
3099579695028854;-0.0081;-0.5061;-0.1117;
3099579705135833;-0.1646;-0.8715;-0.1607;
3099579715242864;0.1794;-0.4839;-0.1490;
3099579725349895;0.6170;0.1445;-0.1352;
3099579735456874;0.4457;0.4278;-0.0574;
3099579745563906;0.1559;0.3490;0.0960;
3099579755665624;0.2678;0.1519;0.1983;
3099579765772604;0.4947;0.2499;0.2228;
3099579775879635;0.5096;0.5674;0.2281;
3099579785991145;0.2443;0.7334;0.2590;
3099579796098124;0.0803;0.7792;0.2398;
3099579806205156;0.1304;1.1350;0.1471;
3099579816317604;-0.0431;1.3522;0.0726;
3099579826424583;-0.5960;-0.2517;0.0822;
3099579836531614;-0.6417;-1.0707;0.0236;
3099579846640520;-0.3702;-0.4935;-0.0499;
3099579856747499;-0.3478;-0.5178;-0.0957;
3099579866854531;-0.2913;-0.8246;-0.0190;
3099579876967812;-0.0336;-0.6712;0.0119;
3099579887074791;0.0771;-0.2378;0.0395;
3099579897181822;-0.0357;-0.1632;0.0459;
3099579907288958;-0.0879;-0.4668;0.0683;
3099579917395937;0.0398;-0.1952;0.0119;
3099579927502968;0.0622;0.1317;-0.0606;
3099579937604687;-0.0410;-0.1377;-0.0414;
3099579947711666;0.0153;-0.0141;-0.0425;
3099579957818697;0.0814;0.3256;-0.0904;
3099579967925937;0.0025;-0.0333;-0.0723;
3099579978032916;0.0632;-0.0514;-0.0680;
3099579988139947;0.0760;0.3085;-0.0872;
3099579998237031;-0.0252;0.1009;-0.0862;
3099580008344010;-0.0092;-0.0141;-0.0904;
3099580018451041;0.0547;0.2638;-0.1000;
3099580028573229;0.0100;0.2052;-0.1298;
3099580038680208;-0.0049;0.0264;-0.1192;
3099580048787239;0.0515;0.1221;-0.0979;
3099580058875937;0.0675;0.0296;-0.0766;
3099580068982916;0.0622;-0.1654;-0.0585;
3099580079089947;0.0973;-0.1281;-0.0126;
3099580089204479;0.0941;-0.1334;0.0395;
3099580099311458;0.0941;-0.1387;0.0704;
3099580109418489;0.0664;-0.0003;0.0917;
3099580119524791;0.0047;0.0658;0.0832;
3099580129631770;-0.0241;0.0104;0.0928;
3099580139738801;-0.0623;0.0125;0.0928;
3099580149843281;-0.1305;0.0306;0.0523;
3099580159950260;-0.1923;0.0146;0.0545;
3099580170057291;-0.2722;-0.1473;0.0310;
3099580180155051;-0.1976;-0.1515;0.0076;
3099580190262031;-0.1401;-0.0684;-0.0382;
3099580200369062;-0.1230;-0.0866;-0.0222;
3099580210484895;-0.0804;-0.1185;-0.0531;
3099580220591874;-0.0166;-0.1345;-0.0553;
3099580230698906;0.0324;-0.0578;-0.0585;
3099580240799374;0.0824;0.1115;-0.0723;
3099580250906354;0.0782;0.0700;-0.0329;
3099580261013385;0.0856;-0.0035;-0.0158;
3099580271131354;0.1367;-0.0056;-0.0190;
3099580281238333;0.1336;-0.0099;-0.0329;
3099580291345364;0.1048;0.0210;-0.0297;
3099580301448697;0.0824;-0.0162;-0.0276;
3099580311555676;0.1293;0.0136;-0.0393;
3099580321662708;0.1399;0.1083;-0.0489;
3099580331769062;0.1005;0.0903;-0.0286;
3099580341876041;0.0963;-0.0620;-0.0478;
3099580351983072;0.1495;-0.1409;-0.0052;
3099580362104114;0.1293;-0.0919;-0.0031;
3099580372211093;0.0462;-0.1132;-0.0414;
3099580382318124;0.0547;-0.2272;-0.0489;
3099580392412499;0.0899;-0.1153;-0.0382;
3099580402519479;0.0920;0.0732;-0.0286;
3099580412626510;0.0856;0.0551;-0.0542;
3099580422721354;0.0856;-0.0365;-0.0531;
3099580432828333;0.0856;-0.0770;-0.0617;
3099580442935364;0.1250;-0.0407;-0.0691;
3099580453082343;0.0718;-0.0386;-0.0979;
3099580463189322;0.0483;0.0008;-0.0904;
3099580473296354;0.0473;-0.0418;-0.1085;
3099580483395624;0.0675;-0.1654;-0.1309;
3099580493502604;0.1048;-0.0088;-0.1224;
3099580503609635;0.0803;0.0306;-0.1490;
3099580513706979;0.1293;-0.0748;-0.1160;
3099580523813958;0.1783;-0.0269;-0.1213;
3099580533920989;0.2401;0.1338;-0.0915;
3099580544004479;0.2443;0.2478;-0.0744;
3099580554111354;0.1815;0.2787;-0.0670;
3099580564218176;0.1399;0.1253;-0.0638;
3099580574331562;0.1698;0.0391;-0.0659;
3099580584438437;0.1911;0.0924;-0.1021;
3099580594545260;0.1357;0.1210;-0.0979;
3099580604663854;0.1336;0.0892;-0.0915;
3099580614770729;0.1538;0.0754;-0.0936;
3099580624877551;0.1836;-0.0418;-0.0574;
3099580634979687;0.2156;-0.0844;-0.0212;
3099580645086562;0.2252;-0.1068;0.0087;
3099580655193385;0.2220;-0.0652;0.0172;
3099580665297604;0.1708;0.0136;0.0342;
3099580675404479;0.0984;-0.0599;0.0491;
3099580685511301;0.1080;-0.0578;0.0651;
3099580695624999;0.0984;0.1031;0.0076;
3099580705731874;0.0664;0.0541;0.0150;
3099580715838697;0.0718;-0.0450;0.0438;
3099580725943124;0.1144;-0.0439;0.0310;
3099580736049999;0.1655;0.0370;0.0225;
3099580746156822;0.1581;0.1052;0.0427;
3099580756265312;0.1133;0.0967;0.0694;
3099580766372187;0.0622;0.0157;0.0864;
3099580776479010;0.0558;-0.0503;0.0736;
3099580786603020;0.0920;0.0178;0.0385;
3099580796709895;0.1154;0.1636;0.0438;
3099580806816718;0.1059;0.1764;0.0854;
3099580816910729;0.0505;0.0210;0.0736;
3099580827017604;0.1144;-0.0003;0.0864;
3099580837124426;0.1495;0.0775;0.0822;
3099580847231562;0.0920;-0.1068;0.1088;
3099580857338437;0.1048;-0.2037;0.1663;
3099580867445260;0.1282;-0.0439;0.1557;
3099580877545416;0.1016;0.0051;0.1770;
3099580887652291;0.0750;-0.0312;0.1727;
3099580897759114;0.1154;0.1178;0.1674;
3099580907863958;0.1005;0.1115;0.2185;
3099580917970833;0.0963;0.1349;0.2462;
3099580928077656;0.0228;0.1668;0.1940;
3099580938194479;-0.0273;-0.1036;0.2153;
3099580948301354;0.0270;-0.0759;0.2089;
3099580958408176;0.0505;0.0850;0.1802;
3099580968513541;-0.0039;0.0125;0.1919;
3099580978620416;-0.0570;-0.1398;0.1919;
3099580988727239;-0.0017;-0.0876;0.1940;
3099580998830729;0.0590;0.1072;0.1652;
3099581008937604;0.0398;0.1041;0.1897;
3099581019044426;0.0068;-0.0684;0.2664;
3099581029152812;0.0292;0.0732;0.2334;
3099581039259687;0.0505;0.1935;0.2366;
3099581049366510;0.0089;0.1381;0.2473;
3099581059475624;0.0015;0.2776;0.2292;
3099581069582499;-0.0815;0.2222;0.1972;
3099581079689322;-0.1145;0.0115;0.2217;
3099581089813281;-0.0559;0.1903;0.1407;
3099581099920156;-0.0655;0.1221;0.1301;
3099581110026979;-0.1156;-0.1302;0.1461;
3099581120121874;-0.0506;-0.1153;0.1397;
3099581130228749;-0.0410;-0.1228;0.1056;
3099581140335572;-0.0613;-0.2730;0.1407;
3099581150434687;-0.0549;-0.2591;0.1642;
3099581160541562;-0.0421;-0.0802;0.1407;
3099581170648385;-0.0719;-0.0312;0.1557;
3099581180752812;-0.1454;-0.0620;0.1333;
3099581190859687;-0.1337;-0.0130;0.1269;
3099581200966510;-0.1177;0.0466;0.0992;
3099581211072604;-0.1614;-0.0770;0.0832;
3099581221179479;-0.1465;-0.1888;0.0790;
3099581231286301;-0.0676;-0.0248;0.0193;
3099581241404270;-0.0581;0.0945;0.0214;
3099581251511145;-0.0591;0.1775;0.0491;
3099581261617968;-0.0879;0.1913;0.0193;
3099581271718541;-0.1465;-0.0322;0.0097;
3099581281825416;-0.1017;-0.0035;0.0108;
3099581291932239;-0.0357;0.1264;-0.0052;
3099581302061354;-0.0666;0.0413;-0.0201;
3099581312168229;-0.0517;0.0338;-0.0020;
3099581322275051;-0.0294;0.1605;0.0023;
3099581332351666;-0.0527;0.0796;-0.0212;
3099581342458541;-0.0506;-0.1153;-0.0041;
3099581352565364;-0.0145;-0.0738;0.0055;
3099581362687395;-0.0230;-0.1164;0.0225;
3099581372794270;-0.0517;-0.2005;0.0385;
3099581382901093;-0.0273;-0.0812;0.0417;
3099581392989583;-0.0527;-0.0535;0.0246;
3099581403096458;-0.0644;-0.0077;0.0459;
3099581413203281;-0.0570;0.0562;0.0598;
3099581423310781;-0.0708;-0.0280;0.0587;
3099581433417656;-0.1007;-0.0312;0.0129;
3099581443524479;-0.0634;-0.0024;0.0417;
3099581453645937;-0.0804;0.0232;0.0150;
3099581463752812;-0.0889;0.0487;-0.0137;
3099581473859635;-0.1017;0.0200;-0.0063;
3099581483957812;-0.0858;0.0391;-0.0020;
3099581494064687;-0.0676;0.0115;-0.0190;
3099581504171510;-0.0538;-0.0237;-0.0052;
3099581514283020;-0.0421;-0.0365;0.0321;
3099581524389895;-0.0262;0.0189;0.0385;
3099581534496718;-0.0634;0.0008;0.0150;
3099581544616458;-0.0602;-0.0450;0.0427;
3099581554723593;-0.0581;-0.0269;0.0321;
3099581564830729;-0.0794;-0.1462;0.0193;
3099581574928541;-0.0581;-0.1803;0.0342;
3099581585035676;-0.0431;-0.1174;0.0289;
3099581595142760;-0.0442;-0.0876;0.0310;
3099581605247499;-0.0485;-0.0578;0.0545;
3099581615354635;-0.0284;0.0115;0.0672;
3099581625461718;-0.0230;0.1009;0.0736;
3099581635564479;-0.0985;0.0253;0.0502;
3099581645671614;-0.0996;0.0349;0.1013;
3099581655778697;-0.1060;0.1477;0.0491;
3099581665890624;-0.1092;0.1349;0.0161;
3099581675997760;-0.1422;0.1210;0.0076;
3099581686104895;-0.1443;0.0349;0.0033;
3099581696210364;-0.0868;-0.0290;-0.0126;
3099581706317499;-0.0431;0.0338;-0.0063;
3099581716424635;-0.0602;-0.0695;0.0300;
3099581726534479;-0.0314;-0.2325;0.0672;
3099581736641614;-0.0166;-0.1079;0.0406;
3099581746748697;0.0164;0.0178;0.0790;
3099581756863020;-0.0007;-0.0280;0.1024;
3099581766970156;-0.0209;0.0839;0.0960;
3099581777077239;-0.0495;0.2041;0.0811;
3099581787200833;-0.0495;0.2201;0.0683;
3099581797307968;-0.1071;0.1306;0.0523;
3099581807415104;-0.1742;-0.0258;0.0864;
3099581817511041;-0.1752;-0.0503;0.0523;
3099581827618176;-0.1049;-0.1217;0.0726;
3099581837725312;-0.1273;-0.2655;0.0023;
3099581847820520;-0.1220;-0.1547;0.0076;
3099581857927656;-0.0943;-0.0716;0.0182;
3099581868034791;-0.0687;-0.0993;0.0204;
3099581878145781;-0.0964;-0.0333;0.0150;
3099581888252916;-0.1379;-0.1057;0.0587;
3099581898360051;-0.1433;-0.2783;0.0779;
3099581908469062;-0.0634;-0.1036;0.0364;
3099581918576197;-0.0241;0.1210;0.0438;
3099581928683333;-0.0284;0.2137;0.0417;
3099581938794791;-0.0049;0.4001;0.0172;
3099581948901926;-0.1166;0.3128;-0.0095;
3099581959009062;-0.2455;0.0466;-0.0158;
3099581969110937;-0.3574;0.0221;-0.0435;
3099581979218072;-0.3499;-0.0184;-0.0457;
3099581989325208;-0.1539;0.0115;-0.0851;
3099581999428958;-0.0687;0.1031;-0.1213;
3099582009536093;-0.1198;0.0828;-0.1128;
3099582019643229;-0.0996;0.0498;-0.0904;
3099582029753645;-0.1124;-0.0525;-0.1064;
3099582039860781;-0.0644;-0.1771;-0.0680;
3099582049967916;-0.0209;-0.2815;-0.0787;
3099582060080624;0.0206;-0.2985;-0.0883;
3099582070187760;-0.0241;-0.1846;-0.0830;
3099582080294895;-0.0815;-0.1302;-0.0595;
3099582090397551;-0.0985;-0.0855;-0.0680;
3099582100504687;-0.1156;-0.0280;-0.0979;
3099582110611770;-0.1230;-0.0354;-0.0936;
3099582120702395;-0.2466;-0.1302;-0.1245;
3099582130809531;-0.2541;-0.4551;-0.1053;
3099582140916614;-0.0410;-0.4029;-0.1469;
3099582151035312;0.2486;0.1052;-0.2011;
3099582161142447;0.4297;0.4885;-0.2053;
3099582171249531;0.1410;0.4800;-0.1053;
3099582181346197;-0.1880;0.2063;-0.0744;
3099582191453333;-0.3585;-0.0173;-0.1277;
3099582201560416;-0.4043;0.0445;-0.1927;
3099582211662864;-0.3382;0.1530;-0.1937;
3099582221769999;-0.1198;0.1349;-0.2000;
3099582231877135;0.1091;0.2957;-0.2117;
3099582242027291;0.1900;0.7590;-0.2767;
3099582252134426;-0.1294;-0.0120;-0.2810;
3099582262241562;-0.1624;-0.7096;-0.1905;
3099582272291562;0.2635;-0.2027;-0.1799;
3099582282398697;0.4553;-0.0727;-0.1543;
3099582292505781;0.3168;-0.2293;-0.1213;
3099582302674270;0.1911;-0.0866;-0.0361;
3099582312781406;0.1367;0.1052;-0.0031;
3099582322888541;0.0877;0.2329;-0.0680;
3099582332961041;-0.0549;0.0487;-0.0712;
3099582343068176;-0.1113;-0.0802;-0.0648;
3099582353175312;-0.0868;0.1125;-0.1021;
3099582363277031;-0.1092;-0.0599;-0.0862;
3099582373384166;-0.1145;-0.2176;-0.1000;
3099582383491249;-0.0294;-0.0418;-0.1032;
3099582393598958;-0.0273;-0.1888;-0.1032;
3099582403706093;-0.0463;-0.2314;-0.0883;
3099582413813176;0.0153;-0.0525;-0.0521;
3099582423917864;-0.0241;-0.0993;-0.0499;
3099582434024999;-0.0474;-0.1196;-0.0617;
3099582444132135;-0.0357;0.0711;-0.0755;
3099582454241562;-0.0730;0.1104;-0.1138;
3099582464348697;-0.0623;0.0818;-0.0734;
3099582474455781;-0.0900;0.1125;-0.0617;
3099582484575937;-0.1145;0.0253;-0.0936;
3099582494683072;-0.0474;0.0189;-0.0893;
3099582504790208;0.0047;0.0839;-0.1138;
3099582514908020;0.0281;0.0679;-0.0712;
3099582525015156;0.0004;0.0583;-0.0606;
3099582535122239;-0.0145;0.0690;-0.0606;
3099582545221041;-0.0071;0.0370;-0.0766;
3099582555328124;0.0292;0.0775;-0.0947;
3099582565435260;0.0292;0.1125;-0.0808;
3099582575534947;-0.0230;0.0157;-0.0787;
3099582585642083;0.0068;0.0178;-0.0840;
3099582595749166;0.0590;0.0764;-0.0467;
3099582605842968;0.0451;0.1615;-0.0510;
3099582615950104;-0.0134;0.0136;-0.0702;
3099582626057187;-0.0007;-0.1036;-0.0510;
3099582636168437;0.0441;-0.0663;-0.0563;
3099582646275572;0.0728;-0.0120;-0.0808;
3099582656382656;0.0228;-0.0716;-0.0723;
3099582666503749;0.0302;-0.0887;-0.0989;
3099582676610833;0.1016;0.0626;-0.0808;
3099582686717968;0.1048;0.1477;-0.0467;
3099582696807604;0.0292;0.0498;-0.0435;
3099582706914739;-0.0220;-0.0290;-0.0489;
3099582717021822;-0.0092;-0.0375;-0.0702;
3099582727132395;0.0281;-0.0120;-0.0872;
3099582737239531;0.0451;-0.0312;-0.1234;
3099582747346614;0.0451;0.0679;-0.1096;
3099582757458958;0.0270;0.0391;-0.1341;
3099582767566093;0.0419;-0.1089;-0.1341;
3099582777673176;0.0547;-0.1270;-0.1320;
3099582787777395;0.1218;-0.0525;-0.1405;
3099582797884531;0.1453;-0.0706;-0.0872;
3099582807991614;0.0984;-0.0812;-0.0691;
3099582818107604;0.0941;-0.0589;-0.0883;
3099582828214739;0.1218;0.0136;-0.1245;
3099582838321822;0.1282;0.0242;-0.1213;
3099582848428229;0.0995;-0.0194;-0.1362;
3099582858535364;0.1325;0.0146;-0.1341;
3099582868642447;0.1325;-0.0205;-0.1522;
3099582878748958;0.1570;-0.0972;-0.1362;
3099582888856093;0.1996;-0.0631;-0.1021;
3099582898963176;0.2241;-0.0429;-0.0585;
3099582909068437;0.2486;-0.0333;-0.0361;
3099582919175572;0.2390;0.0818;-0.0435;
3099582929282656;0.2071;0.1690;-0.0457;
3099582939383229;0.1794;0.1754;-0.0617;
3099582949490364;0.1431;0.1700;-0.0627;
3099582959597447;0.1154;0.0839;-0.0734;
3099582969703749;0.1421;-0.0109;-0.0776;
3099582979810885;0.1719;-0.0077;-0.0766;
3099582989917968;0.1762;-0.0418;-0.0425;
3099583000021562;0.1932;-0.0525;-0.0073;
3099583010128697;0.1804;-0.0887;-0.0276;
3099583020235781;0.2241;-0.0120;0.0129;
3099583030345364;0.2241;0.0754;-0.0031;
3099583040452499;0.1644;0.0658;0.0076;
3099583050559583;0.1069;-0.0812;-0.0041;
3099583060673541;0.1069;-0.1345;-0.0169;
3099583070780676;0.1485;-0.0429;-0.0308;
3099583080887760;0.1240;-0.0663;-0.0233;
3099583090985833;0.1154;-0.0738;-0.0276;
3099583101092968;0.1197;-0.1324;-0.0148;
3099583111200051;0.1463;-0.1995;-0.0553;
3099583121317395;0.1847;-0.0631;-0.0542;
3099583131424531;0.1165;-0.1675;-0.0446;
3099583141531614;0.1506;-0.1782;-0.0286;
3099583151624531;0.2678;0.1583;-0.0446;
3099583161731666;0.2848;0.3234;-0.0585;
3099583171838749;0.2113;0.2403;-0.0425;
3099583181927291;0.1549;0.0434;0.0023;
3099583192034426;0.1623;0.0626;-0.0052;
3099583202141510;0.1953;0.2904;-0.0531;
3099583212275051;0.1858;0.3309;-0.0712;
3099583222382135;0.1431;0.1200;-0.0691;
3099583232489270;0.1293;0.0306;-0.0403;
3099583242604062;0.1666;0.3841;-0.0915;
3099583252711197;0.1740;0.1360;-0.1075;
3099583262818281;0.0931;-0.1973;-0.0403;
3099583272927083;0.1325;-0.0141;-0.0084;
3099583283034166;0.2667;0.0562;-0.0084;
3099583293141301;0.1985;-0.1963;0.0012;
3099583303228281;0.1357;-0.2719;0.0172;
3099583313335364;0.2486;-0.0663;0.0161;
3099583323442499;0.3711;0.0850;0.0001;
3099583333563333;0.3136;0.0370;0.0417;
3099583343670468;0.1378;-0.0205;0.0555;
3099583353777551;0.1367;-0.0077;0.0598;
3099583363897083;0.0835;-0.2517;0.0491;
3099583374004218;0.0664;-0.1185;0.0832;
3099583384111301;0.1495;0.1052;0.0726;
3099583394213593;0.1783;-0.0834;0.0907;
3099583404320729;0.0803;-0.0663;0.0449;
3099583414427812;0.1336;0.1945;0.0502;
3099583424515312;0.1282;0.0168;0.0800;
3099583434622395;0.0047;-0.1696;0.0928;
3099583444729531;0.0057;0.0210;0.0843;
3099583454828958;0.2230;0.1871;0.0960;
3099583464936093;0.1538;0.0658;0.1280;
3099583475043176;0.0547;0.0146;0.1503;
3099583485154270;0.1389;0.1031;0.2089;
3099583495261406;0.1644;0.1477;0.1865;
3099583505368489;0.0824;0.0487;0.1759;
3099583515475624;0.0174;0.0647;0.2302;
3099583525582708;-0.0124;0.0317;0.2430;
3099583535689843;-0.0188;-0.1153;0.2057;
3099583545806041;0.0675;-0.1462;0.2739;
3099583555912968;0.1623;-0.0365;0.2728;
3099583566019947;0.2933;0.0455;0.2941;
3099583576120104;0.2987;0.1317;0.3410;
3099583586227031;0.1048;0.1093;0.4081;
3099583596334010;-0.0698;-0.1047;0.4017;
3099583606439374;-0.1614;-0.0141;0.4165;
3099583616546301;-0.1795;0.1317;0.4071;
3099583626653281;-0.0719;0.1232;0.3463;
3099583636765624;0.0068;0.1924;0.3559;
3099583646872551;-0.0389;0.2446;0.3708;
3099583656979531;-0.1880;0.0519;0.3666;
3099583667093124;-0.3340;-0.0525;0.4154;
3099583677200051;-0.3084;-0.0450;0.3762;
3099583687307031;-0.1284;-0.0695;0.3655;
3099583697406979;-0.0410;0.0125;0.3208;
3099583707513906;-0.0772;0.0019;0.3421;
3099583717620885;-0.1039;0.0200;0.2984;
3099583727727604;-0.0559;0.2041;0.3005;
3099583737834531;-0.1252;0.0573;0.3144;
3099583747941510;-0.2242;-0.0759;0.3133;
3099583758043124;-0.2562;-0.0290;0.3101;
3099583768150051;-0.1550;0.0178;0.2856;
3099583778257031;-0.1411;-0.0194;0.2728;
3099583788384895;-0.2093;-0.0258;0.2537;
3099583798491822;-0.2189;-0.0067;0.2494;
3099583808598801;-0.1539;0.1210;0.1961;
3099583818700833;-0.1550;0.1658;0.1631;
3099583828807760;-0.2764;-0.0407;0.1567;
3099583838914739;-0.2700;-0.0312;0.1578;
3099583849023645;-0.1667;0.0360;0.1205;
3099583859130572;-0.1316;0.0232;0.1013;
3099583869237551;-0.1869;0.0445;0.0864;
3099583879334479;-0.1710;-0.0013;0.0811;
3099583889441406;-0.1230;0.0956;0.0364;
3099583899548385;-0.1145;0.1072;0.0065;
3099583909656041;-0.1326;0.0786;0.0119;
3099583919762968;-0.1635;0.0019;-0.0308;
3099583929869947;-0.1252;-0.0067;-0.0478;
3099583939983437;-0.1092;-0.0770;-0.0553;
3099583950090364;-0.1230;-0.1121;-0.0893;
3099583960197343;-0.0996;-0.0407;-0.1138;
3099583970308124;-0.1177;-0.0887;-0.0702;
3099583980415051;-0.1316;-0.1270;-0.0968;
3099583990522031;-0.0889;-0.1196;-0.1394;
3099584000681145;-0.0623;-0.0386;-0.1405;
3099584010788072;-0.0751;0.0200;-0.1703;
3099584020895051;-0.0538;0.0338;-0.1586;
3099584030942395;-0.0985;-0.0972;-0.1597;
3099584041049322;-0.0804;-0.1632;-0.1682;
3099584051156301;-0.0581;-0.1142;-0.1863;
3099584061252604;-0.0836;-0.1771;-0.2181;
3099584071359531;-0.0442;-0.2900;-0.2000;
3099584081466510;0.0856;-0.0035;-0.2181;
3099584091584687;0.3849;0.4672;-0.2224;
3099584101691614;0.5787;0.4800;-0.1703;
3099584111798593;0.3455;0.1391;-0.0989;
3099584121879687;-0.0985;0.0029;-0.1000;
3099584131986614;-0.3627;0.0647;-0.0734;
3099584142093593;-0.3148;0.2286;-0.1266;
3099584152205572;-0.0751;0.3724;-0.1394;
3099584162312499;0.0292;0.3565;-0.1479;
3099584172419479;-0.0336;0.2382;-0.1533;
3099584182547239;-0.0294;0.2638;-0.1767;
3099584192654166;-0.0676;-0.2559;-0.1341;
3099584202761145;0.0068;-0.4242;-0.1202;
3099584212872708;0.1772;-0.2176;-0.1394;
3099584222979635;0.1826;-0.2751;-0.1117;
3099584233086614;0.0718;-0.2953;-0.0382;
3099584243181197;0.0888;-0.1079;0.0289;
3099584253288124;0.0931;0.0306;-0.0073;
3099584263395104;0.0430;-0.0173;0.0023;
3099584273497499;-0.0113;-0.0802;0.0161;
3099584283604426;-0.0081;0.0178;-0.0009;
3099584293711406;-0.0314;0.1009;-0.0180;
3099584303828958;-0.0751;-0.0344;-0.0393;
3099584313935885;-0.1316;-0.0173;-0.0265;
3099584324042864;-0.1763;0.1360;-0.0489;
3099584334133124;-0.1422;-0.0099;-0.0521;
3099584344240051;-0.1827;-0.0578;-0.0627;
3099584354347031;-0.1316;0.0573;-0.0435;
3099584364471041;-0.0527;0.0136;-0.0265;
3099584374577968;-0.0549;0.0008;-0.0553;
3099584384684947;-0.0081;0.0977;-0.0403;
3099584394787812;0.0302;0.1200;-0.0425;
3099584404894739;0.0494;0.0381;-0.0297;
3099584415001718;0.0281;0.0541;0.0001;
3099584425111614;0.0558;0.0296;0.0140;
3099584435218541;0.1389;-0.0248;0.0395;
3099584445325520;0.1591;0.0040;0.0822;
3099584455428124;0.1186;-0.0322;0.0896;
3099584465535051;0.1069;-0.0620;0.1258;
3099584475642031;0.0462;-0.0120;0.1333;
3099584485757812;0.0132;-0.0642;0.1173;
3099584495864739;-0.0134;-0.0791;0.1397;
3099584505971718;-0.0241;-0.0333;0.1397;
3099584516084947;-0.0241;-0.0748;0.1152;
3099584526191874;-0.0346;-0.0493;0.1525;
3099584536298854;-0.0591;0.0349;0.1386;
3099584546405312;-0.0804;-0.0003;0.1525;
3099584556512343;-0.1443;-0.0248;0.1482;
3099584566619374;-0.1901;0.0178;0.1248;
3099584576720729;-0.1369;0.0051;0.1099;
3099584586827760;-0.0559;0.1285;0.0917;
3099584596934791;-0.0687;0.1615;0.0885;
3099584607036770;-0.1198;0.1264;0.0736;
3099584617143801;-0.2104;0.1146;0.0619;
3099584627250833;-0.2466;-0.0216;0.0630;
3099584637355520;-0.1465;-0.0461;0.0662;
3099584647462551;-0.0676;0.0253;0.0662;
3099584657569583;-0.0527;-0.0301;0.0854;
3099584667702499;-0.0336;0.0477;0.0704;
3099584677809531;-0.0666;0.0487;0.0364;
3099584687916562;-0.0762;-0.0620;0.0491;
3099584698008437;-0.0113;0.0317;0.0481;
3099584708115468;0.0132;0.1031;0.0427;
3099584718222499;-0.0124;0.0232;0.0981;
3099584728320312;-0.0730;-0.0194;0.0704;
3099584738427343;-0.0794;0.0104;0.0385;
3099584748534374;-0.0655;-0.0589;0.0491;
3099584758647708;-0.0453;-0.0418;0.0758;
3099584768754739;-0.0378;-0.0013;0.0129;
3099584778861770;-0.0294;0.0370;0.0129;
3099584788982031;-0.0431;0.1009;0.0204;
3099584799089062;-0.0314;0.1093;-0.0222;
3099584809196093;-0.0708;0.0860;-0.0318;
3099584819296145;-0.1262;-0.0344;0.0001;
3099584829403176;-0.1411;-0.1334;-0.0276;
3099584839510208;-0.0794;-0.0823;-0.0340;
3099584849619479;-0.0103;-0.0035;-0.0382;
3099584859726510;0.0206;0.0860;-0.0702;
3099584869833541;0.0345;0.1083;-0.0744;
3099584879940833;-0.0368;0.0232;-0.0989;
3099584890047864;-0.0314;-0.0578;-0.0851;
3099584900154895;-0.0060;-0.0866;-0.0712;
3099584910257395;-0.0092;-0.0525;-0.1309;
3099584920364426;0.0334;-0.0620;-0.1021;
3099584930471458;0.1112;0.0519;-0.0446;
3099584940580624;0.0920;0.1093;-0.0893;
3099584950687656;0.0270;0.0338;-0.0936;
3099584960794687;-0.0177;0.0051;-0.0830;
3099584970896666;-0.0071;0.0083;-0.1266;
3099584981003697;-0.0220;-0.0290;-0.1192;
3099584991110729;-0.0751;-0.0450;-0.1490;
3099585001208437;-0.0463;-0.0013;-0.1682;
3099585011315468;-0.0506;-0.0088;-0.1607;
3099585021422499;-0.1582;-0.1079;-0.1810;
3099585031521614;-0.1933;-0.1462;-0.1989;
3099585041628645;-0.0431;-0.1142;-0.2096;
3099585051735676;0.0909;0.0008;-0.1714;
3099585061850104;0.0835;0.0189;-0.1863;
3099585071957135;0.0068;-0.1206;-0.2383;
3099585082064166;-0.0103;-0.1174;-0.1916;
3099585092171562;0.0505;-0.0354;-0.2106;
3099585102278593;0.1304;0.0125;-0.2181;
3099585112385624;0.1218;0.0040;-0.2309;
3099585122510937;0.1101;-0.0056;-0.1607;
3099585132617968;0.0569;0.0200;-0.1639;
3099585142724999;0.0419;0.0083;-0.1746;
3099585152802395;0.0430;-0.0226;-0.1618;
3099585162909426;0.0366;-0.0226;-0.1330;
3099585173016458;0.0292;0.0072;-0.1714;
3099585183142499;0.0963;-0.0301;-0.1597;
3099585193249531;0.1698;-0.0013;-0.1490;
3099585203356562;0.2124;0.0391;-0.1597;
3099585213445104;0.1623;-0.0908;-0.1490;
3099585223552135;0.1250;-0.1430;-0.0840;
3099585233659166;0.2049;-0.0546;-0.0574;
3099585243777187;0.3210;-0.1068;-0.0372;
3099585253884218;0.3988;-0.0439;-0.0020;
3099585263991249;0.4276;-0.0365;0.0726;
3099585274134583;0.4563;0.0210;0.0875;
3099585284241614;0.3913;0.0945;0.1130;
3099585294348645;0.2507;0.0189;0.1727;
3099585304414062;0.1122;-0.0216;0.1929;
3099585314521093;0.0132;-0.0344;0.1663;
3099585324628124;0.0494;-0.0205;0.2260;
3099585334749687;0.1048;0.0860;0.2260;
3099585344856718;0.1016;-0.0024;0.2451;
3099585354963749;0.0877;-0.0663;0.2877;
3099585365061666;0.0526;0.0445;0.2941;
3099585375168697;0.0505;0.0093;0.2824;
3099585385275729;0.0270;-0.0993;0.2686;
3099585395389374;-0.0517;-0.0365;0.2867;
3099585405496406;-0.0549;0.0157;0.2579;
3099585415603437;-0.0421;-0.0439;0.2515;
3099585425703333;-0.1017;-0.0162;0.2792;
3099585435810364;-0.1838;0.0210;0.2579;
3099585445917395;-0.1816;-0.0780;0.2409;
3099585456029374;-0.1944;-0.1004;0.2462;
3099585466136406;-0.2029;0.0232;0.2441;
3099585476243437;-0.1646;0.0519;0.2110;
3099585486352187;-0.1646;-0.0748;0.1748;
3099585496459218;-0.1774;-0.0386;0.1876;
3099585506566249;-0.2146;0.1317;0.1791;
3099585516666874;-0.1869;0.0903;0.1301;
3099585526773906;-0.1561;-0.0173;0.1226;
3099585536880937;-0.2051;0.0477;0.1035;
3099585547010520;-0.2626;0.0658;0.0672;
3099585557117604;-0.2178;-0.0439;0.0545;
3099585567224739;-0.1933;-0.0258;0.0449;
3099585577325364;-0.1486;0.0732;0.0193;
3099585587432447;-0.0847;0.0168;-0.0126;
3099585597539583;-0.0932;-0.0418;-0.0457;
3099585607628749;-0.0964;-0.0173;-0.0063;
3099585617735833;-0.0559;-0.0312;-0.0382;
3099585627842968;-0.0581;-0.0418;-0.0648;
3099585637964583;-0.0666;-0.0290;-0.0670;
3099585648071666;-0.0474;-0.0418;-0.0382;
3099585658178801;-0.0431;-0.0216;-0.0286;
3099585668287708;-0.0049;-0.0269;-0.0361;
3099585678394791;-0.0017;0.0189;-0.0308;
3099585688501926;-0.0124;0.0349;-0.0329;
3099585698600937;-0.0241;-0.0035;-0.0617;
3099585708708020;-0.0389;-0.0077;-0.0254;
3099585718815156;-0.0284;0.0221;-0.0393;
3099585728919999;-0.0453;0.0338;-0.0670;
3099585739027083;-0.0772;-0.0248;-0.0648;
3099585749134218;-0.0975;-0.0557;-0.0435;
3099585759258958;-0.0889;0.0200;-0.0627;
3099585769366041;-0.0314;0.0157;-0.0446;
3099585779473176;-0.0134;-0.0067;0.0044;
3099585789574947;-0.0389;0.0860;0.0055;
3099585799682031;-0.0591;0.0423;-0.0222;
3099585809789166;-0.0921;-0.0003;-0.0361;
3099585819884895;-0.1071;0.0242;-0.0116;
3099585829991979;-0.0794;0.0722;-0.0158;
3099585840099114;-0.0783;0.0541;-0.0222;
3099585850201770;-0.1113;-0.0162;-0.0297;
3099585860308854;-0.1103;0.0328;-0.0137;
3099585870415989;-0.0964;0.0423;0.0001;
3099585880540364;-0.0826;-0.0663;0.0214;
3099585890647447;-0.0252;0.0115;0.0076;
3099585900754583;-0.0314;0.0860;0.0023;
3099585910848020;-0.0783;-0.0194;-0.0148;
3099585920955104;-0.1028;-0.0365;-0.0063;
3099585931062239;-0.1028;-0.0077;-0.0041;
3099585941170364;-0.0305;0.0264;-0.0020;
3099585951277447;-0.0399;0.0232;-0.0095;
3099585961384583;-0.0602;-0.0216;-0.0052;
3099585971480312;-0.0273;0.0732;0.0033;
3099585981587395;-0.0410;0.0391;0.0033;
3099585991694531;-0.0549;-0.0578;0.0225;
3099586001799791;-0.0868;-0.0599;0.0182;
3099586011906874;-0.0570;-0.0663;-0.0116;
3099586022014010;-0.0463;-0.0312;-0.0233;
3099586032134687;-0.0346;0.0253;-0.0084;
3099586042241770;-0.0145;-0.0141;-0.0020;
3099586052348906;0.0260;0.0509;-0.0105;
3099586062455989;-0.0039;0.0551;-0.0137;
3099586072563072;-0.0644;0.0274;-0.0308;
3099586082670208;-0.0772;0.0434;-0.0020;
3099586092785208;-0.0847;-0.0802;0.0129;
3099586102892291;-0.0655;-0.1164;0.0268;
3099586112999426;-0.0017;0.0967;0.0225;
3099586123114791;-0.0262;0.1200;0.0225;
3099586133221874;-0.0378;0.0317;-0.0158;
3099586143329010;-0.0644;-0.0397;0.0150;
3099586153429583;-0.0644;0.0360;-0.0031;
3099586163536666;-0.0357;0.1509;-0.0169;
3099586173643801;-0.0964;0.0029;-0.0095;
3099586183747916;-0.1688;-0.1356;-0.0276;
3099586193854999;-0.2434;-0.0876;-0.0403;
3099586203962135;-0.2168;-0.0535;-0.0435;
3099586214080208;-0.1145;-0.0109;-0.0393;
3099586224187291;-0.0252;0.1115;-0.0403;
3099586234294426;-0.0453;0.0232;-0.0286;
3099586244380937;-0.1230;-0.0844;-0.0329;
3099586254488020;-0.1443;-0.0802;-0.0595;
3099586264595156;-0.0889;0.0636;-0.0670;
3099586274698645;-0.0357;0.1274;-0.0840;
3099586284805729;-0.0932;-0.0290;-0.0755;
3099586294912864;-0.1561;-0.0663;-0.0531;
3099586305025624;-0.1262;0.0956;-0.0734;
3099586315132708;-0.0794;0.0477;-0.0936;
3099586325239843;-0.0975;-0.0834;-0.0787;
3099586335337083;-0.0613;0.0764;-0.0883;
3099586345444166;-0.0198;0.0434;-0.0744;
3099586355551301;-0.0442;-0.0599;-0.1075;
3099586365670937;-0.0389;0.0402;-0.0947;
3099586375778020;-0.0007;0.0860;-0.0925;
3099586385885156;-0.0389;0.0040;-0.1288;
3099586395991354;-0.0783;-0.0514;-0.1245;
3099586406098437;-0.0708;-0.0844;-0.1011;
3099586416205572;-0.0836;-0.0120;-0.1021;
3099586426303958;-0.0730;-0.0887;-0.1160;
3099586436411041;-0.0081;-0.1121;-0.0862;
3099586446518176;0.1357;0.1072;-0.0904;
3099586456621979;0.2177;0.0551;-0.0659;
3099586466729062;0.0505;-0.1111;-0.0606;
3099586476836197;-0.0889;-0.0205;-0.0680;
3099586486945364;-0.0188;-0.0290;-0.0510;
3099586497052447;-0.0156;-0.0184;-0.0691;
3099586507159583;-0.0198;-0.0162;-0.0638;
3099586517276041;-0.0559;-0.0770;-0.0542;
3099586527383124;-0.0442;-0.0620;-0.0627;
3099586537490260;-0.0177;-0.0056;-0.0766;
3099586547599583;-0.0081;-0.0546;-0.0670;
3099586557706562;-0.0134;-0.0535;-0.0372;
3099586567813541;-0.0103;-0.0631;-0.0638;
3099586577909999;-0.0220;-0.1036;-0.0755;
3099586588016979;-0.0166;-0.0738;-0.0691;
3099586598123958;-0.0177;-0.1100;-0.0808;
3099586608232916;0.0345;-0.0280;-0.0691;
3099586618339895;0.1080;0.1583;-0.0883;
3099586628446874;0.1389;0.1168;-0.0478;
3099586638557187;0.0590;0.0807;-0.0329;
3099586648664166;-0.0156;0.1210;-0.0212;
3099586658771145;-0.0570;0.1487;-0.0382;
3099586668876770;-0.0209;0.1573;-0.0617;
3099586678983749;-0.0591;0.1530;-0.0403;
3099586689090729;-0.1007;0.1020;-0.0734;
3099586699197447;-0.0804;0.1125;-0.1064;
3099586709304426;-0.0442;0.1146;-0.1266;
3099586719411406;-0.0273;0.0285;-0.1288;
3099586729518749;-0.0527;0.0764;-0.1799;
3099586739625729;-0.0549;-0.1228;-0.2021;
3099586749732708;-0.0826;-0.2666;-0.2085;
3099586759848593;0.0387;-0.1611;-0.1671;
3099586769955572;0.1591;-0.1537;-0.1352;
3099586780062551;0.1495;-0.2122;-0.1128;
3099586790176614;0.1900;-0.1515;-0.1128;
3099586800283593;0.2624;-0.0109;-0.0989;
3099586810390572;0.2348;0.0594;-0.0744;
3099586820482916;0.1346;0.0317;-0.0648;
3099586830589895;0.0963;0.0860;-0.0819;
3099586840696874;0.1101;0.1711;-0.0883;
3099586850804479;0.1037;0.1370;-0.1192;
3099586860911458;0.0334;0.0892;-0.0989;
3099586871018437;0.0622;0.0743;-0.1149;
3099586881138124;0.0973;0.0541;-0.1266;
3099586891245104;0.0771;0.0040;-0.1085;
3099586901352083;0.0952;-0.0642;-0.1117;
3099586911434791;0.1826;-0.0802;-0.0585;
3099586921541770;0.2443;-0.0770;-0.0510;
3099586931648749;0.2859;-0.0365;-0.0574;
3099586941763437;0.2454;-0.0099;-0.0372;
3099586951870416;0.1666;-0.0141;-0.0190;
3099586961977395;0.1410;0.0413;0.0161;
3099586972090624;0.1442;0.0551;0.0012;
3099586982197604;0.1112;0.0402;0.0150;
3099586992304583;0.0995;0.0434;0.0545;
3099587002424270;0.0814;0.0328;0.0449;
3099587012531249;0.0728;-0.0067;0.0609;
3099587022638229;0.0547;0.0008;0.0332;
3099587032723333;0.0803;0.0189;0.0417;
3099587042830312;0.0590;0.0157;0.0481;
3099587052937291;0.0366;-0.0045;0.0310;
3099587063064791;0.0217;-0.0290;0.0012;
3099587073171770;0.0345;-0.0056;0.0193;
3099587083278749;0.0611;-0.0109;0.0150;
3099587093377239;0.0505;-0.0226;0.0055;
3099587103484218;0.0643;-0.0290;0.0097;
3099587113591197;0.0643;-0.0258;-0.0116;
3099587123713958;0.0739;-0.0045;0.0044;
3099587133820937;0.0505;-0.0770;0.0214;
3099587143927916;0.0728;-0.0834;0.0087;
3099587154026458;0.1165;-0.0620;-0.0095;
3099587164133437;0.1016;-0.0503;-0.0212;
3099587174240416;0.1122;-0.0716;0.0140;
3099587184323541;0.1080;-0.0695;0.0161;
3099587194430520;0.1282;-0.0077;-0.0052;
3099587204537499;0.1399;0.0477;-0.0020;
3099587214654062;0.1101;-0.0088;-0.0286;
3099587224761041;0.1091;0.0146;-0.0116;
3099587234868020;0.1112;0.0626;0.0193;
3099587244975104;0.0803;0.0541;0.0119;
3099587255082083;0.0632;0.0828;0.0087;
3099587265189062;0.0579;0.0551;-0.0052;
3099587275287395;0.0590;0.0189;-0.0073;
3099587285394374;0.1037;0.0583;-0.0063;
3099587295501354;0.0654;0.0605;-0.0095;
3099587305624062;0.0430;0.0605;-0.0403;
3099587315731041;0.0569;0.0200;-0.0617;
3099587325838020;0.0824;-0.0077;-0.0233;
3099587335948697;0.1027;0.0157;-0.0329;
3099587346055676;0.1133;0.0306;-0.0393;
3099587356162656;0.0952;0.0210;-0.0126;
3099587366267708;0.0909;0.0168;0.0097;
3099587376374687;0.0899;0.0125;0.0278;
3099587386481666;0.0632;-0.0439;0.0385;
3099587396587708;0.0973;-0.0546;0.0406;
3099587406694687;0.1293;-0.0088;0.0630;
3099587416801666;0.0846;-0.0024;0.0577;
3099587426921666;0.0430;-0.0130;0.0406;
3099587437028645;0.0377;-0.0674;0.0459;
3099587447135624;0.0877;-0.0354;0.0566;
3099587457231145;0.0814;-0.0344;0.0385;
3099587467338124;0.0345;-0.1206;0.0310;
3099587477445104;0.0771;-0.1068;0.0236;
3099587487552812;0.0899;-0.0557;0.0449;
3099587497659791;0.0366;-0.1174;0.0758;
3099587507766770;0.0377;-0.1430;0.0896;
3099587517874166;0.0526;-0.1302;0.0651;
3099587527981145;0.0494;-0.1590;0.0715;
3099587538088124;0.0547;-0.1707;0.0747;
3099587548197864;0.0696;-0.1973;0.0854;
3099587558304843;0.0675;-0.2027;0.0854;
3099587568411874;0.0867;-0.1196;0.0417;
3099587578513697;0.0686;-0.2602;0.0417;
3099587588620676;0.1218;-0.4306;0.0630;
3099587598727708;0.1719;-0.2506;0.0832;
3099587608825364;0.2784;0.1328;0.0736;
3099587618932343;0.2688;0.3373;0.0939;
3099587629039374;0.0334;0.3043;0.1759;
3099587639150312;-0.0273;0.3682;0.2324;
3099587649257291;0.0590;0.5322;0.1834;
3099587659364322;0.0068;0.4150;0.1407;
3099587669482968;-0.0868;0.2212;0.1514;
3099587679589947;-0.0644;0.1924;0.1439;
3099587689696979;-0.0591;0.1573;0.0992;
3099587699794687;-0.1656;-0.0035;0.0640;
3099587709901666;-0.1624;-0.1025;0.0097;
3099587720008697;-0.0932;-0.0663;0.0033;
3099587730113697;-0.1635;-0.0024;0.0257;
3099587740220676;-0.1699;0.1818;-0.0190;
3099587750327708;-0.2093;-0.0812;-0.0361;
3099587760461770;-0.2061;-0.3614;-0.0297;
3099587770568749;0.0664;-0.2048;-0.0318;
3099587780675781;0.0473;-0.1409;0.0300;
3099587790772812;-0.0453;-0.2751;0.0800;
3099587800879791;0.0324;-0.2815;0.0896;
3099587810986822;0.1229;-0.1249;0.0981;
3099587821081874;0.0835;0.0445;0.1290;
3099587831188854;0.0228;0.0178;0.1088;
3099587841295885;-0.0421;0.0541;0.0864;
3099587851398541;0.0153;0.1977;0.0246;
3099587861505520;0.0068;0.2073;-0.0126;
3099587871612551;-0.0273;0.1242;-0.0084;
3099587881714062;-0.0378;0.0562;-0.0052;
3099587891821041;-0.0017;-0.0258;-0.0467;
3099587901928072;0.0931;-0.1174;-0.0648;
3099587912042708;0.1410;-0.1206;-0.0403;
3099587922149687;0.1804;-0.1622;-0.0340;
3099587932256718;0.2326;-0.1718;-0.0095;
3099587942364999;0.2614;-0.0855;0.0150;
3099587952471979;0.2880;-0.1068;0.0204;
3099587962579010;0.2923;-0.1142;0.0406;
3099587972678854;0.3455;-0.0077;0.0672;
3099587982785833;0.3168;0.0498;0.0875;
3099587992892864;0.2848;0.0253;0.0928;
3099588002993124;0.2529;0.0754;0.0939;
3099588013100104;0.1943;0.0839;0.0672;
3099588023207135;0.1953;0.0636;0.0896;
3099588033312083;0.1059;0.0264;0.1237;
3099588043419062;0.0174;-0.0226;0.1056;
3099588053526093;-0.0177;-0.0482;0.0630;
3099588063657395;-0.0804;-0.0035;0.0470;
3099588073764374;-0.0975;-0.0354;0.0545;
3099588083871406;-0.1593;-0.0599;0.0843;
3099588093970104;-0.1561;-0.0407;0.0513;
3099588104077083;-0.0932;-0.0067;0.0534;
3099588114184114;-0.1454;-0.0045;0.0545;
3099588124296614;-0.0527;0.0264;0.0587;
3099588134403593;-0.0591;0.0402;0.0981;
3099588144510624;-0.0294;0.0253;0.0854;
3099588154605624;0.0302;0.0423;0.0779;
3099588164712604;0.0483;0.0679;0.0864;
3099588174819635;0.0846;0.0445;0.0896;
3099588184929895;0.0696;0.0072;0.1162;
3099588195036874;0.0718;-0.0280;0.1258;
3099588205143906;0.0941;-0.0035;0.1067;
3099588215260833;0.1218;0.0285;0.1141;
3099588225367812;0.0824;0.0072;0.1365;
3099588235474843;0.0984;0.0594;0.1312;
3099588245577447;0.0824;0.0743;0.1386;
3099588255684426;0.0164;0.0296;0.1493;
3099588265791458;-0.0145;0.0594;0.1375;
3099588275891874;-0.0273;0.0125;0.1386;
3099588285998854;-0.0357;0.0029;0.1471;
3099588296105885;-0.0410;0.0019;0.1557;
3099588306223281;-0.0996;-0.0844;0.1482;
3099588316330260;-0.1188;-0.0695;0.1056;
3099588326437291;-0.0953;-0.0418;0.0875;
3099588336545312;-0.0900;-0.0194;0.0928;
3099588346652291;-0.0953;0.0391;0.0854;
3099588356759322;-0.1081;0.0413;0.0885;
3099588366875104;-0.0964;0.0828;0.0758;
3099588376982083;-0.0826;0.1498;0.0587;
3099588387089114;-0.0570;0.1168;0.0246;
3099588397189947;-0.0463;0.0615;0.0214;
3099588407296926;-0.0815;0.0615;0.0268;
3099588417403958;-0.0368;0.0189;0.0087;
3099588427519270;-0.0485;-0.0525;0.0044;
3099588437626249;-0.0453;-0.0929;-0.0265;
3099588447733281;-0.0325;-0.0866;0.0033;
3099588457827187;-0.0431;-0.0493;-0.0041;
3099588467934166;-0.0156;-0.0173;-0.0244;
3099588478041197;0.0089;-0.0258;-0.0457;
3099588488151874;0.0153;-0.0226;-0.0137;
3099588498258854;0.0664;0.0381;-0.0009;
3099588508365885;0.1538;0.0935;0.0065;
3099588518465937;0.1442;0.0754;0.0193;
3099588528572916;0.1740;0.0253;0.0204;
3099588538702031;0.2379;0.0690;0.0214;
3099588548809010;0.2422;0.0818;0.0470;
3099588558916041;0.2060;-0.0482;0.0736;
3099588569018281;0.2188;-0.0706;0.0694;
3099588579125260;0.2273;-0.0248;0.0843;
3099588589232291;0.1751;-0.0578;0.1248;
3099588599309374;0.1783;-0.0216;0.1258;
3099588609416354;0.1570;0.0402;0.1439;
3099588619523385;0.0877;0.0381;0.1770;
3099588629643437;0.0590;0.0658;0.1791;
3099588639750416;0.0632;0.0764;0.1706;
3099588649857447;0.0047;0.0711;0.1738;
3099588659966562;-0.0847;0.0264;0.1663;
3099588670073541;-0.0921;0.0221;0.1493;
3099588680180572;-0.0836;0.0509;0.1578;
3099588690294687;-0.1454;-0.0194;0.1610;
3099588700401666;-0.1273;-0.0375;0.1514;
3099588710508697;-0.0879;0.0157;0.1397;
3099588720629062;-0.0783;-0.0312;0.1674;
3099588730736041;-0.0740;-0.0386;0.1802;
3099588740843072;-0.0368;0.0562;0.1397;
3099588750930104;-0.0177;0.0860;0.1120;
3099588761037083;-0.0453;0.0977;0.1791;
3099588771144114;-0.0964;0.1232;0.1684;
3099588781238541;-0.0964;0.1168;0.1301;
3099588791345520;-0.1124;0.1093;0.1056;
3099588801452551;-0.1507;0.0711;0.0981;
3099588811563229;-0.1699;0.0285;0.1013;
3099588821670208;-0.1784;0.0381;0.0907;
3099588831777239;-0.2487;-0.0280;0.0683;
3099588841886770;-0.2477;-0.0674;0.0491;
3099588851993749;-0.1806;-0.0226;0.0502;
3099588862100781;-0.1465;0.0146;0.0715;
3099588872197083;-0.1188;0.0498;0.0864;
3099588882304062;-0.0613;0.0945;0.0672;
3099588892411093;-0.0113;0.1063;0.0960;
3099588902539062;-0.0124;0.1818;0.1013;
3099588912646041;0.0238;0.1850;0.1312;
3099588922753072;-0.0410;0.0700;0.1471;
3099588932843958;-0.0740;0.0786;0.1152;
3099588942950937;-0.0431;0.1562;0.1493;
3099588953057968;-0.0570;0.1031;0.2047;
3099588963197708;-0.1134;0.0605;0.2153;
3099588973304687;-0.1177;0.0892;0.1972;
3099588983411718;-0.1742;0.0754;0.2185;
3099588993489687;-0.2051;0.0583;0.2547;
3099589003596666;-0.2668;-0.0067;0.2590;
3099589013703697;-0.3744;-0.0919;0.2387;
3099589023835833;-0.4085;-0.0045;0.2345;
3099589033942812;-0.4575;-0.1036;0.2398;
3099589044049843;-0.6258;-0.1909;0.1876;
3099589054149947;-0.5875;-0.0365;0.1759;
3099589064256926;-0.3904;0.0573;0.2025;
3099589074363958;-0.2530;0.0679;0.2345;
3099589084481354;-0.1923;0.1072;0.2600;
3099589094588333;-0.1316;0.1818;0.2835;
3099589104695364;-0.0241;0.2297;0.2835;
3099589114793124;0.0324;0.1871;0.2643;
3099589124900104;-0.1049;0.1445;0.2547;
3099589135007135;-0.1475;0.0999;0.2419;
3099589145089791;-0.1710;0.0370;0.2238;
3099589155196770;-0.2434;0.0008;0.2015;
3099589165303801;-0.2796;-0.0471;0.1738;
3099589175433749;-0.3084;-0.0567;0.1610;
3099589185540729;-0.3648;-0.0620;0.1407;
3099589195647760;-0.3638;-0.0557;0.1269;
3099589205754895;-0.3489;-0.0120;0.0939;
3099589215861874;-0.3499;-0.0557;0.0811;
3099589225968906;-0.4043;0.0040;0.0704;
3099589236071354;-0.4138;0.0583;0.0694;
3099589246178333;-0.4884;-0.0141;0.0534;
3099589256285364;-0.4820;0.0647;0.0214;
3099589266397291;-0.4469;0.1892;0.0342;
3099589276504270;-0.3968;0.1913;0.0513;
3099589286611301;-0.5331;0.1136;0.0640;
3099589296714270;-0.6343;0.0977;0.0555;
3099589306821249;-0.6035;0.2244;0.0683;
3099589316928281;-0.5726;0.2830;0.0992;
3099589327053124;-0.8164;0.0051;0.0917;
3099589337160104;-1.1136;-0.2005;0.0672;
3099589347267135;-1.1136;-0.0908;0.0545;
3099589357359999;-1.2137;-0.1217;0.0523;
3099589367466979;-1.3489;-0.2272;0.0939;
3099589377574010;-1.3052;-0.1707;0.1162;
3099589387686874;-1.2594;0.0115;0.1482;
3099589397793854;-1.3819;0.0200;0.1876;
3099589407900885;-1.4884;0.0178;0.2153;
3099589418000937;-1.4639;0.1402;0.2324;
3099589428107916;-1.5172;0.1519;0.2249;
3099589438214947;-1.5683;0.1104;0.2100;
3099589448333645;-1.4820;0.1381;0.1695;
3099589458440624;-1.4309;0.1264;0.1589;
3099589468547656;-1.4287;0.1200;0.1514;
3099589478650520;-1.3297;0.1274;0.1397;
3099589488757499;-1.2371;0.1605;0.1258;
3099589498864531;-1.2148;0.1594;0.0971;
3099589508966197;-1.1647;0.1615;0.0843;
3099589519073176;-1.1317;0.2148;0.0406;
3099589529180208;-1.1349;0.1562;0.0172;
3099589539302499;-1.1466;0.0892;0.0001;
3099589549409479;-1.0560;0.1072;-0.0073;
3099589559516510;-1.0102;0.1434;-0.0265;
3099589569610312;-0.9740;0.2244;-0.0350;
3099589579717291;-1.0124;0.2648;-0.0446;
3099589589824322;-1.1125;0.2585;-0.0702;
3099589599919166;-0.9857;0.3064;-0.1160;
3099589610026145;-1.0220;0.3810;-0.1554;
3099589620133176;-1.0592;0.4001;-0.1522;
3099589630246979;-1.0710;0.4108;-0.1714;
3099589640353958;-1.0784;0.4268;-0.2043;
3099589650460989;-1.0763;0.4236;-0.2288;
3099589660575781;-1.0933;0.3735;-0.2543;
3099589670682760;-1.0188;0.3064;-0.2607;
3099589680789791;-0.9517;0.3298;-0.2575;
3099589690879947;-0.9229;0.3586;-0.2501;
3099589700986926;-0.9335;0.3650;-0.2522;
3099589711093958;-0.9197;0.3714;-0.2266;
3099589721204791;-0.9058;0.3810;-0.2309;
3099589731311822;-0.9346;0.3895;-0.2458;
3099589741418801;-0.9666;0.3746;-0.2373;
3099589751524062;-1.0614;0.3479;-0.2277;
3099589761631093;-1.1093;0.3160;-0.2533;
3099589771738072;-1.1391;0.2925;-0.2810;
3099589781840624;-1.1956;0.2776;-0.2778;
3099589791947656;-1.2849;0.2446;-0.2714;
3099589802054635;-1.3329;0.2180;-0.2831;
3099589812174166;-1.3244;0.2020;-0.2873;
3099589822281145;-1.3467;0.1850;-0.2980;
3099589832388176;-1.3361;0.1679;-0.3012;
3099589842475624;-1.3126;0.1881;-0.3087;
3099589852582656;-1.2935;0.2031;-0.3055;
3099589862689635;-1.2828;0.2371;-0.3076;
3099589872802083;-1.2871;0.2340;-0.3087;
3099589882909062;-1.2903;0.2595;-0.3161;
3099589893016093;-1.2583;0.2776;-0.3204;
3099589903131249;-1.2446;0.2947;-0.3427;
3099589913238229;-1.1945;0.3117;-0.3545;
3099589923345260;-1.1828;0.3138;-0.3640;
3099589933445729;-1.0955;0.3064;-0.3822;
3099589943552708;-1.0475;0.3128;-0.4045;
3099589953659739;-0.9708;0.3394;-0.4216;
3099589963772864;-0.9485;0.3330;-0.4610;
3099589973879843;-0.9027;0.3266;-0.4695;
3099589983986874;-0.8888;0.3224;-0.4929;
3099589994122708;-0.8462;0.3426;-0.5153;
3099590004229687;-0.8068;0.3511;-0.5515;
3099590014336718;-0.7194;0.3479;-0.5622;
3099590024403645;-0.6375;0.3341;-0.5728;
3099590034510624;-0.4692;0.3756;-0.5643;
3099590044617656;-0.4021;0.3618;-0.5909;
3099590054742708;-0.2359;0.3767;-0.5771;
3099590064849687;-0.1422;0.3575;-0.5664;
3099590074956718;-0.0570;0.3469;-0.5430;
3099590085073124;0.0654;0.3373;-0.5260;
3099590095180104;0.1719;0.3117;-0.4940;
3099590105287135;0.2443;0.2712;-0.4557;
3099590115389270;0.3136;0.2510;-0.4194;
3099590125496249;0.3317;0.2233;-0.3939;
3099590135603281;0.3274;0.2286;-0.3662;
3099590145719166;0.2507;0.1999;-0.3300;
3099590155826197;0.1719;0.1775;-0.2959;
3099590165933176;0.1399;0.1945;-0.2714;
3099590176020833;0.0366;0.1892;-0.2511;
3099590186127812;-0.0634;0.2084;-0.2288;
3099590196234843;-0.1912;0.2063;-0.2053;
3099590206346666;-0.3403;0.2158;-0.1831;
3099590216453645;-0.4618;0.1796;-0.1873;
3099590226560676;-0.5331;0.1871;-0.1586;
3099590236668958;-0.5406;0.1796;-0.1415;
3099590246775937;-0.5545;0.1381;-0.1458;
3099590256882968;-0.6035;0.0977;-0.1511;
3099590266993854;-0.6427;0.0402;-0.1501;
3099590277100833;-0.5981;0.0583;-0.1298;
3099590287207864;-0.5214;0.0562;-0.1479;
3099590297318437;-0.5055;0.0743;-0.1469;
3099590307425416;-0.5683;0.0551;-0.1650;
3099590317532447;-0.6248;0.0168;-0.1586;
3099590327642447;-0.6365;0.0434;-0.1511;
3099590337749426;-0.6035;0.0573;-0.1703;
3099590347856458;-0.6301;0.0605;-0.1724;
3099590357961666;-0.6640;0.0381;-0.1959;
3099590368068645;-0.6194;0.0210;-0.2138;
3099590378175676;-0.5406;0.0913;-0.2064;
3099590388276666;-0.5193;0.1031;-0.2383;
3099590398383645;-0.5204;0.0892;-0.2703;
3099590408490676;-0.4991;0.1391;-0.2969;
3099590418595624;-0.5374;0.1168;-0.3491;
3099590428702604;-0.5694;0.1221;-0.3800;
3099590438809635;-0.5885;0.1381;-0.4205;
3099590448918854;-0.5108;0.0807;-0.4684;
3099590459025833;-0.3137;0.1381;-0.4546;
3099590469132864;-0.3308;0.1700;-0.4525;
3099590479241614;-0.3595;0.1041;-0.4812;
3099590489348593;-0.3627;0.1200;-0.4588;
3099590499455624;-0.5939;0.0668;-0.4631;
3099590509577708;-0.9101;-0.0088;-0.4759;
3099590519684687;-0.9612;0.0487;-0.4461;
3099590529791718;-0.9825;0.0615;-0.3928;
3099590539878645;-0.8281;0.1093;-0.3470;
3099590549985624;-0.5353;0.2201;-0.2628;
3099590560092604;-0.5736;0.1626;-0.2170;
3099590570203854;-0.8078;0.0626;-0.2543;
3099590580310833;-0.8643;0.0775;-0.2607;
3099590590417812;-0.8931;0.0477;-0.2426;
3099590600522864;-0.8984;0.0115;-0.2415;
3099590610629843;-0.7674;0.0381;-0.2447;
3099590620736822;-0.6109;0.0636;-0.2330;
3099590630839999;-0.4596;0.1020;-0.2064;
3099590640946979;-0.3691;0.1210;-0.2043;
3099590651053958;-0.3947;0.0881;-0.2341;
3099590661158333;-0.3904;0.0881;-0.2373;
3099590671265312;-0.4064;0.0711;-0.2277;
3099590681372291;-0.4671;-0.0088;-0.2415;
3099590691479999;-0.3606;0.0019;-0.2597;
3099590701586979;-0.2146;0.0807;-0.2415;
3099590711693958;-0.2040;0.0860;-0.2288;
3099590721808333;-0.2423;0.0626;-0.2245;
3099590731915312;-0.1294;0.1125;-0.2298;
3099590742022291;-0.0442;0.1455;-0.2213;
3099590752131874;-0.1550;0.1104;-0.2096;
3099590762238854;-0.3563;0.0445;-0.2170;
3099590772345833;-0.3744;0.0253;-0.2405;
3099590782452083;-0.3031;0.0668;-0.2405;
3099590792559062;-0.3371;0.0658;-0.2362;
3099590802666041;-0.4383;0.0285;-0.1989;
3099590812760937;-0.3840;0.0647;-0.1937;
3099590822867916;-0.3084;0.0988;-0.2181;
3099590832974895;-0.3616;0.0615;-0.2256;
3099590843094895;-0.3595;0.0700;-0.2075;
3099590853201874;-0.4160;0.0583;-0.2075;
3099590863308854;-0.5715;-0.0099;-0.2458;
3099590873401145;-0.5587;-0.0003;-0.2639;
3099590883508124;-0.4383;0.0360;-0.2479;
3099590893615104;-0.3755;0.0274;-0.2181;
3099590903727291;-0.2881;0.0232;-0.2075;
3099590913834270;-0.2519;0.0519;-0.2320;
3099590923941249;-0.3148;0.0264;-0.2618;
3099590934055260;-0.3254;0.0200;-0.2565;
3099590944162239;-0.3308;0.0210;-0.2256;
3099590954269218;-0.3446;0.0083;-0.2149;
3099590964370937;-0.2796;0.0264;-0.2298;
3099590974477916;-0.2658;0.0445;-0.2469;
3099590984584895;-0.3095;0.0360;-0.2415;
3099590994689999;-0.2903;0.0487;-0.2053;
3099591004796979;-0.3244;0.0306;-0.1842;
3099591014903958;-0.3670;0.0104;-0.2096;
3099591025017187;-0.2892;0.0551;-0.2320;
3099591035124166;-0.3041;0.0583;-0.2383;
3099591045231145;-0.4511;-0.0024;-0.2309;
3099591055348541;-0.4596;0.0019;-0.1979;
3099591065455520;-0.3776;0.0413;-0.1788;
3099591075562499;-0.3489;0.0381;-0.1916;
3099591085662291;-0.3254;0.0455;-0.2043;
3099591095769270;-0.3190;0.0381;-0.1959;
3099591105876249;-0.3297;0.0072;-0.1799;
3099591115978229;-0.3041;-0.0120;-0.1618;
3099591126085208;-0.2402;-0.0130;-0.1522;
3099591136192187;-0.1848;-0.0162;-0.1501;
3099591146296614;-0.1688;-0.0109;-0.1650;
3099591156403593;-0.1550;0.0061;-0.1671;
3099591166510572;-0.1742;0.0093;-0.1533;
3099591176609895;-0.1955;0.0104;-0.1320;
3099591186716874;-0.2104;0.0136;-0.1202;
3099591196823854;-0.2200;0.0168;-0.1256;
3099591206944687;-0.2104;0.0168;-0.1320;
3099591217051666;-0.1912;0.0093;-0.1383;
3099591227158645;-0.1752;0.0040;-0.1479;
3099591237256145;-0.1944;-0.0099;-0.1415;
3099591247363124;-0.2104;-0.0280;-0.1224;
3099591257470104;-0.2083;-0.0450;-0.0979;
3099591267588958;-0.1976;-0.0493;-0.0830;
3099591277695937;-0.1891;-0.0354;-0.0712;
3099591287802916;-0.1859;-0.0173;-0.0670;
3099591297908020;-0.1880;-0.0194;-0.0691;
3099591308014999;-0.1891;-0.0301;-0.0659;
3099591318121979;-0.1891;-0.0258;-0.0553;
3099591328224947;-0.1976;-0.0205;-0.0457;
3099591338331926;-0.1976;-0.0333;-0.0382;
3099591348438906;-0.1688;-0.0365;-0.0318;
3099591358547291;-0.1550;-0.0088;-0.0286;
3099591368654270;-0.1699;-0.0013;-0.0286;
3099591378761249;-0.1710;-0.0173;-0.0308;
3099591388864791;-0.1326;-0.0130;-0.0297;
3099591399002812;-0.1156;-0.0045;-0.0297;
3099591409109791;-0.1177;-0.0109;-0.0329;
3099591419216770;-0.1156;-0.0194;-0.0340;
3099591429292187;-0.0911;-0.0194;-0.0318;
3099591439399166;-0.0273;-0.0035;-0.0212;
3099591449506145;0.0217;0.0019;-0.0063;
3099591459615312;0.0036;-0.0248;0.0001;
3099591469722291;0.0025;-0.0386;0.0012;
3099591479829270;0.0473;-0.0226;0.0097;
3099591489930364;0.0505;-0.0280;0.0129;
3099591500037343;0.0228;-0.0418;0.0129;
3099591510144322;0.0334;-0.0205;0.0172;
3099591520259947;0.0196;-0.0173;0.0214;
3099591530366926;-0.0188;-0.0365;0.0150;
3099591540473906;0.0015;-0.0237;0.0214;
3099591550602812;0.0387;-0.0024;0.0310;
3099591560709791;0.0206;-0.0056;0.0385;
3099591570816770;-0.0314;-0.0173;0.0406;
3099591580899687;-0.0794;-0.0269;0.0364;
3099591591006666;-0.1060;-0.0301;0.0395;
3099591601113645;-0.0996;-0.0322;0.0459;
3099591611220624;-0.0879;-0.0354;0.0513;
3099591621327604;-0.0751;-0.0322;0.0513;
3099591631434583;-0.0570;-0.0397;0.0449;
3099591641566145;-0.0666;-0.0525;0.0459;
3099591651673124;-0.0655;-0.0546;0.0577;
3099591661780104;-0.0708;-0.0535;0.0683;
3099591671886770;-0.0687;-0.0482;0.0736;
3099591681993749;-0.0559;-0.0386;0.0779;
3099591692100729;-0.0549;-0.0290;0.0736;
3099591702179687;-0.0591;-0.0333;0.0704;
3099591712286666;-0.0495;-0.0365;0.0704;
3099591722393645;-0.0421;-0.0344;0.0672;
3099591732523645;-0.0294;-0.0322;0.0609;
3099591742630624;-0.0017;-0.0226;0.0587;
3099591752737604;0.0238;-0.0120;0.0598;
3099591762810104;0.0409;-0.0130;0.0598;
3099591772917083;0.0569;-0.0077;0.0545;
3099591783024062;0.0569;-0.0152;0.0491;
3099591793146822;0.0281;-0.0344;0.0449;
3099591803253801;0.0238;-0.0333;0.0385;
3099591813360781;0.0366;-0.0194;0.0342;
3099591823468958;0.0324;-0.0141;0.0342;
3099591833575937;0.0185;-0.0045;0.0342;
3099591843682916;0.0015;-0.0024;0.0374;
3099591853789114;-0.0284;-0.0077;0.0417;
3099591863896093;-0.0442;-0.0120;0.0449;
3099591874003072;-0.0474;-0.0184;0.0438;
3099591884103124;-0.0570;-0.0162;0.0438;
3099591894210104;-0.0527;-0.0120;0.0438;
3099591904317083;-0.0368;-0.0109;0.0438;
3099591914436874;-0.0273;-0.0184;0.0459;
3099591924543854;-0.0145;-0.0237;0.0449;
3099591934650833;-0.0092;-0.0248;0.0449;
3099591944760364;-0.0103;-0.0280;0.0417;
3099591954867343;0.0057;-0.0237;0.0406;
3099591964974322;0.0270;-0.0152;0.0385;
3099591975075781;0.0313;-0.0162;0.0332;
3099591985182760;0.0419;-0.0152;0.0289;
3099591995289739;0.0569;-0.0184;0.0246;
3099592005401197;0.0643;-0.0226;0.0214;
3099592015508176;0.0877;-0.0226;0.0172;
3099592025615156;0.1208;-0.0173;0.0129;
3099592035748541;0.1474;-0.0152;0.0119;
3099592045855520;0.1644;-0.0141;0.0108;
3099592055962499;0.1644;-0.0162;0.0076;
3099592066052604;0.1485;-0.0173;-0.0009;
3099592076159583;0.1261;-0.0152;-0.0084;
3099592086266562;0.1048;-0.0141;-0.0158;
3099592096359114;0.0888;-0.0088;-0.0233;
3099592106466093;0.0814;-0.0013;-0.0297;
3099592116573072;0.0611;0.0008;-0.0350;
3099592126681822;0.0292;0.0029;-0.0435;
3099592136788801;-0.0060;0.0019;-0.0510;
3099592146895781;-0.0305;-0.0024;-0.0595;
3099592157025781;-0.0198;-0.0003;-0.0627;
3099592167132760;-0.0134;0.0029;-0.0627;
3099592177239739;-0.0113;0.0040;-0.0627;
3099592187322291;-0.0092;0.0040;-0.0670;
3099592197429270;-0.0028;0.0061;-0.0702;
3099592207536249;0.0015;0.0040;-0.0680;
3099592217643020;0.0079;0.0029;-0.0595;
3099592227749999;0.0142;0.0029;-0.0574;
3099592237856979;0.0153;-0.0003;-0.0627;
3099592247968906;0.0142;0.0019;-0.0638;
3099592258075885;0.0164;0.0061;-0.0617;
3099592268182864;0.0079;0.0093;-0.0595;
3099592278301093;-0.0028;0.0040;-0.0617;
3099592288408072;-0.0081;0.0008;-0.0638;
3099592298515051;-0.0092;-0.0013;-0.0648;
3099592308610833;-0.0028;-0.0024;-0.0638;
3099592318717812;0.0174;-0.0003;-0.0627;
3099592328824791;0.0419;0.0008;-0.0606;
3099592338931979;0.0707;0.0019;-0.0585;
3099592349038958;0.0963;0.0029;-0.0542;
3099592359145937;0.1208;0.0040;-0.0531;
3099592369246874;0.1399;0.0040;-0.0553;
3099592379353854;0.1399;0.0008;-0.0542;
3099592389460833;0.1261;-0.0077;-0.0563;
3099592399574843;0.1133;-0.0099;-0.0606;
3099592409681822;0.1016;-0.0056;-0.0595;
3099592419788801;0.0814;-0.0035;-0.0563;
3099592429899791;0.0505;-0.0024;-0.0563;
3099592440006770;0.0111;-0.0035;-0.0563;
3099592450113749;-0.0294;-0.0035;-0.0585;
3099592460218541;-0.0474;-0.0013;-0.0521;
3099592470325520;-0.0421;0.0008;-0.0393;
3099592480432499;-0.0463;-0.0035;-0.0308;
3099592490539166;-0.0506;-0.0056;-0.0254;
3099592500646145;-0.0527;-0.0056;-0.0244;
3099592510753124;-0.0527;-0.0067;-0.0233;
3099592520870729;-0.0538;-0.0077;-0.0169;
3099592530977708;-0.0559;-0.0077;-0.0105;
3099592541084687;-0.0581;-0.0130;-0.0041;
3099592551185729;-0.0602;-0.0152;-0.0020;
3099592561292656;-0.0623;-0.0205;0.0012;
3099592571399687;-0.0623;-0.0226;0.0044;
3099592581506458;-0.0634;-0.0173;0.0065;
3099592591613437;-0.0623;-0.0120;0.0076;
3099592601720416;-0.0634;-0.0099;0.0087;
3099592611824374;-0.0613;-0.0120;0.0097;
3099592621931354;-0.0570;-0.0109;0.0097;
3099592632038333;-0.0623;-0.0130;0.0076;
3099592642118229;-0.0762;-0.0216;0.0076;
3099592652225156;-0.0730;-0.0269;0.0076;
3099592662332187;-0.0666;-0.0237;0.0140;
3099592672455520;-0.0581;-0.0130;0.0150;
3099592682562447;-0.0559;-0.0077;0.0140;
3099592692669426;-0.0762;-0.0067;0.0129;
3099592702773333;-0.0975;-0.0077;0.0119;
3099592712880312;-0.0932;-0.0056;0.0076;
3099592722987291;-0.0921;-0.0067;0.0001;
3099592733118541;-0.0911;-0.0130;0.0023;
3099592743225520;-0.0889;-0.0184;0.0108;
3099592753332499;-0.0964;-0.0248;0.0172;
3099592763442760;-0.0794;-0.0226;0.0278;
3099592773549739;-0.0389;-0.0173;0.0289;
3099592783656718;-0.0325;-0.0141;0.0332;
3099592793794791;-0.0442;-0.0152;0.0449;
3099592803901770;-0.0826;-0.0226;0.0459;
3099592814008749;-0.1113;-0.0205;0.0427;
3099592824070833;-0.1166;-0.0120;0.0470;
3099592834177812;-0.1294;-0.0194;0.0534;
3099592844284791;-0.1188;-0.0226;0.0577;
3099592854391145;-0.1198;-0.0130;0.0545;
3099592864498124;-0.1294;-0.0077;0.0470;
3099592874605104;-0.1294;-0.0013;0.0417;
3099592884713020;-0.1230;-0.0024;0.0427;
3099592894819999;-0.1188;-0.0077;0.0459;
3099592904926979;-0.1177;-0.0109;0.0470;
3099592915031145;-0.1198;-0.0194;0.0481;
3099592925138124;-0.1071;-0.0194;0.0449;
3099592935245104;-0.0794;-0.0109;0.0427;
3099592945356874;-0.0836;-0.0173;0.0300;
3099592955463854;-0.1060;-0.0258;0.0236;
3099592965570833;-0.0985;-0.0173;0.0225;
3099592975675624;-0.0762;-0.0056;0.0161;
3099592985782604;-0.0740;0.0029;0.0108;
3099592995889583;-0.0804;0.0061;-0.0020;
3099593005998697;-0.0889;0.0051;-0.0126;
3099593016105676;-0.0879;0.0051;-0.0201;
3099593026212656;-0.0794;0.0061;-0.0158;
3099593036312395;-0.0570;0.0061;-0.0137;
3099593046419374;-0.0230;0.0146;-0.0180;
3099593056526354;-0.0145;0.0146;-0.0212;
3099593066651249;-0.0378;-0.0013;-0.0201;
3099593076758229;-0.0294;-0.0035;-0.0148;
3099593086865208;0.0174;0.0029;-0.0073;
3099593096960572;0.0739;0.0104;0.0001;
3099593107067551;0.1208;0.0200;0.0108;
3099593117174531;0.1016;0.0061;0.0214;
3099593127291249;0.0270;-0.0216;0.0300;
3099593137398229;-0.0060;-0.0290;0.0385;
3099593147505208;0.0111;-0.0173;0.0502;
3099593157611145;0.0196;-0.0067;0.0640;
3099593167718124;-0.0230;-0.0099;0.0715;
3099593177825051;-0.0708;-0.0056;0.0672;
3099593187923541;-0.1007;0.0083;0.0555;
3099593198030520;-0.1443;0.0083;0.0395;
3099593208137447;-0.1539;0.0040;0.0342;
3099593218246770;-0.1294;-0.0003;0.0427;
3099593228353749;-0.1220;-0.0173;0.0406;
3099593238460676;-0.1177;-0.0194;0.0321;
3099593248560416;-0.1252;-0.0088;0.0193;
3099593258667343;-0.1369;-0.0067;0.0076;
3099593268774322;-0.1273;-0.0035;-0.0020;
3099593278886666;-0.1145;0.0200;-0.0116;
3099593288993645;-0.1230;0.0349;-0.0222;
3099593299100572;-0.1379;0.0296;-0.0276;
3099593309216874;-0.1209;0.0210;-0.0244;
3099593319323854;-0.1113;0.0072;-0.0201;
3099593329430781;-0.1113;-0.0035;-0.0254;
3099593339532604;-0.1134;-0.0088;-0.0286;
3099593349639583;-0.1134;-0.0120;-0.0254;
3099593359746510;-0.1166;-0.0077;-0.0286;
3099593369854895;-0.1262;0.0051;-0.0393;
3099593379961874;-0.1316;0.0146;-0.0446;
3099593390068801;-0.1337;0.0093;-0.0446;
3099593400168020;-0.1529;-0.0088;-0.0425;
3099593410274999;-0.1390;-0.0099;-0.0382;
3099593420381926;-0.1039;0.0029;-0.0318;
3099593430497916;-0.1060;-0.0024;-0.0340;
3099593440604895;-0.1081;-0.0013;-0.0350;
3099593450711822;-0.1113;0.0115;-0.0361;
3099593460813854;-0.1294;0.0200;-0.0414;
3099593470920833;-0.1316;0.0189;-0.0510;
3099593481027760;-0.1316;0.0178;-0.0553;
3099593491135520;-0.1411;0.0093;-0.0553;
3099593501242499;-0.1433;-0.0024;-0.0499;
3099593511349426;-0.1177;-0.0067;-0.0467;
3099593521475416;-0.0889;0.0008;-0.0478;
3099593531582395;-0.1028;0.0008;-0.0531;
3099593541689322;-0.1049;-0.0013;-0.0606;
3099593551774895;-0.1028;0.0040;-0.0648;
3099593561881874;-0.1092;0.0136;-0.0808;
3099593571988801;-0.1134;0.0274;-0.0872;
3099593582102708;-0.1092;0.0338;-0.0915;
3099593592209687;-0.1007;0.0157;-0.0925;
3099593602316614;-0.0794;0.0072;-0.0925;
3099593612435416;-0.0868;0.0146;-0.0936;
3099593622542395;-0.1017;0.0083;-0.1011;
3099593632649322;-0.0932;0.0051;-0.1032;
3099593642738645;-0.0943;0.0029;-0.1043;
3099593652845624;-0.0943;0.0061;-0.1138;
3099593662952551;-0.0900;0.0210;-0.1234;
3099593673096562;-0.0900;0.0338;-0.1277;
3099593683203541;-0.0985;0.0253;-0.1213;
3099593693310468;-0.0815;0.0178;-0.1128;
3099593703379999;-0.0740;0.0189;-0.1117;
3099593713486979;-0.0751;0.0274;-0.1192;
3099593723593906;-0.0889;0.0168;-0.1224;
3099593733724062;-0.0740;0.0125;-0.1245;
3099593743831041;-0.0346;0.0445;-0.1277;
3099593753937968;-0.0241;0.0668;-0.1341;
3099593764024895;-0.1124;0.0264;-0.1490;
3099593774131874;-0.1103;0.0104;-0.1522;
3099593784238801;-0.0826;0.0146;-0.1447;
3099593794353645;-0.0879;-0.0003;-0.1479;
3099593804460624;-0.0634;0.0136;-0.1458;
3099593814567551;-0.0698;0.0423;-0.1511;
3099593824689479;-0.0826;0.0498;-0.1543;
3099593834796458;-0.0889;0.0381;-0.1511;
3099593844903385;-0.0879;0.0264;-0.1597;
3099593854994270;-0.0921;0.0189;-0.1746;
3099593865101249;-0.0964;0.0072;-0.1842;
3099593875208176;-0.0900;-0.0067;-0.1778;
3099593885323229;-0.0698;-0.0099;-0.1735;
3099593895430208;-0.0527;0.0104;-0.1714;
3099593905537135;-0.0357;0.0338;-0.1714;
3099593915636666;-0.0602;0.0381;-0.1682;
3099593925743645;-0.0953;0.0317;-0.1660;
3099593935850572;-0.0868;0.0381;-0.1650;
3099593945956197;-0.1103;0.0264;-0.1522;
3099593956063176;-0.1220;0.0051;-0.1415;
3099593966170104;-0.1198;-0.0024;-0.1245;
3099593976281458;-0.0953;0.0104;-0.1075;
