Sensor: bmi160 Accelerometer Non-wakeup
Vendor: BOSCH
TimestampAcc [ns]; AccX [m/s^2]; AccY [m/s^2]; AccZ [m/s^2]
415359188129177;-9.4406;1.1728;-2.3327;
415359198265062;-9.4406;1.1991;-2.3710;
415359208403604;-9.4334;1.2111;-2.3157;
415359218517719;-9.4502;1.1919;-2.2822;
415359228606000;-9.4549;1.1919;-2.2678;
415359238742719;-9.4382;1.1824;-2.2726;
415359248831000;-9.4310;1.1560;-2.2558;
415359258974229;-9.4358;1.1871;-2.2295;
415359269067146;-9.4502;1.1967;-2.2343;
415359279180167;-9.4645;1.2302;-2.2415;
415359289266469;-9.4478;1.2278;-2.2247;
415359299387562;-9.4621;1.2350;-2.2319;
415359309486833;-9.4214;1.2613;-2.2367;
415359319580948;-9.4262;1.2637;-2.1936;
415359329700687;-9.4621;1.2637;-2.1793;
415359339791104;-9.4741;1.2637;-2.1458;
415359349903031;-9.4908;1.2565;-2.1410;
415359360006365;-9.4669;1.2470;-2.1697;
415359370107302;-9.4454;1.2661;-2.1936;
415359380217198;-9.4454;1.2832;-2.1888;
415359390308865;-9.4262;1.2975;-2.1888;
415359400412198;-9.4908;1.2879;-2.1793;
415359410536000;-9.4932;1.2685;-2.1960;
415359420631781;-9.4621;1.2470;-2.1984;
415359430723760;-9.4621;1.2446;-2.2080;
415359440832094;-9.4262;1.2685;-2.2343;
415359450935323;-9.4262;1.2927;-2.2175;
415359461041052;-9.4525;1.2879;-2.2463;
415359471148031;-9.4214;1.2951;-2.2893;
415359481242927;-9.4454;1.2879;-2.2750;
415359491350740;-9.4693;1.2927;-2.2678;
415359501449073;-9.4454;1.2709;-2.2439;
415359511549646;-9.4454;1.2565;-2.2606;
415359521668031;-9.4286;1.2374;-2.2941;
415359531770531;-9.4238;1.2398;-2.3133;
415359541887823;-9.4382;1.2613;-2.3710;
415359551972198;-9.3999;1.2709;-2.3830;
415359562076000;-9.4238;1.2879;-2.3830;
415359572188500;-9.4741;1.3573;-2.3109;
415359582301156;-9.4645;1.4124;-2.2080;
415359592408448;-9.4095;1.4387;-2.1434;
415359602499281;-9.3855;1.4435;-2.2104;
415359612594594;-9.3999;1.3932;-2.2869;
415359622702510;-9.4837;1.3549;-2.3252;
415359632811677;-9.5195;1.2927;-2.3109;
415359642919281;-9.5052;1.2517;-2.2558;
415359653018656;-9.4454;1.2685;-2.1338;
415359663127615;-9.4095;1.2808;-2.0330;
415359673232510;-9.4167;1.3071;-2.1697;
415359683329594;-9.4167;1.3023;-2.2654;
415359693443552;-9.4789;1.2446;-2.2630;
415359703542094;-9.4860;1.1704;-2.2534;
415359713632562;-9.4286;1.0531;-2.2223;
415359723741729;-9.4119;0.9787;-2.2534;
415359733849750;-9.4262;0.9332;-2.3686;
415359743951260;-9.4980;0.8973;-2.4045;
415359754055948;-9.5653;0.9619;-2.3228;
415359764158135;-9.5892;1.0340;-2.1482;
415359774278344;-9.5267;1.1608;-2.0354;
415359784390375;-9.4502;1.2832;-2.0306;
415359794474698;-9.4478;1.3262;-2.1242;
415359804585167;-9.4860;1.3358;-2.1984;
415359814692458;-9.4549;1.2685;-2.2654;
415359824794646;-9.4214;1.2039;-2.3037;
415359834899958;-9.4119;1.1130;-2.3109;
415359845020479;-9.4549;1.0101;-2.2391;
415359855097667;-9.5366;0.9595;-2.1529;
415359865191521;-9.5821;0.9452;-2.1266;
415359875349594;-9.5366;0.9619;-2.1721;
415359885403292;-9.5004;0.9643;-2.2104;
415359895509177;-9.4860;0.9930;-2.2702;
415359905627094;-9.5004;1.1106;-2.3399;
415359915718656;-9.4765;1.2326;-2.4021;
415359925848292;-9.4669;1.3334;-2.4117;
415359935957771;-9.4310;1.4291;-2.3614;
415359946056625;-9.4190;1.4602;-2.2750;
415359956142250;-9.4789;1.4195;-2.1529;
415359966275479;-9.4980;1.2760;-2.1194;
415359976355844;-9.5749;1.1369;-1.9397;
415359986459281;-9.5964;1.1010;-1.8703;
415359996561677;-9.5438;1.3095;-2.0426;
415360006671573;-9.4023;1.6687;-2.3399;
415360016765427;-9.3449;1.9274;-2.5624;
415360026880948;-9.3329;1.6783;-2.6010;
415360036979906;-9.5486;1.1441;-2.1027;
415360047085844;-9.7280;0.5070;-1.6690;
415360057187198;-9.6443;0.1666;-1.6570;
415360067299802;-9.5892;0.4134;-1.8631;
415360077426521;-9.5315;0.6912;-2.0593;
415360087502667;-9.5629;0.9332;-2.2415;
415360097623240;-9.5315;1.0220;-2.3228;
415360107715531;-9.4789;1.0866;-2.2654;
415360117829802;-9.4478;1.1321;-2.0716;
415360127910583;-9.4095;1.4578;-1.9301;
415360138013865;-9.3640;1.6663;-2.1218;
415360148135219;-9.4717;1.6304;-2.0498;
415360158240219;-9.4645;1.4554;-1.8870;
415360168344385;-9.5100;1.3286;-1.6762;
415360178434958;-9.5773;1.2039;-1.5805;
415360188546000;-9.5438;1.1345;-1.6092;
415360198658240;-9.4262;1.7046;-2.1529;
415360208763292;-9.3425;1.9729;-2.2510;
415360218859490;-9.4143;1.8796;-2.0668;
415360228964073;-9.4789;1.5105;-2.0091;
415360239068656;-9.4095;1.7740;-2.2439;
415360249170323;-9.3855;1.0316;-1.5446;
415360259274750;-9.5366;2.3273;-2.6034;
415360269386885;-9.2345;1.5754;-1.9014;
415360279485740;-9.3114;1.4602;-2.1840;
415360289592823;-9.4238;1.9274;-2.8020;
415360299697406;-9.2707;1.3597;-1.8559;
415360309800531;-9.3975;1.4650;-1.6403;
415360319914073;-9.4621;1.7501;-3.1950;
415360330009021;-9.1699;1.5320;-3.0224;
415360340123865;-9.2731;1.4626;-2.4045;
415360350219177;-9.5462;1.1417;-2.6249;
415360360323760;-9.4932;0.8423;-2.5986;
415360370433917;-9.3281;0.6123;-1.6857;
415360380550115;-9.3473;0.6505;-2.6776;
415360390635948;-9.5725;0.7056;-3.3218;
415360400735948;-9.3999;0.6601;-2.8164;
415360410825740;-9.1962;1.0699;-3.2213;
415360420954490;-9.5172;0.8877;-2.5696;
415360431051260;-9.5845;1.1895;-2.5935;
415360441157250;-9.3209;1.1560;-1.6738;
415360451267406;-9.3090;1.4363;-2.1170;
415360461365740;-9.5964;1.7548;-2.6776;
415360471468240;-9.2178;1.6854;-2.2295;
415360481573656;-9.3329;1.6496;-2.3973;
415360491676990;-9.4980;1.8843;-2.8860;
415360501779333;-9.1173;2.1287;-0.7851;
415360511885323;-9.2010;2.4808;-2.0716;
415360521998135;-9.5267;2.4329;-2.5600;
415360532100323;-9.1819;2.4162;-1.9469;
415360542180479;-9.3808;2.7036;-1.9349;
415360552307927;-9.4119;2.8591;-1.8296;
415360562401833;-8.9423;2.6988;-1.2233;
415360572513969;-9.0239;2.9838;-1.5446;
415360582626677;-9.3808;3.2306;-1.9684;
415360592719802;-9.4454;3.3072;-1.8894;
415360602824698;-9.2946;3.3742;-1.7886;
415360612937510;-9.0526;3.5539;-1.5900;
415360623040427;-8.9614;3.8749;-1.5733;
415360633133240;-9.0957;3.9443;-1.5589;
415360643230844;-9.4765;3.5228;-1.6044;
415360653347302;-9.6347;3.0724;-1.8368;
415360663448760;-9.2779;2.8615;-1.9205;
415360673549490;-8.9925;2.5549;-1.7647;
415360683657406;-9.2779;2.2842;-1.8416;
415360693766000;-9.5100;2.0833;-2.0067;
415360703859906;-9.3544;1.9801;-2.1027;
415360713962667;-9.3257;2.0976;-2.4236;
415360724068135;-9.2608;2.0785;-2.3133;
415360734185167;-9.2489;1.8987;-1.8990;
415360744292250;-9.4478;1.8461;-1.7910;
415360754406469;-9.5315;1.9035;-1.8511;
415360764492250;-9.5004;1.9537;-1.8033;
415360774575687;-9.5510;2.1024;-1.8033;
415360784688760;-9.4454;2.3417;-1.7719;
415360794802979;-9.2441;2.5310;-1.7288;
415360804930531;-9.1914;2.7706;-1.8057;
415360815042302;-9.1890;2.8567;-1.7647;
415360825109333;-9.3257;2.7993;-1.5900;
415360835228083;-9.4621;2.7778;-1.4533;
415360845340010;-9.4454;2.7802;-1.4294;
415360855427458;-9.3927;2.7969;-1.4557;
415360865538448;-9.2898;2.8304;-1.4988;
415360875635115;-9.1866;2.9216;-1.5733;
415360885761833;-9.2441;3.1155;-1.5470;
415360895847510;-9.4286;3.2043;-1.4438;
415360905949385;-9.4406;3.0724;-1.3720;
415360916062719;-9.4525;2.9982;-1.5036;
415360926144802;-9.3784;2.9121;-1.6666;
415360936261677;-9.2731;2.6052;-1.6020;
415360946389229;-9.3520;2.3492;-1.6068;
415360956468031;-9.4932;2.2651;-1.6068;
415360966582615;-9.3927;2.3444;-1.5661;
415360976686260;-9.2608;2.4497;-1.7408;
415360986788448;-9.2201;2.5143;-1.9229;
415360996891781;-9.3018;2.3874;-1.8631;
415361006994281;-9.4908;2.0686;-1.7838;
415361017102927;-9.5868;1.8269;-1.8105;
415361027205844;-9.4502;1.7501;-1.9540;
415361037309281;-9.3090;1.6448;-2.0306;
415361047414594;-9.2874;1.6304;-2.1242;
415361057514750;-9.4238;1.5586;-2.1745;
415361067629177;-9.5940;1.4818;-2.0788;
415361077726573;-9.6227;1.4578;-1.9205;
415361087805271;-9.4956;1.5873;-1.9397;
415361097934073;-9.3449;1.7070;-2.0067;
415361108035948;-9.3377;1.5921;-1.9660;
415361118141052;-9.4956;1.4411;-1.9780;
415361128254073;-9.5677;1.4219;-2.0258;
415361138356156;-9.4525;1.4626;-2.0569;
415361148455219;-9.3425;1.5491;-2.1362;
415361158556781;-9.3927;1.5658;-2.1721;
415361168660167;-9.4597;1.5634;-2.0378;
415361178769594;-9.5172;1.6352;-1.9732;
415361188880844;-9.5653;1.7046;-1.9253;
415361198971156;-9.4813;1.7285;-1.8966;
415361209112198;-9.3664;1.7644;-1.9445;
415361219176990;-9.3042;1.7644;-2.0668;
415361229290219;-9.3784;1.5921;-2.1577;
415361239389802;-9.5653;1.2206;-2.1482;
415361249499281;-9.6156;0.8830;-2.1769;
415361259602719;-9.5243;0.6697;-2.2343;
415361269711833;-9.4693;0.6027;-2.3925;
415361279811677;-9.4765;0.5166;-2.4643;
415361289916833;-9.5366;0.5022;-2.4954;
415361300021833;-9.5557;0.7319;-2.4882;
415361310124594;-9.4525;1.1728;-2.4619;
415361320221937;-9.3401;1.5682;-2.2487;
415361330337302;-9.2755;1.9801;-1.9469;
415361340456260;-9.2154;2.7730;-1.8129;
415361350546573;-9.7663;2.7730;-1.5398;
415361360651469;-10.0681;2.2627;-1.3457;
415361370752510;-9.7256;1.9059;-1.6331;
415361380863448;-9.1125;1.6017;-2.1936;
415361390960115;-8.8202;1.4315;-2.4165;
415361401065740;-9.2249;1.1632;-2.2008;
415361411166417;-9.7232;1.0026;-1.9588;
415361421267979;-9.6395;1.3717;-2.1960;
415361431375635;-9.1436;1.9801;-2.4691;
415361441479385;-8.9662;2.5908;-2.5624;
415361451593917;-9.5749;2.4855;-2.3109;
415361461693865;-10.0298;1.5706;-1.2882;
415361471796990;-9.6586;1.4794;-1.4821;
415361481903083;-9.1053;1.7788;-2.3542;
415361492004177;-9.0168;1.6256;-2.4930;
415361502110427;-9.4095;1.5009;-2.3734;
415361512210844;-9.8360;1.3669;-2.0593;
415361522322406;-9.7974;1.5368;-1.7192;
415361532430167;-9.3018;1.7046;-1.7025;
415361542535375;-9.0359;1.9035;-1.9732;
415361552639281;-9.1436;2.0207;-2.3085;
415361562728865;-9.4860;2.0447;-2.2463;
415361572840115;-9.5940;2.0207;-2.0402;
415361582967302;-9.4382;2.0471;-2.0668;
415361593070427;-9.4023;1.8150;-1.6164;
415361603146469;-9.2297;1.9896;-1.5805;
415361613259281;-9.2898;2.4114;-2.2343;
415361623347146;-9.3999;2.3827;-2.1769;
415361633464177;-9.3832;2.6390;-2.0378;
415361643561990;-9.3329;2.6342;-1.7288;
415361653671469;-9.2273;2.3321;-1.3696;
415361663766365;-9.4358;1.9466;-1.3433;
415361673874646;-9.7831;1.5105;-1.6044;
415361683975427;-9.8049;1.4124;-1.9349;
415361694076260;-9.6299;1.7548;-2.3423;
415361704189073;-9.4310;1.7285;-2.1984;
415361714289854;-9.3449;1.7213;-1.9588;
415361724390740;-9.3138;1.6926;-1.8105;
415361734505427;-9.2779;1.9035;-1.8392;
415361744606260;-9.3257;2.1885;-1.8392;
415361754707094;-9.3162;2.4377;-1.7767;
415361764815062;-9.3329;2.4616;-1.7743;
415361774915844;-9.3497;2.4855;-1.7838;
415361784999125;-9.3688;2.3468;-1.7073;
415361795100010;-9.4765;2.1598;-1.7097;
415361805200792;-9.5557;2.1431;-1.7145;
415361815331885;-9.5028;2.1814;-1.6881;
415361825432719;-9.4167;2.2723;-1.7097;
415361835533552;-9.3784;2.4544;-1.8129;
415361845648448;-9.3879;2.4042;-1.7791;
415361855749333;-9.6132;2.3010;-1.7240;
415361865850167;-9.3951;1.9753;-1.7049;
415361875984750;-8.8753;2.4401;-2.0402;
415361886085531;-9.2417;2.0638;-2.2223;
415361896186365;-9.6491;1.6161;-2.0115;
415361906286312;-9.7232;1.7692;-1.9301;
415361916387146;-9.6706;1.7812;-2.0740;
415361926487979;-9.1292;1.9155;-2.0354;
415361936596417;-8.9040;2.1431;-1.9181;
415361946697250;-9.3616;2.0375;-2.0788;
415361956798083;-9.6969;1.8532;-2.3925;
415361966913604;-9.5366;1.7070;-2.5911;
415361977014437;-9.2489;1.9202;-2.8044;
415361987115271;-9.0766;1.9705;-2.6967;
415361997226937;-9.1603;1.8078;-2.4069;
415362007327771;-9.4238;1.6687;-2.0812;
415362017428604;-9.6682;1.7931;-1.8942;
415362027538604;-9.6371;2.0785;-1.9229;
415362037639437;-9.4454;2.1957;-1.9134;
415362047740271;-9.3066;2.0976;-1.8942;
415362057853604;-9.2874;1.9920;-1.9732;
415362067954437;-9.1890;1.9107;-2.1218;
415362078055271;-9.3329;1.8772;-2.2678;
415362088165062;-9.5845;1.5754;-2.1673;
415362098265844;-9.6108;1.4267;-1.8751;
415362108366677;-9.5291;1.5634;-2.0740;
415362118470062;-9.4502;1.5296;-2.4691;
415362128570896;-9.3879;1.0938;-2.6895;
415362138671729;-9.5028;0.5644;-2.7685;
415362148793812;-9.6060;0.2243;-2.8259;
415362158894646;-9.5267;0.1786;-2.7087;
415362168995479;-9.5510;0.3344;-2.5313;
415362179096312;-9.6323;0.3535;-2.2104;
415362189197146;-9.6634;0.2841;-1.9588;
415362199297979;-9.6036;0.4636;-1.9923;
415362209403500;-9.5291;0.7394;-1.9684;
415362219504333;-9.2755;1.1489;-2.3180;
415362229605167;-9.0263;1.9035;-2.6776;
415362239723500;-9.0000;2.7132;-2.5002;
415362249824333;-9.2417;3.0150;-1.7169;
415362259925167;-9.6706;3.0891;-0.8282;
415362270037771;-9.7926;3.2737;-0.5408;
415362280138604;-9.5629;3.3885;-0.9742;
415362290239437;-9.5462;3.2952;-1.7121;
415362300349021;-9.6203;2.9599;-1.9277;
415362310449854;-9.4406;2.4760;-1.9205;
415362320550687;-9.1460;2.0351;-2.1051;
415362330671729;-8.9830;1.6137;-1.9875;
415362340772562;-9.0287;1.4889;-1.7719;
415362350873396;-9.4382;1.7477;-1.7360;
415362360977667;-9.7807;1.8748;-1.8057;
415362371078500;-9.6897;1.9442;-1.8583;
415362381179333;-9.4286;2.0303;-2.0354;
415362391299125;-9.2154;1.9777;-2.1123;
415362401399958;-9.2417;1.8963;-2.0378;
415362411500792;-9.5219;1.6663;-1.9756;
415362421604333;-9.6610;1.4794;-1.9349;
415362431705167;-9.6012;1.5129;-2.0716;
415362441806000;-9.4406;1.5057;-2.1984;
415362451912146;-9.3712;1.2784;-2.1314;
415362462012979;-9.5725;1.0292;-2.1147;
415362472113812;-9.6754;0.8734;-2.2128;
415362482232771;-9.5219;1.0866;-2.4667;
415362492333604;-9.4143;1.3525;-2.6082;
415362502434437;-9.2946;1.4794;-2.3806;
415362512540062;-9.2656;1.6280;-2.1577;
415362522640896;-9.4095;1.6328;-1.9947;
415362532741729;-9.6060;1.5105;-1.7647;
415362542869229;-9.6299;1.5921;-1.6977;
415362552970062;-9.4813;1.9298;-1.8440;
415362563070896;-9.3736;2.0160;-1.9373;
415362573165271;-9.4286;1.8293;-1.8846;
415362583266104;-9.6108;1.4674;-1.7934;
415362593366885;-9.5749;1.4722;-1.7240;
415362603488187;-9.2779;2.1191;-1.9708;
415362613589021;-9.0072;2.7610;-2.0883;
415362623689854;-9.0790;2.8232;-1.8703;
415362633797042;-9.3927;2.7610;-1.6044;
415362643897875;-9.4789;3.0365;-1.4079;
415362653998708;-9.3305;3.3215;-1.3026;
415362664107615;-9.3233;3.4101;-1.4390;
415362674208500;-9.2827;3.3096;-1.5132;
415362684309333;-9.2632;3.1131;-1.5422;
415362694410844;-9.3257;2.7610;-1.6044;
415362704511677;-9.4621;2.5023;-1.6594;
415362714612510;-9.5028;2.3563;-1.7121;
415362724730167;-9.4286;2.3345;-1.8200;
415362734830948;-9.4430;2.2005;-1.9756;
415362744931781;-9.4358;1.9920;-2.0378;
415362755042250;-9.4214;1.7979;-1.9469;
415362765143031;-9.3832;1.6759;-1.8870;
415362775243917;-9.3233;1.5634;-1.9229;
415362785343187;-9.3640;1.4171;-2.0668;
415362795444073;-9.5172;1.1489;-2.2295;
415362805544854;-9.6969;0.8877;-2.2893;
415362815665479;-9.7137;0.7513;-2.2630;
415362825766312;-9.5172;0.7633;-2.1553;
415362835867146;-9.3018;0.8830;-2.0569;
415362845973917;-9.2874;0.9595;-1.9325;
415362856074750;-9.5390;0.9476;-1.8966;
415362866175583;-9.7639;1.0388;-2.0067;
415362876299333;-9.8456;1.2637;-2.3228;
415362886400167;-9.7184;1.1369;-2.2175;
415362896500948;-9.5052;1.0771;-2.1697;
415362906625062;-9.3066;1.2015;-2.1410;
415362916725896;-9.2731;1.3597;-2.0716;
415362926826729;-9.3209;1.7070;-1.9397;
415362936935792;-9.3688;2.1550;-1.7695;
415362947036625;-9.5052;2.4975;-1.6642;
415362957137458;-9.5773;2.6749;-1.4031;
415362967245271;-9.4813;2.8615;-1.2520;
415362977346104;-9.3401;3.0389;-1.4725;
415362987446937;-9.2707;3.0030;-1.9397;
415362997553396;-9.3544;2.5478;-2.1673;
415363007654229;-9.4406;2.0638;-2.0931;
415363017755062;-9.3903;1.7668;-2.0186;
415363027879229;-9.3233;1.5849;-1.9277;
415363037980062;-9.4286;1.5224;-1.9851;
415363048080896;-9.5725;1.5849;-2.2582;
415363058178500;-9.5267;1.7285;-2.5504;
415363068279333;-9.4023;1.8700;-2.5816;
415363078380167;-9.3664;1.9968;-2.4906;
415363088450219;-9.3449;1.9872;-2.4452;
415363098551052;-9.3879;1.9466;-2.5217;
415363108651885;-9.4023;1.7285;-2.5648;
415363118808187;-9.2369;1.5320;-2.0668;
415363128909021;-9.1268;2.0183;-1.7599;
415363139009854;-9.4621;2.2484;-1.4533;
415363149125375;-9.9054;1.8269;-1.0295;
415363159226208;-9.9245;1.6448;-1.1683;
415363169327042;-9.4717;2.0327;-2.0186;
415363179434021;-9.0407;2.0734;-2.3085;
415363189534854;-9.0144;1.8078;-1.9660;
415363199635687;-9.3185;1.6232;-1.9756;
415363209776104;-9.5940;1.4387;-2.0788;
415363219876885;-9.5868;1.4339;-2.0668;
415363229977719;-9.5004;1.6807;-2.1314;
415363240061937;-9.5172;1.9035;-1.9899;
415363250162771;-9.7974;1.6759;-1.7671;
415363260263604;-9.5988;1.7189;-1.6594;
415363270378500;-9.1340;2.3587;-1.9875;
415363280479333;-9.0120;2.6127;-2.1984;
415363290580167;-9.1388;2.2579;-1.8894;
415363300696312;-9.5315;1.9681;-1.5685;
415363310797146;-9.7711;1.7094;-1.4629;
415363320897979;-9.6347;1.4818;-1.4629;
415363331006521;-9.4669;1.6328;-1.6451;
415363341107354;-9.4430;1.7596;-2.0836;
415363351208187;-9.4645;1.4387;-2.2534;
415363361305687;-9.3760;1.1489;-2.2917;
415363371406521;-9.3664;1.2637;-2.5098;
415363381507354;-9.5028;1.1895;-2.6249;
415363391628396;-9.5076;0.8973;-2.2965;
415363401729229;-9.5052;1.0627;-2.1266;
415363411830062;-9.5148;1.3406;-1.9732;
415363421932979;-9.4669;1.5730;-1.6427;
415363432033760;-9.4502;1.8963;-1.5350;
415363442134646;-9.5291;2.2268;-1.5036;
415363452240479;-9.5390;2.5119;-1.3935;
415363462341312;-9.4717;2.6462;-1.1850;
415363472442146;-9.4765;2.6844;-0.9984;
415363482558604;-9.5195;2.6294;-0.9431;
415363492659437;-9.4813;2.3539;-0.9526;
415363502760271;-9.3544;2.3369;-1.1300;
415363512876156;-9.2201;2.6342;-1.3696;
415363522976990;-9.1555;2.7826;-1.3385;
415363533077823;-9.2779;2.8280;-1.1085;
415363543206469;-9.5124;2.9719;-0.8809;
415363553307302;-9.5219;3.1322;-0.6843;
415363563408135;-9.3879;3.2067;-0.6508;
415363573498083;-9.3616;3.0604;-0.9287;
415363583598917;-9.3209;2.7921;-1.2811;
415363593699750;-9.2994;2.6052;-1.5517;
415363603812927;-9.2656;2.4808;-1.7695;
415363613913812;-9.3855;2.4832;-1.8559;
415363624014646;-9.6203;1.9059;-1.6810;
415363634131208;-9.6036;1.6926;-1.6092;
415363644232042;-9.4095;1.7309;-1.7192;
415363654332875;-9.3066;1.7907;-1.9349;
415363664443083;-9.3018;1.8389;-2.1170;
415363674543917;-9.3449;1.9155;-2.1840;
415363684644750;-9.3353;2.0952;-2.1745;
415363694729698;-9.3090;2.2268;-1.9493;
415363704830583;-9.3616;2.2005;-1.6475;
415363714931365;-9.4597;2.2938;-1.5302;
415363725055375;-9.4693;2.4520;-1.5733;
415363735156208;-9.3377;2.6390;-1.6164;
415363745257042;-9.2779;2.7514;-1.6786;
415363755361990;-9.2755;2.8472;-1.6594;
415363765462875;-9.2417;2.9001;-1.5108;
415363775563708;-9.2560;2.9910;-1.3385;
415363785707719;-9.2465;3.1394;-1.3409;
415363795811573;-9.2034;3.2306;-1.3576;
415363805915479;-9.2393;3.2809;-1.3792;
415363816017458;-9.2779;3.3814;-1.2906;
415363826121365;-9.2489;3.3407;-0.9960;
415363836225219;-9.2441;2.7538;-0.8402;
415363846319281;-9.2560;2.0833;-1.0271;
415363856423135;-9.3329;1.9370;-1.5852;
415363866527042;-9.2321;2.0880;-2.0521;
415363876630792;-8.9518;1.9992;-1.9780;
415363886734698;-10.2622;3.3838;-2.6800;
415363896838604;-9.3090;2.2914;-1.7336;
415363906938083;-9.3497;2.5813;-1.5108;
415363917042042;-9.3927;2.2412;-1.2595;
415363927145896;-9.1149;2.2412;-1.0439;
415363937255427;-9.4860;2.6462;-1.1252;
415363947359333;-9.6921;2.5717;-1.5398;
415363957463187;-9.4765;2.7443;-1.9397;
415363967571781;-9.1029;2.6294;-1.7025;
415363977675687;-9.0598;2.5573;-1.5398;
415363987779542;-9.2249;2.8615;-1.5012;
415363997899281;-9.3449;2.9815;-1.0750;
415364008003187;-9.1460;3.2545;-1.1492;
415364018107042;-8.5256;4.0355;-2.3566;
415364028190375;-9.0263;3.3239;-1.5565;
415364038294333;-9.6610;1.8461;0.6643;
415364048398187;-9.9269;2.2795;-0.4161;
415364058510687;-9.5486;2.5262;-2.3399;
415364068614594;-8.7341;2.2436;-2.2223;
415364078718448;-8.6955;3.3861;-1.7145;
415364088840062;-9.2273;4.5769;-1.7934;
415364098944021;-9.5076;3.9565;-1.1922;
415364109047875;-9.4454;2.9336;-0.7397;
415364119131990;-9.3401;3.0173;-1.1707;
415364129235896;-9.1412;3.4822;-1.4342;
415364139339750;-9.0120;3.7098;-1.2018;
415364149451365;-9.1890;4.0355;-1.1444;
415364159555271;-9.5219;4.3564;-1.5374;
415364169659125;-9.1412;3.8246;-1.5446;
415364179753448;-4.2544;2.3154;-0.9407;
415364189857354;-3.9838;5.4607;-2.2319;
415364199961208;-14.4999;8.9916;-8.1583;
415364210075427;-17.4918;8.3928;-9.5118;
415364220179333;-15.0724;4.5266;-7.6050;
415364230283187;-5.8475;-0.3532;-3.3936;
415364240383969;-1.0875;-1.6804;0.5946;
415364250487875;-2.8074;-1.6585;1.8882;
415364260591729;-7.6295;-0.7053;0.5994;
415364270695740;-13.0098;2.3874;-3.2094;
415364280799646;-15.8821;4.8954;-6.3835;
415364290903500;-12.3153;4.0666;-5.9258;
415364301014802;-6.5037;2.7108;-3.8249;
415364311118708;-3.8327;3.0652;-3.4801;
415364321222562;-5.7108;4.2320;-4.7545;
415364331337927;-9.3736;3.9757;-4.4910;
415364341441781;-10.9522;3.3694;-2.9985;
415364351545687;-11.6204;5.5902;-4.7665;
415364361640010;-11.0432;4.7157;-0.2246;
415364371743917;-7.9986;1.7740;9.2856;
415364381847771;-7.9866;3.4199;5.2612;
415364391963656;-8.4921;5.0943;-3.6452;
415364402067562;-8.1087;5.3267;-5.5017;
415364412171417;-8.8681;6.7472;-6.4170;
415364422264802;-9.0598;7.5544;-6.8527;
415364432368708;-8.1111;5.3195;-3.5638;
415364442472562;-7.9962;2.4114;-0.1789;
415364452575062;-9.0000;1.8126;-0.1983;
415364462679021;-9.6586;2.2866;-1.1803;
415364472782875;-9.9341;2.3898;-1.3959;
415364482895115;-9.6227;2.4879;-2.0498;
415364492999021;-8.5735;3.5635;-4.7593;
415364503102875;-8.4081;4.6295;-8.0889;
415364513210219;-8.0991;3.8342;-7.6720;
415364523314073;-7.2535;1.6328;-4.5580;
415364533417979;-8.2454;1.6878;-4.2036;
415364543531469;-10.4300;2.0279;-3.9230;
415364553635375;-10.4013;0.6769;-1.0845;
415364563739229;-8.7123;0.7128;-1.4438;
415364573826885;-8.4535;3.7146;-6.8527;
415364583930740;-9.6251;5.7841;-10.5012;
415364594034646;-7.9388;2.9169;-6.4911;
415364604164437;-8.3195;0.7056;-3.2692;
415364614268344;-9.5028;0.3176;-1.1970;
415364624372250;-8.0082;-0.7268;0.7457;
415364634459802;-8.8059;0.3416;-1.7862;
415364644563708;-9.5701;2.4927;-5.3270;
415364654667615;-10.2933;3.3790;-6.4720;
415364664762771;-9.7543;2.5837;-4.9938;
415364674866677;-8.3985;2.1790;-4.5891;
415364684970583;-7.6511;2.1766;-4.7521;
415364695072146;-7.3062;2.2268;-4.5532;
415364705176052;-7.8117;2.2531;-4.9866;
415364715279906;-9.2178;2.0614;-4.3711;
415364725396104;-8.9279;1.2015;-2.5050;
415364735500010;-6.8246;1.2760;-2.8789;
415364745603865;-9.1340;2.3297;-3.4250;
415364755702875;-9.8671;1.2517;1.0905;
415364765806781;-4.6807;-1.2586;3.2297;
415364775910687;-9.3975;4.6893;-15.9126;
415364786012510;-19.5090;10.5320;-31.3421;
415364796116417;-13.3884;4.9337;-12.6045;
415364806220323;-2.8579;-0.3266;7.2111;
415364816335010;-2.5582;-0.9975;6.3153;
415364826438917;-8.0393;0.9165;0.5468;
415364836542771;-6.9876;-0.5662;0.2330;
415364846660531;-7.2703;2.6052;-12.7433;
415364856764437;-17.4320;8.9653;-29.1168;
415364866868292;-14.5286;3.9852;-8.0004;
415364876957146;0.7977;0.5285;9.7170;
415364887061104;5.1311;2.8041;3.7543;
415364897164958;-9.3927;2.9145;-6.5390;
415364907283552;-15.8246;2.8280;-6.1534;
415364917387458;-13.3789;4.6104;-7.0445;
415364927491312;-14.5214;5.8346;-10.1731;
415364937599906;-7.2224;6.3254;-1.6379;
415364947703812;2.0865;5.7649;4.9379;
415364957807719;-0.5007;5.1446;-2.6106;
415364967913448;-8.7218;5.9303;-10.7671;
415364978017354;-14.1215;6.6514;-8.4410;
415364988121208;-14.9025;5.1326;0.1469;
415364998221365;-8.7676;3.6425;3.8022;
415365008325219;-6.1253;3.6520;-0.5743;
415365018429125;-7.1240;2.5238;-1.1731;
415365028529490;-10.7510;1.4124;0.5420;
415365038633344;-27.5937;0.6817;0.8895;
415365048737250;-27.6703;1.3645;8.0662;
415365058840323;-7.4381;0.8255;8.6411;
415365068944229;5.7084;1.3286;-4.7617;
415365079048083;4.2568;1.4698;-8.4867;
415365089097042;1.3630;0.4349;-3.7771;
415365099201000;-7.1626;1.1417;-8.5537;
415365109304854;-16.6846;2.7538;-8.8723;
415365119471885;-16.5338;1.6256;0.4510;
415365129575792;-13.9801;-0.4346;2.0608;
415365139679646;-10.7222;-1.0525;-2.2917;
415365149777719;-7.1626;-0.1807;-2.0426;
415365159881625;-6.2043;0.9188;-2.3925;
415365169985479;-6.5901;-0.0873;-4.0119;
415365180094594;-8.5472;-0.4107;-3.6790;
415365190198500;-10.4874;-0.6263;-2.0354;
415365200302406;-10.6887;-1.7689;-2.7589;
415365210405115;-12.2387;-2.1257;-3.7627;
415365220509021;-8.7194;-2.1233;-2.1529;
415365230612927;-6.2019;-1.6035;-3.5997;
415365240709594;-9.6012;-1.9053;-7.3750;
415365250813448;-8.3411;-1.0884;-4.9555;
415365260917406;-6.7911;-1.2275;-3.9592;
415365271037094;-11.0001;-2.0898;-7.5667;
415365281141000;-10.3125;-2.0085;-6.8504;
415365291244854;-9.4406;-3.9392;-3.9664;
415365301339125;-9.6826;-2.9306;-3.8728;
415365311443083;-8.5304;-0.5471;-3.6500;
415365321546937;-9.8647;-1.3496;-1.2715;
415365331657198;-9.0168;-1.4934;-0.3514;
415365341761052;-7.6825;0.1475;-2.0955;
415365351864958;-9.2827;-0.6933;-3.9302;
415365361966729;-9.7831;-1.4551;-5.3486;
415365372070687;-8.8179;-0.0440;-6.1128;
415365382174542;-8.3530;-1.5772;-6.0168;
415365392290687;-10.0131;-1.6705;-6.6613;
415365402394594;-7.0092;0.3296;-4.9627;
415365412498448;-7.3708;0.4158;-3.9664;
415365422600115;-7.2200;2.0614;-4.7569;
415365432704021;-4.7456;3.7385;-7.2601;
415365442807875;-8.7027;2.2316;-10.6929;
415365452915635;-9.7783;0.6625;-10.8126;
415365463019542;-7.7423;0.9643;-6.0191;
415365473123396;-8.9901;3.1899;-6.6709;
415365483221573;-8.3937;1.3645;-6.9368;
415365493325479;-5.8522;-0.9305;-12.2764;
415365503429333;-13.9394;-0.2596;-21.3314;
415365513541260;-14.4449;0.7319;-13.5625;
415365523645167;-9.7902;2.4497;-0.2892;
415365533749021;-3.7633;2.0183;6.7753;
415365543869021;1.9307;1.0292;2.4655;
415365553972927;-6.7241;1.3286;-8.2639;
415365564076833;-12.1857;1.9202;-9.1454;
415365574148135;-10.7533;2.7251;-5.9976;
415365584251990;-13.5802;2.7849;-8.4867;
415365594355896;-12.7609;3.3503;-7.0325;
415365604469854;-5.7514;2.5238;-7.5332;
415365614573708;-5.0904;3.1540;-9.3562;
415365624677615;-6.7552;2.0399;-6.3452;
415365634803812;-6.7505;2.2651;-3.6595;
415365644907719;-7.5553;1.6926;-7.1210;
415365655011573;-7.4764;0.8399;-6.8937;
415365665085948;-8.8418;-0.1878;-4.5508;
415365675189854;-10.6457;-0.4561;-4.7498;
415365685293708;-9.1627;-0.0033;-3.7244;
415365695443083;-8.5567;-0.7938;-3.7460;
415365705546990;-9.5629;-0.3170;-4.3878;
415365715650844;-9.2946;-0.4155;-3.0296;
415365725740948;-8.9590;-0.5518;-3.1783;
415365735844854;-9.0287;0.0996;-2.2080;
415365745948708;-7.5099;0.4134;-0.6724;
415365756034333;-6.1229;1.1752;-3.1543;
415365766138240;-8.6357;2.1024;-4.7375;
415365776242146;-8.1302;1.6974;-1.5852;
415365786371000;-4.4267;2.7491;0.0317;
415365796475479;-7.1794;3.2378;1.6654;
415365806579958;-8.4344;2.1144;-0.3514;
415365816665687;-17.2618;1.0555;-7.8852;
415365826770167;-20.9581;0.7295;-5.4299;
415365836874646;-10.4707;1.8150;0.9661;
415365846979385;-5.2077;2.2292;-1.8894;
415365857083865;-4.0292;2.7012;-4.1411;
415365867188344;-4.6711;3.8940;-3.2596;
415365877299333;-8.7317;3.8940;-2.8813;
415365887403812;-12.0852;3.5850;-1.5470;
415365897508292;-12.1738;1.4195;-1.0606;
415365907611729;-11.6348;-0.4753;-1.7838;
415365917716208;-11.5415;-1.8957;-0.9646;
415365927820687;-9.8886;-2.1401;-1.9756;
415365937920896;-7.7303;-1.7952;-2.1673;
415365948025375;-6.3338;-2.3414;-1.8727;
415365958129854;-9.7950;-2.3390;-3.2022;
415365968234802;-12.9882;-3.1175;-1.4773;
415365978339281;-10.4420;-2.8205;-2.9674;
415365988443760;-11.9465;-2.0874;-2.3495;
415365998561833;-9.1388;-2.7511;-0.4762;
415366008666312;-7.4357;-0.9544;-3.1687;
415366018770792;-10.5233;-1.2443;-2.7589;
415366028862354;-10.4444;-0.8731;-2.6010;
415366038966833;-10.1498;0.0829;-2.5528;
415366049071312;-9.0168;-0.1089;-2.2391;
415366059173396;-7.7806;-0.2142;-2.1912;
415366069277875;-8.2358;-0.7436;-4.6777;
415366079382354;-8.4416;-0.4083;-4.4477;
415366089504333;-7.3086;-1.5269;-4.7689;
415366099608812;-10.6289;-1.1363;-5.0252;
415366109713292;-10.0202;-0.4202;-4.3591;
415366119797875;-9.6203;0.0517;-6.1917;
415366129902354;-9.4454;-0.4513;-4.8263;
415366140006833;-7.7064;-0.1639;-4.2921;
415366150118083;-8.8896;0.8638;-4.2371;
415366160222562;-9.3305;1.0866;-3.3553;
415366170327042;-8.1613;1.1680;-2.5122;
415366180436937;-8.2071;0.7561;-3.9999;
415366190541417;-10.2311;0.2578;-5.0276;
415366200645896;-8.1254;0.0278;-4.7474;
415366210731885;-7.5147;-0.5303;-6.0793;
415366220836365;-9.6395;-0.8922;-4.5365;
415366230940844;-6.5635;1.1536;-3.3673;
415366241042667;-10.8491;-1.3711;-9.0592;
415366251147146;-12.2794;-2.6886;-6.7451;
415366261251625;-4.6496;-1.3424;-0.3203;
415366271357979;-5.5624;-1.0908;-5.0539;
415366281462458;-10.9140;-1.6947;-8.4649;
415366291566937;-10.5568;-0.7340;-6.8240;
415366301679229;-9.5940;-0.1735;-5.6527;
415366311783708;-6.4319;0.3392;-4.7545;
415366321888187;-6.3529;0.3894;-5.3773;
415366331996000;-9.2106;0.2219;-4.3424;
415366342100479;-9.7304;0.0398;-2.8211;
415366352204958;-8.4921;0.2961;-4.5915;
415366362300167;-7.4859;1.2541;-7.1139;
415366372404646;-10.1115;1.1871;-6.0048;
415366382509125;-8.7365;1.0101;-3.3218;
415366392614021;-8.1159;1.5802;-3.7986;
415366402718500;-7.4788;0.1211;-4.7279;
415366412822979;-9.1938;0.5548;-5.3868;
415366422940375;-9.5773;1.5658;-3.3936;
415366433044854;-9.1986;1.4937;-2.7087;
415366443149333;-10.1402;0.8734;-4.6513;
415366453244021;-9.9604;0.8853;-2.6967;
415366463348500;-6.3506;1.7812;-2.3973;
415366473452979;-9.2321;1.6974;-5.6767;
415366483556625;-11.9342;0.9284;-3.2381;
415366493661104;-7.1001;2.0040;-1.1683;
415366503765583;-7.8404;2.4329;-3.2429;
415366513860896;-10.2096;1.3789;-5.0396;
415366523965375;-9.8408;1.9274;-3.3027;
415366534069854;-8.8059;2.2699;-3.6595;
415366544201937;-10.8852;1.4195;-3.4442;
415366554306417;-10.5209;1.1943;-0.2342;
415366564410896;-10.2646;1.0149;-0.2198;
415366574493604;-9.2683;0.7271;0.4295;
415366584598083;-10.0923;0.7466;0.5085;
415366594702562;-10.9140;0.5644;-0.9335;
415366604816052;-9.2994;1.0026;-0.9936;
415366614920531;-10.4755;1.1608;-1.6546;
415366625025010;-10.0202;1.2015;-1.5398;
415366635112146;-9.6108;0.7992;-2.8594;
415366645216625;-9.2417;-0.4035;-2.9818;
415366655321104;-7.1169;-1.1028;-2.9554;
415366665453865;-10.1186;-2.4395;-4.9173;
415366675558344;-11.5128;-3.6781;-4.1387;
415366685662823;-10.5568;-3.6829;-4.4046;
415366695762250;-8.1398;-3.7690;-3.9449;
415366705866729;-9.4884;-3.8435;-3.0846;
415366715971208;-10.9451;-3.5151;-4.2491;
415366726081365;-11.3521;-3.4337;-4.0884;
415366736185844;-9.1077;-2.7583;-3.5949;
415366746290323;-9.8145;-2.3653;-3.5399;
415366756371312;-10.0923;-1.7737;-1.4725;
415366766475792;-7.5434;-2.1832;-3.1783;
415366776580271;-7.6487;-1.2012;-6.1152;
415366786686104;-8.0847;0.0972;-5.9785;
415366796790375;-6.6380;-0.5925;-5.8828;
415366806894594;-9.0120;-1.3807;-6.8264;
415366816994125;-10.3582;0.2267;-5.7652;
415366827098396;-6.8342;1.2808;-5.5786;
415366837202615;-7.2272;1.1249;-6.2970;
415366847329542;-8.4658;2.3611;-3.4609;
415366857433812;-8.9734;2.5382;-3.7819;
415366867538031;-8.9040;1.7094;-5.8636;
415366877608292;-9.3449;1.9968;-3.2859;
415366887712562;-8.7437;1.4937;-2.6560;
415366897816781;-7.3038;2.2172;-2.6776;
415366907933708;-8.4778;2.6557;-3.6933;
415366918037979;-9.7711;1.5802;-7.2147;
415366928142198;-9.2273;2.3827;-4.6035;
415366938250167;-8.2525;1.3645;-2.5385;
415366948354385;-9.6538;0.9260;-2.8451;
415366958458656;-9.0215;0.9835;-3.1496;
415366968568812;-11.8983;0.9308;-2.1936;
415366978673083;-8.5998;1.0747;1.6992;
415366988777302;-6.6643;0.5309;-1.2066;
415366998884750;-13.2326;0.3918;-1.0845;
415367008989021;-10.8805;0.8734;-0.4543;
415367019093240;-6.0775;0.3224;-1.5012;
415367029189750;-8.8083;0.4469;-1.0367;
415367039294021;-9.0574;-0.7101;-3.1205;
415367049398240;-9.0311;-0.0730;-3.6861;
415367059502354;-8.9112;-0.5375;-3.2979;
415367069606625;-6.9972;-1.9487;-3.8800;
415367079710844;-8.8011;-1.3232;-3.5088;
415367089807302;-9.6467;-2.5116;-4.6346;
415367099911573;-9.1173;-2.8660;-4.1985;
415367110015792;-9.0263;-1.7378;-2.8956;
415367120123187;-8.2119;-2.6216;-2.1075;
415367130227458;-8.9758;-1.7569;-1.4749;
415367140331677;-10.1785;-1.6274;-3.4322;
415367150443917;-9.3760;-1.2084;-3.9401;
415367160548187;-7.4620;-0.7771;-4.3519;
415367170652406;-9.6849;-1.6971;-4.3448;
415367180758708;-10.1186;-0.5782;-5.5400;
415367190862979;-10.9092;-0.6814;-4.9842;
415367200967198;-8.6668;-0.1137;-3.4705;
415367211061000;-8.5519;-0.0993;-4.2586;
415367221165271;-9.0191;-0.1113;-4.4333;
415367231269490;-10.3941;0.9141;-2.5863;
415367241367302;-8.7317;0.2865;-2.3590;
415367251471521;-6.6404;0.9452;-3.1424;
415367261575792;-9.3712;0.7537;-5.1568;
415367271689646;-9.4860;1.1154;-5.3653;
415367281793917;-8.0321;1.5467;-4.4548;
415367291898135;-7.7231;1.9202;-4.5197;
415367302001312;-8.6955;2.1191;-4.4357;
415367312105583;-10.0442;2.3106;-3.1062;
415367322209802;-7.7471;3.0150;-3.1759;
415367332320062;-8.2549;1.5730;-4.1507;
415367342424333;-12.4493;1.7788;-4.3065;
415367352528552;-12.2195;2.7778;-0.4376;
415367362629229;-6.5779;2.7371;-0.3802;
415367372733500;-6.7002;0.9667;-4.1889;
415367382837719;-12.7008;-0.3027;-4.6585;
415367392951469;-12.9260;1.8221;-2.2822;
415367403055740;-7.0929;0.7223;-2.1984;
415367413159958;-2.8795;-0.4202;-4.1243;
415367423257667;-8.7290;-0.7244;-5.1209;
415367433361937;-13.9992;0.3416;-5.3007;
415367443466156;-9.5486;0.5166;-3.3147;
415367453556000;-7.0235;0.3344;-2.3806;
415367463660271;-9.6251;0.0278;-1.2906;
415367473764490;-12.7415;0.3464;-0.6413;
415367483901312;-8.8825;0.8112;-0.8354;
415367494005583;-5.9192;-0.4992;-2.4069;
415367504109802;-11.4123;-0.9401;-2.8379;
415367514199698;-11.7165;0.8518;-1.8296;
415367524303865;-8.0154;-0.0559;-2.7374;
415367534408135;-8.3842;-1.2419;-4.7761;
415367544503708;-9.6347;-1.4791;-3.5064;
415367554607979;-9.5414;-1.0167;-3.8824;
415367564712250;-9.2058;-1.1773;-4.1770;
415367574872458;-8.4945;-1.0478;-2.7924;
415367584976729;-10.9211;-0.9951;-2.4236;
415367595080948;-11.3330;-0.7125;-1.1539;
415367605133344;-9.3808;-0.6359;-0.5695;
415367615237562;-8.1087;-0.3748;-1.0750;
415367625341833;-9.1412;-0.5040;-1.7336;
415367635440479;-10.2479;-1.1438;-2.5648;
415367645544750;-9.0144;-0.8177;-3.0631;
415367655648969;-9.3209;-0.8560;-4.4596;
415367665750896;-12.1929;-0.8225;-4.0262;
415367675855167;-9.7448;-0.7029;-0.6150;
415367685959385;-8.2143;-1.2610;-2.8164;
415367696068083;-10.3391;-1.4575;-5.4012;
415367706172354;-11.2612;-0.5949;-2.4500;
415367716276573;-9.8647;-1.3974;-0.3156;
415367726383396;-9.1101;-1.2012;-1.8081;
415367736487667;-6.8198;0.0230;-3.5542;
415367746591885;-8.1039;0.2100;-5.5113;
415367756697458;-10.8805;-0.0200;-5.0324;
415367766801729;-8.9782;0.0015;-3.7316;
415367776905948;-8.5352;0.0039;-4.1148;
415367787010479;-9.1531;0.0446;-3.5064;
415367797114750;-10.5999;-0.3218;-2.8956;
415367807219021;-10.6744;0.3033;-2.6776;
415367817331312;-10.6816;0.1259;-2.0545;
415367827435583;-9.2465;0.7104;-2.1266;
415367837539854;-7.7590;1.1010;-3.6885;
415367847660583;-6.8007;0.7920;-4.8335;
415367857764854;-8.4559;-0.0631;-6.1917;
415367867869125;-11.1488;0.4926;-4.8742;
415367877941208;-8.5807;0.1068;-1.5302;
415367888045479;-7.7686;0.5859;-3.2931;
415367898149750;-9.8456;1.2015;-5.4778;
415367908265583;-8.5759;1.0723;-4.0382;
415367918369854;-9.8192;1.2254;-2.2343;
415367928474125;-10.2120;0.7319;-0.4496;
415367938573917;-10.3292;0.6960;-0.5815;
415367948678187;-9.1627;0.4229;-2.0955;
415367958782458;-7.9241;0.6721;-3.2070;
415367968889333;-8.1135;1.0292;-5.0755;
415367978993604;-10.6624;0.8160;-6.0574;
415367989097875;-10.0179;-0.3580;-1.9564;
415367999200635;-9.4980;-1.1363;-1.6164;
415368009304906;-9.8121;-0.4418;-2.3518;
415368019409177;-10.2694;-0.2046;-0.8665;
415368029514802;-9.9365;-0.3051;-0.0162;
415368039619073;-7.6343;0.0135;-1.6690;
415368049723344;-10.3534;0.8160;-4.4548;
415368059832458;-10.7222;0.3176;-2.6560;
415368069936729;-4.4773;-0.0511;-2.7900;
415368080041000;-7.2870;0.9523;-5.4132;
415368090134750;-12.7415;0.2841;-3.4226;
415368100239021;-10.0059;-0.9568;-1.8440;
415368110343292;-6.9111;-0.4825;-3.3410;
415368120464125;-8.3818;0.2483;-4.2562;
415368130568396;-12.5596;-0.5231;-2.6680;
415368140672667;-12.9356;-0.9257;-0.6843;
415368150783292;-8.7290;-1.0262;-0.3371;
415368160887562;-5.3946;-0.5303;-3.7675;
415368170991833;-9.0479;0.0135;-5.7963;
415368181107979;-11.1512;0.0135;-2.8642;
415368191212250;-8.4129;0.0996;-1.8320;
415368201316521;-8.0656;0.0517;-4.3567;
415368211393135;-8.2789;-0.2500;-4.4668;
415368221497406;-8.1111;-0.3170;-3.3386;
415368231601677;-9.8647;-0.5710;-4.8503;
415368241708500;-10.4898;0.4301;-2.6800;
415368251812771;-6.9805;0.5979;-0.1959;
415368261917042;-11.6372;-0.7842;-4.2778;
415368272026729;-9.4669;-0.3987;-1.8703;
415368282131000;-9.4167;-0.1878;-1.0989;
415368292235271;-11.2421;-0.1496;-3.8800;
415368302333917;-7.8619;-0.8321;-3.1134;
415368312438187;-8.2047;-0.9760;-4.6178;
415368322542458;-11.0001;-0.6239;-3.4202;
415368332652458;-8.5113;0.8877;-1.9349;
415368342756729;-7.4166;0.3416;-4.3089;
415368352861000;-11.4960;0.3583;-4.1530;
415368362962250;-9.1412;1.2685;-2.2415;
415368373066521;-6.9876;0.2483;-2.4141;
415368383170792;-10.7342;0.3703;-2.2558;
415368393273083;-9.1866;0.4325;-1.9851;
415368403377354;-8.0584;0.1451;-2.9722;
415368413481625;-7.7614;-0.2357;-3.9159;
415368423586208;-10.1330;-0.2166;-5.3581;
415368433690479;-12.7849;0.7490;-3.5638;
415368443794750;-8.1757;0.8064;-1.6331;
415368453893552;-7.7016;-1.2299;-5.2693;
415368463997823;-11.0982;-1.3543;-4.0765;
415368474102094;-9.1388;0.5955;-0.7493;
415368484275323;-8.6812;0.9045;-3.3553;
415368494379542;-9.7783;-0.3843;-4.1459;
415368504483812;-8.3028;0.4902;-1.6834;
415368514524646;-7.3756;0.9165;-2.6680;
415368524628969;-11.3163;0.3416;-5.5857;
415368534733240;-11.0719;0.2865;-2.0692;
415368544836833;-7.0857;1.5105;-2.0210;
415368554941104;-8.7194;-0.0754;-4.1602;
415368565045375;-8.2286;-0.6287;-3.6356;
415368575144542;-11.0599;0.1977;-3.1519;
415368585248812;-11.1966;1.2927;-2.8618;
415368595353083;-8.4682;0.1499;-2.8860;
415368605499125;-9.3425;-0.2931;-2.4093;
415368615603396;-9.0742;0.7490;-1.6594;
415368625707667;-8.0608;0.6793;-3.1735;
415368635792562;-9.7304;-0.7101;-5.3246;
415368645896833;-8.9183;-0.0897;-3.5064;
415368656001104;-7.4381;1.3023;-2.7063;
415368666091729;-10.3511;0.8064;-1.9229;
415368676196000;-10.9068;1.6184;-1.4581;
415368686300271;-9.4741;1.5873;-2.4356;
415368696403812;-12.5907;-0.1567;-2.8956;
415368706508083;-8.5161;1.0555;-1.2185;
415368716612354;-6.1684;-0.1591;-1.3959;
415368726723396;-8.5041;-0.3987;-5.0779;
415368736827667;-10.6337;-0.7412;-4.9340;
415368746931937;-11.6109;0.4612;-2.5313;
415368757032458;-8.9112;1.6615;-1.0032;
415368767136729;-9.3879;0.2770;-2.5265;
415368777241000;-9.3497;-0.5495;-3.8824;
415368787356469;-8.4153;0.1618;-3.1735;
415368797460948;-9.2441;0.6314;-2.0306;
415368807565375;-8.4706;0.9476;-3.0823;
415368817654333;-7.4524;0.0015;-2.8932;
415368827758812;-11.5558;0.0278;-4.3304;
415368837863240;-12.4998;1.2302;-2.4452;
415368847989958;-10.3005;0.0326;-1.1779;
415368858094385;-5.0402;-0.9808;-4.1913;
415368868198865;-9.4406;-1.1797;-4.5054;
415368878280583;-11.9079;0.1762;-1.7049;
415368888385062;-9.5052;1.1800;-1.7575;
415368898489490;-9.9987;0.4277;-2.0474;
415368908595375;-9.6491;-0.9712;-4.1530;
415368918699854;-8.7485;-0.5016;-4.5891;
415368928804281;-8.6285;1.1417;-1.9086;
415368938903708;-8.6716;1.1608;-2.7972;
415368949008187;-10.1474;0.6386;-4.6059;
415368959112615;-10.4827;1.7788;-1.5805;
415368969223708;-8.9662;1.1704;-2.5050;
415368979328187;-8.9160;0.9715;-3.3888;
415368989432615;-7.3277;0.3727;-3.6188;
415368999532875;-9.0598;-0.3051;-5.7676;
415369009637354;-12.3727;1.2589;-3.5997;
415369019741781;-9.2178;1.3860;-0.6173;
415369029847146;-8.6668;0.5094;-2.8594;
415369039951625;-6.9661;0.2459;-3.8345;
415369050056052;-5.2196;-0.5949;-6.3643;
415369060156833;-9.8480;1.3980;-6.2109;
415369070261312;-13.6400;2.0761;-3.2668;
415369080365792;-10.4563;2.4784;-0.8737;
415369090470896;-6.5276;1.4961;-0.3419;
415369100575375;-8.0249;-0.7364;-4.0573;
415369110679802;-9.7256;-0.4705;-3.8656;
415369120795896;-10.0971;-0.1208;-4.3400;
415369130900375;-10.3149;0.2937;-2.6177;
415369141004802;-11.2804;1.2470;-0.7899;
415369151110635;-9.6945;0.7247;-1.2138;
415369161215115;-8.6237;1.5176;0.6066;
415369171319542;-9.0215;0.4325;-5.1664;
415369181416937;-11.3593;-0.7938;-4.9436;
415369191521417;-8.5208;1.0101;-1.0510;
415369201625844;-6.3577;2.5454;-0.3921;
415369211718708;-8.1206;1.0292;-2.9913;
415369221823187;-9.2034;-1.3376;-6.1678;
415369231927615;-9.7902;1.8604;-4.1052;
415369242038969;-10.7198;0.8375;-3.2644;
415369252143448;-10.1354;1.9537;0.2378;
415369262247875;-10.9594;0.1379;-1.5108;
415369272350479;-9.9078;0.3081;-1.4916;
415369282454958;-8.0130;-1.4695;-1.8392;
415369292559385;-8.3602;-0.6215;-3.3984;
415369302665219;-9.8743;0.5405;-4.2945;
415369312769698;-10.5066;-0.2788;-4.7327;
415369322874125;-7.9122;0.9476;-1.2209;
415369332979646;-8.2525;0.4612;-3.9401;
415369343084125;-13.1058;1.0364;-2.0091;
415369353188552;-11.8122;0.4711;-1.1683;
415369363280271;-7.2224;1.0627;0.4750;
415369373384750;-8.2286;-0.9353;-4.0023;
415369383489177;-9.2441;-0.0440;-3.1134;
415369393605583;-9.9820;-0.5662;-3.5590;
415369403710062;-11.6348;0.7466;-3.6428;
415369413814490;-10.2359;-0.5399;-3.7172;
415369423905792;-6.4582;-0.2859;-2.8044;
415369434010271;-6.7863;0.2841;-3.5399;
415369444114698;-7.9122;0.1834;-5.6695;
415369454223500;-8.9662;0.2961;-4.8215;
415369464327927;-8.6883;0.7490;-2.5481;
415369474432406;-10.9905;0.6147;-1.5517;
415369484540687;-10.9834;-0.0945;-3.2979;
415369494645167;-10.0585;0.1259;-2.3351;
415369504749646;-10.9810;-0.8154;-3.1998;
415369514851625;-10.9570;-0.6526;-1.6020;
415369524956104;-10.0322;-1.0597;-1.8631;
415369535060583;-11.1245;-0.3748;-1.7169;
415369545155167;-11.8911;-0.0248;-2.1170;
415369555259594;-8.5998;-0.0730;-0.7373;
415369565364073;-8.9016;0.2076;-4.1913;
415369575516781;-8.0943;0.6218;-3.6332;
415369585621208;-6.6930;1.0962;-1.8105;
415369595725687;-5.7179;1.3310;-3.0894;
415369605785583;-8.7290;1.4506;-5.6169;
415369615890062;-9.3736;1.2975;-6.4648;
415369625994490;-10.5760;1.9753;-4.6609;
415369636130687;-10.0370;0.4878;-3.8871;
415369646235167;-6.7648;-0.2285;-2.9100;
415369656339594;-5.8881;-1.9029;-6.2922;
415369666418500;-10.9953;-0.7340;-5.8708;
415369676522979;-14.1957;-0.2046;-2.1864;
415369686627406;-9.8791;-0.8755;1.1336;
415369696731417;-10.0804;-0.1807;-2.2008;
415369706835896;-9.7304;0.0159;-3.5949;
415369716940323;-6.8776;0.3846;-1.3241;
415369727046417;-8.1999;-0.1017;-2.5457;
415369737150896;-9.5533;0.4878;-1.5996;
415369747255323;-10.3654;0.5022;-2.5816;
415369757357146;-9.2154;0.8782;-2.4667;
415369767461625;-8.8729;0.4038;-3.3194;
415369777566052;-9.3664;-0.1639;-4.7904;
415369787656365;-10.7270;-0.4896;-3.8512;
415369797760792;-10.2263;-0.9592;-1.2787;
415369807865271;-7.5506;-0.1113;1.4453;
415369817984125;-7.2775;0.0900;-4.3950;
415369828088604;-11.8911;-0.2788;-9.8354;
415369838193031;-11.2875;-0.5758;-2.8813;
415369848302979;-8.4945;-1.6466;2.2956;
415369858407458;-9.7854;-0.5351;-1.3265;
415369868511885;-9.7137;0.6170;-4.1626;
415369878620583;-8.7389;-0.1376;-3.9159;
415369888725062;-7.5218;0.8183;-3.1711;
415369898829490;-7.3014;0.1762;-4.5221;
415369908930375;-9.4095;-0.2859;-4.0621;
415369919034854;-11.5846;-0.3843;-2.6919;
415369929139281;-11.3234;-0.3461;-2.3590;
415369939240479;-7.6729;0.4974;-1.2449;
415369949344958;-6.6165;0.7537;-3.8489;
415369959449385;-8.2908;0.4974;-7.2601;
415369969560792;-8.9542;0.6051;-3.8010;
415369979665219;-7.8500;1.3454;-1.9445;
415369989769698;-9.4262;0.4301;-4.9173;
415369999861937;-11.7739;0.6745;-3.3505;
415370009966417;-8.8466;1.1465;-0.3467;
415370020070844;-9.0814;0.2387;-2.2558;
415370030184021;-11.4048;0.0900;-1.9588;
415370040288500;-8.6189;-0.3867;0.2785;
415370050392927;-9.0742;-0.1113;-2.1505;
415370060491937;-10.2909;1.4626;-3.0918;
415370070596417;-9.2731;0.1140;-3.4155;
415370080700844;-9.6634;1.4004;-3.6523;
415370090830271;-10.2120;2.1287;-0.5240;
415370100934750;-8.3961;1.2087;1.7231;
415370111039177;-6.2833;0.0422;-2.9267;
415370121125062;-8.2167;0.8662;-7.4997;
415370131229542;-10.6720;0.6314;-5.8612;
415370141333969;-10.3029;1.2975;-1.2568;
415370151433396;-10.4587;0.5405;0.0532;
415370161537875;-7.3445;-0.7603;-1.4557;
415370171642302;-9.8312;-0.1472;-5.5089;
415370181751000;-12.5166;0.8207;-2.9124;
415370191855479;-8.4224;0.2554;-1.0678;
415370201959906;-9.9245;-0.7388;-4.1100;
415370212055635;-11.8648;0.6793;-2.7805;
415370222160115;-7.3349;0.0948;-1.2715;
415370232264542;-6.9900;-0.5518;-2.6560;
415370242372042;-9.2154;0.0948;-5.0539;
415370252476521;-11.8840;0.5668;-3.3936;
415370262580948;-11.3306;0.7777;-0.7828;
415370272682458;-8.0249;0.1355;-1.8607;
415370282786937;-7.6247;-0.7005;-4.3280;
415370292891365;-9.7208;-0.6574;-4.0884;
415370303006625;-12.2315;0.2889;-1.7169;
415370313111104;-9.5892;-0.1926;-2.8693;
415370323215531;-9.3640;-0.2261;-4.0047;
415370333312146;-9.9532;0.1738;-2.2893;
415370343416625;-9.6156;0.7609;-2.5504;
415370353521052;-9.6371;0.1259;-3.3625;
415370363618812;-10.1330;0.1738;-2.2702;
415370373723292;-8.6979;0.6601;-1.9469;
415370383827719;-7.5553;1.0196;-2.6560;
415370393929750;-6.3120;0.3392;-3.6212;
415370404034177;-8.6931;0.7271;-5.6934;
415370414138656;-10.7940;1.3765;-4.8024;
415370424260062;-9.8575;1.6711;-2.0617;
415370434364490;-5.4066;2.0785;-2.6704;
415370444469021;-9.4095;0.9787;-4.0238;
415370454553760;-14.4066;1.5368;-3.2596;
415370464658240;-9.5821;1.8027;-1.4366;
415370474762719;-5.6175;1.5610;-0.9670;
415370484869177;-7.8500;0.2746;-4.3783;
415370494973656;-12.8255;0.1451;-5.0061;
415370505078135;-11.4434;0.8734;-2.6704;
415370515166521;-8.9830;1.1847;-0.9718;
415370525271000;-9.5172;0.0206;-0.1911;
415370535375427;-9.1388;0.0685;1.1650;
415370545489229;-10.8084;0.3320;-0.0975;
415370555593708;-10.3534;0.0135;-2.2271;
415370565698187;-8.6189;-0.6790;-1.0487;
415370575814125;-6.1158;0.0637;-1.1228;
415370585918604;-8.9710;-0.0730;-3.9688;
415370596023031;-11.2086;-1.3376;-5.4251;
415370606165271;-8.5065;-2.3533;-4.1865;
415370616269750;-9.2707;-1.8957;-3.9206;
415370626374177;-9.6203;-2.6288;-4.0382;
415370636475479;-8.8442;-3.5222;-3.0823;
415370646579906;-11.1126;-3.9535;-3.9326;
415370656684385;-10.7749;-3.5414;-2.3662;
415370666757250;-9.5964;-2.4805;-0.5264;
415370676861729;-10.9499;-2.1066;-1.7647;
415370686966156;-11.7739;-2.2047;-3.5447;
415370697083500;-12.1905;-1.3519;-0.4017;
415370707187979;-8.9495;-0.0730;0.4152;
415370717292406;-6.4726;0.1235;-1.0750;
415370727383083;-7.2846;-0.4250;-4.0047;
415370737487562;-11.7284;0.1140;-6.4696;
415370747591990;-9.3760;0.9069;-4.6561;
415370757694542;-4.8867;1.0149;-5.4873;
415370767799021;-8.7365;-0.0272;-7.5093;
415370777903448;-10.1115;0.5979;-5.2262;
415370788016469;-8.2430;1.5945;-4.1483;
415370798120896;-9.0885;1.3334;-4.7737;
415370808225375;-8.4921;1.2565;-3.1014;
415370818322771;-9.8480;2.1814;-1.5179;
415370828427250;-10.5927;2.3683;-1.7432;
415370838531677;-6.7241;1.5849;-1.6786;
415370848634750;-9.6491;1.3286;-3.2524;
415370858739229;-10.9355;1.4937;-2.9841;
415370868843656;-5.6749;1.8843;-3.2333;
415370878949229;-5.8164;0.7199;-4.4644;
415370889053708;-9.5988;-0.3290;-5.7006;
415370899158135;-9.4860;0.6410;-3.2859;
415370909260635;-4.8221;0.2171;-4.0956;
415370919365115;-7.3708;-0.1854;-6.9535;
415370929469542;-12.2073;-0.4705;-5.1138;
415370939580583;-10.3220;0.8853;-1.6738;
415370949685062;-7.7303;0.3990;-2.0426;
415370959789490;-9.8815;-0.6168;-4.0382;
415370969893187;-10.4683;-0.6144;-1.6020;
415370979997667;-8.3195;0.9787;-0.3467;
415370990102094;-7.7112;-0.4202;-2.8235;
415371000198500;-11.7739;-1.4145;-3.8800;
415371010302979;-9.0215;0.2865;-1.3337;
415371020407406;-4.7815;0.1499;-1.4055;
415371030512667;-6.3215;-0.9090;-4.4094;
415371040617146;-18.7352;0.0254;-5.5352;
415371050721573;-18.1531;1.2015;-0.3658;
415371060830167;-4.8365;1.6208;2.5352;
415371070934594;-3.6410;0.0972;-1.1492;
415371081039073;-8.6596;-0.2381;-2.7948;
415371091143292;-12.0685;0.8375;-3.7101;
415371101247771;-15.9709;-0.3532;-4.9986;
415371111352198;-13.0220;-0.1089;-3.2979;
415371121457146;-14.5693;-0.3915;-0.4280;
415371131561625;-16.9050;-1.0932;1.0857;
415371141666052;-10.3869;0.3870;3.2895;
415371151772042;-4.9035;0.7872;1.6726;
415371161876521;-5.3994;-0.5327;-1.2257;
415371171980948;-6.3434;-0.1113;-6.4672;
415371182100740;-10.0875;-0.1256;-14.8681;
415371192205219;-7.7423;-1.4336;-10.5180;
415371202309698;-0.8001;-0.5830;-7.7321;
415371212411625;-0.9485;-2.1114;-10.9301;
415371222516052;-14.5956;-0.9257;-10.0965;
415371232620531;-44.4126;0.3440;-3.1110;
415371242706417;2.1942;0.0159;-0.1143;
415371252810896;20.4410;-0.2022;3.5530;
415371262915323;-10.0561;-2.5164;-7.6074;
415371273020271;-20.8672;-1.6705;-8.4051;
415371283124750;-12.0709;0.4205;-3.8034;
415371293229229;-7.5482;0.5094;-1.4270;
415371303329958;-5.8953;0.4205;2.4440;
415371313434437;-4.9083;0.6912;1.7423;
415371323538865;-11.9800;1.3645;-1.1348;
415371333640271;-12.3655;1.9394;-1.0965;
415371343744750;-9.5581;1.5802;2.9638;
415371353849177;3.7274;0.8782;-1.6403;
415371363950271;-14.1574;-2.6695;-26.1317;
415371374054698;-31.7979;-4.0038;-4.6872;
415371384159177;2.9441;0.7319;21.9171;
415371394276625;5.9360;-0.0945;-3.0607;
415371404381104;-15.5061;-1.1363;-11.4162;
415371414485531;-15.1708;0.7032;6.2650;
415371424569021;-8.4416;2.4018;1.8715;
415371434673500;-4.1704;0.6362;-6.6182;
415371444777979;-5.5816;-0.1496;-3.7412;
415371454900583;-12.9691;-0.7053;-3.3386;
415371465005010;-10.2622;0.0900;-4.4958;
415371475109490;-12.8877;-1.2203;-6.8001;
415371485216729;-13.5057;-0.8656;-1.2930;
415371495321208;-3.8925;-0.2405;1.8236;
415371505425635;-8.9542;-0.7029;-6.1845;
415371515525896;-9.9532;-0.3147;-1.5326;
415371525630375;-6.5515;1.8676;0.5085;
415371535734802;-9.2010;0.4158;-4.8215;
415371545835896;-12.8351;1.4195;-3.0440;
415371555940375;-8.9518;1.8197;-0.5240;
415371566044802;-5.8594;1.7836;-2.6632;
415371576158917;-5.5576;1.2879;-1.8081;
415371586263396;-15.5396;1.5945;-1.3600;
415371596367823;-17.0919;0.9787;-4.9555;
415371606461208;-9.8743;0.5835;-3.6141;
415371616565687;-2.6064;0.4735;2.0369;
415371626670115;-6.3242;0.6912;-0.7445;
415371636770167;-15.6401;0.8088;-2.9148;
415371646874646;-8.2023;1.1967;1.9169;
415371656979073;-0.3855;3.1684;-2.8908;
415371667091417;-17.4966;1.6591;-4.9053;
415371677195896;-10.5975;1.2903;-0.1789;
415371687300323;-7.4261;1.6376;-4.3400;
415371697409333;-8.7652;1.3836;-0.4017;
415371707513812;-10.2598;1.7907;2.0297;
415371717618240;-6.6930;0.5955;-7.9116;
415371727720687;-15.1899;1.0675;-8.7380;
415371737825167;-10.2191;0.8088;4.3702;
415371747929594;-4.9971;1.1082;1.0690;
415371758025271;-5.6916;0.5883;-4.5293;
415371768129750;-9.9580;0.3535;-3.9568;
415371778234177;-11.5534;0.2363;-2.9913;
415371788350271;-4.2592;-0.3147;-0.8115;
415371798454646;-9.4597;-0.7101;-6.7355;
415371808559073;-14.6318;-3.2997;-4.4213;
415371818653135;-10.0322;-1.8814;4.1163;
415371828757510;-6.4917;-1.2562;-1.8488;
415371838861937;-13.3621;-2.6121;-8.3022;
415371848980375;-15.4391;-1.8957;0.8246;
415371859084750;-4.1584;-0.3218;2.2645;
415371869189177;-12.7415;-0.0993;-4.0645;
415371879278135;-10.5401;-0.7149;-2.7517;
415371889382510;-6.4439;0.9547;-0.7612;
415371899486937;-6.8342;1.3645;-4.5987;
415371909597354;-11.5582;-0.5112;-6.1439;
415371919701729;-12.6123;-0.4825;-3.1711;
415371929806156;-6.5348;-0.5160;-2.2582;
415371939915167;-7.7040;-1.1749;-6.2228;
415371950019542;-13.4554;-1.3017;-5.8804;
415371960123969;-12.1116;-1.4767;-1.3983;
415371970223500;-5.5744;-0.7771;0.0485;
415371980327875;-7.1315;-1.0286;-5.1497;
415371990432302;-6.5563;-0.4490;-4.3831;
415372000534229;-8.6046;-0.8082;-3.4346;
415372010638656;-11.1054;-0.7531;-4.0071;
415372020743031;-8.8107;-1.3711;-2.7182;
415372030852562;-9.2970;-0.1065;-4.7641;
415372040956990;-21.3990;-1.3543;-0.6748;
415372051061365;-13.7883;-1.5628;0.8581;
415372061157458;-5.3324;0.1929;-1.0175;
415372071261833;-3.6532;-0.4968;-0.7636;
415372081366260;-8.7123;-1.5963;-5.1903;
415372091493083;-10.9068;-0.3604;-4.0358;
415372101597458;-8.0082;1.4171;-3.4633;
415372111701885;-12.1379;0.0446;-3.6428;
415372121790479;-8.2095;-0.2237;-0.8402;
415372131894854;-6.8366;-0.8465;-3.7292;
415372141999281;-8.0656;0.6218;-5.1377;
415372152100896;-7.1961;-1.0621;-0.9144;
415372162205271;-9.2441;-1.4145;-7.9164;
415372172309698;-13.3645;-2.2672;-11.9073;
415372182423135;-10.7581;-1.0932;-0.9960;
415372192527510;-8.8083;-0.6766;3.7161;
415372202631937;-7.7614;-0.3772;-2.3806;
415372212756312;-9.4023;-0.0176;-3.4872;
415372222860687;-7.4668;0.3727;0.3673;
415372232965115;-9.3616;1.7333;-1.1707;
415372243039021;-10.2431;0.6147;-5.4730;
415372253143448;-13.4722;-0.3748;-5.0372;
415372263247823;-6.2426;0.1929;1.6391;
415372273346000;-6.2737;0.7466;-3.7388;
415372283450427;-11.7500;-0.2812;-7.7297;
415372293554802;-11.5056;-0.0730;-0.3921;
415372303656104;-7.3253;1.0053;-0.6867;
415372313760479;-9.0814;0.7920;-4.5987;
415372323864906;-10.7151;-0.2022;-1.5494;
415372333970375;-8.1111;0.4205;-1.9421;
415372344074750;-6.9422;1.0890;-1.9804;
415372354179177;-7.2990;-0.0392;-3.7484;
415372364359750;-10.3149;-0.1687;-5.4299;
415372374464177;-13.1297;0.2985;-2.8765;
415372384568552;-11.4099;0.3440;-1.5589;
415372394596677;-8.7939;-0.0153;-1.2787;
415372404701104;-7.5601;-0.2500;-1.3313;
415372414805479;-7.3564;-0.1639;-1.9516;
415372424927510;-9.3114;0.7295;-3.5614;
415372435031885;-11.2828;1.6567;-4.1243;
415372445136312;-9.7735;1.2760;-2.1482;
415372455232354;-9.5004;1.1177;-2.6441;
415372465336729;-7.3732;0.2602;-3.1325;
415372475441156;-7.2870;-0.0802;-1.8440;
415372485535219;-9.7783;1.0699;-2.1673;
415372495639646;-8.3435;1.0002;-4.1148;
415372505744021;-13.2374;1.0842;-4.5556;
415372515852771;-10.0274;0.7490;-0.6413;
415372525957146;-7.5841;1.4124;-0.2270;
415372536061573;-11.4099;1.1847;-1.2162;
415372546195062;-9.2683;0.7777;-0.9502;
415372556299437;-6.3290;1.4794;-2.3830;
415372566403865;-7.9771;0.9978;-2.3614;
415372576514646;-11.7978;1.4411;-4.9675;
415372586619021;-14.8591;1.4913;-2.8044;
415372596723448;-7.1722;0.4588;1.2440;
415372606806052;-3.6580;0.1570;-3.3003;
415372616910479;-7.9986;-0.2572;-3.8991;
415372627014854;-13.9466;1.8461;-2.1218;
415372637112458;-10.2215;1.0555;-5.3916;
415372647216833;-8.3530;-0.0296;-1.6881;
415372657321260;-9.3784;-0.4131;-2.4523;
415372667415479;-12.5046;-0.9305;-3.4729;
415372677519906;-9.7496;-1.6804;-0.8402;
415372687624281;-6.3841;-2.2552;-1.7336;
415372697741312;-8.9471;-2.1114;-2.4811;
415372707845740;-4.1321;-2.1473;-4.7426;
415372717950115;-16.2296;-1.5221;-8.1488;
415372728052771;-18.0930;-0.4226;-1.3265;
415372738157146;-3.3826;-0.4466;2.2573;
415372748261573;-4.2688;-1.0047;-2.6489;
415372758362719;-13.6448;-0.5447;-4.7593;
415372768467094;-11.0240;0.0589;-2.7517;
415372778571521;-2.6160;1.7955;-4.1889;
415372788682771;-7.3158;-0.5327;-6.0191;
415372798787146;-11.8433;0.1164;-7.8733;
415372808891573;-12.3033;1.0172;-3.3362;
415372819003552;-5.7586;0.6458;-2.7470;
415372829107927;-8.6094;-0.0802;-5.5280;
415372839212354;-8.7939;0.6027;0.0748;
415372849307771;-7.5194;2.1287;-5.5089;
415372859412146;-12.3464;0.1164;-5.0731;
415372869516573;-8.0297;2.9647;-1.5589;
415372879618604;-9.8862;2.0303;-5.1233;
415372889722979;-12.2411;1.1249;-3.9182;
415372899827406;-7.4596;1.9872;-0.9168;
415372909932562;-7.7327;1.1800;-2.9746;
415372920036937;-10.0609;1.9466;-2.5170;
415372930141365;-9.0048;2.2795;-3.9784;
415372940244229;-10.3268;2.0231;-4.6968;
415372950348604;-8.5615;2.0833;-1.3504;
415372960453031;-8.4368;0.9428;-3.1205;
415372970566521;-9.1292;1.0771;-2.9698;
415372980670948;-10.5329;1.2855;-1.9732;
415372990775323;-12.7223;1.2517;-2.5576;
415373000865687;-3.1717;0.3464;-1.3361;
415373010970115;-7.0259;-1.0717;-4.3137;
415373021074490;-13.7405;-0.4394;-3.1831;
415373031180896;-8.2884;1.0771;-3.0105;
415373041285271;-10.7557;-0.2812;-2.9195;
415373051389698;-9.6156;-0.8393;-1.4509;
415373061489333;-9.8049;0.0159;-0.9024;
415373071593708;-9.1890;-1.1677;-0.8043;
415373081698135;-10.6289;-0.6861;-2.5146;
415373091825635;-8.9279;-0.9999;-1.8679;
415373101930010;-5.9982;-0.6502;-2.5193;
415373112034437;-10.0202;-1.2634;-5.7078;
415373122129437;-17.0895;0.0494;-2.3853;
415373132233812;-9.1723;0.2459;-0.4304;
415373142338240;-6.8175;-0.4896;-1.7432;
415373152432146;-7.8811;-1.7952;0.1875;
415373162536521;-10.0561;-0.1472;-3.4394;
415373172640948;-13.6663;0.1259;-3.1735;
415373182749646;-7.0618;-0.2692;-1.3289;
415373192854073;-7.9412;0.0039;-3.0535;
415373202958448;-9.9461;-0.2859;-3.6141;
415373213047250;-9.0861;0.4588;-3.4155;
415373223151677;-7.7662;-0.3700;-3.5877;
415373233256052;-10.5784;0.4636;-2.0764;
415373243363552;-9.6371;0.4397;-4.4815;
415373253467927;-15.4941;-0.4729;-4.6753;
415373263572354;-8.2908;0.2794;0.7361;
415373273686208;-3.1813;-0.3413;-0.7397;
415373283790635;-4.7551;-1.9582;-4.7426;
415373293895010;-8.4081;-1.4073;-6.8818;
415373303992250;-14.1191;1.6472;-4.4719;
415373314096625;-14.6390;3.3335;-1.6881;
415373324201000;-8.5615;1.6184;0.0006;
415373334325792;-6.9900;-1.0358;0.2450;
415373344430167;-9.3855;-0.3413;-1.4055;
415373354534594;-7.3612;-0.3170;-4.3328;
415373364617302;-11.7308;-0.8874;-7.2362;
415373374721729;-15.6209;0.5835;-2.9148;
415373384826104;-10.9355;3.5061;0.8629;
415373394934646;-4.5036;0.0494;2.1757;
415373405039073;-5.5816;-0.4346;-1.7743;
415373415143448;-7.0857;0.8160;-3.4418;
415373425264750;-4.8772;2.0088;-8.1368;
415373435369125;-11.9318;-1.0119;-10.2616;
415373445473552;-11.6635;-0.2835;-7.4949;
415373455574437;-9.2755;4.6917;-0.0497;
415373465678812;-10.5138;2.2268;2.1972;
415373475783240;-9.5988;0.8949;-0.4929;
415373485891000;-9.9987;1.4506;-2.0282;
415373495995375;-10.5999;-0.8441;-4.1770;
415373506099802;-12.7319;-1.7593;-5.1640;
415373516180062;-12.5213;1.3669;-0.1789;
415373526284490;-4.2162;3.0317;2.7075;
415373536388865;-6.5037;-0.2859;-1.1468;
415373546497979;-10.4970;-0.6790;-3.6790;
415373556602406;-8.3387;0.8638;-6.5079;
415373566706781;-8.1733;1.0914;-4.8024;
415373576841208;-6.5997;1.6902;-2.6656;
415373586945583;-12.2530;1.6424;-3.0392;
415373597050010;-13.3406;1.6400;-2.1099;
415373607129750;-10.1186;1.1201;0.0918;
415373617234177;-10.1474;-0.3508;-0.0784;
415373627338552;-5.4353;-1.0382;-3.4107;
415373637437667;-8.2597;-5.0722;-7.3941;
415373647542042;-11.5534;-3.6972;-6.1463;
415373657646469;-9.4741;1.4195;-1.9516;
415373667754437;-9.3832;2.0686;0.3215;
415373677858812;-9.9437;1.5153;0.9996;
415373687963240;-11.0336;2.2555;0.2737;
415373698067458;-10.8757;0.7104;-2.0764;
415373708171885;-6.5827;-1.3639;-4.2993;
415373718276260;-8.7532;-1.9172;-6.3185;
415373728381729;-6.6619;-1.9149;-8.0172;
415373738486156;-7.7734;-2.1233;-5.9450;
415373748590531;-12.3631;-0.6933;-2.9004;
415373758699750;-9.6036;5.5253;1.7949;
415373768804177;-10.5449;3.3814;1.5458;
415373778908552;-12.8184;-0.2620;-2.1314;
415373789006729;-5.4233;0.8830;-2.0521;
415373799111052;-6.4630;-0.1974;-4.3017;
415373809215375;-15.3072;-0.4155;-9.0784;
415373819317875;-12.8255;1.9992;-3.7484;
415373829422198;-4.6400;4.3325;2.3004;
415373839526469;-6.9829;1.6615;-1.0630;
415373849632250;-11.0551;-0.8898;-3.7412;
415373859736573;-6.8486;1.3382;-4.6753;
415373869840844;-8.8059;0.4421;-5.7939;
415373879947875;-11.7260;0.3464;-4.7617;
415373890052198;-8.3052;3.0556;-0.1310;
415373900156469;-9.0407;1.8485;-0.0018;
415373910256729;-10.6648;0.8734;-1.2305;
415373920361052;-5.2053;0.2937;-1.6068;
415373930465323;-15.4295;-1.5293;-6.6972;
415373940570479;-14.6845;0.1522;-4.6035;
415373950674802;-5.6677;0.8518;2.6788;
415373960779073;-5.2941;0.3511;1.5218;
415373970882875;-9.5342;-2.2023;-4.7351;
415373980987198;-11.7595;-0.6096;-6.1487;
415373991091469;-7.1818;2.3177;-2.6991;
415374001204333;-8.1015;1.9418;-2.2582;
415374011308656;-11.3306;1.1704;-2.9435;
415374021412927;-10.7677;0.8710;-2.3228;
415374031509854;-7.9460;2.1120;-0.6485;
415374041614177;-8.7266;0.1618;-2.3447;
415374051718448;-12.4469;-1.4216;-6.8001;
415374061822302;-10.2909;-0.6263;-5.6288;
415374071926625;-7.7662;1.0002;-2.1649;
415374082030896;-11.2708;1.0723;-0.8833;
415374092143500;-7.8404;1.8293;-0.1190;
415374102247823;-7.5194;0.3129;-1.1300;
415374112352094;-8.8729;-0.4155;-4.1076;
415374122455896;-9.8791;0.2650;-5.8134;
415374132560219;-12.0135;1.7285;-3.5399;
415374142664490;-8.1039;2.6749;-0.5360;
415374152761729;-5.5648;0.2530;-0.8880;
415374162866052;-7.3301;-2.0779;-6.6781;
415374172970323;-12.3200;-3.5342;-7.8350;
415374183078083;-13.6687;-0.0416;-4.0119;
415374193182406;-9.2178;4.8284;2.8178;
415374203286729;-10.9762;2.4066;4.4563;
415374213390219;-11.2349;1.1369;0.4558;
415374223494542;-7.7662;-0.5423;-2.0019;
415374233598812;-8.4153;-1.9415;-4.6322;
415374243694542;-7.3349;-0.1567;-7.8015;
415374253798865;-7.0044;-0.9281;-5.6527;
415374263903135;-8.1565;1.2541;-4.4839;
415374274011000;-9.9796;3.7648;-2.6728;
415374284115323;-11.0719;3.7098;0.1349;
415374294219646;-8.7628;2.3946;0.4606;
415374304344646;-10.9786;0.0159;-2.0692;
415374314448917;-13.3406;-1.3113;-3.6117;
415374324553292;-8.4682;-0.8656;-4.2060;
415374334636937;-7.1961;0.2578;-0.8498;
415374344741260;-6.6930;0.4783;-3.1424;
415374354845583;-7.7423;0.2267;-5.8277;
415374364952562;-10.1426;1.7189;-4.8670;
415374375056885;-11.2158;3.9685;-3.0918;
415374385161208;-12.7705;3.2139;0.1708;
415374395288604;-9.3520;3.1636;1.9555;
415374405392927;-7.8500;1.7501;1.2559;
415374415497198;-9.3066;-0.1161;-3.7053;
415374425634229;-10.0875;-2.5499;-8.3716;
415374435738552;-9.6586;-1.8814;-7.2936;
415374445842823;-5.3850;1.4052;-1.6690;
415374455899125;-7.7925;2.3201;-0.3826;
415374466003448;-8.8848;1.9848;-1.0247;
415374476107719;-8.6812;1.4315;-2.8451;
415374486234021;-9.9604;0.9356;-4.1674;
415374496338344;-12.9284;1.4219;-4.1818;
415374506442615;-8.9207;1.2446;-2.0282;
415374516518187;-7.9364;-0.7149;-0.7684;
415374526622510;-12.4421;-0.6502;-3.5806;
415374536726781;-11.3498;0.5261;-0.2868;
415374546837562;-9.0885;0.9619;-0.3419;
415374556941885;-10.4827;0.0613;-1.0726;
415374567046156;-7.4477;0.4807;-1.5757;
415374577149854;-5.9264;0.8303;-4.2156;
415374587254177;-10.3582;-0.5542;-5.7843;
415374597358448;-8.6907;3.5827;-3.0224;
415374607464542;-5.3587;3.2809;-2.3447;
415374617568865;-13.7022;-0.3170;-5.5451;
415374627673135;-13.8003;1.6974;-2.6058;
415374637776208;-6.1636;1.9298;0.3553;
415374647880531;-8.5591;-1.1243;-1.6140;
415374657984802;-8.9375;-3.4241;-5.3175;
415374668092146;-8.1852;-0.3556;-4.6729;
415374678196469;-10.1856;-0.3604;-5.5427;
415374688300740;-12.5453;2.2627;-2.7039;
415374698409125;-11.5463;3.9179;2.4727;
415374708513448;-9.8408;4.3708;3.1651;
415374718617719;-9.0574;0.8231;-0.2414;
415374728720271;-8.7413;-1.3591;-4.6155;
415374738824594;-6.2593;-3.2539;-7.8446;
415374748928865;-7.4764;-1.9340;-8.1129;
415374759032562;-10.2048;-1.0717;-3.4131;
415374769136885;-9.7663;4.3971;-1.1468;
415374779241156;-10.0804;4.0044;2.0249;
415374789344229;-14.0710;1.7189;0.8605;
415374799448656;-10.2383;-0.2070;0.0078;
415374809553031;-6.4917;-1.2538;-3.0248;
415374819653292;-8.5184;-4.8422;-8.6471;
415374829757719;-8.4993;-2.7870;-9.1382;
415374839862094;-6.1158;-0.1304;-4.4501;
415374849972979;-10.7007;1.7812;-1.8535;
415374860077406;-13.6735;4.4450;2.0225;
415374870181781;-8.0441;4.3086;3.3520;
415374880288500;-5.7108;0.0876;-3.0535;
415374890392875;-9.2827;-3.8650;-8.3716;
415374900497302;-12.4684;-1.7521;-8.9130;
415374910595167;-11.4410;0.7848;-2.8741;
415374920699594;-10.1521;0.8566;0.7098;
415374930803969;-11.4793;-0.1567;2.1685;
415374940912458;-3.8136;-0.6335;0.5252;
415374951016833;-5.7876;-1.9726;-2.4428;
415374961121260;-12.0637;-1.0167;-7.3582;
415374971220583;-9.9915;0.0470;-5.7317;
415374981324958;-11.1559;0.0398;-3.9855;
415374991429385;-13.7357;0.6577;0.6260;
415375001534646;-7.0642;3.0843;4.2000;
415375011639073;-4.3908;-0.3314;-0.4448;
415375021743448;-9.2130;-6.3036;-9.7944;
415375031849542;-11.0240;-5.3931;-11.3157;
415375041953969;-7.9603;-1.3232;-6.5079;
415375052058344;-12.7825;2.0710;2.9183;
415375062163812;-10.0202;7.0513;6.8901;
415375072268240;-5.7610;4.4836;1.9074;
415375082372615;-10.1976;-3.1750;-6.4241;
415375092484125;-9.6730;-4.2290;-11.5361;
415375102588552;-7.3780;-0.5638;-7.4518;
415375112692927;-8.0919;2.3803;-3.9784;
415375122788396;-11.7356;3.5539;-1.0606;
415375132892771;-11.7212;6.1938;3.3018;
415375142997198;-9.8169;5.5205;3.5291;
415375153104750;-9.4837;1.9298;-2.1314;
415375163209177;-6.7672;-1.4169;-3.9736;
415375173313552;-4.1249;-0.5375;-8.1081;
415375183420635;-10.8036;0.4134;-7.3271;
415375193525010;-15.1059;5.0776;-0.7035;
415375203629437;-11.9465;6.5554;2.6166;
415375213726469;-7.0092;2.0255;1.6992;
415375223830896;-7.2631;-0.6215;-0.8904;
415375233935271;-7.5721;-1.0095;-4.4719;
415375244054854;-9.1436;0.0757;-4.9053;
415375254159229;-9.8719;-0.0057;-3.5495;
415375264263604;-11.1918;0.2602;-2.8283;
415375274408083;-5.1646;1.5176;-0.8880;
415375284512458;-11.6659;0.0159;-2.0043;
415375294616833;-12.2698;0.7394;-0.6939;
415375304674021;-5.5143;1.7046;-1.3504;
415375314778448;-5.7849;-3.0649;-6.8240;
415375324882771;-13.4172;-6.9574;-7.6193;
415375335024125;-12.2842;-1.5389;-1.2138;
415375345128500;-9.6897;2.5813;2.0177;
415375355232927;-7.7016;2.1503;3.0814;
415375365297771;-6.7193;-2.5020;-2.0139;
415375375402146;-12.1187;-3.8315;-7.8924;
415375385506573;-14.7945;-2.4132;-5.4706;
415375395606625;-6.1469;0.4950;-0.6820;
415375405711052;-8.0106;0.6338;-1.5084;
415375415815427;-9.9174;-1.9630;-3.3912;
415375425901208;-13.7405;-0.0511;-3.7890;
415375436005635;-9.5315;1.5538;-0.8402;
415375446110010;-5.6127;-0.2333;-2.7733;
415375456224385;-7.3253;-3.0482;-6.8121;
415375466328812;-10.0561;0.3655;-5.0010;
415375476433187;-8.0465;3.6066;-3.4825;
415375486545375;-9.6634;-0.1448;-3.5566;
415375496649750;-9.2731;1.3693;-4.9914;
415375506754177;-5.3946;0.7223;-2.7637;
415375516854542;-1.6361;0.7343;-5.3414;
415375526958917;-16.3923;-0.4944;-6.7977;
415375537063344;-25.8281;5.8920;-0.2318;
415375547173500;-10.0899;5.4488;3.1244;
415375557277927;-5.8020;-0.5495;6.2889;
415375567382302;-1.1665;-1.2251;1.2248;
415375577485896;-6.9111;-2.1951;-11.7206;
415375587590271;-14.2292;0.0685;-8.0507;
415375597694698;-9.8886;2.9097;-2.5217;
415375607805792;-10.2335;4.6654;-0.5240;
415375617910219;-6.5925;3.0843;3.6036;
415375628014594;-9.0263;2.5430;-0.2701;
415375638114750;-6.4295;2.0423;-2.1817;
415375648219125;-6.6284;-0.1017;-9.7872;
415375658323552;-14.3898;-2.4829;-12.7481;
415375668426625;-11.4649;-0.8560;-1.5156;
415375678531000;-8.9542;3.3311;0.8294;
415375688635427;-10.4635;1.3190;0.7433;
415375698742042;-11.7954;-0.2859;0.2952;
415375708846417;-9.2513;-0.0009;-1.6642;
415375718950844;-9.4095;-0.0440;-2.7829;
415375729056417;-13.1058;0.3368;-1.8153;
415375739160844;-10.0947;-0.0009;0.5563;
415375749265219;-15.1780;0.6912;0.1947;
415375759366000;-12.0972;0.4397;-0.5767;
415375769470427;0.5031;-0.3485;-1.2305;
415375779574802;4.7312;-1.4862;-6.6398;
415375789679750;-8.7075;-1.1940;-13.8093;
415375799784125;-17.9040;0.3511;-8.5920;
415375809888552;-14.7323;2.6390;-0.9168;
415375819995271;-8.6836;1.7644;1.3947;
415375830099698;-4.6424;-0.8827;-0.4017;
415375840204073;-8.1494;-3.0123;-5.5137;
415375850314958;-12.5907;-1.5939;-4.9986;
415375860419385;-11.2851;-0.8130;-4.9938;
415375870523760;-14.8759;-1.4719;-4.3591;
415375880631625;-10.2000;-0.1639;3.9652;
415375890736000;-5.7730;1.9346;7.9155;
415375900840427;-4.8748;3.3790;1.0881;
415375910941937;-8.2669;0.8064;-8.3764;
415375921046312;-11.6061;0.1618;-7.1402;
415375931150740;-9.4023;1.5081;-2.4332;
415375941238396;-8.8920;1.7357;-1.7599;
415375951342823;-8.3674;1.1225;-3.6571;
415375961447198;-6.7481;0.7247;-4.8263;
415375971563917;-9.1101;0.1427;-5.8971;
415375981668292;-12.6051;0.5620;-5.2502;
415375991772719;-10.1282;0.4253;-1.2787;
415376001869750;-8.2525;0.0805;-1.0199;
415376011974177;-12.2865;-0.0057;-1.1659;
415376022078552;-11.0886;-0.0464;0.4175;
415376032181312;-7.6199;0.0637;0.9063;
415376042285687;-7.4859;-0.6215;-1.9038;
415376052390115;-9.0407;0.5046;-4.4213;
415376062501052;-11.0815;0.8973;-3.8560;
415376072605479;-7.6872;1.0890;-0.9598;
415376082709854;-7.6367;1.4100;-2.6417;
415376092840479;-11.4673;0.8112;-5.2863;
415376102944854;-10.9092;0.6793;-2.8475;
415376113049281;-7.4764;0.4660;-1.9181;
415376123129333;-10.0466;-0.3461;-4.3759;
415376133233708;-11.1269;-0.7866;-3.3625;
415376143338135;-8.3794;0.3248;-0.3371;
415376153439437;-8.7580;0.2028;-2.4236;
415376163543865;-10.8491;0.3727;-2.3949;
415376173648240;-8.7509;0.2889;-0.4376;
415376183758552;-9.6730;0.9978;-0.9144;
415376193862979;-8.9255;-0.1448;-1.9660;
415376203967354;-9.5124;0.4998;-3.7436;
415376214058500;-10.0804;-0.6287;-3.4107;
415376224162875;-9.4980;0.2602;-2.5002;
415376234267302;-8.2837;-0.2357;-3.0918;
415376244465687;-10.1976;0.3392;-3.6619;
415376254570062;-10.1952;0.3894;-3.1181;
415376264674437;-7.9002;0.0015;-1.6953;
415376274691000;-6.8533;0.0876;-3.8177;
415376284795427;-8.3267;-0.1950;-3.5686;
415376294899802;-11.1054;0.4134;-3.0799;
415376305044021;-13.4842;0.1522;-2.0186;
415376315148396;-8.7389;0.0565;-0.7373;
415376325252771;-7.6152;-0.5112;-2.3758;
415376335312354;-9.3520;0.0900;-1.9588;
415376345416729;-9.6826;0.4038;-2.6895;
415376355521156;-8.7556;0.2841;-3.1854;
415376365623917;-8.2980;0.9428;-2.9506;
415376375728292;-9.9102;0.2435;-2.7972;
415376385832719;-11.4721;0.5668;-2.7517;
415376395943083;-8.7844;0.6625;-0.5192;
415376406047510;-7.9914;0.4110;-2.3351;
415376416151885;-11.4075;0.1929;-5.3509;
415376426243917;-9.3257;-0.6742;-1.1300;
415376436348344;-6.9709;0.3176;-2.4308;
415376446452719;-9.2082;0.6338;-5.1209;
415376456567979;-11.9608;0.1642;-3.0440;
415376466672406;-10.6672;0.5955;0.1899;
415376476776781;-7.0522;0.8495;-2.1864;
415376486887250;-9.5291;0.1810;-3.2453;
415376496991677;-8.7796;0.0087;-3.6188;
415376507096052;-7.1865;-0.0105;-3.2836;
415376517199750;-11.3713;0.0733;-4.9149;
415376527304177;-11.3617;-0.5662;-2.5098;
415376537408552;-8.6309;0.5955;-1.5446;
415376547510583;-10.9929;0.6410;-2.0139;
415376557614958;-8.6189;1.2326;0.1493;
415376567719385;-7.1267;-0.1615;-4.0669;
415376577831937;-10.1856;-0.0583;-6.2731;
415376587936312;-10.7414;-0.0754;-3.5303;
415376598040740;-9.1723;-0.5590;-0.5719;
415376608153969;-11.5534;0.6027;-0.7995;
415376618258344;-9.3257;0.6314;-0.3826;
415376628362771;-6.6308;0.2554;-1.4940;
415376638454385;-8.5017;1.1584;-6.9679;
415376648558760;-8.7987;-0.1926;-5.4514;
415376658663187;-8.6764;-0.3532;-2.6776;
415376668767146;-8.4416;-0.4178;-2.6943;
415376678871521;-10.7414;0.3559;-4.0478;
415376688975948;-12.3248;-0.3075;-0.5791;
415376699085375;-8.6166;0.1666;1.6678;
415376709189802;-10.5090;-0.5112;-2.5911;
415376719294177;-10.4109;-0.2716;-3.5495;
415376729406833;-9.3712;0.7633;-0.3897;
415376739511208;-6.0197;0.3583;-4.7856;
415376749615635;-8.6572;1.0101;-2.7589;
415376759710479;-8.4634;0.2554;-0.9574;
415376769814854;-10.5879;0.1953;-4.1937;
415376779919281;-11.7619;0.3057;-1.9564;
415376790028708;-6.8390;-0.2572;0.3482;
415376800133240;-10.1402;-0.3461;-5.1449;
415376810237719;-12.4756;-0.3123;-2.7517;
415376820337354;-8.0489;-0.7795;-0.1789;
415376830441885;-10.7414;0.1140;-5.0707;
415376840546365;-10.8924;-0.1663;-3.0535;
415376850666208;-7.3851;-0.4346;1.6774;
415376860770740;-6.4080;0.0805;-1.9349;
415376870875219;-10.9618;-0.0296;-5.3821;
415376880958500;-10.0250;0.1953;-2.1147;
415376891063031;-8.2095;-0.3867;-1.4629;
415376901167510;-10.0633;-0.7890;-3.4801;
415376911271208;-17.3554;-1.1438;-1.6618;
415376921375740;-6.4319;-1.1315;0.3167;
415376931480219;-0.6299;0.4014;-5.4586;
415376941591729;-11.4793;-0.0778;-6.4217;
415376951696260;-13.9346;-0.1615;-2.0545;
415376961800740;-11.1174;-0.4394;-1.3050;
415376971902667;-7.5960;-0.0655;-0.4977;
415376982007198;-5.9743;-0.0897;-1.0965;
415376992111677;-9.9365;0.0254;-2.5986;
415377002210687;-13.0364;0.1762;-4.2586;
415377012315219;-9.7161;-0.3194;-2.7589;
415377022419698;-8.4849;-0.5423;-4.5174;
415377032528135;-13.5945;-1.0621;-4.6537;
415377042632667;-5.3109;0.0182;3.9461;
415377052737146;-4.4605;0.2052;-2.9889;
415377062838135;-11.9584;-0.0535;-8.9417;
415377072942667;-12.4325;0.5596;-3.8369;
415377083047146;-9.0479;-0.4561;0.1445;
415377093182042;-7.2272;-0.0440;-1.2930;
415377103286521;-8.8298;0.0206;-4.6370;
415377113391052;-12.1044;-0.5351;-4.2036;
415377123471000;-6.0703;0.6338;-2.8379;
415377133575531;-7.3301;-0.1902;-4.5891;
415377143680010;-14.2220;-0.4585;-3.5758;
415377153786417;-8.7748;0.3799;-1.1133;
415377163890896;-7.1578;0.4158;-3.0416;
415377173995427;-8.6764;-0.2812;-1.7575;
415377184117562;-8.9112;0.5812;-1.7815;
415377194222042;-11.2947;0.2841;-3.8201;
415377204326573;-11.5176;0.0757;-2.7589;
415377214400896;-8.0680;0.4349;-1.5781;
415377224505427;-8.0058;-0.1615;-3.1038;
415377234609906;-7.4429;0.5548;-0.8713;
415377244734750;-5.8905;0.9165;-2.7996;
415377254839281;-12.4469;-0.0583;-8.0028;
415377264943760;-14.2747;-0.2835;-3.9760;
415377275079854;-9.5076;0.8901;2.7820;
415377285184333;-8.9853;0.1379;-0.6173;
415377295288865;-7.2129;-0.5016;-2.3204;
415377305368708;-6.7959;-0.4298;-4.2826;
415377315473240;-11.4147;-0.0535;-5.6599;
415377325577719;-8.8801;0.7896;-1.4916;
415377335662979;-9.4717;0.8877;-0.8163;
415377345767510;-13.0699;1.3765;-2.6249;
415377355871990;-11.0169;1.6496;-1.6810;
415377366001625;-6.4295;0.0709;-1.5326;
415377376106156;-4.5132;-0.2788;-3.7149;
415377386210635;-8.5950;-1.0310;-6.6254;
415377396303917;-9.1220;-0.2357;-5.7939;
415377406408448;-11.9584;1.1967;-3.0224;
415377416512927;-10.3989;1.8461;0.7768;
415377426600687;-9.4358;1.7548;0.3601;
415377436705219;-10.4994;1.8556;-1.3146;
415377446809698;-8.3578;0.7729;-3.1926;
415377456911000;-9.5773;-0.7101;-4.9986;
415377467015531;-11.3426;-1.0860;-1.9540;
415377477120010;-15.0006;0.2865;-0.1645;
415377487235375;-8.6812;1.0555;2.4535;
415377497339906;-4.7934;0.7944;-0.2198;
415377507444385;-5.8714;0.4759;-3.3099;
415377517544125;-6.9589;1.0364;-4.3089;
415377527648656;-11.7404;1.8652;-5.0133;
415377537753135;-15.8246;2.3393;-4.5843;
415377547867979;-14.1335;1.1321;-1.5924;
415377557972510;0.5749;-0.9592;-0.6413;
415377568076990;-2.3043;-0.9616;-5.0659;
415377578174125;-14.1024;0.1427;-7.6600;
415377588278604;-16.7181;0.6170;-2.9076;
415377598383135;-12.7609;2.2579;0.7744;
415377608553969;-5.8475;0.9547;2.0154;
415377618658500;-2.2014;-0.3314;0.8895;
415377628762979;-9.2010;-0.0655;-6.0841;
415377638809125;-15.3263;1.1560;-4.9244;
415377648913656;-10.7055;0.5835;-3.1519;
415377659018135;-8.7485;-0.1137;-3.2596;
415377669116833;-8.4081;-0.0248;0.8824;
415377679221365;-7.5721;1.9777;0.6332;
415377689325844;-12.4062;1.0866;-4.7880;
415377699436937;-11.1847;-0.1304;-3.7388;
415377709541469;-6.7528;0.4397;-2.4858;
415377719645948;-7.9050;0.0781;-2.2774;
415377729763604;-9.9413;0.0206;-3.3625;
415377739868135;-10.5353;0.6458;-2.1123;
415377749972615;-8.4272;-0.3266;-3.5518;
415377760066000;-10.6887;-0.2357;-3.3960;
415377770170531;-12.0326;0.3057;-1.9038;
415377780275010;-8.7532;0.4902;0.5994;
415377790371729;-7.6657;-0.0945;-2.9602;
415377800476208;-9.5749;-0.6191;-4.4429;
415377810580687;-11.4625;0.4445;-2.5385;
415377820693969;-6.3864;-0.3338;-2.3327;
415377830798448;-7.9050;0.4253;-4.7737;
415377840902927;-11.4123;-0.3123;-2.4069;
415377851010479;-10.1569;0.2100;-2.7829;
415377861114958;-10.5257;0.5596;-2.9339;
415377871219437;-5.2508;0.2746;-1.7073;
415377881310167;-9.5725;-0.2979;-5.1497;
415377891414646;-14.2436;0.3559;-3.2572;
415377901519125;-8.9806;1.6256;1.1626;
415377911631312;-7.8619;-0.5303;-1.9947;
415377921735792;-11.8122;0.4684;-5.4945;
415377931840271;-11.0336;0.0422;0.7959;
415377941952875;-5.0593;1.3262;0.6811;
415377952057354;-8.3578;0.1834;-5.2983;
415377962161833;-8.3172;-0.0583;-4.7856;
415377972244750;-8.5472;-0.6861;-3.9640;
415377982349229;-10.1115;-0.4777;-1.3696;
415377992453708;-7.1507;0.3392;-2.3351;
415378002558083;-9.4932;-0.0559;-5.4826;
415378012662562;-11.0001;-1.3065;-4.0262;
415378022767042;-10.2742;-0.7651;-0.9359;
415378032875687;-10.7749;-0.2692;-2.5122;
415378042980167;-10.9810;-0.0440;-1.8416;
415378053084646;-8.9566;-0.6742;0.0461;
415378063186729;-6.6452;-0.7196;-2.9291;
415378073291208;-7.1001;-0.3099;-2.3782;
415378083395687;-7.2153;2.4114;-1.0606;
415378093522042;-8.9901;1.5057;-3.5399;
415378103626521;-9.8288;0.7247;-4.6346;
415378113731000;-13.3143;1.0436;-2.1745;
415378123814385;-14.0136;0.5237;-1.4964;
415378133918865;-10.0947;-0.4968;-0.4905;
415378144023344;-5.8451;-1.4121;-1.6834;
415378154124646;-4.6998;-0.8082;-4.1770;
415378164229125;-11.0169;-0.2548;-3.5303;
415378174333604;-11.7308;1.6328;-1.2858;
415378184455896;-9.2970;1.1704;-1.0271;
415378194560375;-6.2115;0.7872;-1.6331;
415378204664906;-10.2718;0.5118;-2.3925;
415378214763396;-12.9260;0.4493;-3.2453;
415378224867823;-7.4716;0.3464;-3.0990;
415378234972354;-6.9422;-1.7689;-5.4993;
415378245055740;-13.3214;-1.8191;-5.1185;
415378255160219;-10.4994;0.4950;-1.7838;
415378265264698;-8.4706;2.5406;1.6199;
415378275371312;-4.5108;0.7944;0.1062;
415378285475792;-8.4057;-0.0272;-4.2132;
415378295580271;-12.8590;0.9571;-5.2478;
415378305681833;-11.2134;1.8604;-2.0330;
415378315786312;-5.2101;0.3009;-1.7719;
415378325890792;-11.3067;-2.2672;-6.0311;
415378336000583;-14.7180;0.7585;-0.0832;
415378346105062;-9.1603;1.1919;0.2928;
415378356209542;-8.3507;-0.1424;-2.6201;
415378366319333;-8.7075;-0.4298;-2.3782;
415378376423812;-5.4879;1.2230;-1.3289;
415378386528292;-9.9532;1.6854;-2.7661;
415378396641729;-14.3779;1.1608;-4.8335;
415378406746208;-10.1689;1.1800;-2.7111;
415378416850687;-4.9729;0.1355;-0.6341;
415378426950375;-6.6260;-0.4872;-2.8187;
415378437054854;-13.6663;0.2841;-5.5427;
415378447159333;-14.5310;-0.0778;-4.0262;
415378457261104;-9.5390;1.2206;0.4606;
415378467365583;-6.3096;0.9045;-0.5456;
415378477470062;-5.1574;-0.5662;-2.8932;
415378487573396;-9.2683;-0.5973;-5.1329;
415378497677875;-9.7400;0.8207;-4.8909;
415378507782354;-12.1427;-0.4155;-4.3567;
415378517896417;-9.9126;-0.0129;-1.0391;
415378528000896;-6.3215;0.7585;-1.2520;
415378538105375;-9.6754;0.0685;-3.7244;
415378548213135;-13.9298;1.2494;-2.7015;
415378558317615;-10.5664;-0.2094;-1.3313;
415378568422094;-1.4252;-0.0559;-1.4151;
415378578549646;-7.9217;-0.4537;-5.1832;
415378588654125;-15.3215;0.7705;-2.6632;
415378598758604;-12.2507;1.1632;0.6858;
415378608798187;-8.1087;0.1594;-2.0115;
415378618902667;-8.0130;0.2028;-3.0392;
415378629007146;-11.7835;0.1786;-1.0128;
415378639136052;-7.3086;0.8183;0.3263;
415378649240531;-8.6979;-0.2094;-5.4921;
415378659345010;-16.3086;0.2339;-4.9364;
415378669461729;-7.1267;0.8471;0.6236;
415378679566208;-7.3780;1.0914;-0.2222;
415378689670687;-5.9551;0.5357;-4.2371;
415378699770062;-7.2153;-1.1892;-4.7569;
415378709874542;-17.4631;1.1465;-4.8239;
415378719979021;-14.2603;1.6639;-0.7564;
415378730093135;-9.4502;-0.0535;-0.8306;
415378740197615;-7.1315;0.5381;-1.4916;
415378750302094;-8.4153;-0.2788;1.1216;
415378760401052;-5.5167;-0.2094;-4.4166;
415378770505531;-13.4435;-1.0860;-8.5322;
415378780610010;-8.5615;1.6017;1.6654;
415378790721729;-7.2607;0.5883;-2.7924;
415378800826260;-10.2048;1.2736;-4.6968;
415378810930792;-13.2326;0.6505;-0.0114;
415378821031417;-15.2928;2.1000;-5.0348;
415378831135948;-6.7887;-0.1519;0.3984;
415378841240479;-3.0948;-1.6705;-2.8211;
415378851354125;-11.0480;-0.7914;-5.5929;
415378861458656;-12.6362;2.0761;-3.6571;
415378871563187;-9.2536;0.3799;-0.8569;
415378881649229;-4.9442;0.5788;-1.7432;
415378891753760;-8.5831;1.0962;-4.0837;
415378901858292;-14.1407;1.8820;-2.7446;
415378911962250;-13.2087;1.3693;-1.4797;
415378922066781;-7.6223;0.2722;-4.6944;
415378932171312;-4.8508;-1.6226;-4.5054;
415378942274437;-6.3266;-0.4250;-1.3959;
415378952378969;-9.1220;2.1335;-3.8895;
415378962483500;-10.3989;0.6553;-6.5510;
415378972602458;-10.5497;0.1714;-2.9698;
415378982706990;-6.8704;2.1861;1.1841;
415378992811521;-8.9327;1.4554;-2.2367;
415379002904437;-13.1943;1.0723;-4.4572;
415379013008969;-12.6769;0.1116;-1.5948;
415379023113500;-8.2143;0.2387;-1.0893;
415379033216729;-8.8561;-0.6431;-2.2199;
415379043321260;-10.1785;-0.6933;-0.7516;
415379053425792;-9.5773;1.2470;-0.3897;
415379063528083;-10.7103;0.0900;-2.0716;
415379073632615;-9.8097;-0.1304;-0.5360;
415379083737146;-8.0010;0.9476;-2.4284;
415379093856000;-7.8787;0.3488;-4.1961;
415379103960531;-10.6935;-0.1113;-3.9278;
415379114065062;-7.8380;-0.0033;-5.2167;
415379124167458;-6.4176;0.0924;-5.7269;
415379134271990;-6.8055;-0.0631;-5.6743;
415379144376521;-11.6731;0.1403;-5.1592;
415379154471521;-11.9414;0.3990;-3.2094;
415379164576052;-9.7113;0.8495;0.3505;
415379174680583;-7.0307;-0.6909;-1.3911;
415379184810583;-11.8624;-0.2883;-2.9841;
415379194915115;-12.4301;-0.0009;-0.5527;
415379205019646;-10.3822;1.2903;2.3578;
415379215119542;-9.4549;-0.2500;-2.1505;
415379225224073;-8.6333;-0.6837;-2.4404;
415379235328604;-4.8676;0.8447;-0.5073;
415379245398396;-7.4524;1.3908;-2.4882;
415379255502927;-14.0040;1.5296;-6.2468;
415379265607458;-11.7858;2.0064;-3.3242;
415379275709854;-8.1900;1.5658;-1.8344;
415379285814385;-5.7754;0.0709;-3.0320;
415379295918917;-8.3028;-0.3867;-4.6274;
415379306040062;-10.7390;1.0292;-3.1376;
415379316144594;-9.7304;0.5979;-2.6943;
415379326249125;-14.1263;-0.5877;-4.2467;
415379336346885;-12.6171;0.3488;0.7146;
415379346451417;-5.2606;-0.2285;3.1220;
415379356555948;-5.8953;-1.4623;-1.8320;
415379366670479;-13.9202;-1.3208;-5.0252;
415379376775010;-14.3082;1.2302;-1.8057;
415379386879542;-6.1038;0.8949;0.5611;
415379396980583;-1.9834;-0.8827;-2.4715;
415379407085115;-6.5925;-0.5542;-6.6781;
415379417189646;-13.6998;2.0880;-5.9521;
415379427290375;-14.2460;2.3273;-4.1937;
415379437394906;-13.3837;0.1068;-3.4681;
415379447499437;-10.2670;-1.2706;-0.1047;
415379457609021;-8.3459;-1.0095;1.8404;
415379467713552;-9.4956;-1.5867;-2.0788;
415379477818083;-5.6414;-2.3797;-2.6536;
415379487924958;-6.0894;0.4998;-4.6442;
415379498029490;-10.0418;1.7692;-3.2237;
415379508134021;-9.7878;3.5396;-2.5696;
415379518230583;-9.6251;2.2364;-2.6177;
415379528335115;-8.9806;1.1321;-3.5351;
415379538439646;-7.4524;-1.3017;-3.1950;
415379548545375;-7.3205;-1.1219;-7.4710;
415379558649906;-12.7008;-1.5987;-6.1463;
415379568754437;-13.6424;1.2254;-1.8320;
415379578865062;-11.6611;1.5081;4.3798;
415379588969594;-7.1145;0.4301;3.5581;
415379599074125;-6.6547;-1.4862;1.2057;
415379609175375;-10.1665;-1.0238;-3.1950;
415379619279906;-9.6180;0.6170;-6.3930;
415379629384437;-9.1603;-0.8154;-5.3294;
415379639491104;-6.9159;-0.7364;-3.0679;
415379649595635;-9.5821;0.0996;-2.9626;
415379659700167;-14.0976;1.0077;-1.8775;
415379669800479;-8.7509;3.6592;1.0905;
415379679905010;-4.7934;-0.7819;-0.7178;
415379690009542;-7.2894;-4.5428;-8.2543;
415379700114229;-13.0460;-3.3308;-7.3941;
415379710218760;-13.8652;1.1728;-2.4906;
415379720323292;-11.3426;2.8615;3.2249;
415379730432771;-7.0810;-1.0358;3.1795;
415379740537302;-9.4693;-2.6575;-1.4031;
415379750641833;-10.0011;-1.9005;-3.2931;
415379760750375;-6.5252;-0.5710;-4.6777;
415379770854906;-8.8083;0.8375;-5.8373;
415379780959437;-12.5907;1.3358;-4.0119;
415379791051312;-11.9342;3.8701;-0.1478;
415379801155687;-8.2813;3.0867;2.1852;
415379811260062;-3.5166;-0.4035;-1.5179;
415379821364437;-9.5076;-4.6316;-7.9645;
415379831468812;-15.5635;-2.0946;-9.7226;
415379841573187;-7.8500;4.3253;-0.6030;
415379851678135;-5.9264;6.1005;5.4649;
415379861782510;-9.5148;1.6567;-0.0520;
415379871886885;-9.4837;0.2818;-4.7569;
415379881986052;-7.6657;0.9069;-6.7355;
415379892090427;-10.0370;1.6974;-4.0095;
415379902194802;-11.0862;0.2219;-5.7245;
415379912299958;-10.8781;0.2291;-0.7828;
415379922404333;-9.4669;3.5922;4.2718;
415379932508708;-9.8504;2.7706;2.6812;
415379942606104;-12.2650;-0.5423;-2.0426;
415379952710479;-7.0618;-0.2859;-3.2812;
415379962814854;-4.8413;0.3703;-4.7737;
415379972939958;-6.4941;0.5142;-3.9903;
415379983044333;-6.9733;0.5453;-7.3415;
415379993148708;-12.2172;0.6505;-7.2075;
415380003236312;-12.4998;3.1155;-0.7804;
415380013340687;-9.8216;2.2579;1.8811;
415380023445062;-13.3789;-1.2634;0.1325;
415380033555219;-8.2430;-0.2189;-1.2114;
415380043659594;-6.0532;-1.0214;-0.4570;
415380053763969;-10.0298;-2.1927;-5.9330;
415380063869646;-9.4238;-0.2548;-6.0960;
415380073974021;-7.8188;2.6988;-3.0320;
415380084078396;-10.8491;3.4487;0.6114;
415380094196885;-7.1865;1.6759;0.6042;
415380104301260;-9.1675;-0.1687;-4.5269;
415380114405635;-13.8147;-1.3974;-5.4227;
415380124495792;-9.8815;1.8341;-0.9909;
415380134600167;-6.0655;1.1369;-1.2329;
415380144704542;-12.2025;-0.7579;-3.2261;
415380154807146;-11.1942;3.3239;-1.1946;
415380164911469;-10.1833;1.4411;0.2019;
415380175015896;-9.6706;1.3478;-2.1505;
415380185119854;-4.4892;0.3775;-2.6512;
415380195224229;-9.1244;-0.9066;-5.1760;
415380205328604;-11.9127;1.1632;-5.4132;
415380215437458;-15.6592;4.5984;-1.4390;
415380225541833;-12.8614;4.4282;4.0202;
415380235646208;-5.8020;3.9156;4.1761;
415380245761833;-1.2263;-0.3170;-2.3399;
415380255866208;-2.5104;-4.7058;-13.7327;
415380265970583;-10.7701;-4.7512;-14.3100;
415380276060583;-15.5061;1.1297;-7.6146;
415380286164958;-14.3611;7.6262;5.5391;
415380296269333;-7.9364;9.8686;13.5281;
415380306371729;-8.8705;4.1121;5.4864;
415380316476104;-12.6649;-2.8588;-5.2911;
415380326580479;-8.4153;-5.5753;-13.3687;
415380336682250;-5.9910;-5.8149;-12.7600;
415380346786625;-3.5381;-1.5867;-2.9961;
415380356891000;-8.5352;5.8609;1.5123;
415380367012719;-16.0475;9.3799;4.8706;
415380377117094;-13.6400;7.9905;3.2465;
415380387221469;-10.5329;2.1622;-1.9421;
415380397318500;-6.3841;-4.8470;-6.9655;
415380407422875;-7.1626;-5.7694;-9.0329;
415380417527250;-7.3926;0.6386;-5.2502;
415380427636729;-9.2560;2.2316;-2.5481;
415380437741104;-8.1541;0.1546;-3.0631;
415380447845479;-9.7256;1.5009;-0.8976;
415380457941104;-11.4482;2.7419;0.8677;
415380468045479;-13.2398;1.3023;-0.1836;
415380478149854;-11.0719;-1.0286;-3.0344;
415380488274333;-5.0593;-4.0780;-3.2716;
415380498378708;-8.9662;-4.0684;-6.1893;
415380508483083;-6.5420;-2.3916;-3.5590;
415380518568083;-7.1554;-1.0693;-5.8804;
415380528672458;-12.4660;-1.3783;-4.2036;
415380538776833;-11.8935;2.6342;2.5807;
415380548899229;-8.2071;4.5745;5.1365;
415380559003604;-8.9279;0.2889;-1.0558;
415380569107979;-12.3559;-5.0578;-6.2659;
415380579201417;-11.2421;-3.7259;-8.5585;
415380589305792;-9.8791;-1.7521;-1.1755;
415380599410167;-6.5492;2.6557;1.4979;
415380609532667;-12.2626;1.9346;1.1097;
415380619637042;-13.0412;1.2446;-0.3514;
415380629741417;-4.6759;4.0546;-1.1755;
415380639830062;-7.7782;1.2999;-2.9100;
415380649934437;-12.1020;-1.0310;-8.3189;
415380660038812;-5.7754;-0.8082;-6.0793;
415380670138500;-6.7002;0.5572;-4.0860;
415380680242875;-15.0652;2.1861;-1.3122;
415380690347250;-12.2100;3.8007;2.7843;
415380700454437;-7.3134;3.2091;2.8370;
415380710558812;-10.1282;-0.4657;-1.5108;
415380720663187;-9.2297;-2.3103;-4.6920;
415380730766729;-7.9771;-1.1533;-5.3222;
415380740871104;-9.6610;-1.2060;-4.2084;
415380750975479;-9.5725;-0.5686;-3.0775;
415380761077250;-10.9140;0.7944;0.7050;
415380771181625;-12.9476;2.7036;3.2847;
415380781286000;-8.2358;2.5549;0.2641;
415380791393812;-8.1565;-3.3476;-1.8966;
415380801498240;-5.5983;-1.5126;-6.1104;
415380811602719;-6.5515;-3.8961;-7.1620;
415380821706208;-13.0436;-4.0277;-8.1512;
415380831810687;-12.4878;0.8399;-0.6413;
415380841915115;-6.4798;4.3349;4.5114;
415380852025896;-10.4157;0.4950;1.4907;
415380862130375;-13.2661;-2.5475;-4.1076;
415380872234802;-7.4118;-1.0693;-4.3591;
415380882332667;-7.2105;-1.9941;-4.6298;
415380892437094;-9.3233;-1.1291;-4.7665;
415380902541573;-8.8825;0.6721;-4.7255;
415380912653500;-11.5487;2.0566;-0.1286;
415380922757927;-9.0503;3.2809;1.1746;
415380932862406;-8.4464;0.5596;-3.6380;
415380942942250;-11.6516;-2.9785;-6.1223;
415380953046677;-8.3507;0.3607;-4.3472;
415380963151156;-8.0393;1.5419;-1.7743;
415380973275167;-8.6907;1.7142;-0.8139;
415380983379594;-7.6056;2.5119;-2.6130;
415380993484073;-12.2650;2.4305;-2.7039;
415381003586104;-7.9771;3.4487;-0.3036;
415381013690531;-6.9900;3.9541;-3.4537;
415381023795010;-13.3908;-0.2309;-5.7030;
415381033898812;-9.5868;2.0327;-3.0655;
415381044003240;-9.1220;2.9432;0.2737;
415381054107719;-8.7341;-0.3075;-1.1850;
415381064211312;-10.4061;1.3932;-3.3099;
415381074315740;-7.1192;1.4387;0.3817;
415381084420219;-8.1350;2.7849;-1.3217;
415381094526208;-7.7686;1.4004;-3.3003;
415381104630687;-10.7031;0.2315;-6.2085;
415381114735167;-10.9499;1.0842;-3.0248;
415381124836521;-7.1121;2.4951;-0.6197;
415381134940948;-11.9871;0.5237;-2.6728;
415381145045427;-14.7203;0.8518;-1.5852;
415381155145271;-10.9068;1.4435;0.7552;
415381165249698;-7.3038;0.5524;1.3899;
415381175354177;-7.0786;-1.5197;-3.3099;
415381185476625;-6.9470;0.1259;-4.6298;
415381195581052;-6.4391;2.5095;-3.6141;
415381205685531;-11.0432;2.2699;-4.7809;
415381215767979;-12.3440;3.2426;-4.0956;
415381225872406;-8.5711;3.5180;-1.9971;
415381235976885;-7.4333;2.7036;-1.0056;
415381246121729;-9.9820;1.0675;-3.0153;
415381256226156;-9.2850;-0.7244;-5.8971;
415381266330635;-10.1761;-0.8417;-3.4825;
415381276432562;-11.1054;0.9093;-1.2305;
415381286536990;-10.1450;0.7128;1.6008;
415381296641469;-8.2071;0.9188;0.7122;
415381306707979;-7.5553;0.7657;-1.7384;
415381316812458;-8.2860;-1.5987;-4.6872;
415381326916885;-11.5343;-0.7866;-4.3687;
415381337024229;-10.6433;-1.0047;-0.9814;
415381347128656;-7.8500;-0.5518;-1.9516;
415381357233135;-10.2287;-1.7450;-1.8440;
415381367348396;-11.5822;-1.2969;-1.2520;
415381377452823;-9.1747;-1.0430;-1.6570;
415381387557302;-7.8045;-2.2385;-3.0129;
415381397667458;-9.3162;-2.4491;-2.4069;
415381407771885;-10.4396;-2.0635;-3.1229;
415381417876365;-11.0982;-0.3314;-2.4715;
415381427981208;-4.7142;0.8471;-1.6546;
415381438085635;-8.3411;-0.3051;-3.0416;
415381448190115;-19.3005;1.0077;-3.9784;
415381458282979;-14.3635;2.0856;-2.3037;
415381468387458;-1.1163;-1.0406;-0.7947;
415381478491885;-6.7146;-1.9172;-1.8631;
415381488598812;-12.1355;0.8351;-5.4012;
415381498703240;-10.9068;1.2736;-3.8752;
415381508807719;-10.1713;2.9192;-3.3003;
415381518910792;-8.6357;3.1298;-1.3816;
415381529015219;-8.6094;1.9633;-1.5565;
415381539119698;-2.1344;2.6246;-0.7083;
415381549222979;-3.2411;1.8604;-5.3151;
415381559327406;-14.0399;0.6099;-11.3587;
415381569431885;-14.7730;0.9715;-4.0932;
415381579560583;-8.6166;2.4736;1.1841;
415381589665010;-11.2540;1.7955;-1.6666;
415381599769490;-12.7080;-1.3065;1.4548;
415381609873604;-12.7585;0.9141;3.2584;
415381619978031;-22.9825;1.7931;1.5458;
415381630082510;-6.9087;-2.3342;2.5376;
415381640166937;0.2779;-4.1142;2.0656;
415381650271365;-7.2153;-1.6442;1.9866;
415381660375844;-7.9843;2.3635;-4.4548;
415381670471417;-11.3426;0.8327;-7.6890;
415381680575844;-4.5562;2.3225;-6.0694;
415381690680323;-3.1358;2.9145;-10.9708;
415381700789333;-8.5950;-0.0607;-11.9001;
415381710893760;-11.2756;2.0976;-6.3643;
415381720998240;-10.3798;3.3742;-6.1582;
415381731116625;-18.8190;-1.8503;-6.4026;
415381741221052;-12.5740;-2.3533;3.2728;
415381751325531;-2.1942;-0.3099;4.8921;
415381761421729;-6.2163;-4.3247;-0.7301;
415381771526156;-12.0087;-3.1941;-2.4188;
415381781630635;-15.2330;2.8424;1.0666;
415381791743969;-10.0274;2.0952;4.0490;
415381801848500;-7.3397;-0.1519;2.8657;
415381811953031;-5.4975;-0.5973;-1.6116;
415381822047979;-8.1015;-0.1256;-6.2922;
415381832152510;-13.7979;1.5320;-10.7240;
415381842257042;-14.1311;0.6673;-7.5739;
415381852362771;-6.0532;-0.3437;-4.1794;
415381862467302;-5.8810;-1.8646;-3.6165;
415381872571833;-14.8783;-0.8082;-2.5170;
415381882676729;-15.7672;-0.8130;0.7576;
415381892781260;-6.9350;-1.8550;0.3505;
415381902885792;-5.4138;-2.7245;0.1540;
415381912992875;-10.4013;-2.3342;-0.2007;
415381923097406;-9.8719;0.4493;-1.8511;
415381933201937;-6.1181;0.0781;-4.4524;
415381943286625;-7.3062;-0.9712;-3.3242;
415381953391156;-12.7609;0.7008;-6.0144;
415381963495687;-11.8696;1.9442;-4.5676;
415381973610062;-7.3493;1.6376;-3.6523;
415381983714594;-5.2750;0.0781;-5.0420;
415381993819125;-15.1322;0.6577;-4.9962;
415382003937667;-13.6998;2.2125;-0.6150;
415382014042198;-6.3984;2.6052;0.3383;
415382024146729;-5.6031;0.5142;-0.2127;
415382034250479;-6.7170;0.3368;-0.4762;
415382044355010;-10.5066;2.6677;-0.8737;
415382054459542;-11.7332;4.0714;-1.1468;
415382064534125;-11.4841;1.7931;-4.6370;
415382074638656;-9.0120;0.5501;-1.6307;
415382084743187;-4.8891;0.6673;-0.8617;
415382094888187;-9.9485;2.0809;-4.2036;
415382104992719;-12.1116;1.1536;-5.6216;
415382115097250;-13.4698;1.9705;-3.9903;
415382125183500;-7.3899;2.1024;0.2952;
415382135288031;-6.4893;1.0531;-0.2988;
415382145392562;-8.7242;0.4831;-2.6895;
415382155522146;-9.8862;0.9667;-3.6500;
415382165626677;-11.6635;1.3454;-3.5255;
415382175731208;-9.9700;2.1550;-0.8163;
415382185802146;-5.1838;0.5309;-1.1492;
415382195906677;-6.8557;-0.0416;-3.5112;
415382206011208;-12.7080;1.5514;-4.3065;
415382216110896;-12.4974;1.1417;-1.9086;
415382226215427;-6.4965;0.0948;-3.1014;
415382236319958;-9.0885;-0.2835;-2.7254;
415382246420479;-11.8576;0.5285;-2.9483;
415382256525010;-11.7428;1.5248;-0.1119;
415382266629542;-4.1417;0.3966;-0.0257;
415382276734750;-7.8787;-0.0033;-4.5772;
415382286839281;-12.8040;1.2039;-2.4595;
415382296943812;-13.4770;3.8103;0.1756;
415382307065635;-6.7481;1.9059;-2.0258;
415382317170167;-3.9407;-1.3065;-2.7613;
415382327274698;-11.8552;0.0852;-4.2156;
415382337369958;-11.0240;1.9011;-2.3085;
415382347474490;-10.2861;1.4483;-4.1722;
415382357579021;-12.6386;0.5285;-2.0186;
415382367684958;-10.4085;0.8925;1.8571;
415382377789490;-3.6652;0.5237;-1.1468;
415382387894021;-11.4745;0.3607;-2.9961;
415382398003812;-12.1810;1.5778;-2.7063;
415382408108344;-5.3276;0.8542;-2.0740;
415382418212875;-10.3340;1.2326;-2.5648;
415382428313292;-12.9093;2.5382;-2.7350;
415382438417823;-11.0145;1.6519;-3.7795;
415382448522354;-8.6142;0.7152;1.0164;
415382458625375;-9.1986;2.1526;-2.7685;
415382468729906;-15.8677;0.3368;-4.5532;
415382478834437;-10.1545;0.9452;1.3253;
415382488940687;-2.2732;1.4841;1.4043;
415382499045219;-8.5831;1.4937;-3.6742;
415382509149750;-13.1656;1.9705;-3.3434;
415382519257458;-9.2417;2.1622;-1.3648;
415382529361990;-10.3391;2.0976;-4.2538;
415382539466521;-10.0828;1.5344;-2.2271;
415382549567042;-8.5543;0.8806;-1.8416;
415382559671573;-8.7147;1.9035;-1.7408;
415382569776104;-8.0465;0.7032;-4.6442;
415382579960479;-10.5018;1.4985;-3.8130;
415382590065010;-10.3941;1.2326;-0.8785;
415382600169542;-8.6716;1.7692;0.1229;
415382610211937;-8.9614;0.2865;-4.1818;
415382620316469;-12.0422;1.0938;-1.7503;
415382630421000;-7.9074;0.3583;0.1014;
415382640512146;-7.1363;1.0220;-3.1062;
415382650616677;-10.1689;0.0135;-4.1172;
415382660721208;-10.0107;0.6984;-1.9301;
415382670812302;-14.1000;2.0809;-2.0764;
415382680916833;-12.2172;0.5309;0.8318;
415382691021365;-6.7552;-0.2453;0.6930;
415382701132458;-11.4024;0.3631;-3.2166;
415382711236990;-8.1135;-0.6096;-3.5327;
415382721341521;-7.5601;0.6027;-2.7446;
415382731446104;-9.0191;-0.1208;-3.0799;
415382741550635;-8.5184;1.6831;-3.0320;
415382751655167;-12.3631;1.8269;-4.6322;
415382761763708;-11.1150;1.1728;-3.3577;
415382771868240;-5.1263;1.0795;-1.7192;
415382781972771;-10.5497;0.3464;-5.7437;
415382792082719;-8.7604;0.8088;-4.9866;
415382802187250;-8.3363;0.1762;-2.8980;
415382812291729;-13.1130;1.3597;-5.7556;
415382822383552;-13.8700;1.3525;2.2717;
415382832488031;-3.8040;-0.3915;5.4096;
415382842592562;-12.5859;2.6916;-4.2467;
415382852702979;-10.9714;1.6567;-4.6370;
415382862807510;-6.3410;-0.4944;1.7734;
415382872911990;-6.0293;2.1550;-2.7470;
415382883009125;-8.9542;0.5213;-6.2611;
415382893113656;-10.8156;-1.6490;-5.6504;
415382903218135;-10.4683;-0.9927;-0.0497;
415382913322979;-7.1961;-0.1687;-0.8545;
415382923427510;-7.8117;-0.9879;-5.4419;
415382933531990;-7.1889;-2.3103;-3.7172;
415382943655062;-8.0465;-2.1664;-2.1051;
415382953759594;-9.2297;-2.6216;-6.2372;
415382963864073;-11.2301;-2.6551;-3.6694;
415382973958708;-9.3114;-2.5164;2.1398;
415382984063240;-4.4052;-1.3663;-0.0592;
415382994167719;-7.7303;-1.7785;-7.7010;
415383004330896;-12.4831;-2.6719;-5.7485;
415383014435427;-12.7199;-2.0037;1.9747;
415383024539906;-8.7915;-0.9568;-0.0066;
415383034564229;-11.1317;-0.3891;-3.9616;
415383044668760;-8.4009;-0.1711;-1.2138;
415383054773292;-7.8212;0.0637;-1.2473;
415383064903604;-9.1795;-0.3700;-4.4767;
415383075008083;-12.5716;1.2278;-2.9530;
415383085112562;-8.5854;0.2411;-1.4653;
415383095213083;-9.2297;0.1403;-4.8909;
415383105317615;-10.9714;-0.4777;-3.0416;
415383115422094;-10.2694;0.3559;-0.1836;
415383125520948;-9.9891;-0.2812;-3.9903;
415383135625479;-10.7892;-1.3902;-3.4226;
415383145729958;-8.4416;-0.5399;-1.8631;
415383155831729;-10.4204;0.0541;-2.0644;
415383165936260;-9.7472;-0.2572;-2.9985;
415383176040740;-10.2407;-1.0310;-1.6331;
415383186168812;-9.3018;-0.1065;-3.0679;
415383196273292;-10.5209;-1.1171;-3.8512;
415383206377823;-7.0953;-0.7723;-1.7767;
415383216452042;-6.2115;-0.3556;-2.4452;
415383226556573;-10.8060;-1.5269;-6.3811;
415383236661052;-19.6980;-1.0023;-3.2357;
415383246773708;-17.3148;-1.0310;4.2790;
415383256878240;5.3324;-1.3137;0.3000;
415383266982719;3.5381;-1.5628;-7.4183;
415383277089646;-13.3454;-2.0228;-9.8521;
415383287194177;-15.8222;-1.6274;-7.3367;
415383297298656;-12.1594;-1.1868;0.4032;
415383307409542;-4.8963;-0.3772;1.7112;
415383317514073;-11.8935;-0.8656;-1.2520;
415383327618552;-11.0815;-0.3218;-0.4594;
415383337720271;-5.4377;-1.2778;-1.6666;
415383347824802;-6.6404;-2.9785;-8.8531;
415383357929281;-20.0408;-4.0804;-8.3836;
415383368034958;-13.9753;1.4722;8.5095;
415383378139490;-4.1922;4.4713;9.0006;
415383388243969;-8.9566;0.6912;-5.8134;
415383398339437;-8.8226;-3.8818;-3.2548;
415383408443917;-9.5004;-0.5949;-0.2821;
415383418548448;-10.7773;3.2904;-1.8583;
415383428656417;-7.1267;0.5620;-2.9937;
415383438760948;-9.4358;-0.4298;-5.9426;
415383448865427;-5.6892;-0.1807;-3.2309;
415383458961833;-8.6405;-0.8082;-4.8455;
415383469066365;-14.8855;-1.7186;-9.4783;
415383479170844;-13.6687;-0.5590;-2.5648;
415383489289125;-4.0436;-0.4131;0.7600;
415383499393656;-6.0437;-2.0731;-3.5351;
415383509498135;-13.2326;-0.1304;-3.5231;
415383519596937;-14.7706;0.2913;-1.6881;
415383529701469;-12.0087;0.8638;-0.3993;
415383539805948;-7.0690;1.5921;1.2583;
415383549903500;-6.8103;0.1666;-1.1755;
415383560008031;-5.5911;0.7223;-2.6512;
415383570112510;-7.4237;0.8901;-8.2926;
415383580236052;-11.7165;-0.9018;-8.0148;
415383590340583;-12.0039;-0.5806;-2.9004;
415383600445062;-11.1583;1.3573;2.5184;
415383610538500;-9.0215;2.1239;0.2163;
415383620643031;-6.8151;-0.6287;-4.0860;
415383630747510;-8.4559;-2.2744;-7.3008;
415383640838135;-11.6300;-1.7139;-5.3318;
415383650942667;-12.0733;-0.6646;-1.5302;
415383661047146;-20.4072;2.6438;1.3397;
415383671150479;-2.9824;3.4319;3.7950;
415383681255010;6.0799;2.4520;-0.0592;
415383691359490;-1.6768;-0.8417;-10.1994;
415383701473083;-21.4205;-0.5136;-13.2009;
415383711577615;-22.0098;0.2506;-3.9230;
415383721682094;-2.6207;3.3383;3.6156;
415383731786417;6.1804;0.9069;0.7528;
415383741890896;-14.1239;-1.3687;-4.0837;
415383751995427;-26.0988;1.4506;-5.7461;
415383762101000;-8.4200;1.8748;-4.4357;
415383772205531;-2.8507;-4.4423;-2.9626;
415383782310010;-8.1541;-2.4706;3.9820;
415383792401833;-12.5477;4.3708;3.9102;
415383802506312;-9.0646;4.0929;-0.1478;
415383812610740;-6.2856;1.1465;-5.6288;
415383822718187;-12.2865;-2.1257;-9.2842;
415383832822667;-9.1125;-0.4753;-0.1525;
415383842927094;2.4529;2.4066;3.5605;
415383853040635;-11.1918;2.6366;-10.5251;
415383863145115;-27.4307;-0.3051;-9.8737;
415383873249542;-10.0059;0.2315;7.1752;
415383883343396;2.8292;1.5658;6.9667;
415383893447875;-10.4683;-0.0081;-6.8073;
415383903552302;-16.5410;-1.1701;-3.6500;
415383913659542;-7.0283;1.2039;1.8930;
415383923763969;-3.5309;0.6266;-1.7288;
415383933868448;-9.3999;-0.1663;-4.7641;
415383943959437;-14.4473;1.8317;-2.1170;
415383954063917;-8.4583;2.3539;3.8456;
415383964168344;-5.9504;1.9848;-1.4533;
415383974326312;-12.5022;-0.2070;-8.4314;
415383984430740;-12.3009;-1.0669;-1.7503;
415383994535219;-8.5256;1.2999;3.5435;
415384004619958;-10.0514;0.3583;-0.7011;
415384014724437;-11.8983;-0.2979;-1.9732;
415384024828865;-7.3205;-0.1089;1.3158;
415384034919542;-4.4004;0.4998;0.7409;
415384045023969;-9.6969;0.2746;-4.8383;
415384055128448;-14.8663;1.0220;-2.4811;
415384065242250;-9.9939;0.8566;2.8585;
415384075346677;-5.4999;0.5070;-0.6820;
415384085451156;-11.7547;-0.2500;-5.3988;
415384095529229;-11.5056;0.5381;-0.4977;
415384105633708;-6.5850;0.4950;0.9948;
415384115738135;-10.4372;0.0900;-5.5451;
415384125876469;-12.4974;0.0637;-2.7517;
415384135980948;-6.0846;0.5405;0.5803;
415384146085375;-9.5533;0.7152;-1.9684;
415384156164958;-15.1298;0.9093;0.0293;
415384166269437;-8.7844;0.7247;0.4032;
415384176373865;-7.8236;-0.3242;-2.7589;
415384186498083;-9.3425;0.3799;-3.9736;
415384196602562;-7.9555;0.3942;-0.9144;
415384206706990;-11.7476;1.5248;-3.3553;
415384216799958;-11.0049;-0.5112;-4.4910;
415384226904437;-6.4463;-0.2261;-2.2965;
415384237008865;-4.9801;-0.4202;-5.3222;
415384247109229;-11.8720;0.6721;-5.9593;
415384257213708;-16.5290;0.0494;0.6691;
415384267318135;-4.2808;0.1020;-1.5084;
415384277420375;-7.6128;-1.9077;-8.7165;
415384287524854;-13.5105;-0.2189;-2.5026;
415384297629281;-7.7327;0.3416;2.5639;
415384307735792;-5.6462;0.7657;-3.1038;
415384317840271;-8.1541;-1.2538;-7.0564;
415384327944698;-8.3387;-0.6550;-6.9177;
415384338045062;-7.1192;-0.4298;-3.7484;
415384348149490;-9.6945;0.5812;-4.2227;
415384358253917;-9.0933;0.1451;-0.0616;
415384368358396;-5.8905;0.2841;-4.9412;
415384378475167;-18.0117;-0.9185;-11.3013;
415384388579646;-13.5802;-1.0980;2.9830;
415384398684073;-3.1884;1.6567;4.7988;
415384408769125;-7.9843;-0.4202;-6.0215;
415384418873552;-11.8026;-1.3567;-3.8991;
415384428978031;-11.2110;0.7609;-0.6365;
415384439102823;-8.4802;0.6840;-0.6676;
415384449207302;-8.2023;0.2148;-1.0965;
415384459311729;-8.8370;0.2052;-2.2152;
415384469409125;-9.5291;0.4205;-3.6981;
415384479513604;-11.7763;-0.2381;-6.5629;
415384489618031;-7.2631;-0.0033;-5.5666;
415384499736208;-3.1980;-0.4083;-5.7150;
415384509840687;-11.8600;-0.2644;-7.5835;
415384519945115;-13.3190;-0.2548;-3.5614;
415384530044229;-1.6768;0.6027;-3.2429;
415384540148656;-4.7719;-0.5518;-6.2276;
415384550253135;-15.3335;-0.3123;-1.6164;
415384560351937;-12.2219;2.2268;1.3660;
415384570456417;-9.5653;0.9260;-1.9995;
415384580560844;-8.9231;-0.5375;-3.6284;
415384590665792;-7.6008;0.9165;0.8246;
415384600770271;-11.7763;1.8867;0.7361;
415384610874698;-11.6611;0.8758;0.0150;
415384620978708;-6.5683;0.4588;-3.0942;
415384631083187;-12.4469;-0.1735;-5.4275;
415384641187615;-14.6653;0.2411;1.1746;
415384651294021;-8.7171;1.8245;5.5726;
415384661398500;-9.1268;0.6505;-4.0908;
415384671502927;-8.9686;-1.5556;-7.4590;
415384681612354;-8.5543;-0.3075;-2.1170;
415384691716833;-9.2994;1.6783;-0.5886;
415384701821260;-8.4706;-0.2237;-4.9603;
415384711917562;-7.0594;0.5022;-5.1999;
415384722022042;-7.5171;0.4349;-5.4299;
415384732126469;-11.0527;0.2243;-4.6753;
415384742232562;-11.7284;0.7753;-2.2822;
415384752336990;-6.5061;0.0398;-1.9373;
415384762441469;-10.1641;-0.2022;-4.7303;
415384772550479;-13.5057;-0.8082;-2.6034;
415384782654958;-9.3473;-0.0993;2.4655;
415384792759385;-7.5984;0.7609;0.1325;
415384802854385;-10.6552;-0.3556;-2.7302;
415384812958865;-10.7988;0.4807;-1.3385;
415384823063344;-8.3746;1.6854;-0.6461;
415384833164854;-5.7251;1.4889;-0.4161;
415384843269333;-7.7160;0.6529;-2.8475;
415384853373812;-11.0910;1.4650;-6.3930;
415384863490896;-11.3282;0.7128;-2.8741;
415384873595375;-5.9456;0.8614;-1.7695;
415384883699854;-7.4692;-0.4011;-3.8967;
415384893793708;-10.7845;-0.0248;-3.4537;
415384903898187;-7.3277;0.2818;-1.1611;
415384914002667;-7.7925;0.4759;-4.3496;
415384924107771;-9.7783;-0.3915;-4.3161;
415384934212250;-13.7524;-0.1974;0.8991;
415384944316677;-8.4945;0.4854;2.1039;
415384954408812;-7.9074;-0.0344;-1.7408;
415384964513292;-12.2243;0.1092;-3.4561;
415384974617771;-4.3382;-0.1567;-0.8641;
415384984719750;-10.9618;-0.0224;-3.3912;
415384994824229;-12.1594;-0.2333;-2.9578;
415385004928708;-4.6807;-0.0583;-2.8837;
415385015037562;-2.7236;-0.1232;-7.3295;
415385025142042;-24.0987;0.4807;-2.7039;
415385035246521;-14.0566;-0.0583;3.0718;
415385045373396;4.5275;-0.3604;-0.6580;
415385055477875;-5.6055;-0.6933;-7.3534;
415385065582302;-15.7289;-0.1926;-3.9640;
415385075674698;-18.5626;-1.1749;-1.0247;
415385085779177;-11.4410;1.4339;2.2286;
415385095883604;2.0698;0.4636;2.6046;
415385105984125;-9.6778;-1.7186;-8.3979;
415385116088604;-18.8094;0.6051;-5.7126;
415385126193031;-4.4267;1.7237;7.8171;
415385136306052;-1.4276;0.1116;-7.2410;
415385146410531;-18.6081;-1.5078;-16.5524;
415385156515010;-13.3860;0.2435;4.9140;
415385166609229;-2.1799;1.4243;6.3751;
415385176713708;-8.6285;-0.0105;-9.1621;
415385186818187;-6.4319;-1.6851;-10.0941;
415385196949958;-12.9332;0.5405;-2.9483;
415385207054437;-17.0222;0.7968;0.9063;
415385217158917;-14.1359;-0.1065;-1.5084;
415385227226469;-9.6180;-1.0071;1.0283;
415385237330948;-7.4429;-0.0849;3.9030;
415385247435427;-11.0288;0.9523;-2.1601;
415385257547771;-11.5152;-0.0392;-5.9641;
415385267652250;-4.2138;0.7271;-1.8224;
415385277756729;-9.0885;1.4841;-4.5317;
415385287869542;-10.9044;0.9523;-4.4791;
415385297974021;-4.0962;2.2627;-2.2774;
415385308078500;-3.1525;1.1991;-7.8805;
415385318182719;-9.7161;0.2913;-12.8297;
415385328287198;-5.3324;-0.0272;-6.6924;
415385338391625;-10.8610;0.3966;-5.4419;
415385348488292;-20.0456;1.0723;-1.2329;
415385358592771;-8.1565;0.1044;3.4238;
415385368697250;-9.2489;-0.9544;1.5051;
415385378811208;-11.4099;-0.0754;2.4607;
415385388915687;-2.6973;0.8016;1.1506;
415385399020167;-9.0503;0.5572;-5.9976;
415385409082927;-12.7896;1.1991;-2.5935;
415385419187458;-7.4548;1.5897;3.6036;
415385429291885;-7.7231;2.4832;-1.2473;
415385439449021;-10.0490;1.7883;-2.8331;
415385449553500;-7.4022;1.4004;-3.0200;
415385459657979;-13.6448;0.2770;-7.5141;
415385469748396;-10.1880;-0.1687;-4.9723;
415385479852875;-3.7322;-0.4490;-0.9670;
415385489957354;-12.7439;-1.6657;-6.7044;
415385500063812;-15.0341;-0.9401;-1.0798;
415385510168292;-6.9159;-0.0105;4.3436;
415385520272771;-2.2828;-0.1448;-2.6895;
415385530388552;-9.3616;0.4062;-4.8048;
415385540493031;-9.4597;0.2411;-3.6188;
415385550597510;-4.5849;0.2339;-1.7695;
415385560693552;-12.9571;-0.0682;-5.6192;
415385570798031;-10.9690;-0.3748;-5.1544;
415385580902458;-8.7290;-0.5447;-1.1276;
415385591044021;-11.2421;-0.8417;-1.5900;
415385601148500;-7.8882;-0.8707;-3.8441;
415385611252979;-11.1966;-1.4145;-2.0716;
415385621319333;-12.2746;-0.6790;-1.0582;
415385631423812;-9.9939;0.4253;1.0857;
415385641528292;-9.9580;0.7008;1.4764;
415385651633917;-5.0713;-0.0969;-1.3265;
415385661738396;-2.9489;0.9141;-2.4141;
415385671842875;-12.8136;0.8614;-7.2888;
415385681937354;-16.9648;0.3846;-3.8393;
415385692041833;-5.1335;0.4711;1.0092;
415385702146312;-6.3601;-0.5375;-4.7426;
415385712263083;-9.3114;-0.7292;-4.1219;
415385722367562;-11.9246;-0.4920;-3.2118;
415385732472042;-14.5932;-0.1376;-2.9961;
415385742556312;-3.7298;-0.2070;1.0283;
415385752660792;-5.0234;-0.9114;-4.6346;
415385762765271;-13.9226;0.5237;-3.2213;
415385772898969;-7.0977;0.9763;1.8476;
415385783003448;-10.6959;0.3679;-8.6566;
415385793107927;-9.6586;0.4277;-4.0238;
415385803199542;-4.2066;-0.0897;1.1360;
415385813304021;-11.7930;-0.1591;-6.2037;
415385823408500;-15.0963;-0.0296;-2.6895;
415385833510167;-10.2000;0.4878;-1.3217;
415385843614646;-4.7886;-0.2764;-2.7350;
415385853719125;-8.3315;-0.6766;-0.6556;
415385863819958;-8.6237;1.2254;-1.9516;
415385873924437;-10.2885;0.5405;-4.5915;
415385884028917;-10.3989;0.7705;-2.8546;
415385894117562;-5.6797;0.8016;-0.9960;
415385904222042;-7.2105;1.4243;-3.3697;
415385914326521;-8.8705;0.7585;-2.9363;
415385924453760;-9.7807;0.5524;-3.6742;
415385934558292;-16.4450;0.3655;-3.5830;
415385944662771;-9.6203;-0.7962;-1.3816;
415385954768396;-0.9054;-0.8560;1.2368;
415385964872823;-12.1307;0.6482;-3.3649;
415385974977354;-23.3321;0.6075;-2.2726;
415385985064854;-18.1005;0.3607;5.7308;
415385995169333;-7.2272;-0.3123;5.3306;
415386005273812;6.7146;-1.0310;-1.6810;
415386015385479;10.7773;-1.0717;-14.7341;
415386025489958;-2.3620;1.3071;-19.7767;
415386035594437;-16.9098;2.5167;-5.8636;
415386045692458;-25.3612;2.3082;-2.3901;
415386055796937;-19.0202;-0.6861;2.6237;
415386065901417;3.8447;-0.9568;6.9906;
415386076022458;4.4222;0.2267;-5.0827;
415386086126937;-19.7103;0.0924;-14.9163;
415386096231417;-17.8753;-2.0874;-6.1965;
415386106339646;-12.7152;-2.4562;3.5554;
415386116444125;-7.7590;-1.2658;9.9060;
415386126548604;-3.4687;2.5837;14.1963;
415386136644333;-17.1996;5.8490;5.6827;
415386146748812;-9.4932;4.8763;-5.7724;
415386156853292;-2.9536;-0.5782;-16.7366;
415386166957667;-8.8705;-2.3868;-11.7302;
415386177062146;-12.1331;-0.3290;2.8394;
415386187166625;-16.5027;1.1417;6.2626;
415386197266208;-19.2981;-0.2979;-5.2816;
415386207370687;0.5222;-1.8455;-3.8130;
415386217475167;5.9312;-2.3773;-4.0765;
415386227578135;-15.3407;-0.2046;-7.9693;
415386237682615;-8.1757;-1.5293;-5.6695;
415386247787094;-4.6854;-2.4395;-12.2620;
415386257901000;-8.6979;-1.0836;-7.1836;
415386268005479;-2.2804;-0.9209;1.2081;
415386278109958;-9.4741;-0.5495;-6.5701;
415386288205896;-5.7658;-0.3676;-6.1582;
415386298310375;-24.1681;0.2435;-3.9425;
415386308414854;-49.2443;-0.8560;6.4229;
415386318520167;0.2539;-2.7488;24.9353;
415386328624646;12.9933;3.3120;10.5864;
415386338729125;-20.9868;4.5266;-12.4295;
415386348838500;-19.6430;2.9815;-8.7452;
415386358942979;2.5872;-1.7186;4.1378;
415386369047458;7.3038;0.4783;0.5420;
415386379151885;-8.6501;3.1178;-11.2176;
415386389256365;-20.9797;1.3741;-6.8647;
415386399360844;-12.2483;-0.5853;8.7897;
415386409470479;-2.0865;-0.2094;-14.1927;
415386419574958;-20.5846;-3.6015;-33.3326;
415386429679437;-5.2869;-6.9096;6.3894;
415386439772979;7.9914;-3.3858;8.6892;
415386449877458;-19.8850;-1.4121;-19.7118;
415386459981937;-20.0216;-3.8554;-1.4701;
415386470081833;-4.6137;-0.9401;13.9520;
415386480186312;-3.8997;3.3766;4.9259;
415386490290792;-9.4119;4.8236;-3.5016;
415386500388396;-16.5194;1.8078;-8.9249;
415386510492875;-10.4133;0.0541;-2.7087;
415386520597354;-5.1311;0.4735;-2.9626;
415386530719958;-15.0461;0.6194;-4.3711;
415386540824437;-13.2494;1.4506;6.8542;
415386550928917;3.5982;0.6434;-0.4496;
415386561023292;-4.1010;-0.0559;-13.9268;
415386571127771;-19.4659;0.6888;-2.4667;
415386581232250;-12.2674;-0.0754;5.7667;
415386591326573;-8.7556;0.9547;-4.7136;
415386601431052;-4.4411;-1.3424;-4.4477;
415386611535531;-4.6711;0.5357;-2.1601;
415386621652042;-14.5693;-0.7436;-6.2037;
415386631756521;-10.4539;-0.5806;-2.0115;
415386641861000;-5.5217;0.2674;-1.5996;
415386651968292;-16.8380;-0.7364;-4.2538;
415386662072771;-18.2178;-0.7890;6.4995;
415386672177250;-5.3252;1.4530;9.1804;
415386682274177;-4.7886;0.5788;-7.0756;
415386692378656;-10.7222;-1.0310;-10.4103;
415386702483135;-5.8977;-1.1315;-3.5327;
415386712585219;-8.3291;0.2243;-3.5207;
415386722689698;-14.8929;1.4913;-2.6824;
415386732794177;-8.2454;0.5070;-3.3458;
415386742896729;-1.9164;-0.0057;-4.3304;
415386753001208;-3.0900;0.5118;-6.8743;
415386763105687;-15.4391;-0.3532;-10.1516;
415386773207771;-18.6320;-1.6083;-3.1687;
415386783312250;-5.6892;-2.4036;2.0680;
415386793416729;-0.0455;0.1546;-1.5156;
415386803521521;-13.6113;1.5153;-1.6810;
415386813625948;-16.7228;0.6649;3.3736;
415386823730375;-6.7863;1.7931;1.6223;
415386833839750;-7.7638;0.4735;-4.6585;
415386843944177;-16.1049;-0.2333;-0.9622;
415386854048604;-11.4936;1.2326;3.8213;
415386864144229;0.7020;0.8518;0.0918;
415386874248656;-0.5366;0.1355;-8.9752;
415386884353135;-16.5362;-0.2429;-13.1267;
415386894468708;-17.2331;-0.7507;-0.5791;
415386904573135;-4.6352;0.6314;6.3009;
415386914677615;-7.3708;1.6184;-7.7871;
415386924762406;-19.2838;-1.4982;-6.7283;
415386934866833;-10.7055;-1.1076;1.9504;
415386944971260;-1.7486;0.4783;-1.2209;
415386955088812;-6.7265;-1.1171;-7.7034;
415386965193240;-16.8619;-0.8656;-3.9784;
415386975297667;-10.1952;1.2230;4.1402;
415386985440375;-3.8973;2.9575;2.6572;
415386995544802;-9.5797;0.7848;-7.3128;
415387005649229;-11.7260;-0.2285;-6.1439;
415387015711052;-8.1852;2.5884;1.3493;
415387025815479;-7.7016;0.9404;-4.6394;
415387035919906;-13.1584;-0.4609;-9.6389;
415387046054229;-13.6663;0.2315;0.1851;
415387056158656;-11.1751;1.2422;5.4506;
415387066263083;-6.3120;0.1666;-1.3098;
415387076370792;-8.1565;0.4636;-4.1530;
415387086475219;-7.9795;1.2999;-1.0128;
415387096579646;-11.4458;1.5248;-2.1649;
415387106665635;-9.5533;0.9332;-2.8594;
415387116770062;-7.0307;1.0675;-1.9110;
415387126874490;-14.7515;1.0531;-2.5385;
415387136980062;-7.7806;0.2100;-2.4380;
415387147084490;-7.0618;-0.0730;-4.3137;
415387157188917;-11.5606;-0.4059;-4.2467;
415387167294542;-8.1230;0.1666;-2.2032;
415387177398969;-9.6634;0.0135;-3.9015;
415387187503396;-10.2455;0.6888;-2.1051;
415387197601208;-7.2727;0.5357;0.1349;
415387207705635;-12.5764;0.5166;-5.0085;
415387217810062;-12.6793;-0.5614;-1.5446;
415387227914750;-6.7026;0.3894;1.3732;
415387238019177;-8.8059;-0.3194;-4.6585;
415387248123604;-12.5118;-0.4896;-2.0569;
415387258237354;-8.4634;-0.1017;-0.9096;
415387268341781;-14.4855;0.0972;-4.0430;
415387278446208;-5.9216;0.6027;1.3181;
415387288540479;-5.3204;-0.0392;-2.5193;
415387298644906;-6.6930;1.2278;-6.4217;
415387308749333;-13.7572;0.0254;-4.1554;
415387318854958;-11.4888;-0.2620;-3.3912;
415387328959385;-0.8384;-0.3676;-3.9401;
415387339063865;-11.3856;-0.6048;-3.7005;
415387349183083;-20.3833;-0.7531;-1.7480;
415387359287510;-8.2095;-0.3508;1.7112;
415387369391937;1.4348;-0.7747;-3.2668;
415387379487771;-10.0537;-0.4107;-6.4576;
415387389592198;-14.5071;-0.2381;-0.8019;
415387399696625;-8.0560;0.9308;-0.0736;
415387409792354;-5.1072;0.5788;-2.0019;
415387419896781;-10.3292;-0.5614;-5.6240;
415387430001208;-17.6764;0.2243;-0.2151;
415387440122562;-7.3325;2.2364;4.8060;
415387450226990;-5.2582;-0.4202;-5.6456;
415387460331417;-16.3445;-0.7890;-11.0809;
415387470424958;-10.8829;-0.5901;2.9016;
415387480529385;-4.6065;1.0914;5.2636;
415387490633812;-10.9810;0.9811;-5.7293;
415387500752458;-14.3130;0.2411;-4.3424;
415387510856885;-6.1205;0.3081;3.0838;
415387520961312;-5.7443;1.8245;-2.1505;
415387531058500;-12.3918;0.4373;-6.2707;
415387541162927;-9.8145;-0.0655;-3.4131;
415387551267354;-8.6859;1.0172;-2.8765;
415387561369229;-9.2441;0.8255;-4.9364;
415387571473656;-15.1107;-0.2285;-4.3065;
415387581578083;-10.8610;-0.3628;-0.9191;
415387591665062;1.7560;0.0470;-1.4486;
415387601769490;-4.2640;-0.2740;-7.5308;
415387611873917;-13.6663;0.4926;-5.6934;
415387621993500;-13.2637;1.4411;0.0532;
415387632097927;-10.0442;2.2531;-0.6556;
415387642202354;-9.2058;0.8279;-2.5648;
415387652307562;-8.5543;0.0302;-0.1525;
415387662411990;-10.4539;1.2278;-0.0951;
415387672516417;-8.7194;1.6735;-4.0334;
415387682610583;-13.3478;-0.8417;-5.8660;
415387692715010;-13.9011;0.1594;1.0618;
415387702819437;-8.9830;1.3406;6.7487;
415387712924125;-10.9786;1.6328;0.9541;
415387723028552;-7.2727;1.0436;-2.2343;
415387733132979;-0.7427;0.5118;-5.8780;
415387743235062;-10.4181;0.3416;-8.8340;
415387753339490;-15.8940;1.6065;-3.7962;
415387763443917;-3.2291;1.7309;-0.5480;
415387773547302;-5.1838;0.3320;-7.7680;
415387783651729;-13.6304;-0.2429;-6.8169;
415387793756156;-12.1929;-0.4322;-1.0606;
415387803860375;-10.8658;-0.2955;-1.9493;
415387813964802;-7.2727;-1.3232;-2.1601;
415387824069229;-12.0278;-0.5830;-3.0703;
415387834181729;-13.3884;0.4735;1.8811;
415387844286156;-3.6796;0.3823;5.7906;
415387854390583;-7.4166;-0.0802;-6.7044;
415387864496156;-16.4955;0.0972;-8.7165;
415387874600583;-12.1235;1.2975;5.4096;
415387884705010;-7.3899;1.0675;3.9150;
415387894809542;-12.6912;0.1977;-6.9392;
415387904913969;-8.9471;-0.8779;-4.8861;
415387915018396;-4.3837;0.7466;-1.5589;
415387925127458;-1.8637;0.1164;-6.7618;
415387935231937;-6.1421;0.6242;-9.1932;
415387945336365;-17.9327;1.1345;-3.2046;
415387955440687;-11.7069;1.2541;0.5970;
415387965545115;-5.0904;0.5477;-3.5471;
415387975649542;-7.7255;-0.1137;-2.6010;
415387985741417;-11.4171;-1.3831;-0.3419;
415387995845844;-12.5189;-1.4551;-3.7675;
415388005950271;-13.2975;-0.1280;-2.7757;
415388016075115;-13.1991;-0.6694;3.5554;
415388026179542;-8.0393;0.0900;4.3125;
415388036283969;-1.1498;-0.5327;0.2689;
415388046358292;0.4313;1.1010;-7.1644;
415388056462719;-10.6696;1.2374;-14.1664;
415388066567146;-28.4225;0.9356;-2.4380;
415388076702562;-15.7696;1.2159;11.0486;
415388086806990;5.4547;0.3081;0.6066;
415388096911417;-3.9021;-1.0549;-11.3061;
415388107006312;-15.8821;0.1116;-8.6734;
415388117110740;-8.3674;-0.1472;-1.1133;
415388127215167;-4.8221;-0.2740;-3.5662;
415388137308917;-8.3578;0.1379;-4.6801;
415388147413344;-12.8231;0.3751;1.0116;
415388157517771;-10.0828;1.1512;4.8634;
415388167631000;-8.1350;1.4985;-0.1693;
415388177735427;-12.8566;-0.3843;-11.4114;
415388187839854;-9.3497;-1.9822;-6.4265;
415388197944385;-3.2052;-0.2333;6.3511;
415388208048812;-10.6313;1.2903;-0.6556;
415388218153240;-14.2053;0.6817;-6.8001;
415388228252562;-12.3990;0.3488;1.0283;
415388238356990;-8.8035;-0.0682;2.5448;
415388248461417;-7.9050;1.0125;-0.5121;
415388258566312;-8.4129;-0.2764;-4.1722;
415388268670740;-9.5749;0.5764;-4.8000;
415388278775219;-5.4640;-0.3194;-5.9545;
415388288882771;-12.2435;0.3607;-6.7905;
415388298987198;-11.6276;0.3679;2.0369;
415388309091625;-3.4926;1.1847;1.4764;
415388319196521;-10.3220;0.1499;-9.0015;
415388329300948;-13.6448;-0.0607;-3.9449;
415388339405375;-8.8394;0.3583;1.6152;
415388349507771;-8.3124;-0.5399;-3.1062;
415388359612198;-11.8193;-0.5423;-2.9459;
415388369716625;-12.8830;-0.6455;-0.2533;
415388379822875;-10.3869;0.5142;0.5515;
415388389927302;-9.4717;0.0852;-0.4738;
415388400031729;-9.8791;0.4014;-1.2353;
415388410144125;-7.9050;0.4974;-2.5863;
415388420248552;-5.6701;0.5979;-4.3831;
415388430352979;-2.4673;-0.0416;-7.7441;
415388440460896;-9.3425;0.6314;-7.9908;
415388450565323;-12.6769;-0.1041;-3.1352;
415388460669750;-12.5357;-0.0200;-0.8091;
415388470762146;-8.6716;-0.3580;-3.5160;
415388480866573;-12.0829;-0.0105;-3.2836;
415388490971000;-8.2119;-1.2060;2.3219;
415388501073135;-6.7816;-0.6814;-0.1023;
415388511177562;-16.1647;-0.2070;-5.3198;
415388521281990;-15.6906;-0.3314;-0.0640;
415388531391052;4.5514;0.1690;5.3354;
415388541495479;-5.4903;0.9404;-1.4868;
415388551599906;-30.7056;1.3860;-5.4467;
415388561706000;-9.4765;0.5094;2.3841;
415388571810427;2.7571;-0.3099;0.2545;
415388581914854;-7.5817;-0.1304;-7.2769;
415388592012458;-15.0652;-0.4202;-8.8508;
415388602116885;-11.7380;-0.2333;-2.0521;
415388612221312;-4.0077;-0.2094;-0.5408;
415388622325687;-7.4740;-0.7890;-8.6064;
415388632430115;-16.5386;-1.9941;-5.6934;
415388642534542;-10.2048;0.1068;9.4412;
415388652645896;6.3841;1.2326;-2.6010;
415388662750323;-13.8652;-0.7795;-21.8629;
415388672854750;-17.6357;-1.1363;-1.3002;
415388682946885;-5.4520;0.9787;12.4167;
415388693051312;-7.6319;0.7008;-5.4203;
415388703155740;-8.4368;-0.5088;-9.8016;
415388713274333;-14.2819;-0.9520;0.5061;
415388723378760;-13.1321;1.4746;4.9953;
415388733483187;-7.0738;0.5142;-0.7107;
415388743583708;-9.7735;-0.4729;-4.4767;
415388753688135;-9.6443;0.5094;-1.0295;
415388763792562;-8.6931;1.8676;-0.1358;
415388773887146;-9.0790;1.1297;-2.2822;
415388783991573;-8.6381;0.9954;-1.7671;
415388794096000;-7.5362;0.5979;-5.2549;
415388804247979;-18.0619;0.3894;-6.4911;
415388814352510;-7.6705;0.3775;5.1703;
415388824457042;4.2975;0.7992;-3.3290;
415388834529958;-16.5482;-1.4719;-13.6083;
415388844634490;-16.7372;-0.6287;-0.4519;
415388854739021;-3.4400;1.1441;3.8623;
415388864847250;-4.6543;0.5022;-4.5843;
415388874951729;-9.2683;-0.2979;-5.1879;
415388885056312;-7.5003;0.2148;-4.0980;
415388895128865;-14.5095;0.8207;-2.4858;
415388905233396;-12.0613;0.4229;-0.4208;
415388915337927;-12.9523;-0.2166;-2.9913;
415388925459333;-8.3315;-0.9497;0.5922;
415388935563865;-0.6538;1.2589;3.2800;
415388945668396;-12.9476;0.6338;-8.0076;
415388955761312;-20.9797;-0.3413;-5.5451;
415388965865844;-4.5562;1.8485;6.4134;
415388975970375;0.4552;2.9121;0.4726;
415388986078083;-15.0389;0.5309;-8.4075;
415388996182615;-11.9919;0.5883;-0.8569;
415389006287146;-2.0865;2.2747;-1.8727;
415389016393292;-10.1091;0.0948;-8.6710;
415389026497823;-12.0135;-0.1400;-7.1596;
415389036602354;-9.6323;0.0852;1.9026;
415389046704646;-5.5600;1.7716;1.2846;
415389056809177;-11.1464;-0.5686;-6.8384;
