Sensor: bmi160 Gyroscope Non-wakeup
Vendor: BOSCH
TimestampGyro [ns]; GyroX [rad/s]; GyroY [rad/s]; GyroZ [rad/s]
913656822325004;0.0048;-0.0036;-0.0039;
913656832407400;0.0037;-0.0036;-0.0039;
913656842537661;-0.0005;0.0007;0.0015;
913656852657140;-0.0027;0.0028;0.0015;
913656862758546;0.0005;0.0007;0.0015;
913656872854379;0.0005;-0.0004;0.0025;
913656882947765;0.0005;-0.0015;0.0036;
913656893035734;0.0005;-0.0004;0.0047;
913656903171723;-0.0016;-0.0015;0.0047;
913656913264640;-0.0016;0.0017;0.0057;
913656923381931;-0.0016;-0.0015;0.0068;
913656933483963;-0.0016;-0.0004;0.0079;
913656943594848;-0.0027;-0.0004;0.0068;
913656953703181;-0.0016;-0.0015;0.0057;
913656963807452;-0.0005;-0.0015;0.0068;
913656973923181;-0.0005;-0.0004;0.0079;
913656984024952;-0.0016;-0.0015;0.0079;
913656994130473;-0.0048;-0.0025;0.0079;
913657004231775;-0.0027;-0.0015;0.0089;
913657014344952;-0.0027;-0.0004;0.0089;
913657024446619;-0.0016;0.0007;0.0100;
913657034551931;-0.0037;-0.0015;0.0111;
913657044648650;-0.0027;-0.0025;0.0111;
913657054763963;-0.0016;-0.0036;0.0111;
913657064872400;-0.0027;-0.0047;0.0121;
913657074989119;-0.0037;-0.0047;0.0100;
913657085088650;-0.0005;-0.0025;0.0079;
913657095211306;-0.0037;-0.0015;0.0068;
913657105301202;-0.0059;-0.0025;0.0057;
913657115406098;-0.0048;-0.0015;0.0036;
913657125515421;-0.0037;-0.0004;0.0036;
913657135621567;-0.0048;-0.0004;0.0036;
913657145733442;-0.0037;-0.0004;0.0015;
913657155836723;-0.0037;-0.0004;0.0004;
913657165948129;-0.0005;-0.0004;-0.0007;
913657176046879;-0.0005;-0.0015;-0.0007;
913657186154431;-0.0016;-0.0015;-0.0028;
913657196258546;-0.0005;0.0007;-0.0049;
913657206388702;0.0005;0.0007;-0.0039;
913657216479536;-0.0005;0.0007;-0.0039;
913657226589536;-0.0005;0.0007;-0.0049;
913657236690473;-0.0016;0.0028;-0.0039;
913657246816359;0.0005;0.0007;-0.0049;
913657256906827;-0.0016;0.0017;-0.0049;
913657267008442;-0.0005;0.0017;-0.0039;
913657277111723;-0.0005;0.0007;-0.0039;
913657287230109;-0.0005;-0.0004;-0.0028;
913657297333806;0.0016;-0.0004;-0.0007;
913657307438702;-0.0005;-0.0004;0.0004;
913657317545109;-0.0005;-0.0015;0.0015;
913657327650161;-0.0016;-0.0004;0.0025;
913657337759275;-0.0005;-0.0025;0.0036;
913657347862869;-0.0016;-0.0004;0.0047;
913657357970994;-0.0027;-0.0004;0.0047;
913657368075369;-0.0005;-0.0015;0.0047;
913657378190942;-0.0005;-0.0015;0.0079;
913657388295681;-0.0027;-0.0015;0.0068;
913657398402973;-0.0027;-0.0025;0.0047;
913657408507348;-0.0027;-0.0025;0.0057;
913657418611619;-0.0016;-0.0015;0.0068;
913657428715161;-0.0037;-0.0025;0.0079;
913657438829952;-0.0027;-0.0025;0.0079;
913657448935265;-0.0037;-0.0004;0.0079;
913657459037661;-0.0016;-0.0004;0.0057;
913657469147869;-0.0005;-0.0015;0.0079;
913657479232921;-0.0027;-0.0015;0.0079;
913657489361515;-0.0027;-0.0015;0.0089;
913657499459692;-0.0037;-0.0036;0.0100;
913657509565890;-0.0037;-0.0057;0.0132;
913657519685994;-0.0037;-0.0047;0.0142;
913657529792036;-0.0037;-0.0057;0.0152;
913657539892140;-0.0048;-0.0047;0.0162;
913657550003286;-0.0069;-0.0036;0.0173;
913657560104536;-0.0069;-0.0025;0.0173;
913657570216515;-0.0059;-0.0036;0.0194;
913657580326723;-0.0048;-0.0036;0.0194;
913657590427036;-0.0059;-0.0036;0.0194;
913657600528181;-0.0048;-0.0047;0.0226;
913657610645734;-0.0048;-0.0036;0.0237;
913657620738546;-0.0037;-0.0036;0.0258;
913657630881775;-0.0037;-0.0047;0.0269;
913657640967504;-0.0069;-0.0047;0.0301;
913657651053077;-0.0069;-0.0025;0.0312;
913657661153181;-0.0069;-0.0015;0.0344;
913657671285942;-0.0080;-0.0004;0.0386;
913657681413129;-0.0059;0.0007;0.0407;
913657691502088;-0.0016;-0.0004;0.0450;
913657701629223;-0.0048;-0.0079;0.0493;
913657711701931;-0.0048;-0.0132;0.0535;
913657721823442;-0.0027;-0.0121;0.0578;
913657731901984;-0.0112;-0.0132;0.0620;
913657742028963;-0.0165;-0.0142;0.0663;
913657752173234;-0.0176;-0.0111;0.0738;
913657762227713;-0.0197;-0.0100;0.0791;
913657772330317;-0.0218;-0.0111;0.0834;
913657782464692;-0.0250;-0.0142;0.0908;
913657792567400;-0.0240;-0.0185;0.0940;
913657802654692;-0.0272;-0.0196;0.0993;
913657812777088;-0.0272;-0.0217;0.1047;
913657822889171;-0.0250;-0.0217;0.1089;
913657832993754;-0.0240;-0.0206;0.1132;
913657843102609;-0.0272;-0.0217;0.1206;
913657853184484;-0.0314;-0.0238;0.1260;
913657863297400;-0.0346;-0.0260;0.1313;
913657873406202;-0.0368;-0.0270;0.1387;
913657883510109;-0.0368;-0.0281;0.1441;
913657893629431;-0.0368;-0.0270;0.1515;
913657903735838;-0.0399;-0.0260;0.1579;
913657913842192;-0.0421;-0.0270;0.1643;
913657923947921;-0.0431;-0.0292;0.1696;
913657934054327;-0.0453;-0.0313;0.1760;
913657944160681;-0.0463;-0.0313;0.1803;
913657954260004;-0.0485;-0.0302;0.1856;
913657964366411;-0.0506;-0.0302;0.1888;
913657974472765;-0.0495;-0.0313;0.1931;
913657984587088;-0.0495;-0.0324;0.1984;
913657994693494;-0.0495;-0.0356;0.2027;
913658004799848;-0.0485;-0.0377;0.2037;
913658014900369;-0.0495;-0.0387;0.2037;
913658025006775;-0.0485;-0.0398;0.2037;
913658035113129;-0.0485;-0.0377;0.2027;
913658045236306;-0.0495;-0.0366;0.2037;
913658055342713;-0.0495;-0.0324;0.2005;
913658065449067;-0.0527;-0.0292;0.1984;
913658075562140;-0.0517;-0.0270;0.1984;
913658085668546;-0.0495;-0.0281;0.1973;
913658095774900;-0.0495;-0.0324;0.1973;
913658105854588;-0.0485;-0.0356;0.1973;
913658115960994;-0.0495;-0.0366;0.1973;
913658126067348;-0.0485;-0.0366;0.1963;
913658136181098;-0.0474;-0.0366;0.1920;
913658146287504;-0.0463;-0.0334;0.1899;
913658156393859;-0.0463;-0.0313;0.1867;
913658166525577;-0.0442;-0.0302;0.1803;
913658176631984;-0.0410;-0.0313;0.1739;
913658186738338;-0.0421;-0.0324;0.1675;
913658196827504;-0.0421;-0.0302;0.1601;
913658206933911;-0.0399;-0.0238;0.1505;
913658217040265;-0.0378;-0.0196;0.1398;
913658227143077;-0.0346;-0.0153;0.1334;
913658237249484;-0.0325;-0.0132;0.1292;
913658247355838;-0.0336;-0.0164;0.1228;
913658257460577;-0.0336;-0.0164;0.1153;
913658267566984;-0.0282;-0.0142;0.1068;
913658277673338;-0.0229;-0.0174;0.0983;
913658287773181;-0.0176;-0.0217;0.0919;
913658297879588;-0.0144;-0.0228;0.0834;
913658307985942;-0.0133;-0.0260;0.0695;
913658318101098;-0.0112;-0.0281;0.0567;
913658328207504;-0.0069;-0.0249;0.0471;
913658338313859;0.0005;-0.0185;0.0386;
913658348431359;-0.0059;-0.0142;0.0322;
913658358537765;-0.0112;-0.0057;0.0258;
913658368644119;-0.0101;0.0017;0.0194;
913658378732973;-0.0080;0.0039;0.0162;
913658388839379;-0.0059;0.0007;0.0173;
913658398945734;-0.0037;-0.0036;0.0142;
913658409077765;-0.0027;-0.0121;0.0079;
913658419184171;0.0027;-0.0164;0.0047;
913658429290525;0.0240;-0.0153;0.0089;
913658439388911;0.0815;-0.0100;0.0152;
913658449495317;0.1539;-0.0025;0.0205;
913658459601671;0.2104;-0.0015;0.0280;
913658469711411;0.2391;-0.0015;0.0386;
913658479817817;0.2498;-0.0047;0.0482;
913658489924171;0.2615;-0.0153;0.0482;
913658500024848;0.2530;-0.0260;0.0535;
913658510131254;0.2242;-0.0366;0.0642;
913658520237609;0.3009;-0.0249;0.0887;
913658530341827;0.4297;-0.0111;0.1100;
913658540448234;0.5778;-0.0025;0.1281;
913658550554588;0.7514;0.0049;0.1537;
913658560653806;0.9431;0.0081;0.1835;
913658570760213;1.0506;-0.0025;0.2122;
913658580866567;1.1252;-0.0164;0.2378;
913658590980681;1.1816;-0.0217;0.2623;
913658601087088;1.2583;-0.0228;0.2868;
913658611193442;1.3137;-0.0249;0.3124;
913658621278598;1.3755;-0.0185;0.3379;
913658631385004;1.4479;-0.0047;0.3614;
913658641491359;1.5065;0.0049;0.3806;
913658651637556;1.5417;0.0103;0.4008;
913658661743963;1.5619;0.0177;0.4146;
913658671850317;1.5683;0.0252;0.4221;
913658681952556;1.4948;0.0188;0.4136;
913658692058963;1.2466;-0.0111;0.3838;
913658702165317;0.8941;-0.0356;0.3497;
913658712263598;0.5746;-0.0334;0.3369;
913658722370004;0.3967;-0.0111;0.3273;
913658732476359;0.3329;0.0273;0.3081;
913658742595681;0.3009;0.0688;0.2751;
913658752702088;0.2743;0.0944;0.2495;
913658762808442;0.2690;0.1040;0.2399;
913658772909640;0.2732;0.0923;0.2389;
913658783016046;0.2477;0.0646;0.2431;
913658793122400;0.2913;0.0539;0.2442;
913658803221306;0.3521;0.0454;0.2517;
913658813327713;0.3839;0.0326;0.2602;
913658823434067;0.3988;0.0273;0.2602;
913658833540004;0.3775;0.0262;0.2570;
913658843646411;0.3403;0.0220;0.2538;
913658853752765;0.3063;0.0198;0.2485;
913658863868754;0.2818;0.0230;0.2453;
913658873975161;0.2615;0.0326;0.2389;
913658884081515;0.2466;0.0443;0.2293;
913658894174744;0.2114;0.0539;0.2176;
913658904281150;0.1486;0.0561;0.2069;
913658914387504;0.0868;0.0550;0.1952;
913658924521515;0.0314;0.0550;0.1835;
913658934627921;-0.0218;0.0507;0.1750;
913658944734275;-0.0399;0.0454;0.1675;
913658954820890;-0.0314;0.0411;0.1611;
913658964927296;-0.0272;0.0369;0.1558;
913658975033650;-0.0197;0.0337;0.1505;
913658985140473;-0.0165;0.0262;0.1451;
913658995246879;-0.0133;0.0188;0.1409;
913659005353234;-0.0069;0.0113;0.1387;
913659015457244;-0.0037;0.0060;0.1377;
913659025563650;-0.0016;0.0071;0.1334;
913659035670004;0.0016;0.0049;0.1270;
913659045786306;0.0027;0.0049;0.1238;
913659055892713;0.0037;0.0124;0.1185;
913659065999067;0.0037;0.0145;0.1153;
913659076110786;0.0048;0.0134;0.1132;
913659086217192;0.0123;0.0145;0.1132;
913659096323546;0.0144;0.0124;0.1121;
913659106424848;0.0176;0.0060;0.1121;
913659116531254;0.0154;-0.0025;0.1142;
913659126637609;0.0123;-0.0079;0.1121;
913659136690369;0.0133;-0.0068;0.1089;
913659146796775;0.0144;-0.0089;0.1047;
913659156903129;0.0154;-0.0025;0.0940;
913659167052765;0.0197;0.0017;0.0887;
913659177159171;0.0240;-0.0025;0.0802;
913659187265525;0.0229;-0.0089;0.0738;
913659197381671;0.0250;-0.0025;0.0684;
913659207488077;0.0378;0.0348;0.0546;
913659217594431;0.0613;0.1668;0.0365;
913659227701931;0.0783;0.0923;0.0237;
913659237808338;0.0826;-0.0686;0.0908;
913659247914692;0.0783;0.0134;0.0780;
913659258023077;0.0623;-0.0675;0.0620;
913659268129484;0.0538;-0.1581;0.0429;
913659278235838;0.0399;-0.0238;-0.0028;
913659288348598;0.0708;0.0603;-0.0209;
913659298455004;0.0964;-0.0185;0.0111;
913659308561359;0.0953;-0.0654;0.0205;
913659318663911;0.1316;-0.0505;-0.0092;
913659328770317;0.1859;-0.0760;-0.0294;
913659338876671;0.2264;-0.0899;-0.0316;
913659348968702;0.2881;-0.0302;-0.0326;
913659359075056;0.3828;0.0156;-0.0326;
913659369181463;0.5053;-0.0153;-0.0316;
913659379298286;0.6257;-0.0313;-0.0369;
913659389404692;0.7407;-0.0121;-0.0497;
913659399511046;0.8419;-0.0483;-0.0422;
913659409628806;0.9453;-0.0920;-0.0337;
913659419735213;1.0378;-0.0803;-0.0294;
913659429841567;1.0879;-0.0728;-0.0071;
913659439948286;1.1124;-0.0558;0.0057;
913659450054692;1.1443;-0.0260;-0.0103;
913659460161046;1.1262;-0.0313;-0.0284;
913659470258494;1.0101;-0.0324;-0.0411;
913659480364900;0.9005;-0.0217;-0.0539;
913659490471254;0.7770;-0.0558;-0.0529;
913659500579536;0.5959;-0.0707;-0.0433;
913659510685942;0.4830;-0.0260;-0.0593;
913659520792296;0.5043;-0.0036;-0.0752;
913659530964848;0.5575;-0.0419;-0.0742;
913659541071254;0.6300;-0.0473;-0.0731;
913659551177609;0.6821;-0.0313;-0.0593;
913659561207661;0.6502;-0.0132;-0.0326;
913659571314067;0.5959;0.0113;-0.0198;
913659581420421;0.5969;-0.0015;-0.0241;
913659591542765;0.6992;-0.0100;-0.0220;
913659601649171;0.8228;-0.0079;0.0111;
913659611755525;0.8845;-0.0068;0.0599;
913659621873181;0.8867;0.0486;0.0993;
913659631979588;0.8877;0.0486;0.1217;
913659642085942;0.9431;-0.0409;0.1526;
913659652190994;0.9984;-0.0601;0.1696;
913659662297400;0.9144;0.0305;0.1728;
913659672403754;0.7503;0.0646;0.2080;
913659682506202;0.6534;0.0284;0.2389;
913659692612609;0.5991;-0.0089;0.2250;
913659702718963;0.4872;-0.0100;0.1973;
913659712809848;0.3201;0.0273;0.2037;
913659722916254;0.3254;0.0454;0.2293;
913659733022609;0.3414;0.0326;0.2410;
913659743162400;0.2455;0.0039;0.2176;
913659753268806;0.0879;-0.0281;0.1941;
913659763375161;-0.1678;-0.0206;0.1920;
913659773455994;-0.4563;-0.0004;0.1654;
913659783562400;-0.7045;-0.0387;0.1089;
913659793668754;-0.9419;-0.0867;0.0514;
913659803790786;-1.1795;-0.0782;0.0079;
913659813897192;-1.3744;-0.0515;-0.0348;
913659824003546;-1.4925;-0.0249;-0.0933;
913659834107973;-1.5149;-0.0206;-0.1498;
913659844214379;-1.5192;-0.0569;-0.1679;
913659854320734;-1.4723;0.0092;-0.1658;
913659864454848;-1.3350;0.0646;-0.1732;
913659874561254;-1.2274;-0.0324;-0.1732;
913659884667609;-1.0623;-0.0579;-0.2073;
913659894759327;-0.9547;-0.0015;-0.2297;
913659904865734;-0.9100;-0.0164;-0.2414;
913659914972088;-0.8142;-0.0856;-0.2276;
913659925082036;-0.6715;-0.0590;-0.2073;
913659935188442;-0.5565;0.0284;-0.1967;
913659945294796;-0.4691;0.0912;-0.2084;
913659955388754;-0.3743;0.0944;-0.2190;
913659965495161;-0.2624;0.0624;-0.2180;
913659975601515;-0.1113;0.0390;-0.1818;
913659985708181;0.0197;0.0582;-0.1455;
913659995814588;0.0772;0.0475;-0.1136;
913660005920942;0.0932;0.0571;-0.0838;
913660016026306;0.0655;0.0784;-0.0912;
913660026132713;0.0506;0.0316;-0.1051;
913660036239067;0.0304;0.0134;-0.0955;
913660046334588;-0.0218;-0.0068;-0.0475;
913660056440994;-0.0389;-0.0142;-0.0188;
913660066547348;-0.0794;0.0326;-0.0124;
913660076672869;-0.1497;0.0433;-0.0103;
913660086779275;-0.1976;0.0390;-0.0166;
913660096885629;-0.2019;0.0348;-0.0230;
913660106991619;-0.2019;0.0422;-0.0017;
913660117098025;-0.2253;0.0731;0.0162;
913660127204379;-0.2402;0.0678;0.0079;
913660137295265;-0.2624;-0.0217;0.0079;
913660147401671;-0.2507;-0.0622;-0.0028;
913660157508025;-0.2699;-0.0270;0.0025;
913660167630265;-0.2848;-0.0494;0.0004;
913660177736671;-0.2114;-0.0696;0.0036;
913660187843025;-0.1230;-0.0366;0.0121;
913660197948806;-0.0740;-0.0228;0.0322;
913660208055213;-0.0336;0.0326;0.0365;
913660218161567;0.0069;0.0997;0.0216;
913660228263754;-0.0133;0.1072;0.0205;
913660238370161;-0.0123;0.1029;0.0354;
913660248476515;-0.0282;0.0656;0.0301;
913660258588911;-0.0101;0.0252;0.0290;
913660268695317;0.0165;0.0252;0.0152;
913660278801671;0.0495;-0.0100;0.0111;
913660288925056;0.0996;-0.0632;0.0173;
913660299031463;0.1880;-0.0111;0.0142;
913660309137817;0.2402;0.0273;0.0301;
913660319228806;0.2668;-0.0377;0.0599;
913660329335213;0.2445;-0.0558;0.0748;
913660339441567;0.2253;-0.0025;0.0823;
913660349535056;0.2477;0.0230;0.0652;
913660359641463;0.2487;-0.0238;0.0375;
913660369747817;0.1933;-0.0728;0.0418;
913660379871671;0.1060;-0.0238;0.0887;
913660389978077;0.0229;0.0039;0.1111;
913660400084431;-0.0250;-0.0664;0.1068;
913660410191411;0.0037;-0.0995;0.1100;
913660420297817;0.0272;-0.0611;0.1281;
913660430404171;0.0176;-0.0356;0.1547;
913660440507088;-0.0389;-0.0238;0.1973;
913660450613494;-0.0399;-0.0398;0.1909;
913660460719848;-0.0762;-0.0483;0.2037;
913660470830786;-0.1603;-0.0111;0.2059;
913660480937192;-0.2550;-0.0345;0.2059;
913660491043546;-0.3956;-0.1261;0.2165;
913660501155681;-0.5533;-0.1272;0.2431;
913660511262088;-0.6385;-0.0494;0.2549;
913660521368442;-0.7471;-0.0419;0.2431;
913660531483181;-0.8791;-0.0856;0.2112;
913660541589588;-0.9355;-0.0739;0.1803;
913660551695942;-1.0506;-0.0451;0.1814;
913660561796463;-1.1422;-0.0547;0.1846;
913660571902869;-1.2146;-0.0558;0.1782;
913660582009223;-1.2860;-0.0356;0.1835;
913660592096723;-1.3158;-0.0132;0.1760;
913660602203129;-1.3563;-0.0100;0.1760;
913660612309484;-1.4096;-0.0356;0.1483;
913660622427036;-1.3893;-0.0856;0.1249;
913660632533442;-1.3499;-0.1037;0.1153;
913660642639796;-1.3265;-0.1016;0.1004;
913660652736202;-1.2881;-0.1261;0.0663;
913660662842609;-1.2881;-0.1037;0.0471;
913660672948963;-1.2913;-0.0302;0.0258;
913660683084744;-1.3318;0.0060;0.0290;
913660693191150;-1.3286;-0.0047;0.0025;
913660703297504;-1.3212;-0.0057;-0.0252;
913660713390681;-1.3222;0.0571;-0.0411;
913660723497088;-1.3542;0.0571;-0.0475;
913660733603442;-1.3776;0.0017;-0.0582;
913660743713911;-1.4234;0.0134;-0.0891;
913660753820317;-1.5010;0.0028;-0.1264;
913660763926671;-1.5160;-0.0111;-0.1328;
913660774031671;-1.4851;0.0124;-0.1296;
913660784138077;-1.4670;0.0688;-0.1402;
913660794244431;-1.4245;0.0944;-0.1328;
913660804348702;-1.4085;0.1093;-0.1317;
913660814455109;-1.3925;0.1242;-0.1498;
913660824561463;-1.3627;0.1221;-0.1658;
913660834668286;-1.3222;0.1210;-0.1818;
913660844774692;-1.3073;0.1210;-0.1818;
913660854881046;-1.2988;0.1445;-0.1860;
913660865006098;-1.2871;0.1232;-0.1519;
913660875112504;-1.2754;0.1594;-0.1178;
913660885218859;-1.2977;0.2095;-0.0965;
913660895312869;-1.3297;0.1700;-0.1157;
913660905419275;-1.3371;0.1264;-0.1530;
913660915525629;-1.3339;0.1519;-0.1743;
913660925641150;-1.2956;0.1860;-0.1807;
913660935747556;-1.2658;0.2073;-0.1860;
913660945853911;-1.2061;0.2467;-0.1967;
913660955955004;-1.1731;0.3170;-0.2361;
913660966061411;-1.1678;0.3968;-0.2467;
913660976167765;-1.1667;0.4405;-0.2627;
913660986271827;-1.1582;0.4447;-0.2691;
913660996378234;-1.1230;0.4511;-0.2798;
913661006484588;-1.1220;0.4117;-0.2989;
913661016597244;-1.0399;0.3702;-0.3128;
913661026703650;-1.0282;0.3266;-0.3351;
913661036810004;-1.0112;0.2957;-0.3692;
913661046934431;-1.0335;0.2606;-0.3927;
913661057040838;-1.0165;0.2585;-0.4108;
913661067147192;-1.0399;0.2766;-0.4300;
913661077231723;-1.0367;0.2904;-0.4651;
913661087338129;-1.0527;0.3351;-0.4971;
913661097444484;-1.0644;0.4245;-0.5109;
913661107555056;-1.0655;0.4810;-0.5312;
913661117661463;-1.0655;0.4746;-0.5301;
913661127767817;-1.0538;0.4937;-0.5738;
913661137869327;-1.0602;0.5949;-0.6418;
913661147975734;-1.0815;0.6322;-0.6631;
913661158082088;-1.0634;0.5140;-0.6908;
913661168207661;-1.0165;0.4437;-0.7377;
913661178314067;-0.9760;0.4724;-0.7696;
913661188420421;-0.9291;0.4660;-0.8240;
913661198516827;-0.7588;0.4511;-0.8538;
913661208623234;-0.5469;0.4650;-0.8559;
913661218729588;-0.3604;0.4746;-0.8335;
913661228838702;-0.1880;0.3979;-0.8325;
913661238945109;-0.0005;0.3075;-0.8367;
913661249051463;0.2434;0.2979;-0.7973;
913661259158494;0.3881;0.2616;-0.7771;
913661269264900;0.5554;0.1999;-0.7558;
913661279371254;0.7493;0.1551;-0.7238;
913661289480265;0.9506;0.1626;-0.6535;
913661299586671;1.1262;0.1786;-0.5971;
913661309693025;1.2402;0.1178;-0.5141;
913661319783077;1.3339;0.0784;-0.4513;
913661329889484;1.4479;0.0923;-0.3959;
913661339995838;1.4959;0.1115;-0.3309;
913661350111515;1.5289;0.1104;-0.2702;
913661360218234;1.5001;0.1115;-0.2052;
913661370324952;1.4809;0.1051;-0.1850;
913661380443598;1.4341;0.1072;-0.1445;
913661390550317;1.3499;0.1019;-0.1274;
913661400657036;1.2775;0.0667;-0.0561;
913661410761306;1.1497;0.0326;-0.0358;
913661420868025;1.0602;-0.0111;-0.0177;
913661430974744;0.9197;-0.0270;-0.0348;
913661441066202;0.7887;-0.0174;-0.0305;
913661451172921;0.6545;0.0145;-0.0507;
913661461279640;0.5596;0.0518;-0.0635;
913661471439640;0.4648;0.0593;-0.0529;
913661481546359;0.3754;0.0529;-0.0539;
913661491653077;0.3233;0.0390;-0.0337;
913661501717973;0.2296;0.0454;-0.0624;
913661511824692;0.1699;0.0603;-0.0667;
913661521931411;0.1262;0.0465;-0.0710;
913661532050681;0.1337;0.0475;-0.0529;
913661542157400;0.1209;0.0401;-0.0486;
913661552264119;0.1166;0.0326;-0.0742;
913661562344536;0.1209;-0.0121;-0.0422;
913661572451254;0.0975;-0.0483;-0.0475;
913661582557973;0.1188;-0.0217;-0.0316;
913661592686931;0.1433;0.0060;-0.0326;
913661602793650;0.1454;0.0124;-0.0390;
913661612900369;0.1337;-0.0174;-0.0305;
913661623012556;0.1145;-0.0377;-0.0635;
913661633119275;0.1475;-0.0387;-0.0465;
913661643225994;0.1156;0.0230;-0.0784;
913661653337556;0.1561;0.0369;-0.0571;
913661663444275;0.1603;-0.0185;-0.0103;
913661673550994;0.1220;-0.0856;-0.0475;
913661683633181;0.1390;-0.1091;-0.0550;
913661693739900;0.1060;-0.0643;-0.0624;
913661703846619;0.1230;-0.0142;-0.0507;
913661713957452;0.1678;-0.0015;-0.0422;
913661724064171;0.1475;0.0188;-0.0752;
913661734170890;0.1848;-0.0174;-0.0752;
913661744282765;0.1688;-0.0739;-0.0550;
913661754389484;0.1720;-0.0718;-0.0486;
913661764496202;0.2125;-0.0345;-0.0603;
913661774605421;0.2551;-0.0121;-0.0624;
913661784712140;0.3318;-0.0419;-0.0475;
913661794818859;0.4041;-0.0366;-0.0049;
913661804926515;0.4339;-0.0238;-0.0060;
913661815033234;0.5032;-0.0068;0.0015;
913661825139952;0.5767;-0.0228;0.0248;
913661835234171;0.6353;-0.0473;0.0418;
913661845340890;0.6608;-0.0185;0.0780;
913661855447609;0.6331;0.0081;0.0663;
913661865569119;0.6374;0.0134;0.0866;
913661875675838;0.6385;0.0209;0.1185;
913661885782556;0.6331;0.0134;0.1419;
913661895887348;0.6108;0.0230;0.1750;
913661905994067;0.5043;0.0039;0.1760;
913661916100786;0.4020;-0.0345;0.1558;
913661926188702;0.2956;0.0944;0.1601;
913661936295421;0.2849;0.0976;0.1558;
913661946402140;0.2796;0.0209;0.1675;
913661956527661;0.2636;0.0507;0.1728;
913661966634379;0.1529;0.0486;0.1686;
913661976741098;0.1188;0.0475;0.1632;
913661986837765;0.1188;0.0326;0.1462;
913661996944484;0.0613;0.0401;0.1505;
913662007051202;-0.0208;0.0688;0.1590;
913662017164327;-0.0272;0.0411;0.1611;
913662027271046;-0.0123;-0.0025;0.1441;
913662037377765;-0.0250;0.0113;0.1206;
913662047488494;0.0101;0.0092;0.0972;
913662057595213;0.0549;-0.0366;0.0844;
913662067701931;0.1145;-0.0302;0.0748;
913662077814848;0.1603;0.0156;0.0834;
913662087921567;0.1316;0.0209;0.0887;
913662098028286;0.2093;0.0103;0.1111;
913662108143911;0.2562;-0.0153;0.1270;
913662118250629;0.2338;-0.0270;0.1281;
913662128357348;0.2125;-0.0292;0.1153;
913662138450994;0.2019;-0.0313;0.0897;
913662148557713;0.2125;0.0273;0.1047;
913662158664431;0.2317;0.0933;0.1185;
913662168769536;0.2413;0.1040;0.1132;
913662178876254;0.2423;0.0475;0.1313;
913662188982973;0.2029;-0.0047;0.1334;
913662199084015;0.1923;-0.0057;0.1451;
913662209190734;0.1912;-0.0111;0.1590;
913662219297452;0.2019;-0.0387;0.1739;
913662229407661;0.1635;-0.0696;0.1952;
913662239514379;0.1901;-0.0313;0.1835;
913662249621098;0.1710;-0.0238;0.1611;
913662259737088;0.1752;-0.0984;0.1707;
913662269843806;0.1933;-0.0899;0.1792;
913662279950525;0.1603;-0.0174;0.1547;
913662290046619;0.1379;0.0230;0.1579;
913662300153338;0.1795;0.0529;0.1771;
913662310260056;0.1912;0.0582;0.1718;
913662320355786;0.1731;0.0422;0.1771;
913662330462504;0.1699;0.0507;0.1622;
913662340569223;0.1230;0.0774;0.1867;
913662350677452;0.1294;0.0976;0.2005;
913662360784171;0.1113;0.0582;0.2037;
913662370890890;0.0698;-0.0356;0.2154;
913662380992973;-0.0282;-0.0515;0.2208;
913662391099692;-0.1742;-0.0558;0.2091;
913662401206411;-0.2859;-0.0718;0.1952;
913662411324327;-0.3264;-0.0526;0.1867;
913662421431046;-0.3594;0.0017;0.1803;
913662431537765;-0.4180;-0.0111;0.1771;
913662441624848;-0.4808;-0.0356;0.1579;
913662451731567;-0.4648;0.0252;0.1302;
913662461838286;-0.5181;0.0752;0.0855;
913662471941619;-0.5277;0.0933;0.0397;
913662482048338;-0.5778;0.1040;0.0322;
913662492155056;-0.5969;0.0667;0.0375;
913662502269952;-0.5554;0.0316;0.0089;
913662512376671;-0.5298;-0.0174;-0.0358;
913662522483390;-0.5224;-0.0366;-0.0646;
913662532629848;-0.4734;-0.0281;-0.0869;
913662542736567;-0.3913;-0.0164;-0.1008;
913662552843286;-0.3114;-0.0366;-0.1168;
913662562929431;-0.2381;-0.0334;-0.1125;
913662573036150;-0.1198;-0.0047;-0.1072;
913662583142869;-0.0985;-0.0004;-0.0955;
913662593237452;-0.0527;0.0284;-0.1008;
913662603344171;-0.0165;0.0166;-0.1008;
913662613450890;0.0314;0.0103;-0.0912;
913662623563077;0.0719;0.0198;-0.0763;
913662633669796;0.0602;0.0071;-0.0923;
913662643776515;0.0559;0.0411;-0.1115;
913662653877140;0.0708;0.0742;-0.1391;
913662663983859;0.0123;0.0220;-0.1200;
913662674090577;-0.0037;-0.0238;-0.0901;
913662684208911;-0.0368;-0.0366;-0.0742;
913662694315629;-0.0442;-0.0526;-0.1040;
913662704422348;-0.0463;-0.0505;-0.1370;
913662714523911;-0.0613;-0.0622;-0.1360;
913662724630629;-0.0549;-0.0206;-0.1509;
913662734737348;-0.0463;0.0571;-0.1445;
913662744838806;-0.0538;0.0656;-0.1264;
913662754945525;-0.0399;0.0316;-0.1072;
913662765052244;-0.0133;0.0348;-0.1306;
913662775158702;-0.0080;0.0688;-0.1317;
913662785265421;-0.0474;0.0401;-0.1178;
913662795372140;-0.0272;0.0071;-0.0891;
913662805493806;-0.0144;0.0433;-0.1029;
913662815600525;0.0272;0.0039;-0.0763;
913662825707244;0.0463;-0.0632;-0.0731;
913662835801723;0.0346;-0.0334;-0.1743;
913662845908442;-0.0027;0.0688;-0.1892;
913662856015161;0.0016;0.0443;-0.1168;
913662866119015;0.0272;-0.0089;-0.0880;
913662876225734;0.0698;0.0060;-0.1328;
913662886332452;0.0655;0.0401;-0.1594;
913662896453911;0.0549;0.0177;-0.1328;
913662906560629;0.0666;0.0348;-0.1083;
913662916667348;0.1209;0.1402;-0.0976;
913662926754952;0.0421;0.0699;-0.0752;
913662936861671;0.0272;-0.0558;-0.0720;
913662946968390;0.0655;-0.0494;-0.0379;
913662957081411;0.0836;0.0124;-0.0806;
913662967188129;0.1081;0.0039;-0.0614;
913662977294848;0.0985;-0.0164;-0.0411;
913662987405577;0.1422;-0.0782;0.0216;
913662997512296;0.1443;-0.1314;0.0674;
913663007619015;0.2221;-0.1080;0.0546;
913663017719536;0.2935;0.0209;0.0142;
913663027826254;0.2221;0.0454;0.0237;
913663037932973;0.1699;-0.1367;0.0652;
913663048043181;0.1965;-0.1538;0.0929;
913663058149900;0.1411;-0.1325;0.1015;
913663068256619;0.0847;-0.2911;0.0972;
913663078380369;0.0751;-0.2316;0.0567;
913663088487088;0.0740;0.1913;-0.0539;
913663098593806;-0.0368;0.3787;-0.0795;
913663108707348;0.0378;0.0965;0.0111;
913663118814067;0.0708;-0.0047;0.0237;
913663128920786;0.0208;0.1700;0.0258;
913663138996098;-0.0005;0.1434;0.0407;
913663149102817;0.0953;-0.0771;0.0738;
913663159209536;0.0879;-0.1325;0.0972;
913663169330838;0.0261;-0.0590;0.0791;
913663179437556;0.0847;0.0443;0.0429;
913663189544275;0.1028;0.0390;0.0887;
913663199658494;0.0964;-0.1101;0.1068;
913663209765213;0.1134;-0.1783;0.1387;
913663219871931;0.0826;-0.0409;0.1345;
913663229967661;0.0794;0.2446;0.1206;
913663240074379;0.1337;0.2659;0.0940;
913663250181098;0.3308;0.2893;0.1313;
913663260285161;0.3052;0.3670;0.1675;
913663270391879;0.1007;0.1019;0.1622;
913663280498598;0.0634;-0.2751;0.1718;
913663290604171;-0.0218;-0.2273;0.1995;
913663300710890;-0.1624;-0.0814;0.1771;
913663310817609;-0.1188;-0.1208;0.1643;
913663320978598;0.0272;-0.1623;0.1100;
913663331085317;-0.0357;0.0326;0.0439;
913663341192036;-0.1710;0.1732;-0.0326;
913663351247452;-0.1241;0.0092;0.0791;
913663361354171;0.0048;-0.1517;0.1270;
913663371460942;-0.0474;-0.0782;0.1292;
913663381600369;-0.1284;0.1445;0.1068;
913663391707088;-0.0634;0.1988;0.1302;
913663401813859;0.1124;0.2212;0.1419;
913663411893390;0.0826;0.0603;0.1569;
913663422000109;-0.0261;-0.2316;0.1270;
913663432106879;-0.1060;-0.2644;0.1483;
913663442191202;-0.2784;-0.1154;0.1132;
913663452297921;-0.3061;-0.0132;0.0919;
913663462404692;-0.1774;-0.0111;0.1089;
913663472518806;-0.0410;-0.0249;0.0844;
913663482625525;-0.0655;0.0294;0.0802;
913663492732296;-0.0868;0.0284;0.0727;
913663502836306;-0.0591;0.0156;0.0407;
913663512943025;-0.0591;0.0188;0.0237;
913663523049796;-0.0591;0.0742;0.0025;
913663533184431;-0.0218;0.1221;0.0162;
913663543291150;-0.0272;0.0976;-0.0113;
913663553397921;-0.0442;0.0731;-0.0294;
913663563481306;-0.0421;0.0603;-0.0422;
913663573588025;-0.0698;-0.0409;-0.0241;
913663583694796;-0.0772;-0.2103;-0.0049;
913663593798286;-0.0431;-0.0718;0.0121;
913663603905004;-0.0538;0.1232;0.0036;
913663614011775;-0.0101;0.0220;0.0173;
913663624131723;0.0453;-0.0835;0.0333;
913663634238442;0.0059;-0.0302;0.0418;
913663644345213;-0.0325;0.0177;0.0439;
913663654453181;0.0048;-0.0451;0.0194;
913663664559900;0.0282;-0.0931;-0.0049;
913663674666671;-0.0431;-0.0750;0.0004;
913663684762348;-0.0346;-0.0696;0.0132;
913663694869067;-0.0314;-0.1069;-0.0092;
913663704975838;-0.0506;-0.0814;-0.0177;
913663715091411;-0.0549;-0.0569;-0.0326;
913663725198129;-0.0208;-0.0803;-0.0497;
913663735304900;-0.0197;-0.0899;-0.0230;
913663745402244;-0.0357;-0.0750;-0.0092;
913663755508963;-0.0431;-0.0558;-0.0081;
913663765615734;-0.0112;0.0241;0.0152;
913663775725681;-0.0314;0.0198;0.0418;
913663785832400;-0.0197;-0.0206;0.0269;
913663795939171;-0.0240;0.0316;0.0344;
913663806043077;-0.0708;0.0624;-0.0092;
913663816149796;-0.0357;0.0848;-0.0294;
913663826256567;-0.0506;0.1157;-0.0071;
913663836360681;-0.0378;0.0880;0.0194;
913663846467400;-0.0463;0.0220;0.0068;
913663856574171;-0.0804;-0.0356;-0.0049;
913663866685786;-0.0975;-0.0068;-0.0113;
913663876792504;-0.1028;0.0369;-0.0113;
913663886899275;-0.0762;0.0688;-0.0177;
913663897010577;-0.0559;0.1115;-0.0103;
913663907117296;-0.0570;0.1253;-0.0049;
913663917224067;-0.0581;0.1391;0.0068;
913663927353286;-0.0389;0.1061;0.0173;
913663937460004;-0.0634;0.0198;0.0280;
913663947566775;-0.0634;-0.0036;0.0301;
913663957643338;-0.1103;-0.0228;0.0121;
913663967750056;-0.1294;-0.0611;-0.0049;
913663977856827;-0.1688;-0.0750;0.0004;
913663987974952;-0.1955;-0.0867;-0.0039;
913663998081671;-0.1827;-0.0515;-0.0433;
913664008188442;-0.1486;-0.0302;-0.0656;
913664018290265;-0.0953;0.0316;-0.0486;
913664028396984;-0.0399;0.0561;-0.0422;
913664038503754;-0.0261;0.0092;-0.0518;
913664048613754;-0.0325;-0.0281;-0.0273;
913664058720473;-0.0421;-0.0302;-0.0103;
913664068827244;-0.0474;-0.0100;-0.0103;
913664078921619;-0.0304;-0.0206;-0.0017;
913664089028338;-0.0549;-0.0569;-0.0039;
913664099135109;-0.0197;-0.0526;0.0057;
913664109260681;0.0080;0.0060;-0.0284;
913664119367400;0.0272;0.0529;-0.0198;
913664129474171;0.0527;0.0614;0.0226;
913664139560890;0.0836;0.0752;0.0493;
913664149667609;0.0570;0.0465;0.0407;
913664159774379;0.0399;0.0571;0.0237;
913664169894588;-0.0037;0.0976;0.0152;
913664180001306;-0.0133;0.1061;0.0312;
913664190108077;-0.0325;0.0710;0.0322;
913664200201931;-0.0527;0.0443;0.0535;
913664210308650;-0.0719;0.0838;0.0439;
913664220415421;-0.0858;0.0507;0.0695;
913664230524744;-0.0964;-0.0217;0.0599;
913664240631463;-0.0985;-0.0430;0.0706;
913664250738234;-0.1326;-0.0142;0.0450;
913664260892452;-0.1262;0.0326;0.0226;
913664270999171;-0.1390;0.0294;0.0322;
913664281105942;-0.1177;0.0411;0.0386;
913664291161306;-0.1326;0.0209;0.0142;
913664301268025;-0.1262;-0.0036;-0.0049;
913664311374796;-0.1241;0.0390;-0.0017;
913664321499640;-0.1273;0.0166;0.0015;
913664331606359;-0.1007;-0.0292;-0.0017;
913664341713129;-0.1379;-0.0387;0.0036;
913664351813129;-0.1369;0.0113;0.0057;
913664361919848;-0.1134;0.0230;0.0248;
913664372026567;-0.1049;-0.0622;0.0205;
913664382114536;-0.0964;-0.0984;0.0450;
913664392221254;-0.1049;-0.0334;0.0173;
913664402327973;-0.0858;0.0348;-0.0145;
913664412437140;-0.0740;0.0177;0.0079;
913664422543859;-0.0836;-0.0121;0.0386;
913664432650577;-0.1007;-0.0590;0.0322;
913664442783806;-0.0953;-0.1112;0.0237;
913664452890525;-0.1060;-0.0760;0.0121;
913664462997244;-0.0889;-0.0206;0.0057;
913664473097452;-0.1028;-0.0345;0.0344;
913664483204171;-0.1028;0.0134;0.0258;
913664493310890;-0.0996;0.1157;0.0205;
913664503396619;-0.1134;0.1349;0.0205;
913664513503338;-0.1092;0.0656;0.0184;
913664523610056;-0.1017;0.0060;0.0226;
913664533739744;-0.1305;0.0678;0.0025;
913664543846463;-0.1273;0.1008;-0.0017;
913664553953181;-0.1134;0.0774;0.0142;
913664564046931;-0.1230;0.0827;0.0333;
913664574153650;-0.1518;0.0603;0.0205;
913664584260369;-0.1081;0.0348;0.0205;
913664594375421;-0.1113;0.0433;0.0354;
913664604482140;-0.0889;0.0742;0.0237;
913664614588859;-0.1092;0.1125;0.0280;
913664624690161;-0.1092;0.1029;0.0226;
913664634796879;-0.1209;0.1093;0.0216;
913664644903598;-0.1465;-0.0068;0.0344;
913664655032452;-0.1646;-0.1208;0.0269;
913664665139171;-0.1550;-0.1101;0.0004;
913664675245890;-0.1593;-0.0611;-0.0241;
913664685326619;-0.1539;-0.0153;-0.0465;
913664695433338;-0.1262;-0.0015;-0.0273;
913664705540056;-0.1561;-0.0153;-0.0379;
913664715652556;-0.1507;-0.0451;-0.0571;
913664725759275;-0.1401;-0.0228;-0.0784;
913664735865994;-0.0943;0.0177;-0.0869;
913664745975161;-0.0783;0.0443;-0.0593;
913664756081879;-0.0698;0.0230;-0.0433;
913664766188598;-0.0826;-0.0047;-0.0475;
913664776284744;-0.0911;-0.0206;-0.0486;
913664786391463;-0.1103;-0.0132;-0.0646;
913664796498181;-0.0794;-0.0345;-0.0571;
913664806644067;-0.0463;-0.0164;-0.0646;
913664816750786;-0.0399;-0.0004;-0.0838;
913664826857504;-0.0336;0.0305;-0.0710;
913664836933911;-0.0229;0.0699;-0.0593;
913664847040629;-0.0570;0.0124;-0.0667;
913664857147348;-0.0389;-0.0164;-0.0688;
913664867268494;-0.0559;0.0742;-0.0774;
913664877375213;-0.0676;0.0656;-0.0731;
913664887481931;-0.0676;0.0230;-0.0678;
913664897587869;-0.0740;0.0252;-0.0635;
913664907694588;-0.0964;0.0454;-0.0475;
913664917801306;-0.0794;0.0411;-0.0092;
913664927909171;-0.0772;-0.0047;-0.0294;
913664938015890;-0.0879;-0.0707;-0.0401;
913664948122609;-0.1007;-0.0558;-0.0752;
913664958217973;-0.0889;-0.0004;-0.0806;
913664968324692;-0.0985;0.0198;-0.0593;
913664978431411;-0.0985;0.0262;-0.0763;
913664988536827;-0.0996;-0.0174;-0.0880;
913664998643546;-0.0879;-0.0025;-0.0827;
913665008750265;-0.0730;0.0475;-0.0838;
913665018871931;-0.0762;0.0156;-0.0763;
913665028978650;-0.1039;-0.0153;-0.0795;
913665039085369;-0.1071;-0.0079;-0.0582;
913665049191515;-0.1092;-0.0228;-0.0401;
913665059298234;-0.0879;-0.0281;-0.0305;
913665069404952;-0.0953;-0.0015;-0.0326;
913665079503806;-0.0868;0.0326;-0.0688;
913665089610525;-0.0740;0.0710;-0.0901;
913665099717244;-0.0772;0.0550;-0.0710;
913665109818494;-0.0719;0.0411;-0.0198;
913665119925213;-0.0943;0.0039;-0.0710;
913665130031931;-0.1028;-0.0558;-0.0848;
913665140142973;-0.0921;-0.0356;-0.0880;
913665150249692;-0.0911;-0.0079;-0.0656;
913665160356411;-0.0996;-0.0121;-0.0752;
913665170463077;-0.0900;0.0177;-0.0816;
913665180569796;-0.0953;0.0443;-0.0603;
913665190676515;-0.0826;0.0305;-0.0358;
913665200776827;-0.0517;0.0305;-0.0433;
913665210883546;-0.0762;0.0198;-0.1019;
913665220990265;-0.0676;0.0273;-0.1061;
913665231096202;-0.0676;0.0507;-0.0912;
913665241202921;-0.0740;0.0209;-0.0976;
913665251309640;-0.0740;0.0049;-0.1178;
913665261417036;-0.0676;0.0348;-0.1274;
913665271523754;-0.0581;0.0305;-0.1168;
913665281630473;-0.0229;-0.0079;-0.1051;
913665291735786;-0.0485;-0.0334;-0.0923;
913665301842504;-0.0346;-0.0377;-0.1040;
913665311949223;-0.0368;-0.0345;-0.0912;
913665322079015;-0.0506;-0.0473;-0.0816;
913665332185734;-0.0229;-0.0324;-0.0976;
913665342292452;-0.0261;-0.0089;-0.1434;
913665352400421;-0.0027;0.0390;-0.1658;
913665362507296;0.0037;0.0433;-0.1391;
913665372614223;0.0165;0.0071;-0.1093;
913665382708911;0.0133;-0.0430;-0.1391;
913665392815786;-0.0208;-0.0632;-0.1605;
913665402922713;-0.0165;-0.0387;-0.1658;
913665413045525;0.0059;-0.0079;-0.1594;
913665423152400;0.0091;-0.0015;-0.1466;
913665433259327;-0.0133;-0.0079;-0.1115;
913665443326098;0.0037;-0.0015;-0.1232;
913665453432973;0.0208;-0.0132;-0.0997;
913665463539900;0.0346;0.0092;-0.0912;
913665473664327;0.0229;0.0348;-0.1264;
913665483771202;0.0272;0.0827;-0.1381;
913665493878129;0.0037;0.0518;-0.1338;
913665503976619;0.0176;0.0081;-0.1423;
913665514083494;-0.0336;-0.0228;-0.1636;
913665524190421;-0.0123;-0.0419;-0.1583;
913665534304952;0.0144;-0.0409;-0.1466;
913665544411827;0.0197;0.0071;-0.1178;
913665554518754;0.0240;0.0422;-0.1434;
913665564612244;0.0485;0.0443;-0.1264;
913665574719119;0.0698;0.0284;-0.0869;
913665584826046;0.0581;-0.0377;-0.0816;
913665594933598;0.1039;-0.0281;-0.1040;
913665605040473;0.0889;0.0039;-0.1349;
913665615147400;0.1028;0.0188;-0.1232;
913665625275994;0.1337;-0.0174;-0.0976;
913665635382869;0.1049;-0.1048;-0.0923;
913665645489796;0.0911;-0.1208;-0.1221;
913665655575994;0.0815;-0.0430;-0.1253;
913665665682869;0.1071;0.0539;-0.1168;
913665675789796;0.1656;0.0646;-0.1136;
913665685864536;0.2349;0.0209;-0.0933;
913665695971411;0.2104;-0.0345;-0.0763;
913665706078338;0.1550;-0.0664;-0.0422;
913665716222504;0.1443;-0.0686;-0.0188;
913665726329379;0.1561;-0.0270;-0.0507;
913665736436306;0.1646;0.0220;-0.0933;
913665746539744;0.1561;0.0252;-0.0720;
913665756646619;0.1699;-0.0100;-0.0582;
913665766753546;0.1646;-0.0228;-0.0763;
913665776856411;0.1720;0.0390;-0.0656;
913665786963286;0.1944;0.0678;-0.0667;
913665797070213;0.2562;0.0103;-0.0497;
913665807187140;0.2253;-0.0217;-0.0433;
913665817294015;0.1752;-0.0206;-0.0443;
913665827400942;0.2029;-0.0132;-0.0017;
913665837501827;0.1976;-0.0068;0.0333;
913665847608702;0.2157;-0.0302;0.0173;
913665857715629;0.2083;-0.0057;-0.0241;
913665867803702;0.2019;0.0358;-0.0241;
913665877910577;0.2253;-0.0015;-0.0081;
913665888017504;0.2359;-0.0057;0.0047;
913665898141671;0.1880;-0.0142;0.0068;
913665908248546;0.1720;-0.0142;0.0205;
913665918355473;0.1646;-0.0473;-0.0049;
913665928469431;0.1486;-0.1112;0.0132;
913665938576306;0.1348;0.0273;0.0142;
913665948683234;0.1646;0.0816;0.0344;
913665958783286;0.2200;0.0241;0.0599;
913665968890161;0.1742;-0.0196;0.0706;
913665978997088;0.1497;-0.0111;0.0386;
913665989109015;0.1465;0.0198;0.0184;
913665999215890;0.1603;0.0166;0.0280;
913666009322817;0.1422;-0.0142;0.0503;
913666019416254;0.1220;-0.0217;0.0407;
913666029523129;0.0879;-0.0238;0.0514;
913666039630056;0.0879;0.0092;0.0269;
913666049743077;0.1273;0.0348;0.0482;
913666059849952;0.1209;0.0156;0.0546;
913666069956879;0.0975;-0.0100;0.0631;
913666080072556;0.0740;0.0017;0.0887;
913666090179431;0.0772;0.0049;0.0908;
913666100286359;0.0815;-0.0590;0.0834;
913666110385369;0.0687;-0.0654;0.0578;
913666120492244;-0.0048;-0.0068;0.0834;
913666130599171;0.0112;0.0166;0.0727;
913666140691515;0.0943;0.0017;0.0471;
913666150798390;0.0783;-0.0025;0.0439;
913666160905317;0.0879;0.0081;0.0525;
913666171032140;0.1209;0.0007;0.0812;
913666181139015;0.1071;-0.0313;0.0642;
913666191245942;0.0943;-0.0760;0.0759;
913666201366202;0.0953;-0.0622;0.1121;
913666211473077;0.0975;-0.0846;0.1356;
913666221580004;0.1156;-0.1080;0.1153;
913666231663650;0.1134;-0.0782;0.0770;
913666241770525;0.1369;-0.0015;0.0610;
913666251877452;0.1795;-0.0015;0.0993;
913666262007556;0.2306;-0.0451;0.1089;
913666272114431;0.1763;-0.0739;0.0812;
913666282221359;0.1209;-0.0728;0.0770;
913666292320890;0.1316;-0.0632;0.0983;
913666302427765;0.1348;-0.0867;0.1206;
913666312534692;0.1017;-0.0590;0.0802;
913666322624119;0.1071;-0.0526;0.1249;
913666332730994;0.0900;-0.0643;0.1675;
913666342837921;0.0985;0.0624;0.1622;
913666352951306;0.0996;0.2052;0.1164;
913666363057973;0.1529;0.2489;0.0929;
913666373164588;0.1198;0.1977;0.1238;
913666383262088;0.0985;0.0965;0.1451;
913666393368754;0.0250;0.0401;0.1334;
913666403475369;-0.1134;0.0539;0.1185;
913666413575004;-0.1667;0.0774;0.1004;
913666423681671;-0.1273;0.0646;0.0993;
913666433788338;-0.1177;0.0390;0.0897;
913666443917348;-0.1454;0.0358;0.1036;
913666454024015;-0.1699;0.0220;0.1057;
913666464130681;-0.0985;0.0241;0.1015;
913666474227661;-0.0847;-0.0089;0.0876;
913666484334327;-0.0847;-0.0654;0.0365;
913666494440994;-0.1028;-0.0601;0.0152;
913666504547661;-0.1422;-0.0995;0.0015;
913666514654327;-0.1369;-0.2358;-0.0124;
913666524760942;-0.1656;-0.1091;-0.0241;
913666534867504;-0.2264;0.1391;-0.0550;
913666544974171;-0.0048;0.1605;-0.0518;
913666555080786;0.0868;0.0369;-0.0305;
913666565173598;0.0527;-0.0100;-0.0039;
913666575280265;-0.0250;0.0028;0.0237;
913666585386879;0.0005;-0.0334;0.0258;
913666595500994;0.0144;-0.0515;-0.0039;
913666605607661;0.0154;0.0081;-0.0262;
913666615714327;0.0165;0.0039;-0.0134;
913666625832661;0.0453;-0.0462;-0.0124;
913666635939327;-0.0027;-0.0750;-0.0241;
913666646045994;0.0037;-0.0047;-0.0081;
913666656149119;0.0527;0.0667;-0.0081;
913666666255786;0.0794;-0.0984;-0.0188;
913666676362400;0.0836;-0.1346;-0.0230;
913666686438702;0.0005;-0.0590;0.0184;
913666696545369;0.0112;-0.0132;0.0375;
913666706651984;0.0463;-0.0217;0.0439;
913666716785004;0.0154;0.0028;-0.0028;
913666726891671;-0.0016;0.0869;-0.0103;
913666736998286;0.0325;0.0997;0.0057;
913666747099744;0.0293;0.0571;0.0111;
913666757206411;-0.0208;0.0209;-0.0007;
913666767313025;-0.0176;0.0060;-0.0071;
913666777417869;-0.0197;-0.0068;-0.0113;
913666787524536;-0.0282;-0.0004;-0.0124;
913666797631202;-0.0240;-0.0015;-0.0049;
913666807746411;-0.0197;-0.0505;0.0184;
913666817853077;-0.0304;-0.0760;0.0280;
913666827959692;-0.0133;-0.0430;0.0173;
913666838070681;0.0240;0.0113;-0.0252;
913666848177348;0.0591;0.0614;-0.0369;
913666858283963;0.0932;0.0550;-0.0241;
913666868406619;0.1039;0.0177;-0.0166;
913666878513286;0.0570;0.0017;-0.0273;
913666888619900;0.0485;0.0379;-0.0326;
913666898711411;0.0655;0.0390;-0.0209;
913666908818077;0.0644;0.0230;-0.0252;
913666918924692;0.0538;0.0198;0.0004;
913666929031515;0.0421;0.0007;0.0333;
913666939138181;0.0762;-0.0153;0.0620;
913666949244848;0.0591;-0.0025;0.0397;
913666959349640;0.0644;0.0198;-0.0103;
913666969456306;0.0676;0.0198;0.0079;
913666979562921;0.0517;0.0262;0.0216;
913666989669952;0.0517;0.0177;-0.0028;
913666999776619;0.0431;-0.0281;0.0111;
913667009883234;0.0282;-0.0302;0.0121;
913667019989015;0.0378;-0.0377;0.0152;
913667030095681;0.0261;-0.0430;-0.0017;
913667040202296;0.0378;-0.0047;0.0344;
913667050297348;0.0272;0.0124;0.0620;
913667060404015;0.0378;0.0028;0.0642;
913667070510681;0.0101;-0.0025;0.0162;
913667080653598;0.0272;0.0326;0.0194;
913667090760265;0.0272;0.0550;0.0194;
913667100866879;0.0229;0.0294;0.0152;
913667110963390;-0.0261;-0.0238;0.0312;
913667121070056;-0.0421;-0.0185;0.0205;
913667131176671;-0.0879;0.0465;0.0226;
913667141263077;-0.0751;0.0529;0.0079;
913667151369744;-0.0069;0.0039;0.0162;
913667161476411;-0.0517;-0.0068;0.0461;
913667171626619;-0.0623;-0.0281;0.0557;
913667181733286;-0.0570;-0.0601;0.0237;
913667191839900;-0.0453;-0.0164;-0.0017;
913667201894431;-0.0666;0.0369;-0.0007;
913667212001098;-0.0005;0.0443;-0.0124;
913667222107713;-0.0101;0.0188;-0.0209;
913667232224119;-0.0357;0.0156;-0.0369;
913667242330786;0.0133;0.0433;-0.0294;
913667252437400;0.0059;0.0113;-0.0284;
913667262542869;0.0080;-0.0238;-0.0305;
913667272649536;-0.0091;-0.0313;0.0194;
913667282756202;0.0069;-0.0324;0.0301;
913667292880994;0.0048;-0.0632;0.0269;
913667302987661;-0.0069;-0.0494;-0.0134;
913667313094275;-0.0069;0.0060;-0.0230;
913667323207140;0.0378;-0.0334;-0.0145;
913667333313806;0.0186;-0.0505;-0.0177;
913667343420421;-0.0048;-0.0345;-0.0262;
913667353503911;0.0069;-0.0238;-0.0209;
913667363610577;0.0197;-0.0249;-0.0209;
913667373717192;0.0176;-0.0238;-0.0103;
913667383832348;0.0133;0.0017;0.0162;
913667393939015;0.0091;0.0039;0.0226;
913667404045629;-0.0016;-0.0142;0.0301;
913667414147765;-0.0112;-0.0238;-0.0113;
913667424254431;-0.0240;0.0316;-0.0049;
913667434361046;0.0080;0.0401;-0.0177;
913667444490786;0.0048;0.0166;-0.0198;
913667454597452;-0.0197;0.0209;-0.0252;
913667464704067;-0.0048;-0.0185;-0.0422;
913667474794431;0.0005;-0.0419;-0.0198;
913667484901098;0.0027;-0.0494;-0.0337;
913667495007713;0.0048;-0.0590;-0.0134;
913667505100421;0.0144;-0.0356;0.0057;
913667515207088;0.0101;-0.0462;0.0280;
913667525313754;-0.0069;-0.0537;-0.0305;
913667535423494;-0.0027;0.0081;-0.0678;
913667545530161;0.0314;0.0369;-0.0294;
913667555636827;0.0538;0.0103;-0.0262;
913667565775473;0.0357;-0.0025;-0.0454;
913667575882140;-0.0016;-0.0068;-0.0518;
913667585988754;0.0208;0.0220;-0.0582;
913667596065265;0.0314;0.0401;-0.0529;
913667606171931;0.0442;0.0656;-0.0390;
913667616278546;0.0485;0.0699;-0.0028;
913667626383077;0.0623;0.0284;0.0142;
913667636489744;0.0570;0.0007;-0.0049;
913667646596359;0.0240;0.0443;-0.0614;
913667656711411;0.0368;0.1072;-0.0624;
913667666818077;0.0581;0.0262;-0.0582;
913667676924692;0.0325;-0.0782;-0.0550;
913667687026202;-0.0027;-0.0803;-0.0593;
913667697132869;0.0272;-0.0260;-0.0656;
913667707239484;0.0549;0.0262;-0.0742;
913667717356098;0.0783;0.0156;-0.0720;
913667727462765;0.0794;-0.0164;-0.0390;
913667737569379;0.0847;-0.0356;-0.0124;
913667747672348;0.1145;-0.0483;-0.0230;
913667757779015;0.1284;-0.0260;-0.0742;
913667767885629;0.1316;-0.0281;-0.0624;
913667777985629;0.1177;-0.0814;-0.0465;
913667788092296;0.1124;-0.0792;-0.0443;
913667798198911;0.0943;0.0252;-0.0614;
913667808305421;0.1390;0.0443;-0.0454;
913667818412088;0.1646;0.0028;-0.0390;
913667828518754;0.1390;-0.0313;-0.0166;
913667838635994;0.0975;-0.0196;0.0290;
913667848742661;0.0975;0.0134;0.0312;
913667858849327;0.1198;0.0049;0.0162;
913667868949327;0.0666;-0.0036;-0.0113;
913667879055994;0.0644;0.0188;0.0015;
913667889162609;0.0847;0.0198;0.0162;
913667899268598;0.0772;0.0348;0.0047;
913667909375265;0.0644;0.0316;0.0047;
913667919481931;0.0858;0.0071;0.0089;
913667929589744;0.0804;0.0348;0.0301;
913667939696411;0.0889;0.0497;0.0258;
913667949803025;0.0783;0.0326;0.0578;
913667959913181;0.0740;-0.0089;0.0780;
913667970019848;0.0549;-0.0409;0.0748;
913667980126463;0.0378;-0.0270;0.0503;
913667990231619;0.0613;0.0124;0.0439;
913668000338286;0.0730;0.0262;0.0439;
913668010444900;0.0644;0.0081;0.0397;
913668020541827;0.0644;-0.0185;0.0450;
913668030648494;0.0719;-0.0047;0.0599;
913668040755109;0.0826;0.0454;0.0557;
913668050862452;0.0932;0.0688;0.0546;
913668060969119;0.0783;0.0220;0.0897;
913668071075734;0.0495;0.0081;0.1132;
913668081167452;0.0357;-0.0100;0.0940;
913668091274119;0.0399;-0.0238;0.0599;
913668101380786;0.0336;-0.0079;0.0802;
913668111502869;0.0314;-0.0164;0.0503;
913668121609536;0.0399;-0.0281;0.0429;
913668131716202;0.0250;-0.0142;0.0407;
913668141849796;0.0634;0.0007;0.0642;
913668151956463;0.0740;0.0039;0.0493;
913668162063077;0.0794;-0.0068;0.0418;
913668172155994;0.0463;-0.0324;0.0695;
913668182262661;0.0325;-0.0111;0.0844;
913668192369275;0.0336;0.0156;0.0546;
913668202471306;0.0495;0.0561;0.0269;
913668212577973;0.0485;0.1040;0.0290;
913668222684640;0.0666;0.0710;0.0344;
913668232810994;0.0389;0.0571;0.0333;
913668242917661;0.0304;0.0656;0.0226;
913668253024275;0.0399;0.0220;0.0205;
913668263109327;0.0368;0.0156;0.0280;
913668273215994;-0.0027;0.0166;0.0620;
913668283322661;0.0272;0.0252;0.0429;
913668293429640;0.0261;-0.0142;0.0759;
913668303536306;-0.0123;-0.0675;0.0344;
913668313642921;0.0080;-0.0622;0.0248;
913668323746098;-0.0027;-0.0494;0.0344;
913668333852765;0.0293;-0.0387;0.0089;
913668343959431;0.0112;-0.0398;0.0226;
913668354074327;0.0016;0.0060;0.0173;
913668364181046;0.0442;0.1104;0.0100;
913668374287817;0.0751;0.1711;0.0237;
913668384401254;0.0762;0.1498;0.0354;
913668394507973;0.0410;0.1253;0.0759;
913668404614744;0.0250;0.0912;0.1068;
913668414710473;-0.0005;0.0252;0.0535;
913668424817192;0.0027;0.0230;0.0652;
913668434923963;-0.0346;0.0284;0.0610;
913668445049015;-0.0176;0.0273;0.0546;
913668455155734;-0.0325;0.0326;0.0663;
913668465262504;-0.0186;0.0188;0.0780;
913668475363390;-0.0080;0.0188;0.0642;
913668485470109;0.0240;-0.0174;0.0482;
913668495576879;0.0069;-0.0909;0.0897;
913668505669536;0.0059;-0.1154;0.0940;
913668515776254;-0.0282;-0.1474;0.1057;
913668525883025;-0.0272;-0.1336;0.0727;
913668536015577;-0.0037;-0.0324;0.0844;
913668546122296;0.0123;-0.0004;0.0951;
913668556229067;-0.0133;-0.0270;0.0663;
913668566330473;-0.0240;-0.0238;0.0610;
913668576437192;-0.0357;-0.0324;0.0866;
913668586543963;-0.0218;-0.0079;0.0748;
913668596635421;-0.0091;-0.0100;0.0897;
913668606742140;-0.0272;-0.0164;0.1100;
913668616848911;-0.0368;0.0262;0.0993;
913668626956254;-0.0495;-0.0121;0.0695;
913668637062973;-0.0591;-0.0164;0.0823;
913668647169744;-0.0879;0.0411;0.0770;
913668657277504;-0.0666;0.0305;0.0567;
913668667384223;-0.0378;-0.0079;0.0620;
913668677490994;-0.1060;0.0401;0.0557;
913668687597504;-0.1230;0.0475;0.0429;
913668697704223;-0.0676;0.0529;0.0258;
913668707810994;-0.0815;0.0433;0.0269;
913668717913806;-0.0517;0.0230;0.0695;
913668728020525;-0.0698;0.0017;0.0727;
913668738127296;-0.0794;-0.0100;0.0216;
913668748232348;-0.0772;0.0422;0.0152;
913668758339067;-0.0762;0.0188;0.0025;
913668768445838;-0.0644;-0.1165;0.0132;
913668778580317;-0.0911;-0.0270;-0.0060;
913668788687036;-0.0996;-0.0079;0.0015;
913668798793806;-0.0687;-0.0664;0.0025;
913668808875577;-0.0431;-0.0100;0.0036;
913668818982296;-0.0453;0.0465;-0.0028;
913668829089067;-0.0368;0.0379;0.0216;
913668839193598;-0.0740;-0.0654;0.0036;
913668849300317;-0.0826;-0.1091;-0.0113;
913668859407088;-0.0644;-0.0824;-0.0156;
913668869514952;-0.0357;-0.0601;-0.0156;
913668879621671;-0.0453;-0.0132;-0.0156;
913668889728442;-0.0378;0.0401;-0.0134;
913668899833181;-0.0549;-0.0132;-0.0039;
913668909939900;-0.0250;0.0422;-0.0294;
913668920046671;-0.0123;0.0976;-0.0156;
913668930151827;-0.0154;-0.0313;0.0121;
913668940258546;-0.0250;-0.0792;0.0004;
913668950365317;-0.0751;0.0092;-0.0348;
913668960463911;-0.0506;0.0635;-0.0401;
913668970570629;-0.0186;0.0379;-0.0433;
913668980677400;-0.0495;0.0092;-0.0497;
913668990806515;-0.0613;0.0454;-0.0390;
913669000913234;-0.0410;0.0337;-0.0209;
913669011020004;-0.0080;-0.0068;-0.0401;
913669021099952;-0.0261;-0.0270;-0.0060;
913669031206671;-0.0037;-0.0313;-0.0113;
913669041313442;-0.0037;-0.0196;0.0132;
913669051458911;-0.0368;-0.0132;0.0047;
913669061565629;-0.0431;0.0060;-0.0443;
913669071672400;-0.0336;0.0305;-0.0401;
913669081754015;-0.0336;0.0582;-0.0529;
913669091860734;0.0059;0.0806;-0.0582;
913669101967504;-0.0197;0.0859;-0.0507;
913669112064431;-0.0101;0.0507;-0.0326;
913669122171150;-0.0218;0.0497;-0.0241;
913669132277921;-0.0005;0.0443;-0.0305;
913669142428911;-0.0123;0.0081;-0.0071;
913669152535629;-0.0378;-0.0196;0.0152;
913669162642400;-0.0666;-0.0356;-0.0273;
913669172742765;-0.0581;-0.0526;-0.0369;
913669182849484;-0.0485;-0.0824;-0.0475;
913669192956254;-0.0527;-0.0995;-0.0699;
913669203074536;-0.0506;-0.0558;-0.0880;
913669213181254;-0.0581;-0.0569;-0.0933;
913669223288025;-0.0229;-0.0142;-0.0997;
913669233347244;0.0282;0.0475;-0.0710;
913669243453963;0.0559;0.0230;-0.0550;
913669253560734;0.0751;-0.0856;-0.0284;
913669263684848;0.0186;-0.1964;-0.0390;
913669273791567;-0.0272;-0.0941;-0.0635;
913669283898338;0.0016;-0.0473;-0.0401;
913669293999119;0.0368;0.0880;-0.0838;
913669304105838;0.0240;0.3373;-0.1360;
913669314212609;0.0538;0.3426;-0.1157;
913669324314015;0.1241;0.1242;-0.0869;
913669334420734;0.1103;0.0539;-0.0816;
913669344527504;0.0186;0.0220;-0.0667;
913669354638494;0.0357;-0.0430;-0.0188;
913669364745213;0.0133;-0.0409;-0.0284;
913669374851879;0.0059;0.0624;-0.0507;
913669384964952;0.0133;0.1157;-0.0433;
913669395071619;0.0389;0.0230;-0.0571;
913669405178338;0.0123;0.0198;-0.0454;
913669415274015;-0.0336;-0.1463;-0.0656;
913669425380681;-0.0495;-0.3102;-0.0593;
913669435487400;-0.0165;-0.2145;-0.0806;
913669445581931;0.0431;-0.1144;-0.0891;
913669455688598;0.1124;-0.0941;-0.0603;
913669465795317;0.1071;-0.0494;-0.0326;
913669475911619;0.0740;0.0348;-0.0923;
913669486018286;0.0804;0.0656;-0.0646;
913669496125004;0.0740;0.0049;-0.0561;
913669506249171;0.0676;0.0017;-0.0465;
913669516355838;0.0229;0.0411;-0.0422;
913669526462556;0.0368;0.0071;-0.0348;
913669536568702;0.0399;-0.0377;-0.0518;
913669546675369;0.0474;0.0252;-0.0422;
913669556782088;0.0517;0.0561;-0.0113;
913669566874223;0.0666;0.0422;0.0111;
913669576980890;0.0080;0.0316;-0.0198;
913669587087609;0.0346;0.0188;-0.0284;
913669597201931;0.0229;-0.0206;0.0068;
913669607308598;0.0229;-0.0313;-0.0220;
913669617415317;0.0144;0.0028;-0.0422;
913669627527348;0.0112;0.0401;-0.0156;
913669637634015;0.0250;0.0294;-0.0230;
913669647740734;0.0591;0.0305;-0.0134;
913669657842348;0.0740;-0.0238;0.0312;
913669667949015;0.0527;-0.0888;0.0546;
913669678055734;-0.0059;-0.0707;0.0290;
913669688168911;-0.0037;0.0081;0.0004;
913669698275577;0.0133;0.0071;0.0047;
913669708382296;0.0293;-0.0387;-0.0156;
913669718482036;0.0101;-0.0121;-0.0230;
913669728588702;0.0261;0.0241;-0.0113;
913669738695421;0.0197;-0.0313;0.0100;
913669748802504;0.0410;-0.0505;0.0184;
913669758909171;0.0453;-0.0057;0.0344;
913669769015890;0.0730;0.0124;0.0546;
913669779134640;0.0463;0.0465;0.0407;
913669789241306;0.0389;0.0923;0.0290;
913669799348025;0.0112;0.0401;0.0514;
913669809444327;0.0431;-0.0249;0.0429;
913669819550994;0.0005;-0.0313;0.0248;
913669829657713;0.0059;-0.0153;0.0036;
913669839768911;0.0037;-0.0483;0.0258;
913669849875577;0.0059;-0.0739;0.0237;
913669859982296;0.0240;-0.0398;0.0439;
913669870078598;0.0474;-0.0057;0.0567;
913669880185265;0.0559;0.0166;0.0407;
913669890291984;0.0453;0.0060;0.0152;
913669900405161;0.0112;-0.0483;0.0407;
913669910511827;0.0091;-0.0515;0.0226;
913669920618546;0.0336;-0.0537;-0.0092;
913669930724119;0.0165;-0.0558;0.0079;
913669940830838;0.0250;-0.0387;0.0184;
913669950937504;0.0293;-0.0334;0.0237;
913669961040265;0.0730;0.0166;0.0258;
913669971146931;0.0858;0.0486;0.0407;
913669981253650;0.0687;-0.0430;0.0439;
913669991370890;0.0804;-0.1112;0.0386;
913670001477556;0.0037;-0.1091;0.0375;
913670011584275;0.0154;-0.1133;0.0386;
913670021675786;0.0368;-0.1059;0.0418;
913670031782452;0.0378;-0.0846;0.0132;
913670041889171;0.0304;-0.0356;0.0205;
913670052021098;0.0389;-0.0334;0.0258;
913670062127765;0.0655;-0.0057;0.0535;
913670072234484;0.0783;0.0688;0.0684;
913670082315056;0.1017;0.0997;0.0844;
913670092421723;0.0868;0.0763;0.0652;
913670102528442;0.0559;0.1178;0.0567;
913670112679848;-0.0144;0.1328;0.0727;
913670122786515;0.0144;0.1178;0.0525;
913670132893234;-0.0091;0.0997;0.0429;
913670142968911;-0.0506;0.0848;0.0695;
913670153075577;-0.1113;0.0667;0.0770;
913670163182296;-0.0996;0.0454;0.0450;
913670173283181;-0.0708;0.0561;0.0663;
913670183389848;-0.0591;0.0241;0.0791;
913670193496567;-0.0218;-0.0419;0.0344;
913670203596306;-0.0431;-0.0324;0.0173;
913670213702973;-0.0410;0.0017;0.0354;
913670223809692;-0.0059;-0.0281;0.0025;
913670233919223;-0.0112;-0.0430;-0.0166;
913670244025942;0.0027;0.0007;-0.0166;
913670254132609;0.0197;0.0411;-0.0017;
913670264247348;0.0730;-0.0228;0.0375;
913670274354015;0.0826;-0.0430;0.0695;
913670284460734;0.1688;0.2744;0.0205;
913670294563077;0.1976;0.1860;0.0578;
913670304669744;0.2530;-0.1016;0.0738;
913670314776463;0.1593;-0.0846;0.1047;
913670324882869;-0.0037;0.0635;0.0887;
913670334989536;0.0644;0.0561;0.0748;
913670345096254;0.0389;-0.0281;0.0919;
913670355192348;-0.0229;-0.0366;0.1132;
913670365299067;-0.0453;-0.0164;0.1100;
913670375405786;-0.0059;0.0134;0.1089;
913670385512973;0.0644;0.0550;0.1100;
913670395619640;0.0016;-0.1815;0.0834;
913670405726359;-0.0304;-0.1953;0.0471;
913670415833077;-0.0911;0.1093;0.0727;
913670425954327;-0.0101;0.0720;0.0514;
913670436060994;0.0698;-0.0750;0.0610;
913670446167713;-0.0336;-0.0750;0.0301;
913670456279327;-0.0048;0.0113;0.0258;
913670466385994;0.0421;-0.0153;0.0482;
913670476492713;0.0527;-0.0835;0.0663;
913670486604744;0.0378;-0.0494;0.0727;
913670496711411;0.0240;0.0262;0.0375;
913670506818129;0.0282;0.0507;0.0258;
913670516912244;0.0069;0.0071;0.0631;
913670527018911;0.0059;-0.0185;0.0397;
913670537125629;-0.0048;-0.0313;0.0184;
913670547233806;0.0144;0.0134;0.0173;
913670557340473;0.0059;0.0593;0.0375;
913670567447192;0.0240;0.0071;0.0111;
913670577557869;0.0165;-0.0004;0.0578;
913670587664536;0.0144;0.0433;0.0993;
913670597771254;0.0101;-0.0153;0.0983;
913670607870265;-0.0133;-0.0132;0.0375;
913670617976931;-0.0559;0.0209;0.0642;
913670628083650;-0.0708;-0.0281;0.0620;
913670638180473;-0.0868;-0.0782;0.0461;
913670648287192;-0.1667;-0.0686;0.0333;
913670658393859;-0.1710;-0.0121;0.0365;
913670668518390;-0.1667;-0.0079;0.0333;
913670678625056;-0.1390;0.0113;0.0439;
913670688731775;-0.1124;0.0561;0.0567;
913670698847348;-0.0772;0.0827;0.0333;
913670708954015;-0.0858;0.1200;0.0047;
913670719060734;-0.1209;0.0784;0.0365;
913670729165265;-0.1411;-0.0196;0.0354;
913670739271931;-0.1752;-0.0153;0.0132;
913670749378650;-0.2210;0.0465;-0.0071;
913670759482348;-0.1571;0.0603;-0.0060;
913670769589015;-0.1262;0.0262;-0.0145;
913670779695734;-0.1209;0.0209;0.0089;
913670789800786;-0.0996;0.0294;0.0258;
913670799907452;-0.0740;0.0039;-0.0081;
913670810014171;-0.0932;-0.0004;-0.0294;
913670820118181;-0.1134;0.0017;-0.0007;
913670830224848;-0.1188;-0.0174;-0.0166;
913670840331567;-0.1060;-0.0164;-0.0422;
913670850432869;-0.0943;0.0071;-0.0529;
913670860539536;-0.0879;0.0124;-0.0401;
913670870646254;-0.0836;0.0017;-0.0305;
913670880753806;-0.0719;0.0326;-0.0209;
913670890860525;-0.0378;0.0252;-0.0209;
913670900967192;-0.0634;-0.0270;-0.0379;
913670911117244;-0.0975;-0.0313;-0.0646;
913670921223911;-0.1252;-0.0228;-0.0571;
913670931330629;-0.1124;-0.0579;-0.0752;
913670941451931;-0.1060;-0.0249;-0.0806;
913670951558598;-0.0815;0.0571;-0.1115;
913670961665317;-0.0581;0.1242;-0.1093;
913670971710681;-0.0325;0.2116;-0.1434;
913670981817348;0.0048;0.2446;-0.1061;
913670991924067;-0.0091;0.1285;-0.0742;
913671002045681;0.0261;0.0582;-0.0742;
913671012152348;-0.0794;0.2435;-0.2340;
913671022259067;-0.0623;0.1743;-0.1583;
913671032371723;-0.0900;-0.1708;-0.1051;
913671042478390;-0.1103;-0.2582;-0.1338;
913671052585109;-0.1039;-0.1091;-0.1711;
913671062694327;-0.0613;-0.1240;-0.1700;
913671072800994;-0.0261;-0.2847;-0.1700;
913671082907713;-0.0378;-0.4189;-0.1477;
913671093034744;0.0080;-0.4040;-0.1477;
913671103141411;0.0123;-0.3134;-0.1945;
913671113248129;0.0453;-0.1527;-0.2190;
913671123334848;0.0197;-0.1463;-0.2340;
913671133441515;0.2136;-0.0664;-0.2776;
913671143548234;0.2818;0.1008;-0.2276;
913671153626411;0.3169;0.1445;-0.1477;
913671163733077;0.3956;0.1360;-0.1423;
913671173839796;0.3371;-0.0483;-0.0795;
913671183969119;0.3105;0.2531;-0.0433;
913671194075786;0.2509;0.7441;-0.0635;
913671204182504;0.4009;0.7015;-0.0497;
913671214287765;0.5309;0.4735;-0.0081;
913671224394431;0.3201;0.3213;0.0940;
913671234501150;0.0570;0.1136;0.1164;
913671244667400;0.0368;-0.0281;0.1377;
913671254774067;-0.0655;-0.0334;0.1174;
913671264880786;-0.0517;0.0316;0.1100;
913671274907973;-0.1039;-0.0441;0.1228;
913671285014640;-0.0911;0.1658;0.1473;
913671295121359;-0.1561;0.0017;0.1345;
913671305241306;-0.0815;-0.3390;0.0525;
913671315347973;-0.2200;-0.2985;0.0461;
913671325454692;-0.3668;-0.2166;0.0439;
913671335561671;-0.1965;-0.1623;0.0142;
913671345668338;-0.0570;-0.1037;-0.0134;
913671355781202;-0.0453;-0.0771;-0.0071;
913671365887921;-0.0037;0.0422;0.0004;
913671375994640;0.0069;0.0252;0.0184;
913671386105161;0.0389;-0.0387;0.0290;
913671396211827;0.0389;0.0699;0.0312;
913671406318546;0.0261;0.1210;-0.0028;
913671416425265;0.0751;0.0475;0.0216;
913671426526411;0.0357;0.0017;0.0280;
913671436633077;-0.0357;-0.0569;0.0089;
913671446739796;-0.0304;-0.1016;-0.0007;
913671456850577;-0.0250;-0.0931;0.0004;
913671466957244;-0.0197;-0.0941;0.0004;
913671477063963;-0.0133;-0.1048;-0.0092;
913671487169327;-0.0048;-0.0387;-0.0049;
913671497275994;0.0240;-0.0079;0.0004;
913671507382713;0.0506;-0.0515;-0.0529;
913671517482661;0.0123;-0.0356;-0.0539;
913671527589327;-0.0165;-0.0249;-0.0486;
913671537696046;-0.0048;-0.0451;-0.0710;
913671547806515;-0.0112;-0.0270;-0.0944;
913671557913181;0.0048;-0.0015;-0.0955;
913671568019900;0.0048;0.0326;-0.0774;
913671578146515;0.0325;0.0774;-0.0742;
913671588253234;0.0570;0.0262;-0.0411;
913671598359900;0.0613;-0.0345;-0.0571;
913671608454119;0.0208;-0.0206;-0.0891;
913671618560786;-0.0027;-0.0015;-0.0848;
913671628667504;-0.0037;-0.0398;-0.0976;
913671638782973;-0.0314;-0.0920;-0.1115;
913671648889640;-0.0346;-0.0505;-0.1040;
913671658996359;-0.0027;0.0326;-0.1083;
913671669093702;0.0527;0.0518;-0.1210;
913671679200369;0.0495;-0.0249;-0.0795;
913671689307088;0.0581;-0.0941;-0.0667;
913671699420786;0.0740;-0.0313;-0.0688;
913671709527452;0.0581;0.0124;-0.1125;
913671719634171;0.1230;-0.0068;-0.0944;
913671729736202;0.0858;-0.0260;-0.0795;
913671739842869;0.0368;-0.0483;-0.0827;
913671749949588;0.0282;-0.0579;-0.0806;
913671760055577;0.0623;-0.0654;-0.0891;
913671770162244;0.0772;-0.0611;-0.0848;
913671780268963;0.0762;-0.0430;-0.0571;
913671790365004;0.1103;0.0060;-0.0284;
913671800471671;0.1848;0.0678;-0.0497;
913671810578390;0.2136;0.0923;-0.0710;
913671820683598;0.2274;0.1125;-0.0284;
913671830790317;0.2029;0.1370;-0.0230;
913671840896984;0.1859;0.0156;0.0025;
913671851014119;0.1433;-0.0899;0.0301;
913671861120786;0.0570;-0.0462;0.0354;
913671871227504;0.0708;0.0081;0.0194;
913671881331046;0.1081;0.0305;0.0407;
913671891437713;0.1060;0.0294;0.0748;
913671901544431;0.1017;0.0113;0.0802;
913671911659744;0.0975;0.0358;0.0216;
913671921766411;0.0698;0.0209;0.0482;
913671931873129;0.0378;-0.0473;0.0578;
913671941974223;0.0165;-0.0899;0.0429;
913671952080890;0.0005;-0.0270;0.0226;
913671962187609;0.0272;0.0571;0.0132;
913671972280838;0.0868;0.0997;0.0439;
913671982387504;0.0996;0.0710;0.0706;
913671992494223;0.0964;0.0028;0.0887;
913672002619327;0.0666;-0.0100;0.0429;
913672012725994;0.0815;0.0081;0.0100;
913672022832713;0.0442;-0.0079;0.0599;
913672032944327;0.0208;-0.0462;0.0503;
913672043050994;0.0059;-0.0622;0.0184;
913672053157713;-0.0048;-0.0569;0.0194;
913672063247921;-0.0016;-0.0324;0.0258;
913672073354588;0.0368;-0.0238;0.0237;
913672083461306;0.0431;-0.0814;0.0461;
913672093574431;0.0783;-0.1101;0.0557;
913672103681098;0.0687;-0.0771;0.0322;
913672113787817;0.0879;0.0113;0.0194;
913672123884848;0.0783;0.0486;0.0365;
913672133991515;0.0868;0.0134;0.0386;
913672144098234;0.0357;-0.0217;0.0354;
913672154226098;0.0250;-0.0089;0.0525;
913672164332765;0.0314;0.0188;0.0280;
913672174439484;0.0623;0.0614;0.0397;
913672184539536;0.0708;0.0891;0.0759;
913672194646202;0.0751;0.0965;0.0919;
913672204752921;0.0634;0.0923;0.0631;
913672214849848;0.0506;0.0742;0.0663;
913672224956515;0.0165;0.0252;0.0716;
913672235063234;-0.0154;-0.0292;0.0642;
913672245168702;-0.0431;-0.0377;0.0620;
913672255275421;-0.0644;-0.0387;0.0716;
913672265382088;-0.0527;-0.0441;0.0567;
913672275497452;-0.0218;-0.0132;0.0578;
913672285604119;0.0016;-0.0398;0.0695;
913672295710838;0.0389;-0.0760;0.0844;
913672305806515;0.0325;-0.0015;0.0173;
913672315913181;0.0357;0.0582;0.0354;
913672326019900;0.0304;0.0401;0.0450;
913672336131098;0.0133;-0.0196;0.0482;
913672346237765;-0.0431;-0.1059;0.0482;
913672356344484;-0.0325;-0.1069;0.0493;
913672366469327;-0.0517;-0.0537;0.0365;
913672376576150;-0.0154;-0.0079;0.0557;
913672386683025;0.0133;-0.0409;0.0791;
913672396781306;0.0410;-0.0643;0.0557;
913672406888129;0.0218;-0.0292;0.0280;
913672416995004;0.0133;-0.0558;0.0322;
913672427092036;-0.0027;-0.1112;0.0248;
913672437198859;-0.0389;-0.1612;0.0248;
913672447305734;-0.0410;-0.1367;0.0068;
913672457405786;0.0059;-0.0249;0.0184;
913672467512609;0.0325;0.0166;0.0248;
913672477619484;0.0357;-0.0632;0.0812;
913672487739431;0.0261;-0.0217;0.0642;
913672497846254;0.0250;-0.0547;0.0748;
913672507953129;0.0314;0.0241;0.0248;
913672518055994;0.0282;0.2180;0.0258;
913672528162817;0.0101;0.2616;0.0100;
913672538269692;0.0304;0.1381;0.0237;
913672548368702;-0.0431;0.0422;0.0716;
913672558475525;-0.0847;0.0720;0.0727;
913672568582400;-0.1433;0.0603;0.0620;
913672578696306;-0.1060;0.0188;0.0727;
913672588803129;-0.0964;0.0571;0.0834;
913672598910004;-0.1454;0.0092;0.0450;
913672609022036;-0.0836;0.0901;0.0015;
913672619128859;-0.1145;0.0443;0.0068;
913672629235734;-0.1156;-0.1367;-0.0145;
913672639349744;-0.1635;-0.1964;-0.0305;
913672649456567;-0.1348;-0.0973;-0.0529;
913672659563442;-0.0549;0.0486;-0.0571;
913672669649327;0.0176;0.0955;-0.0614;
913672679756150;0.0442;0.0720;-0.0348;
913672689863025;0.0804;0.0624;-0.0071;
913672699981619;0.0570;0.0635;-0.0337;
913672710088442;0.0868;0.0475;-0.0358;
913672720195317;0.0889;0.0252;-0.0220;
913672730300994;0.0389;-0.0164;-0.0156;
913672740407817;-0.0165;-0.0750;-0.0113;
913672750514692;0.0005;-0.0260;0.0100;
913672760609015;0.0229;0.0188;-0.0081;
913672770715838;0.0197;-0.0387;0.0205;
913672780822713;0.0112;-0.1005;0.0386;
913672790989119;0.0272;-0.1314;0.0439;
913672801095942;0.0368;-0.0462;-0.0017;
913672811202817;0.0442;0.0177;-0.0060;
913672821233911;0.0272;-0.0313;-0.0007;
913672831340734;0.0165;-0.0547;0.0248;
913672841447609;-0.0282;0.0039;0.0280;
913672851617244;-0.0101;0.0294;0.0248;
913672861724067;0.0112;-0.0387;0.0111;
913672871830942;0.0037;-0.1069;0.0471;
913672881888494;-0.0016;-0.0846;0.0727;
913672891995317;0.0069;-0.0185;0.0312;
913672902102192;0.0272;0.0752;-0.0017;
913672912238806;0.0144;0.1093;0.0354;
913672922345629;-0.0123;0.0933;0.0057;
913672932452504;-0.0378;0.1178;-0.0017;
913672942549484;-0.0538;0.1200;0.0184;
913672952656306;-0.0165;0.1189;-0.0060;
913672962763181;-0.0059;0.1328;-0.0081;
913672972875056;-0.0091;0.1317;0.0322;
913672982981879;-0.0133;0.0976;0.0514;
913672993088754;-0.0016;0.0582;0.0152;
913673003165369;-0.0208;0.0784;-0.0103;
913673013272192;-0.0282;0.0241;-0.0188;
913673023379067;-0.0655;-0.0696;-0.0071;
913673033521619;-0.0804;-0.1261;-0.0188;
913673043628442;-0.0708;-0.1442;-0.0369;
913673053735317;-0.0581;-0.1463;-0.0475;
913673063821202;-0.0186;-0.1772;-0.0518;
913673073928025;0.0091;-0.2049;-0.0198;
913673084034900;0.0250;-0.1751;-0.0337;
913673094141411;0.0485;-0.0941;-0.0720;
913673104248234;0.0826;-0.0569;-0.0529;
913673114355109;0.1124;-0.0707;-0.0358;
913673124472348;0.1539;-0.0068;-0.0539;
913673134579171;0.1497;0.0848;-0.0390;
913673144686046;0.1103;0.1072;-0.0209;
913673154793286;0.1582;0.1232;-0.0273;
913673164900109;0.1060;0.1402;0.0132;
913673175006984;0.0772;0.1370;0.0482;
913673185102244;0.0932;0.1338;0.0599;
913673195209067;0.0815;0.1764;0.0205;
913673205315942;0.0485;0.1754;0.0407;
913673215417556;0.0293;0.1434;0.0290;
913673225524379;-0.0101;0.1423;0.0344;
913673235631254;-0.0389;0.0742;0.0525;
913673245727036;-0.0463;-0.0196;0.0546;
913673255833859;-0.0634;-0.0036;0.0312;
913673265940734;-0.0559;0.0305;0.0386;
913673276076827;-0.0442;0.0486;0.0525;
913673286183650;-0.0389;0.0486;-0.0145;
913673296290525;0.0165;0.1072;-0.0422;
913673306385369;-0.0059;0.1072;-0.0007;
913673316492192;-0.0123;0.0475;-0.0166;
913673326599067;-0.0272;0.0166;-0.0060;
913673336700369;-0.0368;-0.0111;-0.0049;
913673346807192;-0.0197;0.0230;-0.0049;
913673356914067;-0.0069;0.0443;-0.0124;
913673367027556;0.0346;-0.0111;0.0132;
913673377134223;0.0016;-0.1027;0.0162;
913673387240890;0.0218;-0.1208;-0.0326;
913673397352140;0.0208;-0.0718;-0.0124;
913673407458806;0.0218;-0.1122;-0.0134;
913673417565473;0.0282;-0.1495;-0.0188;
913673427666619;0.0304;-0.0643;-0.0273;
913673437773286;0.0048;-0.0654;-0.0134;
913673447879952;0.0165;-0.1389;-0.0081;
913673457989536;0.0336;-0.1740;0.0248;
913673468096202;0.0591;-0.0377;0.0248;
913673478202869;0.0293;-0.0877;0.0397;
913673488311411;0.0559;-0.0760;0.0047;
913673498418077;0.0442;0.0710;-0.0039;
913673508524744;0.0208;0.0901;-0.0071;
913673518629119;-0.0154;0.0401;0.0205;
913673528735786;-0.0368;-0.0089;0.0237;
913673538842452;-0.0399;-0.0270;0.0290;
913673548941619;-0.0463;0.0230;0.0322;
913673559048286;-0.0346;0.0635;0.0727;
913673569154952;-0.0123;0.0529;0.0652;
913673579263390;-0.0463;-0.0846;0.0354;
913673589370056;-0.0453;0.0113;0.0269;
913673599476723;-0.0858;0.0529;0.0312;
913673609586306;-0.0623;-0.0515;0.0121;
913673619692973;-0.0815;-0.0696;0.0089;
913673629799640;-0.0943;-0.0494;0.0205;
913673639922088;-0.0794;-0.0174;0.0322;
913673650028754;-0.0485;0.0209;0.0162;
913673660135421;-0.0229;0.0252;0.0365;
913673670217765;-0.0101;0.0518;0.0546;
913673680324431;-0.0091;-0.0057;0.0142;
913673690431098;-0.0165;-0.0079;0.0068;
913673700541827;-0.0101;0.0401;0.0142;
913673710648494;-0.0101;-0.0313;0.0184;
913673720755161;-0.0581;-0.0824;0.0226;
913673730882556;-0.0644;-0.0728;0.0068;
913673740989223;-0.0644;-0.0835;0.0132;
913673751095890;-0.0559;-0.0846;0.0162;
913673761188702;-0.0112;-0.0611;0.0269;
913673771295369;-0.0037;-0.0419;0.0258;
913673781402036;-0.0186;-0.0302;-0.0379;
913673791500786;-0.0293;0.0390;-0.0475;
913673801607452;-0.0208;0.0422;-0.0390;
913673811714119;-0.0250;-0.0558;-0.0571;
913673821834431;-0.0485;-0.0409;-0.0593;
913673831941098;-0.0389;0.0369;-0.0465;
913673842047765;-0.0346;0.0262;-0.0624;
913673852167140;-0.0314;0.0028;-0.0699;
913673862273806;-0.0069;-0.0260;-0.0284;
913673872380473;0.0197;-0.0281;-0.0177;
913673882470265;0.0080;0.0028;-0.0944;
913673892576931;0.0165;0.0049;-0.1168;
913673902683598;0.0005;-0.0569;-0.0710;
913673912811775;0.0154;-0.0707;-0.0944;
913673922918442;0.0250;0.0103;-0.1115;
913673933025109;0.0250;0.0390;-0.0901;
913673943106411;0.0112;0.0049;-0.0752;
913673953213077;0.0123;-0.0036;-0.0710;
913673963319744;0.0325;-0.0057;-0.0529;
913673973431827;0.0517;-0.0206;-0.0294;
913673983538494;0.0336;-0.0142;-0.0752;
913673993645161;0.0165;-0.0185;-0.0827;
913674003750004;0.0112;-0.0281;-0.0571;
913674013856671;0.0272;-0.0142;-0.0859;
913674023963338;0.0059;0.0071;-0.0774;
913674034074744;0.0027;-0.0100;-0.0539;
913674044181411;-0.0101;-0.0334;-0.0582;
913674054288077;-0.0005;-0.0313;-0.0507;
913674064392869;0.0123;-0.0196;-0.0060;
913674074499536;0.0474;-0.0174;-0.0188;
913674084606202;0.0676;0.0220;-0.0529;
913674094708806;0.0655;0.0497;-0.0401;
913674104815473;0.0495;0.0113;-0.0294;
913674114922140;0.0730;-0.0036;-0.0688;
913674125018077;0.0591;0.0220;-0.0699;
913674135124744;0.0581;-0.0111;-0.0465;
913674145231411;0.0538;-0.0196;-0.0177;
913674155357869;0.0634;0.0071;-0.0081;
913674165464536;0.0879;-0.0057;0.0226;
913674175571202;0.1071;-0.0451;0.0216;
913674185667661;0.1156;-0.0345;-0.0316;
913674195774327;0.1124;0.0113;-0.0273;
913674205880994;0.0794;-0.0228;0.0100;
913674215992348;0.0879;-0.0292;0.0025;
913674226099015;0.0943;0.0348;-0.0273;
913674236205681;0.0847;0.0465;-0.0124;
913674246310369;0.0613;0.0294;0.0142;
913674256417036;0.0634;0.0443;0.0333;
913674266523702;0.0517;0.0092;0.0716;
913674276628494;0.0804;-0.0089;0.0652;
913674286735161;0.0740;0.0113;0.0375;
913674296841827;0.0751;0.0550;0.0237;
913674306963181;0.0485;0.0337;0.0375;
913674317069848;0.0559;-0.0174;0.0121;
913674327176515;0.0655;0.0103;0.0173;
913674337282869;0.0655;0.0028;0.0173;
913674347389536;0.0431;-0.0611;0.0290;
913674357496202;0.0336;-0.0398;0.0237;
913674367587452;0.0538;-0.0334;0.0312;
913674377694119;0.0644;-0.0856;0.0567;
913674387800786;0.0708;-0.0750;0.0386;
913674397927036;0.1017;0.0358;-0.0241;
913674408033702;0.0900;0.0646;-0.0007;
913674418140369;0.0889;-0.0654;0.0142;
913674428236827;0.0932;-0.1048;0.0047;
913674438343494;0.0932;-0.0238;0.0047;
913674448450161;0.1145;0.0028;0.0173;
913674458560994;0.0911;0.0060;0.0344;
913674468667661;0.0932;0.0039;0.0599;
913674478774327;0.0826;-0.0228;0.1004;
913674488886411;0.0889;-0.0292;0.0897;
913674498993077;0.0836;-0.0100;0.0461;
913674509099744;0.0549;0.0262;0.0557;
913674519203598;0.0431;-0.0057;0.0887;
913674529310265;0.0186;-0.0313;0.0738;
913674539416931;0.0218;0.0379;0.0471;
913674549524536;0.0048;0.0571;0.0418;
913674559631202;-0.0154;0.0326;0.0770;
913674569737869;-0.0527;0.0656;0.1015;
913674579835369;-0.0538;0.0433;0.1153;
913674589942036;-0.0644;-0.0526;0.1356;
913674600048702;-0.0921;-0.0728;0.0855;
913674610156254;-0.0889;-0.0111;0.0493;
913674620262921;-0.0613;0.0241;0.0631;
913674630369588;-0.0666;-0.0430;0.0610;
913674640502765;-0.0581;-0.0473;0.0407;
913674650609431;-0.0421;0.0177;0.0493;
913674660716098;-0.0368;0.0465;0.0280;
913674670829119;-0.0506;-0.0846;0.0525;
913674680935786;-0.0751;-0.1005;0.0738;
913674691042452;-0.0336;0.0326;0.0684;
913674701116306;-0.0091;0.1306;0.0365;
913674711222973;0.0080;0.1775;-0.0145;
913674721329640;-0.0123;0.1658;0.0121;
913674731459744;-0.0368;0.1530;0.0216;
913674741566411;-0.0261;0.1115;-0.0039;
913674751673077;-0.0463;0.0475;0.0025;
913674761770786;-0.0389;0.0113;0.0173;
913674771877452;-0.0282;0.0103;0.0152;
913674781984119;-0.0144;0.0081;0.0344;
913674792068390;0.0005;0.1093;0.0727;
913674802175056;-0.0048;0.0145;0.0823;
913674812281723;-0.0293;-0.1250;0.0354;
913674822399848;-0.0527;-0.0941;0.0089;
913674832506515;-0.0314;-0.0760;0.0142;
913674842613181;-0.0282;-0.0973;0.0079;
913674852744848;-0.0272;-0.1048;-0.0071;
913674862851515;-0.0197;-0.0526;-0.0188;
913674872958181;0.0005;0.0134;-0.0017;
913674883054119;0.0666;0.4085;-0.0401;
913674893160786;0.0165;0.2510;0.0237;
913674903267452;-0.0442;-0.2612;0.1068;
913674913374536;-0.0623;-0.2783;0.0993;
913674923481202;-0.0804;0.0305;0.0237;
913674933587869;-0.0623;0.1296;0.0068;
913674943692348;0.0101;0.0401;0.0184;
913674953799015;-0.0325;0.0103;0.0047;
913674963905681;-0.0431;0.0848;0.0068;
913674973987556;-0.0048;0.0720;0.0132;
913674984094223;-0.0123;-0.0025;0.0057;
913674994200890;-0.0282;-0.0324;0.0184;
913675004331671;-0.1103;-0.3497;0.0567;
913675014438338;-0.0272;-0.1495;0.0567;
913675024545004;-0.0581;0.2233;0.0089;
913675034648077;-0.0016;0.1338;-0.0326;
913675044754744;0.0368;0.0103;-0.0092;
913675054861411;-0.0847;0.0177;-0.0188;
913675064963338;-0.0932;0.0305;-0.0166;
913675075070004;-0.0868;-0.0089;-0.0284;
913675085176671;-0.0538;-0.0952;-0.0411;
913675095287921;-0.0889;-0.0984;-0.0539;
913675105394588;-0.0953;-0.0334;-0.0326;
913675115501254;-0.0357;-0.0270;-0.0177;
913675125584900;-0.0218;-0.0664;-0.0017;
913675135691567;-0.0389;-0.0611;-0.0539;
913675145798234;-0.0250;-0.0206;-0.0827;
913675155941202;0.0133;-0.0142;-0.0667;
913675166047869;0.0186;-0.0281;-0.0699;
913675176154536;0.0059;-0.0505;-0.0742;
913675186249119;0.0218;-0.0196;-0.0774;
913675196355786;0.0336;0.0305;-0.0646;
913675206462452;0.0485;0.0252;-0.0433;
913675216565004;0.0378;0.0081;0.0004;
913675226671671;0.0495;0.0103;0.0057;
913675236778338;0.0666;-0.0387;0.0004;
913675246903077;0.0442;-0.0228;-0.0124;
913675257009744;0.0250;0.0252;-0.0071;
913675267116411;0.0453;0.0028;-0.0134;
913675277226827;0.0176;0.0081;-0.0177;
913675287333494;0.0080;0.0049;-0.0156;
913675297440161;-0.0144;-0.0302;-0.0092;
913675307527973;-0.0080;-0.0398;0.0057;
913675317634640;0.0005;-0.0494;0.0184;
913675327741306;-0.0144;-0.0909;0.0407;
913675337854848;-0.0027;-0.0973;0.0620;
913675347961515;-0.0133;-0.0973;0.0514;
913675358068181;-0.0123;-0.0377;-0.0028;
913675368189848;-0.0208;0.0507;0.0132;
913675378296827;0.0016;0.0571;0.0025;
913675388403859;-0.0208;0.0465;-0.0081;
913675398491827;-0.0208;0.0401;-0.0060;
913675408598806;-0.0336;0.0443;0.0162;
913675418705838;-0.0154;0.1232;-0.0156;
913675428810056;-0.0016;0.1860;-0.0081;
913675438917036;0.0005;0.1477;0.0578;
913675449024067;-0.0154;0.0774;0.0951;
913675459125161;-0.0218;0.0603;0.0450;
913675469232140;-0.0250;0.0646;0.0132;
913675479339171;-0.0325;0.0390;0.0407;
913675489473911;-0.0421;-0.0164;0.0280;
913675499580890;-0.0655;-0.0366;0.0015;
913675509687921;-0.0602;-0.0430;-0.0145;
913675519774327;-0.0485;-0.0281;-0.0166;
913675529881306;-0.0378;-0.0079;-0.0262;
913675539988338;-0.0261;-0.0483;-0.0284;
913675550093286;-0.0080;-0.0909;-0.0262;
913675560200265;-0.0154;-0.0835;-0.0017;
913675570307296;-0.0261;-0.0558;-0.0465;
913675580414431;0.0048;0.0411;-0.1040;
913675590521411;-0.0005;0.1125;-0.0987;
913675600628442;0.0336;0.0976;-0.1136;
913675610741827;0.0091;0.1019;-0.1146;
913675620848806;-0.0133;0.1093;-0.1146;
913675630955838;0.0091;0.0912;-0.1328;
913675641070109;0.0314;0.0635;-0.1413;
913675651177088;0.0144;0.0039;-0.1200;
913675661284119;0.0208;-0.0238;-0.1115;
913675671344431;0.0197;0.0166;-0.0997;
913675681451411;0.0389;0.0486;-0.1487;
913675691558442;0.0506;0.0795;-0.1445;
913675701684119;0.0336;0.0507;-0.1615;
913675711791098;0.0591;-0.0228;-0.1828;
913675721898129;0.0559;-0.0025;-0.1658;
913675732029015;0.0538;0.0220;-0.1839;
913675742135994;0.0879;0.0294;-0.1945;
913675752243025;0.1188;0.0507;-0.2009;
913675762322661;0.1529;0.0230;-0.1391;
913675772429640;0.1838;0.0518;-0.0965;
913675782536671;0.2317;0.1072;-0.1061;
913675792646306;0.2519;0.0912;-0.1285;
913675802753286;0.2136;0.0401;-0.1019;
913675812860317;0.2019;0.0134;-0.0848;
913675822965421;0.2146;-0.0057;-0.0933;
913675833072400;0.1933;-0.0015;-0.0848;
913675843179431;0.1507;-0.0228;-0.0624;
913675853328494;0.1646;-0.0664;-0.0390;
913675863435473;0.1774;-0.0537;-0.0337;
913675873542504;0.1742;-0.0228;-0.0124;
913675883609327;0.1646;-0.0174;0.0237;
913675893716306;0.1550;-0.0483;0.0216;
913675903823338;0.1316;-0.0899;0.0121;
913675913957140;0.0932;-0.0686;0.0322;
913675924064119;0.1177;-0.0217;0.0248;
913675934171150;0.1113;-0.0068;0.0132;
913675944256254;0.0996;0.0241;-0.0017;
913675954363234;0.0772;0.0060;0.0226;
913675964470265;0.1039;-0.0089;0.0375;
913675974579327;0.1134;0.0198;0.0546;
913675984686306;0.1145;0.0071;0.0663;
913675994793338;0.1134;-0.0526;0.0983;
913676004888286;0.0634;-0.0505;0.0983;
913676014995265;0.0719;-0.0047;0.0791;
913676025102296;0.0730;-0.0441;0.1004;
913676035224431;0.0644;-0.0803;0.0993;
913676045331411;0.0463;-0.0483;0.0812;
913676055438442;0.0762;0.0220;0.0674;
913676065530161;0.0708;0.0518;0.0866;
913676075637140;0.0804;0.0401;0.0727;
913676085744171;0.1039;0.0411;0.0812;
913676095852869;0.0847;-0.0196;0.1356;
913676105959848;0.0783;-0.0483;0.1515;
913676116066879;0.0453;-0.0111;0.1387;
913676126191515;0.0591;0.0145;0.1153;
913676136298494;0.0346;-0.0132;0.1398;
913676146405525;0.0421;-0.0377;0.1366;
913676156515056;0.0410;-0.0015;0.1292;
913676166622036;0.0378;0.0262;0.1483;
913676176729067;0.0282;-0.0100;0.1569;
913676186830681;0.0059;-0.0952;0.1441;
913676196937661;-0.0080;-0.1101;0.1441;
913676207044692;-0.0154;-0.0441;0.1792;
913676217142765;0.0101;-0.0164;0.1792;
913676227249744;-0.0027;-0.0430;0.1313;
913676237356775;-0.0048;-0.0206;0.1121;
913676247476671;-0.0495;0.0326;0.1558;
913676257583650;-0.0261;0.0518;0.1675;
913676267690681;-0.0591;0.0529;0.1153;
913676277776202;-0.0357;0.0784;0.0855;
913676287883181;-0.0996;0.0646;0.1238;
913676297990213;-0.1294;0.0049;0.1430;
913676308113077;-0.1433;0.0124;0.1462;
913676318220056;-0.1624;0.0454;0.1632;
913676328327088;-0.1358;0.0443;0.1100;
913676338434015;-0.1103;-0.0025;0.1089;
913676348540994;-0.1561;-0.0185;0.1004;
913676358648025;-0.1369;-0.0036;0.1334;
913676368764484;-0.1848;-0.0281;0.1142;
913676378871306;-0.1784;-0.0909;0.0791;
913676388978181;-0.1688;-0.0877;0.0493;
913676399071202;-0.2083;-0.0302;0.0429;
913676409178025;-0.2157;0.0294;0.0312;
913676419284900;-0.1507;0.0742;-0.0017;
913676429393702;-0.1720;0.0369;0.0535;
913676439500525;-0.1145;0.0166;0.0567;
913676449607400;-0.1294;0.0348;0.0439;
913676459704640;-0.1166;0.0273;0.0079;
913676469811463;-0.1348;0.0252;0.0397;
913676479918338;-0.1198;0.0220;-0.0007;
913676490043077;-0.1134;-0.0185;-0.0028;
913676500149900;-0.0996;-0.0015;0.0100;
913676510256775;-0.1060;0.0358;0.0482;
913676520340681;-0.0698;0.0209;0.0418;
913676530447504;-0.0570;-0.0196;0.0386;
913676540554379;-0.0698;-0.0718;0.0525;
913676550650786;-0.0399;-0.0526;0.0439;
913676560757609;-0.0698;-0.0281;0.0386;
913676570864484;-0.0751;-0.0025;0.0290;
913676580987140;-0.1156;-0.0025;0.0706;
913676591093963;-0.1039;-0.0036;0.0290;
913676601200838;-0.1348;0.0060;0.0089;
913676611303494;-0.1369;0.0358;-0.0220;
913676621410317;-0.1379;0.0816;0.0269;
913676631517192;-0.1688;0.0593;0.0461;
913676641634640;-0.1284;0.0326;0.0450;
913676651741463;-0.1635;0.0007;0.0365;
913676661848338;-0.1262;-0.0537;0.0557;
913676671931411;-0.1443;-0.0611;0.0429;
913676682038234;-0.1422;-0.0324;0.0132;
913676692145109;-0.1561;-0.0387;0.0365;
913676702270994;-0.1358;-0.0718;0.0248;
913676712377817;-0.1539;-0.0899;0.0079;
913676722484692;-0.1529;-0.0782;-0.0369;
913676732606515;-0.1443;-0.0345;-0.0518;
913676742713338;-0.1518;-0.0334;-0.0443;
913676752820213;-0.1188;-0.0281;-0.0411;
913676762904744;-0.1039;-0.0238;-0.0443;
913676773011567;-0.0858;-0.0409;-0.0252;
913676783118442;-0.0953;-0.0281;-0.0316;
913676793246202;-0.1007;0.0646;-0.0923;
913676803353025;-0.1081;0.0635;-0.0774;
913676813459900;-0.1092;-0.0196;-0.0614;
913676823547036;-0.0623;-0.0185;-0.0731;
913676833653859;-0.0538;0.0305;-0.0891;
913676843760734;-0.0261;0.0518;-0.0997;
913676853857869;-0.0421;-0.0324;-0.0848;
913676863964692;-0.0282;-0.0963;-0.0763;
913676874071567;0.0368;-0.0324;-0.0880;
913676884187921;0.0410;-0.0238;-0.0710;
913676894294744;0.1028;-0.0419;-0.0710;
913676904401619;0.1124;-0.0015;-0.0976;
913676914517661;0.1134;0.0710;-0.0912;
913676924624484;0.0826;0.0060;-0.0678;
913676934731359;0.0730;-0.0643;-0.0678;
913676944819952;0.0698;-0.0206;-0.0944;
913676954926775;0.0421;0.0198;-0.1029;
913676965033650;0.0442;0.0177;-0.0742;
913676975144327;0.0378;-0.0079;-0.0752;
913676985251150;0.0517;-0.0100;-0.0603;
913676995358025;0.0634;0.0145;-0.0529;
913677005453911;0.0804;-0.0004;-0.0411;
913677015560734;0.0964;0.0124;-0.0550;
913677025667609;0.1124;0.0539;-0.0390;
913677035789015;0.0442;0.0092;-0.0188;
913677045895838;0.0549;-0.0537;-0.0571;
913677056002713;0.0495;-0.0356;-0.0731;
913677066111931;0.0218;0.0113;-0.0582;
913677076218754;0.0293;0.0092;-0.0401;
913677086325629;0.0112;-0.0004;-0.0337;
913677096422869;0.0250;-0.0121;-0.0252;
913677106529692;0.0176;-0.0057;0.0173;
913677116636567;0.0314;-0.0036;0.0047;
913677126732348;0.0133;-0.0302;-0.0103;
913677136839171;0.0197;0.0028;-0.0390;
913677146946046;-0.0144;0.0273;-0.0113;
913677157072140;-0.0336;-0.0238;-0.0039;
913677167178963;-0.0378;-0.0611;-0.0188;
913677177285838;-0.0538;-0.0206;-0.0454;
913677187390890;-0.0623;0.0028;-0.0475;
913677197497713;-0.0538;0.0028;-0.0220;
913677207604588;-0.0634;0.0220;-0.0262;
913677217705265;-0.0676;-0.0057;-0.0124;
913677227812088;-0.0666;-0.0398;-0.0060;
913677237918963;-0.0229;-0.0356;-0.0284;
913677248026202;-0.0368;-0.0047;-0.0497;
913677258133025;-0.0506;0.0188;-0.0262;
913677268239900;-0.0517;-0.0025;-0.0134;
913677278338911;-0.0804;-0.0462;-0.0401;
913677288445734;-0.0783;-0.0419;-0.0603;
913677298552609;-0.0868;-0.0217;-0.0518;
913677308667348;-0.0666;-0.0025;-0.0614;
913677318774171;-0.0623;0.0305;-0.0593;
913677328881046;-0.0559;0.0134;-0.0571;
913677338992036;-0.0389;-0.0473;-0.0465;
913677349098859;0.0186;-0.0281;-0.0422;
913677359205734;0.0421;0.0241;-0.0582;
913677369317504;0.0421;0.0486;-0.0582;
913677379424171;0.0570;0.0422;-0.0443;
913677389530838;0.0687;0.0017;-0.0443;
913677399637348;0.0666;0.0092;-0.0635;
913677409744015;0.0517;0.0294;-0.0401;
913677419850681;0.0538;0.0092;-0.0316;
913677429950265;0.0538;-0.0142;-0.0230;
913677440056931;0.0602;0.0071;-0.0092;
913677450163598;0.0399;-0.0132;0.0142;
913677460271515;0.0474;-0.1506;0.0844;
913677470378181;0.1699;0.1381;0.0567;
913677480484848;0.1593;0.4746;-0.0699;
913677490598494;-0.1177;-0.1389;0.0599;
913677500705161;-0.1326;-0.5648;0.1419;
913677510811827;0.0911;-0.3422;0.1313;
913677520949431;0.2019;0.0997;0.0248;
913677531056098;0.0048;0.1711;-0.0348;
913677541162765;-0.1486;0.0007;0.0461;
913677551206098;0.0027;0.0656;0.0482;
913677561312765;0.0314;0.2755;0.0205;
913677571419431;-0.0304;0.2798;0.0322;
913677581590369;-0.0336;0.1913;0.0482;
913677591697036;-0.0559;0.1967;0.0375;
913677601803702;-0.0911;0.1455;-0.0220;
913677611872973;-0.2040;-0.2401;0.0100;
913677621979640;-0.0325;0.0582;0.0312;
913677632086306;-0.0027;0.4575;0.0089;
913677642222452;-0.0815;0.1381;0.0407;
913677652329119;-0.0378;-0.0334;0.1015;
913677662435786;-0.0666;-0.2262;0.0695;
913677672527661;0.0517;0.0124;0.0461;
913677682634327;-0.0591;0.0443;0.0631;
913677692740994;-0.1294;-0.3028;0.0834;
913677702840577;-0.0304;-0.3071;0.0706;
913677712947244;-0.0176;-0.1708;-0.0124;
913677723053911;-0.0421;-0.1826;-0.0454;
913677733165265;-0.0868;-0.1357;0.0036;
913677743271931;-0.1156;-0.1314;-0.0379;
913677753378598;-0.0868;-0.1644;-0.0507;
913677763470161;-0.0794;-0.0015;-0.0411;
913677773576827;-0.0836;0.1562;-0.0529;
913677783683494;-0.0762;0.1573;-0.0443;
913677793792036;-0.0549;0.1796;-0.0369;
913677803898702;-0.0666;0.1711;-0.0103;
913677814005369;-0.0687;0.0731;0.0025;
913677824114015;-0.0261;0.0795;-0.0092;
913677834220681;-0.0154;0.0901;-0.0582;
913677844327348;-0.0027;0.0571;-0.0433;
913677854437765;0.0037;0.0752;-0.0124;
913677864544431;0.0410;0.0784;-0.0241;
913677874651098;0.0389;0.0358;-0.0284;
913677884769223;0.0314;0.0145;-0.0177;
913677894875890;0.0229;0.0007;0.0047;
913677904982556;-0.0133;-0.0409;-0.0017;
913677915086931;-0.0048;-0.0835;-0.0156;
913677925193598;-0.0293;-0.1357;0.0100;
913677935300265;-0.0176;-0.1612;0.0301;
913677945397140;-0.0112;-0.1272;0.0248;
913677955503806;-0.0293;-0.0814;-0.0294;
913677965610473;-0.0442;-0.0494;-0.0529;
913677975723390;-0.0570;-0.0249;-0.0358;
913677985830056;-0.0783;-0.0324;-0.0273;
913677995936723;-0.0889;-0.0132;-0.0443;
913678006025786;-0.0900;0.0475;-0.0539;
913678016132452;-0.0975;0.0369;-0.0624;
913678026239119;-0.0858;0.0166;-0.0411;
913678036367921;-0.1103;0.0603;-0.0273;
913678046474588;-0.0740;0.0561;-0.0305;
913678056581254;-0.0431;0.0422;-0.0007;
913678066681671;-0.0485;0.0379;0.0205;
913678076788338;-0.0453;0.0422;-0.0049;
913678086895004;-0.0346;0.0475;-0.0134;
913678097007088;-0.0314;0.0987;0.0004;
913678107113754;-0.0027;0.0848;-0.0081;
913678117220421;-0.0804;-0.1016;0.0184;
913678127318494;-0.1198;-0.1112;0.0312;
913678137425161;-0.0826;0.0326;-0.0262;
913678147531827;-0.0889;0.0944;-0.0582;
913678157642348;-0.0762;0.0912;-0.0507;
913678167749015;-0.0719;0.0518;-0.0060;
913678177855681;-0.0698;0.0443;0.0152;
913678187968442;-0.0378;0.0422;-0.0220;
913678198075109;-0.0623;0.0156;-0.0518;
913678208181775;-0.0325;0.0795;-0.0838;
913678218281931;-0.0123;0.0869;-0.0507;
913678228388598;-0.0133;0.0007;-0.0443;
913678238495265;-0.0549;-0.0920;-0.0699;
913678248607088;-0.0549;-0.0899;-0.0529;
913678258713754;0.0048;0.0071;-0.0582;
913678268820421;-0.0027;-0.0089;-0.0220;
913678278934223;-0.0186;-0.0739;-0.0433;
913678289040890;0.0144;-0.0718;-0.0550;
913678299147556;0.0208;-0.0654;-0.0550;
913678309248911;0.0357;-0.0302;-0.0411;
913678319355577;0.0719;-0.0632;-0.0571;
913678329462244;0.0549;-0.0526;-0.0774;
913678339570838;0.0794;0.0284;-0.0923;
913678349677504;0.0762;0.0081;-0.0838;
913678359784171;0.0804;-0.0270;-0.0859;
913678369884119;0.1166;0.0422;-0.0742;
913678379990838;0.0996;0.1253;-0.0678;
913678390097504;0.0868;0.1083;-0.0614;
913678400205265;0.0485;0.0901;-0.0571;
913678410311984;0.0570;0.1061;-0.0614;
913678420418650;0.0708;0.0848;-0.0390;
913678430519588;0.0772;0.0358;-0.0092;
913678440626306;0.0921;0.0134;-0.0007;
913678450732973;0.0687;-0.0270;-0.0326;
913678460889171;0.0900;-0.0270;-0.0582;
913678470995890;0.0879;0.0071;-0.0379;
913678481102556;0.0921;0.0177;-0.0273;
913678491168234;0.0783;-0.0185;-0.0284;
913678501274900;0.0751;-0.0292;-0.0337;
913678511381619;0.0495;-0.0185;-0.0379;
913678521484327;0.0293;-0.0419;-0.0284;
913678531591046;0.0218;-0.0526;-0.0188;
913678541697713;0.0357;-0.0249;-0.0209;
913678551811827;0.0591;0.0092;-0.0284;
913678561918546;0.0900;0.0060;0.0152;
913678572025213;0.0858;-0.0174;0.0280;
913678582150681;0.0634;-0.0111;-0.0262;
913678592257400;0.0964;0.0497;-0.0348;
913678602364067;0.1060;0.0646;0.0004;
913678612448806;0.0900;-0.0121;0.0333;
913678622555525;0.0666;-0.0558;0.0258;
913678632662192;0.0751;-0.0196;0.0057;
913678642756254;0.0570;-0.0111;0.0333;
913678652862973;0.0378;-0.0664;0.0802;
913678662969640;0.0208;-0.0782;0.0663;
913678673109327;0.0336;-0.0185;0.0589;
913678683216046;0.0325;0.0422;0.0706;
913678693322713;0.0527;0.0667;0.0546;
913678703430890;0.0261;0.0422;0.0418;
913678713537609;-0.0048;0.0166;0.0194;
913678723644275;-0.0495;0.0081;0.0344;
913678733731619;-0.0826;-0.0260;0.0482;
913678743838338;-0.0879;-0.0867;0.0439;
913678753945004;-0.1230;-0.0675;-0.0241;
913678764047661;-0.1273;0.0113;-0.0507;
913678774154379;-0.1220;0.0635;-0.0294;
913678784261046;-0.1177;0.0497;-0.0156;
913678794375004;-0.0964;0.0561;-0.0497;
913678804481723;-0.0282;0.0539;-0.0017;
913678814588390;-0.0826;0.0081;-0.0177;
913678824690004;0.0176;0.0784;-0.0827;
913678834796723;0.0304;0.0731;-0.0688;
913678844903442;0.0091;-0.0377;-0.0486;
913678855015161;0.0357;-0.0835;-0.0550;
913678865121879;0.0772;-0.0675;-0.0561;
913678875228546;0.0943;-0.0483;-0.0667;
913678885330265;0.1262;-0.0451;-0.1029;
913678895436984;0.1593;-0.0185;-0.0827;
913678905543650;0.1166;-0.0025;-0.0529;
913678915659431;0.1305;0.0103;-0.0550;
913678925766150;0.1262;0.0124;-0.0486;
913678935872817;0.1060;-0.0036;-0.0529;
913678945975681;0.1337;-0.0483;-0.0316;
913678956082400;0.1198;-0.0505;0.0025;
913678966189067;0.1379;0.0188;0.0111;
913678976299327;0.0943;-0.0387;-0.0305;
913678986406046;0.0836;-0.0920;-0.0518;
913678996512713;0.0634;-0.0185;-0.0209;
913679006644223;0.0676;0.0401;-0.0049;
913679016750942;0.0730;0.0241;-0.0188;
913679026857609;0.0442;0.0007;-0.0209;
913679036944431;0.0495;0.0198;-0.0134;
913679047051150;0.0112;0.0198;0.0194;
913679057157817;0.0101;0.0188;0.0194;
913679067255369;0.0186;0.0166;0.0322;
913679077362088;0.0208;-0.0292;0.0567;
913679087468754;-0.0080;-0.0750;0.0759;
913679097574952;0.0474;-0.0750;0.0716;
913679107681671;0.0368;-0.0675;0.0706;
913679117788338;0.0144;-0.0366;0.0418;
913679127883181;-0.0080;0.0262;0.0354;
913679137989900;-0.0091;0.0071;0.0631;
913679148096567;0.0101;-0.0441;0.0684;
913679158217088;0.0314;-0.0387;0.0354;
913679168323806;0.0059;0.0262;0.0269;
913679178430473;-0.0133;0.0486;0.0333;
913679188540890;0.0016;-0.0057;0.0631;
913679198647609;0.0101;0.0017;0.0802;
913679208754275;0.0123;0.0209;0.0759;
913679218852244;0.0112;-0.0302;0.0738;
913679228958963;0.0080;-0.0366;0.0940;
913679239065629;0.0208;-0.0217;0.0866;
913679249185786;0.0314;-0.0185;0.0802;
913679259292504;0.0399;0.0209;0.0535;
913679269399171;0.0165;0.0454;0.0631;
913679279504744;0.0091;0.0103;0.0929;
913679289611463;0.0186;-0.0345;0.0780;
913679299718129;0.0048;-0.0281;0.0312;
913679309815161;0.0037;0.0124;0.0237;
913679319921879;-0.0250;-0.0164;0.0503;
913679330028546;-0.0154;-0.0728;0.0652;
913679340142088;-0.0261;-0.0558;0.0610;
913679350247348;-0.0165;0.0103;0.0386;
913679360354067;-0.0314;0.0113;0.0226;
913679370460734;-0.0250;0.0007;0.0344;
913679380561827;0.0027;0.0252;0.0290;
913679390668546;0.0186;0.0209;0.0248;
913679400775213;0.0101;-0.0015;-0.0071;
913679410906411;0.0027;0.0134;-0.0134;
913679421013129;-0.0154;-0.0217;0.0004;
913679431119796;-0.0016;-0.0696;-0.0049;
913679441208442;0.0240;-0.0387;-0.0177;
913679451315109;0.0336;0.0198;-0.0475;
913679461421827;0.0378;0.0294;-0.0454;
913679471559431;0.0453;0.0156;-0.0156;
913679481666150;0.0591;0.0443;0.0025;
913679491772817;0.0410;0.0688;-0.0028;
913679501863598;0.0559;0.0593;-0.0060;
913679511970317;0.0368;-0.0164;0.0354;
913679522076984;0.0495;-0.0739;0.0237;
913679532158286;0.0868;-0.0537;0.0226;
913679542265004;0.0463;-0.0654;-0.0071;
913679552371671;0.0687;-0.0174;-0.0060;
913679562484952;0.0421;0.0177;0.0258;
913679572591671;0.0410;-0.0068;0.0333;
913679582698338;0.0495;0.0081;0.0121;
913679592812973;0.0208;0.0262;0.0047;
913679602919692;0.0080;0.0177;0.0025;
913679613026359;-0.0112;-0.0057;0.0194;
913679623120577;-0.0091;-0.0185;0.0397;
913679633227296;-0.0229;-0.0121;0.0535;
913679643333963;-0.0389;-0.0089;0.0514;
913679653472036;-0.0730;-0.0601;0.0546;
913679663578754;-0.0698;-0.0771;0.0695;
913679673685421;-0.0655;-0.0686;0.0535;
913679683777765;-0.0655;-0.0462;0.0344;
913679693884484;-0.0687;-0.0047;-0.0028;
913679703991150;-0.0932;-0.0004;0.0194;
913679714102036;-0.1614;-0.0079;0.0450;
913679724208754;-0.1497;-0.0473;0.0121;
913679734315421;-0.1571;-0.0632;-0.0284;
913679744410369;-0.1049;-0.0004;-0.0614;
913679754517088;-0.1294;-0.0281;-0.0241;
913679764623754;-0.1497;-0.1314;-0.0177;
913679774727140;-0.0272;-0.1389;-0.0230;
913679784833859;-0.0144;0.0134;-0.0113;
913679794940525;-0.0655;-0.0696;0.0047;
913679805063702;0.0197;-0.1506;0.0375;
913679815170421;0.1688;0.1551;-0.0007;
913679825277088;0.1784;0.4490;-0.0635;
913679835371411;0.1124;0.4437;-0.0720;
913679845478129;0.0868;0.2861;-0.0401;
913679855584796;0.0804;0.2148;0.0111;
913679865695004;0.0389;0.1455;0.0354;
913679875801723;-0.0080;-0.0185;0.0386;
913679885908390;-0.0037;-0.1357;0.0333;
913679896017973;0.0240;-0.1389;0.0525;
913679906124692;-0.0037;-0.1112;0.0439;
913679916231359;-0.0527;-0.0995;0.0471;
913679926347036;-0.0613;-0.0505;0.0493;
913679936453754;-0.0399;0.0507;0.0610;
913679946560421;-0.0133;0.1509;0.0727;
913679956657921;-0.0389;0.0678;0.0866;
913679966764640;-0.0208;0.0092;0.0844;
913679976871306;-0.0304;0.0774;0.0929;
913679986977504;-0.1475;-0.1474;0.0844;
913679997084223;-0.2019;-0.3443;0.0365;
913680007190890;-0.1230;-0.2847;0.0111;
913680017302973;-0.1411;-0.1804;-0.0273;
913680027409692;-0.1465;-0.1261;-0.0262;
913680037516359;-0.1188;-0.1048;-0.0497;
913680047622244;-0.0517;-0.0196;-0.0571;
913680057728963;-0.0581;0.1008;-0.0497;
913680067835629;-0.0591;0.0997;-0.0241;
913680077942869;-0.0666;0.1104;0.0079;
913680088049588;-0.0985;0.1051;-0.0081;
913680098156254;-0.1198;0.0241;0.0142;
913680108262244;-0.1017;-0.0079;0.0152;
913680118368963;-0.0889;0.0156;0.0290;
913680128475629;-0.0889;-0.0302;0.0280;
913680138547244;-0.0559;-0.0835;0.0226;
913680148653963;-0.0442;-0.0590;0.0121;
913680158760629;-0.0005;0.0273;-0.0092;
913680168898494;-0.0133;0.1125;-0.0113;
913680179005213;-0.0336;0.0827;0.0004;
913680189111879;-0.0112;0.0071;0.0237;
913680199224952;-0.0240;0.0422;-0.0113;
913680209331671;-0.0826;0.0028;-0.0507;
913680219438338;-0.1209;-0.1208;-0.0507;
913680229533338;-0.0921;-0.1091;-0.0497;
913680239640056;-0.0708;-0.0036;-0.0784;
913680249746723;-0.0804;0.0209;-0.1296;
913680259847973;-0.0783;-0.0121;-0.1360;
913680269954692;-0.0549;-0.0270;-0.1274;
913680280061359;-0.0570;-0.0079;-0.1157;
913680290179952;-0.0165;-0.0100;-0.1274;
913680300286671;0.0240;-0.0249;-0.1530;
913680310393338;0.0698;-0.0302;-0.1722;
913680320497036;0.1007;-0.0206;-0.1935;
913680330603754;0.0719;0.0134;-0.1786;
913680340710421;0.0847;0.0177;-0.1530;
913680350829952;0.1145;-0.0483;-0.1519;
913680360936671;0.1944;-0.0824;-0.1796;
913680371043442;0.2146;-0.0696;-0.1743;
913680381124223;0.2296;-0.0057;-0.1615;
913680391230942;0.2573;0.0337;-0.1338;
913680401337713;0.2157;0.0060;-0.1146;
913680411466723;0.2519;0.0593;-0.1487;
913680421573442;0.2839;0.1349;-0.1434;
913680431680213;0.2093;0.1093;-0.1338;
913680441760681;0.2072;0.0230;-0.0806;
913680451867400;0.1869;-0.0121;-0.0337;
913680461974171;0.1752;-0.0324;-0.0454;
913680472124848;0.1742;-0.0856;-0.0443;
913680482231567;0.1720;-0.1037;-0.0710;
913680492338338;0.1795;-0.0451;-0.0784;
913680502436098;0.1486;0.0017;-0.0571;
913680512542817;0.1220;-0.0302;-0.0369;
913680522649588;0.1060;-0.0387;-0.0369;
913680532759744;0.1358;0.0017;-0.0561;
913680542866463;0.1497;0.0198;-0.0294;
913680552973234;0.1198;0.0305;-0.0060;
913680563073390;0.1039;0.0166;-0.0060;
913680573180109;0.0836;0.0326;0.0173;
913680583286879;0.0762;0.0390;0.0248;
913680593403650;0.0975;-0.0835;0.0546;
913680603510369;0.1486;-0.0409;0.0897;
913680613617140;0.1273;0.3234;0.0111;
913680623704848;0.0261;0.3968;-0.0379;
913680633811567;-0.2413;-0.0142;-0.0326;
913680643918338;-0.3445;-0.3347;0.0111;
913680654020265;-0.1209;-0.2017;-0.0049;
913680664126984;-0.1806;-0.0696;-0.0763;
913680674233754;-0.2646;-0.0824;-0.0731;
913680684337244;-0.1337;-0.0920;-0.0060;
913680694443963;-0.0570;-0.1336;-0.0262;
913680704550734;0.0133;-0.1506;-0.0795;
913680714659640;0.0517;-0.0792;-0.1008;
913680724766359;0.0676;0.0507;-0.0976;
913680734873129;0.1166;0.0859;-0.0667;
913680744980786;0.1912;0.0869;-0.0518;
913680755087504;0.2019;0.0933;-0.0507;
913680765194275;0.2594;0.0944;-0.0699;
913680775299171;0.2764;0.0965;-0.0582;
913680785405890;0.3073;0.0763;-0.0454;
913680795512661;0.3531;0.0252;-0.0188;
913680805620577;0.4116;-0.0217;0.0333;
913680815727296;0.4084;-0.1218;0.0684;
913680825834067;0.3648;-0.2953;0.0482;
913680835947452;0.4414;-0.3156;0.0354;
913680846054171;0.5927;-0.0004;0.0015;
913680856160942;0.6086;0.2648;-0.0028;
913680866263286;0.5671;0.2446;0.0876;
913680876370004;0.5192;0.1306;0.1398;
913680886476775;0.5415;0.1445;0.1569;
913680896596411;0.4819;0.1754;0.1632;
913680906703129;0.3318;0.0688;0.1707;
913680916809900;0.2434;-0.0643;0.2144;
913680926895161;0.2051;-0.0664;0.2431;
913680937001879;0.1529;-0.0611;0.2591;
913680947108650;0.0602;-0.0984;0.2367;
913680957235681;0.1007;-0.0260;0.1995;
913680967342400;0.0538;0.0699;0.1973;
913680977449171;0.0059;0.1157;0.2112;
913680987556827;-0.0581;0.0880;0.2069;
913680997663546;-0.1465;-0.0068;0.2122;
913681007770317;-0.2742;-0.0057;0.2122;
913681017870681;-0.4286;0.0422;0.1835;
913681027977400;-0.5469;0.0113;0.1526;
913681038084171;-0.6651;-0.0047;0.1249;
913681048193286;-0.7578;0.0305;0.0546;
913681058300004;-0.8473;0.0145;0.0280;
913681068406775;-0.8791;-0.0515;0.0312;
913681078521723;-0.8260;-0.0750;-0.0007;
913681088628442;-0.7652;-0.0750;-0.0561;
913681098735213;-0.6395;-0.0675;-0.1008;
913681108833702;-0.4616;-0.0270;-0.0912;
913681118940421;-0.3264;0.0465;-0.0720;
913681129047192;-0.1891;0.0965;-0.0529;
913681139131931;-0.0772;0.0678;-0.0454;
913681149238650;0.0037;0.0635;-0.0348;
913681159345421;0.1145;0.1253;-0.0177;
913681169477244;0.1656;0.0965;0.0184;
913681179583963;0.2157;0.0518;0.0397;
913681189690734;0.2732;0.0603;0.0216;
913681199787921;0.2871;0.0198;0.0482;
913681209894640;0.2860;-0.0356;0.0759;
913681220001411;0.2786;-0.0324;0.1004;
913681230103754;0.2967;-0.0121;0.1015;
913681240210473;0.2700;-0.0068;0.1100;
913681250317244;0.2264;0.0166;0.0759;
913681260419952;0.1944;0.0869;0.0567;
913681270526671;0.0613;0.0944;0.0716;
913681280633442;-0.0218;0.0443;0.0940;
913681290751619;-0.0378;0.0337;0.0738;
913681300858338;-0.0708;0.0475;0.0620;
913681310965109;-0.1113;0.0348;0.0312;
913681321061931;-0.1017;0.0039;0.0258;
913681331168650;-0.1092;0.0124;0.0525;
913681341275421;-0.0911;0.0124;0.0525;
913681351445213;-0.0506;0.0049;0.0535;
913681361552036;-0.0549;0.0443;0.0344;
913681371658911;-0.0463;0.0177;0.0280;
913681381705994;-0.0261;-0.0473;0.0471;
913681391812817;-0.0261;-0.0377;0.0386;
913681401919692;-0.0091;-0.0206;0.0407;
913681412038702;0.0069;-0.0185;0.0439;
913681422145525;-0.0091;0.0049;0.0439;
913681432252400;-0.0133;0.0113;0.0482;
913681442372348;-0.0325;0.0103;0.0610;
913681452479171;-0.0581;0.0220;0.0599;
913681462586046;-0.0495;0.0284;0.0557;
913681472678598;-0.0975;0.0390;0.0386;
913681482785421;-0.1060;0.0518;0.0269;
913681492892296;-0.1965;0.0369;0.0269;
913681503023286;-0.2349;-0.0089;0.0471;
913681513130109;-0.2720;-0.0622;0.0482;
913681523236984;-0.3178;-0.0824;0.0089;
913681533304848;-0.2614;-0.0601;-0.0188;
913681543411671;-0.2869;-0.0675;-0.0369;
913681553518546;-0.2561;-0.0632;-0.0316;
913681563657661;-0.2507;-0.0121;-0.0433;
913681573764484;-0.2083;-0.0100;-0.0433;
913681583871359;-0.1401;-0.0036;-0.0198;
913681593951254;-0.1284;0.0241;-0.0348;
913681604058077;-0.0655;0.0507;-0.0273;
913681614164952;-0.0549;0.0465;-0.0252;
913681624283702;-0.0676;-0.0036;-0.0177;
913681634390525;-0.0431;-0.0132;-0.0230;
913681644497400;-0.0282;0.0039;-0.0134;
913681654603754;0.0250;0.0241;0.0142;
913681664710577;0.0080;0.0124;0.0100;
913681674817452;0.0644;0.0252;-0.0060;
913681684912140;0.0346;0.0166;0.0205;
913681695018963;0.0176;0.0113;0.0184;
913681705125838;-0.0101;0.0113;0.0173;
913681715255890;-0.0240;0.0369;-0.0262;
913681725362713;-0.0602;0.0603;-0.0390;
913681735469588;-0.0889;0.0230;-0.0103;
913681745557661;-0.1017;0.0103;0.0194;
913681755664484;-0.1486;0.0262;0.0004;
913681765771359;-0.1326;0.0177;-0.0529;
913681775873702;-0.1305;-0.0174;-0.0678;
913681785980525;-0.1507;0.0103;-0.0731;
913681796087400;-0.1401;0.0369;-0.0422;
913681806213911;-0.1390;0.0688;-0.0635;
913681816320734;-0.0943;0.0731;-0.0699;
913681826427609;-0.0613;0.1029;-0.0848;
913681836522869;-0.0602;0.1093;-0.0656;
913681846629692;-0.0431;0.0923;-0.0646;
913681856736567;-0.0570;0.0806;-0.0379;
913681866844015;-0.0261;0.0859;-0.0379;
913681876950838;-0.0186;0.0806;-0.0422;
913681887057713;-0.0208;0.0667;-0.0401;
913681897177244;-0.0304;0.0198;-0.0379;
913681907284067;-0.0261;0.0145;-0.0134;
913681917390942;-0.0506;0.0252;-0.0230;
913681927486671;-0.0293;0.0262;-0.0252;
913681937593494;-0.0495;0.0049;-0.0422;
913681947700369;-0.0549;-0.0004;-0.0273;
913681957808598;-0.0708;0.0188;-0.0390;
913681967915421;-0.0708;0.0262;-0.0348;
913681978022296;-0.0666;0.0635;-0.0710;
913681988129848;-0.0602;0.1051;-0.0624;
913681998236671;-0.0676;0.0539;-0.0433;
913682008343546;-0.0719;0.0262;-0.0188;
913682018443702;-0.0676;0.0582;-0.0465;
913682028550525;-0.0783;0.0379;-0.0529;
913682038657400;-0.0889;-0.0015;-0.0603;
913682048779848;-0.0666;-0.0164;-0.0731;
913682058886671;-0.0517;-0.0260;-0.0593;
913682068993546;-0.0506;-0.0260;-0.0465;
913682079108598;-0.0282;-0.0164;-0.0614;
913682089215421;-0.0304;-0.0100;-0.0731;
913682099322296;-0.0080;-0.0121;-0.0742;
913682109404119;0.0261;-0.0164;-0.0742;
913682119510942;0.0005;-0.0292;-0.0571;
913682129617817;0.0708;-0.0387;-0.0550;
913682139734015;0.0570;-0.0185;-0.0518;
913682149840838;0.0911;0.0284;-0.0688;
913682159947713;0.1071;0.0241;-0.0529;
913682170048494;0.1326;-0.0153;-0.0348;
913682180155317;0.1166;-0.0281;-0.0316;
913682190262192;0.1624;-0.0068;-0.0401;
913682200359431;0.1134;0.0007;-0.0337;
913682210466254;0.1667;-0.0185;-0.0241;
913682220573129;0.1443;-0.0419;-0.0230;
913682230679431;0.1646;-0.0132;-0.0422;
913682240786254;0.1582;-0.0132;-0.0497;
913682250893129;0.2019;-0.0111;-0.0454;
913682261011098;0.1859;-0.0036;-0.0411;
913682271117921;0.2242;0.0209;-0.0326;
913682281224796;0.2434;0.0134;-0.0252;
913682291293650;0.2668;-0.0047;-0.0134;
913682301400473;0.2796;0.0007;-0.0103;
913682311507348;0.2583;-0.0196;-0.0124;
913682321635369;0.2796;-0.0313;-0.0198;
913682331742192;0.2423;-0.0100;0.0025;
913682341849067;0.2796;0.0284;-0.0198;
913682351974431;0.2541;0.0039;-0.0177;
913682362081150;0.2743;0.0198;-0.0273;
913682372187921;0.2573;0.0134;0.0089;
913682382282504;0.2754;0.0369;0.0216;
913682392389223;0.2562;0.0230;0.0269;
913682402495994;0.2466;-0.0174;0.0280;
913682412623702;0.2818;0.0348;0.0322;
913682422730421;0.2860;0.0369;0.0770;
913682432837192;0.2498;0.0081;0.0642;
913682442940890;0.2594;0.0017;0.0823;
913682453047609;0.2061;0.0518;0.0866;
913682463154379;0.2019;0.0720;0.1185;
913682473264952;0.1784;0.0348;0.1121;
913682483371671;0.0858;-0.0015;0.1164;
913682493478442;0.0676;-0.0324;0.1036;
913682503567452;0.0687;-0.0579;0.0972;
913682513674171;0.0346;-0.0558;0.1270;
913682523780942;0.0091;-0.0025;0.1174;
913682533881098;0.0527;-0.0015;0.1164;
913682543987817;0.0240;-0.0111;0.0738;
913682554094588;-0.0112;0.0092;0.0674;
913682564206931;-0.0080;0.0060;0.0546;
913682574313650;-0.0325;0.0443;0.0407;
913682584420421;0.0005;0.0454;0.0620;
913682594538077;-0.0495;0.0252;0.0684;
913682604644796;-0.0091;0.0294;0.0791;
913682614751567;-0.0123;-0.0004;0.0418;
913682624855369;0.0463;-0.0419;0.0567;
913682634962088;0.0399;-0.0356;0.0642;
913682645068859;0.0666;0.0017;0.0578;
913682655172973;0.0623;-0.0419;0.0599;
913682665279692;0.0708;-0.0515;0.0471;
913682675386463;0.0762;-0.0121;0.0578;
913682685475056;0.0687;-0.0196;0.0322;
913682695581775;0.0762;-0.0324;0.0471;
913682705688546;0.0634;-0.0409;0.0312;
913682715823806;0.0698;-0.0441;0.0184;
913682725930525;0.0602;-0.0526;0.0397;
913682736037296;0.0858;-0.0142;0.0365;
913682746140161;0.0975;0.0379;0.0493;
913682756246879;0.0804;-0.0068;0.0322;
913682766353650;0.0932;-0.0505;0.0205;
913682776449640;0.1177;-0.0238;0.0397;
913682786556359;0.0847;0.0198;0.0407;
913682796663129;0.0794;0.0273;0.0589;
913682806797973;0.0570;-0.0111;0.0525;
913682816904692;0.0730;-0.0238;0.0706;
913682827011463;0.0527;-0.0505;0.0695;
913682837098181;0.0847;-0.0196;0.0727;
913682847204900;0.0868;0.0103;0.0897;
913682857311671;0.0687;-0.0153;0.0993;
913682867413494;0.0847;0.0443;0.1057;
913682877520213;0.0602;0.0635;0.0951;
913682887626984;0.0538;0.0497;0.0887;
913682897740994;0.0527;0.0539;0.0823;
913682907847713;0.0229;0.0411;0.0823;
913682917954484;0.0197;0.0593;0.0993;
913682928059015;-0.0346;0.0220;0.1100;
913682938165734;-0.0751;-0.0174;0.1111;
913682948272504;-0.0858;-0.0121;0.0876;
913682958377765;-0.1348;-0.0356;0.0780;
913682968484484;-0.1188;-0.0238;0.0652;
913682978591254;-0.1103;-0.0153;0.0695;
913682988695161;-0.1465;-0.0238;0.0674;
913682998801879;-0.1390;0.0007;0.0237;
913683008908650;-0.1944;-0.0217;0.0015;
913683019017973;-0.1944;-0.0249;0.0057;
913683029124692;-0.1774;0.0028;-0.0156;
913683039231463;-0.1710;-0.0068;-0.0188;
913683049343598;-0.1529;-0.0196;-0.0379;
913683059450317;-0.1486;-0.0345;-0.0497;
913683069557088;-0.1049;-0.0419;-0.0443;
913683079665161;-0.0687;-0.0462;-0.0507;
913683089771879;-0.0346;-0.0441;-0.0433;
913683099878650;0.0346;-0.0228;-0.0518;
913683109973286;0.0389;-0.0590;-0.0475;
913683120080004;0.0463;-0.0846;-0.0465;
913683130186775;0.0623;-0.1059;-0.0593;
913683140316098;0.1188;-0.1581;-0.0028;
913683150422817;0.1774;-0.1410;0.0121;
913683160529588;0.2391;0.0411;0.0226;
913683170620369;0.2807;0.2616;-0.0060;
913683180727088;0.3169;0.3680;-0.0561;
913683190833859;0.3052;0.3531;-0.0209;
913683200998702;0.1582;0.2915;0.0184;
913683211105421;0.0549;0.2457;0.0290;
913683221212192;0.0176;0.1850;0.0280;
913683231237036;-0.0016;0.1317;0.0205;
913683241343754;-0.0495;0.0454;0.0461;
913683251450525;-0.0847;-0.0228;0.0546;
913683261615786;-0.1379;-0.0217;0.0578;
913683271722504;-0.1103;0.0017;0.0855;
913683281829275;-0.0943;0.0071;0.1004;
913683291898911;-0.0591;0.0113;0.1217;
913683302005629;-0.0229;0.0092;0.1345;
913683312112400;-0.0027;0.0337;0.1356;
913683322244848;0.0154;0.0646;0.1750;
913683332351567;-0.0005;0.0859;0.1867;
913683342458338;-0.0218;0.1104;0.1814;
913683352537244;-0.0527;0.1391;0.1867;
913683362643963;-0.0889;0.1509;0.1877;
913683372750681;-0.1571;0.0997;0.2293;
913683382860317;-0.2614;0.0667;0.2250;
913683392967036;-0.3594;0.0550;0.2069;
913683403073754;-0.4659;0.0305;0.1973;
913683413196098;-0.5905;0.0230;0.1803;
913683423302817;-0.6310;0.0465;0.1856;
913683433409536;-0.6768;0.0603;0.1707;
913683443504015;-0.6821;0.1019;0.1579;
913683453610734;-0.7035;0.1551;0.1409;
913683463717452;-0.7162;0.1679;0.1111;
913683473829327;-0.7184;0.1306;0.1015;
913683483936046;-0.7951;0.1391;0.1047;
913683494042765;-0.7812;0.1732;0.1057;
913683504151619;-0.7940;0.1775;0.0716;
913683514258338;-0.7237;0.1455;0.0578;
913683524365056;-0.7525;0.1828;0.0333;
913683534476827;-0.6896;0.2659;0.0397;
913683544583546;-0.6491;0.1924;0.0004;
913683554690265;-0.6342;-0.0377;-0.0316;
913683564771306;-0.6917;-0.2730;-0.0816;
913683574878025;-0.8196;-0.3071;-0.1349;
913683584984744;-0.7738;-0.2028;-0.1924;
913683595107765;-0.6651;-0.0973;-0.2254;
913683605214484;-0.4872;-0.0387;-0.2308;
913683615321202;-0.3487;0.0113;-0.1945;
913683625431515;-0.2040;0.0422;-0.1434;
913683635538234;-0.1720;0.0092;-0.1168;
913683645644952;-0.0676;0.0071;-0.1328;
913683655754119;-0.0368;0.0124;-0.1200;
913683665860838;-0.0059;0.0241;-0.0976;
913683675967556;0.0357;0.0198;-0.0838;
913683686066411;0.0112;0.0134;-0.0603;
913683696173129;0.0538;-0.0260;-0.0752;
913683706279848;0.0368;-0.0632;-0.0742;
913683716401306;0.0495;-0.0664;-0.0859;
913683726508025;0.0368;-0.0750;-0.0731;
913683736614744;0.0730;-0.0601;-0.0624;
913683746709119;0.1241;-0.0728;-0.0784;
913683756815838;0.0975;-0.0547;-0.0731;
913683766922556;0.0719;-0.0196;-0.0816;
913683777077661;-0.0176;0.0145;-0.0720;
913683787184379;-0.0123;0.0177;-0.0720;
913683797291098;0.0059;-0.0164;-0.0987;
913683807346931;0.0048;-0.0377;-0.1115;
913683817453650;0.0123;-0.0409;-0.1029;
913683827560369;-0.0517;-0.0760;-0.0784;
913683837664848;-0.0282;-0.0877;-0.0859;
913683847771567;-0.0708;-0.0931;-0.0784;
913683857878286;-0.0815;-0.1016;-0.0784;
913683867985994;-0.1071;-0.0728;-0.0816;
913683878092713;-0.0794;-0.0132;-0.0710;
913683888199431;-0.0708;0.0145;-0.0710;
913683898325056;-0.0293;0.0060;-0.0454;
913683908431775;-0.0208;0.0007;-0.0379;
913683918538494;-0.0687;0.0198;-0.0411;
913683928636411;-0.1145;0.0379;-0.0603;
913683938743129;-0.1593;0.0177;-0.0486;
913683948849848;-0.1720;-0.0462;-0.0369;
913683958956098;-0.1667;-0.0739;-0.0134;
913683969062817;-0.1912;-0.0803;-0.0284;
913683979169536;-0.2391;-0.0995;-0.0401;
913683989275577;-0.2349;-0.0995;-0.0337;
913683999382296;-0.3232;-0.0899;-0.0294;
913684009489015;-0.3274;-0.0590;-0.0411;
913684019592765;-0.3945;-0.0494;-0.0475;
913684029699484;-0.3871;-0.0846;-0.0379;
913684039806202;-0.4180;-0.0760;-0.0369;
913684049913181;-0.4457;-0.0451;-0.0337;
913684060019900;-0.4584;-0.0377;-0.0529;
913684070126619;-0.4094;-0.0345;-0.0401;
913684080242348;-0.4073;-0.0174;-0.0358;
913684090349067;-0.3743;-0.0111;-0.0401;
913684100455786;-0.3732;-0.0100;-0.0656;
913684110551202;-0.3296;-0.0089;-0.0507;
913684120657921;-0.3040;-0.0100;-0.0379;
913684130764640;-0.2806;-0.0164;-0.0145;
913684140907348;-0.2731;-0.0153;-0.0166;
913684151014067;-0.2507;0.0081;-0.0262;
913684161120786;-0.2328;-0.0025;-0.0326;
913684171204015;-0.2370;-0.0217;-0.0273;
913684181310734;-0.2296;0.0145;-0.0145;
913684191417452;-0.2210;0.0784;-0.0273;
913684201514536;-0.2104;0.0838;-0.0550;
913684211621254;-0.1497;0.0635;-0.0486;
913684221727973;-0.1838;0.0284;-0.0379;
913684231846827;-0.1731;-0.0004;-0.0220;
913684241953546;-0.1944;-0.0419;-0.0316;
913684252060265;-0.1678;-0.0696;-0.0614;
913684262156931;-0.1433;-0.0579;-0.0635;
913684272263650;-0.1166;-0.0238;-0.0593;
913684282370369;-0.1294;0.0166;-0.0582;
913684292478390;-0.0804;0.0401;-0.0561;
913684302585109;-0.0751;0.0326;-0.0678;
913684312691827;-0.0570;0.0358;-0.0582;
913684322810786;-0.0634;0.0539;-0.0358;
913684332917504;-0.0847;0.0688;-0.0433;
913684343024223;-0.0762;0.0965;-0.0539;
913684353137661;-0.1348;0.1061;-0.0539;
913684363244431;-0.1422;0.0614;-0.0529;
913684373351254;-0.2114;0.0188;-0.0465;
913684383429119;-0.2093;-0.0206;-0.0699;
913684393535890;-0.1912;-0.0324;-0.0699;
913684403642713;-0.2168;-0.0696;-0.0699;
913684413753702;-0.1784;-0.1080;-0.0529;
913684423860473;-0.1869;-0.1091;-0.0795;
913684433967296;-0.1784;-0.1059;-0.1168;
913684444086827;-0.1880;-0.0718;-0.1178;
913684454193598;-0.1720;-0.0185;-0.1285;
913684464300421;-0.1571;0.0230;-0.1509;
913684474388806;-0.1720;0.0411;-0.1317;
913684484495577;-0.1454;0.0624;-0.1221;
913684494602400;-0.1593;0.0816;-0.1370;
913684504711931;-0.1156;0.0752;-0.1626;
913684514818702;-0.1337;0.0646;-0.1562;
913684524925525;-0.1518;0.0976;-0.1306;
913684535040994;-0.1667;0.1296;-0.1413;
913684545147765;-0.1806;0.0763;-0.1583;
913684555254588;-0.1795;-0.0409;-0.1242;
913684565374952;-0.1976;-0.0313;-0.1200;
913684575481723;-0.1827;0.2382;-0.1700;
913684585588546;-0.1369;0.4437;-0.2276;
913684595676931;-0.0953;0.1285;-0.1636;
913684605783702;-0.0197;-0.2911;-0.1125;
913684615890525;-0.0858;-0.2039;-0.1115;
913684626006671;-0.1784;0.1796;-0.1573;
913684636113442;-0.1039;0.3702;-0.1935;
913684646220265;0.0048;0.3181;-0.1530;
913684656330161;0.0240;0.1935;-0.1200;
913684666436931;0.0549;0.1328;-0.1189;
913684676543754;0.0613;0.1626;-0.1029;
913684686678181;0.1316;0.2137;-0.0869;
913684696784952;0.2317;0.2787;-0.0923;
913684706891775;0.2647;0.3075;-0.0816;
913684716969223;0.2083;0.2893;-0.0561;
913684727075994;0.1891;0.2414;-0.0230;
913684737182817;0.1752;0.1754;-0.0198;
913684747291723;0.1294;0.0752;-0.0198;
913684757398494;0.1369;0.0390;-0.0060;
913684767505317;0.0762;0.0071;-0.0081;
913684777622556;0.0474;-0.0196;-0.0262;
913684787729327;0.0069;-0.0281;-0.0411;
913684797836150;-0.0112;-0.0419;-0.0422;
913684807920265;-0.0016;0.0145;-0.0156;
913684818027036;0.0570;0.0688;-0.0113;
913684828133859;0.1198;0.0507;-0.0177;
913684838245994;0.0975;-0.1666;-0.0262;
913684848352765;0.0442;-0.2422;-0.0305;
913684858459588;0.0836;0.1040;0.0047;
913684868574327;0.1422;0.3563;0.0258;
913684878681098;0.2487;0.1200;0.0089;
913684888787921;0.2913;-0.2571;0.0269;
913684898887921;0.0442;-0.2390;0.0503;
913684908994692;-0.0921;-0.0579;0.0280;
913684919101515;0.0644;-0.0579;-0.0220;
913684929207244;0.0740;-0.0579;-0.0411;
913684939314015;-0.0357;0.0092;-0.0326;
913684949420838;-0.0016;-0.0409;0.0057;
913684959530421;0.0154;-0.1122;0.0184;
913684969637192;-0.0154;-0.1250;-0.0028;
913684979744015;-0.0016;-0.1048;-0.0156;
913684989849848;-0.0261;-0.0931;-0.0262;
913684999956619;-0.0357;-0.0654;-0.0049;
913685010063442;-0.0059;-0.0483;-0.0081;
913685020162244;-0.0208;-0.0451;-0.0230;
913685030269015;-0.0091;-0.0345;-0.0188;
913685040375838;0.0037;-0.0238;-0.0220;
913685050483181;-0.0005;0.0103;-0.0198;
913685060589952;0.0261;0.0092;-0.0145;
913685070696775;0.0123;0.0081;-0.0209;
913685080820786;-0.0016;-0.0132;-0.0081;
913685090927556;0.0123;-0.0217;0.0152;
913685101034379;-0.0123;-0.0547;0.0132;
913685111128181;-0.0091;-0.0995;-0.0049;
913685121234952;0.0133;-0.0814;-0.0017;
913685131341775;0.0101;-0.0451;0.0142;
913685141448650;0.0059;-0.0451;0.0162;
913685151555421;0.0346;-0.0601;-0.0166;
913685161662244;0.0101;-0.0611;-0.0060;
913685171759223;0.0197;-0.0473;0.0461;
913685181865994;0.0282;-0.0931;0.0397;
913685191972817;-0.0037;-0.0824;0.0248;
913685202110786;0.0272;-0.0409;0.0152;
913685212217556;-0.0069;-0.0430;0.0047;
913685222324379;0.0154;-0.0313;0.0429;
913685232424223;-0.0016;-0.0473;0.0791;
913685242530994;0.0229;-0.0302;0.0610;
913685252637817;-0.0005;-0.0047;0.0567;
913685262741098;0.0101;-0.0132;0.0450;
913685272847869;-0.0027;-0.0249;0.0567;
913685282954692;-0.0346;-0.0238;0.0503;
913685293055577;-0.0037;-0.0057;0.0716;
913685303162348;-0.0069;0.0028;0.0844;
913685313269171;-0.0410;-0.0121;0.0844;
913685323388702;-0.0431;-0.0356;0.0887;
913685333495473;-0.0740;-0.0601;0.0727;
913685343602296;-0.1017;-0.0334;0.0663;
913685353697556;-0.1273;-0.0057;0.0578;
913685363804327;-0.1060;-0.0111;0.0290;
913685373911098;-0.1433;-0.0142;0.0535;
913685384018754;-0.1624;-0.0270;0.0642;
913685394125525;-0.1550;-0.0451;0.0471;
913685404232296;-0.1806;-0.0515;0.0322;
913685414345369;-0.1688;-0.0217;0.0162;
913685424452140;-0.1624;-0.0132;0.0290;
913685434558911;-0.1795;-0.0334;0.0226;
913685444646723;-0.1859;-0.0505;0.0194;
913685454753494;-0.1529;-0.0473;0.0057;
913685464860265;-0.1379;-0.0398;0.0004;
913685474985473;-0.1071;-0.0132;0.0100;
913685485092244;-0.0719;-0.0206;0.0173;
913685495199015;-0.0730;-0.0451;0.0152;
913685505291254;-0.0602;-0.0079;0.0248;
913685515398025;-0.0517;-0.0047;0.0354;
913685525504796;-0.0336;-0.0313;0.0301;
913685535619119;-0.0591;-0.0579;0.0365;
913685545725890;-0.0581;-0.0281;0.0439;
913685555832661;-0.0474;-0.0047;0.0280;
913685565960994;-0.0261;0.0028;0.0152;
913685576067765;-0.0623;-0.0473;0.0333;
913685586174536;-0.0687;-0.1602;0.0802;
913685596258806;-0.0687;-0.1687;0.0961;
913685606365577;-0.0985;0.0198;0.0589;
913685616472348;-0.1060;0.1391;0.0503;
913685626580056;-0.0453;0.0774;0.0567;
913685636686827;-0.0858;0.0028;0.0887;
913685646793598;-0.1209;0.0241;0.0706;
913685656910056;-0.1379;0.0688;0.0759;
913685667016827;-0.1156;0.0624;0.0674;
913685677123598;-0.1348;0.0348;0.0855;
913685687229119;-0.2274;0.0358;0.0770;
913685697335890;-0.2359;0.0294;0.0674;
913685707442661;-0.2646;0.0145;0.0770;
913685717545786;-0.3317;0.0049;0.0876;
913685727652556;-0.3381;-0.0206;0.0780;
913685737759327;-0.3253;-0.0025;0.0578;
913685747849848;-0.3306;0.0454;0.0344;
913685757956619;-0.2955;0.0593;-0.0145;
913685768063390;-0.2423;0.0411;-0.0166;
913685778208494;-0.2434;0.0124;0.0132;
913685788315265;-0.2434;0.0177;0.0237;
913685798422036;-0.2370;0.0838;0.0089;
913685808501931;-0.1624;0.2105;-0.0177;
913685818608702;-0.1710;0.1903;-0.0166;
913685828715473;-0.2051;0.0454;-0.0209;
913685838822348;-0.2443;0.0060;-0.0209;
913685848929119;-0.2402;-0.0068;-0.0422;
913685859035890;-0.2114;-0.0473;-0.0582;
913685869148286;-0.2083;-0.0728;-0.0720;
913685879255056;-0.2285;-0.0313;-0.0742;
913685889361827;-0.1624;0.0369;-0.0774;
913685899468181;-0.1188;0.0507;-0.0603;
913685909574952;-0.1273;0.0262;-0.0614;
913685919681723;-0.1433;0.0060;-0.0710;
913685929802348;-0.1124;0.0071;-0.0518;
913685939909119;-0.1017;0.0262;-0.0678;
913685950015890;-0.0975;0.0326;-0.1104;
913685960102921;-0.1390;0.0273;-0.1221;
913685970209692;-0.1571;0.0220;-0.0859;
913685980316463;-0.1369;0.0316;-0.0646;
913685990425890;-0.1230;0.0529;-0.0731;
913686000532661;-0.1422;0.0337;-0.0955;
913686010639431;-0.1720;-0.0174;-0.1136;
913686020737088;-0.1955;-0.0590;-0.0912;
913686030843859;-0.1784;-0.0601;-0.0784;
913686040950629;-0.1795;-0.0292;-0.0976;
913686051068859;-0.1806;-0.0281;-0.1306;
913686061175629;-0.1784;-0.0057;-0.1296;
913686071282400;-0.1465;0.0007;-0.1040;
913686081431306;-0.1390;0.0209;-0.0720;
913686091538077;-0.1614;-0.0142;-0.0827;
913686101644848;-0.1454;-0.0590;-0.0880;
913686111704952;-0.1635;-0.0537;-0.0806;
913686121811723;-0.1358;-0.0334;-0.1104;
913686131918494;-0.1433;-0.0015;-0.1466;
913686142058494;-0.1539;-0.0015;-0.1157;
913686152165265;-0.1486;-0.0558;-0.0880;
913686162272036;-0.1443;-0.0888;-0.0955;
913686172335577;-0.1539;-0.1144;-0.1083;
913686182442348;-0.1742;-0.1208;-0.1093;
913686192549119;-0.1720;-0.1112;-0.1093;
913686202682973;-0.1603;-0.1069;-0.1040;
913686212789744;-0.1550;-0.0984;-0.1210;
913686222896515;-0.1486;-0.0622;-0.1317;
913686233021567;-0.1710;-0.0558;-0.1455;
913686243128338;-0.1635;-0.0547;-0.1413;
913686253235109;-0.1422;-0.0462;-0.1296;
913686263311098;-0.1092;-0.0366;-0.1189;
913686273417869;-0.1188;-0.0334;-0.1264;
913686283524640;-0.0985;-0.0611;-0.1317;
913686293635681;-0.1007;-0.0718;-0.1200;
913686303742452;-0.0975;-0.0579;-0.1498;
913686313849223;-0.0602;-0.0643;-0.1679;
913686323950681;-0.1039;-0.0601;-0.1509;
913686334057452;-0.0826;-0.0632;-0.1338;
913686344164223;-0.0826;-0.0814;-0.1477;
913686354274223;-0.0314;-0.0643;-0.1562;
913686364380994;-0.0613;-0.0292;-0.1541;
913686374487765;-0.0943;-0.0377;-0.1434;
913686384606827;-0.0889;-0.0537;-0.1413;
913686394713598;-0.0751;-0.0313;-0.1477;
913686404820369;-0.0858;0.0166;-0.1573;
913686414914119;-0.0517;0.0326;-0.1796;
913686425020890;-0.0506;-0.0036;-0.1828;
913686435127661;-0.0591;-0.0377;-0.1786;
913686445219171;-0.0527;-0.0643;-0.1391;
913686455325942;-0.0410;-0.1154;-0.1370;
913686465432713;-0.0112;-0.1272;-0.1690;
913686475559223;0.0069;-0.1005;-0.1828;
913686485665994;-0.0176;-0.0675;-0.2009;
913686495772765;0.0123;-0.0292;-0.2084;
913686505875161;0.0613;-0.0174;-0.1892;
913686515981931;0.1060;-0.0494;-0.1658;
913686526088702;0.1539;-0.0601;-0.1732;
913686536209431;0.1550;-0.0270;-0.1743;
913686546316202;0.1497;-0.0079;-0.1732;
913686556422973;0.1784;-0.0206;-0.1626;
913686566533650;0.1912;-0.0313;-0.1541;
913686576640421;0.1880;-0.0558;-0.1210;
913686586747192;0.1795;-0.0622;-0.1306;
913686596832140;0.1859;-0.0739;-0.1136;
913686606938911;0.1784;-0.0846;-0.1040;
913686617045681;0.2104;-0.0814;-0.0795;
913686627155161;0.2189;-0.0792;-0.0923;
913686637261931;0.2509;-0.0750;-0.0880;
913686647368702;0.2274;-0.0387;-0.0795;
913686657480161;0.2498;-0.0334;-0.1072;
913686667586931;0.2519;-0.0132;-0.0816;
913686677693702;0.1933;-0.0238;-0.0486;
913686687803286;0.1827;-0.0686;-0.0507;
913686697910056;0.1795;-0.0707;-0.0603;
913686708016827;0.1284;-0.0558;-0.0720;
913686718114119;0.0794;-0.0792;-0.0763;
913686728220890;0.0431;-0.1218;-0.0656;
913686738327661;0.0165;-0.1059;-0.0891;
913686748439223;0.0453;-0.0430;-0.0795;
913686758545994;0.0485;-0.0121;-0.1136;
913686768652765;0.0676;-0.0473;-0.0976;
913686778752765;0.0889;-0.0345;-0.0752;
913686788859536;0.0666;-0.0430;-0.0582;
913686798966306;0.0996;-0.1080;-0.0784;
913686809073077;0.1103;-0.1218;-0.0710;
913686819179848;0.1156;-0.0877;-0.0955;
913686829286619;0.1443;-0.0590;-0.1040;
913686839406202;0.1731;-0.0505;-0.0688;
913686849512973;0.1784;-0.0686;-0.0571;
913686859619744;0.1710;-0.0643;-0.0688;
913686869718181;0.1603;-0.0164;-0.0816;
913686879824952;0.1635;-0.0238;-0.0848;
913686889931723;0.1518;-0.0419;-0.0742;
913686900044536;0.1316;-0.0515;-0.0614;
913686910151306;0.1348;-0.0569;-0.0433;
913686920258077;0.1252;-0.0398;-0.0507;
913686930358286;0.1220;-0.0419;-0.0688;
913686940465056;0.1518;-0.0228;-0.0465;
913686950571827;0.1635;-0.0089;-0.0198;
913686960682661;0.1806;-0.0473;-0.0188;
913686970789431;0.1784;-0.0611;-0.0166;
913686980896202;0.1571;-0.0036;-0.0497;
913686990997973;0.1752;0.0465;-0.0550;
913687001104744;0.1742;0.0198;-0.0379;
913687011211515;0.1433;-0.0047;-0.0316;
913687021326411;0.1145;0.0049;-0.0358;
913687031433181;0.1092;0.0198;-0.0273;
913687041539952;0.1017;-0.0324;-0.0145;
913687051647661;0.0517;-0.0728;-0.0507;
913687061754431;0.0527;-0.0185;-0.0486;
913687071861202;0.0549;0.0188;-0.0230;
913687081993077;0.0634;0.0071;-0.0241;
913687092099848;0.1049;-0.0132;-0.0348;
913687102206619;0.0911;-0.0164;-0.0241;
913687112315161;0.0858;-0.0196;-0.0316;
913687122421931;0.0900;-0.0164;-0.0337;
913687132528702;0.0964;0.0156;-0.0539;
913687142630681;0.1028;0.0475;-0.0784;
913687152737452;0.1220;0.0529;-0.0582;
913687162844223;0.1103;0.0358;-0.0667;
913687172929119;0.1156;0.0305;-0.0465;
913687183035890;0.1017;0.0518;-0.0497;
913687193142661;0.0996;0.0550;-0.0774;
913687203235056;0.1028;0.0198;-0.0763;
913687213341827;0.1049;-0.0142;-0.0571;
913687223448598;0.0975;-0.0121;-0.0550;
913687233563077;0.1273;0.0007;-0.0582;
913687243669848;0.1582;0.0241;-0.0593;
913687253776619;0.1806;0.0273;-0.0348;
913687263883911;0.1869;0.0230;-0.0390;
913687273990681;0.2146;0.0422;-0.0348;
913687284097452;0.2253;0.0678;-0.0784;
913687294208494;0.2072;0.1104;-0.0859;
913687304315265;0.1987;0.0678;-0.0571;
913687314422036;0.1944;0.0454;-0.0369;
913687324559119;0.1571;0.0433;-0.0497;
913687334665890;0.1422;0.0497;-0.0550;
913687344772661;0.1262;0.0358;-0.0443;
913687354850786;0.1230;0.0060;-0.0454;
913687364957556;0.1177;-0.0025;-0.0433;
913687375064379;0.1220;0.0348;-0.0465;
913687385154744;0.1624;0.0646;-0.0390;
913687395261515;0.1763;0.0401;-0.0273;
913687405368338;0.2040;0.0156;0.0142;
913687415488702;0.1827;0.0017;0.0025;
913687425595473;0.1646;0.0305;-0.0220;
913687435702296;0.1656;0.0348;-0.0582;
913687445802765;0.1667;-0.0025;-0.0188;
913687455909536;0.1518;-0.0451;0.0111;
