Sensor: bmi160 Accelerometer Non-wakeup
Vendor: BOSCH
TimestampAcc [ns]; AccX [m/s^2]; AccY [m/s^2]; AccZ [m/s^2]
2502208970691686;-9.3449;1.8027;-1.9134;
2502208980778769;-9.4214;1.8413;-1.8057;
2502208990890540;-9.4789;1.8796;-1.6690;
2502209001000280;-9.4310;1.9729;-1.6211;
2502209011112050;-9.3975;2.1790;-1.6786;
2502209021241738;-9.3784;2.2866;-1.6810;
2502209031334498;-9.3664;2.3130;-1.6475;
2502209041445019;-9.3951;2.3970;-1.5565;
2502209051549186;-9.3855;2.4640;-1.4653;
2502209061659290;-9.3855;2.5430;-1.4127;
2502209071772519;-9.3975;2.6151;-1.4127;
2502209081870696;-9.3544;2.6486;-1.4151;
2502209091973821;-9.3664;2.6844;-1.4438;
2502209102078300;-9.3688;2.6892;-1.3983;
2502209112186530;-9.3544;2.6940;-1.3624;
2502209122279915;-9.3903;2.6892;-1.3624;
2502209132398717;-9.3975;2.6773;-1.3504;
2502209142510384;-9.3879;2.7084;-1.3672;
2502209152618300;-9.3568;2.7203;-1.3911;
2502209162729394;-9.3760;2.7299;-1.3768;
2502209172818925;-9.3616;2.7299;-1.2930;
2502209182930175;-9.3975;2.7132;-1.2425;
2502209193040800;-9.3808;2.7132;-1.2763;
2502209203150540;-9.3592;2.7275;-1.3457;
2502209213249186;-9.3712;2.6797;-1.3887;
2502209223344446;-9.3449;2.6076;-1.4174;
2502209233459030;-9.3760;2.5454;-1.3983;
2502209243543509;-9.4143;2.5095;-1.3863;
2502209253676998;-9.4047;2.4879;-1.3720;
2502209263776009;-9.3927;2.5023;-1.4079;
2502209273878717;-9.4071;2.5167;-1.4294;
2502209284006009;-9.3951;2.5478;-1.4270;
2502209294094967;-9.3688;2.5430;-1.4151;
2502209304205175;-9.3879;2.5382;-1.4127;
2502209314307675;-9.3832;2.5669;-1.3768;
2502209324433248;-9.3855;2.6103;-1.3744;
2502209334525227;-9.3975;2.5932;-1.3839;
2502209344645488;-9.3568;2.5741;-1.3839;
2502209354740175;-9.3808;2.5884;-1.3983;
2502209364834186;-9.3975;2.5980;-1.3696;
2502209374947675;-9.3736;2.6076;-1.3792;
2502209385063405;-9.3736;2.6557;-1.3720;
2502209395161530;-9.3784;2.6749;-1.3576;
2502209405271009;-9.3592;2.7299;-1.3457;
2502209415376946;-9.3544;2.7634;-1.3457;
2502209425488665;-9.3592;2.7658;-1.3169;
2502209435589550;-9.3520;2.7873;-1.3146;
2502209445701686;-9.3497;2.8328;-1.3146;
2502209455798405;-9.3377;2.8400;-1.3146;
2502209465898717;-9.3473;2.8304;-1.3146;
2502209476006946;-9.3520;2.8352;-1.3409;
2502209486113925;-9.3497;2.8376;-1.3409;
2502209496217467;-9.3616;2.8232;-1.3169;
2502209506320592;-9.3425;2.7538;-1.3265;
2502209516437050;-9.3544;2.7347;-1.3504;
2502209526548352;-9.3616;2.7060;-1.3816;
2502209536692988;-9.3712;2.6653;-1.4174;
2502209546778196;-9.3688;2.5813;-1.4797;
2502209556864811;-9.3832;2.4927;-1.5156;
2502209566960957;-9.3975;2.3659;-1.5398;
2502209577071009;-9.4119;2.2699;-1.5972;
2502209587190592;-9.4071;2.1909;-1.6379;
2502209597299811;-9.3975;2.1670;-1.6140;
2502209607392780;-9.3975;2.1957;-1.5398;
2502209617494342;-9.4238;2.2364;-1.5179;
2502209627587780;-9.4047;2.2962;-1.5398;
2502209637704134;-9.3903;2.3731;-1.5470;
2502209647842832;-9.3927;2.4185;-1.5156;
2502209657930280;-9.4095;2.4185;-1.4629;
2502209668045800;-9.4095;2.4329;-1.4294;
2502209678130280;-9.3999;2.4042;-1.4414;
2502209688260488;-9.3927;2.4233;-1.4390;
2502209698351686;-9.3927;2.4162;-1.4222;
2502209708476113;-9.4190;2.4353;-1.4198;
2502209718584759;-9.3975;2.4473;-1.4390;
2502209728682155;-9.3975;2.4497;-1.4198;
2502209738807259;-9.3975;2.4688;-1.4222;
2502209748894134;-9.4047;2.4879;-1.3528;
2502209759002780;-9.4047;2.4975;-1.3217;
2502209769100800;-9.4095;2.5430;-1.3241;
2502209779197050;-9.3855;2.6246;-1.3361;
2502209789313092;-9.3855;2.6677;-1.3528;
2502209799419030;-9.3855;2.6988;-1.3074;
2502209809529134;-9.3664;2.7179;-1.3050;
2502209819638196;-9.3784;2.7347;-1.2954;
2502209829743717;-9.3808;2.7514;-1.2906;
2502209839870592;-9.3879;2.6988;-1.2882;
2502209849957102;-9.4023;2.6533;-1.3193;
2502209860062102;-9.3832;2.6270;-1.3193;
2502209870168300;-9.3903;2.5502;-1.3433;
2502209880271842;-9.3879;2.5071;-1.3911;
2502209890386113;-9.4095;2.4520;-1.4174;
2502209900477884;-9.4214;2.3779;-1.4677;
2502209910602780;-9.4167;2.3058;-1.5060;
2502209920699446;-9.4262;2.2507;-1.5446;
2502209930798717;-9.4430;2.1909;-1.6044;
2502209940908769;-9.4334;2.1646;-1.6044;
2502209951026530;-9.4502;2.1239;-1.6140;
2502209961119030;-9.4334;2.1144;-1.6379;
2502209971236842;-9.4095;2.1215;-1.6259;
2502209981349655;-9.4190;2.1191;-1.6522;
2502209991440280;-9.4238;2.1550;-1.6642;
2502210001545071;-9.4095;2.1742;-1.6211;
2502210011663613;-9.4214;2.1861;-1.5924;
2502210021757259;-9.4023;2.2125;-1.6211;
2502210031871842;-9.3855;2.2268;-1.6570;
2502210041975175;-9.4214;2.2292;-1.6307;
2502210052081217;-9.4238;2.2077;-1.5852;
2502210062177988;-9.3975;2.2412;-1.5805;
2502210072291009;-9.3879;2.2866;-1.5733;
2502210082398248;-9.4047;2.3369;-1.5924;
2502210092519082;-9.3951;2.3755;-1.5661;
2502210102626738;-9.3927;2.4185;-1.5446;
2502210112734446;-9.3855;2.4305;-1.4486;
2502210122812311;-9.3832;2.4592;-1.4127;
2502210132919967;-9.3855;2.4808;-1.3935;
2502210143027623;-9.3927;2.5071;-1.4031;
2502210153143769;-9.3640;2.5502;-1.4462;
2502210163251425;-9.3520;2.5645;-1.4486;
2502210173359134;-9.3951;2.5454;-1.4055;
2502210183460227;-9.3903;2.5382;-1.3839;
2502210193567884;-9.4023;2.5382;-1.3504;
2502210203675592;-9.3903;2.5860;-1.3217;
2502210213778977;-9.3736;2.6342;-1.3050;
2502210223886634;-9.3544;2.7203;-1.3409;
2502210233994342;-9.3616;2.7993;-1.3624;
2502210244101165;-9.3664;2.8328;-1.3026;
2502210254208821;-9.3544;2.8759;-1.2401;
2502210264316530;-9.3425;2.9001;-1.2114;
2502210274425748;-9.3353;2.9312;-1.2042;
2502210284533405;-9.3497;2.9408;-1.2305;
2502210294641113;-9.3449;2.9360;-1.2835;
2502210304741061;-9.3353;2.9360;-1.3241;
2502210314848717;-9.3401;2.8615;-1.3241;
2502210324956373;-9.3257;2.8089;-1.3289;
2502210335067207;-9.3544;2.7802;-1.3122;
2502210345174811;-9.3640;2.7586;-1.3026;
2502210355282467;-9.3425;2.7395;-1.3528;
2502210365390175;-9.3449;2.7610;-1.3696;
2502210375495436;-9.3257;2.7610;-1.4079;
2502210385603092;-9.3377;2.7419;-1.4127;
2502210395710800;-9.3425;2.6988;-1.3911;
2502210405806269;-9.3425;2.6677;-1.3911;
2502210415913925;-9.3449;2.6653;-1.3768;
2502210426021634;-9.3760;2.6342;-1.3887;
2502210436121477;-9.3712;2.6103;-1.4031;
2502210446229134;-9.3520;2.6103;-1.3792;
2502210456336790;-9.3497;2.6174;-1.3576;
2502210466440852;-9.3808;2.6366;-1.3600;
2502210476548561;-9.3712;2.6486;-1.3672;
2502210486656217;-9.3712;2.6773;-1.3457;
2502210496793977;-9.3616;2.7108;-1.3122;
2502210506901634;-9.3592;2.7586;-1.2619;
2502210517009342;-9.3425;2.8328;-1.2643;
2502210527088769;-9.3449;2.8615;-1.2257;
2502210537196425;-9.3784;2.8905;-1.1827;
2502210547304082;-9.3568;2.9145;-1.1898;
2502210557393248;-9.3305;2.9145;-1.2066;
2502210567500905;-9.3449;2.9408;-1.1898;
2502210577608613;-9.3497;2.9408;-1.1827;
2502210587721061;-9.3544;2.9408;-1.1635;
2502210597828717;-9.3401;2.9073;-1.1779;
2502210607936425;-9.3329;2.9169;-1.1970;
2502210618040800;-9.3473;2.8953;-1.1731;
2502210628148457;-9.3425;2.8711;-1.2042;
2502210638256165;-9.3449;2.8759;-1.2042;
2502210648360540;-9.3425;2.8591;-1.2544;
2502210658468196;-9.3449;2.8615;-1.2568;
2502210668575905;-9.3425;2.8304;-1.2425;
2502210678674811;-9.3233;2.8232;-1.2449;
2502210688782467;-9.3305;2.8615;-1.2377;
2502210698890175;-9.3425;2.9216;-1.2114;
2502210708999498;-9.3568;2.9432;-1.2257;
2502210719107155;-9.3066;3.0054;-1.2257;
2502210729214863;-9.2898;3.0437;-1.2042;
2502210739313040;-9.3090;3.0508;-1.1731;
2502210749420696;-9.3305;3.0556;-1.1922;
2502210759528405;-9.3162;3.0676;-1.1850;
2502210769629394;-9.3281;3.0891;-1.1707;
2502210779737050;-9.3568;3.0939;-1.1228;
2502210789844759;-9.3090;3.0437;-1.1492;
2502210799955644;-9.3042;3.0078;-1.1300;
2502210810063300;-9.3233;2.9815;-1.1228;
2502210820171009;-9.3138;2.9432;-1.0774;
2502210830273352;-9.3138;2.9432;-1.0893;
2502210840381009;-9.3473;2.9599;-1.1324;
2502210850488665;-9.3377;2.9671;-1.1420;
2502210860589498;-9.3377;2.9958;-1.1300;
2502210870697155;-9.3329;2.9958;-1.1061;
2502210880804863;-9.3401;2.9886;-1.0869;
2502210890922155;-9.3114;2.9719;-1.0558;
2502210901029811;-9.3353;2.9767;-1.0032;
2502210911137519;-9.3473;2.9408;-0.9287;
2502210921227832;-9.3688;2.8663;-0.9000;
2502210931335488;-9.3066;2.8304;-0.9670;
2502210941443196;-9.3162;2.6318;-1.0319;
2502210951561269;-9.3568;2.2053;-1.0080;
2502210961668925;-9.3616;1.9202;-0.9885;
2502210971776634;-9.3879;2.0327;-1.3098;
2502210981860540;-9.3640;1.9059;-1.3337;
2502210991968196;-9.3808;1.9633;-1.4222;
2502211002075905;-9.4023;2.0375;-1.5350;
2502211012193769;-9.3855;1.9633;-1.4653;
2502211022301425;-9.3903;1.8604;-1.4151;
2502211032409134;-9.3832;2.0088;-1.6307;
2502211042524655;-9.3473;2.0904;-1.7575;
2502211052632311;-9.2874;2.2890;-1.9780;
2502211062740019;-9.2779;2.2962;-2.1170;
2502211072826061;-9.3401;2.2340;-2.0115;
2502211082933717;-9.3329;2.1503;-1.8990;
2502211093041425;-9.3090;2.1670;-2.0019;
2502211103156321;-9.3209;2.2172;-2.2056;
2502211113262988;-9.3257;2.2747;-2.3830;
2502211123369602;-9.3497;2.4473;-2.4954;
2502211133467259;-9.3090;2.3082;-2.3686;
2502211143573925;-9.3257;2.2866;-2.4428;
2502211153680540;-9.2898;2.3417;-2.4547;
2502211163756530;-9.3233;2.2699;-2.3204;
2502211173863196;-9.4047;2.3444;-2.3423;
2502211183969811;-9.4095;2.1479;-2.1434;
2502211194112467;-9.3712;2.3707;-2.3133;
2502211204219134;-9.2465;2.0495;-2.0883;
2502211214325748;-9.2417;2.0064;-2.2750;
2502211224424550;-9.3879;1.7644;-2.1290;
2502211234531217;-9.3927;1.6328;-2.0163;
2502211244637832;-9.4047;1.4100;-1.8081;
2502211254764342;-9.4717;1.1225;-1.7384;
2502211264871009;-9.4573;0.9380;-1.8464;
2502211274977623;-9.4478;0.8447;-2.0330;
2502211285055540;-9.2058;0.7370;-2.1817;
2502211295162207;-9.2489;1.0316;-2.8789;
2502211305268821;-9.2273;1.2589;-3.1496;
2502211315392363;-9.2513;1.2470;-2.7829;
2502211325499030;-9.3951;1.5921;-2.8717;
2502211335605644;-9.4741;2.1598;-3.0751;
2502211345721790;-9.2393;2.4999;-3.1759;
2502211355828457;-9.2632;2.8857;-3.6547;
2502211365935071;-9.3784;2.9743;-3.8943;
2502211376019134;-9.2994;3.0245;-3.8489;
2502211386125800;-9.3832;3.0054;-3.6069;
2502211396232415;-9.3760;3.2378;-3.7555;
2502211406342155;-9.2393;2.9001;-3.4609;
2502211416448821;-9.1890;2.4425;-3.1998;
2502211426555436;-9.4310;1.1417;-2.6632;
2502211436674238;-9.6682;0.0852;-2.0716;
2502211446780905;-9.6826;0.3655;-2.3228;
2502211456887519;-9.4980;0.4110;-2.2128;
2502211466965436;-9.4262;0.5166;-2.3662;
2502211477072102;-9.4693;0.3033;-2.3806;
2502211487178717;-9.4430;0.2219;-2.1314;
2502211497303613;-9.4549;0.2794;-2.1194;
2502211507410280;-9.5892;0.4205;-2.2175;
2502211517516894;-9.5438;0.4711;-2.0859;
2502211527636009;-9.5028;0.4807;-2.1793;
2502211537742675;-9.5510;0.5261;-2.3901;
2502211547849290;-9.7161;0.3105;-2.3303;
2502211557959863;-9.7519;0.1594;-2.0931;
2502211568066530;-9.6084;0.4158;-1.9277;
2502211578173144;-9.6227;0.7104;-1.6762;
2502211588254967;-9.5797;0.9404;-1.5876;
2502211598361634;-9.4789;0.9332;-1.5972;
2502211608468248;-9.5124;1.0627;-1.9014;
2502211618581946;-9.5988;1.3071;-2.1577;
2502211628688613;-9.5414;1.4626;-1.8870;
2502211638795227;-9.5267;1.5610;-1.5012;
2502211648906634;-9.6227;1.5873;-1.3600;
2502211659013300;-9.5148;1.3669;-1.2715;
2502211669119915;-9.4190;1.3071;-1.6355;
2502211679217467;-9.5390;1.2278;-2.1721;
2502211689324134;-9.5291;1.1943;-2.3228;
2502211699430748;-9.4980;1.2159;-2.2223;
2502211709536790;-9.5124;1.2302;-2.1745;
2502211719643457;-9.4789;1.2903;-2.1649;
2502211729750071;-9.4573;1.2999;-2.2654;
2502211739861530;-9.5100;1.2446;-2.5289;
2502211749968196;-9.5533;1.1632;-2.6991;
2502211760074811;-9.4454;1.1082;-2.7111;
2502211770188092;-9.3592;1.1249;-2.7517;
2502211780294759;-9.3640;1.1656;-2.7182;
2502211790401373;-9.3927;1.1967;-2.5648;
2502211800498613;-9.4382;1.1728;-2.5696;
2502211810605175;-9.4214;1.1417;-2.6560;
2502211820711790;-9.3712;1.1728;-2.7876;
2502211830818457;-9.3090;1.1895;-2.8475;
2502211840927155;-9.3329;1.2206;-2.8235;
2502211851033821;-9.3855;1.2374;-2.7422;
2502211861140436;-9.4071;1.2206;-2.6201;
2502211871246373;-9.3903;1.1776;-2.5816;
2502211881353040;-9.4023;1.1177;-2.6034;
2502211891459655;-9.3903;1.0747;-2.6584;
2502211901570123;-9.3664;1.0026;-2.6967;
2502211911676790;-9.3664;0.9715;-2.8331;
2502211921783405;-9.3784;0.9452;-2.8187;
2502211931878405;-9.3592;0.9619;-2.7015;
2502211941985071;-9.3951;1.0101;-2.6201;
2502211952091686;-9.4047;1.0172;-2.5911;
2502211962203821;-9.3975;0.9954;-2.5986;
2502211972310488;-9.3855;0.9715;-2.6943;
2502211982417102;-9.4071;0.9404;-2.6680;
2502211992519238;-9.4238;0.9141;-2.5935;
2502212002625905;-9.4214;0.9045;-2.5337;
2502212012732519;-9.4047;0.8686;-2.3925;
2502212022832832;-9.4669;0.8758;-2.4500;
2502212032939498;-9.4525;1.0002;-2.6249;
2502212043046113;-9.4286;1.1608;-2.7230;
2502212053161009;-9.4478;1.3382;-2.8068;
2502212063267675;-9.4549;1.4459;-2.9148;
2502212073374290;-9.5243;1.4626;-2.9219;
2502212083491113;-9.5004;1.0723;-2.9004;
2502212093597780;-9.5366;1.1752;-2.6345;
2502212103704394;-9.6347;2.2651;-2.6512;
2502212113797155;-9.6203;2.8591;-2.7637;
2502212123903821;-9.6084;2.7682;-2.2295;
2502212134010436;-9.5581;3.3790;-2.2869;
2502212144127467;-9.3784;3.3574;-2.3734;
2502212154234134;-9.2946;3.6568;-2.8717;
2502212164340748;-9.3233;3.2761;-2.6058;
2502212174449134;-9.4095;2.9264;-2.2271;
2502212184555800;-9.5052;2.3994;-1.7360;
2502212194662415;-9.5486;2.0016;-1.5733;
2502212204797884;-9.4047;1.8197;-1.7408;
2502212214904550;-9.3305;1.2517;-1.7432;
2502212225011165;-9.3497;0.7944;-1.8129;
2502212235072155;-9.3879;0.6027;-1.8918;
2502212245178821;-9.4645;0.4902;-1.8153;
2502212255285436;-9.4621;0.5524;-1.9708;
2502212265399030;-9.6156;0.4421;-1.9756;
2502212275505696;-9.7950;0.1379;-1.6092;
2502212285612311;-9.9006;0.0733;-1.3983;
2502212295717467;-9.7663;-0.0631;-1.2595;
2502212305824134;-9.5629;0.0230;-1.5350;
2502212315930748;-9.4143;0.0781;-1.6642;
2502212326025071;-9.2946;0.5883;-2.2128;
2502212336131738;-9.4645;0.2889;-2.1840;
2502212346238352;-9.6515;0.0015;-1.8344;
2502212356342988;-9.6156;0.1881;-1.6786;
2502212366449655;-9.4621;0.5118;-1.5852;
2502212376556269;-9.3425;1.8915;-2.5337;
2502212386692259;-9.2632;1.6998;-2.5098;
2502212396798925;-9.4454;1.7022;-2.5217;
2502212406905540;-9.5315;1.6926;-2.5146;
2502212416975280;-9.3832;1.8413;-2.3614;
2502212427081946;-9.2178;1.9011;-2.3085;
2502212437188561;-9.2106;1.9633;-2.4739;
2502212447303509;-9.3138;1.8843;-2.4906;
2502212457410175;-9.4023;1.7931;-2.4858;
2502212467516790;-9.4334;1.7716;-2.5313;
2502212477643196;-9.3688;1.7764;-2.5146;
2502212487749863;-9.2946;1.7142;-2.4691;
2502212497856477;-9.2536;1.6232;-2.4571;
2502212507952884;-9.3497;1.5658;-2.5744;
2502212518059550;-9.4238;1.4961;-2.6943;
2502212528166165;-9.3497;1.4554;-2.5672;
2502212538269342;-9.3688;1.4674;-2.5911;
2502212548376009;-9.3473;1.4387;-2.6106;
2502212558482623;-9.2874;1.3884;-2.5457;
2502212568606009;-9.3449;1.4124;-2.5600;
2502212578712675;-9.4095;1.4171;-2.6608;
2502212588819290;-9.3640;1.3525;-2.6417;
2502212598909707;-9.3329;1.3262;-2.6010;
2502212609016373;-9.3736;1.3573;-2.5986;
2502212619122988;-9.3879;1.3047;-2.4930;
2502212629222155;-9.3855;1.2903;-2.4428;
2502212639328821;-9.4310;1.2832;-2.4452;
2502212649435436;-9.4358;1.3071;-2.4260;
2502212659546425;-9.3999;1.2879;-2.4284;
2502212669653092;-9.4095;1.3167;-2.4284;
2502212679759707;-9.4310;1.3430;-2.4212;
2502212689879030;-9.4334;1.3669;-2.3566;
2502212699985696;-9.4597;1.3525;-2.3180;
2502212710092311;-9.4406;1.3406;-2.3013;
2502212720205696;-9.4621;1.3023;-2.2678;
2502212730312363;-9.4525;1.2760;-2.2750;
2502212740418977;-9.4645;1.2613;-2.3109;
2502212750500280;-9.4813;1.2517;-2.3061;
2502212760606946;-9.4621;1.2230;-2.2845;
2502212770713561;-9.4286;1.1847;-2.3157;
2502212780816113;-9.4525;1.1249;-2.3180;
2502212790922780;-9.4645;1.0842;-2.3037;
2502212801026425;-9.4765;1.0723;-2.2917;
2502212811132988;-9.5028;1.0388;-2.3228;
2502212821239602;-9.4837;0.9763;-2.3276;
2502212831346269;-9.4717;0.9619;-2.2917;
2502212841475280;-9.5243;0.9117;-2.3157;
2502212851581946;-9.5172;0.8495;-2.2869;
2502212861688561;-9.5028;0.8686;-2.3037;
2502212871788196;-9.5366;0.8734;-2.3228;
2502212881894863;-9.5124;0.8136;-2.2582;
2502212892001477;-9.5315;0.7753;-2.2534;
2502212902105488;-9.5462;0.8040;-2.2343;
2502212912212155;-9.5219;0.8160;-2.1936;
2502212922318769;-9.5414;0.7992;-2.2319;
2502212932426321;-9.5629;0.8040;-2.2008;
2502212942532988;-9.5315;0.7968;-2.1936;
2502212952639602;-9.5076;0.7753;-2.2104;
2502212962744238;-9.5438;0.7585;-2.2080;
2502212972850905;-9.5438;0.7585;-2.1840;
2502212982957519;-9.5701;0.7271;-2.1290;
2502212993073457;-9.6060;0.6936;-2.0979;
2502213003180123;-9.6730;0.6242;-2.0330;
2502213013286738;-9.7878;0.5189;-1.8607;
2502213023380384;-9.8145;0.4926;-1.6690;
2502213033487050;-9.6634;0.4950;-1.5709;
2502213043593665;-9.5076;0.6314;-1.6786;
2502213053701634;-9.4813;0.7513;-1.8105;
2502213063808300;-9.5701;0.8088;-1.7336;
2502213073914915;-9.6706;0.8231;-1.5565;
2502213084026634;-9.6634;0.8686;-1.4438;
2502213094133300;-9.5677;0.9260;-1.3768;
2502213104239915;-9.4860;0.9978;-1.4342;
2502213114345384;-9.5195;1.0914;-1.6259;
2502213124452050;-9.5845;1.1489;-1.8320;
2502213134558665;-9.5988;1.2015;-2.0258;
2502213144670800;-9.5605;1.2565;-2.1410;
2502213154777467;-9.4932;1.2879;-2.2175;
2502213164884082;-9.5052;1.2374;-2.1817;
2502213174976738;-9.4956;1.2087;-2.2056;
2502213185083405;-9.5172;1.2159;-2.3638;
2502213195190019;-9.5267;1.2470;-2.5050;
2502213205306113;-9.4645;1.2159;-2.5217;
2502213215412780;-9.4334;1.1465;-2.4882;
2502213225519394;-9.4190;1.0651;-2.4667;
2502213235613300;-9.3903;0.9332;-2.3471;
2502213245719967;-9.4119;0.7848;-2.2726;
2502213255826582;-9.4621;0.7295;-2.2965;
2502213265927467;-9.4645;0.8471;-2.4212;
2502213276034134;-9.3832;1.0842;-2.6225;
2502213286140748;-9.3305;1.1154;-2.6082;
2502213296253196;-9.4047;0.8327;-2.2487;
2502213306359863;-9.5845;0.5716;-1.9038;
2502213316466477;-9.6180;0.7681;-1.9923;
2502213326579446;-9.4741;0.9117;-2.1625;
2502213336686113;-9.4071;0.5094;-1.8727;
2502213346792727;-9.5124;0.5907;-2.0426;
2502213356910905;-9.4717;0.4564;-1.9181;
2502213367017571;-9.3879;0.2291;-1.5156;
2502213377124186;-9.5315;0.2435;-1.7743;
2502213387192884;-9.5052;0.2602;-1.8033;
2502213397299550;-9.3855;0.2794;-1.9181;
2502213407406165;-9.3449;0.6027;-2.3518;
2502213417524759;-9.3066;0.7801;-2.6704;
2502213427631425;-9.3185;0.7825;-2.6632;
2502213437738040;-9.3233;0.9906;-2.7972;
2502213447851217;-9.4669;1.3741;-3.1519;
2502213457957884;-9.5438;1.5969;-3.2213;
2502213468064498;-9.3353;1.5176;-2.9794;
2502213478162571;-9.1555;1.5344;-3.1878;
2502213488269238;-9.1005;1.6831;-3.5088;
2502213498375852;-9.1819;1.6902;-3.5064;
2502213508491321;-9.2058;1.7261;-3.4729;
2502213518597988;-9.2850;1.6256;-3.5590;
2502213528704602;-9.4143;1.5802;-3.6093;
2502213538826738;-9.2850;1.6783;-3.4202;
2502213548933405;-9.2513;1.3310;-3.0344;
2502213559040019;-9.6897;1.0531;-2.9411;
2502213569166634;-9.7567;0.3751;-2.1793;
2502213579273300;-9.4047;0.0541;-1.8009;
2502213589379915;-9.4573;-0.2835;-1.9349;
2502213599458405;-9.5076;-0.3485;-1.9469;
2502213609565071;-8.8418;-0.4777;-1.4892;
2502213619671686;-8.3387;-0.3338;-2.4954;
2502213629783925;-9.7591;-0.0464;-3.5734;
2502213639890592;-10.7773;0.4038;-2.7996;
2502213649997207;-9.7759;0.9835;-1.1180;
2502213660101321;-9.5100;1.1321;-1.7623;
2502213670207988;-9.4621;1.0890;-2.6369;
2502213680314602;-8.9423;1.4746;-2.3686;
2502213690426321;-9.3879;1.5395;-2.3638;
2502213700532988;-10.1737;1.3621;-2.9674;
2502213710639602;-9.6491;1.5969;-2.9148;
2502213720765592;-8.8705;1.9322;-2.6489;
2502213730872259;-9.0957;1.8556;-2.7661;
2502213740978873;-9.6347;1.9537;-2.8980;
2502213751066842;-9.5868;1.9992;-2.7517;
2502213761173509;-9.6012;1.9059;-3.1926;
2502213771280123;-9.5701;1.5009;-3.5375;
2502213781378821;-9.1412;1.5153;-3.6188;
2502213791485488;-9.3377;1.4506;-3.5136;
2502213801592102;-10.0971;1.3669;-3.4250;
2502213811682363;-9.6491;1.4602;-3.2333;
2502213821788977;-9.2874;1.1441;-3.2907;
2502213831895540;-9.3999;0.6745;-3.4490;
2502213842020384;-9.3281;0.4588;-3.2070;
2502213852126998;-9.4597;0.1020;-2.9076;
2502213862233561;-9.7232;-0.4202;-2.8140;
2502213872325488;-9.5267;-0.6909;-2.5457;
2502213882432102;-9.2393;-0.8177;-2.1362;
2502213892538665;-9.3927;-0.9975;-1.8535;
2502213902651113;-9.6275;-1.1124;-1.6092;
2502213912757727;-7.9938;-1.2706;-1.5589;
2502213922864290;-5.5840;-1.4527;-4.0358;
2502213932966373;-12.2459;-3.0817;-5.6527;
2502213943072988;-12.0446;-1.3783;-2.4787;
2502213953179550;-9.3138;-0.2931;-0.5599;
2502213963302259;-9.6419;-1.5820;-2.5528;
2502213973408873;-8.1613;-1.5508;-3.2429;
2502213983515436;-6.5635;-0.8249;-2.2367;
2502213993613509;-8.7700;-1.7450;-3.0057;
2502214003720123;-11.3809;-2.4395;-4.5365;
2502214013826686;-10.9427;-1.5173;-4.2969;
2502214023920905;-8.5208;-0.3123;-2.9961;
2502214034027519;-7.7853;-0.2740;-3.0033;
2502214044134082;-8.9231;-0.1472;-3.4657;
2502214054264186;-9.0790;0.6769;-2.6417;
2502214064370800;-9.1986;0.3799;-2.3204;
2502214074477363;-10.8299;-0.2548;-4.0071;
2502214084579602;-10.0708;0.3703;-4.4429;
2502214094686217;-8.2071;0.5357;-3.0559;
2502214104792780;-8.6931;0.1786;-3.0559;
2502214114889030;-9.4884;0.4134;-3.0751;
2502214124995644;-9.1268;1.3310;-2.5624;
2502214135102207;-9.2106;1.3956;-2.3566;
2502214145199550;-9.1819;1.0555;-2.8693;
2502214155306165;-10.1354;0.0685;-4.6059;
2502214165412727;-9.9820;0.5596;-4.8215;
2502214175518509;-7.6681;1.2903;-2.6536;
2502214185625123;-8.2741;0.8782;-2.7685;
2502214195731686;-10.4850;0.5931;-3.9401;
2502214205841738;-9.8862;1.4770;-2.9124;
2502214215948352;-8.8825;1.5658;-2.3686;
2502214226054915;-9.4023;0.8806;-3.5806;
2502214236156217;-9.3185;0.7968;-3.5614;
2502214246262832;-7.9484;1.3549;-2.6847;
2502214256369394;-8.6477;0.5740;-3.3266;
2502214266481530;-10.2646;1.2159;-4.9986;
2502214276588144;-9.5653;2.9336;-7.5332;
2502214286694707;-8.1446;1.8027;-3.3194;
2502214296800800;-8.6668;1.0627;-2.7398;
2502214306907415;-10.1043;0.3248;-2.7374;
2502214317013977;-9.5940;0.9595;-2.8187;
2502214327121425;-8.7604;0.3511;-3.6571;
2502214337228040;-9.7472;-0.1639;-5.6791;
2502214347334602;-9.3401;0.6505;-5.7437;
2502214357437259;-8.1350;1.2661;-3.9497;
2502214367543873;-9.1651;0.7056;-3.3434;
2502214377650436;-10.6696;0.8327;-3.1854;
2502214387764550;-9.6538;1.0002;-2.0258;
2502214397871165;-8.9303;0.6697;-2.2319;
2502214407977727;-9.3784;0.4229;-3.4226;
2502214418068925;-9.1053;1.2661;-3.9159;
2502214428175540;-8.6836;1.5248;-3.5877;
2502214438282102;-9.3185;1.4387;-3.4657;
2502214448412780;-9.8480;1.4052;-3.6404;
2502214458519394;-9.6826;1.5897;-4.1172;
2502214468625957;-9.6060;1.5272;-3.9350;
2502214478723457;-9.7783;1.3310;-2.7805;
2502214488830071;-9.1460;1.5081;-1.8320;
2502214498936634;-8.8131;1.7620;-2.2152;
2502214509033613;-9.5462;1.3980;-3.4083;
2502214519140227;-9.5797;1.0938;-3.5471;
2502214529246790;-8.9399;1.3573;-3.0081;
2502214539352050;-9.2656;0.8566;-2.8522;
2502214549458665;-10.5449;0.4684;-3.1591;
2502214559565227;-9.8575;0.3727;-1.9229;
2502214569678300;-8.3842;0.2865;-1.4007;
2502214579784915;-8.7963;0.1211;-2.6536;
2502214589891477;-9.2970;0.3655;-3.2189;
2502214599981530;-9.3185;0.8925;-2.6058;
2502214610088144;-10.4037;0.8590;-2.4643;
2502214620194707;-10.7007;0.8614;-2.0426;
2502214630320696;-9.3616;0.9404;-1.1085;
2502214640427311;-8.7867;0.6170;-1.1109;
2502214650533873;-9.0000;0.4564;-2.1888;
2502214660638196;-9.5052;0.5501;-2.9387;
2502214670744811;-9.7065;0.5118;-3.0153;
2502214680851373;-9.6275;0.2698;-2.9865;
2502214690969967;-9.6538;0.1546;-3.0823;
2502214701076582;-9.3760;0.0972;-2.2822;
2502214711183144;-9.0215;-0.4418;-1.0845;
2502214721256530;-9.3760;-1.2419;-0.7636;
2502214731363144;-9.9532;-1.5030;-1.1635;
2502214741469707;-9.8958;-1.7402;-1.4892;
2502214751599967;-9.8145;-1.2299;-2.4069;
2502214761706582;-9.7424;-1.0478;-2.6273;
2502214771813144;-9.1819;-0.8874;-1.8392;
2502214781920592;-9.3688;-0.4968;-1.6570;
2502214792027207;-10.0370;-0.5925;-1.4844;
2502214802133769;-10.1521;-0.6622;-1.5326;
2502214812222988;-10.0466;-0.0057;-2.7757;
2502214822329550;-9.6036;0.8136;-3.5973;
2502214832436113;-8.6644;0.4759;-2.0569;
2502214842608300;-9.0287;-0.3123;-0.6006;
2502214852714915;-10.5353;-0.7077;-0.7397;
2502214862821477;-10.9283;-0.4729;-1.1539;
2502214872868300;-9.9078;0.2530;-1.5924;
2502214882974915;-8.2932;1.7357;-4.1052;
2502214893081477;-9.1675;2.8304;-5.1449;
2502214903184342;-9.5773;0.2913;-0.8139;
2502214913290957;-9.9054;-0.3891;1.3325;
2502214923397519;-10.6023;0.4158;-0.4738;
2502214933503717;-9.8145;1.2302;-1.9516;
2502214943610332;-8.5974;1.0723;-1.7097;
2502214953716894;-8.9207;1.0795;-2.8522;
2502214963824134;-9.8862;1.2709;-3.6380;
2502214973930748;-9.7280;0.5572;-1.7073;
2502214984037311;-9.4262;-0.1711;-0.5958;
2502214994146634;-9.8192;-0.2046;-1.3002;
2502215004253248;-9.6060;-0.0272;-1.6881;
2502215014359811;-9.0215;0.1714;-1.7743;
2502215024469759;-9.1268;0.5237;-2.4954;
2502215034576373;-9.4597;0.8877;-3.1448;
2502215044682936;-9.3377;1.0220;-3.0631;
2502215054788821;-9.6945;1.3430;-3.9111;
2502215064895436;-10.6481;1.4961;-4.4094;
2502215075001998;-9.3185;0.7370;-1.8799;
2502215085123405;-8.1326;0.4445;-0.3562;
2502215095230019;-9.1340;1.0002;-1.7961;
2502215105336582;-10.2981;1.3047;-2.7159;
2502215115447155;-10.2431;1.2637;-2.0378;
2502215125553769;-9.3760;1.3860;-1.9181;
2502215135660332;-9.0526;1.7955;-2.9937;
2502215145760384;-9.2154;1.9322;-3.3338;
2502215155866998;-9.3329;1.6304;-2.1625;
2502215165973561;-9.2946;1.5200;-1.7575;
2502215176079759;-9.4214;1.8843;-2.5959;
2502215186186373;-9.1531;2.1263;-2.8331;
2502215196292936;-9.0574;2.1431;-2.6249;
2502215206384030;-9.4382;2.0423;-2.6584;
2502215216490644;-9.6203;1.8485;-2.5768;
2502215226597207;-9.6610;1.7381;-2.5720;
2502215236726842;-9.5243;1.7716;-2.7685;
2502215246833457;-8.9064;1.9250;-2.6369;
2502215256940019;-8.9662;2.1096;-2.4571;
2502215267020696;-9.5267;2.0112;-1.9947;
2502215277127311;-9.5725;1.7764;-1.3839;
2502215287233873;-9.5677;1.8027;-1.7934;
2502215297376113;-9.7208;1.9131;-2.3782;
2502215307482727;-9.6299;1.8365;-1.9804;
2502215317589290;-9.5438;2.1096;-1.6403;
2502215327675592;-9.2369;2.3611;-1.7695;
2502215337782207;-8.9495;2.3515;-2.4930;
2502215347888769;-8.8011;2.5023;-3.2166;
2502215357970488;-8.6142;2.4233;-2.9028;
2502215368077102;-9.0191;2.2484;-2.5457;
2502215378183665;-10.0756;2.1957;-2.6943;
2502215388308196;-10.3822;2.1048;-2.2654;
2502215398414811;-9.3114;1.9657;-1.3169;
2502215408521373;-8.2956;1.8437;-1.2858;
2502215418625957;-8.9088;1.8843;-2.0668;
2502215428732571;-10.3415;1.9729;-2.1386;
2502215438839134;-10.5999;2.1861;-1.4773;
2502215448940280;-9.7854;2.4927;-1.5203;
2502215459046894;-8.7772;2.5765;-1.9612;
2502215469153457;-7.9412;2.3635;-1.9469;
2502215479270280;-8.4272;2.3515;-2.5217;
2502215489376894;-9.7472;2.3898;-3.4346;
2502215499483457;-10.1498;2.3345;-3.2381;
2502215509588925;-9.4143;2.0303;-2.2391;
2502215519695540;-8.7556;1.7501;-1.8488;
2502215529802102;-8.8490;1.5682;-1.8607;
2502215539900540;-9.3114;1.3023;-1.4749;
2502215550007155;-10.1713;1.1704;-1.3481;
2502215560113717;-10.7414;1.3645;-1.8105;
2502215570235280;-10.5568;1.6974;-2.0186;
2502215580341894;-9.2465;1.8027;-1.8296;
2502215590448457;-8.5998;1.9657;-1.9708;
2502215600559342;-8.7987;1.8987;-2.0716;
2502215610665957;-9.0455;1.6902;-1.6977;
2502215620772519;-9.6538;1.6854;-1.9301;
2502215630856113;-10.9810;1.6448;-2.1864;
2502215640962727;-10.7246;1.1895;-1.3241;
2502215651069290;-9.7256;1.3143;-1.0152;
2502215661179655;-8.6285;1.7022;-1.5278;
2502215671286269;-8.5496;1.7955;-1.7312;
2502215681392832;-8.8801;1.4889;-1.7599;
2502215691500800;-8.9638;1.5009;-2.6273;
2502215701607415;-8.9638;1.7692;-3.7962;
2502215711713977;-8.8418;1.7046;-3.5447;
2502215721851113;-8.7604;1.4483;-2.3013;
2502215731957727;-9.2465;1.4339;-1.7862;
2502215742064290;-9.6203;1.5419;-1.9732;
2502215752141321;-9.7113;1.6519;-2.1434;
2502215762247936;-10.8538;1.6807;-2.6560;
2502215772354498;-11.3976;1.3645;-2.0258;
2502215782453613;-9.5940;1.0603;-0.6365;
2502215792560227;-8.0776;1.5129;-1.2739;
2502215802666790;-8.3865;2.1168;-2.8403;
2502215812791425;-9.3425;1.9202;-2.4021;
2502215822898092;-10.0131;1.5033;-1.2835;
2502215833004811;-10.5449;1.6807;-1.6475;
2502215843073509;-10.3678;1.8652;-2.2343;
2502215853180175;-8.7147;1.4722;-1.4988;
2502215863286894;-7.6199;1.2784;-1.6594;
2502215873414238;-8.6931;1.5368;-3.2596;
2502215883520905;-9.9891;1.2470;-3.3362;
2502215893627623;-10.4683;0.8638;-2.1218;
2502215903738873;-10.3463;1.0579;-1.6403;
2502215913845540;-9.5486;1.3190;-1.5494;
2502215923952259;-8.7194;1.2517;-1.4557;
2502215934049863;-8.5854;1.2422;-1.6881;
2502215944156530;-9.4717;1.6137;-2.3495;
2502215954263248;-10.1474;1.6854;-2.3734;
2502215964390800;-10.0059;1.3358;-2.0450;
2502215974497467;-9.3855;1.5849;-2.4308;
2502215984604186;-8.5950;1.9202;-2.7996;
2502215994688613;-8.0680;1.5344;-2.5816;
2502216004795280;-9.2755;1.5248;-2.9076;
2502216014901998;-10.6050;1.7046;-2.9865;
2502216025011738;-10.0035;1.2087;-1.7049;
2502216035118405;-9.2345;1.1273;-1.6187;
2502216045225123;-9.0574;1.6854;-2.7517;
2502216055322467;-9.3760;1.3908;-2.7517;
2502216065429134;-9.5172;0.7271;-1.8727;
2502216075535852;-9.7208;1.0747;-2.1338;
2502216085666113;-9.6012;1.2589;-2.5600;
2502216095772780;-9.3832;0.9906;-2.5648;
2502216105879498;-9.4717;1.2470;-2.9554;
2502216115986217;-8.9901;1.0938;-2.3157;
2502216126090592;-8.8968;0.7152;-1.8894;
2502216136197259;-9.6060;1.0268;-3.1325;
2502216146303977;-9.9245;1.4028;-3.5614;
2502216156392571;-9.2731;1.0149;-2.4954;
2502216166499238;-9.2417;0.7705;-2.3375;
2502216176605957;-9.4813;1.0795;-2.8211;
2502216186740800;-8.9590;1.2589;-2.6058;
2502216196847467;-9.4262;1.1441;-2.7446;
2502216206954186;-10.0298;0.7777;-3.0320;
2502216217022780;-9.8121;0.5429;-2.5935;
2502216227129446;-9.1316;0.6003;-1.8894;
2502216237236165;-9.1938;0.9165;-2.0668;
2502216247361113;-9.5988;1.1106;-2.2941;
2502216257467780;-9.3185;1.0292;-1.8488;
2502216267574498;-9.3544;1.0316;-2.7996;
2502216277688509;-10.1545;1.1465;-4.4596;
2502216287795175;-9.5892;1.0484;-3.8824;
2502216297901894;-8.5137;0.6745;-1.9277;
2502216308009602;-8.9112;0.3440;-1.4151;
2502216318116269;-9.4884;0.2363;-1.8775;
2502216328222988;-9.9006;0.4397;-2.5313;
2502216338287259;-10.1258;0.4926;-3.0320;
2502216348393925;-9.9365;0.3296;-3.0679;
2502216358500644;-8.9925;0.2506;-2.7470;
2502216368639655;-8.7891;0.0876;-2.6728;
2502216378746321;-9.3736;-0.0296;-2.3037;
2502216388853040;-9.3808;0.0254;-1.4581;
2502216398963040;-9.4765;0.1187;-1.6714;
2502216409069707;-10.0394;0.0470;-2.7398;
2502216419176425;-9.8839;-0.0081;-3.0583;
2502216429276113;-9.6945;-0.0464;-2.6177;
2502216439382780;-11.0456;0.0087;-1.5852;
2502216449489498;-10.3917;0.2937;-0.3706;
2502216459608925;-9.0550;0.5357;-1.2329;
2502216469715592;-8.7939;0.2148;-2.9243;
2502216479822311;-8.7242;-0.0826;-2.8932;
2502216489917207;-8.7485;0.2698;-2.5050;
2502216500023873;-8.9279;0.4349;-3.0966;
2502216510130592;-9.0933;0.3727;-3.8177;
2502216520222519;-8.9853;0.0996;-3.2357;
2502216530329186;-8.6907;-0.3724;-2.4547;
2502216540435905;-9.3233;-0.5925;-2.6321;
2502216550557988;-9.5462;-0.4848;-2.4260;
2502216560664655;-9.6993;-0.1759;-1.9086;
2502216570771373;-11.4147;0.0852;-1.8655;
2502216580884238;-12.0565;0.3942;-1.3457;
2502216590990905;-9.6873;0.6170;-0.6389;
2502216601097623;-8.3913;0.4998;-2.0740;
2502216611202884;-8.7123;0.4493;-3.4705;
2502216621309550;-8.4105;0.7008;-2.5481;
2502216631416269;-9.2249;1.0220;-2.5433;
2502216641516842;-10.9714;0.9332;-3.3793;
2502216651623509;-11.4123;1.0723;-1.9301;
2502216661730227;-10.0083;1.3238;0.0269;
2502216671842467;-9.0718;1.0747;-1.1252;
2502216681949134;-8.7290;0.6338;-3.1591;
2502216692055852;-7.9122;0.5883;-2.8283;
2502216702158040;-7.7949;0.7442;-2.4643;
2502216712264707;-9.3233;0.5788;-3.8010;
2502216722371425;-11.0575;0.4134;-4.2634;
2502216732474446;-10.4061;0.7633;-1.7719;
2502216742581113;-8.4440;0.9380;-0.5097;
2502216752687832;-8.4320;0.7370;-3.2764;
2502216762789967;-9.2297;0.5429;-4.4692;
2502216772896634;-8.9710;0.6147;-2.0354;
2502216783003352;-10.1163;0.8040;-1.1515;
2502216793116946;-11.6611;0.8710;-2.0907;
2502216803223613;-10.5162;1.2422;-1.8918;
2502216813330332;-8.7051;1.4554;-1.6642;
2502216823427363;-8.3602;1.4506;-2.5313;
2502216833533821;-8.6740;1.1704;-2.9674;
2502216843640227;-9.6084;0.8495;-3.0224;
2502216853774030;-9.9006;0.7199;-2.8884;
2502216863880488;-9.6419;0.9141;-2.5170;
2502216873986894;-9.4382;1.2374;-2.4954;
2502216884052259;-9.2417;1.0651;-2.3830;
2502216894158717;-9.3712;0.9332;-2.1458;
2502216904265123;-8.9758;0.9045;-1.7456;
2502216914389290;-9.1723;1.0125;-1.9086;
2502216924495748;-10.0442;1.0986;-2.4188;
2502216934602155;-10.7821;1.2135;-2.4332;
2502216944712207;-9.8432;1.2661;-1.8344;
2502216954818665;-8.2167;1.3023;-2.1338;
2502216964925071;-8.2693;1.2446;-2.9794;
2502216975026738;-9.1077;1.1465;-2.8475;
2502216985133196;-9.7519;1.2374;-2.5504;
2502216995239602;-9.5988;1.2927;-2.7781;
2502217005349446;-9.8839;1.2470;-4.5054;
2502217015455905;-10.8586;1.1728;-4.7928;
2502217025562311;-9.4621;1.2087;-0.4328;
2502217035669446;-7.9675;1.4052;1.9531;
2502217045775905;-9.6658;1.9394;-1.6140;
2502217055882311;-10.9738;1.7166;-3.0535;
2502217065981425;-9.3281;2.3201;-1.0175;
2502217076087884;-7.8141;2.3201;-0.2940;
2502217086194290;-8.0417;2.1215;-1.7432;
2502217096295905;-8.4897;2.3154;-1.7288;
2502217106402363;-9.1579;2.3515;-0.4519;
2502217116508769;-10.0466;2.0255;-1.7336;
2502217126643613;-12.3535;1.6831;-5.9019;
2502217136750071;-11.0025;1.3262;-5.0180;
2502217146856477;-7.3158;1.0026;-1.9038;
2502217156939238;-8.1975;1.0316;-3.1543;
2502217167045696;-9.4717;0.9476;-2.3542;
2502217177152102;-8.7724;0.9356;0.2713;
2502217187265488;-9.8647;1.5586;-1.4103;
2502217197371946;-10.9810;1.9490;-3.6742;
2502217207478352;-10.0851;1.7524;-2.7781;
2502217217568405;-8.7218;1.7333;-1.6116;
2502217227674863;-8.0369;2.0327;-1.6857;
2502217237781269;-8.7604;2.2388;-2.1601;
2502217247889655;-10.0971;2.3034;-1.9134;
2502217257996113;-9.9413;2.2507;-1.5374;
2502217268102519;-9.9963;2.1598;-2.7422;
2502217278223717;-9.9078;1.8867;-2.8475;
2502217288330175;-8.4440;1.6376;-1.2305;
2502217298436582;-8.1852;2.0040;-1.4246;
2502217308547155;-9.6826;2.4640;-2.7039;
2502217318653613;-10.0971;2.3082;-2.7278;
2502217328760019;-10.2359;2.0303;-2.8860;
2502217338872571;-10.0418;1.9322;-2.0692;
2502217348979030;-8.6381;2.2077;-0.7011;
2502217359085436;-8.8992;2.8208;-1.8751;
2502217369179863;-9.7256;3.0820;-2.9841;
2502217379286321;-9.1795;2.7706;-2.4021;
2502217389392727;-9.5510;2.6052;-2.8020;
2502217399504030;-9.9724;2.7036;-2.7230;
2502217409610488;-9.3520;2.8113;-1.7480;
2502217419716894;-9.4573;2.8687;-1.7216;
2502217429823405;-9.4430;2.8711;-1.5757;
2502217439929863;-8.6692;2.7491;-1.2568;
2502217450036269;-8.7820;2.5813;-2.2989;
2502217460134290;-9.7687;2.2842;-3.6212;
2502217470240748;-10.3702;1.9035;-3.7603;
2502217480347155;-10.2503;1.6663;-2.8884;
2502217490467988;-8.9806;1.7022;-1.6211;
2502217500574446;-8.0082;1.7788;-1.3887;
2502217510680852;-8.5137;1.6807;-1.9516;
2502217520782780;-9.3281;1.4028;-2.1673;
2502217530889238;-10.2335;1.1058;-2.6417;
2502217540995644;-10.9810;1.0026;-2.9841;
2502217551105540;-9.9748;1.0914;-1.9540;
2502217561211998;-8.6237;1.3262;-1.6259;
2502217571318405;-9.1723;1.3813;-2.7159;
2502217581434863;-9.1938;1.1082;-2.1170;
2502217591541321;-8.7963;0.9165;-1.2691;
2502217601647727;-9.7543;0.9428;-2.1553;
2502217611749238;-10.0609;0.9069;-2.5146;
2502217621855696;-9.2874;0.8734;-2.5481;
2502217631962102;-8.9255;0.8662;-3.1134;
2502217642062780;-8.6142;0.7175;-3.0272;
2502217652169238;-8.7915;0.6242;-2.9698;
2502217662275644;-9.9437;0.5859;-3.3529;
2502217672378613;-10.2311;0.6338;-3.1181;
2502217682485071;-9.6610;0.8088;-2.9267;
2502217692591477;-9.3377;0.9787;-3.0200;
2502217702700696;-9.0526;1.1369;-2.2750;
2502217712807155;-8.7413;1.3143;-1.4701;
2502217722913561;-9.3497;1.4674;-2.1027;
2502217733015800;-10.2574;1.4578;-3.0559;
2502217743122259;-9.8432;1.4794;-2.9698;
2502217753228665;-8.9183;1.6376;-2.7182;
2502217763350175;-8.5878;1.4602;-2.8932;
2502217773456634;-8.9542;1.3932;-3.0057;
2502217783563040;-9.2850;1.4267;-2.6465;
2502217793655800;-9.6467;1.3071;-2.6967;
2502217803762259;-10.1115;1.1010;-3.2644;
2502217813868665;-9.7783;1.1106;-2.8594;
2502217823966113;-8.8011;1.1847;-2.0812;
2502217834072571;-9.0383;1.1824;-2.6034;
2502217844179030;-9.6060;1.1297;-2.7111;
2502217854297519;-9.4382;1.1584;-1.9732;
2502217864403977;-9.2393;1.1560;-2.3471;
2502217874510436;-9.6802;1.0412;-3.6117;
2502217884632884;-9.5988;0.9787;-3.2836;
2502217894739342;-8.5089;0.9739;-1.8033;
2502217904845800;-8.6907;1.0101;-2.0593;
2502217914929134;-9.7567;0.9930;-3.1663;
2502217925035592;-10.4683;0.9835;-3.3649;
2502217935142050;-9.9341;1.0747;-2.6680;
2502217945252884;-9.1843;1.1776;-2.1721;
2502217955359342;-8.7891;1.0651;-2.2391;
2502217965465800;-8.9518;0.9547;-2.4667;
2502217975570384;-9.4071;0.8806;-2.4691;
2502217985676842;-9.7472;0.8566;-2.7781;
2502217995783300;-9.8264;0.7753;-3.0918;
2502218005900696;-9.2707;0.6458;-2.6154;
2502218016007155;-8.8609;0.5381;-2.1362;
2502218026113613;-8.9327;0.3942;-2.6249;
2502218036206425;-9.5773;0.2937;-2.8837;
2502218046312884;-9.5821;0.4974;-2.1218;
2502218056419342;-9.8504;0.4831;-2.4428;
2502218066555592;-10.5425;0.5142;-3.1831;
2502218076662050;-9.4502;0.6458;-2.0617;
2502218086768509;-8.3698;0.6505;-1.5084;
2502218096851321;-8.8011;0.4759;-2.4571;
2502218106957780;-8.8394;0.6290;-2.8355;
2502218117064238;-9.4621;0.8399;-2.5935;
2502218127142675;-10.2096;0.8231;-2.4093;
2502218137249134;-10.3654;0.8447;-2.5146;
2502218147355592;-10.0609;0.9093;-2.2295;
2502218157479238;-8.6309;1.0699;-1.3696;
2502218167585696;-8.6477;0.9811;-2.2391;
2502218177692155;-9.8551;0.7729;-3.6093;
2502218187808925;-9.5510;0.7825;-2.8355;
2502218197915384;-9.0933;0.7920;-2.2271;
2502218208021842;-10.3125;0.7199;-2.9554;
2502218218125175;-10.0131;0.8183;-2.1410;
2502218228231634;-8.9040;0.8542;-1.0223;
2502218238338092;-9.3808;0.6649;-2.1864;
2502218248446113;-10.1043;0.6482;-2.8259;
2502218258552571;-9.6538;0.8710;-1.6953;
2502218268659030;-9.1843;0.8662;-1.2882;
2502218278765123;-9.2058;0.8471;-1.8033;
2502218288871582;-9.5653;0.9117;-2.3877;
2502218298978040;-9.5486;0.9619;-2.4332;
2502218309092155;-9.3568;0.8830;-2.5193;
2502218319198613;-9.4717;0.8662;-2.9602;
2502218329305071;-9.3951;0.9643;-2.6704;
2502218339427675;-9.2850;1.1010;-1.8057;
2502218349534134;-9.4860;1.0747;-1.7312;
2502218359640592;-9.4932;1.0675;-2.0450;
2502218369746738;-9.8169;1.1177;-2.3252;
2502218379853196;-10.3558;1.0579;-2.4811;
2502218389959655;-9.8767;0.9763;-2.1170;
2502218400052155;-8.6237;1.0002;-2.1075;
2502218410158613;-8.8872;0.9571;-2.6871;
2502218420265071;-8.9231;1.0795;-1.9421;
2502218430370540;-8.8968;1.1680;-1.5541;
2502218440476998;-10.2861;1.1106;-3.0727;
2502218450583457;-10.3726;1.0819;-3.2501;
2502218460675123;-9.4190;1.3047;-1.9253;
2502218470781582;-9.1077;1.2784;-1.5781;
2502218480888040;-8.8920;1.1800;-2.1553;
2502218491011738;-8.9423;1.3334;-2.4069;
2502218501118196;-9.4669;1.5538;-2.2654;
2502218511224655;-10.2072;1.5993;-2.2989;
2502218521340384;-10.3917;1.5921;-2.4858;
2502218531446842;-9.3640;1.6328;-2.4500;
2502218541553300;-8.5113;1.8221;-2.3085;
2502218551655696;-8.6859;2.0160;-2.4236;
2502218561762155;-9.4430;2.0734;-2.4906;
2502218571868613;-9.3377;1.8580;-2.3204;
2502218581983092;-9.8312;1.7740;-3.0416;
2502218592089550;-10.1019;1.8003;-2.9841;
2502218602196009;-9.2082;1.7979;-1.8799;
2502218612293040;-9.0263;1.6615;-1.6738;
2502218622399498;-9.0431;1.5826;-2.0019;
2502218632505957;-9.1101;1.6687;-2.2439;
2502218642620071;-9.6323;1.7189;-2.7781;
2502218652726530;-9.4334;1.6376;-2.8693;
2502218662832988;-9.0670;1.5344;-2.9650;
2502218672923300;-10.0370;1.5248;-3.2740;
2502218683029759;-9.8839;1.6639;-2.3252;
2502218693136217;-9.0359;1.8820;-1.2954;
2502218703247780;-9.2683;1.8027;-1.5350;
2502218713354238;-9.3425;1.7596;-2.0258;
2502218723460696;-9.2130;1.7213;-2.4332;
2502218733564134;-9.3425;1.7070;-2.7206;
2502218743670592;-9.3353;1.7477;-2.2965;
2502218753777050;-9.3497;1.7620;-2.1625;
2502218763858613;-9.8049;1.6807;-2.4332;
2502218773965071;-9.6538;1.6783;-2.2271;
2502218784071530;-9.5438;1.6137;-2.0812;
2502218794205384;-9.6467;1.5514;-2.0593;
2502218804311842;-9.1125;1.5176;-1.7073;
2502218814418300;-9.0383;1.4411;-1.5227;
2502218824524550;-8.9949;1.4004;-1.6834;
2502218834631165;-9.6897;1.3860;-2.6824;
2502218844737780;-10.1713;1.5057;-3.1424;
2502218854832050;-9.3736;1.6567;-1.9995;
2502218864938665;-8.7509;1.5514;-1.4725;
2502218875045280;-9.7304;1.4650;-2.1888;
2502218885171113;-9.7759;1.5730;-1.6977;
2502218895277727;-9.4525;1.7405;-1.1850;
2502218905384342;-10.0828;1.7668;-1.8392;
2502218915475800;-9.7854;1.7764;-2.0115;
2502218925582415;-8.6859;1.7333;-1.6929;
2502218935689030;-8.9614;1.7118;-2.2152;
2502218945803300;-9.6323;1.7381;-2.2845;
2502218955909915;-9.4884;1.7453;-1.3050;
2502218966016530;-9.6802;1.7453;-1.5948;
2502218976107050;-10.0394;1.6472;-2.5696;
2502218986213665;-9.5749;1.6280;-2.2487;
2502218996320280;-9.1077;1.6328;-1.4342;
2502219006439550;-9.1125;1.6759;-1.5852;
2502219016546165;-9.9293;1.7548;-2.8789;
2502219026652780;-10.6744;1.8820;-2.9865;
2502219036781530;-9.6203;1.8652;-0.9120;
2502219046888144;-8.4440;1.7596;0.1229;
2502219056994759;-8.7317;1.8963;-1.0128;
2502219067062780;-9.3329;2.0040;-1.8942;
2502219077169394;-9.8815;1.8078;-2.1458;
2502219087276009;-10.5066;1.5296;-2.7685;
2502219097458717;-10.2526;1.2879;-2.7565;
2502219107565332;-9.0718;1.1034;-1.2544;
2502219117671946;-8.2358;1.0220;-0.0185;
2502219127720800;-8.8418;1.1752;-1.0702;
2502219137827415;-10.5305;1.0507;-2.7278;
2502219147934030;-10.5664;1.2784;-2.8379;
2502219158052207;-9.6275;1.5586;-1.8966;
2502219168158821;-9.5821;1.7022;-1.7623;
2502219178265436;-9.5773;1.9322;-1.5227;
2502219188379446;-8.7147;2.3273;-0.6556;
2502219198486061;-8.8155;2.5023;-0.9837;
2502219208592675;-9.8504;2.5047;-2.1099;
2502219218684967;-9.9963;2.6749;-2.4045;
2502219228791582;-9.5916;2.8113;-2.5959;
2502219238898196;-9.3520;2.9216;-2.9506;
2502219249003717;-9.0455;2.8615;-2.2822;
2502219259110332;-9.0168;2.7179;-1.3337;
2502219269216946;-9.4789;2.7778;-1.2281;
2502219279315800;-9.8240;3.0652;-1.8559;
2502219289422415;-9.8169;3.1612;-2.5337;
2502219299529030;-9.4071;2.8232;-2.3109;
2502219309643196;-9.0838;2.7323;-2.2510;
2502219319749811;-9.2034;2.9599;-2.5648;
2502219329856425;-9.1723;2.6988;-1.9158;
2502219339981373;-9.3903;2.0614;-1.0534;
2502219350087988;-9.8958;2.1168;-1.4103;
2502219360194602;-9.7687;2.2531;-1.6164;
2502219370293300;-9.2034;1.9753;-1.2281;
2502219380399915;-8.9399;1.9250;-1.5613;
2502219390506530;-9.2513;2.1550;-2.2606;
2502219400579446;-9.0431;2.4951;-2.2989;
2502219410686061;-9.4119;2.6653;-2.0740;
2502219420792675;-9.5533;2.6533;-1.7815;
2502219430924550;-8.9590;2.6151;-1.3792;
2502219441031165;-8.8872;2.5908;-1.9349;
2502219451137780;-9.5701;2.6270;-3.0368;
2502219461246321;-9.7831;2.6797;-3.2548;
2502219471352936;-9.5028;2.7993;-3.0464;
2502219481459550;-9.2922;2.8184;-2.7900;
2502219491569863;-8.7485;2.6677;-2.2750;
2502219501676477;-8.6094;2.4760;-2.1242;
2502219511783092;-9.0383;2.3659;-2.0282;
2502219521853196;-9.9030;2.3417;-1.6929;
2502219531959811;-10.3292;2.3827;-1.6379;
2502219542066425;-9.7831;2.4329;-1.9564;
2502219552198873;-8.8561;2.3468;-2.4691;
2502219562305488;-8.4512;2.2747;-2.8475;
2502219572412102;-8.8155;2.1598;-2.7063;
2502219582500071;-9.4717;2.0112;-2.2606;
2502219592606686;-9.8886;1.9274;-1.7791;
2502219602713300;-9.7687;1.9657;-1.5972;
2502219612837207;-9.2779;2.3082;-2.0282;
2502219622943821;-8.8131;2.0207;-2.2104;
2502219633050436;-8.9207;1.9059;-2.3949;
2502219643165592;-9.5291;1.8652;-2.1936;
2502219653272207;-9.7041;1.9848;-1.6905;
2502219663378821;-9.5004;2.0495;-1.5733;
2502219673476009;-9.3879;2.1503;-2.3686;
2502219683582623;-9.1938;2.1550;-2.7876;
2502219693689238;-8.9925;2.1503;-2.5959;
2502219703792988;-9.2850;2.1263;-2.5696;
2502219713899602;-9.4837;2.0880;-2.4284;
2502219724006217;-9.1484;2.1263;-1.9301;
2502219734115280;-9.1364;2.3611;-1.9756;
2502219744221894;-9.3520;2.4712;-2.5433;
2502219754328509;-9.1747;2.5190;-2.5409;
2502219764443092;-8.9279;2.5789;-2.3614;
2502219774549707;-9.0861;2.7514;-2.4906;
2502219784656321;-9.3425;2.9384;-2.3133;
2502219794752467;-9.6969;3.0030;-2.2463;
2502219804859082;-9.7424;2.9504;-2.7206;
2502219814938509;-9.5510;2.7036;-2.9483;
2502219825045123;-9.0191;2.3994;-2.2558;
2502219835151738;-8.5041;2.4449;-1.5709;
2502219845293613;-8.7676;2.6557;-1.8535;
2502219855400227;-9.5315;2.8591;-2.2893;
2502219865506842;-9.6203;2.8065;-2.0402;
2502219875609967;-9.3616;2.7849;-2.2941;
2502219885716582;-9.1651;2.6438;-2.7805;
2502219895823196;-8.9423;2.2866;-2.4595;
2502219905912207;-9.2608;2.0904;-2.3423;
2502219916018821;-9.6538;2.1431;-2.7159;
2502219926125436;-9.3473;2.1957;-2.5792;
2502219936236790;-9.0455;2.2747;-2.2295;
2502219946343405;-9.3114;2.3393;-2.0569;
2502219956450019;-9.3975;2.2651;-1.8775;
2502219966568613;-9.3616;2.1263;-1.9660;
2502219976675227;-9.3305;2.0928;-2.2223;
2502219986781842;-9.5916;2.0040;-2.2582;
2502219996887884;-9.8049;1.9896;-1.8129;
2502220006994498;-9.1460;2.0471;-1.1037;
2502220017101113;-8.6740;1.9992;-1.3672;
2502220027249967;-9.3138;1.8700;-2.3180;
2502220037356582;-9.8504;1.5826;-2.0067;
2502220047463196;-9.6443;1.6137;-1.3887;
2502220057513196;-9.7065;1.7094;-1.9923;
2502220067619811;-9.8551;1.6543;-2.5337;
2502220077726425;-9.4167;1.6017;-1.9540;
2502220087838509;-9.0096;1.5491;-1.6020;
2502220097945123;-9.1316;1.4961;-2.0115;
2502220108051738;-9.4071;1.4243;-2.3853;
2502220118176634;-9.6060;1.3741;-2.3782;
2502220128283248;-9.5052;1.4387;-2.3686;
2502220138389863;-9.2898;1.6352;-2.5696;
2502220148490852;-9.1268;1.8413;-2.5816;
2502220158597467;-8.8298;1.9107;-2.4021;
2502220168704082;-8.8131;2.0447;-2.7781;
2502220178831113;-9.2297;2.1646;-3.0416;
2502220188937727;-9.0718;2.0710;-2.5146;
2502220199044342;-9.0024;2.0542;-2.5146;
2502220209123405;-9.2201;1.9729;-2.8140;
2502220219230019;-9.1005;1.7285;-2.6034;
2502220229336634;-9.2946;1.6902;-2.5241;
2502220239451842;-9.7663;1.8003;-2.7063;
2502220249558457;-9.7950;1.6735;-2.6465;
2502220259665071;-9.5773;1.4554;-2.4547;
2502220269759030;-9.0598;1.3406;-2.2487;
2502220279865644;-9.1388;1.3286;-2.3085;
2502220289972259;-9.3257;1.5897;-2.4284;
2502220300087467;-9.4597;1.9490;-2.6154;
2502220310194082;-9.4310;2.1479;-2.8211;
2502220320300696;-9.2393;2.2627;-2.6824;
2502220330398300;-9.4741;2.6198;-2.5337;
2502220340504915;-9.7065;3.0054;-2.1769;
2502220350611530;-9.6132;3.1636;-2.0812;
2502220360754550;-9.6323;2.9886;-2.0931;
2502220370861165;-9.4980;2.6868;-1.7384;
2502220380967780;-9.5100;2.6414;-1.5852;
2502220391049134;-9.6251;2.7467;-1.7360;
2502220401155748;-9.4621;2.6076;-1.8320;
2502220411262363;-9.1196;2.2412;-1.8559;
2502220421365905;-8.9303;1.8245;-2.0788;
2502220431472519;-9.4286;1.5081;-2.4165;
2502220441579134;-9.6849;1.1489;-2.3157;
2502220451694446;-10.2742;0.9093;-2.1553;
2502220461801061;-10.1163;0.7825;-1.5494;
2502220471907675;-9.0622;1.0388;-1.3935;
2502220481999967;-8.8825;1.1154;-1.6164;
2502220492106582;-9.3975;0.9643;-1.6666;
2502220502213196;-9.5892;1.1800;-1.7169;
2502220512312780;-9.7998;1.3621;-1.8344;
2502220522419394;-9.9676;1.5610;-1.4773;
2502220532526009;-9.6586;1.8532;-0.9455;
2502220542638821;-9.2632;1.9035;-1.0487;
2502220552745436;-9.2922;1.8676;-1.7910;
2502220562852050;-9.3305;1.7572;-2.2678;
2502220572969446;-8.8968;1.7022;-2.3037;
2502220583076061;-9.0455;1.2087;-2.5792;
2502220593182675;-9.7113;0.7442;-3.0894;
2502220603291217;-9.6921;0.5764;-2.8789;
2502220613397832;-9.2922;0.6434;-2.7039;
2502220623504446;-9.2850;0.8064;-2.8956;
2502220633589446;-9.2225;0.7442;-2.5624;
2502220643696061;-8.9853;0.5620;-2.1984;
2502220653802675;-9.1531;0.5189;-2.3901;
2502220663914446;-9.9437;0.5453;-2.4906;
2502220674021061;-10.1665;0.3464;-1.7767;
2502220684127675;-9.8551;0.3105;-1.3600;
2502220694238717;-9.5315;0.8997;-1.5972;
2502220704345332;-9.1723;1.3717;-1.7575;
2502220714451946;-9.2560;0.9332;-1.7264;
2502220724572155;-9.7041;1.2206;-2.3758;
2502220734678769;-9.5219;0.8901;-1.9708;
2502220744785384;-9.3951;0.5118;-1.9181;
2502220754877780;-9.4980;0.4134;-2.0716;
2502220764984394;-9.7161;0.4950;-1.8846;
2502220775091009;-10.1761;0.6936;-2.0498;
2502220785207259;-10.2766;0.2506;-2.1840;
2502220795313873;-10.4659;-0.2644;-2.3877;
2502220805420488;-10.1498;-0.7388;-1.8081;
2502220815527050;-8.9040;-0.7962;-0.9960;
2502220825633665;-8.7413;-0.4155;-1.2449;
2502220835740280;-9.4430;-0.3963;-1.4892;
2502220845820592;-9.8910;-0.0826;-1.5948;
2502220855927207;-9.9365;-0.0559;-1.5422;
2502220866033821;-9.8360;0.3153;-1.7767;
2502220876143821;-9.7902;0.2674;-1.4222;
2502220886250436;-9.7759;0.4831;-1.5350;
2502220896357050;-9.6897;1.1919;-1.8894;
2502220906461946;-9.5510;0.7896;-1.7169;
2502220916568561;-9.4741;0.8016;-1.6738;
2502220926675175;-9.4813;1.2951;-1.6331;
2502220936793196;-9.5701;1.5849;-1.5036;
2502220946899811;-9.6993;1.6639;-1.4438;
2502220957006425;-9.7998;1.1010;-1.2329;
2502220967090592;-9.8408;1.1106;-1.5637;
2502220977197207;-9.7663;1.5272;-1.7671;
2502220987303821;-9.7615;1.2565;-1.6068;
2502220997424759;-9.8121;1.0603;-1.5446;
2502221007531373;-9.6515;1.0747;-1.4366;
2502221017637988;-9.7519;1.1752;-1.4462;
2502221027734342;-9.8886;1.2832;-1.5948;
2502221037840957;-9.6993;1.3645;-1.6211;
2502221047947571;-9.5390;1.4267;-1.6451;
2502221058059655;-9.5868;1.3908;-1.6977;
2502221068166269;-9.5988;1.4602;-1.5781;
2502221078272884;-9.5533;1.7429;-1.6020;
2502221088387050;-9.5773;2.0761;-1.7623;
2502221098493665;-9.5821;2.2842;-1.7838;
2502221108600280;-9.5533;2.0928;-1.7551;
2502221118708405;-9.5773;1.7237;-1.7599;
2502221128815019;-9.6203;1.6998;-1.8918;
2502221138921634;-9.6849;1.9537;-1.9732;
2502221149045384;-9.7448;1.9825;-1.8296;
2502221159151998;-9.6993;1.7740;-1.6020;
2502221169258613;-9.5629;1.8245;-1.6546;
2502221179339967;-9.4143;2.1981;-1.7623;
2502221189446582;-9.4167;2.4808;-1.8224;
2502221199553196;-9.5557;2.3587;-1.7961;
2502221209666217;-9.6060;2.0928;-1.7408;
2502221219772832;-9.5533;2.0662;-1.7985;
2502221229879446;-9.4669;2.2101;-1.8081;
2502221240004134;-9.3712;2.3106;-1.7503;
2502221250110748;-9.3879;2.3515;-1.6929;
2502221260217363;-9.6227;2.4042;-1.6738;
2502221270306946;-9.6419;2.2555;-1.7886;
2502221280413561;-9.5366;1.9633;-1.8607;
2502221290520175;-9.4621;1.6208;-1.8153;
2502221300638717;-9.4095;1.3119;-1.7360;
2502221310745332;-9.3975;1.2494;-1.7025;
2502221320851946;-9.5315;1.4746;-1.7001;
2502221330963769;-9.6012;1.9250;-1.8224;
2502221341070384;-9.7232;1.8867;-1.5302;
2502221351176998;-9.6586;1.8508;-1.8368;
2502221361274030;-9.4932;1.7955;-2.1266;
2502221371380644;-9.2106;1.2760;-2.3252;
2502221381487259;-9.3760;0.9667;-2.2822;
2502221391601321;-9.5725;1.0436;-2.0617;
2502221401707936;-9.6084;1.5009;-1.8607;
2502221411814550;-9.5988;1.5921;-1.5996;
2502221421911425;-9.5291;1.4698;-1.5996;
2502221432018040;-9.5557;1.2855;-1.7288;
2502221442124655;-9.6778;1.3597;-1.9229;
2502221452235800;-9.6395;1.2206;-2.1960;
2502221462342415;-9.4286;0.9954;-2.1673;
2502221472449030;-9.1938;0.8279;-2.1003;
2502221482566373;-9.3377;0.4998;-2.3423;
2502221492672988;-9.5004;0.3823;-2.3518;
2502221502779602;-9.6515;0.4516;-2.3471;
2502221512870696;-9.5725;0.6553;-2.4356;
2502221522977311;-9.4669;0.9787;-2.3447;
2502221533083925;-9.5486;1.1058;-2.2152;
2502221543189238;-9.6371;0.8614;-2.4452;
2502221553295852;-9.4741;0.5788;-2.7757;
2502221563402467;-9.1675;0.5094;-2.7517;
2502221573526686;-9.0885;0.5524;-2.5289;
2502221583633300;-9.3664;0.6721;-2.0907;
2502221593739915;-9.5557;0.8853;-1.7360;
2502221603835800;-9.6538;1.0460;-1.6092;
2502221613942415;-9.6778;0.9141;-1.6475;
2502221624049030;-9.4693;0.6362;-1.9110;
2502221634143925;-9.2755;0.5118;-2.0019;
2502221644250540;-9.4908;0.6147;-1.9828;
2502221654357155;-10.0947;0.9835;-1.9899;
2502221664469134;-10.4755;1.3836;-1.8200;
2502221674575748;-10.2646;1.7716;-1.8368;
2502221684682363;-9.5821;2.0303;-2.1123;
2502221694792571;-8.9399;2.2268;-2.4236;
2502221704899186;-8.7027;2.3010;-2.5289;
2502221715005800;-8.9542;2.1598;-2.4500;
2502221725105280;-9.3736;2.1933;-2.4188;
2502221735211894;-9.5219;2.1574;-2.4069;
2502221745318509;-9.3425;2.1144;-2.3375;
2502221755430071;-9.1173;2.1479;-2.4380;
2502221765536686;-9.1125;2.3225;-2.5098;
2502221775643300;-9.1890;2.5262;-2.3180;
2502221785749238;-9.3425;2.6605;-2.2367;
2502221795855852;-9.4956;2.7849;-2.2271;
2502221805939759;-9.4478;2.7730;-2.1625;
2502221816046373;-9.3329;2.7156;-2.2319;
2502221826152988;-9.3712;2.8304;-2.4691;
2502221836279446;-9.3855;2.7108;-2.4165;
2502221846386061;-9.3568;2.6390;-2.3662;
2502221856492675;-9.3114;2.6318;-2.4835;
2502221866595592;-9.2683;2.7108;-2.4978;
2502221876702207;-9.2345;2.7897;-2.4069;
2502221886808821;-9.2707;2.7323;-2.4691;
2502221896920488;-9.2994;2.5214;-2.5002;
2502221907027102;-9.3114;2.3417;-2.4380;
2502221917133717;-9.3042;2.2388;-2.4188;
2502221927253821;-9.2922;2.1814;-2.4691;
2502221937360436;-9.2106;2.1048;-2.5600;
2502221947467050;-9.2513;1.9896;-2.6082;
2502221957539134;-9.3616;1.7213;-2.5768;
2502221967645748;-9.4860;1.4865;-2.5361;
2502221977752363;-9.4286;1.2159;-2.5002;
2502221987873092;-9.2970;1.0555;-2.5839;
2502221997979707;-9.2369;0.8830;-2.6824;
2502222008086321;-9.3257;0.6649;-2.7039;
2502222018203769;-9.4549;0.3655;-2.7159;
2502222028310384;-9.4621;0.1187;-2.6201;
2502222038416998;-9.4334;-0.0200;-2.4787;
2502222048510957;-9.4669;-0.0105;-2.4117;
2502222058617571;-9.4621;0.0470;-2.3276;
2502222068724186;-9.4765;0.0541;-2.3375;
2502222078833873;-9.4908;-0.0296;-2.3303;
2502222088940488;-9.5243;-0.2022;-2.3447;
2502222099047102;-9.5219;-0.2070;-2.3710;
2502222109158509;-9.5315;-0.2285;-2.3085;
2502222119265123;-9.5219;-0.1783;-2.2702;
2502222129371738;-9.5342;-0.0488;-2.4212;
2502222139468040;-9.5533;-0.0224;-2.4571;
2502222149574655;-9.5291;0.0182;-2.3925;
2502222159681269;-9.5291;0.1522;-2.2893;
2502222169809238;-9.5510;0.2865;-2.2080;
2502222179915852;-9.5195;0.4516;-2.1266;
2502222190022467;-9.5195;0.6673;-2.1290;
2502222200122884;-9.5462;0.8806;-2.1553;
2502222210229498;-9.4645;1.0866;-2.0402;
2502222220336113;-9.4621;1.2326;-1.9134;
2502222230431842;-9.5315;1.3717;-1.8942;
2502222240538457;-9.4741;1.3741;-1.8775;
2502222250645071;-9.3616;1.3860;-1.9971;
2502222260756321;-9.4358;1.4841;-2.2654;
2502222270862936;-9.5581;1.6950;-2.4930;
2502222280969550;-9.6251;1.8317;-2.6393;
2502222291085800;-9.5195;1.8580;-2.6608;
2502222301192415;-9.3377;1.8508;-2.5648;
2502222311299030;-9.2489;1.9059;-2.4739;
2502222321395123;-9.3281;1.9298;-2.4236;
2502222331501738;-9.3927;1.9394;-2.4547;
2502222341608352;-9.3808;1.9011;-2.5552;
2502222351716634;-9.3066;1.9657;-2.6943;
2502222361823248;-9.2489;1.9992;-2.7494;
2502222371929863;-9.3257;1.9968;-2.7852;
2502222382034967;-9.3592;2.0399;-2.7470;
2502222392141582;-9.3425;2.0040;-2.6776;
2502222402248196;-9.3329;1.8843;-2.5552;
2502222412361321;-9.3664;1.7189;-2.4595;
2502222422467936;-9.4095;1.5105;-2.4236;
2502222432574550;-9.4908;1.3478;-2.3973;
2502222442694655;-9.5342;1.1800;-2.3327;
2502222452801269;-9.4908;1.0340;-2.1434;
2502222462907884;-9.4813;0.8949;-1.9828;
2502222472984550;-9.5342;0.8303;-1.9732;
2502222483091165;-9.5916;0.8949;-1.9732;
2502222493197780;-9.6036;0.9476;-2.0067;
2502222503306321;-9.5845;0.9500;-1.9684;
2502222513412936;-9.5940;0.8327;-1.8272;
2502222523519550;-9.6156;0.7490;-1.6642;
2502222533643509;-9.6419;0.7681;-1.6187;
2502222543750123;-9.6538;0.9045;-1.6235;
2502222553856738;-9.6562;1.0460;-1.6857;
2502222563935071;-9.6634;1.1321;-1.7216;
2502222574041686;-9.6658;1.0149;-1.6666;
2502222584148300;-9.7280;0.8423;-1.5156;
2502222594270488;-9.7472;0.6529;-1.3576;
2502222604377102;-9.7831;0.6123;-1.3385;
2502222614483717;-9.7759;0.6553;-1.3959;
2502222624584655;-9.7208;0.6888;-1.4605;
2502222634691269;-9.6491;0.6458;-1.4557;
2502222644797884;-9.6419;0.5812;-1.4773;
2502222654918717;-9.6467;0.5070;-1.5805;
2502222665025332;-9.6299;0.5429;-1.6714;
2502222675131946;-9.6012;0.5429;-1.7719;
2502222685235071;-9.6227;0.5716;-1.8296;
2502222695341686;-9.5916;0.6769;-1.9205;
2502222705448300;-9.5267;0.8279;-2.1027;
2502222715552884;-9.5315;0.8183;-2.1769;
2502222725659498;-9.5390;0.8136;-2.2128;
2502222735766113;-9.5004;0.8327;-2.2271;
2502222745869863;-9.4454;0.8949;-2.2606;
2502222755976477;-9.4525;0.9308;-2.3085;
2502222766083092;-9.4765;1.0002;-2.3518;
2502222776183873;-9.4621;1.1512;-2.4021;
2502222786290488;-9.4502;1.2350;-2.4021;
2502222796397102;-9.4478;1.3047;-2.4141;
2502222806498092;-9.4406;1.3095;-2.4619;
2502222816604759;-9.4334;1.3382;-2.4260;
2502222826711425;-9.4071;1.3884;-2.4117;
2502222836814550;-9.4071;1.4339;-2.4141;
2502222846921113;-9.4095;1.4865;-2.3949;
2502222857027780;-9.4310;1.5443;-2.4428;
2502222867134394;-9.4334;1.5945;-2.4188;
2502222877267675;-9.4214;1.6615;-2.3853;
2502222887374342;-9.4358;1.7022;-2.3686;
2502222897481009;-9.4621;1.7213;-2.3157;
2502222907558717;-9.4621;1.7524;-2.2104;
2502222917665384;-9.4789;1.7620;-2.1218;
2502222927772050;-9.4813;1.7453;-2.0258;
2502222937878509;-9.4741;1.7142;-1.9469;
2502222947985175;-9.4813;1.7477;-1.9110;
2502222958091842;-9.5124;1.7166;-1.8846;
2502222968222988;-9.5533;1.6376;-1.8823;
2502222978329655;-9.5557;1.5368;-1.8823;
2502222988436321;-9.5315;1.4483;-1.8392;
2502222998526634;-9.5533;1.3382;-1.8224;
2502223008633300;-9.5533;1.3047;-1.8416;
2502223018739967;-9.5533;1.2832;-1.9134;
2502223028846946;-9.5267;1.2808;-1.9660;
2502223038953613;-9.5004;1.2015;-2.0354;
2502223049060280;-9.5100;1.0603;-2.0740;
2502223059167571;-9.5195;0.9332;-2.0979;
2502223069274238;-9.5414;0.8542;-2.0859;
2502223079380905;-9.5291;0.7777;-2.0330;
2502223089496842;-9.5342;0.7585;-2.0354;
2502223099603509;-9.5291;0.7705;-2.0740;
2502223109710175;-9.5052;0.7753;-2.1410;
2502223119812363;-9.5124;0.7705;-2.1577;
2502223129919030;-9.4932;0.7753;-2.1434;
2502223140025696;-9.4980;0.8375;-2.1721;
2502223150118717;-9.5124;0.8566;-2.1936;
2502223160225384;-9.5315;0.8830;-2.2080;
2502223170332050;-9.5581;0.8853;-2.1745;
2502223180441738;-9.5438;0.8614;-2.1194;
2502223190548405;-9.5581;0.9643;-2.0931;
2502223200655071;-9.5581;1.0986;-2.0258;
2502223210771321;-9.5342;1.2182;-1.9086;
2502223220877988;-9.5124;1.2903;-1.8511;
2502223230984655;-9.5243;1.3430;-1.9014;
2502223241098405;-9.5148;1.4100;-1.8990;
2502223251205071;-9.5243;1.5129;-1.9301;
2502223261311738;-9.5243;1.5849;-1.9516;
2502223271403821;-9.5315;1.6615;-1.9301;
2502223281510488;-9.4956;1.7548;-1.9205;
2502223291617155;-9.4980;1.8485;-1.8942;
2502223301731217;-9.4837;1.8939;-1.9014;
2502223311837884;-9.4765;1.9466;-1.9708;
2502223321944550;-9.4860;1.9466;-1.9923;
2502223332057155;-9.4693;1.9250;-1.9325;
2502223342163821;-9.4980;1.9035;-1.8751;
2502223352270488;-9.5148;1.8341;-1.8224;
2502223362358300;-9.5100;1.7979;-1.7862;
2502223372464967;-9.4860;1.7836;-1.8129;
2502223382571634;-9.5028;1.6926;-1.8081;
2502223392694238;-9.5004;1.6567;-1.8416;
2502223402800905;-9.4813;1.6472;-1.8751;
2502223412907571;-9.4669;1.5634;-1.9110;
2502223423018717;-9.4717;1.4841;-1.9349;
2502223433125384;-9.4813;1.3932;-1.9612;
2502223443232050;-9.5100;1.3621;-1.9971;
2502223453308613;-9.5124;1.3167;-2.0067;
2502223463415280;-9.5028;1.2709;-2.0163;
2502223473521946;-9.5267;1.2302;-2.0378;
2502223483668405;-9.5243;1.2087;-2.0210;
2502223493775071;-9.4932;1.2039;-1.9923;
2502223503881738;-9.5315;1.1919;-1.9828;
2502223513972467;-9.5557;1.1991;-1.9612;
2502223524079134;-9.5533;1.1967;-1.9373;
2502223534185800;-9.5028;1.2039;-1.9564;
2502223544286113;-9.4980;1.2302;-1.9445;
2502223554392780;-9.5533;1.2422;-1.9612;
2502223564499446;-9.5725;1.2613;-1.9229;
2502223574590488;-9.5701;1.2446;-1.9349;
2502223584697155;-9.5366;1.2637;-1.9229;
2502223594803821;-9.5219;1.2784;-1.8942;
2502223604919967;-9.5052;1.2927;-1.9301;
2502223615026634;-9.4980;1.3669;-1.9708;
2502223625133300;-9.5267;1.4219;-1.9780;
2502223635245384;-9.5004;1.4411;-1.9899;
2502223645352050;-9.4980;1.4483;-2.0091;
2502223655458717;-9.5028;1.4530;-2.0234;
2502223665564446;-9.4789;1.4650;-2.0378;
2502223675671113;-9.4765;1.4554;-2.0644;
2502223685777780;-9.4908;1.4554;-2.1123;
2502223695890384;-9.5028;1.4554;-2.1601;
2502223705997050;-9.4860;1.4435;-2.1482;
2502223716103717;-9.4621;1.4459;-2.1721;
2502223726206738;-9.4525;1.4195;-2.2080;
2502223736313405;-9.4549;1.3813;-2.1649;
2502223746420071;-9.4597;1.3502;-2.1577;
2502223756513040;-9.4525;1.3286;-2.1745;
2502223766619707;-9.4693;1.3358;-2.1410;
2502223776726373;-9.4502;1.3190;-2.1721;
2502223786857102;-9.4741;1.3071;-2.2080;
2502223796963769;-9.4813;1.2999;-2.2247;
2502223807070436;-9.4597;1.3095;-2.2104;
2502223817177988;-9.4262;1.2832;-2.2104;
2502223827284759;-9.3951;1.2230;-2.1960;
2502223837391477;-9.4334;1.1441;-2.1960;
2502223847489759;-9.4693;1.0747;-2.2798;
2502223857596530;-9.5028;0.9835;-2.2630;
2502223867703248;-9.5195;0.9476;-2.2798;
2502223877825175;-9.5510;0.8614;-2.2630;
2502223887931946;-9.5773;0.7442;-2.2510;
2502223898038665;-9.5725;0.7008;-2.2128;
2502223908114134;-9.6036;0.7247;-2.2199;
2502223918220905;-9.5964;0.7537;-2.2175;
2502223928327623;-9.5845;0.8255;-2.1912;
2502223938450123;-9.5462;0.8542;-2.1386;
2502223948556894;-9.4884;0.8590;-2.1410;
2502223958663613;-9.4813;0.8710;-2.0740;
2502223968764134;-9.5414;0.8901;-2.0788;
2502223978870905;-9.5390;0.9308;-2.0979;
2502223988977623;-9.5557;0.9858;-2.1075;
2502223999083405;-9.5124;1.0795;-2.1051;
2502224009190175;-9.5004;1.1752;-2.1529;
2502224019296894;-9.5462;1.3047;-2.2558;
2502224029402155;-9.5414;1.3406;-2.2343;
2502224039508925;-9.4884;1.3741;-2.1745;
2502224049615644;-9.4980;1.4219;-2.1529;
2502224059712050;-9.4860;1.5057;-2.1027;
2502224069818821;-9.4645;1.5586;-2.1003;
2502224079925540;-9.4837;1.6184;-2.1218;
2502224090053457;-9.4525;1.5969;-2.0740;
2502224100160227;-9.4358;1.5969;-2.0378;
2502224110266946;-9.4310;1.5849;-2.0306;
2502224120336425;-9.4837;1.5562;-2.0067;
2502224130443196;-9.4956;1.5129;-1.9684;
2502224140549915;-9.5148;1.4961;-1.9947;
2502224150690175;-9.5052;1.4148;-2.0139;
2502224160796946;-9.4980;1.3765;-2.0593;
2502224170903665;-9.5195;1.3143;-2.0668;
2502224180989238;-9.5243;1.2541;-2.0521;
2502224191096009;-9.5315;1.2135;-2.0091;
2502224201202727;-9.5629;1.1776;-2.0139;
2502224211323509;-9.5510;1.1584;-1.9828;
2502224221430280;-9.4980;1.1177;-2.0258;
2502224231536998;-9.5366;1.1177;-2.0115;
2502224241636217;-9.5486;1.1010;-2.0330;
2502224251742988;-9.5462;1.1106;-2.0378;
2502224261849707;-9.5462;1.1273;-2.0402;
2502224271953040;-9.5124;1.1154;-2.0306;
2502224282059811;-9.4789;1.0747;-2.0521;
2502224292166530;-9.4956;1.0795;-2.0617;
2502224302297155;-9.5462;1.0962;-2.1075;
2502224312403873;-9.5605;1.1297;-2.1482;
2502224322510644;-9.5100;1.1752;-2.1505;
2502224332595800;-9.4908;1.2039;-2.1553;
2502224342702571;-9.4765;1.2230;-2.1386;
2502224352809290;-9.4765;1.2374;-2.1721;
2502224362928925;-9.4884;1.2326;-2.1625;
2502224373035696;-9.4837;1.2661;-2.1625;
2502224383142415;-9.4980;1.2784;-2.1649;
2502224393238613;-9.4717;1.2879;-2.1482;
2502224403345384;-9.4525;1.2999;-2.1793;
2502224413452102;-9.4908;1.3454;-2.1817;
2502224423552571;-9.4860;1.3119;-2.1888;
2502224433659342;-9.4789;1.2494;-2.1529;
2502224443766061;-9.4789;1.2446;-2.1290;
2502224453887884;-9.4837;1.2350;-2.1410;
2502224463994655;-9.4645;1.2422;-2.1553;
2502224474101373;-9.4837;1.2182;-2.2032;
2502224484209759;-9.5148;1.1824;-2.1960;
2502224494316530;-9.4837;1.1680;-2.1817;
2502224504423248;-9.4645;1.1536;-2.1936;
2502224514514446;-9.4908;1.1752;-2.1529;
2502224524621217;-9.4813;1.1536;-2.1410;
2502224534727936;-9.5052;1.1393;-2.1362;
2502224544838925;-9.4956;1.1824;-2.1242;
2502224554945696;-9.4645;1.1847;-2.1242;
2502224565052415;-9.4669;1.1608;-2.1362;
2502224575154655;-9.4860;1.1656;-2.1266;
2502224585261425;-9.4956;1.1393;-2.1123;
2502224595368144;-9.5148;1.1489;-2.1123;
2502224605497675;-9.4908;1.1656;-2.0668;
2502224615604446;-9.5124;1.1560;-2.0788;
2502224625711165;-9.5052;1.1225;-2.1266;
2502224635798457;-9.5390;1.0771;-2.1314;
2502224645905227;-9.5653;1.0364;-2.1577;
2502224656011946;-9.5892;1.0149;-2.0931;
2502224666112884;-9.5677;0.9978;-2.0859;
2502224676219655;-9.5315;0.9906;-2.0740;
2502224686326373;-9.5462;0.9811;-2.0569;
2502224696432988;-9.5462;0.9715;-2.0282;
2502224706539759;-9.5390;0.9619;-1.9875;
2502224716646477;-9.5462;0.9356;-1.9851;
2502224726785123;-9.5557;0.8901;-1.9851;
2502224736891894;-9.5797;0.8638;-1.9708;
2502224746998613;-9.5940;0.8471;-1.9995;
2502224757059446;-9.5605;0.8255;-2.0210;
2502224767166165;-9.5605;0.8112;-2.0234;
2502224777272936;-9.5749;0.7968;-2.0617;
2502224787397675;-9.5605;0.7705;-2.0593;
2502224797504446;-9.5797;0.7442;-2.0764;
2502224807611165;-9.5581;0.7152;-2.0764;
2502224817706217;-9.5629;0.6984;-2.0907;
2502224827812675;-9.5653;0.6864;-2.0979;
2502224837919082;-9.5940;0.6577;-2.1051;
2502224848045957;-9.5892;0.6697;-2.0955;
2502224858152415;-9.5629;0.6649;-2.1051;
2502224868258821;-9.5533;0.6697;-2.1242;
2502224878360123;-9.5557;0.6673;-2.1147;
2502224888466582;-9.5653;0.6673;-2.1529;
2502224898572988;-9.5557;0.6936;-2.1769;
2502224908694030;-9.5291;0.7175;-2.1434;
2502224918800488;-9.5581;0.7271;-2.1123;
2502224928906894;-9.5749;0.7753;-2.1027;
2502224938985384;-9.5414;0.8662;-2.1147;
2502224949091842;-9.5581;0.9404;-2.1458;
2502224959198248;-9.5462;0.9835;-2.1338;
2502224969311217;-9.5124;1.0125;-2.1338;
2502224979417675;-9.4741;1.0388;-2.1529;
2502224989524082;-9.4741;1.0819;-2.1529;
2502224999628300;-9.4717;1.0866;-2.1482;
2502225009734759;-9.4813;1.0675;-2.1673;
2502225019841165;-9.5195;1.0484;-2.1793;
2502225029953405;-9.5315;1.0196;-2.1553;
2502225040059863;-9.5315;0.9811;-2.1721;
2502225050166269;-9.5438;0.9547;-2.1505;
2502225060264759;-9.5486;0.9452;-2.1194;
2502225070371217;-9.5438;0.9212;-2.1194;
2502225080477623;-9.5725;0.9117;-2.0979;
2502225090590384;-9.5797;0.8399;-2.0498;
2502225100696842;-9.5486;0.7801;-2.0306;
2502225110803248;-9.5605;0.7896;-2.0115;
2502225120880488;-9.5390;0.7848;-2.0067;
2502225130986946;-9.5510;0.7295;-2.0378;
2502225141093352;-9.5916;0.7175;-2.0450;
2502225151228613;-9.5892;0.7223;-2.0521;
2502225161335071;-9.5964;0.7128;-2.0692;
2502225171441477;-9.5988;0.7319;-2.0617;
2502225181558196;-9.5868;0.7199;-2.0019;
2502225191664655;-9.5964;0.7080;-1.9158;
2502225201771061;-9.6036;0.6936;-1.8511;
2502225211877675;-9.6108;0.6984;-1.8368;
2502225221984134;-9.5868;0.6817;-1.8631;
2502225232090540;-9.5868;0.6721;-1.8918;
2502225242188405;-9.5845;0.6553;-1.9540;
2502225252294863;-9.5677;0.7175;-1.9947;
2502225262401269;-9.5629;0.8136;-2.0812;
2502225272508092;-9.5605;0.9021;-2.1075;
2502225282614550;-9.5629;0.8997;-2.0593;
2502225292720957;-9.5486;0.8590;-2.0668;
2502225302827884;-9.5315;0.8686;-2.0692;
2502225312934342;-9.5749;0.8590;-2.0788;
2502225323040748;-9.5486;0.8806;-2.1123;
2502225333167780;-9.5219;0.8758;-2.1338;
2502225343274238;-9.5366;0.8830;-2.1170;
2502225353380644;-9.5366;0.9045;-2.1123;
2502225363457988;-9.5438;0.9117;-2.1242;
2502225373564446;-9.5533;0.9308;-2.1314;
2502225383670852;-9.5390;0.9356;-2.1194;
2502225393793457;-9.5100;0.9356;-2.1625;
2502225403899915;-9.5172;0.9500;-2.1817;
2502225414006321;-9.5315;0.9236;-2.2128;
2502225424112207;-9.5219;0.9284;-2.2391;
2502225434218665;-9.4908;0.9188;-2.2439;
2502225444325071;-9.4932;0.8901;-2.2008;
2502225454435800;-9.5004;0.9045;-2.1888;
2502225464542259;-9.5267;0.9308;-2.2175;
2502225474648665;-9.5486;0.9691;-2.1984;
2502225484753821;-9.5291;1.0101;-2.1840;
2502225494860280;-9.4860;1.0244;-2.2104;
2502225504966686;-9.5004;1.0220;-2.2104;
2502225515078821;-9.5195;1.0220;-2.1482;
2502225525185280;-9.5414;1.0364;-2.0955;
2502225535291686;-9.5462;1.0268;-2.0668;
2502225545393613;-9.5148;1.0172;-2.0402;
2502225555500071;-9.5124;1.0196;-2.0426;
2502225565606477;-9.5267;1.0412;-2.0498;
2502225575713457;-9.5148;1.0531;-2.0764;
2502225585819915;-9.5076;1.1034;-2.0668;
2502225595926321;-9.4980;1.1273;-2.0521;
2502225606048509;-9.5172;1.1321;-2.0521;
2502225616154967;-9.5438;1.1465;-2.0859;
2502225626261373;-9.5486;1.1489;-2.0836;
2502225636354967;-9.5291;1.1393;-2.0788;
2502225646461425;-9.5100;1.1130;-2.0593;
2502225656567832;-9.5342;1.0986;-2.0330;
2502225666665123;-9.5315;1.1273;-2.0474;
2502225676771582;-9.5342;1.1297;-2.0258;
2502225686877988;-9.5172;1.1154;-2.0234;
2502225696985071;-9.5172;1.0986;-2.0740;
2502225707091530;-9.5557;1.0699;-2.0668;
2502225717197936;-9.5797;1.0149;-2.0617;
2502225727310488;-9.5653;1.0101;-2.0019;
2502225737416946;-9.5629;1.0125;-1.9804;
2502225747523352;-9.5677;1.0484;-1.9923;
2502225757607259;-9.5243;1.0699;-1.9708;
2502225767713717;-9.5533;1.0675;-1.9325;
2502225777820123;-9.5486;1.0484;-1.9397;
2502225787928821;-9.5219;0.9906;-1.9564;
2502225798035280;-9.5342;0.9212;-2.0186;
2502225808141686;-9.5629;0.8566;-2.0644;
2502225818277467;-9.5414;0.7968;-2.0931;
2502225828384134;-9.5148;0.7801;-2.1242;
2502225838490852;-9.5004;0.7729;-2.1817;
2502225848611842;-9.5100;0.7513;-2.2032;
2502225858718509;-9.5462;0.7825;-2.2128;
2502225868825227;-9.5845;0.7825;-2.2295;
2502225878901113;-9.5749;0.7442;-2.2463;
2502225889007780;-9.5605;0.7561;-2.2128;
2502225899114498;-9.5195;0.7825;-2.1888;
2502225909224863;-9.5219;0.8638;-2.1458;
2502225919331530;-9.5315;0.9715;-2.1482;
2502225929438248;-9.5267;1.0938;-2.1625;
2502225939529655;-9.4956;1.2015;-2.1793;
2502225949636321;-9.4765;1.2808;-2.1553;
2502225959743040;-9.4765;1.3382;-2.1051;
2502225969861113;-9.4884;1.4219;-2.0955;
2502225979967780;-9.4717;1.5272;-2.0979;
2502225990074498;-9.4478;1.6184;-2.1123;
2502226000184238;-9.4262;1.7453;-2.1051;
2502226010290905;-9.4358;1.8437;-2.0883;
2502226020397623;-9.4669;1.9178;-2.1003;
2502226030500905;-9.4573;2.0016;-2.1242;
2502226040607571;-9.4406;2.0447;-2.0836;
2502226050714290;-9.3903;2.0231;-2.0716;
2502226060824134;-9.4310;2.0016;-2.0907;
2502226070930800;-9.4478;1.9705;-2.1266;
2502226081037519;-9.4669;1.9394;-2.1147;
2502226091166634;-9.4669;1.8772;-2.1482;
2502226101273300;-9.4430;1.8173;-2.1505;
2502226111380019;-9.4334;1.7788;-2.1314;
2502226121463613;-9.4549;1.7213;-2.1625;
2502226131570280;-9.4980;1.7070;-2.2056;
2502226141676998;-9.5219;1.6711;-2.2223;
2502226151785488;-9.4549;1.5921;-2.2175;
2502226161892155;-9.3903;1.5081;-2.1864;
2502226171998873;-9.3999;1.3860;-2.1793;
2502226182103509;-9.4549;1.2951;-2.1434;
2502226192210175;-9.5581;1.2063;-2.1170;
2502226202316894;-9.5821;1.0436;-2.0234;
2502226212426217;-9.5291;0.9811;-1.9636;
2502226222532884;-9.5243;1.0436;-1.9947;
2502226232639602;-9.5342;1.1010;-2.0716;
2502226242751009;-9.5148;1.1034;-2.0812;
2502226252857675;-9.5510;1.0340;-2.0668;
2502226262964394;-9.6036;0.9619;-1.9756;
2502226273056634;-9.5940;0.9308;-1.8846;
2502226283163300;-9.5629;0.9188;-1.8248;
2502226293270019;-9.5557;0.9212;-1.8105;
2502226303374238;-9.5773;0.9739;-1.7743;
2502226313480905;-9.5988;1.0388;-1.7695;
2502226323587623;-9.6060;1.0651;-1.7527;
2502226333709759;-9.5892;1.1058;-1.7360;
2502226343816425;-9.5988;1.1536;-1.7264;
2502226353923144;-9.5988;1.1752;-1.7073;
2502226364006634;-9.5845;1.1847;-1.6834;
2502226374113300;-9.5892;1.2278;-1.6762;
2502226384220019;-9.5940;1.2565;-1.6834;
2502226394342259;-9.5892;1.2999;-1.7049;
2502226404448925;-9.5868;1.3358;-1.7384;
2502226414555644;-9.6036;1.3789;-1.7240;
2502226424668040;-9.5773;1.3573;-1.7336;
2502226434774707;-9.5964;1.3382;-1.6905;
2502226444881425;-9.5821;1.3717;-1.6594;
2502226454981894;-9.5845;1.4052;-1.6403;
2502226465088561;-9.5845;1.4219;-1.6235;
2502226475195280;-9.5653;1.4483;-1.5852;
2502226485308509;-9.5821;1.4746;-1.5948;
2502226495415175;-9.5845;1.4818;-1.5972;
2502226505521894;-9.5797;1.4794;-1.6211;
2502226515633925;-9.5988;1.4961;-1.6283;
2502226525740592;-9.5868;1.5443;-1.6762;
2502226535847311;-9.5533;1.5153;-1.7192;
2502226545938300;-9.5533;1.4818;-1.6953;
2502226556044967;-9.5677;1.4722;-1.6714;
2502226566151686;-9.5677;1.4363;-1.7264;
2502226576260696;-9.5845;1.4411;-1.7169;
2502226586367363;-9.5605;1.4100;-1.7599;
2502226596474082;-9.5557;1.3932;-1.7743;
2502226606586217;-9.5605;1.3669;-1.8200;
2502226616692884;-9.5653;1.3430;-1.8344;
2502226626799602;-9.5557;1.3430;-1.8559;
2502226636902259;-9.5581;1.3573;-1.8679;
2502226647008925;-9.5438;1.3143;-1.8679;
2502226657115644;-9.5366;1.3095;-1.8918;
2502226667265280;-9.5414;1.2808;-1.8775;
2502226677371946;-9.5315;1.2541;-1.9158;
2502226687478665;-9.5414;1.2517;-1.9421;
2502226697531425;-9.5243;1.2350;-1.9253;
2502226707638092;-9.5462;1.2182;-1.9205;
2502226717744811;-9.5462;1.2254;-1.9397;
2502226727868925;-9.5366;1.2230;-1.9732;
2502226737975592;-9.5510;1.2565;-1.9684;
2502226748082311;-9.5462;1.2278;-1.9636;
2502226758173457;-9.5267;1.2182;-1.9612;
2502226768280123;-9.5219;1.2494;-1.9684;
2502226778386842;-9.5390;1.2398;-1.9899;
2502226788485175;-9.5701;1.2398;-1.9756;
2502226798591842;-9.5291;1.2446;-1.9851;
2502226808698561;-9.4980;1.2736;-1.9588;
2502226818816634;-9.5004;1.2685;-1.9636;
2502226828923144;-9.5291;1.2760;-1.9588;
2502226839029655;-9.5195;1.2784;-1.9612;
2502226849122467;-9.5148;1.2709;-1.9540;
2502226859228977;-9.5100;1.2808;-1.9588;
2502226869335488;-9.5004;1.2927;-1.9564;
2502226879449707;-9.5148;1.3167;-1.9732;
2502226889556217;-9.5076;1.3406;-1.9947;
2502226899662727;-9.5148;1.3286;-1.9732;
2502226909778092;-9.5172;1.3502;-1.9923;
2502226919884602;-9.4908;1.3741;-2.0282;
2502226929991113;-9.5004;1.3741;-2.0234;
2502226940101738;-9.5148;1.3765;-2.0521;
2502226950208248;-9.4980;1.3693;-2.0668;
2502226960314759;-9.5076;1.3597;-2.0115;
2502226970417155;-9.4908;1.3286;-2.0163;
2502226980523665;-9.5052;1.3214;-2.0378;
2502226990630175;-9.4837;1.3071;-2.0306;
2502227000736530;-9.4908;1.2927;-2.0426;
2502227010843040;-9.5052;1.2999;-2.0282;
2502227020949550;-9.5219;1.2808;-2.0210;
2502227031056946;-9.5342;1.2879;-2.0019;
2502227041163457;-9.4956;1.2999;-1.9828;
2502227051269967;-9.4813;1.3167;-1.9660;
2502227061377780;-9.5172;1.3358;-1.9660;
2502227071484290;-9.5052;1.3669;-1.9875;
2502227081590800;-9.4956;1.3693;-1.9588;
2502227091689811;-9.5004;1.3669;-1.9732;
2502227101796321;-9.5004;1.3597;-2.0091;
2502227111902832;-9.5219;1.3597;-1.9851;
2502227122022155;-9.5124;1.3454;-2.0210;
2502227132128665;-9.5148;1.3454;-2.0139;
2502227142235175;-9.5390;1.3549;-2.0186;
2502227152349863;-9.5243;1.3238;-2.0139;
2502227162456373;-9.5172;1.2927;-2.0139;
2502227172562884;-9.5195;1.3167;-1.9708;
2502227182652467;-9.5172;1.3071;-1.9181;
2502227192758977;-9.5414;1.2736;-1.9229;
2502227202865488;-9.5219;1.2494;-1.9301;
2502227212983613;-9.5414;1.2565;-1.9421;
2502227223090123;-9.5342;1.2760;-1.9516;
2502227233196634;-9.5342;1.2784;-1.9493;
2502227243305175;-9.5148;1.2661;-1.9469;
2502227253411686;-9.5004;1.2999;-1.9588;
2502227263518196;-9.5342;1.3238;-1.9804;
2502227273610071;-9.5390;1.3214;-1.9851;
2502227283716582;-9.5291;1.3238;-1.9540;
2502227293823092;-9.5076;1.3286;-1.9373;
2502227303938457;-9.5100;1.2927;-1.9445;
2502227314044967;-9.5390;1.2278;-1.9349;
2502227324151477;-9.5315;1.2254;-1.9349;
2502227334262363;-9.5267;1.2063;-1.9373;
2502227344368873;-9.5366;1.2254;-1.9325;
2502227354475384;-9.5414;1.2063;-1.9493;
2502227364589134;-9.5315;1.2015;-1.9804;
2502227374695644;-9.5291;1.2182;-1.9875;
2502227384802155;-9.5291;1.2254;-1.9636;
2502227394900800;-9.5342;1.2326;-1.9373;
2502227405007311;-9.5510;1.2278;-1.9086;
2502227415113821;-9.5510;1.1847;-1.8631;
2502227425210905;-9.5291;1.2135;-1.8559;
2502227435317415;-9.5390;1.2565;-1.8990;
2502227445423925;-9.5315;1.2808;-1.9660;
2502227455519238;-9.5438;1.2879;-1.9564;
2502227465625748;-9.5342;1.2855;-1.9469;
2502227475732259;-9.5414;1.2784;-1.8918;
2502227485852780;-9.5557;1.3071;-1.8655;
2502227495959290;-9.5677;1.3047;-1.8631;
2502227506065800;-9.5390;1.3095;-1.8392;
2502227516175071;-9.5195;1.2661;-1.8320;
2502227526281582;-9.5557;1.2135;-1.8296;
2502227536388092;-9.5725;1.1967;-1.8009;
2502227546484238;-9.5797;1.1919;-1.8081;
2502227556590748;-9.5725;1.2278;-1.8583;
2502227566697259;-9.5773;1.2784;-1.8990;
2502227576802467;-9.5533;1.2999;-1.9038;
2502227586908977;-9.5462;1.2661;-1.9205;
2502227597015488;-9.5510;1.2613;-1.9062;
2502227607109342;-9.5438;1.2446;-1.8703;
2502227617215852;-9.5462;1.1991;-1.8607;
2502227627322363;-9.5510;1.1680;-1.8105;
2502227637488665;-9.5533;1.1536;-1.7961;
2502227647559550;-9.5701;1.1704;-1.8129;
2502227657666009;-9.5510;1.1656;-1.8320;
2502227667772519;-9.5486;1.2302;-1.8942;
2502227677879030;-9.5366;1.3310;-1.9158;
2502227687969759;-9.5267;1.3430;-1.9445;
2502227698076269;-9.5462;1.3573;-1.9564;
2502227708182780;-9.5390;1.3310;-1.9540;
2502227718324238;-9.5821;1.2903;-1.9158;
2502227728430748;-9.5414;1.2613;-1.8679;
2502227738537259;-9.5486;1.2927;-1.8464;
2502227748622363;-9.5462;1.3502;-1.8631;
2502227758728873;-9.5366;1.3908;-1.8942;
2502227768835384;-9.5148;1.4291;-1.9469;
2502227778950123;-9.5267;1.4004;-1.9971;
2502227789056634;-9.5195;1.3884;-2.0234;
2502227799163144;-9.5291;1.3454;-2.0163;
2502227809277884;-9.5315;1.2808;-1.9493;
2502227819384394;-9.5219;1.1824;-1.8966;
2502227829490905;-9.5172;1.1393;-1.8751;
2502227839600800;-9.5267;1.0651;-1.8679;
2502227849707311;-9.5486;1.0938;-1.8823;
2502227859813821;-9.5988;1.1512;-1.9110;
2502227869906373;-9.5725;1.1249;-1.8775;
2502227880012884;-9.5342;1.0077;-1.8344;
2502227890119394;-9.5749;0.8734;-1.8009;
2502227900222623;-9.6036;0.7968;-1.7527;
2502227910329134;-9.6658;0.7801;-1.7216;
2502227920435644;-9.7017;0.8734;-1.7288;
2502227930540592;-9.6778;0.9835;-1.8129;
2502227940669707;-9.6371;0.8758;-1.7886;
2502227950776165;-9.5701;0.7271;-1.7121;
2502227960882675;-9.5749;0.7633;-1.6522;
2502227970989186;-9.5749;1.1058;-1.8200;
2502227981067363;-9.5462;1.3214;-1.9756;
2502227991173873;-9.5267;1.1967;-1.9038;
2502228001280384;-9.5462;0.9811;-1.8153;
2502228011387207;-9.5725;1.0077;-1.7719;
2502228021493717;-9.5605;1.3502;-1.8751;
2502228031600227;-9.5148;1.6161;-2.1099;
2502228041713300;-9.5052;1.5658;-2.1960;
2502228051819811;-9.4884;1.3071;-2.0955;
2502228061926321;-9.5124;1.2446;-2.1051;
2502228072040852;-9.5315;1.4794;-2.2869;
2502228082147363;-9.4980;1.7022;-2.4332;
2502228092253873;-9.4214;1.7166;-2.4045;
2502228102349238;-9.3927;1.5802;-2.3877;
2502228112455748;-9.4717;1.4554;-2.3830;
2502228122562259;-9.4525;1.4578;-2.3423;
2502228132666842;-9.4310;1.5296;-2.3662;
2502228142773352;-9.4478;1.5802;-2.4260;
2502228152879863;-9.4621;1.5730;-2.4476;
2502228162983405;-9.4454;1.5224;-2.4045;
2502228173089915;-9.4119;1.4076;-2.3351;
2502228183196425;-9.4310;1.2808;-2.3204;
2502228193304759;-9.4454;1.1991;-2.3061;
2502228203411269;-9.4286;1.1512;-2.3327;
2502228213517780;-9.4549;1.0890;-2.3758;
2502228223618717;-9.4789;1.0292;-2.3997;
2502228233725227;-9.4741;0.9332;-2.3830;
2502228243831738;-9.4717;0.8901;-2.3399;
2502228253961113;-9.4908;0.8662;-2.3758;
2502228264067623;-9.4741;0.8303;-2.3997;
2502228274174134;-9.5076;0.7442;-2.3375;
2502228284286217;-9.5773;0.6553;-2.3061;
2502228294392727;-9.5557;0.6673;-2.2630;
2502228304499238;-9.4837;0.6505;-2.2247;
2502228314591634;-9.4502;0.6912;-2.2391;
2502228324698144;-9.4908;0.7271;-2.2463;
2502228334804655;-9.4884;0.7777;-2.2487;
2502228344924967;-9.4645;0.8064;-2.2798;
2502228355031477;-9.4884;0.8542;-2.3351;
2502228365137988;-9.4597;0.9667;-2.3566;
2502228375225384;-9.4502;1.0101;-2.3806;
2502228385331894;-9.4454;1.0795;-2.4093;
2502228395438405;-9.4621;1.1010;-2.4069;
2502228405544863;-9.4693;1.1249;-2.3303;
2502228415651373;-9.4884;1.1608;-2.2798;
2502228425757884;-9.4789;1.1800;-2.2869;
2502228435865175;-9.4717;1.1967;-2.2822;
2502228445971686;-9.4549;1.2541;-2.3061;
2502228456078196;-9.4884;1.2709;-2.3495;
2502228466181321;-9.4693;1.2541;-2.3542;
2502228476287832;-9.4310;1.2760;-2.3830;
2502228486394342;-9.4621;1.2470;-2.4021;
2502228496502467;-9.4693;1.2015;-2.3566;
2502228506608977;-9.4573;1.1489;-2.3252;
2502228516715488;-9.4549;1.1489;-2.3997;
2502228526807467;-9.4813;1.1297;-2.3853;
2502228536913977;-9.4932;1.0962;-2.3614;
2502228547020488;-9.4549;1.0651;-2.3276;
2502228557174030;-9.4645;0.9978;-2.3327;
2502228567280540;-9.4765;0.9667;-2.3447;
2502228577387050;-9.4621;0.9930;-2.3518;
2502228587469238;-9.4717;0.9835;-2.3686;
2502228597575696;-9.4573;0.9691;-2.3590;
2502228607682207;-9.4645;0.9332;-2.3518;
2502228617812102;-9.4813;0.9284;-2.3566;
2502228627918613;-9.4454;0.9260;-2.3758;
2502228638025123;-9.4573;0.9308;-2.3853;
2502228648099030;-9.4406;0.9619;-2.3734;
2502228658205540;-9.4478;0.9763;-2.3686;
2502228668312050;-9.4621;0.9882;-2.3375;
2502228678424342;-9.4621;1.0053;-2.3303;
2502228688530852;-9.4573;1.0196;-2.3590;
2502228698637363;-9.4813;1.0531;-2.3782;
2502228708741321;-9.4669;1.0938;-2.4141;
2502228718847832;-9.4741;1.1034;-2.4165;
2502228728954342;-9.4573;1.0914;-2.4117;
2502228739082780;-9.4717;1.1249;-2.4284;
2502228749189290;-9.4693;1.1369;-2.4428;
2502228759295800;-9.4406;1.1154;-2.4093;
2502228769401009;-9.4693;1.0986;-2.3518;
2502228779507519;-9.4837;1.0627;-2.3228;
2502228789614030;-9.4645;1.0938;-2.3085;
2502228799699446;-9.4813;1.1058;-2.3351;
2502228809805957;-9.4669;1.0938;-2.3686;
2502228819912467;-9.4597;1.0531;-2.3375;
2502228830045800;-9.4908;1.0340;-2.3375;
2502228840152311;-9.4932;1.0196;-2.3157;
2502228850258821;-9.5028;1.0220;-2.3180;
2502228860342363;-9.4980;1.0077;-2.3061;
2502228870448873;-9.4860;0.9954;-2.2654;
2502228880555384;-9.4908;0.9835;-2.2822;
2502228890666634;-9.4980;1.0002;-2.2965;
2502228900773144;-9.4765;1.0172;-2.2941;
2502228910879655;-9.4908;0.9882;-2.3013;
2502228920977467;-9.5124;0.9930;-2.2439;
2502228931083977;-9.4837;1.0002;-2.2463;
2502228941190488;-9.4789;1.0220;-2.2582;
2502228951306790;-9.5148;1.0292;-2.2798;
2502228961413196;-9.5148;1.0388;-2.2845;
2502228971519602;-9.5004;1.0507;-2.2606;
2502228981651217;-9.4980;1.0460;-2.2343;
2502228991757623;-9.5028;1.0436;-2.1840;
2502229001864030;-9.4837;1.0555;-2.1888;
2502229011942050;-9.4980;1.0819;-2.1960;
2502229022048457;-9.5076;1.1177;-2.1673;
2502229032154863;-9.5172;1.1369;-2.1769;
2502229042262988;-9.4956;1.1297;-2.1745;
2502229052369394;-9.4669;1.1369;-2.1697;
2502229062475800;-9.4837;1.1106;-2.1769;
2502229072583405;-9.4860;1.1249;-2.1936;
2502229082689811;-9.4980;1.1297;-2.2056;
2502229092796217;-9.5219;1.1106;-2.2175;
2502229102905905;-9.5076;1.0819;-2.2271;
2502229113012311;-9.4908;1.0842;-2.2558;
2502229123118717;-9.5172;1.1034;-2.2056;
2502229133225071;-9.5100;1.0723;-2.2247;
2502229143331477;-9.4860;1.0675;-2.2199;
2502229153437884;-9.4932;1.0507;-2.2582;
2502229163563040;-9.4980;1.0292;-2.2247;
2502229173669446;-9.5124;0.9906;-2.2439;
2502229183775852;-9.5148;0.9619;-2.2080;
2502229193863873;-9.5148;0.9093;-2.1673;
2502229203970280;-9.4932;0.8877;-2.1649;
2502229214076686;-9.5148;0.8853;-2.1769;
2502229224178925;-9.5124;0.9332;-2.2367;
2502229234285332;-9.4789;0.9476;-2.2654;
2502229244391738;-9.4884;0.9356;-2.2199;
2502229254519238;-9.5124;0.9595;-2.2008;
2502229264625644;-9.5148;0.9811;-2.2152;
2502229274732050;-9.4884;0.9882;-2.2008;
2502229284847988;-9.4956;1.0149;-2.1864;
2502229294954394;-9.5004;1.0340;-2.2152;
2502229305060800;-9.5004;1.0412;-2.2295;
2502229315141113;-9.4932;1.0603;-2.2463;
2502229325247519;-9.5004;1.0986;-2.2702;
2502229335353925;-9.5076;1.1154;-2.2558;
2502229345478821;-9.4621;1.1273;-2.2439;
2502229355585227;-9.4789;1.1249;-2.2247;
2502229365691634;-9.4956;1.1273;-2.2223;
2502229375782467;-9.4884;1.1441;-2.2319;
2502229385888873;-9.4837;1.1154;-2.2247;
2502229395995280;-9.4741;1.0771;-2.2295;
2502229406090800;-9.4908;1.0819;-2.2080;
2502229416197207;-9.5076;1.0747;-2.2199;
2502229426303613;-9.5052;1.0555;-2.2319;
2502229436413092;-9.4741;1.0172;-2.1793;
2502229446519498;-9.4956;0.9954;-2.2080;
2502229456625905;-9.5267;1.0101;-2.1912;
2502229466743509;-9.5195;0.9691;-2.1649;
2502229476849915;-9.5100;0.9141;-2.2080;
2502229486956321;-9.5124;0.8853;-2.1888;
2502229497052363;-9.5052;0.8877;-2.1817;
2502229507158769;-9.4956;0.8495;-2.1888;
2502229517265175;-9.5028;0.8399;-2.1625;
2502229527418925;-9.5052;0.8542;-2.1625;
2502229537525332;-9.5100;0.8495;-2.1410;
2502229547631738;-9.5195;0.8351;-2.1410;
2502229557697259;-9.5267;0.8423;-2.1170;
2502229567803665;-9.5315;0.8662;-2.1601;
2502229577910071;-9.5243;0.8949;-2.1434;
2502229587987884;-9.5414;0.8901;-2.1434;
2502229598094290;-9.5243;0.9188;-2.1577;
2502229608200696;-9.5267;0.9356;-2.1170;
2502229618341842;-9.5366;0.8973;-2.1170;
2502229628448248;-9.5342;0.8901;-2.1482;
2502229638554655;-9.5219;0.8997;-2.1482;
2502229648658092;-9.5219;0.8925;-2.1458;
2502229658764498;-9.5342;0.8710;-2.1386;
2502229668870905;-9.5100;0.8758;-2.1601;
2502229678979134;-9.5172;0.9236;-2.1625;
2502229689085540;-9.5076;0.9380;-2.1673;
2502229699191946;-9.5195;0.9404;-2.1840;
2502229709301009;-9.5219;0.9571;-2.2032;
2502229719407415;-9.5219;0.9523;-2.2199;
2502229729513821;-9.5124;0.9571;-2.2630;
2502229739619030;-9.5052;0.9500;-2.2558;
2502229749725436;-9.5004;0.9476;-2.2989;
2502229759831842;-9.5195;0.9428;-2.2845;
2502229769937988;-9.4932;0.9260;-2.2630;
2502229780044394;-9.5028;0.9500;-2.2654;
2502229790150800;-9.4813;0.9739;-2.2463;
2502229800259342;-9.4860;0.9619;-2.2271;
2502229810365748;-9.5052;0.9691;-2.2271;
2502229820472155;-9.5004;0.9954;-2.2128;
2502229830581373;-9.5219;1.0077;-2.2247;
2502229840687780;-9.5100;1.0316;-2.2152;
2502229850794186;-9.4956;1.0436;-2.2295;
2502229860902363;-9.5028;1.0866;-2.2056;
2502229871008769;-9.5052;1.1034;-2.1888;
2502229881115175;-9.4908;1.0914;-2.2032;
2502229891219707;-9.5004;1.0771;-2.2199;
2502229901326113;-9.5172;1.0842;-2.1984;
2502229911432519;-9.5100;1.0842;-2.1553;
2502229921556530;-9.5219;1.0890;-2.1649;
2502229931662936;-9.5243;1.0627;-2.1577;
2502229941769342;-9.4956;1.0962;-2.1505;
2502229951859342;-9.5148;1.1082;-2.1817;
2502229961965905;-9.5315;1.0771;-2.1649;
2502229972072467;-9.5267;1.0747;-2.1697;
2502229982179967;-9.5267;1.0460;-2.1458;
2502229992286530;-9.5195;1.0579;-2.1529;
2502230002393092;-9.5004;1.0244;-2.1482;
2502230012501217;-9.5315;0.9882;-2.1697;
2502230022607780;-9.5557;0.9763;-2.1505;
2502230032714342;-9.5124;0.9571;-2.1577;
2502230042788925;-9.4884;0.9476;-2.1553;
2502230052895488;-9.5148;0.9284;-2.1793;
2502230063002050;-9.5124;0.9093;-2.1721;
2502230073139030;-9.5124;0.9117;-2.1840;
2502230083245592;-9.5124;0.8997;-2.1912;
2502230093352155;-9.5004;0.8901;-2.1864;
2502230103462467;-9.5124;0.8901;-2.1864;
2502230113569030;-9.4980;0.8901;-2.2032;
2502230123675592;-9.4932;0.9093;-2.2223;
2502230133770696;-9.5172;0.9356;-2.2152;
2502230143877259;-9.5100;0.9284;-2.2008;
2502230153983821;-9.4980;0.9547;-2.2558;
2502230164092050;-9.4980;0.9811;-2.2822;
2502230174198613;-9.4860;0.9763;-2.2271;
2502230184305175;-9.4980;1.0172;-2.2391;
2502230194420592;-9.4884;1.0388;-2.2869;
2502230204527155;-9.4813;1.0292;-2.2630;
2502230214633717;-9.4813;1.0866;-2.2606;
2502230224734863;-9.4860;1.1154;-2.2558;
2502230234841425;-9.4837;1.1369;-2.2343;
2502230244947988;-9.4860;1.1536;-2.2463;
2502230255083405;-9.4860;1.1369;-2.2702;
2502230265189967;-9.4741;1.1895;-2.2678;
2502230275296530;-9.4669;1.2087;-2.2774;
2502230285376842;-9.5100;1.2159;-2.2534;
2502230295483405;-9.4932;1.1943;-2.2391;
2502230305589967;-9.4789;1.2087;-2.2128;
2502230315698821;-9.4765;1.2087;-2.2008;
2502230325805384;-9.4789;1.1967;-2.2080;
2502230335911946;-9.4884;1.1824;-2.2032;
2502230346032467;-9.4932;1.1800;-2.2247;
2502230356139030;-9.4908;1.1465;-2.2271;
2502230366245592;-9.4837;1.1154;-2.2199;
2502230376333040;-9.5100;1.0914;-2.2008;
2502230386439602;-9.5076;1.0316;-2.1888;
2502230396546165;-9.5195;1.0172;-2.1673;
2502230406678873;-9.5243;0.9906;-2.1697;
2502230416785436;-9.4884;0.9595;-2.1697;
2502230426891998;-9.4932;0.9691;-2.1625;
2502230436961217;-9.5028;0.9739;-2.1649;
2502230447067780;-9.5052;0.9763;-2.1601;
2502230457174342;-9.5172;0.9811;-2.1482;
2502230467296634;-9.5148;1.0388;-2.1529;
2502230477403196;-9.5100;1.0244;-2.1362;
2502230487509759;-9.5172;0.9954;-2.1697;
2502230497622832;-9.5100;0.9858;-2.1577;
2502230507729394;-9.5076;1.0316;-2.1577;
2502230517835957;-9.5267;1.0460;-2.1888;
2502230527942363;-9.5195;1.0340;-2.1553;
2502230538048925;-9.4980;1.1441;-2.1601;
2502230548155488;-9.5291;1.2039;-2.1769;
2502230558252571;-9.5172;1.1991;-2.1864;
2502230568359134;-9.4956;1.1297;-2.2128;
2502230578465696;-9.5076;1.1345;-2.2391;
2502230588579550;-9.5195;1.1249;-2.2080;
2502230598686113;-9.4813;1.1201;-2.2343;
2502230608792675;-9.4502;1.1273;-2.2463;
2502230618898405;-9.4932;1.1321;-2.2654;
2502230629004967;-9.5052;1.1393;-2.2295;
2502230639111530;-9.4813;1.1106;-2.2199;
2502230649220905;-9.4693;1.0484;-2.2175;
2502230659327467;-9.5052;1.0507;-2.2582;
2502230669434030;-9.4884;1.0603;-2.3037;
2502230679538717;-9.4813;1.0340;-2.2917;
2502230689645280;-9.4908;1.0484;-2.2965;
2502230699751842;-9.5028;1.0747;-2.2965;
2502230709853405;-9.4813;1.0866;-2.2941;
2502230719959967;-9.4549;1.0795;-2.2965;
2502230730066530;-9.5076;1.0603;-2.3061;
2502230740177363;-9.5315;1.0460;-2.3327;
2502230750283925;-9.4693;0.9906;-2.2822;
2502230760390488;-9.4095;0.9523;-2.2104;
2502230770497884;-9.4190;0.9284;-2.2319;
2502230780604446;-9.4573;0.9045;-2.2582;
2502230790711009;-9.4621;0.9117;-2.2630;
2502230800820488;-9.5124;0.8949;-2.2774;
2502230810927050;-9.5219;0.9476;-2.2534;
2502230821033613;-9.5004;1.0364;-2.2104;
2502230831136425;-9.5414;1.0914;-2.2295;
2502230841242988;-9.5195;1.1489;-2.2032;
2502230851349550;-9.5342;1.2182;-2.1984;
2502230861455488;-9.5148;1.2517;-2.2152;
2502230871562050;-9.4956;1.2709;-2.1745;
2502230881668613;-9.4597;1.2613;-2.1673;
2502230891777988;-9.4741;1.2517;-2.1673;
2502230901884550;-9.4741;1.2398;-2.1362;
2502230911991113;-9.4956;1.2111;-2.1529;
2502230922091321;-9.5100;1.1919;-2.1601;
2502230932197884;-9.5342;1.1728;-2.1505;
2502230942304446;-9.5390;1.1321;-2.1505;
2502230952416530;-9.5291;1.1225;-2.0788;
2502230962523196;-9.5124;1.1177;-2.0907;
2502230972629811;-9.4837;1.1441;-2.1123;
2502230982735123;-9.5076;1.1656;-2.1218;
2502230992841790;-9.5100;1.1752;-2.1458;
2502231002948405;-9.4789;1.1584;-2.1649;
2502231013052623;-9.5219;1.1512;-2.1793;
2502231023159290;-9.5148;1.1632;-2.1697;
2502231033265905;-9.4980;1.1536;-2.1793;
2502231043376842;-9.5004;1.1608;-2.2080;
2502231053483509;-9.4956;1.1871;-2.2080;
2502231063590123;-9.4908;1.1895;-2.2295;
2502231073692884;-9.4956;1.1895;-2.2128;
2502231083799550;-9.5004;1.2111;-2.1793;
2502231093906165;-9.5195;1.2015;-2.1936;
2502231104022155;-9.5172;1.2135;-2.1769;
2502231114128821;-9.4860;1.1991;-2.1434;
2502231124235436;-9.4932;1.1824;-2.1314;
2502231134342207;-9.5148;1.1704;-2.1673;
2502231144448873;-9.5100;1.1632;-2.1458;
2502231154555488;-9.5148;1.1297;-2.1577;
2502231164677936;-9.5076;1.0986;-2.1170;
2502231174784602;-9.4956;1.0938;-2.1242;
2502231184891217;-9.4908;1.0842;-2.1625;
2502231194989342;-9.5390;1.0986;-2.1362;
2502231205096009;-9.4956;1.0962;-2.1410;
2502231215202623;-9.4813;1.0747;-2.2032;
2502231225304863;-9.5004;1.0866;-2.1793;
2502231235411530;-9.5028;1.0890;-2.1888;
2502231245518144;-9.4884;1.1177;-2.1745;
2502231255615175;-9.4932;1.1130;-2.2032;
2502231265721842;-9.5028;1.0866;-2.1840;
2502231275828457;-9.4956;1.1082;-2.2391;
2502231285943613;-9.4573;1.1154;-2.2008;
2502231296050280;-9.4813;1.1297;-2.2247;
2502231306156894;-9.5052;1.1058;-2.1745;
2502231316255696;-9.4693;1.1393;-2.1960;
2502231326362363;-9.4789;1.1345;-2.2630;
2502231336468977;-9.4669;1.1273;-2.2463;
2502231346600696;-9.4908;1.1345;-2.2152;
2502231356707363;-9.4765;1.1201;-2.2367;
2502231366813977;-9.4908;1.0962;-2.2128;
2502231376906842;-9.5124;1.0914;-2.2223;
2502231387013509;-9.5076;1.0819;-2.2080;
2502231397120123;-9.5195;1.0507;-2.1840;
2502231407221425;-9.5267;1.0484;-2.2056;
2502231417328092;-9.5291;1.0412;-2.2415;
2502231427434707;-9.4980;1.0053;-2.2271;
2502231437544550;-9.4956;0.9787;-2.2128;
2502231447651217;-9.4837;0.9811;-2.2008;
2502231457757832;-9.4645;0.9069;-2.2199;
2502231467863092;-9.4549;0.8088;-2.1912;
2502231477969759;-9.5028;0.8016;-2.1840;
2502231488076373;-9.5581;0.8303;-2.1960;
2502231498168405;-9.5581;0.9117;-2.2199;
2502231508275071;-9.5124;0.9835;-2.1936;
2502231518381686;-9.4837;0.9930;-2.2295;
2502231528498457;-9.5004;1.0579;-2.2199;
2502231538605123;-9.5124;1.1225;-2.1960;
2502231548711738;-9.4741;1.1800;-2.1697;
2502231558814446;-9.4765;1.2254;-2.2104;
2502231568921113;-9.4597;1.2903;-2.2032;
2502231579027727;-9.4621;1.3430;-2.1745;
2502231589083821;-9.4765;1.3956;-2.1840;
2502231599190488;-9.4741;1.4530;-2.1553;
2502231609297102;-9.4789;1.4746;-2.1888;
2502231619451790;-9.4837;1.4770;-2.1769;
2502231629558457;-9.4789;1.4626;-2.1960;
2502231639665071;-9.4908;1.4435;-2.1673;
2502231649784030;-9.5267;1.4124;-2.1625;
2502231659890696;-9.4956;1.3549;-2.1458;
2502231669997311;-9.4860;1.3047;-2.1386;
2502231680097259;-9.4813;1.2350;-2.1362;
2502231690203925;-9.4693;1.1536;-2.1194;
2502231700310540;-9.4956;1.1082;-2.1362;
2502231710420123;-9.5100;1.0340;-2.0979;
2502231720526790;-9.5124;0.9643;-2.1314;
2502231730633405;-9.5243;0.9069;-2.1553;
2502231740747988;-9.5414;0.8590;-2.1745;
2502231750854655;-9.5291;0.8040;-2.1840;
2502231760961269;-9.4956;0.7370;-2.1793;
2502231771067780;-9.5414;0.6960;-2.1553;
2502231781174446;-9.5315;0.6601;-2.1793;
2502231791281061;-9.5581;0.6027;-2.1888;
2502231801383405;-9.5510;0.5907;-2.2463;
2502231811490071;-9.5366;0.5668;-2.2295;
2502231821596686;-9.5267;0.5477;-2.2367;
2502231831712467;-9.5219;0.5764;-2.2391;
2502231841819134;-9.4956;0.5835;-2.2439;
2502231851925748;-9.4813;0.5620;-2.2534;
2502231862021113;-9.5315;0.5740;-2.2582;
2502231872127780;-9.5195;0.5883;-2.2654;
2502231882234394;-9.5342;0.6338;-2.2439;
2502231892339863;-9.5243;0.7343;-2.3085;
2502231902446530;-9.5219;0.8064;-2.3037;
2502231912553144;-9.5172;0.8710;-2.3157;
2502231922680905;-9.5291;0.9212;-2.3037;
2502231932787571;-9.5052;0.9715;-2.2678;
2502231942894186;-9.4717;1.0220;-2.2582;
2502231952987259;-9.4717;1.0388;-2.2582;
2502231963093977;-9.4956;1.0412;-2.2510;
2502231973200748;-9.5172;1.0890;-2.2534;
2502231983320384;-9.5052;1.1154;-2.2439;
2502231993427102;-9.5004;1.1321;-2.2606;
2502232003533873;-9.4884;1.1177;-2.2463;
2502232013619238;-9.4789;1.0938;-2.2534;
2502232023725957;-9.4956;1.0747;-2.2606;
2502232033832727;-9.4860;1.0723;-2.2654;
2502232043924967;-9.4884;1.0484;-2.2463;
2502232054031686;-9.4765;1.0149;-2.2678;
2502232064138457;-9.4860;0.9954;-2.2654;
2502232074260488;-9.5052;0.9739;-2.2367;
2502232084367207;-9.5148;0.9452;-2.2534;
2502232094473977;-9.5004;0.9260;-2.2463;
2502232104587571;-9.4884;0.9260;-2.2678;
2502232114694290;-9.4884;0.8853;-2.2080;
2502232124801061;-9.5172;0.8758;-2.1553;
2502232134904655;-9.5315;0.8830;-2.1625;
2502232145011373;-9.5100;0.9165;-2.1840;
2502232155118144;-9.4980;0.9141;-2.1984;
2502232165216321;-9.5195;0.8997;-2.1888;
2502232175323040;-9.5557;0.8877;-2.1410;
2502232185429811;-9.5172;0.8830;-2.1505;
2502232195548509;-9.5267;0.8853;-2.1434;
2502232205655227;-9.5438;0.9212;-2.1529;
2502232215761998;-9.5414;0.9500;-2.1912;
2502232225863457;-9.5148;0.9476;-2.1649;
2502232235970175;-9.4980;0.9523;-2.1745;
2502232246076946;-9.5100;0.9476;-2.1649;
2502232256181530;-9.5342;0.9284;-2.1625;
2502232266288248;-9.5414;0.9212;-2.1793;
2502232276395019;-9.5390;0.9380;-2.1721;
2502232286508925;-9.5267;0.9476;-2.1817;
2502232296615644;-9.4837;0.9045;-2.2199;
2502232306722415;-9.4932;0.9212;-2.2080;
2502232316824238;-9.4860;0.9188;-2.2152;
2502232326930957;-9.4908;0.8806;-2.2104;
2502232337037727;-9.5076;0.8734;-2.2463;
2502232347139550;-9.5052;0.8518;-2.2271;
2502232357246269;-9.4884;0.8231;-2.2175;
2502232367353040;-9.4789;0.8375;-2.2080;
2502232377448925;-9.5076;0.8327;-2.1888;
2502232387555644;-9.5342;0.8136;-2.2008;
2502232397662415;-9.5366;0.7944;-2.2152;
2502232407811530;-9.5414;0.7513;-2.2199;
2502232417918248;-9.5267;0.7223;-2.2128;
2502232428025019;-9.5390;0.7295;-2.2175;
2502232438086790;-9.5315;0.7199;-2.2032;
2502232448193509;-9.4884;0.6864;-2.1577;
2502232458300280;-9.5028;0.6960;-2.1649;
2502232468440592;-9.5172;0.6960;-2.2128;
2502232478547311;-9.5243;0.7152;-2.2391;
2502232488654082;-9.5390;0.7152;-2.2080;
2502232498757675;-9.5390;0.7319;-2.2175;
2502232508864394;-9.5291;0.7944;-2.2032;
2502232518971165;-9.5100;0.8327;-2.1888;
2502232529058196;-9.5195;0.8447;-2.1793;
2502232539164915;-9.5462;0.8566;-2.1840;
2502232549271686;-9.5267;0.8710;-2.1888;
2502232559385592;-9.5124;0.8662;-2.1721;
2502232569492311;-9.5028;0.8877;-2.1673;
2502232579599082;-9.5219;0.8734;-2.1769;
2502232589714550;-9.5486;0.8925;-2.1984;
2502232599821269;-9.5366;0.8853;-2.1625;
2502232609928040;-9.5414;0.8973;-2.1649;
2502232620031634;-9.5390;0.9332;-2.2080;
2502232630138352;-9.5291;0.8973;-2.2080;
2502232640245123;-9.5390;0.8806;-2.1888;
2502232650358821;-9.5315;0.8734;-2.1793;
2502232660465540;-9.5342;0.8758;-2.1697;
2502232670572311;-9.5342;0.8710;-2.1817;
2502232680671373;-9.5366;0.8758;-2.1482;
2502232690778092;-9.5172;0.8638;-2.1410;
2502232700884863;-9.5148;0.8686;-2.1505;
2502232710991217;-9.5366;0.8614;-2.1458;
2502232721097936;-9.5510;0.8375;-2.1577;
2502232731204707;-9.5195;0.8399;-2.1577;
2502232741307884;-9.5219;0.8542;-2.1721;
2502232751414602;-9.5390;0.8686;-2.1697;
2502232761521373;-9.5004;0.8758;-2.1290;
2502232771629134;-9.5195;0.8686;-2.1434;
2502232781735852;-9.5315;0.8686;-2.1458;
2502232791842623;-9.5414;0.8734;-2.1601;
2502232801942363;-9.5414;0.8782;-2.1386;
2502232812049082;-9.5414;0.8806;-2.1266;
2502232822155852;-9.5462;0.8686;-2.1745;
2502232832285175;-9.5342;0.8566;-2.1553;
2502232842391894;-9.5243;0.8542;-2.1410;
2502232852498665;-9.5267;0.8447;-2.1075;
2502232862579550;-9.5195;0.8447;-2.1051;
2502232872686269;-9.5366;0.8638;-2.1099;
2502232882793040;-9.5557;0.8710;-2.0907;
2502232892899655;-9.5243;0.8782;-2.1123;
2502232903006373;-9.5510;0.8949;-2.1027;
2502232913113144;-9.5510;0.9212;-2.1027;
2502232923219342;-9.5438;0.9308;-2.1051;
2502232933326061;-9.5462;0.9308;-2.1075;
2502232943432832;-9.5342;0.9165;-2.0545;
2502232953538300;-9.5366;0.9284;-2.0764;
2502232963644967;-9.5605;0.9428;-2.0668;
2502232973751686;-9.5315;0.9165;-2.0521;
2502232983856790;-9.5291;0.9045;-2.1051;
2502232993963457;-9.5629;0.8901;-2.0979;
2502233004070175;-9.5510;0.8542;-2.1194;
2502233014178248;-9.5533;0.8686;-2.1410;
2502233024284915;-9.5581;0.8566;-2.1362;
2502233034391634;-9.5653;0.8853;-2.1266;
2502233044513405;-9.5581;0.8877;-2.0740;
2502233054620071;-9.5366;0.9212;-2.0740;
2502233064726790;-9.5195;0.9045;-2.0692;
2502233074817571;-9.5291;0.9141;-2.0692;
2502233084924238;-9.5243;0.9117;-2.0979;
2502233095030957;-9.5267;0.9284;-2.1027;
2502233105146738;-9.5342;0.9452;-2.0931;
2502233115253405;-9.5315;0.9643;-2.1458;
2502233125360123;-9.5267;1.0002;-2.1458;
2502233135467988;-9.5028;1.0125;-2.1458;
2502233145574655;-9.5100;1.0220;-2.1625;
2502233155681373;-9.5243;1.0436;-2.1505;
2502233165788405;-9.5342;1.0579;-2.1314;
2502233175895071;-9.5438;1.0914;-2.1147;
2502233186001790;-9.5219;1.0819;-2.1218;
2502233196093821;-9.5124;1.1034;-2.1434;
2502233206200488;-9.5052;1.0842;-2.1266;
2502233216307207;-9.4908;1.0747;-2.1434;
2502233226417259;-9.5390;1.0675;-2.1673;
2502233236523925;-9.5267;1.0531;-2.1482;
2502233246630644;-9.5052;1.0364;-2.1266;
2502233256799707;-9.5219;1.0340;-2.1075;
2502233266906373;-9.5267;1.0244;-2.0955;
2502233277013092;-9.5219;1.0077;-2.0859;
2502233287049863;-9.5414;0.9811;-2.0788;
2502233297156530;-9.5462;0.9500;-2.0907;
2502233307263248;-9.5486;0.9117;-2.0907;
2502233317416321;-9.5414;0.8806;-2.1051;
2502233327522988;-9.5195;0.8303;-2.1075;
2502233337629707;-9.5533;0.8231;-2.1482;
2502233347690696;-9.5533;0.8183;-2.1434;
2502233357797363;-9.5291;0.8136;-2.1434;
2502233367904082;-9.5291;0.7968;-2.1505;
2502233378022259;-9.5366;0.7920;-2.1338;
2502233388128925;-9.5462;0.8160;-2.1625;
2502233398235644;-9.5315;0.8686;-2.1697;
2502233408350123;-9.5004;0.8758;-2.1625;
2502233418456790;-9.5100;0.8782;-2.1697;
2502233428563509;-9.5414;0.8925;-2.1769;
2502233438680800;-9.5342;0.9045;-2.2032;
2502233448787467;-9.5267;0.9021;-2.1745;
2502233458894186;-9.5172;0.8877;-2.1697;
2502233468980592;-9.5291;0.8997;-2.2008;
2502233479087259;-9.5438;0.8949;-2.1817;
2502233489193977;-9.5291;0.8901;-2.1912;
2502233499310488;-9.5315;0.8949;-2.1769;
2502233509417155;-9.5172;0.8830;-2.1840;
2502233519523873;-9.5172;0.8877;-2.2104;
2502233529617780;-9.5172;0.8973;-2.2008;
2502233539724446;-9.5052;0.8734;-2.1529;
2502233549831165;-9.4956;0.8686;-2.1314;
2502233559940540;-9.4980;0.8997;-2.1601;
2502233570047207;-9.5267;0.8997;-2.1745;
2502233580153925;-9.5462;0.8853;-2.1864;
2502233590251894;-9.5291;0.9045;-2.1888;
2502233600358561;-9.5291;0.8949;-2.1960;
2502233610465280;-9.5291;0.8997;-2.2080;
2502233620587050;-9.5267;0.8901;-2.1793;
2502233630693717;-9.5148;0.9045;-2.1888;
2502233640800436;-9.5315;0.8997;-2.1912;
2502233650907050;-9.5291;0.9308;-2.1793;
2502233661013717;-9.5195;0.9212;-2.1625;
2502233671120436;-9.5148;0.9045;-2.1601;
2502233681224967;-9.5267;0.8973;-2.1649;
2502233691331634;-9.5366;0.9093;-2.1673;
2502233701438352;-9.5414;0.9093;-2.1458;
2502233711551425;-9.5462;0.8973;-2.1505;
2502233721658092;-9.5342;0.9260;-2.1123;
2502233731764811;-9.5315;0.9452;-2.1003;
2502233741868092;-9.5438;0.9284;-2.0764;
2502233751974759;-9.5438;0.9188;-2.0788;
2502233762081477;-9.5342;0.9332;-2.0859;
2502233772188300;-9.5605;0.9547;-2.0859;
2502233782294967;-9.5581;0.9404;-2.0931;
2502233792401686;-9.5291;0.9165;-2.0812;
2502233802522363;-9.5390;0.9380;-2.0859;
2502233812629030;-9.5315;0.9476;-2.1075;
2502233822735748;-9.5267;0.9428;-2.0931;
2502233832841321;-9.5291;0.9404;-2.0883;
2502233842947988;-9.5414;0.9500;-2.1051;
2502233853054707;-9.5390;0.9787;-2.1147;
2502233863147988;-9.5148;0.9954;-2.1027;
2502233873254655;-9.4980;1.0026;-2.1218;
2502233883361373;-9.5315;0.9906;-2.1075;
2502233893461425;-9.5172;0.9930;-2.1482;
2502233903568092;-9.5052;0.9595;-2.1577;
2502233913674811;-9.5243;0.9308;-2.1505;
2502233923783040;-9.5076;0.9165;-2.1577;
2502233933889707;-9.5291;0.8925;-2.1553;
2502233943996425;-9.5510;0.9021;-2.1649;
2502233954096061;-9.5510;0.8901;-2.1817;
2502233964202727;-9.5172;0.8566;-2.1769;
2502233974309446;-9.5219;0.8495;-2.2175;
2502233984421946;-9.5195;0.8614;-2.2319;
2502233994528613;-9.4980;0.8590;-2.2295;
2502234004635332;-9.5124;0.8447;-2.1984;
2502234014747571;-9.5414;0.8566;-2.1936;
2502234024854238;-9.5390;0.8542;-2.2128;
2502234034960957;-9.5028;0.8614;-2.2247;
2502234045058821;-9.5052;0.8973;-2.2223;
2502234055165488;-9.5076;0.9045;-2.2199;
2502234065272207;-9.5148;0.9428;-2.2199;
2502234075389446;-9.4980;0.9523;-2.2367;
2502234085496113;-9.5195;0.9667;-2.2415;
2502234095602832;-9.4956;0.9739;-2.2439;
2502234105704967;-9.4908;0.9787;-2.2271;
2502234115811634;-9.5148;0.9787;-2.2056;
2502234125918352;-9.5076;0.9763;-2.2343;
2502234136023092;-9.5124;0.9906;-2.2247;
2502234146129759;-9.5124;1.0026;-2.2319;
2502234156236477;-9.5195;0.9715;-2.2128;
2502234166333821;-9.5076;0.9619;-2.1936;
2502234176440488;-9.4956;0.9547;-2.2032;
2502234186547207;-9.5052;0.9500;-2.2128;
2502234196704707;-9.5195;0.9356;-2.1769;
2502234206811373;-9.5342;0.9308;-2.1984;
2502234216918092;-9.5172;0.9523;-2.1960;
2502234226980488;-9.5148;0.9667;-2.1984;
2502234237087155;-9.5124;0.9619;-2.1673;
2502234247193873;-9.5195;0.9452;-2.1649;
2502234257311009;-9.5243;0.9547;-2.1817;
2502234267417675;-9.5076;0.9380;-2.1912;
2502234277524394;-9.5100;0.9739;-2.1793;
2502234287640905;-9.5342;0.9906;-2.1984;
2502234297747571;-9.5390;1.0002;-2.1984;
2502234307870540;-9.5219;0.9835;-2.1984;
2502234317946321;-9.5462;0.9667;-2.2008;
2502234328052988;-9.5291;0.9332;-2.2080;
2502234338159655;-9.5219;0.9547;-2.1912;
2502234348266373;-9.5195;0.9236;-2.1817;
2502234358399186;-9.5172;0.8949;-2.1769;
2502234368505852;-9.5219;0.9332;-2.1697;
2502234378612571;-9.5100;0.9404;-2.1529;
2502234388717780;-9.5028;0.9332;-2.1625;
2502234398824446;-9.5243;0.9045;-2.1817;
2502234408931165;-9.5124;0.8853;-2.1960;
2502234419011321;-9.4908;0.9188;-2.1888;
2502234429117988;-9.4932;0.9045;-2.2271;
2502234439224707;-9.5315;0.8997;-2.2295;
2502234449336530;-9.5486;0.9093;-2.2152;
2502234459443196;-9.5267;0.8925;-2.2152;
2502234469549915;-9.5052;0.8830;-2.2415;
2502234479656530;-9.4980;0.8710;-2.2104;
2502234489763196;-9.5052;0.8662;-2.2223;
2502234499869915;-9.5172;0.8806;-2.2104;
2502234509978821;-9.5414;0.8925;-2.2271;
2502234520085488;-9.5148;0.8614;-2.1960;
2502234530192207;-9.5124;0.8542;-2.1936;
2502234540288509;-9.5243;0.8734;-2.2152;
2502234550395175;-9.5148;0.8973;-2.2056;
2502234560501894;-9.5267;0.9069;-2.1840;
2502234570613925;-9.5124;0.9212;-2.1960;
2502234580720592;-9.5004;0.9595;-2.1625;
2502234590827311;-9.5100;0.9452;-2.1984;
2502234600942050;-9.5148;0.9236;-2.1936;
2502234611048717;-9.5172;0.9476;-2.2080;
2502234621155436;-9.5195;0.9500;-2.2152;
2502234631258092;-9.5100;0.9260;-2.2319;
2502234641364759;-9.5195;0.9284;-2.2175;
2502234651471477;-9.5342;0.9332;-2.2152;
2502234661579967;-9.5291;0.9236;-2.2032;
2502234671686634;-9.5243;0.9332;-2.1817;
2502234681793352;-9.5219;0.9332;-2.1769;
2502234691895384;-9.5172;0.9452;-2.1625;
2502234702002050;-9.5195;0.9476;-2.1673;
2502234712108769;-9.5243;0.9476;-2.1817;
2502234722204655;-9.5291;0.9212;-2.1577;
2502234732311321;-9.5172;0.9117;-2.1242;
2502234742418040;-9.5052;0.9212;-2.1266;
2502234752540384;-9.5148;0.9165;-2.1458;
2502234762647050;-9.5243;0.9069;-2.1577;
2502234772753769;-9.5462;0.8710;-2.1290;
2502234782855384;-9.5557;0.8758;-2.1338;
2502234792962050;-9.5195;0.8830;-2.1386;
2502234803068769;-9.5172;0.9093;-2.1386;
2502234813171946;-9.5267;0.8925;-2.1170;
2502234823278613;-9.5414;0.8830;-2.1123;
2502234833385332;-9.5462;0.8734;-2.1338;
2502234843492780;-9.5366;0.8399;-2.1314;
2502234853599446;-9.5366;0.8279;-2.1218;
2502234863706165;-9.5438;0.8327;-2.1290;
2502234873813717;-9.5315;0.8303;-2.1290;
2502234883920384;-9.5390;0.8064;-2.1458;
2502234894027102;-9.5701;0.8327;-2.1505;
2502234904131217;-9.5486;0.8614;-2.1290;
2502234914237884;-9.5195;0.8566;-2.1362;
2502234924344602;-9.5243;0.8542;-2.1410;
2502234934452884;-9.5195;0.8590;-2.1362;
2502234944559550;-9.5414;0.8710;-2.1721;
2502234954666269;-9.5342;0.8662;-2.1505;
2502234964768405;-9.5390;0.8207;-2.1482;
2502234974875071;-9.5267;0.8279;-2.1482;
2502234984981790;-9.5315;0.8112;-2.1458;
2502234995097884;-9.5438;0.8231;-2.1649;
2502235005204550;-9.5605;0.8423;-2.1505;
2502235015311269;-9.5342;0.8375;-2.1386;
2502235025413196;-9.5291;0.8471;-2.1458;
2502235035519863;-9.5148;0.8518;-2.1505;
2502235045626582;-9.5148;0.8255;-2.1338;
2502235055733613;-9.5390;0.8471;-2.1505;
2502235065840280;-9.5291;0.8590;-2.1721;
2502235075946998;-9.5267;0.8638;-2.1840;
2502235086054655;-9.5219;0.8518;-2.2008;
2502235096161321;-9.5100;0.8662;-2.1721;
2502235106268040;-9.5414;0.8638;-2.1649;
2502235116373821;-9.5342;0.8542;-2.1673;
2502235126480488;-9.5219;0.8806;-2.1625;
2502235136587207;-9.5148;0.8758;-2.1793;
2502235146719707;-9.5243;0.8566;-2.1888;
2502235156826373;-9.5124;0.8830;-2.2056;
2502235166933092;-9.5267;0.8853;-2.2008;
2502235177021217;-9.5219;0.8782;-2.1984;
2502235187127884;-9.4908;0.8662;-2.2008;
2502235197234602;-9.5172;0.8471;-2.1984;
2502235207379759;-9.5028;0.8566;-2.1864;
2502235217486425;-9.4956;0.8327;-2.1649;
2502235227593144;-9.5195;0.8423;-2.1984;
2502235237662259;-9.5195;0.8375;-2.2175;
2502235247768925;-9.5438;0.8399;-2.1936;
2502235257875644;-9.5195;0.8255;-2.1936;
2502235267971634;-9.5315;0.8447;-2.1888;
2502235278078300;-9.5267;0.8447;-2.2128;
2502235288185019;-9.5315;0.8423;-2.1529;
2502235298294863;-9.5243;0.8423;-2.1721;
2502235308401530;-9.5267;0.8638;-2.1936;
2502235318508248;-9.5124;0.8662;-2.2152;
2502235328623717;-9.5148;0.8566;-2.1673;
2502235338730384;-9.5267;0.8638;-2.1434;
2502235348837102;-9.5315;0.8686;-2.1601;
2502235358959342;-9.5462;0.8853;-2.1577;
2502235369066009;-9.5581;0.8638;-2.1793;
2502235379172727;-9.5267;0.8495;-2.1673;
2502235389256790;-9.4860;0.8853;-2.1721;
2502235399363457;-9.5243;0.9045;-2.1840;
2502235409470175;-9.5315;0.9069;-2.2152;
2502235419583405;-9.5267;0.9069;-2.2175;
2502235429690071;-9.5195;0.9117;-2.1912;
2502235439796790;-9.5076;0.9021;-2.1984;
2502235449901425;-9.5076;0.9021;-2.1912;
2502235460008092;-9.5028;0.8758;-2.1817;
2502235470114811;-9.5148;0.8949;-2.1817;
2502235480221217;-9.5172;0.8901;-2.1912;
2502235490327884;-9.4932;0.8925;-2.1745;
2502235500434602;-9.5052;0.9165;-2.2008;
2502235510547467;-9.5267;0.9117;-2.1936;
2502235520654134;-9.5195;0.9069;-2.1769;
2502235530760852;-9.5195;0.9021;-2.1888;
2502235540858717;-9.5219;0.9380;-2.1817;
2502235550965384;-9.5414;0.9332;-2.1673;
2502235561072102;-9.5219;0.9212;-2.1577;
2502235571184655;-9.5124;0.9332;-2.1505;
2502235581291321;-9.5243;0.9332;-2.1505;
2502235591398040;-9.5291;0.9188;-2.1410;
2502235601498457;-9.5172;0.9165;-2.1338;
2502235611605123;-9.5195;0.9141;-2.1386;
2502235621711842;-9.5219;0.8973;-2.1266;
2502235631821738;-9.5342;0.8853;-2.1266;
2502235641928405;-9.5195;0.8925;-2.1386;
2502235652035123;-9.5243;0.8471;-2.1170;
2502235662145905;-9.5414;0.8351;-2.0979;
2502235672252571;-9.5291;0.8255;-2.1242;
2502235682359290;-9.5390;0.8231;-2.1505;
2502235692466217;-9.5414;0.8112;-2.1170;
2502235702572884;-9.5342;0.8112;-2.1290;
2502235712679602;-9.5677;0.8207;-2.1099;
2502235722780644;-9.5605;0.8088;-2.1099;
2502235732887311;-9.5486;0.8016;-2.1314;
2502235742994030;-9.5291;0.8088;-2.1170;
2502235753102155;-9.5390;0.8183;-2.1194;
2502235763208821;-9.5390;0.8303;-2.1362;
2502235773315540;-9.5342;0.7968;-2.1458;
2502235783423405;-9.5315;0.8327;-2.1458;
2502235793530071;-9.5390;0.8303;-2.1649;
2502235803636790;-9.5438;0.8136;-2.1218;
2502235813738717;-9.5315;0.8351;-2.1266;
2502235823845384;-9.5653;0.8518;-2.1745;
2502235833952102;-9.5438;0.8327;-2.1553;
2502235844046946;-9.5267;0.8375;-2.1625;
2502235854153613;-9.5438;0.8279;-2.1314;
2502235864260332;-9.5315;0.8423;-2.1458;
2502235874381217;-9.5486;0.8279;-2.1673;
2502235884487884;-9.5462;0.8279;-2.1577;
2502235894594602;-9.5243;0.8710;-2.1912;
2502235904696321;-9.5100;0.8447;-2.1649;
2502235914802988;-9.5315;0.8399;-2.1625;
2502235924909707;-9.5342;0.8495;-2.1721;
2502235935022623;-9.5243;0.8303;-2.1817;
2502235945129290;-9.5267;0.8423;-2.1817;
2502235955236009;-9.5315;0.8518;-2.1458;
2502235965347050;-9.5342;0.8399;-2.1625;
2502235975453717;-9.5219;0.8542;-2.1888;
2502235985560436;-9.5219;0.8518;-2.1793;
2502235995657988;-9.5267;0.8638;-2.1984;
2502236005764655;-9.5267;0.8423;-2.1458;
2502236015871373;-9.5390;0.8471;-2.1410;
2502236025971321;-9.5291;0.8495;-2.1266;
2502236036077988;-9.5315;0.8495;-2.1218;
2502236046184707;-9.5510;0.8423;-2.1505;
2502236056293092;-9.5342;0.8351;-2.1649;
2502236066399759;-9.5124;0.8471;-2.1745;
2502236076506477;-9.5438;0.8351;-2.1649;
2502236086642988;-9.5414;0.8471;-2.1721;
2502236096749655;-9.5124;0.8447;-2.1553;
2502236106856373;-9.5172;0.8399;-2.1482;
2502236116963092;-9.5438;0.8399;-2.1817;
2502236127059967;-9.5195;0.8662;-2.1625;
2502236137166634;-9.5148;0.8375;-2.1577;
2502236147273352;-9.5052;0.8136;-2.1458;
2502236157408821;-9.5243;0.8447;-2.1601;
2502236167515488;-9.5267;0.8447;-2.1553;
2502236177622207;-9.5342;0.8207;-2.1601;
2502236187677884;-9.5124;0.8495;-2.1793;
2502236197784550;-9.5219;0.8303;-2.1745;
2502236207891269;-9.5342;0.8423;-2.1482;
2502236218012571;-9.5243;0.8518;-2.1458;
2502236228119238;-9.5172;0.8351;-2.1936;
2502236238225957;-9.5315;0.8447;-2.1888;
2502236248333405;-9.5195;0.8471;-2.1745;
2502236258440071;-9.5315;0.8542;-2.1577;
2502236268546790;-9.5172;0.8518;-2.1697;
2502236278649655;-9.5291;0.8495;-2.1912;
2502236288756321;-9.5219;0.8614;-2.1840;
2502236298863040;-9.5342;0.8542;-2.1912;
2502236308975384;-9.5219;0.8447;-2.2032;
2502236319082050;-9.5219;0.8614;-2.1410;
2502236329188769;-9.5124;0.8686;-2.1649;
2502236339302571;-9.5243;0.8806;-2.2175;
2502236349409290;-9.5414;0.8758;-2.1721;
2502236359516009;-9.5267;0.8686;-2.2152;
2502236369606738;-9.5124;0.8686;-2.2104;
2502236379713457;-9.5267;0.8662;-2.2175;
2502236389820175;-9.5172;0.8782;-2.2175;
2502236399934030;-9.5148;0.9069;-2.1817;
2502236410040748;-9.5342;0.9045;-2.1673;
2502236420147467;-9.5195;0.8925;-2.1553;
2502236430248613;-9.5219;0.8686;-2.1817;
2502236440355332;-9.5486;0.8590;-2.2104;
2502236450462050;-9.5390;0.8877;-2.2056;
2502236460574342;-9.5267;0.9523;-2.2008;
2502236470681061;-9.5172;1.1345;-2.3133;
2502236480787780;-9.4334;1.4219;-2.5672;
2502236490893821;-9.4645;1.7764;-2.7015;
2502236501000540;-9.4669;1.1656;-1.6905;
2502236511107259;-9.4765;0.9308;-0.8426;
2502236521230696;-9.6993;1.4937;-2.3037;
2502236531400592;-9.4047;1.4794;-3.1472;
2502236541507259;-9.1771;1.1273;-2.4787;
2502236551613977;-9.6491;1.2470;-2.5337;
2502236561720696;-9.6275;1.1321;-1.9660;
2502236571731321;-9.3233;1.0579;-1.7288;
2502236581838040;-9.6251;0.9188;-2.3782;
2502236591944759;-9.5868;0.7128;-2.2941;
2502236602071842;-9.4525;0.7633;-2.2510;
2502236612178561;-9.4406;0.7801;-2.3686;
2502236622285280;-9.4430;0.5692;-2.1314;
2502236632388821;-9.4669;0.2626;-1.3768;
2502236642495540;-9.8336;0.6434;-2.2702;
2502236652602259;-9.4789;0.5644;-2.6560;
2502236662705696;-9.3520;0.7825;-2.8092;
2502236672812415;-9.5557;0.7944;-2.9578;
2502236682919134;-9.4837;0.4735;-1.9947;
2502236693032467;-9.7113;0.1594;-1.5374;
2502236703139186;-9.6969;0.1594;-1.6403;
2502236713245905;-9.5100;0.3248;-2.0019;
2502236723355800;-9.5028;0.6099;-2.4787;
2502236733462519;-9.4286;0.7920;-2.5935;
2502236743569238;-9.4908;0.7561;-2.3471;
2502236753664134;-9.6443;0.6553;-1.9780;
2502236763770852;-9.5581;0.5835;-1.6475;
2502236773877571;-9.5797;0.9188;-2.1314;
2502236783979342;-9.5438;0.9452;-2.3157;
2502236794086061;-9.3855;0.9404;-2.1242;
2502236804192780;-9.5581;0.9763;-2.2750;
2502236814304655;-9.6108;1.0316;-2.1218;
2502236824411373;-9.4310;1.0890;-1.9660;
2502236834518092;-9.5315;1.0890;-2.2415;
2502236844626113;-9.5653;1.0388;-2.2008;
2502236854732832;-9.4908;1.0196;-2.0521;
2502236864839550;-9.5797;1.0196;-2.1864;
2502236874944655;-9.5701;1.0316;-2.1721;
2502236885051373;-9.4765;0.9978;-2.0354;
2502236895158092;-9.5076;0.9978;-2.1817;
2502236905269707;-9.5677;0.9930;-2.2104;
2502236915376425;-9.4406;0.9141;-2.1242;
2502236925483144;-9.3879;0.7825;-2.0692;
2502236935583613;-9.6132;0.7152;-2.1242;
2502236945690332;-9.8575;0.7561;-2.2774;
2502236955797050;-9.7280;0.8758;-2.4188;
2502236965899446;-9.3808;0.9332;-2.3973;
2502236976006165;-9.2560;0.9093;-2.2798;
2502236986112884;-9.4382;0.8758;-2.2008;
2502236996221373;-9.5868;0.8447;-2.0883;
2502237006328092;-9.5557;0.7825;-2.0521;
2502237016434811;-9.4932;0.7896;-2.1697;
2502237026541634;-9.5100;0.8758;-2.3204;
2502237036648352;-9.5219;0.9643;-2.3351;
2502237046755071;-9.5172;0.9835;-2.2917;
2502237056861217;-9.5581;0.9069;-2.1697;
2502237066967936;-9.5581;0.7872;-1.9995;
2502237077074655;-9.5100;0.6601;-1.8894;
2502237087178925;-9.5510;0.5740;-1.9277;
2502237097285644;-9.5701;0.6003;-2.0186;
2502237107392363;-9.5533;0.6529;-2.1458;
2502237117499082;-9.5414;0.8327;-2.3949;
2502237127598196;-9.5291;0.7657;-2.3710;
2502237137704915;-9.5342;0.5740;-2.1840;
2502237147811634;-9.6060;0.4445;-2.1099;
2502237157955852;-9.5845;0.4086;-2.0788;
2502237168062571;-9.5390;0.3823;-2.0740;
2502237178169290;-9.5219;0.3368;-2.1984;
2502237188285592;-9.5486;0.3224;-2.2726;
2502237198392311;-9.5438;0.3416;-2.2534;
2502237208499030;-9.5797;0.3583;-2.2343;
2502237218573457;-9.5725;0.3535;-2.2487;
2502237228680175;-9.5267;0.3655;-2.2247;
2502237238786894;-9.5172;0.3296;-2.1194;
2502237248899030;-9.5749;0.2985;-2.1290;
2502237259005748;-9.5605;0.3727;-2.1362;
2502237269112467;-9.5243;0.5046;-2.1817;
2502237279215488;-9.4980;0.6027;-2.2654;
2502237289322207;-9.4837;0.6529;-2.2439;
2502237299428925;-9.4597;0.6697;-2.1888;
2502237309543925;-9.4645;0.7032;-2.1027;
2502237319650644;-9.4884;0.7394;-2.1170;
2502237329757363;-9.4980;0.7992;-2.1936;
2502237339876530;-9.4669;0.9308;-2.3180;
2502237349983248;-9.4860;1.1130;-2.4882;
2502237360089967;-9.4621;1.3214;-2.6321;
2502237370184290;-9.4478;1.4076;-2.6847;
2502237380291009;-9.4238;1.4459;-2.5504;
2502237390397727;-9.4238;1.3980;-2.4260;
2502237400500488;-9.4454;1.2808;-2.2917;
2502237410607207;-9.4502;1.0603;-2.1362;
2502237420713925;-9.4956;1.1776;-2.2941;
2502237430821790;-9.4908;1.2709;-2.4787;
2502237440928509;-9.4406;1.3669;-2.5528;
2502237451035227;-9.4334;1.4195;-2.5481;
2502237461141113;-9.4502;1.4698;-2.4188;
2502237471247832;-9.4597;1.5272;-2.3423;
2502237481354550;-9.4621;1.5754;-2.3901;
2502237491466790;-9.4502;1.5826;-2.5193;
2502237501573509;-9.3832;1.5849;-2.5385;
2502237511680227;-9.3568;1.6041;-2.5576;
2502237521767675;-9.4286;1.6376;-2.6106;
2502237531874394;-9.4334;1.6663;-2.5911;
2502237541981113;-9.2465;1.6711;-2.4954;
2502237552099342;-9.1149;1.6280;-2.3782;
2502237562205957;-9.3138;1.5129;-2.4308;
2502237572312519;-9.5629;1.3454;-2.6010;
2502237582433092;-9.5028;1.2494;-2.6680;
2502237592539707;-9.4262;1.2784;-2.6489;
2502237602646269;-9.4023;1.2760;-2.7757;
2502237612750280;-9.3114;1.3430;-2.7924;
2502237622856894;-9.2441;1.4506;-2.5887;
2502237632963457;-9.3544;1.5009;-2.3542;
2502237643057884;-9.4286;1.5491;-2.4619;
2502237653164498;-9.3664;1.0579;-2.7398;
2502237663271061;-9.4167;1.0651;-3.2764;
2502237673368405;-9.3664;0.6673;-3.1134;
2502237683475019;-9.4789;0.1953;-3.0703;
2502237693581582;-9.5148;0.0015;-2.5576;
2502237703701634;-9.4167;0.0494;-1.8559;
2502237713808248;-9.4980;0.0422;-2.1242;
2502237723914811;-9.5390;0.0206;-2.6943;
2502237734022780;-9.3855;0.0494;-2.7422;
2502237744129394;-9.4095;0.1355;-2.6249;
2502237754235957;-9.6586;0.0733;-2.6369;
2502237764360592;-9.5845;-0.2166;-2.2056;
2502237774467207;-9.4190;-0.2955;-2.1745;
2502237784573769;-9.5797;-0.4825;-2.3495;
2502237794671530;-9.7376;-0.5877;-2.3061;
2502237804778144;-9.5940;-0.5710;-2.2582;
2502237814884707;-9.5100;-0.5040;-2.3204;
2502237824980800;-9.4525;-0.4490;-2.4380;
2502237835087415;-9.3640;-0.1783;-2.4715;
2502237845193977;-9.3808;0.1810;-2.3830;
2502237855296009;-9.6610;0.6242;-2.3542;
2502237865402623;-9.6610;0.9619;-2.0593;
2502237875509186;-9.5390;1.1560;-1.7551;
2502237885619238;-9.5916;1.1225;-1.9014;
2502237895725852;-9.6132;1.0412;-2.1123;
2502237905832415;-9.4502;1.0172;-2.0019;
2502237915944967;-9.4382;1.0866;-2.1194;
2502237926051582;-9.6060;1.2589;-2.2558;
2502237936158144;-9.5533;1.4195;-2.0210;
2502237946256217;-9.4669;1.4937;-1.8679;
2502237956362832;-9.5438;1.5586;-2.0617;
2502237966469394;-9.4143;1.6687;-2.1553;
2502237976623873;-9.3664;1.6783;-1.9923;
2502237986730488;-9.5052;1.6591;-1.8870;
2502237996837050;-9.6491;1.6424;-1.8846;
2502238006913977;-9.6395;1.5730;-1.8942;
2502238017020592;-9.4430;1.5368;-1.8153;
2502238027127155;-9.3640;1.5344;-1.9349;
2502238037224342;-9.4286;1.5610;-2.1888;
2502238047330957;-9.4645;1.6328;-2.2965;
2502238057437519;-9.4262;1.6926;-2.2893;
2502238067530175;-9.4645;2.2675;-2.8307;
2502238077636790;-9.3784;1.9777;-2.3710;
2502238087743352;-9.6849;1.5009;-1.9445;
2502238097873352;-9.7639;1.4650;-2.2678;
2502238107979967;-9.3497;1.6376;-2.5887;
2502238118086530;-9.1627;1.7285;-2.8717;
2502238128195592;-9.1125;1.4841;-2.9889;
2502238138302207;-9.3520;1.2039;-2.7278;
2502238148408769;-9.5124;1.0026;-2.2606;
2502238158513352;-9.5940;0.8997;-1.9158;
2502238168619967;-9.8216;0.4854;-1.5203;
2502238178726530;-9.6634;0.2363;-1.3146;
2502238188820800;-9.5028;0.1451;-1.2906;
2502238198927415;-9.5486;0.1570;-1.5203;
2502238209033977;-9.5701;0.2052;-1.7240;
2502238219134238;-9.7352;0.2076;-1.8009;
2502238229240852;-9.9174;0.1594;-1.5852;
2502238239347415;-9.7759;-0.0583;-0.8282;
2502238249470384;-9.6443;-0.3461;-0.3227;
2502238259576998;-9.6323;-0.0607;-0.6485;
2502238269683561;-9.7376;-0.0200;-1.0247;
2502238279785696;-9.9174;0.0589;-1.0726;
2502238289892311;-9.8049;0.6170;-1.5422;
2502238299998873;-9.5486;0.5907;-1.4486;
2502238310101738;-9.4047;1.1584;-1.5996;
2502238320208352;-9.4143;1.3262;-1.4557;
2502238330314915;-9.5916;2.0231;-1.7815;
2502238340439030;-9.7328;2.2029;-1.6499;
2502238350545644;-9.7687;2.4568;-1.8464;
2502238360652207;-9.6993;1.8389;-1.7599;
2502238370758717;-9.5725;1.8150;-1.9445;
2502238380865332;-9.6275;1.6543;-1.7121;
2502238390971894;-9.7256;1.8003;-2.0617;
2502238401069655;-9.7543;1.9944;-2.4476;
2502238411176269;-9.6897;1.6639;-2.3252;
2502238421282832;-9.7041;1.9442;-2.4308;
2502238431384342;-9.6491;1.9178;-2.4595;
2502238441490957;-9.5028;1.2111;-2.3853;
2502238451597519;-9.4597;1.3932;-2.1577;
2502238461709863;-9.6826;1.1656;-2.5696;
