Sensor: bmi160 Accelerometer Non-wakeup
Vendor: BOSCH
TimestampAcc [ns]; AccX [m/s^2]; AccY [m/s^2]; AccZ [m/s^2]
259516684056893;-9.3449;1.2470;-2.7015;
259516689111633;-9.4286;1.1465;-2.5720;
259516694166373;-9.4190;1.0819;-2.2104;
259516699196321;-9.3353;1.2111;-2.7063;
259516704251008;-9.3473;1.3167;-2.9172;
259516709305800;-9.4573;1.3238;-2.8283;
259516714360539;-9.4597;1.3190;-2.7613;
259516719415227;-9.3616;1.2784;-2.8044;
259516724470018;-9.3066;1.1824;-2.5576;
259516729524758;-9.3233;1.1704;-2.1984;
259516734614498;-9.3473;1.2206;-2.2319;
259516739669289;-9.4023;1.2855;-2.3228;
259516744724029;-9.4741;1.3214;-2.4691;
259516749778716;-9.4860;1.3597;-2.4021;
259516754833508;-9.4549;1.3693;-2.4906;
259516759888248;-9.3855;1.4171;-2.6393;
259516764991112;-9.3592;1.4602;-2.6321;
259516770045852;-9.3688;1.4985;-2.5313;
259516775100591;-9.3616;1.5129;-2.4882;
259516780155331;-9.3568;1.4865;-2.4619;
259516785210071;-9.3640;1.4794;-2.2893;
259516790264810;-9.4214;1.4483;-2.1362;
259516795239862;-9.3903;1.4985;-2.1003;
259516800294602;-9.3544;1.5538;-2.2295;
259516805349341;-9.3832;1.5993;-2.3252;
259516810404081;-9.3951;1.6783;-2.3303;
259516815458873;-9.3760;1.7405;-2.4595;
259516820513612;-9.3855;1.7333;-2.4595;
259516825585956;-9.3808;1.7333;-2.3157;
259516830640748;-9.3975;1.6854;-2.1529;
259516835695487;-9.3353;1.6831;-2.0740;
259516840750175;-9.2994;1.6974;-2.0569;
259516845804914;-9.3616;1.7070;-2.0091;
259516850859706;-9.3999;1.7572;-2.0593;
259516855912102;-9.3736;1.7716;-2.1242;
259516860966893;-9.3568;1.8027;-2.1410;
259516866021633;-9.3664;1.8150;-2.1864;
259516871076373;-9.3497;1.8413;-2.2487;
259516876131060;-9.3568;1.8269;-2.2654;
259516881185852;-9.3616;1.8102;-2.2415;
259516886275018;-9.3664;1.7764;-2.0859;
259516891281112;-9.3497;1.7692;-1.9588;
259516896342883;-9.3616;1.7716;-1.9158;
259516901397623;-9.3688;1.7620;-1.9277;
259516906452362;-9.3401;1.8293;-1.9445;
259516911507102;-9.3879;1.8485;-2.0282;
259516916561841;-9.4047;1.9131;-2.1218;
259516921616633;-9.3712;1.9202;-2.1745;
259516926661425;-9.3784;1.9107;-2.1290;
259516931716164;-9.3544;1.9107;-2.0812;
259516936770956;-9.3664;1.9226;-2.0426;
259516941825696;-9.3377;1.9609;-1.9493;
259516946880435;-9.3784;1.9059;-1.8727;
259516951935175;-9.3592;1.8676;-1.8942;
259516957001841;-9.3808;1.8604;-1.9325;
259516962056529;-9.3592;1.8820;-1.9516;
259516967111321;-9.3760;1.8652;-2.0163;
259516972166060;-9.3832;1.8891;-2.0836;
259516977220800;-9.3712;1.8652;-2.1984;
259516982275539;-9.3688;1.8365;-2.1721;
259516987323925;-9.3664;1.8437;-2.1314;
259516992378716;-9.3808;1.8197;-2.1051;
259516997433456;-9.3568;1.7620;-2.0593;
259517002488143;-9.3784;1.7357;-1.9851;
259517007542935;-9.4143;1.6998;-2.0019;
259517012597623;-9.3688;1.6615;-2.0644;
259517017651581;-9.3903;1.6496;-2.1529;
259517022706373;-9.4262;1.6376;-2.2056;
259517027761112;-9.3975;1.6519;-2.3228;
259517032815852;-9.4095;1.6615;-2.4141;
259517037870591;-9.3808;1.6041;-2.4308;
259517042925279;-9.3879;1.5491;-2.3830;
259517047994706;-9.3879;1.5105;-2.3590;
259517053049498;-9.3568;1.4602;-2.3399;
259517058104237;-9.3712;1.4100;-2.3686;
259517063158925;-9.3855;1.3573;-2.3973;
259517068213716;-9.3903;1.3549;-2.4212;
259517073268456;-9.3999;1.3286;-2.4308;
259517078308196;-9.4430;1.2879;-2.4428;
259517083362935;-9.4119;1.2975;-2.5122;
259517088417675;-9.4095;1.2927;-2.5313;
259517093472414;-9.4214;1.2589;-2.5552;
259517098527206;-9.4454;1.2661;-2.4858;
259517103581946;-9.4143;1.2230;-2.4476;
259517108653768;-9.4095;1.2159;-2.4165;
259517113708560;-9.4358;1.1608;-2.4308;
259517118763300;-9.4214;1.1584;-2.4643;
259517123818039;-9.4214;1.1608;-2.5648;
259517128872779;-9.4382;1.1632;-2.6297;
259517133927518;-9.4190;1.1871;-2.6919;
259517138963560;-9.4310;1.1489;-2.6824;
259517144018300;-9.4382;1.1441;-2.6441;
259517149073039;-9.4214;1.1441;-2.6632;
259517154127831;-9.4286;1.0962;-2.6249;
259517159182518;-9.4167;1.0699;-2.6584;
259517164237310;-9.4095;1.0436;-2.6776;
259517169296841;-9.4406;1.0340;-2.6560;
259517174351633;-9.4645;1.0412;-2.5887;
259517179406373;-9.4214;1.0292;-2.5816;
259517184461112;-9.4573;1.0101;-2.6680;
259517189515852;-9.4525;1.0172;-2.7398;
259517194570643;-9.4502;1.0077;-2.8211;
259517199614289;-9.4238;1.0172;-2.8594;
259517204669081;-9.4214;0.9643;-2.8717;
259517209723768;-9.4621;0.9117;-2.8765;
259517214778560;-9.4669;0.8949;-2.7829;
259517219833300;-9.4597;0.8064;-2.7087;
259517224888039;-9.4549;0.7657;-2.7398;
259517229951998;-9.4908;0.7537;-2.7302;
259517235006737;-9.4956;0.7992;-2.7398;
259517240061477;-9.5028;0.7872;-2.7613;
259517245116216;-9.5100;0.7872;-2.7637;
259517250170956;-9.4860;0.8040;-2.7613;
259517255225748;-9.4573;0.8303;-2.7541;
259517260277206;-9.4549;0.8710;-2.7422;
259517265331946;-9.4621;0.8758;-2.7709;
259517270386685;-9.4549;0.8949;-2.7374;
259517275441425;-9.4669;0.9308;-2.7039;
259517280496164;-9.4549;0.9500;-2.6752;
259517285550956;-9.4525;0.9930;-2.6608;
259517290609602;-9.4549;1.0026;-2.6201;
259517295664393;-9.4454;1.0436;-2.6273;
259517300719133;-9.4334;1.0962;-2.6704;
259517305773873;-9.4382;1.1321;-2.6417;
259517310828664;-9.4382;1.1608;-2.5744;
259517315883404;-9.4741;1.1871;-2.4739;
259517320950539;-9.4358;1.2087;-2.3901;
259517326005331;-9.4406;1.2517;-2.3303;
259517331060071;-9.4549;1.2903;-2.2750;
259517336114810;-9.4334;1.3502;-2.2510;
259517341169550;-9.4286;1.3956;-2.2463;
259517346224237;-9.4286;1.4195;-2.2822;
259517351281164;-9.4214;1.4626;-2.2367;
259517356335904;-9.4023;1.5105;-2.2534;
259517361390696;-9.3927;1.5443;-2.1912;
259517366445383;-9.3975;1.5634;-2.1984;
259517371500175;-9.4334;1.5754;-2.1817;
259517376554862;-9.4214;1.5754;-2.1577;
259517381607310;-9.3999;1.6017;-2.1218;
259517386662050;-9.4238;1.6161;-2.1123;
259517391716789;-9.4071;1.5826;-2.0692;
259517396771529;-9.3855;1.6041;-2.0692;
259517401826268;-9.3927;1.6448;-2.0836;
259517406881060;-9.4119;1.6424;-2.0668;
259517411921893;-9.4214;1.6807;-2.0306;
259517416976633;-9.4358;1.6472;-1.9947;
259517422031373;-9.4382;1.6950;-1.9325;
259517427086112;-9.4190;1.7524;-1.8823;
259517432140852;-9.4047;1.7764;-1.8583;
259517437195643;-9.4047;1.7931;-1.8272;
259517442257050;-9.3927;1.8126;-1.8440;
259517447311841;-9.3832;1.8485;-1.8320;
259517452366581;-9.3664;1.8604;-1.8655;
259517457421321;-9.3688;1.9107;-1.8894;
259517462476060;-9.3712;1.9226;-1.8535;
259517467530852;-9.3736;1.9178;-1.8464;
259517472577831;-9.3616;1.9035;-1.8464;
259517477632571;-9.4286;1.8939;-1.8870;
259517482687310;-9.4023;1.8891;-1.8799;
259517487742050;-9.4119;1.8556;-1.8344;
259517492796841;-9.4406;1.8341;-1.7647;
259517497851529;-9.4358;1.8126;-1.7121;
259517502902206;-9.4358;1.8197;-1.7384;
259517507956946;-9.4478;1.8365;-1.7121;
259517513011685;-9.4406;1.8891;-1.7288;
259517518066425;-9.4095;1.9131;-1.7767;
259517523121164;-9.4095;1.9178;-1.7743;
259517528175904;-9.4262;1.9513;-1.7671;
259517533234810;-9.4119;1.9178;-1.7647;
259517538289550;-9.4406;1.9011;-1.7838;
259517543344289;-9.4310;1.9346;-1.7815;
259517548399029;-9.4406;1.9155;-1.7384;
259517553453821;-9.4621;1.8939;-1.6857;
259517558508508;-9.4430;1.8939;-1.7145;
259517563571008;-9.4214;1.9083;-1.7551;
259517568625800;-9.4262;1.9274;-1.7862;
259517573680539;-9.4406;1.9513;-1.7767;
259517578735279;-9.4047;2.0160;-1.8129;
259517583790071;-9.3664;2.0016;-1.7934;
259517588844810;-9.3520;1.8939;-1.6929;
259517593909706;-9.4167;1.9561;-1.7025;
259517598964498;-9.4669;2.0904;-1.7862;
259517604019237;-9.4023;2.0471;-1.7527;
259517609073977;-9.3760;2.0112;-1.7910;
259517614128716;-9.3688;2.0662;-1.7961;
259517619183456;-9.3927;2.0590;-1.7456;
259517624236164;-9.4621;2.0542;-1.7216;
259517629290956;-9.5004;2.0495;-1.8583;
259517634345696;-9.4860;2.2029;-2.1888;
259517639400383;-9.3473;2.4951;-2.4093;
259517644455123;-9.2058;1.9418;-1.8823;
259517649509862;-9.2874;1.4937;-1.4055;
259517654558821;-9.4382;2.0183;-1.7192;
259517659613612;-9.5438;2.0976;-1.6810;
259517664668352;-9.5486;1.7692;-1.3313;
259517669723091;-9.5701;1.8891;-1.4892;
259517674777831;-9.5557;2.0399;-1.6905;
259517679832571;-9.4262;2.0542;-1.4821;
259517684892675;-9.3138;2.0207;-1.4198;
259517689947414;-9.3114;1.9848;-1.7432;
259517695002154;-9.4478;1.7524;-2.1482;
259517700056946;-9.5773;2.2412;-1.8176;
259517705111685;-9.1412;1.6113;-1.5326;
259517710166373;-8.9877;2.7945;-2.3949;
259517715206841;-9.1077;2.8400;-2.4858;
259517720261633;-9.3664;2.2507;-1.9540;
259517725316373;-9.2850;2.0856;-1.4246;
259517730371112;-9.3784;2.0471;-2.2104;
259517735425904;-9.6491;2.0856;-1.7695;
259517740480591;-9.6203;1.9155;-1.6427;
259517745530018;-9.6036;2.1024;-1.7961;
259517750584758;-9.4190;2.0833;-1.9181;
259517755639498;-9.2779;1.9561;-1.5924;
259517760694237;-9.2656;1.9992;-1.3911;
259517765749029;-9.2058;2.0710;-1.7886;
259517770803716;-9.2058;1.9585;-1.8511;
259517775859914;-9.4143;1.9561;-1.9110;
259517780914654;-9.4980;1.9585;-1.9421;
259517785969393;-9.4119;1.8221;-2.2869;
259517791024133;-9.3879;1.7548;-2.1721;
259517796078873;-9.4358;1.6663;-2.1458;
259517801133664;-9.4621;1.5873;-2.0450;
259517806189081;-9.4621;1.5610;-2.3109;
259517811243821;-9.5315;1.5969;-2.3542;
259517816298560;-9.4789;1.5706;-2.2008;
259517821353300;-9.4047;1.6878;-2.1410;
259517826408039;-9.2707;1.7237;-2.3013;
259517831462831;-9.2513;1.7836;-2.2032;
259517836509862;-9.2608;1.6926;-2.1338;
259517841564654;-9.3688;1.7333;-2.2463;
259517846619393;-9.4190;1.7859;-2.4476;
259517851674133;-9.4789;1.7381;-2.4117;
259517856728873;-9.5172;1.6639;-2.2893;
259517861783612;-9.4621;1.6184;-2.3252;
259517866853143;-9.3592;1.5562;-2.2989;
259517871907935;-9.3209;1.5129;-2.2152;
259517876962623;-9.2898;1.5105;-2.2128;
259517882017414;-9.2850;1.5491;-2.3276;
259517887072154;-9.3592;1.5129;-2.4428;
259517892126841;-9.4860;1.5081;-2.3204;
259517897176893;-9.5124;1.4770;-2.3037;
259517902231633;-9.4908;1.4100;-2.3085;
259517907286373;-9.4382;1.3597;-2.4236;
259517912341112;-9.4741;1.4148;-2.3518;
259517917395852;-9.4837;1.3789;-2.3830;
259517922450591;-9.4741;1.3932;-2.4715;
259517927522102;-9.4884;1.3669;-2.4595;
259517932576841;-9.4382;1.3860;-2.2941;
259517937631581;-9.3616;1.3956;-2.2654;
259517942686321;-9.3329;1.4435;-2.3542;
259517947741112;-9.3353;1.4794;-2.4404;
259517952795800;-9.3592;1.5368;-2.4476;
259517957845383;-9.4143;1.5969;-2.5385;
259517962900123;-9.4358;1.5538;-2.5552;
259517967954862;-9.4143;1.5562;-2.4308;
259517973009602;-9.4502;1.5610;-2.3085;
259517978064341;-9.4358;1.5658;-2.2463;
259517983119081;-9.4310;1.5514;-2.2654;
259517988166216;-9.4597;1.5491;-2.2845;
259517993221008;-9.4358;1.5467;-2.2319;
259517998275696;-9.3975;1.5634;-2.2582;
259518003330435;-9.3568;1.5826;-2.3037;
259518008385227;-9.3975;1.5969;-2.2941;
259518013439914;-9.4214;1.5778;-2.3013;
259518018517831;-9.4573;1.6352;-2.3423;
259518023572571;-9.4525;1.5969;-2.3228;
259518028627310;-9.4023;1.5826;-2.2606;
259518033682050;-9.3736;1.7189;-2.3061;
259518038736789;-9.4167;1.5610;-2.1673;
259518043791529;-9.3927;1.5419;-2.1314;
259518048843560;-9.4095;1.6137;-2.2606;
259518053898300;-9.4143;1.6400;-2.2702;
259518058953039;-9.4167;1.5921;-2.2893;
259518064007779;-9.3808;1.6400;-2.2869;
259518069062518;-9.3999;1.6424;-2.2893;
259518074117258;-9.4095;1.6041;-2.2678;
259518079166998;-9.4095;1.6424;-2.2726;
259518084221737;-9.4358;1.6998;-2.2582;
259518089276477;-9.4190;1.7357;-2.2534;
259518094331216;-9.3664;1.7237;-2.2175;
259518099385956;-9.4047;1.7285;-2.1840;
259518104440696;-9.3784;1.7859;-2.1864;
259518109501216;-9.3449;1.7644;-2.1912;
259518114556008;-9.3712;1.7955;-2.2702;
259518119610748;-9.3760;1.8269;-2.2750;
259518124665487;-9.3736;1.8437;-2.2917;
259518129720227;-9.3951;1.8437;-2.2965;
259518134774966;-9.3736;1.8628;-2.2702;
259518139789654;-9.3975;1.8293;-2.2774;
259518144844446;-9.3736;1.8317;-2.2510;
259518149899133;-9.3473;1.8389;-2.2606;
259518154953873;-9.3449;1.8652;-2.2702;
259518160008612;-9.3401;1.8532;-2.3180;
259518165063352;-9.3688;1.8556;-2.3566;
259518170136841;-9.3592;1.8003;-2.3710;
259518175191581;-9.3449;1.7333;-2.2893;
259518180246321;-9.3544;1.6352;-2.2295;
259518185301112;-9.3592;1.6113;-2.2008;
259518190355800;-9.3832;1.6065;-2.1888;
259518195410539;-9.3879;1.6304;-2.2199;
259518200441008;-9.4047;1.6519;-2.2558;
259518205495748;-9.4167;1.6496;-2.2510;
259518210550539;-9.3855;1.6735;-2.2750;
259518215605279;-9.3138;1.7381;-2.3925;
259518220659966;-9.3520;1.7548;-2.5002;
259518225714706;-9.3305;1.8027;-2.5265;
259518230796216;-9.3497;1.7836;-2.5863;
259518235851008;-9.3281;1.7644;-2.5935;
259518240905748;-9.3257;1.7237;-2.5193;
259518245960487;-9.3042;1.6400;-2.4021;
259518251015227;-9.3114;1.5682;-2.3877;
259518256069914;-9.3497;1.5826;-2.3949;
259518261122310;-9.3233;1.5634;-2.3662;
259518266177050;-9.3377;1.5754;-2.4093;
259518271231737;-9.3760;1.5610;-2.4212;
259518276286529;-9.3568;1.5562;-2.4691;
259518281341268;-9.3760;1.5849;-2.4954;
259518286396008;-9.3832;1.5610;-2.5337;
259518291451425;-9.3377;1.5105;-2.5217;
259518296506216;-9.3377;1.4865;-2.4978;
259518301560956;-9.3544;1.4770;-2.4308;
259518306615696;-9.3497;1.4243;-2.4308;
259518311670435;-9.3999;1.4100;-2.3806;
259518316725175;-9.3951;1.4243;-2.3566;
259518321797518;-9.4071;1.4171;-2.4069;
259518326852258;-9.3616;1.4746;-2.4141;
259518331906998;-9.3090;1.6017;-2.4428;
259518336961737;-9.2827;1.7213;-2.5624;
259518342016477;-9.3209;1.8556;-2.6082;
259518347071216;-9.2850;1.9490;-2.6249;
259518352126060;-9.2489;2.0183;-2.6034;
259518357180800;-9.2874;2.0375;-2.4619;
259518362235539;-9.3305;2.0495;-2.2487;
259518367290279;-9.3640;2.0112;-2.0883;
259518372345018;-9.3832;1.9872;-1.9780;
259518377399758;-9.4119;1.9490;-1.9110;
259518382455800;-9.3927;1.8867;-1.7264;
259518387510539;-9.3688;1.9394;-1.6786;
259518392565279;-9.3664;1.9274;-1.7145;
259518397620018;-9.3353;2.0785;-1.7432;
259518402674758;-9.3233;2.2460;-1.8296;
259518407729498;-9.3090;2.3946;-1.9923;
259518412767362;-9.2803;2.4544;-2.0668;
259518417822154;-9.2898;2.4688;-2.0115;
259518422876893;-9.2755;2.3154;-2.0450;
259518427931633;-9.3090;2.2268;-1.9181;
259518432986321;-9.3329;2.2220;-1.8464;
259518438041060;-9.4167;2.2125;-1.7719;
259518443099446;-9.3736;2.2436;-1.6427;
259518448154185;-9.3640;2.3611;-1.6475;
259518453208925;-9.3114;2.4975;-1.7623;
259518458263716;-9.2178;2.5956;-1.7240;
259518463318456;-9.2489;2.6605;-1.7599;
259518468373196;-9.2874;2.7467;-1.8081;
259518473416998;-9.3233;2.7514;-1.7910;
259518478471685;-9.3257;2.7634;-1.8009;
259518483526425;-9.3736;2.6366;-1.5972;
259518488581164;-9.3688;2.4616;-1.2858;
259518493635904;-9.3497;2.3010;-1.1922;
259518498690643;-9.3305;2.2101;-1.0822;
259518503749498;-9.3305;2.3034;-1.2906;
259518508804185;-9.3281;2.3827;-1.4366;
259518513858977;-9.3425;2.4497;-1.4964;
259518518913664;-9.2803;2.4855;-1.5996;
259518523968404;-9.2560;2.4138;-1.5876;
259518529023196;-9.2513;2.3345;-1.5876;
259518534079758;-9.3138;2.2699;-1.5350;
259518539134498;-9.3664;2.3345;-1.4940;
259518544189237;-9.3688;2.4018;-1.6570;
259518549244029;-9.3879;2.3058;-1.7288;
259518554298768;-9.3209;2.0904;-1.5685;
259518559353508;-9.2850;1.8461;-1.4294;
259518564427050;-9.2731;1.5849;-1.2595;
259518569481789;-9.3473;1.4219;-1.3050;
259518574536529;-9.4454;1.4698;-1.3169;
259518579591268;-9.4597;1.7237;-1.5156;
259518584646008;-9.4119;1.7285;-1.8464;
259518589700748;-9.3760;1.4937;-1.8057;
259518594753768;-9.3090;1.2565;-1.6810;
259518599808508;-9.3162;1.1608;-1.5637;
259518604863248;-9.3497;1.2302;-1.8655;
259518609917987;-9.4143;1.0866;-2.0907;
259518614972727;-9.4334;0.7152;-1.8057;
259518620027466;-9.4765;0.6721;-1.7767;
259518625078248;-9.4837;0.7753;-1.9588;
259518630132987;-9.4071;0.4783;-1.8942;
259518635187727;-9.3233;0.1307;-1.6857;
259518640242466;-9.4238;0.3176;-1.8607;
259518645297206;-9.5773;0.4950;-2.3204;
259518650351946;-9.5892;0.4158;-2.2463;
259518655391946;-9.5438;0.5453;-2.3399;
259518660446685;-9.4884;0.6290;-2.8355;
259518665501477;-9.3784;0.2459;-2.4093;
259518670556164;-9.3712;0.0996;-1.9923;
259518675610956;-9.4884;0.2794;-2.4858;
259518680665696;-9.5076;0.2195;-2.6106;
259518685715904;-9.4669;0.2961;-2.5528;
259518690770643;-9.4956;0.1834;-2.7326;
259518695825383;-9.4286;-0.1950;-2.2463;
259518700880071;-9.3736;-0.0849;-2.0258;
259518705934862;-9.4502;-0.0488;-2.4404;
259518710989602;-9.5243;-0.1208;-2.2654;
259518716040487;-9.5486;0.2387;-2.5385;
259518721095279;-9.6036;0.3775;-2.9818;
259518726149966;-9.4741;0.3392;-2.5839;
259518731204758;-9.3879;0.4540;-2.8331;
259518736259498;-9.3640;0.3344;-2.7972;
259518741314185;-9.3042;0.4612;-2.4021;
259518746442154;-9.3999;0.6745;-2.9865;
259518751496841;-9.4190;0.4612;-2.7876;
259518756551633;-9.3975;0.6553;-2.5887;
259518761606373;-9.4119;0.7537;-2.9578;
259518766661112;-9.3162;0.4158;-2.4165;
259518771715852;-9.3042;0.6553;-2.4452;
259518776723977;-9.3233;0.8925;-2.9483;
259518781778716;-9.3138;0.7968;-2.6154;
259518786833456;-9.3185;1.0866;-2.7661;
259518791888196;-9.3425;1.2879;-3.1950;
259518796942935;-9.2560;1.1010;-2.9195;
259518801997675;-9.2082;1.0986;-2.7494;
259518807069133;-9.2225;1.2374;-2.9387;
259518812123873;-9.1651;0.8662;-3.1854;
259518817178612;-9.1531;0.5142;-2.9411;
259518822233300;-9.3185;0.6553;-2.8259;
259518827288039;-9.4047;0.8806;-3.0751;
259518832342831;-9.2273;0.6482;-3.1878;
259518837355956;-9.1196;0.3320;-2.9674;
259518842410696;-9.2106;0.4110;-2.7422;
259518847465435;-9.2970;0.6290;-2.7829;
259518852520175;-9.2536;0.7609;-3.2405;
259518857574914;-9.2707;0.6936;-3.3793;
259518862629654;-9.2584;0.6697;-3.2046;
259518867705800;-9.1938;0.5548;-2.9674;
259518872760539;-9.1005;0.5118;-2.9315;
259518877815279;-9.1196;0.5907;-3.1352;
259518882870018;-9.1388;0.6577;-3.1543;
259518887924758;-9.1340;0.6505;-3.2477;
259518892979498;-9.1412;0.5022;-3.1181;
259518898020383;-9.1005;0.3535;-2.9746;
259518903075123;-9.1125;0.1857;-2.9148;
259518908129914;-9.1125;0.0063;-2.7637;
259518913184654;-9.2225;0.0733;-3.0129;
259518918239446;-9.2707;0.0829;-2.9889;
259518923294133;-9.2489;0.1522;-3.1277;
259518928353821;-9.1603;0.1092;-3.1472;
259518933408612;-9.0790;0.1618;-3.1352;
259518938463352;-9.0909;0.1451;-3.0703;
259518943518091;-9.1364;0.1379;-3.0559;
259518948572883;-9.0718;0.0470;-3.1277;
259518953627571;-9.0287;-0.0655;-3.2836;
259518958670331;-9.0503;-0.1208;-3.3218;
259518963725018;-9.0957;-0.2955;-3.1158;
259518968779810;-9.0790;-0.2500;-3.2596;
259518973834550;-9.1029;-0.2477;-3.0918;
259518978889289;-9.0933;-0.3437;-2.6417;
259518983944081;-8.9877;-0.5590;-3.0607;
259518989010696;-9.0526;-0.6479;-3.1158;
259518994065435;-9.2369;-0.6909;-3.1926;
259518999120227;-9.2273;-0.8465;-3.1158;
259519004174966;-9.0861;-1.2826;-3.0727;
259519009229706;-9.0407;-1.4312;-3.0966;
259519014284446;-9.1196;-1.4288;-3.0176;
259519019347779;-9.0885;-1.5700;-3.0655;
259519024402518;-9.0814;-1.6780;-3.0320;
259519029457310;-9.1220;-1.6995;-3.2381;
259519034512050;-9.1316;-1.5556;-3.2883;
259519039566789;-9.0598;-1.7402;-3.1448;
259519044621529;-9.0431;-1.7952;-3.1158;
259519049670435;-9.0335;-1.6202;-3.1831;
259519054725175;-9.1579;-1.4767;-3.1950;
259519059779966;-9.1771;-1.3400;-2.9650;
259519064834706;-9.0766;-1.1267;-2.9052;
259519069889498;-8.9447;-1.2514;-2.8044;
259519074944237;-8.8585;-1.5365;-2.7446;
259519080144810;-9.1364;-1.4695;-2.9626;
259519085199602;-9.3066;-1.4815;-3.2907;
259519090254341;-9.0957;-1.4575;-3.6212;
259519095309081;-8.9734;-1.7115;-2.9554;
259519100363821;-9.0814;-1.3591;-3.0583;
259519105418560;-9.2584;-1.3352;-3.1448;
259519110342466;-9.3784;-1.5508;-3.0703;
259519115397206;-9.2779;-1.5843;-3.0583;
259519120451946;-9.1268;-1.4934;-3.0009;
259519125506737;-8.8729;-1.5437;-2.7876;
259519130561477;-8.7509;-1.7234;-2.7326;
259519135616216;-8.7915;-1.5652;-2.9148;
259519140681789;-9.0096;-1.5078;-2.9889;
259519145736529;-9.1053;-1.2993;-3.0918;
259519150791321;-9.0670;-0.9712;-3.2812;
259519155846060;-9.0072;-0.9257;-2.8884;
259519160900800;-8.9183;-0.9425;-2.5193;
259519165955539;-8.9590;-1.2371;-2.4260;
259519170982362;-9.0479;-1.5317;-2.6943;
259519176037102;-9.2225;-2.0396;-3.0966;
259519181091893;-9.2970;-1.5317;-3.5782;
259519186146633;-9.2082;-1.3161;-3.6117;
259519191201373;-8.8609;-1.7282;-2.9124;
259519196256112;-8.5950;-1.5532;-2.9387;
259519201328560;-8.7604;-1.4216;-2.9722;
259519206383300;-8.9423;-1.4934;-2.9004;
259519211438039;-9.1077;-1.6633;-2.8546;
259519216492779;-9.2130;-1.7569;-2.8235;
259519221547571;-9.1173;-1.8814;-2.6225;
259519226602258;-8.9877;-1.9630;-2.4858;
259519231648300;-8.9806;-1.7163;-2.4858;
259519236703039;-8.9231;-1.6585;-2.6417;
259519241757831;-8.9423;-1.5556;-2.8211;
259519246812571;-9.0120;-1.3998;-3.0655;
259519251867310;-9.0574;-1.4145;-3.0727;
259519256922050;-8.9830;-1.5532;-2.9315;
259519261962935;-8.8633;-1.5700;-2.8140;
259519267017675;-8.7341;-1.5269;-2.7781;
259519272099966;-8.7147;-1.5197;-2.8068;
259519277154706;-8.8202;-1.4049;-3.0511;
259519282209446;-8.9877;-1.3424;-3.0918;
259519287264185;-9.0120;-1.3711;-3.0368;
259519292318977;-8.9542;-1.3089;-2.8765;
259519297373716;-8.8585;-1.3783;-2.6177;
259519302403456;-8.7580;-1.3328;-2.4117;
259519307458196;-8.7891;-1.2921;-2.4236;
259519312512935;-8.8729;-1.2371;-2.5672;
259519317567675;-8.8968;-1.2873;-2.6154;
259519322622414;-8.8681;-1.3663;-2.5026;
259519327677206;-8.7413;-1.2706;-2.5887;
259519332745748;-8.6477;-1.3113;-2.6177;
259519337800487;-8.6429;-1.3065;-2.7589;
259519342855279;-8.7365;-1.2060;-3.0105;
259519347910018;-8.7963;-1.2060;-3.1448;
259519352964758;-8.7915;-1.3807;-3.0248;
259519358019498;-8.7266;-1.5126;-2.7494;
259519363075800;-8.6620;-1.6609;-2.5624;
259519368130539;-8.6524;-1.8096;-2.5720;
259519373185279;-8.6501;-1.8287;-2.6943;
259519378240071;-8.7194;-1.8909;-2.7900;
259519383294810;-8.7123;-1.9388;-2.7829;
259519388349550;-8.6094;-2.0228;-2.7039;
259519393423768;-8.5926;-2.1090;-2.6704;
259519398478456;-8.5735;-2.1305;-2.7350;
259519403533248;-8.5998;-2.2337;-2.8499;
259519408587987;-8.6644;-2.2672;-3.0009;
259519413642727;-8.7051;-2.3174;-3.0583;
259519418697466;-8.6046;-2.3581;-2.9698;
259519423722779;-8.5328;-2.4299;-2.8211;
259519428777518;-8.5041;-2.4347;-2.9339;
259519433832310;-8.5208;-2.3844;-2.9889;
259519438887050;-8.5065;-2.4829;-3.0511;
259519443941789;-8.3913;-1.9869;-3.1277;
259519448996529;-8.6357;-0.5710;-2.2439;
259519454052675;-8.8155;-1.3065;-1.3792;
259519459107414;-8.3507;-0.0802;-2.4954;
259519464162206;-7.9747;-1.4647;-2.4188;
259519469216946;-8.1613;-1.8742;-2.5385;
259519474271737;-7.9603;-1.5485;-3.9592;
259519479326425;-7.9819;-2.8373;-3.6452;
259519484375800;-8.2525;-2.8301;-3.4442;
259519489430539;-8.3865;-2.2911;-3.6021;
259519494485331;-8.5041;-2.7511;-2.9985;
259519499540071;-8.4658;-3.2109;-2.5624;
259519504594810;-8.4272;-3.5824;-2.3925;
259519509649550;-8.5065;-3.6422;-2.1960;
259519514707883;-8.4658;-3.7379;-2.5002;
259519519762675;-8.4464;-3.8267;-2.5241;
259519524817414;-8.2813;-3.7618;-2.8427;
259519529872154;-8.0489;-3.7140;-2.5481;
259519534926946;-7.8571;-3.5632;-2.4787;
259519539981685;-7.8835;-3.3954;-2.5481;
259519545028977;-7.9388;-3.1032;-2.7852;
259519550083716;-8.0895;-2.7727;-3.3242;
259519555138456;-8.2932;-2.5522;-3.5183;
259519560193196;-8.1900;-2.4084;-3.9377;
259519565247987;-8.0130;-2.5211;-3.8656;
259519570302727;-7.8619;-2.6719;-3.7962;
259519575374081;-7.7471;-2.9545;-3.5782;
259519580428821;-7.7327;-3.1104;-3.4274;
259519585483612;-7.8404;-3.4576;-3.3314;
259519590538352;-7.9484;-4.1166;-2.7948;
259519595593091;-7.9265;-4.5212;-2.2630;
259519600647831;-8.0058;-4.4088;-2.2726;
259519605709185;-8.0465;-4.5882;-2.4476;
259519610763925;-8.0249;-4.7177;-2.2965;
259519615818716;-8.0632;-4.5882;-2.8669;
259519620873456;-8.0871;-4.4231;-3.3147;
259519625928196;-7.9819;-4.4782;-3.7005;
259519630982935;-7.8930;-4.4518;-3.7340;
259519636035800;-7.8404;-4.4351;-3.6428;
259519641090539;-7.6896;-4.6244;-3.4155;
259519646145279;-7.6657;-4.8015;-3.1014;
259519651200018;-7.8093;-4.8661;-2.8594;
259519656254758;-7.8835;-5.1105;-2.6847;
259519661309498;-7.9241;-5.5178;-2.5528;
259519666365643;-7.9555;-5.5657;-2.5481;
259519671420383;-7.9627;-5.4676;-2.7398;
259519676475123;-7.8954;-5.4891;-2.8642;
259519681529862;-7.8547;-5.5131;-3.0966;
259519686584602;-7.8763;-5.3333;-3.2166;
259519691639341;-7.8691;-5.3524;-3.1591;
259519696668196;-7.7495;-5.3142;-3.1110;
259519701722987;-7.6825;-5.1009;-3.0511;
259519706777727;-7.6582;-5.0339;-2.7972;
259519711832466;-7.6439;-4.8781;-2.6130;
259519716887206;-7.7375;-4.7441;-2.7876;
259519721941946;-7.7207;-4.7417;-2.9411;
259519727049498;-7.6801;-4.9382;-3.0153;
259519732104237;-7.7231;-4.8541;-3.0129;
259519737158977;-7.6801;-4.7560;-3.1735;
259519742213716;-7.6223;-4.9190;-3.0775;
259519747268456;-7.5960;-5.1057;-2.9602;
259519752323196;-7.6176;-5.2208;-2.9315;
259519757330539;-7.5553;-5.4987;-2.8307;
259519762385279;-7.5817;-5.7766;-2.7398;
259519767440071;-7.6582;-6.1214;-2.8211;
259519772494810;-7.6271;-6.4256;-2.9602;
259519777549550;-7.6848;-7.0391;-3.1110;
259519782604289;-7.6558;-7.2138;-3.3936;
259519787688873;-7.5649;-7.3385;-3.5806;
259519792743612;-7.5864;-7.3385;-3.7340;
259519797798404;-7.4716;-7.0463;-3.7484;
259519802853091;-7.3588;-6.8545;-3.4466;
259519807907831;-7.4524;-6.6556;-3.0105;
259519812962623;-7.5410;-6.5049;-2.6512;
259519818043143;-7.6439;-6.5216;-2.4141;
259519823097831;-7.7901;-6.4783;-2.2199;
259519828152623;-7.7638;-6.2148;-2.4667;
259519833207362;-7.6247;-5.8101;-2.9506;
259519838262154;-7.4859;-5.6136;-3.3218;
259519843316893;-7.3540;-5.4221;-3.6356;
259519848340643;-7.2823;-5.4556;-3.7747;
259519853395383;-7.2679;-5.5490;-3.7627;
259519858450175;-7.2942;-5.6327;-3.5088;
259519863504914;-7.3899;-5.8508;-3.1038;
259519868559654;-7.4524;-6.0975;-2.7876;
259519873614393;-7.4309;-6.2172;-2.4523;
259519878667883;-7.4572;-5.9273;-2.5672;
259519883722623;-7.4668;-5.8723;-2.9698;
259519888777414;-7.4046;-6.4280;-2.9435;
259519893832102;-7.3038;-6.7250;-3.0368;
259519898886893;-7.2727;-6.8498;-3.4466;
259519903941581;-7.2416;-7.1228;-3.3649;
259519908991216;-7.2990;-7.2497;-3.1325;
259519914045956;-7.3397;-7.3074;-2.9961;
259519919100748;-7.2942;-7.4127;-2.9770;
259519924155487;-7.3158;-7.4845;-3.0009;
259519929210227;-7.3926;-7.4701;-3.0416;
259519934264786;-7.3974;-7.3600;-3.2812;
259519939315724;-7.3445;-7.2257;-3.5686;
259519944370516;-7.3158;-6.9838;-3.6619;
259519949425255;-7.2990;-6.8234;-3.4729;
259519954479995;-7.3014;-6.7588;-3.3147;
259519959534734;-7.2224;-6.7513;-3.1807;
259519964589474;-7.2296;-6.6532;-3.0368;
259519969643641;-7.2177;-6.5934;-2.8669;
259519974698432;-7.1339;-6.5982;-2.8813;
259519979753172;-7.1192;-6.4615;-2.8837;
259519984807911;-7.1674;-6.5480;-2.8932;
259519989862651;-7.2631;-6.2988;-2.7637;
259519994917443;-7.3756;-6.4256;-2.8068;
259519999989578;-7.3325;-6.3969;-3.2022;
259520005044266;-7.2344;-6.3251;-3.8919;
259520010099057;-7.0929;-6.9479;-3.8919;
259520015153797;-6.9852;-7.2090;-3.8824;
259520020208484;-6.9852;-7.5467;-3.9182;
259520025263276;-7.1339;-7.9780;-3.7364;
259520030296453;-7.1001;-7.9493;-3.4466;
259520035351245;-6.9135;-8.1553;-2.5217;
259520040405984;-6.9063;-7.8054;-2.1984;
259520045460724;-7.1169;-7.2879;-2.1817;
259520050515516;-7.3301;-7.1013;-2.4763;
259520055570255;-7.3684;-7.2185;-3.2716;
259520060618068;-7.1794;-7.9110;-3.4585;
259520065672807;-7.1025;-7.6857;-3.8919;
259520070727547;-7.0403;-7.5562;-4.3328;
259520075782286;-7.0403;-7.8799;-3.9015;
259520080837078;-7.0499;-7.8221;-3.6571;
259520085891818;-7.0977;-7.6618;-3.2213;
259520090964318;-7.0403;-7.6140;-2.8956;
259520096019057;-6.9924;-7.6451;-2.6560;
259520101073849;-7.0570;-7.3457;-2.9411;
259520106128536;-7.0762;-6.9909;-3.2596;
259520111183328;-7.0977;-6.8737;-3.4561;
259520116238016;-7.0642;-6.7394;-3.6117;
259520121296713;-7.1387;-6.8186;-3.4872;
259520126351453;-7.1001;-6.9909;-3.3338;
259520131406245;-7.1411;-7.2257;-3.1229;
259520136460932;-7.1097;-7.5443;-2.9411;
259520141515672;-7.0259;-7.7073;-2.8980;
259520146570411;-6.9135;-7.8221;-2.9746;
259520151601609;-6.9135;-7.8655;-3.1086;
259520156656297;-6.9446;-7.8078;-3.4274;
259520161711088;-6.9565;-7.5972;-3.6981;
259520166765828;-7.0307;-7.3050;-3.7364;
259520171820620;-7.0164;-7.1300;-3.6045;
259520176875307;-6.9876;-7.0077;-3.3123;
259520181933224;-6.9900;-6.8378;-3.0607;
259520186987963;-7.0044;-6.7708;-2.7948;
259520192042703;-7.0475;-6.7804;-2.7111;
259520197097443;-7.0307;-6.7370;-2.7996;
259520202152182;-7.0331;-6.3634;-3.2022;
259520207206974;-6.8991;-5.9683;-3.4992;
259520212263484;-6.6356;-5.7598;-3.6933;
259520217318172;-6.5276;-5.5131;-3.8345;
259520222372963;-6.7816;-5.3859;-3.4561;
259520227427703;-6.7241;-5.3094;-3.3027;
259520232482443;-6.6882;-4.7058;-3.3888;
259520237537234;-6.8151;-4.0756;-3.2381;
259520242592807;-6.7696;-3.7116;-2.7637;
259520247647599;-6.6069;-3.3332;-2.3973;
259520252702338;-6.5587;-2.8708;-2.5170;
259520257757078;-6.5539;-2.6886;-2.6297;
259520262811818;-6.4415;-2.5690;-2.5792;
259520267866557;-6.5037;-2.2433;-2.6058;
259520272916818;-6.6188;-1.4216;-2.6704;
259520277971505;-6.4774;-0.9640;-2.7374;
259520283026245;-6.3144;-1.0310;-2.5457;
259520288080932;-6.3841;-0.8512;-2.3085;
259520293135724;-6.4319;-0.3628;-2.6417;
259520298190411;-6.3769;-0.5686;-2.7302;
259520303245880;-6.3458;-1.3232;-2.1769;
259520308300568;-6.4750;-1.4838;-2.2678;
259520313355307;-6.5276;-1.3328;-2.0139;
259520318410047;-6.4104;-1.8096;-1.5108;
259520323464786;-6.3191;-2.0587;-1.1898;
259520328519474;-6.2833;-2.0013;-1.5829;
259520333573068;-6.4415;-2.1640;-1.8607;
259520338627755;-6.3888;-2.7413;-2.0043;
259520343682495;-6.1875;-2.9139;-2.6130;
259520348737182;-6.1349;-2.6001;-2.9626;
259520353791974;-5.9312;-3.0840;-2.9435;
259520358846661;-5.9934;-3.1630;-2.7661;
259520363907182;-6.0894;-3.9894;-2.3303;
259520368961922;-6.2282;-4.8039;-1.9110;
259520374016661;-6.2450;-5.9850;-1.9684;
259520379071349;-6.2904;-7.3840;-1.7910;
259520384126088;-6.3482;-7.4438;-1.8224;
259520389180828;-6.1756;-7.5685;-1.5446;
259520394255516;-6.1564;-7.5538;-1.8200;
259520399310255;-5.9527;-7.7121;-2.3590;
259520404364995;-5.9623;-6.7490;-3.5207;
259520409419682;-6.0679;-7.4533;-3.6523;
259520414474422;-5.8379;-8.1673;-2.0907;
259520419529161;-5.6533;-8.1912;-2.8956;
259520424570411;-5.7948;-8.7350;-2.2822;
259520429625151;-5.8259;-9.2692;-1.8272;
259520434679891;-5.7730;-9.6500;-1.6738;
259520439734630;-5.9288;-9.5423;-1.9875;
259520444789318;-6.0269;-9.1612;-2.1888;
259520449844057;-5.9360;-8.6871;-2.3351;
259520454889213;-6.0030;-8.3037;-2.6465;
259520459943901;-5.9671;-8.0904;-2.5672;
259520464998641;-5.7876;-8.1529;-2.9698;
259520470053328;-5.5047;-8.1721;-2.8765;
259520475108068;-5.4305;-8.1745;-3.1519;
259520480162807;-5.4018;-8.2080;-3.1950;
259520485229266;-5.1957;-8.1721;-3.5447;
259520490284005;-5.1957;-8.1529;-3.5112;
259520495338745;-5.3085;-8.0928;-3.6452;
259520500393432;-5.2654;-8.0689;-3.4466;
259520505448172;-5.3180;-8.1338;-3.2740;
259520510502911;-5.4520;-8.2343;-3.0224;
259520515546088;-5.4329;-8.1697;-2.7613;
259520520600828;-5.3850;-8.0761;-2.7733;
259520525655516;-5.4114;-8.0067;-2.5696;
259520530710255;-5.3228;-7.9110;-2.6752;
259520535764995;-5.2101;-7.7264;-2.6393;
259520540819682;-5.1957;-7.5685;-2.7565;
259520545875463;-5.1431;-7.3576;-2.7087;
259520550930151;-5.0665;-7.3241;-2.8092;
259520555984891;-5.0498;-7.3840;-2.8259;
259520561039630;-5.0785;-7.5371;-2.9530;
259520566094318;-5.0450;-7.7408;-2.9004;
259520571149057;-5.0354;-7.9397;-2.8956;
259520576223797;-5.0282;-8.0210;-2.9052;
259520581278536;-5.0498;-7.9780;-2.9435;
259520586333224;-5.0282;-8.1099;-2.9100;
259520591387963;-5.0091;-8.2534;-2.6728;
259520596442703;-5.0186;-8.1601;-2.6154;
259520601497443;-5.0043;-8.0545;-2.5672;
259520606544370;-4.9729;-8.0785;-2.4284;
259520611599161;-4.9226;-8.0785;-2.4141;
259520616653797;-4.8939;-8.0306;-2.5504;
259520621708536;-4.8293;-8.0521;-2.6560;
259520626763276;-4.7767;-8.1697;-2.6943;
259520631818016;-4.7623;-8.2367;-2.6871;
259520636872599;-4.8006;-8.3061;-2.6130;
259520641927234;-4.8126;-8.4165;-2.6130;
259520646981974;-4.8341;-8.6321;-2.5361;
259520652036661;-4.8437;-8.6824;-2.6536;
259520657091453;-4.7791;-8.7637;-2.7111;
259520662146141;-4.7480;-8.9243;-2.6201;
259520667200880;-4.7022;-8.9363;-2.5409;
259520672247234;-4.6902;-8.9052;-2.5433;
259520677301922;-4.6759;-8.9626;-2.4978;
259520682356661;-4.5921;-9.0105;-2.4930;
259520687411401;-4.6065;-9.0631;-2.4930;
259520692466088;-4.5969;-9.0416;-2.4236;
259520697520828;-4.5849;-8.9818;-2.3758;
259520702575047;-4.6280;-8.9674;-2.3901;
259520707629734;-4.6496;-8.9674;-2.4739;
259520712684474;-4.6137;-9.0057;-2.5337;
259520717739213;-4.5921;-9.0105;-2.5217;
259520722793901;-4.5754;-9.0200;-2.4811;
259520727848641;-4.5419;-9.0057;-2.5002;
259520732910516;-4.9923;-9.5901;-3.0296;
259520737965255;-5.3707;-9.8393;-6.1965;
259520743019995;-5.7754;-10.6490;-5.3701;
259520748074682;-4.6424;-11.9210;-3.0607;
259520753129474;-2.2828;-14.0052;-1.7408;
259520758184161;-3.9479;-9.5997;-4.7689;
259520763236141;-2.4123;-12.1822;-2.4882;
259520768290880;-4.1034;-13.4830;-0.3682;
259520773345620;-5.3587;-10.7064;-4.6609;
259520778400359;-4.0340;-11.4921;-4.7761;
259520783455047;-5.4353;-10.6298;-2.4954;
259520788509786;-4.9561;-11.3964;-1.2739;
259520793567078;-3.5357;-10.8455;-3.8201;
259520798621818;-4.0388;-9.8967;-2.7302;
259520803676557;-4.4821;-10.4285;1.1145;
259520808731297;-4.8006;-9.7029;-1.0965;
259520813786036;-4.5108;-9.7747;-3.1519;
259520818840724;-5.1814;-9.9975;-1.8344;
259520823910672;-5.5505;-9.3936;-0.0018;
259520828965463;-4.3908;-9.7196;-2.8693;
259520834020151;-3.7609;-9.6667;-3.5758;
259520839074838;-4.0412;-9.2524;-1.7961;
259520844129630;-4.1010;-8.8259;-1.3169;
259520849184318;-3.8255;-8.6536;-3.8489;
259520854240151;-3.8782;-8.9530;-3.8393;
259520859294891;-4.5012;-8.9339;-1.7432;
259520864349630;-4.2353;-9.0847;-2.2008;
259520869404318;-4.2305;-8.5576;-3.2189;
259520874459057;-4.0507;-8.3492;-2.8884;
259520879513745;-4.0723;-8.5600;-1.6020;
259520884566713;-3.9622;-8.8307;-2.0330;
259520889621453;-3.9215;-8.5337;-2.8068;
259520894676141;-4.2090;-8.6031;-2.5839;
259520899730880;-4.5491;-8.9315;-1.3887;
259520904785568;-4.2855;-9.4271;-1.1348;
259520909840307;-4.0579;-9.2070;-1.7599;
259520914883536;-4.0316;-9.3793;-1.8918;
259520919938328;-4.3334;-9.6619;-1.1587;
259520924993016;-4.2568;-9.5614;-2.0163;
259520930047755;-4.1225;-9.1373;-2.6919;
259520935102443;-3.9021;-9.2572;-2.6010;
259520940157182;-3.9239;-9.3075;-1.9588;
259520945210620;-3.9431;-9.2189;-2.4619;
259520950265359;-3.9814;-9.1062;-2.6895;
259520955320099;-4.0173;-9.0296;-2.0644;
259520960374786;-4.0316;-8.9100;-1.6666;
259520965429526;-3.8710;-8.8690;-1.8966;
259520970484266;-3.9526;-8.7661;-1.9780;
259520975531088;-4.0962;-8.8977;-1.4988;
259520980585776;-4.1273;-8.8881;-1.4414;
259520985640516;-3.8734;-8.8881;-1.8320;
259520990695203;-3.8351;-8.7374;-1.8679;
259520995749943;-3.8806;-8.7733;-1.8655;
259521000804682;-3.9455;-8.6294;-1.9756;
259521005858588;-3.8423;-8.6752;-2.6489;
259521010913276;-3.8183;-8.8116;-2.3710;
259521015968016;-3.7513;-9.0248;-2.1123;
259521021022703;-3.7131;-8.9530;-1.9110;
259521026077443;-3.6987;-8.9076;-2.3327;
259521031132182;-3.8183;-8.8786;-1.9851;
259521036182547;-3.9263;-9.0583;-1.7408;
259521041237286;-3.8614;-9.1711;-1.6116;
259521046291974;-3.6867;-9.2764;-1.8129;
259521051346661;-3.7442;-9.2094;-1.5900;
259521056401401;-3.8160;-9.1540;-1.7192;
259521061456141;-3.7944;-9.0559;-1.9469;
259521066521870;-3.7131;-9.1014;-2.2247;
259521071576661;-3.6915;-9.2381;-1.9540;
259521076631349;-3.6676;-9.3984;-1.9804;
259521081686088;-3.6434;-9.4223;-2.0692;
259521086740828;-3.6003;-9.4032;-2.1840;
259521091795516;-3.6171;-9.3649;-1.9564;
259521096853901;-3.6218;-9.3793;-1.9684;
259521101908641;-3.6003;-9.4394;-1.9397;
259521106963328;-3.6556;-9.5231;-1.9277;
259521112018120;-3.6700;-9.5040;-1.6403;
259521117072807;-3.6508;-9.3960;-1.7623;
259521122127547;-3.5477;-9.2644;-1.8607;
259521127174318;-3.5883;-9.1325;-1.9588;
259521132229057;-3.6290;-9.1564;-1.8751;
259521137283745;-3.5764;-9.2046;-1.9564;
259521142338484;-3.4208;-9.2979;-1.9636;
259521147393172;-3.4424;-9.1998;-2.0402;
259521152447911;-3.5692;-9.1878;-2.1410;
259521157527026;-3.5955;-9.1807;-2.0955;
259521162581713;-3.5453;-9.2620;-2.0426;
259521167636453;-3.4591;-9.3625;-1.8703;
259521172691193;-3.4017;-9.4032;-1.7456;
259521177745932;-3.5166;-9.3075;-1.7216;
259521182800620;-3.5405;-9.2429;-1.7862;
259521187853953;-3.4902;-9.2213;-1.8631;
259521192908641;-3.4256;-9.2955;-1.8990;
259521197963432;-3.3969;-9.3171;-1.9397;
259521203018120;-3.4017;-9.3649;-2.0067;
259521208072859;-3.4208;-9.3793;-2.0617;
259521213127547;-3.3679;-9.4271;-2.1745;
259521218184838;-3.3440;-9.4729;-2.2439;
259521223239578;-3.3775;-9.5064;-2.2798;
259521228294266;-3.4041;-9.5806;-2.2295;
259521233349005;-3.3559;-9.7173;-2.2128;
259521238403745;-3.3392;-9.8034;-2.1290;
259521243458432;-3.3129;-9.8800;-2.1362;
259521248489213;-3.3224;-9.9760;-2.2104;
259521253543953;-3.4065;-10.0884;-2.4236;
259521258598641;-3.4376;-10.2826;-2.4356;
259521263653380;-3.3511;-10.4812;-2.3351;
259521268708120;-3.2554;-10.6537;-2.2726;
259521273762807;-3.2195;-10.7590;-2.4069;
259521278816505;-3.2865;-10.9173;-2.2774;
259521283871193;-3.3559;-11.2358;-2.1075;
259521288925932;-3.4017;-11.5304;-2.0043;
259521293980724;-3.3826;-11.6767;-1.9253;
259521299035411;-3.3105;-11.7174;-1.7240;
259521304090151;-3.2483;-11.7485;-1.8392;
259521309170203;-3.3009;-11.7772;-2.1577;
259521314224943;-3.3607;-11.7509;-2.3495;
259521319279682;-3.3392;-11.7437;-2.4212;
259521324334422;-3.2650;-11.7126;-2.6082;
259521329389109;-3.2435;-11.7293;-2.6871;
259521334443901;-3.2674;-11.7963;-2.4595;
259521339504318;-3.2794;-11.8202;-2.1625;
259521344559057;-3.2865;-11.8346;-2.1386;
259521349613797;-3.3296;-11.8250;-2.0617;
259521354668484;-3.3511;-11.8250;-1.8775;
259521359723276;-3.3440;-11.6934;-1.8009;
259521364778016;-3.3416;-11.3653;-2.2080;
259521369829734;-3.2818;-10.9531;-2.7422;
259521374884474;-3.3033;-11.1209;-2.6608;
259521379939213;-3.3921;-11.3677;-2.3710;
259521384993953;-3.3296;-11.1473;-2.3853;
259521390048641;-3.2291;-11.3103;-2.4595;
259521395103380;-3.2698;-11.2908;-2.2463;
259521400135984;-3.3440;-11.2454;-2.5170;
259521405190724;-3.4065;-11.2190;-2.4643;
259521410245463;-3.3464;-11.0635;-2.3423;
259521415300151;-3.2435;-10.9484;-2.5122;
259521420354891;-3.3176;-10.8048;-2.4284;
259521425409682;-3.3727;-10.6394;-2.4571;
259521430474682;-3.3344;-10.4501;-2.4141;
259521435529422;-3.3033;-10.4046;-2.5504;
259521440584213;-3.3826;-10.2658;-2.4260;
259521445638953;-3.4184;-10.2200;-2.3351;
259521450693641;-3.4280;-10.1961;-2.1864;
259521455748380;-3.3559;-10.1435;-2.2654;
259521460803120;-3.3320;-10.0645;-2.2893;
259521465857911;-3.4232;-10.0310;-2.2893;
259521470912599;-3.5142;-10.0286;-2.2558;
259521475967391;-3.4926;-10.0908;-2.2487;
259521481022130;-3.4854;-10.1722;-2.1888;
259521486076818;-3.4543;-10.1937;-2.1482;
259521491129995;-3.4591;-10.1626;-2.2534;
259521496184734;-3.4663;-10.1100;-2.4476;
259521501239474;-3.4735;-10.1195;-2.5792;
259521506294213;-3.4663;-10.1530;-2.6177;
259521511348953;-3.5524;-10.2969;-2.6225;
259521516403693;-3.6147;-10.3352;-2.3997;
259521521486036;-3.5477;-10.4022;-2.2798;
259521526540776;-3.4352;-10.6059;-2.0740;
259521531595463;-3.4711;-10.8742;-1.9158;
259521536650203;-3.6652;-11.0611;-1.8655;
259521541704995;-3.7944;-11.2095;-1.8799;
259521546759734;-3.7322;-11.2837;-1.8751;
259521551780568;-3.5764;-11.2621;-2.0859;
259521556835307;-3.5237;-11.1903;-2.2893;
259521561889995;-3.6386;-11.1975;-2.4787;
259521566944734;-3.7370;-11.3103;-2.5744;
259521571999474;-3.6820;-11.3725;-2.6991;
259521577054213;-3.6939;-11.4993;-2.6752;
259521582109422;-3.8495;-11.5735;-2.3423;
259521587164213;-4.0244;-11.6288;-2.0692;
259521592218953;-4.1369;-11.6791;-1.8799;
259521597273641;-4.2209;-11.7221;-1.7288;
259521602328432;-4.2832;-11.8346;-1.4246;
259521607383120;-4.3095;-11.8851;-1.2449;
259521612454109;-4.2257;-11.9354;-1.3457;
259521617508849;-4.0842;-11.9952;-1.3720;
259521622563588;-4.0173;-11.9904;-1.5446;
259521627618276;-3.8901;-11.9521;-1.8248;
259521632673068;-3.7944;-11.9043;-2.1721;
259521637727755;-3.6532;-11.9115;-2.2630;
259521642785932;-3.6218;-11.8226;-2.4523;
259521647840724;-3.6987;-11.5762;-2.7278;
259521652895411;-3.7083;-11.4275;-2.7661;
259521657950151;-3.7513;-11.3294;-2.5959;
259521663004943;-3.7131;-11.3653;-2.1912;
259521668059630;-3.7801;-11.5089;-1.7599;
259521673100411;-3.7801;-11.6169;-1.2257;
259521678155203;-3.9574;-11.5041;-1.0487;
259521683209891;-4.1704;-11.0803;-1.0439;
259521688264630;-4.0819;-10.6226;-1.6522;
259521693319422;-4.0484;-9.8824;-2.4236;
259521698374109;-3.5189;-9.8704;-2.9076;
259521703431766;-3.4352;-9.4418;-3.2333;
259521708486505;-3.5453;-8.9602;-3.1902;
259521713541245;-3.9287;-7.8296;-3.5112;
259521718595984;-3.6939;-6.7298;-3.6885;
259521723650724;-3.2411;-6.1765;-4.2132;
259521728705463;-3.2004;-6.1406;-3.7244;
259521733752547;-3.4831;-5.3788;-2.8092;
259521738807234;-3.7537;-5.0865;-2.9483;
259521743862026;-4.9418;-4.5595;-4.2706;
259521748916713;-6.1325;-4.7321;-5.2047;
259521753971453;-6.0485;-6.4328;-3.3099;
259521759026193;-5.3276;-6.3754;-2.6728;
259521764085828;-3.8638;-6.9838;-1.7743;
259521769140568;-2.6518;-7.6403;0.3024;
259521774195359;-2.7188;-8.1601;1.0499;
259521779250047;-3.5716;-8.6608;1.6032;
259521784304786;-4.5802;-8.2750;-0.4184;
259521789359526;-5.4042;-7.7408;-1.8392;
259521794413016;-5.8522;-7.3768;-3.1807;
259521799467755;-5.8451;-7.5514;-3.9135;
259521804522547;-5.4377;-7.9995;-3.4729;
259521809577286;-5.1407;-7.9516;-3.6619;
259521814631974;-4.8772;-7.9971;-2.5720;
259521819686713;-4.3980;-8.1864;-2.0163;
259521824754422;-4.0149;-8.4691;-1.2568;
259521829809161;-4.0699;-8.5265;-0.9574;
259521834863901;-4.3597;-8.7589;-0.7178;
259521839918641;-4.8556;-8.6752;-0.9742;
259521844973380;-5.2077;-8.7661;-1.9756;
259521850028120;-5.4209;-8.8187;-2.2726;
259521855084734;-5.6749;-8.8810;-2.9937;
259521860139474;-5.8594;-9.1878;-2.6632;
259521865194213;-5.5887;-9.4633;-2.5528;
259521870248953;-5.1191;-9.7627;-1.7408;
259521875303693;-4.6472;-10.0382;-0.9885;
259521880358432;-4.4435;-9.7914;-1.1157;
259521885412026;-4.5706;-9.4442;-2.0593;
259521890466713;-5.0498;-9.1878;-2.7852;
259521895521505;-5.5071;-9.1421;-3.0200;
259521900576193;-5.5071;-9.1998;-3.0918;
259521905630984;-5.2630;-9.3721;-2.6489;
259521910685672;-5.1742;-9.4466;-1.9493;
259521915723276;-5.2774;-9.6523;-1.4677;
259521920778016;-5.5143;-9.7002;-1.5613;
259521925832755;-5.5840;-9.7747;-1.6164;
259521930887495;-5.4233;-9.8178;-1.3887;
259521935942234;-5.1048;-9.8034;-1.4079;
259521940996922;-4.8867;-9.6858;-1.8583;
259521946044213;-5.0617;-9.4008;-2.5986;
259521951098953;-5.5143;-8.9913;-3.2142;
259521956153641;-5.8355;-8.8905;-3.6643;
259521961208432;-5.7706;-8.8259;-3.5614;
259521966263120;-5.3922;-9.0512;-2.8427;
259521971317859;-5.1622;-9.3553;-1.7192;
259521976442130;-5.1120;-9.5016;-1.2544;
259521981496818;-5.3635;-9.5207;-1.3313;
259521986551557;-5.6629;-9.4394;-1.6331;
259521991606349;-5.7275;-9.2859;-1.9325;
259521996661036;-5.5720;-9.1325;-2.2822;
259522001715776;-5.3779;-8.9387;-2.6393;
259522006727443;-5.4233;-8.7494;-2.8331;
259522011782182;-5.6462;-8.6270;-2.9794;
259522016836922;-5.8570;-8.4619;-3.1086;
259522021891661;-5.8379;-8.5146;-2.8522;
259522026946349;-5.6653;-8.6776;-2.2391;
259522032001141;-5.4497;-8.7422;-1.7145;
259522037041401;-5.4066;-8.8116;-1.4988;
259522042096141;-5.5289;-8.7135;-1.7240;
259522047150880;-5.7610;-8.5648;-2.1482;
259522052205568;-5.9575;-8.3949;-2.5744;
259522057260359;-5.9695;-8.2104;-2.9387;
259522062315047;-5.8881;-8.1075;-2.9937;
259522067379213;-5.8068;-8.0761;-2.8044;
259522072433953;-5.9145;-8.0426;-2.5768;
259522077488693;-5.9288;-8.0306;-2.3252;
259522082543432;-5.8929;-8.0330;-2.0716;
259522087598172;-5.8642;-7.9923;-1.8559;
259522092652911;-5.7826;-7.9301;-1.8153;
259522097722755;-5.8259;-7.7910;-1.9540;
259522102777495;-5.9360;-7.6905;-2.2319;
259522107832234;-6.1205;-7.5371;-2.5600;
259522112886974;-6.2354;-7.4797;-2.7517;
259522117941713;-6.1851;-7.3385;-2.7637;
259522122996453;-6.0966;-7.2233;-2.6943;
259522128052026;-6.1995;-7.1587;-2.3614;
259522133106766;-6.1540;-7.2473;-2.0764;
259522138161453;-6.0365;-7.0702;-2.0907;
259522143216193;-5.8618;-6.5360;-2.2702;
259522148270984;-5.9551;-6.5169;-2.5576;
259522153325672;-6.1134;-6.8521;-1.9134;
259522158355828;-6.2282;-6.4905;-2.4667;
259522163410568;-6.4391;-6.2868;-2.8932;
259522168465307;-6.4247;-6.3538;-2.8379;
259522173520047;-6.3242;-6.1310;-3.0033;
259522178574838;-6.2593;-6.0879;-2.8259;
259522183629526;-6.2402;-6.1095;-2.7063;
259522188692599;-6.2833;-5.9779;-2.4595;
259522193747338;-6.3888;-5.9755;-2.3734;
259522198802078;-6.4606;-5.8508;-2.2008;
259522203856818;-6.3697;-5.7598;-2.4763;
259522208911557;-6.3912;-5.6231;-2.4523;
259522213966297;-6.4845;-5.4197;-2.5265;
259522219015307;-6.5300;-5.1464;-2.9028;
259522224070047;-6.6069;-5.0243;-3.0918;
259522229124786;-6.6667;-4.9741;-2.9315;
259522234179526;-6.6811;-4.9358;-2.6776;
259522239234266;-6.6452;-4.9143;-2.4500;
259522244289005;-6.6523;-4.8063;-2.3252;
259522249352599;-6.7552;-4.6122;-2.2463;
259522254407338;-6.7863;-4.5069;-2.3133;
259522259462078;-6.7887;-4.3753;-2.4978;
259522264516818;-6.8294;-4.2410;-2.6967;
259522269571557;-6.8728;-4.1501;-2.8068;
259522274626297;-6.9230;-4.0134;-2.9530;
259522279663276;-6.9661;-3.9392;-2.9818;
259522284717963;-6.9924;-4.0158;-2.9985;
259522289772703;-6.9996;-4.0445;-2.7852;
259522294827495;-7.0211;-4.0564;-2.6177;
259522299882234;-7.0690;-4.1524;-2.4691;
259522304936974;-7.0834;-4.1931;-2.3157;
259522310015203;-7.1315;-4.1740;-2.2893;
259522315069943;-7.1746;-4.1094;-2.4188;
259522320124682;-7.2153;-4.0014;-2.6895;
259522325179474;-7.2177;-3.9535;-2.8594;
259522330234161;-7.3014;-3.9081;-2.9243;
259522335288953;-7.2942;-3.8961;-2.9794;
259522340347859;-7.3181;-3.9607;-2.8956;
259522345402599;-7.2990;-4.0373;-2.7182;
259522350457338;-7.3469;-4.0902;-2.5792;
259522355512130;-7.3612;-4.0854;-2.4858;
259522360566818;-7.3756;-4.0229;-2.5074;
259522365621609;-7.4381;-3.8674;-2.6560;
259522370678588;-7.4381;-3.7140;-2.7948;
259522375733328;-7.4477;-3.5847;-2.9052;
259522380788068;-7.4620;-3.4576;-2.9698;
259522385842859;-7.5171;-3.3476;-2.9650;
259522390897547;-7.5625;-3.2683;-2.8908;
259522395952286;-7.6271;-3.2659;-2.7757;
259522401015984;-7.6801;-3.1845;-2.6489;
259522406070724;-7.7016;-3.2324;-2.4404;
259522411125463;-7.6487;-3.2396;-2.2487;
259522416180203;-7.6295;-3.1678;-2.2558;
259522421234943;-7.6511;-3.0745;-2.3662;
259522426289682;-7.6920;-3.0338;-2.5385;
259522431325620;-7.7566;-2.9402;-2.7398;
259522436380411;-7.7997;-2.8995;-2.8789;
259522441435151;-7.7830;-2.9234;-2.9148;
259522446489891;-7.8117;-2.9474;-2.9267;
259522451544630;-7.8595;-2.9091;-2.7829;
259522456599370;-7.9217;-2.9186;-2.5624;
259522461646036;-7.9771;-2.8899;-2.4476;
259522466700776;-7.9364;-2.8325;-2.4284;
259522471755568;-7.9460;-2.7341;-2.4021;
259522476810307;-7.9436;-2.6551;-2.4188;
259522481865047;-7.9265;-2.4852;-2.5552;
259522486919786;-7.9651;-2.2816;-2.6608;
259522491981557;-8.0106;-2.1832;-2.6967;
259522497036349;-8.0201;-2.0850;-2.6943;
259522502091088;-8.0895;-2.0372;-2.6225;
259522507145828;-8.1159;-1.9172;-2.5002;
259522512200568;-8.1302;-1.8383;-2.3495;
259522517255307;-8.1613;-1.7163;-2.2343;
259522522307703;-8.1999;-1.5604;-2.2463;
259522527362495;-8.2047;-1.3950;-2.2893;
259522532417182;-8.2023;-1.2610;-2.3037;
259522537471974;-8.2143;-1.1124;-2.5074;
259522542526713;-8.2214;-0.9999;-2.6656;
259522547581453;-8.2478;-0.8946;-2.7039;
259522552638120;-8.2621;-0.8082;-2.7589;
259522557692911;-8.2741;-0.8058;-2.6465;
259522562747599;-8.3052;-0.7962;-2.5241;
259522567802391;-8.3530;-0.8034;-2.3686;
259522572857130;-8.3937;-0.8225;-2.2463;
259522577911870;-8.4658;-0.6694;-2.2702;
259522582977443;-8.4559;-0.5255;-2.3133;
259522588032182;-8.4754;-0.4992;-2.2798;
259522593086922;-8.4607;-0.3867;-2.3758;
259522598141713;-8.4682;-0.1208;-2.7446;
259522603196453;-8.4535;-0.1591;-2.7326;
259522608251193;-8.4682;-0.2357;-2.6512;
259522613310880;-8.4778;-0.0631;-2.7350;
259522618365620;-8.5089;-0.1400;-2.5289;
259522623420359;-8.5615;-0.3338;-2.1649;
259522628475099;-8.6309;-0.0849;-2.1769;
259522633529891;-8.7413;-0.0488;-2.2343;
259522638584578;-8.7027;-0.1352;-2.2463;
259522643638745;-8.6548;0.0829;-2.6536;
259522648693484;-8.6524;0.3200;-2.7948;
259522653748224;-8.5687;0.1642;-2.7948;
259522658803016;-8.5854;0.3105;-2.8693;
259522663857755;-8.6668;0.4684;-2.8403;
259522668912495;-8.7290;0.4735;-2.6369;
259522673946453;-8.7051;0.3870;-2.4428;
259522679001193;-8.7724;0.3679;-2.2941;
259522684055984;-8.8250;0.5740;-2.0378;
259522689110724;-8.7628;0.8662;-2.1218;
259522694165463;-8.7317;1.0196;-2.4260;
259522699220203;-8.7652;1.4506;-2.6895;
259522704277338;-8.8322;1.0268;-2.3877;
259522709332078;-8.9686;0.5907;-2.6321;
259522714386818;-8.8561;1.4124;-3.8632;
259522719441609;-8.9518;0.9619;-3.1519;
259522724496349;-8.7820;0.0589;-2.0836;
259522729551088;-8.6524;1.3262;-2.7589;
259522734604213;-8.8657;1.1034;-2.5576;
259522739658901;-9.0670;0.3440;-1.7599;
259522744713641;-8.9614;1.4219;-2.6441;
259522749768432;-9.0670;1.3717;-2.6871;
259522754823172;-8.9782;0.7753;-1.9421;
259522759877911;-8.7580;1.6543;-2.5959;
259522764929005;-8.9423;1.6519;-2.6584;
259522769983693;-9.0957;1.1512;-2.0907;
259522775038484;-8.9160;1.7237;-2.7805;
259522780093224;-9.0838;1.5538;-2.8956;
259522785147963;-9.1890;1.0890;-2.7015;
259522790202703;-9.0694;1.7261;-3.4657;
259522795254838;-9.1220;1.4841;-3.1301;
259522800309526;-8.9375;0.7896;-2.2798;
259522805364318;-8.7003;1.3525;-2.7230;
259522810419057;-9.1029;1.5248;-2.8522;
259522815473797;-9.4549;1.2808;-2.3204;
259522820528536;-9.3616;1.6304;-2.3399;
259522825605255;-9.3449;1.4674;-1.9947;
259522830659995;-9.3233;1.3693;-1.3935;
259522835714734;-9.1173;1.4124;-1.4342;
259522840769526;-9.1747;1.1393;-1.7934;
259522845824266;-9.3090;1.0938;-2.5528;
259522850879005;-9.2608;0.8758;-3.1158;
259522855932026;-9.1364;0.4684;-3.3075;
259522860986766;-9.0311;0.5309;-3.5471;
259522866041505;-8.9710;0.5022;-3.5136;
259522871096245;-9.0933;0.4516;-3.1086;
259522876150984;-9.2154;0.3583;-2.9267;
259522881205776;-9.3305;0.2674;-2.7517;
259522886271870;-9.4597;0.2339;-2.5672;
259522891326609;-9.5486;0.2267;-2.1266;
259522896381349;-9.4980;0.2818;-1.8846;
259522901436088;-9.3879;0.4277;-1.8775;
259522906490828;-9.3185;0.6003;-1.9397;
259522911545620;-9.2850;0.7199;-2.0498;
259522916574161;-9.2441;0.7753;-2.3037;
259522921628953;-9.2656;0.9332;-2.7589;
259522926683641;-9.2970;1.0196;-2.9841;
259522931738380;-9.2584;0.9978;-2.9698;
259522936793172;-9.2393;0.9930;-2.9339;
259522941847911;-9.1986;1.0627;-3.0488;
259522946917911;-9.2225;1.0412;-3.0033;
259522951972599;-9.3281;1.1106;-2.8594;
259522957027391;-9.3257;1.1393;-2.8044;
259522962082130;-9.2898;1.1512;-2.7039;
259522967136870;-9.2489;1.1273;-2.5026;
259522972191557;-9.2513;1.1010;-2.2128;
259522977249682;-9.2082;1.0412;-2.2032;
259522982304422;-9.2755;0.9643;-2.3375;
259522987359161;-9.3951;0.8830;-2.3853;
259522992413901;-9.4597;0.8686;-2.5600;
259522997468641;-9.4358;0.8925;-2.8259;
259523002523328;-9.3425;0.8830;-2.9411;
259523007591401;-9.2707;0.8614;-2.9004;
259523012646141;-9.2441;0.8423;-2.8618;
259523017700880;-9.2584;0.8758;-2.9004;
259523022755620;-9.3138;0.8925;-2.8956;
259523027810411;-9.3664;0.8782;-2.7829;
259523032865099;-9.3305;0.8255;-2.6824;
259523037911401;-9.3066;0.7343;-2.6082;
259523042966141;-9.2632;0.6410;-2.4882;
259523048020880;-9.3090;0.6649;-2.6082;
259523053075620;-9.3401;0.6888;-2.8331;
259523058130359;-9.3592;0.6673;-2.9650;
259523063185151;-9.3712;0.7247;-3.0009;
259523068239630;-9.3664;0.6649;-2.9698;
259523073294370;-9.3401;0.6745;-2.9339;
259523078349109;-9.3114;0.5979;-2.9459;
259523083403901;-9.3233;0.5979;-2.8669;
259523088458641;-9.2755;0.5405;-2.8259;
259523093513380;-9.3185;0.4181;-2.7876;
259523098571088;-9.4071;0.3224;-2.6824;
259523103625828;-9.4190;0.2841;-2.6919;
259523108680568;-9.4262;0.2698;-2.6632;
259523113735359;-9.4119;0.1594;-2.6297;
259523118790099;-9.3999;0.1762;-2.6800;
259523123844838;-9.4502;0.2291;-2.8259;
259523128895203;-9.4047;0.2435;-3.0200;
259523133949943;-9.3951;0.2698;-3.1448;
259523139004682;-9.3473;0.2913;-3.1807;
259523144059422;-9.2779;0.2530;-3.1807;
259523149114161;-9.2608;0.2626;-3.1400;
259523154168953;-9.2683;0.2602;-3.0272;
259523159224213;-9.3305;0.3559;-2.9195;
259523164278953;-9.3592;0.5620;-2.9889;
259523169333641;-9.3951;0.6601;-3.0751;
259523174388432;-9.3473;0.6577;-2.8741;
259523179443172;-9.3162;0.7032;-2.7637;
259523184497911;-9.3018;0.7896;-2.7517;
259523189536088;-9.3281;0.8112;-2.7206;
259523194590828;-9.3688;0.7705;-2.7541;
259523199645516;-9.4047;0.7609;-2.6943;
259523204700307;-9.4023;0.7681;-2.7230;
259523209755047;-9.3544;0.7585;-2.6058;
259523214809786;-9.3090;0.8112;-2.6058;
259523219863901;-9.3209;0.8207;-2.6656;
259523224918588;-9.3185;0.8231;-2.7470;
259523229973380;-9.3616;0.8207;-2.8403;
259523235028120;-9.4214;0.7825;-2.8403;
259523240082859;-9.3999;0.7513;-2.8932;
259523245137599;-9.3688;0.6721;-2.9698;
259523250196453;-9.3473;0.5453;-3.0224;
259523255251245;-9.2874;0.5237;-3.0823;
259523260305984;-9.2632;0.4660;-3.2381;
259523265360724;-9.2393;0.4469;-3.2453;
259523270415463;-9.2393;0.4325;-3.2357;
259523275470203;-9.2536;0.4229;-3.1687;
259523280547130;-9.2779;0.3296;-3.0918;
259523285601922;-9.3305;0.2435;-2.8789;
259523290656713;-9.4119;0.2339;-2.7757;
259523295711453;-9.4813;0.2291;-2.7637;
259523300766245;-9.5124;0.2124;-2.7135;
259523305821036;-9.4502;0.2315;-2.6919;
259523310849891;-9.3927;0.2483;-2.7135;
259523315904682;-9.3927;0.2554;-2.7230;
259523320959474;-9.3353;0.2315;-2.7757;
259523326014266;-9.3377;0.2124;-2.8068;
259523331069057;-9.3425;0.1666;-2.8379;
259523336123849;-9.3879;0.1451;-2.9506;
259523341194891;-9.3473;0.1666;-3.0488;
259523346249734;-9.3616;0.1618;-3.1014;
259523351304474;-9.3497;0.1810;-3.1062;
259523356359266;-9.3832;0.1618;-3.1014;
259523361414057;-9.3473;0.1570;-3.1158;
259523366468849;-9.3640;0.1235;-3.1181;
259523371526870;-9.3975;0.0637;-3.0775;
259523376581713;-9.3736;-0.0176;-3.0296;
259523381636453;-9.3544;-0.0511;-2.9028;
259523386691297;-9.3162;-0.1400;-2.8355;
259523391746036;-9.3497;-0.1783;-2.8259;
259523396800880;-9.3520;-0.1854;-2.7972;
259523401830411;-9.4023;-0.1735;-2.8044;
259523406885255;-9.4334;-0.1567;-2.8140;
259523411939995;-9.4502;-0.1017;-2.8570;
259523416994786;-9.4430;-0.0488;-2.9411;
259523422049578;-9.4262;-0.0153;-2.9770;
259523427104370;-9.4143;0.0254;-2.9841;
259523432167599;-9.3903;0.0494;-3.0176;
259523437222391;-9.3832;0.1164;-3.0799;
259523442277182;-9.3520;0.1714;-3.0296;
259523447331974;-9.3401;0.2052;-2.9818;
259523452386766;-9.3425;0.2889;-2.8765;
259523457441557;-9.3138;0.3846;-2.7948;
259523462507807;-9.3688;0.4588;-2.7422;
259523467562547;-9.4047;0.5644;-2.6871;
259523472617338;-9.3975;0.6314;-2.6943;
259523477672130;-9.3760;0.7343;-2.6321;
259523482726922;-9.3497;0.8064;-2.5481;
259523487781713;-9.3616;0.8447;-2.5170;
259523492820516;-9.3832;0.9380;-2.5481;
259523497875307;-9.3592;0.9858;-2.5122;
259523502930099;-9.3616;1.0316;-2.4595;
259523507984891;-9.3544;1.1512;-2.5265;
259523513039682;-9.3377;1.3286;-2.6656;
259523518094474;-9.3162;1.3932;-2.7757;
259523523151453;-9.2946;1.4985;-2.8570;
259523528206245;-9.2779;1.5344;-2.9052;
259523533261036;-9.2970;1.5395;-2.8717;
259523538315828;-9.2779;1.4650;-2.8307;
259523543370620;-9.2779;1.3836;-2.7087;
259523548425411;-9.2536;1.2784;-2.5170;
259523553479838;-9.3185;1.1728;-2.3109;
259523558534630;-9.3927;1.0699;-2.2104;
259523563589422;-9.4525;0.9284;-2.0955;
259523568644213;-9.4860;0.8638;-2.0402;
259523573699005;-9.4837;1.0244;-2.1099;
259523578753797;-9.4454;1.3980;-2.6010;
259523583825828;-9.3520;1.3454;-3.0535;
259523588880620;-9.1962;1.1201;-2.7589;
259523593935411;-9.1938;1.0579;-2.6656;
259523598990203;-9.2683;1.1536;-2.6082;
259523604044995;-9.3568;1.2565;-2.4739;
259523609099786;-9.4023;1.1824;-2.3471;
259523614152651;-9.3688;1.2398;-2.3204;
259523619207443;-9.2130;1.4435;-2.4835;
259523624262234;-9.0359;1.5344;-2.5193;
259523629317026;-9.0024;1.6950;-2.6632;
259523634371818;-9.0909;1.9394;-2.9291;
259523639426609;-9.2082;2.1431;-3.4490;
259523644488328;-9.2707;2.3898;-3.6141;
259523649543120;-9.2632;2.6414;-3.7053;
259523654597911;-9.2058;2.8184;-3.8082;
259523659652703;-9.0694;2.9216;-3.7388;
259523664707495;-8.9303;3.0796;-3.7268;
259523669762286;-8.9207;3.1875;-3.8249;
259523674795828;-8.9782;3.2880;-3.9254;
259523679850672;-9.2106;3.2617;-3.8034;
259523684905463;-9.5267;3.0796;-3.5638;
259523689960203;-9.6491;2.8113;-3.1663;
259523695014995;-9.6084;2.4664;-2.6225;
259523700069786;-9.4908;2.1215;-2.3085;
259523705126870;-9.3879;1.9131;-2.0139;
259523710181661;-9.2683;1.7620;-1.8248;
259523715236453;-9.1723;1.6759;-1.7480;
259523720291245;-9.1292;1.5826;-1.6738;
259523725346036;-9.0622;1.5129;-1.5852;
259523730400828;-8.9973;1.4794;-1.6570;
259523735451349;-9.0957;1.5514;-1.8511;
259523740506141;-9.3185;1.6902;-2.2247;
259523745560932;-9.5291;1.8126;-2.6441;
259523750615724;-9.6227;1.8796;-2.9961;
259523755670516;-9.5510;1.9418;-3.0511;
259523760725359;-9.4238;1.9131;-2.8789;
259523765777963;-9.2465;1.8724;-2.6919;
259523770832755;-9.1029;1.8317;-2.5193;
259523775887547;-9.0598;1.9681;-2.4715;
259523780942338;-9.0766;2.0856;-2.6441;
259523785997130;-9.1053;1.9418;-2.5050;
259523791051922;-9.2082;1.9346;-2.2845;
259523796097755;-9.2922;1.9418;-2.2199;
259523801152495;-9.4525;1.9777;-2.2128;
259523806207286;-9.5868;1.9753;-2.3276;
259523811262078;-9.6299;1.8939;-2.3327;
259523816316870;-9.6132;1.8413;-2.4284;
259523821371609;-9.5076;1.8245;-2.4595;
259523826433536;-9.4286;1.8003;-2.5313;
259523831488328;-9.3353;1.7548;-2.6225;
259523836543172;-9.2321;1.7501;-2.7589;
259523841597911;-9.1531;1.7381;-2.8717;
259523846652703;-9.0933;1.7142;-2.8618;
259523851707495;-9.0933;1.6711;-2.8355;
259523856807026;-9.1029;1.6017;-2.7852;
259523861861818;-9.1531;1.5491;-2.7685;
259523866916609;-9.2656;1.4985;-2.7637;
259523871971349;-9.3951;1.4698;-2.8044;
259523877026141;-9.3903;1.4148;-2.8164;
259523882080932;-9.3353;1.7094;-3.3649;
259523887106193;-9.1484;0.9930;-2.6177;
259523892160932;-9.0718;1.8485;-2.2223;
259523897215724;-9.5219;1.6974;-4.3424;
259523902270516;-9.5052;1.2903;-2.4787;
259523907325307;-8.8992;0.9954;-2.3109;
259523912380099;-8.9614;1.0866;-2.7781;
259523917434891;-9.1173;1.1154;-3.0655;
259523922485516;-9.3329;0.7271;-2.1505;
259523927540307;-9.5124;0.7442;-2.7278;
259523932595099;-9.4741;0.8375;-3.7484;
259523937649891;-9.3736;0.7920;-3.3649;
259523942704682;-9.3808;0.8997;-3.4035;
259523947759474;-9.1603;0.9404;-3.8489;
259523952812703;-8.9901;1.0555;-4.4118;
259523957867495;-9.0694;0.9763;-4.0190;
259523962922286;-9.0742;0.9930;-3.7986;
259523967977078;-8.8872;1.0412;-4.1148;
259523973031870;-8.9183;1.1417;-4.2586;
259523978086661;-9.1053;1.0002;-3.6069;
259523983142495;-9.2273;0.8614;-2.7374;
259523988197286;-9.1292;0.7944;-2.8044;
259523993252078;-9.0694;1.0149;-3.1205;
259523998306870;-8.7748;0.8590;-1.7169;
259524003361661;-8.5998;0.9332;-2.1721;
259524008416453;-8.7628;1.0507;-2.4188;
259524013474995;-8.9303;1.3717;-2.8717;
259524018529786;-9.0335;1.7046;-3.0129;
259524023584578;-9.1627;1.9992;-3.5997;
259524028639370;-9.2178;2.5597;-5.0034;
259524033694161;-9.3401;3.0245;-5.4658;
259524038748953;-9.4502;3.3479;-6.4337;
259524043801766;-9.3568;2.3635;-6.2850;
259524048856557;-9.2273;1.6998;-5.0898;
259524053911349;-9.1460;1.9729;-5.2525;
259524058966141;-8.9782;1.9083;-5.1903;
259524064020932;-8.4945;1.7285;-4.4767;
259524069075724;-8.3411;1.4722;-4.1937;
259524074144266;-8.5448;1.1225;-3.1038;
259524079199109;-8.7939;1.1297;-3.0129;
259524084253849;-9.1484;1.9178;-3.7819;
259524089308641;-9.5267;2.2029;-5.1664;
259524094363432;-9.6634;2.0231;-4.4213;
259524099418224;-9.4621;1.8628;-4.1435;
259524104472078;-9.0909;1.7118;-4.1626;
259524109526870;-8.7317;1.7931;-4.7375;
259524114581661;-8.7242;1.8772;-5.3438;
259524119636453;-8.9064;1.7142;-5.1927;
259524124691245;-8.8801;1.6280;-5.4945;
259524129746088;-8.7628;1.5368;-5.0970;
259524134799057;-8.3913;1.6519;-4.5796;
259524139853901;-7.9675;1.5634;-4.3950;
259524144908693;-8.2310;1.4650;-4.5891;
259524149963432;-8.8179;1.6161;-5.0468;
259524155018224;-9.1603;1.6902;-4.7545;
259524160073016;-9.0909;1.7644;-5.2454;
259524165112755;-8.9686;1.6519;-5.4179;
259524170167547;-9.1508;1.5491;-5.2454;
259524175222338;-9.7783;1.3956;-4.6442;
259524180277130;-9.9580;1.0938;-3.8441;
259524185331922;-9.3401;1.0026;-3.3123;
259524190386713;-8.6453;0.9093;-2.7876;
259524195434682;-8.3865;1.0053;-2.6776;
259524200489474;-8.4416;1.0962;-3.0846;
259524205544266;-8.7796;1.0962;-3.9855;
259524210599057;-9.6706;1.1824;-4.7375;
259524215653849;-10.4707;1.1082;-3.4777;
259524220708641;-10.1091;0.9906;-2.9243;
259524225764266;-9.3497;0.7729;-2.6058;
259524230819057;-8.6453;0.7681;-2.6512;
259524235873849;-8.4416;0.7992;-3.0057;
259524240928641;-8.4129;0.7777;-3.4729;
259524245983432;-8.5926;0.7271;-4.0669;
259524251038224;-8.7509;0.7777;-3.8800;
259524256096713;-8.3794;0.7343;-3.4107;
259524261151453;-8.1111;0.6123;-2.4595;
259524266206297;-8.7700;0.7681;-2.6847;
259524271261036;-9.6562;0.8734;-2.0378;
259524276315828;-10.3558;1.0651;-1.9756;
259524281370620;-10.6481;1.3430;-3.2166;
259524286420724;-10.5497;1.7620;-3.6885;
259524291475516;-10.0657;2.0136;-3.9951;
259524296530255;-9.3353;1.9896;-3.2740;
259524301585047;-8.4583;1.9657;-3.3817;
259524306639786;-8.0967;1.8532;-2.9865;
259524311694578;-8.4416;1.6280;-2.6106;
259524316782130;-8.7939;0.9691;-1.8248;
259524321836922;-9.1244;0.9069;-1.3074;
259524326891661;-9.1508;1.0747;-1.3768;
259524331946453;-9.0766;0.9165;-0.9790;
259524337001141;-9.2201;0.9811;-1.8870;
259524342055932;-9.6012;1.3884;-2.9267;
259524347083588;-9.7783;1.8700;-4.4429;
259524352138380;-9.9915;1.9202;-4.8120;
259524357193120;-9.5940;2.0327;-3.6117;
259524362247859;-8.8466;2.0231;-2.9124;
259524367302651;-8.2741;1.8245;-2.0163;
259524372357391;-8.6118;2.1048;-2.9363;
259524377442547;-9.3975;2.1957;-3.2572;
259524382497338;-9.8288;2.3922;-4.1315;
259524387552026;-9.8599;2.3994;-4.3256;
259524392606818;-9.6778;2.1622;-3.6814;
259524397661557;-9.1531;2.0303;-3.4466;
259524402716297;-8.6405;1.8915;-3.3362;
259524407738484;-8.0776;2.1622;-4.5891;
259524412793224;-8.2143;2.2005;-5.5304;
259524417848016;-8.6836;2.0327;-5.2669;
259524422902755;-8.7242;1.8963;-4.7255;
259524427957495;-8.4081;1.6137;-4.3017;
259524433012286;-8.3674;1.6854;-4.2467;
259524438093536;-8.7987;2.4401;-4.3615;
259524443148328;-9.3616;2.8161;-5.1544;
259524448203068;-9.4454;2.2268;-4.5700;
259524453257807;-9.5557;2.1383;-4.4572;
259524458312547;-9.8982;2.1407;-3.8704;
259524463367338;-9.7352;1.6639;-2.3877;
259524468406036;-8.9040;1.3765;-2.1458;
259524473460880;-8.1398;1.4530;-2.6632;
259524478515620;-8.0584;1.7764;-3.8847;
259524483570307;-8.4826;2.1000;-4.3041;
259524488625151;-8.9782;2.1718;-5.5690;
259524493679891;-9.0550;1.6591;-4.8694;
259524498761818;-8.7266;1.7907;-4.3017;
259524503816609;-8.4849;1.8676;-4.3831;
259524508871297;-8.5735;1.6017;-4.7880;
259524513926088;-8.9830;1.3717;-5.5161;
259524518980828;-9.6658;1.1991;-4.8957;
259524524035620;-10.0971;0.8686;-4.4453;
259524529061401;-9.8097;0.5070;-2.8594;
259524534116141;-8.6022;0.1379;-1.7838;
259524539170932;-7.5721;0.0494;-1.9851;
259524544225672;-7.6896;0.4759;-3.2453;
259524549280411;-8.7218;0.7466;-4.3065;
259524554335203;-9.6395;0.4158;-4.9077;
259524559385516;-9.7831;0.4110;-5.3342;
259524564440307;-9.7376;0.3488;-5.4897;
259524569495099;-9.2850;-0.2046;-3.6188;
259524574549838;-8.8729;-0.7268;-2.7350;
259524579604578;-9.1149;-0.9640;-3.4920;
259524584659370;-9.6849;-0.4561;-3.8154;
259524589737963;-10.1258;-0.7125;-3.6188;
259524594792755;-9.7184;-1.4480;-2.1793;
259524599847495;-8.8346;-1.6298;-3.5160;
259524604902234;-8.2693;-1.8000;-3.4513;
259524609957026;-8.5208;-1.7139;-3.3266;
259524615011766;-8.8035;-1.5963;-3.4729;
259524620068172;-9.0670;-1.2132;-5.1353;
259524625122963;-9.2321;-1.3783;-5.1329;
259524630177703;-9.7041;-1.6756;-3.9377;
259524635232443;-9.6467;-1.9845;-3.3793;
259524640287182;-9.1316;-2.6551;-1.9014;
259524645341922;-8.8298;-2.7293;-1.5350;
259524650382703;-9.2082;-2.6551;-1.5805;
259524655437547;-9.4502;-2.3653;-1.5446;
259524660492286;-9.0120;-1.8335;-1.1133;
259524665546974;-8.2884;-1.2538;-1.4246;
259524670601766;-8.1446;-0.2453;-1.0367;
259524675656557;-8.5352;0.8255;-0.6915;
259524680699734;-9.2082;1.7261;-1.4486;
259524685754526;-10.0394;2.0447;-2.5170;
259524690809266;-10.5808;1.6735;-3.4896;
259524695864005;-11.3306;0.1834;-3.6404;
259524700918797;-12.4878;-0.6120;-4.4070;
259524705973536;-12.6864;-0.3194;-4.3998;
259524711044370;-11.2780;-0.6120;-3.3649;
259524716099161;-9.2369;-1.2873;-1.7312;
259524721153953;-7.5553;-1.2849;-1.4127;
259524726208693;-7.0810;-0.8656;-1.3792;
259524731263484;-7.3493;-0.3580;-1.8966;
259524736318172;-7.8260;0.0661;-3.4825;
259524741364213;-9.0215;0.7080;-4.5126;
259524746418953;-10.0298;1.0484;-4.2754;
259524751473745;-10.4468;0.9212;-3.6814;
259524756528484;-10.6648;0.6266;-3.5566;
259524761583276;-11.2493;0.4759;-4.0406;
259524766637963;-11.3282;0.1235;-3.1496;
259524771691401;-10.4922;-0.4513;-2.1410;
259524776746141;-9.6778;-0.4920;-2.1625;
259524781800932;-8.9877;-0.3075;-2.0931;
259524786855672;-8.1254;-0.6359;-0.9984;
259524791910463;-7.4716;-0.6885;-1.5613;
259524796965151;-7.7518;0.0326;-4.0908;
259524802020255;-8.9710;0.3775;-4.6729;
259524807075047;-10.6505;0.4038;-3.4466;
259524812129786;-11.2516;0.6194;-2.7876;
259524817184526;-11.4984;0.8638;-3.4370;
259524822239318;-12.1235;0.7537;-3.0320;
259524827294005;-11.5941;0.4636;-0.9263;
259524832347963;-9.3951;0.1714;-1.0152;
259524837402755;-6.9541;-0.1902;-2.1003;
259524842457495;-6.8031;0.0422;-3.1591;
259524847512234;-7.9675;0.6625;-2.9674;
259524852567026;-9.6730;0.7681;-3.3338;
259524857621766;-9.9676;0.8375;-2.7111;
259524862675984;-9.2249;1.0962;-2.0163;
259524867730724;-8.8657;1.1130;-1.1515;
259524872785516;-9.5076;1.3645;-2.4308;
259524877840255;-11.2301;1.2709;-3.9592;
259524882894995;-12.7825;0.9045;-3.4920;
259524887949786;-12.3679;0.5979;-2.1314;
259524893031349;-10.2814;0.5046;-1.7671;
259524898086193;-7.9292;0.2794;-1.5036;
259524903140932;-6.9398;0.2626;-0.6556;
259524908195672;-7.2344;0.4807;-1.2233;
259524913250411;-8.6405;0.7247;-2.0764;
259524918305151;-9.9772;0.8877;-1.8344;
259524923341661;-10.4731;1.0340;-0.2868;
259524928396505;-10.4707;1.1297;-0.4424;
259524933451193;-10.1043;1.4698;-1.2954;
259524938505984;-10.3630;1.5945;-2.3228;
259524943560776;-11.3761;1.6041;-3.2788;
259524948615463;-11.6300;1.5634;-2.4667;
259524953670516;-10.0442;1.6735;-1.8894;
259524958725307;-8.0489;1.8003;-1.2497;
259524963780047;-7.2727;2.0255;-0.9526;
259524968834786;-7.0522;2.4233;-0.9885;
259524973889630;-7.5194;2.6414;-1.9229;
259524978944370;-8.7700;3.1971;-3.4848;
259524983995672;-9.9700;3.2498;-3.1759;
259524989050411;-10.6050;3.5061;-2.8427;
259524994105151;-10.5808;3.5133;-2.8789;
259524999159943;-10.0322;3.3550;-2.7637;
259525004214682;-9.1699;3.3287;-2.2199;
259525009269422;-9.0239;2.6821;-2.4978;
259525014328953;-10.3292;2.2699;-3.0846;
259525019383745;-11.2780;1.9777;-2.7446;
259525024438536;-10.8658;1.3119;-1.4581;
259525029493224;-9.4645;0.8973;-0.8234;
259525034548016;-8.0273;0.6314;-0.6221;
259525039602807;-7.0570;0.2001;-0.1382;
259525044657182;-7.2488;0.3392;-1.3744;
259525049712026;-8.4416;0.3535;-3.5662;
259525054766766;-10.0011;0.5548;-4.9675;
259525059821505;-11.1727;-0.0392;-4.4261;
259525064876297;-11.4936;-0.5471;-2.4547;
259525069930984;-10.7246;-0.4011;-2.5002;
259525074996453;-9.5076;-0.9664;-2.1362;
259525080051245;-8.9566;-0.9688;-2.4787;
259525085105984;-9.1627;-1.0310;-4.0549;
259525090160724;-9.6562;-1.2275;-4.5724;
259525095215516;-9.9269;-1.3256;-4.1411;
259525100270255;-9.1747;-1.7641;-1.0223;
259525105325776;-7.7279;-1.1052;-1.2114;
259525110380568;-6.8680;-0.5183;-2.1649;
259525115435307;-7.6511;0.3105;-3.3936;
259525120490047;-9.0885;0.9212;-5.0563;
259525125544838;-10.3511;1.1058;-6.1199;
259525130599578;-10.8757;1.1177;-6.8719;
259525135654370;-10.5879;0.9763;-5.0420;
259525140709109;-9.5414;0.8447;-3.4944;
259525145763901;-8.6740;0.8160;-3.6069;
259525150818641;-8.7700;0.6960;-4.4333;
259525155873432;-9.9413;0.9715;-5.7102;
259525160928172;-11.2301;0.7080;-4.3448;
259525165967963;-10.6672;0.8160;-2.3423;
259525171022755;-8.0584;1.0316;-2.5768;
259525176077443;-6.2569;1.0196;-2.8546;
259525181132234;-6.6667;1.3238;-3.5901;
259525186186974;-8.0273;1.4554;-3.4202;
259525191241713;-9.1795;1.8365;-5.1712;
259525196320880;-9.7424;1.9513;-5.4251;
259525201375672;-9.6993;1.7381;-3.4178;
259525206430411;-9.8791;1.5491;-2.8355;
259525211485203;-9.5725;1.6687;-3.5710;
259525216539891;-9.3473;1.4602;-4.5604;
259525221594682;-10.1809;1.0866;-4.3304;
259525226613641;-10.7677;1.1393;-4.1459;
259525231668380;-10.0851;0.8040;-3.1543;
259525236723172;-7.8906;0.7537;-2.2223;
259525241777963;-6.3410;0.8351;-2.4212;
259525246832703;-6.4439;0.9954;-2.7805;
259525251887495;-7.6825;1.6902;-3.9326;
259525256989734;-9.5342;1.6184;-4.7665;
259525262044526;-11.2062;2.0833;-5.2406;
259525267099266;-11.6635;1.6878;-4.6466;
259525272154057;-11.3067;1.7070;-3.9760;
259525277208797;-11.3809;1.7285;-4.4644;
259525282263536;-10.8634;1.3980;-2.8546;
259525287294318;-8.6142;1.2736;-1.7408;
259525292349057;-6.0341;0.8495;-1.6762;
259525297403849;-5.4736;1.8197;-2.9148;
259525302458641;-6.3024;2.0566;-3.2070;
259525307513484;-8.0847;2.5717;-2.5385;
259525312568224;-9.1508;2.9169;-3.6909;
259525317620307;-9.3138;3.0197;-4.1722;
259525322675099;-9.8432;3.2019;-5.0587;
259525327729943;-11.1464;3.3598;-5.4610;
259525332784734;-12.2865;2.9360;-6.3209;
259525337839474;-11.9848;2.6318;-5.7197;
259525342894266;-9.7950;1.7716;-3.6957;
259525347997703;-7.7542;1.6687;-2.1338;
259525353052443;-6.1110;2.1526;-2.8092;
259525358107234;-5.7036;2.8041;-3.5614;
259525363162026;-8.0728;3.9371;-5.0659;
259525368216818;-10.8757;4.2272;-6.0431;
259525373271609;-10.7701;3.5133;-3.3697;
259525378287286;-9.3616;2.8663;-2.3109;
259525383342078;-8.2478;1.9274;-1.7815;
259525388396922;-7.4094;1.7070;-0.9526;
259525393451713;-8.1637;2.0279;-2.0593;
259525398506505;-9.1795;2.3922;-4.1100;
259525403561297;-8.9255;2.5071;-4.6848;
259525408594682;-8.8346;2.5597;-4.9890;
259525413649474;-9.0191;2.4162;-5.0061;
259525418704266;-9.0383;2.4544;-4.9005;
259525423759057;-9.6395;2.4664;-5.6192;
259525428813849;-9.7663;1.9633;-4.9244;
259525433868641;-9.4190;1.8126;-4.9819;
259525438928432;-9.2707;1.1465;-4.6011;
259525443983224;-8.7700;0.4110;-2.7494;
259525449038016;-8.8035;0.1834;-2.5074;
259525454092807;-8.8537;-0.6407;-1.7408;
259525459147599;-8.7509;-0.2835;-2.2845;
259525464202391;-9.9150;0.3488;-3.1496;
259525469264474;-10.6816;0.6051;-4.9555;
259525474319266;-10.4563;0.7585;-5.5786;
259525479374109;-9.4310;0.5955;-5.9498;
259525484428849;-7.4213;-0.5255;-4.5700;
259525489483641;-6.0559;-1.2395;-2.9770;
259525494538432;-6.2474;-1.3448;-1.8583;
259525499594682;-7.5721;-1.1581;-1.7097;
259525504649474;-9.4932;-0.9497;-2.5265;
259525509704266;-10.9714;-1.0741;-2.7326;
259525514759057;-11.2732;-1.5532;-3.3434;
259525519813849;-10.7222;-1.9582;-4.3519;
259525524868641;-9.8360;-1.9702;-4.7617;
259525529921245;-9.3281;-1.5700;-4.8670;
259525534976036;-8.6859;-1.3854;-4.2299;
259525540030880;-8.5663;-0.9066;-4.1818;
259525545085672;-8.8202;-0.8874;-4.1387;
259525550140463;-8.9423;-1.4121;-2.7350;
259525555195203;-9.1388;-1.6875;-3.4968;
259525560272026;-9.8145;-1.7641;-4.6872;
259525565326818;-10.2933;-1.3232;-5.4849;
259525570381609;-10.2191;-1.7665;-4.0406;
259525575436401;-9.7304;-2.0037;-3.4944;
259525580491193;-8.8872;-1.7880;-2.8980;
259525585545984;-7.9723;-1.7354;-1.3289;
259525590597807;-7.8141;-1.4767;-1.5589;
259525595652651;-8.0297;-0.8177;-3.8895;
259525600707391;-9.4262;-0.1831;-5.7341;
259525605762182;-10.5281;-0.0849;-4.7617;
259525610816974;-10.3173;-0.0488;-3.6428;
259525615871766;-9.3688;-0.2955;-3.1472;
259525620928328;-8.5161;-0.0464;-1.5948;
259525625983120;-8.3650;0.8112;-1.5012;
259525631037911;-7.8404;1.5272;-2.1793;
259525636092703;-7.8787;2.2388;-5.6551;
259525641147495;-8.9471;2.8687;-7.1426;
259525646202338;-9.9317;2.6076;-5.7126;
259525651236036;-10.0708;2.5956;-3.6476;
259525656290880;-9.3712;2.9504;-3.4178;
259525661345620;-10.4970;3.3790;-1.9397;
259525666400463;-11.5415;4.7300;-1.7312;
259525671455203;-9.4119;5.7506;-1.9516;
259525676510047;-6.7720;6.1986;-5.9426;
259525681590828;-6.6882;6.3087;-8.4099;
259525686645672;-8.6572;6.2130;-7.1620;
259525691700463;-8.4897;5.7673;-3.8106;
259525696755203;-5.9815;6.0117;-3.8058;
259525701809995;-4.7743;6.6682;-5.5929;
259525706864786;-6.4128;5.5615;-3.2955;
259525711891245;-8.7485;3.9060;-1.0965;
259525716946036;-10.5018;4.9361;-5.1855;
259525722000828;-12.7128;5.1781;-8.3620;
259525727055620;-13.7668;4.0164;-1.5203;
259525732110411;-12.7968;3.7122;1.1049;
259525737165203;-10.4228;3.0365;-0.1310;
259525742215203;-8.5161;2.8328;-0.9144;
259525747269995;-8.0632;2.7132;-1.6403;
259525752324786;-8.4658;1.5873;-2.5217;
259525757379578;-8.5639;0.9428;-6.8360;
259525762434370;-8.4849;-0.1208;-5.6073;
259525767489161;-7.6920;-1.4432;-1.4127;
259525772549526;-7.4548;-2.5283;0.3191;
259525777604318;-7.5027;-3.2228;0.6138;
259525782659109;-8.4105;-2.9282;0.0990;
259525787713901;-10.3941;-2.8349;-0.1238;
259525792768693;-11.5798;-2.1497;-2.9291;
259525797823484;-11.8265;-1.5293;-4.4958;
259525802883328;-11.3139;-0.4992;-3.0464;
259525807938120;-10.1330;-0.6359;-0.8450;
259525812992911;-8.1087;-1.9388;1.5960;
259525818047703;-6.4845;-1.7498;0.9805;
259525823102495;-7.4357;-1.3615;0.1158;
259525828157286;-9.4884;-0.9377;-1.0463;
259525833223328;-10.8203;-0.4705;-1.9349;
259525838278120;-11.1823;-0.6144;-1.6762;
259525843332963;-9.3951;0.0422;-2.8355;
259525848387703;-9.4310;1.0555;-3.8871;
259525853442495;-11.1245;1.6615;-4.5628;
259525858497286;-11.3713;2.4066;-4.1148;
259525863569422;-9.6802;2.3611;-2.0115;
259525868624213;-7.8691;3.0748;-3.1253;
259525873679005;-7.7806;3.3191;-3.1926;
259525878733797;-9.9413;2.9025;-2.4476;
259525883788588;-10.6074;3.0867;-2.6847;
259525888843380;-10.6959;3.1516;-5.6121;
259525893879838;-10.2885;3.1202;-4.4429;
259525898934630;-9.5486;2.8905;-2.1147;
259525903989422;-8.5232;2.8065;-1.6211;
259525909044213;-7.3899;3.2043;-3.3075;
259525914099005;-7.6367;3.4053;-3.5853;
259525919153849;-9.5988;3.7170;-3.3840;
259525924197807;-11.0958;4.0714;-4.6322;
259525929252651;-10.1330;4.0618;-4.8239;
259525934307391;-9.5291;3.3885;-5.9402;
259525939362182;-9.6586;2.2603;-3.9135;
259525944416974;-8.9925;2.5549;-2.3925;
259525949471766;-8.2573;2.7036;-2.5816;
259525954524682;-7.4405;2.0231;-2.8355;
259525959579526;-8.5400;1.3238;-3.6356;
259525964634266;-10.4707;0.8231;-2.2510;
259525969689057;-10.4157;1.3884;-4.4405;
259525974743849;-10.4276;1.3190;-6.7546;
259525979798641;-10.4372;0.9500;-5.1281;
259525984851036;-9.4813;-0.0754;-1.0989;
259525989905828;-6.9900;-0.4872;-5.6384;
259525994960620;-7.0690;-1.3950;-0.7636;
259526000015411;-8.3865;-1.9678;2.4248;
259526005070203;-10.1569;-1.2969;-5.7700;
259526010124995;-11.2756;-1.4384;-4.7183;
259526015181088;-11.0623;-1.5389;-4.3424;
259526020235880;-10.4061;-1.9582;-1.9181;
259526025290672;-8.4849;-2.1138;-4.4572;
259526030345463;-7.7877;-2.1903;-4.4644;
259526035400255;-8.6118;-2.3174;-0.9526;
259526040455047;-8.8801;-1.2730;-3.1663;
259526045510307;-9.7974;-0.9664;-4.4166;
259526050565099;-9.2345;-2.1090;-3.4537;
259526055619891;-8.8179;-2.2911;-2.7517;
259526060674682;-9.1029;-1.5126;-4.5556;
259526065729474;-9.3497;-1.1940;-4.4070;
259526070784266;-8.8585;-1.7067;-2.0354;
259526075859474;-8.4682;-2.0611;-1.8655;
259526080914266;-9.2130;-1.7617;-3.2453;
259526085969057;-10.5066;-1.4599;-3.8082;
259526091023849;-10.2933;-1.1148;-2.6273;
259526096078641;-9.1699;-0.6670;-4.9268;
259526101133432;-8.3411;-0.3266;-6.4289;
259526106184213;-8.6740;-0.2142;-4.8598;
259526111238953;-9.0215;-0.3461;-2.7781;
259526116293797;-9.0407;0.2483;-3.4801;
259526121348536;-8.9734;0.5859;-3.3362;
259526126403380;-8.3746;0.5501;-1.2835;
259526131458120;-7.7997;1.1776;-3.5542;
259526136485359;-8.0943;1.4794;-6.9105;
259526141540151;-8.8681;2.1861;-7.2529;
259526146594995;-10.3077;2.2555;-6.2348;
259526151649734;-10.9235;1.8437;-4.5293;
259526156704526;-10.5138;2.1215;-3.8704;
259526161759318;-8.8681;1.3932;-1.8057;
259526166856818;-7.6511;0.1666;-3.3912;
259526171911609;-7.5123;-0.1663;-5.9115;
259526176966453;-9.1771;1.1034;-7.4495;
259526182021193;-9.9820;1.3956;-5.5256;
259526187075984;-9.1795;1.1201;-3.2381;
259526192130776;-8.1254;1.1417;-2.8594;
259526197153432;-9.1388;1.1225;-2.3204;
259526202208224;-9.6826;1.4937;-2.4739;
259526207263068;-8.8872;1.3023;-5.0611;
259526212317807;-8.3794;1.0675;-6.6159;
259526217372599;-9.2632;1.2999;-5.6839;
259526222427391;-10.0202;1.2398;-1.9086;
259526227509995;-9.4478;1.3071;-1.0080;
259526232564786;-8.2238;1.6400;-3.0775;
259526237619578;-7.3926;1.7357;-3.9377;
259526242674422;-7.2129;1.5248;-4.2849;
259526247729213;-9.0144;1.6137;-6.8360;
259526252784005;-10.2479;2.4712;-7.1931;
259526257805932;-10.7653;2.7395;-5.4060;
259526262860724;-10.2766;2.1263;-1.4222;
259526267915516;-9.9365;1.9107;-2.4691;
259526272970307;-9.1627;1.4483;-2.2199;
259526278025099;-7.7183;1.5176;-2.0545;
259526283079891;-8.0967;1.6376;-5.5280;
259526288161141;-9.8527;1.8987;-5.8923;
259526293215984;-10.6935;2.0136;-3.6643;
259526298270776;-10.6193;1.2685;-0.6772;
259526303325620;-10.3149;0.7490;-0.9120;
259526308380411;-9.2513;0.9643;-0.7851;
259526313435203;-6.7289;0.7992;-1.4557;
259526318495516;-5.6821;1.0795;-4.8191;
259526323550359;-7.2344;1.0268;-7.0684;
259526328605151;-10.6265;0.1905;-4.3831;
259526333659943;-12.6912;-0.4609;0.5276;
259526338714786;-12.2049;0.1044;0.7337;
259526343769578;-8.3028;0.7561;-1.1109;
259526348827911;-6.2737;1.0026;-3.3960;
259526353882755;-7.0666;0.5596;-3.2979;
259526358937547;-9.2536;0.8614;-5.2887;
259526363992338;-10.8323;-0.2357;-3.9063;
259526369047182;-12.2650;-0.6431;-0.4953;
259526374101974;-10.1450;-0.0009;0.1445;
259526379151661;-6.8151;-0.1424;-3.0200;
259526384206505;-6.6356;-0.0416;-6.9703;
259526389261297;-8.8083;-0.4944;-6.3882;
259526394316141;-10.5209;-1.1291;-4.3400;
259526399370932;-11.8576;-1.3639;-4.8790;
259526404425724;-12.3296;-1.7091;-3.4705;
259526409460411;-11.4434;-1.6513;-2.2869;
259526414515255;-8.5807;-1.7474;-1.9277;
259526419570047;-6.2521;-1.4336;-4.5197;
259526424624838;-6.8895;-0.6933;-5.5499;
259526429679682;-10.3511;-0.6861;-3.3505;
259526434734474;-13.1273;-0.2189;-0.2844;
259526439818276;-12.9141;0.4038;0.1421;
259526444873068;-9.5438;0.8088;1.0331;
259526449927911;-7.2870;1.5730;-0.0975;
259526454982703;-7.2009;1.0388;-1.0295;
259526460037495;-9.9150;2.2340;-4.8431;
259526465092338;-12.8207;2.7634;-4.6633;
259526470126505;-12.7295;1.4602;-0.2844;
259526475181349;-10.8515;0.9165;0.1038;
259526480236141;-9.3664;0.9093;-0.7277;
259526485290932;-7.4166;1.1489;-1.2114;
259526490345776;-6.7672;0.8662;-3.0320;
259526495400568;-7.7734;0.4684;-4.9795;
259526500447599;-9.1292;-0.0730;-4.3065;
259526505502443;-11.3689;-0.6048;-2.9674;
259526510557234;-11.5678;-0.5758;-2.8980;
259526515612026;-9.1173;-0.0945;-2.9698;
259526520666870;-6.5850;0.4759;-4.7713;
259526525721661;-6.8079;0.5835;-5.4443;
259526530791974;-8.5831;0.3129;-4.8718;
259526535846818;-9.8384;-0.1687;-4.2323;
259526540901609;-10.2981;-0.9568;-3.7555;
259526545956401;-9.5438;-1.2012;-3.0655;
259526551011245;-8.0943;-1.4838;-1.6546;
259526556066036;-7.3780;-1.0836;-4.5341;
259526561122078;-7.9627;-0.7340;-6.8097;
259526566176922;-10.2287;-0.7890;-5.4754;
259526571231713;-11.4936;-0.2142;-2.6058;
259526576286557;-10.9379;-0.7842;-2.5481;
259526581341349;-9.5821;-1.4934;-1.6594;
259526586396193;-8.5113;-0.7292;-3.1205;
259526591452911;-7.9723;-0.3652;-4.8550;
259526596507755;-7.7471;-0.1639;-5.1377;
259526601562547;-8.9614;-0.4466;-4.7617;
259526606617391;-10.8299;-0.9927;-2.4571;
259526611672182;-11.6925;-0.5375;-2.2822;
259526616726974;-9.4071;-0.7125;-1.9062;
259526621778328;-6.7983;-0.3266;-5.6791;
259526626833172;-6.6978;0.1618;-5.8059;
259526631887963;-8.3387;0.4878;-3.3027;
259526636942807;-10.0756;0.0206;-4.3711;
259526641997599;-11.1392;-0.3123;-3.0176;
259526647052391;-10.1689;0.4711;-2.6824;
259526652096245;-8.1565;0.6051;-4.6178;
259526657151088;-8.5998;1.0986;-6.5342;
259526662205880;-8.9949;1.5491;-4.2873;
259526667260672;-8.3267;1.0651;-3.9182;
259526672315516;-8.9040;1.2254;-4.3998;
259526677370307;-9.4167;1.5634;-4.5174;
259526682427182;-9.6419;1.7213;-5.2911;
259526687482026;-9.1651;1.6376;-5.0372;
259526692536818;-8.3674;1.8197;-5.5905;
259526697591609;-8.2813;1.7644;-5.6408;
259526702646453;-9.2898;1.4889;-3.4083;
259526707701297;-9.0096;1.8245;-2.9052;
259526712754578;-7.8739;1.7189;-6.0817;
259526717809422;-7.8500;0.2937;-6.0096;
259526722864213;-9.1316;0.2052;-4.1841;
259526727919005;-9.4167;0.9787;-4.2156;
259526732973849;-9.2683;0.2650;-2.3806;
259526738028641;-9.3162;0.0948;-3.2285;
259526743079786;-10.0828;0.1427;-3.2501;
259526748134630;-9.0814;-0.8680;-2.1864;
259526753189422;-7.4668;-0.7125;-5.9019;
259526758244213;-8.3435;-0.5471;-5.6551;
259526763299057;-10.5114;-0.1519;-3.7412;
259526768353849;-11.1150;-0.2740;-2.7182;
259526773407495;-8.9351;-0.9329;-2.6345;
259526778462338;-6.9422;-1.1267;-5.7006;
259526783517130;-7.2320;-0.4394;-5.7676;
259526788571922;-8.9112;-0.5303;-4.8646;
259526793626766;-9.8719;-0.8560;-4.3543;
259526798681557;-10.5975;-0.8369;-4.5843;
259526803741922;-9.4621;-1.1315;-3.1424;
259526808796766;-8.1661;-1.1868;-4.8909;
259526813851557;-7.7064;-1.0502;-4.7641;
259526818906349;-6.8031;-1.0382;-4.9268;
259526823961193;-7.9579;-1.3998;-3.9951;
259526829015984;-9.4621;-1.0549;-4.0167;
259526834084370;-9.7831;-1.2969;-6.2635;
259526839139213;-10.0011;-1.2419;-4.3831;
259526844194005;-8.8442;-0.9329;-4.4644;
259526849248797;-9.6873;-1.2443;-3.7531;
259526854303641;-9.8169;-0.9018;-1.8918;
259526859358432;-8.6142;-0.9042;-3.7412;
259526864420516;-9.3066;-1.3615;-4.6729;
259526869475359;-9.8073;-1.0741;-5.2190;
259526874530151;-10.0828;-1.0262;-2.2534;
259526879584995;-9.3951;-0.4011;-0.4786;
259526884639786;-8.3195;0.0733;-3.9832;
259526889694630;-9.2970;0.0757;-4.5556;
259526894749578;-9.8815;0.1355;-4.1841;
259526899804422;-10.3726;0.5261;-2.7374;
259526904859213;-9.5677;1.5467;-2.9339;
259526909914005;-8.2430;2.2579;-2.6800;
259526914968849;-8.3387;2.7395;-2.7159;
259526920023641;-8.3411;2.8639;-7.4447;
259526925052599;-10.0585;3.0796;-5.6910;
259526930107443;-10.1402;4.3421;-3.4490;
259526935162234;-7.8667;4.5577;-3.2142;
259526940217026;-7.2655;5.1374;-4.8981;
259526945271870;-7.0905;4.7061;-8.1535;
259526950326661;-9.4143;4.1719;-4.6848;
259526955388745;-10.9116;4.9911;-4.4237;
259526960443588;-10.2215;4.9983;-4.3831;
259526965498380;-9.2249;4.9983;-2.5768;
259526970553172;-7.8332;4.0881;-6.1008;
259526975608016;-9.2297;3.0628;-3.9688;
259526980662807;-9.5342;3.7696;-4.0693;
259526985708953;-9.3568;3.8438;-2.5986;
259526990763797;-9.1603;4.1264;-2.0812;
259526995818588;-8.9973;2.7108;-5.1784;
259527000873380;-9.6538;0.7199;-0.8043;
259527005928224;-7.7231;1.3502;-2.0979;
259527010983016;-7.6968;2.1144;-3.5447;
259527016038641;-8.7218;1.6280;-2.1601;
259527021093484;-8.9853;0.7896;-3.0870;
259527026148276;-10.1426;-0.0826;-2.2223;
259527031203068;-8.6166;0.4421;-4.7952;
259527036257911;-8.6022;0.8375;-4.9962;
259527041312703;-9.8049;0.5883;-2.1051;
259527046438224;-9.5845;0.2889;-3.4968;
259527051493016;-9.6299;-0.5303;-3.6595;
259527056547807;-9.2082;-0.6072;-3.9326;
259527061602599;-8.7389;-0.0105;-2.2391;
259527066657443;-8.1494;-0.1161;-1.6475;
259527071712234;-8.4344;0.1666;-4.2921;
259527076702286;-9.3760;-0.4968;-4.2514;
259527081757130;-10.0442;-1.8574;-3.5207;
259527086811974;-11.0408;-1.3208;-3.7196;
259527091866713;-10.3053;-0.7029;-4.2227;
259527096921557;-9.3497;-0.6024;-2.4835;
259527101976349;-9.3808;-1.1028;-1.4486;
259527107023849;-7.1746;-1.9869;-2.7900;
259527112078693;-8.4296;-2.3581;-4.6753;
259527117133484;-9.7974;-1.5150;-3.0392;
259527122188276;-9.4262;-0.9975;-3.1253;
259527127243172;-9.4573;-1.5987;-3.7101;
259527132297911;-10.0851;-2.0850;-5.9665;
259527137383224;-9.6036;-2.5786;-2.4715;
259527142437963;-9.1627;-2.5068;-2.3276;
259527147492755;-8.0321;-1.6633;-5.5065;
259527152547599;-8.9447;-1.5221;-5.0707;
259527157602391;-9.8192;-2.6504;-3.1567;
259527162657182;-10.5114;-2.7703;-2.6728;
259527167687547;-9.2731;-2.1975;-5.3557;
259527172742338;-8.3195;-1.4886;-5.1879;
259527177797130;-9.0096;-1.6394;-3.0846;
259527182851974;-8.6094;-1.8598;-4.1004;
259527187906766;-9.0766;-1.9917;-4.8957;
259527192961557;-9.3401;-2.1544;-3.9712;
259527198045411;-9.9126;-1.6947;-2.9674;
259527203100255;-8.5615;-1.0190;-2.2798;
259527208155047;-7.9340;-1.0262;-6.2611;
259527213209891;-9.1196;-1.2395;-4.7521;
259527218264682;-8.8298;-1.8000;-3.9832;
259527223319474;-9.3401;-1.3161;-4.2203;
259527228366870;-7.9603;-0.5231;-5.2887;
259527233421713;-8.5998;-0.1065;-5.3294;
259527238476505;-9.1747;-0.8707;-2.5337;
259527243531349;-8.5711;-0.9425;-6.1678;
259527248586141;-9.7783;-0.5136;-4.7809;
259527253640932;-9.8527;0.6601;-4.5867;
259527258673224;-10.3869;0.5644;-2.5193;
259527263728068;-8.4969;0.0781;-3.5566;
259527268782859;-8.1637;0.2483;-6.1630;
259527273837651;-8.1302;0.0876;-3.1400;
259527278892495;-7.6415;0.9117;-5.7604;
259527283947286;-8.7844;0.3846;-4.8526;
259527289010932;-7.4357;0.2219;-6.3523;
259527294065776;-9.1819;0.1164;-4.5963;
259527299120568;-8.7341;0.4469;-4.6322;
259527304175359;-9.2297;1.3454;-6.7546;
259527309230151;-8.5711;0.7394;-3.6718;
259527314284995;-9.1436;1.1632;-6.2300;
259527319416401;-7.7399;0.9667;-3.0631;
259527324471193;-8.0824;1.7285;-8.2615;
259527329526036;-9.2898;1.9011;-4.9196;
259527334580776;-9.0024;1.5009;-4.1315;
259527339635620;-8.9136;1.5344;-3.8871;
259527344690411;-7.0666;1.2206;-5.3151;
259527349688172;-9.8288;1.8173;-6.1941;
259527354743016;-8.8896;0.6625;-2.2367;
259527359797859;-9.0263;0.2650;-4.4477;
259527364852599;-7.5266;0.8040;-2.9818;
259527369907391;-7.0881;0.4421;-4.7160;
259527374962234;-8.8131;0.0470;-3.1158;
259527380014161;-11.7045;0.4014;-6.2109;
259527385069005;-10.4516;0.8710;-3.2596;
259527390123849;-9.6586;1.0819;-3.8082;
259527395178641;-8.2143;0.4684;-3.0129;
259527400233432;-5.3731;-0.7244;-2.5887;
259527405288224;-5.7108;0.5022;-3.9855;
259527410332703;-8.7556;1.2398;-6.4170;
259527415387547;-14.5645;0.6817;-4.8287;
259527420442338;-17.0369;-0.6957;-1.5589;
259527425497130;-14.6845;0.3153;0.7624;
259527430551974;-10.4970;1.4195;-1.8033;
259527435606766;-7.8715;1.4148;-2.0955;
259527440703901;-4.6352;-0.2429;1.2799;
259527445758693;-6.4152;-0.5662;-3.2931;
259527450813536;-6.7385;0.1116;-6.4720;
259527455868276;-9.3162;-0.1615;-6.2180;
259527460923120;-8.9662;-0.7412;-1.7934;
259527465977911;-9.6227;-0.4848;-6.0311;
259527470982078;-8.2837;-0.7077;-5.7006;
259527476036922;-9.7783;-0.3218;-6.4672;
259527481091713;-8.7437;-0.2812;-2.4930;
259527486146505;-8.0919;-0.6431;-6.1702;
259527491201297;-8.3124;-0.7484;-5.2816;
259527496256141;-9.5629;-0.5136;-5.2286;
259527501313432;-9.5028;0.2171;-2.4523;
259527506368276;-9.4980;0.4588;-5.3055;
259527511423068;-8.9471;-0.4729;-4.5030;
259527516477911;-9.4190;-0.6144;-2.2893;
259527521532651;-9.3401;0.0852;-1.7288;
259527526587495;-9.3233;0.5979;-4.0837;
259527531666349;-9.4454;0.0972;-3.4035;
259527536721193;-9.6562;-0.7819;-1.0917;
259527541775984;-8.3530;0.2100;-1.7169;
259527546830828;-8.1470;1.3262;-7.0038;
259527551885620;-7.7016;1.1393;-6.3018;
259527556940411;-9.2249;-0.1902;-4.9531;
259527561973641;-10.3822;0.3105;-3.8393;
259527567028484;-9.7065;1.8485;-7.3343;
259527572083276;-7.7136;1.6807;-4.2371;
259527577138068;-7.6534;0.5907;-4.8096;
259527582192859;-8.4658;-0.0873;-4.2108;
259527587247703;-10.2503;0.6505;-5.5714;
259527592313120;-9.5028;1.3310;-3.5471;
259527597367963;-8.1278;0.5189;-4.0693;
259527602422755;-7.5171;-0.1256;-4.6131;
259527607477547;-9.6873;0.6936;-6.4385;
259527612532391;-9.2584;1.5778;-4.1818;
259527617587234;-7.9436;0.2889;-4.2132;
259527622644578;-7.3708;-0.2955;-5.3677;
259527627699422;-9.6754;-0.6120;-5.3103;
259527632754213;-10.0537;0.9380;-2.2750;
259527637809005;-9.6132;-0.5040;-4.4524;
259527642863849;-8.4320;-1.6107;-2.6560;
259527647918641;-9.2922;-1.6561;-3.7507;
259527652959786;-9.3138;0.3320;-2.5170;
259527658014630;-8.9423;-1.1438;-3.9712;
259527663069422;-7.1961;-2.0300;-3.5710;
259527668124213;-9.2922;-1.7833;-4.8407;
259527673179005;-10.3125;-0.0535;-3.0057;
259527678233849;-10.0346;-0.8512;-3.4585;
259527683281245;-7.5529;-2.6145;-3.3338;
259527688336088;-9.0335;-2.2047;-4.8072;
259527693390880;-10.1641;-0.3075;-3.4178;
259527698445672;-9.7902;-0.9066;-2.5409;
259527703500463;-7.4836;-2.6743;-2.7039;
259527708555307;-7.7160;-1.9439;-4.4644;
259527713618745;-10.6840;0.0852;-5.7006;
259527718673588;-9.7184;-0.1639;-3.1998;
259527723728380;-8.4272;-2.2047;-4.7112;
259527728783172;-7.3708;-1.7641;-4.1076;
259527733837963;-8.7700;-0.4633;-5.2768;
259527738892807;-9.4023;-0.4442;-4.1746;
259527743942755;-9.1651;-1.3137;-4.2084;
259527748997599;-9.2273;-2.4227;-5.1042;
259527754052391;-11.4506;-0.7531;-3.9206;
259527759107234;-10.5018;0.2889;-3.8800;
259527764162026;-7.1435;-1.0669;-2.1362;
259527769216818;-7.1267;-0.6909;-6.4983;
259527774271453;-8.6285;0.0494;-5.9474;
259527779326297;-10.6170;-0.2883;-2.5170;
259527784381088;-8.8394;-0.2716;-0.4618;
259527789435880;-7.2583;-0.9425;-5.6886;
259527794490672;-9.3568;-0.0488;-5.9833;
259527799545516;-12.7490;0.4735;-1.4103;
259527804597599;-8.6429;-0.7579;1.3780;
259527809652443;-6.1516;-0.8369;-4.4934;
259527814707234;-9.8839;0.7848;-8.0554;
259527819762026;-12.6506;0.1331;-0.4786;
259527824816818;-11.0432;-0.0105;-0.2725;
259527829871661;-6.1325;1.1058;-5.9210;
259527834945203;-7.6801;1.4315;-9.4854;
259527840000099;-10.2191;0.8231;-1.4079;
259527845054838;-9.5100;0.2650;0.5755;
259527850109630;-6.7361;0.5572;-7.9956;
259527855164474;-8.9447;1.0172;-8.3094;
259527860219266;-12.0326;0.9093;-1.3648;
259527865275724;-8.2908;-0.2524;0.7457;
259527870330568;-7.7255;0.4373;-8.9082;
259527875385359;-9.9413;1.2254;-8.3453;
259527880440151;-12.7657;1.0077;-0.0832;
259527885494995;-9.2130;-0.3218;0.7600;
259527890549786;-5.9839;1.7596;-8.3261;
259527895588432;-7.5721;1.1680;-7.6457;
259527900643276;-8.5711;-0.3820;0.2856;
259527905698068;-8.8872;-0.5279;-3.0631;
259527910752859;-8.4368;0.1666;-9.1382;
259527915807651;-10.7653;-0.2477;-5.9234;
259527920862495;-10.0226;-1.5221;1.8715;
259527925915828;-8.3219;-0.2477;-3.0679;
259527930970672;-9.1149;-0.3123;-9.4161;
259527936025463;-10.2120;-0.8082;-1.9708;
259527941080255;-9.0455;-1.0119;1.1937;
259527946135099;-7.1578;0.1570;-6.2635;
259527951189891;-9.6251;-0.1184;-8.9656;
259527956259526;-12.3153;-0.5877;-1.6044;
259527961314266;-8.2095;-1.2586;0.6691;
259527966369109;-8.5089;-1.4408;-7.9932;
259527971423901;-9.5462;-2.1018;-5.4586;
259527976478745;-10.2957;-1.5820;1.5051;
259527981533536;-8.4416;-1.4599;-1.6786;
259527986570620;-7.1698;-1.7880;-8.3716;
259527991625411;-11.0934;-2.0133;-4.8455;
259527996680203;-9.4741;-2.1353;2.4344;
259528001735047;-8.1517;-1.0214;-5.7915;
259528006789891;-8.9949;-1.8670;-9.4304;
259528011844630;-9.9509;-2.0252;-2.1266;
259528016916609;-9.4765;-2.0252;-0.4208;
259528021971401;-8.2549;-2.0994;-5.3366;
259528027026193;-10.2144;-1.8646;-5.7245;
259528032081036;-10.7677;-1.8837;-1.0558;
259528037135828;-8.4826;-1.8861;-0.6365;
259528042190620;-8.2765;-2.1640;-6.4672;
259528047250463;-8.8609;-2.0157;-3.2118;
259528052305255;-8.4969;-0.8058;-0.1693;
259528057360099;-8.3219;-1.5485;-4.4982;
259528062414891;-9.3233;-2.6456;-4.4237;
259528067469682;-10.8132;-0.7771;-4.2419;
259528072524474;-8.8107;0.2794;-1.9732;
259528077586088;-8.8442;-2.0731;-4.9436;
259528082640932;-10.2814;-2.1808;-3.9616;
259528087695776;-8.7242;0.6840;-3.2644;
259528092750516;-8.8609;-0.3939;-6.1893;
259528097805307;-10.1737;-1.7665;-4.3113;
259528102860151;-9.1125;-0.1041;-1.6738;
259528107909995;-7.3684;2.0710;-5.2071;
259528112964838;-6.6930;-0.8058;-6.4002;
259528118019630;-10.1330;-1.6732;-3.2501;
259528123074422;-11.0743;1.7405;-3.5614;
259528128129266;-7.9627;0.7271;-6.1510;
259528133184057;-9.1986;-2.0420;-3.5471;
259528138249786;-9.6036;-0.0081;-2.3638;
259528143304526;-8.2119;1.7812;-4.4501;
259528148359318;-8.1999;-1.3256;-4.9675;
259528153414161;-8.6213;-2.1449;-2.0450;
259528158468953;-9.2489;2.1718;-4.3519;
259528163523745;-8.8226;0.1834;-6.2970;
259528168563849;-9.6538;-3.2830;-2.8956;
259528173618693;-11.2995;0.1977;-3.6571;
259528178673484;-8.2741;1.9513;-4.0741;
259528183728276;-6.0509;-2.7942;-3.7914;
259528188783120;-10.1402;-2.7751;-3.8225;
259528193837911;-10.9044;1.6783;-4.3519;
259528198888588;-9.8384;-0.7005;-4.7040;
259528203943432;-10.5281;-3.7977;-2.7182;
259528208998224;-9.8408;0.2865;-2.3495;
259528214053016;-7.1937;1.3167;-5.3653;
259528219107859;-9.0096;-3.2659;-4.3065;
259528224162651;-9.1268;-2.1353;-1.9780;
259528229216036;-8.0847;2.0518;-5.1640;
259528234270880;-7.8165;-1.1004;-5.9115;
259528239325724;-7.9675;-3.6135;-2.4476;
259528244380463;-10.5329;0.7370;-4.1435;
259528249435307;-8.9136;0.5764;-5.9856;
259528254490099;-9.1125;-3.6374;-3.5327;
259528259548224;-12.3153;-0.7268;-2.2510;
259528264603068;-9.6658;1.6783;-3.9568;
259528269657859;-8.0967;-2.4227;-2.9387;
259528274712651;-11.2014;-1.5700;-3.2333;
259528279767495;-9.3042;1.8293;-2.4691;
259528284822286;-6.8800;-0.6550;-2.5289;
259528289874943;-8.5615;-2.1114;-3.0511;
259528294929734;-8.2406;0.8327;-3.4968;
259528299984578;-7.2272;-0.2381;-4.1291;
259528305039370;-10.8948;-2.3342;-3.4825;
259528310094161;-11.1559;-0.2118;-3.1519;
259528315149005;-9.2465;0.2578;-4.5006;
259528320207755;-9.0000;-1.4408;-3.9206;
259528325262547;-8.9853;-0.4801;-3.0416;
259528330317391;-7.2464;1.3693;-6.7140;
259528335372182;-7.7614;-1.1701;-7.2984;
259528340427026;-9.1771;-1.5173;-2.2295;
259528345481818;-9.7232;1.7955;-5.3486;
259528350554786;-9.3281;1.3765;-7.6720;
259528355609578;-10.7438;-0.2907;-3.2429;
259528360664422;-8.0273;1.2999;-0.5671;
259528365719213;-5.3109;1.0172;-6.4217;
259528370774057;-5.8140;-0.7603;-8.7380;
259528375828849;-8.7628;-0.2046;-1.5900;
259528380877443;-10.5018;1.2565;-4.3543;
259528385932234;-8.5089;-0.7029;-5.2262;
259528390987078;-11.0312;1.2087;-5.8756;
259528396041870;-11.2564;2.1574;-2.8068;
259528401096713;-6.6906;-0.0826;-1.6451;
259528406151557;-7.8093;0.0206;-7.6217;
259528411193588;-10.3340;0.8303;-2.2271;
259528416248380;-10.5784;0.5477;-1.0199;
259528421303224;-12.3320;-0.1017;-2.5648;
259528426358016;-11.5487;0.8064;-3.4537;
259528431412859;-7.0594;0.6625;-2.3877;
259528436467651;-7.2129;-0.9664;-2.6201;
259528441509995;-7.6801;-1.0286;-3.6260;
259528446564838;-7.3325;-0.6072;-6.0864;
259528451619682;-10.2718;-0.9377;-6.5414;
259528456674474;-11.5511;-1.2969;-2.3686;
259528461729318;-9.0646;-0.7412;-1.1157;
259528466784161;-7.7495;-0.9999;-4.6825;
259528471843016;-7.8117;-1.0310;-4.1172;
259528476897911;-7.5123;-1.4862;-2.6225;
259528481952703;-10.2120;-1.8000;-6.3018;
259528487007495;-12.9763;-1.5963;-5.9186;
259528492062286;-11.0264;-1.9101;0.7361;
259528497117130;-9.0981;-1.8215;-0.6317;
259528502174838;-7.8260;-0.3242;-5.7843;
259528507229734;-7.3325;-1.5317;-3.2692;
259528512284474;-9.0263;-2.6264;-0.7131;
259528517339318;-11.7380;-1.5580;-4.1770;
259528522394109;-9.0335;-1.7737;-4.5796;
259528527448953;-7.8021;-1.8885;-1.4773;
259528532501505;-9.6562;0.6984;-3.8919;
259528537556349;-8.2167;-0.9162;-4.7160;
259528542611141;-8.6812;-1.7785;-3.0846;
259528547665984;-11.4000;0.3607;-6.9631;
259528552720776;-10.3292;-0.0802;-5.6695;
259528557775620;-8.5567;-0.9784;-4.0502;
259528562832703;-9.0550;0.3176;-4.0813;
259528567887547;-8.9973;1.0603;-5.6815;
259528572942338;-7.4166;-0.9951;-2.2128;
259528577997182;-8.4344;0.2913;-3.2596;
259528583051974;-8.0058;1.6280;-7.6193;
259528588106818;-7.5338;-0.5830;-0.6389;
259528593181453;-8.4682;0.5644;-1.1563;
259528598236245;-7.8978;2.3444;-7.2817;
259528603291088;-10.1091;1.0866;-4.4910;
259528608345880;-10.3487;0.9882;-0.6197;
259528613400724;-7.6008;2.6103;-7.1234;
259528618455516;-9.0311;0.6553;-8.5777;
259528623506713;-11.6949;0.9117;-1.5036;
259528628561505;-7.2679;2.7443;-5.4323;
259528633616349;-6.4080;0.0302;-6.6108;
259528638671141;-10.9379;0.9308;-0.9837;
259528643725984;-7.7160;2.8759;-6.1223;
259528648780776;-7.2535;0.3344;-5.0085;
259528653828641;-12.7056;1.8461;-2.5720;
259528658883432;-8.1135;2.5645;-8.3429;
259528663938224;-5.5193;-0.2548;-9.4041;
259528668993068;-12.3631;0.6051;-5.8181;
259528674047859;-13.5464;1.5105;-5.1377;
259528679102703;-7.8882;-0.1902;-4.8191;
259528684155255;-7.4716;-0.3987;3.2058;
259528689210047;-5.7826;1.8126;-3.3601;
259528694264838;-4.8461;-0.5040;-7.2314;
259528699319682;-9.7615;-1.2323;-1.1228;
259528704374474;-11.3593;0.1259;-6.6470;
259528709429318;-12.3344;-0.9473;-7.9813;
259528714476818;-13.1704;-0.5231;0.0652;
259528719531609;-7.8428;0.2339;-4.1626;
259528724586453;-5.5720;-0.9090;-6.1893;
259528729641297;-10.5042;-1.2299;0.5994;
259528734696036;-7.6681;-0.7316;-4.4477;
259528739750880;-5.2965;-2.4012;-5.2816;
259528744807078;-9.4214;-0.6383;-3.1229;
259528749861922;-8.9231;0.7872;-7.4877;
259528754916713;-9.9461;-1.3950;-6.1223;
259528759971557;-12.5094;0.0374;-2.1577;
259528765026401;-8.7317;1.3430;-9.0425;
259528770081193;-8.1350;-1.0214;-4.9388;
259528775136088;-10.2646;0.3870;-2.1051;
259528780190932;-7.2081;1.1895;-6.4935;
259528785245724;-7.8547;-1.7498;-0.2246;
259528790300568;-9.6826;0.8782;-0.5671;
259528795355359;-7.7782;0.8949;-5.4179;
259528800410203;-7.2200;-0.9568;-1.8464;
259528805466245;-7.8571;0.3679;-3.2764;
259528810521088;-9.1077;0.9523;-9.1214;
259528815575880;-12.4038;0.3464;-4.0860;
259528820630724;-12.9547;0.7872;-0.7660;
259528825685516;-10.3367;0.2195;-3.5279;
259528830740359;-9.7424;0.4878;-1.1492;
259528835812443;-9.5028;-0.3580;-0.9622;
259528840867234;-8.5352;0.1714;-3.7651;
259528845922078;-8.4754;-0.3532;-1.4916;
259528850976870;-8.7963;-0.6455;-2.6058;
259528856031713;-8.4081;0.3966;-3.9326;
259528861086505;-10.1617;0.2889;-2.5026;
259528866140620;-9.2273;-0.9329;-5.2816;
259528871195411;-8.3578;0.7609;-6.0912;
259528876250255;-9.6778;-1.0597;-3.5734;
259528881305047;-10.4587;-1.0693;-3.6909;
259528886359891;-8.4488;0.6362;-3.9087;
259528891414682;-8.1999;-1.0908;-2.5959;
259528896472338;-7.8021;-0.2548;-3.9712;
259528901527130;-7.7590;0.5237;-6.2683;
259528906581974;-10.4803;-0.6790;-3.8441;
259528911636766;-10.8156;0.8973;-5.4012;
259528916691557;-9.5291;-0.0945;-2.5050;
259528921746401;-10.6576;-0.2907;-2.1936;
259528926816245;-9.7759;1.4243;-5.1879;
259528931870984;-9.0048;-0.6168;-2.0740;
259528936925880;-10.3029;-1.9053;-0.5743;
259528941980620;-8.2813;0.1977;-2.4404;
259528947035463;-6.9135;-0.7962;-3.7771;
259528952090307;-7.3493;-1.2514;-2.1505;
259528957114109;-7.8188;0.4926;-6.4840;
259528962168901;-11.8074;-1.4743;-6.2204;
259528967223745;-12.8447;-0.7699;-2.0644;
259528972278536;-9.1268;0.6577;-4.3639;
259528977333380;-10.4204;-0.7388;-2.2558;
259528982388172;-7.4836;0.6386;-2.3327;
259528987473068;-5.8187;0.5118;-3.3194;
259528992527859;-9.1340;-1.2658;-1.6570;
259528997582703;-8.0800;0.5118;-5.3868;
259529002637495;-8.1302;-0.3338;-5.4754;
259529007692338;-11.3833;-1.2179;-1.0582;
259529012747130;-8.9853;1.7596;-6.4433;
259529017786870;-9.2970;-0.7962;-5.2863;
259529022841661;-10.6768;0.2889;-1.7815;
259529027896505;-6.6978;1.3454;-6.2779;
259529032951297;-10.2766;-1.2395;-3.6933;
259529038006141;-9.2249;1.2637;-2.4165;
259529043060932;-6.5037;0.7848;-6.3138;
259529048117026;-10.1737;-0.1161;-3.2883;
259529053171818;-8.6644;1.7907;-7.0684;
259529058226661;-9.1412;-0.9401;-5.8756;
259529063281505;-12.0494;0.8542;-0.5264;
259529068336297;-8.2214;1.4698;-6.0455;
259529073391088;-9.1675;-1.0717;-0.9909;
259529078449943;-9.3855;1.2903;-0.4328;
259529083504734;-7.2344;0.6673;-6.3835;
259529088559578;-10.6050;-0.5088;-1.5446;
259529093614370;-9.1962;0.4181;-2.2989;
259529098669213;-7.0570;-0.5279;-4.9507;
259529103724005;-10.2598;0.0733;-2.7829;
259529108777703;-9.6586;0.3440;-5.3414;
259529113832495;-11.0240;-0.7531;-3.9760;
259529118887338;-11.1918;-0.4131;1.4019;
259529123942130;-6.9781;-0.5255;-5.6623;
259529128996974;-8.8131;-0.8249;-2.2822;
259529134051766;-8.5926;-0.7651;-0.6126;
259529139089734;-6.4104;-0.7172;-7.8805;
259529144144526;-10.0059;-0.0969;-5.9713;
259529149199370;-9.7807;-0.8034;-5.9330;
259529154254161;-10.3606;-0.4657;-4.5006;
259529159309005;-11.2947;0.5812;-3.5495;
259529164363797;-8.9853;-0.0272;-6.0191;
259529169426818;-9.9796;-0.4394;-1.8918;
259529174481609;-9.5052;-0.1448;0.6978;
259529179536453;-7.4022;-0.4059;-4.0837;
259529184591245;-8.3507;-0.3365;-1.7432;
259529189646088;-7.2918;0.1403;-3.5351;
259529194700880;-8.5017;0.1355;-5.9593;
259529199755984;-10.2455;-0.1735;-3.2692;
259529204810776;-10.7701;-1.5437;-6.0311;
259529209865620;-11.5319;-0.2070;-1.9469;
259529214920411;-9.8121;-0.9162;-1.4605;
259529219975255;-7.7375;-1.4575;-4.3663;
259529225030047;-7.6968;0.6170;-3.4657;
259529230082651;-7.7207;-1.7952;-3.0105;
259529235137443;-8.6836;0.0948;-3.6957;
259529240192234;-10.1474;0.9811;-5.7580;
259529245247078;-9.8264;-1.6131;-3.1253;
259529250301922;-10.2885;2.1263;-5.1066;
259529255356713;-9.9054;-0.2070;-3.0224;
259529260417755;-8.9638;-0.5853;-2.2391;
259529265472547;-9.2369;2.0734;-4.4982;
259529270527391;-8.9112;-1.4456;-0.2988;
259529275582182;-7.0905;0.1140;-4.2706;
259529280636974;-8.3219;1.0101;-6.0769;
259529285691818;-8.4129;-0.6885;-3.7340;
259529290741505;-9.3209;0.9332;-6.1941;
259529295796297;-11.1197;-0.4274;-3.3314;
259529300851141;-10.4204;1.0531;-3.6093;
259529305905984;-9.4837;0.7561;-4.2443;
259529310960828;-10.4731;-0.5399;-2.3542;
259529316015620;-8.5184;1.8389;-4.4429;
259529321080672;-8.4607;-0.3891;-3.9254;
259529326135516;-8.2095;0.4205;-3.1325;
259529331190307;-6.7193;2.1957;-7.8278;
259529336245203;-9.5988;-1.1339;-4.5724;
259529341299995;-9.8264;1.5849;-3.8201;
259529346354838;-10.0732;0.7466;-4.7498;
259529351408953;-11.1966;-0.8707;-1.4462;
259529356463797;-8.9183;2.1263;-4.8646;
259529361518588;-10.6768;-0.4490;-2.5481;
259529366573432;-8.4583;0.0613;-0.1959;
259529371628276;-6.1181;0.9835;-6.1128;
259529376683120;-7.6609;-0.9042;-0.8378;
259529381734734;-6.4080;1.7453;-7.1258;
259529386789578;-8.8490;-1.3041;-6.8216;
259529391844370;-11.5534;-0.0440;-2.1721;
259529396899213;-9.4525;1.1608;-7.7417;
259529401954057;-11.5606;-1.9101;-1.7575;
259529407008849;-8.6931;0.6960;-1.8105;
259529412056818;-8.1398;0.2363;-5.9593;
259529417111609;-8.5639;-0.7364;-2.3013;
259529422166453;-7.9122;0.4684;-7.4973;
259529427221297;-11.4362;0.1259;-2.4141;
259529432276141;-8.4634;0.4205;-2.1553;
259529437330932;-8.5902;-0.4729;-5.2621;
259529442387130;-10.3439;0.5405;-0.3993;
259529447441922;-7.6609;0.4397;-5.6097;
259529452496766;-10.6050;-1.3400;-3.5040;
259529457551609;-7.9819;-0.7388;-2.8765;
259529462606453;-9.1699;-0.4370;-7.0229;
259529467661245;-10.2168;-0.9664;0.9159;
259529472712651;-7.8978;-0.1687;-6.1582;
259529477767443;-11.5104;-1.1725;-3.2764;
259529482822286;-10.0490;-0.7675;0.2785;
259529487877130;-8.9495;0.0733;-4.5580;
259529492931922;-9.0838;-1.1844;0.5874;
259529497986766;-7.3875;0.3990;-7.6672;
259529503039838;-10.5951;0.3440;-5.2095;
259529508094682;-8.6046;-0.8082;-2.3228;
259529513149526;-8.9806;0.6817;-10.4007;
259529518204370;-10.4731;-0.4777;-1.4318;
259529523259213;-9.2369;0.5620;-3.9111;
259529528314005;-11.6013;1.0149;-1.7599;
259529533373172;-8.3100;-0.6909;-0.5503;
259529538427963;-7.6032;1.0220;-7.5715;
259529543482807;-9.1962;0.5812;0.1301;
259529548537651;-7.1937;0.1522;-4.8957;
259529553592495;-8.5232;0.9595;-5.1520;
259529558647286;-7.7518;0.0422;-4.8144;
259529563715672;-9.1747;0.8495;-6.7905;
259529568770463;-9.1101;-0.0368;-0.7083;
259529573825307;-8.5184;-0.7866;-5.9785;
259529578880151;-9.8025;0.4711;-1.9540;
259529583934943;-8.1781;-0.7819;-2.5648;
259529588989786;-9.5605;0.4229;-5.2047;
259529594044734;-8.7987;0.2195;-3.8728;
259529599099578;-9.2707;-0.2620;-7.0732;
259529604154370;-12.0661;1.3406;-1.0750;
259529609209213;-10.4037;-0.5088;-1.4438;
259529614264057;-9.8551;0.9093;-3.7460;
259529619318849;-8.4802;0.2100;-2.0764;
259529624373588;-8.2956;-0.8273;-3.2501;
259529629428380;-9.9006;0.3105;-1.9851;
259529634483224;-8.5352;-1.6155;-2.4787;
259529639538068;-9.6060;0.1714;-3.4107;
259529644592911;-8.9255;-0.2859;-2.2463;
259529649647755;-8.0225;-0.8827;-4.4189;
259529654690724;-9.6538;0.3727;-4.0310;
259529659745568;-8.9758;-1.1291;-3.5255;
259529664800359;-8.7051;1.1919;-4.0454;
259529669855203;-8.4248;-0.9616;-4.9053;
259529674909995;-10.1067;1.0101;-6.8504;
259529679964838;-12.2722;0.7944;-5.5834;
259529685032651;-10.4707;-1.5652;-0.7612;
259529690087495;-7.3756;1.8197;-5.4826;
259529695142286;-6.7672;-1.5150;-2.1888;
259529700197130;-8.2573;0.8638;-1.9564;
259529705251974;-9.8121;-0.0730;-4.2586;
259529710306818;-10.3125;-0.9018;-2.1290;
259529715348068;-9.3592;1.2832;-8.1224;
259529720402859;-9.6562;-1.5939;-1.5227;
259529725457703;-8.1541;1.3789;-3.2405;
259529730512547;-8.0584;-0.8656;-5.1281;
259529735567391;-7.3612;-0.6550;-0.9072;
259529740622182;-7.4501;0.8782;-8.0530;
259529745675411;-9.9245;-2.4347;0.6260;
259529750730255;-9.4430;1.5897;-5.2430;
259529755785099;-10.3822;-1.4384;-5.0133;
259529760839943;-10.4946;0.3344;-0.0951;
259529765894786;-8.8131;1.3765;-8.4577;
259529770949578;-8.7317;-1.8239;0.4750;
259529775996036;-7.5003;1.4889;-6.7977;
259529781050880;-9.4932;-0.9377;-2.8451;
259529786105724;-9.3736;0.5189;-1.5470;
259529791160568;-9.9604;-0.1137;-7.3391;
259529796215411;-9.9437;-1.3256;0.5803;
259529801270203;-8.8083;1.0651;-8.9178;
259529806347130;-9.3568;-1.6756;-0.3945;
259529811401922;-8.0560;1.1728;-4.3878;
259529816456766;-8.9231;-0.4513;-5.7963;
259529821511609;-8.8561;-0.5255;0.3960;
259529826566453;-8.9973;0.3153;-8.2998;
259529831621245;-11.1341;-1.3783;0.4415;
259529836679734;-9.3520;1.1704;-5.8134;
259529841734526;-9.6156;-0.9257;-2.8187;
259529846789370;-9.3760;-0.2046;-2.3686;
259529851844161;-11.4362;0.5261;-8.1535;
259529856899005;-10.1402;-1.4838;4.0872;
259529861953849;-6.8895;0.8830;-6.4002;
259529867053172;-7.6848;-1.0143;-1.7527;
259529872108016;-8.6213;-0.0730;-3.7938;
259529877162807;-11.9127;0.7247;-4.7856;
259529882217651;-10.0657;-1.4480;2.2187;
259529887272495;-9.1077;1.4746;-9.5839;
259529892327338;-8.1999;-0.7962;0.3505;
259529897341818;-7.3875;0.5142;-4.2514;
259529902396661;-8.6094;0.7753;-4.1841;
259529907451453;-5.7826;-1.2132;-2.9076;
259529912506297;-8.0536;1.4267;-9.5958;
259529917561141;-10.0828;-1.5245;0.1851;
259529922615984;-10.7653;1.7716;-7.9884;
259529927653380;-9.3808;0.4229;-3.7316;
259529932708224;-8.3722;0.0111;-4.6777;
259529937763016;-9.8384;2.8208;-7.4495;
259529942817859;-8.1446;-1.5772;-0.1693;
259529947872703;-10.7222;2.4855;-7.2817;
259529952927547;-9.6515;-0.4131;-1.8392;
259529957981661;-10.5377;1.1225;-3.6428;
259529963036557;-8.5687;0.6362;-1.7767;
259529968091349;-7.8021;-0.7819;-3.1038;
259529973146193;-9.2683;1.9155;-6.4122;
259529978200984;-7.9795;-2.0324;-0.7971;
259529983255828;-10.1785;1.6567;-4.8455;
259529988313797;-8.0082;-1.3041;-2.3710;
259529993368588;-9.7807;0.9452;-4.3400;
259529998423432;-8.9423;0.3368;-1.7312;
259530003478276;-7.2966;-0.3461;-2.4236;
259530008533120;-7.1722;2.0928;-9.2578;
259530013587911;-8.3937;-1.2084;-6.4146;
259530018647547;-12.7561;2.1981;-5.6743;
259530023702338;-10.0732;-1.1821;-0.6676;
259530028757182;-8.0967;1.7501;-3.5734;
259530033812026;-7.0331;0.4831;-5.5161;
259530038866818;-10.3125;-0.4753;-0.9072;
259530043921661;-11.7188;1.1871;-3.5351;
259530048971818;-10.3316;-1.4886;-1.3911;
259530054026609;-10.0947;2.4616;-7.1596;
259530059081453;-8.9447;-1.9029;-0.3467;
259530064136297;-9.1053;1.5296;-0.5623;
259530069191088;-6.5850;-1.0406;-5.3007;
259530074245932;-6.8895;-0.0081;-2.8283;
259530079337963;-8.1494;0.4684;-6.2515;
259530084392755;-10.8156;-2.0659;0.4295;
259530089447599;-11.1416;1.9872;-8.0435;
259530094502443;-10.0756;-1.9965;-3.8177;
259530099557286;-10.1569;1.9466;-2.9841;
259530104612078;-7.4979;-1.4647;-3.5806;
259530109642859;-8.4392;0.6577;-1.3050;
259530114697651;-8.2119;0.5788;-9.5118;
259530119752495;-9.5749;-1.5078;1.1169;
259530124807338;-8.6453;1.2254;-7.9427;
259530129862182;-8.5448;-1.8048;-4.2586;
259530134916974;-8.7485;1.3310;-5.6719;
259530139920880;-8.5232;-1.5173;-3.7244;
259530144975724;-8.7437;0.3894;0.0772;
259530150030568;-6.9135;-0.5399;-8.1751;
259530155085359;-9.5940;-0.5112;-0.7178;
259530160140203;-11.2301;0.7008;-6.0455;
259530165195047;-12.1283;-0.6670;-1.2329;
259530170293276;-11.2325;0.8925;-5.9617;
259530175348068;-10.2024;0.6769;-4.0334;
259530180402911;-10.3726;0.9691;0.2234;
259530185457755;-10.0059;-0.1232;-1.3409;
259530190512547;-7.1267;0.4038;2.3841;
259530195567391;-6.8680;0.5070;-6.0646;
259530200618484;-9.3305;-0.5638;0.2665;
259530205673276;-11.1559;-0.6168;-4.1794;
259530210728120;-10.0828;0.3846;-1.9277;
259530215782963;-7.9508;-0.6909;-6.9751;
259530220837755;-9.5821;-0.1400;-3.9015;
259530225892599;-8.5376;-0.2692;-3.0966;
259530230947338;-7.5577;-0.1567;-5.6121;
259530236002130;-5.2558;-0.1089;-5.6288;
259530241056974;-6.5563;0.5357;-9.2004;
259530246111818;-9.1364;-0.6168;-2.9985;
259530251166609;-10.7175;0.8471;-8.4506;
259530256221505;-10.0537;0.4540;-4.3783;
259530261274161;-10.1163;-0.1519;-5.2863;
259530266329057;-11.1365;1.1895;-2.8837;
259530271383849;-9.1675;-0.4753;-2.5552;
259530276438693;-9.1268;1.0340;-4.3328;
259530281493484;-7.8117;-1.8072;-2.0378;
259530286548380;-9.5629;1.3382;-3.9326;
259530291600828;-8.0776;-1.6705;-1.6594;
259530296655724;-10.0035;0.2267;-2.6321;
259530301710516;-8.2525;-1.2395;-1.3313;
259530306765411;-8.5854;0.0661;-2.4882;
259530311820203;-7.4285;-0.9138;-2.8379;
259530316875047;-9.0670;-0.6718;-2.8020;
259530321930203;-10.1593;-0.3915;-5.3773;
259530326985047;-10.5425;-1.3256;-2.9387;
259530332039891;-10.2981;0.8901;-5.8301;
259530337094734;-9.3736;-1.1940;-3.8441;
259530342149578;-10.9905;1.9490;-4.4429;
259530347204422;-8.1781;-2.1257;0.0437;
259530352275463;-8.3219;2.2172;-4.5963;
259530357330255;-7.4381;-1.2634;-4.4910;
259530362385099;-10.7605;1.4171;-3.4202;
259530367439943;-11.1317;0.1905;-5.4179;
259530372494786;-12.1618;0.0709;-2.1888;
259530377549630;-10.6170;1.0220;-5.5280;
259530382604213;-8.9255;-0.4178;-1.1085;
259530387659057;-6.8438;1.2111;-2.6967;
259530392713849;-4.0125;-0.8970;-3.1352;
259530397768693;-5.6653;1.8915;-7.6624;
259530402823536;-9.8216;-1.9989;-6.3739;
259530407878380;-14.2316;2.0542;-3.9425;
259530412918328;-11.8959;-1.0286;-2.4547;
259530417973172;-9.5725;1.4889;-0.8043;
259530423028016;-5.3252;-1.0071;-3.8441;
259530428082859;-7.0522;1.4602;-2.7446;
259530433137703;-6.7768;-1.3807;-5.8828;
259530438192547;-8.6381;-0.3508;-2.7039;
259530443253380;-7.1435;-0.0153;-7.4686;
259530448308172;-7.7590;-1.0573;-2.0740;
259530453363016;-9.1316;0.7343;-5.0539;
259530458417859;-10.8586;-0.5973;-2.9411;
259530463472703;-9.5892;0.8303;-2.5935;
259530468527547;-7.8667;-1.3256;-3.4274;
259530473578328;-8.4945;1.4339;-6.1798;
259530478633172;-10.5162;-1.1052;-6.6470;
259530483688016;-13.5464;1.6256;-0.8880;
259530488742859;-12.4397;-0.7484;-2.2032;
259530493797703;-11.9919;2.1622;-0.3371;
259530498852495;-9.0838;-0.4394;-1.8272;
259530503905516;-7.2129;1.4315;3.9102;
259530508960359;-5.8164;-0.0129;-7.0469;
259530514015203;-9.3257;0.1570;-2.8546;
259530519070047;-11.2564;0.3942;-6.5605;
259530524124891;-11.9943;-0.0272;-0.6867;
259530529179734;-8.5400;0.5548;-5.5065;
259530534236245;-7.5625;0.3224;-4.6226;
259530539291088;-5.6605;0.4014;-2.8020;
259530544345932;-5.7634;0.2124;-6.8456;
259530549400776;-5.4425;0.1714;-6.4648;
259530554455620;-8.7099;0.1451;-10.5730;
259530559510463;-11.9342;0.2363;-2.0330;
259530564565620;-12.9476;0.2698;-3.7819;
259530569620463;-10.7103;0.7968;-1.2858;
259530574675307;-10.9403;0.5955;-5.1688;
259530579730151;-9.3832;-0.6144;0.1373;
259530584784995;-9.4956;-1.0980;-1.3839;
259530589839786;-8.2430;-0.3820;-2.9913;
259530594911818;-9.0359;-1.2610;-2.0883;
259530599966609;-9.3688;-1.3089;1.3636;
259530605021453;-9.0694;-1.4527;-0.1765;
259530610076297;-7.9193;-0.7460;-1.7503;
259530615131141;-7.0834;-1.8837;-2.1458;
259530620185984;-6.7361;-0.3242;-2.9172;
259530625240463;-7.4692;-2.3462;-6.5486;
259530630295255;-11.7739;0.5740;-8.9680;
259530635350099;-12.5524;-0.8680;-4.5939;
259530640404943;-12.6649;-0.0153;0.6739;
259530645459786;-9.7639;-0.2644;-2.4212;
259530650514630;-7.6391;1.1776;-2.9578;
259530655553120;-5.0976;-0.7316;-3.1831;
259530660607963;-7.7447;1.6017;-6.5462;
259530665662807;-10.3726;-1.2443;-7.3295;
259530670717651;-14.9384;1.3956;-3.5997;
259530675772495;-12.5381;-0.4035;-0.2701;
259530680827286;-11.8696;1.7118;-2.1362;
259530685881661;-7.5649;-0.1567;-4.5987;
259530690936505;-6.7122;0.6099;-0.0305;
259530695991349;-4.8891;-0.5638;-4.1148;
259530701046193;-8.3219;0.5955;-6.6398;
259530706101036;-9.9939;-0.8106;-4.2491;
259530711155828;-12.8710;0.0948;0.9039;
259530716209734;-8.9901;0.6840;-2.8813;
259530721264526;-7.1315;0.0685;-4.6274;
259530726319370;-7.1339;0.2961;-6.4624;
259530731374213;-8.7915;-1.2395;-1.8918;
259530736429057;-9.0550;0.9236;-6.8480;
259530741483849;-8.4416;-1.3663;-5.8205;
259530746543484;-9.6156;0.7175;-4.0693;
259530751598276;-9.4741;-1.5891;-2.0043;
259530756653120;-8.5807;1.4219;-1.7073;
259530761707963;-5.9647;-0.2477;-6.2396;
259530766762807;-6.4702;1.3334;-5.1209;
259530771817599;-8.8179;-0.2166;-8.4553;
259530776892495;-12.3535;1.8867;-5.0755;
259530781947286;-11.9441;-0.6239;-4.1507;
259530787002078;-9.1914;2.1526;2.0800;
259530792056922;-6.1014;-0.6814;-2.8140;
259530797111766;-6.6763;1.5682;-1.0534;
259530802166609;-6.5133;-0.8058;-6.2133;
259530807194109;-6.5850;1.2637;-4.1483;
259530812248901;-8.9040;-0.8850;-10.2377;
259530817303745;-13.6663;0.6529;-2.0668;
259530822358588;-14.2866;-0.1639;-2.1960;
259530827413432;-11.6109;1.3047;1.1841;
259530832468276;-9.6132;0.2913;-7.7800;
259530837545099;-9.9461;1.3717;-2.0378;
259530842599891;-11.1942;-0.1065;-4.0502;
259530847654682;-9.3903;2.1024;0.4439;
259530852709526;-9.8791;-0.6191;-6.8719;
259530857764370;-12.0374;1.5610;2.5519;
259530862819213;-12.0805;0.5788;-1.6881;
259530867878901;-9.4047;1.0771;0.1516;
259530872933693;-9.5605;0.4902;-7.4061;
259530877988536;-10.1091;0.3535;-1.9899;
259530883043380;-10.2957;-0.9449;-1.5876;
259530888098224;-10.2000;-0.2931;-1.0008;
259530893153068;-10.4563;-1.0621;-3.8177;
259530898212547;-8.8322;-0.3290;1.6606;
259530903267338;-9.0048;-1.6633;-3.3434;
259530908322182;-7.2607;0.0685;-4.4453;
259530913377026;-6.4152;-1.1773;-9.4567;
259530918431870;-7.6152;-0.6455;-3.8632;
259530923486713;-10.2407;-0.9185;-6.5844;
259530928511922;-9.7950;-1.4073;-1.6690;
259530933566766;-8.8035;-1.6466;-1.5517;
259530938621609;-5.2558;-1.2491;-1.3600;
259530943676453;-6.6906;-1.6561;-6.7044;
259530948731297;-6.9135;-0.1232;-5.1449;
259530953786088;-6.9206;-2.5810;-5.6839;
259530958845203;-8.0919;-1.2443;-4.7183;
259530963900047;-9.7735;-1.5341;-5.8851;
259530968954891;-8.9734;-1.9534;-0.0520;
259530974009734;-9.0287;-1.2969;-3.5638;
259530979064578;-7.4213;-1.3974;-6.7451;
259530984119370;-7.7088;-1.5604;-6.3353;
259530989181401;-7.4261;-0.8345;-6.0718;
259530994236193;-7.9316;-2.0827;-4.5796;
259530999291036;-9.1412;-1.1052;-6.3906;
259531004345880;-12.6194;-0.4513;-5.3198;
259531009400724;-12.5333;-0.7220;-3.0870;
259531014455516;-12.5955;-0.3724;-5.4275;
259531019510776;-11.6949;0.3559;-4.8503;
259531024565568;-10.6696;-0.1567;-1.7671;
259531029620411;-7.9265;0.2435;2.8202;
259531034675255;-6.6260;-0.0921;-1.1204;
259531039730099;-9.0742;1.2760;-4.8622;
259531044784891;-12.4110;0.6075;-2.2989;
259531049842963;-14.7467;0.2339;-3.8728;
259531054897755;-14.2795;0.7561;-3.1926;
259531059952599;-10.2670;1.5320;-4.0837;
259531065007443;-9.4884;0.1475;-0.5025;
259531070062286;-9.9174;0.2770;0.9398;
259531075117078;-9.8240;-0.0224;1.0307;
259531080188849;-6.2737;-0.5566;-2.4117;
259531085243693;-7.9579;0.1834;-2.4188;
259531090298484;-8.4320;0.3679;-5.9641;
259531095353328;-8.7099;-1.2658;-1.6810;
259531100408172;-8.0393;-0.4011;-4.3017;
259531105463016;-8.1805;-1.6035;-2.4906;
259531110507651;-7.6487;-0.9951;-4.1770;
259531115562443;-5.2364;-0.8154;-1.1611;
259531120617286;-5.8834;-1.5269;-6.4241;
259531125672130;-8.3028;-0.8273;-7.3893;
259531130726974;-9.2898;-1.6633;-3.5782;
259531135781818;-8.7652;-0.6646;-1.7551;
259531140837026;-10.5114;-0.5160;-8.1392;
259531145891818;-13.4028;0.3392;-3.2477;
259531150946661;-12.3177;-1.6202;-1.5374;
259531156001505;-10.6816;0.2674;0.5515;
259531161056349;-6.7122;0.0900;-8.0889;
259531166111193;-5.5481;-0.1352;-1.6068;
259531171158068;-8.4416;-0.8201;-3.9182;
259531176212911;-10.6840;0.2195;-0.6796;
259531181267703;-9.2731;-0.8034;-6.8145;
259531186322547;-7.3325;0.7705;-2.7422;
259531191377391;-7.9265;-0.0416;-5.2334;
259531196432234;-9.1292;0.8925;-5.4634;
259531201510463;-10.8781;0.1929;-6.5007;
259531206565307;-10.4157;1.5443;-2.7829;
259531211620099;-10.8733;0.6769;-6.9177;
259531216674943;-10.5688;2.1957;-0.6891;
259531221729786;-12.1092;1.2470;-4.7450;
259531226784630;-10.6528;1.5586;1.1794;
259531231817807;-8.8729;0.6936;-3.8010;
259531236872651;-5.7826;0.9165;-0.9191;
259531241927443;-8.6931;1.5993;-7.4638;
259531246982286;-10.2359;-0.0655;2.7987;
259531252037130;-13.4818;0.6769;-2.2439;
259531257091922;-12.0326;1.0172;-1.0175;
259531262135932;-10.1091;1.1847;-3.8082;
259531267190776;-5.9647;-0.8058;1.1626;
259531272245620;-4.4749;-1.0860;-0.3467;
259531277300463;-4.5395;-0.0057;-3.0248;
259531282355307;-7.7375;-0.5160;-8.2014;
259531287410099;-10.9283;-1.6178;-3.9951;
259531292469995;-13.0388;0.9978;-7.9621;
259531297524838;-10.4827;-1.1653;-5.5857;
259531302579682;-9.4358;0.2698;-4.6059;
259531307634526;-8.6716;0.3296;-2.8594;
259531312689422;-7.7925;-0.6383;-3.3003;
259531317744266;-7.1650;-0.2333;-4.3735;
259531322802703;-6.1493;-0.1831;-4.8383;
259531327857599;-10.6576;0.2626;-7.9451;
259531332912391;-11.9752;0.8183;-3.9254;
259531337967286;-13.0268;0.2818;-1.3792;
259531343022130;-10.2933;-0.2429;1.0738;
259531348076974;-8.6931;0.6170;-0.7708;
259531353145776;-4.7599;0.1857;0.0173;
259531358200620;-5.7730;-0.5853;-3.4705;
259531363255463;-10.6074;-0.7244;-7.2888;
259531368310307;-13.9322;1.1656;-2.2367;
259531373365151;-9.3879;-1.5006;-0.5432;
259531378419995;-10.4683;0.7247;-2.7182;
259531383476713;-8.5759;0.8160;-5.7963;
259531388531557;-10.5138;0.7896;-1.4581;
259531393586401;-9.0790;-0.4059;-2.8717;
259531398641245;-7.7279;0.8901;-2.4284;
259531403696088;-6.1756;0.9787;-6.9918;
259531408750932;-8.4993;0.4205;-2.9626;
259531413788120;-10.7151;-0.3338;-4.5867;
259531418842963;-10.0899;1.6759;-4.4719;
259531423897807;-9.3114;-1.2084;-5.2887;
259531428952703;-11.4721;0.6434;-0.1935;
259531434007547;-7.8715;0.5070;-1.8846;
259531439062391;-5.0163;-0.1998;-4.7761;
259531444120255;-9.1986;-1.1028;-7.0899;
259531449175151;-15.0532;1.4722;-2.5887;
259531454229943;-14.0303;-1.0836;0.2354;
259531459284786;-10.3316;0.1546;-1.3002;
259531464339682;-8.8226;1.6184;-7.1282;
259531469394526;-6.8704;1.5658;-2.7900;
259531474445620;-7.4501;-1.2610;0.2713;
259531479500516;-6.1373;-0.0921;-0.4618;
259531484555359;-6.6236;0.3846;-5.1760;
259531489610203;-8.4778;-0.5375;-4.8550;
259531494665047;-9.9389;0.4516;-2.5696;
259531499719891;-7.6463;-0.3532;-7.2290;
259531504776141;-10.1306;0.5883;-7.9813;
259531509830984;-11.6611;-1.5437;-3.2907;
259531514885828;-9.7735;0.3488;5.9752;
259531519940672;-5.5792;-0.8707;-6.2946;
259531524995568;-9.8982;0.3679;-8.3309;
259531530050411;-13.9274;-0.1065;-5.3342;
259531535106661;-12.8160;0.5118;2.4392;
259531540161505;-10.7533;-0.3939;-5.7772;
259531545216349;-6.5563;0.5285;-0.2629;
259531550271193;-6.8533;-0.0921;-0.4472;
259531555326088;-6.6500;0.6505;-1.1300;
259531560380932;-8.4177;-0.9401;-10.3573;
259531565442651;-8.7437;-0.6718;-4.4982;
259531570497495;-8.6046;-1.6418;-4.7761;
259531575552286;-8.0513;-2.1975;-1.5494;
259531580607130;-7.7183;-0.8850;-4.7231;
259531585662026;-8.2478;-0.3508;-5.4347;
259531590716870;-8.6333;-1.9845;-1.4629;
