Sensor: bmi160 Accelerometer Non-wakeup
Vendor: BOSCH
TimestampAcc [ns]; AccX [m/s^2]; AccY [m/s^2]; AccZ [m/s^2]
4050817686426839;-9.3951;1.2541;-2.3925;
4050817696571735;-9.4047;1.2685;-2.4260;
4050817706674599;-9.3855;1.2230;-2.4404;
4050817716800276;-9.3879;1.2736;-2.4380;
4050817726903141;-9.4190;1.2903;-2.5002;
4050817737021006;-9.3855;1.2784;-2.4380;
4050817747115381;-9.4047;1.3478;-2.3997;
4050817757213401;-9.3951;1.4028;-2.3710;
4050817767334651;-9.3736;1.3693;-2.4021;
4050817777436422;-9.3855;1.3430;-2.4523;
4050817787533558;-9.3808;1.3262;-2.4212;
4050817797646474;-9.3855;1.2951;-2.3877;
4050817807751422;-9.4382;1.2159;-2.4236;
4050817817835589;-9.4262;1.1847;-2.4021;
4050817827957724;-9.4190;1.1656;-2.4332;
4050817838059078;-9.4262;1.1345;-2.4165;
4050817848171474;-9.4454;1.1297;-2.3997;
4050817858272516;-9.4478;1.1225;-2.3734;
4050817868386370;-9.4334;1.1560;-2.3662;
4050817878477724;-9.4334;1.1800;-2.3997;
4050817888588662;-9.4023;1.1991;-2.3518;
4050817898696474;-9.4071;1.2326;-2.3471;
4050817908796578;-9.4214;1.2470;-2.3566;
4050817918910641;-9.4214;1.2613;-2.3662;
4050817929011474;-9.4190;1.2565;-2.3734;
4050817939111578;-9.4095;1.2541;-2.4165;
4050817949212516;-9.4214;1.2589;-2.4500;
4050817959310433;-9.4047;1.2446;-2.4428;
4050817969424912;-9.4119;1.2517;-2.4428;
4050817979529808;-9.4119;1.2326;-2.4667;
4050817989633245;-9.4071;1.2494;-2.4500;
4050817999739703;-9.3999;1.2784;-2.4667;
4050818009843558;-9.3760;1.3095;-2.4500;
4050818019949287;-9.3760;1.3190;-2.4547;
4050818030054912;-9.3879;1.3286;-2.4523;
4050818040159495;-9.3927;1.3358;-2.4428;
4050818050264443;-9.3832;1.3334;-2.4356;
4050818060367151;-9.3879;1.3334;-2.4045;
4050818070490901;-9.4190;1.3047;-2.4260;
4050818080588453;-9.3975;1.2784;-2.4332;
4050818090692047;-9.4262;1.2565;-2.3997;
4050818100795224;-9.4023;1.2302;-2.3782;
4050818110902203;-9.4190;1.1967;-2.3830;
4050818121004131;-9.4238;1.1776;-2.4069;
4050818131106683;-9.4286;1.1680;-2.3877;
4050818141215120;-9.4358;1.1465;-2.3973;
4050818151326631;-9.4334;1.1752;-2.4117;
4050818161416891;-9.4047;1.1847;-2.3806;
4050818171530328;-9.4286;1.2039;-2.3853;
4050818181638662;-9.4047;1.2470;-2.3901;
4050818191737828;-9.4190;1.2565;-2.3853;
4050818201843558;-9.4071;1.2736;-2.4188;
4050818211942672;-9.4190;1.2903;-2.3973;
4050818222047776;-9.4238;1.2927;-2.3949;
4050818232152881;-9.4119;1.2927;-2.4141;
4050818242279287;-9.4143;1.2832;-2.4452;
4050818252364026;-9.3975;1.2927;-2.4691;
4050818262471058;-9.3832;1.2879;-2.4476;
4050818272574443;-9.3927;1.2855;-2.4643;
4050818282678401;-9.3999;1.2760;-2.4595;
4050818292777776;-9.3999;1.2832;-2.4404;
4050818302888922;-9.4047;1.2808;-2.4476;
4050818313010953;-9.3927;1.2903;-2.4404;
4050818323080068;-9.4071;1.3023;-2.4212;
4050818333202360;-9.4095;1.2832;-2.4069;
4050818343302151;-9.3951;1.2832;-2.4236;
4050818353407151;-9.3879;1.2808;-2.4117;
4050818363514808;-9.4047;1.2709;-2.3806;
4050818373636422;-9.4095;1.2494;-2.3853;
4050818383788714;-9.3975;1.2230;-2.4045;
4050818393848558;-9.4071;1.2206;-2.3782;
4050818403940172;-9.4214;1.2159;-2.3901;
4050818414042672;-9.4238;1.1991;-2.4141;
4050818424182568;-9.4143;1.1967;-2.3973;
4050818434267464;-9.4190;1.2087;-2.3710;
4050818444410589;-9.4167;1.1967;-2.4045;
4050818454452047;-9.4023;1.2182;-2.4260;
4050818464561839;-9.3879;1.2326;-2.3949;
4050818474674339;-9.4047;1.2541;-2.4236;
4050818484803922;-9.3951;1.2855;-2.4260;
4050818494888453;-9.3784;1.2999;-2.4380;
4050818504982360;-9.3927;1.2927;-2.4356;
4050818515083714;-9.3760;1.3190;-2.4404;
4050818525228922;-9.3927;1.2951;-2.4547;
4050818535305745;-9.4190;1.2832;-2.4380;
4050818545417308;-9.3951;1.2927;-2.4284;
4050818555505068;-9.4047;1.2855;-2.4452;
4050818565633558;-9.4167;1.2685;-2.4691;
4050818575738141;-9.4023;1.2494;-2.4332;
4050818585842047;-9.3808;1.2589;-2.4308;
4050818595943558;-9.4047;1.2565;-2.4165;
4050818606032933;-9.4119;1.2422;-2.4308;
4050818616138401;-9.4167;1.2517;-2.3997;
4050818626248506;-9.4262;1.2541;-2.3853;
4050818636363766;-9.4214;1.2446;-2.3877;
4050818646470120;-9.4310;1.2565;-2.4165;
4050818656576995;-9.4047;1.2661;-2.3925;
4050818666668245;-9.4095;1.2374;-2.3949;
4050818676786578;-9.4143;1.2254;-2.3782;
4050818686888766;-9.4143;1.2350;-2.4045;
4050818696990120;-9.4238;1.2446;-2.3901;
4050818707096891;-9.4262;1.2254;-2.4069;
4050818717198870;-9.3975;1.2350;-2.4212;
4050818727308662;-9.4119;1.2374;-2.4188;
4050818737416162;-9.4023;1.2470;-2.4380;
4050818747516266;-9.3951;1.2784;-2.4117;
4050818757623662;-9.4095;1.2709;-2.4260;
4050818767741266;-9.4262;1.2832;-2.4308;
4050818777834703;-9.4023;1.2879;-2.4117;
4050818787936839;-9.3784;1.2832;-2.4188;
4050818798041370;-9.3832;1.2927;-2.4260;
4050818808146995;-9.3999;1.2832;-2.4260;
4050818818265276;-9.4238;1.2832;-2.4212;
4050818828370016;-9.3951;1.2832;-2.4236;
4050818838474703;-9.4023;1.2879;-2.4188;
4050818848577256;-9.4095;1.2565;-2.4260;
4050818858681995;-9.4047;1.2350;-2.4165;
4050818868786683;-9.4047;1.2446;-2.4165;
4050818878886578;-9.4071;1.2398;-2.4260;
4050818888991318;-9.4119;1.2350;-2.4021;
4050818899096006;-9.4119;1.2326;-2.4165;
4050818909208922;-9.4167;1.2422;-2.3901;
4050818919313662;-9.4119;1.2494;-2.4069;
4050818929418349;-9.4095;1.2470;-2.4284;
4050818939509756;-9.4023;1.2517;-2.3782;
4050818949614495;-9.3951;1.2494;-2.4093;
4050818959719183;-9.4071;1.2517;-2.4021;
4050818969838245;-9.4047;1.2709;-2.4093;
4050818979942985;-9.4071;1.2541;-2.4021;
4050818990047672;-9.3903;1.2613;-2.4452;
4050819000147568;-9.4119;1.2855;-2.4356;
4050819010252308;-9.3903;1.2613;-2.4093;
4050819020356995;-9.4047;1.2685;-2.3901;
4050819030466735;-9.3951;1.2736;-2.4284;
4050819040571474;-9.3951;1.2832;-2.4188;
4050819050676162;-9.4047;1.2709;-2.4380;
4050819060732828;-9.3999;1.2879;-2.4141;
4050819070837516;-9.4023;1.2736;-2.4260;
4050819080942203;-9.3951;1.2784;-2.4380;
4050819091097151;-9.3903;1.2736;-2.4093;
4050819101201891;-9.3927;1.2736;-2.4212;
4050819111306578;-9.4119;1.2517;-2.3997;
4050819121401839;-9.4047;1.2589;-2.3997;
4050819131506578;-9.4310;1.2589;-2.4021;
4050819141611266;-9.4095;1.2565;-2.4188;
4050819151717151;-9.4071;1.2374;-2.4093;
4050819161821891;-9.3927;1.2446;-2.4212;
4050819171926578;-9.3951;1.2374;-2.4117;
4050819182029964;-9.3544;1.2135;-2.4715;
4050819192134703;-9.4334;1.2832;-2.3662;
4050819202239391;-9.4119;1.2760;-2.4093;
4050819212340485;-9.4071;1.2589;-2.4021;
4050819222445224;-9.4023;1.2422;-2.4500;
4050819232549912;-9.4071;1.2709;-2.4763;
4050819242676891;-9.4286;1.2565;-2.4308;
4050819252781631;-9.3879;1.2470;-2.3877;
4050819262886370;-9.4167;1.2760;-2.3830;
4050819272987828;-9.3879;1.2661;-2.3997;
4050819283092568;-9.4119;1.2784;-2.4141;
4050819293197256;-9.3927;1.2661;-2.4045;
4050819303283922;-9.4047;1.2565;-2.4165;
4050819313388662;-9.4047;1.2350;-2.4117;
4050819323493349;-9.4190;1.2326;-2.3925;
4050819333625485;-9.4382;1.2206;-2.3758;
4050819343730172;-9.4238;1.2063;-2.3901;
4050819353834912;-9.3832;1.2446;-2.4619;
4050819363920381;-9.4023;1.2589;-2.4523;
4050819374025120;-9.3951;1.2541;-2.4595;
4050819384129756;-9.4119;1.2879;-2.4212;
4050819394256683;-9.4143;1.2975;-2.3662;
4050819404361422;-9.4167;1.2808;-2.3710;
4050819414466162;-9.4143;1.2709;-2.4188;
4050819424533506;-9.3879;1.2541;-2.4188;
4050819434638245;-9.3879;1.2879;-2.4284;
4050819444742933;-9.4334;1.2637;-2.4500;
4050819454888818;-9.4119;1.2398;-2.4165;
4050819464993506;-9.3927;1.2517;-2.4069;
4050819475098245;-9.4238;1.2159;-2.4188;
4050819485197047;-9.4071;1.2063;-2.4404;
4050819495301787;-9.3999;1.2230;-2.4308;
4050819505406474;-9.3951;1.2278;-2.4332;
4050819515506006;-9.4454;1.2422;-2.3734;
4050819525610745;-9.4190;1.2494;-2.4093;
4050819535715433;-9.4023;1.2685;-2.4069;
4050819545813297;-9.3927;1.2565;-2.4212;
4050819555918037;-9.3879;1.2760;-2.4356;
4050819566022724;-9.4071;1.2951;-2.4093;
4050819576134078;-9.4119;1.2879;-2.4117;
4050819586238818;-9.4095;1.2709;-2.4141;
4050819596343506;-9.3879;1.2661;-2.4069;
4050819606447360;-9.4023;1.2589;-2.4141;
4050819616552099;-9.4047;1.2637;-2.4284;
4050819626656787;-9.4214;1.2565;-2.4619;
4050819636761318;-9.4382;1.2494;-2.4236;
4050819646866058;-9.4334;1.2470;-2.4404;
4050819656970745;-9.4214;1.2589;-2.4165;
4050819667059964;-9.4143;1.2565;-2.4284;
4050819677164703;-9.3879;1.2517;-2.4332;
4050819687269391;-9.4167;1.2760;-2.4069;
4050819697388401;-9.4167;1.2637;-2.4093;
4050819707493141;-9.3999;1.2613;-2.4165;
4050819717597828;-9.4143;1.2808;-2.3949;
4050819727709443;-9.4071;1.2565;-2.3806;
4050819737814183;-9.3999;1.2685;-2.4021;
4050819747918870;-9.3975;1.2254;-2.4332;
4050819758019651;-9.4095;1.2350;-2.4284;
4050819768124339;-9.4190;1.2470;-2.4069;
4050819778229078;-9.4214;1.2517;-2.4165;
4050819788330589;-9.3999;1.2517;-2.4284;
4050819798435328;-9.4023;1.2494;-2.4141;
4050819808540016;-9.3951;1.2541;-2.3973;
4050819818664599;-9.4167;1.2589;-2.4308;
4050819828769599;-9.3951;1.2589;-2.4093;
4050819838874547;-9.4023;1.2685;-2.4188;
4050819848974183;-9.3999;1.2903;-2.4212;
4050819859079183;-9.3951;1.2784;-2.4069;
4050819869184183;-9.4047;1.2784;-2.4141;
4050819879289808;-9.3951;1.2589;-2.4236;
4050819889394808;-9.4190;1.2784;-2.4188;
4050819899499756;-9.4214;1.2784;-2.4236;
4050819909597099;-9.4047;1.2374;-2.4332;
4050819919702099;-9.3855;1.2541;-2.4212;
4050819929807047;-9.4095;1.2565;-2.4141;
4050819939894860;-9.4071;1.2398;-2.4093;
4050819949999808;-9.4214;1.2589;-2.4356;
4050819960104808;-9.3975;1.2398;-2.4045;
4050819970214287;-9.4023;1.2302;-2.4093;
4050819980319287;-9.4023;1.2494;-2.3997;
4050819990424287;-9.4190;1.2517;-2.4188;
4050820000548766;-9.4023;1.2517;-2.4188;
4050820010653766;-9.4047;1.2685;-2.4404;
4050820020758714;-9.4047;1.2709;-2.4236;
4050820030860328;-9.4143;1.2637;-2.4188;
4050820040965328;-9.4143;1.2470;-2.4188;
4050820051070276;-9.4262;1.2517;-2.4117;
4050820061142776;-9.4334;1.2637;-2.4236;
4050820071247724;-9.4190;1.2565;-2.4356;
4050820081352672;-9.3927;1.2637;-2.4212;
4050820091496058;-9.3855;1.2637;-2.4045;
4050820101601058;-9.3999;1.2637;-2.4141;
4050820111706006;-9.4262;1.2709;-2.4332;
4050820121798349;-9.4119;1.2589;-2.4284;
4050820131903349;-9.3999;1.2613;-2.4141;
4050820142008349;-9.3951;1.2661;-2.3973;
4050820152116110;-9.3903;1.2784;-2.3877;
4050820162221162;-9.4167;1.2541;-2.3949;
4050820172326058;-9.4190;1.2613;-2.4236;
4050820182429287;-9.4071;1.2541;-2.4452;
4050820192534287;-9.4214;1.2637;-2.4260;
4050820202639287;-9.3879;1.2446;-2.4212;
4050820212746891;-9.4071;1.2565;-2.4236;
4050820222851891;-9.3975;1.2517;-2.4404;
4050820232956891;-9.3879;1.2613;-2.4165;
4050820243077724;-9.4238;1.2565;-2.4212;
4050820253182724;-9.4143;1.2565;-2.4236;
4050820263287672;-9.3903;1.2398;-2.4141;
4050820273379599;-9.3999;1.2494;-2.4236;
4050820283484547;-9.4023;1.2494;-2.4188;
4050820293589547;-9.4071;1.2541;-2.4284;
4050820303705120;-9.4167;1.2589;-2.3853;
4050820313810172;-9.4238;1.2661;-2.4165;
4050820323915068;-9.4023;1.2637;-2.4308;
4050820334010381;-9.3808;1.2541;-2.4212;
4050820344115381;-9.4023;1.2517;-2.4045;
4050820354220381;-9.4095;1.2541;-2.4212;
4050820364322099;-9.4023;1.2350;-2.4356;
4050820374427047;-9.3927;1.2517;-2.3997;
4050820384532047;-9.4143;1.2517;-2.4188;
4050820394656370;-9.4238;1.2517;-2.4188;
4050820404761370;-9.4167;1.2541;-2.4093;
4050820414866318;-9.3927;1.2613;-2.4165;
4050820424945537;-9.4023;1.2541;-2.4117;
4050820435050537;-9.4095;1.2494;-2.4260;
4050820445155537;-9.4119;1.2541;-2.4141;
4050820455276058;-9.4262;1.2589;-2.4308;
4050820465381058;-9.4119;1.2470;-2.4069;
4050820475486058;-9.3999;1.2613;-2.4141;
4050820485583974;-9.3999;1.2541;-2.4332;
4050820495688974;-9.4143;1.2446;-2.4141;
4050820505793974;-9.4047;1.2613;-2.4117;
4050820515916162;-9.4023;1.2254;-2.4308;
4050820526021162;-9.4095;1.2302;-2.4188;
4050820536126110;-9.4071;1.2589;-2.4236;
4050820546214183;-9.4238;1.2709;-2.4188;
4050820556319183;-9.4071;1.2422;-2.4021;
4050820566424131;-9.4047;1.2613;-2.4069;
4050820576538141;-9.4047;1.2541;-2.3925;
4050820586643141;-9.4095;1.2637;-2.4236;
4050820596748089;-9.3903;1.2613;-2.4356;
4050820606817620;-9.4047;1.2736;-2.4332;
4050820616922620;-9.4167;1.2709;-2.4093;
4050820627027568;-9.3975;1.2736;-2.4236;
4050820637164391;-9.4119;1.2661;-2.4260;
4050820647269391;-9.4238;1.2661;-2.4404;
4050820657374339;-9.4047;1.2494;-2.4332;
4050820667491370;-9.3999;1.2398;-2.4069;
4050820677596370;-9.4167;1.2494;-2.4212;
4050820687701318;-9.4047;1.2589;-2.3997;
4050820697787828;-9.3975;1.2637;-2.4236;
4050820707892828;-9.3951;1.2541;-2.3949;
4050820717997828;-9.4262;1.2637;-2.4045;
4050820728110849;-9.4119;1.2685;-2.4165;
4050820738215849;-9.4167;1.2517;-2.4380;
4050820748320797;-9.4238;1.2326;-2.4236;
4050820758429183;-9.4238;1.2326;-2.4021;
4050820768534183;-9.4095;1.2613;-2.4165;
4050820778639131;-9.4143;1.2613;-2.4117;
4050820788747203;-9.4238;1.2446;-2.4380;
4050820798852203;-9.4262;1.2661;-2.4380;
4050820808957203;-9.3903;1.2637;-2.4093;
4050820819068870;-9.4143;1.2784;-2.4308;
4050820829173870;-9.4023;1.2565;-2.4212;
4050820839278818;-9.3975;1.2784;-2.4356;
4050820849374808;-9.4167;1.2613;-2.4284;
4050820859479808;-9.4143;1.2565;-2.4332;
4050820869584756;-9.3903;1.2613;-2.4332;
4050820879695641;-9.4047;1.2517;-2.4117;
4050820889800641;-9.4167;1.2613;-2.4045;
4050820899905589;-9.4119;1.2661;-2.4141;
4050820910010849;-9.4023;1.2613;-2.4021;
4050820920115849;-9.3999;1.2709;-2.3877;
4050820930220797;-9.3975;1.2589;-2.4236;
4050820940330745;-9.3879;1.2589;-2.4141;
4050820950435745;-9.3903;1.2613;-2.4284;
4050820960540693;-9.3999;1.2446;-2.4165;
4050820970639912;-9.4334;1.2565;-2.4212;
4050820980744912;-9.4071;1.2541;-2.4165;
4050820990849860;-9.4095;1.2685;-2.4284;
4050821000947933;-9.4167;1.2637;-2.4212;
4050821011052933;-9.4167;1.2541;-2.3949;
4050821021157881;-9.4119;1.2446;-2.4188;
4050821031258610;-9.4023;1.2470;-2.4571;
4050821041363610;-9.4071;1.2565;-2.4332;
4050821051468558;-9.4095;1.2589;-2.3973;
4050821061557464;-9.3951;1.2446;-2.4404;
4050821071662464;-9.4119;1.2661;-2.4404;
4050821081767412;-9.3975;1.2589;-2.4260;
4050821091899495;-9.3927;1.2517;-2.4212;
4050821102004495;-9.4095;1.2541;-2.4117;
4050821112109443;-9.4190;1.2565;-2.3997;
4050821122265068;-9.4119;1.2832;-2.3853;
4050821132370016;-9.3999;1.2736;-2.4236;
4050821142474964;-9.3927;1.2637;-2.4021;
4050821152522828;-9.4167;1.2685;-2.4188;
4050821162627828;-9.4262;1.2589;-2.4093;
4050821172732776;-9.4071;1.2398;-2.4069;
4050821182837308;-9.4238;1.2446;-2.4380;
4050821192942308;-9.4119;1.2494;-2.4188;
4050821203047308;-9.3975;1.2709;-2.4141;
4050821213148453;-9.4143;1.2494;-2.4260;
4050821223253453;-9.4382;1.2374;-2.4380;
4050821233358453;-9.3927;1.2661;-2.4165;
4050821243465641;-9.4167;1.2565;-2.4308;
4050821253570693;-9.4071;1.2470;-2.4093;
4050821263675641;-9.4023;1.2613;-2.4141;
4050821273829131;-9.4119;1.2350;-2.4284;
4050821283934078;-9.4095;1.2326;-2.4021;
4050821294039078;-9.3832;1.2446;-2.3973;
4050821304107985;-9.3999;1.2470;-2.4260;
4050821314212985;-9.4095;1.2422;-2.4308;
4050821324317933;-9.4143;1.2494;-2.4284;
4050821334444183;-9.4095;1.2613;-2.4260;
4050821344549183;-9.4143;1.2494;-2.4380;
4050821354654131;-9.4119;1.2470;-2.4332;
4050821364728870;-9.4071;1.2589;-2.4141;
4050821374833974;-9.4190;1.2589;-2.4188;
4050821384939078;-9.3975;1.2541;-2.4356;
4050821395030381;-9.3951;1.2541;-2.4141;
4050821405135433;-9.4238;1.2446;-2.3877;
4050821415240537;-9.4095;1.2398;-2.4284;
4050821425342828;-9.4167;1.2470;-2.4260;
4050821435447881;-9.4119;1.2541;-2.4260;
4050821445552985;-9.4143;1.2517;-2.4284;
4050821455688037;-9.3951;1.2541;-2.4236;
4050821465793141;-9.4238;1.2589;-2.4141;
4050821475898245;-9.4071;1.2517;-2.4236;
4050821485984547;-9.3927;1.2446;-2.4188;
4050821496089599;-9.3975;1.2565;-2.4332;
4050821506194703;-9.4143;1.2637;-2.4045;
4050821516297568;-9.3975;1.2398;-2.4069;
4050821526402620;-9.4095;1.2637;-2.4212;
4050821536507724;-9.4167;1.2398;-2.4404;
4050821546615485;-9.4214;1.2637;-2.4117;
4050821556720537;-9.4047;1.2589;-2.4212;
4050821566825641;-9.4119;1.2541;-2.4260;
4050821576931214;-9.3999;1.2613;-2.4643;
4050821587036266;-9.4095;1.2661;-2.4141;
4050821597141370;-9.4023;1.2541;-2.4500;
4050821607266370;-9.3903;1.2446;-2.4380;
4050821617371474;-9.4167;1.2541;-2.3973;
4050821627476578;-9.3903;1.2637;-2.4236;
4050821637563037;-9.4190;1.2661;-2.4404;
4050821647668089;-9.4238;1.2422;-2.4093;
4050821657773193;-9.4190;1.2589;-2.4260;
4050821667877568;-9.4047;1.2494;-2.4045;
4050821677982620;-9.4095;1.2517;-2.4093;
4050821688087724;-9.4382;1.2541;-2.4212;
4050821698198974;-9.3999;1.2517;-2.4093;
4050821708304078;-9.4119;1.2565;-2.4093;
4050821718409183;-9.4214;1.2760;-2.3973;
4050821728515537;-9.4238;1.2494;-2.4188;
4050821738620641;-9.4262;1.2446;-2.4356;
4050821748725745;-9.4071;1.2565;-2.4117;
4050821758837099;-9.4095;1.2709;-2.4093;
4050821768942203;-9.4190;1.2736;-2.4045;
4050821779047308;-9.3975;1.2685;-2.4141;
4050821789145016;-9.4071;1.2446;-2.4428;
4050821799250120;-9.4095;1.2446;-2.4284;
4050821809355224;-9.3927;1.2565;-2.4165;
4050821819471110;-9.3903;1.2589;-2.3997;
4050821829576214;-9.4071;1.2541;-2.3853;
4050821839681318;-9.4214;1.2541;-2.4356;
4050821849796891;-9.4071;1.2494;-2.4356;
4050821859901995;-9.4047;1.2565;-2.4045;
4050821870007099;-9.4119;1.2637;-2.4165;
4050821880105224;-9.3903;1.2637;-2.4380;
4050821890210328;-9.4143;1.2565;-2.4165;
4050821900315433;-9.4071;1.2565;-2.4332;
4050821910413974;-9.4167;1.2589;-2.4165;
4050821920519078;-9.4190;1.2470;-2.4212;
4050821930624183;-9.4095;1.2398;-2.4093;
4050821940715224;-9.4095;1.2350;-2.4141;
4050821950820328;-9.3927;1.2541;-2.4212;
4050821960925433;-9.4047;1.2541;-2.4260;
4050821971043870;-9.4143;1.2517;-2.4404;
4050821981148974;-9.3975;1.2517;-2.4188;
4050821991254078;-9.3879;1.2517;-2.4045;
4050822001360276;-9.3951;1.2565;-2.4404;
4050822011465381;-9.3951;1.2613;-2.4284;
4050822021570485;-9.3903;1.2613;-2.4212;
4050822031680016;-9.4071;1.2613;-2.4021;
4050822041785120;-9.4119;1.2517;-2.4045;
4050822051890224;-9.4023;1.2470;-2.4141;
4050822061989808;-9.4167;1.2565;-2.4212;
4050822072094912;-9.4119;1.2470;-2.4117;
4050822082200068;-9.3832;1.2398;-2.4236;
4050822092295537;-9.3927;1.2494;-2.4284;
4050822102400641;-9.4095;1.2517;-2.4045;
4050822112505745;-9.4047;1.2494;-2.4141;
4050822122615693;-9.4143;1.2350;-2.4308;
4050822132720745;-9.4214;1.2637;-2.4332;
4050822142825849;-9.4047;1.2565;-2.4284;
4050822152922933;-9.4214;1.2350;-2.4356;
4050822163028037;-9.4023;1.2661;-2.4308;
4050822173133141;-9.3784;1.2565;-2.4188;
4050822183237256;-9.3975;1.2374;-2.4284;
4050822193342308;-9.3879;1.2661;-2.4356;
4050822203447412;-9.4071;1.2446;-2.4141;
4050822213554756;-9.4071;1.2613;-2.4165;
4050822223659808;-9.4119;1.2613;-2.4332;
4050822233764912;-9.4190;1.2541;-2.4236;
4050822243846526;-9.4167;1.2565;-2.3997;
4050822253951578;-9.4190;1.2541;-2.4284;
4050822264056683;-9.3951;1.2470;-2.4356;
4050822274195172;-9.4190;1.2565;-2.4165;
4050822284300276;-9.4214;1.2760;-2.3925;
4050822294405381;-9.4190;1.2470;-2.3973;
4050822304501370;-9.4071;1.2685;-2.3973;
4050822314606474;-9.4167;1.2613;-2.4141;
4050822324711578;-9.4095;1.2589;-2.4332;
4050822334807256;-9.3999;1.2589;-2.4212;
4050822344912308;-9.3975;1.2517;-2.4045;
4050822355017412;-9.3999;1.2736;-2.4284;
4050822365154756;-9.4023;1.2494;-2.4332;
4050822375259860;-9.4190;1.2613;-2.4212;
4050822385364964;-9.4143;1.2637;-2.4117;
4050822395454703;-9.4095;1.2565;-2.4284;
4050822405559808;-9.4095;1.2661;-2.4117;
4050822415664912;-9.4095;1.2517;-2.4332;
4050822425783922;-9.3879;1.2422;-2.4260;
4050822435889287;-9.4143;1.2494;-2.3973;
4050822445994703;-9.3999;1.2613;-2.4356;
4050822456073089;-9.4167;1.2470;-2.3997;
4050822466178453;-9.4071;1.2736;-2.3949;
4050822476283870;-9.4095;1.2661;-2.4117;
4050822486395485;-9.4214;1.2374;-2.4117;
4050822496500849;-9.4047;1.2278;-2.4260;
4050822506606266;-9.4047;1.2736;-2.4117;
4050822516708610;-9.4023;1.2709;-2.4380;
4050822526813974;-9.3832;1.2565;-2.4165;
4050822536919391;-9.3927;1.2422;-2.3949;
4050822547025276;-9.4190;1.2613;-2.4141;
4050822557130641;-9.4119;1.2541;-2.4212;
4050822567236058;-9.3999;1.2637;-2.4284;
4050822577351318;-9.4119;1.2494;-2.4141;
4050822587456683;-9.3975;1.2541;-2.4356;
4050822597562099;-9.3832;1.2470;-2.4188;
4050822607685797;-9.4095;1.2398;-2.4141;
4050822617791162;-9.4095;1.2517;-2.4165;
4050822627896578;-9.4214;1.2494;-2.3997;
4050822637969339;-9.4143;1.2613;-2.3877;
4050822648074703;-9.3975;1.2470;-2.4212;
4050822658180120;-9.3927;1.2760;-2.4069;
4050822668305901;-9.4143;1.2637;-2.4093;
4050822678411266;-9.3832;1.2613;-2.4260;
4050822688516683;-9.3903;1.2470;-2.4380;
4050822698610693;-9.4238;1.2374;-2.4188;
4050822708716058;-9.3975;1.2832;-2.4093;
4050822718821474;-9.4119;1.2661;-2.4188;
4050822728935589;-9.4143;1.2637;-2.4308;
4050822739040953;-9.4095;1.2760;-2.4356;
4050822749146370;-9.4190;1.2446;-2.4093;
4050822759236943;-9.3688;1.2951;-2.4260;
4050822769342308;-9.4071;1.2637;-2.4284;
4050822779447724;-9.4023;1.2446;-2.4260;
4050822789558610;-9.4119;1.2661;-2.4045;
4050822799663974;-9.4071;1.2661;-2.4284;
4050822809769391;-9.4023;1.2589;-2.4523;
4050822819853610;-9.4023;1.2637;-2.4452;
4050822829958974;-9.4238;1.2422;-2.3949;
4050822840064391;-9.4190;1.2589;-2.4165;
4050822850196735;-9.4143;1.2517;-2.4141;
4050822860302099;-9.4023;1.2541;-2.4236;
4050822870407464;-9.3927;1.2541;-2.4356;
4050822880514339;-9.3855;1.2494;-2.3997;
4050822890619703;-9.4167;1.2446;-2.4308;
4050822900725120;-9.4071;1.2517;-2.4069;
4050822910818818;-9.3927;1.2661;-2.3973;
4050822920924183;-9.4071;1.2637;-2.4356;
4050822931029599;-9.4143;1.2422;-2.4165;
4050822941129860;-9.4214;1.2517;-2.4332;
4050822951235224;-9.4071;1.2709;-2.4165;
4050822961340641;-9.3975;1.2685;-2.3949;
4050822971444860;-9.4382;1.2685;-2.4165;
4050822981550224;-9.4023;1.2446;-2.4523;
4050822991655641;-9.3999;1.2541;-2.4188;
4050823001757151;-9.3999;1.2517;-2.3973;
4050823011862516;-9.4095;1.2760;-2.4165;
4050823021967933;-9.3999;1.2736;-2.4260;
4050823032088506;-9.4143;1.2494;-2.4188;
4050823042193870;-9.4095;1.2589;-2.4188;
4050823052299287;-9.3903;1.2736;-2.4284;
4050823062393037;-9.4262;1.2637;-2.4284;
4050823072498453;-9.4023;1.2517;-2.4141;
4050823082603870;-9.3927;1.2685;-2.4165;
4050823092695276;-9.4023;1.2637;-2.4236;
4050823102800641;-9.4023;1.2446;-2.4188;
4050823112906058;-9.4190;1.2470;-2.4308;
4050823123009026;-9.4214;1.2541;-2.4188;
4050823133114391;-9.4047;1.2661;-2.4212;
4050823143219808;-9.4214;1.2637;-2.4260;
4050823153321110;-9.4262;1.2350;-2.4117;
4050823163426474;-9.3879;1.2446;-2.4093;
4050823173531891;-9.4095;1.2709;-2.4284;
4050823183653453;-9.3951;1.2446;-2.4021;
4050823193758870;-9.3975;1.2422;-2.4093;
4050823203864287;-9.4095;1.2517;-2.4212;
4050823213942620;-9.3951;1.2541;-2.4045;
4050823224048037;-9.4167;1.2685;-2.4212;
4050823234153401;-9.4143;1.2422;-2.4260;
4050823244282776;-9.3975;1.2398;-2.4165;
4050823254388141;-9.3975;1.2398;-2.4045;
4050823264493558;-9.4190;1.2661;-2.4284;
4050823274600172;-9.4167;1.2685;-2.4428;
4050823284705537;-9.3951;1.2589;-2.4236;
4050823294810953;-9.4071;1.2661;-2.4260;
4050823304925224;-9.4023;1.2589;-2.4380;
4050823315030589;-9.4238;1.2589;-2.4188;
4050823325136006;-9.4047;1.2613;-2.4141;
4050823335231006;-9.4214;1.2589;-2.4188;
4050823345336370;-9.4262;1.2565;-2.4236;
4050823355441787;-9.3927;1.2517;-2.4284;
4050823365538818;-9.4071;1.2470;-2.4212;
4050823375644183;-9.4262;1.2470;-2.4380;
4050823385749599;-9.4143;1.2350;-2.4260;
4050823395860328;-9.3879;1.2541;-2.4236;
4050823405965693;-9.4047;1.2808;-2.4141;
4050823416071110;-9.4119;1.2589;-2.4236;
4050823426169599;-9.3927;1.2613;-2.4188;
4050823436274599;-9.4167;1.2494;-2.4045;
4050823446379651;-9.3999;1.2470;-2.4332;
4050823456484808;-9.4095;1.2565;-2.4045;
4050823466589808;-9.4238;1.2589;-2.4093;
4050823476694860;-9.4214;1.2565;-2.4284;
4050823486796318;-9.4095;1.2709;-2.4188;
4050823496901318;-9.3999;1.2661;-2.4188;
4050823507006318;-9.4095;1.2470;-2.4141;
4050823517114026;-9.4214;1.2589;-2.4260;
4050823527219026;-9.4023;1.2517;-2.4236;
4050823537324078;-9.4214;1.2494;-2.4284;
4050823547432412;-9.4358;1.2517;-2.4236;
4050823557537464;-9.4119;1.2517;-2.4212;
4050823567642412;-9.4214;1.2541;-2.4021;
4050823577752412;-9.4047;1.2565;-2.4260;
4050823587857412;-9.3975;1.2565;-2.4021;
4050823597962464;-9.3999;1.2685;-2.4308;
4050823608063922;-9.4119;1.2661;-2.4021;
4050823618168922;-9.4047;1.2709;-2.4069;
4050823628273922;-9.4119;1.2613;-2.4165;
4050823638371995;-9.3951;1.2613;-2.4165;
4050823648476943;-9.3975;1.2446;-2.4212;
4050823658581995;-9.4095;1.2541;-2.4069;
4050823668701787;-9.4238;1.2661;-2.4260;
4050823678806839;-9.3879;1.2709;-2.4332;
4050823688911787;-9.4095;1.2637;-2.4236;
4050823699018141;-9.3927;1.2541;-2.3997;
4050823709123141;-9.3951;1.2784;-2.4236;
4050823719228193;-9.4095;1.2661;-2.4212;
4050823729317881;-9.4047;1.2541;-2.4188;
4050823739422828;-9.3975;1.2470;-2.4236;
4050823749527881;-9.4214;1.2613;-2.4141;
4050823759641578;-9.3999;1.2541;-2.4428;
4050823769746578;-9.3903;1.2589;-2.4308;
4050823779851631;-9.4119;1.2709;-2.4308;
4050823789966370;-9.4286;1.2470;-2.4045;
4050823800071422;-9.4190;1.2470;-2.4308;
4050823810176422;-9.3879;1.2494;-2.4212;
4050823820280641;-9.3927;1.2736;-2.4284;
4050823830385693;-9.4238;1.2517;-2.4547;
4050823840490693;-9.3999;1.2589;-2.4404;
4050823850599808;-9.3855;1.2374;-2.4284;
4050823860704808;-9.3975;1.2637;-2.4428;
4050823870809860;-9.4071;1.2637;-2.4380;
4050823880917516;-9.4143;1.2446;-2.4021;
4050823891022516;-9.3855;1.2613;-2.4045;
4050823901127568;-9.3832;1.2808;-2.4212;
4050823911219703;-9.4143;1.2637;-2.4404;
4050823921324703;-9.4190;1.2422;-2.4236;
4050823931429756;-9.4167;1.2446;-2.3925;
4050823941518766;-9.3927;1.2637;-2.3973;
4050823951623766;-9.4190;1.2494;-2.4284;
4050823961728818;-9.3975;1.2302;-2.4428;
4050823971852620;-9.3903;1.2254;-2.4236;
4050823981957672;-9.3927;1.2422;-2.4212;
4050823992062620;-9.4047;1.2709;-2.4236;
4050824002165953;-9.3879;1.2541;-2.4212;
4050824012270953;-9.3879;1.2517;-2.4332;
4050824022376006;-9.4047;1.2589;-2.4356;
4050824032477724;-9.4262;1.2541;-2.4571;
4050824042582776;-9.4119;1.2494;-2.4428;
4050824052687776;-9.4047;1.2398;-2.4141;
4050824062788349;-9.4214;1.2709;-2.4404;
4050824072893401;-9.4310;1.2565;-2.4332;
4050824082998401;-9.3999;1.2470;-2.4141;
4050824093109912;-9.3999;1.2446;-2.4284;
4050824103214964;-9.3879;1.2517;-2.4308;
4050824113319964;-9.4071;1.2326;-2.4141;
4050824123423089;-9.3975;1.2565;-2.4212;
4050824133528089;-9.3975;1.2470;-2.4236;
4050824143633141;-9.3879;1.2541;-2.4117;
4050824153792516;-9.4047;1.2736;-2.4404;
4050824163897516;-9.4143;1.2517;-2.4165;
4050824174002516;-9.3927;1.2398;-2.4236;
4050824184045485;-9.4047;1.2470;-2.4188;
4050824194150485;-9.4238;1.2637;-2.4188;
4050824204255485;-9.3951;1.2494;-2.4380;
4050824214405433;-9.3903;1.2470;-2.4260;
4050824224510433;-9.4095;1.2565;-2.3997;
4050824234615433;-9.4047;1.2565;-2.4069;
4050824244694703;-9.4119;1.2637;-2.4284;
4050824254799703;-9.4143;1.2230;-2.4380;
4050824264904756;-9.4023;1.2517;-2.4452;
4050824275008453;-9.4047;1.2736;-2.4260;
4050824285113453;-9.3975;1.2541;-2.4165;
4050824295218506;-9.4095;1.2470;-2.4212;
4050824305331578;-9.3999;1.2661;-2.4332;
4050824315436578;-9.4047;1.2517;-2.4093;
4050824325541631;-9.4214;1.2613;-2.4165;
4050824335637464;-9.3927;1.2446;-2.4595;
4050824345742464;-9.3855;1.2398;-2.4332;
4050824355847516;-9.4095;1.2446;-2.4117;
4050824365943974;-9.4119;1.2517;-2.4284;
4050824376048974;-9.3999;1.2398;-2.4284;
4050824386154026;-9.4095;1.2470;-2.4188;
4050824396274860;-9.4334;1.2494;-2.4117;
4050824406379860;-9.4095;1.2422;-2.4308;
4050824416484912;-9.4167;1.2565;-2.4260;
4050824426586058;-9.4214;1.2230;-2.4260;
4050824436691266;-9.3951;1.2541;-2.4452;
4050824446796422;-9.3975;1.2517;-2.4547;
4050824456897828;-9.4286;1.2661;-2.4380;
4050824467003037;-9.4071;1.2589;-2.4141;
4050824477108193;-9.3999;1.2808;-2.4428;
4050824487209183;-9.4095;1.2589;-2.4356;
4050824497314391;-9.4047;1.2470;-2.4021;
4050824507419547;-9.3927;1.2494;-2.4308;
4050824517520276;-9.3999;1.2446;-2.4117;
4050824527625485;-9.4143;1.2494;-2.4093;
4050824537730641;-9.4119;1.2709;-2.4523;
4050824547855537;-9.4023;1.2517;-2.4356;
4050824557960745;-9.4143;1.2613;-2.4117;
4050824568065901;-9.3975;1.2446;-2.4212;
4050824578174443;-9.4238;1.2565;-2.4595;
4050824588279651;-9.4143;1.2494;-2.4547;
4050824598384808;-9.3951;1.2736;-2.4404;
4050824608485953;-9.4190;1.2661;-2.3877;
4050824618591162;-9.4071;1.2494;-2.4141;
4050824628696318;-9.4143;1.2398;-2.4380;
4050824638781683;-9.4143;1.2398;-2.4404;
4050824648886891;-9.3975;1.2589;-2.4476;
4050824658992047;-9.3879;1.2589;-2.4165;
4050824669099287;-9.3879;1.2422;-2.4165;
4050824679204495;-9.4071;1.2374;-2.4380;
4050824689309651;-9.3951;1.2446;-2.4332;
4050824699414703;-9.3903;1.2613;-2.4452;
4050824709519912;-9.4023;1.2517;-2.4236;
4050824719625068;-9.3999;1.2565;-2.4500;
4050824729737933;-9.3927;1.2326;-2.4212;
4050824739843141;-9.4143;1.2494;-2.4021;
4050824749948297;-9.4071;1.2613;-2.4117;
4050824760044808;-9.4095;1.2541;-2.4165;
4050824770150016;-9.4119;1.2470;-2.4069;
4050824780255172;-9.4071;1.2350;-2.4284;
4050824790362724;-9.4023;1.2470;-2.4093;
4050824800467933;-9.4095;1.2470;-2.4045;
4050824810573089;-9.3975;1.2541;-2.4188;
4050824820665224;-9.3999;1.2517;-2.4308;
4050824830770433;-9.4071;1.2685;-2.4188;
4050824840875589;-9.4119;1.2446;-2.4308;
4050824851003870;-9.4190;1.2784;-2.4236;
4050824861109078;-9.4071;1.2541;-2.3806;
4050824871214235;-9.3975;1.2736;-2.4093;
4050824881324183;-9.4167;1.2589;-2.4260;
4050824891429391;-9.4214;1.2517;-2.4212;
4050824901534547;-9.4214;1.2661;-2.4188;
4050824911632099;-9.4071;1.2565;-2.4188;
4050824921737308;-9.4095;1.2446;-2.4356;
4050824931842464;-9.4119;1.2565;-2.4284;
4050824941939808;-9.3784;1.2541;-2.4141;
4050824952045016;-9.4047;1.2613;-2.4141;
4050824962150172;-9.4047;1.2541;-2.4117;
4050824972249183;-9.3927;1.2494;-2.4404;
4050824982354391;-9.4023;1.2470;-2.4452;
4050824992459547;-9.4023;1.2685;-2.4212;
4050825002552568;-9.3951;1.2661;-2.4165;
4050825012657724;-9.4143;1.2422;-2.4117;
4050825022762881;-9.4119;1.2637;-2.4404;
4050825032878349;-9.4119;1.2736;-2.4165;
4050825042983558;-9.4310;1.2470;-2.4188;
4050825053088714;-9.3855;1.2541;-2.4260;
4050825063191370;-9.4071;1.2422;-2.4188;
4050825073296578;-9.3927;1.2374;-2.4332;
4050825083401735;-9.3975;1.2517;-2.4260;
4050825093501526;-9.4119;1.2541;-2.4069;
4050825103606735;-9.4071;1.2494;-2.4165;
4050825113711891;-9.4095;1.2517;-2.4380;
4050825123816995;-9.3855;1.2637;-2.4452;
4050825133922203;-9.3951;1.2470;-2.4236;
4050825144027360;-9.3879;1.2637;-2.4260;
4050825154150953;-9.4047;1.2565;-2.4380;
4050825164256162;-9.4071;1.2541;-2.4212;
4050825174361318;-9.4047;1.2517;-2.4260;
4050825184454183;-9.3975;1.2565;-2.4188;
4050825194559391;-9.3903;1.2494;-2.4236;
4050825204664547;-9.4047;1.2589;-2.4188;
4050825214777099;-9.4286;1.2494;-2.4165;
4050825224882308;-9.4143;1.2709;-2.4165;
4050825234987464;-9.4071;1.2736;-2.4332;
4050825245105172;-9.3855;1.2398;-2.4069;
4050825255210381;-9.3975;1.2541;-2.4308;
4050825265315537;-9.4071;1.2637;-2.4260;
4050825275389547;-9.4143;1.2470;-2.4212;
4050825285494703;-9.4095;1.2494;-2.4117;
4050825295599860;-9.3927;1.2398;-2.4212;
4050825305728974;-9.4095;1.2637;-2.4141;
4050825315834183;-9.4023;1.2565;-2.4260;
4050825325939339;-9.4238;1.2470;-2.4260;
4050825336027881;-9.4095;1.2541;-2.4093;
4050825346133037;-9.3903;1.2374;-2.4332;
4050825356238193;-9.4071;1.2589;-2.4188;
4050825366353037;-9.4167;1.2374;-2.4069;
4050825376458245;-9.4023;1.2589;-2.4117;
4050825386563401;-9.3927;1.2661;-2.4212;
4050825396663558;-9.4023;1.2736;-2.4308;
4050825406768766;-9.4119;1.2709;-2.4117;
4050825416873922;-9.4095;1.2685;-2.4165;
4050825426978766;-9.4119;1.2589;-2.4188;
4050825437083818;-9.4047;1.2613;-2.3973;
4050825447188818;-9.4023;1.2661;-2.4141;
4050825457291526;-9.3975;1.2565;-2.4500;
4050825467396526;-9.4095;1.2422;-2.4093;
4050825477501526;-9.4214;1.2302;-2.4308;
4050825487607151;-9.4047;1.2541;-2.4284;
4050825497712151;-9.4047;1.2374;-2.4165;
4050825507817151;-9.4047;1.2302;-2.4236;
4050825517922985;-9.4047;1.2565;-2.4260;
4050825528027985;-9.4071;1.2565;-2.4188;
4050825538132985;-9.3903;1.2398;-2.4212;
4050825548244599;-9.3999;1.2637;-2.4284;
4050825558349651;-9.4095;1.2855;-2.4284;
4050825568454651;-9.4238;1.2470;-2.4212;
4050825578558349;-9.4023;1.2398;-2.4212;
4050825588663401;-9.3879;1.2494;-2.4452;
4050825598768401;-9.3855;1.2709;-2.4380;
4050825608865485;-9.4095;1.2589;-2.4212;
4050825618970485;-9.4238;1.2541;-2.4141;
4050825629075485;-9.4023;1.2565;-2.4117;
4050825639184026;-9.3999;1.2517;-2.4428;
4050825649289078;-9.4310;1.2374;-2.4117;
4050825659394078;-9.3975;1.2494;-2.4236;
4050825669502203;-9.4190;1.2494;-2.4117;
4050825679607256;-9.3999;1.2613;-2.4332;
4050825689712256;-9.3951;1.2541;-2.4141;
4050825699811526;-9.4095;1.2685;-2.4117;
4050825709916526;-9.4238;1.2685;-2.4332;
4050825720021526;-9.4190;1.2422;-2.4476;
4050825730132620;-9.4119;1.2470;-2.3949;
4050825740237672;-9.3927;1.2565;-2.4308;
4050825750342672;-9.4047;1.2494;-2.4428;
4050825760443506;-9.4023;1.2565;-2.4380;
4050825770548506;-9.4047;1.2589;-2.4236;
4050825780653506;-9.4071;1.2326;-2.4045;
4050825790758245;-9.4095;1.2326;-2.4404;
4050825800863245;-9.3927;1.2541;-2.4141;
4050825810968245;-9.4214;1.2661;-2.4308;
4050825821081891;-9.4047;1.2517;-2.4284;
4050825831186943;-9.3951;1.2517;-2.4141;
4050825841291943;-9.4310;1.2685;-2.4141;
4050825851390745;-9.4358;1.2661;-2.4141;
4050825861495745;-9.4167;1.2589;-2.4188;
4050825871600745;-9.3879;1.2685;-2.4212;
4050825881702412;-9.4262;1.2494;-2.4380;
4050825891807412;-9.4071;1.2470;-2.4404;
4050825901912412;-9.3808;1.2446;-2.4236;
4050825912018193;-9.3951;1.2637;-2.4428;
4050825922123193;-9.3951;1.2709;-2.4165;
4050825932228193;-9.4095;1.2709;-2.4188;
4050825942335068;-9.4119;1.2541;-2.4165;
4050825952440068;-9.4071;1.2565;-2.4117;
4050825962545068;-9.4214;1.2637;-2.4165;
4050825972651735;-9.4190;1.2494;-2.4236;
4050825982756735;-9.4095;1.2470;-2.4188;
4050825992861735;-9.4190;1.2637;-2.3997;
4050826002976839;-9.4023;1.2494;-2.4021;
4050826013081891;-9.4023;1.2517;-2.4284;
4050826023186891;-9.4143;1.2374;-2.4356;
4050826033275901;-9.3999;1.2446;-2.3997;
4050826043380901;-9.4095;1.2589;-2.4260;
4050826053485901;-9.4023;1.2541;-2.4308;
4050826063629495;-9.4071;1.2517;-2.4260;
4050826073734495;-9.4238;1.2685;-2.4308;
4050826083839495;-9.4095;1.2565;-2.4236;
4050826093893818;-9.4262;1.2446;-2.4212;
4050826103998818;-9.4167;1.2613;-2.4117;
4050826114103870;-9.4071;1.2613;-2.4284;
4050826124248558;-9.3951;1.2661;-2.4284;
4050826134353610;-9.4262;1.2736;-2.4452;
4050826144458610;-9.4167;1.2517;-2.4356;
4050826154558141;-9.4190;1.2517;-2.3949;
4050826164663193;-9.4406;1.2855;-2.4236;
4050826174768193;-9.4190;1.2541;-2.4308;
4050826184853506;-9.3855;1.2517;-2.4165;
4050826194958506;-9.4143;1.2565;-2.4165;
4050826205063506;-9.4190;1.2565;-2.4260;
4050826215165901;-9.4167;1.2517;-2.4117;
4050826225270901;-9.4167;1.2541;-2.4452;
4050826235375901;-9.4143;1.2398;-2.4332;
4050826245510745;-9.3999;1.2613;-2.4212;
4050826255615797;-9.4071;1.2494;-2.4188;
4050826265720797;-9.4262;1.2494;-2.4260;
4050826275799860;-9.4071;1.2541;-2.4188;
4050826285904860;-9.4214;1.2613;-2.4188;
4050826296009860;-9.4262;1.2470;-2.4069;
4050826306148245;-9.4071;1.2422;-2.4117;
4050826316253297;-9.3927;1.2446;-2.4117;
4050826326358297;-9.4238;1.2589;-2.4212;
4050826336436578;-9.4358;1.2565;-2.4045;
4050826346541578;-9.4382;1.2613;-2.4404;
4050826356646578;-9.4262;1.2494;-2.4212;
4050826366753453;-9.3832;1.2398;-2.3973;
4050826376858506;-9.4119;1.2374;-2.4308;
4050826386963506;-9.4214;1.2422;-2.4093;
4050826397069391;-9.4190;1.2589;-2.4093;
4050826407174443;-9.4119;1.2736;-2.4021;
4050826417279443;-9.4119;1.2661;-2.4045;
4050826427379756;-9.3975;1.2589;-2.4141;
4050826437484808;-9.4047;1.2470;-2.4356;
4050826447589860;-9.3879;1.2541;-2.4141;
4050826457694339;-9.4167;1.2661;-2.4260;
4050826467799339;-9.3951;1.2637;-2.4165;
4050826477904391;-9.4023;1.2613;-2.4141;
4050826488007047;-9.4095;1.2446;-2.4332;
4050826498112099;-9.4095;1.2565;-2.4117;
4050826508217151;-9.4190;1.2613;-2.4141;
4050826518325901;-9.3975;1.2661;-2.3997;
4050826528430953;-9.3879;1.2613;-2.4141;
4050826538536006;-9.3784;1.2422;-2.4260;
4050826548647412;-9.3975;1.2446;-2.4236;
4050826558752516;-9.4334;1.2637;-2.4380;
4050826568857516;-9.4071;1.2494;-2.4236;
4050826578964703;-9.3951;1.2541;-2.4212;
4050826589069808;-9.4119;1.2637;-2.4500;
4050826599174808;-9.3951;1.2517;-2.4093;
4050826609272985;-9.3927;1.2760;-2.4212;
4050826619378037;-9.4023;1.2541;-2.3997;
4050826629483089;-9.3855;1.2422;-2.4045;
4050826639591214;-9.4095;1.2685;-2.4212;
4050826649696266;-9.3927;1.2494;-2.4404;
4050826659801318;-9.4047;1.2736;-2.4117;
4050826669909703;-9.4119;1.2613;-2.4428;
4050826680014756;-9.4119;1.2470;-2.4117;
4050826690119860;-9.3951;1.2541;-2.4212;
4050826700219808;-9.4047;1.2685;-2.4212;
4050826710324912;-9.4167;1.2685;-2.4236;
4050826720429964;-9.4071;1.2637;-2.4117;
4050826730537724;-9.4071;1.2736;-2.4212;
4050826740642828;-9.4119;1.2637;-2.4380;
4050826750747881;-9.3999;1.2446;-2.4093;
4050826760845328;-9.4023;1.2661;-2.4236;
4050826770950381;-9.3951;1.2589;-2.4260;
4050826781055381;-9.4023;1.2470;-2.4165;
4050826791162672;-9.4119;1.2517;-2.4165;
4050826801267724;-9.3832;1.2494;-2.4141;
4050826811372724;-9.4047;1.2565;-2.4236;
4050826821482151;-9.3975;1.2736;-2.4069;
4050826831587203;-9.4023;1.2517;-2.3925;
4050826841692256;-9.3951;1.2637;-2.4141;
4050826851797412;-9.4167;1.2398;-2.4069;
4050826861902464;-9.3999;1.2398;-2.4045;
4050826872007516;-9.3903;1.2494;-2.3973;
4050826882125172;-9.4047;1.2589;-2.4117;
4050826892230224;-9.4071;1.2709;-2.4212;
4050826902335276;-9.4119;1.2565;-2.4117;
4050826912426943;-9.3999;1.2685;-2.4260;
4050826922531995;-9.4190;1.2374;-2.4308;
4050826932637047;-9.4119;1.2374;-2.3973;
4050826942738401;-9.4190;1.2760;-2.4356;
4050826952843453;-9.4238;1.2494;-2.4284;
4050826962948453;-9.4047;1.2494;-2.4476;
4050826973052568;-9.3903;1.2374;-2.4212;
4050826983157620;-9.4119;1.2517;-2.4093;
4050826993262672;-9.4167;1.2613;-2.4188;
4050827003376839;-9.4214;1.2637;-2.4165;
4050827013481891;-9.3999;1.2541;-2.4260;
4050827023586995;-9.3903;1.2446;-2.4069;
4050827033716058;-9.4023;1.2517;-2.4093;
4050827043821110;-9.4071;1.2374;-2.4045;
4050827053926162;-9.4214;1.2637;-2.4356;
4050827064025224;-9.3784;1.2494;-2.4212;
4050827074130328;-9.4238;1.2541;-2.4332;
4050827084235381;-9.3903;1.2494;-2.4212;
4050827094348558;-9.3927;1.2565;-2.4212;
4050827104453610;-9.4119;1.2589;-2.4236;
4050827114558662;-9.4167;1.2422;-2.4188;
4050827124649183;-9.4119;1.2517;-2.4045;
4050827134754287;-9.4047;1.2494;-2.4045;
4050827144859287;-9.3903;1.2374;-2.4093;
4050827154962933;-9.4023;1.2517;-2.4093;
4050827165067985;-9.4143;1.2565;-2.4045;
4050827175173037;-9.4262;1.2350;-2.4404;
4050827185261839;-9.4143;1.2422;-2.4284;
4050827195366891;-9.4119;1.2517;-2.4165;
4050827205471943;-9.4286;1.2709;-2.4308;
4050827215591787;-9.4023;1.2398;-2.4212;
4050827225696839;-9.3999;1.2541;-2.3949;
4050827235801891;-9.3903;1.2517;-2.4045;
4050827245892360;-9.4119;1.2565;-2.4212;
4050827255997412;-9.4310;1.2589;-2.4188;
4050827266102464;-9.3975;1.2422;-2.3997;
4050827276225016;-9.4167;1.2422;-2.4165;
4050827286330068;-9.4095;1.2565;-2.4045;
4050827296435120;-9.4047;1.2661;-2.3877;
4050827306526578;-9.4047;1.2398;-2.4045;
4050827316631578;-9.4143;1.2278;-2.3949;
4050827326736683;-9.4095;1.2517;-2.4236;
4050827336841735;-9.4238;1.2637;-2.4188;
4050827346946735;-9.4238;1.2685;-2.3806;
4050827357051839;-9.4143;1.2613;-2.4093;
4050827367159078;-9.3832;1.2541;-2.4236;
4050827377264131;-9.4119;1.2589;-2.3973;
4050827387369183;-9.4119;1.2637;-2.4141;
4050827397473610;-9.4167;1.2541;-2.4093;
4050827407578662;-9.4023;1.2736;-2.4308;
4050827417683714;-9.4095;1.2637;-2.4212;
4050827427785589;-9.4143;1.2398;-2.4045;
4050827437890641;-9.4190;1.2589;-2.4356;
4050827447995745;-9.4190;1.2709;-2.4476;
4050827458102672;-9.4167;1.2541;-2.4141;
4050827468207724;-9.4238;1.2565;-2.4212;
4050827478312828;-9.4190;1.2541;-2.3782;
4050827488417256;-9.4095;1.2589;-2.4045;
4050827498522308;-9.3999;1.2517;-2.4165;
4050827508627412;-9.3832;1.2613;-2.4188;
4050827518732360;-9.4047;1.2494;-2.4212;
4050827528837412;-9.3855;1.2541;-2.4212;
4050827538942516;-9.4047;1.2494;-2.4188;
4050827549049078;-9.3808;1.2422;-2.4260;
4050827559154131;-9.3927;1.2589;-2.4212;
4050827569259235;-9.3975;1.2661;-2.4117;
4050827579369183;-9.4119;1.2613;-2.4021;
4050827589474287;-9.4095;1.2637;-2.4165;
4050827599579391;-9.4119;1.2446;-2.4236;
4050827609680172;-9.4119;1.2422;-2.4308;
4050827619785224;-9.4023;1.2541;-2.3997;
4050827629890328;-9.4047;1.2541;-2.3949;
4050827639997985;-9.3975;1.2565;-2.3925;
4050827650103037;-9.3879;1.2637;-2.4141;
4050827660208141;-9.4047;1.2470;-2.3925;
4050827670316995;-9.3999;1.2709;-2.4428;
4050827680422151;-9.3999;1.2685;-2.4380;
4050827690527203;-9.4047;1.2565;-2.4260;
4050827700629339;-9.3951;1.2470;-2.4356;
4050827710734391;-9.3951;1.2470;-2.4308;
4050827720839495;-9.4310;1.2736;-2.4380;
4050827730943610;-9.4143;1.2517;-2.4308;
4050827741048662;-9.3975;1.2613;-2.3949;
4050827751153766;-9.3999;1.2517;-2.4069;
4050827761256631;-9.4143;1.2470;-2.4404;
4050827771361683;-9.4095;1.2613;-2.4332;
4050827781466787;-9.4167;1.2736;-2.4380;
4050827791570172;-9.4095;1.2494;-2.4093;
4050827801675224;-9.3951;1.2517;-2.4332;
4050827811780328;-9.3999;1.2565;-2.4165;
4050827821884756;-9.4071;1.2565;-2.4117;
4050827831989808;-9.4095;1.2613;-2.4284;
4050827842094912;-9.4119;1.2589;-2.4212;
4050827852203245;-9.4047;1.2446;-2.4356;
4050827862308297;-9.3975;1.2565;-2.4260;
4050827872413401;-9.3975;1.2565;-2.4212;
4050827882504235;-9.4071;1.2589;-2.4165;
4050827892609339;-9.4286;1.2613;-2.4093;
4050827902714391;-9.4238;1.2494;-2.4117;
4050827912829860;-9.4047;1.2565;-2.3925;
4050827922934912;-9.3927;1.2613;-2.4260;
4050827933040016;-9.4095;1.2760;-2.4045;
4050827943140693;-9.4119;1.2637;-2.4069;
4050827953245745;-9.3999;1.2637;-2.4260;
4050827963350849;-9.4143;1.2541;-2.4236;
4050827973461891;-9.4119;1.2589;-2.4069;
4050827983566995;-9.4023;1.2398;-2.3997;
4050827993672099;-9.4214;1.2565;-2.4212;
4050828003780745;-9.4023;1.2565;-2.3949;
4050828013885849;-9.3855;1.2661;-2.3997;
4050828023990953;-9.4119;1.2565;-2.3949;
4050828034100797;-9.4238;1.2470;-2.4117;
4050828044205849;-9.4023;1.2446;-2.4117;
4050828054310953;-9.3975;1.2494;-2.4141;
4050828064415433;-9.3975;1.2709;-2.4093;
4050828074520537;-9.3951;1.2494;-2.4284;
4050828084625641;-9.3951;1.2517;-2.4236;
4050828094711839;-9.4167;1.2832;-2.4045;
4050828104816891;-9.3975;1.2470;-2.4236;
4050828114921995;-9.4119;1.2565;-2.4188;
4050828125061787;-9.4167;1.2736;-2.4260;
4050828135166891;-9.4095;1.2855;-2.4308;
4050828145271995;-9.4119;1.2637;-2.4188;
4050828155372672;-9.4119;1.2517;-2.4212;
4050828165477776;-9.4119;1.2541;-2.4428;
4050828175582881;-9.3975;1.2565;-2.4380;
4050828185675433;-9.3951;1.2565;-2.4332;
4050828195780537;-9.3999;1.2541;-2.4069;
4050828205885641;-9.4214;1.2565;-2.4212;
4050828216004495;-9.4095;1.2685;-2.4117;
4050828226109599;-9.4214;1.2446;-2.4476;
4050828236214703;-9.4023;1.2446;-2.4308;
4050828246304756;-9.3951;1.2565;-2.4260;
4050828256409808;-9.3999;1.2422;-2.4117;
4050828266514912;-9.4119;1.2613;-2.4332;
4050828276624443;-9.3927;1.2637;-2.4069;
4050828286729547;-9.3951;1.2613;-2.4284;
4050828296834651;-9.3975;1.2374;-2.4165;
4050828306931839;-9.4023;1.2565;-2.4117;
4050828317036891;-9.4286;1.2589;-2.3997;
4050828327141995;-9.4214;1.2613;-2.3782;
4050828337258037;-9.4047;1.2494;-2.4380;
4050828347363141;-9.3927;1.2613;-2.4260;
4050828357468245;-9.4119;1.2637;-2.4093;
4050828367574912;-9.4214;1.2494;-2.4117;
4050828377680016;-9.4047;1.2470;-2.3949;
4050828387785120;-9.4023;1.2661;-2.4404;
4050828397887828;-9.4238;1.2661;-2.4260;
4050828407992933;-9.4262;1.2613;-2.3901;
4050828418098037;-9.4047;1.2517;-2.4141;
4050828428204339;-9.4119;1.2374;-2.4021;
4050828438309547;-9.3879;1.2517;-2.3830;
4050828448414756;-9.3879;1.2470;-2.4356;
4050828458514339;-9.4119;1.2541;-2.4093;
4050828468619547;-9.4143;1.2661;-2.4284;
4050828478724756;-9.4214;1.2446;-2.4236;
4050828488830693;-9.4238;1.2517;-2.3949;
4050828498935901;-9.4095;1.2470;-2.3973;
4050828509041110;-9.4167;1.2709;-2.3997;
4050828519152672;-9.3951;1.2613;-2.4045;
4050828529257881;-9.4143;1.2709;-2.4380;
4050828539363089;-9.4119;1.2589;-2.4380;
4050828549467672;-9.4047;1.2541;-2.4093;
4050828559572881;-9.4071;1.2589;-2.4045;
4050828569678089;-9.4167;1.2613;-2.4308;
4050828579780276;-9.4071;1.2541;-2.4212;
4050828589885485;-9.4167;1.2637;-2.4141;
4050828599990693;-9.4071;1.2760;-2.4308;
4050828610100693;-9.3927;1.2541;-2.4021;
4050828620205901;-9.3927;1.2517;-2.4212;
4050828630311110;-9.3975;1.2589;-2.3973;
4050828640409026;-9.4167;1.2565;-2.3973;
4050828650514235;-9.4023;1.2589;-2.4260;
4050828660619443;-9.3951;1.2613;-2.4332;
4050828670732047;-9.4143;1.2517;-2.3877;
4050828680837256;-9.4214;1.2613;-2.3901;
4050828690942464;-9.3927;1.2661;-2.4356;
4050828701038714;-9.4119;1.2661;-2.4404;
4050828711143922;-9.3927;1.2661;-2.4284;
4050828721249131;-9.4095;1.2589;-2.4069;
4050828731356526;-9.4047;1.2685;-2.4069;
4050828741461735;-9.4167;1.2685;-2.4165;
4050828751566943;-9.4190;1.2446;-2.4236;
4050828761672151;-9.4190;1.2470;-2.4236;
4050828771777360;-9.3879;1.2494;-2.4069;
4050828781882568;-9.3808;1.2879;-2.4165;
4050828791984026;-9.4071;1.2709;-2.4212;
4050828802089183;-9.4119;1.2613;-2.4141;
4050828812194443;-9.4023;1.2470;-2.4356;
4050828822308610;-9.4262;1.2637;-2.4141;
4050828832413818;-9.4047;1.2589;-2.4236;
4050828842519026;-9.3927;1.2565;-2.4212;
4050828852614860;-9.4095;1.2494;-2.4117;
4050828862720068;-9.4119;1.2613;-2.4332;
4050828872825224;-9.4023;1.2494;-2.4356;
4050828882944287;-9.3951;1.2470;-2.4284;
4050828893049547;-9.3975;1.2446;-2.4332;
4050828903154756;-9.3975;1.2470;-2.4260;
4050828913241318;-9.4310;1.2326;-2.4308;
4050828923346526;-9.4047;1.2685;-2.4117;
4050828933451735;-9.3903;1.2736;-2.4260;
4050828943556266;-9.3903;1.2541;-2.4117;
4050828953661474;-9.3975;1.2494;-2.4308;
4050828963766735;-9.4023;1.2446;-2.4141;
4050828973871839;-9.3927;1.2541;-2.3949;
4050828983977047;-9.4190;1.2637;-2.4212;
4050828994082256;-9.4143;1.2613;-2.4380;
4050829004197881;-9.4190;1.2541;-2.4117;
4050829014303037;-9.3975;1.2589;-2.4188;
4050829024408297;-9.4047;1.2398;-2.4188;
4050829034501422;-9.4119;1.2398;-2.4093;
4050829044606631;-9.4214;1.2494;-2.4212;
4050829054711839;-9.4119;1.2685;-2.4356;
4050829064875224;-9.3975;1.2565;-2.4571;
4050829074980433;-9.4023;1.2637;-2.4236;
4050829085085693;-9.4095;1.2589;-2.3949;
4050829095155276;-9.4190;1.2589;-2.4021;
4050829105260485;-9.4071;1.2808;-2.4260;
4050829115365693;-9.4023;1.2661;-2.4117;
4050829125476631;-9.4047;1.2613;-2.4141;
4050829135581839;-9.4095;1.2661;-2.4452;
4050829145687047;-9.3879;1.2541;-2.4260;
4050829155799651;-9.3879;1.2494;-2.4188;
4050829165904808;-9.4047;1.2613;-2.4212;
4050829176010068;-9.3975;1.2494;-2.4212;
4050829186095276;-9.3951;1.2565;-2.4165;
4050829196200485;-9.3903;1.2613;-2.4236;
4050829206305641;-9.4143;1.2398;-2.4141;
4050829216414339;-9.4190;1.2470;-2.4260;
4050829226519547;-9.4095;1.2398;-2.4236;
4050829236624756;-9.4095;1.2589;-2.4141;
4050829246722985;-9.4023;1.2517;-2.3997;
4050829256828193;-9.3975;1.2470;-2.4236;
4050829266933401;-9.4047;1.2613;-2.4045;
4050829277037360;-9.4119;1.2736;-2.4093;
4050829287142568;-9.4071;1.2446;-2.4308;
4050829297247776;-9.3927;1.2350;-2.4260;
4050829307365224;-9.4071;1.2541;-2.4165;
4050829317470381;-9.4071;1.2541;-2.4260;
4050829327575641;-9.3975;1.2517;-2.4141;
4050829337661995;-9.4214;1.2613;-2.4212;
4050829347767203;-9.4167;1.2589;-2.4356;
4050829357872412;-9.4071;1.2613;-2.4212;
4050829367981422;-9.3999;1.2613;-2.4141;
4050829378086631;-9.4119;1.2613;-2.4093;
4050829388191839;-9.4119;1.2661;-2.4236;
4050829398293610;-9.4119;1.2565;-2.4284;
4050829408398818;-9.4119;1.2541;-2.4093;
4050829418504026;-9.4023;1.2903;-2.4308;
4050829428616943;-9.4023;1.2613;-2.4117;
4050829438722099;-9.3951;1.2589;-2.4428;
4050829448827308;-9.4095;1.2470;-2.4284;
4050829458925589;-9.4190;1.2541;-2.4356;
4050829469030745;-9.3999;1.2398;-2.4452;
4050829479135953;-9.4119;1.2446;-2.4404;
4050829489247256;-9.4095;1.2613;-2.4117;
4050829499352412;-9.4167;1.2661;-2.4188;
4050829509457620;-9.4119;1.2685;-2.4284;
4050829519556526;-9.4023;1.2613;-2.4284;
4050829529661683;-9.3879;1.2446;-2.4428;
4050829539766891;-9.3855;1.2398;-2.4260;
4050829549879026;-9.4406;1.2565;-2.4141;
4050829559984183;-9.4071;1.2517;-2.4117;
4050829570089391;-9.4190;1.2613;-2.3949;
4050829580206006;-9.4095;1.2613;-2.3973;
4050829590311162;-9.4190;1.2589;-2.4236;
4050829600416370;-9.4382;1.2517;-2.4212;
4050829610512881;-9.4238;1.2517;-2.4236;
4050829620618037;-9.3927;1.2517;-2.4212;
4050829630723245;-9.4071;1.2517;-2.4093;
4050829640824339;-9.3736;1.2589;-2.3925;
4050829650929495;-9.3832;1.2661;-2.4141;
4050829661034703;-9.3951;1.2446;-2.4021;
4050829671142985;-9.3903;1.2541;-2.4045;
4050829681248141;-9.3927;1.2470;-2.4188;
4050829691353349;-9.4214;1.2470;-2.4093;
4050829701446578;-9.3879;1.2517;-2.4141;
4050829711551735;-9.3832;1.2446;-2.4332;
4050829721656943;-9.4023;1.2302;-2.4093;
4050829731766422;-9.4119;1.2565;-2.4069;
4050829741871578;-9.4262;1.2685;-2.4380;
4050829751976787;-9.3903;1.2541;-2.4212;
4050829762091787;-9.3999;1.2613;-2.4117;
4050829772196995;-9.4095;1.2470;-2.4308;
4050829782302203;-9.3927;1.2350;-2.4356;
4050829792394495;-9.3999;1.2565;-2.4404;
4050829802499651;-9.4023;1.2685;-2.4308;
4050829812604860;-9.3999;1.2760;-2.4093;
4050829822713193;-9.4071;1.2517;-2.3877;
4050829832818349;-9.4119;1.2494;-2.4236;
4050829842923558;-9.4334;1.2589;-2.4356;
4050829853024860;-9.3999;1.2374;-2.4069;
4050829863130016;-9.4071;1.2494;-2.4045;
4050829873235224;-9.4095;1.2470;-2.4165;
4050829883358089;-9.4190;1.2541;-2.4117;
4050829893463245;-9.4262;1.2589;-2.4188;
4050829903568401;-9.3975;1.2470;-2.4141;
4050829913698193;-9.3999;1.2637;-2.4212;
4050829923803401;-9.3975;1.2685;-2.4045;
4050829933908610;-9.4071;1.2565;-2.4021;
4050829943961839;-9.4095;1.2541;-2.4165;
4050829954067047;-9.3975;1.2494;-2.4236;
4050829964172203;-9.3879;1.2613;-2.4260;
4050829974286995;-9.4023;1.2709;-2.4332;
4050829984392203;-9.3999;1.2446;-2.4141;
4050829994497412;-9.4071;1.2494;-2.4141;
4050830004618610;-9.3999;1.2589;-2.4117;
4050830014723766;-9.3784;1.2613;-2.4452;
4050830024828974;-9.4167;1.2494;-2.4188;
4050830034925693;-9.4143;1.2589;-2.4308;
4050830045030849;-9.4143;1.2422;-2.4547;
4050830055136058;-9.4071;1.2422;-2.4476;
4050830065232568;-9.4071;1.2422;-2.4308;
4050830075337724;-9.4095;1.2422;-2.4428;
4050830085442933;-9.4143;1.2470;-2.4308;
4050830095577151;-9.4119;1.2661;-2.4260;
4050830105682308;-9.4143;1.2517;-2.4284;
4050830115787516;-9.4023;1.2422;-2.4236;
4050830125874547;-9.3975;1.2637;-2.4045;
4050830135979703;-9.4238;1.2736;-2.4260;
4050830146084912;-9.4119;1.2589;-2.4260;
4050830156176839;-9.4095;1.2541;-2.4404;
4050830166281995;-9.4286;1.2565;-2.4212;
4050830176387203;-9.3975;1.2494;-2.4188;
4050830186502151;-9.3951;1.2398;-2.4284;
4050830196607308;-9.4023;1.2422;-2.4212;
4050830206712516;-9.4071;1.2637;-2.4117;
4050830216821006;-9.4143;1.2613;-2.4476;
4050830226926162;-9.4262;1.2565;-2.4188;
4050830237031370;-9.4071;1.2589;-2.4069;
4050830247141214;-9.3855;1.2470;-2.4117;
4050830257246370;-9.3927;1.2470;-2.4045;
4050830267351578;-9.4095;1.2470;-2.4308;
4050830277454026;-9.3975;1.2398;-2.4308;
4050830287559183;-9.4190;1.2446;-2.4428;
4050830297664391;-9.4190;1.2589;-2.4500;
4050830307779339;-9.4190;1.2589;-2.4380;
4050830317884495;-9.4023;1.2494;-2.4165;
4050830327989703;-9.4119;1.2494;-2.4308;
4050830338088193;-9.3927;1.2736;-2.4404;
4050830348193349;-9.3975;1.2589;-2.4212;
4050830358298558;-9.4143;1.2685;-2.4093;
4050830368412151;-9.4095;1.2613;-2.4332;
4050830378517308;-9.4047;1.2565;-2.4380;
4050830388622516;-9.3975;1.2446;-2.4045;
4050830398717985;-9.4238;1.2541;-2.4356;
4050830408823141;-9.4023;1.2589;-2.4045;
4050830418928349;-9.3951;1.2541;-2.4428;
4050830429037256;-9.3903;1.2517;-2.4428;
4050830439142464;-9.3832;1.2736;-2.4380;
4050830449247724;-9.3927;1.2565;-2.4260;
4050830459340485;-9.4430;1.1130;-2.4763;
4050830469445693;-9.6921;0.4660;-2.7015;
4050830479550953;-9.7280;0.4926;-2.8140;
4050830489653401;-8.5735;1.2039;-1.2185;
4050830499758610;-9.3664;1.5706;-1.4725;
4050830509863870;-10.3220;2.2005;-3.3123;
4050830519967672;-9.3688;1.9370;-3.2620;
4050830530072881;-8.2190;1.5344;-2.1314;
4050830540178141;-9.2297;1.4722;-2.2678;
4050830550289756;-10.1139;1.8485;-2.7326;
4050830560394964;-9.6969;1.1728;-1.7192;
4050830570512828;-8.9877;0.9404;-2.0692;
4050830580617985;-9.5605;0.9117;-4.2299;
4050830590723245;-9.0909;0.7777;-2.6321;
4050830600828506;-8.6094;1.4124;-1.4390;
4050830610930276;-10.8299;1.8197;-3.2477;
4050830621035485;-9.7735;1.5897;-2.3013;
4050830631140745;-8.0154;0.8853;-1.0415;
4050830641242985;-9.8145;0.7992;-3.7651;
4050830651348193;-9.7448;1.2206;-3.0990;
4050830661453453;-8.5926;1.6137;-0.8282;
4050830671554026;-10.2622;1.5826;-2.8164;
4050830681659287;-9.8671;1.0196;-2.9291;
4050830691764495;-8.3243;0.8782;-1.2257;
4050830701862047;-9.7184;1.0244;-2.8546;
4050830711967256;-9.8480;1.1417;-3.1615;
4050830722072516;-8.9518;1.1895;-1.6068;
4050830732185693;-9.7854;1.1632;-2.2678;
4050830742290901;-9.6036;1.1154;-2.7494;
4050830752396162;-9.0359;1.0484;-2.1362;
4050830762477464;-9.5028;1.0819;-2.3853;
4050830772582724;-9.4454;1.2254;-2.5457;
4050830782687933;-9.4358;1.4195;-2.5170;
4050830792811422;-9.5076;1.4076;-2.3180;
4050830802916631;-9.1890;1.3621;-2.1625;
4050830813021891;-9.5291;1.3358;-2.7661;
4050830823124547;-9.2898;1.4698;-2.5002;
4050830833229756;-8.5902;2.1957;-1.9851;
4050830843335016;-9.1723;3.3215;-3.1301;
4050830853446787;-9.8384;3.4774;-3.2046;
4050830863552047;-9.0048;2.3994;-2.3973;
4050830873657308;-9.4430;0.6505;-2.5839;
4050830883831370;-9.2058;0.1810;-1.4127;
4050830893936631;-9.2369;0.5907;-0.1071;
4050830904041891;-10.4994;0.9141;-1.7001;
4050830914083714;-10.2838;0.8423;-3.2548;
4050830924188922;-8.7604;0.4181;-3.3697;
4050830934294183;-9.1866;0.2530;-4.1411;
4050830944415433;-9.7113;0.1020;-3.4848;
4050830954520693;-9.4190;0.1235;-1.5108;
4050830964625953;-9.5581;0.6338;-1.2138;
4050830974693401;-9.7854;1.1512;-2.1242;
4050830984798610;-9.2130;1.4028;-2.8499;
4050830994903870;-9.0096;1.5897;-3.4155;
4050831005013818;-9.1388;1.8867;-3.1807;
4050831015119026;-9.3377;2.2172;-2.1864;
4050831025224287;-9.4262;2.3659;-1.2930;
4050831035328610;-9.3162;2.0471;-1.2185;
4050831045433818;-9.4454;1.6400;-2.2510;
4050831055539078;-9.3257;1.2975;-2.9578;
4050831065676318;-9.2034;0.8830;-2.8765;
4050831075781526;-9.6849;0.5070;-2.8717;
4050831085886787;-9.8025;0.2124;-2.2510;
4050831095957881;-9.6730;0.1451;-1.7767;
4050831106063089;-9.6491;0.3870;-2.4428;
4050831116168349;-9.2683;0.5740;-2.8427;
4050831126296735;-9.3473;0.6936;-2.8669;
4050831136401943;-9.4382;0.9236;-2.7972;
4050831146507203;-9.4454;1.2760;-2.2558;
4050831156603401;-9.3377;1.7189;-1.9325;
4050831166708610;-9.4908;1.7764;-2.2630;
4050831176813870;-9.2465;1.7979;-2.5457;
4050831186919443;-9.1531;1.8003;-2.6871;
4050831197024651;-9.3568;1.6232;-2.6919;
4050831207129912;-9.3568;1.4602;-2.3447;
4050831217214131;-9.4669;1.2494;-2.1864;
4050831227319339;-9.5148;0.9882;-2.3877;
4050831237424599;-9.4190;0.8183;-2.6297;
4050831247566839;-9.4143;0.6673;-2.8379;
4050831257672047;-9.4837;0.6888;-2.8283;
4050831267777308;-9.2225;1.2230;-2.4571;
4050831277867047;-9.3808;3.3718;-3.1950;
4050831287972256;-9.2803;2.0112;-2.3447;
4050831298077516;-8.9447;1.6759;-2.2774;
4050831308191474;-9.8432;1.4578;-2.8642;
4050831318296683;-9.6491;2.2364;-4.0406;
4050831328401943;-8.9782;3.1107;-4.1028;
4050831338492360;-9.3353;2.9551;-2.4858;
4050831348597568;-9.7017;1.8915;-1.1276;
4050831358702828;-9.4382;1.2760;-1.3433;
4050831368814912;-9.0431;1.2517;-2.4260;
4050831378920120;-9.0311;1.2709;-3.0703;
4050831389025381;-9.1890;2.0734;-2.9363;
4050831399137151;-9.2584;3.1322;-1.8464;
4050831409242360;-9.4214;3.3742;-1.5470;
4050831419347620;-9.3233;3.1540;-2.1410;
4050831429446839;-8.9662;2.8786;-2.5648;
4050831439552047;-9.0742;2.7706;-2.9650;
4050831449657308;-9.5725;3.0604;-3.1711;
4050831459758922;-9.4741;2.8208;-2.2415;
4050831469864131;-9.1675;2.3444;-1.7934;
4050831479969391;-9.1627;2.1909;-2.0617;
4050831490079651;-9.2058;2.1048;-2.1314;
4050831500184860;-9.3544;1.9729;-2.2869;
4050831510290120;-9.5510;1.8173;-2.6058;
4050831520378922;-9.4286;1.4794;-2.4332;
4050831530484131;-9.1651;1.0771;-1.9923;
4050831540589391;-9.2632;0.6266;-1.5179;
4050831550719964;-9.5076;-0.2261;-1.9134;
4050831560825172;-9.6610;0.3081;-2.6082;
4050831570930433;-9.1364;-0.6048;-3.1759;
4050831581018870;-9.5581;-0.7771;-1.9086;
4050831591123974;-9.6682;-0.8297;-1.0630;
4050831601229078;-9.5605;-0.1017;-1.2305;
4050831611341683;-9.4932;0.7968;-2.0426;
4050831621446787;-9.4310;1.1752;-2.9506;
4050831631551891;-9.5629;0.7872;-3.3840;
4050831641644183;-9.6634;-1.4503;-2.2750;
4050831651749287;-9.5462;-1.3878;-2.5193;
4050831661854391;-9.5629;-1.4073;-2.0163;
4050831671972412;-9.6586;-1.3184;-1.5757;
4050831682077568;-9.7519;-1.8263;-1.5589;
4050831692182620;-9.7376;-1.8909;-2.0545;
4050831702280849;-9.5243;-1.5796;-2.6345;
4050831712385953;-9.4573;-0.9544;-2.9698;
4050831722491058;-9.4430;-0.7196;-2.5122;
4050831732597412;-9.4789;-0.2453;-2.3276;
4050831742702568;-9.4406;0.2387;-2.3399;
4050831752807620;-9.2536;1.2206;-2.5935;
4050831762914599;-9.2707;1.8269;-2.7757;
4050831773019703;-9.3114;2.1215;-2.8956;
4050831783124808;-9.4454;1.8293;-2.7063;
4050831793218193;-9.3568;1.6113;-2.5887;
4050831803323245;-9.0263;1.7453;-3.0727;
4050831813428349;-8.7532;1.7955;-3.2955;
4050831823533766;-9.0718;2.4138;-3.2812;
4050831833638922;-9.4143;1.7883;-3.3123;
4050831843743974;-9.4406;0.4277;-2.5361;
4050831853850953;-9.3927;0.0087;-2.7302;
4050831863956058;-9.2656;-0.1639;-3.2309;
4050831874061162;-9.1986;-0.1232;-2.9602;
4050831884223141;-9.4645;0.1403;-2.6417;
4050831894328245;-9.5821;-0.2596;-2.9315;
4050831904433349;-9.4621;-0.9736;-3.0942;
4050831914480328;-9.3640;-1.5102;-2.6560;
4050831924585433;-9.3784;-1.9244;-2.0859;
4050831934690537;-9.4597;-2.0276;-1.9540;
4050831944793610;-9.4382;-1.1486;-2.3901;
4050831954898662;-9.3592;-0.7890;-2.4739;
4050831965003766;-9.5076;-0.6144;-2.4835;
4050831975109026;-9.6443;-0.7986;-2.1529;
4050831985214078;-9.7376;-0.8249;-2.1218;
4050831995319183;-9.6012;-0.5830;-2.3133;
4050832005448870;-9.4214;-0.4896;-2.4978;
4050832015553974;-9.4023;-0.3867;-2.6776;
4050832025659078;-9.4310;-0.4729;-2.6991;
4050832035779287;-9.3736;-0.3580;-2.6895;
4050832045884391;-9.3712;-0.1424;-2.7446;
4050832055989495;-9.3975;0.0135;-2.7039;
4050832066082516;-9.4741;-0.0464;-2.4787;
4050832076187620;-9.4956;-0.1137;-2.4165;
4050832086292724;-9.4190;-0.2716;-2.4236;
4050832096387308;-9.3377;-0.3437;-2.4476;
4050832106492412;-9.3281;-0.2142;-2.5552;
4050832116597516;-9.3568;0.0039;-2.7302;
4050832126706266;-9.3879;0.2219;-2.7852;
4050832136811370;-9.3640;0.4110;-2.7589;
4050832146916474;-9.3425;0.4831;-2.8693;
4050832157024808;-9.2683;0.4711;-2.8475;
4050832167129912;-9.2010;0.4397;-2.7446;
4050832177235016;-9.2393;0.3870;-2.6943;
4050832187331995;-9.3592;0.3105;-2.6632;
4050832197437099;-9.4071;0.2148;-2.6536;
4050832207542203;-9.3784;0.1307;-2.6560;
4050832217643870;-9.3712;-0.1065;-2.5911;
4050832227748974;-9.3377;-0.4825;-2.5098;
4050832237854078;-9.2994;-0.5566;-2.5481;
4050832247960693;-9.3233;-0.2764;-2.7494;
4050832258065797;-9.3712;-0.2070;-2.7637;
4050832268170901;-9.3664;-0.2309;-2.8307;
4050832278270276;-9.2898;-0.2333;-2.9913;
4050832288375328;-9.1699;-0.4394;-2.9770;
4050832298480433;-9.1244;-0.6622;-2.8427;
4050832308613089;-9.3592;-0.9018;-2.7517;
4050832318718193;-9.1149;-2.0372;-2.0593;
4050832328823297;-9.6299;-0.2022;-1.7599;
4050832338906683;-10.1545;-1.0932;-2.0859;
4050832349011787;-10.2909;-2.2528;-1.2066;
4050832359116891;-9.5510;-0.8656;-1.9660;
4050832369198974;-8.5878;-1.4169;-2.1888;
4050832379304078;-10.7749;0.3344;-3.6790;
4050832389409183;-7.3660;-1.8670;-2.2056;
4050832399541891;-7.0977;-0.9736;-0.7421;
4050832409646995;-11.9151;0.9523;-4.4477;
4050832419752099;-10.1258;-2.4805;-3.2572;
4050832429862308;-8.8226;-1.2826;-2.7470;
4050832439967412;-9.7998;-1.7641;-3.5303;
4050832450072516;-9.4167;-0.8417;-3.1711;
4050832460171787;-8.1876;-1.0310;-2.8355;
4050832470276891;-8.8633;-0.7938;-3.7914;
4050832480381995;-9.5629;-0.6837;-3.2764;
4050832490483558;-9.5510;-1.1171;-3.0823;
4050832500588662;-10.0011;-1.4695;-3.6694;
4050832510693766;-9.4262;-1.3902;-3.0320;
4050832520792672;-8.3937;-1.6178;-2.3662;
4050832530897724;-8.7796;-1.6418;-2.9291;
4050832541002828;-9.5533;-1.3950;-2.9913;
4050832551110172;-10.0923;-1.5939;-2.8355;
4050832561215224;-10.2144;-1.8431;-2.9626;
4050832571320328;-9.3090;-1.9244;-2.8642;
4050832581452724;-8.4945;-1.8431;-3.0751;
4050832591557828;-8.8418;-1.5150;-3.2596;
4050832601662933;-9.1914;-1.3615;-2.5002;
4050832611744912;-9.4693;-1.4288;-2.3973;
4050832621849964;-9.8815;-1.3998;-2.9578;
4050832631955068;-9.4813;-1.2897;-2.6130;
4050832642061839;-9.2922;-1.0813;-2.6752;
4050832652166891;-9.1866;-0.8779;-2.8741;
4050832662271995;-8.8131;-0.8010;-2.2271;
4050832672386526;-9.2656;-0.8922;-2.2965;
4050832682491631;-10.0155;-0.9975;-3.1038;
4050832692596735;-9.6515;-0.9377;-3.0129;
4050832702686006;-8.9471;-0.5423;-3.0224;
4050832712791058;-9.3257;-0.2022;-3.6619;
4050832722896162;-9.6108;-0.0081;-3.0775;
4050832733007828;-9.2034;-0.0802;-1.8823;
4050832743112881;-9.3401;-0.2572;-2.0836;
4050832753217985;-9.1173;-0.1615;-2.5289;
4050832763338662;-8.6524;-0.0320;-2.7350;
4050832773443766;-9.3688;0.2435;-3.7244;
4050832783548870;-9.9748;0.3894;-3.3673;
4050832793650485;-9.7759;-0.0320;-1.7216;
4050832803755537;-9.5940;-0.2835;-1.2667;
4050832813860693;-9.4262;-0.7675;-1.9780;
4050832823941839;-9.5821;-1.3543;-3.2453;
4050832834046943;-9.4669;-1.5317;-3.2668;
4050832844151995;-9.0144;-1.7402;-2.0788;
4050832854279391;-9.3855;-2.2911;-1.9540;
4050832864384495;-9.7926;-2.6480;-2.4188;
4050832874489599;-9.1962;-2.7966;-1.8703;
4050832884583974;-9.2321;-3.0147;-1.7551;
4050832894689078;-10.1450;-3.2085;-2.0258;
4050832904794183;-9.7280;-3.1893;-1.5924;
4050832914919078;-9.1627;-3.3308;-2.0450;
4050832925024183;-9.2584;-3.6326;-2.9937;
4050832935129287;-9.4406;-3.7235;-2.6728;
4050832945213870;-9.8216;-3.6326;-1.9660;
4050832955318974;-10.0971;-3.4409;-1.3193;
4050832965424078;-9.3473;-3.4241;-1.0008;
4050832975529026;-9.2321;-3.1750;-1.7503;
4050832985634078;-9.1723;-1.9439;-2.7398;
4050832995739183;-8.7724;-1.1267;-2.7757;
4050833005851370;-9.1795;-0.4585;-3.2070;
4050833015956474;-9.3975;0.0350;-3.1110;
4050833026061578;-9.6945;0.3942;-2.5481;
4050833036177672;-9.1077;1.2039;-2.6919;
4050833046282776;-8.3818;1.4195;-3.3505;
4050833056387881;-9.0574;1.6256;-4.0214;
4050833066477568;-10.0418;2.0710;-3.3027;
4050833076582672;-9.4454;1.9609;-2.1075;
4050833086687724;-8.5328;1.4363;-2.7900;
4050833096793349;-9.0718;1.0196;-3.9999;
4050833106898453;-9.6299;1.3549;-3.1950;
4050833117003558;-8.8896;1.6687;-2.5098;
4050833127108974;-9.3329;1.1919;-3.5183;
4050833137214078;-9.3425;0.8997;-3.3529;
4050833147319183;-8.6596;0.8160;-2.3853;
4050833157425433;-9.3018;0.4588;-3.0153;
4050833167530537;-9.7161;0.1355;-3.5614;
4050833177635641;-9.5028;0.0135;-3.5686;
4050833187739026;-9.5172;-0.4513;-3.4250;
4050833197844131;-9.1460;-0.9808;-2.7063;
4050833207949235;-8.3937;-1.2251;-2.1075;
4050833218057308;-9.0239;-1.3783;-2.6489;
4050833228162412;-9.6012;-1.0573;-2.9794;
4050833238267516;-9.3401;-0.3461;-2.4930;
4050833248378558;-9.4597;-0.4633;-2.4141;
4050833258483662;-9.6778;-0.1854;-3.0176;
4050833268588766;-9.4597;0.3727;-3.1591;
4050833278694599;-9.4502;0.8255;-3.4083;
4050833288799703;-9.0000;0.8901;-3.7842;
4050833298904808;-8.8896;0.8901;-4.0860;
4050833309016266;-8.5448;1.3190;-3.8297;
4050833319121370;-7.6920;1.6256;-3.6141;
4050833329226474;-8.4009;1.3836;-4.4070;
4050833339338974;-10.7103;1.5344;-4.8096;
4050833349444078;-10.1234;1.9131;-3.4418;
4050833359549183;-8.4368;0.8662;-2.8789;
4050833369646943;-8.9375;0.2195;-4.1435;
4050833379752360;-9.4167;-0.3290;-4.7856;
4050833389857828;-9.1914;-0.5016;-4.8550;
4050833399960693;-9.3616;-0.6479;-4.0884;
4050833410066110;-9.0479;-0.1759;-2.1769;
4050833420171578;-8.4849;0.1379;-0.8019;
4050833430270172;-9.6467;-0.0655;-2.4141;
4050833440375589;-10.2479;-0.4944;-4.6131;
4050833450481058;-9.0622;-0.5183;-4.8048;
4050833460584860;-8.1015;-0.4059;-3.9903;
4050833470690276;-8.1565;-0.1376;-2.8717;
4050833480795745;-8.1565;0.1546;-1.7815;
4050833490898089;-8.9040;0.0326;-2.2798;
4050833501003506;-11.2780;-0.3099;-3.9015;
4050833511108974;-11.1607;0.0111;-3.8225;
4050833521202568;-8.9303;0.3129;-3.0488;
4050833531307985;-8.8155;-0.1280;-3.8919;
4050833541413453;-8.1254;0.4062;-3.2524;
4050833551529912;-7.3636;1.4459;-1.6187;
4050833561635328;-8.5759;2.1359;-2.0067;
4050833571740797;-10.2239;1.8652;-4.4285;
4050833581845068;-10.9283;1.4650;-6.4385;
4050833591950485;-9.1149;1.8413;-5.2190;
4050833602055953;-8.2837;2.2292;-4.2993;
4050833612156526;-9.1747;2.6653;-3.9473;
4050833622261943;-7.6199;3.2689;-1.8559;
4050833632367412;-8.7413;3.3287;-1.7192;
4050833642446318;-10.2742;3.1588;-4.0190;
4050833652551787;-10.1258;2.9791;-6.2252;
4050833662657203;-10.9259;2.8519;-6.0936;
4050833672798974;-8.8466;3.0365;-3.9449;
4050833682904495;-7.7853;2.1407;-2.6680;
4050833693009912;-8.4440;2.0856;-2.4882;
4050833703092464;-7.3684;1.9992;-2.6369;
4050833713197881;-5.3037;1.9992;-4.3017;
4050833723303349;-9.0718;1.5538;-7.0181;
4050833733414964;-13.8245;0.7271;-6.8097;
4050833743520381;-10.7845;0.3799;-4.4070;
4050833753625849;-9.1125;-0.4681;-2.9626;
4050833763774078;-7.8236;-0.1711;-1.7934;
4050833773879495;-7.1483;0.1522;-0.7875;
4050833783984964;-7.8523;-0.3748;-2.8693;
4050833794043401;-11.1990;-0.3218;-5.5376;
4050833804148818;-11.6731;-0.1304;-4.6035;
4050833814254287;-9.6778;-0.2453;-2.9148;
4050833824401735;-8.6788;0.3057;-4.3807;
4050833834507151;-8.5663;0.7394;-5.0683;
4050833844612620;-7.0379;1.0938;-3.3386;
4050833854680641;-6.9470;1.1704;-3.6523;
4050833864786058;-9.0574;1.3238;-5.3222;
4050833874891526;-10.0947;2.0809;-4.6825;
4050833884993193;-9.3688;2.7467;-3.7077;
4050833895098610;-8.3865;2.7132;-4.2778;
4050833905204078;-8.6740;2.7060;-5.2959;
4050833915327724;-9.3449;2.8810;-5.6480;
4050833925433141;-9.1268;3.3263;-5.0563;
4050833935538610;-8.3172;3.7983;-4.1148;
4050833945646735;-7.2368;3.8366;-3.6332;
4050833955752151;-8.5328;3.7720;-4.1124;
4050833965857620;-10.3173;4.2942;-3.4490;
4050833975942828;-9.9102;4.4330;-0.5695;
4050833986048245;-6.8055;3.5970;-0.2605;
4050833996153714;-8.2860;3.2761;-3.7723;
4050834006318141;-10.8395;3.2210;-5.0755;
4050834016423610;-10.4492;1.3836;-1.5900;
4050834026529078;-6.5372;0.0589;-0.5743;
4050834036572568;-5.6821;0.2291;-3.4537;
4050834046677985;-9.2608;-0.8082;-4.6561;
4050834056783453;-10.1378;-2.2337;-3.1110;
4050834066875693;-9.9700;-1.4503;-2.0474;
4050834076981110;-10.9953;-0.3724;-3.0248;
4050834087086578;-10.1210;-0.4729;-3.4274;
4050834097204912;-10.5497;-1.1892;-3.5279;
4050834107310328;-10.8323;-0.9090;-2.1314;
4050834117415797;-8.2286;-0.0849;-1.1563;
4050834127524026;-8.5041;-1.0789;-3.0248;
4050834137629443;-11.7930;-2.0683;-2.8044;
4050834147734912;-9.7113;-1.0525;-0.7397;
4050834157839964;-9.4956;-1.4695;-2.2175;
4050834167945381;-10.5353;-2.6145;-3.0368;
4050834178050849;-9.3640;-2.3581;-2.9219;
4050834188161526;-8.5472;-1.4623;-2.3566;
4050834198266943;-8.5735;-1.7665;-2.5935;
4050834208372412;-10.8876;-1.3687;-2.8693;
4050834218463922;-9.5797;-0.4202;-0.2342;
4050834228569339;-7.1192;-0.5040;-1.4246;
4050834238674808;-10.5855;-0.6383;-4.8359;
4050834248793297;-11.5439;-0.7484;-3.0392;
4050834258898714;-8.2932;-0.6431;-0.5910;
4050834269004183;-8.4754;-1.3807;-2.9650;
4050834279100276;-9.9413;-1.7689;-4.5867;
4050834289205693;-11.6611;-0.6861;-2.9459;
4050834299311162;-6.9876;-0.5686;-0.7636;
4050834309432724;-7.6056;-0.5566;-4.5150;
4050834319538141;-10.7175;0.5453;-5.7389;
4050834329643610;-8.1541;0.0087;-2.1410;
4050834339725485;-11.0671;-0.7125;-1.3504;
4050834349830901;-11.3115;-0.2022;-2.5002;
4050834359936370;-8.0847;-0.0296;-1.2811;
4050834370043037;-8.9662;-0.5231;-2.4476;
4050834380148141;-9.9772;-0.3389;-4.1626;
4050834390253245;-8.1733;-0.0129;-3.8010;
4050834400364287;-8.8801;-0.0921;-3.6885;
4050834410469391;-11.5295;-0.4896;-4.2586;
4050834420574495;-9.4238;-0.8321;-0.9000;
4050834430681162;-6.6858;-0.9927;-0.7756;
4050834440786266;-10.1809;-0.0440;-6.6326;
4050834450891370;-12.4783;0.5883;-5.6599;
4050834460993558;-4.3573;-0.4561;1.0786;
4050834471098662;-8.3842;-0.5207;-2.5720;
4050834481203766;-12.3105;1.2182;-7.1450;
4050834491310224;-7.2918;1.3717;-4.0813;
4050834501415328;-7.2440;0.9547;-3.7125;
4050834511520433;-11.8552;1.5081;-7.3056;
4050834521622360;-10.6050;1.8461;-6.7259;
4050834531727412;-7.5386;0.1235;-2.8980;
4050834541832516;-7.9603;0.2985;-3.1735;
4050834551946787;-7.7207;1.2760;-4.1746;
4050834562051943;-8.8848;1.0938;-5.5017;
4050834572156995;-11.3043;1.6950;-6.8408;
4050834582266683;-8.2908;1.9202;-5.6527;
4050834592371787;-8.3387;0.6745;-4.4644;
4050834602476891;-9.0574;0.7490;-4.4910;
4050834612568401;-8.5352;0.3703;-6.0503;
4050834622673453;-12.8782;0.1020;-6.2563;
4050834632778558;-11.1727;0.4229;-4.3304;
4050834642880016;-9.5725;-0.0778;-4.3400;
4050834652985120;-2.6279;-0.5183;-4.3280;
4050834663090224;-2.0698;1.0101;-5.4275;
4050834673185433;-9.8527;2.6797;-8.1368;
4050834683290537;-10.7462;3.0102;-5.8301;
4050834693395589;-10.1306;1.4291;-6.9823;
4050834703507828;-9.0718;2.0088;-8.5490;
4050834713612933;-11.6420;1.7094;-5.3055;
4050834723718037;-7.7782;0.5572;-1.5972;
4050834733827256;-6.9374;2.0160;-3.6117;
4050834743932308;-7.1049;1.4076;-3.6332;
4050834754037464;-7.3828;1.9083;-2.5361;
4050834764153818;-9.8719;1.5009;-2.4787;
4050834774258922;-8.8872;1.8150;-2.9913;
4050834784364026;-11.4218;2.2101;-6.9033;
4050834794460745;-10.9044;2.4951;-5.2693;
4050834804565849;-8.2741;1.9226;-1.7216;
4050834814670953;-7.8212;1.3741;-1.2619;
4050834824798974;-6.2785;0.6649;-3.8512;
4050834834904078;-8.6812;1.6807;-6.2157;
4050834845009183;-8.0130;2.4257;-4.8359;
4050834855069860;-7.6729;4.2344;-2.9626;
4050834865174912;-9.4023;4.6056;-2.9076;
4050834875280016;-6.5827;5.6046;-2.6441;
4050834885430328;-10.2000;4.5817;-5.0827;
4050834895535433;-10.1641;4.0044;-0.1454;
4050834905640537;-5.8570;1.6663;3.5267;
4050834915744026;-9.2058;2.6701;-4.6633;
4050834925849131;-17.4751;2.6222;-6.6470;
4050834935954235;-11.6204;1.8820;0.7026;
4050834946038245;-5.0880;0.7753;0.4008;
4050834956143297;-8.6189;2.2172;-2.4643;
4050834966248401;-10.6289;0.5668;-1.6331;
4050834976354651;-11.1559;0.1499;-0.4857;
4050834986459703;-10.8781;-1.3783;0.1373;
4050834996564808;-12.7367;-0.7819;-1.9732;
4050835006672828;-12.0039;-3.1032;0.9182;
4050835016777933;-8.0178;-2.5642;0.0799;
4050835026883037;-9.7902;-2.2481;-0.9431;
4050835036987776;-11.4960;-2.1305;-0.1741;
4050835047092828;-8.5902;-2.9115;0.7361;
4050835057197933;-8.7628;-2.9402;-0.3682;
4050835067329391;-12.8758;-2.6504;-0.8761;
4050835077434495;-11.4386;-2.6384;-1.1492;
4050835087539599;-9.0048;-0.9090;-2.8379;
4050835097623245;-11.0336;-0.7795;-4.3902;
4050835107728349;-9.6610;-0.0778;-1.6786;
4050835117833453;-8.5543;-1.2347;-1.5084;
4050835127944391;-6.1349;0.4349;-2.1147;
4050835138049495;-10.9786;-0.2764;-2.4332;
4050835148154599;-9.8456;-0.2357;-1.0774;
4050835158260693;-9.0024;-0.6144;-1.9660;
4050835168365797;-9.6993;0.6027;-2.6967;
4050835178470901;-9.1149;-0.1472;-3.0272;
4050835188575120;-10.5185;0.2028;-3.2812;
4050835198680224;-9.0622;0.7418;-3.4585;
4050835208785328;-7.9962;0.0039;-3.9592;
4050835218886474;-8.8561;1.3119;-3.6790;
4050835228991578;-9.9126;0.3224;-3.1663;
4050835239096683;-9.8575;1.7022;-3.6093;
4050835249204599;-8.6166;1.3023;-4.4620;
4050835259309703;-9.7783;1.8652;-4.3137;
4050835269414808;-7.7590;0.7729;-3.2142;
4050835279518453;-8.7242;1.9178;-3.4322;
4050835289623558;-10.5018;1.1417;-3.4107;
4050835299728662;-11.3354;2.5143;-3.6188;
4050835309844078;-7.8188;1.0914;-1.9445;
4050835319949183;-7.9170;2.0495;-1.9636;
4050835330054287;-9.9461;2.0904;-1.9349;
4050835340140849;-9.8839;2.3273;-1.5876;
4050835350245953;-6.4510;2.8161;-2.4619;
4050835360351058;-9.5100;2.5549;-4.7016;
4050835370469860;-10.5042;2.6222;-4.9220;
4050835380575120;-8.7628;1.8245;-3.0488;
4050835390680381;-6.5997;1.6615;-4.1172;
4050835400781839;-9.2249;1.9083;-5.4586;
4050835410887099;-12.5309;0.6362;-3.8297;
4050835420992360;-8.8513;-1.8574;-1.0319;
4050835431095693;-5.1383;-2.4805;-1.2377;
4050835441200953;-9.8623;-2.3964;-2.6225;
4050835451306214;-11.1054;-2.3844;-2.7398;
4050835461413610;-9.9006;-3.7235;-2.9124;
4050835471518870;-7.8500;-2.7389;-4.4644;
4050835481624131;-12.2339;-3.4792;-5.6934;
4050835491719912;-12.0972;-4.4925;-2.4763;
4050835501825172;-3.0541;-3.8506;-3.0153;
4050835511930433;-5.9216;-2.6982;-8.3548;
4050835522029599;-13.7979;-2.0468;-6.9153;
4050835532134912;-8.0225;-3.3188;-1.8703;
4050835542240172;-5.8355;-1.4886;-3.2213;
4050835552354756;-10.9905;0.0900;-8.5944;
4050835562460016;-14.1909;0.9667;-5.7317;
4050835572565276;-6.4295;-0.5279;-1.8751;
4050835582671943;-4.2018;0.9452;-3.7771;
4050835592777203;-10.2718;1.3047;-7.9813;
4050835602882464;-9.8432;1.9872;-4.9723;
4050835612988818;-11.2014;1.4985;-3.4442;
4050835623094078;-9.3879;2.1048;-2.8379;
4050835633199339;-7.2870;2.3417;-4.4620;
4050835643339183;-7.0690;3.6114;-8.2998;
4050835653444495;-8.4440;3.3838;-7.9789;
4050835663549756;-8.3172;2.1048;-7.0110;
4050835673625224;-10.7294;0.8183;-4.3687;
4050835683730537;-12.0589;0.2124;-1.3313;
4050835693835797;-11.2038;-0.3437;-2.2247;
4050835703916370;-9.8240;0.0278;-2.0617;
4050835714021631;-8.9782;-0.5040;-4.2826;
4050835724126943;-9.1531;0.3344;-3.6885;
4050835734257360;-8.9495;-0.7842;0.2976;
4050835744362620;-7.9627;-2.7150;-0.0712;
4050835754467881;-7.9747;-0.7555;-1.5613;
4050835764578297;-7.9914;-3.0984;0.6308;
4050835774683558;-10.2000;-2.7197;0.6739;
4050835784788818;-9.4382;-0.7890;-0.1023;
4050835794897308;-6.9326;-1.6609;-0.3658;
4050835805002568;-13.3334;0.1546;-1.7961;
4050835815107828;-13.7979;-1.3304;-0.3132;
4050835825186006;-9.6778;-1.1291;2.4224;
4050835835291266;-6.0054;-2.4658;3.1890;
4050835845396526;-5.4999;-1.9654;2.8346;
4050835855516006;-8.3363;-0.3867;3.0790;
4050835865621266;-17.0919;-0.1591;0.1229;
4050835875726526;-20.2083;2.4832;-0.5408;
4050835885838193;-13.7644;2.0662;0.7983;
4050835895943453;-7.6753;1.2589;3.6993;
4050835906048714;-4.7815;2.3922;3.5916;
4050835916153297;-8.8705;3.4558;3.1795;
4050835926258558;-8.7867;2.1120;4.0394;
4050835936363818;-9.1651;3.6858;-2.7350;
4050835946462672;-13.1608;6.9772;-7.8852;
4050835956567933;-12.2049;6.7400;-3.3003;
4050835966673193;-8.3674;3.7720;2.8801;
4050835976780172;-10.5377;5.0417;0.6739;
4050835986885433;-11.4386;3.0748;0.6882;
4050835996990693;-7.6872;0.7992;3.4717;
4050836007090537;-8.2645;-0.4537;0.9829;
4050836017195849;-9.1268;3.7959;-6.0550;
4050836027301110;-9.9652;5.1063;-9.5166;
4050836037407881;-10.3244;4.4019;-7.0373;
4050836047513141;-8.4177;-0.8680;0.6834;
4050836057618401;-9.7854;-1.9316;2.0680;
4050836067727881;-12.2507;-0.7436;0.3960;
4050836077833141;-8.1350;-0.4681;-1.3146;
4050836087938401;-8.6142;-0.3724;-5.4826;
4050836098038297;-10.1545;-1.7330;-4.4501;
4050836108143558;-8.8872;-3.0096;0.7959;
4050836118248818;-9.6060;-1.0310;-2.4188;
4050836128357985;-10.5784;1.3789;-4.9819;
4050836138463245;-10.1282;0.0446;-4.4767;
4050836148568506;-10.0035;-0.1687;-0.9168;
4050836158674860;-5.4138;-1.1629;1.3732;
4050836168780120;-8.9136;2.2842;-3.5638;
4050836178885381;-10.5162;2.9384;-7.1426;
4050836188981943;-7.5362;1.2039;-4.5772;
4050836199087203;-14.0758;1.9346;-6.6781;
4050836209192464;-10.7749;1.3836;-3.1229;
4050836219301631;-3.9957;-0.6550;0.9302;
4050836229406891;-7.9050;2.8232;-5.4921;
4050836239512151;-12.8423;1.3406;-5.7939;
4050836249621214;-9.7041;-1.3280;-0.2127;
4050836259726474;-8.9112;1.0220;-2.8116;
4050836269831735;-7.3301;2.4592;-6.6254;
4050836279932985;-10.4228;-0.8034;-5.2095;
4050836290038245;-9.5725;-0.5734;-3.8680;
4050836300143506;-8.1446;0.1738;-5.0492;
4050836310262151;-7.9531;1.9490;-6.5533;
4050836320367412;-9.1843;0.6864;-7.1477;
4050836330472672;-8.8537;0.8495;-4.3137;
4050836340558401;-8.6285;0.6362;-3.3266;
4050836350663662;-10.0875;1.6304;-2.7446;
4050836360768922;-9.8982;0.7319;-1.7001;
4050836370881995;-8.6668;1.0268;-4.5150;
4050836380987203;-8.4849;1.3549;-5.0133;
4050836391092464;-6.4534;-1.3759;-2.8403;
4050836401194443;-9.5438;0.1522;-2.0019;
4050836411299651;-12.1307;-1.6083;-1.9636;
4050836421404912;-11.3378;-1.4719;2.3841;
4050836431504756;-7.4524;-3.6661;3.2560;
4050836441609964;-9.2297;-1.2132;0.1684;
4050836451715224;-10.3941;-1.8359;-3.7842;
4050836461823089;-9.0957;-0.6550;-1.7985;
4050836471928297;-10.7318;-1.2897;-0.5360;
4050836482033558;-12.5189;-0.7053;-1.1133;
4050836492137881;-9.2513;-0.7125;0.6308;
4050836502243141;-10.8347;-1.4169;3.8982;
4050836512348349;-8.9375;-3.8267;9.0006;
4050836522447881;-9.9939;-1.8096;4.9475;
4050836532553141;-11.3593;0.3894;-2.7852;
4050836542658401;-12.8471;0.8471;-4.4166;
4050836552767776;-10.2168;-1.2538;1.5697;
4050836562873037;-8.2143;-0.7364;5.3641;
4050836572978245;-10.5401;-0.7675;2.8418;
4050836583075172;-12.1834;0.6218;2.1302;
4050836593180433;-12.0087;0.9165;3.6706;
4050836603285641;-8.5280;1.3334;3.8934;
4050836613395276;-10.4803;3.6784;-3.1448;
4050836623500485;-12.3966;3.3694;-4.3878;
4050836633605745;-8.5615;0.8949;0.8749;
4050836643754703;-7.2033;0.8279;1.0570;
4050836653859964;-11.9895;3.2665;-3.8752;
4050836663965224;-11.2588;3.6688;-4.5867;
4050836674043193;-9.0526;3.0700;-0.7875;
4050836684148453;-8.3602;2.4473;0.1636;
4050836694253714;-8.9207;2.1431;-3.4418;
4050836704354599;-11.3833;0.8423;-5.6623;
4050836714459860;-9.8695;-0.2333;-2.4547;
4050836724565120;-7.9146;-0.4035;-1.2930;
4050836734671162;-10.7940;0.1451;-2.1410;
4050836744776422;-9.0335;-0.6718;0.2163;
4050836754881683;-6.9159;-0.5758;0.7576;
4050836764965901;-12.2937;1.1632;-5.1855;
4050836775071110;-9.9532;1.2230;-4.9771;
4050836785176370;-12.9165;0.6434;-2.7637;
4050836795289651;-7.5936;-1.0956;0.6643;
4050836805394912;-0.3784;1.2015;-4.3735;
4050836815500120;-11.1799;3.6138;-9.7011;
4050836825606422;-10.8562;0.0733;-3.3864;
4050836835711631;-8.9399;-2.2768;3.4932;
4050836845816891;-12.3057;-0.0416;-0.5743;
4050836855914860;-10.8108;0.9093;-3.6332;
4050836866020068;-8.2214;0.0422;-1.4198;
4050836876125328;-7.1025;0.4493;-2.7565;
4050836886244651;-8.9853;0.5022;-6.8842;
4050836896349912;-14.3249;0.7633;-6.2133;
4050836906455120;-7.0379;-1.6971;3.2058;
4050836916545276;-7.2823;-1.5915;2.7194;
4050836926650537;-12.7537;-0.4011;-3.1831;
4050836936755745;-8.7891;-1.7474;-1.7599;
4050836946871578;-8.3913;-1.2443;-2.5002;
4050836956976787;-9.8097;0.7247;-5.7174;
4050836967082047;-8.9734;-0.0607;-2.9889;
4050836977188610;-7.9098;-0.6742;-2.8522;
4050836987293818;-9.2489;0.8758;-5.0587;
4050836997399078;-11.5176;-0.3051;-3.6284;
4050837007516735;-11.1317;-1.0071;0.0748;
4050837017621943;-9.2755;-0.9712;1.2272;
4050837027727203;-10.3774;-0.0802;-2.2630;
4050837037816839;-10.7390;-0.2835;-3.4490;
4050837047922099;-6.9589;-1.3567;-2.1362;
4050837058027308;-11.0025;-0.1280;-6.8384;
4050837068154443;-8.9471;0.2722;-4.2179;
4050837078259651;-7.2535;-0.6790;1.0427;
4050837088364912;-8.5974;-1.2012;0.9398;
4050837098452985;-11.4482;0.3655;-4.4572;
4050837108558193;-10.9834;-0.4011;-5.7245;
4050837118663453;-6.8632;-0.6694;-2.5624;
4050837128769860;-9.8456;0.4445;-3.7699;
4050837138875068;-10.0490;0.7418;-4.3208;
4050837148980328;-8.8968;0.0111;-2.5074;
4050837159073089;-8.6979;-0.1687;-3.4705;
4050837169178349;-9.8839;0.7609;-4.2156;
4050837179283610;-9.5653;0.1427;-1.0774;
4050837189400693;-10.5353;-0.0802;-0.0712;
4050837199505901;-9.9556;0.7032;-0.3467;
4050837209611162;-7.8595;0.7104;-1.2763;
4050837219716006;-8.4754;1.3358;-3.3840;
4050837229821214;-7.4094;1.5033;-4.5508;
4050837239926474;-10.3125;2.0375;-7.4806;
4050837250042464;-11.7571;1.4937;-3.3697;
4050837260147672;-8.6094;-1.9340;1.4836;
4050837270252933;-11.7308;0.6721;-2.0115;
4050837280353089;-11.6973;-0.5518;-2.0330;
4050837290458297;-9.7017;-1.5580;0.9613;
4050837300563558;-5.8403;-1.3519;0.1780;
4050837310710485;-6.0245;1.7836;-6.1893;
4050837320815693;-10.0083;1.6591;-8.8220;
4050837330920953;-9.1843;-0.7340;-3.8177;
4050837340982256;-9.7639;-0.5638;-1.6738;
4050837351087464;-12.3775;-0.3652;-0.2462;
4050837361192724;-8.9758;-0.6359;0.0823;
4050837371299495;-12.8806;0.3464;-2.3853;
4050837381404703;-5.9360;-0.6646;-1.1874;
4050837391509964;-8.6046;1.8003;-6.1606;
4050837401606526;-10.6600;0.8518;-7.0564;
4050837411711735;-10.2574;0.3416;-4.6466;
4050837421816995;-10.3391;0.3224;-2.8427;
4050837431924495;-9.8025;0.9093;-2.4978;
4050837442029703;-7.8835;1.0507;-0.4834;
4050837452134964;-6.3841;0.7681;-2.1649;
4050837462247672;-9.5653;2.5190;-5.1425;
4050837472352881;-10.5808;1.6256;-5.4921;
4050837482458141;-10.0561;1.8413;-4.9723;
4050837492546110;-8.5472;0.6577;-3.3434;
4050837502651318;-8.8513;0.5022;-4.7976;
4050837512756578;-12.4540;1.6519;-6.5390;
4050837522878506;-9.4669;-1.3711;1.1264;
4050837532983714;-6.8462;-0.9473;2.7652;
4050837543088974;-8.9758;1.0938;-3.4346;
4050837553181526;-6.5109;2.4329;-6.7642;
4050837563286735;-8.4272;2.7227;-9.4424;
4050837573391995;-8.3172;3.2402;-6.7953;
4050837583496787;-5.4162;1.7405;-1.6857;
4050837593602047;-11.4649;3.7385;-1.4701;
4050837603707308;-10.3869;3.5874;-1.0415;
4050837613817881;-10.3125;2.4736;-1.1396;
4050837623923089;-9.0646;2.6821;-6.8551;
4050837634028349;-8.6405;4.0881;-9.7753;
4050837644160068;-4.4581;3.2521;-4.4692;
4050837654265328;-5.8116;2.5789;-3.0224;
4050837664370589;-13.8389;4.5003;-5.9163;
4050837674462985;-9.8384;3.8581;1.1554;
4050837684568193;-6.7935;3.9733;2.8968;
4050837694673453;-13.5105;5.1374;-5.7485;
4050837704786839;-10.1833;5.1374;-5.2816;
4050837714892099;-4.8628;1.3621;-0.0162;
4050837724997360;-6.4774;1.6017;-2.2582;
4050837735069078;-8.4535;1.5658;-6.8408;
4050837745174287;-10.9594;0.8207;-5.7939;
4050837755279547;-8.5663;-0.0682;-0.9694;
4050837765419756;-7.9340;1.4219;-0.0784;
4050837775524964;-7.4716;1.5730;-0.7756;
4050837785630224;-12.4708;2.1383;-2.5457;
4050837795701422;-11.8624;1.7524;-1.7360;
4050837805806631;-11.2445;0.2506;1.4429;
4050837815911891;-8.3530;0.6888;2.8202;
4050837826020433;-12.5955;1.1560;0.4845;
4050837836125641;-10.4946;0.8830;-0.9072;
4050837846230901;-8.8825;1.2685;-4.0502;
4050837856361735;-10.3487;1.3262;-6.4289;
4050837866466943;-11.5726;0.1499;-2.1912;
4050837876572203;-7.3038;-1.4910;2.9231;
4050837886669651;-8.9758;0.7896;-0.2103;
4050837896774860;-10.0971;0.9595;-2.5648;
4050837906880120;-10.5975;-0.3724;-0.8091;
4050837916987776;-9.1029;-1.9268;0.2665;
4050837927092985;-9.2417;-1.6418;-2.4356;
4050837937198245;-13.7883;-1.7952;-3.4418;
4050837947291318;-13.3023;-2.9067;1.9169;
4050837957396526;-7.0116;-4.0038;3.4693;
4050837967501787;-3.0805;-1.9439;-3.6523;
4050837977609339;-9.5749;-2.0635;-6.1415;
4050837987714547;-12.2363;-2.2409;-3.1854;
4050837997819808;-12.7080;-2.6719;0.4606;
4050838007932256;-10.1856;-2.4538;-1.5470;
4050838018037464;-13.0340;-2.5642;-2.9339;
4050838028142724;-9.4573;-3.3308;0.8701;
4050838038240589;-6.0006;-2.9809;1.1312;
4050838048345797;-8.4535;-0.9640;-3.1181;
4050838058451058;-11.1775;-0.1831;-3.5016;
4050838068571839;-9.4167;-0.0129;-1.2978;
4050838078677047;-7.9555;1.1489;-4.3711;
4050838088782308;-9.0191;1.5514;-6.0000;
4050838098868297;-7.2488;2.2149;-5.6791;
4050838108973506;-10.8203;3.3287;-6.0598;
4050838119078766;-8.1541;3.2139;-5.6839;
4050838129182985;-7.6920;2.0856;-5.9880;
4050838139288193;-9.6754;2.5358;-5.1520;
4050838149393453;-6.8680;1.6974;-4.7088;
4050838159507256;-8.2382;1.1632;-6.0335;
4050838169612464;-9.6562;2.0040;-6.9775;
4050838179717724;-8.2095;1.9035;-5.3079;
4050838189826422;-8.0082;2.8759;-6.7116;
4050838199931631;-8.7365;2.5908;-8.1248;
4050838210036891;-7.1073;1.6328;-6.2874;
4050838220134339;-6.4415;1.1824;-6.4528;
4050838230239547;-8.8490;2.2029;-8.4218;
4050838240344808;-9.6371;1.0723;-8.2448;
4050838250454912;-8.4177;1.4770;-6.3643;
4050838260560120;-6.7696;0.8255;-7.6768;
4050838270665381;-7.5601;3.0245;-10.3502;
4050838280777047;-10.5664;2.8519;-11.7063;
4050838290882256;-7.7279;3.7935;-5.7293;
4050838300987516;-2.7476;3.2306;-2.4882;
4050838311062881;-7.2942;4.1886;-10.4055;
4050838321168089;-14.1646;6.9939;-10.4797;
4050838331273349;-8.5878;4.2607;-6.7929;
4050838341378610;-5.0833;4.3564;-5.1712;
4050838351504339;-7.5099;5.1254;-6.3090;
4050838361609547;-11.4314;5.2307;-8.4075;
4050838371714808;-11.0551;4.0499;-3.1205;
4050838381818922;-1.2840;2.4975;2.2525;
4050838391924131;-5.8594;2.9934;-4.3639;
4050838402029391;-12.7729;2.8810;-4.4261;
4050838412127568;-9.4143;1.5129;-0.9431;
4050838422232776;-11.0097;0.1594;-3.1950;
4050838432338037;-10.1378;-1.4216;-1.3576;
4050838442438922;-6.7313;-1.2802;-1.0104;
4050838452544131;-6.4271;-2.3773;-3.6141;
4050838462649391;-7.0666;-3.2085;-2.6249;
4050838472789547;-11.3904;-2.4586;-2.4667;
4050838482894808;-13.0244;-0.5710;0.3864;
4050838493000068;-9.8169;0.2937;0.8509;
4050838503067360;-9.9748;2.6390;1.7518;
4050838513172568;-11.6563;3.4271;2.3411;
4050838523277828;-10.9475;2.6052;2.3435;
4050838533385485;-9.9532;1.8269;0.6042;
4050838543490693;-11.8911;0.8088;-1.3983;
4050838553595953;-11.2182;0.6984;-2.5672;
4050838563751162;-9.7113;-0.1065;-3.3745;
4050838573856422;-10.5114;-1.0286;-2.6225;
4050838583961683;-7.3998;-0.2883;-1.9684;
4050838594004183;-10.7653;0.0637;-3.2788;
4050838604109391;-14.4186;-1.0549;3.6395;
4050838614214651;-4.6041;-1.1701;4.4635;
4050838624350224;-7.7830;-1.4192;-2.7757;
4050838634455485;-16.1312;0.0541;-1.9804;
4050838644560745;-13.5658;1.3190;0.6236;
4050838654667412;-7.1650;-0.1496;-2.3447;
4050838664772672;-7.2751;0.9284;-4.5843;
4050838674877933;-8.7437;0.2818;-4.2873;
4050838684967256;-9.3736;0.6003;-3.1543;
4050838695072464;-7.8571;0.2483;-2.6512;
4050838705177724;-9.1508;-0.1591;-4.4261;
4050838715278818;-13.0603;-0.1328;-3.9520;
4050838725384026;-9.5462;-0.4513;-2.1338;
4050838735489287;-6.2210;-0.4848;-3.7292;
4050838745600276;-11.2110;-0.2859;-3.0799;
4050838755705485;-8.4897;0.3081;-1.4605;
4050838765810745;-5.2316;0.9117;-4.5389;
4050838775938193;-8.4488;1.0603;-7.4133;
4050838786043401;-12.3655;2.0183;-7.9044;
4050838796148662;-11.4745;1.9107;-5.9402;
4050838806257724;-7.0953;1.6017;-4.8742;
4050838816362985;-6.7600;1.8078;-3.7125;
4050838826468245;-6.3793;0.5644;-2.5217;
4050838836554912;-7.5721;0.9117;-3.8752;
4050838846660120;-11.1245;1.0436;-4.4189;
4050838856765381;-10.7988;0.8782;-6.5844;
4050838866873922;-9.3042;1.8676;-5.3844;
4050838876979131;-7.9819;1.5562;-5.4682;
4050838887084391;-9.5291;1.5706;-5.5089;
4050838897180901;-7.6223;1.8102;-4.4548;
4050838907286110;-6.1445;1.6974;-4.5269;
4050838917391370;-7.2296;1.6065;-6.3547;
4050838927507464;-9.3018;1.8963;-5.9210;
4050838937612672;-9.8456;1.4602;-5.4993;
4050838947717933;-11.1775;0.6099;-6.6350;
4050838957812151;-10.3798;0.7343;-5.4036;
4050838967917360;-8.8872;1.0268;-2.8522;
4050838978022620;-6.3144;-0.0993;-1.3887;
4050838988127985;-8.5184;0.1905;-2.6895;
4050838998233193;-9.6921;0.3511;-4.7207;
4050839008338453;-9.7041;0.7896;-3.8800;
4050839018446318;-8.5759;0.1187;-5.0539;
4050839028551526;-8.7580;-0.2142;-5.4562;
4050839038656787;-9.4573;-0.2189;-4.4644;
4050839048771214;-8.3459;-1.1821;-3.4298;
4050839058876422;-9.2513;-1.7186;-3.8560;
4050839068981631;-10.0875;-1.7163;-4.6585;
4050839079088401;-9.6036;-0.3724;-4.0669;
4050839089193610;-9.2874;-1.1462;-3.5016;
4050839099298870;-7.9627;-1.4958;-3.7172;
4050839109392360;-6.5850;-1.1315;-3.5375;
4050839119497568;-8.6022;-1.2347;-4.3184;
4050839129602828;-12.1905;-0.9018;-5.4682;
4050839139708506;-11.2301;-0.6933;-2.6584;
4050839149813714;-8.4081;-0.9832;-3.1567;
4050839159918974;-9.5195;-1.4049;-4.3424;
4050839170018193;-12.4229;0.1427;-2.3157;
4050839180123401;-9.5725;-0.7388;-2.8499;
4050839190228662;-8.3004;-0.8130;-3.9135;
4050839200338922;-8.6692;-0.0849;-1.6331;
4050839210444131;-6.0799;-0.3075;-3.4561;
4050839220549391;-9.1364;0.7944;-4.6609;
4050839230657985;-11.6228;0.6697;-5.1138;
4050839240763193;-10.7270;-0.0682;-4.8144;
4050839250868453;-6.0966;-0.1711;-2.0955;
4050839260976110;-7.2559;0.0446;-4.2562;
4050839271081318;-11.1006;0.6505;-5.0635;
4050839281186578;-10.6935;0.6242;-3.6117;
4050839291296422;-5.1168;0.1618;-2.6704;
4050839301401631;-6.3096;0.5788;-4.4094;
4050839311506891;-12.2411;0.7466;-5.3988;
4050839321605693;-10.5520;1.7333;-1.4342;
4050839331710901;-7.5338;0.2889;-4.4022;
4050839341816162;-9.9102;0.6386;-3.2237;
4050839351914026;-11.4721;1.5443;-4.1626;
4050839362019235;-10.3774;0.9643;-3.1878;
4050839372124495;-10.3678;1.0651;-4.1530;
4050839382236578;-7.3469;0.8566;-2.7685;
4050839392341787;-5.9121;0.9069;-3.1519;
4050839402447047;-9.5701;1.1369;-1.5996;
4050839412547828;-8.2167;1.5682;-3.9592;
4050839422653037;-7.5338;1.6304;-5.3366;
4050839432758297;-10.4133;1.8867;-6.0048;
4050839442879912;-10.5377;0.7247;-3.6933;
4050839452985172;-8.4634;-0.3099;-1.0008;
4050839463090433;-8.5089;-1.1462;-3.2142;
4050839473186683;-8.9853;0.3153;-4.9795;
4050839483291891;-10.2239;0.5309;-4.0262;
4050839493397151;-10.2718;0.1427;-2.0330;
4050839503478610;-10.3149;-0.5183;-1.5541;
4050839513583818;-10.4444;-0.4298;-2.2726;
4050839523689078;-7.9890;0.0972;-3.1110;
4050839533812360;-9.8408;0.3344;-4.9029;
4050839543917568;-12.0087;0.6147;-3.9087;
4050839554022828;-5.9791;0.6697;-2.9698;
4050839564134391;-6.9087;0.1427;-5.4203;
4050839574239651;-11.1655;0.5118;-4.9388;
4050839584344912;-7.0618;1.0172;-0.3993;
4050839594426526;-5.0665;0.6577;-3.0607;
4050839604531735;-10.8347;0.6960;-5.6695;
4050839614636995;-11.7930;1.6687;-3.8297;
4050839624789443;-9.1292;0.8183;-2.1888;
4050839634894651;-7.3875;-0.2357;-2.1410;
4050839644999912;-8.1206;0.7247;-4.6848;
4050839655043974;-12.0518;1.0340;-4.1650;
4050839665149183;-10.1019;1.0579;-2.0163;
4050839675254443;-7.2823;0.6649;-2.4906;
4050839685408610;-7.6896;0.5596;-3.6619;
4050839695513818;-11.3115;1.1058;-5.7939;
4050839705619078;-12.2124;1.6807;-3.5542;
4050839715696735;-9.1173;1.1297;-0.2127;
4050839725801943;-8.2741;0.3775;-1.0534;
4050839735907203;-10.2909;0.2818;-2.9722;
4050839746019495;-6.4367;1.3932;-2.0836;
4050839756124703;-9.4669;0.4349;-2.1123;
4050839766229964;-9.1555;0.4110;-3.6790;
4050839776330172;-11.3258;0.4349;-3.7986;
4050839786435381;-8.7242;1.0340;-2.6991;
4050839796540641;-5.6844;0.0350;-3.8465;
4050839806652776;-9.9987;-0.2118;-5.8229;
4050839816757985;-12.7825;0.1499;-4.7450;
4050839826863245;-8.6740;-0.5471;-2.0668;
4050839836967360;-5.8140;-1.7617;-2.0931;
4050839847072568;-9.2369;-1.1821;-4.4118;
4050839857177828;-13.2832;-0.7699;-4.6920;
4050839867289495;-11.1341;-0.1232;-2.6512;
4050839877394703;-7.7830;-0.9520;-1.9421;
4050839887499964;-6.2210;-1.6274;-3.2548;
4050839897598245;-10.2263;-1.6274;-5.0635;
4050839907703453;-11.6830;-0.1256;-5.1162;
4050839917808714;-9.8791;-0.3796;-2.6800;
4050839927919443;-4.7647;0.1666;-2.9530;
4050839938024651;-8.1589;-1.1267;-4.5078;
4050839948129912;-12.1738;0.4445;-5.3773;
4050839958231839;-7.8978;0.7295;-3.6595;
4050839968337047;-6.4199;-0.3389;-3.4011;
4050839978442308;-9.2201;-0.2596;-4.8000;
4050839988541839;-11.6396;0.1427;-4.7498;
4050839998647047;-10.4252;0.5859;-2.3901;
4050840008752308;-8.3554;0.5118;-2.7182;
4050840018861110;-8.2741;0.6290;-2.6728;
4050840028966318;-9.3544;0.7825;-2.4117;
4050840039071578;-8.0560;0.9858;-4.2610;
4050840049179235;-10.3463;1.1106;-4.6274;
4050840059284443;-6.9589;1.6256;-3.0535;
4050840069389703;-8.7075;1.7357;-3.3793;
4050840079499912;-10.7151;1.5129;-4.3448;
4050840089605120;-10.6744;2.2795;-2.9195;
4050840099710381;-10.9786;2.6342;-1.0582;
4050840109812672;-8.1517;1.3597;-2.2702;
4050840119917881;-8.2765;-0.1208;-3.4633;
4050840130023141;-8.0273;1.2374;-3.7914;
4050840140127881;-8.7700;2.1837;-2.6560;
4050840150233089;-8.8202;2.5884;-5.0587;
4050840160338349;-9.8695;1.9777;-6.4816;
4050840170445068;-10.8634;2.7562;-4.5461;
4050840180550276;-8.0178;2.5502;-0.6820;
4050840190655537;-5.4305;0.9404;-1.2882;
4050840200754756;-11.5463;0.0111;-3.1902;
4050840210859964;-13.7979;-0.3218;-0.3682;
4050840220965224;-8.7844;0.5166;-0.6676;
4050840231073610;-7.4189;-0.3461;-0.4666;
4050840241178818;-8.6548;-1.3615;-1.3863;
4050840251284078;-7.3493;-0.3170;-5.0946;
4050840261395172;-9.7376;0.2219;-5.7437;
4050840271500381;-10.7055;0.9547;-5.6575;
4050840281605641;-10.5712;0.4974;-3.5279;
4050840291704026;-6.9422;0.2076;-2.8741;
4050840301809235;-8.3698;-0.2309;-1.5541;
4050840311914495;-11.4048;-0.1902;-2.3973;
4050840322022724;-11.1894;-0.5758;-0.3849;
4050840332127985;-10.2885;-0.3532;0.0870;
4050840342233245;-5.7514;-1.2538;-1.6235;
4050840352340172;-7.5003;-0.9066;-3.1878;
4050840362445381;-13.1728;0.2746;-2.3204;
4050840372550641;-14.1861;-0.2979;-2.6728;
4050840382646943;-8.8681;0.0948;-3.3984;
4050840392752151;-5.9121;-0.1113;-1.9732;
4050840402857360;-8.4177;0.5548;-2.9411;
4050840412958506;-8.6812;0.9691;-4.4815;
4050840423063714;-8.7772;0.7319;-3.5566;
4050840433168922;-7.5864;-0.0200;-3.6452;
4050840443288558;-8.6285;-0.5088;-5.3151;
4050840453393818;-13.8820;0.4783;-4.0980;
4050840463499026;-11.8887;1.1201;-0.1959;
4050840473580328;-6.5850;0.4397;0.6165;
4050840483685589;-6.8055;-0.1041;-4.9890;
4050840493790797;-11.9513;0.4540;-5.6097;
4050840503906266;-11.7452;0.5716;-0.1119;
4050840514011474;-6.4845;0.0948;1.5410;
4050840524116683;-9.3855;0.1235;-5.8035;
4050840534240485;-10.7414;0.4349;-7.1378;
4050840544345693;-10.1330;1.9705;-3.6957;
4050840554450901;-8.1422;1.5634;-4.4719;
4050840564549756;-8.1948;1.2374;-3.6933;
4050840574654964;-10.5497;0.6338;-2.6871;
4050840584760172;-10.0971;0.4229;-1.5203;
4050840594857151;-7.2918;0.5261;-3.9182;
4050840604962360;-8.6668;0.8112;-5.7317;
4050840615067568;-6.6691;0.4564;-1.5179;
4050840625193193;-8.0034;0.4134;-5.1808;
4050840635298401;-11.0360;1.4746;-9.1645;
4050840645403610;-9.3736;0.3129;-1.9660;
4050840655506943;-7.1961;-1.0980;-0.4137;
4050840665612151;-12.4564;0.7609;-6.6661;
4050840675717360;-11.7835;-0.8249;-1.9828;
4050840685800068;-7.1049;-1.5389;3.1364;
4050840695905276;-8.5639;-0.7340;-6.6637;
4050840706010485;-9.9174;1.0579;-5.8516;
4050840716123089;-5.5840;-0.7460;1.2631;
4050840726228297;-8.4416;-1.4551;-3.2022;
4050840736333506;-15.4125;1.2661;-9.5261;
4050840746434339;-10.6170;1.3095;-2.9698;
4050840756539547;-4.7480;-2.1401;1.7806;
4050840766644756;-5.4162;-1.6178;-2.6417;
4050840776749651;-11.7835;-0.7436;-3.6356;
4050840786854860;-10.4850;-0.6431;-1.8344;
4050840796960068;-9.2154;-0.5447;-2.3423;
4050840807057724;-9.1149;-0.2788;-4.0190;
4050840817162985;-7.6128;0.2746;-4.8718;
4050840827268193;-9.4741;-0.0511;-4.4429;
4050840837391839;-11.2062;0.3607;-3.6933;
4050840847497047;-9.1005;-0.2668;-3.4609;
4050840857602256;-8.1182;0.8686;-1.9516;
4050840867688714;-9.0885;0.2770;-1.1492;
4050840877793922;-8.3674;0.7729;-4.0884;
4050840887899131;-10.3149;0.6434;-3.8058;
4050840898016422;-11.3689;1.2063;-1.6379;
4050840908121631;-9.0598;0.5979;-1.7408;
4050840918226839;-7.2942;0.8375;-2.7087;
4050840928331318;-10.0681;0.4516;-1.1563;
4050840938436526;-12.4732;0.8375;-2.6824;
4050840948541735;-8.3937;1.6472;-2.8546;
4050840958644235;-8.2741;1.1704;-4.3113;
4050840968749443;-11.6806;0.8997;-4.3400;
4050840978854651;-6.7026;1.8963;-1.1444;
4050840988966526;-7.4644;0.3966;-3.5686;
4050840999071735;-10.3654;0.3200;-6.1199;
4050841009176943;-10.7055;1.9561;-4.4839;
4050841019277360;-9.9221;1.4554;-2.9124;
4050841029382568;-6.7385;1.0077;-2.4332;
4050841039487776;-8.2071;0.6529;-1.6451;
4050841049597360;-12.4732;1.2230;-4.4982;
4050841059702568;-9.4669;1.3956;-1.5972;
4050841069807776;-7.9699;0.3105;-2.7637;
4050841079909964;-9.4860;0.8495;-4.3065;
4050841090015172;-7.0810;0.5979;-2.6704;
4050841100120381;-11.3019;0.1953;-8.8292;
4050841110225485;-13.6472;1.5538;-3.2812;
4050841120330693;-7.5625;0.6577;-0.8186;
4050841130435901;-5.5840;-1.0525;-2.5265;
4050841140544026;-7.9292;-0.0368;-4.2156;
4050841150649235;-11.1126;0.3392;-4.9077;
4050841160754443;-10.1689;0.3823;-1.7049;
4050841170859912;-9.2058;-0.9473;-4.7498;
4050841180965120;-9.9604;0.0517;-2.2917;
4050841191070328;-9.0885;-0.3461;-1.6164;
4050841201179756;-8.1541;-0.3556;-2.4045;
4050841211284964;-10.5520;0.1020;-6.1223;
4050841221390172;-10.6505;-0.1998;-2.0186;
4050841231491943;-6.2665;-0.5231;-2.8211;
4050841241597151;-11.0216;0.6745;-4.2060;
4050841251702360;-10.2168;-0.0583;-4.0669;
4050841261806318;-8.0106;0.3942;-1.9851;
4050841271911526;-7.3062;0.4397;-7.0469;
4050841282016787;-10.6050;2.4329;-6.6159;
4050841292124495;-10.3654;-0.2548;0.5659;
4050841302229703;-8.4224;-1.2467;3.4238;
4050841312334912;-11.5152;0.3631;-4.8885;
4050841322414651;-8.8968;-0.1352;-1.9134;
4050841332519860;-9.0933;-1.2610;-3.0224;
4050841342625068;-8.6501;0.0517;-4.1626;
4050841352753089;-9.7232;0.5955;-4.5796;
4050841362858297;-8.7724;-0.1304;-4.2036;
4050841372963506;-10.3534;0.3727;-2.5959;
4050841383065485;-5.7108;0.7152;-3.7220;
4050841393170693;-9.0263;1.0986;-4.4548;
4050841403275901;-11.7045;0.7944;-5.4730;
4050841413383193;-10.7510;-0.1711;-1.1755;
4050841423488401;-7.9484;0.2435;-0.2318;
4050841433593610;-7.1483;-0.0754;-2.7039;
4050841443727308;-9.5605;0.1403;-4.2538;
4050841453832568;-12.0015;-0.2046;-4.4791;
4050841463937776;-8.1111;0.7705;-1.7886;
4050841474016110;-5.5119;0.5381;-5.1449;
4050841484121318;-12.0039;0.7777;-5.4395;
4050841494226526;-11.5702;0.2219;-1.2090;
4050841504337776;-9.2827;0.1714;-2.3037;
4050841514443037;-8.9040;1.1704;-1.3672;
4050841524548245;-7.1121;0.8064;-1.7480;
4050841534649131;-8.4682;0.8949;-3.0727;
4050841544754339;-11.1416;1.3478;-5.0157;
4050841554859547;-8.6213;1.0436;-3.4202;
4050841564969339;-5.9169;0.9763;-4.5867;
4050841575074547;-8.7915;0.9858;-4.1172;
4050841585179756;-11.2684;-0.1448;-2.9650;
4050841595292985;-9.9150;0.1929;-2.4978;
4050841605398193;-7.9555;1.2087;-2.4428;
4050841615503401;-8.5448;0.1905;-2.3375;
4050841625609547;-13.3430;0.3272;-1.1300;
4050841635714756;-10.9810;-0.1759;0.0389;
4050841645819964;-4.0819;0.4612;-3.6260;
4050841655892151;-9.7831;3.4319;-9.0688;
4050841665997360;-10.6768;2.0279;-4.5652;
4050841676102568;-5.8834;-1.1339;-0.6173;
4050841686220172;-11.7500;0.4134;-3.3936;
4050841696325381;-14.3465;0.0206;-1.4677;
4050841706430589;-6.8967;-1.6250;3.0239;
4050841716536422;-5.8283;-1.6923;1.4620;
4050841726641631;-11.0288;0.6529;-7.1234;
4050841736746839;-13.4865;0.6888;-7.4013;
4050841746855172;-6.5157;-1.5652;-0.3658;
4050841756960381;-8.9207;-1.0573;-1.3576;
4050841767065589;-10.9929;-0.1376;-5.8277;
4050841777172256;-8.8992;0.6410;-5.9354;
4050841787277464;-9.0407;-1.3543;-0.9598;
4050841797382672;-7.1049;-0.5279;0.1899;
4050841807478193;-10.3893;-0.7531;-2.4930;
4050841817583401;-11.7571;-1.6756;-2.3495;
4050841827688610;-8.7413;-0.7364;-2.8499;
4050841837805693;-9.3640;0.3607;-4.8742;
4050841847910901;-9.4286;0.1116;-3.4490;
4050841858016110;-8.7844;0.1379;-3.0272;
4050841868125068;-7.6872;0.1307;-2.5122;
4050841878230276;-13.1297;-0.4274;-4.0980;
4050841888335485;-9.8623;0.2363;-1.1683;
4050841898435901;-7.4189;0.2171;-2.7398;
4050841908541110;-8.3770;2.2412;-4.7426;
4050841918646318;-8.5711;0.8614;-3.5351;
4050841928755745;-9.4334;0.9452;-2.4715;
4050841938860953;-10.0609;0.0422;-1.3792;
4050841948966162;-10.8733;1.2374;-2.2606;
4050841959065901;-9.6084;1.5562;-3.5638;
4050841969171110;-8.8322;0.8566;-2.3734;
4050841979276318;-7.0570;0.9954;-3.5399;
4050841989392828;-9.7831;0.8399;-3.5351;
4050841999498037;-9.5438;1.0268;-2.0115;
4050842009603245;-9.6682;1.3789;-3.5853;
4050842019706735;-10.0828;1.7501;-8.6112;
4050842029811943;-11.6037;2.2603;-2.0883;
4050842039917151;-7.3926;-0.1543;1.8763;
4050842050016318;-8.4440;0.4253;-3.2501;
4050842060121526;-8.0178;0.7561;-2.9004;
4050842070226735;-9.4932;0.1164;-4.1315;
4050842080329339;-8.2837;1.1847;-3.9927;
4050842090434547;-9.0981;0.9811;-5.5546;
4050842100539756;-12.5405;1.9848;-5.9904;
4050842110650068;-11.2493;2.2172;-2.1840;
4050842120755276;-6.9302;0.5166;0.9422;
4050842130860485;-7.1698;0.0517;-3.1735;
4050842140956006;-9.4167;1.6783;-5.7772;
4050842151061214;-12.1881;2.2795;-3.0129;
4050842161166422;-8.4033;2.7012;-2.8594;
4050842171280068;-7.2655;2.1455;-5.0611;
4050842181385276;-7.7997;2.5478;-4.8407;
4050842191490485;-9.1460;2.9073;-4.4910;
4050842201590693;-8.6501;2.8905;-2.3853;
4050842211695901;-8.7724;1.4913;-2.5986;
4050842221801110;-12.1379;0.4493;-3.3075;
4050842231916943;-9.3066;0.0685;-1.9923;
4050842242022151;-6.3841;-0.6670;-1.7121;
4050842252127360;-9.2513;-0.0153;-5.8083;
4050842262233089;-10.4755;0.1068;-2.7876;
4050842272338297;-8.4057;-0.2213;-0.2916;
4050842282443506;-10.0322;0.6888;-5.6719;
4050842292537256;-9.1938;0.2602;-4.9268;
4050842302642464;-7.5123;-0.9951;-0.3897;
4050842312747672;-9.0766;-1.6131;-1.0726;
4050842322868245;-8.0273;-1.7617;-2.6824;
4050842332973506;-11.9055;-2.1975;-3.1902;
4050842343078714;-11.2445;-2.2361;-2.1649;
4050842353162412;-5.8331;-1.8670;-1.6618;
4050842363267620;-9.9389;-0.9520;-5.7293;
4050842373385589;-16.2942;-0.7986;-4.0956;
4050842383490797;-9.4502;-0.6239;1.8691;
4050842393596006;-4.4363;-0.9784;-0.8139;
4050842403685641;-7.3421;-0.5782;-6.2420;
4050842413790901;-12.6697;-0.2572;-4.9220;
4050842423896110;-12.5644;0.2387;-1.0702;
4050842434007360;-4.7504;0.0685;-1.8775;
4050842444112568;-7.0116;-0.7125;-4.2443;
4050842454217828;-10.0202;-0.5160;-3.4202;
4050842464322672;-11.5582;-0.7962;-2.7900;
4050842474427933;-12.9571;-0.0682;-3.5518;
4050842484533141;-8.1900;0.4878;-1.5781;
4050842494644756;-4.1417;0.8806;-0.9742;
4050842504749964;-6.9015;-0.9712;-5.4778;
4050842514855172;-15.1274;0.2961;-8.7188;
4050842524955589;-11.6925;0.4229;0.4295;
4050842535060797;-7.2272;-0.1424;2.7051;
4050842545166006;-12.4277;-1.0908;-3.2357;
4050842555281214;-9.1125;-0.6622;-1.4653;
4050842565386422;-6.2163;0.0422;-1.0319;
4050842575491631;-9.0287;-0.5830;-2.6417;
4050842585592568;-8.4754;-1.3304;-3.0775;
4050842595697776;-11.2732;-0.5279;-6.3042;
4050842605802985;-13.7046;-0.8345;-5.4371;
4050842615908401;-6.9063;0.2698;0.1923;
4050842626013610;-4.5036;-1.3711;-1.2667;
4050842636118818;-12.1044;-0.8850;-4.0884;
4050842646218506;-11.0121;-0.0511;-3.4561;
4050842656323714;-5.4855;-0.4609;-1.8583;
4050842666428922;-8.4993;-0.4633;-5.1257;
4050842676535485;-12.3296;-0.1113;-6.0550;
4050842686640693;-15.3790;0.4181;-1.4055;
4050842696745901;-4.5754;-0.4585;3.2441;
4050842706845797;-4.3502;-0.5040;-3.9544;
4050842716951006;-14.9025;0.6027;-5.4467;
4050842727056214;-9.3066;0.5812;-0.1935;
4050842737165485;-5.2340;1.2422;-4.9771;
4050842747270693;-11.6300;0.2865;-5.8851;
4050842757375901;-7.9026;0.7056;-1.2066;
4050842767492568;-8.6764;0.9188;-4.5030;
4050842777597776;-10.1330;0.1522;-3.3051;
4050842787702985;-13.0388;0.5309;-0.8928;
4050842797801162;-8.5926;-0.6120;-0.7493;
4050842807906370;0.7403;0.2195;-2.4811;
4050842818011578;-11.5678;0.3224;-6.7618;
4050842828111943;-15.4869;1.5153;-5.0396;
4050842838217151;-8.4826;1.9801;-1.1204;
4050842848322360;-5.2508;0.4014;-2.5528;
4050842858428818;-9.8121;-0.6168;-2.2367;
4050842868534026;-11.0097;0.4735;-1.9516;
4050842878639235;-10.2838;0.7825;-2.4882;
4050842888756631;-8.4921;0.0254;-2.0545;
4050842898861839;-9.1220;0.3799;-1.7647;
4050842908967047;-12.3368;0.0470;-3.3577;
4050842919062360;-9.2707;1.7524;-4.9101;
4050842929167568;-11.4769;0.4158;-0.4448;
4050842939272776;-5.6868;0.4445;-0.0209;
4050842949382256;-11.6901;0.5812;-5.3390;
4050842959487464;-10.2814;-0.1591;0.7744;
4050842969592672;-5.3157;-0.1328;-1.5108;
4050842979698662;-9.4956;-0.3027;-6.8527;
4050842989803870;-12.0661;0.3823;-4.5532;
4050842999909078;-10.6265;1.0507;-2.7517;
4050843010015172;-8.3913;-0.2022;-2.6728;
4050843020120381;-8.2119;-0.8584;-3.0153;
4050843030225589;-12.7439;0.5261;-3.3912;
4050843040334756;-8.9471;0.1953;-1.6546;
4050843050439964;-8.7123;0.7681;-2.6273;
4050843060545172;-9.5243;0.9523;-2.8164;
4050843070633714;-6.7122;0.5907;-1.2138;
4050843080738922;-7.3875;-0.0559;-4.4910;
4050843090844131;-14.4927;0.9021;-7.0205;
4050843100966006;-12.0015;0.6912;-1.4462;
4050843111071214;-5.1550;-0.2812;-0.3323;
4050843121176422;-8.8729;-0.5782;-5.3844;
4050843131270485;-12.2172;0.2028;-3.1567;
4050843141375693;-12.0159;0.3583;0.0173;
4050843151480901;-8.2095;-0.3027;-4.4453;
4050843161597568;-11.1174;0.4974;-4.5006;
4050843171702776;-9.3999;0.7633;1.4309;
4050843181807985;-7.6511;-0.2764;-2.3495;
4050843191895433;-9.1196;0.2243;-3.2381;
4050843202000641;-6.7313;0.0326;-4.1865;
4050843212105849;-12.0254;0.7777;-5.7604;
4050843222225797;-10.8467;0.0230;-2.3830;
4050843232331006;-5.7203;-0.6957;-3.5901;
4050843242436214;-9.8719;0.6051;-5.3055;
4050843252533401;-11.2899;0.4783;-1.2882;
4050843262638610;-7.4501;0.6099;-4.1124;
4050843272743870;-13.6256;1.2063;-4.2491;
4050843282841422;-10.1521;0.3775;2.2116;
4050843292946631;-1.9259;0.1570;-2.4787;
4050843303051839;-8.4706;0.5381;-6.2133;
4050843313155328;-12.6410;0.8710;-4.1602;
4050843323260537;-11.1464;0.5907;-1.6857;
4050843333365745;-8.5280;-0.2716;-2.6489;
4050843343485641;-8.4368;-0.2357;-4.1411;
4050843353590901;-12.7439;0.9691;-2.4619;
4050843363696110;-11.6228;0.4636;1.1889;
4050843373787672;-7.5218;0.7223;-2.2199;
4050843383892828;-9.8121;0.5764;-3.8632;
4050843393998037;-9.6945;1.3143;-0.8234;
4050843404127985;-6.1086;0.7271;-2.9172;
4050843414233141;-10.0442;1.2159;-5.2863;
4050843424338349;-9.2345;0.5596;-2.6512;
4050843434416839;-10.5473;0.8949;-2.9530;
4050843444521995;-12.0637;-0.2070;-6.1152;
4050843454627203;-9.2874;1.2760;0.3793;
4050843464742151;-1.3822;0.2267;-0.1095;
4050843474847308;-12.9595;1.6256;-9.5548;
4050843484952516;-18.6491;1.5320;-3.7986;
4050843495045485;-10.0442;1.7429;1.9146;
4050843505150641;-1.4898;-0.5303;-0.4929;
4050843515255849;-5.6103;0.6051;-3.7460;
4050843525395901;-13.5538;1.9705;-5.5881;
4050843535501058;-12.0948;0.1140;-1.6092;
4050843545606266;-2.8938;-0.1137;-2.0955;
4050843555680693;-9.6706;-0.2668;-7.6313;
4050843565785849;-13.6687;-0.0176;-4.0669;
4050843575891058;-6.7002;-0.1496;0.3048;
4050843585997672;-7.3851;-0.8130;-4.2826;
4050843596102828;-11.6324;-0.9712;-2.5409;
4050843606208037;-11.6228;0.3559;-2.5528;
4050843616318818;-9.1149;0.1331;-3.5662;
4050843626423974;-7.0834;0.1451;-0.5049;
4050843636529183;-6.7720;-0.0682;-2.2247;
4050843646637776;-11.4338;0.1642;-5.3892;
4050843656742933;-11.9031;0.2052;-2.3901;
4050843666848141;-7.9555;-0.0488;-1.0845;
4050843676955589;-7.3851;0.2818;-4.0047;
4050843687060745;-11.4506;0.5907;-4.2467;
4050843697165953;-10.6624;0.9212;-2.3327;
4050843707267151;-7.9723;0.0661;-0.0353;
4050843717372308;-6.7146;-0.2764;-3.1639;
4050843727477516;-7.6944;0.4445;-5.5232;
4050843737586006;-13.9370;1.9513;-3.8106;
4050843747691162;-8.6596;0.4783;-1.8942;
4050843757796370;-6.9446;0.4684;-4.2395;
4050843767894443;-9.3664;-0.1448;-1.5972;
4050843777999599;-9.6084;0.7394;-1.6187;
4050843788104808;-11.6133;0.8590;-3.8465;
4050843798216162;-11.0743;1.4459;-3.0440;
4050843808321318;-8.8753;1.1632;0.1014;
4050843818426526;-8.3411;1.3884;-0.8880;
4050843828525276;-8.6046;1.2350;-2.8546;
4050843838630433;-10.5568;1.3884;-4.2682;
4050843848735641;-8.7724;1.3167;-1.9995;
4050843858849860;-8.1422;0.5548;-4.8503;
4050843868955016;-9.9341;-0.2500;-3.8656;
4050843879060224;-10.8972;1.1106;-2.0593;
4050843889166214;-8.0943;-0.3338;-0.9072;
4050843899271370;-11.0121;0.4421;-3.4848;
4050843909376578;-7.9866;0.6147;-3.5877;
4050843919483922;-9.2082;0.6793;-1.7336;
4050843929589078;-10.5784;0.3464;-2.1075;
4050843939694287;-7.4166;0.4325;-3.2572;
4050843949789235;-7.3086;0.8973;-4.4719;
4050843959894391;-11.3163;0.5548;-4.0406;
4050843969999599;-11.3163;0.2722;-3.3673;
4050843980110693;-7.7901;0.4349;-2.5217;
4050843990215849;-7.5123;0.3918;-1.9229;
4050844000321058;-10.8395;0.7370;-4.6370;
4050844010430328;-12.8351;1.5730;-2.1553;
4050844020535485;-7.6032;0.5572;-0.3036;
4050844030640693;-6.9852;-0.3389;-4.2897;
4050844040753193;-11.0288;0.8853;-2.7326;
4050844050858349;-7.8763;0.7801;-2.0545;
4050844060963558;-8.1302;0.4397;-4.3376;
4050844071056839;-11.4362;0.8877;-4.7521;
4050844081161995;-10.7318;0.2961;-3.5040;
4050844091267203;-7.6992;0.1690;-1.3433;
4050844101375901;-6.4534;-0.0200;-2.7757;
4050844111481058;-11.9489;-0.1256;-5.5280;
4050844121586266;-14.1670;1.4770;-1.3146;
4050844131686735;-5.8666;0.7008;2.2765;
4050844141791891;-5.9623;-1.2084;-4.3448;
4050844151897099;-11.5654;0.0087;-4.8909;
4050844162011995;-10.8084;1.0579;-1.3193;
4050844172117203;-8.9088;0.3631;-3.9278;
4050844182222412;-7.9340;-0.0248;-4.0095;
4050844192322047;-8.4897;0.4301;-3.9111;
4050844202427203;-10.8829;1.0340;-3.9135;
4050844212532412;-12.2985;1.0531;-2.0115;
4050844222639078;-7.4812;0.0470;-1.0032;
4050844232744235;-7.2248;0.2530;-2.7063;
4050844242849443;-10.9187;0.7657;-2.5792;
4050844252946735;-8.9973;1.1154;-2.1553;
4050844263051891;-8.2525;0.5477;-3.4298;
4050844273157099;-8.6836;0.2602;-4.2227;
4050844283320328;-10.0657;1.1034;-4.9938;
4050844293425537;-10.6552;0.3655;-1.8200;
4050844303530745;-8.2789;0.2937;-1.2281;
4050844313613141;-9.5219;0.4062;-4.5843;
4050844323718349;-10.3774;1.2135;-2.3204;
4050844333823558;-9.7280;0.4445;0.0724;
4050844343897464;-11.5917;0.1140;-1.9373;
4050844354002620;-7.5123;0.1977;-1.4294;
4050844364107828;-6.8270;0.6194;-3.3984;
4050844374209651;-8.7413;-0.2955;-4.6944;
4050844384314808;-11.1727;0.5644;-4.2682;
4050844394420016;-9.8360;-0.5830;-2.5217;
4050844404535797;-8.2143;-0.0392;-3.1902;
4050844414641006;-10.7462;0.3464;-4.0406;
4050844424746214;-11.0815;0.3823;-0.7397;
4050844434847881;-8.3387;0.0398;0.6090;
4050844444953089;-8.0776;-0.4872;-2.2893;
4050844455058297;-9.0359;0.3392;-4.5508;
4050844465147776;-11.2828;1.6902;-3.7364;
4050844475252985;-9.1675;-0.0535;-2.2798;
4050844485358193;-8.2190;0.1355;-3.7029;
4050844495492776;-11.9007;0.0805;-1.8511;
4050844505597985;-9.1843;-0.4107;-1.8416;
4050844515703193;-9.1603;0.9547;-3.3793;
4050844525796526;-8.5161;0.0326;-2.0378;
4050844535901735;-7.1842;0.4854;-2.2032;
4050844546006943;-11.1512;-0.0682;-3.8656;
4050844556101318;-11.0982;0.7777;-3.5016;
4050844566206526;-6.9087;0.2001;-2.2965;
4050844576311735;-5.6079;-0.1854;-2.7733;
4050844586424026;-13.9202;0.5261;-5.7054;
4050844596529235;-12.0087;-0.1519;-0.8498;
4050844606634443;-4.7910;0.3392;-0.9861;
4050844616734443;-10.4157;0.5764;-6.2898;
4050844626839651;-12.1427;1.1536;-1.1276;
4050844636944860;-6.8656;-0.1687;0.6811;
4050844647058401;-9.7376;-0.1831;-2.2463;
4050844657163610;-11.8552;-0.0559;-2.3423;
4050844667268818;-9.0909;0.8638;-2.1266;
4050844677371735;-8.1182;0.0709;-2.6943;
4050844687476943;-10.4276;0.1187;-3.4035;
4050844697582151;-9.0000;-0.2931;-2.7996;
4050844707686943;-8.2262;0.4469;-3.9015;
4050844717792151;-10.1785;0.4445;-5.3222;
4050844727897360;-10.0274;0.6290;-0.7516;
4050844738004339;-7.2296;-0.4968;-1.2114;
4050844748109547;-8.2334;-0.2070;-3.5351;
4050844758214756;-10.8562;0.3775;-3.3817;
4050844768318610;-5.9719;0.5524;-3.0081;
4050844778423818;-8.0106;0.0254;-6.1750;
4050844788529026;-13.6663;0.2076;-5.1568;
4050844798631110;-12.0183;0.8064;-0.5503;
4050844808736318;-7.6729;-0.3314;-1.5805;
4050844818841526;-9.5462;0.6888;-2.4236;
4050844828954078;-10.9570;1.4746;0.2545;
4050844839059287;-8.5280;-0.1831;0.7146;
4050844849164495;-8.6740;0.2913;-3.6045;
4050844859271006;-10.3511;0.6170;-3.8824;
4050844869376214;-7.2607;0.4062;-2.4236;
4050844879481422;-9.3185;-0.1256;-4.4524;
4050844889591318;-11.0527;-0.5806;-4.0286;
4050844899696474;-8.9399;0.2339;-2.3758;
4050844909801735;-8.1781;-0.4202;-4.6561;
4050844919891006;-12.1140;0.5883;-4.0454;
4050844929996214;-9.5342;1.0866;-0.0377;
4050844940101422;-7.2727;-0.6670;-2.0668;
4050844950213401;-12.3535;0.5620;-2.4117;
4050844960318610;-11.3354;0.1594;-1.5685;
4050844970423818;-6.6978;0.3320;-1.1157;
4050844980538662;-4.5658;-0.4609;-3.7531;
4050844990643870;-9.3855;0.4684;-6.0120;
4050845000749078;-11.5511;-0.0849;-4.4118;
4050845010844235;-9.3855;0.8973;-5.2190;
4050845020949443;-10.0131;0.3057;-4.1530;
4050845031054651;-7.4022;0.3990;-1.5470;
4050845041173089;-8.3794;-0.1998;-1.4725;
4050845051278297;-11.9536;-0.2644;-1.7767;
4050845061383506;-11.6611;0.8877;-2.6608;
4050845071476787;-4.7022;-0.3266;-3.0823;
4050845081581995;-6.9350;0.7968;-3.9592;
4050845091687203;-14.4233;0.2985;-2.3806;
4050845101809547;-9.9604;0.2961;-0.0114;
4050845111914756;-6.7074;0.0470;-3.1639;
4050845122019964;-9.4358;0.2554;-2.3997;
4050845132109860;-12.7514;1.8389;-0.5097;
4050845142215068;-9.3903;-0.1831;-1.3050;
4050845152320276;-7.0738;0.2865;-1.8535;
4050845162426787;-6.4534;0.7657;-4.4022;
4050845172531995;-8.5017;1.7405;-5.1090;
4050845182637203;-10.5975;1.6184;-5.0563;
4050845192739026;-10.8299;1.2927;-1.2858;
4050845202844235;-8.5184;1.3908;-3.7149;
4050845212949443;-11.5678;0.8088;-3.5638;
4050845223052464;-9.4502;1.6304;0.1062;
4050845233157672;-8.3267;1.4243;0.1301;
4050845243262881;-9.4573;-0.3218;-3.1352;
4050845253363297;-12.8782;1.4650;-3.3817;
4050845263468453;-10.5712;2.5190;-0.6054;
4050845273573662;-4.7695;0.3392;-1.8153;
4050845283724808;-9.1986;0.7394;-4.1626;
4050845293830016;-11.6563;1.2039;-2.3686;
4050845303935224;-9.6706;1.0819;-3.9808;
4050845314014131;-7.8787;0.8160;-4.4477;
4050845324119339;-11.2110;0.7080;-2.5457;
4050845334224547;-8.6644;0.6147;-0.6963;
4050845344339651;-10.1833;0.3105;-3.0846;
4050845354444860;-12.2674;0.7394;-1.8081;
4050845364550068;-6.3215;0.1834;-0.9790;
4050845374612724;-6.2186;0.2985;-4.8981;
4050845384717933;-10.7486;1.3286;-1.9564;
4050845394823141;-10.2239;0.4014;-4.1530;
4050845404963766;-11.3426;0.1905;-5.0157;
4050845415068974;-10.8467;0.3559;-1.9158;
4050845425174183;-7.3564;0.1762;0.6284;
4050845435278870;-8.0130;-1.1100;-0.7107;
4050845445384078;-9.8695;-0.2094;-4.1913;
4050845455489287;-11.7619;0.7490;-3.9350;
4050845465576058;-7.2535;0.5524;-4.2371;
4050845475681266;-8.7461;0.4711;-3.5303;
4050845485786474;-10.3582;-0.3437;-1.6690;
4050845495899443;-8.4706;-0.4777;-2.6010;
4050845506004651;-10.5760;0.2171;-3.5542;
4050845516109860;-11.5774;-0.0706;-1.6379;
4050845526211891;-9.1053;-0.1280;0.7385;
4050845536317099;-7.2846;-0.3389;-3.8177;
4050845546422308;-11.1727;1.0795;-4.0478;
4050845556540589;-9.5773;0.3392;-1.8129;
4050845566645797;-8.2071;0.0733;-2.8068;
4050845576751006;-7.7782;-0.2166;-3.4848;
4050845586844599;-8.9590;0.8495;-4.8407;
4050845596949808;-11.8959;0.7370;-3.5231;
4050845607055016;-11.9560;1.1321;-1.3146;
4050845617162933;-7.2823;-0.1280;0.5755;
4050845627268141;-7.3998;1.3741;-4.0214;
4050845637373349;-11.0432;0.4421;-3.1158;
4050845647487308;-12.4493;1.0747;-2.4882;
4050845657592516;-7.7183;0.4421;-1.3098;
4050845667697672;-3.9646;0.2913;-3.4872;
4050845677798766;-12.4926;1.4770;-5.6934;
4050845687903974;-12.3129;1.6304;-1.8081;
4050845698009183;-8.0345;1.0460;-3.5471;
4050845708108766;-7.4477;0.5979;-0.9191;
4050845718213974;-8.7652;0.6434;-3.3697;
4050845728319183;-12.1307;0.4735;-2.7374;
4050845738418193;-8.7724;0.6888;-1.5685;
4050845748523349;-7.7925;1.4411;-3.1424;
4050845758628558;-8.2908;0.5094;-3.8536;
4050845768739495;-9.9126;0.4612;-3.4011;
4050845778844703;-10.4468;-0.0105;-1.6690;
4050845788949912;-11.5104;0.6936;-4.9388;
4050845799058141;-11.0886;1.1297;-2.0258;
4050845809163349;-6.9709;-0.0129;1.5386;
4050845819268558;-7.6511;-0.0583;-1.0678;
4050845829374078;-9.3353;0.5596;-4.6250;
4050845839479287;-10.5233;0.5979;-5.1377;
4050845849584495;-9.3640;-0.9042;-2.3423;
4050845859692620;-7.5242;0.9906;-2.8932;
4050845869797828;-9.2369;-0.3147;-3.5518;
4050845879903037;-10.0418;0.7729;-3.1878;
4050845890002412;-10.5688;0.0230;-3.7555;
4050845900107620;-9.7208;0.4086;-2.1673;
4050845910212828;-8.1709;-0.5853;-2.0163;
4050845920328974;-11.3402;0.3488;-0.9048;
4050845930434183;-9.2632;-0.1519;-1.7432;
4050845940539391;-11.5032;0.9260;-0.7397;
4050845950637724;-8.2167;-1.0908;-1.7408;
4050845960742933;-7.7016;0.0182;-2.7039;
4050845970848141;-8.5783;0.0757;-5.0372;
4050845980958662;-11.4721;0.3057;-4.9316;
4050845991063870;-12.6147;0.4253;-2.6225;
4050846001169078;-7.9843;-0.3314;0.2186;
4050846011266474;-6.5539;-0.2764;-1.5685;
4050846021371683;-10.5497;0.5333;-2.6441;
4050846031476891;-11.5965;0.4325;-3.3338;
4050846041575745;-9.8719;0.3846;-2.2582;
4050846051680901;-6.1277;-0.1184;-3.0511;
4050846061786058;-9.1675;1.0986;-3.2477;
4050846071917516;-9.5028;-0.0655;-3.9616;
4050846082022724;-11.6037;0.7801;-4.6513;
4050846092127933;-10.9570;0.3272;-0.9960;
4050846102219078;-8.3315;0.2001;-0.2605;
4050846112324287;-8.1565;0.7777;-1.1731;
4050846122429443;-10.6289;0.5955;-2.4212;
4050846132529078;-7.7495;1.1465;-2.4882;
4050846142634287;-10.5090;0.2746;-5.0755;
4050846152739495;-8.2813;0.9165;-2.2989;
4050846162835433;-7.0714;0.3272;-3.1615;
4050846172940641;-13.7381;1.1967;-4.7761;
4050846183045849;-10.8012;0.4421;-1.6283;
4050846193147881;-5.4138;0.8327;-0.5503;
4050846203253037;-8.4488;0.5812;-3.2596;
4050846213358245;-14.7395;1.5562;-2.4236;
4050846223469443;-10.5329;0.1044;-0.4496;
4050846233574651;-8.1087;1.1680;-1.4892;
4050846243679860;-7.8236;-0.1376;-2.1936;
4050846253786370;-8.0728;1.3478;-2.8765;
4050846263891578;-9.7089;0.2913;-4.4548;
4050846273996787;-11.8217;1.1728;-4.9914;
4050846284082360;-9.7567;0.3655;-2.7206;
4050846294187516;-7.8117;0.3535;-1.2473;
4050846304292672;-7.8547;0.5285;-1.7408;
4050846314422881;-11.0671;0.5142;-3.4537;
4050846324528089;-11.4697;0.9069;-3.3027;
4050846334633245;-8.4129;0.2913;-3.0224;
4050846344725537;-6.2761;0.5046;-2.9124;
4050846354830745;-6.7241;0.0063;-4.2826;
4050846364935953;-12.6553;1.3908;-6.3930;
4050846375042672;-11.7547;0.8542;-1.5565;
4050846385147881;-7.1507;-0.8707;0.3000;
4050846395253089;-9.2513;0.0637;-1.7384;
4050846405361214;-9.4717;0.7585;-2.6680;
4050846415466422;-12.2001;-0.3437;-1.6403;
4050846425571631;-10.3869;-0.0897;-1.1228;
4050846435697047;-5.9504;0.7032;-3.9182;
4050846445802256;-6.0966;0.7681;-4.2084;
4050846455907464;-9.0790;0.5477;-5.5280;
4050846466004443;-14.3994;0.2076;-3.6117;
4050846476109651;-10.5042;-0.2644;1.3397;
4050846486214860;-6.2785;-0.4920;-0.6102;
4050846496317828;-9.4789;0.7032;-4.4572;
4050846506423037;-12.0829;0.0589;-1.3552;
4050846516528245;-10.3750;-0.1424;-0.2533;
4050846526635381;-8.8466;0.5477;-4.3950;
4050846536740589;-7.4572;1.3095;-3.3888;
4050846546845797;-7.3205;-0.0921;-3.0344;
4050846556945745;-12.0589;1.3478;-4.3759;
4050846567050953;-11.7308;0.4062;-0.2797;
4050846577156162;-7.4812;-0.0583;-2.2319;
4050846587258610;-7.2392;1.0507;-2.8546;
4050846597363818;-9.3449;0.4181;-2.1577;
4050846607469026;-11.8457;-0.0033;-2.9195;
4050846617577828;-11.7739;0.9476;-2.3495;
4050846627683037;-7.9074;0.2219;-3.4513;
4050846637788245;-8.8442;1.1656;-2.2845;
4050846647901735;-8.6979;-0.0464;-1.0319;
4050846658006943;-10.3367;1.5610;-2.4978;
4050846668112151;-10.2383;-0.7244;-0.8856;
4050846678210172;-9.3927;-0.2644;-1.2138;
4050846688315381;-10.0346;0.1068;-3.6523;
4050846698420589;-11.2708;-0.2189;-0.4690;
4050846708519183;-6.7026;-0.7579;-0.5791;
4050846718624391;-10.0394;0.3918;-6.0048;
4050846728729599;-8.6548;-0.0248;-3.5399;
4050846738848922;-7.5242;-0.1663;-3.0009;
4050846748954131;-11.1631;1.2182;-4.9531;
4050846759059339;-11.5391;-0.5734;-0.5408;
4050846769161318;-7.4142;0.0374;-0.5408;
4050846779266526;-8.3195;-0.2237;-2.2965;
4050846789371735;-10.8299;1.4124;-3.4968;
4050846799467985;-12.2507;0.1235;-1.9349;
4050846809573193;-9.1579;0.1499;-1.7073;
4050846819678401;-6.1588;-0.1089;-2.1840;
4050846829798922;-7.4501;2.0880;-6.1750;
4050846839904131;-13.2685;2.3444;-4.9388;
4050846850009339;-10.2072;0.8925;0.8824;
4050846860110276;-9.6299;-0.2548;-1.2811;
4050846870215485;-11.4099;0.9212;-1.2066;
4050846880320693;-10.7486;0.4205;0.2976;
4050846890423297;-7.2392;1.0603;-2.5935;
4050846900528506;-8.0728;1.8437;-4.3161;
4050846910633714;-10.2550;2.0785;-6.4576;
4050846920733610;-6.3168;2.6028;-4.7713;
4050846930838818;-8.3770;2.6821;-5.9186;
4050846940944026;-11.3498;3.2641;-3.1567;
4050846951055797;-10.2814;-1.3089;0.9111;
4050846961161006;-8.7003;-0.6144;1.7518;
4050846971266214;-8.3339;1.3214;-5.2768;
4050846981367256;-10.1163;2.9312;-6.2085;
