Sensor: bmi160 Gyroscope Non-wakeup
Vendor: BOSCH
TimestampGyro [ns]; GyroX [rad/s]; GyroY [rad/s]; GyroZ [rad/s]
1629188503756123;-0.0009;-0.0025;-0.0084;
1629188513867269;0.0023;0.0049;-0.0105;
1629188523949352;0.0065;0.0007;-0.0073;
1629188534072998;0.0044;-0.0015;-0.0073;
1629188544168154;0.0023;-0.0004;-0.0073;
1629188554263102;0.0044;0.0028;-0.0063;
1629188564329717;0.0108;0.0049;-0.0084;
1629188574460915;0.0140;0.0017;-0.0052;
1629188584582738;0.0119;-0.0015;-0.0063;
1629188594669925;0.0108;-0.0015;-0.0073;
1629188604776748;0.0129;-0.0004;-0.0095;
1629188614891227;0.0108;-0.0004;-0.0084;
1629188624977842;0.0097;0.0017;-0.0084;
1629188635097894;0.0033;0.0017;-0.0095;
1629188645189404;-0.0020;-0.0004;-0.0095;
1629188655287738;-0.0009;0.0007;-0.0073;
1629188665416644;0.0033;0.0028;-0.0073;
1629188675494613;0.0033;-0.0004;-0.0073;
1629188685598779;0.0055;-0.0015;-0.0052;
1629188695702998;0.0087;-0.0025;-0.0031;
1629188705807425;0.0119;-0.0004;-0.0041;
1629188715904040;0.0108;0.0017;-0.0073;
1629188726011592;0.0065;0.0007;-0.0073;
1629188736113779;0.0001;0.0017;-0.0052;
1629188746214040;0.0001;0.0028;-0.0041;
1629188756321384;0.0023;0.0049;-0.0041;
1629188766427425;0.0076;0.0060;-0.0041;
1629188776504144;0.0087;0.0060;-0.0031;
1629188786628415;0.0087;0.0049;-0.0020;
1629188796734196;0.0097;0.0071;-0.0052;
1629188806838779;0.0065;0.0039;-0.0084;
1629188816941175;0.0033;0.0039;-0.0095;
1629188827085915;0.0044;0.0060;-0.0105;
1629188837148988;0.0065;0.0124;-0.0137;
1629188847257113;0.0097;0.0156;-0.0169;
1629188857356800;0.0172;0.0166;-0.0201;
1629188867453206;0.0257;0.0166;-0.0212;
1629188877564040;0.0342;0.0198;-0.0265;
1629188887663884;0.0406;0.0230;-0.0254;
1629188897767165;0.0534;0.0284;-0.0244;
1629188907872425;0.0619;0.0316;-0.0222;
1629188917978259;0.0672;0.0305;-0.0201;
1629188928080654;0.0790;0.0369;-0.0201;
1629188938181175;0.1109;0.0507;-0.0212;
1629188948289509;0.1386;0.0539;-0.0201;
1629188958395446;0.1471;0.0497;-0.0201;
1629188968492842;0.1546;0.0635;-0.0233;
1629188978581019;0.1290;0.0614;-0.0286;
1629188988699300;0.0875;0.0390;-0.0318;
1629188998791436;0.0619;0.0284;-0.0329;
1629189008903363;0.0395;0.0209;-0.0308;
1629189019005446;0.0246;0.0188;-0.0265;
1629189029110446;0.0150;0.0166;-0.0244;
1629189039212529;0.0129;0.0177;-0.0212;
1629189049316331;0.0055;0.0145;-0.0169;
1629189059423831;0.0065;0.0081;-0.0116;
1629189069522165;0.0065;0.0017;-0.0052;
1629189079637113;0.0044;-0.0068;-0.0009;
1629189089737009;0.0033;-0.0132;0.0023;
1629189099839509;0.0033;-0.0142;0.0044;
1629189109922946;0.0065;-0.0132;0.0055;
1629189120040238;0.0108;-0.0142;0.0076;
1629189130140863;0.0342;-0.0132;0.0119;
1629189140248363;0.0736;-0.0100;0.0204;
1629189150351071;0.1109;-0.0089;0.0268;
1629189160447738;0.1397;-0.0121;0.0310;
1629189170557113;0.1716;-0.0164;0.0364;
1629189180657009;0.2185;-0.0196;0.0449;
1629189190769509;0.2728;-0.0185;0.0555;
1629189200859977;0.3282;-0.0174;0.0640;
1629189210973675;0.3718;-0.0185;0.0726;
1629189221084248;0.3941;-0.0196;0.0758;
1629189231175759;0.4144;-0.0249;0.0790;
1629189241300759;0.4485;-0.0270;0.0843;
1629189251386384;0.4985;-0.0281;0.0896;
1629189261487425;0.5486;-0.0238;0.0971;
1629189271591488;0.5827;-0.0228;0.0981;
1629189281706956;0.6200;-0.0217;0.0981;
1629189291793311;0.6658;-0.0153;0.1024;
1629189301894248;0.7031;-0.0153;0.1109;
1629189311994040;0.7318;-0.0164;0.1130;
1629189322105186;0.7627;-0.0121;0.1162;
1629189332229613;0.7659;-0.0111;0.1162;
1629189342318988;0.7457;-0.0142;0.1067;
1629189352416279;0.7307;-0.0185;0.0917;
1629189362536123;0.7073;-0.0185;0.0822;
1629189372624613;0.6849;-0.0217;0.0800;
1629189382727425;0.6892;-0.0185;0.0758;
1629189392832217;0.6892;-0.0111;0.0640;
1629189402925134;0.6562;-0.0121;0.0513;
1629189413043050;0.6178;-0.0142;0.0417;
1629189423200498;0.5859;-0.0153;0.0353;
1629189433233050;0.5433;-0.0217;0.0278;
1629189443333154;0.4996;-0.0249;0.0193;
1629189453456436;0.4815;-0.0206;0.0150;
1629189463560186;0.4549;-0.0217;0.0119;
1629189473665759;0.3622;-0.0345;0.0087;
1629189483801696;0.2707;-0.0387;-0.0095;
1629189493860081;0.1993;-0.0462;0.0161;
1629189503947113;0.0619;-0.0782;0.0491;
1629189514082790;0.1418;-0.0260;0.0385;
1629189524181540;0.2814;0.0475;0.0300;
1629189534265394;0.3462;0.0624;0.0108;
1629189544396331;0.3462;0.0593;0.0033;
1629189554469873;0.3579;0.0539;0.0150;
1629189564587217;0.4261;0.0220;0.0385;
1629189574675654;0.5507;-0.0111;0.0513;
1629189584803363;0.6051;-0.0132;0.0491;
1629189594909248;0.6178;-0.0004;0.0395;
1629189605015081;0.6796;-0.0004;0.0289;
1629189615123779;0.7595;0.0007;0.0257;
1629189625229613;0.8128;0.0124;0.0161;
1629189635335498;0.8138;0.0145;0.0108;
1629189645427529;0.7776;-0.0068;0.0055;
1629189655533415;0.7307;-0.0430;-0.0137;
1629189665639248;0.6817;-0.0686;-0.0457;
1629189675726800;0.6200;-0.0707;-0.0840;
1629189685832686;0.5486;-0.0590;-0.1032;
1629189695938519;0.4921;-0.0462;-0.1075;
1629189706034196;0.4538;-0.0526;-0.1362;
1629189716140081;0.4282;-0.0728;-0.1746;
1629189726245915;0.3750;-0.0409;-0.2161;
1629189736341384;0.3675;-0.0111;-0.2182;
1629189746447269;0.4165;-0.0324;-0.1980;
1629189756553102;0.4112;-0.0558;-0.2268;
1629189766662425;0.3867;-0.0622;-0.2726;
1629189776768311;0.4186;-0.0292;-0.2694;
1629189786874144;0.4794;0.0039;-0.2363;
1629189796961384;0.5060;0.0007;-0.2449;
1629189807067269;0.5837;-0.0025;-0.2694;
1629189817173102;0.6775;0.0124;-0.2214;
1629189827280550;0.7521;0.0273;-0.1628;
1629189837386436;0.8128;0.0071;-0.1586;
1629189847492269;0.8213;-0.0281;-0.1341;
1629189857586071;0.7574;-0.0324;-0.0723;
1629189867691956;0.7084;-0.0164;-0.0318;
1629189877797790;0.6551;-0.0324;-0.0350;
1629189887895238;0.5433;-0.0313;-0.0446;
1629189898001123;0.3707;-0.0196;-0.0254;
1629189908106956;0.3346;-0.0089;-0.0265;
1629189918203675;0.2302;-0.0387;-0.0478;
1629189928309561;-0.0286;-0.0483;-0.0478;
1629189938415394;-0.2672;-0.0121;-0.0286;
1629189948482529;-0.4610;0.0241;-0.0457;
1629189958588363;-0.6602;0.0241;-0.0766;
1629189968694248;-0.9072;0.0092;-0.0744;
1629189978828675;-1.1128;0.0156;-0.0521;
1629189988934561;-1.2118;0.0252;-0.0776;
1629189999040394;-1.2864;0.0113;-0.0979;
1629190009130967;-1.4004;0.0209;-0.0734;
1629190019236852;-1.4057;0.0465;-0.0627;
1629190029342686;-1.3674;0.0443;-0.0936;
1629190039437113;-1.3556;0.0433;-0.0936;
1629190049542998;-1.3226;0.0305;-0.0553;
1629190059648831;-1.2310;0.0220;-0.0680;
1629190069754717;-1.1245;0.0166;-0.0798;
1629190079860602;-1.0829;0.0007;-0.0308;
1629190089966436;-1.0435;0.0134;-0.0137;
1629190100061800;-0.9285;0.0177;-0.0574;
1629190110167686;-0.8189;0.0017;-0.0585;
1629190120273519;-0.7113;-0.0089;-0.0190;
1629190130370759;-0.5686;-0.0004;-0.0286;
1629190140476644;-0.4280;0.0230;-0.0521;
1629190150582477;-0.3342;0.0316;-0.0201;
1629190160700550;-0.2300;0.0443;0.0055;
1629190170806436;-0.0723;0.0518;-0.0308;
1629190180912269;0.0140;0.0262;-0.0393;
1629190190989196;0.0502;-0.0196;-0.0126;
1629190201095081;0.1471;-0.0569;-0.0446;
1629190211200915;0.2206;-0.0899;-0.0702;
1629190221297790;0.1993;-0.1037;-0.0478;
1629190231403675;0.1610;-0.0632;-0.0457;
1629190241509509;0.1663;-0.0206;-0.0808;
1629190251610863;0.1620;-0.0249;-0.0883;
1629190261716748;0.1439;-0.0228;-0.0776;
1629190271822581;0.1407;-0.0025;-0.1107;
1629190281897425;0.1088;-0.0057;-0.1320;
1629190292003311;0.0672;0.0049;-0.1298;
1629190302109144;0.1013;0.0166;-0.1511;
1629190312233363;0.1205;0.0156;-0.1565;
1629190322339248;0.0640;0.0156;-0.1266;
1629190332445081;0.0566;0.0113;-0.1543;
1629190342539821;0.0811;0.0177;-0.1703;
1629190352645706;0.0577;0.0060;-0.1234;
1629190362751540;0.0822;0.0028;-0.1256;
1629190372858050;0.1152;0.0284;-0.1170;
1629190382963936;0.1130;0.0198;-0.0755;
1629190393069769;0.1652;0.0092;-0.0755;
1629190403185029;0.2174;0.0081;-0.0414;
1629190413290915;0.2196;-0.0142;0.0129;
1629190423396748;0.2451;-0.0036;0.0161;
1629190433483571;0.2483;0.0049;0.0672;
1629190443589456;0.2398;-0.0089;0.0907;
1629190453695290;0.2643;0.0252;0.0747;
1629190463815134;0.2377;0.0198;0.1194;
1629190473920967;0.2217;-0.0089;0.1344;
1629190484026852;0.1865;0.0369;0.1429;
1629190494083675;0.0917;0.0411;0.1759;
1629190504189561;0.0364;0.0284;0.1525;
1629190514295394;0.0129;0.0230;0.1770;
1629190524388571;-0.0009;0.0092;0.1876;
1629190534494456;-0.0563;0.0134;0.1738;
1629190544600290;-0.1458;0.0007;0.1992;
1629190554709092;-0.1927;-0.0004;0.1716;
1629190564814977;-0.2214;0.0103;0.1865;
1629190574920863;-0.2438;0.0028;0.1972;
1629190585007529;-0.2353;-0.0057;0.1599;
1629190595113415;-0.2118;-0.0174;0.1620;
1629190605219248;-0.2033;-0.0494;0.1173;
1629190615348154;-0.2118;-0.0601;0.1248;
1629190625453988;-0.2182;-0.0249;0.1535;
1629190635559873;-0.2129;-0.0260;0.1727;
1629190645650238;-0.2012;-0.0057;0.1663;
1629190655756123;-0.1724;0.0071;0.1013;
1629190665861956;-0.1639;-0.0004;0.0843;
1629190675947373;-0.1149;-0.0036;0.0662;
1629190686053259;-0.0904;0.0124;0.0715;
1629190696159092;-0.0723;0.0124;0.0928;
1629190706263206;-0.0670;0.0166;0.0779;
1629190716369092;-0.0680;0.0103;0.0854;
1629190726474925;-0.0936;-0.0185;0.0385;
1629190736575967;-0.1192;-0.0100;0.0289;
1629190746681852;-0.1458;-0.0228;-0.0063;
1629190756787686;-0.1671;-0.0260;-0.0126;
1629190766880863;-0.1916;-0.0217;-0.0457;
1629190776986748;-0.2300;-0.0100;-0.0670;
1629190787092581;-0.2385;-0.0047;-0.0851;
1629190797188988;-0.2715;-0.0079;-0.1138;
1629190807294873;-0.2820;-0.0089;-0.1352;
1629190817400706;-0.2683;0.0028;-0.1575;
1629190827521592;-0.2662;-0.0025;-0.1362;
1629190837627425;-0.2672;-0.0036;-0.1692;
1629190847733311;-0.2300;-0.0260;-0.1628;
1629190857809456;-0.2055;-0.0185;-0.2012;
1629190867915342;-0.1660;-0.0174;-0.1660;
1629190878021175;-0.1479;-0.0089;-0.1969;
1629190888125550;-0.0979;-0.0068;-0.1756;
1629190898231436;-0.0680;-0.0047;-0.1948;
1629190908337269;-0.0659;0.0071;-0.1692;
1629190918432321;-0.0617;0.0103;-0.1905;
1629190928538206;-0.0627;-0.0047;-0.1735;
1629190938644040;-0.0734;-0.0111;-0.1895;
1629190948741019;-0.0766;0.0156;-0.1788;
1629190958845081;-0.0787;0.0134;-0.1905;
1629190968949144;-0.0851;0.0156;-0.1714;
1629190979048206;-0.0808;-0.0025;-0.1905;
1629190989152269;-0.0808;-0.0238;-0.1682;
1629190999256331;-0.0851;-0.0068;-0.1927;
1629191009359665;-0.0798;-0.0196;-0.1639;
1629191019463727;-0.0798;-0.0334;-0.1703;
1629191029567790;-0.0702;-0.0206;-0.1554;
1629191039668936;-0.0680;-0.0142;-0.1682;
1629191049772998;-0.0617;-0.0206;-0.1628;
1629191059877061;-0.0521;-0.0249;-0.1650;
1629191069978206;-0.0169;-0.0174;-0.1554;
1629191080082269;-0.0318;-0.0057;-0.1778;
1629191090186331;-0.0073;0.0252;-0.1810;
1629191100293311;0.0225;0.0188;-0.1703;
1629191110397373;0.0566;0.0188;-0.1692;
1629191120501488;0.0779;0.0039;-0.1671;
1629191130602998;0.1162;0.0039;-0.1756;
1629191140707061;0.1322;0.0071;-0.1479;
1629191150811123;0.1418;0.0081;-0.1639;
1629191160894092;0.1844;0.0039;-0.1394;
1629191170998102;0.2004;-0.0164;-0.1490;
1629191181102217;0.2334;-0.0238;-0.1288;
1629191191219352;0.2249;-0.0302;-0.1352;
1629191201323415;0.2600;-0.0313;-0.1202;
1629191211427477;0.2526;-0.0228;-0.1021;
1629191221535915;0.2558;-0.0142;-0.0936;
1629191231639977;0.2675;-0.0249;-0.0776;
1629191241744040;0.2526;-0.0174;-0.0936;
1629191251842581;0.2643;0.0017;-0.0734;
1629191261946644;0.2398;-0.0185;-0.0478;
1629191272050706;0.2036;-0.0036;-0.0563;
1629191282170706;0.2068;0.0049;-0.0606;
1629191292274769;0.1738;0.0039;-0.0798;
1629191302378831;0.1535;0.0134;-0.0617;
1629191312465602;0.1152;0.0028;-0.0680;
1629191322569665;0.1035;0.0039;-0.0840;
1629191332673779;0.0854;0.0145;-0.0979;
1629191342775342;0.0672;0.0316;-0.0947;
1629191352879456;0.0736;0.0103;-0.0648;
1629191362983519;0.0715;-0.0228;-0.0680;
1629191373103050;0.0577;-0.0068;-0.0862;
1629191383207113;0.0768;0.0124;-0.0819;
1629191393311175;0.0630;0.0134;-0.0893;
1629191403383259;0.0609;0.0134;-0.0840;
1629191413487321;0.0683;0.0124;-0.0872;
1629191423591384;0.0555;0.0017;-0.0893;
1629191433698831;0.0672;-0.0079;-0.0915;
1629191443802894;0.0619;-0.0164;-0.1064;
1629191453906956;0.0545;-0.0334;-0.1011;
1629191464017581;0.0662;-0.0505;-0.0904;
1629191474121644;0.0630;-0.0547;-0.0840;
1629191484225706;0.0555;-0.0238;-0.0798;
1629191494326123;0.0704;-0.0100;-0.0744;
1629191504430186;0.0747;0.0103;-0.0734;
1629191514534248;0.0843;0.0198;-0.0755;
1629191524628675;0.0928;-0.0036;-0.0883;
1629191534732738;0.0917;0.0156;-0.1043;
1629191544836800;0.1003;0.0166;-0.1011;
1629191554955654;0.0949;0.0028;-0.1160;
1629191565059717;0.1109;-0.0238;-0.1192;
1629191575163779;0.1258;-0.0558;-0.1011;
1629191585289456;0.1258;-0.0622;-0.0872;
1629191595393519;0.1152;-0.0132;-0.0862;
1629191605497581;0.1365;0.0049;-0.0840;
1629191615562998;0.1855;-0.0217;-0.0840;
1629191625667061;0.2217;-0.0260;-0.0723;
1629191635771123;0.1897;-0.0324;-0.0659;
1629191645879509;0.1823;-0.0068;-0.0723;
1629191655983571;0.1834;0.0028;-0.0734;
1629191666087634;0.1865;-0.0260;-0.0744;
1629191676186123;0.1961;-0.0356;-0.0744;
1629191686290238;0.1876;-0.0153;-0.0798;
1629191696394248;0.1770;-0.0111;-0.0744;
1629191706490602;0.2036;-0.0004;-0.0744;
1629191716594665;0.2451;-0.0281;-0.0585;
1629191726698727;0.2409;-0.0569;-0.0467;
1629191736801227;0.1972;-0.0483;-0.0574;
1629191746905290;0.2004;-0.0324;-0.0585;
1629191757009352;0.2089;-0.0377;-0.0542;
1629191767115394;0.2121;-0.0302;-0.0819;
1629191777219456;0.2260;-0.0100;-0.0925;
1629191787323571;0.1983;0.0198;-0.0840;
1629191797427686;0.2057;0.0369;-0.0819;
1629191807531748;0.2377;0.0166;-0.0947;
1629191817635811;0.2814;-0.0345;-0.0915;
1629191827724352;0.2771;-0.0664;-0.0915;
1629191837828415;0.2249;-0.0366;-0.0819;
1629191847932477;0.1876;0.0071;-0.0862;
1629191858049665;0.2260;0.0028;-0.0947;
1629191868153727;0.2686;-0.0217;-0.0957;
1629191878257790;0.2739;-0.0249;-0.0893;
1629191888360238;0.2686;-0.0185;-0.0915;
1629191898464248;0.2846;0.0039;-0.0947;
1629191908568311;0.3441;-0.0015;-0.0776;
1629191918668727;0.3760;-0.0132;-0.0680;
1629191928772790;0.3760;-0.0100;-0.0691;
1629191938876852;0.3696;0.0177;-0.0648;
1629191948972581;0.3675;0.0390;-0.0595;
1629191959076123;0.3931;0.0262;-0.0467;
1629191969179613;0.4101;0.0071;-0.0521;
1629191979283623;0.4399;0.0028;-0.0350;
1629191989387113;0.4538;0.0081;-0.0105;
1629191999490654;0.4655;0.0007;0.0214;
1629192009602373;0.4730;-0.0132;0.0481;
1629192019705863;0.4581;0.0049;0.0587;
1629192029809404;0.4367;0.0379;0.0726;
1629192039905759;0.4176;0.0337;0.0981;
1629192050009300;0.3952;0.0294;0.1024;
1629192060112790;0.3845;0.0241;0.1077;
1629192070212321;0.3686;0.0188;0.1375;
1629192080315759;0.3229;0.0465;0.1386;
1629192090419248;0.2984;0.0401;0.1471;
1629192100522634;0.2941;0.0348;0.1567;
1629192110626123;0.2941;0.0358;0.1674;
1629192120729561;0.2846;0.0230;0.1780;
1629192130826071;0.2782;0.0571;0.1684;
1629192140929509;0.2899;0.0699;0.1716;
1629192151033050;0.2814;0.0486;0.1652;
1629192161162634;0.2846;0.0656;0.1546;
1629192171266123;0.2920;0.0774;0.1610;
1629192181369665;0.3122;0.0593;0.1663;
1629192191466852;0.3080;0.0262;0.1823;
1629192201570394;0.2909;0.0433;0.1791;
1629192211673884;0.2899;0.0731;0.1834;
1629192221771852;0.2760;0.0838;0.1812;
1629192231875342;0.2675;0.0752;0.1834;
1629192241978884;0.2686;0.0305;0.2024;
1629192252078623;0.2590;0.0039;0.2067;
1629192262182165;0.2579;0.0198;0.2077;
1629192272285654;0.2409;0.0039;0.2130;
1629192282396436;0.2206;0.0028;0.2056;
1629192292499925;0.2281;0.0145;0.2184;
1629192302603467;0.2366;0.0433;0.2258;
1629192312688988;0.2036;0.0827;0.2248;
1629192322792477;0.1642;0.0933;0.2322;
1629192332895915;0.1407;0.0720;0.2173;
1629192343018675;0.1099;0.0582;0.2184;
1629192353122113;0.0747;0.0166;0.2280;
1629192363225602;0.0779;0.0305;0.2130;
1629192373296175;0.0811;0.0411;0.1992;
1629192383399665;0.0683;0.0156;0.2120;
1629192393503154;0.0353;0.0198;0.2173;
1629192403643206;-0.0009;-0.0111;0.2237;
1629192413746696;-0.0009;-0.0537;0.2290;
1629192423850186;-0.0041;-0.0206;0.2248;
1629192433919769;-0.0276;0.0103;0.1951;
1629192444023259;-0.0340;0.0156;0.1834;
1629192454126800;-0.0499;0.0188;0.1897;
1629192464279456;-0.0691;0.0198;0.1834;
1629192474382946;-0.0510;0.0678;0.1631;
1629192484486488;-0.0499;0.0358;0.1791;
1629192494542009;-0.0478;-0.0451;0.1940;
1629192504645498;-0.0212;-0.0537;0.1727;
1629192514748988;-0.0009;-0.0185;0.1823;
1629192524862529;-0.0095;0.0273;0.1897;
1629192534966019;-0.0457;0.0539;0.1748;
1629192545069509;-0.0808;0.0411;0.1535;
1629192555196227;-0.0531;0.0294;0.1493;
1629192565299717;-0.0478;0.0284;0.1312;
1629192575403206;-0.0329;-0.0015;0.1429;
1629192585501852;-0.0254;-0.0004;0.1429;
1629192595605342;-0.0254;0.0071;0.1461;
1629192605708884;-0.0201;-0.0047;0.1493;
1629192615792581;-0.0286;-0.0068;0.1439;
1629192625896071;0.0012;-0.0292;0.1525;
1629192635999613;0.0044;-0.0238;0.1525;
1629192646118259;0.0001;-0.0004;0.1375;
1629192656221748;0.0182;-0.0228;0.1535;
1629192666325290;0.0076;-0.0142;0.1418;
1629192676417477;-0.0137;0.0422;0.1461;
1629192686520967;-0.0201;0.0262;0.1631;
1629192696624509;-0.0265;-0.0068;0.1578;
1629192706731331;-0.0361;-0.0047;0.1546;
1629192716834821;-0.0425;0.0348;0.1557;
1629192726938363;-0.0659;0.0593;0.1461;
1629192737037373;-0.0830;0.0134;0.1503;
1629192747140863;-0.1064;-0.0047;0.1439;
1629192757244404;-0.1405;-0.0057;0.1280;
1629192767353415;-0.1714;-0.0196;0.1035;
1629192777456956;-0.1756;-0.0206;0.0822;
1629192787560446;-0.1724;-0.0036;0.0800;
1629192797662425;-0.1756;0.0017;0.0662;
1629192807765967;-0.1639;-0.0174;0.0545;
1629192817869456;-0.1288;-0.0419;0.0481;
1629192827981019;-0.1053;-0.0441;0.0278;
1629192838084509;-0.0872;-0.0260;0.0374;
1629192848188050;-0.0787;-0.0228;0.0523;
1629192858279509;-0.0648;-0.0079;0.0513;
1629192868382998;-0.0595;0.0049;0.0427;
1629192878486540;-0.0627;0.0230;0.0385;
1629192888593102;-0.0638;0.0060;0.0427;
1629192898696592;-0.0521;-0.0515;0.0502;
1629192908800134;-0.0617;-0.0377;0.0417;
1629192918918311;-0.0723;-0.0004;0.0364;
1629192929021800;-0.0627;-0.0111;0.0246;
1629192939125342;-0.0553;-0.0036;0.0257;
1629192949214040;-0.0638;0.0145;0.0214;
1629192959317529;-0.0457;0.0081;0.0246;
1629192969420967;-0.0350;0.0060;0.0225;
1629192979520915;-0.0425;0.0284;-0.0073;
1629192989624404;-0.0126;0.0294;-0.0020;
1629192999727842;0.0012;-0.0121;0.0214;
1629193009834665;0.0023;-0.0281;0.0289;
1629193019938154;0.0150;0.0092;0.0225;
1629193030041592;0.0246;0.0092;0.0374;
1629193040139561;0.0150;-0.0132;0.0545;
1629193050243050;-0.0116;-0.0185;0.0630;
1629193060346488;-0.0073;-0.0174;0.0683;
1629193070459144;-0.0233;-0.0153;0.0566;
1629193080562634;-0.0350;-0.0185;0.0534;
1629193090666071;-0.0403;-0.0079;0.0577;
1629193100762165;-0.0382;-0.0025;0.0545;
1629193110865654;-0.0233;-0.0313;0.0598;
1629193120969092;-0.0180;0.0177;0.0609;
1629193131072269;-0.0308;0.0507;0.0491;
1629193141175759;-0.0254;0.0252;0.0694;
1629193151279196;-0.0627;0.0071;0.0662;
1629193161386852;-0.0659;0.0284;0.0598;
1629193171490342;-0.0755;0.0529;0.0481;
1629193181593779;-0.0712;0.0220;0.0513;
1629193191693727;-0.0808;-0.0111;0.0470;
1629193201797217;-0.0798;-0.0217;0.0534;
1629193211900654;-0.0830;-0.0505;0.0406;
1629193222002165;-0.0979;-0.0643;0.0225;
1629193232105654;-0.1053;-0.0409;0.0193;
1629193242209092;-0.1032;0.0049;0.0204;
1629193252306175;-0.0744;-0.0004;0.0129;
1629193262409613;-0.0531;-0.0111;0.0129;
1629193272513050;-0.0435;-0.0025;-0.0052;
1629193282637477;-0.0137;0.0092;0.0097;
1629193292740967;-0.0073;0.0039;0.0332;
1629193302844404;-0.0244;0.0209;0.0300;
1629193312926852;-0.0244;0.0316;0.0119;
1629193323030342;-0.0116;-0.0153;0.0257;
1629193333133779;-0.0446;-0.0558;0.0204;
1629193343237477;-0.0553;-0.0494;0.0097;
1629193353340967;-0.0883;-0.0387;0.0097;
1629193363444404;-0.0989;0.0092;-0.0052;
1629193373577269;-0.0755;0.0401;-0.0095;
1629193383680759;-0.0499;0.0230;0.0055;
1629193393784196;-0.0222;-0.0015;0.0108;
1629193403873988;-0.0105;-0.0111;0.0097;
1629193413977477;0.0012;0.0092;0.0055;
1629193424080915;0.0150;-0.0121;0.0214;
1629193434186644;0.0182;-0.0654;0.0640;
1629193444290134;-0.0148;-0.0387;0.0587;
1629193454393571;-0.0297;-0.0142;0.0459;
1629193464502998;-0.0478;0.0017;0.0619;
1629193474606488;-0.0553;0.0656;0.0598;
1629193484709925;-0.0563;0.1051;0.0555;
1629193494805915;-0.0531;0.0656;0.0470;
1629193504909404;-0.0553;0.0092;0.0417;
1629193515012842;-0.0851;-0.0206;0.0566;
1629193525116019;-0.1096;-0.0142;0.0502;
1629193535219509;-0.1021;-0.0238;0.0587;
1629193545322946;-0.1160;-0.0196;0.0534;
1629193555402425;-0.1181;-0.0132;0.0353;
1629193565505863;-0.1107;-0.0324;0.0523;
1629193575609352;-0.1458;-0.0206;0.0545;
1629193585720759;-0.1714;0.0252;0.0268;
1629193595824248;-0.1394;0.0433;0.0204;
1629193605927686;-0.0989;0.0241;0.0225;
1629193616039769;-0.0925;-0.0302;0.0406;
1629193626143259;-0.1415;-0.0675;0.0385;
1629193636246696;-0.1660;-0.0377;0.0225;
1629193646345811;-0.1980;0.0113;0.0204;
1629193656449300;-0.2236;0.0411;0.0129;
1629193666552738;-0.1788;0.0230;0.0065;
1629193676644248;-0.1522;0.0177;-0.0180;
1629193686747686;-0.1458;-0.0004;-0.0361;
1629193696851123;-0.1543;-0.0079;-0.0382;
1629193706964873;-0.1490;0.0028;-0.0286;
1629193717068363;-0.1639;0.0486;-0.0446;
1629193727171800;-0.1288;0.0358;-0.0531;
1629193737279769;-0.0968;-0.0111;-0.0425;
1629193747383259;-0.1149;-0.0015;-0.0446;
1629193757486696;-0.1266;0.0060;-0.0414;
1629193767591123;-0.1234;-0.0111;-0.0542;
1629193777694613;-0.1192;-0.0174;-0.0574;
1629193787798050;-0.1085;-0.0345;-0.0499;
1629193797903102;-0.1032;-0.0473;-0.0542;
1629193808006592;-0.0830;-0.0792;-0.0403;
1629193818110081;-0.0957;-0.0579;-0.0595;
1629193828218102;-0.0947;0.0124;-0.0563;
1629193838321592;-0.1064;0.0443;-0.0350;
1629193848425029;-0.0979;0.0454;-0.0467;
1629193858514665;-0.0648;-0.0100;-0.0499;
1629193868618154;-0.0883;-0.0441;-0.0446;
1629193878721592;-0.1266;-0.0281;-0.0478;
1629193888829873;-0.1213;-0.0601;-0.0414;
1629193898933363;-0.1469;-0.0409;-0.0574;
1629193909036800;-0.1479;0.0113;-0.0659;
1629193919136644;-0.1170;-0.0100;-0.0478;
1629193929240134;-0.1053;-0.0015;-0.0499;
1629193939343571;-0.1011;0.0177;-0.0670;
1629193949453831;-0.1021;-0.0111;-0.0862;
1629193959557269;-0.0925;-0.0462;-0.0744;
1629193969660759;-0.0862;-0.0494;-0.0521;
1629193979742009;-0.0734;-0.0164;-0.0638;
1629193989845446;-0.0851;-0.0228;-0.0617;
1629193999948884;-0.1032;-0.0281;-0.0627;
1629194010074144;-0.0830;0.0028;-0.0723;
1629194020177634;-0.0734;0.0113;-0.0830;
1629194030281071;-0.0872;0.0103;-0.0968;
1629194040380342;-0.0819;-0.0260;-0.0830;
1629194050483831;-0.0606;-0.0356;-0.0819;
1629194060587269;-0.0393;-0.0206;-0.0808;
1629194070688831;-0.0180;-0.0174;-0.0819;
1629194080792321;-0.0265;0.0060;-0.0925;
1629194090895759;-0.0340;0.0284;-0.0840;
1629194100993102;-0.0180;0.0177;-0.0872;
1629194111096592;0.0001;0.0103;-0.0947;
1629194121200081;-0.0286;0.0262;-0.0947;
1629194131307998;-0.0617;0.0145;-0.0862;
1629194141411488;-0.0403;-0.0057;-0.0808;
1629194151514925;-0.0297;0.0028;-0.1107;
1629194161613988;-0.0190;0.0049;-0.1000;
1629194171717477;-0.0180;0.0007;-0.0883;
1629194181820915;-0.0073;0.0188;-0.0925;
1629194191921800;0.0012;-0.0068;-0.0862;
1629194202025238;0.0033;-0.0174;-0.1043;
1629194212128675;0.0065;-0.0047;-0.0862;
1629194222236852;-0.0020;-0.0430;-0.0798;
1629194232340342;0.0694;-0.0142;-0.0840;
1629194242443779;0.0555;-0.0004;-0.0787;
1629194252544561;-0.0041;0.0060;-0.0627;
1629194262648050;-0.0222;0.0273;-0.0510;
1629194272751488;-0.0286;0.0124;-0.0734;
1629194282877581;-0.0084;-0.0324;-0.0680;
1629194292981071;-0.0137;-0.0483;-0.0606;
1629194303084509;0.0065;-0.0462;-0.0595;
1629194313189040;0.0257;-0.0398;-0.0585;
1629194323292529;0.0129;-0.0238;-0.0702;
1629194333396019;-0.0031;-0.0057;-0.0531;
1629194343490186;0.0182;-0.0366;-0.0361;
1629194353593675;0.0150;-0.0132;-0.0670;
1629194363697113;0.0321;-0.0515;-0.0467;
1629194373827998;0.0385;-0.0718;-0.0340;
1629194383931488;-0.0020;-0.0142;-0.0457;
1629194394034925;0.0225;-0.0760;-0.0148;
1629194404109248;0.0001;-0.0515;-0.0212;
1629194414212738;0.0087;0.0028;-0.0233;
1629194424316175;0.0214;0.0358;-0.0414;
1629194434409769;0.0204;0.0678;-0.0563;
1629194444513259;0.0332;0.0742;-0.0585;
1629194454616748;0.0449;0.0997;-0.0521;
1629194464729248;0.0715;0.0816;-0.0393;
1629194474832738;0.0747;0.0678;-0.0648;
1629194484936175;0.0640;0.1146;-0.0734;
1629194495023675;0.0758;0.1146;-0.0648;
1629194505127113;0.0992;0.0443;-0.0510;
1629194515230550;0.0811;-0.0004;-0.0691;
1629194525341123;0.0566;0.0049;-0.0723;
1629194535444613;0.0513;-0.0068;-0.0648;
1629194545548050;0.0694;-0.0398;-0.0585;
1629194555650186;0.0704;-0.0558;-0.0723;
1629194565753675;0.0566;-0.0249;-0.0563;
1629194575857113;0.0566;-0.0132;-0.0286;
1629194585975290;0.0832;0.0092;-0.0414;
1629194596078779;0.1099;0.0198;-0.0372;
1629194606182217;0.1088;-0.0015;-0.0276;
1629194616269509;0.1120;0.0124;-0.0350;
1629194626372998;0.0928;0.0007;-0.0414;
1629194636476436;0.0704;-0.0047;-0.0521;
1629194646587061;0.0609;0.0358;-0.0542;
1629194656690550;0.0609;0.0358;-0.0680;
1629194666793988;0.0832;-0.0111;-0.0627;
1629194676885029;0.0630;-0.0047;-0.0862;
1629194686988467;0.0587;0.0198;-0.0776;
1629194697091904;0.0832;-0.0142;-0.0542;
1629194707212425;0.1056;-0.0206;-0.0595;
1629194717315915;0.0971;-0.0206;-0.0574;
1629194727419352;0.0960;-0.0132;-0.0414;
1629194737510394;0.0939;-0.0036;-0.0329;
1629194747613884;0.1141;-0.0292;-0.0222;
1629194757717321;0.1216;0.0071;-0.0190;
1629194767831540;0.1141;0.0529;-0.0063;
1629194777935029;0.1514;0.0529;0.0172;
1629194788038467;0.2036;0.0827;0.0001;
1629194798127321;0.2632;0.0752;0.0161;
1629194808230759;0.3282;0.0390;0.0587;
1629194818334196;0.3272;0.0614;0.0672;
1629194828460186;0.2941;0.0816;0.0949;
1629194838563675;0.2803;0.0624;0.1237;
1629194848667113;0.2728;0.0284;0.1386;
1629194858756436;0.2355;-0.0121;0.1620;
1629194868859925;0.1589;0.0113;0.1834;
1629194878963363;0.1354;0.0273;0.2003;
1629194889062686;0.1482;-0.0068;0.2375;
1629194899166175;0.1077;0.0071;0.2375;
1629194909269613;0.1035;0.0358;0.2546;
1629194919371331;0.1003;-0.0164;0.2876;
1629194929474821;0.0672;-0.0079;0.2759;
1629194939578259;-0.0009;0.0316;0.2727;
1629194949683311;-0.0457;0.0593;0.2748;
1629194959786696;-0.0361;0.0678;0.2865;
1629194969890029;-0.0372;0.0177;0.2759;
1629194980006852;-0.0755;0.0166;0.2674;
1629194990110238;-0.1565;0.0656;0.2695;
1629195000213571;-0.1927;0.0699;0.2674;
1629195010304925;-0.2012;0.0795;0.2312;
1629195020408311;-0.1905;0.0635;0.2248;
1629195030511644;-0.1948;0.0337;0.2237;
1629195040631540;-0.2278;0.0710;0.1802;
1629195050734925;-0.2523;0.0635;0.1652;
1629195060838259;-0.2001;0.0294;0.1546;
1629195070937269;-0.1660;0.0166;0.1493;
1629195081040654;-0.1778;-0.0004;0.1375;
1629195091143988;-0.1820;0.0497;0.1258;
1629195101231123;-0.1415;0.0379;0.1354;
1629195111334509;-0.0915;0.0071;0.1386;
1629195121437842;-0.1288;0.0326;0.1120;
1629195131539561;-0.1224;-0.0089;0.1248;
1629195141642894;-0.1298;0.0667;0.1194;
1629195151746227;-0.0723;0.2478;0.1045;
1629195161842738;0.0140;0.1466;0.1173;
1629195171946019;0.0129;-0.0441;0.1067;
1629195182049404;-0.0680;-0.1048;0.0875;
1629195192158259;-0.1671;-0.0451;0.0822;
1629195202261592;-0.2012;0.0241;0.0981;
1629195212364925;-0.1320;-0.0132;0.1056;
1629195222473259;-0.0915;-0.0217;0.0928;
1629195232576592;-0.1362;0.0156;0.0779;
1629195242679925;-0.1117;-0.0387;0.1024;
1629195252779873;-0.0830;-0.0196;0.0885;
1629195262883206;-0.0712;-0.0963;0.1045;
1629195272986644;-0.1043;-0.0664;0.1184;
1629195283105915;-0.2427;0.2659;0.0651;
1629195293209248;-0.2916;0.1583;0.0896;
1629195303312634;-0.0883;-0.0356;0.0662;
1629195313412269;-0.0638;0.0401;0.0268;
1629195323515654;-0.1991;0.0859;0.0395;
1629195333618988;-0.1959;0.0699;0.0385;
1629195343707061;-0.1224;-0.0153;0.0545;
1629195353810446;-0.1202;-0.0973;0.0513;
1629195363913779;-0.1501;-0.0228;0.0012;
1629195374038519;-0.1618;-0.1431;0.0172;
1629195384141852;-0.1618;-0.1932;0.0097;
1629195394245238;-0.1927;-0.0515;0.0087;
1629195404359352;-0.2182;0.0656;0.0353;
1629195414462686;-0.1298;0.0955;0.0651;
1629195424566071;-0.0553;0.0252;0.0609;
1629195434655186;-0.0531;-0.0473;0.0513;
1629195444758571;-0.1511;-0.0302;0.0172;
1629195454861904;-0.2182;0.0571;0.0193;
1629195464969144;-0.2087;0.1136;0.0108;
1629195475072529;-0.1447;0.1232;-0.0265;
1629195485175863;-0.1298;0.1551;-0.0638;
1629195495255394;-0.1309;0.0763;-0.0606;
1629195505358727;-0.0755;-0.0100;-0.0425;
1629195515462061;0.0097;-0.0409;0.0023;
1629195525576436;0.0023;-0.0451;0.0534;
1629195535679821;-0.1149;0.0624;0.0523;
1629195545783154;-0.1458;0.0784;0.0481;
1629195555881592;-0.0989;-0.0292;0.0300;
1629195565984925;-0.1138;-0.0803;0.0044;
1629195576088311;-0.1724;-0.0696;-0.0478;
1629195586190654;-0.1852;0.0177;-0.0755;
1629195596293988;-0.1618;0.0678;-0.0542;
1629195606397321;-0.0862;-0.0036;-0.0286;
1629195616510081;-0.0702;-0.0611;-0.0574;
1629195626613467;-0.0798;-0.1495;-0.0169;
1629195636716800;-0.1277;-0.1367;0.0129;
1629195646819977;-0.1756;0.0124;-0.0063;
1629195656923363;-0.2001;-0.0238;-0.0020;
1629195667026696;-0.1810;0.0049;-0.0318;
1629195677121384;-0.2820;0.2340;-0.1064;
1629195687224717;-0.2640;0.3000;-0.1160;
1629195697328050;-0.0457;0.1562;-0.1213;
1629195707437686;0.0758;-0.0696;-0.1320;
1629195717541071;-0.0489;-0.0782;-0.1724;
1629195727644404;-0.2395;-0.0025;-0.1607;
1629195737740759;-0.2852;-0.0281;-0.1352;
1629195747844092;-0.1916;0.0028;-0.1501;
1629195757947425;-0.1511;0.0550;-0.1863;
1629195768061748;-0.1234;0.1168;-0.1682;
1629195778165134;-0.0595;0.0859;-0.1597;
1629195788268467;-0.0009;-0.1027;-0.1735;
1629195798364300;0.0182;-0.2889;-0.1735;
1629195808467581;-0.1437;-0.1154;-0.1905;
1629195818570967;-0.3097;0.1477;-0.2108;
1629195828688206;-0.2300;0.0869;-0.2044;
1629195838791592;0.0172;-0.0217;-0.2342;
1629195848894925;0.0704;0.0156;-0.2577;
1629195858987581;-0.0350;0.0252;-0.2321;
1629195869090967;-0.0244;-0.0579;-0.1991;
1629195879194300;0.0587;-0.1868;-0.1543;
1629195889302061;-0.0574;-0.0324;-0.2033;
1629195899405446;-0.2023;0.1892;-0.2406;
1629195909508779;-0.1213;0.0582;-0.2310;
1629195919615602;0.0491;-0.0473;-0.2630;
1629195929718988;0.0577;0.0124;-0.2928;
1629195939822321;-0.0382;0.0252;-0.2534;
1629195949920602;-0.0148;0.0198;-0.2300;
1629195960024040;0.0640;-0.0164;-0.2140;
1629195970127425;0.0694;-0.0238;-0.2268;
1629195980242165;0.0449;0.0241;-0.2182;
1629195990345602;0.0459;0.0134;-0.2204;
1629196000448988;0.0609;0.0582;-0.2459;
1629196010546019;0.0747;0.0624;-0.2385;
1629196020649456;0.0971;0.0348;-0.2300;
1629196030752842;0.0917;0.0475;-0.2363;
1629196040838884;0.0896;0.0379;-0.2193;
1629196050942269;0.1035;0.0348;-0.2087;
1629196061045654;0.1280;0.0198;-0.1916;
1629196071155394;0.1237;-0.0100;-0.2001;
1629196081258779;0.1429;0.0060;-0.1905;
1629196091362165;0.1258;0.0507;-0.1937;
1629196101466956;0.1663;0.0273;-0.1842;
1629196111570342;0.2302;-0.0558;-0.1778;
1629196121673779;0.2345;-0.0760;-0.1671;
1629196131776175;0.1876;-0.0771;-0.1511;
1629196141879561;0.1748;-0.0750;-0.1266;
1629196151982946;0.1951;-0.0270;-0.1096;
1629196162087998;0.2302;-0.0537;-0.0808;
1629196172191436;0.2473;-0.0760;-0.0883;
1629196182294821;0.2281;-0.0174;-0.0787;
1629196192385967;0.1961;-0.0313;-0.0691;
1629196202489352;0.1919;-0.0206;-0.0840;
1629196212592738;0.1631;0.0230;-0.0915;
1629196222702061;0.1439;0.0401;-0.0830;
1629196232805446;0.1546;0.0273;-0.0808;
1629196242908831;0.1578;0.0337;-0.0691;
1629196253035446;0.1397;0.0624;-0.0499;
1629196263138831;0.1557;0.0326;-0.0340;
1629196273242217;0.1503;0.0369;-0.0478;
1629196283327113;0.1290;0.0603;-0.0446;
1629196293430498;0.1216;0.0624;-0.0510;
1629196303533936;0.1301;0.0827;-0.0606;
1629196313647373;0.1397;0.0614;-0.0627;
1629196323750759;0.1525;0.0284;-0.0617;
1629196333854196;0.1439;-0.0153;-0.0638;
1629196343942477;0.1258;-0.0643;-0.0286;
1629196354045915;0.1099;-0.0089;0.0001;
1629196364149300;0.1546;-0.0015;0.0204;
1629196374272581;0.1493;-0.0430;0.0065;
1629196384376019;0.1397;-0.0579;0.0012;
1629196394479404;0.1301;-0.0675;0.0044;
1629196404592581;0.1301;-0.0419;-0.0052;
1629196414695967;0.1429;-0.0430;0.0108;
1629196424799404;0.1482;-0.0260;0.0161;
1629196434894977;0.1439;-0.0260;0.0236;
1629196444998363;0.1290;-0.0036;0.0395;
1629196455101748;0.1482;-0.0121;0.0598;
1629196465210602;0.1844;-0.1027;0.0843;
1629196475314040;0.1290;-0.0260;0.0694;
1629196485417425;0.0758;0.1402;0.0566;
1629196495501384;0.0971;0.0901;0.0609;
1629196505604769;0.1812;0.0156;0.0630;
1629196515708154;0.1684;0.0145;0.0577;
1629196525823206;0.1152;0.0220;0.0630;
1629196535926644;0.1162;0.0007;0.0843;
1629196546030029;0.1109;-0.0025;0.1024;
1629196556121227;0.1237;-0.0334;0.1407;
1629196566224665;0.1099;-0.0451;0.1397;
1629196576328050;0.1152;-0.0473;0.1322;
1629196586444873;0.0843;-0.0153;0.1450;
1629196596548311;0.0800;0.0177;0.1386;
1629196606651696;0.1173;-0.0324;0.1567;
1629196616744352;0.0992;-0.0249;0.1610;
1629196626847790;0.0523;0.0092;0.1620;
1629196636951175;0.0470;0.0049;0.1823;
1629196647058623;0.0289;0.0262;0.1908;
1629196657162061;0.0140;0.0145;0.2067;
1629196667265446;-0.0233;-0.0089;0.1706;
1629196677357425;-0.0691;0.0134;0.1663;
1629196687460811;-0.1181;0.0486;0.1514;
1629196697564196;-0.0819;0.0348;0.1439;
1629196707677581;-0.0606;0.0262;0.1344;
1629196717781019;-0.0925;0.0358;0.1280;
1629196727884404;-0.1000;-0.0057;0.1162;
1629196737991436;-0.0776;-0.0228;0.1290;
1629196748094873;-0.1138;-0.0025;0.1407;
1629196758198259;-0.1000;-0.0132;0.1375;
1629196768298831;-0.0925;0.0252;0.0992;
1629196778402269;-0.0851;0.0614;0.0747;
1629196788505654;-0.0350;0.0198;0.0726;
1629196798607061;-0.0148;-0.0015;0.0662;
1629196808710498;-0.0265;0.0252;0.0513;
1629196818813884;-0.0158;-0.0185;0.0704;
1629196828912269;-0.0233;-0.0430;0.0779;
1629196839015706;-0.0372;-0.0228;0.0864;
1629196849119092;-0.0073;-0.0792;0.1152;
1629196859225290;-0.0201;-0.0707;0.1088;
1629196869328727;-0.0212;-0.0249;0.0907;
1629196879432113;-0.0158;-0.0302;0.1003;
1629196889540498;-0.0201;-0.0441;0.0715;
1629196899643936;-0.0158;-0.0579;0.0811;
1629196909747321;-0.0425;-0.0238;0.0854;
1629196919850394;-0.0670;0.0401;0.0854;
1629196929953831;-0.0435;0.0838;0.0917;
1629196940057217;-0.0137;0.0880;0.1226;
1629196950157686;0.0044;0.0593;0.1375;
1629196960261123;-0.0126;0.0422;0.1099;
1629196970364509;-0.0414;0.0326;0.0896;
1629196980467425;-0.0755;0.0571;0.0715;
1629196990570811;-0.0606;0.0305;0.0747;
1629197000674196;-0.0585;0.0465;0.0662;
1629197010771644;-0.0340;0.0188;0.0864;
1629197020875029;-0.0201;-0.0569;0.1333;
1629197030978415;-0.0340;-0.0537;0.1493;
1629197041092269;-0.0467;-0.0686;0.1716;
1629197051195654;-0.0712;-0.0739;0.1631;
1629197061299092;-0.0872;-0.0111;0.1333;
1629197071410238;-0.1202;0.0646;0.1312;
1629197081513675;-0.1043;0.0401;0.1184;
1629197091617061;-0.0627;0.0550;0.0811;
1629197101703467;-0.0702;0.0593;0.0854;
1629197111806852;-0.0776;0.0188;0.1077;
1629197121910238;-0.0851;0.0486;0.1184;
1629197132012842;-0.0755;-0.0185;0.1631;
1629197142116227;-0.1032;-0.0036;0.1429;
1629197152219613;-0.1565;0.0678;0.1088;
1629197162344873;-0.1234;0.0273;0.1141;
1629197172448311;-0.1043;0.0145;0.0917;
1629197182551696;-0.1128;0.0156;0.0875;
1629197192630238;-0.1202;0.0198;0.0747;
1629197202733623;-0.1021;-0.0036;0.0864;
1629197212837009;-0.1021;-0.0206;0.0896;
1629197222937165;-0.0904;-0.0387;0.1088;
1629197233040550;-0.0776;-0.0505;0.1226;
1629197243143988;-0.1085;-0.0409;0.1067;
1629197253256852;-0.1096;-0.0196;0.0917;
1629197263360290;-0.1213;0.0294;0.0811;
1629197273463675;-0.1107;0.0507;0.0566;
1629197283585498;-0.0851;0.0614;0.0513;
1629197293688884;-0.0989;0.0720;0.0630;
1629197303792321;-0.1117;0.0401;0.0694;
1629197313869769;-0.1064;0.0390;0.0726;
1629197323973206;-0.1107;0.0316;0.0939;
1629197334076592;-0.1128;0.0230;0.0981;
1629197344215654;-0.1415;0.0433;0.0619;
1629197354319092;-0.1288;0.0422;0.0619;
1629197364422477;-0.1192;-0.0409;0.0598;
1629197374492842;-0.1202;-0.0196;0.0300;
1629197384596175;-0.1309;-0.0164;0.0427;
1629197394699613;-0.1362;-0.0185;0.0534;
1629197404824248;-0.1352;0.0198;0.0598;
1629197414927686;-0.1256;-0.0132;0.0843;
1629197425031071;-0.1266;-0.0249;0.0790;
1629197435142321;-0.1714;0.0230;0.0321;
1629197445245706;-0.1746;0.0912;0.0161;
1629197455349144;-0.1575;0.0859;0.0150;
1629197465418467;-0.1373;0.0699;-0.0095;
1629197475521852;-0.1458;0.0411;-0.0318;
1629197485625238;-0.1543;-0.0387;-0.0116;
1629197495739456;-0.1842;-0.0387;-0.0180;
1629197505842894;-0.1810;-0.0579;0.0161;
1629197515946279;-0.1810;-0.0483;0.0257;
1629197526063311;-0.2097;0.0156;-0.0148;
1629197536166748;-0.1756;-0.0398;-0.0254;
1629197546270134;-0.1565;-0.0292;-0.0467;
1629197556357217;-0.1778;0.0113;-0.0744;
1629197566460602;-0.1543;0.0795;-0.0862;
1629197576563988;-0.1533;0.0987;-0.0798;
1629197586660394;-0.1597;0.0678;-0.0947;
1629197596763779;-0.1288;0.0507;-0.0883;
1629197606867165;-0.1277;0.0124;-0.0755;
1629197616981696;-0.1245;0.0166;-0.0819;
1629197627085134;-0.1362;0.0348;-0.0989;
1629197637188519;-0.1256;0.0550;-0.1117;
1629197647291019;-0.1032;-0.0121;-0.1096;
1629197657394456;-0.0989;-0.0334;-0.1245;
1629197667497842;-0.0979;-0.0142;-0.1245;
1629197677595394;-0.1138;0.0060;-0.1192;
1629197687698779;-0.0936;-0.0057;-0.1266;
1629197697802165;-0.0499;-0.0483;-0.1149;
1629197707919873;-0.0467;0.0028;-0.0904;
1629197718023311;-0.0680;0.0209;-0.1021;
1629197728126696;-0.0414;0.0071;-0.1117;
1629197738216696;-0.0158;-0.0132;-0.1256;
1629197748320081;-0.0190;0.0411;-0.1469;
1629197758423467;-0.0105;0.0646;-0.1320;
1629197768553415;0.0395;-0.0142;-0.0840;
1629197778656852;0.0150;-0.0249;-0.0776;
1629197788760238;-0.0201;-0.0430;-0.0542;
1629197798850811;-0.0095;-0.0334;-0.0531;
1629197808954248;-0.0201;-0.0782;-0.0563;
1629197819057634;-0.0595;0.0411;-0.0819;
1629197829160706;-0.0595;0.0933;-0.0808;
1629197839264144;-0.0233;-0.0292;-0.0872;
1629197849367529;-0.0031;-0.0100;-0.1075;
1629197859466436;-0.0499;-0.0004;-0.0851;
1629197869569873;-0.0659;0.0220;-0.0734;
1629197879673259;-0.0499;0.0188;-0.0563;
1629197889775290;-0.0499;0.0177;-0.0425;
1629197899878727;-0.0467;0.0635;-0.0648;
1629197909982113;-0.0478;0.0507;-0.0819;
1629197920073779;-0.0425;0.0092;-0.0734;
1629197930177165;-0.0585;0.0209;-0.1011;
1629197940280550;-0.0489;0.0571;-0.1234;
1629197950401956;-0.0435;0.0177;-0.0957;
1629197960505446;-0.0553;0.0241;-0.0925;
1629197970608884;-0.0340;-0.0302;-0.0670;
1629197980716175;-0.0308;-0.0558;-0.0478;
1629197990819665;-0.0361;-0.0153;-0.0606;
1629198000923102;-0.0372;-0.0100;-0.0744;
1629198011011331;-0.0372;-0.0004;-0.0766;
1629198021114821;-0.0393;0.0060;-0.0915;
1629198031218259;-0.0318;0.0539;-0.1181;
1629198041316436;-0.0244;0.1040;-0.1181;
1629198051419925;-0.0105;0.0688;-0.0862;
1629198061523363;-0.0063;0.0241;-0.0755;
1629198071627738;0.0023;0.0092;-0.0542;
1629198081731175;-0.0169;0.0103;-0.0531;
1629198091834665;-0.0286;-0.0015;-0.0862;
1629198101937529;-0.0233;-0.0100;-0.0947;
1629198112040967;-0.0265;-0.0036;-0.1032;
1629198122144456;-0.0041;-0.0015;-0.1085;
1629198132249509;0.0108;-0.0345;-0.0968;
1629198142352946;0.0172;-0.0579;-0.0734;
1629198152456436;-0.0126;-0.0409;-0.0648;
1629198162575915;-0.0084;-0.0462;-0.0403;
1629198172679404;-0.0009;-0.0345;-0.0382;
1629198182782842;-0.0212;-0.0111;-0.0744;
1629198192865811;-0.0212;0.0624;-0.0979;
1629198202969300;-0.0137;0.0539;-0.0936;
1629198213072738;0.0087;0.0571;-0.1256;
1629198223185654;0.0161;0.0678;-0.1224;
1629198233289092;-0.0009;0.0422;-0.0968;
1629198243392581;0.0087;0.0124;-0.0872;
1629198253469873;0.0161;-0.0313;-0.0617;
1629198263573311;0.0001;-0.0111;-0.0606;
1629198273676748;-0.0031;-0.0174;-0.0766;
1629198283837894;0.0150;-0.0079;-0.0957;
1629198293941384;0.0182;-0.0079;-0.0893;
1629198304044821;0.0395;-0.0526;-0.1043;
1629198314098154;0.0427;-0.0579;-0.1053;
1629198324201644;0.0374;-0.0664;-0.0862;
1629198334305081;0.0321;-0.0601;-0.0798;
1629198344422842;0.0459;-0.0856;-0.0521;
1629198354526279;0.0438;-0.0739;-0.0350;
1629198364629717;0.0150;-0.0111;-0.0457;
1629198374732842;0.0214;0.0422;-0.0766;
1629198384836279;0.0609;0.0624;-0.0680;
1629198394939769;0.0577;0.0539;-0.0851;
1629198405045915;0.0481;0.0763;-0.0979;
1629198415149404;0.0395;0.0678;-0.0904;
1629198425252894;0.0278;0.0507;-0.0840;
1629198435373102;0.0332;-0.0164;-0.0606;
1629198445476592;0.0332;-0.0473;-0.0489;
1629198455580029;0.0108;-0.0473;-0.0510;
1629198465660967;0.0001;-0.0505;-0.0712;
1629198475764404;0.0364;-0.1016;-0.0542;
1629198485867894;0.0257;-0.1091;-0.0531;
1629198495972738;0.0119;-0.0292;-0.0691;
1629198506076175;0.0225;-0.0409;-0.0638;
1629198516179665;0.0395;-0.0324;-0.0574;
1629198526288623;0.0395;-0.0217;-0.0457;
1629198536392113;0.0332;0.0209;-0.0361;
1629198546495602;0.0491;0.0529;-0.0297;
1629198556594613;0.0310;0.0411;-0.0510;
1629198566698050;0.0449;0.0742;-0.0744;
1629198576801540;0.0385;0.0390;-0.0670;
1629198586902634;0.0427;0.0209;-0.0830;
1629198597006071;0.0129;0.0166;-0.0851;
1629198607109509;0.0257;0.0433;-0.0872;
1629198617213154;0.0630;-0.0206;-0.0489;
1629198627316592;0.0406;-0.0792;-0.0201;
1629198637420081;0.0342;-0.0590;-0.0265;
1629198647526748;0.0332;-0.0345;-0.0446;
1629198657630238;0.0491;0.0230;-0.0595;
1629198667733727;0.0609;0.0262;-0.0606;
1629198677839456;0.0949;0.0284;-0.0798;
1629198687942946;0.1067;0.0337;-0.0776;
1629198698046384;0.0854;0.0326;-0.0595;
1629198708150186;0.1067;-0.0068;-0.0318;
1629198718253675;0.0971;-0.0313;-0.0052;
1629198728357113;0.0534;0.0390;-0.0201;
1629198738448050;0.0704;-0.0526;-0.0158;
1629198748551488;0.0534;-0.0281;-0.0435;
1629198758654977;0.0555;0.0017;-0.0297;
1629198768765811;0.0534;-0.0025;-0.0489;
1629198778869248;0.0566;0.0113;-0.0467;
1629198788972686;0.0385;-0.0068;-0.0318;
1629198799074196;0.0417;0.0103;-0.0297;
1629198809177634;0.0577;-0.0185;-0.0073;
1629198819281071;0.0470;0.0134;-0.0020;
1629198829399248;0.0491;0.0656;-0.0212;
1629198839502738;0.0640;0.0337;-0.0499;
1629198849606175;0.0726;-0.0281;-0.0244;
1629198859699925;0.0427;-0.0025;-0.0350;
1629198869803415;0.0609;0.0699;-0.0585;
1629198879906904;0.0747;0.0230;-0.0265;
1629198890008831;0.0609;-0.0089;-0.0126;
1629198900112321;0.0566;-0.0515;0.0023;
1629198910215759;0.0577;-0.0707;0.0204;
1629198920317998;0.0427;-0.0324;0.0225;
1629198930421488;0.0119;0.0092;0.0044;
1629198940524977;0.0481;0.0507;-0.0041;
1629198950628102;0.0694;0.0433;-0.0095;
1629198960731488;0.0683;0.0209;-0.0169;
1629198970834769;0.0427;0.0103;-0.0031;
1629198980943311;0.0193;0.0326;0.0033;
1629198991046644;0.0513;-0.0100;0.0172;
1629199001150029;0.0449;-0.0537;0.0342;
1629199011246019;0.0246;-0.0494;0.0332;
1629199021349352;-0.0105;-0.0121;0.0097;
1629199031452686;0.0395;0.0262;0.0150;
1629199041577217;0.0545;0.0145;0.0193;
1629199051680550;0.0459;0.0177;-0.0052;
1629199061783884;0.0257;0.0188;0.0001;
1629199071861436;0.0129;0.0124;0.0076;
1629199081964769;0.0236;-0.0111;0.0065;
1629199092068102;0.0278;0.0273;0.0214;
1629199102174977;0.0193;0.0806;0.0204;
1629199112278311;0.0470;0.0624;-0.0009;
1629199122381644;0.0630;-0.0111;0.0033;
1629199132487790;0.0481;-0.0654;0.0172;
1629199142591123;0.0321;-0.0015;-0.0095;
1629199152694456;0.0289;-0.0015;0.0001;
1629199162825915;0.0289;0.0188;0.0087;
1629199172929300;0.0300;0.0092;0.0076;
1629199183032581;0.0577;-0.0483;0.0246;
1629199193143467;0.0491;-0.0366;0.0374;
1629199203246800;0.0332;0.0198;0.0257;
1629199213350134;0.0427;0.0667;0.0001;
1629199223408623;0.0555;0.0646;-0.0009;
1629199233512009;0.0640;0.0316;-0.0201;
1629199243615342;0.0459;0.0252;-0.0180;
1629199253792894;0.0300;0.0518;-0.0148;
1629199263896227;0.0470;0.0273;0.0023;
1629199273999561;0.0640;-0.0356;0.0278;
1629199284050915;0.0470;-0.0760;0.0353;
1629199294154248;0.0289;-0.1080;0.0310;
1629199304257581;0.0065;-0.1293;0.0225;
1629199314383206;-0.0031;-0.0739;0.0140;
1629199324486540;-0.0116;0.0294;-0.0105;
1629199334589873;0.0640;0.0390;-0.0041;
1629199344660915;0.0854;0.0379;0.0140;
1629199354764248;0.0917;0.0007;0.0385;
1629199364867581;0.0704;-0.0782;0.0332;
1629199374970186;0.0076;-0.0185;0.0246;
1629199385073519;-0.0265;0.0518;0.0182;
1629199395176852;-0.0073;0.0507;-0.0095;
1629199405282165;0.0598;0.0305;-0.0063;
1629199415385498;0.0438;-0.0196;0.0076;
1629199425488831;0.0353;-0.0430;0.0044;
1629199435593936;0.0225;-0.0313;0.0300;
1629199445697269;0.0193;-0.0249;0.0587;
1629199455800602;0.0129;-0.0398;0.0566;
1629199465898831;0.0108;-0.0153;0.0555;
1629199476002165;0.0119;-0.0057;0.0449;
1629199486105498;-0.0073;0.0156;0.0182;
1629199496207998;0.0055;0.0667;0.0129;
1629199506311331;0.0278;0.0944;0.0033;
1629199516414665;0.0502;0.1232;-0.0073;
1629199526523675;0.0427;0.1136;-0.0105;
1629199536627009;0.0566;-0.0079;0.0204;
1629199546730342;0.0364;-0.0579;0.0342;
1629199556835394;0.0012;0.0060;0.0364;
1629199566938727;-0.0009;-0.0185;0.0449;
1629199577042061;0.0044;-0.0249;0.0214;
1629199587141123;0.0374;-0.0398;0.0044;
1629199597244456;0.0395;-0.0952;0.0140;
1629199607347790;0.0523;-0.0462;-0.0084;
1629199617453675;0.0523;-0.0558;0.0225;
1629199627557061;0.0214;0.0028;0.0268;
1629199637660342;0.0427;0.0124;0.0246;
1629199647770759;0.0896;-0.0526;0.0310;
1629199657874092;0.0587;0.0081;0.0289;
1629199667977425;0.0257;0.0731;0.0246;
1629199678071644;0.0609;0.0284;0.0129;
1629199688174977;0.0651;0.0273;-0.0052;
1629199698278311;0.0619;0.0635;-0.0244;
1629199708389040;0.0694;-0.0015;-0.0041;
1629199718492373;0.0523;0.0081;0.0087;
1629199728595706;0.0321;-0.0185;0.0236;
1629199738691175;0.0545;-0.0654;0.0513;
1629199748794509;0.0459;-0.0196;0.0630;
1629199758897842;0.0427;0.0145;0.0683;
1629199768999040;0.0449;0.0465;0.0278;
1629199779102373;0.0651;0.0667;0.0182;
1629199789205706;0.0768;0.0593;0.0140;
1629199799309456;0.0822;0.0742;0.0033;
1629199809412790;0.0672;0.0997;0.0321;
1629199819516123;0.0513;0.0273;0.0566;
1629199829621227;0.0513;0.0230;0.0470;
1629199839724561;0.0438;0.0092;0.0715;
1629199849827894;0.0555;-0.0238;0.0907;
1629199859938206;0.0193;0.0262;0.0662;
1629199870041540;0.0523;-0.0121;0.0832;
1629199880144873;0.0438;-0.0270;0.0822;
1629199890243936;0.0300;-0.0089;0.0672;
1629199900347269;0.0161;-0.0419;0.0822;
1629199910450602;-0.0009;-0.0111;0.0939;
1629199920569300;0.0087;-0.0100;0.1056;
1629199930672581;0.0225;0.0166;0.1141;
1629199940775915;0.0172;0.0507;0.1120;
1629199950859821;0.0278;0.0667;0.0981;
1629199960963154;0.0353;0.0401;0.0960;
1629199971066488;0.0012;0.0103;0.0971;
1629199981173988;-0.0020;0.0688;0.0726;
1629199991277321;0.0001;0.1210;0.0800;
1629200001380654;0.0055;0.1317;0.0960;
1629200011479196;0.0257;0.0497;0.1077;
1629200021582529;0.0300;-0.0100;0.1216;
1629200031685863;0.0012;0.0060;0.1184;
1629200041776488;-0.0137;-0.0356;0.1301;
1629200051879769;-0.0276;-0.0941;0.1280;
1629200061983154;-0.0585;-0.0324;0.1045;
1629200072103988;-0.0638;0.0348;0.0875;
1629200082207321;0.0257;-0.0941;0.1216;
1629200092310654;0.0161;-0.0739;0.1290;
1629200102407425;-0.0361;-0.0664;0.1471;
1629200112511518;-0.0222;-0.0995;0.1727;
1629200122614851;-0.0595;-0.0206;0.1652;
1629200132719643;-0.0819;0.0497;0.1525;
1629200142822976;-0.0702;0.1189;0.1130;
1629200152926309;-0.0180;0.1210;0.1013;
1629200163043236;-0.0116;0.0486;0.0949;
1629200173146518;-0.0329;0.0443;0.0843;
1629200183249903;-0.0595;0.0497;0.0949;
1629200193331726;-0.0755;-0.0313;0.1067;
1629200203435059;-0.0872;-0.0451;0.1099;
1629200213538393;-0.1437;-0.0473;0.1237;
1629200223673236;-0.1256;-0.0707;0.1344;
1629200233776570;-0.1021;-0.1005;0.1077;
1629200243879955;-0.1341;-0.1005;0.1258;
1629200253981986;-0.1501;-0.0494;0.1109;
1629200264085320;-0.1778;-0.0015;0.0885;
1629200274188705;-0.1650;0.0656;0.0822;
1629200284277351;-0.1213;0.1264;0.0917;
1629200294380684;-0.0862;0.1732;0.0854;
1629200304484018;-0.0574;0.1807;0.0917;
1629200314591205;-0.0286;0.0827;0.0854;
1629200324694538;-0.0563;-0.0899;0.0523;
1629200334797872;-0.1405;-0.1133;0.0246;
1629200344897663;-0.2598;-0.0292;0.0065;
1629200355000997;-0.3065;-0.0643;0.0182;
1629200365104330;-0.1682;-0.0057;-0.0020;
1629200375240840;-0.0872;-0.1474;0.0427;
1629200385344226;-0.1021;-0.3007;0.0630;
1629200395447559;-0.1522;-0.2220;0.0726;
1629200405519226;-0.3033;-0.0973;0.0694;
1629200415622559;-0.3715;0.0656;0.0353;
1629200425725893;-0.2598;0.2031;-0.0393;
1629200435826518;-0.0957;0.1796;-0.0925;
1629200445929851;0.0055;0.1104;-0.1447;
1629200456033184;0.1067;0.0678;-0.1469;
1629200466142143;0.0864;0.1178;-0.1170;
1629200476245476;-0.0361;0.1423;-0.0883;
1629200486348809;-0.0478;0.0454;-0.0648;
1629200496449434;-0.0031;-0.0281;-0.0723;
1629200506552768;-0.0521;0.0017;-0.0862;
1629200516656101;-0.0851;-0.0632;-0.0798;
1629200526764278;-0.0553;-0.0803;-0.0627;
1629200536867663;-0.0766;-0.0057;-0.0830;
1629200546970997;-0.0521;-0.0100;-0.0851;
1629200557072768;-0.0063;-0.0558;-0.0744;
1629200567176101;0.0108;-0.0995;-0.0691;
1629200577279434;-0.0435;-0.0547;-0.0670;
1629200587375476;-0.0489;0.0273;-0.0691;
1629200597478809;0.0001;0.0497;-0.0606;
1629200607582143;-0.0031;0.0230;-0.0851;
1629200617694434;0.0193;0.0401;-0.0979;
1629200627797768;0.0129;0.0390;-0.1011;
1629200637901101;-0.0009;0.0209;-0.0968;
1629200648005424;-0.0350;0.0614;-0.0936;
1629200658108809;-0.0425;0.0593;-0.0691;
1629200668212143;-0.0286;-0.0356;-0.0691;
1629200678310320;-0.0265;-0.0356;-0.0776;
1629200688413653;-0.0403;0.0049;-0.0744;
1629200698516986;-0.0403;0.0017;-0.0766;
1629200708626049;-0.0148;0.0049;-0.0915;
1629200718729434;0.0044;0.0475;-0.0936;
1629200728832768;0.0193;0.0348;-0.0915;
1629200738936674;0.0395;0.0081;-0.0840;
1629200749040059;0.0087;-0.0025;-0.0776;
1629200759143393;-0.0116;-0.0025;-0.0648;
1629200769248757;0.0023;0.0529;-0.0595;
1629200779352143;0.0225;0.0518;-0.0510;
1629200789455476;0.0523;0.0358;-0.0425;
1629200799554434;0.0385;0.0081;-0.0574;
1629200809657768;0.0651;-0.0068;-0.0478;
1629200819761101;0.0523;-0.0270;-0.0372;
1629200829871570;0.0150;-0.0206;-0.0361;
1629200839974955;0.0033;0.0113;-0.0169;
1629200850078288;0.0033;-0.0249;-0.0116;
1629200860174851;0.0310;-0.0100;-0.0052;
1629200870278184;0.0225;0.0422;0.0087;
1629200880381518;0.0353;0.0997;0.0055;
1629200890486726;0.0459;0.0859;-0.0052;
1629200900590059;0.0502;0.0379;-0.0020;
1629200910693393;0.0321;0.0475;-0.0329;
1629200920785268;-0.0052;0.0081;-0.0467;
1629200930888601;-0.0212;0.0294;-0.0446;
1629200940991934;-0.0095;0.0209;-0.0222;
1629200951099330;0.0140;-0.0015;-0.0009;
1629200961202715;0.0321;-0.0324;0.0193;
1629200971306101;0.0236;-0.0835;0.0353;
1629200981423861;-0.0116;-0.0909;0.0204;
1629200991527299;-0.0414;-0.0707;0.0033;
1629201001630684;-0.0595;0.0028;-0.0190;
1629201011725059;-0.0340;0.0401;-0.0361;
1629201021828445;-0.0041;0.0742;-0.0606;
1629201031931830;0.0246;0.0028;-0.0286;
1629201042052090;0.0300;-0.0824;-0.0148;
1629201052155476;0.0033;-0.0142;-0.0233;
1629201062258913;-0.0233;0.0145;-0.0063;
1629201072340163;-0.0126;0.0060;-0.0137;
1629201082443549;0.0140;-0.0015;-0.0276;
1629201092546934;0.0119;-0.0004;-0.0382;
1629201102647976;-0.0031;-0.0164;-0.0499;
1629201112751361;-0.0020;-0.0302;-0.0446;
1629201122854747;-0.0137;0.0049;-0.0414;
1629201132963601;0.0108;-0.0292;-0.0340;
1629201143066934;0.0204;-0.0494;-0.0201;
1629201153170372;0.0097;-0.0313;-0.0126;
1629201163274851;0.0182;-0.0260;-0.0158;
1629201173378236;0.0236;-0.0292;-0.0212;
1629201183481674;0.0310;-0.0089;-0.0190;
1629201193642299;0.0119;0.0358;-0.0297;
1629201203745684;0.0214;0.0688;-0.0403;
1629201213849122;0.0513;0.0550;-0.0286;
1629201223898653;0.0587;0.0134;0.0001;
1629201234002090;0.0332;0.0071;0.0044;
1629201244105476;0.0119;0.0177;0.0033;
1629201254246361;0.0065;0.0124;0.0150;
1629201264349747;-0.0020;0.0358;0.0044;
1629201274453184;0.0364;0.0486;0.0044;
1629201284512038;0.0342;0.0177;-0.0063;
1629201294615424;0.0193;-0.0334;-0.0254;
1629201304718809;0.0023;-0.0345;-0.0212;
1629201314845736;-0.0073;-0.0111;0.0044;
1629201324949122;-0.0041;-0.0430;0.0278;
1629201335052559;0.0012;-0.0185;0.0246;
1629201345172247;0.0012;0.0262;0.0193;
1629201355275684;0.0289;0.0028;0.0257;
1629201365379070;0.0470;-0.0473;0.0150;
1629201375455945;0.0502;-0.0558;0.0076;
1629201385559382;0.0001;-0.0228;-0.0190;
1629201395662768;-0.0063;-0.0025;-0.0116;
1629201405765684;0.0182;-0.0324;0.0033;
1629201415869122;0.0140;-0.0792;0.0055;
1629201425972507;0.0087;-0.0547;0.0087;
1629201436081778;0.0150;-0.0419;0.0246;
1629201446185215;0.0332;-0.0451;0.0289;
1629201456288601;0.0023;-0.0334;0.0182;
1629201466391465;0.0023;0.0134;0.0140;
1629201476494903;0.0097;0.0348;0.0033;
1629201486598288;0.0150;0.0646;-0.0041;
1629201496700268;0.0438;0.0667;-0.0052;
1629201506803705;0.0758;-0.0089;0.0150;
1629201516907090;0.0268;0.0049;0.0129;
1629201527012299;0.0214;0.0198;0.0342;
1629201537115736;0.0289;-0.0164;0.0406;
1629201547219122;0.0044;0.0028;0.0321;
1629201557319851;0.0097;0.0081;0.0364;
1629201567423288;0.0193;-0.0025;0.0406;
1629201577526674;0.0129;0.0017;0.0300;
1629201587622090;-0.0095;0.0092;0.0534;
1629201597725476;0.0033;-0.0057;0.0672;
1629201607828861;0.0044;0.0081;0.0534;
1629201617947507;0.0108;0.0156;0.0619;
1629201628050945;-0.0009;0.0177;0.0704;
1629201638154330;0.0055;0.0166;0.0694;
1629201648248757;0.0087;0.0028;0.0523;
1629201658352195;0.0129;0.0262;0.0459;
1629201668455580;0.0012;0.0124;0.0491;
1629201678551934;-0.0137;0.0209;0.0577;
1629201688655320;-0.0031;0.0039;0.0768;
1629201698758705;-0.0148;-0.0537;0.0800;
1629201708870632;-0.0244;-0.0366;0.0640;
1629201718974070;-0.0340;0.0081;0.0672;
1629201729077455;0.0087;0.0145;0.0747;
1629201739185528;0.0236;-0.0238;0.0598;
1629201749288965;-0.0116;-0.0100;0.0449;
1629201759392351;-0.0414;0.0060;0.0385;
1629201769494278;-0.0212;0.0422;0.0353;
1629201779597663;-0.0137;0.0603;0.0395;
1629201789701101;-0.0233;0.0188;0.0555;
1629201799798497;0.0065;-0.0068;0.0395;
1629201809901882;0.0395;-0.0249;0.0438;
1629201820005268;0.0097;-0.0377;0.0619;
1629201830122299;-0.0201;-0.0356;0.0470;
1629201840225684;-0.0531;-0.0057;0.0374;
1629201850329122;-0.0936;0.0635;0.0246;
1629201860430215;-0.0308;0.0667;0.0225;
1629201870533653;-0.0553;0.0209;0.0268;
1629201880637038;-0.0947;-0.0387;0.0342;
1629201890737351;-0.1628;-0.0451;0.0236;
1629201900840788;-0.1426;-0.0206;0.0236;
1629201910944174;-0.0925;-0.0281;0.0108;
1629201921050111;-0.0883;-0.0430;-0.0031;
1629201931153497;-0.1032;-0.0590;-0.0222;
1629201941256882;-0.0691;-0.0174;-0.0201;
1629201951348028;-0.0148;-0.0515;-0.0116;
1629201961451570;-0.0531;-0.0441;-0.0031;
1629201971555059;-0.0297;0.0039;0.0097;
1629201981670632;-0.0233;-0.0196;0.0193;
1629201991774174;-0.0190;0.0103;0.0140;
1629202001877663;0.0055;0.0305;0.0310;
1629202011973861;0.0278;0.0369;0.0257;
1629202022077403;0.0236;0.0060;0.0150;
1629202032180893;0.0150;0.0134;0.0161;
1629202042298965;0.0417;-0.0142;0.0310;
1629202052402507;0.0342;-0.0238;0.0459;
1629202062505997;0.0289;-0.0366;0.0747;
1629202072581570;0.0108;-0.0888;0.1045;
1629202082685059;-0.0222;-0.0601;0.1024;
1629202092788549;-0.0116;-0.0675;0.1205;
1629202102894695;-0.0340;-0.0728;0.1354;
1629202112998236;-0.0585;-0.0409;0.1194;
1629202123101726;-0.0382;0.0198;0.1184;
1629202133223132;-0.0126;0.0411;0.1386;
1629202143326674;-0.0617;0.0486;0.1258;
1629202153430163;-0.0702;0.0880;0.1141;
1629202163521778;-0.0627;0.0507;0.1365;
1629202173625268;-0.1021;0.0305;0.1439;
1629202183728757;-0.1415;0.0518;0.1312;
1629202193829903;-0.1735;0.0443;0.1365;
1629202203933445;-0.2268;0.0507;0.1109;
1629202214036934;-0.2736;0.0326;0.0630;
1629202224130372;-0.2884;0.0039;0.0523;
1629202234233861;-0.3353;0.0145;0.0182;
1629202244337351;-0.3193;0.0198;-0.0095;
1629202254443497;-0.3087;-0.0206;-0.0126;
1629202264546986;-0.3150;-0.0270;-0.0212;
1629202274650476;-0.2788;0.0017;-0.0361;
1629202284763497;-0.2481;0.0262;-0.0542;
1629202294866986;-0.2012;0.0071;-0.0648;
1629202304970476;-0.1948;0.0166;-0.0904;
1629202315087247;-0.1330;0.0198;-0.1075;
1629202325190788;-0.1607;-0.0270;-0.1352;
1629202335294278;-0.1490;-0.0185;-0.1522;
1629202345373393;-0.1021;0.0262;-0.1490;
1629202355476882;-0.0787;0.0198;-0.1341;
1629202365580372;-0.0883;-0.0281;-0.1362;
1629202375697090;-0.0776;-0.0185;-0.1383;
1629202385800632;-0.0574;-0.0068;-0.1447;
1629202395904122;-0.0308;-0.0142;-0.1437;
1629202406012195;-0.0031;-0.0121;-0.1511;
1629202416115736;0.0182;-0.0217;-0.1383;
1629202426219226;0.0076;0.0177;-0.1650;
1629202436315007;0.0545;-0.0185;-0.1586;
1629202446418549;0.0747;-0.0920;-0.1170;
1629202456522038;0.0545;-0.1399;-0.0925;
1629202466632611;0.0246;-0.1389;-0.0947;
1629202476736153;0.0214;-0.1059;-0.0766;
1629202486839643;0.0257;-0.0995;-0.0691;
1629202496944590;0.0001;-0.0931;-0.0830;
1629202507048132;-0.0105;0.0028;-0.0755;
1629202517151622;-0.0126;0.0806;-0.0691;
1629202527255215;-0.0521;0.1700;-0.0904;
1629202537358757;-0.0499;0.1988;-0.1032;
1629202547462247;-0.0787;0.0507;-0.0819;
1629202557564070;-0.1405;0.0166;-0.1213;
1629202567667611;-0.1160;0.0997;-0.1511;
1629202577771101;-0.0638;0.0848;-0.1437;
1629202587865997;-0.0489;0.0124;-0.1394;
1629202597969486;-0.0499;-0.0281;-0.1682;
1629202608072976;-0.0009;-0.0899;-0.1469;
1629202618191570;-0.0031;-0.1549;-0.1309;
1629202628295111;0.0214;-0.0877;-0.1341;
1629202638398601;0.0236;-0.0760;-0.1213;
1629202648497507;-0.0329;-0.0931;-0.1138;
1629202658601049;-0.0350;-0.0153;-0.1213;
1629202668704538;-0.0063;0.0113;-0.1288;
1629202678795059;0.0225;0.1019;-0.1192;
1629202688898549;0.0214;0.1562;-0.1405;
1629202699002038;0.0395;0.0667;-0.1565;
1629202709118757;0.0129;-0.0238;-0.1458;
1629202719222299;0.0289;0.0603;-0.1895;
1629202729325788;0.1354;0.1115;-0.1479;
1629202739422611;0.0651;0.0571;-0.1245;
1629202749526153;0.0364;-0.0292;-0.1181;
1629202759629643;0.0353;-0.0569;-0.1043;
1629202769740945;0.0502;-0.0270;-0.0968;
1629202779844486;0.0864;-0.0430;-0.0830;
1629202789947976;0.0545;-0.1208;-0.0808;
1629202800050007;0.0278;-0.0206;-0.0883;
1629202810153549;0.0449;0.0848;-0.1149;
1629202820257038;0.0555;0.0443;-0.0957;
1629202830336934;0.0438;-0.0313;-0.0798;
1629202840440424;0.0257;0.0113;-0.0627;
1629202850543913;0.0161;0.0209;-0.0648;
1629202860669382;0.0374;0.0209;-0.0510;
1629202870772924;0.0364;-0.0313;-0.0478;
1629202880876413;0.0150;-0.0664;-0.0553;
1629202890980007;0.0055;-0.0281;-0.0648;
1629202901083549;0.0289;-0.0217;-0.0680;
1629202911187038;0.0023;-0.0238;-0.0808;
1629202921316153;0.0097;0.0252;-0.0947;
1629202931419643;0.0087;-0.0025;-0.0755;
1629202941523184;-0.0052;-0.0313;-0.0787;
1629202951595215;0.0001;0.0241;-0.0830;
1629202961698757;0.0182;0.0891;-0.0862;
1629202971802247;0.0257;0.0912;-0.0936;
1629202981896101;0.0012;0.0731;-0.1266;
1629202991999590;0.0204;0.0688;-0.1565;
1629203002103132;0.0278;0.0529;-0.1607;
1629203012208913;-0.0009;0.0156;-0.1831;
1629203022312403;0.0023;-0.0036;-0.1948;
1629203032415893;0.0161;-0.0324;-0.1788;
1629203042536986;0.0129;-0.0984;-0.1820;
1629203052640528;0.0257;-0.1261;-0.1895;
1629203062744018;0.0459;-0.1304;-0.1660;
1629203072823445;0.0491;-0.1186;-0.1628;
1629203082926934;0.0491;-0.0952;-0.1884;
1629203093030528;0.0800;-0.0696;-0.2118;
1629203103198705;0.0971;-0.0430;-0.2182;
1629203113302143;0.1077;-0.0430;-0.2321;
1629203123405684;0.0960;0.0103;-0.2502;
1629203133448080;0.1429;0.0465;-0.2268;
1629203143551570;0.1834;-0.0260;-0.2236;
1629203153655059;0.0981;-0.0707;-0.2608;
1629203163810528;0.0885;-0.0590;-0.2459;
1629203173914018;0.1205;-0.0590;-0.2353;
1629203184017559;0.0981;-0.0398;-0.2811;
1629203194077924;0.1077;-0.0345;-0.2949;
1629203204181465;0.1248;-0.0025;-0.3024;
1629203214284955;0.1631;-0.0196;-0.3407;
1629203224383653;0.1258;-0.1367;-0.3599;
1629203234487143;0.1035;-0.0771;-0.3344;
1629203244590632;0.2398;0.0241;-0.2800;
1629203254709070;0.3409;0.1253;-0.2971;
1629203264812611;0.4325;0.1892;-0.3162;
1629203274916101;0.5209;0.0912;-0.2715;
1629203285027924;0.5049;0.0252;-0.2598;
1629203295131465;0.4964;0.0539;-0.2694;
1629203305234955;0.6274;0.0071;-0.2427;
1629203315308080;0.6903;-0.0675;-0.2268;
1629203325411570;0.6157;-0.0398;-0.1746;
1629203335515059;0.6402;0.0838;-0.1682;
1629203345633965;0.8394;-0.0324;-0.1256;
1629203355737507;0.7467;-0.3102;-0.0116;
1629203365840997;0.4676;-0.1815;0.0513;
1629203375923653;0.5646;-0.0505;0.0726;
1629203386027195;0.6264;-0.0281;0.0917;
1629203396130684;0.5188;0.0465;0.0896;
1629203406250945;0.4900;0.1338;0.1152;
1629203416354486;0.4698;0.1988;0.1269;
1629203426457976;0.4517;0.2126;0.1397;
1629203436563340;0.4016;0.2244;0.1599;
1629203446666882;0.3877;0.1743;0.1897;
1629203456770372;0.3409;0.1200;0.2141;
1629203466869382;0.2750;0.0944;0.2184;
1629203476972924;0.2047;0.0369;0.2237;
1629203487076413;0.0885;0.0145;0.2184;
1629203497181674;0.0097;-0.0079;0.2024;
1629203507285215;-0.0233;-0.0313;0.2056;
1629203517388705;-0.0776;-0.0100;0.1844;
1629203527493132;-0.1000;0.0113;0.1684;
1629203537596674;-0.1394;0.0486;0.1557;
1629203547700163;-0.1863;0.0198;0.1546;
1629203557788601;-0.2884;0.0198;0.1354;
1629203567892090;-0.3150;0.0529;0.1237;
1629203577995580;-0.3044;0.0550;0.0992;
1629203588122299;-0.3118;0.1008;0.0683;
1629203598225840;-0.2246;0.0880;0.0289;
1629203608329330;-0.1437;0.0401;0.0321;
1629203618410372;-0.0766;0.0028;0.0364;
1629203628513861;0.0182;-0.0238;0.0385;
1629203638617351;0.0843;-0.0515;0.0736;
1629203648737090;0.1461;-0.0899;0.0960;
1629203658840632;0.1770;-0.1112;0.1141;
1629203668944122;0.2164;-0.0899;0.1237;
1629203679046465;0.2515;-0.0920;0.1471;
1629203689150007;0.2281;-0.0654;0.1610;
1629203699253497;0.2281;-0.0324;0.1525;
1629203709375997;0.2164;-0.0409;0.1397;
1629203719479486;0.1727;0.0156;0.1386;
1629203729582976;0.1354;0.0262;0.1194;
1629203739671934;0.0981;0.0422;0.1035;
1629203749775424;0.0555;0.0752;0.0811;
1629203759878965;0.0374;0.0379;0.0768;
1629203769982611;-0.0510;0.0134;0.0587;
1629203780086153;-0.0936;0.0145;0.0502;
1629203790189643;-0.1053;0.0252;0.0129;
1629203800290632;-0.0915;0.0273;-0.0180;
1629203810394174;-0.0531;-0.0579;-0.0531;
1629203820497663;-0.0244;-0.0622;-0.0542;
1629203830613653;0.0598;0.0124;-0.0862;
1629203840717143;0.1897;-0.0867;-0.1245;
1629203850820684;0.1365;-0.1357;-0.0904;
1629203860917195;0.2132;-0.0537;-0.0585;
1629203871020736;0.3515;-0.0302;-0.0233;
1629203881124226;0.3995;-0.0036;0.0055;
1629203891212611;0.4240;0.0049;0.0385;
1629203901316153;0.4527;-0.0089;0.0758;
1629203911419643;0.4687;-0.0142;0.1088;
1629203921497403;0.4751;-0.0047;0.1301;
1629203931600945;0.4847;0.0923;0.1493;
1629203941704434;0.4985;0.0624;0.1663;
1629203951840632;0.4325;0.0273;0.2130;
1629203961944174;0.4112;0.1988;0.2344;
1629203972047663;0.4453;0.1051;0.2663;
1629203982149799;0.3558;-0.0792;0.3249;
1629203992253288;0.3314;-0.0345;0.3877;
1629204002356830;0.3398;0.0443;0.4059;
1629204012450632;0.2920;0.0369;0.4197;
1629204022554122;0.2281;-0.0089;0.4122;
1629204032657663;0.2025;0.0390;0.4335;
1629204042799382;0.1812;0.0997;0.4495;
1629204052902924;0.1557;0.0358;0.4772;
1629204063006413;0.0747;0.0869;0.4996;
1629204073057195;0.0268;0.1178;0.5071;
1629204083160684;-0.0105;0.0049;0.5209;
1629204093264174;-0.0893;-0.0004;0.5262;
1629204103376413;-0.1181;0.0688;0.5294;
1629204113479903;-0.1458;0.0678;0.5273;
1629204123583393;-0.2012;0.0593;0.4921;
1629204133702195;-0.2608;0.0486;0.4644;
1629204143805684;-0.2884;0.0369;0.4453;
1629204153909174;-0.2937;0.0379;0.4112;
1629204164017143;-0.3044;0.0252;0.3941;
1629204174120632;-0.3214;0.0177;0.3696;
1629204184224122;-0.3161;0.0188;0.3664;
1629204194338028;-0.3065;-0.0334;0.3600;
1629204204441518;-0.2651;-0.0238;0.3654;
1629204214545007;-0.2545;0.0028;0.3750;
1629204224650840;-0.2566;-0.0206;0.3664;
1629204234754330;-0.2608;0.0241;0.3377;
1629204244857820;-0.2332;0.0348;0.3409;
1629204254956361;-0.2395;0.0443;0.3462;
1629204265059851;-0.2246;0.0912;0.3249;
1629204275163340;-0.2225;0.0593;0.3217;
1629204285259590;-0.2587;0.0358;0.3441;
1629204295363132;-0.2619;0.0241;0.3387;
1629204305466570;-0.2310;-0.0430;0.3547;
1629204315552663;-0.2268;-0.0292;0.3824;
1629204325656101;-0.2523;-0.0004;0.3835;
1629204335759590;-0.2756;-0.0100;0.3675;
1629204345868549;-0.2694;0.0411;0.3632;
1629204355972038;-0.2608;0.0284;0.3952;
1629204366075528;-0.3150;0.0060;0.3845;
1629204376174278;-0.3246;-0.0036;0.3643;
1629204386277820;-0.3268;-0.0089;0.3824;
1629204396381309;-0.3619;0.0635;0.4005;
1629204406486882;-0.4035;0.0561;0.3856;
1629204416590424;-0.4130;0.0113;0.3867;
1629204426693861;-0.4354;0.0539;0.3803;
1629204436793236;-0.4588;0.1381;0.3643;
1629204446896674;-0.4919;0.1232;0.3260;
1629204457000163;-0.4748;0.0049;0.3483;
1629204467112090;-0.5206;-0.0068;0.3206;
1629204477215632;-0.4983;0.0624;0.2631;
1629204487319122;-0.4993;0.0923;0.2493;
1629204497414070;-0.5196;0.0454;0.2525;
1629204507517507;-0.5441;0.0028;0.2439;
1629204517620997;-0.5355;-0.0036;0.2248;
1629204527733861;-0.4961;0.0049;0.2248;
1629204537837403;-0.4727;0.0294;0.2173;
1629204547940840;-0.4802;0.0433;0.1855;
1629204558048340;-0.4919;0.0401;0.1535;
1629204568151882;-0.4908;0.0507;0.1567;
1629204578255372;-0.5238;0.1551;0.1130;
1629204588347768;-0.5174;0.1860;0.0726;
1629204598451205;-0.5153;0.1636;0.0630;
1629204608554747;-0.5387;0.1168;0.0704;
1629204618661153;-0.5920;0.0901;0.0481;
1629204628764695;-0.5558;0.0912;0.0182;
1629204638868132;-0.5089;0.0688;0.0065;
1629204648975007;-0.5164;0.0624;-0.0137;
1629204659078497;-0.5004;0.0742;-0.0606;
1629204669181986;-0.4844;0.0241;-0.0489;
1629204679286518;-0.4972;0.0305;-0.0457;
1629204689390007;-0.4525;0.1115;-0.0670;
1629204699493497;-0.4620;0.0624;-0.1138;
1629204709597403;-0.4706;0.0326;-0.1107;
1629204719700945;-0.4610;0.0944;-0.1053;
1629204729804434;-0.4525;0.1083;-0.1043;
1629204739901101;-0.4493;0.1093;-0.1128;
1629204750004538;-0.4322;0.1274;-0.1330;
1629204760108028;-0.4258;0.1328;-0.1565;
1629204770220007;-0.4216;0.1242;-0.1788;
1629204780323497;-0.4098;0.0827;-0.1799;
1629204790426986;-0.3736;0.1200;-0.2087;
1629204800542038;-0.3172;0.1146;-0.2225;
1629204810645476;-0.3257;0.0209;-0.2044;
1629204820748965;-0.3246;0.0561;-0.1905;
1629204830853028;-0.2884;0.0198;-0.1980;
1629204840956518;-0.2927;-0.0324;-0.2076;
1629204851060007;-0.2545;0.0582;-0.2182;
1629204861155320;-0.2300;0.0774;-0.2118;
1629204871258861;-0.2756;0.0230;-0.2300;
1629204881362351;-0.2619;0.0561;-0.2427;
1629204891454903;-0.2470;0.0624;-0.2395;
1629204901558393;-0.2608;0.0284;-0.2790;
1629204911661882;-0.2023;0.0316;-0.2971;
1629204921738497;-0.2214;0.0401;-0.2971;
1629204931841934;-0.2545;0.0518;-0.2939;
1629204941945476;-0.2427;0.0507;-0.2768;
1629204952070476;-0.2204;0.0529;-0.2907;
1629204962173809;-0.2044;0.0539;-0.3077;
1629204972277195;-0.1969;0.0337;-0.3258;
1629204982388601;-0.2108;0.0518;-0.3493;
1629204992491986;-0.1895;0.1051;-0.3503;
1629205002595372;-0.1842;0.0646;-0.3535;
1629205012699382;-0.2150;0.0656;-0.4100;
1629205022802768;-0.1597;0.1125;-0.4418;
1629205032906101;-0.1085;0.1509;-0.4322;
1629205043102507;-0.0734;0.1253;-0.4216;
1629205053205893;-0.0382;0.0273;-0.4120;
1629205063309174;-0.0020;-0.0238;-0.4015;
1629205073311830;0.0342;-0.0015;-0.4068;
1629205083415163;0.1003;0.0039;-0.4079;
1629205093518549;0.1056;-0.0718;-0.4162;
1629205103622090;0.1194;-0.0835;-0.4100;
1629205113725424;0.1248;-0.0899;-0.4047;
1629205123828809;0.1216;0.0028;-0.4205;
1629205133923861;0.1770;0.0103;-0.4130;
1629205144027247;0.2036;-0.0611;-0.3865;
1629205154130580;0.2004;-0.0686;-0.3631;
1629205164258236;0.2047;-0.0324;-0.3375;
1629205174361622;0.2025;-0.0217;-0.3109;
1629205184464955;0.1834;-0.0089;-0.3056;
1629205194575528;0.2015;-0.0302;-0.3056;
1629205204678913;0.1418;-0.0302;-0.3344;
1629205214782247;0.1322;0.0550;-0.3503;
1629205224881257;0.1599;0.0273;-0.3333;
1629205234984643;0.1226;0.0188;-0.3503;
1629205245087976;0.1631;0.0252;-0.3610;
1629205255202247;0.1599;-0.0196;-0.3461;
1629205265305632;0.1461;-0.0249;-0.3226;
1629205275408965;0.1695;-0.0611;-0.3088;
1629205285488340;0.1652;-0.0728;-0.2662;
1629205295591726;0.1642;-0.0473;-0.2523;
1629205305695111;0.1780;-0.0579;-0.2566;
1629205315797820;0.1514;-0.0505;-0.2843;
1629205325901205;0.1727;0.0188;-0.2864;
1629205336004538;0.2217;-0.0015;-0.2715;
1629205346108965;0.2015;0.0145;-0.2715;
1629205356212351;0.2302;0.0614;-0.2630;
1629205366315684;0.2526;0.0284;-0.2363;
1629205376431882;0.2419;0.0039;-0.2161;
1629205386535268;0.2377;-0.0345;-0.1916;
1629205396638601;0.2387;-0.0601;-0.1639;
1629205406730632;0.2355;-0.0739;-0.1501;
1629205416834018;0.2249;-0.0601;-0.1437;
1629205426937351;0.2025;0.0241;-0.1756;
1629205437037924;0.2398;0.0348;-0.1682;
1629205447141309;0.2015;0.0039;-0.1383;
1629205457244643;0.1940;0.0475;-0.1586;
1629205467347663;0.1993;0.0997;-0.1724;
1629205477450997;0.2185;0.0603;-0.1607;
1629205487554330;0.1876;0.0539;-0.1224;
1629205497665632;0.1780;0.0646;-0.1320;
1629205507769018;0.2057;0.0326;-0.1288;
1629205517872351;0.1929;-0.0079;-0.0968;
1629205527976882;0.2121;-0.0281;-0.0957;
1629205538080268;0.2206;-0.0100;-0.1234;
1629205548183601;0.2228;-0.0814;-0.1011;
1629205558277455;0.2132;-0.0995;-0.0989;
1629205568380788;0.2100;-0.0526;-0.1117;
1629205578484174;0.2142;-0.0622;-0.0936;
1629205588601361;0.2324;-0.0206;-0.0883;
1629205598704747;0.2377;-0.0324;-0.0553;
1629205608808080;0.2100;-0.0292;-0.0457;
1629205618914903;0.2206;-0.0238;-0.0340;
1629205629018288;0.1983;-0.0451;-0.0084;
1629205639121622;0.1844;-0.0196;-0.0084;
1629205649223653;0.1855;0.0113;-0.0233;
1629205659327038;0.1993;0.0752;-0.0542;
1629205669430372;0.2142;0.0603;-0.0403;
1629205679524799;0.1855;0.0081;-0.0329;
1629205689628184;0.1993;0.0816;-0.0617;
1629205699731518;0.2110;0.0188;-0.0340;
1629205709852299;0.2132;-0.0334;-0.0116;
1629205719955632;0.2174;-0.0217;-0.0105;
1629205730059018;0.2121;-0.0675;0.0172;
1629205740144174;0.1897;-0.0856;0.0534;
1629205750247559;0.2004;-0.0579;0.0577;
1629205760350945;0.2004;-0.0292;0.0502;
1629205770458028;0.1897;-0.0164;0.0364;
1629205780561413;0.2079;-0.0270;0.0609;
1629205790664747;0.1823;-0.0196;0.0672;
1629205800774486;0.1897;0.0230;0.0427;
1629205810877872;0.1929;-0.0111;0.0672;
1629205820981257;0.1823;-0.0174;0.0800;
1629205831091778;0.1865;-0.0142;0.1088;
1629205841195163;0.1535;-0.0515;0.1152;
1629205851298497;0.1493;-0.0430;0.1333;
1629205861386778;0.1216;-0.0547;0.1535;
1629205871490163;0.1194;-0.0281;0.1663;
1629205881593497;0.1056;0.0358;0.1450;
1629205891694695;0.0960;0.0795;0.1354;
1629205901798080;0.0715;0.0646;0.1482;
1629205911901465;0.0236;0.0720;0.1354;
1629205922010111;0.0395;0.0806;0.1141;
1629205932113497;0.0513;0.0305;0.1152;
1629205942216830;0.0204;0.0039;0.1269;
1629205952304747;0.0065;0.0060;0.1280;
1629205962408132;0.0406;-0.0015;0.1471;
1629205972511465;0.0257;0.0166;0.1631;
1629205982654070;0.0097;0.0092;0.1589;
1629205992757507;0.0129;-0.0036;0.1407;
1629206002860840;0.0246;-0.0100;0.1375;
1629206012927195;0.0204;0.0134;0.1610;
1629206023030632;0.0236;0.1051;0.1663;
1629206033133965;0.0566;0.1253;0.1589;
1629206043238288;-0.0180;0.0624;0.1546;
1629206053341674;-0.0531;0.0209;0.1418;
1629206063445059;-0.0435;0.0188;0.1397;
1629206073568132;-0.0190;-0.0270;0.1493;
1629206083671518;0.0044;-0.0867;0.1706;
1629206093774903;-0.0095;-0.0877;0.1695;
1629206103854070;-0.0052;-0.0473;0.1759;
1629206113957455;-0.0084;-0.0601;0.1557;
1629206124060840;-0.0553;-0.0750;0.1684;
1629206134197663;-0.0403;-0.0132;0.1812;
1629206144301049;0.0257;-0.0100;0.1727;
1629206154404434;-0.0137;-0.0377;0.2003;
1629206164508028;-0.0680;0.0475;0.1812;
1629206174611413;-0.0830;0.0593;0.1780;
1629206184714799;-0.1085;0.1189;0.1535;
1629206194791934;-0.0787;0.0997;0.1674;
1629206204895268;-0.1352;0.0316;0.1652;
1629206214998653;-0.1309;0.0390;0.1450;
1629206225123913;-0.1213;0.0092;0.1269;
1629206235227299;-0.1458;0.0071;0.1141;
1629206245330684;-0.1245;0.0401;0.1056;
1629206255413913;-0.0979;-0.0430;0.1067;
1629206265517247;-0.1256;-0.1016;0.1109;
1629206275620632;-0.1469;-0.0590;0.0939;
1629206285726830;-0.1149;-0.0441;0.1045;
1629206295830163;-0.1117;-0.0004;0.1226;
1629206305933549;-0.0989;0.0028;0.1280;
1629206316034747;-0.1298;-0.0356;0.1322;
1629206326138080;-0.1320;-0.0025;0.1194;
1629206336241465;-0.1352;0.0198;0.1035;
1629206346350632;-0.1266;0.0465;0.0758;
1629206356454018;-0.0915;0.0838;0.0704;
1629206366557403;-0.0979;0.0284;0.0832;
1629206376663549;-0.1234;-0.0260;0.0566;
1629206386766934;-0.1043;-0.0100;0.0257;
1629206396870320;-0.0936;-0.0451;0.0449;
1629206406986674;-0.0979;-0.1048;0.0577;
1629206417090059;-0.0979;-0.0909;0.0555;
1629206427193445;-0.0798;-0.0675;0.0715;
1629206437273080;-0.0925;-0.0558;0.0928;
1629206447376413;-0.0925;-0.0441;0.0875;
1629206457479799;-0.1085;0.0081;0.0502;
1629206467592195;-0.0840;0.0497;0.0342;
1629206477695580;-0.0893;0.0624;0.0545;
1629206487798965;-0.0979;0.0742;0.0534;
1629206497904590;-0.1021;0.1210;0.0172;
1629206508007976;-0.0979;0.1455;0.0012;
1629206518111361;-0.1234;0.1370;0.0214;
1629206528223653;-0.1245;0.0710;0.0182;
1629206538327038;-0.1341;0.0337;0.0033;
1629206548430424;-0.0989;-0.0057;0.0289;
1629206558539070;-0.0925;-0.0462;0.0470;
1629206568642455;-0.1064;-0.0398;0.0513;
1629206578745840;-0.1202;-0.0654;0.0257;
1629206588861882;-0.1085;-0.0846;0.0246;
1629206598965268;-0.1096;-0.0611;0.0150;
1629206609068653;-0.0989;-0.0281;0.0129;
1629206619138809;-0.0968;0.0220;0.0087;
1629206629242143;-0.0915;0.0379;0.0129;
1629206639345528;-0.0968;0.0358;0.0406;
1629206649466101;-0.1075;0.0635;0.0545;
1629206659569486;-0.1032;0.0720;0.0332;
1629206669672872;-0.0979;0.0071;0.0491;
1629206679770528;-0.0883;-0.0324;0.0577;
1629206689873913;-0.0872;-0.0015;0.0246;
1629206699977299;-0.0883;-0.0079;0.0033;
1629206710075476;-0.1021;0.0166;0.0065;
1629206720178809;-0.0840;0.0262;-0.0041;
1629206730282195;-0.0734;-0.0079;-0.0126;
1629206740390632;-0.0617;0.0134;-0.0190;
1629206750494018;-0.0542;-0.0132;-0.0105;
1629206760597403;-0.0574;-0.0451;0.0044;
1629206770709382;-0.0595;-0.0270;0.0087;
1629206780812768;-0.0648;-0.0334;0.0236;
1629206790916153;-0.0627;-0.0068;0.0172;
1629206801021570;-0.0446;-0.0217;0.0182;
1629206811124955;-0.0766;-0.0356;-0.0126;
1629206821228340;-0.0691;0.0188;-0.0297;
1629206831342820;-0.0670;0.0284;-0.0233;
1629206841446205;-0.0680;-0.0206;-0.0414;
1629206851549590;-0.0585;-0.0153;-0.0702;
1629206861634382;-0.0510;-0.0111;-0.0680;
1629206871737768;-0.0553;-0.0451;-0.0457;
1629206881841153;-0.0723;-0.0462;-0.0425;
1629206891941674;-0.0648;-0.0366;-0.0467;
1629206902045059;-0.0659;-0.0739;-0.0233;
1629206912148445;-0.0744;-0.0664;-0.0425;
1629206922265215;-0.0606;-0.0228;-0.0467;
1629206932368601;-0.0702;0.0145;-0.0776;
1629206942471986;-0.0425;0.0603;-0.0872;
1629206952581049;-0.0382;0.0752;-0.1011;
1629206962684538;-0.0595;0.0518;-0.1128;
1629206972787976;-0.0585;0.0646;-0.1352;
1629206982871049;-0.0158;0.0816;-0.1394;
1629206992974538;-0.0158;0.0411;-0.1160;
1629207003077976;-0.0425;-0.0025;-0.1181;
1629207013169590;-0.0041;0.0241;-0.1256;
1629207023273080;-0.0148;0.0379;-0.1053;
1629207033376518;-0.0020;0.0273;-0.0957;
1629207043486465;0.0129;0.0337;-0.1128;
1629207053589955;0.0214;0.0752;-0.1224;
1629207063693445;0.0353;0.0667;-0.1011;
1629207073832090;0.0364;0.0134;-0.0936;
1629207083935580;0.0513;-0.0036;-0.1085;
1629207094039018;0.0747;0.0071;-0.1138;
1629207104080632;0.0715;-0.0313;-0.0755;
1629207114184122;0.0577;-0.0590;-0.0499;
1629207124287559;0.0715;-0.0185;-0.0425;
1629207134423028;0.1077;-0.0398;-0.0052;
1629207144526518;0.0768;-0.0888;0.0342;
1629207154629955;0.0587;-0.0356;0.0385;
1629207164714122;0.0630;-0.0036;0.0193;
1629207174817559;0.0555;-0.0036;0.0385;
1629207184920997;0.0300;0.0028;0.0555;
1629207195045684;-0.0009;0.0081;0.0427;
1629207205149174;-0.0126;0.0561;0.0193;
1629207215252611;-0.0095;0.0838;0.0225;
1629207225350007;-0.0308;0.0486;0.0364;
1629207235453497;-0.0467;0.0252;0.0204;
1629207245556934;-0.0372;0.0177;0.0172;
1629207255667715;-0.0446;-0.0409;0.0502;
1629207265771205;-0.0499;-0.0270;0.0406;
1629207275874643;-0.0276;0.0039;0.0374;
1629207285983601;-0.0265;-0.0004;0.0289;
1629207296087090;-0.0361;0.0017;0.0268;
1629207306190528;-0.0595;-0.0174;0.0321;
1629207316287507;-0.0585;-0.0079;0.0193;
1629207326390997;-0.0361;0.0369;0.0055;
1629207336494434;-0.0222;0.0497;0.0236;
1629207346606934;-0.0340;0.0241;0.0438;
1629207356710424;-0.0691;0.0241;0.0342;
1629207366813861;-0.0766;0.0007;0.0332;
1629207376919486;-0.0766;-0.0366;0.0417;
1629207387022976;-0.0680;-0.0377;0.0300;
1629207397126413;-0.0755;-0.0590;0.0140;
1629207407223757;-0.0883;-0.0494;-0.0137;
1629207417327247;-0.0723;-0.0004;-0.0126;
1629207427430684;-0.0798;0.0294;-0.0254;
1629207437518549;-0.0617;0.0252;-0.0372;
1629207447622038;-0.0435;0.0284;-0.0499;
1629207457725476;-0.0212;0.0134;-0.0489;
1629207467845215;-0.0222;-0.0047;-0.0372;
1629207477948705;-0.0361;0.0316;-0.0414;
1629207488052143;-0.0212;0.0411;-0.0382;
1629207498142507;-0.0222;0.0209;-0.0318;
1629207508245997;-0.0052;0.0230;-0.0318;
1629207518349434;-0.0031;0.0198;-0.0638;
1629207528459434;0.0076;0.0252;-0.0808;
1629207538562924;0.0321;0.0039;-0.0627;
1629207548666361;0.0406;-0.0387;-0.0489;
1629207558781570;0.0236;-0.0036;-0.0521;
1629207568885007;0.0481;0.0028;-0.0372;
1629207578988497;0.0364;-0.0398;-0.0222;
1629207589095424;0.0108;-0.0345;-0.0105;
1629207599198913;0.0119;-0.0047;0.0023;
1629207609302351;0.0140;-0.0111;0.0310;
1629207619391674;0.0087;0.0039;0.0321;
1629207629495163;0.0236;0.0433;0.0289;
1629207639598601;0.0065;0.0561;0.0108;
1629207649702507;-0.0052;0.0646;-0.0009;
1629207659805997;-0.0052;0.0326;0.0033;
1629207669909434;-0.0212;0.0039;-0.0052;
1629207680013653;-0.0137;-0.0057;-0.0116;
1629207690117143;-0.0233;-0.0260;-0.0052;
1629207700220580;-0.0499;-0.0622;-0.0073;
1629207710336465;-0.0595;-0.0867;0.0023;
1629207720439903;-0.0734;-0.0877;0.0204;
1629207730543393;-0.0617;-0.1091;0.0342;
1629207740631674;-0.0510;-0.1272;0.0236;
1629207750735163;-0.0414;-0.1474;0.0321;
1629207760838601;-0.0574;-0.1325;0.0065;
1629207770944799;-0.0478;-0.0888;-0.0212;
1629207781048288;-0.0414;-0.0696;-0.0116;
1629207791151726;-0.0446;-0.0931;-0.0052;
1629207801242507;-0.0190;-0.0952;-0.0297;
1629207811345997;0.0268;-0.0728;-0.0510;
1629207821449434;0.0385;-0.0601;-0.0467;
1629207831578757;0.0513;-0.0739;-0.0425;
1629207841682247;0.0694;-0.1069;-0.0308;
1629207851785684;0.0630;-0.0792;-0.0329;
1629207861870007;0.0864;-0.0728;-0.0180;
1629207871973497;0.0534;-0.1069;-0.0180;
1629207882076934;0.0811;-0.0835;-0.0350;
1629207892187090;0.0790;-0.0164;-0.0350;
1629207902290580;0.0598;0.0230;-0.0425;
1629207912394018;0.0971;0.0166;-0.0148;
1629207922504330;0.0619;0.0955;-0.0361;
1629207932607820;0.1024;0.0923;-0.0574;
1629207942711257;0.0896;0.0092;-0.0563;
1629207952787403;0.0885;0.0060;-0.0372;
1629207962890788;0.1120;0.0188;-0.0105;
1629207972994226;0.1194;-0.0089;0.0236;
1629207983177247;0.1248;-0.0249;0.0438;
1629207993280580;0.1216;0.0060;0.0811;
1629208003383965;0.1557;0.0103;0.1290;
1629208013412507;0.1237;-0.0111;0.1823;
1629208023515893;0.0949;0.0369;0.2269;
1629208033619226;0.0662;0.0635;0.2333;
1629208043714903;0.0321;0.0561;0.2652;
1629208053818340;-0.0574;0.0454;0.3089;
1629208063921726;-0.1426;0.0518;0.3377;
1629208074048965;-0.2694;0.0007;0.3430;
1629208084152351;-0.4237;0.0411;0.3228;
1629208094255736;-0.5398;0.0710;0.3164;
1629208104355528;-0.6825;0.0124;0.3334;
1629208114458965;-0.8296;-0.0121;0.3302;
1629208124562299;-0.8837;0.0230;0.3047;
1629208134661674;-0.9466;0.0465;0.2834;
1629208144765059;-1.0446;-0.0025;0.2652;
1629208154868497;-1.0989;-0.0249;0.2290;
1629208164980215;-1.1309;0.0348;0.1876;
1629208175083601;-1.1607;0.0720;0.1322;
1629208185186986;-1.1809;0.0912;0.0736;
1629208195266518;-1.1799;0.0912;0.0332;
1629208205369851;-1.1554;0.0774;-0.0254;
1629208215473288;-1.1053;0.0752;-0.1138;
1629208225591465;-0.9796;0.0667;-0.1692;
1629208235694851;-0.9189;0.0635;-0.2012;
1629208245798236;-0.8317;0.0486;-0.2385;
1629208255908132;-0.6921;0.0518;-0.2917;
1629208266011518;-0.5505;0.0316;-0.3088;
1629208276114903;-0.4610;0.0113;-0.3035;
1629208286213965;-0.2863;0.0284;-0.3205;
1629208296317351;-0.1469;0.0326;-0.3375;
1629208306420736;0.0023;0.0284;-0.3482;
1629208316523757;0.1045;0.0475;-0.3418;
1629208326627143;0.2217;0.0720;-0.3429;
1629208336730528;0.3229;0.1093;-0.3301;
1629208346845007;0.3845;0.1072;-0.2992;
1629208356948393;0.4463;0.0848;-0.2885;
1629208367051778;0.5060;0.0933;-0.3098;
1629208377153861;0.5326;0.0784;-0.3035;
1629208387257247;0.5198;0.0624;-0.2875;
1629208397360632;0.5273;0.0912;-0.2832;
1629208407450632;0.5156;0.1072;-0.2545;
1629208417554018;0.4900;0.1040;-0.2278;
1629208427657403;0.4719;0.0742;-0.2150;
1629208437778184;0.4730;0.0497;-0.1927;
1629208447881570;0.4495;0.0241;-0.1895;
1629208457984955;0.4538;-0.0590;-0.1778;
1629208468077507;0.4250;-0.0973;-0.1533;
1629208478180945;0.3877;-0.0377;-0.1554;
1629208488284278;0.3473;0.0348;-0.1458;
1629208498386778;0.2920;0.0720;-0.1224;
1629208508490163;0.2451;0.0869;-0.1192;
1629208518593549;0.2228;0.0891;-0.1234;
1629208528700007;0.1706;0.0933;-0.1043;
1629208538803393;0.1344;0.0891;-0.0936;
1629208548906830;0.1194;0.0880;-0.0830;
1629208559024590;0.1141;0.0774;-0.0627;
1629208569127976;0.1280;0.0284;-0.0222;
1629208579231361;0.1141;-0.0100;0.0108;
1629208589319018;0.1258;0.0326;0.0257;
1629208599422403;0.1312;0.0827;0.0321;
1629208609525788;0.1088;0.0763;0.0459;
1629208619632299;0.1130;0.0656;0.0555;
1629208629735736;0.1226;0.0838;0.0491;
1629208639839070;0.1333;0.0891;0.0193;
1629208649950424;0.1652;0.0827;0.0161;
1629208660053809;0.2047;0.0443;0.0438;
1629208670157195;0.2355;0.0028;0.0630;
1629208680244851;0.2718;-0.0185;0.0747;
1629208690348288;0.2973;-0.0196;0.0854;
1629208700451622;0.3293;-0.0004;0.1130;
1629208710576465;0.3473;0.0145;0.1461;
1629208720679851;0.3186;0.0188;0.1684;
1629208730783236;0.2579;0.0518;0.1695;
1629208740865320;0.2366;0.0582;0.1855;
1629208750968705;0.1940;0.0145;0.2067;
1629208761072143;0.1599;-0.0558;0.2248;
1629208771161413;0.1152;-0.1027;0.2557;
1629208781264799;0.0438;-0.1240;0.2802;
1629208791368184;-0.0009;-0.1293;0.2684;
1629208801461361;-0.0457;-0.1154;0.2557;
1629208811564747;-0.1266;-0.0824;0.2652;
1629208821668132;-0.2491;-0.0292;0.2439;
1629208831818965;-0.3118;0.0603;0.1897;
1629208841922403;-0.4333;0.1594;0.1748;
1629208852025736;-0.5824;0.1850;0.1557;
1629208862108757;-0.6676;0.1306;0.1237;
1629208872212143;-0.7049;0.0774;0.0832;
1629208882315580;-0.7166;0.0667;0.0161;
1629208892424590;-0.7134;0.0688;-0.0169;
1629208902527976;-0.7007;0.0614;0.0150;
1629208912631413;-0.7134;0.0326;0.0246;
1629208922759590;-0.6921;0.0039;-0.0137;
1629208932862976;-0.6144;0.0209;-0.0095;
1629208942966361;-0.6048;0.0241;-0.0158;
1629208953034799;-0.6122;0.0081;-0.0286;
1629208963138184;-0.5707;0.0241;-0.0009;
1629208973241518;-0.6272;0.0593;-0.0009;
1629208983359018;-0.6293;0.0763;-0.0148;
1629208993462403;-0.6240;0.0880;-0.0265;
1629209003565840;-0.6953;0.1029;-0.0467;
1629209013671465;-0.6900;0.1274;-0.0446;
1629209023774851;-0.7603;0.1221;-0.0712;
1629209033878236;-0.7635;0.1019;-0.1128;
1629209043970893;-0.7401;0.1019;-0.1011;
1629209054074278;-0.7699;0.0816;-0.0627;
1629209064177663;-0.7305;0.0497;-0.0574;
1629209074272507;-0.6591;0.0103;-0.0563;
1629209084375893;-0.6431;-0.0302;-0.0680;
1629209094479330;-0.5643;-0.0260;-0.0936;
1629209104583236;-0.5377;-0.0132;-0.0936;
1629209114686622;-0.5121;-0.0121;-0.1011;
1629209124790007;-0.4940;0.0081;-0.0936;
1629209134916986;-0.4727;0.0422;-0.1053;
1629209145020372;-0.4312;0.0603;-0.1192;
1629209155123757;-0.4173;0.0593;-0.1266;
1629209165228861;-0.3971;0.0507;-0.1181;
1629209175332247;-0.3928;0.0369;-0.1245;
1629209185435632;-0.3747;0.0028;-0.1597;
1629209195506570;-0.3534;-0.0462;-0.1735;
1629209205609903;-0.3502;-0.0760;-0.1916;
1629209215713340;-0.3023;-0.1346;-0.1820;
1629209225822403;-0.2916;-0.2113;-0.1948;
1629209235925736;-0.2214;-0.2326;-0.2108;
1629209246029122;-0.2140;-0.2177;-0.2236;
1629209256134330;-0.1948;-0.2007;-0.2204;
1629209266237663;-0.1842;-0.1581;-0.2001;
1629209276341049;-0.1714;-0.1431;-0.1863;
1629209286453549;-0.0957;-0.1378;-0.1916;
1629209296556934;-0.0553;-0.1389;-0.1831;
1629209306660320;0.0172;-0.1730;-0.1479;
1629209316775840;0.0204;-0.1858;-0.1288;
1629209326879226;0.1248;-0.2326;-0.1170;
1629209336982611;0.1354;-0.3443;-0.0787;
1629209347065632;0.1738;-0.3454;-0.0457;
1629209357169018;0.1802;-0.3624;-0.0276;
1629209367272403;0.1503;-0.3955;-0.0265;
1629209377384590;0.1482;-0.4019;-0.0425;
1629209387487976;0.1003;-0.3944;-0.0308;
1629209397591361;0.1099;-0.3646;-0.0116;
1629209407693861;0.0364;-0.3624;-0.0222;
1629209417797247;0.0651;-0.3742;-0.0148;
1629209427900632;0.0289;-0.2571;-0.0318;
1629209437995163;0.0598;-0.0984;-0.0403;
1629209448098497;-0.0212;0.0081;-0.0372;
1629209458201934;-0.1277;0.0795;-0.0031;
1629209468315945;-0.1522;0.0955;0.0108;
1629209478419330;-0.1905;0.0401;-0.0244;
1629209488522715;-0.1746;-0.0249;-0.0659;
1629209498621101;-0.1320;-0.0441;-0.0925;
1629209508724486;-0.1309;-0.1005;-0.0883;
1629209518827872;-0.1043;-0.1751;-0.0904;
1629209528932351;-0.1011;-0.1975;-0.1149;
1629209539035788;-0.1021;-0.2017;-0.1181;
1629209549139122;-0.0744;-0.1772;-0.1309;
1629209559241361;-0.0702;-0.1325;-0.1234;
1629209569344799;-0.0638;-0.0995;-0.0968;
1629209579448132;-0.0222;-0.0537;-0.1064;
1629209589555632;0.0278;-0.0079;-0.1096;
1629209599659018;0.0928;0.0134;-0.0851;
1629209609762403;0.0864;0.0198;-0.0840;
1629209619866882;0.1322;0.0124;-0.0798;
1629209629970268;0.1759;-0.0025;-0.0691;
1629209640073653;0.1535;-0.0356;-0.0691;
1629209650176257;0.1908;-0.0771;-0.0435;
1629209660279695;0.2441;-0.1336;-0.0148;
1629209670383028;0.2558;-0.1623;-0.0041;
1629209680491934;0.3080;-0.1708;0.0182;
1629209690595320;0.3441;-0.1666;0.0438;
1629209700698705;0.3197;-0.1581;0.0640;
1629209710782351;0.3122;-0.1165;0.0747;
1629209720885736;0.3336;-0.0483;0.0822;
1629209730989070;0.2771;-0.0057;0.0907;
1629209741099070;0.2057;0.0337;0.0811;
1629209751202403;0.1759;0.0859;0.0459;
1629209761305840;0.0960;0.0816;0.0204;
1629209771409486;-0.0073;0.0923;0.0119;
1629209781512820;-0.0212;0.1242;-0.0073;
1629209791616257;-0.0169;0.1551;-0.0403;
1629209801714382;-0.0095;0.1402;-0.0467;
1629209811817768;0.0214;0.1626;-0.0403;
1629209821921153;0.0491;0.2254;-0.0659;
1629209832019955;0.0949;0.2286;-0.0670;
1629209842123340;0.1280;0.2084;-0.0414;
1629209852226726;0.1652;0.2435;-0.0499;
1629209862347820;0.2419;0.2627;-0.0457;
1629209872451257;0.2664;0.2723;-0.0158;
1629209882554643;0.3165;0.2457;-0.0041;
1629209892653757;0.3547;0.1423;0.0065;
1629209902757143;0.3696;0.1242;0.0140;
1629209912860528;0.4048;0.1317;0.0481;
1629209922954955;0.3462;0.0944;0.0758;
1629209933058288;0.3336;0.1136;0.0854;
1629209943161674;0.3133;0.1892;0.0758;
1629209953269122;0.2675;0.2254;0.0672;
1629209963372455;0.2600;0.2073;0.0555;
1629209973475893;0.2494;0.2095;0.0310;
1629209983547455;0.2686;0.2095;0.0108;
1629209993650788;0.2877;0.1594;0.0001;
1629210003754174;0.3176;0.1125;0.0108;
1629210013891882;0.3739;0.1019;0.0257;
1629210023995320;0.4229;0.0880;0.0246;
1629210034098653;0.4804;0.0539;0.0204;
1629210044202768;0.5220;0.0624;0.0140;
1629210054306101;0.5443;0.0710;0.0150;
1629210064409538;0.5422;0.0646;0.0204;
1629210074537247;0.5347;0.0997;0.0119;
1629210084640632;0.5166;0.1360;-0.0020;
1629210094744018;0.4836;0.1434;-0.0126;
1629210104842403;0.4889;0.1658;-0.0244;
1629210114945788;0.5145;0.1903;-0.0372;
1629210125049174;0.5475;0.1924;-0.0350;
1629210135153445;0.6104;0.1881;-0.0308;
1629210145256830;0.6839;0.1743;-0.0265;
1629210155360215;0.7584;0.1509;-0.0095;
1629210165437455;0.8234;0.1402;0.0044;
1629210175540840;0.9044;0.1434;0.0129;
1629210185644226;0.9596;0.1391;0.0214;
1629210195756778;0.9937;0.1434;0.0257;
1629210205860215;1.0225;0.1519;0.0321;
1629210215963601;1.0342;0.1594;0.0353;
1629210226061830;1.0257;0.1743;0.0257;
1629210236165215;1.0044;0.1903;0.0182;
1629210246268601;0.9564;0.1956;0.0140;
1629210256368080;0.9108;0.1945;0.0108;
1629210266471413;0.8639;0.1775;0.0161;
1629210276574851;0.8288;0.1605;0.0310;
1629210286693236;0.8202;0.1583;0.0438;
1629210296796622;0.7798;0.1594;0.0459;
1629210306900059;0.7521;0.1647;0.0385;
1629210317010632;0.7446;0.1828;0.0321;
1629210327114018;0.6903;0.2126;0.0257;
1629210337217403;0.6189;0.2148;0.0129;
1629210347303393;0.5592;0.2041;0.0065;
1629210357406726;0.4943;0.1913;0.0161;
1629210367510111;0.4218;0.1679;0.0246;
1629210377624903;0.4282;0.1360;0.0193;
1629210387728288;0.3261;0.1221;0.0140;
1629210397831674;0.1706;0.1168;0.0257;
1629210407937195;0.1077;0.0891;0.0332;
1629210418040580;0.0587;0.0720;0.0268;
1629210428143965;0.0619;0.0688;0.0129;
1629210438239434;0.0651;0.0614;0.0033;
1629210448342820;0.0491;0.0529;0.0001;
1629210458446205;0.0438;0.0614;-0.0148;
1629210468540424;0.0310;0.0518;-0.0286;
1629210478643757;-0.0457;0.0294;-0.0403;
1629210488747143;-0.1543;0.0401;-0.0627;
1629210498857195;-0.2481;0.0614;-0.0830;
1629210508960580;-0.2726;0.0593;-0.1011;
1629210519063965;-0.2598;0.0699;-0.1266;
1629210529171101;-0.2842;0.0976;-0.1618;
1629210539274486;-0.4791;0.1157;-0.1724;
1629210549377872;-0.7997;0.0795;-0.2023;
1629210559477351;-1.0201;0.0039;-0.2182;
1629210569580736;-1.2417;-0.0121;-0.2363;
1629210579684070;-1.4238;0.0028;-0.2395;
1629210589792924;-1.4504;0.0071;-0.2523;
1629210599896309;-1.3588;0.0241;-0.2811;
1629210609999695;-1.2204;0.0688;-0.2928;
1629210620104695;-1.0574;0.1072;-0.2715;
1629210630208080;-0.9434;0.1168;-0.2417;
1629210640311465;-0.9466;0.1210;-0.2044;
1629210650415632;-0.9913;0.1157;-0.1756;
1629210660519070;-1.0286;0.0987;-0.1447;
1629210670622455;-1.0318;0.0933;-0.0936;
1629210680702976;-1.0031;0.0997;-0.0372;
1629210690806361;-0.9690;0.1019;0.0172;
1629210700909747;-0.9732;0.0944;0.0619;
1629210711051413;-1.0105;0.0912;0.0992;
1629210721154799;-1.0829;0.0923;0.1301;
1629210731258184;-1.1564;0.0901;0.1599;
1629210741337195;-1.2182;0.0880;0.1812;
1629210751440632;-1.2289;0.0880;0.2056;
1629210761544018;-1.1916;0.0901;0.2471;
1629210771655632;-1.1053;0.0933;0.2876;
1629210781759018;-1.0531;0.0891;0.3164;
1629210791862403;-1.0361;0.0784;0.3281;
1629210801979174;-1.0531;0.0656;0.3281;
1629210812082559;-1.0265;0.0561;0.3281;
1629210822185945;-0.9999;0.0497;0.3281;
1629210832294903;-0.9945;0.0401;0.3270;
1629210842398340;-0.9604;0.0284;0.3217;
1629210852501674;-0.9530;0.0209;0.3121;
1629210862576934;-0.9434;0.0156;0.2993;
1629210872680268;-0.9413;0.0113;0.2791;
1629210882783705;-0.9732;0.0039;0.2535;
1629210892902195;-0.9871;-0.0036;0.2226;
1629210903005632;-1.0137;-0.0121;0.1919;
1629210913108965;-1.0031;-0.0217;0.1642;
1629210923193236;-0.9626;-0.0249;0.1482;
1629210933296674;-0.8775;-0.0281;0.1365;
1629210943400059;-0.7007;-0.0334;0.1312;
1629210953509070;-0.5153;-0.0409;0.1333;
1629210963612455;-0.3491;-0.0419;0.1365;
1629210973715840;-0.2033;-0.0451;0.1344;
1629210983854382;-0.1032;-0.0483;0.1269;
1629210993957768;-0.0638;-0.0441;0.1130;
1629211004061153;-0.0638;-0.0345;0.1003;
1629211014120997;-0.0457;-0.0313;0.0875;
1629211024224382;-0.0169;-0.0292;0.0779;
1629211034327768;-0.0126;-0.0302;0.0683;
1629211044436309;-0.0095;-0.0334;0.0555;
1629211054539643;-0.0073;-0.0356;0.0385;
1629211064643080;-0.0052;-0.0345;0.0268;
1629211074748445;-0.0020;-0.0313;0.0172;
1629211084851830;0.0033;-0.0249;0.0055;
1629211094955268;0.0097;-0.0174;-0.0052;
1629211105077507;0.0108;-0.0153;-0.0148;
1629211115180893;0.0087;-0.0142;-0.0265;
1629211125284278;0.0097;-0.0121;-0.0393;
1629211135390840;0.0172;-0.0057;-0.0478;
1629211145494226;0.0374;0.0028;-0.0542;
1629211155597663;0.0598;0.0060;-0.0606;
1629211165674434;0.0758;0.0103;-0.0659;
1629211175777768;0.0875;0.0103;-0.0680;
1629211185881205;0.0992;0.0071;-0.0702;
1629211195992195;0.1088;0.0039;-0.0712;
1629211206095580;0.1077;0.0017;-0.0648;
1629211216199018;0.1088;0.0071;-0.0553;
1629211226303445;0.1184;0.0145;-0.0499;
1629211236406830;0.1280;0.0177;-0.0489;
1629211246510268;0.1280;0.0177;-0.0457;
1629211256608601;0.1184;0.0198;-0.0382;
1629211266711934;0.0854;0.0220;-0.0340;
1629211276815372;0.0246;0.0262;-0.0372;
1629211286921674;-0.0329;0.0348;-0.0425;
1629211297025111;-0.0244;0.0518;-0.0403;
1629211307128497;-0.0222;0.0603;-0.0286;
1629211317247403;-0.0318;0.0582;-0.0201;
1629211327350788;-0.0755;0.0507;-0.0158;
1629211337454174;-0.1735;0.0411;-0.0190;
1629211347547924;-0.2831;0.0305;-0.0244;
1629211357651309;-0.3715;0.0241;-0.0254;
1629211367754747;-0.4216;0.0262;-0.0222;
1629211377850007;-0.4429;0.0358;-0.0158;
1629211387953393;-0.4684;0.0422;-0.0148;
1629211398056830;-0.5366;0.0433;-0.0190;
1629211408164382;-0.6410;0.0390;-0.0297;
1629211418267768;-0.7422;0.0358;-0.0435;
1629211428371205;-0.8370;0.0358;-0.0585;
1629211438473028;-0.9434;0.0316;-0.0712;
1629211448576413;-1.0329;0.0273;-0.0851;
1629211458679851;-1.0989;0.0262;-0.0979;
1629211468788132;-1.1586;0.0241;-0.1032;
1629211478891518;-1.1777;0.0262;-0.1053;
1629211488994955;-1.1799;0.0294;-0.1021;
1629211499090580;-1.1532;0.0358;-0.0957;
1629211509193913;-1.1181;0.0337;-0.0798;
1629211519297351;-1.0659;0.0348;-0.0627;
1629211529406049;-1.0723;0.0390;-0.0382;
1629211539509434;-1.0126;0.0550;-0.0244;
1629211549612872;-0.8519;0.0923;-0.0276;
1629211559709070;-0.7347;0.1178;-0.0180;
1629211569812403;-0.7007;0.1083;0.0001;
1629211579915840;-0.7209;0.0838;0.0076;
1629211590025007;-0.7443;0.0614;-0.0009;
1629211600128445;-0.7156;0.0486;-0.0084;
1629211610231830;-0.6506;0.0401;0.0044;
1629211620333132;-0.5728;0.0422;0.0278;
1629211630436518;-0.5228;0.0390;0.0427;
1629211640539955;-0.4770;0.0411;0.0342;
1629211650655111;-0.4855;0.0486;0.0470;
1629211660758549;-0.4972;0.0497;0.0310;
1629211670861934;-0.5110;0.0465;0.0140;
1629211680929955;-0.5473;0.0390;0.0044;
1629211691033340;-0.5888;0.0337;0.0001;
1629211701136726;-0.6069;0.0358;-0.0041;
1629211711281830;-0.6101;0.0443;-0.0084;
1629211721385215;-0.6069;0.0529;-0.0126;
1629211731488601;-0.6016;0.0550;-0.0169;
1629211741576778;-0.5782;0.0561;-0.0158;
1629211751680163;-0.5345;0.0561;-0.0116;
1629211761783601;-0.4865;0.0486;-0.0084;
1629211771880372;-0.4258;0.0433;-0.0031;
1629211781983705;-0.3577;0.0497;0.0023;
1629211792087090;-0.3065;0.0646;0.0055;
1629211802208445;-0.2577;0.0816;0.0012;
1629211812311830;-0.2097;0.0901;-0.0031;
1629211822415268;-0.1842;0.0752;-0.0031;
1629211832529590;-0.1767;0.0497;-0.0063;
1629211842633028;-0.1437;0.0337;-0.0084;
1629211852736413;-0.0840;0.0316;-0.0073;
1629211862811101;-0.0723;0.0316;-0.0105;
1629211872914434;-0.0702;0.0348;-0.0148;
1629211883017872;-0.0531;0.0401;-0.0126;
1629211893140163;-0.0457;0.0358;-0.0116;
1629211903243497;-0.0393;0.0284;-0.0084;
1629211913346934;-0.0286;0.0252;-0.0052;
1629211923444174;-0.0276;0.0166;-0.0063;
1629211933547611;-0.0254;0.0060;-0.0073;
1629211943650997;-0.0222;0.0007;-0.0073;
1629211953779590;-0.0073;-0.0004;-0.0041;
1629211963883080;0.0385;0.0039;0.0076;
1629211973986518;0.1045;0.0071;0.0225;
1629211984070528;0.1439;0.0007;0.0257;
1629211994174018;0.1375;-0.0174;0.0161;
1629212004277455;0.0917;-0.0356;0.0065;
1629212014384747;0.0694;-0.0345;0.0150;
1629212024488236;0.0598;-0.0292;0.0246;
1629212034591674;0.0459;-0.0249;0.0310;
1629212044699174;0.0289;-0.0185;0.0257;
1629212054802663;0.0289;-0.0111;0.0150;
1629212064906101;0.0395;-0.0100;0.0065;
1629212074958288;0.0427;-0.0142;0.0001;
1629212085061674;0.0609;-0.0206;-0.0041;
1629212095165163;0.0939;-0.0270;-0.0084;
1629212105268601;0.1365;-0.0345;-0.0095;
1629212115393393;0.1855;-0.0377;-0.0084;
1629212125496830;0.2196;-0.0345;-0.0073;
1629212135600320;0.2217;-0.0324;-0.0105;
1629212145703809;0.2047;-0.0313;-0.0190;
1629212155807247;0.1919;-0.0281;-0.0276;
1629212165910684;0.1972;-0.0249;-0.0318;
1629212176050215;0.2142;-0.0228;-0.0350;
1629212186153705;0.2324;-0.0238;-0.0340;
1629212196257195;0.2473;-0.0302;-0.0340;
1629212206332611;0.2451;-0.0409;-0.0361;
1629212216436101;0.2292;-0.0483;-0.0414;
1629212226539590;0.2238;-0.0324;-0.0499;
1629212236639486;0.2110;-0.0153;-0.0585;
1629212246742976;0.1951;-0.0036;-0.0638;
1629212256846465;0.1844;0.0081;-0.0638;
1629212266950476;0.1748;0.0113;-0.0648;
1629212277053913;0.1652;0.0103;-0.0648;
1629212287157351;0.1620;0.0071;-0.0627;
1629212297261570;0.1674;0.0039;-0.0617;
1629212307365007;0.1738;-0.0015;-0.0563;
1629212317468497;0.1812;-0.0036;-0.0510;
1629212327574799;0.1919;-0.0057;-0.0435;
1629212337678288;0.2121;-0.0036;-0.0382;
1629212347781726;0.2302;0.0007;-0.0329;
1629212357880945;0.2366;-0.0015;-0.0286;
1629212367984434;0.2324;-0.0057;-0.0254;
1629212378087924;0.2217;-0.0100;-0.0244;
1629212388188705;0.2110;-0.0142;-0.0201;
1629212398292143;0.2036;-0.0174;-0.0190;
1629212408395580;0.2068;-0.0132;-0.0137;
1629212418494434;0.2068;-0.0153;-0.0084;
1629212428597872;0.1897;-0.0228;-0.0009;
1629212438701361;0.1897;-0.0217;0.0001;
1629212448809643;0.1748;-0.0238;-0.0009;
1629212458913080;0.1652;-0.0228;0.0001;
1629212469016570;0.1578;-0.0228;0.0001;
1629212479119434;0.1514;-0.0238;0.0012;
1629212489222872;0.1482;-0.0228;0.0023;
1629212499326361;0.1418;-0.0249;0.0012;
1629212509430632;0.1312;-0.0196;-0.0009;
1629212519534122;0.1173;-0.0164;-0.0031;
1629212529637611;0.1045;-0.0132;-0.0063;
1629212539741309;0.0917;-0.0121;-0.0041;
1629212549844747;0.0864;-0.0100;-0.0031;
1629212559948236;0.0885;-0.0025;-0.0041;
1629212570047143;0.0907;0.0039;-0.0031;
1629212580150580;0.0907;0.0049;0.0012;
1629212590254070;0.0811;-0.0004;0.0023;
1629212600362195;0.0736;-0.0047;0.0023;
1629212610465684;0.0672;-0.0089;-0.0009;
1629212620569174;0.0619;-0.0079;0.0044;
1629212630668913;0.0640;-0.0015;0.0076;
1629212640772351;0.0566;-0.0036;0.0097;
1629212650875840;0.0438;-0.0068;0.0108;
1629212660980476;0.0374;-0.0089;0.0150;
1629212671083913;0.0342;-0.0111;0.0182;
