Sensor: bmi160 Accelerometer Non-wakeup
Vendor: BOSCH
TimestampAcc [ns]; AccX [m/s^2]; AccY [m/s^2]; AccZ [m/s^2]
1191413328413079;-9.4143;0.0278;-2.4643;
1191413338548287;-9.4214;0.0087;-2.5744;
1191413348648495;-9.4143;-0.0320;-2.6321;
1191413358752922;-9.4430;-0.0945;-2.6417;
1191413368904797;-9.4502;-0.1208;-2.5361;
1191413379009224;-9.4502;-0.1184;-2.4452;
1191413389117610;-9.4382;-0.1448;-2.4212;
1191413399206881;-9.4549;-0.1615;-2.4571;
1191413409333651;-9.4454;-0.1639;-2.5146;
1191413419439901;-9.4310;-0.1902;-2.5792;
1191413429541776;-9.4741;-0.1878;-2.5481;
1191413439638235;-9.4693;-0.2118;-2.4260;
1191413449745318;-9.4765;-0.2429;-2.3327;
1191413459850943;-9.4549;-0.2596;-2.3133;
1191413469907141;-9.4382;-0.2692;-2.4021;
1191413480029589;-9.4502;-0.2788;-2.4954;
1191413490144068;-9.4645;-0.2788;-2.5122;
1191413500245526;-9.4765;-0.2859;-2.4643;
1191413510359901;-9.5052;-0.2883;-2.3566;
1191413520459381;-9.4884;-0.2835;-2.3495;
1191413530569172;-9.4669;-0.2859;-2.3734;
1191413540680995;-9.4669;-0.2692;-2.4069;
1191413550771985;-9.4549;-0.3027;-2.4117;
1191413560882297;-9.4669;-0.3194;-2.4595;
1191413570985318;-9.4430;-0.3123;-2.4188;
1191413581105839;-9.4454;-0.3003;-2.4500;
1191413591201985;-9.4597;-0.2859;-2.4858;
1191413601288235;-9.4502;-0.2668;-2.4930;
1191413611401985;-9.4190;-0.2405;-2.4787;
1191413621502922;-9.4382;-0.2500;-2.4595;
1191413631610631;-9.4525;-0.2883;-2.4763;
1191413641716829;-9.4454;-0.2931;-2.5170;
1191413651819068;-9.4286;-0.3075;-2.5672;
1191413661922089;-9.4119;-0.3485;-2.5720;
1191413672036256;-9.4143;-0.3915;-2.5457;
1191413682139693;-9.4334;-0.4155;-2.5313;
1191413692242506;-9.4502;-0.4466;-2.4763;
1191413702349797;-9.4406;-0.5016;-2.4835;
1191413712451256;-9.4382;-0.6096;-2.4882;
1191413722563026;-9.4573;-0.7244;-2.5241;
1191413732664276;-9.4621;-0.8130;-2.5193;
1191413742770006;-9.4860;-0.9162;-2.4787;
1191413752868079;-9.4693;-0.9640;-2.5050;
1191413762986256;-9.4621;-0.9305;-2.5026;
1191413773086672;-9.4454;-0.8850;-2.4763;
1191413783195579;-9.4741;-0.8177;-2.4763;
1191413793292506;-9.5100;-0.7842;-2.4141;
1191413803385422;-9.4884;-0.6957;-2.4476;
1191413813500006;-9.4262;-0.6096;-2.4954;
1191413823600579;-9.4358;-0.5638;-2.4763;
1191413833688287;-9.4502;-0.5901;-2.4739;
1191413843806568;-9.4765;-0.6144;-2.4930;
1191413853916672;-9.4621;-0.6215;-2.4906;
1191413864019589;-9.4741;-0.6526;-2.4069;
1191413874125943;-9.4789;-0.6622;-2.3734;
1191413884230579;-9.4621;-0.6215;-2.4117;
1191413894331985;-9.4382;-0.5351;-2.4428;
1191413904438547;-9.4478;-0.4944;-2.4619;
1191413914546360;-9.5100;-0.4370;-2.3973;
1191413924640422;-9.4860;-0.4226;-2.3471;
1191413934769485;-9.4621;-0.4035;-2.3758;
1191413944860839;-9.4478;-0.3891;-2.4284;
1191413954953756;-9.4430;-0.3748;-2.4284;
1191413965065735;-9.4693;-0.3580;-2.4165;
1191413975168443;-9.4621;-0.2907;-2.4236;
1191413985278495;-9.4382;-0.2118;-2.4500;
1191413995380526;-9.4095;-0.1711;-2.5002;
1191414005483547;-9.4190;-0.1137;-2.4428;
1191414015590006;-9.4310;-0.0583;-2.4404;
1191414025694693;-9.4525;0.0230;-2.4236;
1191414035789276;-9.4430;0.0374;-2.4667;
1191414045897506;-9.3760;0.0757;-2.6058;
1191414056001360;-9.3688;0.1499;-2.6584;
1191414066112193;-9.3951;0.2219;-2.6154;
1191414076216568;-9.4047;0.2243;-2.5504;
1191414086320110;-9.4214;0.3272;-2.4523;
1191414096440839;-9.3999;0.4181;-2.4763;
1191414106529485;-9.3664;0.4711;-2.5433;
1191414116634172;-9.3736;0.4807;-2.6560;
1191414126745995;-9.3449;0.5189;-2.7900;
1191414136856360;-9.3497;0.5859;-2.7517;
1191414146949901;-9.3544;0.6123;-2.6441;
1191414157046776;-9.3568;0.6625;-2.6082;
1191414167153391;-9.3449;0.7442;-2.5720;
1191414177246568;-9.3473;0.8255;-2.6321;
1191414187384016;-9.3377;0.8710;-2.7135;
1191414197479068;-9.3305;0.9117;-2.7350;
1191414207595214;-9.3090;0.9619;-2.7781;
1191414217658756;-9.2946;0.9954;-2.7613;
1191414227774381;-9.3162;0.9787;-2.7517;
1191414237876672;-9.3377;1.0149;-2.7182;
1191414248001620;-9.3449;1.0603;-2.6584;
1191414258085214;-9.3592;1.0220;-2.5744;
1191414268262297;-9.3640;0.9643;-2.5935;
1191414278295006;-9.3233;1.0053;-2.6824;
1191414288391256;-9.3185;1.0938;-2.7565;
1191414298519172;-9.3544;1.1560;-2.7278;
1191414308610631;-9.3640;1.1321;-2.6273;
1191414318716516;-9.3616;1.1082;-2.5648;
1191414328831360;-9.3592;1.1058;-2.5887;
1191414338923131;-9.3257;1.1704;-2.6680;
1191414349052401;-9.3568;1.1704;-2.6058;
1191414359156151;-9.3927;1.1967;-2.6106;
1191414369236412;-9.3616;1.2975;-2.6489;
1191414379343547;-9.3281;1.3047;-2.5433;
1191414389456256;-9.3377;1.3167;-2.5624;
1191414399560214;-9.3377;1.2398;-2.6034;
1191414409697506;-9.3592;1.2254;-2.5863;
1191414419772245;-9.3832;1.2254;-2.5050;
1191414429876047;-9.4071;1.1512;-2.4715;
1191414439977401;-9.3832;1.1010;-2.5265;
1191414450096985;-9.3568;1.2951;-2.7565;
1191414460210006;-9.2994;1.2087;-2.5911;
1191414470311151;-9.3664;1.0986;-2.4547;
1191414480415995;-9.4597;0.8423;-2.2247;
1191414490520787;-9.4669;0.8447;-2.1984;
1191414500606099;-9.4693;0.6242;-2.1960;
1191414510710995;-9.4047;0.6577;-2.7039;
1191414520815787;-9.0670;1.1656;-3.1301;
1191414530928339;-9.2130;1.3573;-3.0918;
1191414541033183;-9.7304;0.8112;-2.0836;
1191414551137974;-9.9030;0.4181;-1.4270;
1191414561242401;-9.3353;0.7920;-2.0067;
1191414571347245;-8.9279;1.0938;-3.0416;
1191414581452037;-9.1675;0.8255;-3.3410;
1191414591552922;-9.5124;0.7729;-2.9530;
1191414601657766;-9.6873;1.0555;-2.3228;
1191414611762558;-9.4693;1.1776;-2.1912;
1191414621873131;-9.1388;1.2015;-2.4141;
1191414631977974;-9.1316;1.1369;-2.5887;
1191414642082766;-9.4071;1.1895;-2.8956;
1191414652188026;-9.4454;1.4052;-2.9076;
1191414662292870;-9.2656;1.6639;-2.7470;
1191414672397662;-9.2345;1.7668;-2.6201;
1191414682501672;-9.2874;1.7644;-2.6010;
1191414692606516;-9.3042;1.6783;-2.6130;
1191414702711308;-9.3090;1.5826;-2.8522;
1191414712812297;-9.3377;1.4841;-2.9626;
1191414722917089;-9.2513;1.4961;-2.9291;
1191414733021881;-9.1747;1.5419;-2.9746;
1191414743124172;-9.2297;1.5538;-2.9411;
1191414753229016;-9.2850;1.4650;-2.8717;
1191414763333808;-9.2731;1.4100;-2.8068;
1191414773434381;-9.2489;1.4100;-2.7182;
1191414783539224;-9.2560;1.4363;-2.6130;
1191414793644016;-9.2779;1.3908;-2.8379;
1191414803744068;-9.2850;1.3741;-2.8235;
1191414813848912;-9.2536;1.2230;-3.1543;
1191414823953704;-9.1890;1.0172;-3.3482;
1191414834065995;-9.2082;0.8471;-2.8642;
1191414844170891;-9.3784;0.9093;-2.6130;
1191414854275683;-9.3808;1.1177;-2.6369;
1191414864372818;-9.1531;1.3071;-2.9483;
1191414874477662;-9.1101;1.3549;-3.2716;
1191414884582454;-9.1986;1.3095;-2.9411;
1191414894688860;-9.3808;1.2350;-2.4835;
1191414904793704;-9.4286;1.0747;-2.2893;
1191414914898495;-9.3018;1.4435;-2.7470;
1191414924999693;-9.1771;1.4219;-2.9602;
1191414935104537;-9.2273;1.4889;-2.9578;
1191414945209329;-9.2898;1.7189;-2.9219;
1191414955306516;-9.2803;1.9035;-2.9124;
1191414965411412;-9.1747;2.0255;-2.8956;
1191414975516204;-9.1460;2.1096;-2.8427;
1191414985643912;-9.1747;2.1526;-2.8669;
1191414995748704;-9.2130;2.0255;-2.8499;
1191415005853547;-9.1819;1.9753;-2.8642;
1191415015938964;-9.2201;1.9753;-2.9243;
1191415026043808;-9.1723;1.9896;-2.9267;
1191415036148599;-9.1292;2.0183;-2.9028;
1191415046258651;-9.1388;2.0734;-2.9028;
1191415056363443;-9.1675;2.1526;-2.9243;
1191415066468287;-9.1460;2.1383;-3.0153;
1191415076566099;-9.1388;2.1287;-3.1110;
1191415086670995;-9.1244;2.1144;-3.1496;
1191415096775787;-9.1364;2.0952;-3.1543;
1191415106887818;-9.1484;2.0518;-3.1591;
1191415116992662;-9.0933;2.0833;-3.1567;
1191415127097454;-9.0766;2.1455;-3.1639;
1191415137187037;-9.0790;2.2340;-3.2309;
1191415147291933;-9.0838;2.2866;-3.2572;
1191415157396724;-9.0766;2.2268;-3.3482;
1191415167519901;-9.0455;2.1526;-3.5016;
1191415177624693;-9.0885;2.0662;-3.5949;
1191415187729537;-9.1268;1.9753;-3.5040;
1191415197810214;-9.2369;1.9346;-3.3362;
1191415207915006;-9.2369;1.9298;-3.2524;
1191415218019901;-9.0790;1.8508;-3.2572;
1191415228144329;-9.0120;1.7644;-3.3769;
1191415238249172;-9.0024;1.7166;-3.4920;
1191415248353964;-8.8920;1.6352;-3.4418;
1191415258441464;-8.9830;1.5395;-3.3984;
1191415268546256;-9.3473;1.4411;-3.4155;
1191415278651099;-9.3114;1.4483;-3.3051;
1191415288792922;-9.1579;1.4052;-3.2357;
1191415298897818;-9.1627;1.4028;-3.2285;
1191415309002558;-9.0622;1.5272;-3.0344;
1191415319074329;-8.8825;1.6352;-2.8211;
1191415329179172;-8.9614;1.6854;-2.9937;
1191415339284016;-9.4884;1.5706;-3.4466;
1191415349386099;-9.6036;1.5443;-3.4346;
1191415359490943;-9.1412;1.5873;-3.1950;
1191415369595787;-9.0000;1.5443;-3.3171;
1191415379702297;-9.1579;1.4818;-3.3745;
1191415389807089;-9.3281;1.5081;-3.1974;
1191415399911933;-9.4669;1.7429;-2.8860;
1191415410009849;-9.1723;1.9992;-2.5457;
1191415420114745;-8.7939;2.0016;-2.5576;
1191415430219537;-8.9303;1.9490;-2.9698;
1191415440334172;-9.4406;2.0183;-3.2166;
1191415450438964;-9.2417;2.0112;-3.0224;
1191415460543808;-9.3209;2.0255;-3.1831;
1191415470661256;-9.6562;2.0064;-3.4753;
1191415480765839;-9.1866;1.9107;-2.7613;
1191415490870474;-8.6429;1.8652;-2.0163;
1191415500958756;-8.6189;2.0734;-2.3252;
1191415511063339;-8.8322;2.0423;-2.6273;
1191415521167974;-9.5916;2.0255;-2.8813;
1191415531275006;-10.1856;2.3393;-3.0655;
1191415541379589;-9.6371;2.6533;-2.5863;
1191415551484224;-8.8370;2.4353;-2.2510;
1191415561586568;-8.9495;2.5023;-2.3901;
1191415571691204;-8.8466;2.4305;-1.8942;
1191415581795787;-8.8035;2.2938;-1.5589;
1191415591903860;-9.8145;2.4377;-1.9923;
1191415602008443;-10.0995;2.6701;-2.3471;
1191415612113079;-9.3305;2.6725;-2.1434;
1191415622216776;-8.8442;2.6486;-2.3157;
1191415632321360;-8.6979;2.7538;-2.6991;
1191415642425995;-8.6405;2.2579;-2.3061;
1191415652532818;-8.7341;2.0785;-2.1793;
1191415662637401;-8.9973;2.2412;-2.7087;
1191415672742037;-10.0732;2.2723;-3.1902;
1191415682852401;-10.6983;1.8772;-2.5098;
1191415692956985;-9.8336;1.6663;-1.3983;
1191415703061620;-9.1388;1.7261;-1.1874;
1191415713190787;-8.7389;1.8556;-1.7503;
1191415723295370;-8.7987;1.9011;-2.1170;
1191415733400006;-9.6180;1.9322;-1.8846;
1191415743471412;-9.4669;1.8485;-1.2619;
1191415753576047;-9.1053;2.4903;-1.8129;
1191415763680631;-9.5148;3.2809;-3.0033;
1191415773781360;-9.4645;3.2809;-2.5839;
1191415783885943;-8.3961;3.0628;-1.6642;
1191415793990579;-8.2956;3.0389;-2.1027;
1191415804098756;-8.5256;3.3503;-2.4500;
1191415814203339;-9.1460;3.4295;-2.4547;
1191415824307974;-10.5832;3.1732;-2.3758;
1191415834426985;-10.0298;2.7108;-1.3935;
1191415844531568;-8.5759;2.5645;-0.8689;
1191415854636151;-8.1589;3.0724;-1.8607;
1191415864734485;-8.7867;3.3024;-2.3303;
1191415874839068;-9.5438;3.0724;-2.2343;
1191415884943704;-11.1464;3.3790;-3.4298;
1191415895032401;-10.9379;2.9886;-2.6847;
1191415905137037;-8.5783;2.0518;-0.4256;
1191415915241620;-7.6271;2.1837;-0.3586;
1191415925354693;-8.7628;2.6557;-1.5781;
1191415935459329;-10.2550;2.7275;-2.1601;
1191415945563912;-10.2574;2.6004;-1.7551;
1191415955665214;-9.3042;2.7467;-1.4844;
1191415965769797;-8.8394;3.0126;-1.7862;
1191415975874433;-8.7509;2.9504;-1.7216;
1191415985984016;-8.9207;2.8424;-1.4557;
1191415996088651;-8.9255;3.1516;-1.9636;
1191416006193235;-8.7075;3.4295;-2.5481;
1191416016293131;-9.1747;3.5133;-2.5576;
1191416026397714;-9.4167;3.4989;-2.2989;
1191416036502349;-8.7027;3.5994;-2.0569;
1191416046611881;-8.8418;3.7816;-2.3806;
1191416056716516;-9.4717;3.6664;-2.4643;
1191416066821099;-9.1220;3.5252;-1.8272;
1191416076920526;-8.2167;3.5133;-1.7671;
1191416087025162;-8.5089;3.6449;-2.4547;
1191416097129745;-9.1388;3.4175;-2.4188;
1191416107236412;-8.6309;3.4726;-2.2032;
1191416117340995;-9.1077;3.6042;-2.7996;
1191416127445579;-10.3678;3.5085;-3.1902;
1191416137563443;-9.1771;3.8007;-3.3912;
1191416147668026;-8.6429;3.7839;-4.1913;
1191416157772662;-9.3138;3.4128;-3.9999;
1191416167876360;-8.0704;3.3024;-3.1038;
1191416177980995;-7.5649;3.4534;-3.7149;
1191416188085526;-9.2201;3.5731;-4.5245;
1191416198221308;-10.2239;3.2067;-2.6058;
1191416208325891;-8.7075;2.6557;-0.1717;
1191416218430526;-7.2153;2.5908;-0.1525;
1191416228513651;-9.8958;2.5310;-1.2930;
1191416238618235;-9.3736;2.4209;-1.0367;
1191416248722870;-8.5663;3.7026;-3.8584;
1191416258827506;-11.0575;4.2150;-8.6590;
1191416268932089;-11.4048;3.8390;-7.3774;
1191416279036724;-6.7983;2.1622;-1.7551;
1191416289120943;-4.7815;2.1933;-2.0617;
1191416299225579;-7.0068;2.8591;-5.7820;
1191416309330162;-10.6098;2.0040;-5.1999;
1191416319435318;-10.1952;1.1369;-2.8140;
1191416329539954;-8.9016;2.7443;-4.3184;
1191416339644537;-10.8467;2.4520;-4.5748;
1191416349773808;-8.3172;1.1441;-1.3050;
1191416359878391;-7.1363;2.4018;-2.5816;
1191416369983026;-9.5821;1.6137;-3.7986;
1191416380068964;-10.1186;1.8508;-3.8536;
1191416390173599;-8.1470;2.6677;-4.9101;
1191416400278183;-11.4194;2.7873;-5.5834;
1191416410377193;-10.0657;1.6208;-3.5973;
1191416420481829;-6.8656;1.8867;-2.2295;
1191416430586412;-5.8714;1.4267;-3.3697;
1191416440690110;-8.8107;2.0327;-5.9904;
1191416450794693;-11.7428;1.6280;-5.3342;
1191416460899329;-8.1900;-0.0440;-1.1803;
1191416471030839;-9.7280;1.2446;-3.3194;
1191416481135579;-11.2062;2.4712;-5.3533;
1191416491240266;-8.9279;1.6256;-2.5170;
1191416501298339;-7.6681;0.9619;-1.5156;
1191416511403079;-4.9418;0.7848;-1.9493;
1191416521507766;-6.0679;2.4784;-6.5940;
1191416531634589;-9.9365;4.0642;-11.3204;
1191416541739329;-13.2302;3.6066;-8.2184;
1191416551844016;-12.2219;0.1714;0.6739;
1191416561954693;-11.4338;-1.5772;3.2871;
1191416572059433;-7.3636;0.7609;-2.1290;
1191416582164120;-4.3262;4.8284;-8.0195;
1191416592265839;-9.2850;3.8653;-6.6470;
1191416602370579;-7.8045;0.3320;1.2033;
1191416612475266;-7.3253;0.8136;1.2511;
1191416622586829;-11.9465;3.6784;-5.5810;
1191416632691568;-10.0442;5.5205;-6.2731;
1191416642796256;-7.3469;5.5277;-5.0898;
1191416652892662;-6.0631;4.6247;-3.1854;
1191416662997401;-6.7528;3.9685;-2.5050;
1191416673102089;-9.3042;4.2942;-4.2371;
1191416683209589;-11.8792;5.2068;-5.6025;
1191416693314329;-13.4602;4.5673;-2.9100;
1191416703419016;-8.5280;3.7457;0.2139;
1191416713522193;-4.9059;3.7361;-0.5240;
1191416723626933;-5.8642;3.2761;-3.3123;
1191416733731620;-10.3173;2.0542;-3.2285;
1191416743845631;-10.1689;0.3105;-0.9646;
1191416753950370;-7.3899;0.1642;-3.3218;
1191416764055058;-10.1880;-1.0717;-3.5231;
1191416774148651;-9.8360;-1.9439;-2.7374;
1191416784253391;-8.0536;-2.4251;-2.1936;
1191416794358079;-9.1914;-1.4240;-3.8225;
1191416804461829;-11.5678;-0.4992;-2.8546;
1191416814566568;-11.1583;-0.0631;-0.9239;
1191416824671256;-11.7476;0.5644;0.2258;
1191416834770995;-9.2225;1.4650;-0.5097;
1191416844875787;-7.8021;1.7357;-2.0979;
1191416854980474;-8.0489;1.0627;-2.9219;
1191416865088443;-10.0828;-0.1759;-3.8847;
1191416875193183;-11.2540;-0.3532;-2.7781;
1191416885297870;-9.1077;0.9500;-1.6355;
1191416895403079;-8.4802;1.9178;-3.3649;
1191416905507870;-14.4090;0.7872;-3.5542;
1191416915612558;-11.6157;-1.3256;0.0942;
1191416925713964;-5.1790;-1.2323;-1.3409;
1191416935818704;-7.5003;-1.4671;-3.5112;
1191416945923391;-10.0971;-1.5939;-4.2060;
1191416956026568;-6.8776;-2.0228;-3.1615;
1191416966131308;-9.6275;-1.7593;-2.9794;
1191416976235995;-11.1102;-0.6550;-0.3682;
1191416986356568;-7.6920;0.1857;-3.3577;
1191416996461308;-10.7725;-1.1004;-6.0144;
1191417006565995;-10.5185;-1.0549;-3.5997;
1191417016677141;-6.4295;-0.4107;-0.4448;
1191417026781881;-5.9240;-0.0464;-3.6790;
1191417036886568;-13.7189;0.2913;-6.8264;
1191417046966412;-15.3766;0.4014;-3.1014;
1191417057071151;-7.3229;0.3153;0.4893;
1191417067175839;-5.2822;0.3392;-2.9913;
1191417077277610;-11.0360;0.0422;-5.8229;
1191417087382349;-11.3569;-0.5710;-1.5541;
1191417097487037;-9.2755;-0.4226;-0.6867;
1191417107662193;-9.7041;-0.0778;-2.5768;
1191417117766933;-9.9317;0.8686;-3.5088;
1191417127871620;-14.1694;0.3105;0.3936;
1191417137918026;-13.4363;-0.1376;2.9662;
1191417148022714;-5.4305;0.0541;0.1899;
1191417158127454;-5.1838;1.3573;-3.7914;
1191417168270370;-7.9723;1.0866;-3.8919;
1191417178375110;-4.2736;0.3416;-3.4107;
1191417188479797;-8.7676;0.4325;-10.4414;
1191417198546464;-14.8304;1.3525;-6.5294;
1191417208651204;-9.1340;1.1608;-0.7202;
1191417218755891;-5.5672;0.9260;-9.9335;
1191417228865839;-14.3659;1.2135;-10.7767;
1191417238970579;-10.5329;-2.2071;7.1943;
1191417249075266;-4.8772;-2.2170;9.3383;
1191417259194901;-3.8806;2.3970;-5.5475;
1191417269299641;-8.4849;2.8857;-15.2061;
1191417279404329;-10.1952;-0.1854;-6.8312;
1191417289500318;-10.2694;0.0589;-1.2018;
1191417299605058;-14.3779;0.7537;-3.9159;
1191417309709745;-19.2120;2.3492;-3.2764;
1191417319811776;-12.0733;1.6113;4.6095;
1191417329916516;-7.3301;1.6065;0.4008;
1191417340021204;-11.8792;4.0762;-8.8005;
1191417350111360;-4.1010;3.2258;-1.4964;
1191417360216099;-1.2191;0.9356;-4.8120;
1191417370320787;-11.1512;2.9982;-14.1281;
1191417380434901;-8.4464;2.0952;-4.9149;
1191417390539641;-4.2903;1.4937;-1.3457;
1191417400644329;-7.9890;1.2903;-8.8412;
1191417410740631;-12.3177;3.0006;-10.5515;
1191417420845370;-8.9327;2.1981;-3.8154;
1191417430950058;-5.2508;0.7442;-0.6054;
1191417441053860;-6.5997;1.0555;-7.1186;
1191417451158599;-11.9055;3.2569;-12.9374;
1191417461263287;-7.7758;1.9155;-6.2994;
1191417471374693;-8.6692;-0.1280;-3.9254;
1191417481479224;-11.6061;1.3717;-3.8800;
1191417491583756;-7.0307;0.0135;0.5970;
1191417501703443;-5.3515;-1.2323;-0.8856;
1191417511807974;-7.7375;0.3559;-7.9475;
1191417521912506;-11.3617;1.1895;-7.4518;
1191417532003860;-11.6468;-0.9162;-0.4666;
1191417542108391;-7.2129;1.6615;-1.8057;
1191417552212922;-9.6443;1.7309;-5.8588;
1191417562312922;-9.6826;0.5716;-0.9168;
1191417572417454;-3.7944;0.7247;4.9881;
1191417582521985;-2.7619;1.1130;-3.9206;
1191417592628026;-13.9250;4.2392;-19.5251;
1191417602732558;-17.6860;3.9203;-11.2965;
1191417612838079;-8.3698;2.7156;0.0030;
1191417622942610;-2.8579;3.2091;-4.4572;
1191417633047141;-7.0857;1.1058;-7.7704;
1191417643153860;-7.6944;1.0627;-4.0980;
1191417653258391;-9.3688;1.2613;-2.9865;
1191417663362922;-11.2660;2.4712;-4.2060;
1191417673471672;-12.6362;2.9408;-1.9493;
1191417683576204;-8.7772;1.9250;4.8371;
1191417693680735;-3.9407;1.4195;7.7405;
1191417703783756;-3.3511;-0.0682;1.0834;
1191417713888287;-12.7537;0.3918;-8.3931;
1191417723992818;-15.4101;2.0160;-1.4509;
1191417734092506;-7.8500;-0.2237;2.4870;
1191417744197037;-4.4629;-2.7990;-3.5734;
1191417754301568;-9.4884;-3.0024;-13.2559;
1191417764396256;-17.9327;-3.6996;-11.9698;
1191417774500787;-15.6760;-4.3367;-3.8847;
1191417784605318;-6.9063;-5.5681;2.7676;
1191417794719797;-3.1262;-3.2468;3.8070;
1191417804824329;-8.6716;-0.0057;3.7280;
1191417814928860;-12.7128;1.0890;5.6683;
1191417825035631;-11.7452;1.6854;5.4168;
1191417835140162;-12.0948;1.2039;2.8609;
1191417845244693;-11.9560;1.0077;-0.5408;
1191417855368704;-10.6935;1.4506;-2.9841;
1191417865473235;-9.7232;1.3717;-4.9842;
1191417875577766;-7.1722;0.5859;-5.9498;
1191417885660631;-8.2765;0.7561;-6.7714;
1191417895765162;-10.1785;0.0398;-4.7856;
1191417905869693;-9.2178;-1.3567;-2.8980;
1191417915971829;-9.2130;-0.7388;-2.3710;
1191417926076360;-9.4932;-0.0897;-1.5446;
1191417936180891;-9.7256;-0.2644;-1.9421;
1191417946289693;-10.0732;0.4564;-2.2463;
1191417956394224;-8.9973;-0.0754;-2.3303;
1191417966498756;-8.4802;-0.2357;-4.1961;
1191417976615214;-9.1843;0.5740;-5.0468;
1191417986719745;-8.8107;0.7056;-5.0468;
1191417996824276;-7.8356;0.7537;-5.4179;
1191418006911151;-7.8595;1.4315;-5.9067;
1191418017015683;-9.0024;0.5548;-4.7785;
1191418027120214;-9.6491;0.9595;-3.7436;
1191418037230318;-9.1268;1.3908;-3.7747;
1191418047334849;-9.8934;0.6840;-3.3960;
1191418057439381;-8.4778;1.3717;-2.8884;
1191418067563651;-8.5280;0.5835;-4.1459;
1191418077668183;-9.5004;0.7104;-3.9975;
1191418087772714;-8.1302;2.0399;-4.1841;
1191418097864172;-8.7147;1.5467;-5.7843;
1191418107968756;-9.0766;1.7309;-4.6992;
1191418118073235;-8.1135;1.3908;-4.9364;
1191418128184797;-9.1364;0.1499;-5.6958;
1191418138289329;-8.7939;0.8877;-3.5949;
1191418148393860;-7.2894;-0.0296;-4.1028;
1191418158476047;-9.2369;0.4783;-4.9795;
1191418168580579;-8.7820;0.8136;-3.7340;
1191418178685110;-7.9265;0.0637;-5.3390;
1191418188802089;-9.2393;0.5501;-5.6001;
1191418198906620;-8.8394;-0.1519;-4.1124;
1191418209011151;-9.2874;0.5237;-5.1497;
1191418219124276;-8.9183;-0.2166;-4.9723;
1191418229228808;-9.3377;0.4373;-5.0970;
1191418239333339;-8.5352;0.8231;-4.6681;
1191418249428756;-7.8356;0.5596;-5.8253;
1191418259533287;-8.5543;1.5153;-5.8035;
1191418269637818;-8.1589;1.1847;-5.7293;
1191418279740839;-9.2584;1.5395;-5.8971;
1191418289845370;-7.4644;0.8399;-6.3305;
1191418299949901;-9.4358;0.6266;-6.4026;
1191418310083964;-8.4224;-0.0464;-3.8895;
1191418320188495;-7.7638;-0.3891;-3.7029;
1191418330293026;-7.9002;-0.5614;-4.7183;
1191418340371151;-8.9207;-0.8321;-3.7364;
1191418350475683;-8.1422;-1.1677;-3.9544;
1191418360580214;-9.7208;-2.1688;-4.1889;
1191418370679485;-10.2957;-1.9415;-4.5365;
1191418380784016;-10.1521;-1.6657;-2.4021;
1191418390888547;-8.6836;-2.0731;-3.4083;
1191418400997610;-9.9796;-1.6490;-3.5686;
1191418411102141;-9.3664;-0.3628;-3.2333;
1191418421206672;-10.2574;-0.2572;-3.7579;
1191418431314381;-7.8906;0.8255;-3.3769;
1191418441418912;-8.4320;-0.5542;-4.0789;
1191418451523443;-8.5759;-0.0802;-4.2969;
1191418461627818;-9.6610;-0.2500;-4.0549;
1191418471732349;-8.4081;-0.4872;-5.0515;
1191418481836881;-9.7424;-0.3915;-4.8885;
1191418491948912;-10.4731;-0.3099;-4.6753;
1191418502053443;-10.5162;-0.6694;-3.0799;
1191418512157974;-8.6668;-1.2395;-1.4940;
1191418522257506;-8.4730;-0.5327;-2.5457;
1191418532362037;-8.8609;-1.0813;-1.9684;
1191418542466568;-9.1699;-0.3413;-3.7771;
1191418552570110;-9.4071;-0.4202;-2.1434;
1191418562674641;-9.0455;-0.0296;-4.6920;
1191418572779172;-10.6552;-0.0488;-3.1998;
1191418582889329;-9.6323;0.0948;-3.0344;
1191418592993860;-9.4573;0.3105;-1.7384;
1191418603098391;-7.4883;-0.1831;-2.2032;
1191418613194485;-9.5533;1.4841;-3.4059;
1191418623299068;-8.9973;0.5189;-2.2893;
1191418633403651;-9.1005;1.4171;-4.1602;
1191418643514120;-8.8657;0.1307;-3.4107;
1191418653618704;-9.7280;1.1847;-5.0444;
1191418663723339;-9.4286;0.3272;-4.0262;
1191418673832610;-7.7112;0.5596;-4.0334;
1191418683937193;-9.3257;0.5070;-5.5881;
1191418694041776;-8.7891;-0.2333;-3.9640;
1191418704142818;-9.4334;-0.2405;-3.7125;
1191418714247401;-8.1757;-1.0023;-3.0129;
1191418724351985;-8.7604;0.4711;-3.1496;
1191418734458339;-9.5195;-0.0344;-3.2429;
1191418744562922;-10.3893;0.2889;-3.7316;
1191418754667558;-10.4037;0.4181;-3.2668;
1191418764770526;-9.3951;0.2746;-1.9373;
1191418774875110;-9.4573;-0.2524;-2.4404;
1191418784979693;-9.0598;-0.9138;-3.4442;
1191418795084693;-9.1292;-0.4705;-3.7507;
1191418805189276;-10.4133;-0.7340;-4.1650;
1191418815293912;-10.3965;-0.6622;-3.9449;
1191418825397401;-8.4272;-0.2548;-3.3745;
1191418835501985;-7.5003;-0.7149;-3.9855;
1191418845606620;-7.9747;-0.7914;-4.9866;
1191418855740787;-6.3673;-0.9951;-5.4682;
1191418865845370;-7.1674;-0.1472;-6.6159;
1191418875949954;-9.5267;0.0422;-6.8623;
1191418886020943;-10.4468;-0.6790;-4.4357;
1191418896125579;-9.6586;-0.6455;-2.5385;
1191418906230162;-9.0431;-1.1219;-2.4811;
1191418916336256;-10.1067;-1.6923;-2.0043;
1191418926440839;-10.6983;-1.0310;-1.7360;
1191418936545474;-9.4071;-1.2945;-1.9756;
1191418946650943;-8.8131;-1.1940;-2.2128;
1191418956755526;-8.9088;-0.7771;-3.2668;
1191418966860110;-8.1829;-0.5782;-4.8885;
1191418976998651;-9.7424;-0.2189;-4.9675;
1191418987103235;-8.8633;0.2602;-5.3629;
1191418997207818;-8.6979;0.2243;-5.3701;
1191419007271360;-9.6826;0.3320;-3.9254;
1191419017375943;-7.8978;0.2841;-3.6861;
1191419027480526;-9.5004;0.4421;-4.2849;
1191419037652662;-10.6911;0.9045;-3.5303;
1191419047757245;-9.8121;1.4818;-1.9062;
1191419057861829;-9.7448;0.8183;-1.2739;
1191419067905214;-8.3507;0.6051;-3.3314;
1191419078009797;-9.5243;1.5419;-2.6082;
1191419088114433;-8.6381;1.7309;-2.9315;
1191419098263860;-9.1508;1.1249;-3.9087;
1191419108368443;-8.8633;1.2951;-2.8092;
1191419118473026;-8.1470;0.9882;-2.5744;
1191419128521047;-7.1216;0.9906;-4.0980;
1191419138625631;-7.8595;1.1273;-6.7762;
1191419148730266;-11.0073;1.4889;-6.3595;
1191419158853756;-10.0537;1.7692;-5.2621;
1191419168958339;-10.0131;1.6137;-2.9865;
1191419179062922;-8.7652;0.2363;-3.0511;
1191419189169485;-8.4754;0.2435;-3.3601;
1191419199274068;-10.4850;1.0436;-1.1420;
1191419209378704;-9.7807;0.5237;-1.9445;
1191419219491672;-8.0321;0.0589;-2.7374;
1191419229596256;-7.1145;-0.0033;-4.8550;
1191419239700839;-8.8059;0.4469;-5.9354;
1191419249820422;-9.6299;0.8949;-7.9813;
1191419259925006;-11.0264;0.6936;-4.7641;
1191419270029589;-7.9627;-0.3365;-2.8618;
1191419280111360;-7.3158;-1.1171;-2.5074;
1191419290215943;-8.7820;-2.0515;-3.5399;
1191419300320526;-9.8575;-1.8837;-2.9483;
1191419310425526;-9.2874;-2.0779;-3.5231;
1191419320530110;-9.4214;-2.8469;-2.3710;
1191419330634745;-10.2622;-2.5499;-3.7053;
1191419340738235;-9.8121;-1.8120;-2.7661;
1191419350842818;-8.2478;-1.2179;-3.4394;
1191419360947454;-10.7438;-0.7172;-2.3877;
1191419371050943;-10.1426;-1.2682;-2.8789;
1191419381155526;-8.8011;-0.1831;-3.2883;
1191419391260110;-8.1999;0.0709;-4.2179;
1191419401367193;-9.2560;0.5429;-4.7952;
1191419411471776;-10.2981;1.0938;-3.4992;
1191419421576360;-7.8021;1.5682;-3.8465;
1191419431686672;-9.3975;1.1465;-3.4274;
1191419441791308;-10.0083;1.1489;-3.8249;
1191419451895891;-10.1402;1.5129;-1.6834;
1191419462014381;-9.1508;1.1776;-0.3610;
1191419472118964;-8.0154;1.1919;-2.2271;
1191419482223547;-9.1388;1.2446;-4.0980;
1191419492312818;-8.3148;1.7979;-3.9111;
1191419502417401;-7.7327;1.4841;-3.2189;
1191419512521985;-8.7676;1.7548;-5.7580;
1191419522628339;-9.6897;2.3130;-6.2635;
1191419532732922;-10.6863;2.1646;-4.9053;
1191419542837506;-8.9231;1.1871;-3.4035;
1191419552931256;-7.8069;1.0077;-2.3542;
1191419563035839;-9.3616;0.8016;-3.3410;
1191419573140422;-10.5664;0.3320;-2.7972;
1191419583256360;-9.7113;0.2554;-2.8813;
1191419593360943;-10.1115;0.4636;-3.6523;
1191419603465579;-11.0408;0.1283;-1.4509;
1191419613566464;-9.5797;-0.2118;-1.4151;
1191419623671204;-7.5386;-0.7555;-3.4178;
1191419633775943;-8.7796;-0.2429;-5.3007;
1191419643880214;-10.4061;0.2001;-5.0372;
1191419653984954;-9.9221;-0.1328;-3.5590;
1191419664089693;-8.3267;-0.4753;-3.2907;
1191419674198443;-7.8404;-0.9520;-5.0994;
1191419684303183;-7.4333;-0.4896;-4.1746;
1191419694407922;-9.6873;-0.5734;-2.6465;
1191419704505735;-12.4086;-0.8874;-3.4370;
1191419714610474;-8.6836;-0.3987;-3.1014;
1191419724715214;-7.1507;-0.2692;-2.6919;
1191419734889693;-8.5328;-0.1663;-4.4285;
1191419744994433;-10.7175;-0.0655;-3.5734;
1191419755099172;-10.6792;-0.5758;-3.3864;
1191419765137401;-7.5099;-0.6407;-3.9401;
1191419775242089;-7.1746;-0.1328;-3.8201;
1191419785346881;-10.4922;-1.0167;-4.7231;
1191419795451151;-11.1341;-0.2548;-1.6642;
1191419805555891;-9.2106;-0.2381;-3.7962;
1191419815660631;-8.9231;-0.2381;-5.2525;
1191419825761881;-9.0933;0.2124;-1.6977;
1191419835866620;-10.2455;-0.0320;-2.1027;
1191419845971360;-10.8108;0.1283;-1.2090;
1191419856065839;-8.7389;0.1594;-3.5471;
1191419866170631;-8.2286;0.6290;-2.2152;
1191419876275370;-7.7614;-0.3003;-2.8068;
1191419886391829;-9.0431;-0.2907;-3.1902;
1191419896496568;-9.5219;-0.0754;-5.2406;
1191419906601308;-11.4482;0.4831;-5.2238;
1191419916708547;-9.6443;0.3176;-2.1960;
1191419926813287;-7.0570;-0.0153;-1.9421;
1191419936918026;-7.7542;-0.4178;-3.0727;
1191419947017610;-9.5366;-0.3987;-5.1544;
1191419957122349;-11.3043;0.2363;-2.8092;
1191419967227089;-9.5172;-0.2620;-1.3935;
1191419977327089;-8.0871;-0.2955;-2.6584;
1191419987431829;-9.6778;-0.4466;-5.3988;
1191419997536568;-9.1914;-0.0897;-3.8847;
1191420007683495;-9.1843;0.5740;-3.4609;
1191420017788235;-9.6802;0.0063;-3.8441;
1191420027892974;-9.4454;-0.2477;-2.9961;
1191420037974589;-8.6572;-0.5518;-4.0119;
1191420048079329;-8.5639;-0.1759;-4.2562;
1191420058184120;-10.1139;-0.4705;-3.4537;
1191420068309954;-10.3220;-0.1878;-3.2620;
1191420078414693;-8.7147;-0.1256;-3.0033;
1191420088519433;-7.6176;-0.3485;-2.2558;
1191420098595006;-8.9614;-0.1065;-3.5327;
1191420108699745;-10.6720;-0.4968;-5.0276;
1191420118804485;-10.9810;0.1834;-2.6776;
1191420128934589;-8.3889;-0.0392;-1.1635;
1191420139039329;-8.9064;-0.3314;-2.5002;
1191420149144068;-10.1426;0.6601;-3.7890;
1191420159238547;-10.5449;0.3631;-3.7220;
1191420169343287;-8.5184;0.4086;-3.1735;
1191420179448026;-7.8452;0.7370;-2.2869;
1191420189536985;-9.0574;0.5333;-3.8536;
1191420199641724;-9.4286;0.5764;-4.0884;
1191420209746464;-8.0584;0.0446;-3.0129;
1191420219861412;-7.5147;0.1834;-4.9579;
1191420229966151;-9.5267;0.1187;-4.7112;
1191420240070891;-10.3292;0.5166;-3.5901;
1191420250166672;-9.6969;0.4181;-3.9473;
1191420260271412;-8.9160;0.2291;-2.4571;
1191420270376151;-8.3148;0.0182;-1.4916;
1191420280481985;-9.3975;-0.4322;-2.5863;
1191420290586724;-9.7352;0.0254;-3.1663;
1191420300691412;-8.4464;-0.0081;-2.6058;
1191420310794068;-8.5663;0.3057;-4.2730;
1191420320898808;-10.5233;0.1068;-5.5522;
1191420331003547;-11.0695;0.8853;-3.8608;
1191420341112922;-8.4849;1.5200;-2.4523;
1191420351217662;-9.7496;1.3478;-2.5839;
1191420361322401;-10.4372;1.1130;-2.6967;
1191420371420839;-9.3855;1.1058;-2.2152;
1191420381525579;-7.8906;0.8255;-2.0426;
1191420391630318;-7.9795;0.3392;-3.5471;
1191420401736464;-10.2287;0.2243;-5.0492;
1191420411841204;-8.7341;0.6577;-3.0320;
1191420421945943;-6.6835;0.0206;-3.5399;
1191420432048235;-10.4037;-0.3242;-5.6025;
1191420442152974;-13.4004;0.1092;-3.3410;
1191420452257714;-9.4478;0.2506;-0.5025;
1191420462382714;-6.7528;-0.1663;-2.0354;
1191420472487454;-8.8729;0.0350;-3.9855;
1191420482592193;-10.5879;0.8853;-4.4477;
1191420492691151;-9.5988;1.0555;-2.2822;
1191420502795891;-6.5037;0.4086;-2.7063;
1191420512900631;-9.1508;0.1642;-5.1616;
1191420523005735;-10.9546;0.5429;-3.9377;
1191420533110474;-8.5807;0.7247;-2.7087;
1191420543215214;-8.5519;-0.2764;-4.3663;
1191420553310422;-9.9437;0.1451;-4.7761;
1191420563415162;-9.8288;0.4062;-2.8594;
1191420573519901;-9.6443;0.1331;-2.0836;
1191420583628131;-8.7628;-0.4178;-2.5696;
1191420593732870;-9.0909;-0.7531;-2.7829;
1191420603837610;-9.0359;-0.9903;-1.1635;
1191420613935526;-8.6094;-1.2849;-3.0105;
1191420624040266;-9.5964;-1.6804;-5.8277;
1191420634144954;-10.5855;-0.9999;-5.0874;
1191420644252089;-10.8733;0.1068;-2.5672;
1191420654356829;-10.1904;0.8399;-1.7623;
1191420664461568;-10.0418;0.4349;-1.4557;
1191420674569485;-10.0442;0.6075;-1.3768;
1191420684674224;-9.0168;0.5764;-1.2233;
1191420694778964;-8.7915;0.0182;-3.0727;
1191420704878651;-8.1015;0.2001;-4.1961;
1191420714983339;-8.5807;0.8112;-5.4036;
1191420725088131;-8.7461;1.0077;-5.0755;
1191420735194068;-8.4105;0.9212;-4.1363;
1191420745298808;-9.5414;0.7777;-4.0502;
1191420755403547;-11.5415;0.9811;-3.4537;
1191420765508443;-11.1365;1.4435;-0.7612;
1191420775613183;-8.3554;1.1656;0.1301;
1191420785717922;-9.3664;-0.7412;-2.7398;
1191420795817089;-11.5582;-1.2323;-4.2036;
1191420805921829;-9.4095;0.5237;-2.4284;
1191420816026516;-6.9278;0.5309;-2.0617;
1191420826143339;-9.6993;-0.0706;-4.8024;
1191420836248079;-11.5080;0.4684;-4.8335;
1191420846352818;-9.1627;0.8471;-3.6547;
1191420856468026;-7.2894;0.2363;-4.0669;
1191420866572766;-9.2345;0.1905;-4.6178;
1191420876677506;-9.7783;0.9978;-3.5662;
1191420886760006;-8.0297;0.2171;-2.1649;
1191420896864745;-8.7218;-0.0511;-3.3912;
1191420906969485;-10.8491;0.0589;-2.9913;
1191420917070995;-9.4406;0.4878;-1.7001;
1191420927175735;-7.1216;-0.1567;-3.5088;
1191420937280474;-9.6586;-0.0224;-7.1354;
1191420947383964;-10.0298;1.3310;-5.5690;
1191420957488704;-8.7218;1.7644;-3.2668;
1191420967593443;-7.3110;0.5094;-2.6656;
1191420977710526;-9.1077;0.2841;-4.4429;
1191420987815266;-10.4755;1.0866;-3.5088;
1191420997920006;-8.4153;1.5368;-2.3399;
1191421008030995;-7.9795;1.1010;-4.0238;
1191421018135787;-9.5004;0.3631;-4.6561;
1191421028240526;-9.0431;1.0002;-3.5949;
1191421038325735;-9.5653;1.1608;-3.1472;
1191421048430474;-9.6156;0.8662;-2.8499;
1191421058535214;-9.6156;0.9523;-1.5637;
1191421068680318;-9.2560;0.3368;-1.8655;
1191421078785058;-9.9174;0.1690;-3.3338;
1191421088889797;-9.6945;0.0709;-3.8345;
1191421098961776;-8.4057;0.8877;-3.3505;
1191421109066516;-8.3650;0.6553;-2.8594;
1191421119171256;-8.7242;0.1475;-3.3099;
1191421129280943;-9.4573;0.1475;-3.6766;
1191421139385683;-8.9303;0.2722;-3.6308;
1191421149490422;-7.9651;0.6386;-3.2166;
1191421159608860;-8.4009;0.3081;-4.4910;
1191421169713599;-10.8733;0.5094;-3.7244;
1191421179818339;-10.4970;1.0962;-2.9100;
1191421189901568;-8.1039;0.1379;-2.3180;
1191421200006308;-7.4548;-0.1639;-2.9865;
1191421210111047;-8.6955;-0.2142;-3.2979;
1191421220237193;-9.1316;0.4854;-3.9808;
1191421230341933;-10.2885;0.6338;-5.5451;
1191421240446672;-10.1163;1.3549;-4.6298;
1191421250550579;-9.6610;1.2613;-2.3252;
1191421260655318;-7.5266;0.6242;-1.5565;
1191421270760058;-9.3879;0.2195;-2.3303;
1191421280862506;-12.2459;0.1355;-2.5935;
1191421290967245;-11.4960;0.1044;-1.7408;
1191421301071985;-7.9146;-0.1735;-1.6259;
1191421311171568;-5.2029;-0.9185;-2.6393;
1191421321276308;-10.3511;-0.6120;-4.6513;
1191421331381047;-14.1072;-0.0392;-4.5437;
1191421341478964;-9.5004;0.0565;-3.0129;
1191421351583704;-3.7872;-0.7196;-2.3830;
1191421361688443;-7.5864;-0.3194;-3.0176;
1191421371799172;-12.4493;-0.1783;-4.9890;
1191421381903912;-12.3727;0.4636;-2.8884;
1191421392008651;-8.7652;0.2746;0.3000;
1191421402111568;-6.7816;-0.3532;-1.3169;
1191421412216308;-8.5735;-0.5279;-4.1028;
1191421422321047;-10.8562;-0.1831;-4.1818;
1191421432427193;-9.6921;0.3368;-2.9483;
1191421442531933;-7.6681;0.4588;-4.6801;
1191421452636672;-8.8107;0.5835;-6.0048;
1191421462743860;-10.6935;0.5692;-3.4298;
1191421472848547;-9.5797;-0.5399;-1.0965;
1191421482953287;-10.0875;-0.4059;-3.1400;
1191421493058026;-9.4334;-0.1424;-2.6871;
1191421503166776;-8.3195;0.0709;-0.8163;
1191421513271516;-8.8896;0.0709;-2.5768;
1191421523376256;-9.9245;0.0685;-3.4418;
1191421533472922;-11.3115;0.0805;-2.8475;
1191421543577662;-10.6385;-0.4944;-2.1553;
1191421553682401;-10.0202;-1.0597;-1.9804;
1191421563784329;-7.8404;-0.4418;-1.9086;
1191421573889068;-6.9254;-0.4370;-5.0659;
1191421583993808;-8.9351;0.3057;-5.8083;
1191421594106151;-10.0828;0.0206;-3.3194;
1191421604210891;-9.1101;-1.3232;-4.3304;
1191421614315631;-8.4826;-0.9473;-3.1759;
1191421624415266;-8.1805;-1.1462;-2.3782;
1191421634520058;-10.2670;-1.0119;-4.3591;
1191421644624901;-10.8371;-0.1591;-2.7709;
1191421654740943;-10.4611;-0.1208;-2.3686;
1191421664845735;-9.5916;-0.4753;-1.1515;
1191421674950474;-8.5065;-0.3724;-0.6221;
1191421685039641;-7.1985;-0.9664;-4.4261;
1191421695144485;-9.4645;-0.2237;-6.2683;
1191421705249224;-11.3354;0.2961;-4.8359;
1191421715342558;-10.4492;0.0948;-4.1650;
1191421725447401;-7.5697;0.1020;-0.1597;
1191421735552193;-8.6166;-1.3041;-2.5241;
1191421745677818;-10.6433;-0.9520;-4.5843;
1191421755782610;-9.6275;0.1881;0.2139;
1191421765887349;-7.8093;-0.2668;-1.6331;
1191421776005318;-8.3961;0.4807;-4.1507;
1191421786110110;-9.6347;0.8973;-4.3831;
1191421796214901;-9.2584;0.7609;-3.7244;
1191421806307401;-9.9413;1.4554;-1.6857;
1191421816412141;-9.9317;0.7008;-3.6236;
1191421826516985;-8.6477;1.1704;-2.2630;
1191421836635839;-8.6333;1.6472;-1.8368;
1191421846740683;-8.6644;1.2111;-3.8967;
1191421856845422;-8.2813;1.6280;-2.1362;
1191421866937297;-9.2560;0.9021;-4.1602;
1191421877042089;-10.2048;1.1177;-4.6777;
1191421887146829;-10.4348;1.0364;-2.0955;
1191421897239901;-7.7782;0.5237;-2.4763;
1191421907344693;-8.0034;0.7561;-2.4284;
1191421917449485;-9.3401;0.5716;-4.6059;
1191421927583443;-10.1450;0.8064;-1.9732;
1191421937688235;-10.8132;-0.1448;-0.7540;
1191421947793026;-11.0743;-0.7101;-2.2439;
1191421957860839;-9.5004;-0.7603;-1.2185;
1191421967965579;-9.8839;-0.5040;-4.1483;
1191421978070422;-9.6897;0.3392;-2.5887;
1191421988213599;-7.4596;-0.3652;-3.4059;
1191421998318391;-7.9699;-0.1591;-4.3424;
1191422008423183;-10.9331;-0.6311;-5.0515;
1191422018517506;-11.2253;-0.5040;-3.6861;
1191422028622245;-8.3507;-0.5088;-2.1266;
1191422038727037;-7.5051;-0.1974;-3.7460;
1191422048815891;-8.7987;-0.2405;-4.0119;
1191422058920735;-9.1005;0.0565;-2.9578;
1191422069025474;-8.3698;-0.3437;-1.7216;
1191422079136985;-8.8179;-0.5351;-3.7699;
1191422089241724;-9.4382;-0.7914;-4.3472;
1191422099346568;-11.1150;0.2722;-5.6862;
1191422109474381;-10.0971;1.0388;-4.3807;
1191422119579120;-7.7542;1.7524;-3.2142;
1191422129683912;-6.2498;1.5778;-3.5973;
1191422139786412;-10.0155;1.3813;-4.7279;
1191422149891204;-11.7356;1.2302;-3.8106;
1191422159995995;-8.6836;0.6840;-1.1420;
1191422170072558;-7.8236;0.1475;-3.7842;
1191422180177401;-10.0828;1.0842;-3.6476;
1191422190282141;-9.6897;0.7128;-1.3337;
1191422200393235;-8.9351;0.6218;-0.1860;
1191422210497974;-10.2096;-0.0392;-3.1950;
1191422220602818;-8.9973;0.3703;-1.7432;
1191422230712610;-9.2441;0.2794;-3.6236;
1191422240817401;-9.5462;0.8806;-4.0980;
1191422250922193;-8.5304;0.8901;-4.2778;
1191422261025214;-7.2416;0.5644;-4.4524;
1191422271130006;-8.8466;0.8351;-4.6155;
1191422281234797;-8.6979;0.6936;-4.0047;
1191422291344381;-9.8647;0.8925;-2.8331;
1191422301449172;-10.1617;0.5237;-3.6356;
1191422311553964;-9.1675;0.6553;-2.8403;
1191422321656672;-8.2932;0.8877;-0.6197;
1191422331761464;-9.8815;0.6362;-2.3518;
1191422341866256;-11.4123;0.1546;-2.5026;
1191422351964016;-9.6682;0.7104;-2.7613;
1191422362068860;-8.5232;0.5333;-3.5710;
1191422372173651;-8.7772;1.2760;-3.2166;
1191422382292297;-7.9675;0.3990;-3.9230;
1191422392397089;-8.8035;0.1857;-4.8120;
1191422402501881;-10.8924;0.3631;-3.7627;
1191422412592610;-11.0240;0.1570;-2.0569;
1191422422697401;-8.5567;-0.1543;-1.5132;
1191422432802193;-8.7075;-0.0511;-2.6536;
1191422442908651;-9.3568;0.2674;-3.2572;
1191422453013391;-8.8968;0.3057;-1.3265;
1191422463118183;-10.2550;0.0565;-2.9028;
1191422473230526;-10.5999;-0.0320;-4.1578;
1191422483335318;-9.7543;0.5835;-3.1229;
1191422493440110;-10.2383;0.8686;-3.4609;
1191422503534693;-8.4344;0.1786;-2.3109;
1191422513639485;-7.4118;0.3870;-3.1205;
1191422523744276;-10.6289;-0.0033;-3.8321;
1191422533854901;-10.5640;-0.1113;-2.4236;
1191422543959641;-8.6692;-0.3266;-2.9818;
1191422554064485;-9.4478;0.2722;-3.9544;
1191422564163860;-9.7615;0.0613;-3.6045;
1191422574248547;-9.3927;-0.0153;-1.7456;
1191422584353339;-9.3449;-0.0129;-2.2391;
1191422594458131;-8.7218;0.2937;-3.1519;
1191422604589329;-6.7696;-0.0583;-4.6466;
1191422614694120;-10.0633;0.6386;-5.0731;
1191422624798912;-11.2062;0.5237;-3.7244;
1191422634899797;-8.9614;0.0278;-2.9841;
1191422645004537;-8.3315;0.4253;-3.0846;
1191422655109381;-9.0718;0.4493;-2.4380;
1191422665214485;-10.3774;0.5142;-3.0631;
1191422675319276;-11.4506;0.7657;-2.9028;
1191422685424016;-9.2082;0.7681;-1.4270;
1191422695524849;-8.2358;1.0579;-1.7767;
1191422705629641;-9.5797;0.4516;-1.8081;
1191422715734485;-10.1210;0.8160;-3.7172;
1191422725843964;-9.1699;0.6410;-3.1567;
1191422735948756;-9.4167;1.0962;-2.6441;
1191422746053547;-8.5807;0.3392;-1.8033;
1191422756154641;-6.7337;-0.2500;-3.5207;
1191422766259485;-8.5113;0.0254;-4.7593;
1191422776364224;-9.1579;-0.1567;-4.3926;
1191422786481256;-9.7615;0.1164;-3.5016;
1191422796585995;-9.4932;-0.0730;-3.4513;
1191422806690787;-9.5315;0.0039;-2.9770;
1191422816801516;-9.3281;0.2770;-2.0282;
1191422826906360;-10.4850;-0.0969;-0.6437;
1191422837011151;-10.0083;-0.5997;-1.4031;
1191422847092454;-8.8753;-0.1496;-3.0392;
1191422857197245;-9.6203;0.1857;-3.0392;
1191422867302089;-9.7974;0.2459;-2.7876;
1191422877410162;-8.0106;-0.5590;-4.0813;
1191422887514954;-7.0666;0.0422;-4.1387;
1191422897619745;-11.4529;-0.4896;-3.9592;
1191422907720631;-11.8146;-0.7914;-2.7350;
1191422917825422;-7.6872;-0.5710;-2.9722;
1191422927930162;-7.0810;0.1451;-2.2104;
1191422938094901;-9.8145;-0.5016;-3.1253;
1191422948199745;-10.7294;-0.5279;-2.0498;
1191422958304485;-9.7759;-0.5638;-3.1110;
1191422968366933;-8.9662;0.2171;-4.0406;
1191422978471724;-8.6429;0.3081;-3.3171;
1191422988576516;-9.1460;-0.0583;-2.0859;
1191422998712401;-9.6706;-0.4274;-3.5853;
1191423008817141;-8.8992;-0.0631;-3.6619;
1191423018921933;-9.1173;-0.4418;-1.5132;
1191423028978912;-9.6132;-0.3748;-2.8020;
1191423039083704;-10.7725;-0.1089;-5.3342;
1191423049188495;-9.4334;0.2219;-2.7996;
1191423059321672;-8.0943;0.3942;-0.1860;
1191423069426464;-7.6944;-0.8707;-2.5887;
1191423079531256;-9.6706;-0.0873;-4.2395;
1191423089642870;-11.3976;0.3272;-4.5508;
1191423099747714;-9.0503;0.2674;-2.4428;
1191423109852506;-9.6443;0.2171;-2.0019;
1191423119955891;-9.8647;-0.2548;-2.8932;
1191423130060683;-8.1039;-0.0631;-2.4595;
1191423140165526;-9.1699;-0.1902;-2.9794;
1191423150243808;-11.8528;0.1977;-3.7747;
1191423160348599;-10.5855;0.6458;-3.4107;
1191423170453443;-9.3257;0.6649;-1.9684;
1191423180572714;-7.8835;0.9236;-1.8176;
1191423190677506;-7.2248;-0.3413;-2.3638;
1191423200782297;-9.6849;0.5405;-4.7641;
1191423210883964;-10.6983;0.2411;-3.6260;
1191423220988756;-7.9508;0.6386;-2.0545;
1191423231093547;-7.2344;-0.2500;-3.8010;
1191423241193339;-7.9603;0.1092;-5.4371;
1191423251298131;-7.3851;0.1594;-5.2430;
1191423261402922;-9.8767;-0.0153;-4.1339;
1191423271510526;-11.7715;0.2339;-3.7053;
1191423281615318;-11.1751;0.7199;-3.0583;
1191423291720110;-9.8480;0.8877;-0.3156;
1191423301824276;-8.0728;0.7944;-0.2151;
1191423311929068;-8.8322;0.8183;-2.4404;
1191423322033860;-9.6921;1.0555;-2.8331;
1191423332136412;-10.5951;0.8399;-2.6991;
1191423342241204;-10.0202;0.5979;-1.4462;
1191423352345995;-9.6706;-0.0368;-2.4691;
1191423362451776;-10.4539;0.0517;-3.2931;
1191423372556568;-7.9074;-0.0344;-1.4821;
1191423382661360;-7.0977;-0.3461;-2.1817;
1191423392766776;-9.1986;-0.0105;-5.5522;
1191423402871568;-10.1809;0.3272;-4.9771;
1191423412976360;-9.1029;-0.1376;-3.0535;
1191423423084068;-8.6836;-0.1567;-3.0057;
1191423433188860;-9.4238;-0.4896;-3.1253;
1191423443293651;-11.1655;0.6458;-2.4332;
1191423453410422;-9.7543;0.1810;-1.4605;
1191423463515214;-7.3950;0.2794;-1.0008;
1191423473620006;-9.3353;-0.0921;-3.9903;
1191423483705839;-10.4252;-0.3075;-4.3831;
1191423493810631;-8.7290;0.1953;-3.0559;
1191423503915422;-9.6275;0.2315;-4.8550;
1191423514021672;-10.2000;0.3894;-4.1339;
1191423524126464;-9.2417;-0.0081;-1.2329;
1191423534231256;-9.3425;-0.4633;-1.6283;
1191423544333860;-9.6515;-0.5279;-2.0186;
1191423554438651;-9.8791;-0.3891;-2.1793;
1191423564543443;-10.6983;-0.1663;-3.2836;
1191423574650058;-8.8083;-0.2859;-2.5696;
1191423584755110;-7.7040;-0.4298;-2.9722;
1191423594860110;-10.2598;-0.5997;-3.4561;
1191423604967558;-9.3999;-0.4729;-2.9578;
1191423615072558;-7.8739;-0.2261;-3.9736;
1191423625177610;-9.7424;0.1690;-4.8838;
1191423635274745;-10.2503;-0.0057;-2.2104;
1191423645379745;-9.9580;-0.1208;-1.0439;
1191423655484745;-8.1975;-0.3437;-1.1755;
1191423665588651;-8.2430;0.2363;-3.8297;
1191423675693651;-11.6420;0.6529;-4.6585;
1191423685798651;-11.2134;0.2841;-1.6499;
1191423695919329;-7.9627;0.1546;-1.6522;
1191423706024329;-8.9136;0.0876;-4.4309;
1191423716129329;-9.1077;0.2315;-2.6177;
1191423726219433;-7.6104;-0.0081;-2.8475;
1191423736324485;-11.0288;-0.1089;-5.9665;
1191423746429485;-10.7031;0.2818;-3.0440;
1191423756529589;-8.8226;0.1857;-0.4762;
1191423766634589;-8.0584;-0.6144;-2.2128;
1191423776739589;-8.1637;-0.0153;-3.1831;
1191423786870474;-9.7854;-0.3987;-4.0837;
1191423796975526;-10.6193;0.5620;-3.3817;
1191423807080526;-9.7639;-0.6742;-1.8559;
1191423817155579;-9.8647;0.3775;-3.8680;
1191423827260579;-8.8394;-0.0849;-2.5911;
1191423837365579;-6.6667;0.0661;-2.0812;
1191423847485943;-9.0790;0.1475;-4.8622;
1191423857590943;-11.0336;0.5548;-4.5891;
1191423867695943;-10.3005;0.6625;-2.1482;
1191423877778651;-8.5974;0.4660;-1.5156;
1191423887883651;-7.5841;0.1522;-2.7206;
1191423897988651;-8.1975;0.1522;-4.0693;
1191423908125058;-12.2339;0.7968;-3.2309;
1191423918230058;-10.7031;0.5070;-0.7684;
1191423928335110;-8.3674;-0.1807;-1.9708;
1191423938414329;-8.4559;-0.2883;-4.8646;
1191423948519329;-7.0953;0.4540;-2.7900;
1191423958624381;-7.9531;0.1522;-4.6896;
1191423968766620;-12.2889;0.3033;-5.0204;
1191423978871672;-11.1512;0.8279;-1.1061;
1191423988976672;-6.8366;0.6314;-0.8593;
1191423999049849;-7.9484;-0.2572;-3.2764;
1191424009154901;-10.1330;-0.2118;-3.2309;
1191424019259901;-11.2158;0.9117;-2.2295;
1191424029365474;-9.6586;0.7199;-1.7384;
1191424039470526;-6.9374;-0.2572;-3.1783;
1191424049575526;-8.7652;-0.1783;-5.9641;
1191424059700266;-10.9929;0.3990;-3.1854;
1191424069805266;-8.3578;1.3334;-2.6201;
1191424079910318;-8.3818;0.9045;-4.3735;
1191424090009329;-8.9734;0.6577;-3.0727;
1191424100114329;-9.1986;1.1417;-2.5026;
1191424110219381;-9.9891;0.5429;-3.1735;
1191424120297610;-8.8513;0.6194;-2.4835;
1191424130402610;-9.7663;0.7128;-3.0559;
1191424140507610;-10.7390;0.8112;-3.0966;
1191424150618756;-7.7853;0.4902;-1.9373;
1191424160723756;-9.7807;0.2171;-3.9664;
1191424170828756;-9.8671;0.5453;-2.0955;
1191424180942870;-6.7744;0.8758;-3.1205;
1191424191047922;-9.7735;1.2661;-5.9593;
1191424201152922;-12.6721;1.4985;-2.9028;
1191424211257766;-8.6692;1.0866;-0.0305;
1191424221362766;-5.9073;0.4014;-1.8990;
1191424231467818;-9.0981;0.0159;-5.0396;
1191424241579849;-13.3095;0.7681;-3.3051;
1191424251684901;-10.4300;0.9165;-0.6341;
1191424261789901;-7.4979;-0.0873;-2.6058;
1191424271890370;-9.8791;-0.0057;-3.6284;
1191424281995422;-9.0359;0.6338;-2.3542;
1191424292100422;-8.3985;0.9930;-4.2610;
1191424302183235;-10.0011;0.8806;-4.7545;
1191424312288235;-10.1498;0.6099;-1.9325;
1191424322393235;-8.8131;0.4469;-1.3528;
1191424332510526;-10.0490;0.0446;-3.4801;
1191424342615579;-9.5940;0.2171;-2.4643;
1191424352720579;-8.8705;0.1092;-1.3552;
1191424362828391;-7.6872;-0.0993;-3.7196;
1191424372933443;-8.6955;-0.0778;-5.9115;
1191424383038443;-10.7294;0.1786;-3.3194;
1191424393153026;-9.1962;-0.9999;-2.0545;
1191424403258079;-9.2417;-0.2835;-4.1267;
1191424413363079;-9.9891;-0.0416;-3.4633;
1191424423473391;-10.3173;-0.7149;-0.4977;
1191424433578443;-8.8872;-0.9832;-0.9646;
1191424443683443;-7.6008;-0.9353;-2.5241;
1191424453781099;-6.9757;-0.7220;-5.0611;
1191424463886151;-11.7811;-0.0993;-4.7112;
1191424473991151;-13.2879;-0.5806;-1.6068;
1191424484088808;-9.9604;-1.1486;-0.2222;
1191424494193860;-8.8896;-0.9712;-0.4881;
1191424504298860;-7.2129;-1.0382;-1.7934;
1191424514397974;-6.8728;0.2124;-6.7642;
1191424524503026;-9.5219;0.8447;-6.5677;
1191424534608026;-10.6505;-0.2812;-3.0009;
1191424544714433;-9.2417;-1.0765;-1.5685;
1191424554819485;-9.8527;-0.6694;-3.0392;
1191424564924485;-9.6802;-0.7842;-2.5217;
1191424575028131;-8.9351;0.2076;-0.3347;
1191424585133026;-7.2344;-0.7866;-1.5996;
1191424595237870;-9.8886;-0.1161;-6.1965;
1191424605336308;-13.1943;0.1546;-3.9855;
1191424615441204;-8.7939;0.2530;-1.5156;
1191424625546099;-7.5721;0.7442;-4.2395;
1191424635652558;-9.5581;-0.0488;-2.2175;
1191424645757506;-8.8442;0.1451;0.2474;
1191424655862349;-9.1484;-0.3700;-2.7589;
1191424665964849;-10.0609;-0.3604;-3.4801;
1191424676069745;-11.6997;0.2219;-2.2702;
1191424686174589;-9.9341;0.0805;-1.5637;
1191424696274016;-7.4261;-0.1376;-2.4667;
1191424706378912;-9.1436;0.0852;-2.7230;
1191424716483808;-9.0646;-0.1759;-2.6991;
1191424726610318;-8.1015;0.3344;-6.1798;
1191424736715162;-9.9030;0.6649;-5.8158;
1191424746820058;-10.9331;0.1187;-0.7107;
1191424756914068;-8.7724;-0.4968;-0.0377;
1191424767018912;-8.4802;0.1618;-2.4858;
1191424777123756;-8.8896;0.3320;-2.6967;
1191424787232401;-9.5629;0.0781;-2.3614;
1191424797337297;-9.5677;0.1546;-3.9520;
1191424807442141;-10.5688;0.3583;-4.1841;
1191424817558339;-9.7041;0.1810;-1.0415;
1191424827663235;-7.3974;0.5046;-2.7230;
1191424837768079;-7.4836;0.6888;-5.7317;
1191424847874589;-8.6955;0.1810;-3.7268;
1191424857979433;-10.9546;0.2435;-1.3887;
1191424868084276;-11.5463;0.0206;-2.1434;
1191424878164224;-10.7031;-0.1831;-2.1529;
1191424888269120;-10.0899;0.7343;-0.4208;
1191424898373964;-9.1938;0.4253;-0.8474;
1191424908472037;-7.9579;0.0541;-3.6547;
1191424918576933;-8.6357;0.0398;-3.9159;
1191424928681776;-9.0718;0.5453;-3.2213;
1191424938803131;-10.4109;0.0470;-4.8670;
1191424948907974;-10.2981;0.6817;-4.0980;
1191424959012818;-8.3435;0.1666;-0.1741;
1191424969121360;-9.1340;-0.2237;-1.5012;
1191424979226204;-9.3042;0.0805;-3.2261;
1191424989331099;-7.2057;0.2794;-4.3878;
1191424999430006;-8.4177;0.3344;-5.1568;
1191425009534849;-10.5257;0.4636;-4.6274;
1191425019639745;-11.8050;0.8255;-4.1004;
1191425029738183;-10.0633;0.2650;-0.5599;
1191425039843131;-8.2334;0.5692;-0.6915;
1191425049947974;-8.5807;0.9141;-3.3434;
1191425060051308;-9.0311;0.8327;-3.0392;
1191425070156256;-9.8886;0.6745;-1.8703;
1191425080261099;-9.2034;0.1810;-2.7757;
1191425090375318;-8.5400;0.1211;-4.2371;
1191425100480214;-11.6611;0.6314;-3.4825;
1191425110585006;-10.7581;0.2076;-0.3993;
1191425120705943;-8.7461;0.8638;-1.0295;
1191425130810787;-7.7303;0.0733;-3.1181;
1191425140915683;-7.5482;0.4349;-3.6452;
1191425151006776;-9.7496;0.8806;-5.2238;
1191425161111620;-10.1139;0.9930;-3.7627;
1191425171216516;-9.3329;0.4636;-1.9732;
1191425181333756;-9.8192;0.6218;-2.6847;
1191425191438599;-8.3100;0.5046;-2.5624;
1191425201543495;-9.1819;0.4807;-2.9148;
1191425211658599;-10.0899;0.8040;-1.9636;
1191425221763495;-9.7783;0.6817;-2.2893;
1191425231868391;-10.7701;0.4325;-3.8943;
1191425241958964;-9.7376;0.6601;-1.4031;
1191425252063860;-8.8394;0.6625;-2.4763;
1191425262168704;-8.8561;0.5022;-3.7890;
1191425272275735;-8.9207;0.9045;-2.0644;
1191425282380631;-9.1627;0.0733;-2.4835;
1191425292485474;-10.0226;0.2195;-4.0645;
1191425302588860;-10.1210;0.1475;-3.6718;
1191425312693756;-8.8944;0.4660;-1.8392;
1191425322798599;-8.0345;-0.1639;-1.9373;
1191425332889276;-10.1450;-0.5064;-4.8455;
1191425342994172;-11.7021;0.0589;-1.9373;
1191425353099016;-9.6682;0.2602;-1.8631;
1191425363204797;-8.6429;0.6482;-4.1507;
1191425373309693;-7.2846;0.1427;-2.6584;
1191425383414537;-8.7580;0.3823;-2.2965;
1191425393521776;-10.1928;-0.1424;-3.3434;
1191425403626672;-11.6444;0.4783;-3.5734;
1191425413731516;-10.0708;0.8255;-2.0067;
1191425423851829;-7.7279;0.3392;-2.0186;
1191425433956672;-9.3736;-0.1328;-2.9267;
1191425444061568;-10.1713;-0.1950;-2.7182;
1191425454169120;-9.3736;0.3009;-2.3252;
1191425464274016;-10.3292;0.3416;-4.8550;
1191425474378912;-10.5592;0.7370;-3.4250;
1191425484460474;-7.5601;0.6793;-0.5312;
1191425494565422;-8.5591;-0.0921;-1.7961;
1191425504670266;-9.1699;-0.1543;-4.2060;
1191425514784693;-10.3630;0.3846;-2.7757;
1191425524889589;-8.0393;0.3009;-2.4236;
1191425534994433;-9.5725;-0.1424;-4.6513;
1191425545086776;-11.3928;0.4253;-2.5648;
1191425555191672;-9.0144;0.4612;-2.0354;
1191425565296568;-8.7194;0.5046;-3.1926;
1191425575420162;-9.0885;0.5501;-3.2596;
1191425585525162;-7.2153;1.0172;-2.3276;
1191425595630058;-11.0719;-0.0945;-3.0368;
1191425605715266;-12.0398;0.6817;-2.5193;
1191425615820266;-10.4755;0.3655;-2.1410;
1191425625925214;-9.4621;0.5859;-0.2725;
1191425636030162;-7.6681;0.0326;-1.0726;
1191425646135162;-10.0418;0.5788;-3.4155;
1191425656240110;-10.2957;0.3703;-2.5385;
1191425666347297;-9.4023;0.7801;-3.9808;
1191425676452245;-9.5749;0.4349;-4.5508;
1191425686557193;-6.6428;0.8375;-2.3758;
1191425696674797;-10.2215;0.1044;-2.0282;
1191425706779745;-11.4434;0.1355;-3.5662;
1191425716884693;-9.1460;0.8088;-2.5576;
1191425726970058;-8.9590;0.1307;-3.2405;
1191425737075058;-7.8906;0.0948;-2.6560;
1191425747180006;-10.3893;0.3870;-3.4178;
1191425757285058;-12.5596;0.3464;-2.7972;
1191425767390006;-9.8527;0.8136;-1.7121;
1191425777495006;-8.3219;0.1881;-2.9387;
1191425787641360;-6.4008;0.6099;-2.4021;
1191425797746308;-7.5051;-0.1208;-2.2750;
1191425807851256;-11.8289;-0.4490;-4.1195;
1191425817903391;-12.2001;0.2052;-5.5977;
1191425828008391;-9.8719;-0.1735;-2.1721;
1191425838113287;-6.1588;-0.7603;-0.6413;
1191425848270735;-9.5076;-0.6383;-4.3926;
1191425858375683;-11.9536;0.1594;-1.3169;
1191425868480631;-8.0584;-0.2070;-2.0955;
1191425878544745;-9.2058;0.0852;-5.6001;
1191425888649693;-9.4717;0.0829;-2.9004;
1191425898754641;-7.5817;-0.1735;-0.6628;
1191425908867349;-10.4587;-0.9808;-2.2199;
1191425918972297;-11.5056;-0.1711;-2.7206;
1191425929077245;-9.5342;-0.1256;-3.5949;
1191425939178287;-7.5936;-0.2979;-1.5829;
1191425949283235;-7.4524;-0.4848;-3.1759;
1191425959388183;-12.5453;0.0230;-4.1961;
1191425969489849;-11.7643;0.3918;-1.6427;
1191425979594849;-9.3425;0.5859;-2.9028;
1191425989699745;-8.6142;0.2794;-2.2941;
1191425999815058;-5.9216;0.5572;-0.1047;
1191426009920058;-7.8667;-0.1496;-4.1698;
1191426020024954;-12.0494;0.2506;-5.4778;
1191426030133287;-10.3750;0.6601;-2.9889;
1191426040238235;-8.8944;-0.5279;-2.7733;
1191426050343235;-9.2632;-0.0730;-2.6321;
1191426060456933;-10.1833;0.5644;-1.0080;
1191426070561881;-6.9182;0.0470;-1.7240;
1191426080666829;-8.1589;1.0412;-5.9952;
1191426090759641;-13.0292;0.5740;-4.0980;
1191426100864589;-12.4493;0.9763;0.9015;
1191426110969589;-9.1938;0.7968;0.2402;
1191426121092922;-4.9633;-0.1065;-2.6704;
1191426131197870;-5.9192;0.2387;-4.3448;
1191426141302818;-8.8992;-0.3147;-4.1148;
1191426151380058;-9.1101;-0.6024;-4.0095;
1191426161485006;-12.0015;-0.0778;-4.3496;
1191426171589954;-11.2062;-0.8731;-1.5494;
1191426181721099;-7.5793;-0.3820;-1.6211;
1191426191826047;-9.0239;0.2435;-2.5768;
1191426201930995;-6.8776;-0.5064;0.8895;
1191426212027454;-8.7604;-0.5471;-4.6561;
1191426222132454;-13.3813;0.4181;-8.0674;
1191426232237349;-12.5429;0.4134;-1.5084;
1191426242345943;-7.7471;0.3511;4.4037;
1191426252450891;-6.3960;-0.6766;0.0580;
1191426262555839;-10.0346;-1.3974;-4.6155;
1191426272643599;-10.2742;-0.9664;-2.1553;
1191426282748547;-9.0239;0.0159;-3.9712;
1191426292853495;-10.4181;0.7729;-5.0324;
1191426302956724;-8.8585;0.1068;-1.2209;
1191426313061672;-7.4357;-0.3939;-1.1013;
1191426323166672;-8.8418;-0.4585;-5.6886;
1191426333281204;-11.9055;0.3870;-5.5546;
1191426343386151;-11.0456;0.9811;-0.8115;
1191426353491151;-8.0513;0.4397;-1.8224;
1191426363586724;-9.4597;0.4735;-3.3051;
1191426373691672;-9.0718;0.3751;-1.4198;
1191426383796620;-8.3770;0.8016;-3.0105;
1191426393904693;-11.2158;1.0507;-4.7160;
1191426404009641;-8.1039;0.9811;-0.8617;
1191426414114589;-5.0689;0.6410;-2.4069;
1191426424233860;-9.3879;0.2195;-6.0936;
1191426434338860;-13.8556;0.8351;-4.8742;
1191426444443756;-9.6012;1.0795;-0.2103;
1191426454544954;-6.5587;0.3416;-2.1386;
1191426464649954;-10.1067;0.0900;-3.9039;
1191426474754849;-11.1341;1.6352;-1.4892;
1191426484848079;-8.7724;0.8662;-1.9349;
1191426494953079;-11.0049;1.3238;-2.9124;
1191426505058026;-8.5974;0.7920;-0.6963;
1191426515161933;-7.2177;0.8782;-1.6690;
1191426525266881;-9.4095;0.2435;-3.8991;
1191426535371881;-11.1727;0.8782;-3.0775;
1191426545473287;-9.3592;0.8303;-2.0186;
1191426555578287;-7.1602;-0.2596;-3.9425;
1191426565683235;-9.2656;0.3009;-4.3759;
1191426575770110;-7.7183;0.9308;-2.9722;
1191426585874745;-8.0178;0.4636;-4.4381;
1191426595979381;-13.2541;1.2999;-4.1626;
1191426606102714;-10.0780;1.1010;-0.0138;
1191426616207349;-5.9623;0.8638;-0.8426;
1191426626311985;-8.5831;0.1068;-3.8369;
1191426636413026;-13.1441;1.2855;-3.2644;
1191426646517662;-11.7308;1.2398;-0.1238;
1191426656622297;-6.7720;0.3655;-1.7910;
1191426666726881;-7.6223;0.0254;-4.1530;
1191426676831516;-10.1163;1.0053;-2.8068;
1191426686936151;-11.9752;0.7175;-3.1086;
1191426697061724;-10.9283;0.9882;-1.2329;
1191426707166360;-6.0126;0.3631;-0.7445;
1191426717270995;-5.3611;-0.2668;-4.8072;
1191426727352089;-9.6778;0.4086;-6.1128;
1191426737456724;-14.4473;0.7490;-3.1663;
1191426747561360;-10.2718;0.3368;-0.4762;
1191426757676568;-5.9886;-0.2835;-3.3027;
1191426767781204;-10.5688;-0.1113;-3.6933;
1191426777885839;-9.7735;0.8183;0.2043;
1191426787985735;-9.1268;0.1953;-2.5098;
1191426798090318;-10.8948;0.5692;-4.4237;
1191426808195006;-9.5557;0.8303;-1.4892;
1191426818297922;-6.9302;0.2339;-2.1147;
1191426828402558;-9.1053;-0.1017;-3.1615;
1191426838507193;-9.8456;0.5070;-3.3362;
1191426848607349;-6.4917;-0.0440;-3.8441;
1191426858712037;-9.7663;-0.3676;-5.6504;
1191426868816620;-11.3067;-0.2716;-3.3147;
1191426878932818;-10.3774;0.3440;-0.3443;
1191426889037454;-9.9245;0.3224;-2.2032;
1191426899142089;-10.0514;0.4807;-1.8368;
1191426909242610;-6.6308;0.6577;-0.1621;
1191426919347245;-7.3110;0.0230;-3.1687;
1191426929451881;-10.3220;0.0661;-5.3151;
1191426939557922;-9.0981;0.7271;-3.0823;
1191426949662558;-9.8360;-0.3365;-2.0859;
1191426959767193;-11.3880;-0.4226;-1.3074;
1191426969879172;-9.0838;-0.3099;-0.2605;
1191426979983808;-8.1350;-0.1663;-2.8499;
1191426990088443;-8.4177;0.2889;-4.8359;
1191427000203235;-9.1292;0.5429;-4.0621;
1191427010307870;-12.7199;0.7944;-0.8976;
1191427020412506;-10.2239;0.0063;0.1660;
1191427030504693;-7.8021;0.1283;-2.2391;
1191427040609329;-9.4956;-0.0655;-3.3362;
1191427050713964;-9.2489;-0.0320;-1.1659;
1191427060814797;-8.9040;0.0278;-1.9756;
1191427070919433;-10.5951;-0.6622;-3.7388;
1191427081024068;-11.5247;0.6529;-3.2931;
1191427091134068;-9.6802;0.2483;-3.2333;
1191427101238704;-8.5567;0.9428;-0.9502;
1191427111343339;-7.5242;0.2602;-0.2103;
1191427121452506;-7.0164;-0.2859;-4.4070;
1191427131557141;-11.5176;0.3535;-6.7499;
1191427141661776;-11.4048;0.6194;-3.3505;
1191427151770839;-8.3339;0.0087;-0.7421;
1191427161875474;-7.7758;-0.2142;-2.5792;
1191427171980110;-8.3698;-0.7268;-2.3758;
1191427182086360;-10.6217;0.4421;-4.3878;
1191427192190995;-11.5415;0.1427;-2.9339;
1191427202295631;-10.8371;0.7944;-0.7107;
1191427212410839;-8.3076;0.0805;-0.7301;
1191427222515474;-6.0078;-0.0945;-1.8033;
1191427232620110;-8.6501;-0.0320;-4.6705;
1191427242721672;-12.6027;0.0374;-4.9795;
1191427252826308;-10.5712;0.1451;-0.7226;
1191427262930943;-7.9217;-0.5471;-1.5757;
1191427273041047;-8.2478;-0.7196;-2.8741;
1191427283145683;-9.7017;-0.0706;-2.9483;
1191427293250318;-11.7835;-0.0583;-2.6919;
1191427303346776;-10.0995;0.7008;-0.9048;
1191427313451412;-6.3458;0.1164;-1.7480;
1191427323556047;-7.0259;-0.3003;-4.7641;
1191427333657193;-11.3258;-0.5279;-4.4381;
1191427343761829;-11.5511;1.1632;-1.2209;
1191427353866464;-8.3722;0.7175;-1.9636;
1191427363963756;-8.4416;-0.6861;-3.4178;
1191427374068391;-9.3903;-0.1089;-2.4141;
1191427384173026;-10.9020;0.8160;-2.6704;
1191427394285735;-10.3869;1.0101;-2.2367;
1191427404390370;-8.4248;0.6721;-1.4533;
1191427414495006;-7.9866;0.7175;-2.3877;
1191427424617818;-7.7423;0.1881;-3.3386;
1191427434722454;-11.1990;0.7705;-3.8273;
1191427444827089;-13.2757;1.7764;-1.6355;
1191427454984901;-8.4559;1.0388;-1.5781;
1191427465089537;-5.3013;0.1690;-2.9148;
1191427475194120;-8.9351;0.0565;-2.2582;
1191427485226151;-14.3874;1.5443;-4.5293;
1191427495330735;-11.6731;2.1072;-1.4438;
1191427505435422;-6.9159;2.0710;0.0556;
1191427515541256;-5.8546;0.6482;-2.4332;
1191427525645891;-7.6343;0.4711;-3.8512;
1191427535750526;-13.1848;0.8782;-4.2802;
1191427545851985;-10.6648;1.8987;-2.2774;
1191427555956620;-7.1315;1.2784;-3.6595;
1191427566061256;-10.0804;-0.2644;-4.2371;
1191427576173495;-9.6634;0.8423;-0.5312;
1191427586278495;-9.4238;1.7333;-1.8440;
1191427596383495;-11.2684;0.6817;-3.1134;
1191427606476724;-9.7184;1.3406;-2.3518;
1191427616581724;-6.9230;1.0795;-0.1717;
1191427626686724;-7.3229;0.7271;-3.4681;
1191427636790787;-11.2445;0.4783;-4.1578;
1191427646895787;-10.1186;0.6338;-2.6225;
1191427657000787;-7.7112;0.0876;-3.0655;
1191427667106308;-9.0311;-0.2596;-3.2524;
1191427677211308;-11.5104;0.2674;-2.4069;
1191427687316360;-10.8275;0.5740;-2.8116;
1191427697417610;-6.3215;0.6745;-0.2151;
1191427707522610;-8.9638;0.4469;-3.4681;
1191427717627610;-9.1962;-0.2740;-2.4547;
1191427727740214;-8.2334;0.3129;-2.8594;
1191427737845214;-10.5736;-0.1926;-3.8824;
1191427747950214;-9.3855;-0.5255;-1.8057;
1191427758098599;-9.1173;-0.9497;-2.2271;
1191427768203599;-9.4645;-0.9855;-1.8966;
1191427778308599;-8.1999;-0.6814;-1.9995;
1191427788360422;-11.4338;-0.2835;-5.1449;
1191427798465422;-11.7547;-0.2907;-1.3433;
1191427808570422;-7.9508;-1.0095;2.3722;
1191427818673391;-6.3338;-0.5830;-2.7039;
1191427828778391;-10.8491;-1.1004;-5.7485;
1191427838883391;-13.6567;-0.7914;-0.7756;
1191427848990474;-10.5353;-1.5915;0.2761;
1191427859095474;-7.8093;-1.6466;-2.1266;
1191427869200474;-6.3984;-1.3687;-2.2152;
1191427879313912;-10.5688;-2.0515;-5.0133;
1191427889418912;-11.9390;-1.7426;-3.5327;
1191427899523912;-8.1709;-1.9510;-1.3074;
1191427909641256;-8.5232;-1.9869;-3.2405;
1191427919746256;-9.5414;-1.7569;-3.9616;
1191427929851256;-8.7963;-1.7378;-2.8283;
1191427939942349;-9.7687;-1.7234;-2.8427;
1191427950047349;-9.8360;-1.8072;-4.2849;
1191427960152349;-11.8026;-1.7474;-3.7555;
1191427970255370;-10.4157;-1.2610;-0.6939;
1191427980360422;-9.5557;-0.3628;-1.4509;
1191427990465370;-9.3616;-0.7268;-1.2042;
1191428000571099;-10.5257;-0.1854;-0.7397;
1191428010676099;-8.4730;-0.7555;-0.7899;
1191428020781099;-6.5683;-0.8536;-4.2323;
1191428030889849;-10.9427;-1.4838;-4.8479;
1191428040994849;-11.1269;-1.3376;-2.6321;
1191428051099849;-7.0427;-1.4934;-2.8044;
1191428061198808;-8.8370;-1.8526;-4.0190;
1191428071303808;-8.9949;-0.7268;-3.7316;
1191428081408808;-10.2526;-0.3915;-4.1028;
1191428091525474;-9.9891;0.3153;-2.2391;
1191428101630474;-8.3363;0.6601;-0.4543;
1191428111735474;-8.4921;-0.0583;-3.3314;
1191428121828443;-8.7341;0.6147;-3.0344;
1191428131933443;-9.2755;0.4062;-2.2606;
1191428142038443;-10.1282;0.8423;-3.0679;
1191428152139433;-11.4769;0.3535;-2.9626;
1191428162244433;-9.0431;0.6386;-1.1468;
1191428172349433;-7.4309;0.7585;-1.6786;
1191428182481933;-10.7892;1.0388;-3.5423;
1191428192586933;-9.9293;1.3262;-1.8416;
1191428202691933;-7.9170;2.1287;-1.1444;
1191428212795631;-7.9292;1.2111;-2.8044;
1191428222900631;-10.0756;1.0555;-4.7303;
1191428233005579;-11.4099;2.0207;-2.6489;
1191428243089329;-6.7241;1.2039;-1.8440;
1191428253194329;-7.7136;1.0412;-3.2094;
1191428263299329;-11.1990;0.3966;-3.7986;
1191428273422193;-11.5319;1.8269;-3.2955;
1191428283527193;-9.1292;2.5980;-1.3385;
1191428293632193;-7.8045;1.6041;-0.9670;
1191428303721516;-9.9437;1.0819;-1.2425;
1191428313826516;-8.8346;1.4483;-2.5433;
1191428323931516;-8.9351;2.2579;-2.7900;
1191428334040526;-10.4683;1.3813;-3.5830;
1191428344145526;-11.5750;1.9083;-3.7172;
1191428354250526;-10.4611;1.1776;-0.0808;
1191428364346933;-6.4343;0.7848;-0.3514;
1191428374451933;-9.1890;1.1345;-4.7136;
1191428384556933;-10.0971;1.1082;-4.4333;
1191428394667245;-8.4272;1.4028;-0.7660;
1191428404772245;-7.7782;0.9045;-2.0764;
1191428414877297;-7.7351;0.5524;-5.5499;
1191428424978183;-9.2898;0.5788;-4.7136;
1191428435083183;-9.9461;0.1307;-2.2199;
1191428445188183;-8.8298;0.2148;-2.4978;
1191428455296151;-11.5654;-0.2812;-3.0846;
1191428465401151;-10.2766;0.7418;-1.5422;
1191428475506151;-10.7510;0.8040;-1.5948;
1191428485621516;-10.3196;0.2530;0.0676;
1191428495726516;-9.5773;0.7896;1.3804;
1191428505831516;-7.5314;-0.4011;0.0197;
1191428515919641;-7.9122;-0.2620;-4.2132;
1191428526024641;-11.8361;-0.6550;-3.3434;
1191428536129641;-10.0298;-0.4346;-1.4797;
1191428546232558;-8.2119;-1.5030;-3.0942;
1191428556337558;-7.5290;-1.8431;-3.1325;
1191428566442610;-8.3411;-1.2921;-5.0372;
1191428576562662;-13.7046;-0.2237;-5.2190;
1191428586667662;-11.1559;-1.5556;0.4032;
1191428596772610;-8.1087;-1.3902;0.4463;
1191428606857558;-6.2067;-0.6742;-3.9520;
1191428616962558;-7.9771;-0.5136;-5.0779;
1191428627067506;-13.0771;-0.5375;-1.9301;
1191428637176516;-9.6849;-0.8632;-2.0812;
1191428647281516;-9.1699;-0.9784;-2.3109;
1191428657386464;-9.0814;-1.4264;-1.4916;
1191428667510110;-8.3435;-0.7842;-1.7815;
1191428677615058;-11.5032;-0.1998;-2.6919;
1191428687720006;-10.9379;-0.4561;-0.8976;
1191428697789745;-9.4334;-0.1639;-1.8153;
1191428707894693;-7.9771;0.7080;-3.2716;
1191428717999641;-5.5648;0.1522;-2.8068;
1191428728138079;-6.9876;-0.9903;-3.9616;
1191428738243026;-12.8160;-0.3099;-5.0683;
1191428748347974;-12.9906;-0.5183;-2.1793;
1191428758419954;-7.9866;0.0589;0.5109;
1191428768524901;-9.1220;0.2124;-2.6082;
1191428778629901;-10.2694;0.9021;-2.9578;
1191428788738495;-9.0144;0.8160;0.5707;
1191428798843495;-10.0609;0.9021;-3.5949;
1191428808948443;-7.4644;0.9595;-3.9760;
1191428819062141;-7.2081;0.7896;-3.6742;
1191428829167089;-10.3173;0.2411;-1.8248;
1191428839272089;-11.1488;0.5166;-2.0859;
1191428849377037;-11.4817;0.6386;-1.7336;
1191428859482037;-7.6343;0.8638;-2.0668;
1191428869586985;-9.0742;0.8758;-4.9292;
1191428879710474;-11.0432;1.4698;-2.2750;
1191428889815422;-9.0550;1.8027;-0.5097;
1191428899920422;-8.7171;1.7094;-3.0033;
1191428909993183;-7.0618;0.5022;-4.8766;
1191428920098131;-10.2574;1.2422;-2.1577;
1191428930203131;-10.9427;1.1345;-1.4940;
1191428940324849;-10.1426;1.3645;-1.5661;
1191428950429849;-6.5707;0.4445;-3.0966;
1191428960534797;-9.9437;0.5572;-4.4692;
1191428970661099;-12.1355;1.1704;-4.0717;
1191428980766099;-7.8404;1.7812;-0.6413;
1191428990871047;-7.2153;1.6496;-1.9325;
1191429000944693;-9.6634;0.1738;-5.0850;
1191429011049641;-11.6782;1.1584;-2.9626;
1191429021154641;-10.3196;2.0255;-0.9431;
1191429031263391;-7.7064;1.1201;-1.7025;
1191429041368339;-10.0322;0.2626;-3.7340;
1191429051473339;-10.0899;0.1068;-3.1591;
1191429061597454;-9.1244;1.5419;-2.1434;
1191429071702401;-9.9652;1.5849;-3.3362;
1191429081807401;-12.1355;1.1106;-1.1468;
1191429091896776;-7.8141;1.1369;-0.4857;
1191429102001724;-6.3506;0.7705;-2.4739;
1191429112106724;-7.6872;0.1451;-4.4886;
1191429122210474;-10.6983;0.3966;-4.1435;
1191429132315422;-12.1140;1.8437;-4.8263;
1191429142420422;-10.9810;1.1249;-1.8200;
1191429152522193;-5.7849;1.8173;-2.0258;
1191429162627193;-8.4535;1.3669;-5.0300;
1191429172732141;-12.8184;1.2182;-1.6499;
1191429182843651;-10.5664;1.8820;1.2105;
1191429192948599;-8.3746;1.7429;-2.5313;
1191429203053547;-9.2656;-0.3508;-3.2931;
1191429213138495;-9.1795;0.4110;-0.7971;
1191429223243391;-8.4200;0.5237;-1.3528;
1191429233348339;-11.6109;0.3559;-3.7819;
1191429243453235;-9.0048;0.2937;-2.2271;
1191429253583808;-6.0509;0.5261;-4.9436;
1191429263688756;-12.2602;0.9069;-3.5518;
1191429273793756;-10.9283;0.3368;0.8462;
1191429283903964;-7.7016;0.7247;-0.6891;
1191429294008912;-7.9843;0.3296;-4.7498;
1191429304113860;-7.2224;0.1929;-4.3591;
1191429314213808;-9.9820;0.1235;-2.2606;
1191429324318756;-12.1953;-0.0200;-2.4954;
1191429334423756;-9.5148;-0.5279;-1.8511;
1191429344523287;-8.1015;-0.2070;-1.3672;
1191429354628235;-11.1464;0.2674;-2.9506;
1191429364733235;-12.4950;0.0015;-0.1214;
1191429374853339;-7.5793;-0.0033;1.6199;
1191429384958287;-8.2956;0.3488;-2.9315;
1191429395063235;-8.9088;-0.3290;-5.1018;
1191429405151933;-8.2789;-0.5566;-2.2917;
1191429415256933;-10.0923;-0.8707;-1.5661;
1191429425361881;-11.2469;-1.3854;-3.3529;
1191429435445370;-9.2393;-1.7569;-3.8489;
1191429445550318;-6.6715;-0.8560;-2.1577;
1191429455655318;-11.3856;-1.5437;-2.0569;
1191429465785474;-15.0700;-0.4537;-2.7350;
1191429475890422;-9.3353;-1.0669;1.5003;
1191429485995422;-5.6581;-0.1854;-1.4557;
1191429496087558;-8.1517;-0.0488;-5.8158;
1191429506192506;-10.5616;-0.5542;-2.4930;
1191429516297454;-10.7797;-2.0372;-1.3241;
1191429526402974;-8.9590;-1.9388;-2.6106;
1191429536507974;-8.0608;-1.7450;-4.6633;
1191429546612922;-11.4625;-0.9592;-3.6404;
1191429556722870;-10.4874;-1.9172;-0.0066;
1191429566827870;-6.6212;-1.1315;-1.3026;
1191429576932818;-8.3028;-0.0129;-6.5916;
1191429587035631;-13.4028;-0.3099;-4.1411;
1191429597140422;-11.6758;-0.9377;0.9398;
1191429607245214;-7.4644;-0.6407;-0.3562;
1191429617340214;-6.0631;-0.3700;-4.0549;
1191429627445006;-11.2804;-1.0071;-3.8225;
1191429637549745;-14.0327;-1.4408;-0.9048;
1191429647676256;-8.9877;-0.6335;-0.9168;
1191429657781047;-6.2258;-0.1400;-2.8717;
1191429667885839;-8.1278;-0.4346;-2.3614;
1191429677989120;-10.2096;-0.8970;-2.5265;
1191429688093912;-10.6457;-0.4705;-2.3133;
1191429698198704;-7.1842;-0.0583;-4.2538;
1191429708283495;-9.9150;-0.0344;-5.5570;
1191429718388339;-12.2698;-0.2548;-3.0583;
1191429728493079;-9.2827;0.4301;0.7696;
1191429738597245;-4.8652;0.5524;-2.0067;
1191429748702037;-11.4314;0.4998;-6.9799;
1191429758806829;-14.1144;1.1465;-1.2954;
1191429768918339;-7.3974;0.9500;3.2800;
1191429779023131;-9.1484;1.2808;-1.5326;
1191429789127922;-9.5845;0.1044;-3.5112;
1191429799235162;-8.1999;1.1608;-2.6130;
1191429809339954;-9.2201;0.3918;-2.5911;
1191429819444745;-12.2889;0.2076;-3.6476;
1191429829552089;-8.5759;0.6745;-3.4035;
1191429839656829;-8.9949;0.5764;-3.4059;
1191429849761620;-10.9977;0.8758;-1.4797;
1191429859869068;-8.5831;1.0101;-1.5852;
1191429869973808;-9.4310;1.0388;-2.0186;
1191429880078651;-8.1948;1.0149;-1.8464;
1191429890179172;-6.2234;0.8423;-4.2323;
1191429900283964;-11.1293;0.5429;-4.9412;
1191429910388704;-12.3703;0.1451;-1.5278;
1191429920486933;-10.2335;0.6817;-2.0692;
1191429930591724;-7.4859;0.4301;-3.4585;
1191429940696568;-8.7628;1.2999;-4.2179;
1191429950805006;-10.3029;0.0015;-1.6690;
1191429960909745;-8.6237;1.3358;-1.1085;
1191429971014589;-8.8825;-0.1759;-3.2142;
1191429981142245;-12.4158;1.1393;-3.7340;
1191429991247037;-9.4597;0.2171;0.3407;
1191430001351829;-5.3372;0.1618;-0.6772;
1191430011443651;-9.9556;-0.3266;-4.8311;
1191430021548443;-11.8792;-0.1519;-4.5317;
1191430031653235;-8.9973;-0.2285;-2.3973;
1191430041760318;-10.3149;-0.3003;-3.6909;
1191430051865110;-8.5232;0.3129;-0.7445;
1191430061969901;-7.1794;-0.4035;-1.0271;
1191430072074276;-11.9824;-0.2118;-3.2572;
1191430082179068;-10.1091;0.2363;-0.9885;
1191430092283860;-7.1698;-0.0511;-2.2104;
1191430102392610;-5.6581;-0.9090;-5.0635;
1191430112497349;-10.0995;-1.4022;-4.0908;
1191430122602193;-14.0279;-0.9042;-2.1769;
1191430132692662;-12.9212;-0.5160;-2.0593;
1191430142797454;-9.8671;-0.0224;-0.2246;
1191430152902245;-7.4285;-0.2022;0.4917;
1191430163003808;-11.3809;-0.3891;-1.4366;
1191430173108651;-9.6562;-0.6335;-0.8067;
1191430183213443;-8.4416;0.0087;-3.0440;
1191430193341933;-8.1398;-0.9377;-3.9182;
1191430203446724;-8.1541;-0.9233;-3.9664;
1191430213551516;-12.0015;-0.2046;-3.1376;
1191430223661776;-8.2382;-0.5638;-0.1238;
1191430233766516;-6.6284;0.2674;-6.4935;
1191430243871360;-11.6013;-0.2309;-6.5868;
1191430253952922;-9.7926;1.2494;-0.2438;
1191430264057714;-7.6968;1.4483;-1.2090;
1191430274162506;-11.6587;1.3549;-4.5030;
1191430284272506;-11.3067;1.6376;-2.1218;
1191430294377297;-6.4487;1.9490;0.3577;
1191430304482089;-7.0977;1.1345;-2.1266;
1191430314585839;-11.1416;0.4759;-2.9554;
1191430324690631;-10.1426;0.9165;-2.6154;
1191430334795370;-10.8924;2.0136;-3.3984;
1191430344893599;-8.4607;1.2494;-1.2835;
1191430354998391;-8.2525;1.5153;-1.6570;
1191430365103235;-9.7687;1.1536;-2.5528;
1191430375196099;-10.7964;1.5873;-3.8847;
1191430385300943;-8.4129;1.6280;-2.9267;
1191430395405735;-6.0006;0.8064;-3.8058;
1191430405524589;-8.5184;0.2195;-3.9760;
1191430415629381;-11.2851;1.1776;-3.1663;
1191430425734172;-10.2263;0.5261;-1.9253;
1191430435835474;-9.2898;0.9093;-3.0535;
1191430445940266;-11.6563;0.4783;-0.9502;
1191430456045058;-10.4683;1.2350;1.5840;
1191430466165006;-4.9202;0.4253;-1.3935;
1191430476269797;-8.4778;-0.0921;-5.4203;
1191430486374589;-9.6538;-0.4274;-4.2610;
1191430496491256;-11.0192;0.4612;-2.8211;
1191430506596099;-11.3282;0.8136;-1.8488;
1191430516700839;-7.6487;-0.3772;-1.1300;
1191430526780943;-6.3864;-0.3389;-3.6476;
1191430536885735;-9.1268;-0.5447;-4.7279;
1191430546990579;-11.3067;-0.1352;-1.3313;
1191430557087193;-11.3641;0.0135;-1.6164;
1191430567191985;-12.6362;0.5453;-3.4992;
1191430577296829;-9.3425;-0.1184;-0.0066;
1191430587413339;-3.0087;-0.3987;1.7590;
1191430597518183;-7.7901;-1.2682;-4.0310;
1191430607622974;-13.0364;-1.3687;-5.9043;
1191430617722610;-10.5090;-0.6598;-2.6847;
1191430627827454;-9.5749;-0.2500;-1.8631;
1191430637932245;-8.7290;-0.3413;-1.3863;
1191430648037766;-9.0191;-1.3567;-0.0592;
1191430658142610;-9.6036;-0.8512;-1.5565;
1191430668247401;-9.1029;-0.3508;-4.3783;
1191430678345162;-9.2058;-0.3413;-5.4873;
1191430688450058;-7.6944;-0.3987;-2.9267;
1191430698554797;-8.4488;-1.0214;-1.7384;
1191430708695995;-10.4516;-1.1171;-2.1601;
1191430718800891;-12.0805;-1.0119;-2.3806;
1191430728905631;-10.0298;-0.2644;-1.9684;
1191430738981360;-7.1291;-0.0511;-0.2677;
1191430749086151;-8.7317;-0.3748;-2.4715;
1191430759190943;-8.9016;-0.8393;-2.9794;
1191430769313756;-9.1962;-0.1759;-3.6523;
1191430779418599;-9.4573;-0.2500;-4.0908;
1191430789523339;-10.2646;-0.3796;-1.4055;
1191430799609849;-9.2584;-1.0023;-2.0186;
1191430809714693;-8.9853;-0.3485;-1.6762;
1191430819819537;-10.0394;-0.3843;-2.5624;
1191430829941256;-9.9221;-0.1065;-3.3697;
1191430840046099;-11.1317;0.3679;-1.4318;
1191430850150891;-9.0550;0.2387;0.4152;
1191430860265995;-8.1087;0.2483;-2.0186;
1191430870370891;-10.6361;0.4086;-3.7005;
1191430880475683;-9.1005;0.1786;-0.3538;
1191430890556933;-7.7638;0.3488;-2.6130;
1191430900661776;-10.3798;-0.6120;-4.5197;
1191430910766568;-10.9618;0.7104;-3.5901;
1191430920880735;-8.6501;-0.1017;-2.7613;
1191430930985579;-7.5147;0.0230;-2.1123;
1191430941090370;-8.5543;0.5094;-3.7484;
1191430951194172;-11.1197;0.3368;-3.1615;
1191430961298964;-11.2540;1.0460;-2.5074;
1191430971403808;-9.3257;0.5548;-1.5565;
1191430981504954;-6.0293;0.7418;-1.9493;
1191430991609797;-7.3899;-0.0392;-3.4513;
1191431001714589;-10.5114;-0.3796;-3.3888;
1191431011821829;-11.7643;0.4878;-4.4189;
1191431021926672;-11.7021;1.0484;-2.3133;
1191431032031464;-8.7123;0.8375;0.0990;
1191431042142818;-9.8312;0.6123;-0.1358;
1191431052247662;-8.9901;0.3727;-1.2811;
1191431062352454;-8.9782;0.7056;-2.8451;
1191431072455995;-9.2273;0.5501;-3.2285;
1191431082560839;-8.1709;0.3631;-3.6981;
1191431092665631;-10.0466;0.3631;-3.5973;
1191431102783339;-8.7027;0.2985;-1.8655;
1191431112888183;-8.3315;-0.0009;-2.7039;
1191431122992974;-8.1805;-0.1376;-5.1951;
1191431133080110;-10.6265;0.2435;-2.7422;
1191431143184954;-11.0575;0.9452;-1.2954;
1191431153289745;-9.9102;0.9787;-2.4236;
1191431163384849;-12.4902;0.6721;-1.7671;
1191431173489745;-9.0718;0.3535;0.0365;
1191431183594537;-5.2702;0.5094;-0.6891;
1191431193691360;-9.4597;-0.5901;-4.6729;
1191431203796151;-14.3393;0.7394;-2.6895;
1191431213900995;-11.1488;0.3942;-1.2473;
1191431224008599;-7.0570;0.7585;-1.4294;
1191431234113443;-6.7002;-0.1543;-1.7169;
1191431244218235;-8.5041;-0.2094;-1.9804;
1191431254334381;-10.5688;0.1164;-6.1391;
1191431264439224;-12.4564;0.4062;-4.8024;
1191431274544016;-5.5433;0.2674;-2.0330;
1191431284640891;-9.0191;-0.4298;-5.6145;
1191431294745735;-13.1417;0.2076;-1.1348;
1191431304850579;-8.8011;0.8375;-0.4905;
1191431314957454;-8.7652;0.0900;-3.8752;
1191431325062349;-9.7974;0.1403;-2.2845;
1191431335167141;-10.6505;1.0484;0.0604;
1191431345273443;-9.9700;0.3488;0.5085;
1191431355378235;-12.1068;0.5070;-1.6762;
1191431365483026;-6.3434;0.2961;-2.8140;
1191431375588964;-4.1898;-0.0849;-3.7603;
1191431385693808;-8.7027;-0.3556;-5.4156;
1191431395798599;-13.5802;0.0924;-5.8564;
1191431405900683;-16.7614;0.7825;-2.3495;
1191431416005526;-6.3410;0.6362;-0.2007;
1191431426110318;-1.0756;0.1451;-0.8210;
1191431436210370;-10.5185;-0.4968;-2.9148;
1191431446315214;-16.4019;0.7681;-3.0894;
1191431456420058;-10.7701;1.7788;-0.7612;
1191431466554276;-6.9470;0.3870;-2.3447;
1191431476659068;-6.5157;-0.5040;-2.0258;
1191431486763912;-10.3989;0.2937;-0.6724;
1191431496871099;-12.1355;0.5979;-2.2247;
1191431506975995;-7.8739;0.0254;-3.8680;
1191431517080787;-11.1559;0.7872;-6.5629;
1191431527160110;-12.8184;1.1010;-1.4414;
1191431537265006;-8.5663;2.0785;4.7773;
1191431547369797;-5.1550;1.2494;-2.6225;
1191431557485995;-11.9680;-0.8058;-7.7584;
1191431567590839;-10.9116;0.5788;-3.4585;
1191431577695631;-6.4367;1.5658;-0.2031;
1191431587805631;-8.0991;-0.1878;-3.1759;
1191431597910526;-11.3163;0.0829;-5.6743;
1191431608015318;-12.4517;1.2927;-3.2836;
1191431618118912;-5.8211;1.3262;0.7002;
1191431628223756;-6.7768;0.8160;-2.8765;
1191431638328599;-10.9140;-0.7340;-5.0850;
1191431648416412;-10.0947;1.1584;-1.9732;
1191431658521308;-8.7027;1.3813;-2.8044;
1191431668626099;-9.5052;-0.0081;-2.1817;
1191431678757349;-10.0514;0.0135;-1.9014;
1191431688862193;-10.5520;0.3176;-2.0210;
1191431698967037;-8.8657;0.3583;-2.1314;
1191431709058079;-8.9303;0.5644;-1.6140;
1191431719162922;-8.9303;0.3511;-1.0989;
1191431729267766;-11.4841;0.3894;-2.0067;
1191431739370110;-10.7821;0.1857;-1.3624;
1191431749474901;-8.9877;0.6147;-1.6881;
1191431759579797;-7.9986;-0.4490;-1.8751;
1191431769712558;-7.0570;-0.1376;-3.0272;
1191431779817454;-7.0738;-0.6120;-4.4815;
1191431789922297;-12.0733;0.3464;-7.3295;
1191431799991360;-14.1622;0.5046;-2.5002;
1191431810096151;-10.0971;1.2374;1.6223;
1191431820201047;-6.4726;0.7609;0.4510;
1191431830302037;-6.2498;-1.0669;-2.6584;
1191431840406933;-11.8385;-0.4537;-4.3496;
1191431850511776;-16.7710;1.6519;-2.5193;
1191431860632401;-10.1545;0.6529;0.6834;
1191431870737245;-6.3745;-0.1424;-0.4857;
1191431880842089;-9.4693;-0.7675;-3.1158;
1191431890935058;-9.2536;0.2937;-2.5409;
1191431901039901;-8.2813;0.7513;-3.3194;
1191431911144797;-7.8978;0.6458;-5.2358;
1191431921278756;-8.2837;0.5979;-5.0803;
1191431931383599;-8.7987;0.9523;-5.0348;
1191431941488443;-9.2225;1.0196;-2.1123;
1191431951587662;-9.0048;1.2975;-2.5887;
1191431961692506;-9.9915;0.8399;-5.1114;
1191431971797401;-12.5189;0.1451;-3.6117;
1191431981906151;-9.7591;1.3645;0.0628;
1191431992010995;-8.5065;1.0842;-1.9732;
1191432002115839;-10.1617;0.3559;0.0078;
1191432012216672;-12.1499;0.6625;0.7983;
1191432022321516;-11.1559;1.3765;0.5444;
1191432032426360;-7.1291;0.3846;-0.3371;
1191432042521360;-9.8408;1.2517;-1.7719;
1191432052626204;-8.8155;0.3248;-1.9804;
1191432062731047;-6.2306;0.0709;-5.3007;
1191432072831672;-10.2885;0.2626;-7.1883;
1191432082936516;-10.7198;0.4373;-6.7068;
1191432093041360;-8.4559;0.4062;-3.5758;
1191432103149276;-7.0307;-0.0849;-1.2520;
1191432113254120;-7.5171;0.0350;-1.7264;
1191432123358964;-9.9700;0.3846;-4.8479;
1191432133462401;-12.4588;0.7681;-2.8956;
1191432143567245;-11.7356;0.6625;1.4859;
1191432153672089;-5.9910;0.1905;0.0437;
1191432163763599;-6.9302;-0.0344;-3.6093;
1191432173868495;-11.5846;-0.7747;-2.3590;
1191432183973339;-11.1631;0.0350;-2.9865;
1191432194099641;-9.3736;-0.3604;-2.9602;
1191432204204485;-8.2813;-0.0607;-0.6221;
1191432214309329;-11.0432;-1.3376;-0.8928;
1191432224388443;-12.2770;-0.6096;-1.7575;
1191432234493287;-11.3785;0.5333;-0.6724;
1191432244598183;-7.1049;-0.9520;-0.1095;
1191432254724172;-5.5023;-0.7340;-3.2429;
1191432264829016;-11.6228;-1.2658;-5.6839;
1191432274933860;-11.8433;-1.3448;-2.2080;
1191432285043756;-9.2489;-1.4527;-2.2271;
1191432295148599;-9.5004;-0.9257;-3.3840;
1191432305253443;-6.6260;-1.1509;-0.8163;
1191432315347401;-7.9699;-1.0095;-1.9277;
1191432325452245;-10.5520;-0.9616;-6.4983;
1191432335557089;-12.0661;0.0589;-4.7833;
1191432345658443;-8.0513;-0.8321;-2.4906;
1191432355763235;-7.4836;-0.9090;-2.6082;
1191432365868131;-7.6534;-1.0143;-3.2142;
1191432375957766;-9.6706;-0.3003;-4.0837;
1191432386062662;-11.4434;-0.9999;-2.8570;
1191432396167506;-9.6084;-0.6933;-0.5551;
1191432406285943;-11.6635;-0.4322;-0.3921;
1191432416390735;-9.4597;-0.1376;-0.1959;
1191432426495631;-7.2607;-0.1280;-0.6867;
1191432436593443;-9.8336;0.0063;-3.3649;
1191432446698287;-9.1125;-0.7795;-2.4811;
1191432456803183;-8.3172;-0.6742;-3.0057;
1191432466911204;-11.0121;-1.2179;-3.8919;
1191432477016047;-10.0633;-0.6287;-2.0402;
1191432487120943;-9.6802;-0.7125;-1.2162;
1191432497230162;-8.1829;-0.2381;0.0894;
1191432507335006;-9.0909;-0.0849;-2.5720;
1191432517439849;-11.6683;0.2841;-3.9182;
1191432527561672;-11.0240;0.8782;-2.2822;
1191432537666516;-8.6381;0.1905;0.3745;
1191432547771360;-6.0221;0.0613;-3.5136;
1191432557867089;-9.4047;0.1116;-4.3854;
1191432567971933;-11.1607;-0.0559;-3.1926;
1191432578076776;-13.2350;0.6170;-4.1219;
1191432588200266;-8.6237;1.1847;-0.4137;
1191432598305162;-3.0709;0.0039;-1.1515;
1191432608410006;-9.4717;0.4564;-5.0779;
1191432618479329;-12.1379;0.1187;-4.4791;
1191432628584224;-10.5042;1.3621;-1.5781;
1191432638689120;-7.4572;-0.0778;-2.5959;
1191432648787662;-8.1326;0.2315;-3.4202;
1191432658892610;-10.7438;-0.1998;-2.3542;
1191432668997454;-10.9522;0.7466;-2.0067;
1191432679115526;-8.7194;0.4349;-2.0644;
1191432689220370;-8.4682;0.7104;-3.1229;
1191432699325318;-10.1593;0.3153;-0.9431;
1191432709441308;-9.8647;0.9476;0.0676;
1191432719546204;-9.4023;0.2483;-1.3504;
1191432729651099;-8.6859;0.5716;-3.0942;
1191432739767714;-8.0991;0.2865;-2.4691;
1191432749872558;-8.7290;0.0135;-3.1615;
1191432759977454;-9.8480;-0.2333;-3.9999;
1191432770063026;-10.4276;0.7418;-5.2693;
1191432780167922;-10.2239;0.0015;-1.9421;
1191432790272766;-8.3219;1.2517;0.1062;
1191432800381047;-9.0838;0.4181;-2.0258;
1191432810485943;-9.3473;0.8064;-2.2343;
1191432820590839;-8.9327;0.4807;-2.3471;
1191432830701360;-9.2297;0.8877;-2.3949;
1191432840806256;-8.3961;0.1403;-2.3351;
1191432850911151;-8.8226;0.2411;-3.1639;
1191432861020006;-9.3138;-0.0826;-4.4719;
1191432871124901;-11.7117;0.3918;-4.5652;
1191432881229745;-9.6060;0.3200;0.3287;
1191432891338599;-7.2512;0.2387;0.1229;
1191432901443495;-9.8145;0.3153;-3.9592;
1191432911548391;-9.4669;-0.1639;-3.8441;
1191432921627610;-9.0383;1.1369;-0.2821;
1191432931732506;-7.5386;-0.6287;-1.9804;
1191432941837401;-8.0082;-0.6383;-3.3912;
1191432951964329;-9.1890;-0.5638;-3.1759;
1191432962069224;-12.0039;-0.0057;-3.7603;
1191432972174120;-11.1990;0.1762;-2.0740;
1191432982283339;-9.3138;0.5835;1.2607;
1191432992388235;-8.0656;0.3248;-0.5073;
1191433002493079;-11.2708;0.1810;-3.3482;
1191433012582193;-10.5736;-0.1854;-1.6594;
1191433022687089;-8.9973;0.3894;-0.6221;
1191433032791985;-8.6931;0.4612;-1.3169;
1191433042895422;-9.1436;-0.9090;-3.2453;
1191433053000318;-9.6849;0.0805;-2.4069;
1191433063105214;-9.2584;0.1594;-4.7064;
1191433073210995;-10.0947;0.1570;-3.2764;
1191433083315891;-8.4248;0.4110;-1.6211;
1191433093420787;-9.0598;0.6864;-3.8297;
1191433103546933;-11.3354;0.0924;-4.3280;
1191433113651829;-11.5917;1.1177;-1.9349;
1191433123756724;-8.1374;0.8590;-0.3849;
1191433133844329;-8.0034;-0.4920;-2.9530;
1191433143949224;-8.8418;-0.3218;-2.6584;
1191433154054120;-11.4912;-0.0440;-3.8632;
1191433164160110;-11.8528;1.0292;-3.2237;
1191433174265006;-9.2632;0.8973;0.2474;
1191433184369901;-4.7647;0.1355;-1.3265;
1191433194483391;-7.6271;-0.5734;-4.9986;
1191433204588339;-11.8193;0.1762;-5.1353;
1191433214693183;-10.6050;1.2422;-1.8990;
1191433224794276;-9.9604;1.1321;-3.1301;
1191433234899172;-7.9531;-0.0921;-3.0655;
1191433245004068;-8.6764;0.3224;-2.4500;
1191433255093704;-12.3703;0.9858;-3.8034;
1191433265198599;-12.3129;1.5443;-1.2377;
1191433275303495;-7.8476;1.9394;0.3697;
1191433285417922;-7.6032;0.3870;-0.8378;
1191433295522766;-11.0671;0.1403;-3.1062;
1191433305627662;-10.1928;0.8853;-0.1884;
1191433315735422;-9.4549;1.3573;-1.4414;
1191433325840318;-10.0609;0.5381;-3.7819;
1191433335945162;-6.6212;0.4974;-4.3065;
1191433346039745;-8.6022;0.5955;-4.9053;
1191433356144589;-10.2885;1.3717;-5.1066;
1191433366249537;-12.1116;2.0614;-3.1062;
1191433376345995;-8.5711;1.9729;-0.8402;
1191433386450943;-7.4740;1.3621;-2.2056;
1191433396555787;-12.8207;1.3525;-2.1697;
1191433406672089;-11.3521;1.2589;-0.0592;
1191433416776933;-7.1192;1.1824;0.6066;
1191433426881881;-4.7192;0.1738;-4.2921;
1191433436982506;-9.5964;0.0637;-6.1678;
1191433447087349;-13.3717;1.3908;-3.7436;
1191433457192297;-13.2302;1.1728;0.6284;
1191433467282349;-7.9265;0.4421;1.3804;
1191433477387245;-6.4487;0.4205;-2.5385;
1191433487492089;-11.2851;0.4349;-4.9244;
1191433497643495;-11.3210;0.5357;-0.5647;
1191433507748391;-9.0168;0.7848;-0.0568;
1191433517853235;-8.6142;0.3440;-5.4251;
1191433527909849;-8.6931;-0.6311;-1.6092;
1191433538014745;-8.4873;-0.5853;-1.2353;
1191433548119693;-10.4611;-0.6933;-3.3625;
1191433558272245;-10.0804;-0.2620;-2.2630;
1191433568377141;-7.7064;-0.8489;-2.4045;
1191433578482037;-8.5902;-0.5686;-3.1253;
1191433588555787;-10.7438;-0.9114;-3.7101;
1191433598660631;-10.8562;-0.7507;-1.3241;
1191433608765422;-9.8839;-0.8465;-1.6044;
1191433618875370;-6.5204;-1.2467;-3.1038;
1191433628980214;-7.2727;-0.7484;-3.3697;
1191433639085006;-11.0743;-1.4049;-3.4753;
1191433649195683;-12.7319;-0.5040;-2.6249;
1191433659300526;-12.8925;-1.0693;0.9685;
1191433669405370;-10.0011;-1.0047;2.1685;
1191433679511516;-9.5916;-0.5806;-1.7599;
1191433689616360;-8.5448;-0.1424;-2.6465;
1191433699721204;-8.1999;-0.6837;-2.2415;
1191433709823235;-11.3186;-0.9879;-2.8475;
1191433719928079;-9.9102;-1.5676;-4.2802;
1191433730032818;-9.7950;-0.8656;-1.8272;
1191433740124068;-7.3974;-1.4503;-2.5385;
1191433750228912;-7.9531;-0.7292;-5.3342;
1191433760333704;-7.1192;-1.2395;-3.0129;
1191433770450422;-5.4975;-1.4886;-4.0837;
1191433780555266;-13.9370;-0.7938;-7.8446;
1191433790660058;-18.4621;-0.0440;-1.9325;
1191433800752610;-9.6706;0.5644;6.1762;
1191433810857454;-3.5859;0.5309;-0.0233;
1191433820962245;-5.2989;-0.3027;-6.1582;
1191433831066568;-15.5492;1.0890;-5.3964;
1191433841171412;-16.4019;0.7418;-0.5671;
1191433851276204;-7.0092;0.5261;2.7410;
1191433861383651;-2.2923;-0.0440;-1.1252;
1191433871488443;-6.4391;-1.3615;-3.7771;
1191433881593287;-13.4459;-0.1639;-4.1076;
1191433891692974;-9.6586;-0.8560;-2.3638;
1191433901797818;-9.4262;-0.0921;-7.1186;
1191433911902662;-9.0694;-0.4131;-5.4275;
1191433922009589;-6.5204;0.1403;-1.3959;
1191433932114433;-8.4081;0.9643;-2.6177;
1191433942219224;-9.7280;1.3669;-5.1401;
1191433952338599;-12.2435;1.5467;-3.6188;
1191433962443443;-10.6744;2.3492;0.5803;
1191433972548287;-7.2081;2.0809;1.3851;
1191433982637714;-7.6633;1.4195;-0.7397;
1191433992742558;-10.2191;-0.2883;-2.9770;
1191434002847401;-12.6841;0.1642;-2.7733;
1191434012964276;-9.5004;0.8997;-1.2066;
1191434023069120;-8.1302;1.1441;-1.9325;
1191434033173912;-11.6085;0.7872;-4.0023;
1191434043278443;-11.0599;1.2951;-1.8775;
1191434053383287;-6.0389;1.3525;-0.7469;
1191434063488079;-5.7562;0.4158;-3.0057;
1191434073580891;-9.5390;0.3607;-6.0000;
1191434083685787;-11.8361;1.3238;-3.3386;
1191434093790579;-8.3961;1.4028;-0.3132;
1191434103907506;-7.9962;0.5142;-3.3505;
1191434114012349;-9.1699;0.5979;-3.6476;
1191434124117141;-9.7926;1.2422;-3.8177;
1191434134219693;-13.0819;1.4530;-3.7244;
1191434144324485;-9.9078;1.5033;-0.3778;
1191434154429329;-7.2153;0.8662;-0.6700;
1191434164525787;-9.9867;0.3583;-1.9014;
1191434174630683;-11.9824;1.1967;-0.9574;
1191434184735474;-8.7987;0.9667;0.1588;
1191434194864224;-9.0598;0.2578;-1.7073;
1191434204969068;-9.4190;-0.7077;-3.0511;
1191434215073912;-6.1923;-0.4657;-2.8020;
1191434225159276;-8.7413;0.7442;-7.1019;
1191434235264068;-11.6683;0.2363;-5.3749;
1191434245368912;-8.7987;0.3894;-1.3241;
1191434255502558;-7.6415;-0.0706;-3.0200;
1191434265607454;-9.2632;0.0494;-3.2907;
1191434275712193;-9.2513;0.9547;-2.2750;
1191434285784224;-10.3053;-0.1256;-2.0859;
1191434295889120;-11.8720;0.8255;-1.2787;
1191434305993912;-10.4779;0.0159;0.3577;
1191434316103651;-8.2310;0.1738;-2.3327;
1191434326208443;-13.7022;-0.2022;-2.5122;
1191434336313287;-11.1990;0.9882;0.3673;
1191434346420422;-5.0354;-0.0224;-0.4400;
1191434356525214;-7.5936;-0.5853;-3.6814;
1191434366630058;-11.5199;-0.7819;-5.7963;
1191434376748079;-10.1474;0.2602;-2.3399;
1191434386852974;-5.9384;-0.5614;-2.9889;
1191434396957766;-7.9412;-1.3161;-5.2238;
1191434407046204;-9.0168;-0.9281;-5.0874;
1191434417151047;-13.3095;-0.1807;-4.9029;
1191434427255891;-13.0074;-0.0344;-1.6714;
1191434437359276;-5.1048;0.4205;0.0990;
1191434447464120;-8.1852;-0.1783;-3.1974;
1191434457568912;-12.9141;0.1140;-1.3959;
1191434467679849;-11.6949;0.9476;1.4309;
1191434477784693;-6.7576;-0.1065;-0.6341;
1191434487889537;-7.4453;-0.1615;-2.7206;
1191434497998183;-8.7796;-0.6766;-3.3075;
1191434508103026;-10.6385;-0.4872;-2.4811;
1191434518207870;-15.5109;-0.4801;-4.0789;
1191434528295162;-8.7628;0.4759;-3.1759;
1191434538400006;-0.4385;0.1092;-2.0474;
1191434548504849;-3.4591;-0.5207;-5.3605;
1191434558598183;-13.4722;-0.1687;-5.1736;
1191434568703026;-20.4527;1.1560;-1.8057;
1191434578807818;-11.7835;1.1656;3.4693;
1191434588922662;-4.4363;2.1885;1.3875;
1191434599027454;-5.5840;-0.3266;-0.7373;
1191434609132297;-6.6069;-1.2084;-4.0430;
1191434619243860;-10.1091;1.1967;-7.4375;
1191434629348704;-12.4469;1.5706;-6.8216;
1191434639453495;-14.2077;0.7490;-0.5838;
1191434649557349;-9.1986;0.7609;5.9007;
1191434659662193;-4.2712;1.2278;1.5003;
1191434669766985;-7.0738;-0.2094;-4.7521;
1191434679869537;-11.0671;-0.5255;-8.7861;
1191434689974381;-13.7740;1.9274;-4.3041;
1191434700079172;-5.5481;0.3990;0.1205;
1191434710221308;-7.8787;0.2411;-4.7856;
1191434720326151;-11.0647;0.4038;-3.4298;
1191434730430943;-11.0336;0.6482;1.0068;
1191434740508651;-10.7557;0.0589;0.2952;
1191434750613443;-8.6022;-0.2022;-3.1181;
1191434760718287;-8.5448;1.0026;-4.3974;
1191434770820526;-11.7117;0.5644;-2.1482;
1191434780925318;-10.6672;0.3846;0.6356;
1191434791030162;-10.9355;-0.1352;-1.6546;
1191434801135526;-6.7026;0.2148;-4.1100;
1191434811240318;-7.6511;-0.0440;-3.7795;
1191434821345162;-10.9259;0.1116;-4.0310;
1191434831448495;-10.2024;0.3799;-0.9936;
1191434841553339;-5.1263;-1.3208;-2.2582;
1191434851658183;-9.3640;-0.0897;-6.6637;
1191434861765839;-13.1536;0.1905;-4.7160;
1191434871870631;-8.6692;0.0876;0.5994;
1191434881975422;-8.0513;0.1953;-1.9134;
1191434892076724;-12.6506;-0.0873;-3.9664;
1191434902181568;-9.3808;0.6649;-1.9851;
1191434912286412;-10.4492;0.3129;-2.8331;
1191434922395526;-9.5028;0.9308;0.3144;
1191434932500318;-9.3233;-0.5016;-0.3371;
1191434942605162;-10.5736;0.0565;-3.2333;
1191434952729433;-9.7256;-0.2907;-0.8378;
1191434962834276;-12.6362;0.1522;-1.0845;
1191434972939068;-11.2684;-0.5877;-2.4739;
1191434983029172;-6.9781;-0.0559;-1.7623;
1191434993133964;-4.9561;-1.2060;-3.8560;
1191435003238808;-10.9929;-0.3266;-7.9283;
1191435013333860;-15.3287;0.0446;-5.1377;
1191435023438704;-7.7351;0.4014;0.8895;
1191435033543495;-2.3094;-0.5136;-1.5517;
1191435043658339;-8.1039;-0.5877;-6.9703;
1191435053763131;-13.6256;-0.0057;-5.4897;
1191435063867974;-11.1535;0.1355;1.4931;
1191435073969693;-7.6223;0.3846;-2.5289;
1191435084074485;-9.7687;0.2028;-6.4744;
1191435094179329;-7.9938;0.3105;-0.6245;
1191435104285318;-9.4669;0.2195;-1.0893;
1191435114390110;-11.7667;0.5381;-3.6141;
1191435124494954;-13.4291;0.6194;-1.8153;
1191435134598495;-11.3880;0.7681;2.1900;
1191435144703287;-6.9374;0.2171;1.2703;
1191435154808131;-12.1020;-0.3748;-2.2606;
1191435164907662;-11.4123;-0.2285;-1.6953;
1191435175012506;-8.2932;0.2937;-1.0845;
1191435185117297;-6.8007;-0.1807;-4.4118;
1191435195213183;-9.5605;-0.1256;-5.3246;
1191435205318026;-11.6806;0.3655;-3.3817;
1191435215422818;-8.5400;-0.1687;-1.9804;
1191435225535579;-4.4821;0.0206;-3.1854;
1191435235640422;-5.1048;0.3200;-7.3415;
1191435245745266;-9.9676;0.1738;-7.6744;
1191435255883860;-9.9413;1.1154;-2.8355;
1191435265988651;-10.2431;0.7513;-2.9291;
1191435276093391;-12.9595;1.5081;-2.7685;
1191435286162349;-8.0584;1.4100;0.5468;
1191435296267193;-7.4501;1.8027;-1.4103;
1191435306372037;-10.7749;0.8590;-3.3171;
1191435316491568;-13.9920;0.7056;-0.7226;
1191435326596360;-10.8757;0.7394;1.1626;
1191435336701151;-6.2785;0.4086;1.7040;
1191435346821568;-7.5506;-0.2548;-2.6752;
1191435356926360;-12.4517;-0.2716;-2.4882;
1191435367031151;-7.3684;0.1475;0.1397;
1191435377129329;-5.8475;-0.7149;-4.7641;
1191435387234172;-9.2441;-0.6096;-7.8350;
1191435397338964;-10.8972;0.3368;-5.0874;
1191435407415631;-10.6074;0.3081;0.0628;
1191435417520422;-7.7064;0.0326;-1.2162;
1191435427625266;-8.5328;0.0996;-3.7005;
1191435437742193;-11.2349;0.9093;-4.7112;
1191435447846985;-12.8423;1.1010;0.7457;
1191435457951776;-11.0312;1.5706;2.2286;
1191435468073912;-8.9830;0.9093;-1.6546;
1191435478178704;-9.1101;-0.1878;-1.7623;
1191435488283547;-6.7217;0.0063;-2.3997;
1191435498362766;-9.5414;0.8255;-3.9278;
1191435508467558;-11.3426;0.2794;-4.1961;
1191435518572401;-10.3965;-0.0057;-2.2343;
1191435528672454;-6.7193;-0.0969;-2.0979;
1191435538777245;-9.3114;-0.3580;-4.6322;
1191435548882089;-11.5247;0.2339;-3.1134;
1191435558996412;-7.6582;-0.0153;-2.1625;
1191435569101256;-8.0536;-0.1926;-4.4815;
1191435579206047;-8.7796;0.1714;-3.7914;
1191435589311308;-6.7074;-0.2261;-3.4011;
1191435599416151;-8.2573;-0.0105;-3.0894;
1191435609520995;-12.7729;0.1427;-1.6786;
1191435619656412;-12.3679;0.3488;0.5827;
1191435629761256;-9.0335;0.4086;-0.4280;
1191435639866151;-10.0274;0.9308;-1.2882;
1191435649940370;-10.4970;0.7801;-1.0654;
1191435660045214;-9.0814;0.2554;-2.2152;
1191435670150058;-9.6562;1.0675;-2.5313;
1191435680259797;-8.6357;0.4062;-1.9469;
1191435690364589;-7.8523;0.9691;-4.1339;
1191435700469433;-9.3090;0.2578;-3.1496;
1191435710603339;-8.3865;0.2100;0.0365;
1191435720708235;-9.8743;-0.2357;-3.3434;
1191435730813079;-9.1723;0.1953;-5.5690;
1191435740886672;-9.3018;0.3559;-3.6694;
1191435750991516;-10.6265;0.6577;-2.3447;
1191435761096360;-11.4553;0.3535;-2.8379;
1191435771205839;-11.5702;1.3023;-1.5565;
1191435781310683;-7.6391;0.9332;-0.1310;
1191435791415526;-8.8992;0.9260;-3.2453;
1191435801516672;-11.4888;0.6266;-2.4811;
1191435811621516;-10.4516;0.1618;1.1626;
1191435821726360;-8.1230;-0.2548;-1.1779;
1191435831834745;-9.1196;-0.2381;-5.2190;
1191435841939589;-10.0681;-0.3461;-3.1687;
1191435852044381;-9.2803;-0.8441;-1.7575;
1191435862145631;-9.7735;-0.9832;-3.4753;
1191435872250474;-7.8308;-0.7077;-5.5280;
1191435882355266;-7.0905;-0.3580;-5.4323;
1191435892460162;-8.6142;-0.1807;-5.2840;
1191435902565006;-10.7581;-0.4107;-2.3662;
1191435912669849;-11.1870;-0.7603;-0.6293;
1191435922777401;-9.4214;-0.8034;-1.2954;
1191435932882193;-9.1938;-0.2477;-2.2965;
1191435942987089;-10.1450;-0.0464;-1.4414;
1191435953088183;-10.2790;0.0111;-1.4438;
1191435963193079;-9.4310;-0.5351;-1.0223;
1191435973297922;-9.0885;-0.2142;-3.1783;
1191435983408026;-8.7891;-0.1232;-3.6667;
1191435993512818;-9.0359;-0.2046;-1.5852;
1191436003617714;-10.2646;-0.6861;-1.2425;
1191436013722401;-9.2489;-1.3567;-2.6297;
1191436023827245;-8.1948;-0.3099;-3.9592;
1191436033932037;-10.2383;-0.5112;-2.8956;
1191436044029954;-11.6563;-0.3389;-2.1386;
1191436054134849;-10.5497;-0.4011;-1.7097;
1191436064239693;-8.6405;0.3607;-1.3217;
1191436074347401;-7.0403;-0.0344;-2.7613;
1191436084452245;-8.2167;0.0470;-5.0970;
1191436094557089;-11.4099;0.2459;-2.8932;
1191436104661672;-12.1857;-0.3556;0.8629;
1191436114766516;-11.9175;0.1714;-1.0343;
1191436124871360;-10.6552;0.6864;-1.7049;
1191436134982922;-4.9609;0.3894;-0.7325;
1191436145087766;-6.0559;-0.3628;-4.3328;
1191436155192558;-12.8662;-0.6287;-6.8097;
1191436165285943;-13.3789;-0.1400;-1.8176;
1191436175390787;-9.3114;0.4998;-0.7277;
1191436185495683;-5.2436;0.9117;-3.5471;
1191436195609745;-6.7600;-0.2166;-2.8259;
1191436205714589;-11.1293;-0.3843;-3.0248;
1191436215819433;-10.6170;-0.2022;-2.9267;
1191436225916933;-9.2154;0.6625;-4.7112;
1191436236021829;-6.5874;0.7080;-4.5221;
1191436246126620;-8.7987;-0.0682;-2.2965;
1191436256248339;-11.7787;0.1475;-0.0855;
1191436266353235;-12.2985;0.8853;0.2880;
1191436276458026;-11.0312;0.9404;-3.4585;
1191436286545891;-8.5448;1.2039;-3.5375;
1191436296650735;-8.7509;1.1824;0.2330;
1191436306755579;-10.0732;1.1943;-0.2007;
1191436316865162;-12.3990;0.4062;-2.9985;
1191436326969954;-12.6697;1.7668;-2.5600;
1191436337074797;-10.6816;1.0699;0.8895;
1191436347164120;-8.9016;1.8317;-0.5791;
1191436357268964;-6.7983;0.6027;-1.7360;
1191436367373860;-6.7816;0.9523;-4.2108;
1191436377497401;-9.3927;0.6817;-8.6901;
1191436387602245;-9.8336;1.4100;-6.2300;
1191436397707089;-7.8021;1.8027;-2.1984;
1191436407796464;-9.0622;0.0565;-2.1314;
1191436417901256;-10.2598;0.0350;-5.1066;
1191436428006099;-7.9555;1.0531;-3.5734;
1191436438126464;-8.9231;0.4373;-2.3901;
1191436448231256;-12.6434;1.3884;-5.2214;
1191436458336099;-13.5344;0.8686;-0.7253;
1191436468416464;-12.0278;2.0112;2.2238;
1191436478521360;-5.6222;1.2206;0.3697;
1191436488626151;-3.4615;1.0747;-3.2788;
1191436498744849;-8.8202;-0.4753;-5.9330;
1191436508849745;-14.0904;-0.9832;-2.8837;
1191436518954537;-10.7581;-0.8225;-0.6580;
1191436529062349;-8.0871;-0.8106;-1.1324;
1191436539167193;-6.0532;-1.8120;-2.8427;
1191436549272089;-6.5420;-1.9917;-4.7088;
1191436559397870;-13.5610;-1.8885;-5.3175;
1191436569502766;-17.6572;-1.3352;-2.8403;
1191436579607610;-10.9427;0.1092;0.1493;
1191436589694381;-4.6926;0.7442;-0.3347;
1191436599799172;-5.5720;-0.2572;-0.8785;
1191436609904016;-8.0991;-1.2347;-3.2429;
1191436620002245;-11.1966;-1.1390;-5.3055;
1191436630107141;-8.9160;-1.0813;-3.1205;
1191436640211985;-8.5519;-1.9029;-2.4093;
1191436650327297;-10.5353;-2.5690;-1.3146;
1191436660432089;-8.5232;-2.2337;-1.7961;
1191436670536933;-8.2765;-1.7809;-5.1855;
1191436680647401;-8.7147;-1.4216;-7.8254;
1191436690752245;-8.3435;-0.7316;-6.8504;
1191436700857089;-7.1937;-0.8779;-0.7059;
1191436710951099;-14.0590;-0.4011;-1.3696;
1191436721055995;-16.5099;0.1164;2.1422;
1191436731160839;-8.3483;0.4660;4.5712;
1191436741274589;-5.2989;0.9930;-0.7469;
1191436751379381;-4.1177;-1.1390;-4.8383;
1191436761484276;-7.4931;-2.5116;-7.2099;
1191436771589485;-11.2349;-0.8680;-6.9200;
1191436781694329;-7.1483;0.0350;0.0030;
1191436791799172;-9.4167;0.3248;-2.5074;
1191436801900839;-11.5798;0.4469;-2.9243;
1191436812005683;-5.8331;0.7992;-0.0975;
1191436822110526;-4.5802;0.8662;-4.1961;
1191436832214329;-9.0598;1.4578;-10.4821;
1191436842319120;-11.2875;2.0785;-5.1712;
1191436852423964;-9.7591;2.4616;0.6739;
1191436862533547;-7.8236;3.2689;0.4175;
1191436872638391;-10.4803;2.8496;-0.7947;
1191436882743235;-12.0206;2.7921;1.3158;
1191436892845943;-11.6997;2.3587;1.5721;
1191436902950735;-8.8992;2.9719;-0.1717;
1191436913055631;-9.2369;2.9695;-4.4524;
1191436923163964;-9.1388;1.5176;-2.0788;
1191436933268808;-7.5194;0.6027;-0.7971;
1191436943373599;-14.7371;1.4985;-3.2189;
1191436953486256;-9.0957;0.8207;0.6571;
1191436963591099;-3.9263;2.0303;-3.1158;
1191436973695995;-7.1145;1.2063;-7.4614;
1191436983806881;-4.7118;0.3511;-3.4681;
1191436993911724;-9.5486;0.6601;-6.1439;
1191437004016568;-12.5907;0.8279;-7.2458;
1191437014103651;-8.6429;1.0627;-1.7312;
1191437024208495;-7.7160;1.2685;-1.5446;
1191437034313287;-10.2287;0.1187;-0.6293;
1191437044417506;-10.0274;0.1164;-0.7516;
1191437054522349;-8.9614;0.1977;-2.4452;
1191437064627193;-10.9738;1.3358;-4.1865;
1191437074733651;-9.1986;0.3296;0.1493;
1191437084838443;-8.6524;-0.3027;2.0321;
1191437094943339;-13.3765;-1.1749;-0.2988;
1191437105040162;-10.4133;-1.7378;-1.1707;
1191437115145058;-8.7242;-1.6178;-2.4523;
1191437125249901;-7.0905;-1.9822;-1.2643;
1191437135380474;-8.3913;-2.8708;-3.0416;
1191437145485318;-9.5677;-3.1630;-5.8516;
1191437155590162;-10.1976;-2.5929;-2.6752;
1191437165675110;-9.7256;-2.3821;-2.5672;
1191437175779901;-9.0718;-2.5379;-1.6857;
1191437185884797;-6.0389;-2.9713;-0.7011;
1191437195982349;-7.9579;-2.9091;-4.8024;
1191437206087193;-13.1321;-2.1855;-7.5763;
1191437216192037;-14.7251;-1.0119;-1.7961;
1191437226308443;-8.7867;-0.6407;2.5137;
1191437236413287;-8.6166;-0.0631;-1.5422;
1191437246518131;-10.5185;-0.5303;-3.7675;
1191437256635370;-13.2278;-0.0631;-1.0056;
1191437266740214;-11.2516;0.2315;-0.5121;
1191437276845110;-6.9541;0.2291;-1.1587;
1191437286920943;-7.6920;-0.5016;-3.7771;
1191437297025787;-11.4123;-1.1940;-3.2213;
1191437307130683;-9.4908;-1.2132;-2.4069;
1191437317243756;-9.1268;-1.5126;-4.2897;
1191437327348599;-8.5639;-1.2419;-3.7460;
1191437337453443;-7.8787;-0.8608;-3.1253;
1191437347599797;-8.8250;-0.9640;-4.0023;
1191437357704641;-12.6721;0.0182;-3.7340;
1191437367809485;-9.0503;0.2674;-2.4835;
1191437377869693;-4.5969;1.0149;-2.5744;
1191437387974537;-7.4405;0.4373;-3.7436;
1191437398079381;-10.3582;0.0039;-3.3362;
1191437408258131;-13.5009;1.0555;-3.6643;
1191437418362922;-14.7538;1.9370;0.4510;
1191437428467766;-6.7170;2.3755;2.5974;
1191437438505162;-6.2163;1.2422;-2.9267;
1191437448610006;-11.1918;-0.7866;-4.0286;
1191437458714849;-10.7653;0.1810;-2.5217;
1191437468819537;-8.7027;1.5443;-2.4284;
1191437478924381;-7.4357;1.0651;-3.5016;
1191437489029224;-8.9040;-0.3843;-1.8799;
1191437499131099;-9.4884;0.2985;-2.2606;
1191437509235943;-10.9929;0.5261;-3.3099;
1191437519340787;-9.9509;0.3344;-2.2606;
1191437529464120;-7.2559;0.3559;-4.3256;
1191437539568964;-10.1713;0.0661;-3.6981;
1191437549673808;-8.6357;0.2171;-1.5326;
1191437559782662;-11.9656;1.7859;-4.3448;
1191437569887506;-10.5951;1.2517;-1.3576;
1191437579992401;-5.6797;1.3597;-0.3347;
1191437590081464;-8.4248;0.2889;-2.6560;
1191437600186308;-10.0609;-0.2812;-3.9015;
1191437610291151;-11.3474;0.8973;-3.4178;
1191437620397818;-7.8308;1.0053;-2.2630;
1191437630502662;-8.2645;0.1044;-3.4896;
1191437640607506;-12.1786;-0.0057;-3.6814;
1191437650705787;-11.2708;0.5213;-1.0439;
1191437660810683;-10.1665;1.2685;-0.7899;
1191437670915579;-7.5051;0.4974;-1.8464;
1191437681020526;-7.0403;-0.4274;-1.8344;
1191437691125422;-9.9820;-0.9879;-3.9927;
1191437701230266;-12.6817;-0.3556;-3.1854;
1191437711348808;-9.7232;0.1499;-1.4916;
1191437721453704;-6.3290;-1.0669;-1.1611;
1191437731558599;-8.9303;-1.2538;-3.6885;
1191437741648183;-12.9619;-0.7675;-2.7541;
1191437751753079;-9.9724;0.2001;-1.8440;
1191437761857922;-9.8456;-0.0200;-3.8919;
1191437771962974;-8.9279;-0.2213;-0.9790;
1191437782067870;-6.2282;-0.3820;-2.7470;
1191437792172766;-11.2995;-0.1400;-3.4633;
1191437802282506;-12.0757;-0.1256;-3.3242;
1191437812387349;-8.9877;-0.4107;-1.3361;
1191437822492245;-6.6117;-0.2931;-1.7910;
1191437832601829;-9.5291;-1.0406;-4.0932;
1191437842706672;-10.9522;0.4301;-1.7456;
1191437852811568;-11.4386;0.3057;-4.0095;
1191437862909329;-12.1044;0.8830;-1.6857;
1191437873014224;-5.8522;0.6936;0.2928;
1191437883119120;-7.6487;0.3248;-3.8824;
1191437893222974;-12.0541;0.5429;-3.7747;
1191437903327870;-10.7438;1.1082;-2.8765;
1191437913432766;-8.5448;0.9165;-1.6738;
1191437923542506;-8.0489;0.6458;-3.3027;
1191437933647349;-10.6457;0.9069;-1.9062;
1191437943752245;-9.7735;1.1106;-2.4882;
1191437953868756;-10.4803;1.4363;-3.1639;
1191437963973651;-10.3292;1.9035;-1.0295;
1191437974078547;-6.1684;0.8901;-2.4523;
1191437984179797;-7.7471;1.2589;-4.6394;
1191437994284641;-10.8876;1.2254;-5.0420;
1191438004389537;-11.4625;1.4985;-2.4643;
1191438014482714;-10.0107;0.6266;-0.7131;
1191438024587558;-9.1077;0.6529;-2.0091;
1191438034692401;-9.0574;0.0924;-2.0644;
1191438044792870;-8.4658;0.3488;-3.1301;
1191438054897766;-10.9283;0.7466;-3.4418;
1191438065002662;-10.6074;-0.1352;-0.7445;
1191438075114797;-6.8031;-0.0344;-1.9636;
1191438085219641;-8.1900;-0.2118;-5.0587;
1191438095324485;-10.0828;0.0422;-3.9326;
1191438105420579;-9.9652;-0.5088;-1.8416;
1191438115525474;-9.5605;-1.1219;-1.7408;
1191438125630318;-8.3076;-1.4073;-3.4490;
1191438135721933;-9.6299;-0.3939;-4.1507;
1191438145826776;-10.4109;-0.3099;-3.3027;
1191438155931672;-10.5975;-0.6502;-0.7226;
1191438166046829;-8.0584;-0.5830;0.0221;
1191438176151724;-7.3660;-0.8874;-3.5279;
1191438186256620;-9.6993;-0.2692;-5.0180;
1191438196366620;-11.4099;-0.4825;-1.9540;
1191438206471516;-10.4468;-1.1557;-0.3012;
1191438216576412;-8.6716;-1.0717;-1.5685;
1191438226683391;-8.0943;-1.0813;-2.6154;
1191438236788287;-10.6122;-0.8058;-3.9039;
1191438246893131;-11.2301;-0.5327;-2.3590;
1191438257030474;-9.3999;-0.1352;-1.1348;
1191438267135370;-6.7983;-0.2285;-2.2845;
1191438277240214;-5.0378;-0.2046;-4.0214;
1191438287309485;-7.4381;-0.6526;-6.5318;
1191438297414329;-13.9107;-0.4729;-3.7962;
1191438307519224;-16.7539;-0.9257;1.4237;
1191438317647193;-12.9500;-0.1496;2.9925;
1191438327752037;-4.0029;1.3358;0.0006;
1191438337856933;-4.5179;1.0555;-5.7867;
1191438347943339;-11.1293;1.0890;-6.1630;
1191438358048183;-13.7931;0.8303;-1.6618;
1191438368153131;-8.5472;0.5501;0.9709;
1191438378252662;-7.0020;0.1857;-2.4547;
1191438388357506;-9.8264;0.3990;-3.3099;
1191438398462401;-8.5400;0.0900;-1.0606;
1191438408564433;-7.8404;-0.4274;-2.7446;
1191438418669276;-8.2645;-0.2788;-6.4863;
1191438428774172;-10.3173;0.0685;-7.8757;
1191438438887870;-12.6218;0.8614;-3.6452;
1191438448992714;-8.8179;0.6769;3.5483;
1191438459097610;-7.4692;0.9093;0.1588;
1191438469220995;-10.3292;0.3559;-4.3137;
1191438479325839;-10.2646;0.7920;-2.2798;
1191438489430735;-10.1474;0.6051;-1.1468;
1191438499539485;-9.2755;0.0350;-2.1434;
1191438509644276;-8.8370;0.1307;-2.3758;
1191438519749224;-8.7099;-0.7316;-2.6297;
1191438529834589;-10.2287;-0.1280;-2.5122;
1191438539939433;-9.7543;-0.0730;-4.4357;
1191438550044329;-9.2297;0.0661;-2.7829;
1191438560144537;-8.7290;-0.1807;-1.0223;
1191438570249433;-7.2679;-0.6814;-2.1840;
1191438580354329;-7.3373;-0.2596;-5.2095;
1191438590455058;-9.8240;-0.3314;-5.1855;
1191438600559901;-9.8791;-0.6096;-2.9219;
1191438610664745;-9.4190;-0.6790;-2.2798;
1191438620777610;-9.4597;-0.4035;-0.1525;
1191438630882454;-8.9973;-0.2213;-2.9076;
1191438640987297;-11.8074;0.4950;-2.7398;
1191438651084537;-11.8122;0.8518;-0.1214;
1191438661189433;-9.2707;0.6721;0.5994;
1191438671294276;-7.2751;0.1762;-2.5241;
1191438681403287;-8.3387;0.4469;-5.1975;
1191438691508183;-10.1330;0.2650;-3.0559;
1191438701612974;-8.7532;-0.0009;-0.9598;
1191438711736204;-9.6203;-0.8970;-3.1038;
1191438721841099;-9.0742;-0.4298;-2.0931;
1191438731945943;-8.7915;-0.3939;-3.5638;
1191438742041360;-10.9570;-0.0033;-2.7494;
1191438752146151;-8.6572;0.2339;-1.2906;
1191438762251047;-9.5291;0.0876;-3.2501;
1191438772349068;-9.5653;0.4397;-3.7914;
1191438782453912;-8.6836;0.8160;-3.8058;
1191438792558756;-10.5568;0.5094;-2.2247;
1191438802672245;-9.8623;0.3416;-1.0199;
1191438812777089;-9.7615;0.0422;-1.5996;
1191438822881933;-8.3195;0.0829;-2.2175;
1191438833004068;-11.3019;0.7080;-3.0200;
1191438843108860;-12.6075;0.1762;-1.5398;
1191438853213704;-9.6682;0.9476;-0.7178;
1191438863292558;-8.4512;0.0876;-1.3528;
1191438873397401;-6.2450;0.5572;-4.8646;
1191438883502245;-10.2646;0.4588;-5.7700;
1191438893614901;-12.2124;-0.2812;-2.7900;
1191438903719745;-9.6347;-0.2142;-1.0893;
1191438913824589;-7.4548;-0.5925;-2.4667;
1191438923926151;-7.1267;-0.1687;-3.7675;
1191438934030995;-11.1102;0.2195;-4.5772;
1191438944135787;-10.4444;-0.3556;-2.4188;
1191438954231099;-8.5089;0.3488;-1.0630;
1191438964335995;-7.3253;-0.5590;-4.3519;
1191438974440787;-6.7265;0.3344;-5.1951;
1191438984555526;-9.6969;0.1116;-4.4886;
1191438994660318;-11.2732;-0.5447;-2.2152;
1191439004765214;-11.1703;-0.7340;-1.6618;
1191439014936151;-10.3196;-0.4059;-0.3371;
1191439025040943;-8.9710;-0.2572;-0.9646;
1191439035145787;-10.5305;0.5261;-1.7288;
1191439045182558;-9.2632;-0.1878;-0.9096;
1191439055287401;-9.0144;-0.2285;-1.6522;
1191439065392297;-9.2922;-0.6550;-3.3984;
1191439075492193;-9.1340;-0.3003;-2.4619;
1191439085597037;-10.9355;-1.0095;-1.2858;
1191439095701881;-8.4849;-1.2634;-1.5084;
1191439105805474;-9.3736;-1.2969;-2.8283;
1191439115910370;-8.2573;-1.0430;-3.9760;
1191439126015162;-9.8025;-0.6790;-3.8895;
1191439136110422;-10.4468;0.1666;-3.7771;
1191439146215318;-8.6979;-0.1950;-2.1314;
1191439156320162;-10.0155;0.1020;-1.1061;
1191439166454276;-8.8513;0.1116;-2.3686;
1191439176559068;-7.9074;0.4974;-3.0751;
1191439186663964;-9.7065;0.2602;-3.6814;
1191439196750474;-10.0346;-0.0033;-2.5050;
1191439206855318;-10.0298;0.0111;-2.4858;
1191439216960214;-8.5328;0.0398;-2.1912;
1191439227057662;-9.3544;0.7561;-3.1567;
1191439237162558;-11.2277;0.6649;-2.6895;
1191439247267401;-9.2946;0.4086;-0.2844;
1191439257376151;-8.2286;0.2865;-0.6389;
1191439267480995;-7.9866;-0.2500;-3.8704;
1191439277585839;-9.5100;0.3416;-5.1425;
1191439287692349;-10.0298;-0.1161;-1.5446;
1191439297797193;-9.7783;-0.1184;-2.3037;
1191439307901985;-11.1150;-0.2835;-1.8799;
1191439318022245;-9.4238;0.1164;-0.2414;
1191439328127089;-9.1029;0.7271;-3.7579;
1191439338231933;-10.1474;0.7872;-1.5637;
1191439348323287;-7.4524;0.2339;-1.3050;
1191439358428131;-10.8876;0.2722;-2.9530;
1191439368532974;-8.6931;0.1499;-3.8130;
1191439378666204;-8.7748;0.3296;-3.1325;
1191439388771047;-9.5749;-0.0368;-2.8908;
1191439398875943;-11.0527;-0.1807;-3.1926;
1191439408971672;-8.0943;-0.3123;-1.4844;
1191439419076464;-6.5324;-0.1759;-5.0635;
1191439429181360;-12.4301;0.4493;-5.0133;
1191439439285370;-11.6204;0.6242;-0.5838;
1191439449390214;-7.6657;-0.2572;0.7098;
1191439459495058;-8.2358;0.2219;-2.7039;
1191439469578026;-7.5123;-0.4657;-5.4060;
1191439479682870;-10.5401;0.2148;-2.7206;
1191439489787714;-11.5846;-0.7603;-2.4811;
1191439499923756;-9.8121;-0.4178;-1.9660;
1191439510028547;-7.7231;-0.3843;-2.6465;
1191439520133391;-11.4506;-0.0105;-3.5901;
1191439530209641;-9.8982;0.5931;-0.4496;
1191439540314485;-4.7599;0.0182;-1.5709;
1191439550419381;-8.6955;-0.0511;-4.1794;
1191439560531724;-14.1359;-0.0921;-4.0310;
1191439570636620;-13.3717;0.7537;-0.4762;
1191439580741464;-7.0977;0.4493;0.6643;
1191439590855422;-6.7720;0.0829;-3.1950;
1191439600960318;-13.0771;-0.1017;-4.3041;
1191439611065214;-10.2814;0.5979;-1.6475;
1191439621160735;-6.3577;1.1393;-2.5600;
1191439631265631;-10.4850;0.7633;-5.3701;
1191439641370526;-9.9820;0.7056;-1.0606;
1191439651482193;-9.1412;0.5118;-0.1501;
1191439661587089;-6.2378;0.4831;-2.5170;
1191439671691985;-4.3693;0.2001;-6.9105;
1191439681787818;-14.7778;0.5979;-8.2926;
1191439691892662;-16.6223;0.7418;-1.3289;
1191439701997610;-6.2833;0.3081;3.5964;
1191439712121204;-5.5887;1.2135;-4.3137;
1191439722226151;-13.0122;0.4158;-6.9416;
1191439732331047;-10.8733;1.2685;2.0895;
1191439742425110;-7.3564;0.4902;1.9579;
1191439752530006;-9.5486;0.2171;-4.2084;
1191439762634901;-9.2154;-0.3508;-3.4801;
1191439772751776;-9.0239;-0.0607;-1.9349;
1191439782856672;-8.0225;-0.9138;-1.0750;
1191439792961568;-9.4071;-1.1267;-4.6801;
1191439803060006;-12.2049;-0.2381;-7.5141;
1191439813164901;-8.3650;-0.1089;-2.1864;
1191439823269797;-7.9675;0.6338;-1.4916;
1191439833375943;-8.6070;-0.2166;-2.6034;
1191439843480787;-8.6740;-0.1950;-1.4629;
1191439853585735;-13.3908;-0.2835;-2.5146;
1191439863688860;-13.1919;0.1140;0.3144;
1191439873793756;-7.9364;0.4998;0.8824;
1191439883898651;-9.4358;-0.3194;-3.3171;
1191439893994485;-9.6586;-0.5399;-2.6273;
1191439904099381;-6.5683;-0.6550;-2.1601;
1191439914204276;-8.8107;0.1905;-6.6613;
1191439924309797;-11.0695;0.0565;-3.7220;
1191439934414693;-9.9867;-0.6694;1.1794;
1191439944519589;-7.5099;-0.3867;-1.9923;
1191439954646256;-6.9996;-0.6287;-3.4657;
1191439964751151;-17.5926;0.1283;-4.3424;
1191439974856099;-15.0365;0.0470;-1.2882;
1191439984928964;-3.4759;0.8495;-0.1143;
1191439995033860;-5.6725;0.3823;-5.5256;
1191440005138756;-9.8815;-0.1926;-4.7402;
1191440015236620;-10.2933;0.5788;-2.7135;
1191440025341568;-11.5199;0.3081;0.7959;
1191440035446412;-8.1182;-0.3314;0.7002;
1191440045565110;-8.4057;-0.0754;-2.7517;
1191440055670006;-8.8083;0.0446;-4.8742;
1191440065774901;-4.4339;-0.6814;-2.0282;
1191440075879276;-7.1530;-0.5040;-8.6662;
1191440085984172;-18.7185;0.3607;-13.4166;
1191440096089068;-11.4817;0.3894;3.9867;
1191440106200422;-2.8627;0.4397;5.5989;
1191440116305266;-9.9891;0.4397;-5.2959;
1191440126410162;-12.8064;0.7633;-2.3157;
1191440136529954;-9.3305;0.3105;2.8322;
1191440146634901;-8.5831;1.0244;-1.0199;
1191440156739745;-9.4573;-0.1783;-4.9507;
1191440166822610;-9.5004;0.0781;-3.0511;
1191440176927454;-8.3004;-0.9138;0.2521;
1191440187032349;-9.0168;-0.4848;-3.1902;
1191440197126933;-10.9020;-0.8584;-6.2611;
1191440207231881;-10.1450;0.1355;-3.1974;
1191440217336776;-7.4142;0.5261;-2.1338;
1191440227451568;-9.4143;0.3272;-1.2930;
1191440237556464;-7.4477;-0.2859;-1.5446;
1191440247661360;-8.6907;-0.0464;-4.8718;
1191440257754276;-11.5247;0.5740;-4.9723;
1191440267859172;-8.9375;0.0733;-0.6628;
1191440277964016;-9.0024;0.3703;-1.8703;
1191440288082037;-11.8385;-0.0009;-3.4131;
1191440298186985;-10.0394;0.2243;-0.0640;
1191440308291829;-9.5267;1.2111;-2.1338;
1191440318388339;-10.4563;0.9619;-3.8632;
1191440328493287;-9.1699;1.0675;0.4415;
1191440338598131;-7.0690;0.8399;-0.6102;
1191440348728339;-10.6457;0.5118;-4.4668;
1191440358833287;-8.5831;0.1379;-2.6824;
1191440368938131;-7.1339;0.5070;-2.3327;
1191440379057349;-9.8839;0.0278;-4.9627;
1191440389162245;-10.1378;-0.0464;-3.2333;
1191440399267141;-10.3893;0.7920;-2.2702;
1191440409376256;-8.3842;1.0244;-2.9913;
1191440419481099;-7.4022;1.1345;-2.2199;
1191440429585995;-10.1545;1.3836;-2.6632;
1191440439686672;-11.4817;1.0053;-1.2042;
1191440449791568;-12.7609;2.0809;-0.9646;
1191440459896464;-7.9819;1.6639;-0.7971;
1191440469975318;-6.1086;1.1512;-1.7216;
1191440480080162;-8.3411;0.7944;-4.7904;
1191440490185058;-10.9857;0.3655;-4.7303;
1191440500312141;-13.1776;0.9260;-1.6570;
1191440510417037;-8.1685;1.0699;-1.6762;
1191440520521985;-7.3926;1.2661;-2.4476;
1191440530599641;-10.2000;0.0900;-1.6475;
1191440540704589;-11.6611;0.2100;-0.6030;
1191440550809433;-11.6372;-0.0224;-3.5949;
1191440560917818;-8.3674;0.1259;-3.1759;
1191440571022714;-6.6811;0.0015;-3.1974;
1191440581127610;-9.1268;-1.3974;-3.3625;
1191440591240526;-12.6386;-1.6346;-2.2199;
1191440601345370;-12.7681;-1.4910;-1.9516;
1191440611450266;-9.6538;-0.9855;-1.1013;
1191440621547193;-11.2564;-0.6383;-1.3385;
1191440631652089;-9.7783;-0.9855;0.6380;
1191440641756985;-6.4128;-1.5054;-1.5805;
1191440651861464;-10.4898;-1.5772;-6.5031;
1191440661966308;-8.7317;-1.8144;-4.5006;
1191440672071256;-7.2368;-1.6732;-5.3486;
1191440682171620;-8.4320;-2.5116;-4.7976;
1191440692276516;-8.1948;-2.7846;-4.2395;
1191440702381412;-10.3511;-2.5786;-4.2371;
1191440712503339;-9.3138;-1.9822;-3.6742;
1191440722608287;-8.4658;-0.5830;-1.7934;
1191440732713131;-9.3592;-0.6096;-2.7781;
1191440742803443;-10.4061;-0.1735;-3.8034;
1191440752908287;-10.6409;-0.1615;-1.1635;
1191440763013183;-6.6739;0.0302;-0.6485;
1191440773113808;-8.3865;-0.5806;-2.7541;
1191440783218704;-9.6754;-1.2945;-1.9612;
1191440793323599;-10.4539;-0.0559;-1.3887;
1191440803438339;-9.5267;0.7319;-0.7851;
1191440813543235;-7.2488;0.7394;-2.2822;
1191440823648131;-8.3219;-0.2524;-2.2319;
1191440833744954;-8.9782;-0.1663;-2.2008;
1191440843849901;-8.3554;0.9954;-4.2419;
1191440853954797;-11.0504;0.9739;-3.6742;
1191440864073287;-8.7820;1.9753;-1.6427;
1191440874178183;-8.9925;1.5754;-3.1158;
1191440884283079;-10.4922;1.6065;-1.4701;
1191440894376099;-7.5194;1.8724;-2.2247;
1191440904481047;-8.3674;2.1263;-3.0440;
1191440914585943;-12.8925;2.0112;-2.2654;
1191440924694068;-11.5822;2.8687;-0.6317;
1191440934798964;-4.3119;2.1790;0.4175;
1191440944903860;-10.3582;1.0962;-4.5580;
1191440955007089;-15.9805;1.3119;-2.3830;
1191440965111985;-7.2392;2.5669;0.1397;
1191440975216829;-6.5037;1.0938;-3.7962;
1191440985326360;-12.0948;0.9739;-3.8154;
1191440995431256;-8.8490;2.4568;-3.8249;
1191441005536099;-8.3148;2.2890;-2.6728;
1191441015645110;-8.5567;1.7333;-1.2643;
1191441025749954;-9.9102;1.5945;-3.1878;
1191441035854849;-11.0073;1.3358;-3.9063;
1191441045955943;-11.1293;1.4028;-0.7588;
1191441056060839;-7.6848;1.0986;0.9446;
1191441066165735;-6.2545;0.3631;-5.5113;
1191441076268131;-14.3539;-0.6383;-5.6025;
1191441086373026;-13.2832;1.1680;0.1038;
1191441096477870;-6.3553;2.7323;-1.5132;
1191441106591829;-4.8293;0.1570;-3.1400;
1191441116696724;-10.3391;-0.2357;-2.3423;
1191441126801568;-12.2985;0.7343;-0.9096;
1191441136913495;-6.4941;0.5596;-2.9554;
1191441147018443;-9.4597;0.2148;-5.0468;
1191441157123287;-7.1794;-0.7866;-2.4093;
1191441167238183;-8.8298;-0.0344;-4.6944;
1191441177343131;-14.1670;-0.1926;-4.5413;
1191441187447974;-6.8079;0.2530;-1.7623;
1191441197555110;-11.4506;0.6840;-4.2371;
1191441207660006;-12.7514;0.4421;-1.4438;
1191441217764901;-9.6467;0.3272;4.1809;
1191441227830214;-4.8796;0.0517;0.6260;
1191441237935110;-8.6453;-1.4264;-7.5021;
1191441248040006;-10.7366;-1.3089;-2.9004;
1191441258158964;-5.4449;-1.0167;-0.1911;
1191441268263808;-11.7021;-1.0502;-6.2228;
1191441278368704;-10.3606;-1.8072;-4.5150;
1191441288475579;-8.2837;-0.7555;-3.4035;
1191441298580474;-10.7916;0.0039;-2.8741;
1191441308685370;-7.0331;-0.7699;-0.2892;
1191441318774329;-13.2757;-0.0969;-4.3208;
1191441328879224;-10.8084;-0.4202;-0.7469;
1191441338984120;-8.9686;0.6194;0.0221;
1191441349114589;-10.6576;-0.4370;-1.2978;
1191441359219485;-7.0977;-0.3051;0.4391;
1191441369324381;-5.6270;-1.5461;-3.1926;
1191441379401724;-12.3320;-1.0238;-5.6216;
1191441389506620;-15.0963;0.0182;-2.9483;
1191441399611516;-8.5854;-0.1783;-0.0377;
1191441409745787;-4.7216;-0.3676;-1.7934;
1191441419850683;-6.9517;-0.3485;-4.1459;
1191441429955579;-12.4732;-0.0993;-6.1295;
1191441440037349;-12.3918;1.0412;-3.3099;
1191441450142245;-5.7012;0.0206;-0.5168;
1191441460247141;-6.7026;-0.0559;-4.4237;
1191441470366829;-14.0806;-0.5016;-3.3721;
1191441480471672;-11.3521;1.1489;0.9446;
1191441490576568;-8.2454;0.6338;-1.0152;
1191441500667506;-8.1039;0.0135;-3.4896;
1191441510772349;-7.6896;0.2650;-2.6082;
1191441520877297;-10.2000;1.1130;-2.3276;
1191441530989329;-9.2130;0.0661;-2.2008;
1191441541094172;-9.4693;0.4445;-3.7555;
1191441551199068;-11.3163;0.3153;-3.8154;
1191441561300474;-7.5841;0.4062;-0.3012;
1191441571405422;-6.5803;-0.0631;-2.3710;
1191441581510318;-11.8146;0.0709;-6.0072;
1191441591618443;-12.3296;0.8830;-3.3123;
1191441601723339;-7.1937;1.5945;-0.4714;
1191441611828183;-8.8609;0.9117;-1.9229;
1191441621931204;-11.4841;0.5142;-1.1252;
1191441632036099;-8.6094;0.8183;-1.1922;
1191441642140995;-9.2034;0.9165;-1.9875;
1191441652244537;-8.7051;0.2674;-2.3782;
1191441662349433;-7.7471;0.2602;-4.5724;
1191441672454329;-10.2646;0.5118;-4.0430;
1191441682556620;-9.9915;1.1441;-3.7675;
1191441692661516;-10.1378;1.4100;-3.8369;
1191441702766412;-9.2249;1.5586;-2.3399;
1191441712882766;-9.1005;1.2039;-0.1310;
1191441722987610;-9.6515;1.3549;-2.6393;
1191441733092506;-9.9174;0.6625;-2.1840;
1191441743197349;-10.1545;0.6577;-1.7791;
1191441753294745;-8.6477;0.3823;-1.6235;
1191441763399641;-8.5089;0.4301;-3.0894;
1191441773504537;-8.8035;-0.0730;-3.8512;
1191441783621672;-10.5185;1.1608;-4.1913;
1191441793726516;-10.8634;0.5309;-2.6273;
1191441803831412;-8.1852;0.9715;-1.2882;
1191441813930110;-8.5519;-0.0607;-2.1266;
1191441824035006;-9.9293;0.1594;-2.6919;
1191441834139849;-10.6023;0.7513;-3.2046;
1191441844261256;-10.1402;0.3846;-1.9277;
1191441854366099;-7.1746;0.3846;-1.9445;
1191441864470995;-9.2058;-0.5542;-3.7962;
1191441874552558;-9.9437;0.0517;-3.4107;
1191441884657506;-9.3305;0.1379;-3.4681;
1191441894762349;-9.0861;-0.1783;-1.5156;
1191441904870526;-8.1852;-0.3652;-2.3949;
1191441914975370;-10.0083;-0.1639;-3.1158;
1191441925080266;-10.6552;-0.0200;-1.9373;
1191441935153860;-10.4228;0.2076;-2.2463;
1191441945258704;-9.3257;-0.4226;-1.7432;
1191441955363599;-8.6261;-0.2381;-2.5986;
1191441965492245;-10.5209;-0.7292;-2.4188;
1191441975597193;-10.2024;-0.4322;-3.2405;
1191441985702037;-11.3186;0.3990;-3.0703;
1191441995809954;-8.6261;-0.4561;0.1516;
1191442005914849;-7.4429;-0.9018;-0.6508;
1191442016019745;-11.6611;-0.0631;-4.0143;
1191442026134172;-11.3713;-0.3532;-1.8105;
1191442036239016;-6.8366;0.3679;-1.4797;
1191442046343912;-6.9685;-1.0932;-4.6872;
1191442056469120;-8.9973;-0.3437;-5.2693;
1191442066574068;-9.9580;-0.3915;-4.3137;
1191442076678860;-10.0274;0.0852;-3.9640;
1191442086754693;-10.9140;0.3823;-3.5231;
1191442096859589;-10.3989;0.1929;-0.6413;
1191442106964485;-9.4262;0.2961;0.8079;
1191442117072193;-9.6658;0.3368;-1.7575;
1191442127177089;-9.5486;0.4493;-2.3997;
1191442137281933;-10.2311;0.9021;-2.5409;
1191442147381568;-8.7556;0.1714;-2.3061;
1191442157486464;-7.7830;0.3799;-2.0716;
1191442167591308;-8.9471;-0.5447;-3.6500;
1191442177695891;-9.9604;0.5285;-5.4658;
1191442187800787;-10.6624;0.2985;-2.5481;
1191442197905631;-8.9160;0.2722;-0.1095;
1191442208025266;-7.7997;-0.2166;-2.9746;
1191442218130214;-10.3053;0.7729;-5.0034;
1191442228235006;-9.4382;0.4134;-1.4844;
1191442238323599;-9.6515;0.3296;-1.7695;
1191442248428547;-9.5605;0.5955;-3.2309;
1191442258533339;-9.1412;0.2028;-1.4031;
1191442268668391;-9.2994;0.3272;-1.6810;
1191442278773287;-10.0274;0.4397;-4.4381;
1191442288878131;-9.3473;0.7104;-1.8176;
1191442298975579;-7.2081;0.4926;-0.4208;
1191442309080526;-9.7208;-0.0488;-4.1722;
1191442319185318;-12.4783;0.3942;-3.8106;
1191442329289641;-10.7438;0.6314;-0.6126;
1191442339394537;-7.5793;0.6769;-0.3179;
1191442349499381;-6.8438;-0.0057;-3.6117;
1191442359607349;-9.1938;0.2722;-4.1483;
1191442369712245;-10.9762;0.3942;-3.6814;
1191442379817141;-11.1054;0.8806;-3.7531;
1191442389904276;-10.0828;0.7825;-0.2127;
1191442400009120;-6.4869;-0.4298;0.2976;
1191442410114016;-7.0618;0.3703;-2.8546;
1191442420220006;-12.5166;-0.1567;-5.0563;
