Sensor: bmi160 Accelerometer Non-wakeup
Vendor: BOSCH
TimestampAcc [ns]; AccX [m/s^2]; AccY [m/s^2]; AccZ [m/s^2]
1629816300650410;-9.3185;0.4397;-2.9195;
1629816310774264;-9.2922;0.4759;-3.0224;
1629816320752128;-9.2536;0.3894;-3.0583;
1629816331032493;-9.2297;0.3511;-3.0511;
1629816341010358;-9.2369;0.4181;-3.0583;
1629816351299733;-9.2970;0.5166;-2.9746;
1629816361277597;-9.3305;0.5524;-2.9004;
1629816371469368;-9.3305;0.5788;-2.8717;
1629816381556399;-9.3425;0.5501;-2.9148;
1629816391649264;-9.2779;0.5357;-2.9961;
1629816401778691;-9.2946;0.4711;-3.0057;
1629816411880097;-9.3066;0.4469;-2.9865;
1629816421990358;-9.3329;0.5357;-2.9889;
1629816432085826;-9.3138;0.5429;-2.9172;
1629816442192649;-9.3281;0.5213;-2.9172;
1629816452286556;-9.3185;0.4421;-2.8403;
1629816462404108;-9.3090;0.3464;-2.9363;
1629816472477441;-9.3114;0.1953;-3.1086;
1629816482599316;-9.2584;0.0565;-3.1448;
1629816492694785;-9.2632;0.0159;-3.1158;
1629816502831087;-9.3377;0.0159;-3.0942;
1629816512901972;-9.3425;-0.0200;-2.9818;
1629816523003847;-9.3138;-0.0706;-2.8884;
1629816533111868;-9.3185;-0.1113;-2.9937;
1629816543235462;-9.2803;-0.2500;-3.0344;
1629816553314160;-9.2513;-0.3915;-3.1567;
1629816563409941;-9.2417;-0.3987;-3.3314;
1629816573513795;-9.2827;-0.4059;-3.3673;
1629816583640878;-9.4190;-0.4537;-3.3218;
1629816593721660;-9.4262;-0.4442;-3.1424;
1629816603829889;-9.3233;-0.3218;-2.9435;
1629816613929056;-9.2994;-0.3218;-2.8693;
1629816624061399;-9.2994;-0.4011;-2.9219;
1629816634140722;-9.2707;-0.4490;-3.0583;
1629816644242441;-9.2850;-0.5375;-3.1783;
1629816654343743;-9.3544;-0.5877;-3.2572;
1629816664446972;-9.4286;-0.5590;-3.2668;
1629816674545722;-9.2898;-0.5207;-3.0751;
1629816684660931;-9.1364;-0.4992;-3.0105;
1629816694793639;-9.2273;-0.5016;-3.0799;
1629816704857701;-9.2489;-0.4872;-2.9770;
1629816714965878;-9.2034;-0.3556;-2.8765;
1629816725090514;-9.2369;-0.2070;-2.9554;
1629816735175722;-9.2584;-0.1280;-3.0176;
1629816745334837;-9.2970;0.0063;-3.1639;
1629816755410566;-9.3018;0.1834;-3.1181;
1629816765515670;-9.2297;0.3105;-2.8956;
1629816775592441;-9.1675;0.4158;-2.8837;
1629816785712441;-9.1771;0.6817;-2.9937;
1629816795790358;-9.1484;0.8136;-2.8379;
1629816805914003;-9.1795;0.9476;-2.7494;
1629816816013639;-9.3736;1.1273;-2.7398;
1629816826122285;-9.5124;1.2230;-2.7948;
1629816836237962;-9.5677;1.3813;-2.8765;
1629816846309264;-9.4262;1.6639;-2.6560;
1629816856414264;-9.1699;1.8748;-2.5744;
1629816866522024;-9.0407;1.9825;-2.7278;
1629816876646399;-9.0191;2.0471;-2.8813;
1629816886732285;-9.0526;2.0518;-3.1158;
1629816896825722;-9.1244;2.0734;-3.2931;
1629816906939264;-9.1125;2.0952;-3.2548;
1629816917046972;-9.2441;2.1120;-3.3960;
1629816927138326;-9.2731;2.1646;-3.6404;
1629816937293743;-9.1484;2.1766;-3.6236;
1629816947344576;-8.9925;2.1742;-3.3697;
1629816957462493;-8.7748;2.1096;-2.9004;
1629816967560722;-8.7724;2.0542;-2.6800;
1629816977661451;-9.1388;2.0255;-2.7876;
1629816987767181;-7.9747;4.2631;-10.7791;
1629816997870826;-7.9508;6.9509;-9.1502;
1629817007988014;-8.7218;3.1059;-3.7866;
1629817018082701;-10.0756;0.5883;-1.1898;
1629817028195774;-10.1258;2.5980;0.1780;
1629817038295774;-8.6812;2.6366;-0.6820;
1629817048393431;-8.3315;2.0495;-2.6680;
1629817058498014;-8.9040;0.9547;-3.3912;
1629817068608847;-9.5100;-0.5351;-4.1148;
1629817078708691;-10.0274;-1.3089;-4.4357;
1629817088807806;-9.7256;-1.6705;-3.8584;
1629817098913639;-8.8250;-0.3027;-4.2873;
1629817109017910;-8.3315;0.6410;-4.6681;
1629817119121764;-8.9040;0.0398;-2.4978;
1629817129215566;-9.3640;0.6266;-2.0282;
1629817139321608;-9.3401;1.5296;-3.0775;
1629817149426660;-9.3497;2.9838;-3.7244;
1629817159534264;-8.6716;4.1336;-3.5638;
1629817169639889;-8.1975;4.2631;-3.1998;
1629817179746972;-8.8107;3.7505;-3.2859;
1629817189852024;-9.6826;2.3321;-3.2955;
1629817199948639;-9.9461;1.8652;-3.1998;
1629817210050618;-9.1627;2.1239;-3.3817;
1629817220155201;-8.8202;2.3297;-4.2275;
1629817230262181;-8.6357;2.1383;-3.6165;
1629817240359576;-8.5567;1.9872;-2.8618;
1629817250463847;-8.6692;1.8126;-3.1400;
1629817260562024;-8.8035;2.1861;-4.0334;
1629817270671451;-8.8585;2.4162;-4.2323;
1629817280764160;-9.8240;2.6940;-5.1927;
1629817290872441;-9.9891;3.0700;-4.3424;
1629817300977024;-8.4682;3.2737;-2.8140;
1629817311087389;-8.3076;3.4941;-3.4178;
1629817321190514;-8.5137;3.2354;-3.6571;
1629817331293014;-7.9146;2.3444;-2.9315;
1629817341383274;-8.7341;2.0976;-3.6069;
1629817351490931;-9.7998;2.3970;-3.7866;
1629817361596868;-9.4334;2.4018;-3.5614;
1629817371708118;-9.3281;2.4544;-4.3950;
1629817381823483;-9.5291;2.3611;-4.8239;
1629817391907441;-8.8035;1.5320;-3.5901;
1629817402016972;-8.4344;1.4148;-2.9291;
1629817412114681;-8.2669;1.6831;-3.7579;
1629817422229993;-7.9866;1.1991;-5.5810;
1629817432325618;-8.3937;-0.6048;-6.1128;
1629817442434576;-9.1364;0.0589;-4.8622;
1629817452536972;-10.3941;0.8255;-4.0502;
1629817462638847;-10.4109;0.2506;-1.4366;
1629817472744472;-8.5400;-1.2443;0.6834;
1629817482861295;-8.5831;-0.8779;-2.7111;
1629817492949524;-5.5672;0.6505;-5.9043;
1629817503057181;1.1907;3.5396;-5.2959;
1629817513158535;-6.0559;6.1101;-12.6547;
1629817523256972;-16.3277;4.1599;-26.3593;
1629817533359108;-21.8348;-0.1854;-22.9890;
1629817543483951;-10.4731;-6.1597;-3.2357;
1629817553567441;2.1200;-5.3548;11.0486;
1629817563668847;2.5080;1.2230;5.6180;
1629817573770826;-7.4501;2.3393;-1.7886;
1629817583892649;-12.9739;2.2507;-3.1352;
1629817593983274;-13.6687;2.4664;-8.5633;
1629817604077858;-17.3195;3.7720;-14.4443;
1629817614178118;-11.2229;2.9910;-7.1668;
1629817624314316;0.0072;1.2855;2.1733;
1629817634387389;-0.5868;1.6328;-0.6915;
1629817644492441;-7.6056;1.9011;-7.6361;
1629817654595097;-11.4864;2.2005;-7.6026;
1629817664715618;-11.0192;2.2986;-4.6346;
1629817674866868;-9.8504;2.3970;-5.4395;
1629817684914681;-9.5892;1.5921;-4.4839;
1629817695028431;-7.6128;0.8973;-0.3849;
1629817705135514;-4.9298;2.0952;-0.0903;
1629817715252753;-6.2354;3.2593;-4.3400;
1629817725347753;-8.6524;1.9920;-5.2645;
1629817735470826;-10.6505;1.2517;-3.2261;
1629817745531399;-10.3678;2.1694;-1.8176;
1629817755632337;-8.7724;3.3215;-2.2391;
1629817765740566;-10.9140;2.8041;-1.8176;
1629817775845358;-9.9341;2.0471;0.3553;
1629817785938222;-8.4009;2.8448;-1.0965;
1629817796074524;-8.3507;2.6892;-4.1722;
1629817806142285;-8.9638;1.3310;-2.6489;
1629817816278066;-19.6047;1.3884;-0.8139;
1629817826383691;-13.2015;0.3033;3.0670;
1629817836466660;-10.0828;1.8317;2.7410;
1629817846566764;-11.8959;2.3731;-1.0223;
1629817856685566;-6.2737;2.1000;1.2033;
1629817866776868;-4.0101;1.7094;-0.3060;
1629817876890618;-9.1771;-0.0176;-5.2119;
1629817886985514;-11.5678;-1.4097;-3.2118;
1629817897091556;-10.9020;-2.0396;-0.3969;
1629817907192910;-10.3149;-2.4586;-1.6235;
1629817917294264;-9.7256;-3.9440;-1.7001;
1629817927400149;-7.5529;-5.7670;0.4869;
1629817937514472;-9.7184;-4.3537;-1.4653;
1629817947608639;-10.0107;-2.7942;-2.9650;
1629817957710306;-10.4013;-2.6958;-1.7575;
1629817967812493;-10.9570;-2.1353;-0.0832;
1629817977921451;-8.7075;-0.7866;1.1913;
1629817988027076;-8.0369;-1.3280;-0.9335;
1629817998127597;-11.1990;-0.8827;-3.7914;
1629818008225670;-11.2636;0.0661;-3.2142;
1629818018304212;-8.3865;-0.4226;-1.2787;
1629818028382806;-8.6237;-1.4910;-1.5060;
1629818038544003;-10.0466;-1.7186;-3.2931;
1629818048622545;-11.1365;-1.1988;-3.8297;
1629818058701139;-8.1805;-0.5901;-2.0258;
1629818068849681;-7.4859;-1.9510;-2.1386;
1629818078928222;-12.3990;-2.6695;-3.8560;
1629818089006816;-10.4037;-0.0631;-2.4428;
1629818099158847;-6.3960;-0.6335;-1.6307;
1629818109237389;-10.2263;-1.3687;-2.9578;
1629818119315983;-7.9986;-0.7125;-2.2463;
1629818129471816;-9.0479;-1.5485;-2.9459;
1629818139550358;-14.2268;-1.2586;-5.1401;
1629818149628951;-8.1805;1.1943;-3.2955;
1629818159783587;-4.3597;0.1594;-1.9851;
1629818169862128;-6.7170;-2.2433;-2.0740;
1629818179940722;-12.1451;-3.2444;-1.4031;
1629818190101503;-13.7357;-3.8459;-2.8669;
1629818200180045;-8.9447;-1.3998;-2.4260;
1629818210258639;-5.5361;-0.8755;-2.4476;
1629818220405149;-7.5817;-1.7545;-2.7805;
1629818230483691;-9.2827;-1.9750;-2.8235;
1629818240562285;-11.3952;-1.9678;-2.6919;
1629818250715462;-10.5090;-1.7545;-2.6991;
1629818260794003;-8.6285;-0.8827;-2.5457;
1629818270872597;-8.7891;-0.5710;-1.7360;
1629818281015410;-7.0211;-1.7450;-2.9363;
1629818291094003;-8.0919;-1.8000;-4.1818;
1629818301172597;-12.3392;-0.5351;-2.7829;
1629818311328170;-11.0719;-1.4312;-1.9373;
1629818321406712;-8.0010;-1.4815;-1.6499;
1629818331485306;-6.3410;0.2148;-3.9350;
1629818341629212;-12.0589;0.6099;-4.7617;
1629818351707753;-10.2526;1.4794;-2.6512;
1629818361786347;-7.0857;-0.3891;-2.9889;
1629818371950149;-8.0273;-0.1663;-4.5245;
1629818382028691;-10.2359;1.4818;-5.3557;
1629818392107285;-10.1904;0.9045;-5.6312;
1629818402257441;-7.7423;0.7490;-2.8980;
1629818412335983;-6.0006;-0.0583;-2.2941;
1629818422414576;-9.0670;0.0685;-6.5222;
1629818432575878;-12.6194;2.4903;-7.5093;
1629818442654420;-10.6935;2.0734;-2.6441;
1629818452733014;-10.3244;0.9763;-1.9995;
1629818462917597;-9.4143;1.4459;-3.7364;
1629818472996191;-5.2316;2.2340;-4.9842;
1629818483074785;-10.2718;1.6208;-3.4537;
1629818493190253;-7.9819;-0.0873;-0.5121;
1629818503268795;-7.2368;0.7056;-4.2826;
1629818513347389;-11.9055;1.0484;-8.5155;
1629818523499420;-7.4022;0.1618;-1.3146;
1629818533577962;-5.4736;-0.3242;-2.9315;
1629818543656556;-12.5501;1.6161;-15.0263;
1629818553814316;-16.2870;4.0786;-12.9087;
1629818563892858;-10.3196;0.9332;1.3205;
1629818573971451;-3.8183;-2.1233;6.2698;
1629818584114837;-3.0182;-1.6466;0.2378;
1629818594193378;-5.9695;-0.1472;-3.1301;
1629818604271972;-11.9441;0.0805;-4.4910;
1629818614436139;-14.3465;0.8423;-2.8379;
1629818624514733;-13.9514;0.2483;-2.0043;
1629818634593326;-8.8226;-0.7340;-0.5192;
1629818644780514;-5.3755;-0.1926;-0.6485;
1629818654859108;-5.7586;0.7896;-5.1544;
1629818664937701;-8.0632;1.8126;-7.7728;
1629818675045566;-9.2178;1.5467;-6.9440;
1629818685124160;-12.2291;2.4018;-3.4059;
1629818695202701;-8.0154;1.7596;-0.0497;
1629818705377285;-7.5386;2.2196;-4.5676;
1629818715455878;-11.1126;2.3850;-7.3295;
1629818725534472;-11.2158;1.6041;-4.0884;
1629818735679108;-9.4047;1.9202;-3.2285;
1629818745757649;-8.2765;2.3755;-3.4394;
1629818755836243;-5.5744;1.9705;-2.9506;
1629818765989837;-5.6509;2.3946;-6.1917;
1629818776068378;-9.6251;3.0891;-7.1620;
1629818786146972;-9.3903;2.5454;-4.3376;
1629818796299941;-8.1398;2.6964;-4.1435;
1629818806378483;-9.8575;2.2460;-4.2443;
1629818816457076;-8.7218;2.7395;-1.8296;
1629818826629003;-6.9996;3.1875;-4.3735;
1629818836707545;-10.1785;3.1298;-7.1450;
1629818846786139;-10.6361;3.3550;-3.1496;
1629818856924108;-8.7844;3.0556;-2.2845;
1629818867002649;-5.3827;3.2043;-4.0167;
1629818877081243;-9.0359;2.5190;-6.6060;
1629818887234733;-12.4277;1.2039;-3.5375;
1629818897313274;-7.5769;1.9490;-1.2329;
1629818907391868;-7.9531;1.2254;-5.5953;
1629818917540931;-12.4636;-1.0358;-3.9640;
1629818927619472;-11.1870;-2.2576;1.4163;
1629818937698066;-6.6523;-2.1209;0.9206;
1629818947841556;-6.2426;-3.1893;-3.7747;
1629818957920149;-10.7198;-6.8785;-3.7029;
1629818967998743;-10.6863;-7.1803;-2.2845;
1629818978165878;-11.2182;-6.2797;-2.8956;
1629818988244420;-11.3665;-6.8234;-2.3228;
1629818998323014;-12.4684;-6.6963;-1.9828;
1629819008473847;-8.1924;-4.6938;-0.6389;
1629819018572337;-6.8895;-3.8818;-4.0932;
1629819028670931;-11.8720;-3.5584;-4.5413;
1629819038788535;-7.9050;-3.6446;-2.6967;
1629819048887024;-12.2073;-2.1832;-6.4720;
1629819058985618;-11.5582;-1.5556;-2.1386;
1629819069101451;-5.9910;-0.7244;-3.0990;
1629819079199993;-10.6170;-0.5088;-5.8875;
1629819089298535;-10.0585;-0.2835;-0.4881;
1629819099413118;-7.5314;1.4315;-3.9568;
1629819109511660;-9.5868;1.1465;-6.3114;
1629819119610201;-12.8758;-0.7675;-2.6728;
1629819129717545;-8.3219;-0.1926;-1.4318;
1629819139816035;-4.9825;-0.2500;-2.9961;
1629819149914576;-7.4668;-0.5566;-4.3041;
1629819160034264;-11.5032;0.0661;-3.5949;
1629819170132753;-12.2818;-0.6383;-3.7986;
1629819180231295;-9.4502;0.2267;-2.5887;
1629819190355201;-7.8954;0.3966;-3.4513;
1629819200453743;-7.2200;-0.3123;-2.7039;
1629819210552285;-7.4716;0.1235;-2.9913;
1629819220657285;-10.4994;-0.2500;-4.6466;
1629819230755826;-12.7825;1.2832;-3.8776;
1629819240854368;-10.1378;1.8772;-1.5422;
1629819250968222;-5.4401;2.4544;-2.2893;
1629819261066764;-10.3439;1.6902;-3.1400;
1629819271165306;-8.0943;1.9896;-2.1338;
1629819281293483;-10.4779;3.0269;-5.0731;
1629819291392076;-9.1531;2.8400;-2.5385;
1629819301490566;-7.0690;2.5478;-4.2227;
1629819311577910;-9.5892;0.1666;-5.2047;
1629819321676399;-8.4153;1.2254;-3.0033;
1629819331774993;-9.3568;1.9178;-3.8106;
1629819341956139;-10.7964;1.3621;-4.6322;
1629819352054628;-8.5591;1.1608;-3.2716;
1629819362153222;-8.2573;0.4086;-3.6188;
1629819372208378;-7.1865;0.4301;-3.5590;
1629819382306868;-8.4849;-0.0754;-3.0272;
1629819392405410;-13.1297;1.3813;-3.3075;
1629819402522493;-11.3785;1.0819;-1.8846;
1629819412621035;-6.3936;1.0819;-3.5447;
1629819422719524;-5.8810;0.4349;-3.7077;
1629819432828431;-8.0393;0.2554;-4.1961;
1629819442926972;-12.0206;0.1786;-5.3844;
1629819453025514;-8.6955;1.6926;-2.8331;
1629819463128378;-6.8656;1.5081;-3.7962;
1629819473226920;-10.6193;0.8566;-4.4572;
1629819483325462;-8.4224;1.3334;-3.0033;
1629819493456868;-9.4860;0.5309;-4.9579;
1629819503555358;-10.3149;0.6147;-2.8403;
1629819513653899;-8.4607;0.0111;-2.3471;
1629819523762493;-9.9556;1.5945;-4.0837;
1629819533861035;-8.9447;0.6338;-2.1075;
1629819543959524;-9.5342;1.3741;-3.3434;
1629819554077701;-9.7208;1.0053;-2.5457;
1629819564176243;-8.6070;1.6902;-2.4093;
1629819574274785;-9.3760;0.7442;-3.0823;
1629819584373535;-8.2454;0.8734;-3.7579;
1629819594472076;-9.6993;0.2195;-4.3687;
1629819604570566;-9.6969;0.6673;-3.8584;
1629819614693899;-9.7591;0.0470;-3.0990;
1629819624792389;-8.4033;0.6410;-3.5710;
1629819634890931;-9.0909;-0.0706;-3.7819;
1629819644997233;-9.8049;0.8160;-3.1974;
1629819655095774;-10.6122;0.1379;-2.3157;
1629819665194264;-8.1805;0.4014;-2.2463;
1629819675311243;-7.9531;-0.0344;-2.5265;
1629819685409837;-9.6012;0.0805;-3.9520;
1629819695508326;-10.0585;0.3655;-3.1277;
1629819705616972;-8.6429;-0.0826;-2.3013;
1629819715715514;-9.4884;-0.3796;-4.8814;
1629819725814056;-9.4167;-0.5782;-4.1650;
1629819735951191;-8.8896;-0.2596;-2.4380;
1629819746049733;-7.3421;-0.0416;-2.8570;
1629819756148222;-8.7003;0.5070;-3.7388;
1629819766235826;-9.5438;0.1618;-5.0587;
1629819776334316;-9.9676;0.6218;-4.3184;
1629819786432858;-7.8835;0.6266;-4.8431;
1629819796556972;-10.5927;0.7175;-4.3711;
1629819806655514;-10.1210;-0.1831;-3.1950;
1629819816754003;-7.8858;0.6242;-3.8058;
1629819826894212;-9.7831;1.5993;-4.3735;
1629819836992753;-9.0455;0.7490;-4.0645;
1629819847091295;-8.3818;1.4913;-4.9029;
1629819857175462;-9.7711;1.1656;-4.9412;
1629819867274003;-10.4181;0.9954;-4.5126;
1629819877372493;-8.2430;0.8949;-3.3505;
1629819887490931;-8.2597;0.7128;-5.0157;
1629819897589472;-9.9030;1.2975;-5.4108;
1629819907688014;-9.4023;0.9595;-3.0440;
1629819917796868;-9.1292;0.4014;-2.9746;
1629819927895358;-8.8585;1.2565;-3.7077;
1629819937993951;-8.7194;1.1943;-4.2251;
1629819948119889;-10.4707;0.7777;-3.8656;
1629819958218483;-10.7414;0.1044;-1.9684;
1629819968317024;-9.4382;-0.7196;-2.1338;
1629819978422128;-8.7509;-0.0607;-3.3625;
1629819988520618;-8.4488;0.3392;-4.3543;
1629819998619212;-8.6955;0.4325;-3.7938;
1629820008733118;-9.8551;0.7418;-3.6117;
1629820018835722;-9.8216;0.2052;-2.2989;
1629820028938326;-9.7998;-0.4322;-2.8813;
1629820039041191;-9.7567;0.1690;-2.9363;
1629820049143795;-8.3411;0.8590;-2.7087;
1629820059246399;-7.8069;0.8638;-3.0440;
1629820069353014;-7.7351;1.1465;-4.4934;
1629820079455618;-11.5319;1.0149;-4.1985;
1629820089558222;-10.2455;0.5812;-2.5098;
1629820099663431;-10.3582;0.0733;-1.9516;
1629820109766035;-9.4167;0.2315;-1.9373;
1629820119868639;-8.4535;0.2985;-1.9014;
1629820129973535;-7.9340;1.3310;-4.2108;
1629820140076139;-11.8241;1.3932;-5.3509;
1629820150178743;-11.2205;-0.6574;-1.2042;
1629820160285514;-9.0311;0.2674;-1.1659;
1629820170388118;-8.1135;0.7920;-3.1086;
1629820180490722;-8.5543;0.8112;-3.8800;
1629820190603795;-7.7231;0.5118;-3.6380;
1629820200706399;-5.7108;0.4421;-3.9449;
1629820210809056;-9.8145;1.2230;-4.6896;
1629820220906556;-12.5907;1.0125;-3.3075;
1629820231009160;-8.9853;-0.4394;-1.2281;
1629820241111764;-1.7414;0.5835;-3.0200;
1629820251218951;-4.8987;2.5573;-8.5681;
1629820261321556;-23.4760;0.4807;-4.1841;
1629820271424160;-24.6616;-4.4231;7.7572;
1629820281525618;-6.4726;-3.6565;8.1287;
1629820291628222;-2.4529;4.8595;-3.4872;
1629820301730878;-9.5892;5.2666;-9.6509;
1629820311841608;-11.0408;-1.1243;-2.2032;
1629820321944212;-8.1685;-0.3939;-0.7469;
1629820332046816;-7.4213;2.5310;-2.7087;
1629820342152493;-6.4223;1.6089;-3.3314;
1629820352255149;-6.4726;1.2637;-6.9990;
1629820362357753;-9.1412;0.8207;-8.0842;
1629820372459889;-8.8418;-1.0597;-4.4285;
1629820382562493;-9.6156;-2.7006;-1.9540;
1629820392665097;-8.4488;-1.8742;-2.9459;
1629820402775201;-7.9723;-0.9233;-6.3066;
1629820412877806;-8.3483;-0.6646;-5.3892;
1629820422980410;-7.7040;-1.6083;-3.1687;
1629820433077285;-10.3340;-1.1148;-3.2955;
1629820443179889;-10.0851;-0.9497;-1.3504;
1629820453282493;-7.6056;0.3081;-1.5972;
1629820463393066;-7.9170;1.0268;-4.2897;
1629820473495722;-10.4779;0.7247;-4.6944;
1629820483598326;-10.8996;-0.8106;-5.6001;
1629820493709056;-12.0565;0.2746;-0.9168;
1629820503811712;-3.7083;-1.0908;-0.5384;
1629820513914316;-6.7935;-2.9067;-9.2219;
1629820524011764;-13.9896;-2.1640;-12.7986;
1629820534114368;-13.5272;-2.9402;-7.8326;
1629820544216972;-9.5845;-4.0804;-1.7192;
1629820554322285;-9.0790;-3.7403;-0.8139;
1629820564424889;-9.4262;-2.1520;1.1384;
1629820574527493;-9.0215;-0.3003;-0.4017;
1629820584637441;-10.1067;2.5765;-1.9373;
1629820594740045;-8.2741;2.7275;-1.1898;
1629820604842649;-7.5721;1.7859;-1.8918;
1629820614949941;-8.5232;0.9835;-2.4069;
1629820625052545;-10.2096;0.0996;-3.2213;
1629820635155201;-11.9318;0.1164;-3.1038;
1629820645260097;-8.5783;-0.4848;-3.6571;
1629820655362701;-8.3291;-0.6239;-4.1794;
1629820665465358;-7.0810;-0.7986;-4.2491;
1629820675567806;-8.3435;-0.7890;-5.6288;
1629820685670410;-9.0191;-0.8297;-5.5738;
1629820695773014;-8.6907;-0.7172;-4.7833;
1629820705919524;-9.3712;0.0565;-3.3888;
1629820716022181;-10.0681;-0.3170;-3.2094;
1629820726124733;-9.4741;-0.1759;-1.5350;
1629820736214785;-7.4501;0.6027;-3.1567;
1629820746317389;-8.6979;0.4660;-4.0573;
1629820756419993;-9.8982;0.3511;-3.7962;
1629820766497076;-9.9509;0.5477;-1.8751;
1629820776599681;-9.3281;0.5907;-2.0378;
1629820786702285;-9.2683;0.0996;-2.2798;
1629820796818691;-10.9522;-0.7842;-3.6694;
1629820806921295;-10.7797;0.4325;-2.0521;
1629820817023899;-9.2249;-0.2477;-1.3313;
1629820827121139;-9.2345;-0.2548;-1.4055;
1629820837223743;-8.6477;0.2483;-3.1998;
1629820847326347;-9.1436;0.1427;-2.4045;
1629820857436868;-10.2359;0.3703;-2.4212;
1629820867539472;-10.4468;0.0374;-2.5911;
1629820877642076;-10.3846;0.4277;-2.8427;
1629820887746764;-9.1986;0.7247;-1.8583;
1629820897849368;-9.1723;-0.3266;-3.3912;
1629820907951972;-9.3353;0.5429;-3.1950;
1629820918068535;-10.6337;-0.0511;-2.2630;
1629820928171139;-7.3325;0.1068;-2.7613;
1629820938273743;-6.1277;0.1331;-4.0980;
1629820948363431;-8.0130;-0.3365;-3.9568;
1629820958466035;-10.3534;-0.7531;-4.9723;
1629820968568639;-10.0561;-0.6096;-4.3448;
1629820978675514;-7.9914;-0.6933;-2.5361;
1629820988778118;-7.8954;-1.3113;-3.5782;
1629820998880722;-11.1126;-1.3926;-4.1195;
1629821008991295;-10.0322;-1.3089;-2.8980;
1629821019094733;-10.0179;-1.0167;-1.8464;
1629821029198170;-9.0168;-1.4695;-3.3936;
1629821039300722;-7.1530;-1.5126;-3.1567;
1629821049404108;-8.2549;-1.2754;-3.3051;
1629821059507545;-7.4501;-1.3256;-3.1759;
1629821069614420;-10.6505;-0.9616;-4.1028;
1629821079717858;-14.4664;-1.1844;-3.2453;
1629821089821295;-11.2804;-0.7364;-1.2185;
1629821099919889;-8.3507;-0.6646;-2.3252;
1629821110023326;-11.1679;-1.1677;-2.7111;
1629821120126764;-11.1535;-0.8417;-1.7240;
1629821130231868;-6.7505;-0.5734;-1.1707;
1629821140335253;-7.1169;-0.3027;-4.4285;
1629821150438691;-7.9316;-0.3003;-4.2347;
1629821160544160;-9.8910;0.1714;-3.1400;
1629821170647545;-12.0278;1.1465;-2.1434;
1629821180750983;-9.5581;1.2517;-2.2750;
1629821190872806;-7.9241;0.3799;-3.3817;
1629821200976243;-6.4845;0.0996;-3.8154;
1629821211079681;-8.2358;0.2722;-4.8311;
1629821221172545;-8.9495;0.2435;-4.2658;
1629821231275983;-11.2540;1.0795;-3.9449;
1629821241379420;-11.0145;0.5142;-4.0119;
1629821251482753;-8.9662;-0.0730;-2.2654;
1629821261586191;-8.6022;1.2661;-1.6307;
1629821271689628;-8.1517;1.7812;-1.7985;
1629821281802858;-5.9599;0.2148;-3.1253;
1629821291906295;-7.8188;0.4783;-6.4050;
1629821302009681;-10.7127;0.5812;-5.5065;
1629821312097389;-12.5189;1.6376;-2.2295;
1629821322200774;-11.4577;1.3597;-2.2510;
1629821332304212;-10.1809;0.6649;-3.6885;
1629821342438587;-7.1650;-0.2644;-2.5409;
1629821352542024;-8.9040;-0.1615;-1.0104;
1629821362645410;-9.1244;2.0686;-2.3901;
1629821372719056;-10.2191;1.7620;-3.0057;
1629821382822493;-6.7528;1.4770;-3.3769;
1629821392925931;-7.3277;0.1666;-4.5508;
1629821403026347;-11.0743;-0.0631;-5.1066;
1629821413129733;-14.9432;1.5419;-2.3925;
1629821423233170;-14.1455;1.9609;1.2679;
1629821433341556;-7.9890;1.0196;-0.6700;
1629821443444993;-4.4148;-0.7675;-3.3434;
1629821453548431;-7.7782;-1.5867;-4.5867;
1629821463670462;-11.9967;0.0589;-4.7136;
1629821473773899;-7.8428;1.0316;-2.6058;
1629821483877285;-9.3138;1.4626;-2.9195;
1629821493961347;-11.4984;1.2637;-2.9148;
1629821504064733;-8.4778;0.4926;-1.0702;
1629821514168170;-8.3483;0.8064;-2.5122;
1629821524270826;-9.4382;-0.9138;-5.3294;
1629821534374212;-9.4789;-1.7139;-5.9641;
1629821544477649;-10.1665;-0.6215;-3.0894;
1629821554580149;-10.8443;-1.3089;-1.0750;
1629821564683587;-5.9384;0.0039;-2.6536;
1629821574786972;-5.5337;-0.8154;-5.0133;
1629821584909628;-9.5100;-1.5939;-5.1832;
1629821595013066;-12.4660;-0.0272;-1.6259;
1629821605116503;-8.8418;0.2171;-1.5972;
1629821615209993;-9.0718;-1.4073;-5.4849;
1629821625313431;-10.3316;-2.2361;-5.0539;
1629821635416816;-10.1091;-2.3916;-3.6667;
1629821645515253;-9.4286;-1.3783;-2.0668;
1629821655618691;-8.7820;-0.8225;-2.0907;
1629821665722076;-7.3062;-0.1711;-3.2333;
1629821675819681;-9.5267;-0.1232;-2.4547;
1629821685923066;-11.2110;0.1881;-2.2941;
1629821696026451;-7.2918;0.8399;-1.4557;
1629821706130826;-7.6609;0.1786;-4.1530;
1629821716234212;-11.5630;-0.9544;-4.9125;
1629821726337649;-11.6348;-0.0754;-1.7216;
1629821736449420;-10.0298;-0.3437;-2.6201;
1629821746552858;-7.4022;-0.0754;-2.9841;
1629821756656295;-6.9470;-0.2979;-3.0129;
1629821766767545;-9.0694;-0.2309;-4.7136;
1629821776870983;-11.3234;1.2063;-1.2930;
1629821786974420;-9.7783;0.8375;-1.6044;
1629821797079212;-8.9877;1.1369;-3.1158;
1629821807182649;-9.4214;0.4253;-3.0200;
1629821817286087;-9.8599;0.1187;-3.0416;
1629821827417962;-8.7194;0.6912;-2.3518;
1629821837521399;-8.6788;0.2698;-3.6523;
1629821847624785;-9.6467;0.7753;-2.6058;
1629821857727024;-8.8801;1.5443;-2.0186;
1629821867830462;-9.0885;0.8758;-3.0607;
1629821877933847;-10.6074;0.9045;-2.8669;
1629821888011191;-11.1054;1.2494;-2.4882;
1629821898114628;-9.2225;1.3693;-1.5470;
1629821908218066;-9.7759;0.2913;-3.9182;
1629821918337649;-9.4813;0.1881;-2.9770;
1629821928441087;-7.1722;-0.0607;-3.4178;
1629821938544524;-6.5013;0.6553;-3.8728;
1629821948620201;-8.4129;-0.2022;-5.6671;
1629821958723587;-11.2014;0.0733;-3.5112;
1629821968826972;-9.2632;0.7032;-3.2189;
1629821978937233;-7.6128;-0.3915;-3.3171;
1629821989040670;-8.5902;-0.3891;-4.9292;
1629821999144056;-9.2321;-0.7603;-4.0382;
1629822009254003;-8.9495;-0.0129;-3.5686;
1629822019357649;-6.3529;-0.8010;-2.9387;
1629822029461243;-7.8571;-0.3604;-4.2706;
1629822039554472;-12.6075;-0.5183;-2.5457;
1629822049658066;-13.1704;0.3703;-1.3887;
1629822059761660;-8.1709;0.1546;-1.3313;
1629822069869889;-7.4357;-0.5806;-2.6034;
1629822079973535;-10.3340;-1.3639;-4.7665;
1629822090077128;-12.2315;-1.2371;-3.1448;
1629822100180774;-7.5697;-1.1940;-2.4787;
1629822110284420;-3.1143;-1.4838;-3.4777;
1629822120388014;-7.9914;-1.3998;-6.0841;
1629822130493795;-13.3932;-0.6550;-3.3864;
1629822140597441;-8.6142;-0.2022;-0.3826;
1629822150701035;-3.2004;0.0135;-3.5471;
1629822160804837;-9.5219;-0.1041;-5.8421;
1629822170908483;-19.0514;-1.4288;-1.6953;
1629822181012076;-13.4483;0.5453;2.9495;
1629822191123639;-2.3118;1.1776;-1.6666;
1629822201227285;-3.5548;0.6242;-3.7819;
1629822211330878;-10.6672;-0.3485;-3.0200;
1629822221434316;-30.2839;-0.5040;2.3052;
1629822231537962;-21.1331;2.5214;2.7218;
1629822241641556;4.6496;3.0724;1.0211;
1629822251737337;2.3261;-1.0430;-2.3566;
1629822261840983;-9.0431;-1.8072;-8.1009;
1629822271944576;-11.2373;-1.6035;-8.4987;
1629822282036191;-8.8777;-0.6909;-4.4429;
1629822292139837;-8.5496;0.2554;-3.6332;
1629822302243431;-6.8510;0.9906;-4.7207;
1629822312356556;-4.1946;-0.1472;-3.6814;
1629822322460149;-7.6992;-0.0511;-5.8971;
1629822332563743;-13.6926;0.6745;-4.9914;
1629822342684316;-9.5315;1.2661;1.4091;
1629822352787962;-3.7250;0.9978;-0.8617;
1629822362891556;-11.8600;-0.8584;-9.6365;
1629822372978535;-16.4713;-0.3147;-5.2238;
1629822383082128;-10.5329;1.7309;4.2263;
1629822393185722;-3.2124;1.0842;3.1795;
1629822403286035;-4.3741;-2.1114;-7.6914;
1629822413389628;-19.2311;-5.5011;-16.2000;
1629822423493274;-20.6085;-3.4146;-5.4323;
1629822433605253;-4.1704;-1.8455;10.3971;
1629822443708899;-1.6457;-0.4872;2.9590;
1629822453812493;-7.9508;0.6864;-7.1596;
1629822463946191;-12.8351;0.9763;-3.3051;
1629822474049837;-12.2049;1.8508;1.1674;
1629822484153431;-9.3879;3.1083;0.2737;
1629822494215306;-7.5960;1.9681;-2.5648;
1629822504318899;-8.2502;0.9978;-2.2510;
1629822514422493;-8.5352;0.8495;-2.5504;
1629822524528899;-9.3951;-0.2166;-4.0190;
1629822534632493;-8.4873;0.4158;-4.4381;
1629822544736139;-8.3554;-0.2740;-4.9555;
1629822554871295;-9.9221;-1.0047;-5.7197;
1629822564974941;-8.1111;-1.5389;-4.7498;
1629822575078535;-10.2287;-2.2504;-5.0779;
1629822585132285;-12.8399;-2.1042;-4.2921;
1629822595235878;-11.1607;-1.0908;-1.3576;
1629822605339472;-8.1661;-1.2084;-1.1611;
1629822615472076;-9.8121;-0.8345;-2.5911;
1629822625575722;-10.8757;0.1403;-1.1515;
1629822635679368;-7.6439;-0.0105;-0.7035;
1629822645779941;-5.5337;0.4253;-2.1194;
1629822655883587;-10.1378;-1.1557;-3.9278;
1629822665987181;-14.0880;-0.5399;-4.2586;
1629822676097441;-10.2981;-0.2764;-2.3109;
1629822686201035;-7.0905;-1.4097;-2.3061;
1629822696304681;-8.5304;-1.3232;-3.8800;
1629822706423691;-10.7629;-0.6479;-3.8943;
1629822716527337;-9.7089;-0.2333;-2.0091;
1629822726630931;-8.2669;-0.3485;-2.8789;
1629822736710983;-11.5319;0.0709;-3.5518;
1629822746814628;-10.4827;0.1977;-2.3276;
1629822756918222;-7.2918;-0.4346;-2.3276;
1629822767011972;-8.9279;-1.4791;-5.1927;
1629822777115566;-11.1847;-0.7029;-4.1650;
1629822787219160;-11.5893;-2.0850;-2.8307;
1629822797324889;-10.9953;-1.1749;-3.0033;
1629822807428483;-8.4416;-0.2692;-2.7613;
1629822817532076;-9.4023;-1.4216;-1.9229;
1629822827649003;-9.4789;-0.1065;-2.7063;
1629822837752649;-9.3353;0.2770;-2.0019;
1629822847856243;-8.9303;-0.4681;-2.0450;
1629822857951139;-9.0311;0.3799;-2.6441;
1629822868054733;-9.6610;-0.2285;-2.7326;
1629822878158326;-7.8978;-0.8560;-3.6718;
1629822888261556;-8.3937;-0.5471;-5.0994;
1629822898365149;-9.7400;-0.9042;-4.7880;
1629822908468743;-10.6361;-0.9975;-3.6838;
1629822918570201;-9.5004;-0.4944;-3.5806;
1629822928673795;-8.3076;-0.8034;-4.0358;
1629822938777389;-8.6189;-0.4250;-3.3505;
1629822948883066;-9.4310;0.1020;-2.9148;
1629822958986712;-9.0407;0.1905;-3.0248;
1629822969090306;-10.3702;-0.3194;-4.1865;
1629822979192701;-10.4348;0.4134;-3.1615;
1629822989296295;-9.9006;0.4493;-1.4725;
1629822999399889;-8.4177;0.3416;-2.5385;
1629823009505983;-8.5902;0.3416;-2.9746;
1629823019609576;-9.5438;0.6529;-2.7063;
1629823029713118;-9.0957;0.5213;-2.4356;
1629823039813639;-12.0613;1.9729;-2.4045;
1629823049917181;-11.7715;1.1536;-2.4978;
1629823060020774;-10.6337;0.3009;-1.2090;
1629823070126660;-8.4512;1.0938;-1.0343;
1629823080230201;-6.6476;-0.1998;-2.8475;
1629823090333743;-9.2417;0.0948;-3.9063;
1629823100438274;-9.1866;0.3464;-3.0966;
1629823110541816;-8.4177;0.5429;-3.0176;
1629823120645410;-9.2632;-0.0873;-4.5676;
1629823130744160;-6.3266;-0.2046;-4.2156;
1629823140847701;-6.3072;-0.0033;-3.8728;
1629823150951243;-9.4693;-0.5590;-3.8584;
1629823161070253;-11.1703;-0.4753;-3.5806;
1629823171173847;-11.7284;-0.2955;-2.2319;
1629823181277389;-9.6658;-0.8249;-1.0152;
1629823191390045;-6.7385;-0.6096;-2.2726;
1629823201493639;-8.0417;-0.4346;-3.3529;
1629823211597181;-8.0369;-0.9688;-3.7795;
1629823221688587;-9.5124;-1.8479;-4.5461;
1629823231792181;-7.3205;-0.8755;-4.5389;
1629823241895774;-9.3305;-1.5389;-4.1483;
1629823251995253;-11.7188;-1.3543;-3.7914;
1629823262098847;-11.4697;-0.8034;-2.5074;
1629823272202389;-10.3941;-0.8608;-1.8296;
1629823282338587;-9.9054;0.2076;-1.0965;
1629823292442181;-12.4277;0.4181;-0.2605;
1629823302545722;-13.2637;0.5213;0.7672;
1629823312618170;-8.5232;1.4961;1.6271;
1629823322721764;-3.1358;0.2626;-2.0139;
1629823332825306;-4.1656;-0.2500;-5.7556;
1629823342939212;-5.2196;-0.1424;-7.6289;
1629823353042753;-9.1531;1.3645;-7.8996;
1629823363146347;-12.1666;0.8901;-3.9760;
1629823373241816;-13.1201;-0.2429;-1.4079;
1629823383345410;-8.7290;0.0350;-2.1888;
1629823393448951;-7.7088;0.2913;-3.9278;
1629823403543951;-8.5424;0.1738;-1.3122;
1629823413647493;-7.3684;0.8973;-1.4127;
1629823423751087;-7.7686;0.9404;-4.5150;
1629823433860566;-9.3712;0.6075;-5.9880;
1629823443964160;-10.1809;0.5046;-2.7302;
1629823454067753;-7.9074;0.5094;-1.7719;
1629823464164472;-9.4860;-0.5758;-5.3988;
1629823474268014;-11.5558;-0.8680;-5.9665;
1629823484371556;-11.0599;-0.2835;-1.2787;
1629823494485149;-9.5510;-0.5327;0.5683;
1629823504588743;-7.5434;0.3990;0.4510;
1629823514692285;-6.2378;1.1369;-0.8139;
1629823524826087;-7.9843;1.2470;-1.8033;
1629823534929681;-10.6481;0.9619;-2.8693;
1629823545033222;-14.7634;1.1800;-3.7986;
1629823555094368;-14.8472;0.5979;-1.5494;
1629823565197962;-10.9666;-0.7436;-1.3600;
1629823575301451;-9.6993;-1.6442;-2.8765;
1629823585448483;-9.3162;-0.5710;-2.8789;
1629823595552076;-7.0929;-1.2179;-0.4977;
1629823605655618;-7.5625;0.8231;-2.4212;
1629823615712962;-8.7171;0.9715;-3.7244;
1629823625816556;-8.6189;1.2182;-3.5686;
1629823635920149;-6.4941;1.6448;-3.7340;
1629823646041191;-7.3493;0.2100;-5.3055;
1629823656144785;-8.7580;1.0555;-4.8742;
1629823666248378;-8.5208;0.3799;-4.1387;
1629823676365358;-9.0909;-0.4226;-3.4226;
1629823686468951;-10.1856;0.5118;-2.5433;
1629823696572545;-11.0695;0.1953;-1.9588;
1629823706653795;-10.9594;-0.5016;-2.7709;
1629823716757337;-10.3149;-1.2156;-5.2744;
1629823726860931;-10.6289;-1.9822;-4.8670;
1629823736970670;-10.0298;-2.1305;-2.4906;
1629823747074264;-8.3004;-1.8120;-1.3935;
1629823757177858;-8.8298;-1.5437;-2.3495;
1629823767291087;-9.8049;-0.8130;-2.1410;
1629823777394681;-7.9484;0.6936;-2.0883;
1629823787498222;-7.8428;0.0829;-2.6321;
1629823797586764;-10.3511;0.8255;-2.1218;
1629823807690306;-12.3918;0.5740;-0.5121;
1629823817793847;-11.4721;0.6673;-0.1334;
1629823827916139;-7.8858;0.3727;-1.8655;
1629823838019733;-6.5396;0.4086;-3.2788;
1629823848123274;-7.6558;-0.1280;-4.0765;
1629823858213014;-9.6156;-0.6072;-5.5905;
1629823868316556;-12.1714;-0.1280;-6.2133;
1629823878420097;-10.6457;-0.6933;-3.2453;
1629823888529420;-8.6907;-1.7737;-2.2032;
1629823898633014;-11.7882;-1.1533;-3.6428;
1629823908736556;-8.1999;-0.4250;-1.6379;
1629823918834108;-6.9111;0.1187;-1.4079;
1629823928937701;-9.6467;0.6888;-3.2285;
1629823939041243;-12.3105;0.9882;-2.5313;
1629823949174316;-9.0000;0.2483;0.4893;
1629823959277910;-7.2248;-0.0153;-1.7838;
1629823969381451;-11.7380;-0.0320;-5.0157;
1629823979464941;-12.4253;-0.4992;-2.9100;
1629823989568535;-9.6873;-0.3194;-1.9229;
1629823999672128;-6.9302;-0.8680;-2.2510;
1629824009790201;-8.6692;-1.0621;-4.5413;
1629824019893951;-10.2096;-0.0153;-4.3759;
1629824029997806;-8.9016;0.1666;-3.1591;
1629824040086035;-7.3469;-0.1998;-3.1181;
1629824050189837;-6.7409;0.3990;-4.7016;
1629824060293587;-8.7413;-1.1892;-4.8096;
1629824070402701;-9.0718;-0.0440;-4.8718;
1629824080506451;-9.6084;-0.0559;-2.6824;
1629824090610306;-10.0346;-0.6502;-2.2271;
1629824100697389;-10.0083;0.1403;-3.3194;
1629824110801191;-10.7797;-0.1232;-3.0320;
1629824120904993;-9.2201;-0.7412;-2.0378;
1629824131011868;-6.5109;-0.5686;-2.6130;
1629824141115618;-9.7376;-1.3280;-4.9484;
1629824151219472;-10.3582;-0.6861;-4.3687;
1629824161323222;-9.1196;-0.8731;-1.6522;
1629824171427024;-9.6060;-0.7460;-1.2595;
1629824181530826;-8.3650;0.1427;-2.8379;
1629824191651243;-8.3770;-0.3700;-2.2510;
1629824201755045;-6.9422;0.4469;-2.1936;
1629824211858847;-9.3784;-0.0081;-2.5839;
1629824221944785;-12.2459;0.9715;-2.8642;
1629824232048535;-12.6171;0.1810;-0.1669;
1629824242152389;-5.6821;0.5477;-1.0271;
1629824252246816;-7.2440;-0.8273;-5.7126;
1629824262350618;-12.0589;-1.1100;-5.0803;
1629824272454420;-7.6439;-0.2118;-2.3252;
1629824282564941;-5.4927;-0.5447;-2.2247;
1629824292668743;-10.6600;-0.6431;-5.2023;
1629824302772545;-13.9418;-0.0248;-4.1507;
1629824312867701;-11.1197;0.6817;0.5539;
1629824322971451;-6.7146;0.1020;-0.5575;
1629824333075306;-9.5219;-0.1448;-4.1865;
1629824343191608;-10.3196;0.2818;-2.6489;
1629824353295410;-9.6347;0.0661;-1.1372;
1629824363399264;-10.0923;0.9835;-2.0883;
1629824373490774;-7.8069;0.3081;-2.9411;
1629824383594576;-4.2233;-0.4633;-4.3615;
1629824393698431;-6.0727;-1.6585;-7.9789;
1629824403805306;-7.6199;-0.3461;-6.6757;
1629824413909108;-1.8733;1.1512;-4.2538;
1629824424012910;-10.2957;-0.3604;-6.8169;
1629824434111503;-31.6277;1.0699;-2.3228;
1629824444215358;-21.0299;3.0820;9.6329;
1629824454319108;1.3702;1.1273;5.2469;
1629824464423899;3.3969;-2.7488;-9.9981;
1629824474527753;-2.9297;-5.8149;-9.6580;
1629824484631556;-8.7604;-1.4049;-6.8889;
1629824494787441;-17.0752;2.6844;-5.0539;
1629824504891295;-17.8466;2.8663;2.0177;
1629824514995097;-10.2670;0.7175;4.2742;
1629824525033847;-5.4377;-1.7426;-2.8693;
1629824535137649;-7.3493;-2.6743;-6.6326;
1629824545241451;-10.3077;0.7370;-0.3299;
1629824555373431;-5.7754;2.8519;2.7362;
1629824565477285;-8.2190;1.3549;-3.8369;
1629824575581087;-9.0263;2.5597;-3.1325;
1629824585682024;-1.8661;1.5849;-5.0922;
1629824595785826;-15.0245;-1.8479;-18.1956;
1629824605889628;-17.3076;-1.1195;-9.3754;
1629824616005358;-8.3698;-1.5317;7.5969;
1629824626109160;-3.1980;-0.2859;5.5845;
1629824636212962;-6.4439;2.0761;-3.5518;
1629824646318274;-10.8108;0.9715;-5.8134;
1629824656422076;-7.6080;-0.4801;-3.1591;
1629824666525878;-8.1685;1.3693;-4.0597;
1629824676632545;-10.8180;0.9571;-4.6370;
1629824686736347;-10.3125;0.1307;-2.1793;
1629824696840201;-6.3841;-0.0559;-1.2042;
1629824706949733;-10.9929;-0.2333;-4.9507;
1629824717053535;-12.7896;0.2076;-2.7781;
1629824727157337;-9.9796;1.5945;2.3435;
1629824737233431;-9.3138;0.9045;-0.7828;
1629824747337233;-8.6572;0.0063;-2.4117;
1629824757441035;-9.0814;0.8423;-2.9530;
1629824767542024;-11.6420;0.1307;-3.8106;
1629824777645774;-12.8375;2.2819;-0.7995;
1629824787749628;-7.5553;0.7848;0.9350;
1629824797854681;-7.4213;-0.1496;-4.4333;
1629824807958483;-10.6887;0.9141;-4.3902;
1629824818062285;-10.1641;0.3368;-1.4725;
1629824828164160;-7.1001;2.2651;-1.2954;
1629824838267910;-7.8117;1.4961;-3.2572;
1629824848371764;-10.7677;0.8255;-5.9545;
1629824858471972;-10.8924;1.6591;-1.7240;
1629824868575774;-8.6285;1.0651;-3.1352;
1629824878679576;-8.6166;-0.0511;-4.8885;
1629824888784472;-8.7075;-0.3604;-4.4453;
1629824898888274;-10.3582;-0.0754;-3.1472;
1629824908992076;-10.1330;0.6553;-2.1745;
1629824919111503;-8.0584;-0.0778;-3.4992;
1629824929215306;-8.1975;-0.5566;-3.3242;
1629824939319160;-10.6624;-0.4920;-4.5293;
1629824949430983;-10.7533;0.4421;-0.5767;
1629824959534837;-8.8059;-0.2979;-2.1290;
1629824969638639;-7.8691;0.4469;-4.3543;
1629824979729368;-10.1282;0.0541;-3.2812;
1629824989833170;-10.2526;0.2411;-2.0740;
1629824999936972;-7.7447;0.9906;-1.3050;
1629825010027337;-7.8308;-0.7436;-5.1209;
1629825020130826;-11.5726;0.8160;-3.7675;
1629825030234316;-9.4573;-0.2620;-1.7288;
1629825040341191;-7.9340;0.7466;-2.1003;
1629825050444681;-8.5902;0.4253;-3.4896;
1629825060548170;-9.3975;-0.2716;-4.3304;
1629825070653587;-9.7232;0.8160;-1.6140;
1629825080757076;-10.7964;0.5357;-1.8775;
1629825090860566;-9.8288;0.9547;-1.4677;
1629825100963639;-6.6212;-0.0802;-4.1746;
1629825111067128;-7.8523;0.5477;-5.2190;
1629825121170618;-11.1703;0.2291;-2.0692;
1629825131271712;-10.0107;1.0002;-1.2978;
1629825141375253;-10.5042;1.1871;-0.8210;
1629825151478691;-10.2072;0.1977;-3.3553;
1629825161585566;-6.2856;0.5477;-1.6475;
1629825171689108;-9.5004;-0.4633;-3.6093;
1629825181792597;-13.2589;1.1082;-2.0644;
1629825191911191;-9.1053;-0.6335;-1.0295;
1629825202014681;-14.6725;1.0220;-0.5575;
1629825212118170;-13.2999;0.9858;-1.3241;
1629825222193118;-4.6041;-0.5423;-0.7540;
1629825232296608;-3.9838;-1.8024;-5.1951;
1629825242400097;-10.7151;1.1680;-6.9009;
1629825252515149;-11.6228;0.8782;-3.1807;
1629825262618691;-8.9375;0.7247;1.3684;
1629825272722181;-6.9924;1.0962;-4.0358;
1629825282847285;-8.2573;1.5296;-6.2970;
1629825292950774;-9.0718;0.3057;-4.9460;
1629825303054264;-11.1416;0.3751;-2.4452;
1629825313134003;-11.2756;0.7418;-3.5040;
1629825323237545;-9.7998;-0.6766;-1.4151;
1629825333341035;-10.2503;-1.4312;-3.3242;
1629825343458951;-7.0953;1.6376;-1.0343;
1629825353562441;-7.6080;-1.7450;-7.1548;
1629825363665931;-12.7849;-1.3759;-7.2386;
1629825373756920;-11.0623;-0.1950;-0.6485;
1629825383860462;-9.6969;0.3464;3.2106;
1629825393963951;-8.1709;0.1834;-3.0057;
1629825404063014;-8.2980;0.4325;-4.0980;
1629825414166451;-8.9064;0.9978;-2.6321;
1629825424269993;-6.5611;0.9978;-0.8402;
1629825434374368;-9.2082;0.8638;-4.7160;
1629825444477806;-11.7835;1.2015;-3.4537;
1629825454581295;-8.1302;-0.4418;-2.9794;
1629825464712441;-6.4319;-0.8536;-4.6633;
1629825474815878;-9.1101;0.0733;-5.9019;
1629825484919368;-8.6955;-0.9233;-4.3089;
1629825494985983;-9.4095;-1.1677;-3.8895;
1629825505089472;-10.5903;0.0589;-2.1936;
1629825515192962;-10.1139;-0.3556;-0.7612;
1629825525311920;-7.8978;-0.3314;-2.3327;
1629825535415410;-9.8384;0.1140;-2.7278;
1629825545518899;-11.3354;-0.1232;-3.6165;
1629825555611608;-10.4587;0.3344;-0.3299;
1629825565715097;-10.0732;-0.4657;-0.5432;
1629825575818587;-9.4143;0.3799;-0.1501;
1629825585944941;-8.9686;-0.6909;-3.0440;
1629825596048431;-9.8743;-0.4681;-2.9578;
1629825606151920;-9.4502;1.0531;-1.4366;
1629825616252701;-8.3339;-0.6957;-2.7948;
1629825626356191;-9.7376;-0.2692;-3.5925;
1629825636459681;-9.8671;1.1512;-3.6141;
1629825646568118;-8.8585;-0.0655;-2.2271;
1629825656671608;-8.5472;-0.2692;-4.5317;
1629825666775097;-8.9710;0.1618;-4.7112;
1629825676893587;-9.8025;-0.7125;-3.9087;
1629825686997076;-9.5797;-0.7292;-3.3960;
1629825697100566;-8.2071;-0.6502;-3.0799;
1629825707182389;-8.4535;-0.6407;-4.2634;
1629825717285878;-9.8360;-1.0932;-3.1926;
1629825727389368;-11.8768;-0.4729;-1.5876;
1629825737495306;-11.9632;-0.2859;-1.5036;
1629825747598795;-12.2602;-0.2213;-1.0941;
1629825757702285;-10.2239;0.2841;-1.2978;
1629825767797389;-8.0201;0.0398;-0.0449;
1629825777900878;-5.6821;-0.3485;-2.6943;
1629825788004316;-6.4702;-0.4944;-5.7915;
1629825798114941;-9.9365;0.1451;-5.2911;
1629825808218483;-11.6157;0.1140;-3.4059;
1629825818321920;-9.3401;-0.0511;-1.4557;
1629825828430722;-9.5486;-0.3242;-3.1687;
1629825838534212;-10.6935;0.2195;-4.1219;
1629825848637701;-7.0068;-0.2788;-1.2449;
1629825858731503;-6.7720;0.3966;-2.4787;
1629825868834993;-7.6633;0.0637;-5.6551;
1629825878938483;-8.0656;-0.0416;-5.6527;
1629825889051139;-6.5731;-0.1783;-4.8550;
1629825899154628;-4.2497;-1.1148;-5.9880;
1629825909258118;-4.5921;-1.5197;-6.9870;
1629825919362493;-25.3445;-0.5806;-3.5925;
1629825929466035;-32.9285;2.2340;10.5841;
1629825939569524;-11.3904;3.5420;12.4047;
1629825949647753;3.2722;-1.0095;-2.7517;
1629825959751243;-0.8695;-3.7092;-4.1937;
1629825969854733;-6.4128;-0.4418;-5.1425;
1629825979995774;-9.2058;0.6410;-6.3954;
1629825990099264;-8.5400;1.0053;-6.6685;
1629826000202753;-7.6439;1.0460;-5.5642;
1629826010292128;-7.1961;1.1369;-4.0286;
1629826020395618;-10.7964;1.8676;-1.5470;
1629826030499108;-11.0934;1.2278;-1.0702;
1629826040601920;-9.0072;1.0795;-1.3385;
1629826050705410;-9.2393;2.9073;0.2833;
1629826060808951;-6.1851;0.6960;-4.3065;
1629826070911503;-14.4257;-3.5198;-17.7332;
1629826081015045;-16.5577;-4.0205;-10.3406;
1629826091118483;-9.9556;-3.1798;3.8118;
1629826101226712;-6.7648;-1.1462;5.1269;
1629826111330253;-7.5769;0.4493;0.5611;
1629826121433691;-10.6385;1.0890;-0.8306;
1629826131539316;-11.4048;2.6533;1.6343;
1629826141642806;-8.5280;2.4281;2.3698;
1629826151746295;-9.0814;2.6821;-1.2162;
1629826161846503;-7.7518;2.2938;-3.3482;
1629826171950045;-8.2286;0.8327;-5.9354;
1629826182053483;-9.0957;0.5835;-6.8913;
1629826192176712;-8.0824;1.1967;-6.6589;
1629826202280201;-9.8312;-0.0081;-6.3090;
1629826212383691;-10.8706;-0.6814;-5.5065;
1629826222485097;-8.9590;-0.7699;-2.5768;
1629826232588587;-6.1516;-0.2764;-2.8164;
1629826242692076;-7.4429;0.9882;-4.6729;
1629826252784524;-9.5462;0.7056;-3.5255;
1629826262888014;-9.6012;0.8279;-2.2032;
1629826272991503;-9.0503;1.2039;-1.8344;
1629826283097962;-9.1579;-0.0535;-3.1110;
1629826293201451;-8.8274;0.3033;-3.1038;
1629826303304993;-10.7414;-0.0176;-2.1386;
1629826313390514;-10.7892;0.6170;-0.0449;
1629826323493951;-8.4200;0.9930;-0.2653;
1629826333597441;-9.2369;0.4974;-1.8344;
1629826343723899;-10.9235;0.1522;-3.1807;
1629826353827389;-8.3315;0.0470;-1.7575;
1629826363930878;-7.5984;0.0781;-3.0559;
1629826374014472;-8.9566;0.4349;-4.3807;
1629826384118014;-8.7796;0.0254;-3.0081;
1629826394221503;-8.4344;-0.2142;-3.1926;
1629826404324368;-9.3233;0.2171;-3.1062;
1629826414427806;-9.9509;-0.0416;-3.2429;
1629826424531347;-10.1976;-0.6455;-2.3997;
1629826434648222;-9.0670;-0.3867;-1.6786;
1629826444751660;-8.3315;-0.1232;-1.8248;
1629826454855149;-9.1531;-0.4896;-3.6957;
1629826464944889;-10.2311;-0.6957;-3.2237;
1629826475048326;-7.9986;-1.2323;-2.4811;
1629826485151868;-9.4119;-0.1232;-2.7494;
1629826495257753;-12.5501;-0.3461;-3.1038;
1629826505361243;-11.8050;-0.4178;-0.6796;
1629826515464733;-7.8117;0.4301;-0.3586;
1629826525557597;-9.1149;-0.2213;-1.9947;
1629826535661087;-10.1354;-0.6431;-3.6236;
1629826545764524;-8.8585;-0.0849;-2.9052;
1629826555911399;-10.0466;-0.7388;-2.4906;
1629826566014889;-9.6969;-0.1328;-3.0344;
1629826576118378;-10.8852;-1.0645;-3.4896;
1629826586189889;-10.9355;0.1283;-2.7781;
1629826596293326;-9.3903;-0.5016;-1.8942;
1629826606396868;-10.0226;-0.2548;-2.2750;
1629826616523118;-9.2082;1.5033;-2.4476;
1629826626626608;-8.4778;0.1427;-1.9564;
1629826636730097;-8.6788;0.7585;-4.3376;
1629826646833795;-9.7687;0.4229;-3.6500;
1629826656937285;-7.9938;-0.2500;-3.4896;
1629826667040774;-5.5528;-0.0754;-5.5232;
1629826677142337;-13.6113;0.3823;-4.5150;
1629826687245826;-17.3172;-0.1591;-0.7828;
1629826697349316;-7.1459;0.0685;0.5372;
1629826707452233;-3.0924;0.7080;-3.7364;
1629826717555722;-7.7447;-0.8345;-5.2406;
1629826727659264;-11.4242;0.0517;-4.2945;
1629826737750462;-12.4229;0.8877;-2.2032;
1629826747853951;-10.9738;0.0757;-1.9636;
1629826757957441;-8.0560;0.8351;-2.2582;
1629826768060097;-7.6008;0.3176;-2.8932;
1629826778163535;-9.1986;-0.2142;-3.0655;
1629826788267024;-10.5712;0.7561;-3.3984;
1629826798369108;-8.6189;-0.3413;-0.7373;
1629826808472545;-8.1829;1.1273;-0.7226;
1629826818576035;-7.2105;0.0063;-6.0024;
1629826828689212;-12.4902;-0.7651;-7.3989;
1629826838792701;-9.5414;-0.6790;-0.8402;
1629826848896191;-3.4759;-0.8417;-1.2090;
1629826858999733;-5.0450;1.4459;-5.8516;
1629826869103222;-11.0862;-0.5710;-6.2515;
1629826879206712;-15.4798;0.1379;-1.3816;
1629826889306712;-11.3282;0.0805;0.5707;
1629826899410201;-2.8531;-0.2716;-3.1519;
1629826909513691;-4.9537;-0.8082;-6.3763;
1629826919626608;-12.8088;-0.9999;-3.5973;
1629826929730097;-14.8304;-0.5279;0.7744;
1629826939833587;-12.1116;0.6027;1.0499;
1629826949966191;-9.7998;0.2913;-1.1539;
1629826960070253;-11.4171;-0.6407;-1.6786;
1629826970174316;-11.1078;0.0230;-0.3945;
1629826980227493;-8.5065;0.5333;0.2689;
1629826990331503;-5.9623;0.6673;-0.1765;
1629827000435618;-4.1632;0.4421;-2.4811;
1629827010551920;-5.8929;0.0254;-6.6422;
1629827020655983;-9.2106;-0.0849;-10.6065;
1629827030760045;-15.3981;0.0900;-6.9009;
1629827040864420;-13.6065;-0.7412;4.6935;
1629827050968483;-7.7662;-1.3878;2.5663;
1629827061072545;-5.9743;-0.7986;-7.2984;
1629827071185566;-9.6682;-0.4490;-8.2831;
1629827081289681;-12.9523;-0.9329;-2.9219;
1629827091393691;-13.0122;-1.4480;-1.0223;
1629827101469889;-9.8934;-0.0802;-2.3590;
1629827111573951;-6.0461;-1.4647;-2.5217;
1629827121678014;-3.7107;-0.1352;-1.9995;
1629827131794837;-6.0006;0.1762;-2.2152;
1629827141898951;-13.4507;1.0747;-3.0440;
1629827152002962;-17.1206;2.1144;-0.9407;
1629827162104733;-11.2564;1.3454;2.4823;
1629827172208795;-7.5123;-0.3843;-3.0057;
1629827182312910;-9.1029;-0.6814;-6.1032;
1629827192431712;-9.9604;-0.9736;-3.6718;
1629827202535774;-6.4152;-0.6383;-2.4380;
1629827212639837;-6.6380;-0.3461;-5.5304;
1629827222743795;-8.8322;0.4759;-7.1979;
1629827232847858;-7.7207;0.0972;-4.7952;
1629827242951920;-7.0331;0.0206;-2.7135;
1629827253033170;-8.1278;1.4674;-1.6905;
1629827263137233;-11.4218;1.5610;-1.5948;
1629827273241295;-13.3047;2.2292;0.1301;
1629827283350462;-12.9930;1.0962;-1.8416;
1629827293454524;-10.6361;-0.3365;-4.1841;
1629827303558587;-8.2525;-0.8731;-3.2836;
1629827313652441;-8.3865;-1.4838;-2.1960;
1629827323756503;-9.4430;-1.1076;-2.1888;
1629827333860566;-9.2584;-0.0153;-2.0306;
1629827343993587;-8.6596;0.3440;-1.4270;
1629827354097649;-9.6993;0.9547;-1.6857;
1629827364201712;-9.1412;1.2975;-1.1396;
1629827374279003;-6.5803;0.9619;-1.9612;
1629827384383066;-7.7327;1.0077;-4.5748;
1629827394487128;-9.6180;0.8495;-4.3304;
1629827404583014;-8.8968;-1.1725;-6.1845;
1629827414687024;-8.4033;-1.2658;-7.5141;
1629827424791139;-5.5167;-2.3079;-6.5318;
1629827434907076;-2.6303;-1.7474;-6.0646;
1629827445011139;-0.0574;-0.9832;-6.4289;
1629827455115149;-2.2086;-1.1124;-7.5930;
1629827465213587;-45.2199;2.1766;1.7423;
1629827475317649;-40.2299;1.8796;19.3588;
1629827485421712;5.3683;-0.8297;4.8203;
1629827495519628;13.5706;-1.6705;-9.5982;
1629827505623691;-1.8374;-3.2085;-0.5288;
1629827515727753;-14.9958;-0.2309;-6.0912;
1629827525832962;-16.7468;2.4712;-4.0167;
1629827535937024;-10.5688;3.9060;-1.4462;
1629827546041087;-6.5683;-0.7484;-2.2798;
1629827556141399;-7.1145;-1.3687;-3.4442;
1629827566245462;-9.0838;1.5296;-1.2185;
1629827576349524;-8.5878;1.7764;1.4931;
1629827586462806;-5.3180;2.0638;4.8972;
1629827596566868;3.1980;0.9284;-14.2502;
1629827606670931;-27.3326;-2.7511;-34.3364;
1629827616760774;-22.5679;-2.6073;-5.2310;
1629827626864837;-2.8193;-7.1204;18.5154;
1629827636968899;-0.8073;-2.7703;1.8978;
1629827647082753;-5.8570;1.5610;-9.2004;
1629827657186816;-9.9652;1.5969;-2.6225;
1629827667290878;-10.2646;1.9059;3.2201;
1629827677410462;-11.9198;1.9633;-1.0343;
1629827687514524;-14.7515;2.5167;-2.5337;
1629827697618587;-9.5797;1.4578;1.3612;
1629827707699837;-5.7275;-0.6479;-0.6102;
1629827717803899;-9.0024;1.1441;-4.6848;
1629827727907962;-9.5172;-0.2812;-4.3783;
1629827738008639;-9.2755;-0.3508;-4.9196;
1629827748112753;-9.8839;0.1929;-5.5328;
1629827758216764;-8.9782;-0.2524;-2.2989;
1629827768323170;-8.3243;-0.3652;-2.8092;
1629827778427233;-11.2014;-0.1615;-3.3171;
1629827788531295;-9.9485;1.4674;-1.4103;
1629827798636139;-5.5481;1.2374;-1.0056;
1629827808740201;-7.8643;1.4554;-3.8417;
1629827818844264;-9.3664;2.1168;-4.0502;
1629827828946556;-11.5893;0.2100;-3.3673;
1629827839050566;-13.0843;0.8997;-2.2415;
1629827849154628;-9.4717;0.8806;-1.2185;
1629827859259472;-7.3732;-0.1974;-1.3528;
1629827869363535;-8.1924;-0.2405;-2.8618;
1629827879467597;-9.4454;0.3009;-2.0883;
1629827889565462;-9.3568;-0.3652;-1.7575;
1629827899669524;-10.4779;0.4325;-3.9230;
1629827909773587;-10.1163;0.7152;-3.3960;
1629827919877337;-7.5864;-0.0945;-2.6034;
1629827929981399;-8.2884;0.6745;-2.9148;
1629827940085462;-8.2502;0.4062;-2.5911;
1629827950179993;-7.7566;0.8638;-3.2453;
1629827960283326;-9.5964;0.2387;-4.9292;
1629827970386660;-11.5271;-0.0320;-4.4958;
1629827980506191;-11.0456;-0.3772;-2.0644;
1629827990609576;-10.7892;-0.7196;-1.6116;
1629828000712910;-8.9710;-0.2309;-0.6365;
1629828010811295;-7.8212;-0.2261;-1.6355;
1629828020914681;-11.8672;0.3344;-3.5734;
1629828031018014;-10.8805;0.2195;-1.3289;
1629828041123378;-7.9962;1.2422;0.1516;
1629828051226764;-8.0608;0.8447;-2.0569;
1629828061330097;-7.6032;0.3823;-2.5624;
1629828071433170;-8.0297;1.0172;-3.6093;
1629828081536556;-10.8706;1.2039;-4.3783;
1629828091639889;-11.0575;0.1786;-2.9339;
1629828101737910;-10.6672;-0.3075;-1.3720;
1629828111841243;-11.1030;-0.4250;-3.3386;
1629828121944576;-9.7759;-0.5590;-2.9506;
1629828132054941;-9.3497;-0.6383;-2.3204;
1629828142158326;-9.0766;-0.0631;-2.9818;
1629828152261660;-8.9638;0.0398;-2.1266;
1629828162362024;-9.0168;0.2001;-1.9540;
1629828172465358;-9.4478;0.3224;-2.1458;
1629828182568691;-7.4142;0.7825;-2.9411;
1629828192686556;-9.4908;0.3607;-3.0894;
1629828202789941;-10.2000;0.3224;-2.7924;
1629828212893274;-8.9160;0.0470;-2.3542;
1629828223048378;-7.5960;-0.6455;-3.7962;
1629828233151712;-8.9016;-1.0836;-4.5843;
1629828243255097;-11.7212;-1.6418;-4.6131;
1629828253305149;-11.7763;-0.4250;-3.0416;
1629828263408535;-7.9340;-0.9568;-1.6738;
1629828273511868;-6.9446;-0.3389;-1.8057;
1629828283600306;-8.9853;-0.1807;-3.3912;
1629828293703639;-10.3558;0.6601;-2.4643;
1629828303806972;-10.2072;0.5142;-1.6546;
1629828313920462;-9.2106;0.1116;-1.8368;
1629828324023847;-7.2679;0.1020;-2.5050;
1629828334127181;-8.8848;-0.7603;-3.3362;
1629828344220774;-8.5639;-0.2046;-2.8331;
1629828354324108;-8.8944;-0.1424;-2.2175;
1629828364427441;-11.2875;-0.0296;-3.5255;
1629828374534212;-13.1417;0.4397;-2.5457;
1629828384637597;-10.5544;0.0230;-0.4857;
1629828394740931;-7.6343;0.2794;-1.3552;
1629828404866712;-6.5420;0.0206;-2.7948;
1629828414970097;-6.6069;-0.1711;-4.0262;
1629828425073431;-7.2224;0.1881;-4.5915;
1629828435161399;-8.9662;-0.4513;-4.3807;
1629828445264733;-12.0613;-0.3772;-3.9951;
1629828455368066;-11.0815;-0.3700;-0.5982;
1629828465474837;-9.1029;-0.1256;-1.2930;
1629828475578222;-10.6170;-0.2620;-2.5433;
1629828485681556;-10.0708;0.2794;-1.8153;
1629828495786087;-6.7600;0.1714;-1.7073;
1629828505889420;-7.9412;-0.3652;-4.3663;
1629828515992806;-11.4936;-0.8345;-4.6729;
1629828526061608;-9.9844;-0.9544;-3.2859;
1629828536164941;-6.0799;-0.7292;-1.8129;
1629828546268274;-7.9484;-0.5447;-3.4968;
1629828556403274;-10.6744;0.3224;-1.9349;
1629828566506660;-7.0977;-0.0320;-1.3839;
1629828576609993;-2.8938;0.2602;-4.1339;
1629828586718639;-1.4276;-0.7029;-7.2912;
1629828596822024;-14.2364;-1.3591;-7.7321;
1629828606925358;-57.0272;2.1191;4.3774;
1629828617028170;-33.2471;2.1718;13.0394;
1629828627131556;2.8364;-1.2060;1.9938;
1629828637234889;21.3631;-2.2816;8.3273;
1629828647341816;6.8010;-1.8574;-0.2246;
1629828657445201;-13.9825;1.8197;-12.9183;
1629828667548535;-15.8581;3.5228;-9.2124;
1629828677646556;-8.1900;4.0714;-2.0450;
1629828687749889;-6.5901;1.5419;-7.9765;
1629828697853222;-6.9254;0.8806;-11.3803;
1629828707991451;-7.7016;1.2111;-3.1831;
1629828718094785;-9.5076;1.7501;4.2431;
1629828728198170;2.9536;-0.7053;-7.4447;
1629828738280670;-20.4550;-10.1291;-30.6210;
1629828748384056;-24.5300;-5.0435;-13.2440;
1629828758487389;-14.1359;-5.5394;11.1876;
1629828768585045;-5.0019;-0.5877;10.8906;
1629828778688431;-0.7355;1.9346;4.3101;
1629828788791764;-6.1205;1.8891;0.9350;
1629828798891139;-10.5592;2.8304;2.3985;
1629828808994524;-10.8323;3.4726;1.1001;
1629828819097858;-13.0292;3.7361;-0.3467;
1629828829207806;-9.3305;4.2224;-0.0377;
1629828839311191;-5.1981;0.1642;-3.9760;
1629828849414524;-8.0489;-0.5327;-8.7021;
1629828859516920;-8.6189;-0.0129;-10.0388;
1629828869620306;-8.7676;-0.4585;-5.8947;
1629828879723639;-9.2297;-0.3485;-2.8044;
1629828889830045;-9.8815;-0.6622;-3.4155;
1629828899933431;-9.8480;-0.8970;-5.6839;
1629828910036764;-10.5138;-1.3400;-3.4968;
1629828920135826;-7.9555;-1.0023;-0.1358;
1629828930239160;-7.7734;-0.3290;-1.5132;
1629828940342493;-9.0909;0.7777;-1.9660;
1629828950407910;-8.2717;0.1020;-0.6173;
1629828960511243;-10.7892;0.0876;-1.8320;
1629828970614576;-13.0627;0.8782;-1.5733;
1629828980770358;-11.3928;-0.7101;-0.3060;
1629828990873743;-7.1626;-0.1400;-0.5575;
1629829000977076;-8.1302;-1.0573;-2.7111;
1629829011079003;-10.9403;-1.2419;-4.0238;
1629829021182389;-9.3138;-1.0932;-3.4609;
1629829031285722;-8.5926;-1.3041;-4.3089;
1629829041384941;-11.3354;-0.4825;-5.1951;
1629829051488326;-11.9007;0.7992;-2.1194;
1629829061591660;-9.9197;0.4711;-0.0832;
1629829071693795;-8.7003;0.3870;-1.1803;
1629829081797181;-8.8609;1.1034;-3.3051;
1629829091900514;-10.5473;0.3559;-4.2347;
1629829102012441;-9.0670;0.8351;-2.8717;
1629829112115826;-7.8332;-0.1663;-3.3242;
1629829122219160;-10.6193;-0.1472;-3.8225;
1629829132321399;-8.5041;0.1092;-2.0019;
1629829142424785;-6.5372;0.0637;-3.2261;
1629829152528118;-12.5094;0.9356;-4.2754;
1629829162628691;-13.6328;1.9011;-0.8617;
1629829172732076;-8.3124;0.7801;-0.6556;
1629829182835410;-5.3731;0.2124;-3.0105;
1629829192950670;-8.4849;0.4181;-5.1042;
1629829203054056;-11.1559;0.5046;-4.4381;
1629829213157389;-8.2286;0.4277;-3.1158;
1629829223218847;-10.8299;0.0230;-3.6838;
1629829233322181;-13.5296;0.6840;-2.5265;
1629829243425514;-10.4037;0.8160;0.8895;
1629829253560253;-4.9777;-0.4896;-1.3600;
1629829263663639;-5.5576;0.6697;-3.8656;
1629829273766972;-8.9088;1.3382;-2.5385;
1629829283875149;-10.9211;2.1598;-3.5949;
1629829293978535;-10.5808;-0.0153;-3.2931;
1629829304081868;-11.5726;0.5716;-3.5327;
1629829314180045;-11.6396;0.1020;-1.2835;
1629829324283431;-8.9016;0.3416;-1.1204;
1629829334386764;-7.4668;-0.3700;-2.0258;
1629829344482285;-8.9399;0.5764;-2.2510;
1629829354585566;-6.8294;-0.0248;-3.3123;
1629829364688951;-8.6883;-0.8297;-5.7317;
1629829374857285;-12.5189;0.3057;-4.7136;
1629829384960566;-12.6936;0.9811;0.5970;
1629829395063951;-6.6428;0.7561;2.0369;
1629829405096972;-2.5630;-0.5303;-3.3553;
1629829415200306;-7.6152;0.5907;-7.0780;
1629829425303639;-10.3340;0.9691;-4.2514;
1629829435449264;-12.4253;0.8375;-2.1984;
1629829445552597;-10.7007;-1.0717;-2.7254;
1629829455655983;-10.7055;-1.4815;-3.6093;
1629829465744003;-11.7380;-0.5064;-1.3193;
1629829475847389;-8.3124;-0.8201;0.2258;
1629829485950722;-7.8332;-0.2477;-2.8307;
1629829496047649;-6.9805;-0.0897;-2.4835;
1629829506151035;-6.6093;0.6625;-2.4093;
1629829516254368;-10.2024;0.3081;-3.6476;
1629829526372545;-11.5367;0.7442;-1.4916;
1629829536475931;-10.7677;0.8255;-0.8856;
1629829546579264;-5.3444;-0.3003;-2.0234;
1629829556682753;-5.6222;-0.0897;-4.4333;
1629829566786139;-9.7017;-0.8850;-6.5486;
1629829576889472;-11.2373;0.2459;-4.1578;
1629829586979733;-8.9662;-1.3639;-1.8344;
1629829597083118;-16.1599;0.1546;-3.9278;
1629829607186451;-16.1815;-0.5016;0.0966;
1629829617288066;-9.1077;-0.0368;3.6419;
1629829627391451;-6.8103;-0.0105;0.9661;
1629829637494785;-15.3455;0.7801;-1.3217;
1629829647595358;-14.5238;1.4937;0.0823;
1629829657698691;-4.5897;0.4445;0.6571;
1629829667802024;-3.3464;-0.9712;-3.5160;
1629829677923378;-8.6118;0.5644;-4.3424;
1629829688026764;-11.6061;0.5213;-4.5724;
1629829698130097;-9.3425;1.2063;-4.3017;
1629829708226399;-6.1277;0.7657;-3.6861;
1629829718329785;-9.6873;1.2565;-5.7843;
1629829728433118;-15.4391;0.4926;-7.1764;
1629829738536087;-11.3091;-0.9664;-3.9449;
1629829748639472;-3.1669;-1.1916;-2.6273;
1629829758742806;-4.1827;-1.2969;-7.0636;
1629829768846503;-10.7486;-1.2682;-9.5791;
1629829778949889;-13.6448;-0.8417;-3.4418;
1629829789053222;-9.8647;-0.0778;2.6931;
1629829799161139;-4.2616;0.7247;1.4115;
1629829809264524;-9.9269;0.9882;-3.1639;
1629829819367858;-14.0351;1.3645;-3.4035;
1629829829474316;-9.3233;1.0002;2.0106;
1629829839577649;-7.8763;1.0268;0.9876;
1629829849681035;-9.1914;0.2148;-4.9149;
1629829859787806;-9.7280;-0.6431;-6.2252;
1629829869891191;-11.2564;-0.6694;-3.3936;
1629829879994524;-9.2273;0.4831;-0.3156;
1629829890101295;-5.9264;0.4588;-1.8583;
1629829900204681;-7.8500;0.0326;-5.4347;
1629829910308014;-9.3305;0.5979;-3.5231;
1629829920395618;-9.8551;0.6123;-1.6857;
1629829930498951;-9.1699;0.8303;-2.4571;
1629829940602285;-9.3473;0.0230;-3.9832;
1629829950708118;-9.9580;0.4636;-3.3673;
1629829960811503;-7.2177;0.0517;-1.5156;
1629829970914837;-7.8571;-0.4825;-3.7316;
1629829981045983;-10.7079;0.5572;-4.0214;
1629829991149368;-9.0287;-0.2022;-1.2114;
1629830001252701;-10.2144;-0.1950;-2.4045;
1629830011334524;-11.2732;-0.3628;-3.6021;
1629830021437910;-9.7376;-0.7603;-1.0343;
1629830031541243;-8.2310;-1.1195;-1.6857;
1629830041640306;-9.2970;-0.0416;-3.1134;
1629830051743639;-11.1464;0.1690;-3.1229;
1629830061846972;-12.5022;0.6218;-1.3696;
1629830071950618;-9.2970;1.1345;-1.0415;
1629830082053951;-7.3684;-0.0416;-2.2271;
1629830092157285;-9.1771;0.7609;-3.9206;
1629830102270149;-9.0574;0.6290;-1.9493;
1629830112373535;-8.5567;-0.2596;-3.1277;
1629830122476868;-9.4693;0.6075;-4.1100;
1629830132575983;-10.5784;-0.5016;-4.6681;
1629830142679368;-10.2814;-0.2788;-3.6838;
1629830152782701;-8.3052;-0.8656;-2.8765;
1629830162882285;-4.6735;-0.0535;-2.7996;
1629830172985618;-5.0952;0.0374;-4.2682;
1629830183088951;-9.5701;-0.7244;-6.2850;
1629830193215149;-12.2124;-0.1902;-4.0956;
1629830203318535;-9.5028;0.4902;-0.9000;
1629830213421868;-6.8246;-0.4609;-2.0234;
1629830223525045;-1.0923;-1.2610;-5.0659;
1629830233628378;2.9512;-1.6226;-7.4037;
1629830243731764;-23.7682;-0.8177;-6.0287;
1629830253821712;-49.7450;3.3407;9.5468;
1629830263925097;-16.1097;4.6510;14.9198;
1629830274028431;11.7021;2.8834;-4.1674;
1629830284131139;5.1526;-5.8173;-2.5241;
1629830294234524;-9.8121;-3.3643;-1.9134;
1629830304337858;-13.3358;3.0508;-3.9206;
1629830314440462;-8.3698;3.8581;-1.7432;
1629830324543795;-8.6788;1.0172;-4.7450;
1629830334647181;-9.0622;-0.1304;-6.7283;
1629830344780826;-7.7303;0.5261;-2.8908;
1629830354884160;-6.8991;2.3273;1.7016;
1629830364987493;-1.3989;2.2101;-0.0903;
1629830375055410;-8.6931;-4.5811;-21.1349;
1629830385158795;-26.8678;-7.4031;-20.9336;
1629830395262128;-15.4391;-3.9320;7.4052;
1629830405380045;-2.5439;0.6577;14.6109;
1629830415483431;-2.7212;2.7132;-1.2691;
1629830425586764;-9.1531;-0.2189;-3.0057;
1629830435693274;-12.9236;1.2784;3.7256;
1629830445796608;-12.7896;3.0604;4.3244;
1629830455899993;-11.3713;1.9633;1.7542;
1629830465995670;-9.1675;1.7812;0.5085;
1629830476099056;-8.2430;0.7247;1.1722;
1629830486202389;-10.0442;0.6218;-1.6666;
1629830496304472;-11.5343;2.8567;-2.4284;
1629830506407806;-9.7424;2.1837;-1.4270;
1629830516511139;-9.7400;2.2172;-3.0224;
1629830526628378;-9.3497;1.9131;-2.9865;
1629830536731764;-7.6080;1.9848;-2.3566;
1629830546835097;-9.5219;2.1526;-2.5504;
1629830556957545;-9.4765;1.8003;-1.8870;
1629830567060878;-7.1073;1.8676;-1.4701;
1629830577164264;-8.5041;1.1465;-2.6345;
1629830587252233;-12.0494;1.2903;-2.3638;
1629830597355618;-12.3703;0.9045;-1.2787;
1629830607458951;-9.6849;-0.4202;-0.6054;
1629830617545931;-7.7638;-0.0655;-0.0975;
1629830627649264;-8.7290;0.5477;-0.4738;
1629830637752597;-10.6552;0.0996;-2.1314;
1629830647862233;-10.8876;-2.0874;-2.7972;
1629830657965618;-8.6213;-0.3003;-2.6058;
1629830668068951;-8.1517;-2.2552;-3.2309;
1629830678172545;-7.5290;-2.5738;-3.3721;
1629830688275931;-8.2143;-1.3831;-2.9483;
1629830698379264;-12.7439;-1.6899;-3.8728;
1629830708483274;-15.2904;-1.2514;-2.7565;
1629830718586660;-12.3751;-1.1390;-0.8641;
1629830728689993;-6.2833;-2.0109;-0.3084;
1629830738795670;-6.7935;-2.1664;0.0054;
1629830748899056;-10.2359;-0.4107;-1.5661;
1629830759002389;-9.3903;-0.1878;-2.2319;
1629830769097910;-6.7146;-0.2716;-2.3327;
1629830779201243;-10.8084;0.2554;-2.8283;
1629830789304576;-12.6123;-0.8922;-3.2692;
1629830799411451;-10.9403;0.4516;-1.4844;
1629830809514785;-10.0490;0.2076;-0.3443;
1629830819618118;-9.6969;0.7128;0.1134;
1629830829727024;-7.5888;0.1546;-0.6269;
1629830839830410;-10.1402;0.0661;-0.5432;
1629830849933743;-10.8586;1.5706;-1.6881;
1629830860036503;-11.4434;1.4626;0.3936;
1629830870139889;-7.8906;1.4746;1.4644;
1629830880243222;-8.0632;1.5849;1.3899;
1629830890351920;-11.1894;2.7945;0.8581;
1629830900455306;-11.3258;1.7548;0.8824;
1629830910558639;-10.5688;2.0088;0.0389;
1629830920662962;-10.3678;1.2637;0.7481;
1629830930766347;-9.9485;1.6089;0.5324;
1629830940869681;-9.2321;0.5094;-1.8248;
1629830950978170;-10.8419;0.1211;-1.1468;
1629830961081868;-9.5219;-0.1208;-1.7360;
1629830971185514;-8.0393;1.0986;-0.5527;
1629830981287128;-7.3110;-0.2285;-0.5791;
1629830991390826;-11.0312;1.7285;-0.9622;
1629831001494472;-13.4507;1.7740;-0.3706;
1629831011593587;-11.7906;0.7585;0.8629;
1629831021697233;-8.3507;0.6936;1.1264;
1629831031800931;-11.2373;0.7872;2.4535;
1629831041908587;-9.6562;-0.4370;1.0762;
1629831052012285;-6.0293;0.0829;0.1062;
1629831062115931;-9.7184;-1.8359;-0.0042;
1629831072211035;-12.7777;0.2124;-3.6117;
1629831082314681;-12.2554;-1.7402;-2.3013;
1629831092418326;-11.0145;-1.3041;-1.6810;
1629831102549941;-7.7662;-1.3328;-0.0018;
1629831112653587;-7.8428;-1.7474;0.2713;
1629831122757285;-8.9040;-0.0849;0.0054;
1629831132830097;-7.2224;-0.0730;0.0365;
1629831142933743;-7.0642;-0.0583;-1.0343;
1629831153037389;-14.2388;0.9571;-3.4561;
1629831163142441;-14.3010;-0.2357;-1.9971;
1629831173246087;-7.3397;-1.3161;0.0341;
1629831183349733;-8.1781;0.1929;-0.8833;
1629831193464733;-15.4534;-0.3628;-0.6485;
1629831203568431;-9.0263;0.9619;0.2737;
1629831213672076;-3.4256;-0.2261;1.7255;
1629831223785878;-14.2747;2.0710;-1.3146;
1629831233889524;-11.8146;1.2879;-0.9670;
1629831243993222;-10.0585;-0.1041;0.2617;
1629831254076868;-11.9270;1.8652;-0.4834;
1629831264180514;-9.0909;0.8782;0.9996;
1629831274284160;-7.1650;0.5309;1.7183;
1629831284383691;-8.6070;1.7883;0.4869;
1629831294487337;-11.9246;1.8221;0.1612;
1629831304590983;-9.0526;1.1465;0.1445;
1629831314722545;-7.8667;-0.6335;-0.4328;
1629831324826191;-10.4874;0.2435;-1.4222;
1629831334929889;-11.6949;-0.1232;-1.2595;
1629831345009056;-7.1626;-2.2648;-1.0774;
1629831355112701;-7.3373;-2.5810;-1.0487;
1629831365216347;-12.0948;-1.2969;-1.0367;
1629831375335410;-12.4421;-1.0765;-0.7636;
1629831385439108;-8.5807;-1.8957;1.0738;
1629831395542806;-10.3149;-0.4848;2.1398;
1629831405615774;-12.4469;-0.0416;0.6882;
1629831415719420;-7.8093;-1.7139;2.5783;
1629831425823118;-8.0536;0.0278;1.1456;
1629831435983222;-11.6037;-0.2788;-0.2031;
1629831446086920;-9.6227;-0.2644;-0.0377;
1629831456190618;-6.8390;-0.3485;-0.4570;
1629831466274837;-6.6188;-0.2764;-2.1649;
1629831476378535;-7.3277;-0.6957;-2.3734;
1629831486482181;-5.9264;0.1905;-3.5471;
1629831496571712;-6.5659;0.2674;-2.5265;
1629831506675410;-17.0246;0.5309;-1.8775;
1629831516779056;-25.0065;1.0699;-0.6269;
1629831526897128;-16.7324;-0.8201;3.7424;
1629831537000774;-5.9575;-1.1725;8.1814;
1629831547104472;-7.9651;-0.8584;8.4975;
1629831557196712;-9.4214;0.7513;5.3521;
1629831567300410;-7.3014;0.5931;2.4775;
1629831577404056;-9.4406;1.2278;-0.8163;
1629831587505045;-11.7236;0.8782;-4.0071;
1629831597608743;-10.5425;0.8853;-4.4405;
1629831607712389;-7.4022;-0.4011;-4.4285;
1629831617811712;-6.5372;0.8901;-4.7112;
1629831627915410;-8.3124;1.5296;-3.0966;
1629831638019056;-10.3582;1.3884;-2.3495;
1629831648125774;-9.2106;3.2210;-0.7349;
1629831658229472;-5.8475;1.9825;1.7112;
1629831668333118;-7.2464;2.7778;1.3445;
1629831678438170;-8.8537;2.4903;1.8045;
1629831688541816;-5.2726;2.5932;-0.1669;
1629831698645514;-8.4706;0.5022;-4.4815;
1629831708750670;-20.2445;-1.2873;-10.0388;
1629831718854368;-16.8476;-1.9750;-6.8336;
1629831728958014;-9.5868;-3.6876;-2.4619;
1629831739057962;-10.0804;-1.6633;1.4381;
1629831749161660;-10.7892;-1.3950;3.7017;
1629831759265306;-11.3258;0.4205;5.4769;
1629831769360306;-7.9627;0.7705;5.9653;
1629831779463899;-9.6538;1.3190;4.6935;
1629831789567597;-13.2879;0.9165;2.3626;
1629831799679837;-16.3660;0.5166;1.3086;
1629831809783535;-11.1245;0.1235;1.2727;
1629831819887181;-5.8929;-0.5303;1.1650;
1629831829994889;-7.9938;-0.1161;-0.1621;
1629831840098587;-10.5903;0.5883;-2.3566;
1629831850202233;-9.8815;0.5859;-1.9253;
1629831860301399;-10.8180;0.7872;-0.9936;
1629831870405097;-9.7041;0.3870;-0.1071;
1629831880508743;-10.1737;1.1608;0.8151;
1629831890615983;-8.5232;1.2975;0.3191;
1629831900719681;-8.3674;1.3860;0.1708;
1629831910823326;-11.2732;2.1144;0.8701;
1629831920919264;-9.8264;2.1718;0.3455;
1629831931022910;-8.7437;1.5610;-1.0654;
1629831941126556;-11.0073;0.3296;-2.1051;
1629831951235149;-12.3799;-0.3987;-1.8392;
1629831961338795;-9.7759;-1.0406;-1.5179;
1629831971442441;-9.7448;0.7247;-0.7107;
1629831981567806;-9.4597;-0.0655;-0.0520;
1629831991671503;-8.7556;-0.1184;0.7887;
1629832001775149;-10.2550;1.7859;0.4989;
1629832011856816;-10.5305;-0.7866;0.5779;
1629832021960462;-10.4874;-0.4848;0.5898;
1629832032064160;-9.2584;-0.0897;1.3038;
1629832042167128;-8.4200;-0.5853;0.4678;
1629832052270774;-10.2024;0.1642;0.0317;
1629832062374420;-9.6299;-0.4705;0.2833;
1629832072461660;-9.2321;0.0709;-0.7732;
1629832082565306;-10.5712;0.4134;-1.5805;
1629832092668951;-12.3057;-0.9712;-1.2018;
1629832102769524;-7.3828;-0.3170;-0.5384;
1629832112873170;-8.3483;0.2506;-0.4738;
1629832122976868;-10.9929;1.0795;-0.0281;
1629832133097285;-9.5868;0.9332;0.2258;
1629832143200931;-7.8380;0.5453;0.3239;
1629832153304576;-9.6491;0.2148;0.5539;
1629832163404785;-10.2239;0.9930;-0.3610;
1629832173508431;-7.4309;0.0589;-0.1047;
1629832183612076;-7.3926;0.7753;-0.7178;
1629832193739837;-8.1350;0.2961;-2.1434;
1629832203843535;-8.9040;0.9835;-2.2367;
1629832213947181;-11.8887;0.8925;-2.6034;
1629832224057545;-11.6204;0.3583;-1.4677;
1629832234161191;0.3544;-0.8441;0.8773;
1629832244264889;0.3763;-1.4216;-0.4690;
1629832254344524;-15.4606;1.7166;-3.6236;
1629832264448222;-21.2575;2.7371;-2.1362;
1629832274551868;-4.4483;-0.9975;1.0164;
1629832284654420;5.4715;-1.1940;2.7290;
1629832294758066;-13.8413;0.6003;-1.0534;
1629832304861764;-21.1714;1.8748;-2.2510;
1629832314960410;-21.6888;0.1259;1.3660;
1629832325064056;-18.9293;-2.1951;1.6271;
1629832335167701;-3.9045;-2.3605;8.2149;
1629832345291451;-7.4237;-1.2227;3.5892;
1629832355395149;-9.8551;0.0613;3.1627;
1629832365498795;-8.5161;0.0470;0.9829;
1629832375573170;-11.7045;1.2398;-1.8320;
1629832385676816;-15.2641;1.1800;-2.5409;
1629832395780514;-13.4052;1.5105;-3.9927;
1629832405930045;-10.4516;0.7825;-0.2653;
1629832416033743;-8.1685;-0.2716;0.0197;
1629832426137389;-8.8155;0.7223;0.5324;
1629832436220670;-7.7734;0.9547;-0.1501;
1629832446324368;-5.8068;0.2770;-1.0199;
1629832456428014;-9.3975;2.2220;-0.4208;
1629832466538795;-9.5725;1.1704;-2.8499;
1629832476642441;-6.5997;1.2254;-0.6485;
1629832486746139;-11.8648;1.2661;-1.4844;
1629832496825722;-13.2159;0.2674;-1.3720;
1629832506929368;-10.3798;0.6840;-1.2090;
1629832517033014;-9.5462;-0.6144;1.0379;
1629832527140149;-7.7973;0.4181;3.9102;
1629832537243847;-3.8997;1.1895;6.0541;
1629832547347493;-11.3498;0.4349;-2.1482;
1629832557455722;-15.5420;1.1034;-1.2691;
1629832567559420;-11.9055;-1.5221;1.6199;
1629832577663066;-11.8768;0.5166;1.5745;
1629832587766920;2.4242;-3.7307;1.7590;
1629832597870618;-10.9092;-1.2347;-3.4250;
1629832607974264;-19.8778;0.3200;-7.7776;
1629832618075983;-13.3382;-4.8015;-7.2960;
1629832628179681;-10.9881;-3.8530;-7.4255;
1629832638283326;-6.1158;-1.8790;-0.1911;
1629832648387128;-6.1804;-1.7737;2.0465;
1629832658490826;-9.1316;1.3980;2.3650;
1629832668594472;-9.3879;0.3655;3.1771;
1629832678713691;-18.2824;2.4473;2.1446;
1629832688817389;-20.0886;-0.9162;2.4775;
1629832698921035;-12.7080;0.2171;3.4908;
1629832709005722;-6.8584;-1.8311;3.4047;
1629832719109420;-8.8872;-0.8106;1.8452;
1629832729213066;-8.1757;-0.3724;-0.0808;
1629832739312389;-11.8816;1.9920;-1.4557;
1629832749416035;-8.0584;3.6114;-0.3036;
1629832759519681;-8.3028;2.4784;0.9541;
1629832769624733;-15.0604;1.7620;0.1421;
1629832779728431;-11.5558;0.4807;0.6066;
1629832789832076;-7.3950;0.7657;3.7232;
1629832799938066;-8.7099;3.5109;2.1182;
1629832810041764;-8.3435;1.7189;2.9136;
1629832820145410;-9.8336;1.0747;0.4941;
1629832830244368;-15.2857;2.2029;-0.9837;
1629832840348014;-10.9355;1.3382;-1.7743;
1629832850451660;-4.3478;1.3143;1.2224;
1629832860562337;-9.3999;2.2220;-1.3337;
1629832870666035;-12.0709;2.9815;-2.3061;
1629832880769681;-8.5831;3.6906;-0.4496;
1629832890869472;-7.6032;2.4497;-1.1635;
1629832900973170;-10.6935;2.5190;-2.4236;
1629832911076816;-11.9560;3.1442;0.8701;
1629832921180514;-6.1205;2.7586;3.0909;
1629832931284160;-8.6524;2.8041;-0.4594;
1629832941387806;-16.0762;1.5658;-0.7995;
1629832951495253;-10.1043;1.5057;-0.7899;
1629832961598899;-10.3511;2.1957;-0.4594;
1629832971702545;-8.7987;1.7429;4.0490;
1629832981847441;-9.1819;2.5167;4.3316;
1629832991951139;-12.6003;4.6989;2.2262;
1629833002054785;-9.7950;4.8404;4.3555;
1629833012115826;-9.6132;5.6046;3.3209;
1629833022219420;-12.4783;4.6582;1.4812;
1629833032323066;-10.9211;4.8954;2.3004;
1629833042423118;-7.1363;4.9505;1.1937;
1629833052526764;-6.5515;4.3732;0.1564;
1629833062630358;-8.8609;3.1684;-0.9407;
1629833072732441;-11.3091;2.0064;-0.4352;
1629833082836087;-8.3602;0.8351;1.2823;
1629833092939733;-6.8632;1.6687;0.9685;
1629833103045462;-9.7711;1.2302;0.8151;
1629833113149108;-11.5750;0.0781;0.4678;
1629833123252753;-14.9695;-0.8417;-2.9674;
1629833133357285;-13.9370;-1.9172;0.1708;
1629833143460931;-6.0245;-2.4586;3.0503;
1629833153564576;-9.4765;-2.4467;0.8198;
1629833163667024;-14.3994;-3.1223;-0.2270;
1629833173770670;-14.7060;-3.8937;3.1077;
1629833183874316;-9.7280;-3.2492;6.9069;
1629833193987233;-6.3314;-1.2371;5.7858;
1629833204090931;-8.5711;0.4564;2.0225;
1629833214194524;-12.1475;-0.2261;0.2617;
1629833224317701;-12.9380;-0.6622;-1.4581;
1629833234421347;-13.1441;-0.5231;-2.5457;
1629833244524993;-9.5868;-1.0214;0.2019;
1629833254595045;-5.2101;-1.1414;0.7792;
1629833264698691;-7.7255;-1.0095;-1.8272;
1629833274802337;-10.9929;-1.5676;-1.3313;
1629833284919733;-11.1392;-1.9845;0.2761;
1629833295023378;-10.9522;-1.1916;0.3431;
1629833305127076;-10.7414;-0.2500;-0.9790;
1629833315250410;-10.4372;0.2052;-2.1912;
1629833325354056;-9.7567;0.2411;-1.9205;
1629833335457753;-8.5208;0.0948;-1.3026;
1629833345524524;-8.3554;-0.2859;-1.8823;
1629833355628170;-9.2656;-0.6622;-2.3542;
1629833365731816;-9.2755;-0.2812;-2.0115;
1629833375868691;-9.4884;0.2076;-2.4523;
1629833385972337;-9.9485;0.2889;-2.7900;
1629833396075983;-9.6849;0.4253;-2.2032;
1629833406153951;-9.3425;0.8590;-2.0258;
1629833416257597;-9.2154;1.2685;-2.0859;
1629833426361191;-8.7891;1.6448;-1.9253;
1629833436486712;-9.1125;1.6567;-2.8187;
1629833446590358;-9.5052;1.6352;-3.2692;
1629833456694003;-9.2178;1.7931;-2.8235;
1629833466781920;-9.5510;1.6687;-2.9937;
1629833476885618;-9.6706;1.5200;-2.9291;
1629833486989264;-9.0359;1.6639;-2.3303;
1629833497076972;-9.0718;1.7907;-2.6369;
1629833507180618;-9.2779;1.4100;-2.9483;
1629833517284264;-8.8992;1.2760;-2.5074;
1629833527403378;-9.1173;0.4974;-3.7077;
1629833537507024;-9.6897;0.0613;-4.3615;
1629833547610670;-9.2632;-0.5040;-1.3193;
1629833557705878;-9.8815;-0.1831;-2.4954;
1629833567809524;-9.9221;0.5429;-3.9927;
1629833577913170;-8.3459;0.9284;-2.8499;
1629833588026608;-8.6859;0.7295;-3.1687;
1629833598130306;-9.8886;0.7008;-4.1435;
1629833608233899;-9.5243;0.5381;-3.1229;
1629833618342128;-9.2803;0.1116;-1.8535;
1629833628445774;-9.8216;-0.2070;-1.7360;
1629833638549420;-9.8791;-0.5016;-1.7169;
1629833648649628;-9.6156;-0.7723;-1.4438;
1629833658753274;-9.3520;-0.9090;-1.5179;
1629833668856920;-9.5100;-0.7627;-2.3180;
1629833678958899;-9.6443;-0.1448;-2.9770;
1629833689062545;-9.1196;0.2770;-2.4476;
1629833699166191;-9.2632;0.4229;-2.3037;
1629833709270670;-9.9269;0.2865;-2.3085;
1629833719374368;-9.5486;0.3081;-1.6355;
1629833729478014;-9.3425;0.5501;-1.8344;
1629833739577545;-9.7376;0.4759;-2.4452;
1629833749681191;-9.4741;0.3870;-2.3276;
1629833759784837;-9.2850;0.5429;-2.4045;
1629833769891608;-9.5868;0.5333;-2.5457;
1629833779995253;-9.4837;0.4684;-2.2367;
1629833790098899;-9.4310;0.5261;-2.0569;
1629833800203483;-9.6227;0.5812;-2.1218;
1629833810307181;-9.4454;0.5883;-2.1290;
1629833820410774;-9.4334;0.6458;-2.4188;
1629833830519316;-9.5749;0.6290;-2.5672;
1629833840622962;-9.3712;0.6697;-2.5074;
1629833850726608;-9.3951;0.7968;-2.6847;
1629833860822910;-9.4406;0.8518;-2.6728;
1629833870926608;-9.2154;0.9260;-2.5098;
1629833881030201;-9.3497;0.8064;-2.6106;
1629833891134316;-9.4908;0.6338;-2.5050;
1629833901238014;-9.3233;0.6218;-2.3327;
1629833911341608;-9.4334;0.6936;-2.5648;
1629833921441920;-9.4693;0.6984;-2.7039;
1629833931545566;-9.2297;0.7825;-2.7517;
1629833941649212;-9.3138;0.8423;-2.9746;
1629833951754212;-9.3401;0.7175;-2.9818;
1629833961857858;-9.2731;0.5931;-2.7015;
1629833971961503;-9.5148;0.5357;-2.7015;
1629833982050826;-9.4884;0.4397;-2.6154;
1629833992154472;-9.3233;0.2602;-2.5313;
1629834002258066;-9.3951;0.0805;-2.8379;
1629834012371868;-9.3473;-0.0153;-3.0081;
1629834022475462;-9.2273;-0.0631;-3.1110;
1629834032579108;-9.3257;-0.1807;-3.2788;
1629834042684368;-9.2779;-0.4035;-3.1615;
1629834052787962;-9.2130;-0.5447;-2.9865;
1629834062891608;-9.3449;-0.5327;-2.9602;
1629834072995983;-9.2922;-0.3915;-2.9746;
1629834083099628;-9.2058;-0.2548;-3.0751;
1629834093203274;-9.3066;-0.1831;-3.3793;
1629834103326868;-9.2321;-0.1017;-3.4705;
1629834113430566;-9.1723;-0.1280;-3.4418;
1629834123534212;-9.2755;-0.1376;-3.4442;
1629834133618847;-9.2560;-0.1352;-3.2094;
1629834143722441;-9.2874;-0.1017;-2.9435;
1629834153826087;-9.2922;0.0087;-2.9291;
1629834163924160;-9.1747;0.0111;-2.8908;
1629834174027806;-9.2273;0.0422;-3.0464;
1629834184131399;-9.2922;0.0805;-3.3027;
1629834194251712;-9.1962;-0.1376;-3.3458;
1629834204355358;-9.2874;-0.1687;-3.2716;
1629834214459003;-9.3784;-0.1807;-3.2166;
1629834224552753;-9.2560;-0.3365;-2.9626;
1629834234656399;-9.2632;-0.4322;-2.8283;
1629834244760045;-9.3185;-0.3700;-2.9626;
1629834254854993;-9.2755;-0.2118;-3.0966;
1629834264958639;-9.2803;-0.1567;-3.1591;
1629834275062285;-9.3425;-0.1687;-3.2596;
1629834285162285;-9.2970;-0.1567;-3.3003;
1629834295265931;-9.2417;-0.1998;-3.2142;
1629834305369576;-9.2731;-0.2955;-3.1352;
1629834315479108;-9.3042;-0.3820;-3.0296;
1629834325582753;-9.3544;-0.3242;-2.9961;
1629834335686347;-9.3114;-0.1519;-3.0655;
1629834345785566;-9.2417;-0.0440;-3.0368;
1629834355889160;-9.2755;0.0039;-3.0535;
1629834365992858;-9.3329;0.0470;-2.9865;
1629834376098899;-9.2632;0.1666;-2.9506;
1629834386202545;-9.3138;0.2506;-3.0105;
1629834396306191;-9.3209;0.3224;-3.0344;
1629834406415826;-9.2755;0.3894;-3.0248;
1629834416519420;-9.2898;0.4181;-3.0990;
1629834426623014;-9.2707;0.4445;-3.1277;
1629834436739941;-9.2393;0.4325;-3.0511;
1629834446843587;-9.2560;0.4684;-3.0081;
1629834456947233;-9.2393;0.4878;-2.9483;
1629834467044472;-9.2489;0.4397;-2.9387;
1629834477148118;-9.3688;0.4062;-3.0440;
1629834487251764;-9.3377;0.3823;-3.0368;
1629834497347858;-9.2560;0.3607;-3.0057;
1629834507451451;-9.3090;0.3248;-2.9913;
1629834517555097;-9.2803;0.3248;-2.9219;
1629834527670566;-9.2850;0.3918;-2.8499;
1629834537774212;-9.3425;0.4636;-2.8765;
1629834547877858;-9.3257;0.4902;-2.8813;
1629834557984212;-9.3281;0.4974;-2.8546;
1629834568087858;-9.3855;0.4926;-2.8427;
1629834578191503;-9.3329;0.4902;-2.7685;
1629834588296503;-9.3616;0.4711;-2.7637;
1629834598400149;-9.4119;0.4277;-2.8259;
1629834608503795;-9.3592;0.4902;-2.7852;
1629834618597337;-9.3449;0.6051;-2.7852;
1629834628700983;-9.3257;0.6123;-2.7015;
1629834638804628;-9.3090;0.5907;-2.5816;
1629834648913483;-9.3903;0.5835;-2.5839;
1629834659017128;-9.4047;0.5094;-2.5672;
1629834669120774;-9.3999;0.4158;-2.6249;
1629834679239628;-9.4190;0.3153;-2.6201;
1629834689343274;-9.4095;0.3416;-3.0200;
1629834699446920;-9.3951;0.3870;-2.8140;
1629834709533170;-9.3712;0.4134;-2.5744;
1629834719636816;-9.3664;0.4014;-2.4715;
1629834729740462;-9.3640;0.4735;-2.3949;
1629834739839733;-9.3999;0.4421;-2.5098;
1629834749943378;-9.4525;0.3727;-2.6465;
1629834760047024;-9.4262;0.3296;-2.8331;
1629834770155462;-9.3592;0.3224;-2.8860;
1629834780259108;-9.3305;0.2626;-2.8068;
1629834790362753;-9.3497;0.2674;-2.7781;
1629834800458431;-9.3568;0.3488;-2.7661;
1629834810562024;-9.3568;0.3631;-2.7972;
1629834820665670;-9.3305;0.3918;-2.8068;
1629834830769160;-9.3018;0.3846;-2.9076;
1629834840872753;-9.2297;0.3631;-2.9602;
