Sensor: bmi160 Gyroscope Non-wakeup
Vendor: BOSCH
TimestampGyro [ns]; GyroX [rad/s]; GyroY [rad/s]; GyroZ [rad/s]
3978318734985899;-0.0045;-0.0033;0.0132;
3978318745087357;-0.0099;-0.0001;0.0164;
3978318755194544;-0.0045;-0.0012;0.0111;
3978318765298555;-0.0024;-0.0001;0.0100;
3978318775403919;-0.0024;0.0009;0.0100;
3978318785514180;-0.0045;-0.0012;0.0100;
3978318795612930;-0.0035;-0.0012;0.0111;
3978318805719180;-0.0003;-0.0001;0.0111;
3978318815813138;-0.0003;-0.0012;0.0100;
3978318825909180;0.0008;-0.0023;0.0089;
3978318836032097;-0.0024;-0.0001;0.0089;
3978318846129284;-0.0013;-0.0023;0.0079;
3978318856235222;-0.0024;-0.0001;0.0079;
3978318866353607;-0.0013;0.0009;0.0079;
3978318876442617;-0.0003;-0.0012;0.0057;
3978318886545690;-0.0003;-0.0001;0.0068;
3978318896666315;-0.0035;-0.0001;0.0068;
3978318906779544;-0.0013;-0.0001;0.0057;
3978318916857097;-0.0013;-0.0023;0.0057;
3978318926957097;-0.0003;-0.0033;0.0047;
3978318937094232;-0.0003;-0.0033;0.0025;
3978318947188399;0.0008;-0.0033;0.0015;
3978318957267409;0.0029;-0.0023;-0.0028;
3978318967383972;0.0029;-0.0012;-0.0049;
3978318977484805;0.0040;-0.0012;-0.0092;
3978318987614440;0.0061;-0.0001;-0.0134;
3978318997751315;0.0061;-0.0001;-0.0166;
3978319007802097;0.0072;-0.0023;-0.0198;
3978319017910690;0.0072;-0.0001;-0.0209;
3978319028016836;0.0083;0.0031;-0.0230;
3978319038129961;0.0104;0.0063;-0.0252;
3978319048250742;0.0136;0.0073;-0.0262;
3978319058373451;0.0093;0.0063;-0.0284;
3978319068437774;0.0051;0.0052;-0.0294;
3978319078556107;0.0040;0.0063;-0.0294;
3978319088653711;0.0051;0.0052;-0.0284;
3978319098747565;0.0051;0.0052;-0.0284;
3978319108871419;0.0040;0.0041;-0.0273;
3978319118984857;0.0019;0.0041;-0.0252;
3978319129110690;0.0040;0.0052;-0.0230;
3978319139186888;0.0019;0.0041;-0.0198;
3978319149288399;0.0019;0.0041;-0.0166;
3978319159382722;0.0008;0.0063;-0.0134;
3978319169484701;-0.0024;0.0052;-0.0103;
3978319179589388;-0.0024;0.0041;-0.0081;
3978319189721263;-0.0024;0.0020;-0.0049;
3978319199802305;-0.0045;0.0020;-0.0017;
3978319209907409;-0.0045;0.0031;0.0025;
3978319220009284;-0.0056;0.0020;0.0057;
3978319230115534;-0.0056;0.0009;0.0100;
3978319240244336;-0.0077;0.0009;0.0132;
3978319250324284;-0.0088;-0.0023;0.0174;
3978319260430638;-0.0077;-0.0033;0.0228;
3978319270536472;-0.0099;-0.0033;0.0238;
3978319280644440;-0.0099;-0.0033;0.0281;
3978319290746784;-0.0109;-0.0044;0.0313;
3978319300855274;-0.0120;-0.0033;0.0345;
3978319310961524;-0.0130;-0.0044;0.0387;
3978319321068607;-0.0141;-0.0055;0.0419;
3978319331169805;-0.0152;-0.0044;0.0441;
3978319341277774;-0.0141;-0.0033;0.0494;
3978319351383034;-0.0152;-0.0044;0.0537;
3978319361469076;-0.0173;-0.0076;0.0579;
3978319371590013;-0.0162;-0.0097;0.0611;
3978319381699857;-0.0184;-0.0129;0.0654;
3978319391805951;-0.0194;-0.0150;0.0707;
3978319401902097;-0.0194;-0.0150;0.0760;
3978319412008607;-0.0226;-0.0119;0.0803;
3978319422111263;-0.0237;-0.0097;0.0835;
3978319432223451;-0.0248;-0.0076;0.0888;
3978319442326107;-0.0280;-0.0087;0.0952;
3978319452433763;-0.0301;-0.0119;0.0995;
3978319462538034;-0.0290;-0.0150;0.1059;
3978319472651680;-0.0312;-0.0182;0.1122;
3978319482749521;-0.0333;-0.0182;0.1186;
3978319492851605;-0.0344;-0.0193;0.1261;
3978319502962125;-0.0354;-0.0182;0.1336;
3978319513065615;-0.0375;-0.0172;0.1410;
3978319523167230;-0.0397;-0.0193;0.1474;
3978319533277542;-0.0429;-0.0204;0.1538;
3978319543403636;-0.0461;-0.0214;0.1581;
3978319553500563;-0.0471;-0.0225;0.1644;
3978319563582021;-0.0482;-0.0246;0.1687;
3978319573701605;-0.0482;-0.0246;0.1719;
3978319583798792;-0.0482;-0.0268;0.1740;
3978319593914209;-0.0535;-0.0268;0.1762;
3978319604009209;-0.0652;-0.0246;0.1772;
3978319614118375;-0.0663;-0.0257;0.1772;
3978319624222855;-0.0770;-0.0236;0.1772;
3978319634331813;-0.1015;-0.0214;0.1783;
3978319644430355;-0.1185;-0.0236;0.1762;
3978319654546292;-0.1196;-0.0246;0.1740;
3978319664640875;-0.1153;-0.0246;0.1730;
3978319674749521;-0.1047;-0.0257;0.1730;
3978319684854521;-0.0844;-0.0268;0.1708;
3978319694962282;-0.0674;-0.0257;0.1708;
3978319705062750;-0.0620;-0.0225;0.1676;
3978319715174365;-0.0674;-0.0225;0.1623;
3978319725279105;-0.0855;-0.0214;0.1538;
3978319735381500;-0.1111;-0.0204;0.1453;
3978319745485459;-0.1409;-0.0193;0.1378;
3978319755589105;-0.1664;-0.0193;0.1282;
3978319765700980;-0.1824;-0.0172;0.1197;
3978319775799000;-0.1952;-0.0161;0.1133;
3978319785898688;-0.2037;-0.0161;0.1059;
3978319796017230;-0.2069;-0.0161;0.0984;
3978319806114417;-0.2037;-0.0161;0.0952;
3978319816223688;-0.1941;-0.0140;0.0899;
3978319826332959;-0.1739;-0.0129;0.0867;
3978319836427959;-0.1409;-0.0129;0.0867;
3978319846537282;-0.0993;-0.0150;0.0877;
3978319856646552;-0.0567;-0.0172;0.0899;
3978319866712334;-0.0162;-0.0214;0.0941;
3978319876821657;-0.0184;-0.0289;0.0963;
3978319886930927;-0.0216;-0.0321;0.0952;
3978319897066188;-0.0237;-0.0289;0.0984;
3978319907175459;-0.0258;-0.0246;0.1016;
3978319917284782;-0.0248;-0.0182;0.1027;
3978319927368792;-0.0290;-0.0129;0.1048;
3978319937478063;-0.0322;-0.0129;0.1037;
3978319947587334;-0.0333;-0.0150;0.1048;
3978319957715927;-0.0322;-0.0172;0.1069;
3978319967825250;-0.0312;-0.0193;0.1080;
3978319977934573;-0.0312;-0.0204;0.1080;
3978319988009209;-0.0312;-0.0204;0.1069;
3978319998118480;-0.0290;-0.0193;0.1048;
3978320008227750;-0.0290;-0.0182;0.1005;
3978320018354990;-0.0312;-0.0150;0.0984;
3978320028464261;-0.0312;-0.0129;0.0963;
3978320038573584;-0.0290;-0.0129;0.0920;
3978320048658375;-0.0333;-0.0129;0.0867;
3978320058767698;-0.0375;-0.0204;0.0803;
3978320068876969;-0.1515;-0.0577;0.0494;
3978320078947125;-0.5786;-0.1237;0.0153;
3978320089056396;-0.8864;-0.1035;0.0057;
3978320099165719;-0.8406;-0.0150;0.0121;
3978320109285511;-0.8246;0.0286;0.0068;
3978320119394834;-0.8534;0.0711;0.0015;
3978320129493063;-0.9321;0.1063;-0.0049;
3978320139602334;-1.0088;0.0860;-0.0273;
3978320149711657;-1.0205;0.0467;-0.0454;
3978320159834313;-1.0003;0.0297;-0.0486;
3978320169943636;-0.9523;0.0276;-0.0507;
3978320180052907;-0.8928;0.0180;-0.0561;
3978320190115459;-0.7650;0.0201;-0.0614;
3978320200224730;-0.6744;0.0244;-0.0593;
3978320210334052;-0.6084;0.0265;-0.0550;
3978320220428792;-0.4912;0.0244;-0.0529;
3978320230538115;-0.3581;0.0308;-0.0465;
3978320240647386;-0.2506;0.0425;-0.0390;
3978320250750875;-0.1601;0.0499;-0.0326;
3978320260860198;-0.0844;0.0574;-0.0241;
3978320270969469;-0.0791;0.0658;-0.0188;
3978320281064417;-0.0897;0.0690;-0.0145;
3978320291173740;-0.0631;0.0711;-0.0092;
3978320301283011;-0.0301;0.0690;-0.0028;
3978320311379105;-0.0088;0.0626;0.0068;
3978320321488427;-0.0003;0.0574;0.0174;
3978320331597698;0.0029;0.0510;0.0260;
3978320341692855;0.0210;0.0393;0.0366;
3978320351802177;0.0487;0.0361;0.0515;
3978320361911448;0.0658;0.0350;0.0654;
3978320372013896;0.0583;0.0350;0.0707;
3978320382123167;0.0370;0.0350;0.0750;
3978320392232490;0.0136;0.0350;0.0792;
3978320402325459;-0.0194;0.0222;0.0814;
3978320412434782;-0.0610;0.0137;0.0760;
3978320422544052;-0.1089;0.0137;0.0675;
3978320432644313;-0.1611;0.0233;0.0601;
3978320442753636;-0.1867;0.0457;0.0558;
3978320452862907;-0.1867;0.0615;0.0569;
3978320462955771;-0.2314;0.0553;0.0569;
3978320473065042;-0.2655;0.0414;0.0505;
3978320483174365;-0.2708;0.0425;0.0409;
3978320493276084;-0.2868;0.0478;0.0292;
3978320503385355;-0.2996;0.0467;0.0260;
3978320513494677;-0.2975;0.0361;0.0206;
3978320523606188;-0.2879;0.0361;0.0164;
3978320533715511;-0.2868;0.0510;0.0111;
3978320543824782;-0.2943;0.0542;0.0047;
3978320553918792;-0.2772;0.0510;-0.0060;
3978320564028063;-0.2517;0.0626;-0.0145;
3978320574137386;-0.2389;0.0775;-0.0103;
3978320584220875;-0.2186;0.0796;-0.0071;
3978320594330198;-0.1792;0.0711;-0.0103;
3978320604439469;-0.1707;0.0690;-0.0134;
3978320614538115;-0.1760;0.0754;-0.0145;
3978320624647386;-0.1750;0.0690;-0.0198;
3978320634756709;-0.1760;0.0647;-0.0209;
3978320644849990;-0.1782;0.0722;-0.0198;
3978320654959261;-0.1888;0.0668;-0.0241;
3978320665068584;-0.1920;0.0510;-0.0337;
3978320675170563;-0.1846;0.0626;-0.0316;
3978320685279886;-0.1984;0.0786;-0.0198;
3978320695389157;-0.1952;0.0521;-0.0230;
3978320705471917;-0.1867;0.0297;-0.0273;
3978320715581188;-0.1824;0.0435;-0.0198;
3978320725690511;-0.1920;0.0308;-0.0230;
3978320735798063;-0.1824;0.0116;-0.0262;
3978320745907334;-0.1451;0.0276;-0.0177;
3978320756016657;-0.1217;0.0414;-0.0113;
3978320766112021;-0.1153;0.0807;-0.0220;
3978320776221292;-0.1302;0.1137;-0.0411;
3978320786330563;-0.1398;0.1382;-0.0475;
3978320796424938;-0.1377;0.1808;-0.0731;
3978320806534209;-0.1590;0.1137;-0.1401;
3978320816643532;-0.1377;0.0690;-0.1571;
3978320826747646;-0.0961;0.0478;-0.1305;
3978320836856969;-0.0684;0.0286;-0.1198;
3978320846966240;0.0083;0.0775;-0.1177;
3978320857054313;0.0306;0.1435;-0.1145;
3978320867163584;-0.0503;0.1403;-0.1188;
3978320877272907;-0.0652;0.1222;-0.1230;
3978320887367646;-0.0109;0.1286;-0.1262;
3978320897476917;0.0360;0.1265;-0.1390;
3978320907586188;0.1009;0.1286;-0.1518;
3978320917699365;0.1872;0.1574;-0.1454;
3978320927808636;0.2628;0.1712;-0.1369;
3978320937917959;0.3628;0.1435;-0.1220;
3978320947992334;0.4875;0.1105;-0.1049;
3978320958101605;0.5684;0.0871;-0.0889;
3978320968210875;0.6494;0.0647;-0.0879;
3978320978351240;0.7421;0.0414;-0.0783;
3978320988460563;0.7719;0.0382;-0.0688;
3978320998569834;0.7847;0.0489;-0.0507;
3978321008650146;0.7570;0.0361;-0.0348;
3978321018759469;0.7399;0.0169;-0.0401;
3978321028868740;0.6941;0.0063;-0.0582;
3978321038977021;0.6249;0.0169;-0.0752;
3978321049086344;0.5418;0.0467;-0.0889;
3978321059195615;0.3831;0.0318;-0.1060;
3978321069286917;0.2522;0.0286;-0.1166;
3978321079396240;0.1776;0.0743;-0.1348;
3978321089505511;0.0818;0.1031;-0.1688;
3978321099581188;0.0029;0.1265;-0.2008;
3978321109690459;-0.0706;0.1446;-0.2285;
3978321119799782;-0.1451;0.0881;-0.2541;
3978321129899677;-0.1185;0.0414;-0.2722;
3978321140005667;-0.0919;0.0521;-0.2892;
3978321150111657;-0.0993;0.0606;-0.3169;
3978321160217282;-0.1089;0.0988;-0.3350;
3978321170323271;-0.1324;0.1467;-0.3467;
3978321180429261;-0.1142;0.1414;-0.3393;
3978321190527907;-0.0866;0.1105;-0.3318;
3978321200633896;-0.0631;0.0711;-0.3371;
3978321210739886;0.0178;0.0626;-0.3425;
3978321220848115;0.1190;0.0956;-0.3435;
3978321230954105;0.1478;0.1116;-0.3222;
3978321241060094;0.1265;0.1201;-0.2945;
3978321251161448;0.0818;0.1169;-0.2892;
3978321261267438;0.0945;0.0690;-0.3031;
3978321271373375;0.2277;0.0615;-0.3073;
3978321281479990;0.3234;0.1020;-0.2849;
3978321291585980;0.3373;0.0839;-0.2434;
3978321301691917;0.3810;0.0499;-0.2189;
3978321311801500;0.4598;0.0521;-0.2242;
3978321321907490;0.5226;0.0329;-0.2338;
3978321332013480;0.5652;0.0308;-0.2221;
3978321342112490;0.5386;0.0711;-0.1944;
3978321352218480;0.4896;0.0913;-0.1827;
3978321362324469;0.4310;0.0658;-0.2051;
3978321372428636;0.3224;0.0158;-0.2413;
3978321382534625;0.2170;0.0169;-0.2573;
3978321392640615;0.1190;0.0754;-0.2679;
3978321402750250;0.0349;0.0690;-0.2839;
3978321412856240;-0.0056;0.0052;-0.3009;
3978321422962177;-0.0045;-0.0364;-0.2945;
3978321433061917;0.0221;-0.0449;-0.2711;
3978321443167907;0.0296;0.0190;-0.2583;
3978321453273896;-0.0141;0.0860;-0.2498;
3978321463375094;-0.0631;0.0382;-0.2477;
3978321473481084;-0.0652;-0.0481;-0.2296;
3978321483587073;-0.0642;-0.0204;-0.1838;
3978321493688115;-0.0482;0.0340;-0.1475;
3978321503794105;-0.0301;-0.0023;-0.1262;
3978321513900042;-0.0003;-0.0481;-0.1092;
3978321524005719;0.0679;-0.0736;-0.0858;
3978321534111709;0.1691;-0.0747;-0.0433;
3978321544217698;0.2810;-0.0545;-0.0071;
3978321554342594;0.3533;-0.0449;0.0100;
3978321564448584;0.3831;-0.0353;0.0206;
3978321574554573;0.3788;-0.0385;0.0238;
3978321584636761;0.3628;-0.0662;0.0281;
3978321594742750;0.3405;-0.0523;0.0270;
3978321604848688;0.2714;-0.0012;0.0196;
3978321614958740;0.1851;0.0574;0.0079;
3978321625064730;0.1169;0.0839;-0.0241;
3978321635170667;0.0530;0.0340;-0.0497;
3978321645262907;0.0104;0.0126;-0.0518;
3978321655368896;-0.0439;0.0754;-0.0571;
3978321665474834;-0.0450;0.0467;-0.0879;
3978321675587073;-0.0407;-0.0566;-0.1241;
3978321685693063;-0.0578;-0.0981;-0.1220;
3978321695799052;-0.0397;0.0052;-0.1284;
3978321705897282;-0.0237;0.0647;-0.1561;
3978321716003271;-0.0088;0.0499;-0.1955;
3978321726109261;0.0423;0.0403;-0.2008;
3978321736218636;0.0935;0.0711;-0.1848;
3978321746324625;0.1116;0.0382;-0.1923;
3978321756430615;0.1680;-0.0459;-0.2125;
3978321766532907;0.2820;0.0095;-0.2125;
3978321776638896;0.3746;0.1137;-0.1774;
3978321786744886;0.4108;0.0148;-0.1806;
3978321796844000;0.4790;-0.0502;-0.1806;
3978321806949990;0.6025;0.0457;-0.1358;
3978321817055980;0.7410;0.0595;-0.1081;
3978321827180198;0.8188;-0.0182;-0.0932;
3978321837286188;0.8912;-0.0055;-0.0401;
3978321847392125;1.0019;0.0116;-0.0017;
3978321857479834;1.0732;-0.0683;0.0057;
3978321867585823;1.1393;-0.0854;0.0419;
3978321877691761;1.2362;-0.0001;0.0814;
3978321887790823;1.2863;-0.0193;0.0909;
3978321897896813;1.2224;-0.1024;0.1165;
3978321908002802;1.1425;-0.0577;0.1399;
3978321918114469;1.0903;0.0308;0.1112;
3978321928220459;0.9859;0.0457;0.0984;
3978321938326396;0.8369;0.0743;0.1197;
3978321948429052;0.7229;0.0945;0.0963;
3978321958535042;0.6110;0.0350;0.0558;
3978321968640980;0.4193;0.0116;0.0579;
3978321978729990;0.2501;0.0626;0.0345;
3978321988835980;0.1893;0.0308;-0.0241;
3978321998941917;0.1009;-0.0055;-0.0294;
3978322009087230;-0.0461;0.0382;-0.0273;
3978322019193219;-0.1153;-0.0065;-0.0772;
3978322029299157;-0.2005;-0.1013;-0.0836;
3978322039388740;-0.2442;-0.0672;-0.0752;
3978322049494730;-0.1920;-0.0055;-0.0932;
3978322059600667;-0.2240;-0.0502;-0.0985;
3978322069687282;-0.3506;-0.0278;-0.0858;
3978322079793271;-0.3900;0.0361;-0.1028;
3978322089899261;-0.3879;-0.0225;-0.1166;
3978322100016084;-0.4731;-0.0598;-0.1017;
3978322110122073;-0.4486;0.0212;-0.0900;
3978322120228011;-0.2698;0.0222;-0.1007;
3978322130322750;-0.1441;-0.0587;-0.0858;
3978322140428167;0.0019;-0.0012;-0.0507;
3978322150533584;0.2085;0.0521;-0.0454;
3978322160638219;0.2650;-0.0566;-0.0262;
3978322170743636;0.3554;-0.0800;0.0142;
3978322180849052;0.5024;-0.0182;0.0324;
3978322190947386;0.6132;0.0137;0.0313;
3978322201052802;0.5652;0.0499;0.0601;
3978322211158219;0.4577;-0.0065;0.0941;
3978322221270146;0.4332;0.0137;0.0718;
3978322231375563;0.3479;-0.0630;0.0664;
3978322241480980;0.2000;-0.0779;0.1112;
3978322251588896;0.2426;0.0636;0.1122;
3978322261694313;0.2543;0.0489;0.0803;
3978322271799730;0.1073;0.0095;0.0707;
3978322281900980;0.0988;0.0585;0.0696;
3978322292006396;0.1190;0.0510;0.0696;
3978322302111813;0.0541;0.0382;0.0835;
3978322312216917;0.0381;0.0636;0.0675;
3978322322322334;0.0903;0.0116;0.0345;
3978322332427750;0.0913;-0.0268;0.0419;
3978322342543792;0.1073;-0.0097;0.0505;
3978322352649209;0.1670;-0.0374;0.0142;
3978322362754625;0.1595;-0.0704;-0.0007;
3978322372862542;0.1531;-0.0438;0.0228;
3978322382967959;0.1734;-0.0161;0.0132;
3978322393073375;0.1670;-0.0438;-0.0230;
3978322403191396;0.1435;-0.0619;-0.0134;
3978322413296813;0.1478;-0.0491;0.0036;
3978322423402230;0.1542;-0.0587;-0.0188;
3978322433479573;0.1382;-0.0119;-0.0305;
3978322443584990;0.1329;-0.0236;-0.0017;
3978322453690407;0.1233;-0.1035;-0.0060;
3978322463811188;0.0786;-0.0182;0.0015;
3978322473916605;-0.0269;0.0668;0.0015;
3978322484022021;-0.0567;0.0084;-0.0103;
3978322494116605;-0.0759;-0.0427;-0.0273;
3978322504222021;-0.1292;0.0009;-0.0177;
3978322514327438;-0.0897;0.0839;0.0004;
3978322524436969;0.0008;0.0340;-0.0156;
3978322534542386;-0.0035;-0.0321;-0.0156;
3978322544647802;0.0061;0.1158;-0.0039;
3978322554749105;0.0700;0.1329;-0.0262;
3978322564854521;0.0264;-0.0044;-0.0134;
3978322574959938;-0.1015;0.1063;-0.0103;
3978322585086292;-0.0770;0.2320;0.0015;
3978322595191709;0.0061;0.2192;0.0025;
3978322605297125;0.0498;0.2724;-0.0337;
3978322615367177;0.0839;0.2746;0.0036;
3978322625472594;0.0903;0.1883;0.1186;
3978322635578011;0.0455;0.1190;0.1485;
3978322645710146;-0.0141;0.0478;0.1293;
3978322655815563;-0.0866;0.0095;0.1314;
3978322665920980;-0.1111;-0.0087;0.1144;
3978322676014105;-0.1441;-0.0449;0.1027;
3978322686119521;-0.1771;0.0031;0.1069;
3978322696224938;-0.1664;0.0521;0.0973;
3978322706350719;-0.2091;0.0828;0.1165;
3978322716456136;-0.2879;0.1947;0.1027;
3978322726561552;-0.3081;0.2490;0.0654;
3978322736649469;-0.3602;0.2458;0.0675;
3978322746754886;-0.4134;0.1766;0.0505;
3978322756860302;-0.4518;0.0807;0.0558;
3978322766957959;-0.5082;0.0446;0.0995;
3978322777063375;-0.4848;0.0967;0.0792;
3978322787168792;-0.4252;0.1158;0.0899;
3978322797268636;-0.3634;0.1499;0.0963;
3978322807374052;-0.2889;0.1872;0.0846;
3978322817479469;-0.2389;0.1563;0.1250;
3978322827617907;-0.1782;0.1616;0.1186;
3978322837723375;-0.1473;0.1840;0.0984;
3978322847828792;-0.1238;0.1712;0.1240;
3978322857918167;-0.0993;0.1680;0.1037;
3978322868023584;-0.0983;0.1308;0.1240;
3978322878129000;-0.1089;0.1063;0.1080;
3978322888221500;-0.1377;0.0924;0.0824;
3978322898326917;-0.1973;0.0828;0.1229;
3978322908432334;-0.2293;0.1457;0.1016;
3978322918527021;-0.2367;0.0658;0.0920;
3978322928632438;-0.3124;-0.0193;0.1218;
3978322938737855;-0.4017;-0.0172;0.1027;
3978322948843063;-0.4614;-0.0630;0.0995;
3978322958948480;-0.5391;-0.0459;0.0846;
3978322969053896;-0.5658;-0.0246;0.0441;
3978322979161500;-0.6084;-0.0651;0.0462;
3978322989266917;-0.6648;-0.0662;0.0419;
3978322999372334;-0.6233;-0.1248;-0.0145;
3978323009494365;-0.6105;-0.1620;-0.0284;
3978323019599782;-0.6393;-0.1407;-0.0230;
3978323029705198;-0.5509;-0.1727;-0.0486;
3978323039815042;-0.5104;-0.1546;-0.0561;
3978323049920459;-0.4656;-0.0640;-0.0390;
3978323060025875;-0.4081;-0.0129;-0.0710;
3978323070134313;-0.4081;0.0020;-0.1017;
3978323080239730;-0.4220;-0.1738;-0.1209;
3978323090345146;-0.3847;-0.5434;-0.1731;
3978323100439417;-0.2964;-0.6754;-0.1763;
3978323110544834;-0.1643;-0.4188;-0.0996;
3978323120650250;-0.0940;-0.0715;-0.0688;
3978323130749417;-0.0045;0.0967;-0.0710;
3978323140854730;0.0935;0.1041;-0.0879;
3978323150960094;0.1904;0.2032;-0.1103;
3978323161068740;0.3288;0.2511;-0.0593;
3978323171174105;0.4491;0.0839;-0.0443;
3978323181279469;0.3714;-0.0097;-0.0889;
3978323191390302;0.2202;0.0222;-0.0710;
3978323201495615;0.1755;0.0020;-0.0772;
3978323211600980;0.1137;-0.1258;-0.0836;
3978323221698480;0.0381;-0.2281;-0.1145;
3978323231803792;-0.0525;-0.1748;-0.0762;
3978323241909157;-0.1015;-0.1237;-0.0772;
3978323252016396;-0.1292;-0.1067;-0.1092;
3978323262121709;-0.1515;-0.0332;-0.0932;
3978323272227073;-0.1739;-0.0065;-0.1113;
3978323282329469;-0.1995;0.0201;-0.1124;
3978323292434782;-0.2101;-0.0481;-0.1113;
3978323302540146;-0.2740;-0.0619;-0.1198;
3978323312648167;-0.3177;-0.0577;-0.1166;
3978323322753480;-0.3188;-0.0960;-0.1656;
3978323332858844;-0.3113;-0.0523;-0.1795;
3978323342964417;-0.2804;-0.0481;-0.1912;
3978323353069730;-0.2495;-0.0427;-0.1997;
3978323363175094;-0.1739;0.0212;-0.2157;
3978323373276500;-0.1206;0.0499;-0.2413;
3978323383381813;-0.1068;0.0414;-0.2221;
3978323393487177;-0.1025;0.0063;-0.2604;
3978323403592646;-0.0546;0.0116;-0.2711;
3978323413697959;-0.0322;-0.0875;-0.2242;
3978323423803323;0.0285;-0.1557;-0.2487;
3978323433914834;0.1116;-0.0055;-0.2690;
3978323444020146;0.1158;0.0764;-0.2807;
3978323454125511;0.2181;0.0871;-0.2402;
3978323464222386;0.2671;0.2820;-0.2253;
3978323474327698;0.3106;0.4833;-0.1965;
3978323484433063;0.3916;0.2501;-0.2114;
3978323494565771;0.5429;-0.0374;-0.1923;
3978323504671084;0.4395;-0.0268;-0.1965;
3978323514776448;0.3479;-0.0555;-0.1710;
3978323524853271;0.4310;-0.2835;-0.2189;
3978323534958584;0.4758;-0.3740;-0.2019;
3978323545063948;0.4917;-0.2835;-0.1656;
3978323555201084;0.6228;-0.1759;-0.1401;
3978323565306396;0.6515;-0.0012;-0.1092;
3978323575411761;0.6174;0.1212;-0.0858;
3978323585494052;0.6100;0.1947;-0.0348;
3978323595599365;0.5865;0.0999;-0.0284;
3978323605704730;0.5088;0.0169;-0.0273;
3978323615809834;0.3458;-0.0172;-0.0401;
3978323625915146;0.1968;0.0063;-0.0230;
3978323636020511;0.1190;0.0286;-0.0262;
3978323646121709;0.0807;0.0222;-0.0145;
3978323656227021;0.0860;-0.0108;-0.0518;
3978323666332334;0.0668;-0.0300;-0.0230;
3978323676436709;0.1073;0.0286;-0.0188;
3978323686542021;0.0583;-0.0864;-0.0252;
3978323696647386;0.0573;-0.1674;-0.0550;
3978323706712646;0.0402;-0.1013;-0.0252;
3978323716817959;0.0583;0.0009;-0.0390;
3978323726923323;0.0679;0.0499;-0.0720;
3978323737056500;0.0881;0.0563;-0.1007;
3978323747161813;0.1041;-0.0449;-0.0836;
3978323757267177;0.1190;-0.0864;-0.0646;
3978323767380146;0.1116;-0.0140;-0.0858;
3978323777485459;0.1861;0.1414;-0.1220;
3978323787590771;0.2575;0.0615;-0.1337;
3978323797764886;0.3138;-0.0651;-0.0953;
3978323807870250;0.3096;-0.1088;-0.0953;
3978323817975615;0.3288;-0.0928;-0.1028;
3978323827995667;0.3703;-0.1269;-0.1049;
3978323838101032;0.4033;-0.1205;-0.0889;
3978323848206344;0.4566;0.0084;-0.1241;
3978323858355771;0.5365;0.1148;-0.0953;
3978323868461084;0.5983;0.0850;-0.1209;
3978323878566448;0.6856;-0.1365;-0.1081;
3978323888656396;0.6206;-0.1727;-0.0667;
3978323898761709;0.5567;-0.0236;-0.0497;
3978323908867073;0.6483;0.1063;-0.0571;
3978323918955771;0.7559;0.0265;-0.0635;
3978323929061084;0.7612;-0.1652;-0.0358;
3978323939166448;0.7165;-0.1897;0.0047;
3978323949292125;0.6899;-0.1184;0.0111;
3978323959397438;0.7293;0.0881;0.0366;
3978323969502802;0.6952;0.1861;0.0281;
3978323979581813;0.7921;0.1489;0.0121;
3978323989687125;0.8529;0.1510;0.0675;
3978323999792490;0.7730;0.0595;0.0984;
3978324009923375;0.6132;-0.0577;0.1367;
3978324020028688;0.4640;0.0499;0.1122;
3978324030134052;0.4427;0.0956;0.1080;
3978324040214313;0.4449;-0.0971;0.1591;
3978324050319625;0.3106;-0.2547;0.1836;
3978324060424990;0.2628;-0.1503;0.2156;
3978324070543584;0.2415;0.0276;0.1644;
3978324080648896;0.2671;0.0467;0.1495;
3978324090754261;0.2682;0.0499;0.1858;
3978324100856396;0.2043;0.0563;0.2145;
3978324110961709;0.2128;0.0956;0.2305;
3978324121067073;0.1830;0.0786;0.2124;
3978324131167125;0.1776;0.0711;0.2188;
3978324141272334;0.1297;0.0254;0.2699;
3978324151377594;0.0743;0.0977;0.2220;
3978324161474730;0.1425;0.2543;0.2465;
3978324171579990;0.1435;0.1265;0.2539;
3978324181685250;0.1606;-0.0726;0.2774;
3978324191800563;0.1308;-0.0662;0.2923;
3978324201905771;0.1052;0.0924;0.2635;
3978324212011032;0.0924;0.0499;0.2976;
3978324222119417;0.0935;-0.2792;0.2848;
3978324232224625;0.0040;-0.2068;0.2443;
3978324242329886;-0.1505;0.1915;0.2806;
3978324252429000;-0.0503;0.3044;0.2379;
3978324262534209;0.0881;0.1286;0.2230;
3978324272639469;0.0232;0.0414;0.2262;
3978324282750980;-0.0663;0.0690;0.2624;
3978324292856188;-0.0493;0.1212;0.2475;
3978324302961448;-0.0397;0.0839;0.2614;
3978324313071709;-0.0727;-0.1365;0.2656;
3978324323176917;-0.1537;-0.4209;0.2497;
3978324333282177;-0.2559;-0.1514;0.2933;
3978324343380667;-0.3166;0.3140;0.1921;
3978324353485875;-0.1579;0.2735;0.1623;
3978324363591136;-0.1537;-0.2047;0.2337;
3978324373702230;-0.4539;0.0201;0.2284;
3978324383807438;-0.6425;0.4162;0.1602;
3978324393912698;-0.4390;0.1851;0.1399;
3978324404017125;-0.4859;-0.0374;0.1282;
3978324414122334;-0.8917;0.1201;0.1517;
3978324424227594;-0.8885;0.2320;0.1112;
3978324434338584;-0.7405;0.0553;0.0792;
3978324444443792;-0.7980;-0.0949;0.0462;
3978324454549052;-0.8342;0.0180;0.0483;
3978324464651709;-0.6968;0.0095;0.0579;
3978324474756917;-0.5977;-0.0481;0.0419;
3978324484862177;-0.5519;-0.0790;0.0334;
3978324494970407;-0.4198;-0.0055;0.0228;
3978324505075667;-0.3049;0.0276;0.0664;
3978324515180927;-0.2304;-0.0545;0.0856;
3978324525279730;-0.1814;-0.0374;0.0814;
3978324535384938;-0.1270;0.1073;0.0728;
3978324545490198;-0.0940;0.1446;0.1314;
3978324555628323;-0.1036;0.1446;0.1229;
3978324565733584;-0.1185;-0.0193;0.0984;
3978324575838844;-0.2069;-0.0875;0.0601;
3978324585911084;-0.2250;0.0201;0.0696;
3978324596016292;-0.1846;-0.0182;0.0824;
3978324606121552;-0.1867;-0.1471;0.0430;
3978324616224886;-0.2719;-0.0683;0.0047;
3978324626330094;-0.2197;-0.0459;0.0206;
3978324636435355;-0.2101;-0.0523;0.0036;
3978324646535980;-0.2570;-0.0491;-0.0422;
3978324656641188;-0.2378;-0.0076;-0.0667;
3978324666746448;-0.2176;0.0403;-0.0635;
3978324676847386;-0.2091;0.0775;-0.0624;
3978324686952594;-0.2304;0.0690;-0.0900;
3978324697057855;-0.2133;-0.0353;-0.1049;
3978324707183636;-0.2176;-0.0832;-0.1113;
3978324717288896;-0.2485;0.0425;-0.0911;
3978324727394157;-0.1899;0.0658;-0.1049;
3978324737492594;-0.1569;-0.0225;-0.1060;
3978324747597855;-0.1920;-0.0513;-0.0815;
3978324757703115;-0.1941;-0.0236;-0.1081;
3978324767797855;-0.1877;-0.0321;-0.1337;
3978324777903063;-0.1771;0.0158;-0.1326;
3978324788008323;-0.1824;0.0818;-0.1294;
3978324798127334;-0.1632;-0.0811;-0.1294;
3978324808232542;-0.1664;-0.1961;-0.1166;
3978324818337802;-0.1995;-0.0236;-0.1177;
3978324828443063;-0.1249;0.1585;-0.1348;
3978324838531917;-0.0546;0.1158;-0.1220;
3978324848637125;-0.0269;-0.0385;-0.1284;
3978324858742386;-0.0631;0.0308;-0.1134;
3978324868853792;-0.0663;0.1393;-0.1113;
3978324878959000;0.0541;-0.0885;-0.1198;
3978324889064261;0.0423;-0.0726;-0.1220;
3978324899176292;-0.0525;0.1563;-0.1198;
3978324909281500;0.0232;0.1861;-0.1166;
3978324919386761;0.1574;-0.0300;-0.0879;
3978324929482959;0.0402;-0.1663;-0.0794;
3978324939588167;-0.0897;-0.1045;-0.0804;
3978324949693427;-0.0599;0.0265;-0.0953;
3978324959830459;-0.0684;0.0521;-0.1220;
3978324969935667;-0.0780;0.0233;-0.1209;
3978324980040927;-0.0972;0.0393;-0.1220;
3978324990121292;-0.1185;0.0690;-0.1156;
3978325000226500;-0.0972;0.1254;-0.1369;
3978325010331761;-0.0663;0.1233;-0.1284;
3978325020430719;-0.0951;0.0190;-0.1124;
3978325030535927;-0.1260;-0.1652;-0.1273;
3978325040641188;-0.1185;-0.1610;-0.1518;
3978325050770302;-0.1004;-0.0907;-0.1656;
3978325060875563;-0.0578;-0.0332;-0.1720;
3978325070980823;-0.0652;-0.0438;-0.1507;
3978325081064209;-0.0248;0.0531;-0.1720;
3978325091169417;0.0146;0.0818;-0.1454;
3978325101274677;0.1169;-0.0449;-0.1720;
3978325111380250;0.1201;-0.1035;-0.1848;
3978325121485459;0.1084;-0.0001;-0.1529;
3978325131590719;0.1808;0.0999;-0.1443;
3978325141697855;0.2863;0.0700;-0.1678;
3978325151803115;0.3192;0.0063;-0.1326;
3978325161908427;0.3096;0.0244;-0.1369;
3978325172012334;0.3607;-0.1290;-0.0953;
3978325182117594;0.3607;-0.2803;-0.0911;
3978325192222907;0.2565;-0.0502;-0.1103;
3978325202329886;0.1830;0.1574;-0.1166;
3978325212435146;0.3085;0.1254;-0.1284;
3978325222540459;0.3554;0.0553;-0.1145;
3978325232648167;0.2437;0.0711;-0.0943;
3978325242753427;0.1659;0.0775;-0.0889;
3978325252858740;0.1606;-0.0268;-0.0975;
3978325262965719;0.1233;-0.0843;-0.0953;
3978325273070980;0.0945;-0.0459;-0.0868;
3978325283176292;0.1340;-0.0694;-0.0752;
3978325293302542;0.1510;-0.1248;-0.0720;
3978325303407802;0.1393;-0.0917;-0.0772;
3978325313513115;0.1606;-0.0161;-0.0635;
3978325323595250;0.2043;-0.0481;-0.0868;
3978325333700511;0.2170;-0.0587;-0.0762;
3978325343805823;0.1435;-0.0012;-0.0772;
3978325353923792;0.1798;-0.0257;-0.0656;
3978325364029052;0.1947;0.0871;-0.0868;
3978325374134365;0.2170;0.1542;-0.0646;
3978325384229000;0.3064;-0.0949;-0.0529;
3978325394334261;0.2565;-0.1514;-0.0422;
3978325404439573;0.1712;-0.0864;-0.0348;
3978325414538792;0.2394;-0.0640;-0.0337;
3978325424644052;0.2490;-0.1184;-0.0188;
3978325434749365;0.2053;-0.0864;-0.0060;
3978325444867125;0.1925;0.0308;-0.0188;
3978325454972386;0.2628;0.0148;-0.0241;
3978325465077698;0.2989;-0.0651;-0.0156;
3978325475184834;0.2224;0.0063;0.0100;
3978325485290094;0.2245;0.0796;0.0100;
3978325495395407;0.3138;0.0063;-0.0124;
3978325505490980;0.2501;0.0169;-0.0156;
3978325515596240;0.2106;0.0967;0.0100;
3978325525701552;0.3043;0.0382;0.0068;
3978325535811396;0.3373;-0.0907;0.0345;
3978325545916657;0.2192;-0.0672;0.0377;
3978325556021969;0.2085;-0.0119;0.0217;
3978325566125146;0.2341;-0.0555;0.0196;
3978325576230407;0.1798;-0.0236;0.0451;
3978325586335719;0.1766;0.0297;0.0569;
3978325596445146;0.1989;-0.0087;0.0515;
3978325606550407;0.1510;-0.0790;0.0537;
3978325616655719;0.0636;-0.0172;0.0558;
3978325626755875;0.0210;0.1531;0.0473;
3978325636861136;0.1382;0.1989;0.0473;
3978325646966448;0.2138;0.1510;0.0654;
3978325657059417;0.1915;0.0807;0.0579;
3978325667164677;0.1329;0.0935;0.0409;
3978325677269990;0.1158;0.1212;0.0185;
3978325687379000;0.1382;0.0700;0.0601;
3978325697484261;0.1148;-0.0268;0.0611;
3978325707589573;0.1073;-0.0065;0.0643;
3978325717740250;0.1244;0.0489;0.0547;
3978325727845563;0.1712;-0.0129;0.0718;
3978325737950875;0.1435;-0.0534;0.0899;
3978325747994313;0.1254;-0.0438;0.0867;
3978325758099625;0.1095;-0.0044;0.0909;
3978325768204886;0.1489;0.0041;0.1027;
3978325778354782;0.1425;0.0350;0.1197;
3978325788460094;0.1766;0.1446;0.1133;
3978325798565355;0.2277;0.0457;0.1133;
3978325808635146;0.1861;-0.0843;0.1485;
3978325818740407;0.1020;-0.0459;0.1293;
3978325828845719;0.0658;-0.0076;0.1229;
3978325839010198;0.0881;-0.0470;0.1389;
3978325849115511;0.0391;-0.1589;0.1453;
3978325859220823;-0.0120;-0.0843;0.1346;
3978325869298896;-0.0482;0.0329;0.1282;
3978325879404157;-0.0194;-0.0374;0.1314;
3978325889509469;-0.0429;-0.0885;0.1495;
3978325899598688;-0.1324;-0.0076;0.1453;
3978325909703948;-0.1441;0.0956;0.1069;
3978325919809261;-0.1494;0.0860;0.1005;
3978325929914313;-0.1835;0.0350;0.1186;
3978325940019573;-0.2336;0.0615;0.0877;
3978325950124886;-0.2549;-0.0161;0.0782;
3978325960230719;-0.2485;-0.0981;0.0664;
3978325970335980;-0.2708;-0.1375;0.0558;
3978325980441292;-0.3028;-0.1525;0.0089;
3978325990553792;-0.2783;-0.1301;-0.0220;
3978326000659052;-0.2602;-0.1088;-0.0060;
3978326010764365;-0.1899;-0.0981;-0.0113;
3978326020866500;-0.1185;0.0169;-0.0326;
3978326030971761;-0.0802;0.0222;-0.0422;
3978326041077073;0.0029;-0.1130;-0.0262;
3978326051168896;0.0658;-0.1120;0.0068;
3978326061274157;0.0828;0.0340;0.0100;
3978326071379469;0.1233;0.0435;0.0004;
3978326081504052;0.1957;-0.1876;0.0387;
3978326091609313;0.2469;-0.5274;0.1037;
3978326101714625;0.2682;-0.4252;0.0867;
3978326111813584;0.1233;0.0935;0.0590;
3978326121918844;0.0104;0.3449;0.0846;
3978326132024157;0.2075;0.2756;0.0718;
3978326142134469;0.2979;0.2085;0.0611;
3978326152239834;0.2288;0.2458;0.1037;
3978326162345250;0.1105;0.2106;0.0877;
3978326172442855;0.0264;0.1659;0.0718;
3978326182548219;-0.0716;0.1648;0.1186;
3978326192653636;-0.1505;0.0881;0.0973;
3978326202757646;-0.1462;0.1105;0.0686;
3978326212863011;-0.1494;0.1755;0.0387;
3978326222968427;-0.1079;0.0510;0.0292;
3978326233077646;-0.1015;-0.0822;0.0356;
3978326243183011;-0.1409;0.1318;0.0068;
3978326253288427;-0.1569;0.4312;-0.0166;
3978326263396188;0.0051;0.1872;0.0217;
3978326273501552;0.0498;-0.0822;-0.0177;
3978326283606969;-0.0887;-0.0577;-0.0710;
3978326293705980;-0.0983;-0.0555;-0.0465;
3978326303811344;-0.0205;-0.0395;-0.0593;
3978326313916761;0.0040;-0.0534;-0.0656;
3978326324029313;0.0093;-0.0555;-0.0879;
3978326334134677;0.0413;-0.1045;-0.0836;
3978326344240094;0.0509;-0.0907;-0.0401;
3978326354339209;0.0732;0.0297;-0.0379;
3978326364444573;0.1063;-0.0662;-0.0379;
3978326374549990;0.1286;-0.1567;-0.0348;
3978326384656969;0.0732;-0.0513;-0.0411;
3978326394762334;0.0668;0.0063;-0.0252;
3978326404867750;0.1137;0.0754;-0.0134;
3978326414973063;0.1521;0.1979;-0.0081;
3978326425078427;0.1670;0.0658;-0.0017;
3978326435183844;0.2330;-0.0896;0.0121;
3978326445293584;0.1467;-0.0609;0.0441;
3978326455398948;0.1063;0.0690;0.0601;
3978326465504365;0.1574;0.1574;0.0111;
3978326475606813;0.1712;0.1020;0.0025;
3978326485712177;0.1308;0.0457;0.0334;
3978326495817594;0.0605;0.1063;0.0696;
3978326505913792;0.0711;0.0711;0.0664;
3978326516019157;0.0679;0.0063;0.0515;
3978326526124573;0.0349;-0.0268;0.0611;
3978326536229157;0.0210;0.0158;0.0792;
3978326546334521;0.0381;0.0818;0.0750;
3978326556439938;0.0668;0.0818;0.0675;
3978326566559000;0.0722;-0.0044;0.0601;
3978326576664365;0.0466;0.0116;0.0558;
3978326586769782;0.0679;0.0988;0.0739;
3978326596869886;0.0818;0.0999;0.0601;
3978326606975250;0.0626;0.0126;0.0707;
3978326617080667;-0.0013;-0.0374;0.0707;
3978326627194730;-0.0280;-0.0417;0.0888;
3978326637300094;-0.0322;0.0073;0.0846;
3978326647405511;-0.0567;-0.0204;0.0569;
3978326657488688;-0.0631;-0.0694;0.0483;
3978326667594052;-0.0972;0.0052;0.0579;
3978326677699469;-0.1121;0.0668;0.0782;
3978326687816188;-0.1004;-0.0182;0.0547;
3978326697921552;-0.1015;-0.0470;0.0441;
3978326708026969;-0.1590;-0.0225;0.0515;
3978326718137438;-0.1441;0.0020;0.0441;
3978326728242802;-0.1217;-0.0023;0.0164;
3978326738348219;-0.1068;0.0041;-0.0039;
3978326748461605;-0.1015;0.0052;0.0260;
3978326758566969;-0.0983;-0.0087;0.0142;
3978326768672386;-0.0823;-0.0108;-0.0103;
3978326778741813;-0.0855;-0.0364;0.0142;
3978326788847177;-0.0791;-0.1035;0.0100;
3978326798952594;-0.0716;-0.0225;-0.0092;
3978326809098792;-0.0525;0.0478;0.0142;
3978326819204157;-0.0162;0.0244;0.0132;
3978326829309573;-0.0035;-0.0204;0.0057;
3978326839408688;-0.0173;-0.0033;0.0047;
3978326849514052;-0.0130;0.0169;-0.0134;
3978326859619469;0.0136;0.0700;-0.0124;
3978326869708792;-0.0013;0.0286;0.0249;
3978326879814157;-0.0120;-0.0172;0.0068;
3978326889919573;-0.0312;-0.0140;0.0196;
3978326900028896;-0.0535;-0.0129;0.0068;
3978326910134261;-0.0482;-0.0971;0.0004;
3978326920239677;-0.0482;-0.1130;0.0047;
3978326930344052;-0.0578;-0.0768;0.0100;
3978326940449417;-0.0407;-0.0449;0.0004;
3978326950554834;-0.0407;-0.0406;0.0015;
3978326960658480;-0.0258;-0.0289;0.0015;
3978326970763844;-0.0312;-0.0182;0.0004;
3978326980869261;-0.0056;0.0137;-0.0262;
3978326990972021;-0.0056;0.0489;-0.0145;
3978327001077386;0.0232;0.0743;-0.0209;
3978327011182802;0.0178;0.0318;-0.0273;
3978327021291396;0.0360;-0.0023;-0.0262;
3978327031396761;-0.0003;0.0372;-0.0177;
3978327041502177;0.0029;0.0031;-0.0262;
3978327051620146;-0.0013;-0.0214;-0.0379;
3978327061725511;-0.0088;0.0222;-0.0518;
3978327071830927;0.0115;0.0393;-0.0486;
3978327081923896;0.0125;0.0105;-0.0454;
3978327092029261;0.0029;-0.0758;-0.0252;
3978327102134677;-0.0013;-0.0875;-0.0486;
3978327112234886;-0.0130;-0.0236;-0.0582;
3978327122340250;0.0061;0.0276;-0.0836;
3978327132445667;0.0136;0.0414;-0.0561;
3978327142563480;0.0008;-0.0278;-0.0571;
3978327152668792;-0.0152;0.0190;-0.0762;
3978327162774157;-0.0290;0.0743;-0.0868;
3978327172873896;-0.0035;-0.0577;-0.0688;
3978327182979209;-0.0578;-0.1429;-0.0699;
3978327193084573;-0.0642;-0.1013;-0.0932;
3978327203187750;-0.0407;-0.0843;-0.0731;
3978327213293063;-0.0013;-0.0427;-0.0900;
3978327223398427;0.0317;0.0009;-0.0688;
3978327233502802;0.0551;-0.0119;-0.0582;
3978327243608115;0.1212;-0.0097;-0.0497;
3978327253713480;0.1318;0.0297;-0.0507;
3978327263820875;0.1670;0.0233;0.0015;
3978327273926188;0.1851;0.0190;-0.0081;
3978327284031552;0.2021;0.0308;-0.0348;
3978327294147230;0.1861;0.0318;-0.0156;
3978327304252542;0.1606;-0.0246;0.0164;
3978327314357907;0.1180;-0.0704;0.0196;
3978327324450875;0.0828;-0.0204;-0.0007;
3978327334556188;0.0828;0.0510;-0.0092;
3978327344661552;0.0743;0.0553;-0.0039;
3978327354768792;0.0509;0.0041;-0.0081;
3978327364874105;0.0370;0.0073;0.0100;
3978327374979469;0.0136;0.0828;-0.0209;
3978327385080667;0.0391;0.1435;-0.0603;
3978327395185980;0.0605;0.0828;-0.0550;
3978327405291344;0.0306;-0.0246;-0.0198;
3978327415397959;-0.0067;0.0031;-0.0486;
3978327425503271;0.0381;0.0521;-0.0699;
3978327435608636;0.0551;-0.0023;-0.0646;
3978327445723584;0.0647;-0.0971;-0.0614;
3978327455828896;0.0636;-0.0843;-0.0539;
3978327465934261;0.0764;-0.0225;-0.0752;
3978327476026500;0.1084;0.0031;-0.0635;
3978327486131813;0.1244;0.0126;-0.0348;
3978327496237177;0.1308;0.0116;-0.0401;
3978327506360875;0.1574;-0.0108;-0.0593;
3978327516466188;0.1489;-0.0811;-0.0475;
3978327526571552;0.1254;-0.1344;-0.0433;
3978327536658480;0.0945;-0.0385;-0.0454;
3978327546763844;0.1126;0.0615;-0.0177;
3978327556869157;0.1073;0.0254;-0.0177;
3978327566978167;0.1095;-0.0129;-0.0390;
3978327577083480;0.0743;0.0009;-0.0433;
3978327587188844;0.0881;0.0700;-0.0475;
3978327597297802;0.1041;-0.0268;-0.0230;
3978327607403115;0.0626;-0.1546;0.0068;
3978327617508480;0.0626;-0.1077;0.0206;
3978327627640094;0.0913;-0.0108;0.0100;
3978327637745459;0.1265;0.0190;-0.0209;
3978327647850823;0.1371;0.0510;-0.0198;
3978327657910511;0.1286;0.1137;0.0025;
3978327668015875;0.1403;0.1233;0.0015;
3978327678121188;0.1798;0.0446;0.0217;
3978327688219209;0.1276;-0.0640;0.0292;
3978327698324521;0.0913;-0.1109;0.0196;
3978327708429886;0.1190;-0.1237;0.0111;
3978327718553375;0.1180;-0.1258;0.0356;
3978327728658688;0.1425;-0.0353;0.0505;
3978327738764052;0.1467;0.0775;0.0324;
3978327748893480;0.2192;0.0626;0.0569;
3978327758998792;0.2692;-0.0491;0.0984;
3978327769104157;0.2234;-0.0619;0.0590;
3978327779185667;0.1904;-0.0097;0.0675;
3978327789291032;0.1787;-0.0140;0.1144;
3978327799396344;0.1137;-0.0172;0.0973;
3978327809493792;0.1009;-0.1823;0.1154;
3978327819599157;0.1116;-0.3208;0.1463;
3978327829704469;0.0892;-0.2505;0.1431;
3978327839856396;0.1063;-0.0885;0.1250;
3978327849961709;0.0945;0.0190;0.1314;
3978327860067073;0.0871;0.1425;0.1304;
3978327870147125;0.0999;0.2959;0.1272;
3978327880252490;0.1542;0.3193;0.1293;
3978327890357802;0.1755;0.1126;0.1527;
3978327900448584;0.0754;0.0126;0.1730;
3978327910553896;-0.0141;0.0574;0.1708;
3978327920659261;-0.0290;0.0521;0.1623;
3978327930761813;-0.0024;0.0308;0.1495;
3978327940867125;0.0019;0.1840;0.1485;
3978327950972490;0.0189;0.2895;0.1453;
3978327961091344;0.0839;0.1574;0.1644;
3978327971196761;0.0317;-0.0395;0.1730;
3978327981302073;0.0242;-0.0374;0.1708;
3978327991401917;0.0115;-0.1748;0.2071;
3978328001507230;-0.0248;-0.2366;0.2039;
3978328011612594;-0.0961;-0.0715;0.1751;
3978328021722750;-0.1121;0.1702;0.1527;
3978328031828063;-0.0876;0.1318;0.1453;
3978328041933427;-0.0482;-0.0182;0.1996;
3978328052050302;-0.1036;0.1425;0.1474;
3978328062155615;-0.0802;0.0839;0.1421;
3978328072260980;-0.0280;-0.1280;0.1549;
3978328082344313;-0.1100;-0.1706;0.1708;
3978328092449625;-0.1206;-0.0864;0.1719;
3978328102554990;-0.0652;0.0574;0.1730;
3978328112661917;-0.0162;0.1883;0.1612;
3978328122767230;0.0072;0.1233;0.1847;
3978328132862177;-0.0088;0.0169;0.1474;
3978328142967542;-0.0439;0.0212;0.1612;
3978328153072907;-0.0578;0.0212;0.1708;
3978328163190355;-0.0748;0.0435;0.1581;
3978328173295667;-0.0897;-0.0193;0.1591;
3978328183401032;-0.1387;-0.0545;0.1602;
3978328193497802;-0.1675;0.0435;0.1612;
3978328203603115;-0.1313;0.1244;0.1357;
3978328213708480;-0.1206;0.0903;0.1208;
3978328223818480;-0.1249;0.0084;0.1549;
3978328233923792;-0.1654;-0.0843;0.1389;
3978328244029157;-0.1622;-0.1216;0.1304;
3978328254137125;-0.1739;0.0095;0.0877;
3978328264242438;-0.1579;0.0595;0.1357;
3978328274347802;-0.1664;-0.0214;0.1304;
3978328284458167;-0.1888;0.0297;0.0952;
3978328294563480;-0.2059;0.0850;0.1048;
3978328304668844;-0.1995;-0.0310;0.1048;
3978328314779834;-0.2048;-0.1535;0.0814;
3978328324885198;-0.2495;-0.1194;0.0782;
3978328334990511;-0.2144;0.0201;0.0632;
3978328345089938;-0.1622;0.0871;0.0782;
3978328355195302;-0.1345;0.0222;0.0888;
3978328365300615;-0.1483;0.0329;0.0601;
3978328375403375;-0.1547;0.1020;0.0526;
3978328385508688;-0.1601;0.1893;0.0579;
3978328395614052;-0.1643;0.1872;0.0473;
3978328405722542;-0.1739;0.1286;0.0015;
3978328415827855;-0.2240;0.1073;-0.0007;
3978328425933219;-0.2826;0.1137;0.0025;
3978328436044417;-0.2964;0.1393;0.0036;
3978328446149730;-0.3261;0.0297;0.0100;
3978328456255094;-0.3442;-0.0342;-0.0188;
3978328466353271;-0.3421;-0.0598;-0.0390;
3978328476458636;-0.3028;-0.1067;-0.0433;
3978328486563948;-0.2815;0.0158;-0.0742;
3978328496693532;-0.2527;0.0977;-0.0783;
3978328506798844;-0.2208;-0.0097;-0.0804;
3978328516904209;-0.2399;-0.0875;-0.1241;
3978328526970667;-0.2367;-0.0342;-0.1390;
3978328537076032;-0.1952;0.0020;-0.1316;
3978328547181344;-0.1750;-0.0342;-0.1156;
3978328557308480;-0.1675;-0.0875;-0.0964;
3978328567413792;-0.1611;-0.0555;-0.0868;
3978328577519157;-0.1079;0.0105;-0.0720;
3978328587648636;-0.0791;0.0009;-0.0646;
3978328597754000;-0.0290;0.0658;-0.0879;
3978328607859365;0.0157;0.1510;-0.0762;
3978328617921605;0.0274;0.1318;-0.0603;
3978328628026969;0.0285;0.0828;-0.0273;
3978328638132334;-0.0216;0.0254;-0.0720;
3978328648255355;-0.0525;-0.0598;-0.0879;
3978328658360667;-0.1132;-0.1322;-0.0678;
3978328668466032;-0.1068;0.0180;-0.0815;
3978328678571500;-0.0791;0.0499;-0.0742;
3978328688676813;-0.0642;0.0244;-0.0699;
3978328698782177;-0.0876;0.0126;-0.0804;
3978328708889209;-0.0791;0.0180;-0.0815;
3978328718994573;-0.0823;0.0254;-0.0868;
3978328729099886;-0.0791;-0.0001;-0.0879;
3978328739204938;-0.0919;-0.0683;-0.0815;
3978328749310302;-0.0727;-0.0790;-0.1124;
3978328759415615;-0.0599;0.0052;-0.1305;
3978328769518688;-0.0184;0.1371;-0.1209;
3978328779624000;0.0317;0.0956;-0.1017;
3978328789729365;0.0445;-0.0268;-0.0720;
3978328799788532;-0.0013;-0.0630;-0.0710;
3978328809893844;-0.0099;-0.0236;-0.0614;
3978328819999209;-0.0461;-0.0300;-0.0561;
3978328830135980;-0.0482;-0.0864;-0.0454;
3978328840241344;-0.0759;-0.0523;-0.0390;
3978328850346657;-0.0727;-0.0353;-0.0379;
3978328860453584;-0.0908;-0.0555;-0.0635;
3978328870558896;-0.0855;0.0052;-0.0889;
3978328880664261;-0.0812;0.0425;-0.0794;
3978328890760980;-0.0706;-0.0534;-0.0889;
3978328900866344;-0.1036;-0.1035;-0.0826;
3978328910971657;-0.1025;-0.0907;-0.0772;
3978328921081188;-0.0780;-0.0289;-0.0836;
3978328931186500;-0.0535;-0.0321;-0.0836;
3978328941291865;-0.0770;-0.0236;-0.1433;
3978328951407438;-0.0322;0.0467;-0.1060;
3978328961512750;-0.0557;-0.0108;-0.0847;
3978328971618115;-0.0599;-0.0811;-0.0879;
3978328981719209;-0.0748;-0.0459;-0.1369;
3978328991824521;-0.0514;0.0658;-0.1603;
3978329001929886;-0.0258;0.0382;-0.1518;
3978329012032646;-0.0482;-0.1045;-0.1422;
3978329022137959;-0.0567;-0.0928;-0.1507;
3978329032243323;-0.0333;-0.0076;-0.1710;
3978329042365771;-0.0141;-0.0332;-0.1582;
3978329052471084;-0.0035;-0.1003;-0.1507;
3978329062576448;-0.0045;0.0318;-0.1699;
3978329072671552;0.0296;0.1414;-0.1710;
3978329082776865;0.1020;0.0585;-0.1795;
3978329092882230;0.1137;0.0169;-0.1795;
3978329102995875;0.0807;0.0828;-0.1901;
3978329113101188;0.1499;0.0903;-0.1752;
3978329123206552;0.2032;0.0126;-0.1550;
3978329133305980;0.2362;0.0148;-0.1443;
3978329143411448;0.2597;0.0116;-0.1507;
3978329153516917;0.3021;-0.0310;-0.1337;
3978329163616813;0.2936;0.0126;-0.0742;
3978329173722282;0.3202;-0.0044;-0.0401;
3978329183827750;0.3085;-0.1375;-0.0593;
3978329193933480;0.2277;-0.1354;-0.0262;
3978329204038948;0.1734;0.0276;-0.0401;
3978329214144417;0.2085;0.1137;-0.0348;
3978329224239730;0.2522;0.0233;-0.0379;
3978329234345198;0.1989;-0.0502;-0.0060;
3978329244450667;0.1286;-0.0236;-0.0081;
3978329254565980;0.1510;-0.0353;-0.0124;
3978329264671448;0.1265;-0.0640;0.0047;
3978329274776917;0.1052;0.0531;0.0164;
3978329284876136;0.1286;0.1105;0.0249;
3978329294981605;0.1286;-0.0033;0.0089;
3978329305087073;0.0850;-0.0417;0.0036;
3978329315201188;0.0455;-0.0587;-0.0145;
3978329325306657;0.0253;-0.0044;-0.0348;
3978329335412125;0.0051;-0.0129;-0.0369;
3978329345514521;-0.0056;-0.0694;-0.0305;
3978329355619990;-0.0162;-0.1578;-0.0475;
3978329365725459;-0.0205;-0.2558;-0.0475;
3978329375834469;-0.0439;-0.1269;-0.0731;
3978329385939938;0.0061;0.0626;-0.0656;
3978329396045407;0.0945;0.0446;-0.0529;
3978329406144625;0.0945;-0.0662;-0.0720;
3978329416250094;0.0796;0.0063;-0.0752;
3978329426355511;0.1190;0.1425;-0.0582;
3978329436454313;0.1648;0.1627;-0.0742;
3978329446559782;0.1712;0.0553;-0.0348;
3978329456665250;0.1254;-0.0108;-0.0071;
3978329466764105;0.1318;-0.0342;0.0036;
3978329476869521;0.1691;0.0350;0.0121;
3978329486974990;0.1766;0.0063;0.0494;
3978329497083480;0.1723;-0.1844;0.0888;
3978329507188948;0.1340;-0.2121;0.0664;
3978329517294417;0.1169;-0.0875;0.0601;
3978329527396084;0.1723;-0.0928;0.0835;
3978329537501552;0.1222;-0.3016;0.1389;
3978329547606969;0.0668;-0.2249;0.1005;
3978329557735823;0.1190;-0.3037;0.1197;
3978329567841292;0.0605;-0.3889;0.1644;
3978329577946761;-0.0237;0.1574;0.1016;
3978329588041396;0.0722;0.4482;0.1218;
3978329598146865;0.2149;0.4610;0.1591;
3978329608252334;0.2202;0.6463;0.1346;
3978329618394313;0.2000;0.6186;0.1751;
3978329628499730;0.0860;0.3087;0.1453;
3978329638605198;-0.1473;-0.1450;0.2017;
3978329648652750;-0.3485;-0.1354;0.2017;
3978329658758219;-0.3389;0.0722;0.1602;
3978329668863688;-0.2559;-0.0438;0.1442;
3978329678977334;-0.2144;0.2383;0.1218;
3978329689082802;-0.1015;-0.0587;0.1122;
3978329699188271;-0.0535;-0.3549;0.0547;
3978329709316709;-0.1707;-0.2920;0.0803;
3978329719422177;-0.1142;-0.3261;0.0952;
3978329729527594;-0.1249;-0.2419;0.0579;
3978329739635146;-0.1068;-0.1354;0.0036;
3978329749740615;-0.0567;0.1009;0.0238;
3978329759846084;0.0178;0.4269;0.0111;
3978329769936917;0.1776;0.4759;0.0068;
3978329780042386;0.2181;0.3608;0.0238;
3978329790147855;0.0679;0.2607;0.0462;
3978329800253896;-0.0557;0.0839;0.0654;
3978329810359365;-0.1100;-0.0800;0.0537;
3978329820464834;-0.1792;-0.1620;0.0579;
3978329830568792;-0.1952;-0.1940;0.0654;
3978329840674261;-0.1888;-0.1993;0.0462;
3978329850779730;-0.1313;-0.1344;0.0057;
3978329860879730;-0.0663;0.0425;0.0036;
3978329870985198;-0.0162;0.1648;0.0057;
3978329881090667;-0.0035;0.0329;0.0004;
3978329891192646;-0.0344;-0.1045;0.0270;
3978329901298115;-0.0088;-0.0779;0.0302;
3978329911403584;0.0168;-0.0374;0.0260;
3978329921506709;0.0210;0.0073;0.0494;
3978329931612177;0.0029;0.0553;0.0718;
3978329941717646;-0.0109;-0.0172;0.0899;
3978329951838323;-0.0173;-0.0960;0.0675;
3978329961943792;-0.0130;-0.0672;0.0632;
3978329972049261;0.0104;0.0489;0.0547;
3978329982144625;0.0210;0.0457;0.0515;
3978329992250094;0.0178;-0.0182;0.0750;
3978330002355563;-0.0141;-0.0119;0.0824;
3978330012462750;-0.0130;-0.0672;0.1016;
3978330022568219;-0.0194;-0.0555;0.1176;
3978330032673688;-0.0407;0.0435;0.1410;
3978330042793896;-0.0344;-0.0119;0.1527;
3978330052899313;-0.0322;-0.0268;0.1538;
3978330063004782;-0.0333;0.0828;0.1304;
3978330073099105;-0.0280;0.1329;0.1399;
3978330083204573;-0.0471;0.0372;0.1570;
3978330093310042;-0.1057;-0.0204;0.1549;
3978330103425250;-0.1196;-0.0342;0.1293;
3978330113530719;-0.1558;-0.0896;0.1357;
3978330123636188;-0.2197;-0.0704;0.1325;
3978330133733375;-0.2762;-0.0182;0.1293;
3978330143838688;-0.3017;0.0244;0.1304;
3978330153944052;-0.3092;0.0372;0.1197;
3978330164047334;-0.3282;0.0425;0.0814;
3978330174152646;-0.3145;0.0414;0.0515;
3978330184258011;-0.2996;0.0807;0.0473;
3978330194365459;-0.3007;0.0839;0.0196;
3978330204470771;-0.2730;0.0860;0.0057;
3978330214576136;-0.2623;0.0478;-0.0017;
3978330224675459;-0.2314;0.0222;-0.0039;
3978330234780771;-0.2048;0.0350;-0.0071;
3978330244886136;-0.1739;0.0350;0.0036;
3978330254989573;-0.1771;-0.0406;-0.0049;
3978330265094938;-0.1569;-0.0640;-0.0273;
3978330275200250;-0.1473;0.0489;-0.0486;
3978330285303688;-0.1185;0.1041;-0.0326;
3978330295409052;-0.1121;0.0595;-0.0454;
3978330305514365;-0.1441;0.0095;-0.0678;
3978330315621969;-0.1430;0.0222;-0.0550;
3978330325727282;-0.1387;-0.0300;-0.0379;
3978330335832646;-0.1601;-0.1024;-0.0262;
3978330345927959;-0.1622;-0.1024;-0.0284;
3978330356033271;-0.1664;-0.0822;-0.0177;
3978330366138636;-0.1419;-0.1056;-0.0379;
3978330376252802;-0.1515;-0.1162;-0.0507;
3978330386358115;-0.1622;-0.0704;-0.0593;
3978330396463480;-0.1377;0.1414;-0.0858;
3978330406565667;-0.0961;0.2639;-0.1198;
3978330416671032;-0.0099;0.1510;-0.1337;
3978330426776344;-0.0077;0.0521;-0.1124;
3978330436875980;-0.0887;0.0180;-0.0783;
3978330446981344;-0.0802;0.0148;-0.0699;
3978330457086657;-0.0695;-0.0459;-0.0443;
3978330467188584;-0.0940;-0.0630;-0.0678;
3978330477293896;-0.0791;0.0722;-0.0996;
3978330487399261;-0.0439;0.1361;-0.1049;
3978330497510250;0.0242;0.1169;-0.0943;
3978330507615563;0.0061;-0.0726;-0.1017;
3978330517720927;-0.0248;-0.1237;-0.1188;
3978330527823896;-0.0482;-0.0427;-0.1422;
3978330537929209;0.0072;-0.0108;-0.1305;
3978330548034573;0.0136;0.0254;-0.1177;
3978330558152646;0.0253;0.0393;-0.0932;
3978330568258011;0.0455;0.0542;-0.0465;
3978330578363323;0.0455;0.0489;-0.0614;
3978330588470980;0.0690;0.0201;-0.1103;
3978330598576292;0.0445;0.0457;-0.0710;
3978330608681657;0.0072;-0.0193;-0.0475;
3978330618801605;-0.0035;-0.1056;-0.0571;
3978330628906969;-0.0354;-0.1365;-0.0656;
3978330639012282;-0.0354;-0.1674;-0.0465;
3978330649078480;-0.0567;-0.1344;-0.0422;
3978330659183844;-0.0514;-0.0566;-0.0550;
3978330669289157;-0.0237;-0.0055;-0.0550;
3978330679424365;-0.0056;0.0286;-0.0390;
3978330689529677;0.0051;0.0850;-0.0900;
3978330699635042;0.0306;0.1318;-0.0710;
3978330709712750;0.0487;0.0786;-0.0507;
3978330719818115;0.0455;0.0542;-0.0678;
3978330729923427;0.0221;0.0690;-0.0710;
3978330740030302;0.0125;0.0244;-0.0646;
3978330750135615;0.0008;0.0297;-0.0762;
3978330760240980;-0.0067;-0.0076;-0.0529;
3978330770356136;-0.0194;-0.1141;-0.0656;
3978330780461448;-0.0237;-0.1759;-0.0826;
3978330790566813;-0.0290;-0.1375;-0.1113;
3978330800667855;-0.0077;-0.0555;-0.1166;
3978330810773167;0.0168;0.0009;-0.1316;
3978330820878532;0.0338;0.0818;-0.1646;
3978330830984417;0.0519;0.1329;-0.1497;
3978330841089730;0.1084;0.0009;-0.1624;
3978330851195094;0.1169;-0.0949;-0.1550;
3978330861302542;0.0360;0.0743;-0.1443;
3978330871407855;0.0999;0.1425;-0.1316;
3978330881513219;0.1585;0.0892;-0.1177;
3978330891622334;0.1350;0.0679;-0.1241;
3978330901727646;0.1052;0.0850;-0.1486;
3978330911833011;0.1190;-0.0129;-0.1198;
3978330921935250;0.0892;-0.0875;-0.1486;
3978330932040563;0.0530;-0.0630;-0.1667;
3978330942145927;0.0786;-0.0310;-0.1614;
3978330952264105;0.0881;-0.0289;-0.1550;
3978330962369469;0.0935;0.0754;-0.1348;
3978330972474782;0.1340;-0.0513;-0.1220;
3978330982572125;0.1542;-0.0662;-0.1230;
3978330992677438;0.1542;-0.0108;-0.1017;
3978331002782802;0.2106;0.0308;-0.1156;
3978331012896709;0.2288;0.0276;-0.0772;
3978331023002021;0.2202;0.0190;-0.0624;
3978331033107386;0.2298;0.0595;-0.0731;
3978331043193167;0.2394;-0.0246;-0.0316;
3978331053298480;0.2000;-0.0609;0.0100;
3978331063403844;0.1361;-0.0182;0.0249;
3978331073536917;0.1116;-0.0683;0.0334;
3978331083642230;0.0850;-0.2419;0.0569;
3978331093747594;0.0690;-0.2419;0.0654;
3978331103842230;-0.0173;-0.0406;0.0558;
3978331113947542;-0.0471;0.1979;0.0569;
3978331124052907;0.0189;0.2426;0.0260;
3978331134157646;0.0775;0.1446;0.0206;
3978331144262907;0.0381;0.0574;0.0345;
3978331154368219;-0.0471;0.0764;0.0771;
3978331164470250;-0.1185;-0.0385;0.0728;
3978331174575511;-0.1281;-0.1578;0.0547;
3978331184680823;-0.1782;-0.1141;0.0547;
3978331194793792;-0.1579;0.0286;0.0473;
3978331204899052;-0.1079;0.1180;0.0228;
3978331215004365;-0.0205;0.0148;0.0260;
3978331225106552;-0.0067;-0.1003;0.0100;
3978331235211813;-0.0365;-0.1748;-0.0124;
3978331245317125;-0.0173;-0.1887;-0.0007;
3978331255421552;-0.0375;-0.0875;0.0121;
3978331265526813;-0.0216;-0.0438;-0.0017;
3978331275632125;-0.0003;0.0636;-0.0092;
3978331285740459;0.0253;0.1787;-0.0081;
3978331295845771;0.0647;0.1734;0.0057;
3978331305951032;0.0615;0.1052;0.0068;
3978331316045667;0.0168;0.0095;0.0132;
3978331326150927;-0.0067;-0.0332;0.0047;
3978331336256292;-0.0120;-0.0033;-0.0060;
3978331346352073;-0.0109;-0.0257;0.0015;
3978331356457386;-0.0099;-0.0843;0.0121;
3978331366562698;-0.0194;-0.1759;-0.0017;
3978331376683167;0.0029;-0.2451;-0.0007;
3978331386788480;0.0093;-0.2856;0.0185;
3978331396893792;0.0807;-0.4497;0.0398;
3978331406983896;-0.0088;-0.0811;-0.0230;
3978331417089209;-0.0578;0.4333;-0.0348;
3978331427194521;0.1009;0.3214;-0.0337;
3978331437302438;0.2989;0.1957;-0.0497;
3978331447407750;0.2522;0.4312;-0.0422;
3978331457513011;0.0519;0.3811;0.0057;
3978331467677594;0.0168;0.0647;0.0121;
3978331477782907;-0.1622;0.0158;0.0047;
3978331487888219;-0.2623;0.0052;0.0121;
3978331497924417;-0.1611;0.0732;-0.0028;
3978331508029730;-0.1345;0.0647;-0.0379;
3978331518135042;-0.0972;-0.2750;-0.0518;
3978331528271969;-0.0610;-0.1375;-0.0985;
3978331538377282;-0.0354;-0.0161;-0.1252;
3978331548482594;0.0285;-0.2824;-0.1028;
3978331558596396;0.0019;-0.3122;-0.1028;
3978331568701709;-0.0056;-0.1674;-0.1113;
3978331578807021;0.0956;-0.0161;-0.0953;
3978331588925615;0.2469;0.0350;-0.0985;
3978331599030927;0.3554;0.0521;-0.0593;
3978331609136240;0.4087;0.2330;-0.0433;
3978331619222230;0.4427;0.2501;0.0057;
3978331629327490;0.4470;0.0126;0.0164;
3978331639432802;0.3288;-0.0502;0.0377;
3978331649537646;0.1947;0.0467;0.0718;
3978331659642907;0.1787;-0.0459;0.0675;
3978331669748219;0.1371;-0.0640;0.0632;
3978331679834834;0.1222;0.0489;0.0995;
3978331689940146;0.1670;0.0350;0.1197;
3978331700045459;0.1361;-0.0619;0.1282;
3978331710149105;0.1244;-0.1184;0.1112;
3978331720254417;0.1084;-0.0374;0.1154;
3978331730359730;0.1116;0.0977;0.0995;
3978331740469417;0.1041;0.1137;0.1250;
3978331750574677;0.0754;0.0329;0.1314;
3978331760680042;0.0509;-0.0023;0.1421;
3978331770784938;0.0349;-0.0182;0.1538;
3978331780890250;0.0232;-0.0683;0.1623;
3978331790995511;0.0210;-0.0609;0.1772;
3978331801096917;0.0061;0.0478;0.1751;
3978331811202177;0.0487;0.0647;0.1325;
3978331821307542;0.0551;-0.0033;0.1463;
3978331831420667;0.0083;-0.1290;0.1943;
3978331841525927;-0.0280;-0.1823;0.2134;
3978331851631292;-0.0802;-0.0246;0.1911;
3978331861747021;-0.0929;0.1265;0.1708;
3978331871852334;-0.0855;0.1936;0.1549;
3978331881957646;-0.1079;0.2266;0.1602;
3978331892061084;-0.0972;0.1776;0.1847;
3978331902166396;-0.1366;0.0425;0.1804;
3978331912271657;-0.1537;0.0563;0.1666;
3978331922363896;-0.1718;0.0967;0.1687;
3978331932469209;-0.1675;0.0658;0.1676;
3978331942574469;-0.2016;0.0531;0.1527;
3978331952693167;-0.2282;-0.0406;0.1676;
3978331962798480;-0.2719;-0.2686;0.1453;
3978331972903792;-0.2964;-0.4774;0.1612;
3978331983000667;-0.3124;-0.4134;0.1378;
3978331993105927;-0.3177;-0.0278;0.1144;
3978332003211240;-0.2762;0.3726;0.0590;
3978332013321917;-0.1164;0.3832;0.0537;
3978332023427177;-0.0535;0.1585;0.0664;
3978332033532490;-0.0908;0.1968;0.0782;
3978332043651605;-0.1643;0.1798;0.0984;
3978332053756865;-0.1888;-0.0758;0.0920;
3978332063862177;-0.2453;-0.1759;0.0877;
3978332073958219;-0.2612;0.0903;0.0664;
3978332084063480;-0.1952;0.2650;0.0846;
3978332094168792;-0.1249;-0.0502;0.0824;
3978332104262750;-0.1462;-0.3069;0.0260;
3978332114368011;-0.2048;-0.4550;0.0249;
3978332124473375;-0.2378;-0.1727;-0.0007;
3978332134587959;-0.2506;0.4322;-0.0411;
3978332144693271;-0.1398;0.5462;-0.0593;
3978332154798636;-0.0375;0.3150;-0.0358;
3978332164883323;-0.0152;0.4450;-0.0710;
3978332174988636;-0.0759;0.4237;-0.0390;
3978332185094000;-0.1217;0.0435;-0.0241;
3978332195213688;-0.2304;-0.0971;-0.0433;
3978332205319000;-0.2378;-0.0364;-0.0561;
3978332215424365;-0.1398;0.0521;-0.0804;
3978332225520667;-0.1089;0.0233;-0.0836;
3978332235625980;-0.1569;-0.4411;-0.1028;
3978332245731344;-0.1707;-0.6040;-0.1454;
3978332255845042;-0.1419;-0.3378;-0.1816;
3978332265950355;-0.1047;-0.2973;-0.1486;
3978332276055719;-0.0695;-0.2441;-0.1806;
3978332286157438;-0.1079;0.2245;-0.1891;
3978332296262750;-0.0184;0.4141;-0.1859;
3978332306368115;0.2373;0.2490;-0.1539;
3978332316466969;0.2799;0.0892;-0.1433;
3978332326572282;0.0072;0.1212;-0.1401;
3978332336677646;-0.0887;0.1020;-0.1177;
3978332346809209;-0.0972;-0.0758;-0.1124;
3978332356914521;-0.1846;-0.1887;-0.1401;
3978332367019886;-0.1430;0.0041;-0.1593;
3978332377101813;-0.1036;0.0180;-0.1230;
3978332387207125;-0.0738;-0.1961;-0.1593;
3978332397312490;-0.0855;-0.1535;-0.2051;
3978332407413792;-0.0514;-0.0800;-0.2264;
3978332417519105;-0.0003;-0.0704;-0.1806;
3978332427624469;0.0242;-0.1088;-0.1976;
3978332437794469;0.0913;-0.1194;-0.2008;
3978332447899834;0.1734;-0.0417;-0.1965;
3978332458005198;0.2682;-0.0087;-0.1571;
3978332468066188;0.3277;-0.0449;-0.1124;
3978332478171500;0.3501;-0.0598;-0.0879;
3978332488276865;0.3703;-0.0438;-0.0794;
3978332498404625;0.3788;-0.1130;-0.0550;
3978332508509938;0.3501;-0.1312;-0.0241;
3978332518615302;0.2884;-0.0310;-0.0145;
3978332528679521;0.2501;-0.0353;0.0153;
3978332538784834;0.1755;-0.1056;0.0430;
3978332548890198;0.0881;-0.0268;0.0505;
3978332559021292;0.0690;0.0956;0.0473;
3978332569126605;0.0647;0.1148;0.0494;
3978332579231969;0.0466;0.0542;0.0334;
3978332589346448;-0.0130;-0.0044;0.0206;
3978332599451761;-0.0418;-0.0044;0.0121;
3978332609557125;-0.0546;0.0201;0.0228;
3978332619653792;-0.0620;-0.0758;-0.0177;
3978332629759105;-0.0557;-0.1312;-0.0443;
3978332639864469;-0.0620;-0.2036;-0.0230;
3978332649967646;-0.0429;-0.2238;-0.0369;
3978332660072959;-0.0450;-0.1067;-0.0539;
3978332670178323;-0.0173;0.0892;-0.0656;
3978332680263792;0.0445;0.2586;-0.1177;
3978332690369105;0.0732;0.2991;-0.1379;
3978332700474469;0.0956;0.1915;-0.1188;
3978332710584313;0.0615;0.1073;-0.0975;
3978332720689625;0.0253;0.0105;-0.0911;
3978332730794990;0.0221;-0.0928;-0.0985;
3978332740894834;0.0381;-0.0747;-0.0964;
3978332751000146;0.0296;-0.0683;-0.0656;
3978332761105511;0.0370;-0.0023;-0.0879;
3978332771211709;0.0466;0.1201;-0.0921;
3978332781317021;0.0296;0.1052;-0.1156;
3978332791422386;-0.0088;-0.4486;-0.0401;
3978332801544521;-0.1356;-0.4113;-0.0358;
3978332811649834;-0.2304;0.5888;-0.1316;
3978332821755198;0.0210;1.0425;-0.1539;
3978332831841761;0.2394;0.3502;-0.0879;
3978332841947073;0.0509;-0.2334;-0.0220;
3978332852052438;-0.0684;-0.2547;0.0281;
3978332862162750;0.0008;-0.3293;0.0814;
3978332872268063;-0.0386;-0.4102;0.0920;
3978332882373427;-0.0429;-0.3581;0.0686;
3978332892480042;0.0541;0.3055;0.0345;
3978332902585355;0.2533;0.3917;0.1325;
3978332912690719;0.1872;-0.6349;0.0973;
3978332922792021;-0.2176;-0.4102;0.0324;
3978332932897334;-0.2240;0.7538;-0.0177;
3978332943002698;0.1840;1.4205;0.0015;
3978332953112959;0.6078;0.5814;0.0622;
3978332963218271;0.3000;0.0679;0.0835;
3978332973323636;-0.1867;0.0850;0.1059;
3978332983419625;-0.0450;-0.3634;0.1325;
3978332993524938;-0.3039;-0.5529;0.1581;
3978333003630302;-0.3218;-0.1216;0.0920;
3978333013749417;-0.1718;0.2224;0.0398;
3978333023854730;-0.0620;-0.1333;-0.0071;
3978333033960094;-0.2336;-0.7009;-0.0529;
3978333044074730;-0.4806;-0.7094;-0.0762;
3978333054180042;-0.3218;-0.1951;-0.1518;
3978333064285407;-0.1920;0.3459;-0.1784;
3978333074374209;0.0093;0.0615;-0.1646;
3978333084479521;0.2117;0.6824;-0.2200;
3978333094584886;0.3650;0.6644;-0.1316;
3978333104689000;0.5823;0.0489;-0.1230;
3978333114794313;0.1531;-0.0502;-0.1092;
3978333124899677;0.0945;-0.0609;-0.0943;
3978333135008167;0.1222;-0.0726;-0.1028;
3978333145113427;0.0338;-0.2366;-0.0752;
3978333155218688;0.0306;-0.2696;-0.0900;
3978333165320250;0.0636;0.0009;-0.1209;
3978333175425511;0.1371;0.0764;-0.1113;
3978333185530771;0.1798;-0.1088;-0.1007;
3978333195636396;0.0551;-0.0087;-0.0964;
3978333205741657;0.0700;0.0308;-0.0772;
3978333215846917;0.1340;-0.1759;-0.0656;
3978333225941396;0.1137;-0.1280;-0.0688;
3978333236046657;0.1499;-0.0768;-0.0337;
3978333246151917;0.2192;-0.0704;-0.0209;
3978333256267125;0.2000;0.0020;-0.0177;
3978333266372386;0.2309;-0.0065;0.0260;
3978333276477646;0.2011;-0.0459;0.0473;
3978333286580250;0.1489;0.0158;0.0398;
3978333296685511;0.1126;-0.0619;0.0228;
3978333306790771;0.0509;-0.1514;0.0185;
3978333316893896;-0.0003;-0.1663;0.0121;
3978333326999157;-0.0631;-0.3570;0.0292;
3978333337104417;-0.1430;-0.4529;0.0515;
3978333347194521;-0.2442;0.0126;0.0047;
3978333357299782;-0.1601;0.3768;-0.0943;
3978333367405042;0.0967;0.3907;-0.1103;
3978333377524000;0.1340;0.3257;-0.1092;
3978333387629261;0.1414;0.2043;-0.0975;
3978333397734521;0.0828;0.1340;-0.0996;
3978333407845875;0.0636;0.0265;-0.0858;
3978333417951136;0.0786;0.0212;-0.0900;
3978333428056396;0.1148;0.0871;-0.0911;
3978333438171292;0.1755;0.0999;-0.0667;
3978333448276552;0.1957;-0.2238;-0.0486;
3978333458381813;0.1563;-0.3186;-0.0486;
3978333468484886;0.1308;-0.2803;-0.0688;
3978333478590198;0.1585;-0.2153;-0.0975;
3978333488695459;0.1414;-0.1130;-0.0964;
3978333498823480;0.1340;-0.0033;-0.0762;
3978333508928740;0.1531;0.1009;-0.0794;
3978333519034000;0.2234;0.0945;-0.0411;
3978333529098480;0.3096;0.1957;-0.0166;
3978333539203740;0.3959;0.1670;-0.0017;
3978333549309000;0.3959;-0.0449;0.0654;
3978333559447125;0.2447;-0.1684;0.1048;
3978333569552386;0.1616;-0.1205;0.1005;
3978333579657646;0.1542;-0.0587;0.1037;
3978333589732959;0.1403;-0.0214;0.1059;
3978333599838219;0.1009;0.0988;0.1282;
3978333609943480;0.1158;0.1041;0.1293;
3978333620078011;0.0924;0.0116;0.1389;
3978333630183323;0.0029;-0.1589;0.1666;
3978333640288584;-0.0716;-0.1152;0.1591;
3978333650398480;-0.0429;0.1446;0.1740;
3978333660503740;0.0647;0.1020;0.1644;
3978333670609000;0.0807;0.0668;0.1261;
3978333680681552;0.0541;0.0796;0.1612;
3978333690786813;0.0807;0.0786;0.1911;
3978333700892073;0.0541;0.0063;0.1836;
3978333711006084;0.0487;-0.0257;0.1879;
3978333721111344;0.0434;-0.0097;0.2060;
3978333731216605;0.0551;0.0190;0.2071;
3978333741322021;0.0551;0.0052;0.2252;
3978333751427282;0.0328;-0.0332;0.2230;
3978333761532542;0.0285;-0.0225;0.2039;
3978333771630771;0.0040;-0.0182;0.1836;
3978333781736032;-0.0130;-0.0012;0.1911;
3978333791841292;-0.0578;0.0340;0.1836;
3978333801981605;-0.0951;0.0425;0.1804;
3978333812086865;-0.1153;0.1989;0.1591;
3978333822192125;-0.1004;0.3012;0.1442;
3978333832268792;-0.0780;0.1893;0.1197;
3978333842374052;-0.1558;0.0329;0.1399;
3978333852479313;-0.2325;-0.0449;0.1240;
3978333862583896;-0.2293;-0.0364;0.0728;
3978333872689157;-0.2229;-0.0779;0.0664;
3978333882794417;-0.2570;-0.1865;0.0632;
3978333892896084;-0.2314;-0.2387;0.0387;
3978333903001344;-0.1750;-0.1620;0.0100;
3978333913106605;-0.1174;-0.2079;0.0132;
3978333923222021;-0.0908;-0.1876;-0.0028;
3978333933327282;-0.0876;-0.0811;0.0089;
3978333943432542;-0.0301;0.0403;-0.0230;
3978333953538375;-0.0077;0.0499;-0.0124;
3978333963643636;-0.0130;0.0148;-0.0198;
3978333973748896;-0.0184;0.0478;-0.0028;
3978333983854521;-0.0248;0.0467;0.0132;
3978333993959782;-0.0344;0.0020;0.0142;
3978334004065042;-0.0684;-0.0609;0.0260;
3978334014168271;-0.1004;-0.1109;0.0238;
3978334024273532;-0.0929;-0.0864;0.0004;
3978334034378792;-0.0951;0.0009;-0.0113;
3978334044485875;-0.0866;0.1105;-0.0252;
3978334054591136;-0.0557;0.1989;-0.0422;
3978334064696396;-0.0471;0.1691;-0.0039;
3978334074798688;-0.0567;0.1041;-0.0039;
3978334084903948;-0.0471;0.0403;-0.0081;
3978334095009209;-0.0386;-0.0076;-0.0039;
3978334105105146;-0.0301;-0.0033;0.0185;
3978334115210407;-0.0418;0.0276;0.0036;
3978334125315667;-0.0194;-0.0172;0.0174;
3978334135431969;-0.0226;-0.0534;-0.0060;
3978334145537230;-0.0003;-0.0055;-0.0316;
3978334155642542;0.0264;0.0553;-0.0113;
3978334165742125;0.0541;0.0615;-0.0124;
3978334175847386;0.0732;0.0329;-0.0156;
3978334185952698;0.0967;0.0521;-0.0017;
3978334196065042;0.1052;0.0499;0.0313;
3978334206170302;0.1169;-0.0033;0.0345;
3978334216275615;0.1041;-0.0449;0.0579;
3978334226395146;0.1041;-0.0566;0.0771;
3978334236500407;0.0839;0.0340;0.0547;
3978334246605719;0.1073;0.0158;0.0451;
3978334256688896;0.0967;-0.1322;0.0686;
3978334266794157;0.0391;-0.1418;0.0601;
3978334276899469;0.0402;-0.1439;0.0771;
3978334287007230;0.0328;-0.1919;0.0760;
3978334297112490;0.0178;-0.1951;0.0505;
3978334307217802;0.0157;-0.2867;0.0867;
3978334317319625;0.0029;-0.2430;0.1005;
3978334327424886;-0.0013;-0.0033;0.0558;
3978334337530198;0.0306;0.0286;0.0430;
3978334347675823;0.0274;-0.1812;0.0643;
3978334357781136;-0.0716;-0.2324;0.0601;
3978334367886396;-0.1302;-0.1120;0.0558;
3978334377936605;-0.1260;0.1861;0.0356;
3978334388041917;-0.0322;0.3278;0.0292;
3978334398147177;0.0136;0.2160;0.0174;
3978334408285615;-0.0173;0.2298;0.0217;
3978334418390927;-0.0503;0.1872;0.0270;
3978334428496240;-0.0567;0.0212;0.0356;
3978334438596084;-0.1089;-0.2100;0.0377;
3978334448701344;-0.0983;-0.4102;0.0270;
3978334458806657;-0.1111;-0.2260;0.0047;
3978334468904417;-0.0770;0.1830;-0.0124;
3978334479009677;0.0594;0.0031;-0.0273;
3978334489114990;0.1265;-0.4007;0.0004;
3978334499223896;-0.0610;-0.3176;-0.0017;
3978334509329157;-0.0226;0.0531;-0.0550;
3978334519434469;0.1105;0.2905;-0.0316;
3978334529559209;0.0477;-0.1344;-0.0060;
3978334539664469;0.0083;0.0924;0.0004;
3978334549769782;-0.1846;0.9487;-0.0177;
3978334559892802;0.1670;0.8422;-0.0262;
3978334569998115;0.4310;0.1595;0.0132;
3978334580103427;-0.1132;-0.0140;0.0260;
3978334590178792;-0.2996;0.2703;0.0089;
3978334600284052;-0.1782;0.1371;0.0164;
3978334610389365;-0.3102;-0.3932;0.0526;
3978334620475459;-0.3549;-0.6306;0.0057;
3978334630580719;-0.2549;-0.1407;-0.0762;
3978334640686032;-0.2346;0.0775;-0.1166;
3978334650805980;-0.0972;-0.5093;-0.1060;
3978334660911240;-0.0972;-0.5635;-0.1273;
3978334671016552;-0.2847;0.1595;-0.1614;
3978334681114521;-0.1015;0.7122;-0.2242;
3978334691219782;0.3703;0.5845;-0.2019;
3978334701325094;0.5897;0.2767;-0.1465;
3978334711430719;0.3810;0.4471;-0.0783;
3978334721535980;0.1936;0.5803;0.0047;
3978334731641292;0.2266;0.2533;0.0228;
3978334741754000;0.0786;0.0467;0.0281;
3978334751859261;0.0200;-0.0459;0.0387;
3978334761964573;0.0455;-0.0385;0.0611;
3978334772062542;-0.0365;-0.4891;0.0664;
3978334782167802;-0.0770;-0.7531;0.0324;
3978334792273115;-0.0791;-0.4284;-0.0252;
3978334802392230;-0.1292;0.1148;-0.0614;
3978334812497490;0.0317;0.3747;-0.0475;
3978334822602802;0.1340;-0.0108;-0.0177;
3978334832698636;0.0253;-0.2057;0.0025;
3978334842803896;0.0019;-0.1290;0.0174;
3978334852909209;0.0296;-0.1482;0.0345;
3978334863014834;-0.0003;-0.2089;0.0377;
3978334873120094;-0.0290;-0.2622;0.0398;
3978334883225407;-0.0258;-0.0907;0.0196;
3978334893341500;0.0083;0.0935;-0.0103;
3978334903446761;0.0296;-0.0172;0.0089;
3978334913552073;0.0115;-0.1599;0.0100;
3978334923640667;-0.0194;-0.0992;-0.0081;
3978334933745927;-0.0141;0.0201;0.0121;
3978334943851240;-0.0152;0.1212;0.0324;
3978334953969052;-0.0194;0.2415;0.0132;
3978334964074313;0.0168;0.3097;-0.0028;
3978334974179625;0.0104;0.2565;0.0057;
3978334984288375;0.0019;0.1627;-0.0049;
3978334994393636;-0.0429;0.0020;0.0111;
3978335004498948;-0.0652;-0.1567;-0.0007;
3978335014612125;-0.1068;-0.1099;-0.0294;
3978335024717386;-0.0866;0.0286;-0.0497;
3978335034822698;-0.0184;0.0818;-0.0230;
3978335044930875;-0.0205;0.0457;-0.0411;
3978335055036136;-0.0280;-0.0640;-0.0815;
3978335065141448;-0.0365;-0.1429;-0.0720;
3978335075230667;-0.0216;-0.0949;-0.0752;
3978335085335927;-0.0077;-0.0811;-0.0656;
3978335095441240;-0.0109;-0.0843;-0.0688;
3978335105545875;0.0232;0.0977;-0.0688;
3978335115651136;0.0551;0.1244;-0.0571;
3978335125756448;0.0871;-0.0417;-0.0241;
3978335135877386;0.0381;-0.1067;-0.0060;
3978335145982855;-0.0173;-0.1290;-0.0230;
3978335156088323;0.0104;-0.0715;-0.0390;
3978335166176813;0.0402;0.0871;-0.0358;
3978335176282282;0.0487;0.0009;-0.0230;
3978335186387698;0.0296;-0.1610;-0.0017;
3978335196487855;-0.0003;-0.0896;-0.0039;
3978335206593323;0.0040;0.0615;-0.0071;
3978335216698792;-0.0056;-0.1876;0.0292;
3978335226814261;-0.0471;-0.1919;0.0398;
3978335236919730;-0.1025;-0.0630;0.0004;
3978335247025146;-0.0738;-0.0119;-0.0124;
3978335257114313;-0.0280;0.0871;0.0260;
3978335267219782;-0.0269;0.1318;-0.0305;
3978335277325250;-0.0109;0.1840;-0.0273;
3978335287430250;0.0306;0.2224;-0.0209;
3978335297535719;0.0391;0.1712;-0.0060;
3978335307641136;0.0125;0.0009;0.0100;
3978335317771500;0.0360;0.2256;0.0121;
3978335327876969;0.0306;0.0116;0.0419;
3978335337982386;0.0391;-0.2185;0.0345;
3978335348067959;0.0093;-0.1024;0.0142;
3978335358173427;0.0136;-0.2217;0.0047;
3978335368278896;0.0157;-0.1567;0.0015;
3978335378418792;0.0221;0.0542;-0.0209;
3978335388524261;0.0509;-0.1312;-0.0134;
3978335398629677;0.0317;-0.2228;-0.0230;
3978335408695980;-0.0333;-0.0300;-0.0166;
3978335418801448;0.0477;-0.0001;-0.0220;
3978335428906917;0.0690;0.2341;-0.0475;
3978335439011709;0.1137;0.2959;-0.0358;
3978335449117177;0.2277;0.1105;-0.0113;
3978335459222646;0.1744;0.3204;-0.0134;
3978335469368688;0.1201;0.1158;0.0047;
3978335479474105;0.1031;-0.3421;0.0409;
3978335489579573;0.0029;-0.2579;0.0313;
3978335499657802;-0.0397;0.0041;0.0430;
3978335509763271;0.0445;0.1361;0.0121;
3978335519868740;0.0860;-0.0172;0.0057;
3978335529980563;-0.0077;-0.3421;0.0270;
3978335540086032;-0.1270;-0.0257;-0.0518;
3978335550191448;-0.1377;0.3342;-0.0326;
3978335560271605;0.0594;0.0467;-0.0305;
3978335570377073;0.1244;0.3108;-0.0911;
3978335580482490;0.0658;0.5409;-0.0475;
3978335590597855;0.2767;0.2778;0.0153;
3978335600703323;0.1585;-0.1407;0.0558;
3978335610808792;-0.0663;-0.5901;0.0846;
3978335620910719;-0.0099;-0.0268;0.0302;
3978335631016188;-0.0141;0.3459;0.0441;
3978335641121657;0.1638;-0.0268;0.0441;
3978335651230250;0.1925;-0.0683;0.0473;
3978335661335719;-0.0237;-0.0300;0.0824;
3978335671441188;-0.0141;-0.4837;0.0995;
3978335681542073;-0.0929;-0.2941;0.0846;
3978335691647542;-0.1696;0.2160;0.0728;
3978335701753011;0.0338;0.4706;0.0547;
3978335711861813;0.1627;0.0828;0.0952;
3978335721967282;0.1457;-0.2451;0.1261;
3978335732072750;-0.0344;0.1063;0.0952;
3978335742169834;0.0487;0.2373;0.0909;
3978335752275302;0.2192;0.3534;0.0952;
3978335762380771;0.1276;0.2842;0.1144;
3978335772485250;0.0349;0.0818;0.1453;
3978335782590719;-0.0397;-0.0672;0.1549;
3978335792696188;-0.0738;-0.1983;0.1634;
3978335802808167;-0.0961;-0.1162;0.1197;
3978335812913636;-0.0631;0.1851;0.1176;
3978335823019105;-0.0546;0.0839;0.1250;
3978335833143219;-0.0322;-0.2313;0.1091;
3978335843248688;-0.1718;-0.2462;0.0835;
3978335853354157;-0.1707;-0.4475;0.0877;
3978335863450563;-0.1494;-0.2132;0.0707;
3978335873556032;-0.1664;0.3491;0.0345;
3978335883661448;0.0306;0.2597;0.0558;
3978335893767125;0.1723;-0.1184;0.0569;
3978335903872594;0.0104;-0.0726;0.0292;
3978335913978063;-0.0226;0.2405;0.0366;
3978335924077646;0.0881;0.2543;0.0654;
3978335934183115;0.0754;0.0126;0.0696;
3978335944288584;-0.0610;-0.0832;0.0675;
3978335954393271;-0.0599;0.1212;0.0707;
3978335964498740;-0.0450;-0.0395;0.0814;
3978335974604209;-0.0695;-0.4284;0.1037;
3978335984723896;-0.1632;-0.4230;0.0888;
3978335994829365;-0.2740;-0.0459;0.0217;
3978336004934834;-0.2304;0.2181;0.0068;
3978336015031917;-0.0684;0.0977;0.0079;
3978336025137386;-0.0983;0.0796;-0.0198;
3978336035242855;-0.1547;0.2021;-0.0092;
3978336045361292;-0.0599;0.1446;0.0324;
3978336055466709;-0.0780;0.0574;0.0302;
3978336065572177;-0.1217;-0.0001;0.0558;
3978336075659730;-0.1121;0.1212;0.0494;
3978336085765198;-0.0993;0.1755;0.0228;
3978336095870667;-0.0620;0.0308;0.0057;
3978336105968636;-0.1366;0.0073;0.0089;
3978336116074105;-0.1196;-0.1503;-0.0134;
3978336126179573;-0.1441;-0.1589;-0.0326;
3978336136272802;-0.1409;-0.0523;-0.0465;
3978336146377855;-0.1281;-0.0459;-0.0411;
3978336156482959;-0.1206;-0.1439;-0.0198;
3978336166597855;-0.1292;-0.0949;-0.0220;
3978336176702907;-0.0908;-0.1344;-0.0241;
3978336186808011;-0.0897;-0.0640;-0.0561;
3978336196914730;-0.0674;0.1925;-0.0900;
3978336207019782;-0.0514;0.0265;-0.0742;
3978336217124886;-0.0482;-0.1908;-0.0614;
3978336227208323;-0.0844;-0.0896;-0.0667;
3978336237313427;-0.0855;-0.0971;-0.0804;
3978336247418532;-0.0663;-0.0385;-0.0699;
3978336257540250;-0.0631;-0.1301;-0.0475;
3978336267645355;-0.0344;-0.1109;-0.0688;
3978336277750459;-0.0237;0.2490;-0.1081;
3978336287872177;0.0498;0.2756;-0.0889;
3978336297977282;0.1819;-0.1237;-0.0889;
3978336308082386;0.1073;-0.2611;-0.0900;
3978336318228948;-0.0290;-0.0278;-0.0815;
3978336328334052;0.0391;0.0244;-0.0358;
3978336338439157;0.0754;-0.0928;-0.0358;
3978336348504261;0.0274;-0.2537;-0.0007;
3978336358609365;0.0136;-0.0790;-0.0060;
3978336368714469;0.0157;0.1180;-0.0305;
3978336378831761;0.1766;-0.0055;-0.0401;
3978336388936865;0.1723;0.0308;-0.0198;
3978336399041969;0.0807;0.1169;-0.0443;
3978336409119105;0.1361;0.1808;0.0015;
3978336419224157;0.0924;-0.0928;0.0462;
3978336429329261;0.0296;-0.1738;0.0483;
3978336439440875;-0.0067;-0.1844;0.0920;
3978336449545927;0.0168;-0.2260;0.0920;
3978336459651032;0.0019;-0.3900;0.1410;
3978336469750146;-0.0226;-0.5125;0.1282;
3978336479855198;-0.0439;-0.2483;0.1186;
3978336489960302;-0.0567;-0.2760;0.1069;
3978336500081761;-0.0823;-0.0981;0.0696;
3978336510186865;-0.2463;0.4024;0.0505;
3978336520291969;-0.1142;0.6527;0.0526;
3978336530389521;0.1435;0.2735;0.0920;
3978336540494573;0.1574;0.0563;0.1282;
3978336550599677;-0.2250;0.4812;0.1208;
3978336560727698;-0.2389;0.6792;0.0899;
3978336570832802;-0.0461;0.1957;0.1048;
3978336580937907;-0.2314;-0.3367;0.1197;
3978336591029677;-0.3612;-0.3272;0.0750;
3978336601134782;-0.4039;0.3459;0.0047;
3978336611239886;-0.1249;0.6760;-0.0262;
3978336621343167;0.0828;0.2320;-0.0284;
3978336631448271;0.0296;0.3182;-0.0379;
3978336641553375;-0.1228;0.5047;-0.0305;
3978336651668532;-0.0067;-0.0332;-0.0209;
3978336661773636;-0.0961;-0.3666;-0.0156;
3978336671878740;-0.1313;-0.0694;-0.0241;
3978336681972282;-0.0471;0.3427;-0.0252;
3978336692077386;0.0221;-0.0928;-0.0103;
3978336702182490;-0.0791;-0.7169;-0.0475;
3978336712286761;-0.1846;-0.9406;-0.0699;
3978336722391865;-0.1569;-0.5296;-0.0868;
3978336732496969;-0.2485;-0.2867;-0.1252;
3978336742604834;-0.1228;-0.0204;-0.1731;
3978336752709938;-0.1473;0.4120;-0.2146;
3978336762815042;-0.1079;0.5909;-0.1742;
3978336772921032;0.1893;0.7463;-0.1838;
3978336783026136;0.3788;0.4983;-0.1561;
3978336793131240;0.2586;0.3981;-0.1103;
3978336803249677;-0.0205;0.3651;-0.0294;
3978336813354782;-0.0450;0.2181;-0.0337;
3978336823459886;-0.0312;0.0754;-0.0454;
3978336833565823;-0.0397;-0.2153;-0.0379;
3978336843670927;-0.0493;-0.3495;-0.0614;
3978336853776032;-0.0024;-0.3122;-0.0762;
3978336863878427;0.0349;-0.2867;-0.0710;
3978336873983532;0.1169;-0.3549;-0.1081;
3978336884088636;0.1446;-0.2473;-0.0710;
3978336894188323;0.1350;0.0510;-0.0284;
3978336904293427;0.1638;-0.0758;-0.0113;
3978336914398532;0.2170;-0.3921;0.0057;
3978336924501240;0.1201;-0.0321;0.0185;
3978336934606344;0.1052;0.0860;0.0292;
3978336944711448;0.1457;-0.0257;0.0419;
3978336954814261;-0.0280;0.1776;0.0238;
3978336964919365;-0.0120;0.2170;0.0164;
3978336975024469;0.0040;-0.0917;0.0398;
3978336985134157;-0.1718;-0.1876;0.0387;
3978336995239261;-0.2186;-0.0193;0.0196;
3978337005344365;-0.1430;0.0935;-0.0017;
3978337015455667;-0.0844;0.0095;0.0057;
3978337025560771;-0.0993;-0.0385;-0.0198;
3978337035665875;-0.0844;-0.0076;-0.0422;
3978337045772907;-0.0301;-0.1077;-0.0401;
3978337055878011;-0.0578;-0.2483;-0.0762;
3978337065983115;-0.0535;-0.3474;-0.0794;
3978337076080511;-0.1292;0.1787;-0.0879;
3978337086185615;-0.0375;0.5387;-0.1166;
3978337096290719;0.1904;0.2511;-0.1497;
3978337106394886;0.2904;-0.0481;-0.0943;
3978337116500042;0.0040;0.0839;-0.0921;
3978337126605094;-0.0344;0.2426;-0.0985;
3978337136706917;0.0509;0.0935;-0.1081;
3978337146812073;-0.0450;0.0499;-0.0858;
3978337156917230;-0.0823;0.0658;-0.1081;
3978337167026292;0.0029;0.0658;-0.1156;
3978337177131448;-0.0184;-0.0971;-0.0847;
3978337187236605;-0.0855;-0.3857;-0.1081;
3978337197342334;-0.0397;-0.2547;-0.1422;
3978337207447490;0.0200;-0.0715;-0.1284;
3978337217552646;0.0498;0.0244;-0.1230;
3978337227688063;0.0775;-0.0332;-0.1177;
3978337237793219;0.0487;-0.0640;-0.1060;
3978337247898375;0.0583;0.1606;-0.1475;
3978337257966084;0.1212;0.0892;-0.1081;
3978337268071240;0.1297;-0.1397;-0.0656;
3978337278176396;0.0551;0.1031;-0.0646;
3978337288300615;0.0210;-0.0928;-0.0230;
3978337298405771;0.0562;-0.2409;-0.0284;
3978337308510927;0.0253;-0.1482;-0.0209;
3978337318609625;0.0157;-0.2537;-0.0177;
3978337328714782;0.0253;-0.0630;-0.0358;
3978337338819938;0.0274;0.0574;-0.0326;
3978337348918063;0.0935;0.0595;-0.0294;
3978337359023219;0.0722;0.0924;-0.0465;
3978337369128375;0.0573;0.2043;-0.0113;
3978337379255667;0.0125;-0.2718;0.0292;
3978337389360875;-0.0077;-0.3186;0.0196;
3978337399466032;-0.0674;0.1009;0.0324;
3978337409574573;-0.0013;0.1893;0.0142;
3978337419679730;0.1382;0.2341;0.0111;
3978337429784886;0.0700;0.1180;0.0366;
3978337439897698;0.0402;0.2394;-0.0103;
3978337450002855;0.0871;0.4226;0.0089;
3978337460108011;0.0988;0.1105;0.0356;
3978337470194000;0.0029;-0.2973;0.0558;
3978337480299209;-0.0120;-0.2707;0.0952;
3978337490404313;-0.1196;0.2330;0.0739;
3978337500501240;-0.0045;0.5270;0.0387;
3978337510606396;0.1723;0.2575;0.0441;
3978337520711605;0.1638;-0.0885;0.0537;
3978337530815407;0.0264;0.0265;0.0313;
3978337540920563;0.0242;-0.0268;0.0270;
3978337551025719;0.0700;-0.2963;0.0430;
3978337561162698;-0.0461;-0.1525;0.0324;
3978337571267855;-0.0045;0.2778;0.0132;
3978337581373011;0.0892;0.4450;0.0430;
3978337591452282;0.1755;-0.0364;0.0664;
3978337601557490;0.1350;-0.3101;0.0622;
3978337611662646;-0.0184;-0.2121;0.0462;
3978337621768636;0.0722;-0.0694;0.0260;
3978337631873792;0.0658;-0.2057;0.0622;
3978337641978948;-0.0194;-0.5019;0.1037;
3978337652087490;-0.0344;-0.2558;0.0686;
3978337662192646;-0.0866;0.0977;0.0526;
3978337672297802;0.0040;0.0743;0.0398;
3978337682399157;0.0541;0.1286;0.0462;
3978337692504313;-0.0024;0.1510;0.0632;
3978337702609469;0.0242;0.0595;0.0515;
3978337712703896;0.0008;0.0626;0.0505;
3978337722809000;-0.0642;0.0679;0.0579;
3978337732914157;-0.0855;0.1382;0.0238;
3978337743028740;-0.0876;0.3118;0.0409;
3978337753133896;-0.0844;0.1073;0.0569;
3978337763239052;-0.0855;-0.1759;0.0366;
3978337773348011;-0.1579;-0.1461;0.0228;
3978337783453167;-0.1196;-0.0896;0.0196;
3978337793558323;-0.0333;-0.1535;0.0025;
3978337803683011;-0.0354;-0.1727;-0.0060;
3978337813788167;-0.0067;0.0052;-0.0326;
3978337823893323;0.0317;0.1126;-0.0252;
3978337833983427;0.0594;-0.0012;-0.0284;
3978337844088584;0.0796;-0.1130;0.0089;
3978337854193740;0.0338;-0.1280;0.0206;
3978337864298427;0.0445;-0.0811;0.0068;
3978337874403584;0.0498;-0.0289;0.0334;
3978337884508740;0.0285;-0.0012;0.0419;
3978337894608584;0.0360;0.0711;0.0302;
3978337904713740;0.0413;0.1478;0.0121;
3978337914818896;0.0296;0.1371;-0.0007;
3978337924931032;-0.0013;-0.0076;0.0292;
3978337935036240;-0.0503;-0.0800;0.0505;
3978337945141344;-0.1004;-0.0747;0.0611;
3978337955247386;-0.0834;-0.1301;0.0451;
3978337965352594;-0.0706;-0.1940;0.0334;
3978337975457698;-0.0599;-0.2345;0.0356;
3978337985556969;-0.0535;-0.2057;0.0313;
3978337995662125;-0.0599;-0.2260;0.0260;
3978338005767282;-0.0610;-0.1940;0.0270;
3978338015874677;-0.0663;-0.0928;-0.0049;
3978338025979834;-0.0599;0.0340;-0.0220;
3978338036084990;-0.0471;0.2533;-0.0252;
3978338046189573;-0.0088;0.2075;-0.0113;
3978338056294730;0.0264;0.1403;-0.0039;
3978338066399938;-0.0301;0.3182;-0.0092;
3978338076504157;0.0115;0.3268;-0.0007;
3978338086609365;0.0093;0.1872;-0.0103;
3978338096714469;-0.0226;0.2234;-0.0230;
3978338106827907;-0.0333;0.2469;-0.0252;
3978338116933063;-0.0589;-0.0949;-0.0124;
3978338127038219;-0.0791;-0.5051;0.0249;
3978338137125719;-0.1174;-0.5040;-0.0252;
3978338147230875;-0.1217;0.0999;-0.0985;
3978338157336032;-0.0834;0.3459;-0.0921;
3978338167447177;0.1393;-0.2387;-0.0230;
3978338177552386;0.1350;-0.2185;-0.0561;
3978338187657542;-0.0706;0.1521;-0.0943;
3978338197775302;0.0636;-0.0619;-0.0422;
3978338207880511;0.2075;-0.0545;-0.0262;
3978338217985667;0.0232;0.2927;-0.0550;
3978338228076448;0.0381;0.6293;-0.0273;
3978338238181657;0.1489;0.2597;0.0217;
3978338248286813;0.1457;-0.2302;0.0366;
3978338258395980;-0.0589;-0.0864;0.0462;
3978338268501188;-0.0226;0.1659;0.0313;
3978338278606344;0.0360;0.0881;0.0441;
3978338288704573;0.0083;-0.2419;0.1037;
3978338298809782;-0.0184;-0.0044;0.0206;
3978338308914938;-0.0067;0.0839;0.0515;
3978338319041969;-0.0024;-0.2984;0.0952;
3978338329147177;-0.0077;-0.2941;0.0696;
3978338339252334;-0.0567;-0.1184;0.0632;
3978338349368480;0.0029;-0.0236;0.0771;
3978338359473688;0.0455;-0.0449;0.0952;
3978338369578844;-0.0045;-0.0843;0.0739;
3978338379681344;0.0040;0.0222;0.0792;
3978338389786552;0.0125;0.0711;0.1037;
3978338399891709;-0.0173;0.0372;0.0824;
3978338409969469;-0.0205;0.1702;0.0792;
3978338420074625;-0.0397;-0.1141;0.1272;
3978338430179782;-0.0535;-0.4081;0.1208;
3978338440287750;-0.1686;-0.0214;0.0920;
3978338450392907;-0.3113;0.3651;0.0931;
3978338460498063;-0.0866;0.4024;0.0483;
3978338470621500;0.0370;0.4354;-0.0145;
3978338480726709;-0.0173;0.5409;0.0004;
3978338490831865;0.0381;0.4599;0.0238;
3978338500932073;0.0051;0.2053;0.0377;
3978338511037282;-0.1526;-0.1344;0.0547;
3978338521142438;-0.1547;-0.0598;0.0409;
3978338531245407;-0.1473;0.4237;-0.0007;
3978338541350615;-0.1419;0.0063;0.0196;
3978338551455771;-0.0407;-0.3453;0.0228;
3978338561533375;-0.0802;-0.4752;0.0025;
3978338571638532;-0.0461;-0.4454;-0.0326;
3978338581743688;-0.0802;-0.2835;-0.0316;
3978338591884677;-0.0983;-0.1482;-0.0443;
3978338601989886;-0.0919;-0.0438;-0.0486;
3978338612095042;-0.0589;0.1659;-0.0443;
3978338622194677;-0.0375;0.2597;-0.0166;
3978338632299886;-0.0067;0.0595;0.0132;
3978338642405042;-0.0365;-0.0236;0.0004;
3978338652517334;-0.1004;0.0956;-0.0252;
3978338662622542;-0.1079;0.1670;0.0036;
3978338672727698;-0.1196;0.0563;0.0153;
3978338682836032;-0.1164;-0.1152;0.0153;
3978338692941240;-0.1185;-0.1983;0.0142;
3978338703046396;-0.1068;-0.2696;0.0068;
3978338713140459;-0.0919;-0.2856;0.0079;
3978338723245615;-0.0791;-0.1695;-0.0049;
3978338733350771;-0.0631;-0.0364;-0.0134;
3978338743461240;-0.0152;-0.0278;0.0057;
3978338753566448;0.0019;0.0340;-0.0262;
3978338763671605;-0.0035;0.0967;-0.0209;
3978338773778948;0.0189;0.0489;0.0036;
3978338783884157;0.0125;0.0700;0.0089;
3978338793989313;-0.0503;0.1095;0.0196;
3978338804104261;-0.0439;0.0913;0.0249;
3978338814209469;-0.0375;0.0988;0.0206;
3978338824314625;-0.0418;-0.0481;0.0569;
3978338834408219;-0.0525;-0.3197;0.0707;
3978338844513427;-0.0887;-0.2441;0.0228;
3978338854618584;-0.0834;-0.0236;0.0111;
3978338864720719;-0.0738;0.0403;-0.0028;
3978338874825927;-0.0727;0.0796;-0.0209;
3978338884931084;-0.1015;0.1116;-0.0145;
3978338895061813;-0.0951;0.0063;-0.0017;
3978338905167021;-0.1324;-0.3080;0.0004;
3978338915272177;-0.1750;-0.2494;-0.0220;
3978338925351761;-0.2921;0.2607;-0.0635;
3978338935456969;-0.2293;0.6176;-0.0624;
3978338945562125;0.0146;0.2842;-0.0932;
3978338955669677;0.1361;0.0403;-0.0975;
3978338965774886;-0.1196;0.1446;-0.1007;
3978338975880042;-0.1121;0.1073;-0.0953;
3978338985983844;-0.0770;-0.0811;-0.1081;
3978338996089052;-0.1068;-0.2185;-0.1220;
3978339006194209;-0.0429;0.0489;-0.1156;
3978339016304261;-0.0290;0.1318;-0.0953;
3978339026409469;-0.0003;-0.1695;-0.0964;
3978339036514625;0.0253;-0.2196;-0.1198;
3978339046617073;-0.0216;-0.2015;-0.1230;
3978339056722282;0.0178;-0.1248;-0.1230;
3978339066827438;0.0210;0.0190;-0.1497;
3978339076935407;0.0328;-0.0300;-0.1369;
3978339087040615;0.0509;-0.1088;-0.1007;
3978339097145771;0.0210;-0.1887;-0.0900;
3978339107253427;0.0274;-0.2025;-0.0720;
3978339117358636;0.0200;-0.1535;-0.0497;
3978339127463792;-0.0056;-0.1663;-0.0582;
3978339137563844;0.0051;-0.1929;-0.0815;
3978339147669105;-0.0269;-0.1301;-0.0699;
3978339157774313;-0.0471;0.0308;-0.0868;
3978339167896292;-0.0599;-0.0119;-0.1124;
3978339178001500;-0.0823;-0.0992;-0.0996;
3978339188106761;-0.1441;0.3118;-0.1337;
3978339198204625;-0.0876;0.6707;-0.1827;
3978339208309834;0.0796;0.4833;-0.1209;
3978339218415042;0.1329;-0.0225;-0.0772;
3978339228504417;-0.0375;-0.0587;-0.1358;
3978339238609625;-0.0535;0.4248;-0.1529;
3978339248714886;0.0626;0.2309;-0.1241;
3978339258832959;0.0881;-0.3602;-0.0826;
3978339268938167;-0.0748;-0.3453;-0.1614;
3978339279043375;0.0125;0.0009;-0.1859;
3978339289118063;0.0754;-0.1216;-0.1550;
3978339299223271;0.0850;-0.3250;-0.1624;
3978339309328480;0.0157;-0.0502;-0.1624;
3978339319456500;0.0956;0.4226;-0.1795;
3978339329561709;0.1883;0.4759;-0.1784;
3978339339666917;0.3447;-0.2419;-0.1060;
3978339349779052;0.2085;0.1244;-0.1593;
3978339359884261;0.0977;0.6272;-0.1369;
3978339369989469;0.2968;0.0636;-0.0911;
3978339380091813;0.1254;-0.1280;-0.0879;
3978339390197021;-0.0194;-0.2121;-0.0731;
3978339400302230;0.0754;-0.2281;-0.0911;
3978339410402959;0.0956;-0.3304;-0.0921;
3978339420508167;0.0573;-0.5742;-0.0678;
3978339430613375;0.0370;-0.3346;-0.0921;
3978339440722386;0.0850;0.1073;-0.1209;
3978339450827594;0.1297;-0.0129;-0.1156;
3978339460932802;0.1340;0.0754;-0.1518;
3978339471042542;0.0562;0.3651;-0.1529;
3978339481147750;0.3213;0.3917;-0.1145;
3978339491252959;0.3863;0.2852;-0.0571;
3978339501347646;0.2469;0.1936;-0.0433;
3978339511452855;0.1265;0.1776;-0.0071;
3978339521558063;0.1553;0.5217;-0.0422;
3978339531675459;0.2362;0.6676;-0.0465;
3978339541780667;0.2884;0.4301;-0.0465;
3978339551885875;0.1723;0.1776;-0.0273;
3978339562004157;0.0605;-0.2728;-0.0124;
3978339572109417;0.0583;-0.4561;-0.0198;
3978339582214625;-0.0152;-0.2771;-0.0422;
3978339592322386;0.0296;-0.0119;-0.0550;
3978339602427594;0.1382;0.0180;-0.0422;
3978339612532802;0.1798;0.2320;-0.0953;
3978339622625146;0.1744;-0.0619;-0.0337;
3978339632730355;0.1329;-0.5072;-0.0134;
3978339642835563;0.0754;-0.3740;-0.0316;
3978339652937386;0.1712;-0.0875;-0.0561;
3978339663042594;0.2202;0.0945;-0.0390;
3978339673147802;0.2266;0.1212;-0.0198;
3978339683249000;0.2160;0.0679;0.0217;
3978339693354209;0.2053;-0.0012;0.0441;
3978339703459417;0.1606;-0.1194;0.0356;
3978339713575146;0.1329;-0.0811;0.0419;
3978339723680355;0.1254;0.0988;0.0473;
3978339733785563;0.1371;0.1776;0.0579;
3978339743885667;0.1180;0.0425;0.0686;
3978339753990875;0.0722;-0.0651;0.0814;
3978339764096084;0.0189;-0.0768;0.0611;
3978339774200563;0.0370;-0.1173;0.0739;
3978339784305771;0.0338;-0.1088;0.1122;
3978339794410980;0.0317;-0.0523;0.1091;
3978339804524521;0.0796;0.0276;0.0494;
3978339814629730;0.0999;0.0850;0.0686;
3978339824734938;0.0658;-0.0747;0.0899;
3978339834837230;0.0285;-0.1493;0.0771;
3978339844942438;0.0253;-0.0747;0.0558;
3978339855047646;0.0626;0.0052;0.0686;
3978339865150719;0.0487;0.0095;0.0590;
3978339875255927;0.0562;0.0393;0.0739;
3978339885361136;0.0615;0.0700;0.0814;
3978339895459782;0.0871;-0.0001;0.0590;
3978339905564990;0.0562;-0.0332;0.0601;
3978339915670198;0.0317;0.0009;0.0686;
3978339925778375;0.0391;0.0372;0.0483;
3978339935883584;0.0487;0.0350;0.0569;
3978339945988792;0.0423;0.0158;0.0334;
3978339956092855;0.0466;0.0212;0.0387;
3978339966198063;0.0541;0.0190;0.0611;
3978339976303271;0.0551;0.0031;0.0632;
3978339986418896;0.0679;0.0063;0.0643;
3978339996524105;0.0647;0.0615;0.0494;
3978340006629313;0.0487;0.0553;0.0750;
3978340016724730;0.0317;-0.0790;0.0792;
3978340026829938;-0.0035;-0.2068;0.0739;
3978340036935146;-0.0237;-0.2196;0.0686;
3978340047035980;-0.0184;-0.3378;0.0931;
3978340057141188;-0.0045;-0.2728;0.0920;
3978340067246396;-0.0620;0.2352;0.0760;
3978340077363219;0.0019;0.5366;0.0888;
3978340087468427;0.2021;0.3619;0.0760;
3978340097573636;0.2979;0.1798;0.1005;
3978340107694677;0.1435;0.1957;0.1229;
3978340117799938;-0.0333;0.2032;0.1165;
3978340127905146;0.0008;0.2085;0.1005;
3978340138009105;-0.0099;0.1968;0.1091;
3978340148114365;-0.0386;0.1648;0.1027;
3978340158219677;-0.0077;0.0595;0.1250;
3978340168307802;-0.0397;-0.3154;0.1144;
3978340178413115;-0.0184;-0.4529;0.1325;
3978340188518375;-0.0397;-0.3953;0.0931;
3978340198638167;-0.0120;-0.1855;0.0984;
3978340208743427;-0.0141;0.0606;0.0696;
3978340218848688;0.0391;0.1467;0.0601;
3978340228940875;0.0328;0.0690;0.0899;
3978340239046136;0.0083;-0.0172;0.1122;
3978340249151396;0.0306;0.0350;0.0909;
3978340259264417;0.0562;0.1595;0.1133;
3978340269369677;0.0402;0.0382;0.1197;
3978340279474938;-0.0077;0.0615;0.1357;
3978340289581709;-0.0077;0.1893;0.1336;
3978340299686969;-0.0024;0.2106;0.1463;
3978340309792230;-0.0248;0.0329;0.1378;
3978340319883063;-0.0652;-0.1162;0.1240;
3978340329988323;-0.1270;0.0031;0.1112;
3978340340093636;-0.1547;0.0148;0.1282;
3978340350200719;-0.1494;-0.0800;0.1250;
3978340360305980;-0.1760;-0.0609;0.1154;
3978340370411240;-0.1686;-0.0715;0.0899;
3978340380519000;-0.1206;-0.0300;0.0632;
3978340390624261;-0.1089;-0.0555;0.0835;
3978340400729521;-0.0866;-0.1290;0.0686;
3978340410830875;-0.0812;-0.0609;0.0451;
3978340420936136;-0.0386;0.0382;0.0558;
3978340431041396;-0.0173;0.0563;0.0547;
3978340441152386;-0.0067;0.0414;0.0643;
3978340451257646;-0.0184;0.1063;0.0515;
3978340461362907;-0.0120;0.0945;0.0537;
3978340471479313;-0.0333;0.0244;0.0632;
3978340481584573;-0.0610;0.0265;0.0356;
3978340491689834;-0.0695;-0.0566;0.0430;
3978340501787334;-0.0727;-0.0395;0.0164;
3978340511892594;-0.0770;0.0499;0.0079;
3978340521997855;-0.0855;0.0732;0.0121;
3978340532097959;-0.0748;0.0435;-0.0071;
3978340542203219;-0.0844;0.0403;-0.0156;
3978340552308480;-0.0748;0.0020;0.0036;
3978340562404105;-0.0823;-0.0087;-0.0177;
3978340572509365;-0.0759;0.0553;-0.0433;
3978340582614625;-0.0759;0.0732;-0.0284;
3978340592743063;-0.0450;0.1425;-0.0550;
3978340602848323;-0.0482;0.1680;-0.0614;
3978340612953584;-0.0397;0.0382;-0.0561;
3978340623049105;-0.0738;-0.1099;-0.0465;
3978340633154365;-0.0706;-0.1226;-0.0742;
3978340643259625;-0.0461;-0.0172;-0.0826;
3978340653368271;-0.0216;0.0265;-0.0646;
3978340663473532;-0.0365;0.0297;-0.0772;
3978340673578792;-0.0386;-0.0172;-0.0762;
3978340683676709;-0.0461;-0.0609;-0.0964;
3978340693781969;-0.0407;-0.1482;-0.0996;
3978340703887282;-0.0290;-0.1706;-0.1177;
3978340713994521;0.0029;-0.0758;-0.1316;
3978340724099782;0.0338;0.0084;-0.1326;
3978340734205042;0.0605;0.0201;-0.1230;
3978340744317542;0.0743;-0.0385;-0.1017;
3978340754422802;0.0743;-0.0385;-0.0889;
3978340764528115;0.0338;0.0297;-0.1124;
3978340774630563;0.0093;0.0521;-0.1209;
3978340784735823;0.0093;0.0977;-0.1284;
3978340794841084;0.0115;0.1893;-0.1529;
3978340804961917;0.0391;0.1691;-0.1252;
3978340815067177;-0.0013;-0.0161;-0.1092;
3978340825172438;-0.0067;-0.1354;-0.1230;
3978340835264625;-0.0184;-0.0609;-0.1241;
3978340845369886;0.0072;-0.0097;-0.1305;
3978340855475146;-0.0194;-0.2814;-0.1166;
3978340865575146;0.0839;-0.7553;-0.0582;
3978340875680407;0.1020;-0.2419;-0.1582;
3978340885785667;-0.1292;0.5494;-0.2083;
3978340895881917;0.0573;0.3246;-0.1507;
3978340905987177;0.5333;-0.2430;-0.1241;
3978340916092438;0.7399;-0.1237;-0.1081;
3978340926208480;0.1798;0.1212;-0.0529;
3978340936313740;0.2053;-0.1035;-0.0071;
3978340946419000;0.3309;-0.2494;0.0387;
3978340956522125;0.1180;-0.0119;0.0206;
3978340966627386;0.1329;0.6229;-0.0188;
3978340976732646;0.1414;0.0350;0.0814;
3978340986837542;0.2968;-0.5827;0.0505;
3978340996942802;0.0349;-0.2611;0.0569;
3978341007048063;-0.0035;-0.3421;0.0441;
3978341017144730;0.0871;-0.2760;0.0409;
3978341027249990;-0.1025;-0.0065;0.0515;
3978341037355250;-0.2378;0.4471;0.0345;
3978341047471552;-0.1004;0.6346;-0.0092;
3978341057576865;0.1925;0.1915;-0.0092;
3978341067682125;0.4587;-0.0076;-0.0039;
3978341077788792;0.1041;0.2352;-0.0039;
3978341087894052;-0.0631;0.1276;0.0004;
3978341097999365;0.0455;-0.0875;0.0004;
3978341108089834;-0.0461;0.1041;-0.0252;
3978341118195094;-0.0482;0.1585;-0.0252;
3978341128300355;0.0530;-0.0172;-0.0156;
3978341138412698;0.0061;-0.2537;0.0025;
3978341148517907;-0.0280;-0.3708;-0.0326;
3978341158623167;-0.0120;-0.1557;-0.0603;
3978341168729730;-0.0322;0.0276;-0.0868;
3978341178834938;0.0115;0.0435;-0.0975;
3978341188940198;0.0445;0.0668;-0.0836;
3978341199034834;0.0391;0.1659;-0.0847;
3978341209140042;0.1084;0.2053;-0.0858;
3978341219245302;0.1222;0.0839;-0.0635;
3978341229395771;0.0903;0.0233;-0.0571;
3978341239500980;0.0391;0.0403;-0.0571;
3978341249606240;0.0551;-0.0097;-0.0635;
3978341259695355;0.0605;-0.0300;-0.0772;
3978341269800563;0.0519;-0.0672;-0.0953;
3978341279905823;0.0668;-0.0960;-0.0932;
3978341290020980;0.0775;-0.0981;-0.0667;
3978341300126188;0.0754;-0.1088;-0.0953;
3978341310231448;0.0881;-0.1855;-0.0996;
3978341320301605;0.0892;-0.1834;-0.0731;
3978341330406813;0.0850;-0.0736;-0.0529;
3978341340512073;0.0913;-0.0790;-0.0731;
3978341350628792;0.1340;-0.0736;-0.0678;
3978341360734000;0.1254;-0.0193;-0.0518;
3978341370839261;0.1393;0.0446;-0.0614;
3978341380943896;0.1627;0.0606;-0.0720;
3978341391049105;0.1574;-0.0374;-0.0465;
3978341401154365;0.1180;-0.1546;-0.0507;
3978341411263688;0.0945;-0.2004;-0.0401;
3978341421368896;0.0924;-0.1834;-0.0262;
3978341431474157;0.0754;-0.2387;-0.0166;
3978341441582334;0.0839;-0.3964;-0.0166;
3978341451687542;0.1254;-0.3485;0.0036;
3978341461792802;0.1116;-0.0651;-0.0518;
3978341471895146;0.1169;0.0531;-0.0475;
3978341482000355;0.2149;-0.2281;-0.0092;
3978341492105615;0.1872;-0.1450;-0.0198;
3978341502211396;0.0605;0.3246;-0.0593;
3978341512316605;0.1883;0.3822;-0.0305;
3978341522421865;0.4108;0.1457;0.0281;
3978341532522386;0.4427;0.1340;0.0451;
3978341542627594;0.1957;0.3662;0.0238;
3978341552732855;0.2554;0.4322;0.0675;
3978341562841709;0.3373;0.1457;0.1069;
3978341572946917;0.1893;-0.0822;0.1367;
3978341583052177;0.1329;-0.0971;0.1197;
3978341593162542;0.1329;-0.2238;0.1463;
3978341603267750;0.0530;-0.4688;0.1985;
3978341613373011;-0.0141;-0.2324;0.1868;
3978341623476917;0.0061;0.0212;0.1655;
3978341633582125;0.0967;-0.1035;0.1410;
3978341643687386;0.0306;-0.2387;0.1527;
3978341653786605;-0.1111;0.0318;0.1410;
3978341663891813;-0.0258;0.0690;0.1389;
3978341673997073;0.0413;-0.3218;0.1708;
3978341684101709;-0.0706;-0.4486;0.1879;
3978341694206917;-0.2197;0.1403;0.1740;
3978341704312177;-0.1984;0.5824;0.1783;
3978341714423271;0.1244;0.2937;0.2007;
3978341724528480;0.1712;0.3928;0.1112;
3978341734633740;0.0434;0.7080;0.0877;
3978341744739105;0.1510;0.4269;0.1250;
3978341754844313;0.0594;-0.0427;0.1336;
3978341764949573;-0.2794;-0.2398;0.1357;
3978341775048636;-0.2911;0.0585;0.0877;
3978341785153844;-0.2122;0.2075;0.0856;
3978341795259105;-0.1590;-0.2441;0.0835;
3978341805384834;-0.1803;-0.4987;0.0675;
3978341815490042;-0.1846;-0.3612;0.0515;
3978341825595302;-0.1313;-0.5306;-0.0017;
3978341835691605;-0.1057;-0.5816;-0.0273;
3978341845796813;-0.1622;-0.2963;-0.0582;
3978341855902073;-0.0972;-0.1791;-0.0486;
3978341866012073;-0.0003;-0.1663;-0.0529;
3978341876117334;0.0083;-0.1716;-0.0571;
3978341886222594;0.1020;-0.0811;0.0302;
3978341896331032;0.1073;0.2128;0.0206;
3978341906436240;0.2256;0.1872;0.0100;
3978341916541500;0.2650;0.2256;-0.0113;
3978341926627959;0.1638;0.3662;-0.0081;
3978341936733167;0.1361;0.2671;0.0100;
3978341946838427;0.0892;0.1201;0.0228;
3978341956944417;0.0115;0.1286;0.0121;
3978341967049625;0.0285;0.2021;0.0281;
3978341977154886;0.0551;-0.0001;0.0238;
3978341987260719;0.0296;-0.1024;0.0473;
3978341997365980;0.0370;-0.1120;0.0622;
3978342007471240;0.1031;-0.2260;0.0675;
3978342017593948;0.0924;-0.3485;0.0377;
3978342027699261;0.0807;-0.4188;0.0356;
3978342037804469;0.0860;-0.2217;0.0302;
3978342047880615;0.0679;-0.0033;0.0419;
3978342057985771;0.1510;0.0850;0.0537;
3978342068091032;0.1542;0.1435;0.0675;
3978342078196292;0.1893;0.2170;0.0686;
3978342088309834;0.1808;0.1872;0.1208;
3978342098415042;0.0722;0.0265;0.1229;
3978342108520302;-0.0333;-0.0800;0.1240;
3978342118632230;-0.0748;-0.0481;0.1101;
3978342128737438;-0.1217;0.0903;0.0920;
3978342138842698;-0.1686;-0.0246;0.0899;
3978342148964834;-0.2549;-0.2718;0.0654;
3978342159070094;-0.3336;-0.1961;0.0302;
3978342169175407;-0.4294;0.0636;0.0036;
3978342179276292;-0.3527;0.4120;-0.0529;
3978342189381552;-0.1409;0.3342;-0.0518;
3978342199486865;-0.0493;0.0754;-0.0624;
3978342209580250;-0.0983;0.1276;-0.0858;
3978342219685511;-0.0844;0.1712;-0.0826;
3978342229790823;-0.0354;0.1297;-0.1049;
3978342239906396;-0.0312;0.1403;-0.0975;
3978342250011657;-0.0088;0.1659;-0.0932;
3978342260116969;-0.0152;-0.0246;-0.0783;
3978342270210980;-0.0152;-0.2526;-0.0539;
3978342280316240;-0.0141;-0.5774;-0.0550;
3978342290421552;0.0967;-0.4060;-0.0550;
3978342300521917;0.0945;-0.0704;-0.1060;
3978342310627177;0.0839;0.0658;-0.0762;
3978342320732490;0.1670;0.0595;-0.0624;
3978342330849000;0.1616;0.0329;-0.0390;
3978342340954261;0.1041;0.1244;-0.0507;
3978342351059573;0.1212;0.1808;-0.0230;
3978342361158271;0.0754;0.0935;0.0174;
3978342371263584;0.0115;0.0180;0.0494;
3978342381368844;0.0040;-0.0459;0.0856;
3978342391479521;-0.0024;-0.0854;0.0569;
3978342401584782;0.0072;-0.1067;0.0696;
3978342411690094;0.0157;-0.1461;0.0867;
3978342421796813;-0.0088;-0.0427;0.0686;
3978342431902073;0.0104;0.1244;0.0249;
3978342442007386;0.0434;0.1286;0.0622;
3978342452108896;0.0317;0.1084;0.0526;
3978342462214157;0.0200;0.0999;0.0686;
3978342472319469;0.0402;0.0732;0.0750;
3978342482432802;0.0551;0.0775;0.0601;
3978342492538063;0.0594;0.0796;0.0686;
3978342502643375;0.0562;0.1340;0.0643;
3978342512744313;0.0892;0.1478;0.0686;
3978342522849573;0.0860;0.0148;0.0654;
3978342532954886;0.0711;-0.1258;0.0803;
3978342543059730;0.0242;-0.2750;0.1101;
3978342553164990;-0.0109;-0.2909;0.0899;
3978342563270302;-0.0056;-0.1365;0.0803;
3978342573390719;0.0072;-0.0193;0.0877;
3978342583495980;-0.0663;-0.1663;0.0622;
3978342593601292;-0.0940;-0.7499;0.1261;
3978342603701552;-0.1451;-0.6849;0.0920;
3978342613806813;-0.6734;0.3896;-0.0209;
3978342623912125;-0.5114;0.8326;-0.0847;
3978342634011969;0.1340;0.4663;-0.1198;
3978342644117230;0.3479;0.5952;-0.1561;
3978342654222542;0.2341;0.7815;-0.1071;
3978342664326813;0.2085;0.4833;-0.0529;
3978342674432073;0.0434;0.2011;-0.0710;
3978342684537386;-0.1345;0.2181;-0.0486;
3978342694625146;-0.0620;1.1298;-0.0868;
3978342704730459;0.0360;0.5164;-0.0071;
3978342714835719;0.2106;-0.8277;-0.0145;
3978342724954625;0.0029;-0.5699;-0.0049;
3978342735059886;-0.0866;-0.4465;-0.0124;
3978342745165198;-0.0258;-0.7084;0.0068;
3978342755269730;-0.0280;-0.7947;0.0260;
3978342765374990;-0.0194;-0.5381;-0.0273;
3978342775480302;0.0029;0.0105;-0.0678;
3978342785584417;0.0679;-0.0459;-0.0092;
3978342795689677;0.2682;-0.2462;-0.0156;
3978342805794990;0.3479;0.1073;-0.0571;
3978342815909105;0.2863;0.0647;0.0430;
3978342826014365;0.3320;-0.2110;0.0590;
3978342836119677;0.0690;-0.0395;0.0771;
3978342846217959;-0.1217;0.0254;0.1059;
3978342856323219;-0.0354;0.0967;0.0654;
3978342866428532;-0.0770;0.4706;0.0334;
3978342876528688;-0.0056;0.4514;0.0579;
3978342886633948;0.1212;0.1457;0.0441;
3978342896739261;-0.0184;0.1254;0.0494;
3978342906853011;-0.0951;-0.0076;0.0877;
3978342916958271;-0.0610;-0.1173;0.0792;
3978342927063584;-0.0663;-0.0342;0.0718;
3978342937153480;-0.0301;0.0636;0.0739;
3978342947258740;0.0466;0.0977;0.0920;
3978342957364052;0.0381;0.0329;0.0441;
3978342967480511;0.0306;-0.0598;0.0569;
3978342977585823;0.0061;-0.0236;0.0526;
3978342987691136;0.0232;0.0850;0.0494;
3978342997794105;0.0221;0.0658;0.0590;
3978343007899365;-0.0258;-0.0534;0.0707;
3978343018004677;-0.0397;-0.0395;0.0654;
3978343028140823;-0.0567;-0.0289;0.0707;
3978343038246136;-0.0663;-0.1013;0.0750;
3978343048351448;-0.1238;-0.1290;0.0569;
3978343058440980;-0.1558;-0.0822;0.0558;
3978343068546240;-0.1718;-0.0885;0.0356;
3978343078651552;-0.1792;-0.0715;-0.0007;
3978343088733063;-0.1622;-0.0395;-0.0081;
3978343098838323;-0.1356;-0.0459;-0.0230;
3978343108943636;-0.1196;0.1116;-0.0358;
3978343119057646;-0.0759;0.1435;-0.0166;
3978343129162907;-0.0130;0.0871;-0.0390;
3978343139268219;-0.0429;0.0764;-0.0443;
3978343149405875;-0.0258;0.1446;-0.0411;
3978343159511188;0.0157;0.1723;-0.0348;
3978343169616500;0.0477;0.1457;-0.0433;
3978343179687646;0.0413;0.0786;-0.0529;
3978343189792959;0.0349;-0.0236;-0.0220;
3978343199898271;0.0040;-0.0364;-0.0081;
3978343209997855;-0.0067;-0.1120;0.0025;
3978343220103167;-0.0056;-0.1077;-0.0188;
3978343230208480;0.0104;-0.0214;-0.0273;
3978343240340771;0.0445;-0.0087;-0.0177;
3978343250446084;0.0285;-0.0896;-0.0017;
3978343260551396;0.0349;-0.1567;0.0079;
3978343270636292;0.0285;-0.1237;-0.0103;
3978343280741605;0.0530;-0.1333;-0.0007;
3978343290846917;0.0466;-0.0907;0.0174;
3978343300957438;0.0296;-0.0342;0.0334;
3978343311062750;0.0594;-0.0502;0.0260;
3978343321168063;0.0605;-0.1269;0.0356;
3978343331278636;0.0125;-0.1770;0.0206;
3978343341383948;0.0083;-0.1322;0.0217;
3978343351489261;0.0093;-0.0640;0.0356;
3978343361604000;0.0136;-0.0406;0.0142;
3978343371709313;-0.0152;0.0340;0.0174;
3978343381814625;-0.0152;0.0871;-0.0028;
3978343391915146;-0.0099;-0.0182;0.0057;
3978343402020459;-0.0461;-0.1216;0.0249;
3978343412125771;-0.0482;-0.0321;0.0121;
3978343422216084;-0.0173;0.0658;0.0036;
3978343432321396;0.0136;0.0606;-0.0124;
3978343442426709;-0.0045;0.0425;-0.0028;
3978343452536396;0.0115;0.0743;-0.0241;
3978343462641709;0.0317;0.0764;-0.0411;
3978343472747021;0.0530;-0.0374;-0.0156;
3978343482858167;-0.0045;-0.1035;-0.0017;
3978343492963480;0.0104;-0.0289;0.0057;
3978343503068792;0.0381;0.0382;-0.0145;
3978343513174313;0.0700;0.0158;-0.0390;
3978343523279625;0.0636;0.0372;-0.0230;
3978343533384938;0.0754;0.0499;-0.0294;
3978343543485875;0.1308;0.0329;-0.0113;
3978343553591188;0.0956;-0.0087;-0.0092;
3978343563696500;0.0764;-0.0683;0.0100;
3978343573809052;0.0626;-0.0672;0.0334;
3978343583914365;0.0466;-0.0364;0.0100;
3978343594019677;0.0594;-0.0204;0.0100;
3978343604115563;0.0583;0.0009;0.0132;
3978343614220875;0.0498;0.0233;0.0015;
3978343624326188;0.0498;0.0190;-0.0039;
3978343634435563;0.0562;0.0467;-0.0113;
3978343644540875;0.0732;0.1052;-0.0188;
3978343654646188;0.0924;0.0329;-0.0007;
3978343664747125;0.0487;-0.1514;0.0206;
3978343674852438;0.0360;-0.2451;0.0430;
3978343684957750;0.0562;-0.1450;0.0579;
3978343695078792;0.0636;-0.0214;0.0185;
3978343705184105;0.0732;-0.1226;0.0334;
3978343715289417;0.0605;-0.0960;0.0334;
3978343725380771;0.0317;0.0860;0.0057;
3978343735486084;0.0743;0.1947;-0.0156;
3978343745591448;0.0807;0.1755;0.0196;
3978343755697021;0.0775;0.1616;0.0462;
3978343765802334;0.0477;0.2522;0.0441;
3978343775907646;0.0711;0.2479;0.0558;
3978343786008167;0.0562;0.1233;0.0526;
3978343796113532;-0.0045;0.0711;0.0696;
3978343806218844;-0.0290;0.1116;0.0654;
3978343816334417;-0.0067;0.0924;0.0601;
3978343826439730;0.0029;-0.0481;0.0462;
3978343836545042;-0.0258;-0.1162;0.0515;
3978343846646917;-0.0503;-0.0630;0.0601;
3978343856752230;-0.0280;-0.0278;0.0366;
3978343866857542;0.0008;-0.0672;0.0643;
3978343876954834;-0.0003;-0.0332;0.0718;
3978343887060146;0.0242;0.0510;0.0771;
3978343897165459;0.0605;0.0860;0.0483;
3978343907301136;0.0487;0.0690;0.0579;
3978343917406500;0.0413;0.0265;0.0675;
3978343927511813;0.0104;0.0158;0.0771;
3978343937588740;-0.0162;-0.0555;0.0803;
3978343947694105;-0.0312;-0.1514;0.1229;
3978343957799417;-0.0322;-0.1141;0.1005;
3978343967910771;-0.0077;-0.0875;0.1250;
3978343978016084;-0.0013;-0.1194;0.1421;
3978343988121448;-0.0248;-0.1141;0.1399;
3978343998241084;-0.0130;-0.0545;0.1708;
3978344008346396;-0.0397;-0.0108;0.1634;
3978344018451709;-0.0397;0.0137;0.1346;
3978344028553167;-0.0652;0.0382;0.1474;
3978344038658480;-0.1047;0.0754;0.1889;
3978344048763792;-0.1483;-0.0587;0.1943;
3978344058891657;-0.2091;-0.0417;0.1517;
3978344068997021;-0.3421;0.1169;0.1399;
3978344079102334;-0.3708;0.2192;0.0899;
3978344089168271;-0.2921;0.3449;0.0462;
3978344099273584;-0.2517;0.4631;0.0057;
3978344109378896;-0.2421;-0.0023;0.0569;
3978344119484313;-0.3549;-0.5359;0.0409;
3978344129589625;-0.3644;-0.4997;0.0196;
3978344139694938;-0.3134;-0.1599;-0.0571;
3978344149803636;-0.3676;0.0286;-0.0678;
3978344159908896;-0.3549;0.0052;-0.0868;
3978344170014157;-0.1601;0.1063;-0.1422;
3978344180109469;-0.1249;0.1031;-0.1710;
3978344190214730;-0.1132;-0.1194;-0.1827;
3978344200319990;-0.0493;-0.3399;-0.1987;
3978344210430042;0.0051;0.1830;-0.1806;
3978344220535302;-0.0951;0.5537;-0.1752;
3978344230640563;0.0594;0.2266;-0.1401;
3978344240745667;0.1702;0.0871;-0.1220;
3978344250850927;0.0935;0.1350;-0.0678;
3978344260956188;0.0903;0.0403;-0.0316;
3978344271061605;0.1222;-0.0619;-0.0475;
3978344281166865;0.1126;-0.1067;-0.0316;
3978344291272125;0.0956;-0.0875;-0.0145;
3978344301391709;0.0956;-0.0321;-0.0007;
3978344311496969;0.0711;0.0499;0.0206;
3978344321602230;0.0328;0.0329;0.0739;
3978344331690250;-0.0013;-0.0534;0.0686;
3978344341795511;-0.0333;-0.0502;0.0814;
3978344351900771;-0.0375;0.0361;0.0846;
3978344362046240;-0.0642;0.0020;0.1059;
3978344372151552;-0.0610;-0.0427;0.0931;
3978344382256813;-0.0791;0.0403;0.0846;
3978344392342125;-0.0748;0.0563;0.0792;
3978344402447386;-0.0610;0.0009;0.0973;
3978344412552646;-0.0652;-0.0683;0.0899;
3978344422641396;-0.0599;-0.0736;0.0782;
3978344432746657;-0.0365;-0.0534;0.0803;
3978344442851917;-0.0162;-0.0087;0.0920;
3978344452960563;-0.0205;-0.0236;0.0888;
3978344463065823;-0.0439;-0.0566;0.0537;
3978344473171084;-0.0418;-0.0417;0.0430;
3978344483276188;-0.0578;-0.0438;0.0302;
3978344493381448;-0.0631;-0.0001;0.0324;
3978344503486709;-0.0919;-0.0119;0.0515;
3978344513600980;-0.0897;0.0126;0.0047;
3978344523706240;-0.0727;0.0839;0.0057;
3978344533811500;-0.0620;0.0839;0.0036;
3978344543922750;-0.0280;0.1020;-0.0092;
3978344554028011;-0.0578;0.0860;-0.0177;
3978344564133271;-0.0482;0.0201;-0.0198;
3978344574220875;-0.0546;0.0254;-0.0049;
3978344584326136;-0.0567;-0.0182;-0.0124;
3978344594431396;-0.0695;-0.0353;0.0089;
3978344604545719;-0.0876;-0.0545;0.0164;
3978344614650980;-0.0642;-0.0864;-0.0028;
3978344624756240;-0.0770;-0.0917;0.0185;
3978344634867334;-0.0567;-0.0502;0.0302;
3978344644972594;-0.0674;-0.0353;0.0004;
3978344655077855;-0.0684;0.0126;0.0121;
3978344665176084;-0.0802;0.0956;-0.0124;
3978344675281344;-0.0738;0.1585;-0.0337;
3978344685386605;-0.0812;0.1616;0.0260;
3978344695485667;-0.0940;0.0233;0.0196;
3978344705590927;-0.0897;-0.0513;0.0121;
3978344715696188;-0.1377;-0.0310;0.0217;
3978344725805146;-0.1228;-0.0246;0.0228;
3978344735910407;-0.1036;-0.0119;0.0111;
3978344746015667;-0.1111;0.0137;-0.0071;
3978344756120980;-0.0866;-0.0150;-0.0028;
3978344766226240;-0.1004;-0.0928;-0.0220;
3978344776331500;-0.1164;-0.0555;-0.0550;
3978344786438480;-0.1356;-0.0119;-0.0198;
3978344796543740;-0.1217;0.0913;-0.0443;
3978344806649000;-0.0812;0.1691;-0.0284;
3978344816758480;-0.0567;0.1158;-0.0198;
3978344826863740;-0.0791;0.0531;-0.0550;
3978344836969000;-0.1015;0.0308;-0.0699;
3978344847072750;-0.1196;-0.0246;-0.0772;
3978344857178011;-0.1111;-0.0438;-0.0953;
3978344867283271;-0.1292;0.0425;-0.0900;
3978344877390042;-0.1089;0.0244;-0.1230;
3978344887495302;-0.0940;-0.1045;-0.1369;
3978344897600563;-0.0972;-0.0896;-0.1593;
3978344907710094;-0.0674;-0.0087;-0.1518;
3978344917815407;-0.0407;0.0063;-0.1497;
3978344927920667;-0.0375;-0.0864;-0.1774;
3978344938010667;-0.0173;-0.1620;-0.1561;
3978344948115927;-0.0194;-0.0523;-0.1752;
3978344958221188;0.0061;0.0244;-0.2029;
3978344968393011;0.0455;-0.0278;-0.1731;
3978344978498323;0.0168;-0.1290;-0.2019;
3978344988603584;0.0221;-0.0502;-0.1816;
3978344998654313;0.0157;0.0585;-0.1944;
3978345008759573;0.0807;-0.0300;-0.1838;
3978345018864834;0.0850;-0.1354;-0.1838;
3978345028985771;0.0594;-0.0150;-0.1944;
3978345039091032;0.0636;0.1063;-0.1710;
3978345049196292;0.0935;0.0786;-0.1582;
3978345059270355;0.1073;0.0201;-0.1465;
3978345069375615;0.0530;-0.0332;-0.1401;
3978345079480875;0.0423;-0.0044;-0.1411;
3978345089617855;0.0551;0.0137;-0.1273;
3978345099723115;0.0434;0.0063;-0.1252;
3978345109828375;0.0519;0.0361;-0.1305;
3978345119911136;0.0818;0.1371;-0.1220;
3978345130016396;0.1148;0.1244;-0.1060;
3978345140121657;0.1510;-0.0044;-0.0900;
3978345150241136;0.1031;-0.0427;-0.0593;
3978345160346396;0.0658;-0.1173;-0.0348;
3978345170451709;0.0615;-0.0992;-0.0497;
3978345180544105;0.0711;0.0084;-0.0379;
3978345190649417;0.0903;0.0212;-0.0049;
3978345200754677;0.1446;0.0372;-0.0049;
3978345210859052;0.1457;0.0137;-0.0145;
3978345220964365;0.1308;0.0020;-0.0081;
3978345231069625;0.1286;0.0212;0.0132;
3978345241185302;0.0988;0.1137;0.0334;
3978345251290563;0.0945;0.1158;0.0292;
3978345261395875;0.1126;0.0732;0.0366;
3978345271502802;0.0551;0.0233;0.0505;
3978345281608063;0.0573;0.0254;0.0622;
3978345291713375;0.0722;-0.0001;0.0973;
3978345301823063;0.0466;-0.0875;0.0707;
3978345311928323;0.0445;-0.0630;0.0750;
3978345322033636;0.0157;-0.0182;0.0920;
3978345332129834;0.0253;0.0679;0.0643;
3978345342235094;0.0423;0.0786;0.0494;
3978345352340407;0.0168;-0.0023;0.0856;
3978345362444834;0.0008;0.0212;0.0664;
3978345372550094;0.0242;0.0073;0.0814;
3978345382655407;0.0381;-0.0353;0.0835;
3978345392761084;0.0232;-0.0747;0.0835;
3978345402866344;0.0264;-0.0193;0.0707;
3978345412971657;0.0455;0.0711;0.0622;
3978345423069313;0.0573;0.1883;0.0569;
3978345433174573;0.0626;0.0679;0.0888;
3978345443279886;0.0338;-0.1067;0.0760;
3978345453396709;-0.0099;-0.1216;0.0601;
3978345463501969;0.0040;-0.0300;0.0473;
3978345473607282;0.0253;0.0425;0.0941;
3978345483715875;0.0413;-0.0076;0.1037;
3978345493821136;0.0274;0.0031;0.0622;
3978345503926448;0.0221;0.0563;0.0537;
3978345514024417;0.0338;0.0435;0.0824;
3978345524129677;0.0040;-0.0459;0.0931;
3978345534234990;-0.0333;-0.1173;0.0739;
3978345544357542;-0.0482;-0.0534;0.0760;
3978345554462802;-0.0759;0.0615;0.0611;
3978345564568115;-0.0514;0.0818;0.0579;
3978345574672959;-0.0258;0.0881;0.0356;
3978345584778219;-0.0461;0.0743;0.0281;
3978345594883532;-0.0397;0.1595;0.0515;
3978345604975146;-0.0162;0.0690;0.0494;
3978345615080407;-0.0322;0.0009;0.0387;
3978345625185719;-0.0823;-0.0758;0.0622;
3978345635302021;-0.1036;-0.1525;0.0366;
3978345645407334;-0.0855;-0.1099;0.0579;
3978345655512594;-0.0897;-0.0609;0.0473;
3978345665602646;-0.0567;-0.0406;0.0206;
3978345675707907;-0.0375;-0.0481;0.0249;
3978345685813219;-0.0109;0.0553;0.0111;
3978345695934782;-0.0205;0.0690;0.0089;
3978345706040042;-0.0130;0.1105;-0.0145;
3978345716145355;-0.0418;0.0212;0.0132;
3978345726234625;-0.0439;-0.0928;0.0153;
3978345736339886;-0.0397;-0.0555;0.0366;
3978345746445198;-0.0237;0.0297;0.0526;
3978345756545980;0.0040;0.0636;0.0601;
3978345766651292;0.0093;0.0201;0.0547;
3978345776756552;0.0061;0.0457;0.0206;
3978345786860980;-0.0162;0.0425;0.0260;
3978345796966240;-0.0258;0.0201;0.0334;
3978345807071552;-0.0375;0.0233;0.0238;
3978345817179886;-0.0226;0.0403;0.0345;
3978345827285146;0.0093;0.0446;0.0462;
3978345837390459;0.0136;-0.0545;0.0632;
3978345847498844;0.0178;-0.0459;0.0590;
3978345857604157;0.0189;0.0041;0.0728;
3978345867709469;0.0786;-0.0417;0.0590;
3978345877822542;0.0615;-0.1344;0.0675;
3978345887927802;0.0178;-0.1120;0.0771;
3978345898033115;-0.0237;-0.0470;0.0441;
3978345908157750;-0.0109;-0.0960;0.0473;
3978345918263011;-0.0226;-0.1248;0.0728;
3978345928368323;-0.0130;-0.0683;0.0622;
3978345938442855;0.0040;0.1510;0.0792;
3978345948548115;-0.0045;0.0254;0.1122;
3978345958653427;0.0061;-0.1013;0.1005;
3978345968794105;-0.0375;-0.0044;0.0952;
3978345978899365;-0.0652;0.0265;0.0846;
3978345989004677;-0.0642;0.0818;0.0675;
3978345999067125;-0.0887;0.0690;0.0814;
3978346009172438;-0.1366;0.0945;0.0846;
3978346019277698;-0.1750;0.1872;0.0419;
3978346029422750;-0.1366;0.1318;0.0707;
3978346039528011;-0.1398;0.0254;0.0920;
3978346049633323;-0.1718;-0.0715;0.1154;
3978346059731396;-0.2101;-0.1077;0.0632;
3978346069836657;-0.1696;-0.0609;0.0505;
3978346079941969;-0.1792;-0.0065;0.0366;
3978346090054625;-0.1760;0.0201;0.0238;
3978346100159886;-0.1632;-0.0438;0.0142;
3978346110265198;-0.1632;-0.1344;0.0174;
3978346120354313;-0.1664;-0.0246;-0.0103;
3978346130459625;-0.1324;0.1414;-0.0145;
3978346140564886;-0.0951;0.1073;0.0174;
3978346150667855;-0.0759;0.1414;-0.0145;
3978346160773115;-0.1004;0.1233;-0.0071;
3978346170878427;-0.0876;0.1265;-0.0198;
3978346180969000;-0.1121;0.0967;-0.0071;
3978346191074313;-0.1153;-0.0513;-0.0230;
3978346201179573;-0.1047;-0.0140;-0.0017;
3978346211288167;-0.0929;-0.0161;-0.0358;
3978346221393480;-0.0961;-0.1141;-0.0017;
3978346231498740;-0.1079;-0.1706;-0.0145;
3978346241615042;-0.0674;-0.0832;-0.0379;
3978346251720302;-0.0759;0.0041;-0.0433;
3978346261825615;-0.0610;0.1095;-0.0358;
3978346271924000;-0.0471;0.1265;-0.0507;
3978346282029261;-0.0461;0.0542;-0.0369;
3978346292134573;-0.0791;-0.0342;-0.0507;
3978346302246084;-0.0951;-0.0694;-0.0422;
3978346312351344;-0.1111;0.0212;-0.0465;
3978346322456657;-0.0844;0.0743;-0.0326;
3978346332551969;-0.0876;0.0382;-0.0252;
3978346342657230;-0.0780;0.0828;-0.0699;
3978346352762542;-0.0855;0.1158;-0.0582;
3978346362884209;-0.0834;0.0467;-0.0497;
3978346372989469;-0.1132;-0.0310;-0.0635;
3978346383094782;-0.1174;-0.0310;-0.0731;
3978346393185875;-0.0844;0.0393;-0.0678;
3978346403291136;-0.0610;0.0615;-0.0550;
3978346413396448;-0.0823;-0.0076;-0.0326;
3978346423510302;-0.0791;-0.0459;-0.0486;
3978346433615563;-0.0674;-0.0640;-0.0826;
3978346443720875;-0.0461;-0.0427;-0.0858;
3978346453832750;-0.0716;0.0041;-0.0656;
3978346463938011;-0.0471;0.0542;-0.0815;
3978346474043323;-0.0589;0.0158;-0.0762;
3978346484143480;-0.0674;-0.0481;-0.0879;
3978346494248740;-0.0439;-0.0097;-0.1007;
3978346504354052;-0.0365;0.0722;-0.0783;
3978346514470667;-0.0130;0.0329;-0.0656;
3978346524575927;-0.0003;-0.0449;-0.0593;
3978346534681240;-0.0088;-0.0385;-0.0678;
3978346544786605;-0.0269;0.0276;-0.0911;
3978346554891865;-0.0077;0.0297;-0.0762;
3978346564997177;-0.0248;-0.0449;-0.0932;
3978346575096500;-0.0322;0.0116;-0.1241;
3978346585201761;-0.0237;0.1201;-0.1166;
3978346595307073;0.0221;0.1031;-0.1007;
3978346605403636;0.0146;-0.0278;-0.0868;
3978346615508896;0.0019;-0.0374;-0.0858;
3978346625614209;-0.0003;0.0563;-0.1103;
3978346635723584;0.0221;0.0903;-0.0911;
3978346645828844;0.0232;0.0297;-0.1081;
3978346655934157;0.0093;-0.0715;-0.1081;
3978346666029990;-0.0130;-0.0278;-0.1092;
3978346676135355;0.0157;-0.1386;-0.1134;
3978346686240615;0.0008;-0.1684;-0.1284;
3978346696346813;0.0104;-0.1439;-0.1028;
3978346706452073;0.0146;-0.0001;-0.0953;
3978346716557386;0.0104;0.0318;-0.1316;
3978346726657646;0.0445;-0.0257;-0.1369;
3978346736762907;0.0242;0.0754;-0.0836;
3978346746868219;0.0146;0.1180;-0.1113;
3978346756974313;0.0562;0.0414;-0.1145;
3978346767079625;0.0583;0.0126;-0.1134;
3978346777184886;0.0338;0.0361;-0.0964;
3978346787308219;0.0360;0.0190;-0.0847;
3978346797413532;0.0445;-0.0726;-0.0847;
3978346807518844;0.0498;-0.0459;-0.0815;
3978346817634417;0.0573;-0.0406;-0.0889;
3978346827739782;0.0594;-0.0481;-0.0932;
3978346837845042;0.0679;-0.0609;-0.0772;
3978346847918427;0.0317;-0.0640;-0.0804;
3978346858023740;0.0541;-0.0119;-0.1017;
3978346868129052;0.0679;0.0137;-0.1166;
3978346878260875;0.0626;0.0585;-0.1017;
3978346888366136;0.0871;0.1446;-0.0742;
3978346898471448;0.1265;0.1158;-0.0699;
3978346908563688;0.1851;0.0265;-0.0911;
3978346918668948;0.1680;0.0350;-0.0858;
3978346928774261;0.1478;0.0732;-0.0603;
3978346938858584;0.1510;-0.0119;-0.0465;
3978346948963896;0.1084;-0.0427;-0.0443;
3978346959069157;0.0743;-0.0150;-0.0624;
3978346969194730;0.0967;-0.0140;-0.0337;
3978346979299990;0.0945;-0.0758;-0.0134;
3978346989405302;0.0690;-0.0790;-0.0284;
3978346999505875;0.0786;0.0222;-0.0433;
3978347009611136;0.0732;0.0732;-0.0113;
3978347019716448;0.0807;0.0372;-0.0007;
3978347029827438;0.0775;-0.0385;0.0142;
3978347039932750;0.0636;-0.0704;0.0206;
3978347050038063;0.0700;-0.0736;0.0196;
3978347060135667;0.0477;-0.0459;0.0377;
3978347070240927;0.0381;-0.0332;-0.0071;
3978347080346240;0.0242;-0.0374;0.0249;
3978347090451500;0.0221;0.1340;0.0558;
3978347100556813;0.0434;0.1073;0.0451;
3978347110662073;0.0615;0.1201;0.0366;
3978347120770980;0.0253;0.1712;0.0015;
3978347130876292;0.0178;-0.1013;0.0398;
3978347140981552;-0.0056;-0.2494;0.0590;
3978347151087021;-0.0024;-0.1503;0.0302;
3978347161192282;-0.0045;-0.0214;0.0292;
3978347171297594;0.0338;-0.0662;0.0632;
3978347181402646;0.0626;-0.0885;0.0387;
3978347191507907;0.0434;-0.1727;0.0622;
3978347201613219;0.0455;-0.2281;0.0036;
3978347211719834;0.0221;-0.0150;0.0281;
3978347221825094;0.0328;-0.1418;0.0153;
3978347231930407;0.0871;0.2032;-0.0166;
3978347242027646;0.0647;0.4045;0.0206;
3978347252132907;0.1585;0.1329;0.0505;
3978347262238219;0.2256;0.0116;0.0622;
3978347272352542;0.0711;-0.0012;0.0867;
3978347282457802;0.0668;0.0169;0.0601;
3978347292563115;0.0530;0.0052;0.0664;
3978347302676136;0.0285;-0.0055;0.0814;
3978347312781396;-0.0045;0.0169;0.0590;
3978347322886709;0.0093;-0.0012;0.0441;
3978347332983792;0.0072;-0.0097;0.0430;
3978347343089052;-0.0003;-0.0076;0.0377;
3978347353194365;-0.0205;-0.0108;0.0462;
3978347363298896;-0.0205;-0.0257;0.0643;
3978347373404157;-0.0003;-0.0065;0.0515;
3978347383509469;0.0296;-0.0055;0.0632;
3978347393621136;0.0178;-0.0758;0.0643;
3978347403726396;0.0040;0.0222;0.0622;
3978347413831709;0.0115;0.0222;0.0547;
3978347423933375;0.0008;-0.0449;0.0462;
3978347434038636;-0.0120;0.0063;0.0441;
3978347444143948;-0.0280;-0.0715;0.0611;
3978347454260563;-0.0557;-0.1365;0.0696;
3978347464365823;-0.0887;-0.0523;0.0696;
3978347474471136;-0.0940;0.0254;0.0654;
3978347484570563;-0.0748;0.0329;0.0718;
3978347494675823;-0.0759;0.0489;0.0718;
3978347504781136;-0.0812;-0.0182;0.0664;
3978347514888063;-0.0695;-0.0662;0.0483;
3978347524993323;-0.0802;-0.0001;0.0366;
3978347535098636;-0.0823;0.0031;0.0398;
3978347545180250;-0.0748;-0.0023;0.0451;
3978347555285511;-0.0695;0.0786;0.0601;
3978347565390823;-0.0450;0.1435;0.0547;
3978347575519625;-0.0397;0.1435;0.0356;
3978347585624886;-0.0461;0.1371;0.0249;
3978347595730198;-0.0674;0.0967;0.0569;
3978347605825719;-0.0642;0.0265;0.0185;
3978347615930980;-0.0514;-0.0001;0.0270;
3978347626036292;-0.0716;-0.0268;0.0292;
3978347636140980;-0.0503;-0.0417;0.0206;
3978347646246240;-0.0461;-0.0609;0.0217;
3978347656351552;-0.0290;-0.0438;0.0270;
3978347666448584;-0.0322;-0.0854;0.0419;
3978347676553896;-0.0546;-0.1780;0.0249;
3978347686659157;-0.0620;-0.1418;0.0473;
3978347696769521;-0.0610;-0.0491;-0.0092;
3978347706874782;-0.0482;0.0084;0.0111;
3978347716980094;-0.0461;0.0732;0.0004;
3978347727084209;-0.0450;0.0679;0.0185;
3978347737189469;-0.0344;0.0679;-0.0134;
3978347747294782;-0.0162;0.1425;-0.0017;
3978347757403792;-0.0141;0.0340;0.0281;
3978347767509052;-0.0610;-0.1418;0.0377;
3978347777614365;-0.0663;-0.0044;-0.0028;
3978347787730980;-0.0866;0.0510;0.0004;
3978347797836240;-0.0567;-0.0523;-0.0166;
3978347807941552;-0.0471;-0.0609;-0.0358;
3978347818048792;-0.0780;-0.0385;-0.0284;
3978347828154052;-0.0610;-0.0193;-0.0262;
3978347838259365;-0.0578;-0.0758;-0.0198;
3978347848358323;-0.0557;-0.0587;-0.0699;
3978347858463636;-0.0471;0.0542;-0.0635;
3978347868568948;-0.0461;0.1819;-0.0539;
3978347878688480;-0.0152;0.1489;-0.0454;
3978347888793792;0.0104;0.0732;-0.0624;
3978347898899105;-0.0248;0.1787;-0.0911;
3978347908990042;0.0136;0.1872;-0.0868;
3978347919095302;-0.0312;-0.0119;-0.0443;
3978347929200615;-0.0620;-0.1674;-0.0582;
3978347939324834;-0.0439;-0.1184;-0.0804;
3978347949430094;-0.0205;0.0828;-0.0646;
3978347959535407;0.0125;0.2469;-0.1049;
3978347969618584;0.0775;0.1467;-0.0804;
3978347979723844;0.0711;-0.1983;-0.0699;
3978347989829157;0.0402;-0.3048;-0.0879;
3978347999938480;0.0242;-0.2004;-0.0921;
3978348010043740;0.0455;-0.0662;-0.0772;
3978348020149052;0.0402;0.0169;-0.0815;
3978348030254000;0.0860;0.0690;-0.0656;
3978348040359261;0.0945;0.0828;-0.0220;
3978348050464573;0.1148;-0.0534;-0.0209;
3978348060562334;0.0871;-0.2398;-0.0294;
3978348070667594;0.0242;-0.1844;-0.0348;
3978348080772907;0.0360;0.1233;-0.0529;
3978348090895355;0.0541;0.2650;-0.0465;
3978348101000615;0.0445;0.1563;-0.0134;
3978348111105927;0.0104;0.0722;-0.0007;
3978348121205250;-0.0024;0.0967;-0.0007;
3978348131310511;0.0221;0.0818;0.0228;
3978348141415823;0.0242;0.0531;0.0057;
3978348151522125;-0.0322;0.0606;-0.0124;
3978348161627438;-0.0152;0.0521;0.0196;
3978348171732750;-0.0280;-0.1109;0.0206;
3978348181831396;-0.0248;-0.0300;-0.0433;
3978348191936709;0.0221;0.3353;-0.0943;
3978348202042021;0.0434;0.1766;-0.0198;
3978348212137125;0.0189;-0.2654;0.0057;
3978348222242438;0.0253;-0.3623;0.0057;
3978348232347750;0.0360;-0.2537;0.0111;
3978348242461969;0.0253;-0.1727;0.0281;
3978348252567282;-0.0099;-0.1280;0.0079;
3978348262672594;0.0029;-0.0502;0.0142;
3978348272782334;0.0317;0.1297;-0.0092;
3978348282887646;0.0434;0.2202;0.0068;
3978348292992959;-0.0056;-0.1961;0.0249;
3978348303118063;0.0093;-0.1184;-0.0060;
3978348313223375;-0.0290;0.2266;-0.0145;
3978348323328688;0.0306;0.2128;0.0121;
3978348333404209;0.0541;0.0626;0.0419;
3978348343509521;-0.0397;-0.1173;0.0515;
3978348353614834;-0.0322;-0.1908;0.0483;
3978348363726917;-0.0439;-0.0332;0.0377;
3978348373832230;-0.0418;0.1457;-0.0262;
3978348383937542;-0.0077;0.1137;-0.0348;
3978348394048480;-0.0258;-0.0108;-0.0252;
3978348404153792;-0.0461;0.0009;-0.0305;
3978348414259105;-0.0077;0.0542;-0.0433;
3978348424364625;0.0391;-0.0001;-0.0273;
3978348434469938;-0.0013;-0.0651;0.0185;
3978348444575250;0.0051;-0.0278;-0.0134;
3978348454686709;0.0168;0.0521;0.0100;
3978348464792021;0.0242;-0.0406;-0.0156;
3978348474897334;0.0242;-0.0896;-0.0401;
3978348484996292;0.0125;-0.0694;-0.0241;
3978348495101605;0.0221;-0.0960;-0.0071;
3978348505206917;0.0402;-0.0672;-0.0273;
3978348515312438;0.0402;-0.0672;-0.0177;
3978348525417750;0.0391;-0.0534;0.0142;
3978348535523063;0.0423;0.0574;0.0015;
3978348545621500;0.0541;0.0828;-0.0220;
3978348555726813;0.0519;0.0945;-0.0198;
3978348565832125;0.0360;0.1020;-0.0134;
3978348575942021;0.0104;0.0478;-0.0209;
3978348586047334;0.0008;-0.0342;-0.0209;
3978348596152646;-0.0099;0.0095;-0.0305;
3978348606264417;0.0072;0.1031;-0.0294;
3978348616369730;0.0253;0.0233;-0.0316;
3978348626475042;-0.0173;-0.1471;-0.0092;
