Sensor: bmi160 Gyroscope Non-wakeup
Vendor: BOSCH
TimestampGyro [ns]; GyroX [rad/s]; GyroY [rad/s]; GyroZ [rad/s]
82246670478150;-0.2363;0.0124;-0.0482;
82246680531952;-0.2374;0.0103;-0.0482;
82246690653567;-0.2598;0.0113;-0.0493;
82246700772056;-0.2672;0.0071;-0.0503;
82246710895233;-0.2470;0.0113;-0.0471;
82246721031327;-0.2013;0.0209;-0.0450;
82246731094452;-0.1619;0.0252;-0.0397;
82246741184765;-0.1427;0.0220;-0.0344;
82246751303202;-0.1374;0.0134;-0.0322;
82246761425338;-0.1321;0.0039;-0.0301;
82246771517525;-0.1204;-0.0057;-0.0290;
82246781639608;-0.1012;-0.0111;-0.0258;
82246791716692;-0.0767;-0.0079;-0.0205;
82246801803775;-0.0756;-0.0025;-0.0173;
82246811937890;-0.0873;0.0049;-0.0152;
82246822052577;-0.0959;0.0092;-0.0130;
82246832126483;-0.1044;0.0081;-0.0141;
82246842244140;-0.1055;-0.0015;-0.0141;
82246852338619;-0.1076;-0.0036;-0.0077;
82246862448827;-0.1108;-0.0004;-0.0045;
82246872572213;-0.1150;0.0081;-0.0035;
82246882666900;-0.1289;0.0156;-0.0035;
82246892773411;-0.1385;0.0071;-0.0013;
82246902884556;-0.1353;-0.0004;0.0051;
82246912985233;-0.1385;0.0081;0.0115;
82246923123567;-0.1449;0.0209;0.0115;
82246933191431;-0.1502;0.0241;0.0083;
82246943296431;-0.1545;0.0188;0.0093;
82246953401067;-0.1534;0.0124;0.0093;
82246963513827;-0.1566;0.0071;0.0072;
82246973611900;-0.1587;0.0049;0.0040;
82246983727317;-0.1640;0.0049;0.0051;
82246993834556;-0.1683;0.0028;0.0061;
82247003935494;-0.1640;-0.0015;0.0019;
82247014038723;-0.1577;0.0103;0.0040;
82247024145650;-0.1587;0.0443;0.0115;
82247034256015;-0.1875;0.0582;0.0104;
82247044365806;-0.1981;0.0273;-0.0088;
82247054468931;-0.1790;0.0092;-0.0088;
82247064564348;-0.1726;0.0262;0.0083;
82247074678306;-0.1949;0.0294;0.0115;
82247084783983;-0.2035;0.0017;-0.0024;
82247094888723;-0.1854;-0.0153;-0.0045;
82247104996848;-0.1427;0.0145;0.0093;
82247115093411;-0.0788;0.0539;0.0221;
82247125201431;-0.1118;0.0316;0.0157;
82247135312577;-0.2045;-0.0249;0.0019;
82247145413306;-0.1598;-0.0185;0.0168;
82247155522681;-0.0181;0.0241;0.0381;
82247165637577;0.0181;0.0166;0.0349;
82247175732577;-0.0277;-0.0015;0.0285;
82247185839765;0.0107;0.0411;0.0423;
82247195945077;0.0501;0.0869;0.0477;
82247206049140;-0.0607;0.0688;0.0221;
82247216152317;-0.2523;0.0188;0.0029;
82247226278098;-0.2555;0.0188;0.0125;
82247236370598;-0.2342;0.0134;0.0285;
82247246475650;-0.2513;-0.0132;0.0210;
82247256590233;-0.2332;-0.0057;0.0189;
82247266693306;-0.2109;0.0113;0.0242;
82247276793098;-0.1779;0.0156;0.0253;
82247286896327;-0.1395;0.0284;0.0370;
82247296996952;-0.0778;0.0497;0.0509;
82247307131796;-0.0501;0.0593;0.0551;
82247317271744;-0.1108;0.0316;0.0498;
82247327323098;-0.1854;0.0113;0.0519;
82247337420650;-0.1843;0.0198;0.0594;
82247347529973;-0.1523;0.0273;0.0583;
82247357623202;-0.1342;0.0209;0.0551;
82247367737577;-0.2246;-0.0100;0.0551;
82247377853306;-0.2715;-0.0292;0.0700;
82247387955233;-0.2523;-0.0514;0.0690;
82247398042681;-0.2120;-0.0557;0.0700;
82247408161744;-0.0511;0.0081;0.0923;
82247418272473;-0.0170;0.0433;0.1040;
82247428373827;-0.1214;0.0348;0.0901;
82247438472994;-0.1896;0.0475;0.0795;
82247448584973;-0.2300;0.0550;0.0763;
82247458689140;-0.2502;0.0624;0.0732;
82247468802681;-0.2502;0.0806;0.0743;
82247478891744;-0.2832;0.0816;0.0647;
82247489020181;-0.3397;0.0454;0.0360;
82247499121744;-0.3312;0.0124;0.0200;
82247509219452;-0.3173;-0.0036;0.0253;
82247519360077;-0.2939;-0.0111;0.0178;
82247529438983;-0.2598;0.0198;0.0072;
82247539537733;-0.1406;0.1061;-0.0003;
82247549647056;-0.0863;0.1487;0.0019;
82247559744244;-0.2427;0.0710;-0.0184;
82247569846848;-0.3439;0.0156;-0.0237;
82247579950806;-0.2928;0.0465;-0.0162;
82247590066848;-0.3226;0.0379;-0.0365;
82247600168202;-0.3237;-0.0089;-0.0674;
82247610259973;-0.2917;-0.0196;-0.0674;
82247620370650;-0.2481;0.0635;-0.0503;
82247630480911;-0.2939;0.1210;-0.0493;
82247640608775;-0.3557;0.0933;-0.0631;
82247650692681;-0.3258;0.0624;-0.0663;
82247660786223;-0.3333;0.0443;-0.0684;
82247670913411;-0.3205;0.0635;-0.0738;
82247681035806;-0.3194;0.0997;-0.0674;
82247691115598;-0.3226;0.1285;-0.0652;
82247701217942;-0.3301;0.1391;-0.0599;
82247711335963;-0.3461;0.0933;-0.0802;
82247721450129;-0.3429;0.0284;-0.1025;
82247731549348;-0.3312;0.0230;-0.0929;
82247741640338;-0.3322;0.0678;-0.0738;
82247751731379;-0.3503;0.0720;-0.0748;
82247761871171;-0.3450;0.0529;-0.1047;
82247771962161;-0.2747;0.0838;-0.1185;
82247782053202;-0.0980;0.1647;-0.1100;
82247792181796;-0.0543;0.1594;-0.0919;
82247802272838;-0.2332;0.0688;-0.1121;
82247812363827;-0.3312;0.0465;-0.1260;
82247822488983;-0.2928;0.0816;-0.1494;
82247832580025;-0.2704;0.0806;-0.1622;
82247842671015;-0.2619;0.0901;-0.1654;
82247852809608;-0.2278;0.1072;-0.1654;
82247862900650;-0.1960;0.1146;-0.1675;
82247872991640;-0.1715;0.1913;-0.1654;
82247883133411;-0.2896;0.2212;-0.1941;
82247893224452;-0.4473;0.1519;-0.2921;
82247903315442;-0.4121;0.1040;-0.3656;
82247913463254;-0.3716;0.0603;-0.3166;
82247923554296;-0.3386;0.0177;-0.2410;
82247933645286;-0.3301;0.0784;-0.1952;
82247943753775;-0.3684;0.1913;-0.2240;
82247953844817;-0.3972;0.2425;-0.2804;
82247963935806;-0.3908;0.2648;-0.2911;
82247974087681;-0.4015;0.2723;-0.2772;
82247984178671;-0.4057;0.2574;-0.2719;
82247994269713;-0.3972;0.2787;-0.2783;
82248004396744;-0.4121;0.2638;-0.3049;
82248014487786;-0.4121;0.1498;-0.3529;
82248024578775;-0.3897;0.1072;-0.3891;
82248034715754;-0.3929;0.1615;-0.3997;
82248044806796;-0.4015;0.2020;-0.4242;
82248054897786;-0.4089;0.1360;-0.4381;
82248065019608;-0.4025;0.1210;-0.4423;
82248075110650;-0.4110;0.1828;-0.4178;
82248085201640;-0.4153;0.2009;-0.4242;
82248095353254;-0.4238;0.1360;-0.4487;
82248105444296;-0.4068;0.1626;-0.4551;
82248115535286;-0.4206;0.2276;-0.4434;
82248125675077;-0.4142;0.1754;-0.4477;
82248135766119;-0.4260;0.1296;-0.4349;
82248145857108;-0.4398;0.1636;-0.4349;
82248155978046;-0.4419;0.1679;-0.4359;
82248166069088;-0.4313;0.1530;-0.4306;
82248176160077;-0.4174;0.1775;-0.4051;
82248186294765;-0.4217;0.2105;-0.4040;
82248196385806;-0.4302;0.1679;-0.4232;
82248206476848;-0.4377;0.1338;-0.4274;
82248216627994;-0.4345;0.1296;-0.4338;
82248226718983;-0.4260;0.1221;-0.4136;
82248236810025;-0.4206;0.1115;-0.3933;
82248246933983;-0.4164;0.0976;-0.3869;
82248257025025;-0.4260;0.0806;-0.3806;
82248267116015;-0.4398;0.0624;-0.3731;
82248277241119;-0.4473;0.0923;-0.3784;
82248287332161;-0.4334;0.1509;-0.3731;
82248297423150;-0.4611;0.1381;-0.3486;
82248307551431;-0.4579;0.0774;-0.3443;
82248317642473;-0.4707;0.1104;-0.3262;
82248327733463;-0.4931;0.1530;-0.3071;
82248337880233;-0.4963;0.1551;-0.2975;
82248347971275;-0.4952;0.1338;-0.3102;
82248358062265;-0.4771;0.0454;-0.3081;
82248368197317;-0.4686;-0.0356;-0.2868;
82248378288358;-0.4760;-0.0493;-0.2751;
82248388379348;-0.5229;0.0071;-0.2836;
82248398501379;-0.5240;0.0827;-0.2506;
82248408592421;-0.5133;0.1466;-0.2080;
82248418683411;-0.4952;0.1945;-0.1803;
82248428832108;-0.5090;0.2467;-0.1739;
82248438923150;-0.5367;0.2233;-0.2069;
82248449014140;-0.5208;0.1871;-0.2250;
82248459143046;-0.5176;0.1328;-0.2261;
82248469234088;-0.5229;0.0411;-0.2410;
82248479325077;-0.5399;0.0092;-0.2399;
82248489472733;-0.5325;-0.0079;-0.2229;
82248499563775;-0.5122;-0.0302;-0.2474;
82248509654817;-0.5037;-0.0525;-0.2666;
82248519783671;-0.4675;-0.0196;-0.2570;
82248529874713;-0.4419;0.0475;-0.2549;
82248539965702;-0.4057;0.1008;-0.2218;
82248550097004;-0.2864;0.1423;-0.2080;
82248560188046;-0.1587;0.1029;-0.2453;
82248570279036;-0.0117;0.0795;-0.2634;
82248580413775;0.1321;0.0838;-0.2410;
82248590504817;0.2152;0.0891;-0.2176;
82248600595806;0.3505;0.0699;-0.1941;
82248610746119;0.5016;0.0369;-0.1995;
82248620856640;0.5399;0.0603;-0.2059;
82248630947681;0.6401;0.0507;-0.1877;
82248641038671;0.7945;0.0156;-0.1846;
82248651157733;0.8446;0.0230;-0.1419;
82248661248775;0.9064;0.0486;-0.1249;
82248671339817;0.8989;0.0497;-0.1025;
82248681470233;1.0202;0.0944;-0.0727;
82248691561223;1.0277;0.1210;-0.0557;
82248701652265;1.0511;0.0827;-0.0312;
82248711779244;1.1076;0.0539;-0.0258;
82248721870233;1.0234;0.0784;0.0104;
82248731961275;0.9927;0.0838;0.0168;
82248742107786;0.9128;0.1008;0.0296;
82248752198775;0.8446;0.0859;0.0306;
82248762289817;0.7125;0.0507;0.0008;
82248772410025;0.6070;0.1051;-0.0099;
82248782501067;0.3952;0.1668;-0.0407;
82248792592056;0.3238;0.1594;-0.0684;
82248802738046;0.2620;0.0603;-0.1100;
82248812829088;0.1353;-0.0706;-0.1292;
82248822920077;-0.0053;-0.1260;-0.1654;
82248833050754;-0.0575;-0.0887;-0.1888;
82248843141796;-0.0202;-0.0503;-0.2197;
82248853232786;-0.0362;-0.0025;-0.2218;
82248863396848;-0.0043;0.0475;-0.2133;
82248873487890;0.0075;0.0561;-0.2154;
82248883578879;0.0043;0.0869;-0.2272;
82248893688671;0.0160;0.0838;-0.2474;
82248903779713;0.0117;0.0806;-0.2399;
82248913870702;0.0117;0.0539;-0.2399;
82248924005338;0.0000;-0.0398;-0.2208;
82248934096379;0.0096;-0.1015;-0.2122;
82248944187369;0.0224;-0.0631;-0.1984;
82248954320338;0.0330;-0.0983;-0.2069;
82248964411379;0.1097;-0.1877;-0.1877;
82248974502369;0.1672;-0.1547;-0.1739;
82248984643671;0.2375;-0.0727;-0.1142;
82248994734713;0.4079;0.0177;-0.0972;
82249004825702;0.5261;0.0316;-0.0738;
82249014954817;0.6561;0.0294;-0.0567;
82249025045858;0.7040;0.0422;-0.0099;
82249035136848;0.7200;0.0635;0.0125;
82249045280754;0.7615;0.0348;0.0317;
82249055418202;0.8222;0.0007;0.0423;
82249065509244;0.7956;-0.0121;0.0816;
82249075600286;0.7945;-0.0089;0.0965;
82249085699817;0.8254;-0.0228;0.1146;
82249095790858;0.8393;-0.0589;0.1221;
82249105881848;0.8329;-0.0866;0.1487;
82249116009713;0.8233;-0.0419;0.1573;
82249126100754;0.8148;0.0209;0.1668;
82249136191744;0.7849;-0.0302;0.1594;
82249146332108;0.7082;-0.0589;0.1818;
82249156423150;0.5549;-0.0089;0.1786;
82249166514140;0.4334;0.0262;0.1935;
82249176650963;0.3164;0.0028;0.1668;
82249186742004;0.2301;-0.0153;0.1839;
82249196832994;0.2567;-0.0196;0.1850;
82249206961483;0.2248;0.0230;0.1967;
82249217052525;0.1182;0.0465;0.1913;
82249227143515;0.0927;0.0593;0.1839;
82249237286223;0.0405;0.0827;0.1796;
82249247377265;-0.0107;0.0539;0.1786;
82249257468254;-0.0788;0.0294;0.1871;
82249267596171;-0.1726;0.0593;0.1626;
82249277687213;-0.1438;0.0507;0.1562;
82249287778202;-0.2067;-0.0206;0.1498;
82249297919400;-0.2459;-0.0356;0.1423;
82249308010442;-0.2747;-0.0482;0.1775;
82249318101431;-0.3429;-0.0185;0.1455;
82249328238150;-0.3162;0.0060;0.1349;
82249338329192;-0.3482;-0.0313;0.0955;
82249348420181;-0.3610;0.0007;0.1072;
82249358542213;-0.3961;-0.0121;0.1029;
82249368633254;-0.3972;-0.0302;0.0722;
82249378724244;-0.3599;-0.0089;0.0763;
82249388865754;-0.3439;-0.0015;0.0253;
82249398956796;-0.3024;0.0475;0.0051;
82249409047786;-0.2534;0.0497;0.0136;
82249419178567;-0.1917;0.0369;-0.0024;
82249429269608;-0.0980;-0.0238;0.0306;
82249439360598;-0.0618;-0.0993;0.0157;
82249449503254;-0.0554;-0.0535;0.0338;
82249459594296;-0.0341;0.0028;0.0626;
82249469685286;-0.0128;-0.0471;0.0455;
82249479822004;0.0117;-0.0493;0.0626;
82249489913046;0.0298;-0.0068;0.1051;
82249500004036;0.0096;0.0134;0.0891;
82249510126067;0.0181;0.0326;0.1178;
82249520217108;0.0107;0.0060;0.1296;
82249530308098;-0.0202;-0.0057;0.1391;
82249540451171;-0.0192;0.0113;0.1796;
82249550542213;-0.0266;0.0209;0.1732;
82249560633202;-0.0607;0.0007;0.1679;
82249570767994;-0.0330;-0.0079;0.1818;
82249580858983;-0.0937;-0.0047;0.1732;
82249590950025;-0.1214;0.0145;0.1881;
82249601080702;-0.1683;-0.0004;0.1977;
82249611171744;-0.1992;0.0103;0.1605;
82249621262786;-0.2587;-0.0057;0.1509;
82249631431431;-0.3439;-0.0111;0.1743;
82249641522421;-0.4845;-0.0281;0.1509;
82249651613463;-0.5836;-0.0652;0.0880;
82249661711431;-0.5943;-0.0567;0.0732;
82249671802473;-0.6337;-0.0164;0.0349;
82249681893463;-0.6582;-0.0206;0.0040;
82249692046015;-0.6316;-0.0025;-0.0024;
82249702137056;-0.5857;-0.0174;-0.0035;
82249712228046;-0.5304;-0.0281;-0.0386;
82249722303671;-0.4185;0.0113;-0.0450;
82249732394661;-0.3344;0.0475;-0.0354;
82249742485702;-0.3035;0.0443;-0.0290;
82249752668671;-0.1907;0.0284;-0.0248;
82249762759713;-0.1949;0.0092;-0.0216;
82249772865702;-0.2140;0.0017;-0.0386;
82249782956744;-0.2013;-0.0068;-0.0386;
82249793047733;-0.2024;0.0273;-0.0035;
82249803196588;-0.1864;0.0859;-0.0024;
82249813287629;-0.2130;0.0603;-0.0130;
82249823378619;-0.2246;0.0465;-0.0120;
82249833521588;-0.2172;0.0220;0.0455;
82249843612629;-0.2236;-0.0738;0.0636;
82249853703619;-0.2395;-0.0802;0.0477;
82249863842838;-0.2406;0.0028;0.0690;
82249873933879;-0.2342;0.0603;0.0690;
82249884024869;-0.2523;0.0379;0.0679;
82249894156223;-0.2822;-0.0451;0.0763;
82249904247265;-0.2864;-0.0387;0.0923;
82249914338254;-0.3695;0.0198;0.0816;
82249924477942;-0.4260;0.0401;0.0594;
82249934568983;-0.4398;0.0486;0.0530;
82249944659973;-0.4931;0.0550;0.0253;
82249954787317;-0.5506;-0.0057;-0.0194;
82249964878358;-0.5506;0.0401;-0.0407;
82249974969348;-0.6060;0.0390;-0.0344;
82249985113567;-0.6252;0.0262;-0.0780;
82249995204556;-0.6049;0.0635;-0.1025;
82250005295598;-0.6678;0.0571;-0.1622;
82250015419036;-0.6390;0.0326;-0.1877;
82250025510077;-0.5996;-0.0153;-0.2037;
82250035601067;-0.5474;-0.0238;-0.2080;
82250045753150;-0.5048;0.0145;-0.2122;
82250055844192;-0.4047;0.0443;-0.2463;
82250065935181;-0.3439;0.0241;-0.2783;
82250076055233;-0.3397;0.0507;-0.2772;
82250086146275;-0.2960;0.0955;-0.2304;
82250096237265;-0.2694;0.0443;-0.2218;
82250106371483;-0.1502;-0.0228;-0.2293;
82250116462525;-0.0469;0.0252;-0.2197;
82250126553515;-0.1087;-0.0132;-0.2144;
82250136694608;-0.1161;-0.0684;-0.2250;
82250146785650;-0.0959;-0.0471;-0.2293;
82250156876640;-0.0927;-0.0557;-0.2101;
82250167014817;-0.0650;-0.0366;-0.1963;
82250177105858;-0.0405;-0.0313;-0.2048;
82250187196848;-0.0053;-0.0324;-0.2240;
82250197327525;0.0575;0.0294;-0.2101;
82250207418567;0.0501;0.0198;-0.1664;
82250217509608;0.0373;-0.0270;-0.1270;
82250227657108;0.0618;-0.0132;-0.1398;
82250237748150;0.0618;0.0188;-0.1696;
82250247839140;0.0831;0.0379;-0.1494;
82250257960546;0.0810;0.0326;-0.1270;
82250268051588;0.0991;-0.0206;-0.1153;
82250278142577;0.1577;-0.0791;-0.0983;
82250288275233;0.1854;-0.0663;-0.0908;
82250298366223;0.1417;-0.0525;-0.0940;
82250308457265;0.0980;-0.0866;-0.0802;
82250318584400;0.1033;-0.0748;-0.0770;
82250328675442;0.0618;-0.0876;-0.0919;
82250338766431;0.0756;-0.1632;-0.0887;
82250348916900;0.1012;-0.1728;-0.0940;
82250359007942;0.0565;-0.1920;-0.0684;
82250369098931;0.0597;-0.3454;-0.0567;
82250379230650;0.0682;-0.1345;-0.1558;
82250389321692;-0.9797;0.4012;-0.2463;
82250399412681;-1.8520;0.6024;-0.2612;
82250409545025;-0.9084;0.4566;-0.3198;
82250419636067;0.3931;0.1913;-0.4519;
82250429727056;0.9916;0.0848;-0.4743;
82250439893567;1.0809;0.0944;-0.3752;
82250449984608;1.1662;0.0049;-0.2399;
82250460075598;1.1630;-0.0441;-0.1409;
82250470255181;0.9383;-0.0079;-0.0706;
82250480346171;0.6337;0.0294;-0.0344;
82250490437213;0.4398;0.0049;-0.0578;
82250500528254;0.4377;-0.0057;-0.0439;
82250510598463;0.4409;-0.0100;-0.0003;
82250520689452;0.3643;0.0720;0.0274;
82250530780494;0.2695;0.2180;0.0498;
82250540910963;0.1843;0.1807;0.0754;
82250551002004;0.1417;0.2180;0.0541;
82250561092994;0.1161;0.5482;0.0605;
82250571227213;0.2482;0.0390;0.1573;
82250581318254;0.2056;-0.7692;0.1381;
82250591409296;-0.0096;-0.4903;0.1200;
82250601564713;-0.3770;-0.0919;0.0296;
82250611655754;-0.6582;-0.1185;-0.0226;
82250621746744;-0.5666;-0.1984;-0.0375;
82250631875858;-0.3130;-0.0770;-0.0130;
82250641966848;-0.2395;0.1242;0.0253;
82250652057890;-0.2099;0.1051;0.0413;
82250662186900;-0.0138;0.0561;0.0658;
82250672277942;0.0383;0.1274;0.0923;
82250682368931;-0.0511;0.1061;0.1072;
82250692504504;-0.1012;0.0379;0.0827;
82250702595546;-0.1374;0.1061;0.0795;
82250712686536;-0.2896;0.0859;0.0806;
82250722836015;-0.3802;-0.0249;0.0391;
82250732927004;-0.3844;-0.0313;0.0349;
82250743018046;-0.4526;-0.0748;0.0125;
82250753130077;-0.4952;-0.1079;-0.0439;
82250763221119;-0.4398;0.0422;-0.0748;
82250773312108;-0.4260;0.0348;-0.0876;
82250783458150;-0.3120;-0.0652;-0.1324;
82250793561067;-0.1214;-0.0004;-0.1569;
82250803663931;-0.1140;0.0720;-0.1643;
82250813779244;-0.1129;0.0262;-0.2016;
82250823882108;0.0053;0.0433;-0.2410;
82250833985077;0.1150;0.0795;-0.2282;
82250844094661;0.1651;0.0230;-0.2495;
82250854197577;0.2375;-0.0015;-0.2762;
82250864300494;0.2759;0.0486;-0.2911;
82250874409973;0.1960;-0.0089;-0.2666;
82250884512890;0.1811;-0.0493;-0.2581;
82250894615806;0.2184;0.0252;-0.2570;
82250904722265;0.1747;0.0294;-0.2985;
82250914825129;0.2322;0.0294;-0.2815;
82250924928098;0.2642;-0.0217;-0.2602;
82250935031483;0.3089;-0.0791;-0.2399;
82250945134400;0.3515;-0.0036;-0.2176;
82250955237317;0.3228;-0.0121;-0.2027;
82250965354244;0.3260;-0.0366;-0.2016;
82250975457108;0.3664;-0.0025;-0.1995;
82250985560025;0.3824;-0.0153;-0.1632;
82250995672317;0.4355;0.0220;-0.1505;
82251005775233;0.4718;-0.0164;-0.1590;
82251015878150;0.5112;-0.0196;-0.1430;
82251025985754;0.4771;0.0198;-0.0972;
82251036088723;0.3983;-0.0164;-0.1015;
82251046191640;0.4004;-0.0036;-0.1025;
82251056312161;0.4153;0.0443;-0.0908;
82251066415077;0.4100;-0.0196;-0.0866;
82251076517994;0.4345;-0.0642;-0.0599;
82251086636119;0.4089;-0.0260;-0.0503;
82251096739036;0.3569;0.0017;-0.0471;
82251106841900;0.3057;-0.0313;-0.0280;
82251116937265;0.2919;-0.0674;-0.0386;
82251127040181;0.2844;-0.0004;-0.0365;
82251137143098;0.2865;0.0188;-0.0258;
82251147277681;0.2887;-0.0174;-0.0333;
82251157380598;0.2876;0.0028;-0.0450;
82251167483515;0.2865;0.0326;-0.0333;
82251177581015;0.2834;0.0166;-0.0141;
82251187683931;0.2897;-0.0153;0.0029;
82251197786796;0.2834;0.0305;-0.0045;
82251207895702;0.3025;0.0252;0.0008;
82251217998567;0.3164;0.0049;0.0083;
82251228101536;0.3334;-0.0270;0.0562;
82251238225650;0.3100;-0.0387;0.1104;
82251248328567;0.2812;-0.0100;0.1509;
82251258431483;0.2674;-0.0015;0.1189;
82251268535077;0.2887;0.0912;0.1104;
82251278637942;0.2663;0.1210;0.1370;
82251288740911;0.2929;0.1178;0.1764;
82251298860494;0.2557;0.0742;0.1818;
82251308963358;0.2194;0.0401;0.2009;
82251319066275;0.1694;0.0241;0.2393;
82251329174973;0.0394;0.0688;0.2489;
82251339277890;0.0309;0.0848;0.2457;
82251349380806;0.0469;0.0252;0.2478;
82251359479452;-0.0288;0.0411;0.2489;
82251369582369;-0.1214;0.0891;0.2734;
82251379685286;-0.1353;0.0784;0.2712;
82251389798098;-0.0980;0.0539;0.2851;
82251399901015;-0.1651;0.0252;0.2659;
82251410003931;-0.2502;0.0252;0.2435;
82251420106171;-0.2683;0.0092;0.2425;
82251430209088;-0.2726;-0.0249;0.2201;
82251440312004;-0.3067;0.0145;0.1839;
82251450425650;-0.3684;0.0880;0.1541;
82251460528619;-0.3375;0.0529;0.1477;
82251470631536;-0.2822;0.0337;0.1136;
82251480759140;-0.3194;0.0614;0.0816;
82251490862004;-0.3248;0.0156;0.0551;
82251500964973;-0.2438;0.0774;0.0679;
82251511081744;-0.2470;0.0379;0.0583;
82251521184661;-0.1822;-0.0441;0.0700;
82251531287577;-0.1204;-0.0174;0.0360;
82251541385650;-0.1417;-0.0302;-0.0067;
82251551488567;-0.1055;-0.0132;0.0178;
82251561591483;-0.0639;-0.0057;0.0168;
82251571693827;-0.0639;-0.0409;-0.0024;
82251581796744;-0.0394;0.0134;-0.0301;
82251591899713;-0.0554;0.0103;-0.0194;
82251601999608;-0.0692;-0.0706;-0.0173;
82251612102525;-0.0447;-0.0430;-0.0173;
82251622205494;-0.0426;0.0401;-0.0663;
82251632322629;-0.0234;0.0273;-0.0620;
82251642425546;-0.0181;-0.0196;-0.0333;
82251652528463;0.0096;-0.0068;-0.0035;
82251662644608;-0.0234;0.0060;-0.0354;
82251672747577;-0.0096;-0.0409;-0.0514;
82251682850494;-0.0075;-0.0217;-0.0674;
82251692962525;0.0181;0.0113;-0.0535;
82251703065442;0.0053;0.0401;-0.0919;
82251713168411;0.0256;0.0475;-0.1100;
82251723271327;0.0298;0.0156;-0.0897;
82251733374244;0.0107;-0.0377;-0.0716;
82251743477161;0.0298;-0.1025;-0.0961;
82251753594504;0.0692;-0.0844;-0.1068;
82251763697473;0.0948;-0.0025;-0.1057;
82251773807473;0.0788;0.0092;-0.0844;
82251783910338;0.1236;-0.0802;-0.0727;
82251794013254;0.2418;-0.0599;-0.0663;
82251804146223;0.2706;-0.0132;-0.0652;
82251814249140;0.2461;0.0007;-0.0908;
82251824352056;0.2439;0.0869;-0.0770;
82251834454244;0.2354;0.0859;-0.0652;
82251844557161;0.3334;-0.0068;-0.0727;
82251854660077;0.3856;-0.0153;-0.0610;
82251864770702;0.3004;-0.0036;-0.0152;
82251874873619;0.2386;0.0124;-0.0141;
82251884976536;0.2812;0.0241;-0.0067;
82251895088931;0.2855;0.0401;0.0200;
82251905191848;0.2471;0.0497;0.0466;
82251915294765;0.2386;-0.0047;0.0636;
82251925414348;0.2961;-0.0324;0.0754;
82251935517265;0.2727;-0.0111;0.0806;
82251945620181;0.2109;-0.0281;0.0722;
82251955721119;0.2120;-0.0142;0.0869;
82251965824036;0.2077;0.0465;0.0880;
82251975926952;0.1843;0.0379;0.0636;
82251986038983;0.2035;0.0688;0.0816;
82251996141900;0.1790;0.0539;0.0891;
82252006244817;0.1502;0.0326;0.0700;
82252016362473;0.1811;0.1125;0.0859;
82252026465390;0.1470;0.1093;0.0944;
82252036568306;0.1374;0.0252;0.1232;
82252046685598;0.1023;-0.0270;0.1381;
82252056788515;0.0916;-0.0196;0.1349;
82252066891431;0.0991;-0.0111;0.1072;
82252076991223;0.0660;-0.0238;0.1274;
82252087094140;0.0543;-0.0206;0.1285;
82252097197056;0.0575;0.0561;0.1189;
82252107299608;0.0565;0.0358;0.1115;
82252117402525;0.0224;-0.0409;0.1146;
82252127505494;0.0309;-0.0482;0.1445;
82252137618983;0.0138;-0.0281;0.1509;
82252147721952;-0.0266;-0.0345;0.1349;
82252157824817;-0.0682;-0.1995;0.1189;
82252167936588;-0.0394;-0.1654;0.1700;
82252178039556;-0.1417;0.0241;0.1296;
82252188142473;-0.2099;0.2116;0.1679;
82252198304088;-0.1459;0.1764;0.1200;
82252208407004;0.0597;0.1200;0.0784;
82252218509973;0.0618;0.1381;0.1019;
82252228592577;-0.0735;0.1434;0.1061;
82252238695442;-0.1257;0.0944;0.1306;
82252248798411;-0.1992;0.0188;0.1328;
82252258886171;-0.2120;0.0060;0.1104;
82252268989140;-0.1917;0.1061;0.0901;
82252279092004;-0.1928;0.1349;0.0848;
82252289207056;-0.1481;0.0262;0.1125;
82252299309973;-0.1033;0.1636;0.1168;
82252309412890;-0.0692;0.1636;0.1487;
82252319523515;-0.1342;-0.1952;0.1285;
82252329626431;-0.1577;-0.2538;0.1093;
82252339729348;-0.0948;-0.0079;0.1136;
82252349850077;-0.0842;0.0539;0.0562;
82252359952994;-0.0458;-0.0004;0.0381;
82252370055911;-0.0256;0.0252;0.0647;
82252380170650;-0.0075;0.0987;0.0869;
82252390273567;-0.0053;0.0337;0.1221;
82252400376431;-0.0458;-0.0780;0.1487;
82252410481327;-0.0650;-0.0908;0.1668;
82252420584192;-0.0405;-0.0652;0.1839;
82252430687161;-0.0522;-0.0834;0.1924;
82252440807786;-0.0873;-0.0514;0.1818;
82252450910650;-0.1385;-0.0057;0.1594;
82252461013567;-0.1640;0.0017;0.1722;
82252471121119;-0.1917;0.0475;0.1349;
82252481223931;-0.1438;0.0060;0.1360;
82252491326848;-0.1822;-0.1217;0.1317;
82252501429765;-0.1981;-0.1345;0.1306;
82252511521275;-0.1598;-0.0334;0.1157;
82252521624192;-0.2278;-0.0004;0.0636;
82252531727108;-0.2523;0.0113;0.1029;
82252541864973;-0.2502;0.0039;0.0806;
82252551967890;-0.1694;0.0635;0.0615;
82252562070806;-0.1225;0.1125;0.0774;
82252572163775;-0.1012;0.0241;0.0530;
82252582266692;-0.0671;-0.0451;0.0306;
82252592369608;-0.0767;0.0209;0.0189;
82252602486431;-0.1065;0.0369;-0.0194;
82252612589296;-0.0703;0.0710;-0.0461;
82252622692213;-0.0426;0.1125;-0.0173;
82252632798358;-0.0490;0.1370;0.0008;
82252642901275;0.0202;0.1189;-0.0205;
82252653004192;-0.0128;0.0007;-0.0375;
82252663117577;-0.0170;0.0049;-0.0375;
82252673220494;0.0021;0.0337;0.0093;
82252683323411;-0.0565;-0.0441;-0.0397;
82252693432108;-0.0458;-0.0366;-0.0663;
82252703535025;-0.0107;0.0486;-0.0589;
82252713637942;0.0277;0.0529;-0.0823;
82252723742994;0.0703;-0.0430;-0.0823;
82252733845911;0.0692;-0.0834;-0.0663;
82252743948827;0.0096;-0.0599;-0.0642;
82252754077733;0.0000;-0.0185;-0.0482;
82252764180650;-0.0011;-0.0111;-0.0482;
82252774283515;0.0202;-0.0780;-0.0525;
82252784403671;0.0767;0.0241;-0.0280;
82252794508983;0.0288;0.0720;-0.0035;
82252804614348;-0.0011;0.0039;-0.0450;
82252814709296;-0.0117;-0.0419;-0.0429;
82252824814608;0.0075;-0.0100;-0.0333;
82252834919973;0.0320;0.0081;-0.0482;
82252845025546;0.0011;0.0518;-0.0418;
82252855130858;-0.0479;0.0390;-0.0301;
82252865236223;-0.0597;0.0156;-0.0301;
82252875336015;-0.0852;0.0166;-0.0312;
82252885441327;-0.0714;-0.0111;-0.0280;
82252895546692;-0.0458;-0.0270;-0.0184;
82252905661275;-0.0511;-0.0238;-0.0237;
82252915766588;-0.0842;-0.0791;-0.0439;
82252925871952;-0.0873;-0.1036;-0.0493;
82252935976379;-0.0884;-0.0366;-0.0716;
82252946081692;-0.0575;0.0017;-0.1174;
82252956187056;-0.0256;-0.0100;-0.1047;
82252966293567;-0.0213;0.0198;-0.0706;
82252976398879;-0.0107;-0.0089;-0.0855;
82252986504244;0.0288;-0.0578;-0.0557;
82252996613775;0.0138;0.0028;-0.0546;
82253006719088;0.0192;0.0188;-0.0280;
82253016824452;0.0330;0.0134;-0.0120;
82253026926275;0.0650;-0.0068;-0.0226;
82253037031588;0.0884;-0.0324;-0.0152;
82253047136952;0.0309;-0.0036;-0.0322;
82253057254608;0.0298;0.0124;-0.0035;
82253067359921;0.0533;-0.0185;0.0061;
82253077465286;0.0490;-0.0111;0.0296;
82253087560546;-0.0075;-0.0366;-0.0003;
82253097665858;-0.0032;-0.0324;-0.0003;
82253107771223;0.0298;0.0529;-0.0056;
82253117877213;0.0373;0.0454;0.0136;
82253127982525;-0.0117;-0.0089;0.0317;
82253138087890;0.0053;0.0284;0.0349;
82253148198671;0.0373;-0.0185;0.0816;
82253158303983;0.0213;-0.0153;0.0178;
82253168409348;0.0096;-0.0025;0.0189;
82253178515442;-0.0277;0.0582;-0.0056;
82253188620754;-0.0160;0.1221;0.0019;
82253198726119;-0.0405;0.0401;0.0232;
82253208828046;-0.0202;-0.1089;0.0221;
82253218933358;-0.0043;-0.1153;0.0146;
82253229038723;-0.0650;-0.0482;-0.0194;
82253239130129;-0.1523;0.1146;-0.0099;
82253249235442;-0.2088;0.0294;0.0061;
82253259340806;-0.0565;-0.0748;-0.0003;
82253269458358;-0.0149;0.0103;-0.0567;
82253279563671;-0.0224;0.1210;-0.0642;
82253289669036;-0.0160;0.1541;-0.0407;
82253299781431;0.0075;0.1189;-0.0258;
82253309886744;-0.0479;-0.0185;-0.0620;
82253319992108;-0.0245;-0.0887;-0.0514;
82253330103254;-0.0107;0.0379;-0.0482;
82253340208567;0.0373;0.2627;-0.0620;
82253350313931;0.0405;0.0422;-0.0109;
82253360425963;-0.0469;-0.3071;0.0051;
82253370531275;0.0117;-0.1718;0.0423;
82253380636640;-0.0575;0.0007;-0.0237;
82253390733046;-0.0852;0.0049;-0.0439;
82253400838358;-0.0479;0.0326;-0.0333;
82253410943723;0.0224;0.0539;-0.0557;
82253421035702;0.0309;0.0028;-0.0322;
82253431141015;0.0320;-0.0759;0.0072;
82253441246379;0.0181;-0.0313;-0.0194;
82253451368254;0.0138;0.0454;-0.0194;
82253461473567;-0.0533;-0.0823;-0.0141;
82253471578931;-0.0277;-0.0334;0.0115;
82253481682733;-0.0202;0.0742;0.0221;
82253491788046;-0.0682;-0.0567;-0.0067;
82253501893411;-0.0778;-0.1164;0.0072;
82253512007525;-0.0842;-0.0100;0.0328;
82253522112838;-0.1023;-0.0089;0.0051;
82253532218202;-0.0714;-0.0430;0.0178;
82253542319661;-0.0533;0.0166;0.0029;
82253552424973;-0.0437;0.0049;-0.0184;
82253562530338;-0.0341;-0.0100;-0.0173;
82253572633463;-0.0628;0.0326;-0.0045;
82253582738775;-0.0554;0.0486;0.0274;
82253592844140;0.0011;0.0646;0.0530;
82253602966692;0.0000;-0.0366;0.0306;
82253613072004;0.0000;-0.0887;-0.0120;
82253623177369;-0.0479;0.0624;-0.0162;
82253633267421;-0.0937;0.1019;-0.0397;
82253643372733;-0.0543;0.0134;-0.0471;
82253653478098;-0.0341;-0.0663;-0.0493;
82253663582942;-0.0096;-0.0546;-0.0599;
82253673688254;-0.0032;0.0422;-0.0642;
82253683793619;-0.0426;0.1008;-0.0823;
82253693899765;-0.0692;-0.0196;-0.0589;
82253704005077;-0.0405;-0.0961;-0.0407;
82253714110442;0.0032;-0.1963;-0.0599;
82253724225754;0.0522;-0.1281;-0.0908;
82253734331067;-0.0511;0.1594;-0.1068;
82253744436431;-0.2140;0.2052;-0.0961;
82253754537942;-0.0650;0.0166;-0.1132;
82253764643254;0.1182;0.0103;-0.1345;
82253774748619;0.1992;0.1178;-0.1409;
82253784866588;0.1640;0.1061;-0.1387;
82253794972213;0.1363;0.0177;-0.0738;
82253805077838;0.0820;-0.0897;-0.0088;
82253815170025;0.0820;-0.0876;-0.0109;
82253825275650;0.1310;-0.0079;-0.0269;
82253835381275;0.0916;0.1754;-0.0620;
82253845498567;0.0884;0.2499;-0.0013;
82253855604192;0.0107;-0.1601;-0.0056;
82253865709817;0.0245;-0.2889;-0.0194;
82253875803671;0.0181;-0.0642;-0.0557;
82253885909296;0.0415;0.0635;-0.0610;
82253896014921;0.0479;0.0699;-0.0397;
82253906117004;0.0256;0.0316;-0.0152;
82253916222629;0.0437;0.0561;0.0274;
82253926328254;0.0479;0.0667;0.0210;
82253936441275;0.0213;0.0113;0.0029;
82253946546900;0.0160;0.0529;0.0221;
82253956652525;-0.0277;0.0284;-0.0035;
82253966767525;-0.0053;-0.0206;-0.0312;
82253976873150;-0.0075;0.0124;-0.0525;
82253986978775;-0.0043;-0.0079;-0.0248;
82253997093931;-0.0181;-0.0281;-0.0162;
82254007199556;-0.0426;-0.0409;-0.0173;
82254017305181;-0.0565;-0.0812;-0.0013;
82254027389713;-0.0266;-0.0514;0.0040;
82254037495338;0.0064;0.0017;-0.0173;
82254047600963;-0.0096;-0.0461;-0.0642;
82254057717213;0.0256;-0.0121;-0.0418;
82254067822838;0.0298;0.0316;-0.0333;
82254077928463;0.0533;0.0166;-0.0716;
82254088029504;0.0309;-0.0121;-0.0972;
82254098135129;0.0692;-0.0164;-0.0908;
82254108240754;0.0799;0.0113;-0.0780;
82254118347004;0.0575;0.0614;-0.0493;
82254128452629;0.0309;0.0071;-0.0450;
82254138558202;0.0575;-0.0834;-0.0099;
82254148668775;0.0543;-0.1547;-0.0152;
82254158774400;0.0415;-0.0951;-0.0748;
82254168880025;0.0192;0.0145;-0.0844;
82254178981848;-0.0085;0.0358;-0.1015;
82254189087473;0.0415;0.0379;-0.0983;
82254199193098;0.0618;0.0145;-0.1100;
82254209306171;0.0937;-0.0015;-0.1196;
82254219411796;0.1332;0.0550;-0.1217;
82254229517421;0.1353;0.0933;-0.1206;
82254239617004;0.0597;-0.1909;-0.0983;
82254249722629;0.0969;-0.1664;-0.0748;
82254259828254;0.2162;0.1722;-0.1004;
82254269929088;0.1598;0.1381;-0.1185;
82254280034713;0.1044;0.0241;-0.0972;
82254290140338;0.1502;0.0593;-0.1057;
82254300249608;0.2099;0.0635;-0.0855;
82254310355233;0.1981;-0.0111;-0.0780;
82254320460806;0.2141;0.0049;-0.0706;
82254330567629;0.2375;0.0166;-0.0450;
82254340673254;0.2248;-0.0535;-0.0056;
82254350778827;0.1843;-0.1185;0.0232;
82254360896900;0.2173;0.0987;0.0285;
82254371002525;0.2141;0.0273;0.0594;
82254381108098;0.0554;-0.2282;0.0615;
82254391187213;0.1055;-0.1089;0.0594;
82254401292838;0.1193;-0.0185;0.0455;
82254411398463;0.0852;-0.1324;0.0487;
82254421504921;0.0692;-0.1824;0.0754;
82254431610598;0.0692;-0.0866;0.0722;
82254441716171;0.1161;-0.0313;0.1008;
82254451816275;0.0788;-0.0557;0.1636;
82254461921900;0.0522;0.0039;0.1924;
82254472027473;-0.0117;0.0284;0.1541;
82254482152629;0.0298;0.0497;0.1434;
82254492258254;0.0522;0.0933;0.1477;
82254502363879;0.0383;0.1029;0.1285;
82254512479192;0.0085;0.1072;0.1381;
82254522584817;-0.0341;0.0486;0.1530;
82254532690442;-0.0362;0.0742;0.1519;
82254542793775;-0.0724;0.0827;0.1647;
82254552899400;-0.1598;-0.0142;0.1871;
82254563005025;-0.1662;-0.0260;0.1892;
82254573152317;-0.2406;-0.0652;0.1509;
82254583257942;-0.3386;-0.0993;0.1061;
82254593363515;-0.3269;0.0060;0.0859;
82254603412525;-0.2598;0.0433;0.0232;
82254613518150;-0.1939;0.0177;-0.0258;
82254623623775;-0.2182;-0.0663;-0.0216;
82254633739921;-0.2459;-0.1451;-0.0130;
82254643845546;-0.1012;-0.2570;-0.0194;
82254653951171;-0.0905;-0.0451;-0.0205;
82254664064504;-0.4206;0.1828;0.0242;
82254674170129;-0.3003;0.1690;0.0040;
82254684275754;0.0533;0.0582;-0.0844;
82254694377838;0.0682;-0.0589;-0.1025;
82254704483463;-0.0842;-0.0514;-0.1228;
82254714589088;-0.0991;0.0561;-0.1047;
82254724713879;-0.1172;0.0593;-0.0802;
82254734819504;-0.0969;0.0166;-0.0908;
82254744925129;-0.0479;0.1019;-0.1057;
82254755012108;-0.0170;0.2499;-0.0855;
82254765117733;0.0117;0.1732;-0.0130;
82254775223358;-0.1960;-0.4711;-0.0109;
82254785335233;-0.1459;-0.3955;-0.0599;
82254795440911;-0.0479;0.0891;-0.0919;
82254805546692;-0.1193;0.1391;-0.1611;
82254815643775;-0.0575;0.0166;-0.1462;
82254825749504;-0.0373;0.0134;-0.1547;
82254835855233;-0.0181;0.0827;-0.1558;
82254845961067;0.0053;0.1519;-0.1579;
82254856066796;0.0469;0.1349;-0.1238;
82254866172525;0.1023;0.1168;-0.1057;
82254876279296;0.1491;0.1221;-0.0919;
82254886385025;0.0756;0.0710;-0.1238;
82254896490754;0.0511;0.0752;-0.1068;
82254906593879;0.0628;-0.0228;-0.1079;
82254916699608;0.0884;-0.0270;-0.1238;
82254926805286;0.0501;-0.0238;-0.1174;
82254936906223;-0.0256;-0.1515;-0.1526;
82254947011952;0.0170;-0.1441;-0.1547;
82254957117681;0.0298;-0.0398;-0.1547;
82254967229400;0.0405;-0.0802;-0.1526;
82254977335129;0.1161;-0.1004;-0.1377;
82254987440858;0.1545;0.0188;-0.1654;
82254997521744;0.1683;0.0262;-0.1782;
82255007627525;0.2887;-0.0068;-0.1877;
82255017733254;0.3814;0.1221;-0.2091;
82255027876848;0.3856;0.1296;-0.1867;
82255037982577;0.4377;0.0220;-0.1718;
82255048088306;0.5005;0.0465;-0.1377;
82255058181015;0.4270;0.0593;-0.1089;
82255068286744;0.4430;0.0379;-0.0589;
82255078392421;0.4707;0.0145;-0.0375;
82255088493306;0.4537;-0.0185;-0.0546;
82255098599036;0.3888;-0.0578;-0.0482;
82255108704817;0.2929;-0.0228;-0.0269;
82255118829608;0.2961;0.0369;-0.0216;
82255128935338;0.2961;0.0081;-0.0301;
82255139041015;0.2961;-0.0260;-0.0461;
82255149129296;0.2834;0.0390;-0.0258;
82255159235077;0.2972;0.0720;-0.0194;
82255169340806;0.2865;-0.0302;-0.0024;
82255179457004;0.2557;-0.0674;0.0168;
82255189562733;0.2216;-0.0780;-0.0109;
82255199668411;0.1971;-0.0356;-0.0003;
82255209769088;0.2024;0.0891;-0.0003;
82255219874765;0.2759;0.0529;-0.0312;
82255229980546;0.2706;-0.0004;-0.0248;
82255240079140;0.2322;0.0241;-0.0035;
82255250184869;0.2184;0.0571;-0.0109;
82255260290546;0.2546;0.0795;0.0189;
82255270394244;0.2759;0.0656;0.0573;
82255280499973;0.2354;0.1008;0.0668;
82255290605702;0.2386;0.0923;0.0402;
82255300709765;0.2471;0.1051;0.0647;
82255310815494;0.2439;0.0816;0.0827;
82255320921171;0.2248;0.0262;0.0784;
82255331035650;0.1885;0.0816;0.0880;
82255341141379;0.1715;0.0880;0.1125;
82255351247108;0.1651;0.0539;0.1168;
82255361333723;0.1385;0.0060;0.1487;
82255371439452;0.0735;-0.0812;0.1796;
82255381545181;0.0107;-0.0366;0.2105;
82255391661640;-0.1704;-0.0334;0.1754;
82255401767369;-0.1768;0.0465;0.1881;
82255411873098;-0.1662;0.0731;0.1498;
82255421992056;-0.1459;0.0731;0.0923;
82255432097786;-0.1854;0.1104;0.1178;
82255442203515;-0.2427;-0.0089;0.1125;
82255452295598;-0.2651;-0.0206;0.1146;
82255462401275;-0.3620;0.0369;0.1019;
82255472507056;-0.4217;0.0475;0.0997;
82255482639713;-0.3471;-0.0471;0.0402;
82255492745442;-0.3418;-0.0578;-0.0152;
82255502851119;-0.4505;-0.0142;-0.0194;
82255512951744;-0.4132;-0.0387;-0.0695;
82255523057525;-0.2715;-0.0313;-0.1441;
82255533163202;-0.2109;0.0124;-0.1728;
82255543264400;-0.1342;-0.0270;-0.2048;
82255553370077;-0.0767;-0.0153;-0.2272;
82255563475858;-0.0181;-0.0111;-0.2240;
82255573554036;0.0842;-0.0164;-0.1899;
82255583659817;0.1566;-0.0249;-0.2091;
82255593765494;0.2205;0.0443;-0.2293;
82255603891379;0.2908;0.0497;-0.2367;
82255613997108;0.4142;-0.0334;-0.2336;
82255624102786;0.4931;-0.0164;-0.1995;
82255634211275;0.4110;0.0124;-0.1718;
82255644317004;0.3600;-0.0281;-0.1601;
82255654422681;0.4334;-0.0025;-0.1313;
82255664532525;0.4419;0.0092;-0.1100;
82255674638254;0.4217;-0.0270;-0.0716;
82255684743983;0.4537;-0.0546;-0.0567;
82255694848515;0.4025;-0.0153;-0.0301;
82255704954244;0.3441;0.0422;-0.0290;
82255715059973;0.3867;0.0880;-0.0727;
82255725177317;0.4984;0.1136;-0.0599;
82255735283046;0.4728;0.0465;-0.0397;
82255745388775;0.4004;-0.0430;0.0072;
82255755491796;0.3228;0.0316;0.0274;
82255765597525;0.2951;0.0912;0.0647;
82255775703254;0.3185;-0.0451;0.0722;
82255785806431;0.3036;-0.0961;0.0434;
82255795912161;0.2088;0.0028;0.0562;
82255806017942;0.1896;0.0198;0.0498;
82255816118098;0.2748;0.0326;0.0146;
82255826223827;0.3174;0.1008;0.0104;
82255836329608;0.3462;0.0933;0.0370;
82255846440963;0.3643;0.0358;0.0455;
82255856546692;0.3983;0.0582;0.0679;
82255866652473;0.3664;-0.0047;0.1040;
82255876745702;0.3888;-0.0493;0.1434;
82255886851483;0.3174;0.0156;0.1647;
82255896957265;0.2738;-0.0004;0.1807;
82255907081223;0.2791;-0.0228;0.1818;
82255917187004;0.2589;-0.0249;0.1818;
82255927292786;0.1928;-0.0610;0.1999;
82255937381900;0.1204;0.0305;0.2137;
82255947487629;0.1246;0.0784;0.2105;
82255957593358;0.1960;0.0593;0.2361;
82255967705598;0.1683;0.0348;0.2702;
82255977811327;0.0980;-0.0270;0.2819;
82255987917108;-0.0096;0.0060;0.3053;
82255997997161;-0.0660;-0.0153;0.3117;
82256008102942;-0.0650;-0.0631;0.2712;
82256018208671;-0.1236;0.0273;0.2680;
82256028334192;-0.2130;0.1306;0.2510;
82256038439921;-0.1406;0.2073;0.2148;
82256048545702;-0.0330;0.2606;0.2095;
82256058654296;-0.0320;0.1839;0.2212;
82256068760025;-0.0842;0.1210;0.2148;
82256078865754;-0.1577;0.1136;0.2052;
82256088971796;-0.1843;0.0784;0.2095;
82256099077525;-0.1374;0.0145;0.2137;
82256109183306;-0.1566;0.0316;0.1988;
82256119325286;-0.1896;0.0103;0.1977;
82256129431067;-0.1875;-0.1047;0.1839;
82256139536848;-0.2193;-0.2176;0.1551;
82256149608879;-0.2332;-0.2304;0.1402;
82256159714608;-0.2109;-0.1473;0.1381;
82256169820338;-0.1395;-0.0153;0.1391;
82256179925129;-0.1044;0.0806;0.0859;
82256190030858;-0.0341;0.0571;0.0965;
82256200136640;-0.0128;0.0465;0.1125;
82256210245233;-0.0628;0.0539;0.1115;
82256220350963;-0.1023;-0.0196;0.1104;
82256230456744;-0.0756;-0.0366;0.1061;
82256240558515;-0.0565;0.0284;0.1157;
82256250664296;-0.0373;0.0294;0.1338;
82256260770077;-0.0192;-0.0387;0.1690;
82256270890233;-0.0820;-0.0557;0.1509;
82256280995963;-0.0682;-0.0270;0.1498;
82256291101744;-0.1204;-0.1441;0.1754;
82256301174608;-0.1353;-0.6266;0.1999;
82256311280390;0.0778;-0.3582;0.1210;
82256321386067;-0.2896;0.3085;0.0541;
82256331521536;-0.4355;0.3586;0.0997;
82256341627265;0.1885;0.4342;0.0051;
82256351733046;0.4686;0.3075;-0.0237;
82256361812942;0.2354;0.2403;0.0445;
82256371918723;0.0330;0.2627;0.0901;
82256382024452;0.0799;0.0763;0.0976;
82256392130963;0.2003;0.0166;0.1029;
82256402236744;0.2791;0.2190;0.1051;
82256412342473;0.3036;0.8421;0.1487;
82256422456536;0.1907;-0.1036;0.2840;
82256432562317;-0.2513;-1.2017;0.2467;
82256442668046;-0.1768;-0.3965;0.2553;
82256452783619;-0.1523;0.0806;0.1466;
82256462889348;-0.1928;-0.1877;0.1072;
82256472995129;-0.0330;-0.3518;0.1072;
82256483104713;-0.0096;-0.1739;0.0816;
82256493210442;-0.1257;0.1146;0.1040;
82256503316171;-0.2278;0.0688;0.1434;
82256513408411;-0.0138;0.0294;0.1168;
82256523514192;0.1065;0.1530;0.1349;
82256533619973;0.0021;-0.0004;0.1413;
82256543740338;0.0469;0.0060;0.1658;
82256553846067;0.0639;0.1157;0.1583;
82256563951796;0.0192;-0.0546;0.1551;
82256574044452;0.0320;-0.1771;0.1573;
82256584150129;-0.0085;-0.0132;0.1509;
82256594255963;-0.1747;-0.0089;0.1413;
82256604366015;-0.2587;-0.0897;0.1083;
82256614471744;-0.1758;0.0145;0.0944;
82256624577525;-0.1609;-0.0036;0.0541;
82256634687421;-0.0959;-0.0961;0.0551;
82256644793150;-0.0692;-0.0260;0.0413;
82256654898879;-0.0735;-0.0313;-0.0024;
82256664998515;-0.0075;-0.0461;-0.0354;
82256675104244;0.0394;0.0923;-0.0418;
82256685210025;0.0778;0.1328;-0.0322;
82256695310077;0.1055;0.0422;-0.0493;
82256705415858;0.1044;0.0284;-0.0354;
82256715521640;-0.0138;0.0188;-0.0056;
82256725657213;-0.0021;0.0891;-0.0035;
82256735762942;0.0799;0.0997;-0.0045;
82256745868723;0.0522;-0.0036;-0.0099;
82256755952421;0.0096;-0.0599;-0.0184;
82256766058150;-0.0170;-0.0334;0.0285;
82256776163931;0.0096;-0.0004;0.0104;
82256786266171;0.0096;-0.0324;-0.0375;
82256796371848;0.0660;0.0550;-0.0354;
82256806477525;0.0980;0.1317;-0.0280;
82256816591796;0.1321;0.0582;0.0136;
82256826697473;0.0799;0.0156;0.0296;
82256836803150;0.1172;0.0113;0.0381;
82256846905338;0.2237;0.0262;0.0594;
82256857011015;0.2301;0.0454;0.0774;
82256867116692;0.2088;0.0379;0.0976;
82256877239817;0.2077;0.0049;0.1146;
82256887345494;0.1736;-0.0015;0.1360;
82256897451171;0.1182;0.0049;0.1732;
82256907523983;0.0554;0.0049;0.1551;
82256917629608;0.0916;0.0124;0.1605;
82256927735338;0.0788;0.0305;0.2254;
82256937848983;-0.0138;-0.0471;0.2553;
82256947954661;-0.0810;0.0486;0.2553;
82256958060338;-0.1523;0.1136;0.2595;
82256968170963;-0.2120;0.0049;0.2233;
82256978276640;-0.1875;0.0326;0.2095;
82256988382317;-0.2406;0.0603;0.2190;
82256998474296;-0.3482;-0.0004;0.2126;
82257008579973;-0.3940;-0.0111;0.1988;
82257018685650;-0.3397;0.0454;0.2148;
82257028811588;-0.3184;0.0561;0.1881;
82257038917265;-0.3194;-0.0047;0.1487;
82257049022942;-0.2992;0.0209;0.1178;
82257059122421;-0.2726;0.0220;0.1072;
82257069228098;-0.2481;0.0049;0.1136;
82257079333723;-0.1758;0.0561;0.1178;
82257089435598;-0.1640;0.0316;0.1168;
82257099541275;-0.1949;-0.0791;0.1093;
82257109646952;-0.1662;-0.1025;0.1146;
82257119764713;-0.1342;-0.0759;0.1232;
82257129870390;-0.1055;0.0092;0.1413;
82257139976067;-0.1385;-0.0036;0.1200;
82257150078254;-0.1481;-0.0185;0.1242;
82257160183931;-0.1332;0.0529;0.0923;
82257170289608;-0.1129;0.0582;0.0615;
82257180385181;-0.0607;0.1178;0.0816;
82257190490858;-0.0330;0.1807;0.1445;
82257200596536;-0.0873;0.1083;0.1786;
82257210710650;-0.1268;0.0742;0.1647;
82257220816327;-0.1363;0.1360;0.1583;
82257230922004;-0.1715;0.0880;0.1519;
82257241065650;-0.1811;-0.1164;0.1999;
82257251171327;-0.2140;-0.2048;0.1530;
82257261277004;-0.2140;-0.1643;0.1402;
82257271340442;-0.3173;-0.1217;0.1274;
82257281446119;-0.3908;-0.0493;0.0997;
82257291551848;-0.4451;-0.0919;0.0901;
82257301660077;-0.4579;0.0305;0.0530;
82257311765754;-0.3631;0.1541;0.0869;
82257321871431;-0.4281;-0.0461;0.0253;
82257331983827;-0.3216;-0.0100;0.0051;
82257342089504;-0.2598;0.1764;0.0072;
82257352195181;-0.2342;0.1349;0.0061;
82257362308046;-0.2704;-0.0281;-0.0152;
82257372413723;-0.2640;-0.0121;-0.0248;
82257382519400;-0.3344;0.0156;-0.0024;
82257392632629;-0.3098;-0.0111;-0.0056;
82257402738306;-0.2800;-0.1100;-0.0269;
82257412843983;-0.2534;-0.0855;-0.0876;
82257422952317;-0.2099;-0.0089;-0.0716;
82257433057994;-0.2875;-0.1068;-0.0557;
82257443163671;-0.2427;-0.1281;-0.0557;
82257453274817;-0.2417;0.0624;-0.1292;
82257463380494;-0.2726;0.0348;-0.1121;
82257473486171;-0.3375;-0.0409;-0.1718;
82257483577942;-0.1811;0.5800;-0.2325;
82257493683619;-0.0863;0.3469;-0.1270;
82257503789296;-0.0149;-0.4711;-0.0929;
82257513879921;0.2269;-0.4690;-0.0897;
82257523985598;0.3983;0.0049;-0.0184;
82257534091275;0.1065;0.1498;-0.0067;
82257544207838;-0.3162;-0.0471;0.0019;
82257554313515;-0.1640;-0.1931;0.0477;
82257564419192;-0.0469;-0.2218;-0.0035;
82257574519713;-0.0565;0.0230;-0.0301;
82257584625390;-0.4611;-0.4977;-0.0418;
82257594731067;-0.6113;-0.8001;-0.1260;
82257604835650;-0.2374;0.7696;-0.1707;
82257614941327;-0.3589;0.9827;-0.1835;
82257625047004;-0.1630;0.2009;-0.1707;
82257635156796;0.0884;-0.1079;-0.1632;
82257645262473;0.1736;0.1051;-0.1441;
82257655368150;0.0788;0.3607;-0.1164;
82257665470963;-0.0224;0.1711;-0.0493;
82257675576640;-0.0405;-0.0716;-0.0407;
82257685682317;0.0799;0.0710;-0.0099;
82257695791796;0.0756;0.0774;0.0189;
82257705897473;-0.1491;-0.3880;-0.0397;
82257716003150;-0.1523;-0.4051;-0.0141;
82257726110963;-0.1960;-0.3145;-0.0599;
82257736216640;-0.3013;-0.3454;-0.1611;
82257746322317;-0.2747;-0.0419;-0.2122;
82257756432004;-0.3610;0.1168;-0.2059;
82257766537681;-0.4696;-0.0802;-0.2463;
82257776643358;-0.1300;0.0390;-0.2080;
82257786745286;0.0160;0.0880;-0.2101;
82257796851119;0.0767;-0.0164;-0.2133;
82257806956900;0.1619;0.0710;-0.1888;
82257817060806;0.1438;0.0550;-0.1398;
82257827166640;0.0511;-0.0196;-0.1601;
82257837272473;0.0884;0.1594;-0.1473;
82257847376327;0.0330;0.1402;-0.1451;
82257857482161;-0.0011;-0.0387;-0.1345;
82257867587942;0.0245;-0.0004;-0.1377;
82257877710911;-0.0170;0.0092;-0.1356;
82257887816744;-0.0660;-0.1313;-0.1324;
82257897922525;-0.0895;-0.0695;-0.1931;
82257908015806;-0.0905;0.0539;-0.1686;
82257918121640;-0.1161;0.0092;-0.1718;
82257928227421;-0.0501;0.0188;-0.1782;
82257938326796;-0.0107;-0.0398;-0.2112;
82257948432577;0.0628;-0.1057;-0.1995;
82257958538358;0.1193;0.0571;-0.2027;
82257968641327;0.0980;0.1360;-0.1622;
82257978747161;0.1928;0.0720;-0.1345;
82257988852942;0.3483;0.0486;-0.1142;
82257998981223;0.3387;0.0752;-0.1025;
82258009087056;0.2631;0.0614;-0.0674;
82258019192838;0.2301;0.0007;-0.0333;
82258029288723;0.1768;-0.1025;-0.0194;
82258039394556;0.1609;-0.1015;0.0008;
82258049500338;0.0842;0.0039;0.0210;
82258059599452;0.0320;0.0049;0.0466;
82258069705286;0.0298;-0.1292;0.0391;
82258079811067;0.0437;-0.1174;0.0040;
82258089919296;0.0298;0.0252;-0.0152;
82258100025129;0.0170;0.0891;0.0093;
82258110130911;0.0266;-0.0025;0.0115;
82258120238306;0.0618;-0.0089;0.0178;
82258130344140;0.0671;0.0752;-0.0067;
82258140449921;0.0884;0.1104;0.0008;
82258150556379;0.0895;0.1029;0.0338;
82258160662213;0.1097;0.0571;0.0519;
82258170768046;0.1087;-0.0802;0.0551;
82258180880754;0.0810;-0.0748;0.0253;
82258190986536;0.0149;-0.0610;0.0413;
82258201092369;-0.0565;-0.0324;0.0391;
82258211177629;-0.0767;-0.0493;0.0264;
82258221283463;-0.0703;-0.0185;0.0051;
82258231389244;-0.0724;0.0028;-0.0152;
82258241527004;-0.0298;0.0433;-0.0141;
82258251632838;0.0138;0.0284;0.0434;
82258261738619;-0.0149;-0.0196;0.0423;
82258271812681;0.0426;0.0667;0.0083;
82258281918515;0.0863;0.2265;0.0647;
82258292024296;0.0202;0.1455;0.0976;
82258302122577;-0.0138;-0.0419;0.0806;
82258312228411;-0.0032;-0.0068;0.1264;
82258322334192;-0.0128;0.0156;0.1360;
82258332455963;-0.0490;-0.0441;0.1360;
82258342561796;-0.1161;-0.0503;0.1807;
82258352667577;-0.1768;-0.0695;0.1764;
82258362762994;-0.1055;0.0145;0.1754;
82258372868827;-0.1726;-0.0036;0.1700;
82258382974608;-0.2566;-0.0802;0.1700;
82258393116952;-0.2363;-0.0525;0.1498;
82258403222786;-0.2406;-0.0535;0.1541;
82258413328567;-0.2960;-0.0174;0.1487;
82258423401327;-0.3269;0.0433;0.1360;
82258433507161;-0.3759;0.0518;0.1594;
82258443612942;-0.3802;0.0326;0.1615;
82258453709452;-0.3205;0.0486;0.1029;
82258463815286;-0.3120;0.0209;0.0541;
82258473921067;-0.3067;0.0273;0.0296;
82258484057577;-0.2630;0.0880;0.0349;
82258494163411;-0.2811;0.0305;0.0221;
82258504269192;-0.2587;0.0145;-0.0312;
82258514367265;-0.2067;0.1061;-0.0237;
82258524473098;-0.2045;0.0603;-0.0120;
82258534578879;-0.2161;-0.0419;-0.0045;
82258544684452;-0.1907;-0.0727;-0.0152;
82258554790286;-0.1864;0.0177;-0.0844;
82258564896067;-0.1406;0.1008;-0.1238;
82258575013411;-0.0746;0.0326;-0.0738;
82258585119244;-0.0799;-0.0398;-0.0663;
82258595225025;-0.0927;-0.0535;-0.0802;
82258605308202;-0.0735;-0.0185;-0.0897;
82258615414036;-0.0756;0.0539;-0.0940;
82258625519817;-0.0405;0.0795;-0.0482;
82258635629556;0.0202;0.0720;-0.0184;
82258645735390;0.0096;0.0305;-0.0642;
82258655841171;0.0096;0.0028;-0.0535;
82258665951223;-0.0202;-0.0419;-0.0248;
82258676057056;-0.0053;-0.0228;0.0115;
82258686162838;-0.0085;-0.0759;0.0029;
82258696278515;-0.0032;-0.0589;0.0317;
82258706384348;-0.0160;-0.0132;0.0530;
82258716490129;-0.0714;-0.1228;0.0743;
82258726583202;-0.0831;-0.2080;0.0997;
82258736689036;-0.0607;-0.1057;0.0955;
82258746794817;-0.1023;-0.0876;0.0912;
82258756900546;-0.1321;-0.3369;0.1040;
82258767006379;-0.1332;-0.0514;0.0381;
82258777112161;-0.5772;0.4342;-0.0780;
82258787223046;-0.8296;0.3767;-0.0439;
82258797328931;-0.1971;0.1839;-0.0802;
82258807434713;0.2919;0.2095;-0.1281;
82258817524869;0.4025;0.3032;-0.0876;
82258827630702;0.2162;0.2063;-0.0130;
82258837736536;0.0916;0.1605;0.0136;
82258847852161;0.1907;0.1562;0.0955;
82258857957994;0.2461;0.1722;0.1274;
82258868063827;0.1704;0.2616;0.1455;
82258878161536;-0.2619;-0.4764;0.1008;
82258888267369;-0.2310;-0.5158;0.1040;
82258898373202;-0.2035;-0.1142;0.0519;
82258908479765;-0.3184;-0.0100;-0.0162;
82258918585598;-0.3109;-0.1057;0.0051;
82258928691431;-0.2715;-0.0887;-0.0439;
82258938798306;-0.1875;0.1157;-0.0375;
82258948904140;-0.1875;0.1519;-0.0077;
82258959009973;-0.1395;0.0731;-0.0035;
82258969110911;-0.0714;0.0806;0.0210;
82258979216744;-0.1140;0.0017;0.0093;
82258989322577;-0.1044;-0.0897;0.0083;
82258999460442;-0.0362;0.0124;0.0296;
82259009566275;-0.0501;0.0603;0.0487;
82259019672108;-0.1023;-0.0567;0.0157;
82259029755390;-0.0927;0.0071;-0.0003;
82259039861275;-0.1577;0.0827;-0.0152;
82259049967056;-0.2577;-0.0419;-0.0237;
82259060070390;-0.3024;-0.0929;-0.0205;
82259070176223;-0.3035;-0.0238;-0.0375;
82259080282056;-0.3429;-0.0206;-0.0748;
82259090380911;-0.3418;-0.0441;-0.0908;
82259100486744;-0.2832;0.0134;-0.0887;
82259110592577;-0.2545;-0.0111;-0.0951;
82259120703254;-0.2321;-0.0015;-0.1696;
82259130809088;-0.1726;0.0699;-0.1963;
82259140914921;-0.1917;0.0838;-0.2069;
82259151022004;-0.1843;0.0422;-0.2112;
82259161127786;-0.0820;0.0752;-0.1760;
82259171233671;-0.0969;0.0742;-0.1909;
82259181342786;-0.0842;0.0944;-0.1888;
82259191448619;-0.0245;0.1498;-0.1537;
82259201554452;-0.0288;0.0646;-0.1196;
82259211689348;-0.0980;-0.0047;-0.1973;
82259221795233;0.0426;0.1775;-0.1643;
82259231901015;0.0202;0.1019;-0.1068;
82259241954713;-0.0213;-0.1611;-0.0919;
82259252060546;0.0597;-0.1792;-0.0706;
82259262166379;0.0501;-0.0759;-0.0706;
82259272293202;-0.1087;-0.0100;-0.0620;
82259282399036;-0.1332;0.0710;-0.0216;
82259292504869;-0.1577;-0.0100;-0.0077;
82259302625181;-0.0873;0.0113;-0.0589;
82259312731015;-0.0863;0.0955;-0.1025;
82259322836848;-0.1342;0.0326;-0.1036;
82259332927994;-0.1129;-0.0356;-0.0940;
82259343033827;-0.0948;0.1072;-0.0866;
82259353139661;-0.1236;0.2073;-0.0716;
82259363265181;-0.1278;0.0475;-0.0365;
82259373371067;-0.1214;-0.0398;-0.0610;
82259383476848;-0.1300;-0.0089;-0.0514;
82259393558202;-0.1427;0.0411;-0.0567;
82259403664036;-0.1875;-0.0535;-0.1142;
82259413769869;-0.1651;-0.1228;-0.1451;
82259423874348;-0.0873;-0.0206;-0.1398;
82259433980181;-0.1214;-0.0514;-0.1718;
82259444086067;-0.1204;-0.1803;-0.2005;
82259454200806;-0.0969;-0.0908;-0.2048;
82259464306640;-0.1278;0.0252;-0.2197;
82259474412473;-0.1310;0.0326;-0.2197;
82259484527577;-0.0682;0.0230;-0.2048;
82259494633411;-0.0309;-0.0356;-0.2463;
82259504739244;0.1150;-0.0366;-0.2517;
82259514838306;0.2386;-0.0217;-0.2314;
82259524944140;0.2045;-0.2399;-0.2218;
82259535049973;0.1843;-0.1196;-0.2453;
82259545167629;-0.1289;0.2180;-0.2570;
82259555273411;-0.3865;0.2382;-0.2069;
82259565379244;0.0096;0.1115;-0.2059;
82259575468306;0.3952;0.0273;-0.2016;
82259585574140;0.3931;-0.0281;-0.2410;
82259595679973;0.2099;0.0806;-0.2410;
82259605785963;0.0597;0.1040;-0.1547;
82259615891796;0.1097;0.0103;-0.1409;
82259625997629;0.2684;0.1391;-0.1696;
82259636106223;0.2162;0.2499;-0.1089;
82259646212108;-0.0064;-0.2751;-0.0546;
82259656317890;0.0682;-0.4338;-0.0525;
82259666431119;0.1087;-0.1664;-0.0344;
82259676536952;-0.0575;-0.0461;-0.0897;
82259686642786;-0.2161;-0.1281;-0.1164;
82259696744348;-0.1566;-0.1483;-0.1324;
82259706850181;0.0234;-0.0514;-0.1409;
82259716956067;0.0266;-0.0047;-0.1409;
82259727061952;-0.0362;-0.0567;-0.1249;
82259737167786;0.0075;-0.0206;-0.0961;
82259747273671;0.0501;0.0656;-0.0823;
82259757389504;0.0799;0.0379;-0.0738;
82259767495286;0.1885;0.0422;-0.0375;
82259777601119;0.1843;0.0326;-0.0450;
82259787697056;0.1353;-0.0482;-0.0589;
82259797802838;0.1619;-0.0174;-0.0631;
82259807908671;0.1172;-0.0206;-0.0663;
82259817999765;0.0788;-0.0599;-0.0439;
82259828105546;0.0607;-0.0441;-0.0407;
82259838211379;0.0447;-0.0993;-0.0397;
82259848312890;0.0511;-0.1505;-0.0546;
82259858418671;0.0788;-0.1036;-0.0344;
82259868524504;0.0575;-0.0356;-0.0109;
82259878645286;0.0586;-0.0578;-0.0344;
82259888751067;0.1012;-0.0153;-0.0716;
82259898856900;0.1491;0.0688;-0.0461;
82259908949869;0.1033;-0.0164;-0.0429;
82259919055650;0.1587;0.0198;-0.0429;
82259929161483;0.1246;0.0678;-0.0003;
82259939277213;0.0565;-0.0727;0.0274;
82259949382994;0.0842;-0.0260;0.0242;
82259959488827;0.0394;-0.0631;0.0253;
82259969594296;-0.0341;-0.1377;0.0360;
82259979700077;-0.1534;-0.1196;-0.0024;
82259989805911;-0.1939;-0.0525;-0.0130;
82259999921952;-0.1609;0.0678;-0.0418;
82260010027733;-0.1257;-0.0015;-0.0887;
82260020133567;-0.1140;-0.0174;-0.1238;
82260030225702;-0.1087;0.0486;-0.0844;
82260040331483;-0.1332;0.0379;-0.0972;
82260050437317;0.0043;0.0316;-0.0919;
82260060542369;0.0000;-0.0057;-0.0802;
82260070648150;0.0085;-0.0015;-0.1100;
82260080754036;0.0309;0.0859;-0.1153;
82260090878358;0.0309;0.0379;-0.1079;
82260100984140;0.1129;0.0369;-0.1430;
82260111089973;0.1310;-0.0292;-0.1579;
82260121160442;0.0927;-0.0451;-0.1398;
82260131266223;0.0469;-0.0398;-0.1238;
82260141372004;0.0437;-0.0940;-0.1111;
82260151548411;0.0810;0.0486;-0.0866;
82260161654192;0.1353;0.1221;-0.0844;
82260171760025;0.1896;0.0838;-0.1206;
82260181810702;0.2333;0.1349;-0.1025;
82260191916483;0.1779;0.1061;-0.0759;
82260202022317;0.2258;0.0316;-0.0887;
82260212118619;0.2194;0.0401;-0.0791;
82260222224400;0.1023;0.0422;-0.0546;
82260232330233;0.0799;0.0369;-0.0248;
82260242467890;0.0735;-0.0196;-0.0397;
82260252573671;0.0884;-0.0366;-0.0173;
82260262679504;0.0224;-0.0929;-0.0130;
82260272767577;-0.0234;-0.0535;-0.0525;
82260282873358;-0.0490;0.0465;-0.0397;
82260292979192;-0.0884;-0.0068;-0.0631;
82260303073411;0.0490;0.0092;-0.1249;
82260313179192;0.0511;-0.0142;-0.1334;
82260323285025;-0.0107;0.0049;-0.1302;
82260333426536;0.0373;0.0667;-0.0951;
82260343532317;0.0650;-0.0461;-0.0855;
82260353638150;0.1651;-0.1015;-0.0940;
82260363737786;0.1577;-0.0897;-0.1132;
82260373843567;0.0000;-0.0770;-0.1462;
82260383949400;-0.0170;-0.0196;-0.1164;
82260394041744;0.0671;-0.0079;-0.1142;
82260404147525;0.2056;-0.0727;-0.1558;
82260414253358;0.2727;-0.1185;-0.1686;
82260424354140;0.2035;-0.0844;-0.1515;
82260434459921;0.1129;-0.0759;-0.1153;
82260444565754;0.1640;-0.1441;-0.0866;
82260454680702;0.2684;-0.1153;-0.0770;
82260464786483;0.3089;0.0081;-0.0802;
82260474892369;0.3600;0.1541;-0.0844;
82260484992890;0.5133;0.1754;-0.0727;
82260495098671;0.5932;-0.0057;-0.0141;
82260505204504;0.5900;-0.0419;-0.0045;
82260515324869;0.5218;0.0411;0.0338;
82260525430650;0.4164;-0.0132;0.0668;
82260535536483;0.4654;-0.0398;0.0912;
82260545634244;0.4047;-0.0356;0.1210;
82260555740025;0.2802;-0.0557;0.1722;
82260565845858;0.2589;-0.0089;0.1839;
82260575948827;0.2578;0.0007;0.1466;
82260586054608;0.2067;-0.0302;0.1093;
82260596160442;0.1971;-0.0260;0.1306;
82260606267473;0.1545;0.0699;0.1146;
82260616373254;0.1672;0.2201;0.1274;
82260626479088;0.1704;0.1530;0.0976;
82260636574244;0.1907;0.0326;0.1136;
82260646680025;0.0916;0.1029;0.1519;
82260656785858;0.0341;0.1402;0.1743;
82260666899556;0.0905;-0.0121;0.1594;
82260677005390;0.1193;-0.1324;0.1242;
82260687111171;0.0107;-0.0695;0.0944;
82260697216640;-0.1065;-0.0047;0.1146;
82260707322421;-0.0618;-0.0217;0.0880;
82260717428306;0.0842;0.0049;0.0573;
82260727534921;0.0969;-0.0546;0.0423;
82260737640702;0.0788;-0.0919;0.0381;
82260747746536;0.1023;0.0230;0.0573;
82260757841223;0.1193;0.0145;0.0722;
82260767947004;0.1332;-0.0823;0.0795;
82260778052838;0.1214;-0.0727;0.0509;
82260788162056;0.1118;-0.0398;-0.0109;
82260798267786;0.0884;-0.0546;-0.0162;
82260808373567;0.0873;-0.0377;0.0328;
82260818474661;0.1065;0.0092;0.0668;
82260828580442;0.1481;0.0667;0.1338;
82260838686119;0.2045;0.0071;0.1519;
82260848806588;0.1651;-0.0313;0.1274;
82260858912317;0.1577;0.0326;0.1743;
82260869017994;0.1225;0.0933;0.2371;
82260879134765;0.2248;0.0997;0.2403;
82260889240494;0.2035;0.0316;0.1722;
82260899346275;0.1885;0.0784;0.1381;
82260909432473;0.1491;0.1913;0.1530;
82260919538202;0.1470;0.1285;0.2095;
82260929643983;0.1023;-0.0356;0.2606;
82260939753463;0.0810;-0.0770;0.3202;
82260949859140;0.0075;-0.0015;0.3309;
82260959964921;-0.0501;-0.0493;0.2947;
82260970065598;-0.0245;-0.1185;0.3096;
82260980171379;-0.0842;-0.1270;0.3277;
82260990277108;-0.2289;-0.1174;0.2893;
82261000391692;-0.2438;0.0848;0.2371;
82261010497421;-0.1885;0.1999;0.2105;
82261020603150;-0.1033;0.1519;0.1924;
82261030701275;-0.1204;0.1509;0.1892;
82261040807004;-0.2150;0.1242;0.2116;
82261050912733;-0.2353;0.0731;0.2222;
82261061021067;-0.2385;0.0337;0.1977;
82261071126796;-0.2353;-0.0313;0.2180;
82261081232525;-0.2832;-0.1015;0.2009;
82261091317369;-0.3109;-0.1601;0.1636;
82261101423098;-0.3429;-0.1313;0.1008;
82261111528879;-0.3940;-0.0185;0.0933;
82261121660702;-0.2939;0.0113;0.0880;
82261131766431;-0.1715;0.0028;0.0296;
82261141872161;-0.1449;0.0294;0.0093;
82261151986015;-0.1577;0.0273;0.0093;
82261162091744;-0.0873;0.1146;0.0104;
82261172197525;-0.0447;0.0891;0.0136;
82261182287577;-0.0256;-0.0398;0.0210;
82261192393306;-0.0053;-0.0557;0.0530;
82261202499088;-0.0181;-0.0599;0.0498;
82261212630025;-0.0117;-0.0334;0.0178;
82261222735702;-0.0138;0.0081;0.0210;
82261232841483;-0.0202;0.0166;0.0200;
82261242959869;-0.0043;0.0422;0.0178;
82261253065598;-0.0586;-0.0036;0.0317;
82261263171379;-0.0991;-0.0493;0.0104;
82261273251379;-0.0820;-0.0015;-0.0152;
82261283357108;-0.1001;-0.0260;-0.0056;
82261293462786;-0.1150;-0.0004;-0.0035;
82261303556431;-0.0767;0.0955;0.0200;
82261313662213;-0.1150;-0.0015;0.0136;
82261323767942;-0.1001;0.0433;-0.0567;
82261333877577;-0.0724;0.1306;-0.0344;
82261343983306;-0.0980;0.0209;-0.0493;
82261354089036;-0.0234;-0.0471;-0.0652;
82261364199348;-0.0778;0.0071;-0.0407;
82261374305025;-0.0959;0.0198;-0.0546;
82261384410754;-0.0032;0.0784;-0.0684;
82261394515442;-0.0021;0.1083;-0.0418;
82261404621171;0.0085;0.0411;-0.0088;
82261414726900;0.0373;0.0092;0.0178;
82261424831275;-0.0107;-0.0398;0.0146;
82261434937004;-0.0213;0.0071;-0.0280;
82261445042733;0.0810;0.0795;0.0466;
82261455167004;-0.0043;-0.0164;0.0434;
82261465272681;0.0298;0.0220;0.0019;
82261475378463;0.0245;0.1349;0.0072;
82261485469817;-0.0213;0.0252;0.0381;
82261495575546;-0.0224;-0.0674;0.0636;
82261505681275;-0.0170;0.0156;0.0626;
82261515791796;-0.0458;-0.0196;0.0774;
82261525897525;-0.0639;-0.0260;0.0912;
82261536003254;-0.0437;0.0124;0.0901;
82261546103775;-0.0767;-0.0908;0.0647;
82261556209504;-0.1033;-0.0802;0.0711;
82261566315233;-0.1726;-0.0503;0.0690;
82261576420963;-0.1885;-0.0493;0.0700;
82261586526640;-0.1949;-0.0313;0.0434;
82261596632421;-0.2481;-0.0844;0.0381;
82261606736431;-0.2885;-0.0823;0.0168;
82261616842161;-0.2683;-0.0036;-0.0045;
82261626947890;-0.2736;-0.0387;-0.0109;
82261637057265;-0.1800;-0.0610;0.0200;
82261647162994;-0.1907;-0.1015;-0.0088;
82261657268723;-0.2736;-0.1249;-0.0823;
82261667381483;-0.2120;0.0475;-0.0940;
82261677487213;-0.1140;0.1754;-0.0855;
82261687592890;-0.0383;0.0497;-0.0951;
82261697687942;0.0224;0.0166;-0.1206;
82261707793619;0.0149;0.0486;-0.0919;
82261717899400;-0.0650;0.0017;-0.0631;
82261728012629;0.0107;-0.0706;-0.0844;
82261738118358;0.0586;-0.0249;-0.0727;
82261748224088;-0.0075;-0.0015;-0.0557;
82261758359192;0.0426;-0.0387;-0.0684;
82261768464921;0.1033;0.0284;-0.0908;
82261778570650;0.0650;0.1008;-0.0940;
82261788642890;0.0660;0.0497;-0.0823;
82261798748723;0.1140;-0.0334;-0.1015;
82261808854556;0.1246;-0.0366;-0.1100;
82261818956119;0.1300;-0.0025;-0.0834;
82261829061952;0.0682;-0.0068;-0.0557;
82261839167786;0.0490;-0.0313;-0.0567;
82261849280494;0.0415;0.0071;-0.0631;
82261859386327;0.0522;0.0912;-0.0557;
82261869492161;0.0234;0.0571;-0.0450;
82261879591015;0.0213;0.0688;-0.0695;
82261889696848;0.0330;0.1423;-0.0876;
82261899802681;-0.0128;0.0284;-0.0812;
82261909914036;0.0213;-0.0196;-0.1015;
82261920019869;0.0075;0.0124;-0.1121;
82261930125702;-0.0213;-0.0228;-0.1228;
82261940223411;0.0256;-0.0153;-0.1089;
82261950329244;0.0043;0.0103;-0.0716;
82261960435077;0.0160;0.0614;-0.0652;
82261970562890;0.0724;0.0731;-0.0802;
82261980668723;0.0842;0.0443;-0.0642;
82261990774556;0.0873;-0.0260;-0.0642;
82262000881796;0.0501;-0.0345;-0.0887;
82262010987629;0.0671;-0.0567;-0.0770;
82262021093411;0.0873;-0.0684;-0.0642;
82262031178098;0.0660;-0.0674;-0.0844;
82262041283931;0.0330;-0.0079;-0.0748;
82262051389765;0.0639;0.0433;-0.0770;
82262061550911;0.1118;0.0422;-0.0525;
82262071656744;0.1001;-0.0174;-0.0493;
82262081762577;0.0724;-0.0759;-0.0589;
82262091812369;0.0767;-0.0642;-0.0067;
82262101918202;0.0565;-0.0047;0.0157;
82262112024036;0.0735;-0.0377;0.0008;
82262122141640;0.0490;-0.0132;-0.0301;
82262132247473;0.0842;0.0273;-0.0067;
82262142353306;0.0863;-0.0398;-0.0205;
82262152473619;0.1129;-0.0185;-0.0216;
82262162579452;0.0703;-0.0387;0.0019;
82262172685286;0.0852;-0.0844;-0.0035;
82262182787369;0.0628;-0.0578;-0.0067;
82262192893202;0.0320;-0.0174;-0.0194;
82262202999036;0.0916;0.0103;-0.0067;
82262213089556;0.0714;0.0134;0.0264;
82262223195390;0.0682;0.0433;0.0434;
82262233301223;0.0682;0.0230;0.0051;
82262243401796;0.1268;-0.0068;0.0168;
82262253507629;0.0628;-0.0217;0.0349;
82262263613463;0.0533;-0.0281;0.0264;
82262273717369;0.1001;0.0007;-0.0088;
82262283823202;0.0873;-0.0631;0.0008;
82262293929036;0.0650;-0.0993;0.0338;
82262304042213;0.0405;0.0124;0.0349;
82262314148046;0.0597;0.0912;0.0423;
82262324253879;0.0650;0.0422;0.0615;
82262334355286;0.0756;-0.0366;0.0636;
82262344461119;0.0799;0.0550;0.0636;
82262354566952;0.0671;0.0603;0.0455;
82262364683619;0.0501;-0.0057;0.0551;
82262374789452;0.0543;-0.0111;0.0711;
82262384895286;0.0085;-0.0185;0.0391;
82262394989452;0.0128;0.0081;0.0253;
82262405095286;-0.0011;-0.0079;0.0466;
82262415201119;-0.0053;0.0039;0.0391;
82262425307994;-0.0245;0.1040;0.0391;
82262435413827;-0.0458;0.0901;0.0647;
82262445519661;-0.0575;0.0465;0.0806;
82262455650286;-0.0021;0.0667;0.0722;
82262465756119;0.0245;0.0518;0.0530;
82262475861952;0.0064;-0.0153;0.0445;
82262485956015;-0.0447;-0.0121;0.0360;
82262496061848;-0.0064;0.0262;0.0711;
82262506167681;-0.0181;-0.0324;0.0838;
82262516276952;-0.0352;-0.0780;0.0583;
82262526382786;-0.0511;-0.0471;0.0626;
82262536488619;-0.1310;-0.0302;0.0477;
82262546590181;-0.0330;0.0827;0.0509;
82262556696015;-0.0117;0.0699;0.0700;
82262566801848;-0.0447;-0.0089;0.0795;
82262576896431;-0.0032;0.0411;0.0901;
82262587002265;0.0138;-0.0036;0.0838;
82262597108150;-0.0075;-0.0620;0.0615;
82262607214973;-0.0053;0.0284;0.0583;
82262617320806;-0.0277;0.0156;0.0754;
82262627426640;-0.0479;-0.0620;0.0891;
82262637519348;-0.0586;0.0177;0.0795;
82262647625181;-0.0575;0.0603;0.0690;
82262657731015;-0.0543;0.0507;0.0668;
82262667849869;-0.0586;0.0273;0.0626;
82262677955702;-0.0703;0.0273;0.0594;
82262688061536;-0.0490;0.0475;0.0901;
82262698168046;-0.0597;-0.0089;0.1168;
82262708273879;-0.1001;-0.0908;0.0987;
82262718379713;-0.1214;-0.0770;0.0455;
82262728495181;-0.1353;-0.0025;0.0541;
82262738601015;-0.1427;0.0198;0.0827;
82262748706848;-0.1097;0.0433;0.0711;
82262758822681;-0.0905;0.0443;0.0285;
82262768928515;-0.0980;0.0262;0.0210;
82262779034348;-0.1012;0.0113;0.0445;
82262789126119;-0.1001;-0.0100;0.0445;
82262799232004;-0.0863;-0.0578;0.0264;
82262809337890;-0.0884;-0.0398;0.0370;
82262819438515;-0.1246;-0.0206;0.0519;
82262829544400;-0.1140;-0.0535;0.0573;
82262839650338;-0.0682;0.0039;0.0519;
82262849761119;-0.0937;0.0486;-0.0024;
82262859867004;-0.0703;0.0337;0.0029;
82262869972890;-0.0597;0.0433;0.0221;
82262880074036;-0.0905;0.0646;0.0189;
82262890179921;-0.1055;0.0081;0.0019;
82262900285806;-0.1236;-0.0929;0.0008;
82262910390598;-0.0905;-0.0324;0.0083;
82262920496483;-0.0959;0.0571;0.0178;
82262930602369;-0.0927;0.0720;0.0146;
82262940699661;-0.0511;0.0529;0.0306;
82262950805598;-0.0778;0.0348;0.0455;
82262960911431;-0.0895;-0.0142;0.0423;
82262971001379;-0.1044;-0.0196;0.0189;
82262981107213;-0.0778;0.0475;-0.0077;
82262991213098;-0.0948;0.0369;0.0029;
82263001318983;-0.1246;-0.0153;0.0157;
82263011497786;-0.1182;-0.1696;0.0157;
82263021603671;-0.1555;-0.3497;-0.0099;
82263031709556;-0.2077;-0.1111;-0.0727;
82263041756536;-0.2491;0.2084;-0.0418;
82263051862421;-0.1843;0.2691;-0.0450;
82263061968306;-0.0916;0.1562;-0.0748;
82263072070390;-0.0479;0.1008;-0.0887;
82263082176275;-0.0202;0.1083;-0.0525;
82263092282161;-0.0330;0.0614;-0.0130;
82263102392369;-0.0043;0.0241;-0.0226;
82263112498254;0.0266;0.0007;-0.0248;
82263122604140;-0.0128;-0.0791;-0.0258;
82263132714973;-0.0107;-0.1228;-0.0333;
82263142820858;0.0160;-0.0121;-0.0269;
82263152926744;-0.0820;0.0848;-0.0226;
82263163065911;-0.0586;0.1786;-0.0205;
82263173171848;-0.0437;0.2137;0.0051;
82263183277681;-0.2374;-0.1473;0.0029;
82263193352994;-0.1289;-0.1941;-0.0301;
82263203458879;-0.0128;-0.0079;-0.0429;
82263213564765;-0.0852;-0.0409;-0.0546;
82263223664869;-0.0565;-0.1068;-0.0589;
82263233770754;-0.0266;-0.0748;-0.0983;
82263243876640;-0.0224;0.0220;-0.0791;
82263253992577;-0.0543;0.0220;-0.0280;
82263264098463;-0.0309;-0.0121;-0.0407;
82263274204348;0.0053;0.0326;-0.0706;
82263284308306;-0.0256;0.0401;-0.0599;
82263294414192;-0.0810;-0.0748;-0.0354;
82263304520077;-0.0458;-0.0695;-0.0333;
82263314628306;-0.0170;0.0390;-0.0482;
82263324734192;-0.0426;0.0401;-0.0471;
82263334840077;-0.0160;-0.0111;-0.0194;
82263344944452;-0.0021;-0.0409;-0.0045;
82263355050338;-0.0234;-0.0599;-0.0024;
82263365156223;-0.0224;-0.0196;-0.0375;
82263375256744;0.0032;0.0348;-0.0493;
82263385362629;-0.0032;0.0124;-0.0205;
82263395468515;-0.0266;-0.0004;-0.0258;
82263405578306;0.0043;0.0241;-0.0514;
82263415684192;-0.0107;0.0113;-0.0450;
82263425790077;-0.0533;-0.0514;-0.0333;
82263435894348;-0.0415;-0.0802;-0.0312;
82263446000233;-0.0479;-0.0684;-0.0429;
82263456106119;-0.0288;-0.0471;-0.0226;
82263466235181;-0.0469;-0.0482;-0.0248;
82263476341067;-0.0415;-0.0387;-0.0525;
82263486446952;0.0298;0.0230;-0.0461;
82263496541015;0.0075;0.0816;-0.0407;
82263506646952;0.0138;0.0859;-0.0695;
82263516752786;0.0586;0.0880;-0.0589;
82263526850077;0.0266;0.0486;-0.0674;
82263536955963;0.0639;-0.0057;-0.0674;
82263547061848;0.0565;-0.0196;-0.0461;
82263557183046;-0.0043;-0.0047;-0.0482;
82263567288931;0.0064;-0.0334;-0.0386;
82263577394817;-0.0021;0.0433;-0.0397;
82263587485390;-0.0032;0.0816;-0.0461;
82263597591275;0.0160;0.0507;-0.0237;
82263607697161;0.0288;0.0923;-0.0141;
82263617797681;0.0192;0.0571;-0.0152;
82263627903567;0.0415;0.0124;-0.0013;
82263638009452;-0.0053;-0.0174;-0.0344;
82263648119869;0.0192;-0.0409;-0.0450;
82263658225754;0.0320;-0.0567;-0.0109;
82263668331640;-0.0107;-0.0377;-0.0365;
82263678412265;-0.0021;-0.0185;-0.0642;
82263688518150;0.0011;0.0092;-0.0642;
82263698624036;-0.0181;0.0156;-0.0407;
82263708753411;-0.0458;-0.0132;-0.0226;
82263718859296;-0.0288;-0.0089;-0.0354;
82263728965181;-0.0288;-0.0164;-0.0450;
82263739066536;-0.0021;-0.0610;-0.0461;
82263749172421;0.0309;-0.0514;-0.0237;
82263759278306;0.0021;-0.0866;-0.0162;
82263769384244;0.0000;-0.0908;-0.0312;
82263779490129;0.0245;-0.0228;-0.0418;
82263789596015;-0.0021;-0.0430;-0.0290;
82263799696536;0.0437;-0.0047;-0.0354;
82263809802317;0.0490;0.0284;-0.0493;
82263819907994;0.0426;0.0337;-0.0567;
82263830018619;0.0405;0.0273;-0.0375;
82263840124348;0.0075;0.0145;-0.0301;
82263850230077;0.0373;0.0071;-0.0280;
82263860329296;0.0149;-0.0387;-0.0226;
82263870435077;-0.0021;-0.0791;-0.0269;
82263880540754;0.0202;-0.0471;-0.0013;
82263890650129;-0.0053;-0.0334;0.0040;
82263900755858;0.0234;-0.0100;-0.0184;
82263910861588;0.0170;0.0230;-0.0216;
82263921034921;-0.0011;0.0774;-0.0333;
82263931140650;0.0053;0.0923;-0.0088;
82263941246379;0.0149;0.0752;-0.0248;
82263951267525;0.0341;0.0624;-0.0333;
82263961373202;0.0149;0.0049;-0.0375;
82263971478983;0.0149;-0.0366;-0.0301;
82263981677733;0.0117;-0.0578;-0.0248;
82263991783411;-0.0298;-0.1079;-0.0205;
82264001889140;-0.0458;-0.0759;-0.0280;
82264011941796;-0.0160;0.0145;-0.0375;
82264022047473;0.0085;0.0859;-0.0280;
82264032153202;-0.0149;0.0209;0.0061;
82264042237681;0.0138;-0.0015;0.0040;
82264052343463;0.0373;0.0390;-0.0173;
82264062449192;0.0256;0.0795;-0.0375;
82264072577369;0.0341;0.0273;-0.0226;
82264082683150;0.0245;-0.0419;-0.0077;
82264092788827;0.0415;-0.0345;-0.0461;
82264102901744;0.0660;-0.0196;-0.0567;
82264113007525;0.0160;-0.0142;-0.0439;
82264123113254;0.0309;0.0049;-0.0525;
82264133220806;0.0511;0.0230;-0.0365;
82264143326588;0.0117;0.0454;-0.0269;
82264153432265;0.0224;0.0624;-0.0120;
82264163515129;0.0011;-0.0111;-0.0013;
82264173620858;0.0181;-0.0068;-0.0130;
82264183726640;0.0522;0.0379;-0.0077;
82264193831119;0.0160;-0.0546;-0.0056;
82264203936900;0.0405;-0.0398;-0.0429;
82264214042629;0.0075;0.0752;-0.0471;
82264224159713;0.0043;0.0720;-0.0258;
82264234265442;0.0373;-0.0047;-0.0003;
82264244371171;0.0234;-0.0366;-0.0365;
82264254469348;0.0415;0.0092;-0.0482;
82264264575077;0.0075;0.0156;-0.0301;
82264274680806;-0.0288;-0.0802;-0.0216;
82264284792213;0.0117;-0.0674;-0.0237;
82264294897942;0.0096;-0.0324;-0.0258;
82264305003671;-0.0043;-0.0802;-0.0130;
82264315112108;-0.0032;-0.0780;-0.0035;
82264325217838;0.0202;-0.0068;-0.0120;
82264335323567;0.0075;-0.0356;-0.0035;
82264345426900;0.0075;-0.0292;-0.0162;
82264355532629;0.0671;0.0305;-0.0280;
82264365638358;0.0426;0.0220;0.0136;
82264375744244;-0.0096;-0.0695;0.0146;
82264385850025;-0.0096;-0.1260;-0.0003;
82264395955754;0.0352;-0.0164;-0.0226;
82264406061848;0.0096;0.0198;-0.0248;
82264416167525;-0.0107;-0.0089;-0.0173;
82264426273306;0.0085;-0.0652;-0.0067;
82264436373879;0.0053;-0.0409;0.0200;
82264446479608;-0.0415;0.0539;0.0125;
82264456585338;0.0032;0.0763;-0.0056;
82264466712681;0.0362;0.0358;0.0146;
82264476818463;0.0277;0.0039;0.0391;
82264486924192;0.0149;-0.0812;0.0541;
82264497007473;0.0224;-0.0993;0.0253;
82264507113202;0.0256;-0.0620;0.0093;
82264517218983;-0.0181;-0.0684;0.0285;
82264527330754;-0.0469;-0.1036;0.0253;
82264537436483;-0.0458;-0.0546;-0.0035;
82264547542213;-0.0554;-0.0196;-0.0205;
82264557612994;-0.0607;0.0465;-0.0088;
82264567718775;-0.0458;0.0667;-0.0120;
82264577824452;-0.0362;0.0678;-0.0450;
82264587963931;-0.0149;0.0646;-0.0461;
82264598069608;-0.0256;-0.0025;-0.0525;
82264608175390;0.0202;0.0071;-0.0237;
82264618272890;-0.0341;-0.0270;-0.0003;
82264628378671;-0.0320;-0.1089;-0.0162;
82264638484348;0.0288;-0.1047;-0.0205;
82264648596015;0.0011;-0.0866;-0.0439;
82264658701692;0.0075;-0.0525;-0.0855;
82264668807421;0.0266;0.0209;-0.0578;
82264678928411;-0.0245;0.0134;-0.0226;
82264689034140;-0.0021;0.0369;-0.0269;
82264699139921;0.0064;0.0507;-0.0578;
82264709231431;0.0490;0.0784;-0.0770;
82264719337161;0.0607;0.0774;-0.0642;
82264729442942;0.0394;0.0220;-0.0652;
82264739550806;0.0618;-0.0430;-0.0599;
82264749656588;0.0469;-0.0567;-0.0716;
82264759762317;0.0469;-0.0940;-0.1025;
82264769869921;0.0692;-0.0620;-0.0961;
82264779954713;0.0639;0.0145;-0.0652;
82264790060494;0.0575;-0.0111;-0.0599;
82264800166223;0.0873;-0.0334;-0.0695;
82264810303515;0.1236;0.0518;-0.0802;
82264820409192;0.1609;0.1146;-0.0866;
82264830514921;0.1939;0.1051;-0.0599;
82264840623723;0.1864;0.1402;-0.0354;
82264850729504;0.1672;0.0901;-0.0226;
82264860835233;0.1204;-0.0196;-0.0344;
82264870916171;0.1246;-0.1036;-0.0375;
82264881021900;0.1065;-0.0887;-0.0301;
82264891127629;0.0724;-0.0684;-0.0344;
82264901220233;0.0479;-0.0471;-0.0312;
82264911325911;0.0426;-0.0599;-0.0450;
82264921431692;0.0469;-0.0313;-0.0439;
82264931565650;0.0756;0.0529;-0.0237;
82264941671327;0.0820;0.0827;-0.0003;
82264951777056;0.0735;0.0337;0.0019;
82264961863723;0.0969;-0.0100;-0.0024;
82264971969504;0.1342;0.0103;-0.0216;
82264982075181;0.1491;0.0348;-0.0344;
82264992187838;0.1470;-0.0164;0.0019;
82265002293619;0.1438;-0.0727;0.0274;
82265012399296;0.1491;-0.0834;0.0285;
82265022523463;0.1087;-0.0983;0.0083;
82265032629192;0.1044;-0.0228;0.0178;
82265042734921;0.1204;0.0656;0.0115;
82265052848775;0.0213;-0.1334;-0.0194;
82265062954556;0.0714;-0.2378;-0.0642;
82265073060233;0.0873;-0.1984;-0.0610;
82265083162213;-0.0138;-0.0876;0.0306;
82265093267890;-0.0117;0.0646;0.0838;
82265103373619;0.0682;0.1679;0.0477;
82265113499036;0.1310;0.1498;0.0115;
82265123604817;0.2429;0.0603;0.0008;
82265133710546;0.3334;-0.0047;0.0317;
82265143787004;0.2993;-0.0228;0.0658;
82265153892733;0.2461;-0.0759;0.0838;
82265163998463;0.2503;-0.1558;0.0912;
82265174107525;0.2482;-0.1664;0.1029;
82265184213306;0.1502;-0.1185;0.0774;
82265194318983;0.1609;-0.1057;0.0551;
82265204421275;0.1236;-0.0567;0.1040;
82265214527004;0.0905;0.0379;0.0976;
82265224632681;0.1214;0.0486;0.0774;
82265234744713;0.1214;-0.0121;0.1146;
82265244850442;0.1481;0.1168;0.1093;
82265254956171;0.2290;0.5525;0.0869;
82265265054608;0.1864;0.4193;0.1168;
82265275160338;0.1129;-0.1196;0.1487;
82265285266067;0.1481;-0.3390;0.1679;
82265295373931;0.1118;-0.2623;0.1786;
82265305479661;-0.0011;-0.3060;0.1445;
82265315585390;0.0479;-0.2911;0.0391;
82265325693358;0.1087;-0.1782;0.0061;
82265335799088;0.0703;-0.0079;0.0391;
82265345904817;0.0927;0.1445;0.0754;
82265356009713;0.1459;0.1658;0.0901;
82265366115442;0.1907;0.1903;0.0530;
82265376221171;0.2258;0.1977;0.0583;
82265386326067;0.2013;0.1668;0.1019;
82265396431796;0.1694;0.1455;0.1317;
82265406537525;0.1523;0.0422;0.1221;
82265416639140;0.1044;-0.0961;0.1157;
82265426744921;0.0873;-0.0514;0.0923;
82265436850650;0.0714;-0.0164;0.0944;
82265446969608;0.0000;-0.0695;0.1029;
82265457075338;0.0107;-0.0620;0.1157;
82265467181015;0.0224;-0.0057;0.1274;
82265477272421;0.0671;0.0838;0.1200;
82265487378150;0.1033;0.1668;0.1093;
82265497483879;0.0852;0.1860;0.0848;
82265507601431;0.1236;0.1466;0.0933;
82265517707161;0.0660;0.0859;0.1338;
82265527812942;0.0170;0.0273;0.1349;
82265537930025;0.0341;0.0039;0.1040;
82265548035754;0.0671;0.0369;0.0880;
82265558141431;-0.0075;-0.0482;0.0658;
82265568241796;-0.0607;-0.0983;0.0541;
82265578347525;-0.0501;0.0284;0.0774;
82265588453254;-0.1150;0.0358;0.0901;
82265598563619;-0.1204;-0.0217;0.0848;
82265608669400;-0.1321;0.0369;0.0551;
82265618775077;-0.1033;0.0933;0.0455;
82265628861119;-0.0884;0.0763;0.0636;
82265638966848;-0.1363;-0.0153;0.1008;
82265649072577;-0.2182;-0.0834;0.0912;
82265659177056;-0.1619;-0.0196;0.0933;
82265669282786;-0.1566;-0.0164;0.0784;
82265679388515;-0.1854;-0.0663;0.0679;
82265689500858;-0.1917;-0.0260;0.0594;
82265699606588;-0.1374;0.0134;0.0509;
82265709712317;-0.1651;0.0081;0.0381;
82265719818254;-0.1289;-0.0228;0.0615;
82265729923983;-0.1545;-0.0196;0.0690;
82265740029713;-0.1065;0.0156;0.0498;
82265750134608;-0.0778;0.0166;0.0306;
82265760240338;-0.0597;-0.0036;0.0445;
82265770346067;-0.0724;-0.0345;0.0700;
82265780438619;-0.1342;-0.0419;0.0668;
82265790544504;-0.0703;0.0166;0.0583;
82265800650338;-0.0565;0.0582;0.0722;
82265810771744;-0.0543;0.0411;0.0679;
82265820877629;-0.0905;-0.0036;0.0445;
82265830983463;-0.0533;0.0284;0.0434;
82265841078411;-0.0767;-0.0089;0.0679;
82265851184296;-0.1257;-0.0493;0.0615;
82265861290129;-0.1342;-0.0345;0.0562;
82265871415598;-0.1300;-0.0238;0.0594;
82265881521483;-0.1321;-0.0047;0.0551;
82265891627317;-0.1566;0.0326;0.0328;
82265901710077;-0.1417;0.0411;0.0040;
82265911815963;-0.1609;0.0475;-0.0162;
82265921921796;-0.1747;0.0230;-0.0109;
82265932060286;-0.1609;-0.0004;0.0072;
82265942166171;-0.2182;-0.0111;-0.0013;
82265952272004;-0.1672;-0.0334;-0.0439;
82265962348931;-0.1214;-0.0079;-0.0535;
82265972454817;-0.0980;0.0507;-0.0578;
82265982560650;-0.0586;0.0337;-0.0365;
82265992682369;-0.0746;-0.0079;-0.0248;
82266002788254;-0.0863;0.0049;-0.0397;
82266012894088;0.0160;0.0987;-0.0290;
82266022987161;0.0032;0.0880;-0.0152;
82266033093046;0.0138;-0.0398;-0.0301;
82266043198879;0.0842;-0.0206;-0.0088;
82266053331223;0.0383;0.0220;0.0083;
82266063437108;0.0341;0.0007;0.0125;
82266073542942;0.0543;-0.0238;0.0104;
82266083643202;0.0096;-0.0345;0.0072;
82266093749088;-0.0075;0.0134;0.0242;
82266103854921;-0.0202;0.0710;0.0146;
82266113954661;-0.0607;0.0348;0.0104;
82266124060546;-0.0831;-0.0025;0.0125;
82266134166379;-0.1055;-0.0270;0.0125;
82266144276119;-0.1758;-0.0324;0.0189;
82266154382004;-0.1832;0.0209;0.0221;
82266164487838;-0.2321;-0.0430;-0.0035;
82266174579869;-0.2545;-0.0642;-0.0493;
82266184685754;-0.2300;0.0443;-0.0674;
82266194791588;-0.1960;0.0891;-0.0748;
82266204915286;-0.1917;0.0134;-0.0610;
82266215021171;-0.2310;-0.0716;-0.0546;
82266225127004;-0.2395;-0.0461;-0.0280;
82266235210598;-0.1971;0.0486;-0.0226;
82266245316483;-0.1118;0.0614;-0.0589;
82266255422317;-0.0895;-0.0079;-0.0706;
82266265543619;-0.0820;-0.0535;-0.0610;
82266275649504;-0.0756;-0.0557;-0.0535;
82266285755338;-0.0352;0.0188;-0.0418;
82266295869556;0.0117;0.0624;-0.0280;
82266305975442;0.0373;0.0017;-0.0258;
82266316081275;0.1108;-0.0356;-0.0088;
82266326182994;0.0735;-0.0217;0.0019;
82266336288879;0.1140;0.0241;-0.0003;
82266346394713;0.1406;0.0284;-0.0301;
82266356500129;0.1406;-0.0345;-0.0067;
82266366606015;0.0501;-0.0759;0.0232;
82266376711848;0.0011;-0.0652;0.0189;
82266386812161;-0.0021;-0.0642;-0.0024;
82266396918046;-0.0437;-0.0471;-0.0301;
82266407023879;-0.0724;-0.0493;-0.0184;
82266417121848;-0.0778;-0.0387;-0.0354;
82266427227733;-0.0650;0.0028;-0.0280;
82266437333567;-0.0533;0.0284;-0.0205;
82266447449556;-0.1140;-0.0313;-0.0280;
82266457555442;-0.1108;-0.0482;-0.0482;
82266467661275;-0.0778;0.0134;-0.0652;
82266477779765;-0.0447;0.0731;-0.0439;
82266487885598;-0.0533;0.0614;-0.0173;
82266497991483;-0.0863;-0.0409;-0.0248;
82266508096431;-0.0991;-0.0844;-0.0429;
82266518202317;-0.0671;-0.0972;-0.0344;
82266528308150;-0.0511;-0.0961;-0.0194;
82266538394140;-0.0660;-0.0535;-0.0035;
82266548500025;-0.0341;-0.0196;0.0093;
82266558605858;-0.0288;-0.0441;0.0040;
82266568715286;-0.0160;-0.0791;0.0019;
82266578821171;-0.0405;-0.0631;0.0040;
82266588927004;-0.0330;0.0049;-0.0130;
82266599046431;-0.0107;0.0539;-0.0109;
82266609152317;0.0107;0.0401;0.0136;
82266619258150;-0.0533;0.0007;0.0455;
82266629342213;-0.0447;-0.0068;0.0200;
82266639448098;-0.0288;0.0316;-0.0120;
82266649553931;-0.0341;0.0561;-0.0120;
82266659665911;-0.0618;0.0209;0.0200;
82266669771796;-0.0692;-0.0430;0.0221;
82266679877629;-0.0671;-0.0217;-0.0003;
82266689981431;-0.0565;0.0103;-0.0248;
82266700087317;-0.0522;0.0145;-0.0120;
82266710193150;-0.0692;-0.0079;0.0083;
82266720322786;-0.0905;-0.0004;-0.0067;
82266730428619;-0.0735;-0.0015;-0.0290;
82266740534504;-0.0799;0.0081;-0.0407;
82266750607473;-0.0511;0.0518;-0.0152;
82266760713358;-0.0937;0.0177;-0.0088;
82266770819244;-0.0511;-0.0356;-0.0109;
82266780952056;-0.0778;-0.0589;-0.0503;
82266791058202;-0.0554;-0.0281;-0.0631;
82266801164348;-0.0511;-0.0121;-0.0866;
82266811233931;-0.0426;0.0028;-0.0397;
82266821340077;-0.0767;0.0177;-0.0184;
82266831446223;-0.0256;-0.0089;-0.0365;
82266841611536;-0.0394;-0.0642;-0.0897;
82266851717681;-0.0597;-0.1185;-0.0855;
82266861823827;-0.0597;-0.0610;-0.0802;
82266871867473;-0.0149;0.0177;-0.0514;
82266881973619;0.0021;0.0518;-0.0578;
82266892079765;0.0660;0.0774;-0.0514;
82266902210702;0.0724;0.0358;-0.0429;
82266912316848;0.0778;0.0390;-0.0248;
82266922422994;0.1001;0.0816;-0.0237;
82266932515806;0.1374;0.0113;-0.0237;
82266942621952;0.1097;-0.0451;-0.0152;
82266952728098;0.1023;-0.0897;-0.0290;
82266962853827;0.0554;-0.0823;-0.0280;
82266972959973;0.0415;-0.0525;0.0008;
82266983066119;0.0234;-0.0196;-0.0120;
82266993165129;0.0234;-0.0217;-0.0162;
82267003271275;0.0437;0.0273;-0.0216;
82267013377421;0.0234;0.0550;-0.0035;
82267023485077;0.0064;0.0390;-0.0045;
82267033591223;0.0277;0.0539;-0.0099;
82267043697369;0.0149;0.0113;-0.0035;
82267053798306;-0.0213;-0.0387;-0.0077;
82267063904452;-0.0383;-0.0557;0.0146;
82267074010598;-0.0224;0.0220;-0.0077;
82267084125911;0.0170;0.0262;0.0157;
82267094232056;0.0202;0.0028;0.0051;
82267104338202;-0.0043;-0.0132;-0.0003;
82267114449713;-0.0256;-0.0419;-0.0375;
82267124555858;-0.0202;0.0209;-0.0290;
82267134662004;-0.0543;0.0614;-0.0269;
82267144763098;-0.0639;0.0337;-0.0269;
82267154869244;-0.0522;0.0145;-0.0503;
82267164975390;-0.0565;0.0465;-0.0525;
82267175092161;-0.0895;0.1285;-0.0567;
82267185198306;-0.0447;0.1679;-0.0578;
82267195304452;-0.0628;0.1136;-0.0695;
82267205370077;-0.0607;0.0475;-0.0567;
82267215476223;-0.0511;0.0007;-0.0674;
82267225582369;-0.0352;-0.0324;-0.0631;
82267235695390;-0.0341;-0.0302;-0.0770;
82267245801536;0.0202;0.0071;-0.0695;
82267255907681;0.0000;-0.0142;-0.0695;
82267266025598;0.0373;-0.0356;-0.0589;
82267276131744;0.0117;0.0092;-0.0482;
82267286237890;0.0043;0.0294;-0.0152;
82267296340963;-0.0213;0.0454;-0.0237;
82267306447108;0.0202;0.1232;-0.0269;
82267316553254;-0.0107;0.1391;-0.0280;
82267326671536;-0.0181;0.0976;-0.0099;
82267336777681;-0.0533;0.0252;0.0008;
82267346883827;-0.0501;-0.0185;0.0093;
82267356973463;-0.0511;-0.0185;0.0232;
82267367079608;-0.1097;-0.0132;0.0146;
82267377185754;-0.0916;-0.0174;0.0146;
82267387304556;-0.1427;-0.0631;0.0232;
82267397410702;-0.1182;-0.0642;0.0242;
82267407516848;-0.1811;-0.0620;0.0083;
82267417609036;-0.1097;-0.0377;-0.0162;
82267427715181;-0.1332;0.0039;-0.0312;
82267437821327;-0.1523;-0.0313;-0.0099;
82267447932213;-0.1960;-0.0057;-0.0130;
82267458038358;-0.1790;-0.0164;-0.0067;
82267468144504;-0.1875;-0.0430;-0.0194;
82267478243931;-0.1640;0.0049;-0.0333;
82267488350077;-0.0991;0.0071;-0.0130;
82267498456223;-0.1800;-0.0610;-0.0077;
82267508562056;-0.0714;-0.0493;-0.0184;
82267518668202;-0.0373;-0.0249;-0.0301;
82267528774348;-0.0256;-0.0748;-0.0312;
82267538874869;-0.0277;-0.1419;-0.0290;
82267548981015;0.0245;-0.1366;-0.0322;
82267559087161;0.0501;-0.0823;-0.0322;
82267569189244;0.0415;-0.0503;-0.0354;
82267579295390;0.0895;-0.0684;-0.0269;
82267589401536;0.0852;-0.0356;-0.0130;
82267599509036;0.0767;0.0166;-0.0024;
82267609615181;0.0948;-0.0047;0.0040;
82267619721327;0.0873;-0.0324;-0.0003;
82267629825963;0.1321;-0.0313;0.0093;
82267639932108;0.1097;-0.0482;0.0146;
82267650038254;0.1118;-0.0567;0.0232;
82267660151327;0.1651;-0.0313;0.0274;
82267670257473;0.1204;-0.0812;0.0306;
82267680363619;0.1289;-0.1132;0.0232;
82267690469348;0.1310;-0.0599;0.0221;
82267700575494;0.0884;-0.0185;0.0317;
82267710681640;0.0863;-0.0228;0.0349;
82267720787786;0.0426;-0.0228;0.0168;
82267730893879;0.0575;0.0103;-0.0035;
82267741000025;0.0767;0.0369;-0.0003;
82267751106171;0.0426;0.0433;0.0051;
82267761191588;0.0075;0.0337;-0.0013;
82267771297733;0.0405;0.0614;-0.0365;
82267781403879;0.0692;0.0710;-0.0152;
82267791518931;0.0373;0.0358;-0.0099;
82267801624973;0.0415;0.0475;-0.0290;
82267811731015;0.0490;0.0497;-0.0109;
82267821823775;0.0288;0.0220;-0.0056;
82267831929817;0.0330;0.0103;-0.0109;
82267842035858;0.0575;0.0401;-0.0003;
82267852189973;0.0277;0.0561;-0.0024;
82267862296015;0.0149;0.0752;-0.0013;
82267872402056;0.0117;0.0720;0.0051;
82267882469661;-0.0064;0.0710;-0.0056;
82267892575702;-0.0107;0.0699;0.0072;
82267902681744;-0.0288;0.0497;0.0253;
82267912796848;-0.0266;0.0475;0.0168;
82267922902890;-0.0373;0.0326;0.0253;
82267933008931;-0.0522;0.0305;0.0157;
82267943113098;-0.0842;-0.0047;0.0019;
82267953219140;-0.0937;-0.0599;0.0083;
82267963325181;-0.1236;-0.0567;0.0061;
82267973433515;-0.1118;0.0593;-0.0109;
82267983539556;-0.0607;0.0997;0.0029;
82267993645598;-0.1225;-0.0206;-0.0077;
82268003770702;-0.1481;-0.0292;-0.0162;
82268013876744;-0.1182;0.0529;-0.0067;
82268023982786;-0.0873;0.0252;-0.0226;
82268034072161;-0.0863;-0.0313;-0.0269;
82268044178202;-0.0703;-0.0356;-0.0258;
82268054284244;-0.0085;-0.0217;-0.0290;
82268064390702;-0.0117;-0.0334;-0.0280;
82268074496744;0.0053;-0.0441;-0.0173;
82268084602786;0.0266;0.0028;-0.0109;
82268094714556;0.0458;0.0284;-0.0280;
82268104820598;0.0671;0.0071;-0.0312;
82268114926640;0.0863;0.0305;-0.0173;
82268125027786;0.1012;0.0529;-0.0216;
82268135133827;0.0927;0.0188;-0.0301;
82268145239869;0.1001;0.0092;-0.0248;
82268155329973;0.1204;0.0124;-0.0162;
82268165436015;0.1182;-0.0079;-0.0216;
82268175542056;0.0852;-0.0142;-0.0184;
82268185653619;0.0842;0.0060;-0.0141;
82268195759661;0.0969;0.0134;-0.0280;
82268205865702;0.0969;0.0241;-0.0557;
82268215987786;0.1097;0.0316;-0.0525;
82268226093827;0.0959;0.0241;-0.0354;
82268236199869;0.0969;0.0390;-0.0482;
82268246305598;0.1012;0.0518;-0.0482;
82268256411640;0.1033;0.0166;-0.0301;
82268266517681;0.1033;-0.0249;-0.0194;
82268276615806;0.1001;-0.0313;-0.0258;
82268286721848;0.1289;0.0049;-0.0312;
82268296827890;0.1406;0.0166;-0.0184;
82268306950077;0.1459;-0.0068;-0.0120;
82268317056119;0.1427;-0.0015;-0.0067;
82268327162161;0.1395;0.0539;0.0072;
82268337241327;0.1406;0.0518;0.0232;
82268347347369;0.1363;-0.0025;0.0296;
82268357453411;0.1513;0.0252;0.0296;
82268367558202;0.1715;0.0731;0.0434;
82268377664244;0.1555;0.0529;0.0690;
82268387770286;0.1385;0.0326;0.0763;
82268397872838;0.0916;0.0348;0.0754;
82268407978879;0.0479;0.0305;0.0869;
82268418084921;0.0043;-0.0047;0.1051;
82268428194296;-0.0192;-0.0324;0.1051;
82268438300338;-0.0288;-0.0185;0.0880;
82268448406379;-0.0660;-0.0153;0.0838;
82268458517473;-0.1023;-0.0260;0.0976;
82268468623515;-0.1289;-0.0132;0.1061;
82268478729556;-0.1726;0.0177;0.0869;
82268488830181;-0.1843;0.0284;0.0732;
82268498936223;-0.1917;0.0294;0.0711;
82268509042265;-0.2099;0.0316;0.0763;
82268519163723;-0.2120;0.0284;0.0615;
82268529269765;-0.2140;0.0220;0.0349;
82268539375806;-0.2193;0.0071;0.0221;
82268549470702;-0.2067;0.0145;0.0178;
82268559576744;-0.1960;0.0177;0.0221;
82268569682786;-0.2161;-0.0047;0.0136;
82268579789869;-0.2289;-0.0068;-0.0024;
82268589895911;-0.2459;-0.0068;-0.0173;
82268600001952;-0.2214;0.0103;-0.0354;
82268610096223;-0.1790;0.0071;-0.0482;
82268620202265;-0.1747;-0.0111;-0.0514;
82268630308306;-0.1747;-0.0100;-0.0525;
82268640429765;-0.1822;-0.0089;-0.0535;
82268650535806;-0.1363;-0.0036;-0.0642;
82268660641848;-0.0735;0.0220;-0.0770;
82268670738827;-0.0618;0.0316;-0.0791;
82268680844869;-0.0554;0.0156;-0.0727;
82268690950911;-0.0362;0.0081;-0.0897;
82268701038723;-0.0149;0.0103;-0.1089;
82268711144765;-0.0043;0.0124;-0.1228;
82268721250806;-0.0011;0.0081;-0.1270;
82268731374036;0.0213;0.0071;-0.1260;
82268741480077;0.0405;0.0177;-0.1387;
82268751586119;0.0458;0.0049;-0.1569;
82268761682994;0.0884;-0.0121;-0.1611;
82268771789036;0.1672;-0.0132;-0.1601;
82268781895077;0.1800;-0.0185;-0.1526;
82268792001275;0.2024;-0.0047;-0.1611;
82268802107265;0.2834;0.0134;-0.1771;
82268812213306;0.4057;0.0039;-0.1867;
82268822322056;0.4931;0.0241;-0.1739;
82268832428046;0.5549;0.0369;-0.1494;
82268842534088;0.6241;0.0124;-0.1430;
82268852655598;0.7114;0.0220;-0.1345;
82268862761588;0.8425;0.0369;-0.1185;
82268872867629;1.0074;0.0337;-0.0972;
82268882967890;1.0714;0.0294;-0.0695;
82268893073879;1.1129;0.0060;-0.0354;
82268903179921;1.1928;-0.0004;-0.0205;
82268913270806;1.2343;-0.0015;-0.0077;
82268923376796;1.2876;-0.0111;0.0104;
82268933482838;1.3387;0.0156;0.0210;
82268943586119;1.3899;0.0390;0.0370;
82268953692108;1.4506;0.0262;0.0722;
82268963798150;1.4708;0.0092;0.1061;
82268973856171;1.5102;0.0230;0.1200;
82268983962161;1.5795;0.0443;0.1210;
82268994068202;1.6134;0.0869;0.1306;
82269004245911;1.6710;0.0891;0.1647;
82269014351900;1.7338;0.0401;0.1871;
82269024457942;1.7636;0.0507;0.1881;
82269034541640;1.7764;0.0859;0.1967;
82269044647629;1.8371;0.0912;0.2063;
82269054753671;1.8904;0.0891;0.2212;
82269064870546;1.9405;0.0827;0.2329;
82269074976536;1.9213;0.0848;0.2489;
82269085082577;1.9287;0.1157;0.2446;
82269095190702;2.0214;0.1338;0.2457;
82269105296692;2.1194;0.1168;0.2755;
82269115402733;2.1780;0.1253;0.2925;
82269125510806;2.2397;0.1519;0.3192;
82269135616796;2.3888;0.1796;0.3533;
82269145722838;2.5805;0.2105;0.3724;
82269155822473;2.7116;0.2318;0.4033;
82269165928463;2.7297;0.2585;0.4683;
82269176034504;2.7648;0.2798;0.5184;
82269186141952;2.8117;0.2947;0.5610;
82269196247942;2.7339;0.3309;0.5535;
82269206353983;2.5890;0.3895;0.5610;
82269216473723;2.6082;0.3916;0.5929;
82269226579713;2.5283;0.3841;0.5972;
82269236685754;2.3515;0.4225;0.5897;
82269246781223;2.1897;0.4523;0.6036;
82269256887213;2.0321;0.4523;0.6110;
82269266993254;1.8052;0.4491;0.6132;
82269277107994;1.5443;0.4406;0.6089;
82269287213983;1.3036;0.4310;0.5929;
82269297320025;1.0383;0.4023;0.5588;
82269307391461;0.7306;0.3618;0.5343;
82269317497658;0.6177;0.3224;0.5184;
82269327603700;0.4398;0.2947;0.4992;
82269337723908;0.2663;0.2403;0.4853;
82269347829898;0.1257;0.2009;0.4736;
82269357935940;-0.0128;0.1903;0.4395;
82269368039169;-0.0969;0.1722;0.3969;
82269378145158;-0.1385;0.1455;0.3490;
82269388251200;-0.1662;0.1029;0.3298;
82269398374169;-0.2088;0.0827;0.3106;
82269408480158;-0.2099;0.0923;0.2744;
82269418586200;-0.1715;0.1040;0.2414;
82269428670210;-0.1374;0.0912;0.2084;
82269438776200;-0.0831;0.0699;0.1903;
82269448882242;-0.0352;0.0603;0.1764;
82269458988960;0.0565;0.0603;0.1850;
82269469094950;0.1609;0.0550;0.2180;
82269479200992;0.2237;0.0795;0.2233;
82269489320992;0.2684;0.1061;0.2244;
82269499426981;0.2727;0.0965;0.2244;
82269509533023;0.3004;0.0678;0.2254;
82269519629742;0.3164;0.0497;0.2265;
82269529735731;0.2844;0.0571;0.2041;
82269539841773;0.2834;0.0784;0.1988;
82269549948544;0.2471;0.0795;0.2116;
82269560054533;0.2248;0.0816;0.2265;
82269570160575;0.2450;0.0806;0.2382;
82269580261565;0.2652;0.0742;0.2457;
82269590367554;0.2429;0.0923;0.2435;
82269600473596;0.2226;0.0976;0.2489;
82269610585002;0.2194;0.0806;0.2744;
82269620691044;0.1896;0.0997;0.2659;
82269630797033;0.2216;0.1157;0.2521;
82269640943023;0.2386;0.1083;0.2648;
82269651049012;0.2130;0.1083;0.2755;
82269661155054;0.1928;0.1146;0.2798;
82269671197294;0.1960;0.1221;0.2840;
82269681303335;0.1960;0.1200;0.2585;
82269691409325;0.2173;0.0880;0.2542;
82269701519794;0.1875;0.0593;0.2489;
82269711625783;0.1481;0.0646;0.2489;
82269721731825;0.1513;0.0678;0.2435;
82269731852398;0.1310;0.0635;0.2371;
82269741958387;0.1023;0.0688;0.2052;
82269752064429;0.1374;0.0337;0.1999;
82269762172919;0.1225;0.0081;0.2031;
82269772278960;0.1012;0.0262;0.1775;
82269782384950;0.1001;0.0369;0.1647;
82269792483856;0.0735;0.0337;0.1626;
82269802589846;0.0863;0.0166;0.1519;
82269812695835;0.0980;-0.0100;0.1615;
82269822813127;0.1001;-0.0142;0.1626;
82269832919117;0.1108;-0.0025;0.1455;
82269843025106;0.0767;0.0081;0.1594;
82269853143335;0.0660;0.0348;0.1519;
82269863249325;0.1193;0.0379;0.1509;
82269873355315;0.1577;0.0188;0.1615;
82269883436981;0.1790;0.0369;0.1477;
82269893542971;0.1832;0.0561;0.1668;
82269903648960;0.1523;0.0582;0.1935;
82269913754273;0.1545;0.0582;0.1945;
82269923860262;0.1864;0.0241;0.1935;
82269933966252;0.1736;0.0081;0.1913;
82269944065731;0.1236;0.0273;0.1850;
82269954171721;0.0735;0.0273;0.1977;
82269964277710;0.0341;0.0188;0.2158;
82269974366669;0.0511;0.0358;0.2063;
82269984472658;0.0703;0.0241;0.2095;
82269994578648;0.0277;0.0337;0.2137;
82270004715627;0.0170;0.0443;0.2180;
82270014821617;0.0266;0.0241;0.2244;
82270024927606;0.0469;0.0156;0.1977;
82270035024690;0.0628;-0.0164;0.1956;
82270045130679;0.0181;-0.0238;0.2137;
82270055236669;0.0085;0.0071;0.2126;
82270065342606;0.0490;0.0156;0.2073;
82270075448596;0.0735;-0.0089;0.1903;
82270085554585;0.0618;-0.0356;0.1945;
82270095675419;0.0224;-0.0260;0.2148;
82270105781408;0.0458;0.0028;0.2222;
82270115887398;0.1193;-0.0036;0.2180;
82270125983127;0.1491;-0.0249;0.2105;
82270136089117;0.1321;-0.0302;0.2116;
82270146195106;0.1342;-0.0249;0.2180;
82270156305523;0.1768;-0.0153;0.2148;
82270166411512;0.2152;-0.0100;0.1860;
82270176517502;0.1800;-0.0228;0.1690;
82270186618127;0.1523;-0.0036;0.1679;
82270196724117;0.2099;0.0433;0.1668;
82270206830106;0.2919;0.0678;0.1700;
82270216943752;0.2972;0.0667;0.1807;
82270227049742;0.3057;0.0614;0.1871;
82270237155731;0.3451;0.0742;0.1658;
82270247251252;0.3196;0.0774;0.1466;
82270257357242;0.2493;0.0880;0.1530;
82270267463231;0.2088;0.0710;0.1583;
82270277568804;0.1545;0.0433;0.1328;
82270287674794;0.0575;0.0465;0.0848;
82270297780783;-0.0437;0.0337;0.0381;
82270307882658;-0.2236;-0.0345;-0.0493;
82270317988648;-0.4217;-0.1153;-0.0684;
82270328094637;-0.5655;-0.1462;-0.0439;
82270338193492;-0.5719;-0.1292;-0.0344;
82270348299481;-0.5122;-0.1260;-0.0620;
82270358405471;-0.4366;-0.1398;-0.0961;
82270368515210;-0.4707;-0.1441;-0.1356;
82270378621200;-0.4845;-0.1377;-0.1547;
82270388727190;-0.4814;-0.1270;-0.1696;
82270398854377;-0.4899;-0.0993;-0.1973;
82270408960367;-0.4856;-0.0834;-0.2336;
82270419066356;-0.4206;-0.1079;-0.2549;
82270429150210;-0.4302;-0.1451;-0.2698;
82270439256200;-0.5346;-0.1909;-0.2794;
82270449362190;-0.6294;-0.2027;-0.2868;
82270459471981;-0.6592;-0.1632;-0.3113;
82270469577971;-0.6262;-0.1228;-0.3326;
82270479683960;-0.5229;-0.1004;-0.3454;
82270489799169;-0.3940;-0.0706;-0.3635;
82270499905158;-0.2449;-0.0525;-0.3763;
82270510011148;-0.1268;-0.0738;-0.3678;
82270520131669;-0.0682;-0.1132;-0.3433;
82270530237658;-0.0533;-0.1537;-0.3209;
82270540343648;-0.0277;-0.1419;-0.3102;
82270550423960;0.0373;-0.0940;-0.3177;
82270560529950;0.1129;-0.0738;-0.3177;
82270570635940;0.1449;-0.0738;-0.3081;
82270580736148;0.1321;-0.0578;-0.3007;
82270590842137;0.0916;-0.0716;-0.2943;
82270600948127;0.0447;-0.1057;-0.2826;
82270611051565;0.0181;-0.1036;-0.2740;
82270621157554;-0.0032;-0.0908;-0.2687;
82270631263544;-0.0032;-0.0929;-0.2591;
82270641388440;0.0565;-0.0738;-0.2474;
82270651494429;0.1363;-0.0238;-0.2431;
82270661600419;0.1577;-0.0047;-0.2346;
82270671684169;0.1012;-0.0514;-0.2176;
82270681790158;0.0554;-0.0684;-0.2122;
82270691896148;0.0394;-0.0419;-0.2122;
82270702015106;0.0224;-0.0535;-0.2016;
82270712121096;-0.0309;-0.0866;-0.1835;
82270722227085;-0.0533;-0.0525;-0.1792;
82270732347606;-0.0170;-0.0068;-0.1867;
82270742453596;-0.0138;-0.0281;-0.1877;
82270752559585;-0.0884;-0.0482;-0.1899;
82270762655523;-0.1609;-0.0174;-0.2016;
82270772761512;-0.2257;-0.0015;-0.2154;
82270782867502;-0.3674;-0.0398;-0.2229;
82270792965210;-0.5527;-0.0631;-0.2346;
82270803071200;-0.6901;-0.0419;-0.2527;
82270813177137;-0.7945;-0.0292;-0.2655;
82270823289690;-0.9180;-0.0567;-0.2687;
82270833395679;-1.0564;-0.0738;-0.2783;
82270843501617;-1.1459;-0.0482;-0.2889;
82270853603440;-1.1715;-0.0281;-0.3134;
82270863709429;-1.1758;-0.0249;-0.3209;
82270873815367;-1.1800;-0.0217;-0.3230;
82270883935731;-1.1491;-0.0057;-0.3145;
82270894041721;-1.0799;0.0028;-0.3124;
82270904147658;-1.0106;-0.0025;-0.3081;
82270914255210;-0.9563;-0.0164;-0.2953;
82270924361200;-0.8615;-0.0345;-0.2943;
82270934467137;-0.7487;-0.0345;-0.2826;
82270944556773;-0.5719;-0.0185;-0.2666;
82270954662762;-0.3652;-0.0089;-0.2463;
82270964768700;-0.1736;0.0113;-0.2272;
82270974868648;0.0064;0.0337;-0.2080;
82270984974637;0.0490;0.0220;-0.1941;
82270995080575;0.0107;-0.0185;-0.1846;
82271005201096;0.0181;-0.0398;-0.1814;
82271015307085;0.0117;-0.0356;-0.1771;
82271025413023;0.0192;-0.0249;-0.1707;
82271035506356;0.0202;-0.0238;-0.1654;
82271045612346;0.0330;-0.0079;-0.1569;
82271055718283;0.0383;0.0103;-0.1515;
82271065830210;0.0394;0.0049;-0.1494;
82271075936200;0.0352;0.0007;-0.1451;
82271086042137;0.0639;0.0284;-0.1441;
82271096149273;0.0905;0.0433;-0.1430;
82271106255210;0.0724;0.0198;-0.1387;
82271116361200;0.0447;-0.0004;-0.1334;
82271126468648;0.0341;-0.0036;-0.1302;
82271136574637;0.0149;-0.0185;-0.1313;
82271146680575;0.0021;-0.0398;-0.1313;
82271156794325;0.0266;-0.0398;-0.1217;
82271166900315;0.0895;-0.0185;-0.1132;
82271177006252;0.1854;0.0092;-0.1111;
82271187093335;0.2706;0.0241;-0.1121;
82271197199273;0.3217;0.0284;-0.1121;
82271207305262;0.3409;0.0337;-0.1153;
82271217425940;0.3260;0.0294;-0.1206;
82271227531877;0.2844;0.0188;-0.1260;
82271237637867;0.2450;0.0081;-0.1302;
82271247744065;0.2205;0.0007;-0.1270;
82271257850054;0.1949;-0.0121;-0.1228;
82271267955992;0.1800;-0.0206;-0.1249;
82271278025054;0.1896;-0.0142;-0.1260;
82271288130992;0.2109;0.0028;-0.1196;
82271298236981;0.2184;0.0028;-0.1121;
82271308380940;0.2077;-0.0089;-0.1089;
82271318486929;0.2237;0.0092;-0.1047;
82271328592867;0.2610;0.0475;-0.1025;
82271338685106;0.2567;0.0486;-0.0951;
82271348791096;0.1800;0.0124;-0.0834;
82271358897033;0.0948;-0.0132;-0.0759;
82271368996460;0.0330;-0.0206;-0.0727;
82271379102450;-0.0064;-0.0387;-0.0706;
82271389208387;0.0117;-0.0451;-0.0599;
82271399319898;0.0138;-0.0249;-0.0493;
82271409425835;0.0213;0.0081;-0.0418;
82271419531825;0.0458;0.0326;-0.0386;
82271429637815;0.0586;0.0348;-0.0429;
82271439743752;0.0426;0.0305;-0.0450;
82271449849742;0.0234;0.0284;-0.0418;
82271459945419;-0.0064;0.0177;-0.0418;
82271470051408;-0.0032;-0.0068;-0.0407;
82271480157346;0.0000;-0.0249;-0.0269;
82271490269898;0.0053;-0.0281;-0.0226;
82271500375887;0.0107;-0.0142;-0.0216;
82271510481825;0.0117;0.0060;-0.0194;
82271520589742;0.0053;0.0273;-0.0248;
82271530695679;-0.0032;0.0305;-0.0248;
82271540801669;-0.0064;0.0124;-0.0290;
82271550918960;0.0011;0.0209;-0.0333;
82271561024898;0.0032;0.0422;-0.0333;
82271571130887;-0.0021;0.0401;-0.0333;
82271581209273;-0.0053;0.0177;-0.0344;
82271591315262;-0.0043;0.0039;-0.0333;
82271601421200;-0.0011;-0.0025;-0.0280;
82271611539898;0.0011;-0.0132;-0.0248;
82271621645835;0.0053;-0.0206;-0.0248;
82271631751825;0.0075;-0.0121;-0.0333;
82271641852085;0.0053;0.0049;-0.0407;
82271651958075;0.0032;0.0156;-0.0418;
82271662064012;0.0043;0.0220;-0.0386;
82271672178075;0.0053;0.0220;-0.0365;
82271682284065;0.0085;0.0113;-0.0397;
82271692390002;0.0064;0.0007;-0.0461;
82271702525523;0.0085;0.0049;-0.0535;
82271712631512;0.0032;0.0103;-0.0546;
82271722737450;0.0053;0.0092;-0.0514;
82271732821148;0.0043;0.0092;-0.0471;
82271742927137;0.0107;0.0124;-0.0375;
82271753033075;0.0138;0.0166;-0.0344;
82271763134690;0.0256;0.0252;-0.0503;
82271773240627;0.0288;0.0379;-0.0610;
82271783346617;0.0234;0.0539;-0.0706;
82271793455992;0.0160;0.0571;-0.0770;
82271803561981;0.0170;0.0507;-0.0802;
82271813667919;0.0192;0.0475;-0.0834;
82271823762919;0.0202;0.0348;-0.0866;
82271833868908;0.0234;0.0134;-0.0897;
82271843974846;0.0288;-0.0047;-0.0940;
82271854070835;0.0298;-0.0111;-0.0983;
82271864176825;0.0330;-0.0100;-0.1015;
82271874282762;0.0309;-0.0025;-0.1036;
82271884401148;0.0309;0.0049;-0.1068;
82271894507137;0.0298;0.0039;-0.1089;
82271904613075;0.0288;0.0017;-0.1100;
82271914731669;0.0277;-0.0068;-0.1068;
82271924837658;0.0277;-0.0132;-0.1036;
82271934943596;0.0256;-0.0132;-0.1004;
82271945032815;0.0224;-0.0121;-0.0961;
82271955138804;0.0245;-0.0111;-0.0876;
82271965244742;0.0213;-0.0089;-0.0823;
82271975361252;0.0181;-0.0089;-0.0770;
82271985467242;0.0149;-0.0100;-0.0727;
82271995573179;0.0117;-0.0100;-0.0674;
82272005674794;0.0064;-0.0164;-0.0610;
82272015780783;0.0053;-0.0164;-0.0546;
82272025886721;0.0075;-0.0132;-0.0503;
82272035987710;0.0043;-0.0121;-0.0461;
82272046093700;0.0043;-0.0111;-0.0429;
82272056199637;-0.0043;-0.0142;-0.0375;
82272066306148;-0.0085;-0.0185;-0.0344;
82272076412137;-0.0107;-0.0196;-0.0322;
82272086518075;-0.0053;-0.0164;-0.0290;
82272096635106;-0.0064;-0.0142;-0.0248;
82272106741096;-0.0128;-0.0164;-0.0205;
82272116847033;-0.0160;-0.0185;-0.0194;
82272126940731;-0.0224;-0.0249;-0.0162;
82272137046721;-0.0383;-0.0313;-0.0099;
82272147152658;-0.0437;-0.0356;-0.0056;
82272157260002;-0.0415;-0.0324;-0.0035;
82272167365992;-0.0511;-0.0356;-0.0013;
82272177471929;-0.0682;-0.0324;0.0040;
82272187576877;-0.0980;-0.0441;0.0040;
82272197682867;-0.1278;-0.0557;0.0019;
82272207788804;-0.1332;-0.0441;0.0008;
82272217884065;-0.1246;-0.0366;0.0019;
82272227990002;-0.1236;-0.0398;0.0040;
82272238095992;-0.1332;-0.0398;0.0051;
82272248219898;-0.1363;-0.0398;0.0040;
82272258325887;-0.1332;-0.0398;0.0051;
82272268431825;-0.1342;-0.0441;0.0061;
82272278546252;-0.1278;-0.0398;0.0083;
82272288652190;-0.1129;-0.0292;0.0104;
82272298758179;-0.0980;-0.0249;0.0146;
82272308854169;-0.0937;-0.0324;0.0146;
82272318960158;-0.0884;-0.0302;0.0178;
82272329066096;-0.0756;-0.0228;0.0200;
82272339166460;-0.0756;-0.0249;0.0189;
82272349272450;-0.0863;-0.0270;0.0178;
82272359378387;-0.0959;-0.0228;0.0168;
82272369490523;-0.1172;-0.0260;0.0157;
82272379596512;-0.1534;-0.0398;0.0146;
82272389702450;-0.1822;-0.0441;0.0083;
82272399800992;-0.2035;-0.0366;0.0040;
82272409906981;-0.2150;-0.0270;0.0061;
82272420012919;-0.2236;-0.0217;0.0083;
82272430108440;-0.2246;-0.0142;0.0083;
82272440214429;-0.2109;-0.0068;0.0040;
82272450320367;-0.1811;0.0007;0.0115;
82272460419898;-0.1182;0.0230;0.0083;
82272470525887;-0.1374;-0.0153;0.0157;
82272480631825;-0.1555;-0.0451;0.0253;
82272490739273;-0.1300;-0.0398;0.0232;
82272500845210;-0.0937;-0.0313;0.0210;
82272510951200;-0.0533;-0.0164;0.0200;
82272521078752;-0.0373;-0.0164;0.0221;
82272531184742;-0.0522;-0.0398;0.0253;
82272541290679;-0.0597;-0.0451;0.0296;
82272551388283;-0.0277;-0.0153;0.0317;
82272561494273;0.0128;0.0124;0.0317;
82272571600210;0.0128;0.0060;0.0391;
82272581683960;0.0138;0.0060;0.0445;
82272591789950;0.0096;0.0039;0.0487;
82272601895887;-0.0053;-0.0111;0.0519;
82272612042606;-0.0170;-0.0196;0.0541;
82272622148596;-0.0181;-0.0174;0.0519;
