Sensor: bmi160 Accelerometer Non-wakeup
Vendor: BOSCH
TimestampAcc [ns]; AccX [m/s^2]; AccY [m/s^2]; AccZ [m/s^2]
5256024329247536;-9.2178;-2.4757;-2.1840;
5256024339404047;-9.2536;-2.4347;-2.2654;
5256024349458370;-9.2970;-2.3749;-2.1314;
5256024359598474;-9.3233;-2.3174;-1.9636;
5256024369652797;-9.3520;-2.3055;-1.8751;
5256024379842484;-9.2994;-2.2122;-1.8703;
5256024389938578;-9.2513;-2.0731;-2.0593;
5256024400038630;-9.2683;-2.0468;-2.2774;
5256024410151755;-9.2465;-2.0659;-2.3614;
5256024420269516;-9.2584;-2.1066;-2.3830;
5256024430350245;-9.2946;-2.1185;-2.2917;
5256024440466963;-9.2731;-2.1138;-2.0378;
5256024450593943;-9.2874;-2.1951;-1.9325;
5256024460711963;-9.2946;-2.2457;-1.9277;
5256024470759255;-9.2970;-2.2337;-1.9780;
5256024480855609;-9.3305;-2.2433;-2.0788;
5256024490967380;-9.3257;-2.2313;-2.1242;
5256024501106286;-9.2850;-2.2313;-2.1027;
5256024511186859;-9.3018;-2.2504;-2.0115;
5256024521313943;-9.3592;-2.2672;-1.8775;
5256024531381547;-9.3568;-2.3438;-1.7838;
5256024541495245;-9.3138;-2.4467;-1.8248;
5256024551610141;-9.3138;-2.6001;-1.8823;
5256024561704463;-9.3114;-2.6647;-1.9493;
5256024571807797;-9.3018;-2.6216;-1.9923;
5256024581915609;-9.3377;-2.5690;-1.9923;
5256024592037120;-9.3090;-2.5738;-1.9612;
5256024602157380;-9.3090;-2.6599;-1.9158;
5256024612229047;-9.3353;-2.8445;-1.9086;
5256024622332068;-9.3712;-3.2228;-1.8918;
5256024632437276;-9.3832;-3.8363;-1.7432;
5256024642536234;-9.4143;-4.6795;-1.4438;
5256024652644984;-9.4549;-5.2807;-1.1922;
5256024662748526;-9.4669;-5.5872;-1.0678;
5256024672855766;-9.4549;-5.9297;-0.8402;
5256024682957641;-9.4837;-6.3347;-0.6317;
5256024693061130;-9.4908;-6.5216;-0.6748;
5256024703175349;-9.3975;-6.5743;-0.7923;
5256024713277068;-9.3066;-6.4905;-0.9096;
5256024723377276;-9.2946;-6.3562;-0.9694;
5256024733482901;-9.2465;-6.2749;-0.8043;
5256024743585974;-9.1771;-6.2124;-0.6006;
5256024753690974;-9.1316;-6.0592;-0.4690;
5256024763790297;-9.1053;-5.8268;-0.5025;
5256024773898734;-9.0215;-5.4891;-0.5862;
5256024784012797;-8.9016;-5.1105;-0.8091;
5256024794107588;-8.8226;-4.6484;-1.1994;
5256024804211859;-8.7844;-3.9296;-1.6379;
5256024814320766;-8.6668;-3.2901;-1.9780;
5256024824420713;-8.4945;-3.1032;-1.9301;
5256024834526547;-8.4607;-2.8516;-1.6881;
5256024844628422;-8.5567;-2.2361;-1.6546;
5256024854736859;-8.5161;-1.2562;-1.8679;
5256024864837901;-8.4296;-0.5997;-2.2128;
5256024874972588;-8.4634;-0.2859;-2.6130;
5256024885048526;-8.4535;0.0541;-3.1543;
5256024895148838;-8.3363;0.6051;-3.5997;
5256024905263630;-8.2262;0.9476;-3.6571;
5256024915359255;-8.2765;1.0172;-3.2907;
5256024925465922;-8.4200;1.0507;-2.8669;
5256024935572380;-8.5208;1.2302;-2.6560;
5256024945673318;-8.4634;1.4387;-2.8355;
5256024955786443;-8.3842;1.5897;-3.1854;
5256024965884984;-8.3459;1.6232;-3.5423;
5256024975989255;-8.3746;1.6926;-3.8034;
5256024986096026;-8.4105;1.9322;-3.9111;
5256024996199776;-8.3602;2.1694;-3.9616;
5256025006303109;-8.3219;2.2412;-3.7699;
5256025016410818;-8.4634;2.4401;-3.6404;
5256025026512276;-8.5519;2.8089;-3.8728;
5256025036613109;-8.3100;3.8988;-5.2983;
5256025046719672;-6.9589;9.7654;-15.5892;
5256025056831443;-7.6152;6.3736;-9.7418;
5256025066922016;-9.8551;4.2583;-4.1913;
5256025077033213;-9.4669;6.6610;-4.5006;
5256025087136651;-8.2023;4.8619;-3.9039;
5256025097245505;-7.6415;4.1791;-4.3208;
5256025107353630;-8.2908;3.7911;-6.1032;
5256025117452849;-8.5208;3.5157;-7.7584;
5256025127574880;-8.1350;3.0796;-8.4867;
5256025137658005;-8.1565;2.7299;-8.6064;
5256025147763838;-8.8442;3.3191;-8.1153;
5256025157870713;-8.6907;4.6271;-7.1402;
5256025167965349;-7.8308;5.1996;-6.2611;
5256025178070349;-7.5673;5.4799;-6.8169;
5256025188181859;-8.0584;5.5807;-7.8254;
5256025198268266;-8.1326;5.1661;-8.3883;
5256025208418370;-7.5745;3.8821;-7.8374;
5256025218503734;-7.5793;2.9695;-7.2099;
5256025228597276;-8.6046;2.6103;-6.4265;
5256025238702797;-9.0861;2.7706;-5.7556;
5256025248831338;-7.6753;2.4162;-4.9866;
5256025258914776;-7.6848;1.6519;-5.1544;
5256025269028213;-8.3339;1.0436;-4.9507;
5256025279118943;-9.0168;-0.0826;-4.9364;
5256025289240505;-9.2970;-1.4886;-6.4385;
5256025299327849;-9.7831;-1.8431;-7.6696;
5256025309424672;-9.2731;-1.5054;-5.2717;
5256025319526755;-7.0283;-0.6144;-2.0474;
5256025329651234;-7.0642;0.0206;-2.7350;
5256025339739359;-8.3483;0.4878;-5.1999;
5256025349840922;-9.2560;0.8734;-4.8455;
5256025359968526;-9.3520;1.1489;-2.9818;
5256025370050609;-8.0321;0.9930;-3.4346;
5256025380165193;-9.1603;-0.0826;-5.3127;
5256025390278526;-10.0923;-1.1916;-5.4778;
5256025400355870;-9.9054;-1.3328;-4.9484;
5256025410473995;-9.5004;-0.2094;-3.7555;
5256025420606755;-6.9039;0.4253;-1.6044;
5256025430678370;-6.3553;0.4684;-1.8320;
5256025440779359;-8.2358;0.3823;-5.0180;
5256025450876651;-10.3244;-0.0105;-7.8470;
5256025460983266;-10.6409;0.0350;-7.7201;
5256025471077641;-9.8647;0.7295;-5.2478;
5256025481172016;-8.6477;2.7347;-3.6981;
5256025491316182;-7.0140;3.8198;-3.2692;
5256025501410557;-7.1073;3.7696;-3.3027;
5256025511504932;-7.5458;3.3048;-3.6404;
5256025521625922;-8.9064;2.1526;-5.3725;
5256025531720297;-11.4817;1.1465;-7.4375;
5256025541814672;-11.1655;1.6687;-7.6890;
5256025551951182;-8.9231;1.7357;-5.7628;
5256025562045557;-7.0977;2.9719;-3.4872;
5256025572139932;-5.5433;3.6497;-2.1123;
5256025582248005;-7.0881;2.2149;-4.5604;
5256025592342380;-11.0934;0.9763;-7.8565;
5256025602436755;-12.1331;1.1417;-6.8623;
5256025612562797;-10.0732;0.8853;-4.0525;
5256025622657172;-8.5878;0.8016;-3.2859;
5256025632751547;-6.7672;0.3655;-3.9135;
5256025642900349;-7.3875;-0.3194;-3.9808;
5256025652994724;-8.2502;-0.2644;-2.4260;
5256025663089099;-9.3808;-0.7723;-3.0823;
5256025673188422;-11.7595;-1.3974;-5.0731;
5256025683282797;-11.1102;-0.8345;-5.1712;
5256025693377172;-8.7218;-0.9855;-3.1014;
5256025703526443;-6.9087;-0.2357;-0.8976;
5256025713620818;-6.4869;-0.6861;-1.5876;
5256025723715193;-9.7137;-1.4360;-5.4514;
5256025733827172;-11.1512;-0.8970;-6.7762;
5256025743921547;-10.0322;0.9212;-4.0406;
5256025754015922;-4.0173;3.5515;-3.4896;
5256025764130661;-6.5659;3.1493;-7.6217;
5256025774225036;-11.3330;3.7481;-7.2266;
5256025784319411;-10.9211;4.1360;-2.7470;
5256025794447068;-9.6371;3.8964;-2.2726;
5256025804541443;-8.7027;3.8222;-6.2635;
5256025814635818;-8.5089;3.7170;-7.7154;
5256025824757797;-6.3817;3.4439;-3.9159;
5256025834852172;-6.4630;2.0566;-5.0803;
5256025844946547;-9.9915;1.6519;-9.8689;
5256025855076859;-10.7079;1.9513;-7.9020;
5256025865171234;-5.5167;2.3922;-3.1735;
5256025875265609;-4.7432;2.0255;-3.7555;
5256025885377224;-6.4869;0.2913;-2.8403;
5256025895471599;-7.1530;-0.8130;-1.2497;
5256025905565974;-10.5664;-1.0908;-3.4226;
5256025915701026;-14.7658;-2.2863;-4.2419;
5256025925795401;-12.9476;-2.4538;-0.8474;
5256025935889776;-8.3339;-1.2610;0.5276;
5256025946026807;-6.8342;-1.9726;-3.1352;
5256025956121182;-7.8667;-1.8431;-3.7771;
5256025966215557;-8.6931;-1.3711;-2.7733;
5256025976324255;-11.5176;-1.2012;-3.6814;
5256025986418630;-12.4301;-0.5710;-3.1591;
5256025996513005;-9.4860;0.2889;-1.2954;
5256026006638318;-8.9136;-0.4155;-1.8464;
5256026016732693;-11.3378;-0.0248;-2.6632;
5256026026827068;-9.3377;1.1177;-0.3514;
5256026036948318;-9.0574;0.8853;-0.1983;
5256026047042693;-10.6935;0.4854;-2.6130;
5256026057137068;-9.7902;1.1106;-2.5672;
5256026067279724;-10.7246;1.6280;-2.7015;
5256026077374099;-10.3678;1.6854;-3.3840;
5256026087468526;-7.6968;1.8820;-2.7589;
5256026097577068;-7.6343;1.3478;-2.9435;
5256026107671443;-9.1196;1.1752;-3.6814;
5256026117765818;-7.6801;1.7285;-3.1783;
5256026127891338;-8.6285;1.4100;-3.1639;
5256026137985713;-10.2742;1.1225;-3.7268;
5256026148080088;-9.1029;1.6639;-2.6106;
5256026158203109;-8.8370;1.0890;-1.9923;
5256026168297484;-10.3487;0.2674;-3.4418;
5256026178391859;-9.7352;1.0077;-1.9277;
5256026188510349;-6.7648;0.7032;-0.6437;
5256026198604724;-8.3770;-0.0754;-2.8140;
5256026208699099;-9.9891;0.4926;-3.3553;
5256026218826755;-11.6133;1.4387;-3.6547;
5256026228921130;-11.7882;1.1704;-3.5830;
5256026239015505;-9.5940;0.9811;-2.2415;
5256026249134672;-8.5974;1.0723;-2.4523;
5256026259248213;-10.5281;1.8317;-2.4523;
5256026269342641;-7.4620;1.2494;-1.7647;
5256026279437016;-7.1363;0.2052;-4.4237;
5256026289575557;-10.2239;0.0541;-5.4491;
5256026299669932;-8.8681;1.8317;-5.2597;
5256026309764359;-9.0766;1.0914;-6.0072;
5256026319867901;-9.9652;0.2794;-5.5857;
5256026329962276;-7.2464;1.3286;-3.5207;
5256026340056651;-7.3540;-0.0105;-4.2156;
5256026350182901;-10.7940;-0.0583;-5.3629;
5256026360277276;-8.8705;0.9500;-5.7102;
5256026370371651;-9.7591;-0.0921;-6.8913;
5256026380491078;-9.1986;0.1307;-6.4170;
5256026390585401;-7.2416;-0.3987;-6.3114;
5256026400679776;-9.8432;-1.1486;-5.9234;
5256026410797745;-7.4955;0.1355;-2.1338;
5256026420892120;-5.9384;-1.6875;-3.1998;
5256026430986495;-10.9546;-1.9869;-5.3988;
5256026441122953;-9.1890;-1.6585;-4.7183;
5256026451217328;-8.5519;-1.8407;-6.2563;
5256026461311703;-9.7687;-1.3376;-6.8818;
5256026471426651;-9.7424;-1.7402;-6.3138;
5256026481521026;-7.1937;-0.8946;-5.7341;
5256026491615401;-7.4883;-1.8861;-5.2816;
5256026501762016;-8.8657;-0.7053;-5.0492;
5256026511856391;-9.2417;-0.9209;-5.1090;
5256026521950766;-10.0828;-0.1376;-3.3960;
5256026532059568;-8.2645;-0.0655;-2.8379;
5256026542153943;-6.3625;-1.0286;-4.5078;
5256026552248318;-6.9135;-1.6178;-5.5376;
5256026562372328;-7.5434;-0.5542;-5.9091;
5256026572466703;-13.1728;0.8423;-6.1439;
5256026582561078;-9.9102;0.4854;-3.8130;
5256026592688734;-2.8842;-0.5901;-4.9173;
5256026602783109;-8.8466;-1.3304;-8.1607;
5256026612877484;-12.7032;-1.0190;-8.4194;
5256026622999463;-9.8791;1.6328;-6.2827;
5256026633093838;-10.0609;-0.4107;-4.7426;
5256026643188213;-10.0346;-0.8130;-1.9540;
5256026653322068;-6.3266;-1.0597;1.1001;
5256026663416443;-9.0383;-1.0836;-1.6666;
5256026673510818;-11.2469;-1.0047;-1.6594;
5256026683623838;-9.7256;0.5835;-2.7182;
5256026693718213;-8.8418;0.2267;-3.8369;
5256026703812588;-9.2707;1.4219;-4.3208;
5256026713940818;-11.1894;2.2555;-2.6465;
5256026724035193;-7.9795;3.1947;-1.1109;
5256026734129568;-7.7758;1.0747;-3.1878;
5256026744258526;-9.8767;1.0771;-3.1277;
5256026754352901;-8.8753;2.1503;-2.9315;
5256026764447276;-9.1771;2.3154;-2.9076;
5256026774566859;-11.5965;1.3095;-5.0276;
5256026784661234;-9.8360;2.6964;-2.1793;
5256026794755609;-7.6872;1.5993;-1.5948;
5256026804883838;-9.1890;0.7199;-3.9664;
5256026814978213;-11.0839;1.2302;-3.1181;
5256026825072588;-9.2850;1.0125;-3.6547;
5256026835194984;-8.3674;0.5907;-2.2319;
5256026845289359;-8.4224;1.2087;-3.4561;
5256026855383734;-8.9925;1.0795;-2.6441;
5256026865514880;-8.0752;1.1800;-5.0611;
5256026875609255;-11.2229;0.3416;-5.4227;
5256026885703630;-8.7147;1.2398;-3.3266;
5256026895827172;-8.4559;1.0268;-2.6512;
5256026905921547;-7.9316;-0.2405;-3.3840;
5256026916015922;-9.4549;0.5764;-2.4308;
5256026926139828;-9.5342;0.0015;-4.8503;
5256026936234203;-9.8312;0.2124;-4.9819;
5256026946328578;-9.5773;-0.1950;-4.9244;
5256026956456911;-9.0000;1.3238;-2.9770;
5256026966551286;-7.7231;0.3823;-0.7684;
5256026976645661;-8.8035;0.4684;-4.2491;
5256026986768734;-11.4242;0.3224;-3.2189;
5256026996863109;-6.4702;1.0172;-2.3614;
5256027006957484;-8.4897;0.5812;-4.8096;
5256027017083422;-11.7404;0.3248;-4.7737;
5256027027177797;-10.4874;2.0785;-2.3399;
5256027037272172;-6.7122;-0.8082;-1.9158;
5256027047385818;-9.0263;0.7295;-4.6442;
5256027057480193;-9.9102;-0.0488;-2.7517;
5256027067574568;-9.1244;0.7633;-3.6452;
5256027077707172;-9.8886;0.2148;-3.4059;
5256027087801547;-8.8801;-0.2500;-3.4681;
5256027097895922;-8.6285;0.6984;-2.5217;
5256027108015088;-8.4778;-0.6120;-3.2309;
5256027118109463;-10.8227;-0.1232;-4.0884;
5256027128203838;-10.4228;0.0254;-1.8392;
5256027138324984;-7.2799;-0.4968;-2.6106;
5256027148419359;-9.0096;-0.7627;-3.4418;
5256027158513734;-9.1412;-1.2778;-3.7962;
5256027168657588;-9.4334;0.3057;-3.3099;
5256027178751963;-9.5219;-0.5614;-3.0727;
5256027188846338;-9.6491;-1.0214;-4.8814;
5256027198957849;-10.6481;-0.7819;-3.2740;
5256027209052224;-7.5194;-0.2094;-2.1051;
5256027219146599;-7.3277;0.1116;-3.2070;
5256027229262484;-10.1856;-1.0095;-3.6093;
5256027239356859;-10.9834;1.2254;-3.6021;
5256027249451234;-11.9342;0.7199;-3.4274;
5256027259579307;-7.9436;-1.2012;-4.0741;
5256027269681651;-4.4581;0.0685;-4.4839;
5256027279783995;-6.3625;-0.7316;-4.7928;
5256027289937849;-8.7820;0.9188;-6.1295;
5256027300040193;-8.8992;1.5658;-6.2348;
5256027310142536;-9.9509;1.0364;-5.7030;
5256027320193838;-4.7743;1.7309;-4.2706;
5256027330296182;-6.9326;-0.0392;-5.8588;
5256027340398526;-29.4431;1.2254;-3.5351;
5256027350530661;-16.2440;5.0704;6.5477;
5256027360632953;-2.3955;0.2339;4.9140;
5256027370735297;-6.2809;-6.0808;-1.4749;
5256027380820557;-5.8427;-2.8421;-3.3721;
5256027390922849;-9.3951;1.0890;-5.6408;
5256027401025245;-10.5162;1.2709;-7.2888;
5256027411152172;-6.8656;2.1407;-7.5811;
5256027421254516;-7.6247;2.5884;-5.8181;
5256027431356859;-5.1072;2.7610;-5.5738;
5256027441480818;-8.8394;1.4506;-7.1788;
5256027451583161;-12.6864;1.6783;-5.7676;
5256027461685453;-9.6036;2.4544;-0.5360;
5256027471789307;-6.7648;-0.0440;-0.8761;
5256027481891599;-10.1856;-2.6145;-5.6456;
5256027491993995;-10.5497;-1.6370;-1.8081;
5256027502123161;-7.6199;0.7032;-2.2630;
5256027512225453;-8.3435;0.3870;-3.2836;
5256027522327849;-9.0957;0.2650;-3.2166;
5256027532403891;-10.1617;1.2685;-3.3601;
5256027542506234;-7.8667;1.1465;-3.5160;
5256027552608578;-8.3530;0.0206;-5.1568;
5256027562710922;-8.9758;0.6147;-3.0894;
5256027572813266;-4.2664;1.3884;-3.7747;
5256027582915609;-11.0982;-0.3867;-15.0311;
5256027593024359;-16.3636;0.6338;-13.4405;
5256027603126651;-9.1077;4.4067;1.8811;
5256027613228995;-6.4128;3.2043;2.9662;
5256027623344203;-9.2273;0.2171;-0.8402;
5256027633446547;-10.6792;-0.1591;-0.8904;
5256027643548891;-7.9603;0.4926;0.6114;
5256027653649620;-7.1937;-0.7531;-2.1194;
5256027663751963;-10.9522;-1.6250;-4.9771;
5256027673854307;-10.3822;0.6936;-3.1711;
5256027683967745;-8.6548;-0.2070;-2.3853;
5256027694070088;-9.6826;-0.1878;-6.1463;
5256027704172432;-8.3937;0.2411;-5.7485;
5256027714278786;-6.6069;0.9643;-3.6814;
5256027724381130;-9.5243;0.6314;-5.0252;
5256027734483474;-11.0025;0.6625;-2.8092;
5256027744596182;-9.9461;1.6065;-0.5336;
5256027754698526;-9.7256;-0.0993;-0.2701;
5256027764800870;-7.8188;-1.3376;-2.6895;
5256027774921495;-11.0456;-1.1004;-3.2501;
5256027785023838;-12.7944;-0.0897;-1.1372;
5256027795126182;-9.0503;-0.2166;0.7098;
5256027805221078;-7.3086;-0.3772;-3.0942;
5256027815323422;-9.4741;-0.2907;-5.4347;
5256027825425766;-9.7496;0.8925;-4.0095;
5256027835542328;-10.2503;0.3703;-4.1028;
5256027845644672;-6.7337;0.6170;-3.7914;
5256027855747016;-3.2483;0.3440;-3.8704;
5256027865846859;-8.8585;-0.2142;-5.0731;
5256027875949203;-15.8318;0.5955;-3.3290;
5256027886051547;-15.8342;0.8806;0.2521;
5256027896156599;-8.4559;0.9691;0.7792;
5256027906258943;-3.1669;-1.5389;-2.5337;
5256027916361286;-4.8317;-1.3543;-6.7140;
5256027926475453;-13.1369;0.4445;-5.1975;
5256027936577797;-14.4497;2.6318;0.7935;
5256027946680141;-7.4453;1.2278;-1.6714;
5256027956807849;-5.9815;-1.0406;-5.6001;
5256027966910193;-6.9302;0.4134;-4.9196;
5256027977012536;-14.5286;0.9021;-4.6250;
5256027987101807;-11.0240;1.6017;-0.9311;
5256027997204151;-4.4892;0.9978;-3.5160;
5256028007306495;-5.9504;-0.3891;-7.2769;
5256028017419203;-10.3989;1.6998;-6.1367;
5256028027521547;-18.3374;2.9671;-2.9435;
5256028037623891;-7.8595;2.5454;2.7580;
5256028047738630;-3.8662;0.8375;0.1397;
5256028057840922;-12.6553;-1.4838;-4.8024;
5256028067943266;-11.5534;0.1690;-0.7899;
5256028078043578;-5.3444;0.7777;-0.9263;
5256028088145922;-9.5868;0.0613;-7.4447;
5256028098248266;-11.4888;0.7896;-7.4351;
5256028108354724;-12.8566;2.4855;-4.1865;
5256028118457068;-2.5582;0.8136;-1.5036;
5256028128559411;-4.6591;0.8949;-3.7484;
5256028138666599;-11.9560;-0.1113;-4.3208;
5256028148768943;-11.8816;1.2565;-4.0693;
5256028158871286;-11.8576;0.7056;-4.4982;
5256028169005766;-4.8174;-0.6096;-0.1597;
5256028179108057;-5.2412;0.2291;-2.0740;
5256028189210453;-12.2243;0.4445;-6.6661;
5256028199291911;-13.6017;0.6075;-6.0048;
5256028209394203;-9.7591;1.7189;-1.0223;
5256028219496495;-6.8632;0.5812;0.1923;
5256028229604411;-7.3325;-0.6885;-3.4896;
5256028239706755;-11.3952;1.1321;-6.2396;
5256028249809099;-11.4434;0.7319;-3.2907;
5256028259946599;-6.9924;1.5105;-2.2247;
5256028270050766;-7.7542;-0.0153;-6.9416;
5256028280155036;-11.3809;1.0077;-6.2324;
5256028290221338;-8.8753;1.8508;0.2115;
5256028300325609;-6.6260;-0.0009;-3.0344;
5256028310429880;-9.5438;0.1738;-6.7929;
5256028320545088;-11.1775;0.4711;-3.3386;
5256028330649307;-7.9938;1.0507;3.6634;
5256028340753526;-9.1292;-0.6024;-3.3027;
5256028350868109;-12.4732;-1.7593;-5.8083;
5256028360972328;-6.9374;-0.5231;-2.1386;
5256028371076599;-6.8728;1.0388;-4.3424;
5256028381175870;-10.0179;-0.2859;-4.9244;
5256028391280141;-12.7944;0.2961;-3.1181;
5256028401384359;-8.7939;1.1273;-1.1515;
5256028411482276;-5.0545;0.4711;-3.2548;
5256028421586547;-8.5496;-1.1267;-7.3630;
5256028431690766;-9.8815;-0.2835;-4.7040;
5256028441811547;-10.1641;1.0196;-4.7785;
5256028451915766;-12.6793;1.5395;-1.6834;
5256028462020036;-10.1856;0.7319;0.1804;
5256028472154880;-8.5089;-0.1137;-0.0401;
5256028482259099;-5.2316;-0.9185;-4.5485;
5256028492363370;-8.0847;-1.6370;-4.2682;
5256028502417536;-8.3363;-0.6861;-3.8512;
5256028512521755;-11.2421;0.7490;-3.7507;
5256028522626026;-7.7471;0.6266;-3.1567;
5256028532749776;-5.9480;-0.4107;-6.8073;
5256028542853995;-10.6505;-0.6144;-6.6900;
5256028552958266;-12.5764;1.0651;-1.3193;
5256028563066130;-10.2550;2.3273;1.1554;
5256028573170349;-10.1689;0.7152;-0.0879;
5256028583274620;-9.5414;0.1594;-2.3710;
5256028593371026;-8.6716;-0.3532;-4.2467;
5256028603475245;-9.1101;-1.3519;-2.7446;
5256028613579516;-10.1833;0.4807;-1.4414;
5256028623694151;-9.9963;1.1512;-2.1984;
5256028633798370;-10.8395;1.5272;-2.7206;
5256028643902641;-8.6883;0.0924;-3.1831;
5256028654004568;-7.0642;-0.0511;-4.8335;
5256028664108786;-9.5533;-0.5255;-5.7532;
5256028674213109;-10.6122;0.8590;-1.4988;
5256028684310453;-9.2225;1.9442;-0.7493;
5256028694414724;-8.2669;0.9858;-0.9790;
5256028704518943;-5.7562;-0.2046;-4.2084;
5256028714625036;-10.0633;-0.6981;-6.0024;
5256028724729255;-8.6070;0.3440;-0.7277;
5256028734833526;-9.2225;0.9595;-2.3518;
5256028744945713;-12.9643;0.1618;-5.2095;
5256028755049932;-6.9781;0.4421;-4.0382;
5256028765154203;-6.1828;1.0436;-5.6192;
5256028775264047;-11.2373;0.7343;-7.0301;
5256028785368266;-10.8395;1.5730;-2.3997;
5256028795472536;-6.1732;2.5382;-2.5337;
5256028805566026;-12.0685;0.6123;-4.0119;
5256028815670245;-11.0623;1.8102;-0.8402;
5256028825774516;-7.8667;0.8040;-2.2056;
5256028835882380;-8.6740;0.5692;-2.7039;
5256028845986599;-9.8408;0.0182;-1.9780;
5256028856090870;-10.8900;1.0316;-3.2859;
5256028866200713;-6.7337;0.3942;-2.8741;
5256028876304932;-8.3219;0.0972;-5.6312;
5256028886409203;-10.4109;0.0781;-3.5614;
5256028896507901;-8.7604;1.6974;-0.4089;
5256028906612120;-8.6070;0.0159;-2.9985;
5256028916716391;-8.3626;-0.2740;-5.4873;
5256028926825297;-9.4669;0.4516;-3.3888;
5256028936929516;-9.0933;0.4349;-4.2443;
5256028947033786;-9.4334;0.6625;-4.0238;
5256028957145505;-9.2994;0.6266;-2.5193;
5256028967249724;-11.4218;0.5309;-2.1170;
5256028977353995;-11.5199;0.0254;-1.1683;
5256028987446338;-8.3483;0.2961;-1.7961;
5256028997550557;-10.8443;-0.4346;-4.1650;
5256029007654828;-9.0885;0.2148;-0.7445;
5256029017757380;-5.9169;0.3679;-0.8091;
5256029027861599;-9.2608;-1.3615;-5.2478;
5256029037965870;-13.3310;-0.3170;-5.8035;
5256029048064047;-8.7509;1.6089;-1.5326;
5256029058168266;-5.8475;0.4134;-2.7972;
5256029068272536;-10.1234;-1.1629;-5.3486;
5256029078383213;-15.3191;-0.3027;-1.2978;
5256029088487484;-5.0330;0.6817;-1.2882;
5256029098591703;-4.5562;-1.6298;-6.1654;
5256029108703734;-10.5736;-0.2835;-5.7030;
5256029118808005;-9.6778;0.5118;-1.2978;
5256029128912224;-7.4477;-0.7675;-4.0119;
5256029139011703;-11.3163;-0.7507;-5.6169;
5256029149115922;-8.8561;0.0422;-4.7545;
5256029159220193;-5.5095;0.2052;-3.7962;
5256029169333005;-10.2933;0.1044;-4.6896;
5256029179437224;-16.3110;1.3238;-3.9377;
5256029189541495;-9.7400;2.7610;0.8557;
5256029199648422;-1.1785;1.4961;-1.1085;
5256029209752641;-8.8490;-2.3701;-5.3127;
5256029219856911;-9.5557;0.3368;-3.2979;
5256029229965453;-10.6146;-0.0778;-3.3817;
5256029240069672;-18.9532;1.7955;-5.1568;
5256029250173943;-2.3357;0.5261;-0.4618;
5256029260246078;-3.8877;-0.0655;-7.2314;
5256029270350141;-12.1810;-0.0969;-1.8535;
5256029280454203;-10.7916;2.8448;0.9182;
5256029290570609;-10.9953;1.8652;-3.6694;
5256029300674672;-8.8226;-0.6742;1.4285;
5256029310778734;-7.4596;0.1546;-5.9665;
5256029320900245;-13.9657;-1.3304;-7.1354;
5256029331004307;-6.7935;2.2866;1.7853;
5256029341108370;-5.2630;1.4698;-3.3793;
5256029351200453;-12.4421;-0.2835;-7.7991;
5256029361304516;-10.0732;2.3058;-1.6929;
5256029371408630;-7.8739;2.3755;-1.0152;
5256029381506234;-8.0632;0.9500;-1.0869;
5256029391610297;-4.2209;-0.2883;-2.0426;
5256029401714411;-8.1063;-1.0980;-11.8116;
5256029411827901;-16.7662;-0.4107;-11.8283;
5256029421931963;-8.8657;2.8280;2.0991;
5256029432036078;-6.2043;4.0594;1.0235;
5256029442142380;-6.8318;0.6051;-3.4681;
5256029452246443;-9.9844;-1.6633;-5.0468;
5256029462350557;-10.0609;-0.0778;-3.3290;
5256029472456651;-6.9470;1.7501;-2.1099;
5256029482560713;-11.0145;0.4735;-8.1775;
5256029492664776;-20.2588;0.6003;-3.9951;
5256029502773318;-4.0053;2.7754;6.2049;
5256029512877380;-4.8700;2.1766;-3.3123;
5256029522981443;-11.7715;-2.7966;-5.5427;
5256029533090297;-3.6051;-0.4131;-1.0199;
5256029543194359;-11.6372;1.1512;-5.4275;
5256029553298422;-11.4266;-0.3437;-5.3629;
5256029563401026;-6.5204;-0.6407;-0.9072;
5256029573505088;4.1372;-0.0129;-5.9210;
5256029583609151;-24.7887;-0.8489;-9.1549;
5256029593722901;-20.1150;0.9978;5.8768;
5256029603827016;-1.4850;3.0604;4.4468;
5256029613931026;-5.0450;-1.9917;-6.5318;
5256029624028943;-10.3220;-4.8039;-4.5891;
5256029634133005;-12.0422;0.8160;-2.4093;
5256029644237068;-16.9050;0.6170;0.7193;
5256029654349776;-9.6921;0.7247;-1.9540;
5256029664453838;1.2434;0.0230;-6.2994;
5256029674557953;-5.3946;-1.1605;-5.5232;
5256029684652797;-15.5252;-0.3820;-5.5881;
5256029694756859;-11.6420;1.1728;-0.9694;
5256029704860974;-10.6672;-0.1687;-2.5528;
5256029714970609;-10.2383;0.1522;-0.3203;
5256029725074672;-2.1535;-0.5183;-2.2606;
5256029735178734;-3.8925;-0.7507;-3.9520;
5256029745292120;-9.0048;-1.1462;-7.9860;
5256029755396182;-21.2288;0.2339;-10.1420;
5256029765500297;-10.6481;1.0340;0.4271;
5256029775599984;-1.2673;0.9093;0.3697;
5256029785704047;-13.5033;-0.2596;-4.2467;
5256029795808109;-8.6022;-2.2648;5.0767;
5256029805906078;-5.2845;0.0613;-8.8364;
5256029816010088;-17.8609;-0.5542;-11.6246;
5256029826114203;-8.4802;-1.4097;8.4879;
5256029836231130;-1.2577;0.8925;1.9050;
5256029846335193;-7.8954;-0.9449;-13.0382;
5256029856439255;-12.3009;-2.6336;-6.9177;
5256029866534047;-11.9776;0.5788;-1.5350;
5256029876638109;-10.8084;2.1311;-2.4117;
5256029886742172;-7.3660;-0.5016;2.2164;
5256029896853213;-7.3828;0.1283;1.9938;
5256029906957276;-11.1317;-0.5901;-6.1678;
5256029917061338;-12.0111;-0.9544;-8.2878;
5256029927157588;-8.0728;1.4602;1.5194;
5256029937261651;-3.9790;1.1154;2.1182;
5256029947365766;-11.4649;-0.3628;-12.0703;
5256029957461859;-13.4913;-0.1591;-5.2023;
5256029967565974;-2.3883;2.3683;4.9164;
5256029977670036;-5.1742;0.7633;-9.0425;
5256029987792068;-12.9978;0.0685;-9.6150;
5256029997896130;-3.8160;1.0220;2.3961;
5256030008000193;-3.9359;0.8590;-3.5877;
5256030018094463;6.4391;-1.3400;-12.1923;
5256030028198526;-13.0531;-2.1473;-10.7073;
5256030038302588;-39.5785;3.0126;0.7146;
5256030048426599;-24.5444;7.1207;12.2584;
5256030058530661;-1.0373;8.1700;7.7237;
5256030068634724;3.2291;-5.8914;-1.7073;
5256030078727068;-8.0297;-3.8554;-5.0994;
5256030088831130;-14.1622;3.0556;-3.4609;
5256030098935193;-10.2933;1.2541;-2.7087;
5256030109038526;-8.3459;1.5491;-4.8742;
5256030119142536;-4.8102;-0.5327;-6.8192;
5256030129246651;-7.4237;-0.4944;-3.0368;
5256030139356651;-10.4827;0.1379;-3.1181;
5256030149460713;-9.2393;-0.6646;-1.8224;
5256030159564776;-3.9742;-0.2788;0.4487;
5256030169687693;-10.3822;-1.6828;1.7327;
5256030179791807;-0.2659;-1.1557;7.3286;
5256030189895870;-18.1412;-1.5173;-28.8293;
5256030200004359;-28.0944;-1.5796;-25.4109;
5256030210108422;-1.3989;3.5779;16.1441;
5256030220212536;-1.3104;4.3636;7.4961;
5256030230283734;-16.1001;1.5419;-10.1922;
5256030240387849;-15.2593;-1.3376;-2.8092;
5256030250491911;-8.9447;3.5683;6.1905;
5256030260642068;-5.8259;0.4493;1.0834;
5256030270746859;-9.6730;-0.1519;-3.6694;
5256030280851703;-12.7633;-1.6513;-2.9626;
5256030290926599;-10.9570;-0.2596;-1.1372;
5256030301031443;-9.6060;-0.9832;-5.3222;
5256030311136286;-9.2560;-0.5351;-1.5203;
5256030321251130;-4.9442;-0.6335;-2.5170;
5256030331355974;-8.7652;-0.6718;-9.4974;
5256030341460818;-12.6266;-0.7101;-8.3381;
5256030351556963;-5.2702;-0.2524;-2.2295;
5256030361661807;-5.6294;-0.1065;-8.7165;
5256030371766651;-8.3267;-0.6814;-9.1478;
5256030381854099;3.5070;-0.2931;-5.5738;
5256030391958943;-2.9895;-0.8680;-13.0884;
5256030402063786;-11.0192;-0.3003;-7.9765;
5256030412192641;-10.6337;0.1570;-1.2954;
5256030422297536;-16.9648;2.0064;0.6452;
5256030432402328;-14.6462;2.0255;0.3407;
5256030442477224;-11.2780;3.9036;1.8954;
5256030452582120;-8.6692;1.1536;-0.0114;
5256030462686963;-16.2078;-1.6083;0.8701;
5256030472800193;-26.6067;0.5501;3.2273;
5256030482904984;-6.1732;1.3119;7.0098;
5256030493009880;2.0985;-0.0607;0.0126;
5256030503115401;-7.3708;-0.5183;-5.0324;
5256030513220245;-10.4970;-0.5758;-4.7426;
5256030523325088;-11.3617;0.2195;-4.9675;
5256030533431130;-6.4439;0.0733;3.0718;
5256030543535974;-2.7643;-1.1677;2.9160;
5256030553640818;-5.2364;-2.5116;-6.2635;
5256030563741859;-8.2478;-2.6121;-12.8560;
5256030573846703;-14.5071;-1.1557;-15.4840;
5256030583951547;-11.5295;0.7394;-4.0095;
5256030594057172;-2.4864;1.2589;0.9159;
5256030604162016;-5.7395;0.8614;-7.2171;
5256030614266859;-17.3028;2.6366;-14.3626;
5256030624372901;-17.3889;4.3277;-3.4035;
5256030634477745;-1.1737;4.5027;9.6760;
5256030644582588;-3.9168;3.3550;0.6165;
5256030654692797;-20.7882;-1.3926;-4.0741;
5256030664797641;-13.6663;-1.1701;4.6863;
5256030674902484;-4.6424;0.9523;3.2106;
5256030684995453;-4.2616;-1.5987;-4.4118;
5256030695100245;-8.3339;-2.5355;-6.5844;
5256030705205088;-9.1555;-1.7521;-0.2198;
5256030715322484;-5.3157;0.0206;-4.6442;
5256030725427328;-10.1330;-0.9281;-10.6690;
5256030735532172;-17.3267;0.1762;-2.9650;
5256030745624151;-11.0384;1.8508;2.9662;
5256030755728995;-10.8323;1.6184;-3.3577;
5256030765833838;1.8996;-1.1533;-5.5451;
5256030775945453;5.9527;-1.1892;-4.4189;
5256030786050297;-12.6099;-0.2429;-7.7178;
5256030796155141;-17.7338;0.5285;-4.5485;
5256030806256443;-27.8261;2.8161;-0.9263;
5256030816361286;-16.2799;4.5242;7.8413;
5256030826466130;-2.4170;5.2522;8.8041;
5256030836567068;-13.4148;-3.3236;-0.0544;
5256030846671911;-6.9924;-3.4337;0.0006;
5256030856776755;1.8159;-0.0272;-0.1549;
5256030866893630;-8.8872;0.1020;-8.5848;
5256030876998474;1.6098;-1.2443;-13.8308;
5256030887103318;-14.8567;-2.5164;-13.6561;
5256030897194672;-18.6371;1.9035;-10.4964;
5256030907299516;-11.5032;4.5362;2.3746;
5256030917404359;0.1965;2.1048;15.5498;
5256030927513526;-4.3813;2.1239;-0.6054;
5256030937618370;-18.8548;-0.3556;-13.4237;
5256030947723161;-6.7385;-3.5800;-6.5581;
5256030957830609;-6.1923;0.2435;-11.9889;
5256030967935453;-6.9230;2.0710;-8.7646;
5256030978040245;-9.7065;1.1249;-6.7834;
5256030988120818;-25.2078;1.8341;-0.8713;
5256030998225713;-15.6736;5.4440;18.3550;
5256031008330505;-1.9690;6.5148;9.2426;
5256031018442276;3.7274;-7.2712;0.0341;
5256031028547120;1.1665;-7.1444;-9.9838;
5256031038651963;-30.3198;0.5213;-21.8462;
5256031048750609;-20.5104;-1.1988;6.0565;
5256031058855453;2.6590;2.8376;4.9307;
5256031068960297;0.9942;0.3368;-14.2119;
5256031079070453;-0.6060;-3.3643;-10.1539;
5256031089175297;-3.7872;-1.8766;-6.8049;
5256031099280193;-41.6913;3.2330;0.8366;
5256031109390609;-26.4224;6.8022;15.3990;
5256031119495401;12.6266;7.9304;1.4429;
5256031129600245;16.5338;-8.7230;-17.9728;
5256031139695818;-2.5750;-8.5289;-24.6515;
5256031149800661;-32.5932;-1.3519;-7.5284;
5256031159905453;-14.9815;6.4525;19.7563;
5256031170062693;-1.1450;6.7854;2.6405;
5256031180167536;-10.7318;2.4688;-17.4218;
5256031190272328;-7.3301;-4.1692;-3.6045;
5256031200303943;-6.9302;-0.3123;5.2421;
5256031210408734;-0.1125;1.5969;0.0652;
5256031220513578;-28.7961;0.0685;3.5148;
5256031230674516;-24.9754;1.6089;13.3292;
5256031240779359;-6.0823;3.4654;-25.2239;
5256031250884151;16.5529;-3.6757;-21.7768;
5256031260963422;-9.1938;-4.0612;9.6257;
5256031271049411;-32.6913;2.3417;17.0136;
5256031281153786;-4.9777;6.4023;6.0159;
5256031291258161;-12.2049;1.6472;-21.3096;
5256031301365818;-6.8919;-4.1716;0.3960;
5256031311470193;7.8718;-2.4586;8.6195;
5256031321574568;-10.2215;0.8614;-20.2101;
5256031331681963;-22.6062;-3.8195;-11.4404;
5256031341786338;-7.7973;0.1475;10.2150;
5256031351890713;9.4863;4.0810;0.4941;
5256031361991026;-8.2860;-1.9510;-34.7988;
5256031372095401;-27.4188;-1.6561;-20.6821;
5256031382199776;-13.3167;5.6046;30.0643;
5256031392306859;12.8423;8.0432;26.4398;
5256031402411234;-19.0537;8.1102;-41.6931;
5256031412515609;-26.5469;-6.9287;-21.5779;
5256031422622068;9.6826;-4.9502;31.5159;
5256031432726443;-2.3142;8.3426;-2.7948;
5256031442830818;-19.0896;1.6878;-22.3205;
5256031452946443;-17.9447;-4.3391;6.2794;
5256031463050818;-5.2726;1.9825;12.0212;
5256031473155193;-10.8251;3.5300;-7.0205;
5256031483249359;-15.4917;-0.5949;-7.1115;
5256031493353734;1.8111;-1.2610;10.5721;
5256031503458109;0.0239;1.0196;-6.2779;
5256031513563005;-15.6978;-2.1736;-24.1723;
5256031523667380;-14.4473;-2.5594;-1.8248;
5256031533771755;-5.8738;3.6042;5.3880;
5256031543876963;-11.3258;4.5386;-5.6360;
5256031553981338;-8.9782;-0.2955;1.3708;
5256031564085713;-6.9996;1.6878;0.6066;
5256031574188943;-7.9603;1.6089;-6.6948;
5256031584293318;-7.1937;-0.5016;-4.1698;
5256031594397693;-9.6132;0.6601;-5.1664;
5256031604508734;-11.4984;0.7104;-7.7991;
5256031614613109;-11.7858;1.2015;-2.2845;
5256031624717484;-9.3257;1.8604;2.5711;
5256031634822901;-10.1378;1.6137;-0.3467;
5256031644927276;-14.3010;0.4831;0.1038;
5256031655031651;-6.6404;-0.0105;1.5194;
5256031665131547;-7.9050;0.0781;-5.6958;
5256031675235922;-9.2850;-1.3065;-5.9163;
5256031685340297;-4.8963;-1.1653;-1.0223;
5256031695458526;-9.6084;-0.5327;-6.3858;
5256031705562901;-16.6391;-0.7723;-2.9435;
5256031715667276;-11.9151;0.2506;5.5941;
5256031725760870;-7.0427;0.1953;-1.1492;
5256031735865245;-4.8724;-1.8957;-9.2602;
5256031745969620;-10.3846;-1.6756;-4.0454;
5256031756075453;-11.2756;-0.9185;-1.9014;
5256031766179828;-11.1942;-0.1687;-5.9689;
5256031776284203;-10.6552;0.1618;-3.8154;
5256031786388630;-6.4008;0.0182;0.4415;
5256031796493005;-3.4208;-0.0081;-4.2610;
5256031806597380;-8.9853;-1.0765;-5.9785;
5256031816700141;-13.5873;-0.1735;-1.7767;
5256031826804516;-12.2865;0.0829;1.3110;
5256031836908891;-3.4591;-0.4992;-3.9951;
5256031847014672;-8.3650;-1.0382;-11.3994;
5256031857119047;-12.4974;-1.1219;-5.1401;
5256031867223422;-12.6458;0.5716;3.8862;
5256031877335609;-11.4458;1.4004;-1.6259;
5256031887439984;-12.6721;1.2999;-3.8369;
5256031897544359;-4.7767;-0.1663;2.3076;
5256031907643318;1.1812;-0.0224;-3.6212;
5256031917747693;-11.5343;-0.4298;-10.5945;
5256031927852068;-17.1350;-0.9951;1.4524;
5256031937948943;-7.4548;0.6242;4.9857;
5256031948053318;-3.1502;-0.8417;-5.8540;
5256031958157693;-8.2717;-1.2586;-11.7398;
5256031968263526;-9.6754;-0.8177;-1.9134;
5256031978367901;-5.8810;-0.0416;0.0966;
5256031988472276;-6.6595;0.2219;-9.2315;
5256031998581443;-11.9031;0.1762;-8.9321;
5256032008685766;-15.0700;1.7381;2.3315;
5256032018790193;-14.6988;2.1670;3.9700;
5256032028892120;-16.8045;2.2986;1.6080;
5256032038996495;2.3548;1.3525;8.0375;
5256032049100870;-4.4387;-0.7795;-5.9139;
5256032059205922;-27.2106;0.1642;-14.4706;
5256032069310297;-15.5683;0.0948;7.8314;
5256032079414672;-1.8613;1.1991;9.7409;
5256032089538318;-9.0861;-0.0009;-8.3022;
5256032099642693;-7.2488;-2.0468;-7.8661;
5256032109747016;-4.9609;-0.1998;-3.3601;
5256032119847172;-4.5993;-0.0464;0.0676;
5256032129951547;-4.3047;-1.9029;-6.6302;
5256032140055922;-19.2646;-1.2802;-12.9757;
5256032150129568;-10.4803;-0.1519;-7.0780;
5256032160233943;-11.4123;1.9274;-5.0204;
5256032170338318;-0.8815;-0.8273;5.6348;
5256032180503734;-4.3190;2.1550;-6.0622;
5256032190608109;-22.5248;0.8830;-15.4528;
5256032200712484;-7.8500;1.8269;1.2799;
5256032210765401;-1.5811;3.0580;-0.4881;
5256032220869776;-21.3703;0.9978;-5.0874;
5256032230974151;-19.8251;0.7152;8.4018;
5256032241117380;-3.3703;1.0412;11.0103;
5256032251221755;11.6088;-1.3639;-4.7136;
5256032261326130;-14.7108;-2.9019;-16.2383;
5256032271391495;-24.8318;-2.3533;-6.4433;
5256032281495818;-5.9216;0.2195;7.9107;
5256032291600193;-3.8351;0.0589;-7.0349;
5256032301734672;-2.6901;-1.7043;-9.7298;
5256032311839047;-1.1067;-2.4876;-5.3581;
5256032321943422;-22.3666;0.2650;-9.2964;
5256032332034151;-16.2054;0.0900;5.7906;
5256032342138526;-0.0837;1.6328;6.0709;
5256032352242901;-13.4985;1.7046;-15.3544;
5256032362338838;-5.8810;-0.0464;-9.9215;
5256032372443213;-4.3813;-0.7675;7.1656;
5256032382547588;-6.1062;1.2517;5.1269;
5256032392652484;-19.5209;-0.3796;-11.5289;
5256032402756859;-15.5946;1.4243;-5.8995;
5256032412861234;3.0520;-0.2500;8.3489;
5256032422969880;-5.9599;0.0781;-4.1483;
5256032433074255;-16.8859;0.0302;-8.1153;
5256032443178630;-18.6200;-1.3543;7.1273;
5256032453295505;-16.9170;1.6232;0.4798;
5256032463399880;-8.1565;0.4612;-4.8790;
5256032473504255;16.5242;-1.4073;-2.9698;
5256032483601026;-15.0748;1.0244;-14.8849;
5256032493705401;-56.4978;2.2986;6.4301;
5256032503809776;12.1044;-0.3242;22.9448;
5256032513909359;11.4577;0.4086;-14.1688;
5256032524013734;-8.8561;-4.3463;-19.4821;
5256032534118109;-10.1282;-3.7666;-0.7011;
5256032544220713;-27.4403;-0.2405;-2.0498;
5256032554325088;-16.0953;2.9001;3.3114;
5256032564429463;6.3793;-0.3413;-0.9766;
5256032574545870;1.2482;-0.5542;-19.4605;
5256032584650245;-6.9494;-0.6574;-12.3769;
5256032594754620;-18.8644;0.0541;3.8839;
5256032604854047;-2.1631;1.9155;12.4645;
5256032614958422;-11.4625;3.8294;-30.8031;
5256032625062797;-38.3208;0.6625;-20.5095;
5256032635162797;26.3145;-0.2333;45.9248;
5256032645267172;13.2497;3.4463;-4.7617;
5256032655371547;-35.4030;-4.6771;-40.6702;
5256032665477276;-18.9054;-5.3237;6.3727;
5256032675581651;-8.5807;5.2570;14.3330;
5256032685686026;-13.0268;5.2403;-3.1086;
5256032695794463;-9.1531;-0.3242;1.6848;
5256032705898838;16.1312;-1.7474;5.5630;
5256032716003213;5.5887;-5.0219;-16.2482;
5256032726109880;-50.0611;-4.7369;-19.6017;
5256032736214255;-32.1069;3.7122;22.1925;
5256032746318630;13.3980;11.3632;16.0002;
5256032756416703;-0.6156;5.0345;-19.3047;
5256032766521078;-11.5367;-7.9588;-0.6772;
5256032776625453;-4.3478;-2.6432;8.0949;
5256032786726443;-16.8787;2.3539;-14.6623;
5256032796830818;-11.6611;-0.6574;-9.5767;
5256032806935193;1.7489;0.9045;-0.0473;
5256032817044359;-6.2569;2.4951;-10.1659;
5256032827148734;-17.7482;0.1164;1.1889;
5256032837253109;-4.6256;2.2986;22.2595;
5256032847353422;-10.3893;5.7482;-19.2066;
5256032857457797;-31.3164;-1.4192;-35.9893;
5256032867562172;1.1139;-3.0000;12.7567;
5256032877673526;10.3008;8.6563;12.8740;
5256032887777901;-16.3229;3.2761;-13.1770;
5256032897882276;-19.4994;-4.0325;-9.1286;
5256032907979463;-7.0690;1.8485;0.9494;
5256032918083838;-4.2736;2.8304;3.1579;
5256032928188213;-6.1158;-0.9736;-1.9660;
5256032938292484;-14.9504;-1.6107;-3.0607;
5256032948396859;-7.3397;-0.5542;1.7064;
5256032958501234;-2.7260;-1.2036;-8.9297;
5256032968621182;-10.3292;-2.1975;-17.8050;
5256032978725557;-13.2063;-0.8225;-2.3375;
5256032988829932;-7.3277;4.6893;3.6012;
5256032998920401;-11.1365;1.7405;-0.9984;
5256033009024776;-10.4276;0.3176;0.1493;
5256033019129151;-9.9174;2.3273;-1.2930;
5256033029234463;-13.3358;0.8088;0.2737;
5256033039338838;-3.6003;0.6625;2.2765;
5256033049443213;-4.8150;-0.9401;-8.3859;
5256033059549984;-13.5586;-2.4491;-9.4256;
5256033069654359;-13.6854;0.5716;0.0799;
5256033079758734;-16.0235;3.7481;1.2631;
5256033089892953;-8.6836;3.2474;5.3163;
5256033099997380;0.6084;1.5033;-0.6054;
5256033110101703;-7.8188;-2.8588;-10.8748;
5256033120175401;-13.5057;-0.8707;-6.6781;
5256033130279776;-13.9226;2.8232;-1.3792;
5256033140384151;-22.8314;2.8184;0.3335;
5256033150493005;-12.8830;2.7682;1.5434;
5256033160597380;2.1464;-0.4968;0.4917;
5256033170701755;1.9403;-2.4757;-3.5064;
5256033180790713;-9.7089;0.2889;-10.8915;
5256033190895088;-20.4311;0.3703;-10.2712;
5256033200999411;-15.7696;2.5597;-2.3734;
5256033211121963;-5.0258;1.7309;1.6558;
5256033221226338;-2.5487;-0.1639;-0.4642;
5256033231330713;-12.8877;-1.1653;-1.9134;
5256033241421026;-14.3755;0.4564;-2.3037;
5256033251525401;3.0975;-0.7460;-5.8995;
5256033261629776;-2.1224;0.0757;-18.4400;
5256033271735818;-16.5099;-0.5112;-13.6633;
5256033281840297;-11.4673;1.9346;4.1689;
5256033291944724;-7.6582;2.9456;4.8156;
5256033302081651;-11.8457;-0.1065;0.9230;
5256033312186130;-7.9986;0.1714;0.0846;
5256033322290557;-7.1937;-0.3700;-2.6943;
5256033332381703;-8.1757;-1.5891;-7.0253;
5256033342486130;-5.1024;-0.5997;-5.0348;
5256033352590661;-10.3196;-0.2524;-6.3739;
5256033362669880;-19.5425;0.4950;-3.7555;
5256033372774359;-13.8939;1.1010;12.3159;
5256033382878838;-1.3080;1.8724;12.0428;
5256033392999151;-6.5803;-1.2945;-11.0282;
5256033403103630;-14.2316;-3.2683;-13.5506;
5256033413208057;-2.6949;-1.9439;2.3435;
5256033423313734;-1.5787;-0.3314;-3.5064;
5256033433418213;-14.8424;0.0350;-11.8092;
5256033443522693;-13.6926;0.1522;-0.1262;
5256033453646755;-10.2168;2.4449;2.7290;
5256033463751234;-6.2593;1.8556;1.0068;
5256033473855661;-9.0215;0.0350;-4.3519;
5256033483938370;-8.3315;-0.2070;-6.6012;
5256033494042849;-5.9408;0.9212;-8.5179;
5256033504147328;-14.5286;1.6017;-7.7967;
5256033514258943;-21.1451;2.9982;6.2073;
5256033524363422;-7.6558;5.0393;7.2135;
5256033534467849;-12.9356;3.0700;-0.9909;
5256033544571547;-7.3660;-3.4098;4.0633;
5256033554676026;0.5557;0.1283;-3.0583;
5256033564780453;-6.6691;-0.7795;-9.2988;
5256033574888943;-12.7152;-0.6526;-6.3257;
5256033584993422;-23.0542;1.6232;-2.3471;
5256033595097901;-30.4756;3.0221;4.1593;
5256033605184047;9.4597;1.6352;4.8203;
5256033615288526;11.7763;-2.0994;-6.3305;
5256033625392953;-7.6104;-2.5834;-11.5648;
5256033635501859;-21.5665;1.2470;-14.3076;
5256033645606338;-18.6153;2.9958;-6.0622;
5256033655710818;-4.6591;2.9599;0.3191;
5256033665822536;-3.0278;2.3417;-1.8559;
5256033675927016;-4.4653;-1.5987;1.2607;
5256033686031495;-7.6920;-1.2491;0.6715;
5256033696129776;-9.5243;-0.3485;-6.0888;
5256033706234255;-7.9170;-0.7053;-16.7270;
5256033716338734;-21.8204;1.4387;-18.7537;
5256033726435713;-6.7241;0.9284;15.3269;
5256033736540193;6.0009;1.0125;16.1222;
5256033746644672;-13.8652;0.2435;-13.4118;
5256033756754359;-19.1112;-2.7559;-9.6245;
5256033766858838;-10.1904;0.8303;7.5703;
5256033776963318;-8.6213;0.7370;1.2799;
5256033787073995;-8.6931;-1.6780;-4.5221;
5256033797178474;-6.4750;-0.9712;-1.7264;
5256033807282901;-5.6127;-0.5997;-1.6235;
5256033817386443;-7.5123;-0.5183;-6.2587;
5256033827490922;-12.4373;0.3081;-4.7498;
5256033837595349;-11.6782;-0.5016;0.4678;
5256033847697484;-9.4502;0.0350;-1.0822;
5256033857801963;-11.5295;0.1116;-3.9951;
5256033867906391;-8.5519;-0.1400;0.0485;
5256033878016651;-7.8117;-0.1065;-3.1134;
5256033888121130;-14.2101;0.7753;-7.4255;
5256033898225609;-8.1278;0.5979;-0.7301;
5256033908333526;-1.9546;1.7094;-3.5901;
5256033918438005;-10.1689;0.3894;-7.2601;
5256033928542484;-11.8241;0.6099;1.9409;
5256033938634568;-5.7419;-0.1854;0.5946;
5256033948739047;-9.2082;-0.3242;-7.9475;
5256033958843474;-12.4732;-0.7938;-3.9063;
5256033968942172;-8.5424;0.4301;-0.1789;
5256033979046651;-8.6453;0.0661;-6.3619;
5256033989151078;-7.9771;0.2626;-3.8369;
5256033999263630;-11.8122;1.1824;-1.2954;
5256034009368109;-13.1058;1.6065;-3.7986;
5256034019472588;-10.2335;0.7513;0.5228;
5256034029573422;-5.9647;0.8782;4.3029;
5256034039677901;-8.9734;-0.5040;-1.6714;
5256034049782328;-13.9681;-0.5806;-6.4193;
5256034059907693;-10.6935;0.1235;2.0034;
5256034070012120;-5.5887;-0.4705;1.5984;
5256034080116599;-11.5439;-0.6263;-7.9164;
5256034090203109;-13.8437;-0.7795;-5.1138;
5256034100307588;-7.6463;0.0805;3.4167;
5256034110412068;-4.8772;0.3105;-2.5959;
5256034120543109;-8.0417;-0.2835;-12.1014;
5256034130647536;-12.5716;0.0709;-5.1712;
5256034140752016;-10.9164;0.4469;2.3650;
5256034150826026;-10.3726;0.4854;-2.4260;
5256034160930505;-6.4726;0.2722;-5.7197;
5256034171034932;-3.7250;-0.1376;-3.6909;
5256034181171755;-8.0178;0.2100;-3.5112;
5256034191276234;-13.6735;-0.4011;-5.0850;
5256034201380661;-13.2685;0.8566;-1.8176;
5256034211461651;-8.4993;0.8590;-1.1228;
5256034221566130;-6.8127;0.3224;-2.4069;
5256034231670557;-6.4487;-0.2835;-1.3696;
5256034241774984;-11.8816;-0.0200;-1.5876;
5256034251879463;-10.8757;0.0589;-2.9387;
5256034261983891;-11.3785;-0.0440;-5.0898;
5256034272130661;-10.7773;0.0924;-1.3313;
5256034282235141;-3.7561;0.3703;2.6524;
5256034292339620;-3.6532;-1.5652;-2.1123;
5256034302402276;-15.9275;-0.5806;-6.4959;
5256034312506755;-16.3421;-0.0655;-1.8942;
5256034322611182;-9.9796;0.6123;-0.2557;
5256034332723109;-5.5576;-0.0320;-0.7253;
5256034342827536;-7.3493;-0.8201;-2.5122;
5256034352932068;-8.9662;0.5835;-3.1110;
5256034363029463;-10.1115;-0.5183;-4.8981;
5256034373133943;-11.3498;1.1943;-3.4394;
5256034383238370;-9.7208;-0.0296;-1.0798;
5256034393339984;-10.9570;1.3214;-3.5327;
5256034403444463;-9.0885;-0.6335;1.3277;
5256034413548891;-3.3607;0.7295;-1.4629;
5256034423663422;-6.1516;0.0111;-9.0808;
5256034433767901;-17.6213;0.3296;-6.1463;
5256034443872328;-15.0389;1.4219;2.6859;
5256034453983005;-7.5362;2.0112;-0.9431;
5256034464087484;-8.5807;0.6242;-4.1100;
5256034474191911;-6.1373;-0.2237;0.5563;
5256034484291026;-6.3338;0.0876;-2.4332;
5256034494395505;-11.9967;-0.2357;-6.3090;
5256034504499932;-13.7166;0.5859;-4.2443;
5256034514597484;-13.1656;0.3727;-0.1095;
5256034524701963;-9.5004;0.4878;0.4606;
5256034534806391;-4.8054;-1.1605;0.3167;
5256034544917484;-2.0073;-0.6263;-3.3386;
5256034555021963;-10.6576;-0.5255;-11.7781;
5256034565126391;-16.4210;-0.0272;-7.4447;
5256034575234203;-8.1063;1.2879;2.0704;
5256034585338682;-8.2813;1.6089;-3.2883;
5256034595443109;-10.7079;-0.0826;-2.0043;
5256034605542068;-6.5779;0.1403;2.9399;
5256034615646547;-9.2034;0.7777;-3.2333;
5256034625750974;-13.4698;-0.1017;-7.0397;
5256034635858734;-6.8656;0.9858;-2.1721;
5256034645963213;-6.7265;0.7585;-1.6738;
5256034656067641;-12.0637;0.3416;-4.2682;
5256034666175297;-7.9026;0.0613;0.8246;
5256034676279776;-0.6179;0.4445;-1.5900;
5256034686384203;-1.6265;-1.1581;-10.1085;
5256034696490297;-28.1327;-0.1663;-7.3798;
5256034706594776;-19.8538;2.0088;9.6162;
5256034716699203;-1.4037;3.7624;4.4755;
5256034726803630;-4.0388;-0.1472;-7.9621;
5256034736908109;-8.3052;-2.3462;-3.9951;
5256034747012536;-3.2506;0.9595;-2.4571;
5256034757117276;-17.0728;1.4746;-6.5725;
5256034767221755;-19.1614;1.7477;0.6042;
5256034777326182;-5.1718;2.0614;4.6119;
5256034787425818;-2.1344;-0.1256;-1.2425;
5256034797530297;-7.8021;-1.3089;-0.0927;
5256034807634776;-2.1535;-2.2241;-3.3338;
5256034817732797;-14.9719;-0.0559;-22.1145;
5256034827837276;-26.4224;0.1881;-6.5438;
5256034837941703;-2.0602;3.8629;17.0040;
5256034848021651;-0.4334;4.0451;-1.6714;
5256034858126130;-17.1230;-2.1305;-12.0392;
5256034868230557;-13.1465;-0.7316;4.7486;
5256034878357693;-8.4754;2.2866;-1.6283;
5256034888462172;-11.9318;-0.5614;-6.1367;
5256034898566599;-5.9145;-0.4729;1.7255;
5256034908673422;-6.5827;-0.0607;1.3516;
5256034918777901;-10.2503;-0.1137;-7.1836;
5256034928882380;-13.8891;-0.9090;-3.1519;
5256034938983422;-1.4300;-0.6622;0.3048;
5256034949087901;-7.2942;0.7490;-9.4065;
5256034959192328;-18.4860;-1.5126;-8.8292;
5256034969324359;-10.9116;0.2865;3.0335;
5256034979428838;-0.2228;1.4148;-1.7551;
5256034989533266;-9.2034;-1.1653;-12.1469;
5256034999606234;-14.7634;1.4124;-2.5170;
5256035009710713;-8.0728;0.9667;5.6444;
5256035019815141;-11.3258;1.9226;-4.4429;
5256035029944776;-13.0986;-0.2142;-1.9181;
5256035040049255;-1.7824;-0.3242;3.4693;
5256035050153682;-7.9265;-0.6981;-3.8632;
5256035060231859;-14.7323;-0.4633;-5.1233;
5256035070336338;-11.3641;0.5261;-1.4868;
5256035080440818;-8.6118;0.1810;-5.1185;
5256035090562797;-9.9796;0.0565;-2.1338;
5256035100667276;-7.0594;0.8327;2.4799;
5256035110771703;-10.3415;-0.2477;-5.1473;
5256035120876495;-13.3956;0.6553;-5.4921;
5256035130980922;-7.9050;1.2206;0.2617;
5256035141085401;-7.2129;0.8949;-2.3590;
5256035151204880;-10.7725;0.4612;-3.8608;
5256035161309359;-7.6247;0.0350;-1.3241;
5256035171413838;-4.7551;0.8279;-5.0707;
5256035181498005;-13.7142;0.1307;-5.6456;
5256035191602484;-13.4746;1.5344;-0.4905;
5256035201706963;-10.0756;0.7104;-0.0592;
5256035211812068;-7.8547;0.6577;-2.2654;
5256035221916547;-6.0703;0.5405;-3.7340;
5256035232021026;-9.8216;1.8389;-4.4958;
5256035242123943;-9.1005;0.8997;-0.2725;
5256035252228422;-7.4883;0.5740;-5.1257;
5256035262332849;-10.8610;1.0675;-6.3377;
5256035272441443;-8.9088;0.8207;-1.1563;
5256035282545661;-10.3869;0.5189;1.0379;
5256035292649880;-10.4444;0.2746;-0.3347;
5256035302757484;-10.0923;0.5333;-2.4571;
5256035312861703;-6.7600;-0.4466;-5.0180;
5256035322965922;-12.9236;1.8413;-5.5017;
5256035333066651;-10.1761;1.7644;0.1660;
5256035343170870;-5.7682;0.8231;2.0608;
5256035353275088;-7.6343;0.4974;-4.1483;
5256035363370609;-11.6037;0.4783;-5.0874;
5256035373474828;-11.2086;0.9476;-0.8737;
5256035383579047;-7.1578;0.4878;-0.8019;
5256035393686026;-7.4118;-0.2812;-4.9986;
5256035403790245;-13.2111;0.8686;-5.3270;
5256035413894463;-7.8284;0.8088;-2.2439;
5256035424007536;-8.1924;1.0723;-3.4825;
5256035434111755;-9.0024;0.9141;-2.2391;
5256035444215974;-11.6133;1.0484;-1.9421;
5256035454329463;-7.1842;0.3368;-1.1874;
5256035464433682;-6.4199;0.3559;-5.0755;
5256035474537901;-9.6132;-0.0730;-3.3505;
5256035484633318;-11.6901;0.0709;-1.2787;
5256035494737536;-10.0851;-0.1974;-2.5433;
5256035504841755;-8.7628;0.3583;-1.1659;
5256035514945088;-4.3334;0.0757;-3.2788;
5256035525049307;-10.9929;0.2554;-6.4505;
5256035535153474;-10.1976;0.7394;0.8318;
5256035545266234;1.3319;0.4950;-0.5408;
5256035555370453;0.8264;-2.0468;-12.6835;
5256035565474672;-32.9022;-0.2070;-9.2291;
5256035575577172;-25.3875;3.3479;13.9400;
5256035585681391;-16.3421;7.8419;14.9103;
5256035595785609;2.2472;-0.1256;-2.0474;
5256035605883213;2.0794;-9.7603;-4.3424;
5256035615987432;-11.6949;0.1786;-5.9426;
5256035626091651;-11.6901;2.6028;-2.9243;
5256035636203422;-6.1923;0.7537;-4.8096;
5256035646307641;-3.4113;0.9404;-6.6206;
5256035656411859;-7.6609;-0.8249;-5.5017;
5256035666533838;-14.6677;-0.0081;4.5592;
5256035676638057;-9.0120;1.3573;1.3971;
5256035686742276;-15.7720;1.1991;-22.0523;
5256035696829047;-12.9667;-1.6490;-9.5070;
5256035706933266;-3.0278;2.6127;2.3459;
5256035717037484;-2.7595;3.5396;1.2296;
5256035727151130;-15.0341;1.7859;-4.4982;
5256035737255349;-20.3163;0.9069;2.8346;
5256035747359568;-0.2396;0.1810;12.0069;
5256035757462693;-1.6600;-2.1042;-3.6523;
5256035767566911;-17.2116;-3.5584;-6.1128;
5256035777671130;-10.7414;-1.6780;0.3072;
5256035787766755;-8.4730;-0.2333;-7.4279;
5256035797870974;-11.2253;-1.0884;-7.8063;
5256035807975193;-5.2316;0.5118;-0.5432;
5256035818074463;-5.6868;1.3406;-5.9354;
5256035828178682;-15.4798;0.5931;-3.7819;
5256035838282901;-11.0910;1.2832;4.4204;
5256035848397172;-6.6954;0.4373;-0.9144;
5256035858501391;-10.0035;-0.2524;-7.2410;
5256035868605557;-7.2033;-0.7125;0.0006;
5256035878714255;-5.6127;-0.2022;-3.1301;
5256035888818474;-15.9515;-0.0730;-7.2697;
5256035898922693;-12.9117;0.3105;0.8773;
5256035909028838;-9.2345;1.2709;2.8585;
5256035919133057;-8.5567;0.7920;-3.9182;
5256035929237276;-5.8618;-0.2596;-1.9301;
5256035939345557;-5.8475;0.3942;1.0977;
5256035949449776;-12.4878;-0.0440;-8.0483;
5256035959553995;-9.5342;0.5237;-7.8924;
5256035969671026;-15.0700;0.1714;-1.1468;
5256035979775193;-8.4682;0.3105;1.9409;
5256035989879463;-5.5744;0.1546;-2.1912;
5256035999982797;-10.1163;-0.6215;-3.3338;
5256036010087016;-10.4539;0.3727;-3.8800;
5256036020191234;-5.8283;0.3703;-5.8756;
5256036030274359;-8.2214;1.1225;-4.8550;
5256036040378578;-11.9007;-0.9185;1.6726;
5256036050482797;-6.3290;-0.1639;3.0287;
5256036060594255;-11.2445;-0.3891;-10.1683;
5256036070698474;-15.1780;-0.8010;-2.5289;
5256036080802693;-8.2956;0.0733;5.5558;
5256036090888213;-11.4171;-0.2477;-7.3199;
5256036100992432;-3.9431;-0.6191;-1.0726;
5256036111096651;-0.4696;-0.0655;-4.2132;
5256036121210870;-17.7099;-0.3891;-11.2319;
5256036131315088;-19.3819;0.5070;4.5927;
5256036141419307;-4.0771;0.3057;9.7696;
5256036151532693;-0.5868;0.7223;-7.7034;
5256036161636911;-12.5812;-3.5967;-10.1994;
5256036171741130;-22.3837;-0.5518;-0.3778;
5256036181853213;-8.7365;1.3980;5.6850;
5256036191957432;-0.5964;-0.3796;-5.2286;
5256036202061651;-5.9288;-1.7186;-11.4571;
5256036212163370;-13.7142;1.0699;-1.9708;
5256036222267588;-5.5289;1.2541;6.3990;
5256036232371807;-7.8045;1.0101;-5.0276;
5256036242463318;-12.1403;-0.3820;-7.1450;
5256036252567536;-7.4070;-0.8417;-3.0224;
5256036262671755;-14.9815;0.3679;-1.2449;
5256036272787901;-9.7232;0.5835;1.1554;
5256036282892328;-3.8853;0.3488;-5.6073;
5256036292996807;-15.6736;0.5548;-8.7933;
5256036303103526;-10.5808;1.6065;4.1761;
5256036313207953;-5.4832;2.2771;4.1091;
5256036323312432;-8.5017;0.1977;-4.9388;
5256036333403526;-11.2086;-0.2788;-0.3562;
5256036343508005;-5.8187;-0.3772;2.1111;
5256036353612432;-9.5916;-0.3987;-6.4863;
5256036363719255;-10.9211;-0.7651;-6.1319;
5256036373823682;-10.2814;-0.1807;-2.2845;
5256036383928161;-15.1155;1.5562;-5.3797;
5256036394046443;-9.3784;0.6505;1.5721;
5256036404150870;-1.6696;0.6458;0.1469;
5256036414255349;-10.9690;0.6697;-9.6221;
5256036424352797;-14.4688;-0.2692;-0.9550;
5256036434457276;-10.2790;1.4291;4.3869;
5256036444561703;-7.9388;0.4493;-2.2271;
5256036454681963;-6.5037;-1.2658;-3.9951;
5256036464786391;-10.0490;-0.2500;-5.1568;
5256036474890870;-11.2110;0.0494;-1.2787;
5256036484984984;-9.4310;0.3488;-0.8282;
5256036495089411;-11.9055;0.8662;-6.8937;
5256036505193891;-9.9365;-0.0320;-2.9172;
5256036515293318;-4.8939;1.1536;-2.5552;
5256036525397797;-9.9628;1.2182;-2.4954;
5256036535502224;-9.7113;0.4735;-1.8416;
5256036545611963;-6.5252;0.9835;-3.5207;
5256036555716391;-12.0900;0.5285;-6.5677;
5256036565820870;-11.5965;0.1738;-1.1420;
5256036575934880;-7.3181;0.6170;-0.0784;
5256036586039307;-5.8355;-0.1161;-2.7470;
5256036596143786;-9.4932;0.0829;-3.6045;
5256036606242380;-13.0866;0.5237;-4.9244;
5256036616346807;-13.9777;0.8925;-1.7527;
5256036626451286;-8.3985;1.2736;3.3257;
5256036636551338;-5.8307;-0.0849;0.7026;
5256036646655766;-11.2540;0.1283;-5.4945;
5256036656760245;-9.0957;-0.1902;-1.7767;
5256036666870453;-8.1999;0.7729;-2.2941;
5256036676974880;-7.0881;-0.0176;-5.9809;
5256036687079359;-7.0211;-0.0826;-5.0994;
5256036697164880;-10.3053;-0.1376;-1.7408;
5256036707269307;-12.5094;0.2698;-1.4868;
5256036717373786;-12.5237;0.4421;-1.7192;
5256036727491443;-7.9170;0.3392;-0.8737;
5256036737595870;3.3562;0.3320;-2.4452;
5256036747700349;-8.5137;-0.8560;-9.1573;
5256036757793786;-33.2590;1.3286;-6.3305;
5256036767898213;-14.1431;2.6964;12.4047;
5256036778002693;2.8244;2.7826;2.6309;
5256036788113213;-1.1282;-2.4852;-5.9043;
5256036798217693;-9.4119;-1.6851;-1.8320;
5256036808322120;-15.8390;1.1034;-3.8441;
5256036818424047;-12.3799;0.8590;-5.8851;
5256036828528526;-11.0336;1.1273;-1.6283;
5256036838632953;-3.3440;0.2650;-0.6604;
5256036848766599;-7.8500;-0.0344;-2.0931;
5256036858871026;-5.7972;-0.2477;1.7375;
5256036868975505;-14.1215;-0.8106;-15.0622;
5256036879050036;-17.1709;0.4038;-11.2463;
5256036889154516;-0.4839;1.5897;6.3631;
5256036899258943;-2.8675;1.3119;1.2942;
5256036909370193;-14.5932;-0.0224;-6.6398;
5256036919474672;-16.6247;-0.3628;-1.8344;
5256036929579099;-10.1163;1.8197;3.8982;
5256036939676703;-2.9201;0.9045;1.1264;
5256036949781182;-9.0957;-1.0310;-7.0899;
5256036959885609;-13.7333;-0.5088;-2.2463;
5256036970044047;-9.6395;1.2879;-0.4089;
5256036980148474;-12.9811;-0.0706;-5.2071;
5256036990252953;-8.0991;1.1321;-0.3467;
5256037000312276;-4.2712;0.1570;2.5017;
5256037010416755;-13.2326;-0.0129;-6.5557;
5256037020521182;-11.3450;0.2961;-2.3133;
5256037030628422;-5.7876;0.6170;0.6978;
5256037040732849;-7.4620;-0.1041;-6.1367;
5256037050837328;-8.9710;-0.2907;-6.4552;
5256037060941234;-14.0976;1.2613;-3.4011;
5256037071045661;-13.1441;0.9547;-1.1683;
5256037081150141;-8.3076;2.8304;-2.1577;
5256037091246130;-7.4788;0.9500;-1.7961;
5256037101350557;-8.2597;-0.6526;-2.6273;
5256037111455036;-7.9890;0.5285;-4.0813;
5256037121576547;-7.4357;0.8542;-3.7675;
5256037131680974;-8.2023;0.9356;-3.5734;
5256037141785453;-8.2454;0.7295;-2.2008;
5256037151889047;-7.3205;0.1546;-3.1181;
5256037161993474;-9.9485;0.0422;-4.7136;
5256037172097953;-10.6505;0.3344;-4.5126;
5256037182209516;-12.3440;0.4564;-3.4537;
5256037192313943;-12.7152;1.3884;0.7696;
5256037202418422;-10.3893;2.1000;0.4391;
5256037212504568;-9.5100;1.6543;-1.5036;
5256037222608995;-6.7289;-0.2859;1.1961;
5256037232713474;-9.8743;0.7777;0.7241;
5256037242820818;-7.8787;0.1116;-0.4208;
5256037252925297;-12.9619;-0.0945;-3.7029;
5256037263029724;-11.9127;-0.2309;-1.8703;
5256037273138318;-8.7939;0.5477;-0.1119;
5256037283242849;-6.8055;-0.4609;-3.9832;
5256037293347380;-5.6892;0.2722;-5.7772;
5256037303445818;-12.6553;1.2015;-8.8890;
5256037313550349;-11.4912;1.3573;-4.4453;
5256037323654880;-8.1829;2.5454;0.4439;
5256037333764568;-8.1446;1.9825;-0.3969;
5256037343869099;-8.0249;1.0962;-3.3482;
5256037353973630;-10.6457;-0.5303;-3.5782;
5256037364068526;-8.7676;-0.0129;-1.8655;
5256037374173057;-8.3363;-0.0945;-3.8225;
5256037384277588;-9.0335;0.3894;-3.8800;
5256037394386130;-8.9303;1.2350;-2.9746;
5256037404490661;-5.5983;1.0388;-1.4892;
5256037414595193;0.7020;0.3176;-4.6729;
5256037424701338;-9.7280;-0.3628;-6.9033;
5256037434805870;-14.3489;-0.1615;-1.8153;
5256037444910401;-15.6688;0.4540;0.0221;
5256037455026755;-18.0404;1.2039;1.2224;
5256037465131286;-11.3282;3.0580;4.6935;
5256037475235818;-9.2731;2.6629;1.4859;
5256037485340557;-22.0983;-3.2061;2.2573;
5256037495445088;-14.3082;0.5501;2.4607;
5256037505549620;-7.8476;1.2278;3.8958;
5256037515637276;3.7944;-1.5652;3.0093;
5256037525741807;0.0215;-2.3198;-1.4629;
5256037535846338;-5.2053;-2.1497;-8.1942;
5256037545943422;-8.4706;-1.6202;-14.2765;
5256037556047953;-14.0833;-1.7521;-15.7977;
5256037566152484;-12.2698;0.0159;-10.5945;
5256037576275818;-5.8140;1.3956;-4.1315;
5256037586380349;-4.4892;-0.2381;-1.9373;
5256037596484880;-13.0890;2.8881;-9.0159;
5256037606582536;-19.5138;4.2870;-6.2204;
5256037616687068;-10.2383;5.5591;6.9691;
5256037626791599;-7.5601;5.4344;8.5071;
5256037636897536;-5.0139;0.1762;6.1499;
5256037647002068;-9.0335;-4.8111;-3.6814;
5256037657106599;-15.5181;-3.3547;0.0823;
5256037667208213;-8.9495;-0.9592;4.3845;
5256037677312745;-10.3917;-3.0577;-2.9483;
5256037687417276;-8.8059;-3.7116;-2.8813;
5256037697519620;-5.3228;-1.1486;-3.9760;
5256037707624151;-7.6753;-0.6861;-9.5791;
5256037717728682;-8.0871;-0.8010;-7.0516;
5256037727825661;-7.8954;0.2722;-2.4404;
5256037737930245;-12.2411;2.0279;-4.2826;
5256037748034724;-12.8160;0.5955;-1.4414;
5256037758144151;-9.3592;0.9260;-0.0640;
5256037768248682;-10.2120;1.2087;-3.1376;
5256037778353213;-10.2981;0.6888;-2.9722;
5256037788459984;-7.3732;0.4902;-2.9722;
5256037798564516;-11.4601;0.9069;-1.7815;
5256037808669047;-10.7964;1.5945;1.7136;
5256037818773318;-10.0804;1.5730;1.3397;
5256037828877849;-8.4177;0.2028;0.9326;
5256037838982380;-3.7107;-0.8154;-1.7312;
5256037849079672;-8.8896;-0.0730;-7.6816;
5256037859184203;-13.1824;-0.5566;-7.8039;
5256037869288734;-9.7663;0.7561;-3.8345;
5256037879393838;-7.1216;0.8973;-3.5255;
5256037889498370;-9.5629;1.0627;-4.6202;
5256037899602901;-9.6849;1.8939;-0.9718;
5256037909713734;-8.6118;1.0436;0.9829;
5256037919818266;-7.7925;0.8925;-1.1444;
5256037929922797;-9.1699;0.2387;-4.3448;
5256037940052276;-10.4635;0.8088;-3.1014;
5256037950156807;-8.9925;-0.4825;0.0173;
5256037960261338;-10.4994;0.2722;-1.7360;
5256037970356963;-10.8757;-0.0105;-1.9373;
5256037980461443;-9.8575;0.0254;-0.8617;
5256037990566026;-8.4009;0.1427;-1.7695;
5256038000688943;-10.1904;0.1427;-2.1242;
5256038010793474;-8.1757;-0.0368;-1.2090;
5256038020898005;-8.9566;0.4062;-1.6164;
5256038030965297;-11.5463;0.5501;-3.7675;
5256038041069828;-8.2430;0.2243;-1.7985;
5256038051174359;-6.7887;-0.2070;-3.9230;
5256038061308838;-6.7696;0.3583;-5.6599;
5256038071413370;-12.2889;-0.8034;-5.0898;
5256038081517901;-17.8152;1.6089;-0.3778;
5256038091592693;-11.8528;1.0819;1.1025;
5256038101697224;-4.9298;0.9284;-0.2605;
5256038111801755;-6.0006;-0.1280;-0.9885;
5256038121906859;-10.8132;0.0111;-1.9349;
5256038132011391;-11.4577;0.2100;-3.1926;
5256038142115922;-10.0828;0.5955;-5.3246;
5256038152243109;-10.8180;0.2554;-2.9985;
5256038162347641;-8.3794;-0.3604;-1.4222;
5256038172452172;-10.0609;-0.3700;-1.0199;
5256038182537797;-4.5921;-1.0358;-1.9469;
5256038192642328;-7.6176;0.0900;-10.2855;
5256038202746859;-15.4965;0.1977;-7.5404;
5256038212854568;-9.6993;0.7633;2.5424;
5256038222959099;-8.5807;2.3393;0.6476;
5256038233063630;-8.8825;0.3200;-3.6523;
5256038243169463;-8.5783;-1.5772;-2.7302;
5256038253273995;-8.4153;-0.6718;-2.4476;
5256038263378526;-10.2861;-0.1017;-3.2620;
5256038273475818;-12.0637;0.0494;-4.3998;
5256038283580245;-4.8748;0.4612;-1.2568;
5256038293684724;-0.4959;0.0733;-3.9664;
5256038303793526;-9.4119;-0.2716;-4.9292;
5256038313897953;-6.0679;0.2985;-2.5313;
5256038324002432;-16.6199;-0.4178;-4.9842;
5256038334106651;-37.7052;2.6342;1.1578;
5256038344211078;-9.6562;5.5181;14.1772;
5256038354315557;12.3535;-0.6694;0.6138;
5256038364419255;-3.6700;-6.4831;-8.3261;
5256038374523682;-14.8807;-1.0358;-7.9355;
5256038384628161;-15.3622;2.8711;-4.7231;
5256038394731547;-11.1942;3.4750;0.4415;
5256038404835974;1.3247;0.2411;6.6482;
5256038414940453;-5.2678;-1.1653;-4.1530;
5256038425048630;-15.5085;-2.4371;-6.3452;
5256038435153057;-3.9503;-1.1195;0.1277;
5256038445257536;-11.7165;0.1044;-21.3745;
5256038455366703;-22.6663;0.3703;-17.3596;
5256038465471130;-4.5514;3.1202;13.4249;
5256038475575609;-0.5103;4.0187;10.6343;
5256038485686130;-14.7754;1.8413;-9.1693;
5256038495790557;-15.0532;-1.0741;-2.4093;
5256038505895036;-8.1494;1.4554;8.8161;
5256038515990088;-3.9455;0.1499;2.0106;
5256038526094516;-9.7831;-2.3246;-8.1679;
5256038536198995;-14.4042;-2.1425;-3.4633;
5256038546301963;-4.6113;-0.0009;1.7901;
5256038556406391;-9.5916;0.5453;-8.8986;
5256038566510870;-13.0388;-0.3604;-6.7834;
5256038576627276;-3.6461;1.0460;0.9948;
5256038586731703;-7.2775;1.4602;-6.6541;
5256038596836182;-15.8007;0.7104;-4.4692;
5256038606928370;-7.6681;1.2589;5.0719;
5256038617032797;-8.7604;2.1694;-3.2213;
5256038627137276;-14.9312;0.0685;-5.4323;
5256038637240193;-5.6821;-0.0873;2.9782;
5256038647344620;-6.2761;0.9811;-4.8694;
5256038657449099;-11.8528;-0.0873;-4.5987;
5256038667562588;-9.7352;1.2254;0.6787;
5256038677667068;-12.1690;0.7609;-3.5136;
5256038687771495;-9.1125;0.7896;-0.4256;
5256038697862276;-4.8604;0.8518;1.1384;
5256038707966703;-8.0871;-0.1184;-4.4022;
5256038718071182;-11.3474;0.1546;-5.4730;
5256038728181026;-6.0485;0.8734;-3.7149;
5256038738285453;-8.2956;0.6410;-7.4614;
5256038748389880;-13.4554;0.8566;-5.1090;
5256038758491963;-16.5960;1.1895;1.9289;
5256038768596391;-9.7400;2.2819;5.1918;
5256038778700870;-4.9681;0.9141;-2.1649;
5256038788812484;-8.3243;-1.2754;-4.5030;
5256038798916911;-12.4493;0.8495;-1.6259;
5256038809021391;-10.3244;0.7418;1.6726;
5256038819122588;-7.0020;0.5979;-2.3276;
5256038829227016;-7.6415;-0.5997;-4.9364;
5256038839331495;-7.1554;-0.9138;-2.7589;
5256038849451338;-9.5390;-0.0921;-3.6045;
5256038859555766;-11.5080;-0.0057;-5.3916;
5256038869660193;-10.0514;0.9882;-6.8192;
5256038879745713;-9.0455;0.8566;-6.3763;
5256038889850141;-10.2981;1.0651;-0.0760;
5256038899954620;-9.6754;1.2159;2.5735;
5256038910062068;-11.8217;1.1106;-0.9072;
5256038920166495;-12.8973;0.1762;-2.5098;
5256038930270974;-4.9011;0.9093;1.1937;
5256038940384620;-1.3199;-0.5806;-2.9291;
5256038950489099;-11.7787;-1.1509;-7.1402;
5256038960593526;-15.3909;-0.8707;-2.3351;
5256038970687797;-11.5056;1.3310;-1.6283;
5256038980792224;-9.1292;0.5070;-2.8451;
5256038990896651;-7.0810;-0.3338;-0.1884;
5256039001003630;-9.2465;0.6314;-1.1539;
5256039011108057;-13.2808;0.1068;-4.7474;
5256039021212536;-9.4860;1.0196;-3.1038;
5256039031311130;-7.4118;0.4783;-2.7470;
5256039041415557;-10.7510;-0.1424;-2.9028;
5256039051520036;-9.2154;-0.2357;0.0197;
5256039061627797;-6.7840;0.4301;-1.4557;
5256039071732224;-7.9795;-0.4466;-5.1879;
5256039081836703;-12.3105;-1.2610;-5.7843;
5256039091973630;-13.5272;1.4794;-0.2366;
5256039102078057;-15.2019;1.1417;1.5840;
5256039112182484;-11.6133;2.2436;-0.1190;
5256039122276130;-6.5973;-1.0214;-2.4021;
5256039132380557;-1.8350;-0.7531;-1.5302;
5256039142485036;-3.3802;-0.2548;-6.7738;
5256039152564255;-10.6361;-0.5136;-10.2138;
5256039162668682;-10.1521;-0.0392;-5.6815;
5256039172773161;-11.3210;0.0326;-2.0617;
5256039182884047;-13.6520;1.5057;3.2273;
5256039192988474;-12.8830;2.2029;3.8599;
5256039203092953;-10.2646;1.6902;-0.8163;
5256039213206443;-10.2239;-1.8191;-6.6350;
5256039223310870;-8.6788;-1.3759;-5.3557;
5256039233415349;-5.9408;1.8580;-2.6297;
5256039243514880;-10.8706;1.2784;-0.7588;
5256039253619307;-12.5883;1.2063;1.7925;
5256039263723786;6.1588;0.4229;0.4295;
5256039273850036;-22.1824;-0.6837;-5.3629;
5256039283954776;-28.2308;-0.1232;4.5233;
5256039294059516;-5.5863;2.5071;4.3412;
5256039304145453;-1.4204;-0.7938;-7.1450;
5256039314250193;-6.5348;-2.4012;-6.6135;
5256039324354880;-7.7806;0.5859;-5.8516;
5256039334457380;-8.8059;1.1489;-7.5212;
5256039344562120;-8.4897;1.4889;-4.7016;
5256039354666859;-6.3793;1.1728;-2.5265;
5256039364768734;-10.9929;0.0063;-3.8943;
5256039374873474;-12.0948;-1.1267;5.5630;
5256039384978213;2.9082;-0.4657;3.4334;
5256039395082901;-19.6765;0.2483;-28.6855;
5256039405187641;-18.3589;-1.0143;-6.0024;
5256039415292380;-1.3558;1.9585;15.6027;
5256039425405401;-6.9661;3.7983;-0.7995;
5256039435510141;-12.4373;0.6529;-7.7178;
5256039445614880;-10.7557;-0.2094;1.4453;
5256039455723213;-7.0810;0.7848;4.9211;
5256039465827953;-6.6787;-0.7651;-2.7661;
5256039475932693;-11.8720;-0.8201;-7.3558;
5256039486051391;-9.9461;-1.3424;0.4558;
5256039496156130;-4.7815;-0.1950;-0.3897;
5256039506260818;-13.7309;0.6864;-8.4963;
5256039516344672;-9.3329;0.1594;-0.5575;
5256039526449411;0.4002;0.4902;-1.2114;
5256039536554151;-10.6361;0.1307;-12.9494;
5256039546652120;-13.3860;-0.5327;-2.0907;
5256039556756859;-6.5420;0.4301;3.1747;
5256039566861599;-11.0623;1.7764;-5.6767;
5256039576965609;-8.3387;0.7466;-0.9646;
5256039587070349;-5.4185;0.6912;2.0034;
5256039597175088;-12.6410;0.7175;-5.1353;
5256039607285713;-11.8840;-0.1902;-1.6020;
5256039617390453;-6.1038;1.1728;0.6165;
5256039627495193;-8.9518;0.5046;-4.7713;
5256039637588630;-7.7925;-1.0621;-1.5302;
5256039647693370;-8.3507;0.3416;-0.6150;
5256039657798109;-12.9547;0.3535;-4.4453;
5256039667909984;-12.8471;0.0852;0.1828;
5256039678014724;-6.9805;0.6410;3.7854;
5256039688119411;-4.1512;0.1881;-2.4643;
5256039698217901;-9.8575;-0.7316;-5.0970;
5256039708322641;-9.9796;-0.2572;-3.5040;
5256039718427380;-9.3927;-0.0682;-3.0966;
5256039728573109;-8.2884;-0.3099;-2.4141;
5256039738677849;-12.6912;0.0326;-2.0115;
5256039748782536;-13.8051;0.2818;0.9565;
5256039758849151;-7.3950;0.7561;1.4740;
5256039768953891;-5.8331;0.7490;-3.6212;
5256039779058630;-6.7744;-0.6526;-5.2310;
5256039789162588;-5.6079;-0.3724;-4.5963;
5256039799267328;-10.3606;-0.5040;-4.3161;
5256039809372016;-15.5587;-0.4107;-0.2486;
5256039819467380;-12.3344;0.3990;4.0226;
5256039829572120;-9.5510;0.1762;0.3048;
5256039839676859;-9.3138;-0.2405;-1.6977;
5256039849808734;-9.2632;-0.0224;-5.2645;
5256039859913422;-12.6841;0.4110;-7.0756;
5256039870018161;-10.1976;0.5453;0.0054;
5256039880108838;-10.3702;0.6266;2.7458;
5256039890213578;-10.1258;0.5046;-0.5097;
5256039900318318;-7.1674;-0.3508;-0.5815;
5256039910433057;-7.9436;-1.3017;0.1540;
5256039920537797;-10.3149;-1.5700;-5.7676;
5256039930642536;-13.1321;-1.5102;-8.3189;
5256039940725818;-11.1655;-1.0956;-2.3638;
5256039950830557;-10.4420;0.3320;-3.3936;
5256039960935297;-8.3052;1.1680;-4.6801;
5256039971079359;-3.5548;0.6123;-3.1663;
5256039981184099;-4.2138;0.3703;-3.1205;
5256039991288786;-6.6236;-0.7771;-7.2984;
5256040001362901;-8.9207;-0.5040;-7.9331;
5256040011467641;-10.9187;-0.9233;-0.8402;
5256040021572380;-11.7069;-0.8441;1.9504;
5256040031666859;-14.6004;0.1642;-2.4691;
5256040041771599;-14.2555;1.6400;-1.2739;
5256040051876286;-9.4669;1.9298;0.3529;
5256040061987068;-9.1986;1.2541;-1.9923;
5256040072091807;-9.9174;0.6649;-1.1061;
5256040082196495;-8.1159;0.6769;2.8059;
5256040092304776;-8.9495;0.3870;0.8991;
5256040102409516;-9.8839;-0.3700;0.0102;
5256040112514255;-12.7032;-0.7292;0.9398;
5256040122617693;-7.7136;-1.1916;-0.8091;
5256040132722432;-4.7216;-1.5389;-7.4375;
5256040142827120;-3.0111;-1.7330;-11.4162;
5256040152939151;-2.1440;-0.5662;-13.9843;
5256040163043891;-3.3727;-0.3314;-12.1182;
5256040173148630;-31.7596;0.9428;-1.5900;
5256040183244359;-34.6508;4.5290;14.1844;
5256040193349099;-4.7360;8.3306;16.1342;
5256040203453786;8.4826;-0.1161;-5.2095;
5256040213562797;-2.9082;-5.2974;-4.7617;
5256040223667536;-16.7133;1.1824;-6.5079;
5256040233772224;-19.6717;1.7812;-6.7427;
5256040243883526;-12.2363;1.8269;-0.0114;
5256040253988266;-2.0985;0.7199;1.5793;
5256040264092953;-2.0169;-1.6657;3.0335;
5256040274164984;-3.3176;-3.5847;5.0336;
5256040284269255;-6.9206;-2.0970;-12.6093;
5256040294373578;-25.7922;0.0470;-31.7181;
5256040304504463;-16.5242;0.5764;-4.6370;
5256040314608734;4.2138;1.1943;12.0547;
5256040324713057;-1.2168;1.5153;1.8284;
5256040334817276;-17.2188;-0.1639;-7.8757;
5256040344921599;-21.3153;0.3416;-1.4844;
5256040355025870;-3.4472;1.6424;6.1379;
5256040365121859;-2.4242;-0.1448;-2.0306;
5256040375226182;-10.1689;-1.8814;-4.4934;
5256040385330453;-10.9786;-2.0635;-0.3802;
5256040395433370;-9.0550;-0.3939;-2.3399;
5256040405537641;-9.6227;-0.5064;-5.2768;
5256040415641963;-7.3660;-1.0813;-2.0163;
5256040425746130;-15.7696;-0.5375;-3.2931;
5256040435850453;-13.3406;-0.2644;-0.3826;
5256040445954724;-6.1516;0.4038;-0.8593;
5256040456054880;-5.2196;0.3344;-6.0912;
5256040466159151;-12.1475;-0.8707;-2.5098;
5256040476263474;-9.2417;0.0015;3.6443;
5256040486370297;-6.9972;0.1283;-3.1950;
5256040496474568;-8.8681;-0.8225;-7.5811;
5256040506578891;-9.5988;-1.2921;-0.6173;
5256040516702068;-10.5449;-0.5375;0.0799;
5256040526806338;-8.3100;-0.1735;-2.4691;
5256040536910661;-4.2042;-0.1831;-8.1870;
5256040547008526;-12.8495;-0.6933;-12.5519;
5256040557112797;-9.7184;0.9452;1.1432;
5256040567217120;-7.0977;1.2087;3.9221;
5256040577322693;-18.7041;2.5908;-1.1396;
5256040587426963;-20.3139;4.2823;0.0724;
5256040597531286;-10.1378;2.3154;6.4851;
5256040607686182;-5.3276;-0.3700;3.8671;
5256040617790453;-3.0111;-3.2061;-5.0635;
5256040627894776;-8.9279;-1.1243;-8.2615;
5256040637958943;-11.3474;-0.0631;-7.6193;
5256040648063266;-11.8217;0.8351;-2.8594;
5256040658167536;-5.4473;1.2784;0.3769;
5256040668269359;-6.0607;0.2937;-2.3471;
5256040678373630;-10.2933;-0.5016;-4.0430;
5256040688477953;-7.4285;-0.3820;-6.6972;
5256040698579568;-11.7500;1.3334;-12.2019;
5256040708683838;-11.0384;0.5094;-5.7485;
5256040718788161;-7.0283;1.6208;-0.6413;
5256040728875349;-9.5677;2.1598;-0.1095;
5256040738979620;-11.5104;1.8173;0.3864;
5256040749083943;-12.7777;1.9585;1.4859;
5256040759194724;-7.4022;1.5248;3.8189;
5256040769299047;-7.0666;0.3775;-0.5719;
5256040779403318;-13.2326;-0.5734;-5.2935;
5256040789512693;-11.0527;-1.0119;-1.9158;
5256040799617016;-7.7949;0.4134;-0.9936;
5256040809721286;-9.4454;-0.0921;-2.7589;
5256040819827328;-9.9772;-0.5016;-2.7230;
5256040829931547;-0.8551;-0.8249;-3.3529;
5256040840035870;-0.4095;-1.4432;-11.0043;
5256040850139672;-14.0734;-2.6767;-7.7465;
5256040860243995;-13.4172;0.1092;1.5577;
5256040870348266;-12.0852;2.6844;1.5840;
5256040880509880;-10.0442;0.1570;-0.2701;
5256040890614151;-8.4200;1.6687;-2.4404;
5256040900718474;-10.3534;1.3502;-2.7613;
5256040910761963;-9.3855;0.7920;-1.1874;
5256040920866286;-8.7242;1.4889;-2.9865;
5256040930970557;-10.0346;1.9346;-4.7136;
5256040941093943;-13.9131;2.0160;-1.0199;
5256040951198213;-7.0810;1.4698;9.3790;
5256040961302536;-5.0019;1.3454;2.5998;
5256040971394151;-9.9556;-0.5925;-7.6002;
5256040981498422;-11.0288;-2.5068;-6.8599;
5256040991602745;-9.4023;-1.2610;-3.6356;
5256041001734672;-8.1326;0.4636;-2.3327;
5256041011838943;-11.7188;0.9117;-4.8191;
5256041021943266;-11.3928;0.1499;-1.4079;
5256041032027797;-9.2154;1.1082;-0.3586;
5256041042132068;-9.2297;1.1728;-3.9664;
5256041052236391;-8.8466;0.5859;-2.5265;
5256041062329880;-7.3926;-0.0176;1.2176;
5256041072434203;-9.8192;-0.7220;-3.5399;
5256041082538474;-13.7596;-0.2094;-3.4131;
5256041092656130;-11.7045;0.2841;2.1039;
5256041102760401;-10.3750;1.2903;0.4534;
5256041112864724;-10.9259;0.6458;-2.2175;
5256041122968422;-3.7968;-0.8393;-0.9646;
5256041133072693;-7.1435;-0.8058;-8.6686;
5256041143177016;-14.0447;-0.5566;-8.1966;
5256041153292380;-10.4396;-0.7484;1.8356;
5256041163396651;-9.1077;1.8051;3.8264;
5256041173500974;-10.3005;0.5070;0.9996;
5256041183601443;-12.2842;-0.8536;-2.6728;
5256041193705713;-8.3626;-1.6804;0.2426;
5256041203810036;-5.4329;-1.1964;-3.3171;
5256041213922276;-11.2899;-0.9975;-7.1426;
5256041224026547;-10.6409;0.3224;-3.3529;
5256041234130870;-9.8456;0.6888;-0.6508;
5256041244229359;-11.7930;-0.0464;-0.1884;
5256041254333630;-10.0011;0.5405;1.0618;
5256041264437953;-9.0646;-0.1639;0.8653;
5256041274556911;-7.4644;-1.2730;-0.9936;
5256041284661807;-9.0790;-0.6383;-3.7938;
5256041294766651;-10.6983;0.5548;-3.2979;
5256041304857380;-9.1364;0.2554;-2.9889;
5256041314962224;-9.6275;1.2879;-3.1543;
5256041325067068;-7.5338;1.2661;-0.7756;
5256041335167276;-7.8619;0.7920;-4.1913;
5256041345272068;-12.7008;0.6099;-3.6021;
5256041355376911;-10.0250;1.6352;-0.0018;
5256041365471234;-7.2990;0.9356;-1.4270;
5256041375576130;-6.3120;-0.5160;-3.6523;
5256041385680974;-11.1126;1.1824;-3.1400;
5256041395791963;-12.0781;1.6304;-0.7155;
5256041405896807;-2.6375;1.2422;-1.2401;
5256041416001651;0.1319;-0.1567;-5.8011;
5256041426111026;-21.5569;1.4937;-4.8024;
5256041436215818;-19.0490;3.0843;1.8739;
5256041446320661;-10.0585;0.9236;-2.4356;
5256041456433005;-3.2985;-0.0200;1.2511;
5256041466537849;-4.5251;1.3310;2.1470;
5256041476642693;-12.9308;0.4974;-3.1543;
5256041486744151;-14.1048;1.2470;-3.2094;
5256041496848995;-8.2286;0.7896;-1.6451;
5256041506953838;-3.9742;0.3846;-2.3351;
5256041517048526;-10.4587;-0.0682;-5.0659;
5256041527153370;-11.8361;1.5129;3.6251;
5256041537258161;0.9870;0.8638;0.8967;
5256041547364151;-15.9805;-1.1892;-19.8341;
5256041557468943;-20.8361;1.6783;-7.6026;
5256041567573838;-4.2832;6.7519;7.8485;
5256041577686859;-1.8350;3.0293;-0.0353;
5256041587791651;-10.6313;-1.3591;-6.2348;
5256041597896547;-13.5873;1.7405;-1.8344;
5256041607969672;-8.8585;2.6414;2.2214;
5256041618074568;-7.3780;1.4554;-2.0378;
5256041628179411;-7.3038;0.0661;-3.5973;
5256041638297016;-7.8021;0.2124;-2.0163;
5256041648401911;-12.4636;2.0136;-4.9986;
5256041658506703;-14.4090;1.9490;-1.7169;
5256041668639568;-7.0570;1.5368;0.3697;
5256041678744411;-5.4305;0.5907;-3.9664;
5256041688849203;-12.1522;0.6673;-3.9951;
5256041698905401;-13.8099;1.7070;0.7528;
5256041709010141;-7.8428;0.4469;1.1169;
5256041719114984;-8.2143;-0.1304;-3.1615;
5256041729219776;-9.9006;-0.3242;0.7265;
5256041739356234;-8.1757;-0.0464;-0.0712;
5256041749461078;-9.4884;-0.3772;-5.7532;
5256041759565922;-11.6037;-0.8656;-1.4103;
5256041769676391;-9.6108;0.0302;0.4750;
5256041779781286;-10.3511;0.2650;-4.5939;
5256041789886130;-9.3162;-0.9975;0.2043;
5256041800010453;-9.3305;0.0876;-0.8426;
5256041810115297;-9.5557;-0.4585;-4.9866;
5256041820220141;-10.6146;-0.6144;-1.6642;
5256041830285297;-8.1039;-0.2142;-0.3562;
5256041840390141;-4.2066;-0.9162;-3.3218;
5256041850494932;-6.7265;-1.1390;-5.9569;
5256041860596547;-13.5945;-0.4848;-4.9723;
5256041870701338;-9.2321;-0.1424;2.6046;
5256041880806182;-15.3359;0.4902;1.3971;
5256041890926338;-23.6339;1.8796;1.3995;
5256041901031130;-9.6586;-0.0488;5.4362;
5256041911135974;0.3544;-2.4467;0.9039;
5256041921244828;-5.0163;-1.2060;-2.1434;
5256041931349672;-10.6816;0.2937;-3.5686;
5256041941454516;-6.8656;-0.5877;-4.9699;
5256041951581338;-6.9398;-0.6120;-6.2515;
5256041961686182;-13.4530;0.4950;-3.7723;
5256041971790974;-11.9560;1.8796;3.0670;
5256041981861286;-7.7375;2.2412;0.6114;
5256041991966130;-6.2713;-0.1831;-1.2691;
5256042002070922;-3.6147;-2.8397;-6.5557;
5256042012179776;-19.0418;1.0795;-17.4960;
5256042022284568;-13.8051;3.5348;0.7217;
5256042032389463;-3.2028;5.4679;7.9298;
5256042042486651;-5.5552;3.6353;-3.4322;
5256042052591495;-9.7783;-0.6335;0.4415;
5256042062696338;-9.5677;0.7319;2.1326;
5256042072802276;-9.8815;0.7896;-1.2643;
5256042082907120;-12.9236;-0.2381;-2.4787;
5256042093011963;-12.9380;0.4902;-1.3624;
5256042103116443;-10.5042;0.9906;0.2952;
5256042113221286;-10.7510;1.2613;-0.1645;
5256042123326130;-9.2106;0.6697;-0.5671;
5256042133430818;-8.8777;1.0771;-1.5398;
5256042143535661;-8.7628;1.0579;-2.6154;
5256042153640505;-9.3042;0.3751;-2.7852;
5256042163723891;-7.4572;0.7032;-1.0582;
5256042173828734;-8.1757;0.4735;-3.8608;
5256042183933526;-12.4926;0.6147;-4.5748;
5256042194053370;-9.1316;1.0484;2.0441;
5256042204158213;-7.7806;0.1666;-2.6321;
5256042214263057;-12.6171;-0.0488;-6.0984;
5256042224373109;-8.3985;1.1608;-0.9718;
5256042234477953;-6.9972;1.0172;-3.8776;
5256042244582797;-13.3525;1.9035;-3.5231;
5256042254682276;-9.4789;1.6424;-0.3921;
5256042264787120;-6.7911;0.8590;-1.5709;
5256042274891911;-10.6768;0.8040;-2.5863;
5256042284995401;-13.3119;1.0268;-1.3026;
5256042295099880;-11.1631;1.0723;0.4582;
5256042305204359;-7.3493;0.3320;1.6822;
5256042315308526;-6.2354;-1.2060;-1.7910;
5256042325413005;-9.2178;-0.1639;-4.3256;
5256042335517484;-12.2148;0.7175;-3.2189;
5256042345615818;-11.5032;1.4124;-0.8593;
5256042355720297;-10.0609;0.5524;-1.2763;
5256042365824776;-10.1498;0.4062;-2.6130;
5256042375935609;-8.7700;-0.7699;-0.3275;
5256042386040088;-9.6419;0.3320;-0.7035;
5256042396144568;-10.7964;0.2530;-2.4476;
5256042406249880;-9.9102;0.6218;-2.9052;
5256042416354359;-6.8103;0.5309;-1.3241;
5256042426458838;-6.6500;0.5309;-2.8837;
5256042436558734;-11.6901;1.4865;-4.1841;
5256042446663213;-12.9547;1.4100;-0.1143;
5256042456767693;-8.9949;1.1369;-0.2773;
5256042466890401;-9.3544;-0.1089;-2.5313;
5256042476994880;-9.4071;-0.6215;-2.2869;
5256042487099359;-8.9183;0.7032;-2.2367;
5256042497190401;-10.8852;0.9595;-4.1841;
5256042507294880;-10.2431;1.0172;-3.5136;
5256042517399359;-8.3172;1.4626;-1.5374;
5256042527499880;-7.6056;1.1752;-0.8402;
5256042537604359;-8.5352;0.2530;-1.1611;
5256042547708838;-9.7687;0.2650;-0.3826;
5256042557820297;-10.0995;0.4469;-1.0534;
5256042567924776;-10.1737;0.2219;-1.8775;
5256042578029255;-9.7735;-0.2405;-2.4643;
5256042588135870;-3.5524;0.1211;-2.7182;
5256042598240349;-13.8365;0.6218;-4.1650;
5256042608344828;-23.4712;2.4401;-0.3682;
5256042618448213;-0.4816;2.0662;1.0642;
5256042628552693;1.3845;-0.6048;-2.9004;
5256042638657172;-8.9112;-0.0511;-2.2199;
5256042648765193;-15.8510;0.6290;-0.9287;
5256042658869672;-15.0461;1.1871;-0.9407;
5256042668974151;-7.9747;0.7128;-0.1597;
5256042679068370;-6.3625;-0.3437;0.0532;
5256042689172849;-10.6481;-0.3628;-0.6772;
5256042699277276;-13.9322;-0.1807;-1.9373;
5256042709403734;-10.6840;-0.0129;-0.0760;
5256042719508213;-5.5720;-0.3676;2.2837;
5256042729612693;-4.3789;-0.4705;-10.3334;
5256042739699047;-20.5319;1.0531;-12.1038;
5256042749803526;-8.0465;-0.7555;12.4334;
5256042759908005;-1.4372;-1.6131;4.3630;
5256042770065297;-10.9857;-1.3519;-11.0234;
5256042780169776;-14.2555;-1.0358;-1.9014;
5256042790274255;-11.4338;-0.7388;1.3158;
5256042800328630;-6.9900;-0.1017;-1.5494;
5256042810433109;-7.1842;-0.4729;-5.2983;
5256042820537588;-10.4563;-0.0440;-5.1425;
5256042830638109;-10.5329;0.5883;-1.8176;
5256042840742588;-12.5261;0.9954;-4.1124;
5256042850847068;-11.2038;1.3573;-1.4988;
5256042860961026;-5.7491;-0.0224;3.0431;
5256042871065505;-7.3516;-0.2955;-2.0163;
5256042881169984;-10.6911;-0.3389;-1.9899;
5256042891277068;-11.1607;-0.1807;-0.2174;
5256042901381547;-10.7198;-0.3075;-3.1229;
5256042911486026;-8.9088;-0.1041;-2.1338;
5256042921582172;-7.4620;-0.0416;-2.0186;
5256042931686651;-8.7051;-0.6024;-3.1926;
5256042941791130;-11.5391;0.1905;-2.4858;
5256042951907276;-11.2158;1.2182;-2.5289;
5256042962011755;-11.3856;0.6529;-1.9469;
5256042972116234;-10.4755;0.6601;0.7504;
5256042982211963;-7.3926;0.5883;1.1794;
5256042992316443;-9.0503;0.4564;-1.8057;
5256043002420922;-13.5344;0.4759;-1.3744;
5256043012533318;-10.5999;0.0733;-0.1454;
5256043022637797;-8.0536;0.7370;-1.2497;
5256043032742276;-8.2071;-0.0081;-2.5528;
5256043042836130;-10.0514;0.6147;-2.8475;
5256043052940609;-9.0383;-0.8512;-2.1362;
5256043063045088;-9.1771;0.5189;-3.8034;
5256043073149880;-11.8313;0.3488;-4.4285;
5256043083254359;-11.1942;0.5883;-1.4151;
5256043093358838;-9.1819;1.1704;-0.8880;
5256043103467380;-9.0239;0.3775;-2.2941;
5256043113571859;-11.1942;0.9858;-1.0175;
5256043123676338;-9.4932;1.4100;-0.9909;
5256043133777901;-9.4382;0.3464;-2.9267;
5256043143882380;-9.2297;1.0651;-2.3901;
5256043153986859;-7.6080;0.1762;-2.6201;
5256043164093630;-7.7231;0.3416;-3.2357;
5256043174198109;-7.3181;-0.0129;-3.4633;
5256043184302588;-10.0250;0.9428;-6.0407;
5256043194416234;-11.2349;0.4038;-2.4380;
5256043204520713;-10.4539;0.9212;-0.1525;
5256043214625193;-8.2789;1.9609;-1.4821;
5256043224725922;-8.9614;0.4134;-1.6570;
5256043234830401;-9.3736;0.9284;-1.9516;
5256043244934880;-10.3125;1.5730;-2.5337;
5256043255036963;-9.8097;0.2411;-0.5264;
5256043265141443;-8.9973;0.9787;-1.0056;
5256043275245922;-8.9566;0.7032;-1.8583;
5256043285345088;-8.6979;-0.1017;-0.0832;
5256043295449620;-9.5148;-0.5375;-1.1444;
5256043305554151;-11.8887;0.0182;-2.2869;
5256043315666130;-10.0466;-0.0057;-0.2605;
5256043325770661;-7.0427;-0.9784;0.7217;
5256043335875193;-9.8408;0.1164;-3.6404;
5256043345976443;-10.7462;-0.6311;-2.3180;
5256043356080974;-9.9700;0.1044;-0.7421;
5256043366185505;-9.2584;-0.5566;-2.7278;
5256043376287068;-12.8925;0.5381;-0.6891;
5256043386391599;-9.8384;-0.3724;0.0724;
5256043396496130;-6.7840;-0.5136;-0.8665;
5256043406601443;-7.3950;-0.8584;-1.2162;
5256043416705974;-11.9991;-1.1964;-2.9172;
5256043426810505;-12.0541;-0.0849;-3.5997;
5256043436915088;-7.4237;-1.3065;-0.7277;
5256043447019620;-8.9327;-0.9712;-0.8976;
5256043457124151;-8.6333;-1.1339;-0.9790;
5256043467244255;-9.5773;-0.8225;-1.3074;
5256043477348786;-13.1919;0.2435;-1.5108;
5256043487453318;-9.6610;-0.6909;1.0259;
5256043497542693;-8.9016;0.2219;1.1961;
5256043507647224;-9.3616;0.0302;-0.3299;
5256043517751755;-10.3053;0.1546;-0.8210;
5256043527845609;-10.0466;-0.4609;1.3325;
5256043537950193;-10.4157;-0.2716;1.2248;
5256043548054672;-11.6228;0.5907;-0.5671;
5256043558164463;-11.2110;-0.1256;1.2488;
5256043568268995;-10.5640;0.1762;3.2752;
5256043578373526;-7.7423;0.0613;3.0503;
5256043588480713;-11.0695;-0.0849;0.5922;
5256043598585245;-13.1393;-0.5590;0.8871;
5256043608689776;-8.9279;-0.7268;1.1073;
5256043618793630;-8.4320;-0.5016;-0.5360;
5256043628898161;-11.2349;-0.9640;-0.3826;
5256043639002693;-10.5664;-0.3194;-0.0927;
5256043649105193;-8.7724;-0.8779;-0.9936;
5256043659209724;-8.5615;-0.4346;-0.7107;
5256043669314255;-9.4406;-0.0559;0.5850;
5256043679425609;-11.5822;-0.3365;-2.3973;
5256043689530141;-11.5319;0.3344;-1.2978;
5256043699634672;-9.1866;0.5166;1.3086;
5256043709750453;-8.2502;0.6170;1.4477;
5256043719854984;-8.1661;-0.0296;0.4558;
5256043729959516;-13.0723;0.8901;-0.9407;
5256043740046963;-13.9561;0.3224;-0.6652;
5256043750151495;-5.6677;0.0996;-0.7995;
5256043760256026;-7.4453;1.2855;-0.7035;
5256043770352276;-12.0805;0.7729;0.0580;
5256043780456807;-10.6768;0.5812;-1.4414;
5256043790561338;-8.6070;0.3392;-1.3696;
5256043800708734;-12.6099;1.2015;0.0293;
5256043810813266;-10.0780;0.8542;0.1780;
5256043820917797;-8.8226;1.1225;-0.3203;
5256043830975922;-8.3124;0.4783;0.6619;
5256043841080453;-10.8852;0.9763;-0.5862;
5256043851184984;-10.6744;1.4626;0.5180;
5256043861304359;-9.1484;0.8471;-0.4977;
5256043871408891;-10.1952;1.7692;-1.6546;
5256043881513422;-9.0120;0.5883;0.0126;
5256043891628422;-5.5792;1.3525;-1.2185;
5256043901732953;-11.2756;0.7175;-3.6069;
5256043911837484;-18.4167;1.4506;-0.6891;
5256043921949047;-6.8728;0.4373;1.9313;
5256043932053578;-2.9417;0.0182;0.5013;
5256043942158109;-11.4194;0.8973;0.3048;
5256043952236807;-11.8576;0.1857;0.6787;
5256043962341338;-7.8188;-0.1687;-3.7675;
5256043972445870;-13.2832;0.1522;-3.7460;
5256043982563318;-12.0374;0.9954;0.8103;
5256043992667849;-7.3349;-0.1184;2.7915;
5256044002772380;-7.9265;0.1618;1.3804;
5256044012883318;-13.2999;0.6817;-0.0808;
5256044022987849;-12.3057;0.2554;0.0748;
5256044033092380;-6.2354;-0.1137;0.4606;
5256044043194984;-10.0708;-0.2309;-0.4929;
5256044053299516;-14.2723;0.6099;-0.7923;
5256044063404047;-8.5998;-0.3987;1.5529;
5256044073503109;-2.0602;0.0709;-1.7719;
5256044083607641;-14.3683;-0.4226;-4.0956;
5256044093712172;-12.1834;0.5596;-1.1994;
5256044103823526;4.3334;-0.8755;-0.8354;
5256044113928057;0.1056;-0.7986;-2.1817;
5256044124032588;-46.8871;2.3946;-0.8545;
5256044134129463;-33.4436;0.7032;3.5844;
5256044144233995;12.5788;-0.9664;7.4291;
5256044154338526;9.3903;1.5296;11.5684;
5256044164439047;-17.9303;1.8173;2.1135;
5256044174543578;-19.8323;1.1010;-2.7374;
5256044184648109;-3.7848;-1.8742;-5.9330;
5256044194760297;-3.9646;-0.0778;-7.9932;
5256044204864828;-9.7543;-0.0105;-3.8991;
5256044214969359;-4.8102;-0.6239;-1.4892;
5256044225077380;-2.1272;-1.1677;-6.5055;
5256044235181911;-8.9590;-0.5973;-5.4849;
5256044245286443;-10.4611;0.2602;0.7122;
5256044255389047;-4.1177;-0.1137;2.0177;
5256044265493578;-8.6381;-0.0200;-2.8908;
5256044275598109;-9.7854;0.5572;1.5960;
5256044285707276;-3.5620;0.3511;4.2311;
5256044295811859;2.6638;-0.0129;8.3970;
5256044305916391;8.5878;-1.4575;-9.0855;
5256044316019463;-34.6890;1.7022;-32.2714;
5256044326124047;-53.5944;5.4224;1.2918;
5256044336228578;-5.2582;4.2535;38.3791;
5256044346329151;14.3372;5.7338;-5.4084;
5256044356433734;-7.9364;-0.6431;14.7664;
5256044366538266;-25.2556;2.9073;6.8925;
5256044376627588;-13.4818;1.2302;0.8462;
5256044386732172;-2.3166;-0.6550;0.9111;
5256044396836703;-12.4493;-1.0430;0.4104;
5256044406949359;-14.1622;-1.7163;1.4139;
5256044417053943;-2.2540;-3.4959;0.4439;
5256044427158474;-7.3445;-1.1844;-2.8522;
5256044437269047;-10.6624;-0.1567;-0.4690;
5256044447373578;-7.5553;0.1905;0.4271;
5256044457478161;-7.6633;-0.7579;-0.9790;
5256044467591234;-12.3679;0.9930;-0.2151;
5256044477695766;-11.4673;1.2206;0.0628;
5256044487800349;-7.2105;0.7175;2.4607;
5256044497894151;-4.0364;-0.0488;4.2861;
5256044507998734;-7.1722;0.2506;3.0574;
5256044518103266;-9.7065;0.0661;1.2129;
5256044528213422;-6.7385;-0.6048;-0.9048;
5256044538317953;-14.7132;-3.1463;-10.6232;
5256044548422536;-25.4569;0.7537;-20.0043;
5256044558523318;-12.8566;0.3751;-3.7603;
5256044568627901;7.9699;-1.6633;11.2786;
5256044578732432;-4.0675;-3.0864;6.7271;
5256044588839151;-24.3144;-1.1677;2.4846;
5256044598943734;-15.8868;-1.2610;5.0432;
5256044609048266;-0.5198;-1.0860;3.6778;
5256044619151547;-8.7003;-1.0047;-1.2739;
5256044629256130;-17.4535;-0.5160;-1.7838;
5256044639360661;-12.7825;-0.6861;-0.1813;
5256044649485713;-6.6212;-0.9473;-0.3491;
5256044659590297;-10.5927;-0.5734;-3.4035;
5256044669694776;-14.1359;-0.1711;-0.9096;
5256044679774307;-7.8882;0.2818;1.1432;
5256044689878838;-6.9900;-1.1004;0.2234;
5256044699983474;-13.3262;0.7561;-0.4905;
5256044710103318;-12.9165;-0.0153;1.6343;
5256044720207901;-7.8284;0.4205;0.8246;
5256044730312432;-9.0933;1.0292;0.3769;
5256044740419828;-10.4994;1.7022;1.4668;
5256044750524411;-9.8767;1.7692;-0.2055;
5256044760628943;-9.1220;2.0590;0.0126;
5256044770709984;-11.1703;1.3860;-0.3491;
5256044780814568;-13.1249;2.1837;-1.1683;
5256044790919099;-10.3292;1.0364;1.1432;
5256044801018213;-9.0168;0.7777;1.6080;
5256044811122797;-10.1402;2.0928;1.3732;
5256044821227328;-11.5630;1.2254;2.6477;
5256044831339151;-10.0370;0.8231;1.5649;
5256044841443734;-12.5022;1.4483;1.0020;
5256044851548266;-10.5568;1.6448;1.7136;
5256044861657693;-9.3520;1.8197;1.7830;
5256044871762276;-11.0312;1.6950;-0.1959;
5256044881866807;-9.9604;0.8542;-0.9263;
5256044891980193;-10.1306;1.3023;-1.8751;
5256044902084776;-10.6074;0.7801;-0.8474;
5256044912189307;-7.8571;0.1929;1.3612;
5256044922276547;-10.2000;-0.2118;-0.2390;
5256044932381130;-10.9140;0.3224;0.1923;
5256044942485661;-10.3846;-0.1639;0.7409;
5256044952597276;-8.9758;-0.3843;-1.1276;
5256044962701859;-10.9044;-0.1998;-1.2042;
5256044972806391;-8.9112;-0.7029;1.5003;
5256044982921547;-8.3483;-1.0454;0.7528;
5256044993026130;-10.4420;-1.0119;0.2474;
5256045003130661;-12.2483;-0.4968;-0.8737;
5256045013228734;-11.7404;-0.6622;2.4368;
5256045023333318;-6.3529;-0.7005;0.9063;
5256045033437849;-9.0239;-0.4681;0.3482;
5256045043546651;-12.4493;-0.6742;-0.0808;
5256045053651234;-12.8925;-0.7579;0.3840;
5256045063755766;-10.2479;-0.3532;1.3588;
5256045073848422;-12.0661;-0.3290;1.6726;
5256045083953005;-10.9355;0.7223;1.3038;
5256045094057536;-10.7103;0.4998;1.3301;
5256045104172380;-9.8480;1.9537;0.6643;
5256045114276963;-11.5702;1.7668;0.0485;
5256045124381495;-10.8491;2.2436;0.4678;
5256045134497120;-9.1938;0.8997;0.6882;
5256045144601703;-9.8169;2.5143;0.1301;
5256045154706234;-11.6037;1.2709;0.9565;
5256045164793526;-10.1306;3.3000;1.1264;
5256045174898109;-8.7580;1.9968;1.2607;
5256045185002641;-9.8049;3.2545;1.4859;
5256045195122016;-10.8515;1.7285;1.7447;
5256045205226547;-10.7773;2.8567;1.1746;
5256045215331130;-8.4945;1.5105;1.7973;
5256045225427068;-8.5424;1.2230;1.0164;
5256045235531651;-11.5343;1.4243;0.0173;
5256045245636182;-11.6396;0.0661;-0.4543;
5256045255744203;-10.3268;0.9452;0.0245;
5256045265836807;-8.4224;0.7585;0.8462;
5256045275941391;-8.5376;-0.8803;0.9709;
5256045286045974;-12.8973;0.0541;0.2952;
5256045296163109;-10.5568;0.0182;1.1169;
5256045306267693;-8.0776;-0.7172;1.7566;
5256045316372224;-12.0087;0.5261;1.7447;
5256045326479255;-11.7260;0.1092;1.7471;
5256045336583838;-9.5148;0.1546;1.7901;
5256045346688370;-9.7448;1.0723;1.1554;
5256045356782172;-10.1402;0.0494;1.3253;
5256045366886755;-10.0466;0.2554;0.4415;
5256045376991286;-9.5653;0.1187;-0.7493;
5256045387101859;-10.1713;0.3511;-0.6197;
5256045397206443;-9.8815;-0.3461;-0.0808;
5256045407310974;-8.6477;-0.3314;-0.9096;
5256045417411443;-10.6385;0.1020;-0.8426;
5256045427516026;-11.7380;-0.1519;-0.1525;
5256045437620557;-10.1378;0.1331;-0.9622;
5256045447735818;-10.4850;0.8901;0.0293;
5256045457840401;-10.0561;0.3823;0.0437;
5256045467944932;-11.5439;0.1522;-0.4137;
5256045478042276;-10.6241;1.0531;0.9613;
5256045488146859;-9.5557;0.7872;0.1397;
5256045498251391;-10.3558;0.2124;1.4333;
5256045508353786;-9.6969;-0.0057;1.4620;
5256045518458370;-10.0609;0.1427;0.1564;
5256045528562901;-10.5736;0.2076;0.5372;
5256045538665609;-8.4392;0.2554;1.6247;
5256045548770193;-8.7820;-0.5447;0.4750;
5256045558874724;-12.1786;-0.1304;-0.1765;
5256045569000505;-11.2971;0.7777;1.0570;
5256045579105088;-8.6046;0.5835;0.2115;
5256045589209620;-9.8862;0.1283;1.1961;
5256045599291859;-9.0431;0.0852;1.6199;
5256045609396443;-10.1833;0.2339;1.0810;
5256045619500974;-12.3966;0.2650;1.5338;
5256045629592276;-10.9834;-0.1878;1.4139;
5256045639696859;-10.3149;-0.7627;1.2488;
5256045649801391;-8.8370;0.1762;2.6309;
5256045659959463;-8.5591;0.7585;3.0957;
5256045670063995;-11.9680;1.5057;0.8486;
5256045680168578;-15.1322;1.6687;0.8366;
5256045690217588;-10.9235;1.3238;2.4129;
5256045700322172;-7.4764;0.5524;3.3760;
5256045710426755;-7.2416;0.7777;3.3305;
5256045720552276;-12.4612;0.5883;-1.0247;
5256045730656807;-16.7133;1.3741;0.6643;
5256045740761391;-9.2297;1.5176;4.2957;
5256045750838526;-5.9097;0.2076;1.8715;
5256045760943109;-10.7868;-0.2812;2.5161;
5256045771047641;-11.2134;0.7343;3.4789;
5256045781194672;-10.8108;-0.0368;0.7433;
5256045791299255;-12.8255;-1.3998;-0.7035;
5256045801403786;-10.5616;-1.5269;1.1913;
5256045811486286;-7.5721;-2.2983;2.0991;
5256045821590870;-8.4802;-3.6302;1.2368;
5256045831695401;-10.6193;-4.2673;-0.2222;
5256045841798526;-12.4158;-4.0564;-0.9718;
5256045851903109;-11.6516;-3.6135;0.0942;
5256045862007641;-9.3927;-3.1104;0.8198;
5256045872144672;-9.5267;-2.6551;1.1432;
5256045882249255;-10.1067;-1.7258;1.6152;
5256045892353786;-10.2933;-0.2022;0.0532;
5256045902423213;-11.2373;0.9141;-1.6786;
5256045912527797;-11.0695;0.8710;-1.3983;
5256045922632328;-9.9078;0.4998;-1.1037;
5256045932747484;-9.8958;0.5477;-1.6834;
5256045942852068;-9.7472;1.1154;-2.2247;
5256045952956599;-9.1603;1.6567;-2.3877;
5256045963061755;-9.5124;1.6424;-3.0344;
5256045973166338;-9.2034;2.4473;-2.7278;
5256045983270870;-8.3411;2.4329;-2.7829;
5256045993380505;-8.8513;2.8232;-3.1615;
5256046003485088;-9.2922;3.0604;-2.6154;
5256046013589620;-8.9638;2.2268;-2.2080;
5256046023699047;-8.5304;1.8963;-1.9349;
5256046033803630;-8.5304;2.1550;-1.8081;
5256046043908161;-9.4956;1.6735;-2.5433;
5256046054005505;-10.5305;0.9978;-3.1376;
5256046064110088;-9.9556;0.8566;-2.6824;
5256046074214620;-9.0191;0.4783;-2.6465;
5256046084317901;-8.9423;0.0446;-2.6201;
5256046094422484;-8.9614;0.3823;-2.1410;
5256046104527016;-9.3185;0.6123;-1.8320;
5256046114622901;-10.0226;0.6721;-2.0545;
5256046124727484;-9.9509;0.3392;-1.5852;
5256046134832016;-9.5773;0.0948;-1.4198;
5256046144943213;-9.5342;0.3368;-2.3109;
5256046155047797;-9.1675;0.3272;-1.9995;
5256046165152328;-9.1723;0.1905;-2.0043;
5256046175267172;-9.5821;0.3296;-2.5552;
5256046185371703;-9.4621;0.6242;-2.0979;
5256046195476286;-9.5988;0.8997;-1.4892;
5256046205566755;-9.8934;0.7008;-1.4964;
5256046215671338;-9.4406;1.0938;-1.7384;
5256046225775870;-9.3162;1.1177;-2.2702;
5256046235884568;-9.3592;1.1608;-2.7374;
5256046245989151;-9.2201;1.3621;-2.0644;
5256046256093682;-9.5653;1.4746;-1.4509;
5256046266199880;-9.7926;1.2951;-1.3528;
5256046276304463;-9.4765;1.0723;-1.1755;
5256046286409047;-9.3712;1.1369;-1.6762;
5256046296517068;-9.3808;1.7429;-2.6201;
5256046306621651;-9.2369;2.2436;-2.8860;
5256046316726234;-9.3257;2.4855;-2.6560;
5256046326822797;-9.6371;2.5956;-2.5887;
5256046336927380;-9.5749;2.4257;-2.4667;
5256046347031963;-9.3401;2.4832;-2.3734;
5256046357146286;-9.3425;2.1837;-2.1840;
5256046367250870;-9.4765;1.6328;-1.7432;
5256046377355453;-9.6275;1.8939;-2.3542;
5256046387441338;-9.4573;1.7883;-2.2845;
5256046397545922;-9.3329;1.7859;-2.7589;
5256046407650505;-9.3353;1.6543;-2.7565;
5256046417763630;-9.2827;1.7692;-1.9971;
5256046427868213;-9.4908;1.6663;-1.4462;
5256046437972797;-9.8121;1.4435;-1.6475;
5256046448105609;-9.6036;1.2302;-1.9540;
5256046458210193;-9.3401;1.1943;-2.5409;
5256046468314776;-9.3425;1.3382;-2.9985;
5256046478396234;-9.2560;1.5610;-2.5074;
5256046488500818;-9.3664;1.6065;-1.8655;
5256046498605401;-9.6538;1.4554;-1.7240;
5256046508708109;-9.6156;1.2111;-1.7886;
5256046518812693;-9.4669;1.2254;-2.1601;
5256046528917276;-9.4765;1.4650;-2.7876;
5256046539011859;-9.4190;1.4698;-2.8283;
5256046549116443;-9.3832;1.2855;-2.3949;
5256046559221026;-9.4669;1.2063;-2.0282;
5256046569352484;-9.5028;1.2494;-1.8368;
5256046579457068;-9.4789;1.2760;-1.8511;
5256046589561651;-9.4741;1.1201;-2.1960;
5256046599642068;-9.4693;0.9093;-2.5385;
5256046609746651;-9.4573;0.7128;-2.6297;
5256046619851234;-9.4382;0.6075;-2.3276;
5256046629974984;-9.5749;0.4974;-1.9564;
5256046640079568;-9.6108;0.4636;-1.7838;
5256046650184151;-9.5124;0.3894;-1.9038;
5256046660276391;-9.4717;0.2602;-2.2152;
5256046670381026;-9.5124;0.1235;-2.4308;
5256046680485557;-9.5172;0.0111;-2.4141;
5256046690598943;-9.5148;0.0206;-2.3061;
5256046700703474;-9.5653;-0.0320;-2.1123;
5256046710808109;-9.5749;-0.1639;-1.8846;
5256046720878838;-9.5940;-0.1519;-1.8296;
5256046730983422;-9.6443;0.0852;-2.1362;
5256046741088005;-9.6156;0.2076;-2.5672;
5256046751203005;-9.4884;0.1379;-2.7015;
5256046761307588;-9.4860;-0.0033;-2.5122;
5256046771412172;-9.5677;-0.1687;-2.0955;
5256046781524151;-9.5725;-0.2548;-1.6857;
5256046791628734;-9.6682;-0.1974;-1.6738;
5256046801733318;-9.6538;-0.0248;-1.9732;
5256046811841547;-9.5797;0.0972;-2.3180;
5256046821946130;-9.5414;0.1594;-2.5146;
5256046832050713;-9.4980;0.1714;-2.4356;
5256046842158318;-9.4669;0.1594;-2.2654;
5256046852262901;-9.5100;0.1451;-2.0644;
5256046862367484;-9.5725;0.2001;-1.9828;
5256046872460401;-9.6371;0.3464;-2.1194;
5256046882564984;-9.6156;0.5405;-2.3590;
5256046892669568;-9.4837;0.6697;-2.5146;
5256046902781651;-9.4334;0.6721;-2.5385;
5256046912886234;-9.4454;0.5501;-2.3925;
5256046922990818;-9.5291;0.2937;-2.1075;
5256046933106234;-9.6395;0.1187;-1.9612;
5256046943210818;-9.6562;0.1929;-2.1266;
5256046953315401;-9.5366;0.3966;-2.3710;
5256046963408422;-9.4214;0.5189;-2.5289;
5256046973513005;-9.4645;0.4205;-2.4835;
5256046983617588;-9.5342;0.1331;-2.1912;
5256046993727693;-9.6084;-0.0778;-1.9373;
5256047003832276;-9.6203;-0.0368;-1.9397;
5256047013936859;-9.5653;0.0900;-1.9660;
5256047024055609;-9.5462;0.1642;-2.0644;
5256047034160193;-9.5148;0.1642;-2.0569;
5256047044264776;-9.4860;0.1379;-2.0163;
5256047054357276;-9.5124;0.1929;-2.0067;
5256047064461859;-9.5414;0.4397;-2.0617;
5256047074566443;-9.5124;1.1082;-2.5122;
5256047084665818;-9.3975;1.1728;-2.3109;
5256047094770401;-9.3999;1.2015;-2.1697;
5256047104874984;-9.4884;1.2111;-2.1864;
5256047114979880;-9.4478;1.2206;-2.1529;
5256047125084463;-9.4119;1.2975;-2.2869;
5256047135189047;-9.4406;1.2999;-2.4380;
5256047145293734;-9.4262;1.2159;-2.3782;
5256047155398318;-9.4358;1.1034;-2.2893;
5256047165502901;-9.4669;1.0747;-2.2702;
5256047175605193;-9.4860;1.0890;-2.3061;
5256047185709776;-9.4549;1.0651;-2.3109;
5256047195814359;-9.4358;1.0220;-2.3447;
5256047205911963;-9.4860;0.9619;-2.3399;
5256047216016547;-9.4717;0.9332;-2.2822;
5256047226121130;-9.4525;0.8686;-2.3180;
5256047236238213;-9.4789;0.8830;-2.3518;
5256047246342797;-9.4908;0.8686;-2.2965;
5256047256447380;-9.4908;0.8136;-2.2822;
5256047266529984;-9.4741;0.7729;-2.3013;
5256047276634568;-9.4717;0.7513;-2.3157;
5256047286739151;-9.4765;0.6984;-2.3399;
5256047296863109;-9.4980;0.6936;-2.3252;
5256047306967693;-9.5004;0.6769;-2.3085;
5256047317072276;-9.5172;0.6242;-2.2439;
5256047327180818;-9.5243;0.5453;-2.2654;
5256047337285401;-9.5243;0.5070;-2.2654;
5256047347389984;-9.5195;0.4950;-2.2654;
5256047357483943;-9.5291;0.4684;-2.2582;
5256047367588526;-9.5243;0.4735;-2.2869;
5256047377693109;-9.4932;0.5166;-2.2845;
5256047387797901;-9.5052;0.5453;-2.2487;
5256047397902484;-9.5510;0.5429;-2.2510;
5256047408007068;-9.5267;0.5692;-2.2104;
5256047418112588;-9.5076;0.5859;-2.1673;
5256047428217172;-9.4956;0.6960;-2.3925;
5256047438321755;-9.4765;0.7609;-2.2319;
5256047448450193;-9.5052;0.8183;-2.1218;
5256047458554776;-9.4765;0.8088;-2.1003;
5256047468659359;-9.4573;0.8973;-2.1529;
5256047478746026;-9.4525;0.9715;-2.1912;
5256047488850609;-9.5076;1.0101;-2.2080;
5256047498955193;-9.5291;1.0002;-2.2917;
5256047509053213;-9.4932;1.0172;-2.2893;
5256047519157797;-9.4143;1.0579;-2.1984;
5256047529262380;-9.4310;1.0627;-2.2032;
5256047539366443;-9.4956;1.0866;-2.1003;
5256047549471026;-9.5267;1.1441;-2.0859;
5256047559575609;-9.5124;1.1656;-2.1745;
5256047569703422;-9.4645;1.1704;-2.2630;
