Sensor: bmi160 Gyroscope Non-wakeup
Vendor: BOSCH
TimestampGyro [ns]; GyroX [rad/s]; GyroY [rad/s]; GyroZ [rad/s]
2764870954259307;0.0055;0.0064;-0.0083;
2764870964343265;0.0044;0.0085;-0.0104;
2764870974464151;-0.0020;0.0064;-0.0125;
2764870984542015;0.0001;0.0064;-0.0157;
2764870994692119;0.0023;0.0064;-0.0189;
2764871004758422;0.0044;0.0085;-0.0200;
2764871014895609;0.0023;0.0096;-0.0221;
2764871024992640;0.0033;0.0138;-0.0221;
2764871035101078;0.0023;0.0138;-0.0253;
2764871045185974;0.0023;0.0128;-0.0242;
2764871055311286;0.0044;0.0096;-0.0242;
2764871065414932;0.0044;0.0096;-0.0253;
2764871075524411;0.0044;0.0096;-0.0253;
2764871085622328;0.0033;0.0085;-0.0232;
2764871095749724;0.0055;0.0096;-0.0210;
2764871105846286;0.0023;0.0107;-0.0200;
2764871115955036;0.0033;0.0096;-0.0168;
2764871126084567;0.0044;0.0075;-0.0136;
2764871136168109;0.0033;0.0075;-0.0136;
2764871146276182;0.0023;0.0032;-0.0125;
2764871156381703;0.0033;0.0032;-0.0093;
2764871166482015;0.0033;0.0032;-0.0093;
2764871176598265;0.0023;0.0043;-0.0072;
2764871186708057;0.0001;0.0011;-0.0072;
2764871196815349;0.0001;0.0032;-0.0072;
2764871206940765;0.0001;0.0032;-0.0061;
2764871217027640;0.0023;0.0011;-0.0061;
2764871227142849;0.0023;0.0011;-0.0040;
2764871237247432;0.0033;0.0011;-0.0040;
2764871247352692;0.0012;0.0011;-0.0029;
2764871257475869;0.0012;-0.0000;-0.0040;
2764871267576442;0.0012;-0.0000;-0.0029;
2764871277677119;0.0023;-0.0011;-0.0029;
2764871287780140;0.0012;-0.0021;-0.0019;
2764871297887640;-0.0009;-0.0021;0.0013;
2764871307992640;-0.0009;-0.0011;0.0035;
2764871318101703;-0.0020;-0.0032;0.0056;
2764871328203161;-0.0031;-0.0032;0.0088;
2764871338311442;-0.0041;-0.0032;0.0109;
2764871348434776;-0.0031;-0.0053;0.0120;
2764871358556286;-0.0052;-0.0064;0.0173;
2764871368648474;-0.0063;-0.0085;0.0205;
2764871378748369;-0.0084;-0.0107;0.0237;
2764871388838057;-0.0116;-0.0128;0.0280;
2764871398955557;-0.0116;-0.0149;0.0322;
2764871409100817;-0.0116;-0.0149;0.0365;
2764871419170661;-0.0137;-0.0160;0.0397;
2764871429264099;-0.0137;-0.0170;0.0429;
2764871439379515;-0.0137;-0.0181;0.0439;
2764871449517640;-0.0137;-0.0202;0.0461;
2764871459618890;-0.0126;-0.0213;0.0471;
2764871469720349;-0.0137;-0.0192;0.0493;
2764871479807536;-0.0148;-0.0202;0.0482;
2764871489943890;-0.0137;-0.0192;0.0461;
2764871500024724;-0.0148;-0.0170;0.0471;
2764871510183265;-0.0148;-0.0170;0.0429;
2764871520269515;-0.0116;-0.0160;0.0375;
2764871530379307;-0.0095;-0.0160;0.0344;
2764871540467849;-0.0052;-0.0160;0.0312;
2764871550579932;-0.0052;-0.0149;0.0280;
2764871560700869;-0.0031;-0.0138;0.0248;
2764871570824828;-0.0052;-0.0107;0.0226;
2764871580899411;-0.0063;-0.0107;0.0226;
2764871591004307;-0.0052;-0.0096;0.0194;
2764871601114307;-0.0041;-0.0085;0.0194;
2764871611225974;-0.0063;-0.0085;0.0205;
2764871621329307;-0.0063;-0.0107;0.0205;
2764871631433474;-0.0052;-0.0128;0.0216;
2764871641537640;-0.0041;-0.0138;0.0248;
2764871651647276;-0.0063;-0.0160;0.0258;
2764871661761703;-0.0084;-0.0149;0.0280;
2764871671894099;-0.0095;-0.0128;0.0290;
2764871681972744;-0.0095;-0.0107;0.0301;
2764871692078474;-0.0116;-0.0107;0.0365;
2764871702189411;-0.0137;-0.0149;0.0386;
2764871712293057;-0.0148;-0.0170;0.0375;
2764871722403786;-0.0137;-0.0181;0.0375;
2764871732517328;-0.0148;-0.0192;0.0375;
2764871742634411;-0.0137;-0.0202;0.0386;
2764871752738578;-0.0105;-0.0192;0.0386;
2764871762836807;-0.0095;-0.0160;0.0375;
2764871772940453;-0.0052;-0.0138;0.0365;
2764871783040349;-0.0052;-0.0138;0.0322;
2764871793157744;-0.0052;-0.0128;0.0290;
2764871803259359;-0.0052;-0.0117;0.0248;
2764871813372640;-0.0031;-0.0107;0.0205;
2764871823482744;0.0023;-0.0107;0.0141;
2764871833580974;0.0097;-0.0064;0.0109;
2764871843693369;0.0204;-0.0021;0.0045;
2764871853800557;0.0278;-0.0000;-0.0019;
2764871863911442;0.0310;0.0032;-0.0083;
2764871874005557;0.0300;0.0053;-0.0125;
2764871884171078;0.0278;0.0085;-0.0168;
2764871894222432;0.0246;0.0117;-0.0242;
2764871904327536;0.0257;0.0149;-0.0296;
2764871914441807;0.0257;0.0160;-0.0328;
2764871924558682;0.0300;0.0192;-0.0381;
2764871934654307;0.0417;0.0192;-0.0413;
2764871944759619;0.0598;0.0192;-0.0445;
2764871954863942;0.0832;0.0192;-0.0466;
2764871964958786;0.1129;0.0181;-0.0466;
2764871975077744;0.1502;0.0181;-0.0477;
2764871985206182;0.1864;0.0181;-0.0445;
2764871995311703;0.2194;0.0181;-0.0423;
2764872005418161;0.2471;0.0149;-0.0381;
2764872015519880;0.2642;0.0117;-0.0317;
2764872025621547;0.2684;0.0075;-0.0253;
2764872035723369;0.2716;0.0043;-0.0189;
2764872045825036;0.2844;-0.0000;-0.0093;
2764872055926651;0.3047;-0.0032;0.0024;
2764872066048213;0.3302;-0.0053;0.0152;
2764872076149880;0.3473;-0.0064;0.0280;
2764872086251599;0.3366;-0.0096;0.0397;
2764872096371286;0.3036;-0.0192;0.0503;
2764872106472953;0.2695;-0.0266;0.0620;
2764872116574619;0.2674;-0.0330;0.0716;
2764872126691390;0.3089;-0.0383;0.0876;
2764872136793005;0.3600;-0.0490;0.1068;
2764872146894672;0.4570;-0.0447;0.1430;
2764872157017901;0.5507;-0.0447;0.1601;
2764872167119567;0.6338;-0.0533;0.1727;
2764872177221234;0.7232;-0.0597;0.1897;
2764872187347484;0.7604;-0.0703;0.2121;
2764872197449151;0.7754;-0.0842;0.2334;
2764872207550869;0.7775;-0.0948;0.2483;
2764872217665401;0.7626;-0.0969;0.2526;
2764872227767067;0.7668;-0.0937;0.2600;
2764872237868786;0.7530;-0.0820;0.2771;
2764872247980609;0.7541;-0.0735;0.2899;
2764872258082276;0.7477;-0.0692;0.2963;
2764872268183994;0.6615;-0.0778;0.2846;
2764872278322797;0.5252;-0.0991;0.2771;
2764872288424463;0.3537;-0.1055;0.2664;
2764872298526130;0.2045;-0.0895;0.2483;
2764872308634463;0.0598;-0.0660;0.2292;
2764872318736130;-0.0744;-0.0383;0.2121;
2764872328837849;-0.1320;-0.0085;0.2036;
2764872338930557;-0.1192;0.0138;0.1951;
2764872349032224;-0.1234;0.0224;0.1812;
2764872359133890;-0.1202;0.0202;0.1748;
2764872369265817;-0.1170;0.0117;0.1716;
2764872379367484;-0.1117;-0.0075;0.1695;
2764872389469151;-0.1075;-0.0277;0.1654;
2764872399597172;-0.1085;-0.0320;0.1590;
2764872409698838;-0.1032;-0.0192;0.1569;
2764872419800505;-0.1085;-0.0053;0.1537;
2764872429911286;-0.1309;0.0096;0.1505;
2764872440012953;-0.1266;0.0202;0.1441;
2764872450114619;-0.1309;0.0107;0.1292;
2764872460234515;-0.1330;-0.0075;0.1196;
2764872470336182;-0.1288;-0.0064;0.1228;
2764872480437797;-0.0819;0.0234;0.1217;
2764872490587484;-0.1245;0.0362;0.1079;
2764872500689151;-0.1170;0.0202;0.0897;
2764872510790817;-0.1000;0.0266;0.0770;
2764872520847640;-0.1128;0.0202;0.0631;
2764872530949307;-0.1575;-0.0277;0.0365;
2764872541063213;-0.2545;-0.0554;0.0173;
2764872551164880;-0.3727;-0.0490;0.0003;
2764872561266547;-0.4824;-0.0490;-0.0189;
2764872571424984;-0.5270;-0.0341;-0.0360;
2764872581526651;-0.5110;0.0160;-0.0349;
2764872591628317;-0.5110;0.0490;-0.0328;
2764872601738265;-0.4952;0.0607;-0.0306;
2764872611839880;-0.4249;0.0767;-0.0242;
2764872621941547;-0.3312;0.0895;-0.0221;
2764872632087276;-0.2225;0.0863;-0.0221;
2764872642188942;-0.1064;0.0650;-0.0136;
2764872652290609;-0.0968;0.0458;-0.0051;
2764872662392797;-0.0957;0.0405;0.0024;
2764872672494463;-0.0499;0.0320;0.0013;
2764872682596130;-0.0158;0.0234;0.0056;
2764872692709984;0.0023;0.0256;0.0226;
2764872702811703;-0.0009;0.0256;0.0375;
2764872712913369;-0.0148;0.0277;0.0461;
2764872723033213;-0.0361;0.0458;0.0471;
2764872733134880;-0.0787;0.0501;0.0493;
2764872743236547;-0.1085;0.0415;0.0599;
2764872753341859;-0.1128;0.0256;0.0738;
2764872763443526;-0.1085;0.0075;0.0876;
2764872773545192;-0.1085;0.0021;0.0972;
2764872783681026;-0.1107;0.0256;0.1068;
2764872793782692;-0.1533;0.0341;0.1100;
2764872803884359;-0.2012;0.0309;0.1089;
2764872814002536;-0.2097;0.0469;0.1100;
2764872824104203;-0.2225;0.0660;0.1153;
2764872834205869;-0.2332;0.0703;0.1142;
2764872844313786;-0.2427;0.0543;0.1079;
2764872854415453;-0.2427;0.0298;0.0983;
2764872864517119;-0.2406;0.0160;0.0951;
2764872874641130;-0.2715;0.0202;0.0887;
2764872884742849;-0.3407;0.0234;0.0812;
2764872894844463;-0.4036;0.0320;0.0759;
2764872904953369;-0.4494;0.0501;0.0674;
2764872915055036;-0.4877;0.0756;0.0546;
2764872925156703;-0.5036;0.0959;0.0471;
2764872935281599;-0.4782;0.0863;0.0365;
2764872945383213;-0.4036;0.0735;0.0322;
2764872955484880;-0.3003;0.0810;0.0322;
2764872965625505;-0.2427;0.0810;0.0226;
2764872975727172;-0.2726;0.0778;0.0056;
2764872985828838;-0.2832;0.0884;-0.0104;
2764872995932484;-0.2811;0.1087;-0.0136;
2764873006034203;-0.2758;0.1182;-0.0115;
2764873016135869;-0.2715;0.0852;-0.0296;
2764873026249880;-0.2630;0.0618;-0.0605;
2764873036351547;-0.2811;0.0842;-0.0732;
2764873046453213;-0.2896;0.0820;-0.0945;
2764873056569880;-0.2864;0.1076;-0.1073;
2764873066671494;-0.2853;0.1703;-0.1084;
2764873076773161;-0.2864;0.1522;-0.1212;
2764873086886755;-0.2800;0.1055;-0.1371;
2764873096988369;-0.2822;0.1140;-0.1403;
2764873107090036;-0.2971;0.1395;-0.1478;
2764873117218630;-0.3067;0.1565;-0.1616;
2764873127320349;-0.3024;0.1650;-0.1510;
2764873137422015;-0.2875;0.1714;-0.1382;
2764873147538005;-0.2864;0.1703;-0.1467;
2764873157639672;-0.3035;0.1597;-0.1606;
2764873167741286;-0.3248;0.1746;-0.1648;
2764873177856599;-0.3280;0.1831;-0.1393;
2764873187958265;-0.3184;0.1470;-0.1201;
2764873198059880;-0.3098;0.1193;-0.1286;
2764873208186286;-0.3184;0.1417;-0.1435;
2764873218288005;-0.3418;0.1756;-0.1563;
2764873228389619;-0.3439;0.1565;-0.1340;
2764873238524672;-0.3322;0.1246;-0.1095;
2764873248626338;-0.3120;0.0980;-0.1190;
2764873258728057;-0.2811;0.1225;-0.1457;
2764873268832901;-0.2853;0.1692;-0.1414;
2764873278934567;-0.3130;0.1554;-0.1063;
2764873289036234;-0.2736;0.1214;-0.0892;
2764873299197588;-0.2257;0.1246;-0.1009;
2764873309299255;-0.2523;0.1363;-0.1425;
2764873319400869;-0.2758;0.1417;-0.1361;
2764873329451442;-0.2832;0.1522;-0.1009;
2764873339553109;-0.2758;0.1470;-0.0924;
2764873349654776;-0.2608;0.1140;-0.1276;
2764873359783005;-0.2300;0.1225;-0.1489;
2764873369884724;-0.2023;0.1470;-0.1116;
2764873379986390;-0.1565;0.1342;-0.0903;
2764873390128630;-0.0925;0.1363;-0.1020;
2764873400230297;-0.0798;0.1459;-0.1276;
2764873410331963;-0.1170;0.1650;-0.1201;
2764873420451963;-0.1671;0.1618;-0.1041;
2764873430553630;-0.1916;0.1278;-0.1265;
2764873440655297;-0.1788;0.1533;-0.1531;
2764873450793838;-0.2182;0.1916;-0.1340;
2764873460895505;-0.2800;0.1543;-0.1340;
2764873470997172;-0.3162;0.1628;-0.1861;
2764873481072224;-0.3738;0.2385;-0.1979;
2764873491173838;-0.3876;0.2736;-0.1787;
2764873501275557;-0.3770;0.2289;-0.1755;
2764873511410869;-0.3865;0.1628;-0.2021;
2764873521512536;-0.4057;0.1321;-0.2277;
2764873531614203;-0.4664;0.1459;-0.2181;
2764873541732276;-0.4952;0.1395;-0.2245;
2764873551838838;-0.4526;0.1735;-0.2341;
2764873561945401;-0.4217;0.1905;-0.2256;
2764873572061755;-0.3450;0.1639;-0.2362;
2764873582168317;-0.3162;0.2225;-0.2330;
2764873592274880;-0.3152;0.2140;-0.2170;
2764873602376755;-0.2332;0.1204;-0.2458;
2764873612483317;-0.1533;0.1459;-0.2320;
2764873622589880;-0.1799;0.2289;-0.1840;
2764873632704463;-0.2502;0.1671;-0.1776;
2764873642811026;-0.2662;0.0969;-0.1808;
2764873652917588;-0.2992;0.1278;-0.1680;
2764873663018422;-0.3652;0.1470;-0.1467;
2764873673124984;-0.3727;0.0650;-0.1403;
2764873683231547;-0.3525;0.0447;-0.1254;
2764873693344567;-0.3503;0.1033;-0.1009;
2764873703451130;-0.3620;0.1055;-0.0945;
2764873713557692;-0.3237;0.0778;-0.0828;
2764873723664567;-0.2513;0.1214;-0.0498;
2764873733771130;-0.2481;0.1363;-0.0498;
2764873743877692;-0.2779;0.1044;-0.0530;
2764873753979984;-0.2534;0.1033;-0.0328;
2764873764086547;-0.2310;0.0959;-0.0242;
2764873774193109;-0.2566;0.0746;-0.0370;
2764873784300817;-0.2417;0.0959;-0.0264;
2764873794407380;-0.2321;0.1140;-0.0093;
2764873804513942;-0.2662;0.0767;-0.0168;
2764873814626963;-0.2864;0.0533;-0.0274;
2764873824733526;-0.2545;0.1001;-0.0285;
2764873834840088;-0.2385;0.1703;-0.0221;
2764873844958422;-0.2811;0.1363;-0.0274;
2764873855064984;-0.2907;0.1257;-0.0370;
2764873865171547;-0.2577;0.1639;-0.0317;
2764873875272692;-0.2694;0.1575;-0.0402;
2764873885379255;-0.2598;0.1193;-0.0519;
2764873895485817;-0.2566;0.0959;-0.0754;
2764873905593838;-0.2651;0.0735;-0.1063;
2764873915700401;-0.1969;0.0959;-0.1073;
2764873925806963;-0.1277;0.1118;-0.1073;
2764873935920297;-0.1011;0.1076;-0.1233;
2764873946026859;-0.0893;0.1246;-0.1393;
2764873956133422;-0.0542;0.1554;-0.1297;
2764873966238838;-0.0712;0.1831;-0.1435;
2764873976345401;-0.1394;0.1628;-0.1766;
2764873986451963;-0.1692;0.1767;-0.1947;
2764873996576755;-0.1927;0.2140;-0.1915;
2764874006683317;-0.3173;0.1554;-0.2341;
2764874016789880;-0.3237;0.0863;-0.2682;
2764874026897172;-0.3184;0.1459;-0.2650;
2764874037003734;-0.3386;0.1342;-0.2650;
2764874047110297;-0.3663;0.0820;-0.2778;
2764874057203942;-0.3205;0.1129;-0.2927;
2764874067310505;-0.2917;0.1639;-0.2650;
2764874077417067;-0.3013;0.1820;-0.2916;
2764874087539984;-0.3162;0.1214;-0.3300;
2764874097646547;-0.2885;0.0831;-0.3491;
2764874107753109;-0.2651;0.1756;-0.3395;
2764874117851026;-0.2726;0.2108;-0.3566;
2764874127957588;-0.2864;0.1246;-0.3800;
2764874138064151;-0.2694;0.1406;-0.3630;
2764874148171651;-0.2768;0.1788;-0.3342;
2764874158278213;-0.2790;0.0969;-0.3353;
2764874168384776;-0.2577;0.0565;-0.3236;
2764874178518682;-0.2012;0.1406;-0.2959;
2764874188625244;-0.2502;0.1268;-0.2905;
2764874198731807;-0.3056;-0.0320;-0.2884;
2764874208825817;-0.1852;-0.0352;-0.2607;
2764874218932380;-0.0744;0.1225;-0.2149;
2764874229038942;-0.1959;0.1289;-0.2053;
2764874239165713;-0.2907;0.0522;-0.2352;
2764874249272276;-0.2108;0.1065;-0.2447;
2764874259378838;-0.2332;0.1554;-0.2373;
2764874269449984;-0.2779;0.0639;-0.2533;
2764874279556547;-0.2236;0.0415;-0.2565;
2764874289663109;-0.1671;0.0831;-0.2597;
2764874299802172;-0.1394;0.0671;-0.2788;
2764874309908734;-0.0606;0.0202;-0.2895;
2764874320015297;0.0076;-0.0320;-0.2948;
2764874330117119;0.0310;-0.0352;-0.2703;
2764874340223682;-0.0084;0.0096;-0.2426;
2764874350330244;0.0161;0.0128;-0.2352;
2764874360437484;0.1236;-0.0415;-0.2426;
2764874370544047;0.2567;-0.0298;-0.2394;
2764874380650609;0.3387;0.0586;-0.2160;
2764874390769359;0.4090;0.0458;-0.2213;
2764874400875922;0.5582;-0.0266;-0.2426;
2764874410982484;0.6871;0.0117;-0.2266;
2764874421063942;0.6807;0.0565;-0.1968;
2764874431170505;0.7530;-0.0149;-0.1989;
2764874441277067;0.8712;-0.0895;-0.2064;
2764874451387015;0.8883;-0.0511;-0.1904;
2764874461493578;0.9309;-0.0192;-0.1616;
2764874471600140;1.0449;-0.0937;-0.1723;
2764874481716130;1.1098;-0.1800;-0.1776;
2764874491822692;1.0385;-0.1438;-0.1403;
2764874501929255;0.9341;-0.0650;-0.1169;
2764874512046026;1.0065;-0.1363;-0.1734;
2764874522152588;0.9682;-0.0799;-0.1776;
2764874532259151;0.7977;0.1406;-0.1201;
2764874542360088;0.8382;0.1884;-0.0700;
2764874552467276;0.9074;0.0703;-0.0466;
2764874562574463;0.7413;0.0075;-0.0668;
2764874572690713;0.4410;-0.0032;-0.0764;
2764874582797901;0.2620;0.0053;-0.0615;
2764874592905088;0.1726;-0.0543;-0.0924;
2764874603004151;0.0779;-0.1001;-0.1084;
2764874613111338;0.0300;0.0234;-0.0807;
2764874623218526;0.1619;0.1310;-0.0402;
2764874633330297;0.3867;0.0682;-0.0562;
2764874643437484;0.4932;-0.0117;-0.0668;
2764874653544672;0.5624;0.0341;-0.0477;
2764874663639047;0.6807;0.0234;-0.0115;
2764874673746234;0.7636;-0.1459;-0.0264;
2764874683853422;0.7105;-0.2557;-0.0636;
2764874693972692;0.6455;-0.1044;-0.0913;
2764874704079880;0.6434;0.0234;-0.0860;
2764874714187067;0.6146;-0.0149;-0.1126;
2764874724291651;0.5433;0.0895;-0.1691;
2764874734398838;0.5379;0.1873;-0.1861;
2764874744506026;0.5273;0.0948;-0.1776;
2764874754621651;0.3845;0.0352;-0.1904;
2764874764728838;0.2312;0.0128;-0.2341;
2764874774836026;0.1459;-0.0426;-0.2394;
2764874784931338;0.1502;-0.1087;-0.2330;
2764874795038526;0.1619;-0.0842;-0.2160;
2764874805145713;0.2141;-0.0000;-0.2021;
2764874815266442;0.2312;0.0160;-0.1957;
2764874825373630;0.2088;-0.0309;-0.1957;
2764874835480817;0.2130;0.0320;-0.1627;
2764874845568734;0.2461;0.0746;-0.1244;
2764874855675922;0.3164;0.0064;-0.1212;
2764874865783109;0.3270;0.0224;-0.0956;
2764874875901755;0.3334;0.0650;-0.0551;
2764874886008942;0.4005;0.0714;-0.0647;
2764874896116130;0.4634;0.0565;-0.0562;
2764874906218734;0.5028;0.0650;-0.0019;
2764874916325922;0.5752;0.0916;0.0194;
2764874926433109;0.6935;0.0639;0.0045;
2764874936550192;0.7084;0.0511;0.0322;
2764874946657380;0.6700;0.1118;0.0716;
2764874956764567;0.7200;0.0948;0.0631;
2764874966872380;0.7572;0.0437;0.0780;
2764874976979567;0.7306;0.0660;0.1111;
2764874987086755;0.7743;0.0842;0.1057;
2764874997198630;0.7967;0.0458;0.1345;
2764875007305817;0.7817;0.0873;0.1738;
2764875017413005;0.8265;0.0927;0.1515;
2764875027514099;0.8329;0.0863;0.1451;
2764875037621286;0.8073;0.3088;0.1706;
2764875047728474;0.8574;0.1204;0.1695;
2764875057830765;0.7754;-0.1087;0.1537;
2764875067937953;0.5603;-0.1619;0.1451;
2764875078045140;0.4889;-0.1917;0.1505;
2764875088161026;0.3238;-0.1427;0.2025;
2764875098268213;0.2610;-0.1108;0.1961;
2764875108375401;0.2407;-0.1545;0.1270;
2764875118532588;0.1747;-0.1491;0.0557;
2764875128639776;0.1236;-0.1609;0.0450;
2764875138746963;0.1236;-0.1534;0.0194;
2764875148783422;0.1406;0.0011;0.0152;
2764875158890609;0.2344;0.0831;-0.0019;
2764875168997797;0.3121;0.0639;-0.0253;
2764875179159463;0.3206;0.0682;0.0003;
2764875189266651;0.3537;-0.0128;0.0365;
2764875199373838;0.3505;-0.1214;0.0812;
2764875209463734;0.2865;-0.1630;0.1430;
2764875219570922;0.2333;-0.2056;0.1505;
2764875229678109;0.1182;-0.2003;0.1334;
2764875239784411;0.0023;-0.1246;0.1228;
2764875249891599;-0.0201;-0.1172;0.1111;
2764875259998786;-0.0041;-0.0810;0.1047;
2764875270114567;-0.0020;0.0181;0.1356;
2764875280221755;0.1300;0.0373;0.1664;
2764875290328942;0.1832;0.0682;0.1727;
2764875300436911;0.2130;0.0170;0.2004;
2764875310544099;0.2237;-0.0501;0.1983;
2764875320651286;0.1672;-0.0149;0.2398;
2764875330753422;0.1811;-0.0256;0.2675;
2764875340860609;0.1609;-0.0405;0.2526;
2764875350967797;0.0907;-0.0799;0.2718;
2764875361090401;0.0353;-0.1118;0.2462;
2764875371197588;-0.0521;-0.0138;0.2334;
2764875381304776;-0.0457;-0.0011;0.2441;
2764875391392067;-0.0297;-0.0138;0.2164;
2764875401499255;-0.0925;0.0043;0.2355;
2764875411606442;-0.1170;0.0320;0.2270;
2764875421705505;-0.1628;0.0554;0.2100;
2764875431812692;-0.2076;-0.0639;0.2228;
2764875441919880;-0.2491;-0.0383;0.1855;
2764875452031130;-0.2768;0.0980;0.2004;
2764875462138317;-0.2843;0.0873;0.1865;
2764875472245505;-0.3397;-0.0107;0.1812;
2764875482346755;-0.4132;-0.0288;0.1494;
2764875492453942;-0.4632;0.0277;0.1206;
2764875502561130;-0.4707;0.0469;0.1068;
2764875512680609;-0.4931;0.0234;0.0940;
2764875522787797;-0.4952;0.0117;0.0919;
2764875532894984;-0.4760;0.0607;0.0567;
2764875542998526;-0.4909;0.0149;0.0642;
2764875553105922;-0.5324;-0.0458;0.0269;
2764875563213317;-0.5483;-0.1417;0.0067;
2764875573320922;-0.5494;-0.0927;-0.0274;
2764875583428317;-0.5089;0.0277;-0.0210;
2764875593535713;-0.4782;0.0586;-0.0349;
2764875603641859;-0.3908;0.0746;-0.0668;
2764875613749255;-0.3269;0.0554;-0.0818;
2764875623856651;-0.2044;0.0469;-0.0636;
2764875633958109;-0.1128;0.0458;-0.0391;
2764875644065505;0.0087;0.0320;-0.0562;
2764875654172901;0.0278;-0.0426;-0.0498;
2764875664287797;0.0736;-0.0767;-0.0626;
2764875674395192;0.1172;-0.0053;-0.0477;
2764875684502588;0.1949;0.0469;-0.0519;
2764875694597276;0.2589;-0.0266;-0.0285;
2764875704704672;0.3132;-0.0501;-0.0168;
2764875714812067;0.3110;0.0043;-0.0285;
2764875724905609;0.3441;0.0756;-0.0700;
2764875735013005;0.3206;0.0554;-0.0594;
2764875745120401;0.2940;0.0192;-0.0434;
2764875755257380;0.2407;0.0660;-0.0381;
2764875765364776;0.1790;0.0703;-0.0615;
2764875775472172;0.1534;-0.0309;-0.0573;
2764875785568005;0.1172;-0.1001;-0.0775;
2764875795675401;0.0310;-0.0426;-0.0850;
2764875805782797;0.0662;0.0107;-0.0999;
2764875815891234;0.0822;-0.0266;-0.0700;
2764875825998630;0.0981;-0.0607;-0.0881;
2764875836106026;0.0885;-0.0479;-0.0860;
2764875846243213;0.0843;-0.0362;-0.0690;
2764875856350609;0.1097;-0.0043;-0.0615;
2764875866458057;0.1534;0.0799;-0.0626;
2764875876532849;0.1843;-0.0160;-0.0626;
2764875886640244;0.2461;-0.0660;-0.0285;
2764875896747640;0.2557;0.0447;-0.0338;
2764875906853109;0.2578;0.0128;-0.0104;
2764875916960505;0.3004;-0.1417;-0.0019;
2764875927067901;0.2780;-0.0256;0.0056;
2764875937184359;0.1822;0.1246;-0.0136;
2764875947291755;0.2344;0.0788;0.0237;
2764875957399151;0.2557;-0.0298;0.0354;
2764875967504359;0.2109;-0.0437;0.0439;
2764875977611755;0.1609;-0.0181;0.0642;
2764875987719151;0.1406;-0.0735;0.0322;
2764875997822849;0.1214;-0.1289;0.0567;
2764876007930244;0.1140;0.0383;0.0333;
2764876018037640;0.1289;0.0852;0.0407;
2764876028137276;0.1609;0.0064;0.0333;
2764876038244672;0.1225;-0.0522;0.0461;
2764876048352119;0.1321;-0.0277;0.0589;
2764876058526442;0.1417;0.1012;0.0344;
2764876068633838;0.1502;0.0107;0.0876;
2764876078741234;0.1491;-0.2056;0.0951;
2764876088784463;0.1108;-0.1385;0.0535;
2764876098891859;0.1024;0.0852;0.0684;
2764876108999255;0.1534;0.0852;0.0674;
2764876119153526;0.1459;-0.0085;0.0919;
2764876129260922;0.1321;-0.0032;0.0684;
2764876139368369;0.1150;-0.0085;0.0897;
2764876149423734;0.1140;-0.0884;0.1196;
2764876159531130;0.0864;-0.0522;0.0929;
2764876169638526;0.0960;0.1129;0.1079;
2764876179757588;0.0896;0.1268;0.1292;
2764876189864984;0.0672;-0.1150;0.1142;
2764876199972380;0.0161;-0.0873;0.1526;
2764876210075713;-0.1192;-0.0415;0.1260;
2764876220183109;-0.0830;-0.0842;0.1270;
2764876230290505;-0.1298;-0.0863;0.1196;
2764876240422901;-0.1948;0.0607;0.0972;
2764876250530297;-0.1778;0.1470;0.0844;
2764876260637692;-0.1149;-0.0000;0.1089;
2764876270718942;-0.1138;-0.0692;0.1047;
2764876280826338;-0.1160;0.0309;0.0961;
2764876290933734;-0.0968;-0.0288;0.0972;
2764876301056963;-0.0414;-0.0607;0.1015;
2764876311164359;-0.0659;0.0980;0.0812;
2764876321271755;0.0044;0.2459;0.0802;
2764876331364203;0.0502;0.1118;0.0961;
2764876341471599;-0.0073;-0.1726;0.1025;
2764876351578994;-0.0265;-0.1172;0.0834;
2764876361696547;-0.0435;-0.0138;0.0706;
2764876371803942;0.0001;-0.0692;0.1036;
2764876381911338;-0.0372;-0.1225;0.0929;
2764876392015922;-0.0723;-0.1300;0.0706;
2764876402123317;-0.0915;-0.0096;0.0450;
2764876412230713;-0.1245;0.0724;0.0514;
2764876422339255;-0.1213;0.0085;0.0493;
2764876432446651;-0.0830;-0.0021;0.0482;
2764876442554047;-0.1682;0.1076;0.0418;
2764876452663942;-0.1927;0.1873;0.0248;
2764876462771338;-0.1905;0.1182;0.0322;
2764876472878734;-0.2523;-0.0756;0.0503;
2764876482991547;-0.3067;-0.0405;0.0312;
2764876493098942;-0.3578;0.0021;-0.0061;
2764876503206338;-0.3003;0.0415;-0.0221;
2764876513311651;-0.2949;0.0948;-0.0115;
2764876523419047;-0.3184;-0.2003;0.0035;
2764876533526442;-0.1810;-0.1811;-0.0455;
2764876543628005;-0.1916;0.0309;-0.0605;
2764876553735401;-0.1383;0.1012;-0.0562;
2764876563842744;-0.0478;0.0085;-0.0242;
2764876573951442;-0.0201;-0.0373;-0.0072;
2764876584058838;-0.0084;0.1406;-0.0264;
2764876594166182;-0.0073;0.2044;0.0045;
2764876604263838;0.0417;0.0490;0.0280;
2764876614371234;0.0353;-0.0352;0.0365;
2764876624478578;-0.0457;0.0160;0.0248;
2764876634589047;-0.0393;-0.1481;0.0759;
2764876644696442;0.0182;-0.1555;0.0663;
2764876654803786;-0.0830;-0.1268;0.0439;
2764876664913109;-0.0489;-0.2844;0.0780;
2764876675020505;-0.0680;0.1363;0.0280;
2764876685127849;-0.1160;0.4206;0.0024;
2764876695232067;0.0161;0.1044;0.0312;
2764876705339463;0.0736;0.0064;0.0035;
2764876715446807;-0.0627;0.1076;-0.0115;
2764876725547328;-0.0286;0.1289;0.0365;
2764876735654724;-0.0308;0.0330;0.0375;
2764876745762067;-0.0648;-0.0565;0.0216;
2764876755892432;-0.0947;-0.0352;0.0269;
2764876765999828;-0.0808;-0.0650;0.0567;
2764876776107172;-0.0766;0.0107;0.0642;
2764876786202797;-0.0883;-0.0756;0.0503;
2764876796310192;-0.0766;-0.0405;0.0407;
2764876806417536;-0.1170;0.0266;0.0397;
2764876816526547;-0.0968;-0.0043;0.0418;
2764876826633942;-0.0830;-0.0000;0.0450;
2764876836741286;-0.0979;0.1607;0.0429;
2764876846838942;-0.1383;0.2118;0.0429;
2764876856946338;-0.1128;0.2182;0.0631;
2764876867053682;-0.2608;0.0927;0.0130;
2764876877166130;-0.3429;-0.2514;-0.0296;
2764876887273526;-0.3578;-0.1225;-0.0264;
2764876897380869;-0.4739;0.0373;-0.0413;
2764876907482380;-0.3663;-0.1182;-0.0722;
2764876917589776;-0.2374;-0.0565;-0.1180;
2764876927697119;-0.2257;0.0714;-0.1116;
2764876937805765;-0.1415;0.1342;-0.0764;
2764876947913161;-0.0702;0.0234;-0.0615;
2764876958020505;0.0012;-0.0245;-0.0626;
2764876968132797;0.0289;0.0660;-0.0573;
2764876978240192;0.0300;0.0639;-0.0200;
2764876988347536;0.0640;-0.0682;-0.0232;
2764876998508109;0.1268;-0.0533;-0.0083;
2764877008615505;0.0406;0.1140;0.0130;
2764877018722849;0.0385;0.0405;0.0141;
2764877028797276;0.1118;-0.0543;0.0407;
2764877038904619;0.0150;-0.0863;0.0248;
2764877049012015;-0.0180;-0.2013;-0.0029;
2764877059140505;-0.0116;-0.4527;0.0642;
2764877069247901;-0.0180;-0.2120;0.0194;
2764877079355244;-0.1373;0.2108;-0.0487;
2764877089424828;-0.0617;0.3738;-0.0551;
2764877099532224;-0.0084;0.3791;-0.0445;
2764877109639567;-0.0190;0.1129;-0.0349;
2764877119739047;-0.0723;0.1129;-0.0210;
2764877129846442;-0.1426;0.1161;-0.0381;
2764877139953786;-0.1075;-0.0788;-0.0328;
2764877150064515;-0.0851;-0.0842;-0.0178;
2764877160171911;-0.1128;-0.0213;-0.0317;
2764877170279255;-0.0744;0.0352;-0.0605;
2764877180412692;-0.0617;0.1714;-0.0200;
2764877190520088;-0.0617;0.0863;0.0024;
2764877200627432;-0.0318;-0.0628;0.0194;
2764877210746547;-0.0201;0.0543;0.0077;
2764877220853942;0.0044;0.1543;-0.0019;
2764877230961286;0.0832;0.1703;0.0035;
2764877241038317;0.0598;0.4355;0.0365;
2764877251145713;-0.0648;0.0053;0.0525;
2764877261253057;-0.0968;-0.3174;-0.0328;
2764877271416755;-0.3269;-0.1971;-0.0445;
2764877281524151;-0.3695;-0.2248;-0.0839;
2764877291631494;-0.2246;-0.0937;-0.1031;
2764877301684984;-0.2917;0.0469;-0.1425;
2764877311792380;-0.1639;0.2055;-0.1648;
2764877321899724;-0.0787;0.3322;-0.1638;
2764877332012692;-0.0126;0.0671;-0.1467;
2764877342120088;0.0630;-0.0778;-0.1265;
2764877352227432;0.0619;0.0863;-0.0796;
2764877362329567;0.0342;0.0352;-0.0626;
2764877372436963;0.0640;-0.0916;-0.0732;
2764877382544307;0.0672;-0.0458;-0.0551;
2764877392647172;-0.0542;-0.1182;-0.0551;
2764877402754567;-0.0063;-0.0756;-0.0338;
2764877412862409;-0.0254;0.0618;0.0024;
2764877422979961;-0.0659;0.2268;-0.0072;
2764877433087357;0.0342;0.2246;-0.0509;
2764877443194701;0.0513;0.3194;-0.0391;
2764877453298086;0.0193;0.2257;0.0152;
2764877463405482;0.0300;0.0959;-0.0232;
2764877473512826;-0.0830;-0.0565;-0.0157;
2764877483616940;-0.1011;-0.2045;-0.0232;
2764877493724336;-0.1096;-0.1513;-0.0477;
2764877503831680;-0.1341;-0.0330;-0.0605;
2764877513939024;-0.0947;0.0277;-0.0562;
2764877524046420;-0.0499;0.0660;-0.0498;
2764877534153763;-0.0393;0.1575;-0.0636;
2764877544262461;0.0502;0.1799;-0.0636;
2764877554369857;0.1491;0.2268;-0.0189;
2764877564477253;0.1694;0.1724;0.0056;
2764877574581003;0.2333;-0.0277;0.0226;
2764877584688399;0.1885;-0.0394;0.0535;
2764877594795795;0.0342;-0.1640;0.0205;
2764877604915586;0.0683;-0.1470;-0.0040;
2764877615022982;-0.0425;-0.0660;0.0162;
2764877625130378;-0.0254;-0.1502;-0.0051;
2764877635224753;0.0150;-0.0511;0.0109;
2764877645332149;-0.0084;0.1575;-0.0349;
2764877655439545;0.1013;0.1863;-0.0125;
2764877665543711;0.1193;0.0181;0.0280;
2764877675651107;0.1097;-0.0884;0.0226;
2764877685758503;0.0470;0.1023;-0.0349;
2764877695866524;0.0332;0.2257;-0.0306;
2764877705973920;0.1161;0.0277;-0.0093;
2764877716081315;0.0640;-0.0980;-0.0083;
2764877726218190;-0.0361;-0.0341;-0.0178;
2764877736325586;0.0108;0.0234;-0.0189;
2764877746432982;0.0236;0.1012;0.0130;
2764877756526107;0.0459;0.0671;0.0013;
2764877766633503;0.0513;0.0607;0.0258;
2764877776740899;0.0246;-0.0458;0.0120;
2764877786840378;0.0119;-0.0085;0.0248;
2764877796947774;-0.0318;0.0298;0.0035;
2764877807055170;-0.0446;-0.0586;-0.0274;
2764877817164128;-0.0691;0.0362;-0.0232;
2764877827271524;-0.0776;0.2012;-0.0466;
2764877837378920;-0.0308;0.1470;-0.0296;
2764877847490170;-0.0201;0.0565;-0.0455;
2764877857597565;-0.0659;0.0181;-0.0743;
2764877867704961;-0.0265;0.0021;-0.0519;
2764877877795170;-0.0265;-0.0213;-0.0253;
2764877887902565;0.0289;-0.0394;0.0024;
2764877898009961;0.0257;-0.0447;0.0141;
2764877908112253;0.0193;-0.1278;-0.0040;
2764877918219649;0.0182;-0.1214;0.0194;
2764877928327097;0.0193;-0.0778;0.0599;
2764877938554545;0.0321;-0.0288;0.0759;
2764877948661940;0.0364;-0.0170;0.0652;
2764877958769388;0.0310;0.0117;0.0557;
2764877968754336;0.0268;-0.0075;0.0674;
2764877978861732;-0.0095;-0.1481;0.0706;
2764877988969128;-0.0169;-0.0810;0.0535;
2764877999145378;-0.0702;-0.0383;0.0631;
2764878009252774;-0.0638;-0.1545;0.0429;
2764878019360170;-0.0957;-0.0831;0.0514;
2764878029416159;-0.1937;-0.0277;0.0386;
2764878039523555;-0.1639;-0.0138;0.0099;
2764878049630951;-0.1565;0.0437;0.0162;
2764878059754545;-0.1618;0.0533;0.0152;
2764878069861940;-0.1000;-0.0543;0.0375;
2764878079969336;-0.0712;-0.0884;0.0237;
2764878090077253;-0.1032;-0.1150;0.0450;
2764878100184649;-0.1213;-0.1417;0.0280;
2764878110292045;-0.0925;-0.0362;-0.0019;
2764878120399336;-0.1000;0.0479;-0.0349;
2764878130506732;-0.0414;0.1363;-0.0530;
2764878140614128;-0.0084;0.1172;-0.0317;
2764878150720586;0.0033;-0.0117;-0.0296;
2764878160827982;-0.0063;-0.0288;-0.0274;
2764878170935378;-0.0212;-0.0064;-0.0594;
2764878181028607;0.0204;-0.0554;-0.0690;
2764878191136003;0.0289;-0.1087;-0.0487;
2764878201243399;-0.0265;-0.2216;-0.0583;
2764878211346420;-0.0020;-0.1246;-0.0988;
2764878221453815;-0.0095;0.0660;-0.0615;
2764878231561211;0.0704;0.0021;-0.0562;
2764878241667565;0.1758;0.0117;-0.0445;
2764878251774961;0.1214;0.0501;0.0067;
2764878261882357;0.1161;-0.0852;-0.0232;
2764878272000899;0.1502;-0.0692;-0.0360;
2764878282108295;0.0214;-0.0842;-0.0296;
2764878292215690;0.0246;-0.0916;-0.0285;
2764878302316211;-0.0148;-0.0735;-0.0583;
2764878312423607;-0.0009;-0.0511;-0.0360;
2764878322531003;0.0087;-0.0149;-0.0498;
2764878332633347;0.0342;-0.0383;-0.0232;
2764878342740742;0.0225;-0.0277;-0.0104;
2764878352848138;0.0236;0.0597;-0.0104;
2764878362961524;-0.0190;-0.0138;-0.0115;
2764878373068920;-0.0063;-0.0234;-0.0157;
2764878383176315;-0.0254;0.0756;-0.0423;
2764878393280430;0.0012;0.1076;-0.0285;
2764878403387826;0.0140;0.0682;-0.0210;
2764878413495222;-0.0041;0.0522;0.0045;
2764878423612253;0.0033;0.0320;-0.0178;
2764878433719649;-0.0126;-0.0011;-0.0040;
2764878443827045;-0.0073;-0.0820;-0.0285;
2764878453931940;-0.0105;-0.0916;-0.0264;
2764878464039336;-0.0116;-0.0767;-0.0136;
2764878474146732;0.0012;-0.1161;-0.0008;
2764878484243815;-0.0031;-0.0597;-0.0051;
2764878494351211;0.0129;-0.0085;-0.0200;
2764878504458607;0.0087;-0.0256;-0.0423;
2764878514572357;0.0289;0.0213;-0.0509;
2764878524679753;0.0321;-0.0266;-0.0338;
2764878534787149;0.0385;-0.0330;-0.0615;
2764878544886315;0.0438;-0.0053;-0.0615;
2764878554993659;0.0172;-0.0426;-0.0477;
2764878565100951;0.0225;-0.1065;-0.0274;
2764878575212461;0.0289;-0.1310;-0.0242;
2764878585319805;0.0342;-0.1268;-0.0381;
2764878595427097;0.0459;-0.0373;-0.0466;
2764878605551836;0.0214;-0.0298;-0.0274;
2764878615659180;0.0427;-0.0117;0.0056;
2764878625766524;0.0193;0.0256;0.0248;
2764878635858399;-0.0116;-0.0533;-0.0221;
2764878645965742;0.0001;-0.0224;-0.0423;
2764878656073034;-0.0265;0.0703;-0.0253;
2764878666193086;0.0055;0.0991;-0.0402;
2764878676300430;0.0385;0.0639;-0.0381;
2764878686407722;0.0065;0.0927;-0.0498;
2764878696514649;0.0055;0.1001;-0.0498;
2764878706621992;0.0172;-0.0021;-0.0253;
2764878716729284;0.0374;-0.0533;-0.0125;
2764878726821524;0.0033;-0.0703;-0.0146;
2764878736928867;-0.0063;-0.0820;-0.0104;
2764878747036159;-0.0222;0.0128;0.0024;
2764878757171420;-0.0553;0.0607;-0.0019;
2764878767278763;-0.0585;0.0639;-0.0253;
2764878777386055;-0.0478;0.1182;-0.0541;
2764878787466211;-0.0627;0.0895;-0.0370;
2764878797573555;-0.0329;-0.0224;-0.0477;
2764878807680847;-0.0158;-0.1012;-0.0690;
2764878817786836;-0.0180;-0.1118;-0.0583;
2764878827894180;0.0076;-0.1832;-0.0658;
2764878838001472;0.0300;-0.2642;-0.0573;
2764878848111524;0.0822;-0.1172;-0.0487;
2764878858218867;0.0662;0.0778;-0.0605;
2764878868326211;0.0811;0.0714;-0.0221;
2764878878446940;0.2162;0.0309;0.0088;
2764878888554284;0.2770;-0.0170;0.0280;
2764878898661628;0.2344;-0.1236;0.0141;
2764878908756732;0.2216;-0.1726;0.0333;
2764878918864076;0.1779;-0.2013;0.0397;
2764878928971367;0.1587;-0.1949;0.0535;
2764878939122774;0.1140;-0.0692;0.0471;
2764878949230117;0.0566;-0.0192;0.0503;
2764878959337409;0.0726;-0.0234;0.0450;
2764878969416315;0.0843;0.0586;0.0823;
2764878979523659;0.0502;0.0533;0.0887;
2764878989630951;0.0427;-0.0117;0.0972;
2764878999726524;0.0140;-0.0064;0.0983;
2764879009833867;-0.0276;-0.0096;0.1228;
2764879019941159;-0.0755;-0.0937;0.1228;
2764879030062670;-0.1032;-0.0714;0.0642;
2764879040170013;-0.1490;0.0778;0.0589;
2764879050277305;-0.1628;0.1650;0.0546;
2764879060389753;-0.1032;0.1257;0.0471;
2764879070497097;-0.1085;0.0639;0.0482;
2764879080604388;-0.1149;-0.1949;0.0961;
2764879090684180;-0.0542;-0.3206;0.0727;
2764879100791524;-0.1533;0.0490;-0.0381;
2764879110898815;-0.3184;0.3834;-0.0402;
2764879121017253;-0.1352;0.2587;-0.0093;
2764879131124597;0.0715;0.0362;-0.0296;
2764879141231888;-0.0372;0.0543;-0.0391;
2764879151342357;-0.0595;0.0959;-0.0636;
2764879161449701;-0.0031;0.0043;-0.0466;
2764879171556992;0.0012;-0.0224;-0.0402;
2764879181657461;-0.0126;0.0309;-0.0573;
2764879191764805;-0.0190;0.0703;-0.0594;
2764879201872097;0.0076;0.0618;-0.0509;
2764879211991628;0.0768;0.4036;-0.0115;
2764879222098972;-0.0095;0.2587;0.0045;
2764879232206263;0.0193;-0.2631;-0.0104;
2764879242327774;0.0619;-0.1822;0.0077;
2764879252435117;-0.0808;-0.1736;-0.0455;
2764879262542461;-0.0244;-0.1747;-0.0349;
2764879272640274;0.0182;-0.0437;-0.0860;
2764879282747617;0.0204;0.0746;-0.0722;
2764879292854961;0.0236;0.1597;-0.0466;
2764879302957982;0.0257;0.0884;-0.0285;
2764879313065326;0.0108;-0.0703;-0.0466;
2764879323172617;0.0257;-0.0064;-0.0360;
2764879333289597;-0.0201;-0.0277;-0.0423;
2764879343396940;-0.0201;-0.0948;-0.0391;
2764879353504232;-0.0148;0.0192;-0.0317;
2764879363597982;-0.0233;0.0650;-0.0381;
2764879373705326;-0.0148;-0.0053;-0.0189;
2764879383812617;0.0012;0.0575;0.0024;
2764879393918086;-0.0148;0.0799;-0.0285;
2764879404025430;0.0065;-0.0085;-0.0146;
2764879414132722;0.0001;-0.0298;-0.0146;
2764879424236680;-0.0084;-0.0234;-0.0466;
2764879434344024;-0.0158;-0.0053;-0.0296;
2764879444451315;-0.0116;0.0202;-0.0253;
2764879454556003;-0.0116;-0.0799;-0.0189;
2764879464663347;-0.0073;-0.0586;-0.0221;
2764879474770638;-0.0137;0.0192;-0.0221;
2764879484894076;-0.0169;-0.0245;-0.0541;
2764879495001420;0.0076;-0.0810;-0.0519;
2764879505108763;0.0236;-0.0352;-0.0466;
2764879515206732;0.0385;-0.0160;-0.0850;
2764879525314076;0.0704;0.0607;-0.0881;
2764879535421367;0.0928;0.1417;-0.0977;
2764879545505638;0.1374;0.1193;-0.0818;
2764879555612982;0.1822;0.0011;-0.0605;
2764879565720326;0.1779;-0.0660;-0.0509;
2764879575860899;0.1353;-0.0767;-0.0391;
2764879585968242;0.1161;-0.0107;-0.0051;
2764879596075534;0.0885;-0.0447;-0.0019;
2764879606212565;0.0747;-0.0735;-0.0115;
2764879616319909;0.0672;0.0234;-0.0093;
2764879626427253;0.0662;0.0650;-0.0360;
2764879636494024;0.0747;0.0490;-0.0253;
2764879646601367;0.0704;0.0309;-0.0381;
2764879656708659;0.0683;0.0266;-0.0615;
2764879666819440;0.0747;0.0447;-0.0700;
2764879676926784;0.0768;0.0628;-0.0636;
2764879687034076;0.0907;-0.0245;-0.0423;
2764879697144128;0.1087;-0.0138;-0.0221;
2764879707251472;0.0566;-0.0288;-0.0040;
2764879717358763;0.0811;-0.0799;0.0258;
2764879727456628;0.0960;-0.0117;0.0162;
2764879737563972;0.0736;-0.0117;0.0067;
2764879747671263;0.0864;0.0085;-0.0317;
2764879757789128;0.0949;0.0565;0.0216;
2764879767896472;0.0981;0.0213;-0.0136;
2764879778003763;0.1076;-0.0202;-0.0200;
2764879788096628;0.0726;-0.1236;0.0035;
2764879798203972;0.0758;-0.1917;0.0120;
2764879808311315;0.0577;-0.1097;0.0269;
2764879818438399;0.0481;-0.0501;0.0248;
2764879828545742;0.0619;-0.0298;0.0439;
2764879838653034;0.0683;-0.0085;0.0386;
2764879848744232;0.0566;0.0373;0.0397;
2764879858851576;0.0470;0.0565;0.0365;
2764879868958867;0.0523;0.0682;0.0290;
2764879879088711;0.0662;-0.0107;0.0471;
2764879889196055;0.0502;-0.0469;0.0322;
2764879899303399;0.0353;0.0224;0.0184;
2764879909389232;0.0364;0.0170;0.0429;
2764879919496576;0.0513;-0.0671;0.0855;
2764879929603920;0.0236;0.0064;0.0652;
2764879939728659;-0.0105;0.0330;0.0578;
2764879949836003;0.0321;-0.0149;0.0525;
2764879959943347;0.0204;-0.0405;0.0567;
2764879970041420;-0.0116;-0.0277;0.0067;
2764879980148763;0.0129;0.0447;-0.0019;
2764879990256055;0.0204;-0.0575;0.0216;
2764880000371420;0.0598;-0.0320;0.0024;
2764880010478763;0.0374;0.0884;-0.0455;
2764880020586107;0.0534;-0.0352;-0.0051;
2764880030706420;0.0619;-0.0149;0.0088;
2764880040813763;0.0364;0.1033;0.0088;
2764880050921107;0.0598;-0.0320;0.0077;
2764880061008086;0.0662;-0.0639;0.0141;
2764880071115430;0.0470;0.0320;0.0088;
2764880081222722;0.0513;0.0149;-0.0189;
2764880091329128;0.0470;-0.0309;0.0194;
2764880101436472;0.0598;-0.0149;0.0099;
2764880111543763;0.0406;0.0884;-0.0051;
2764880121646211;0.0310;-0.0266;-0.0093;
2764880131753555;0.0374;-0.0586;-0.0008;
2764880141860847;0.0097;0.0799;0.0162;
2764880151969180;-0.0372;0.0682;0.0045;
2764880162076524;0.0012;-0.0011;-0.0157;
2764880172183815;0.0076;-0.0170;0.0024;
2764880182291524;-0.0063;-0.0447;0.0471;
2764880192398867;0.0023;-0.0607;0.0397;
2764880202506159;0.0065;-0.0234;0.0344;
2764880212622097;0.0129;-0.0405;0.0333;
2764880222729440;0.0342;-0.0628;0.0439;
2764880232836784;0.0321;-0.0266;0.0610;
2764880242933711;0.0044;-0.0511;0.0844;
2764880253041055;-0.0212;-0.1300;0.0802;
2764880263148347;-0.0222;-0.3963;0.1174;
2764880273261315;-0.0095;-0.2407;0.0375;
2764880283368659;-0.1597;0.2896;-0.0019;
2764880293475951;-0.1352;0.4249;0.0439;
2764880303582930;0.1800;0.2023;0.0525;
2764880313690274;0.3100;0.0202;0.0258;
2764880323797565;0.1278;0.1417;0.0280;
2764880333909284;0.0001;0.1863;0.0535;
2764880344016628;0.0864;0.0810;0.0578;
2764880354123920;0.0470;0.0778;0.1036;
2764880364228295;-0.0073;0.1076;0.0897;
2764880374335638;0.0353;0.1724;0.0972;
2764880384442930;0.0246;0.2268;0.1473;
2764880394555274;-0.0137;-0.3324;0.1238;
2764880404662565;-0.0222;-0.3398;0.0961;
2764880414769909;-0.1170;-0.1278;0.0141;
2764880424868086;-0.0734;-0.0735;0.0333;
2764880434975430;0.0204;-0.0479;0.0099;
2764880445082774;0.0374;-0.1012;0.0077;
2764880455194649;0.0257;-0.0586;0.0141;
2764880465301992;0.0129;-0.0852;-0.0008;
2764880475409284;0.0097;-0.1278;-0.0115;
2764880485510170;0.0268;-0.0671;0.0120;
2764880495617513;0.0374;0.1087;0.0141;
2764880505724857;0.0502;0.1278;0.0418;
2764880515847878;0.0417;0.0501;0.0184;
2764880525955222;0.0161;0.0458;0.0450;
2764880536062513;0.0214;0.0660;0.0269;
2764880546165534;0.0257;0.0873;0.0375;
2764880556273138;-0.0031;0.0788;0.0386;
2764880566380795;-0.0169;0.0330;0.0770;
2764880576476420;-0.0212;-0.0245;0.0983;
2764880586584024;-0.0297;-0.0916;0.0940;
2764880596691576;-0.0414;-0.0650;0.1057;
2764880606796003;-0.0691;-0.0170;0.0684;
2764880616903607;-0.0915;-0.0181;0.0663;
2764880627011159;-0.1021;-0.0170;0.0578;
2764880637118763;-0.1128;0.0277;0.0386;
2764880647226420;-0.1181;0.0021;0.0503;
2764880657334024;-0.1277;-0.0192;0.0045;
2764880667449076;-0.1117;0.0586;0.0035;
2764880677556680;-0.1447;0.0873;0.0099;
2764880687664284;-0.1128;-0.0202;0.0120;
2764880697765586;-0.0648;0.0554;-0.0008;
2764880707873190;-0.1053;0.1044;-0.0040;
2764880717980795;-0.0617;-0.1055;0.0418;
2764880728094076;-0.0318;-0.1566;0.0109;
2764880738201732;-0.0446;-0.0202;-0.0104;
2764880748309284;-0.0201;0.0117;-0.0093;
2764880758454284;-0.0297;-0.1182;0.0258;
2764880768561888;-0.0755;-0.1225;-0.0232;
2764880778669492;-0.1415;0.2598;-0.0764;
2764880788745430;-0.1032;0.0852;-0.0466;
2764880798853086;-0.0340;0.2470;-0.0860;
2764880808960690;-0.0435;0.6795;-0.1638;
2764880819051992;0.0598;0.4260;-0.0945;
2764880829159597;0.0971;0.2470;-0.0903;
2764880839267201;-0.0329;0.2853;-0.0786;
2764880849386732;0.0012;0.2502;-0.0509;
2764880859494336;-0.0105;0.0437;-0.0072;
2764880869601940;0.0108;-0.0724;0.0269;
2764880879728920;-0.0499;-0.2503;0.0929;
2764880889836524;-0.0691;-0.9192;0.0599;
2764880899944128;0.1278;-0.6891;0.0716;
2764880910049545;-0.0382;-0.8180;0.0482;
2764880920157097;0.1289;-1.0278;0.0162;
2764880930264753;0.2812;-0.5506;-0.0168;
2764880940341940;-0.0318;-0.2375;-0.0296;
2764880950449545;0.0406;-0.1193;-0.0360;
2764880960557149;0.1332;-0.2045;-0.0668;
2764880970673138;0.1800;-0.0628;-0.0786;
2764880980780795;0.1289;0.2534;-0.0200;
2764880990888399;0.1449;0.1969;0.0280;
2764881001018242;0.1662;0.2193;0.0407;
2764881011125847;-0.0201;0.5335;0.0855;
2764881021233503;0.0246;0.4792;0.1270;
2764881031324492;0.1035;0.1427;0.1366;
2764881041432097;-0.0670;0.2044;0.1206;
2764881051539701;-0.2087;0.1236;0.1579;
2764881061643347;-0.1735;-0.1598;0.1270;
2764881071751003;-0.2736;-0.1513;0.0919;
2764881081858607;-0.4515;-0.3345;0.0589;
2764881091956420;-0.3993;-0.5879;-0.0008;
2764881102064024;-0.3482;-0.4973;-0.0850;
2764881112171576;-0.3098;-0.3782;-0.1414;
2764881122283763;-0.1501;-0.3462;-0.1776;
2764881132391315;-0.0680;-0.3004;-0.2064;
2764881142498920;-0.1064;-0.1374;-0.2586;
2764881152609284;-0.0425;0.0064;-0.2905;
2764881162716888;0.1427;0.0607;-0.2959;
2764881172824492;0.3217;0.1820;-0.3044;
2764881182931628;0.3217;0.3759;-0.2916;
2764881193039232;0.3164;0.6049;-0.2479;
2764881203146836;0.3292;0.7976;-0.1989;
2764881213256367;0.3856;0.8029;-0.1457;
2764881223363972;0.3867;0.7381;-0.0903;
2764881233471576;0.3324;0.9201;-0.0775;
2764881243574492;0.3366;1.1193;-0.0519;
2764881253682149;0.2951;0.9137;-0.0136;
2764881263789701;0.1257;0.6188;0.0237;
2764881273899388;-0.0158;0.3599;0.0993;
2764881284006992;-0.1714;-0.1289;0.1292;
2764881294114597;-0.1714;-0.5389;0.1153;
2764881304219492;-0.1330;-0.6912;0.0620;
2764881314327097;-0.0957;-0.6198;0.0290;
2764881324434753;-0.1000;-0.5069;-0.0093;
2764881334530013;-0.2672;-0.5325;-0.0988;
2764881344637617;-0.3535;-0.6134;-0.1297;
2764881354745222;-0.3045;-0.7189;-0.1670;
2764881364859232;-0.1650;-0.6848;-0.2053;
2764881374966836;-0.0606;-0.5186;-0.1947;
2764881385074440;-0.0063;-0.5208;-0.0956;
2764881395181420;0.2120;-0.5996;-0.0498;
2764881405289024;0.3473;-0.0511;-0.1031;
2764881415396576;0.0076;0.4867;0.0045;
2764881425507878;0.0896;0.3567;0.0972;
2764881435615482;0.2674;0.1321;0.1047;
2764881445723138;0.2237;0.2065;0.1249;
2764881455833138;0.1598;0.3024;0.1537;
2764881465940742;0.1736;0.3003;0.2164;
2764881476048347;0.0630;0.1246;0.2313;
2764881486166732;-0.0041;0.0213;0.2057;
2764881496274336;-0.0531;0.4771;0.2025;
2764881506381888;-0.0659;0.4739;0.2313;
2764881516481367;-0.1011;-0.2972;0.1674;
2764881526588972;-0.3834;-0.2940;0.0876;
2764881536696628;-0.4664;0.0309;0.0130;
2764881546804128;-0.2513;-0.0021;-0.0647;
2764881556911628;-0.2374;-0.0682;-0.1169;
2764881567019128;-0.1394;-0.0032;-0.1734;
2764881577127513;-0.0531;0.1097;-0.1840;
2764881587235013;-0.0254;0.0032;-0.1510;
2764881597342513;0.0651;-0.1438;-0.1499;
2764881607451836;0.1758;-0.0937;-0.1371;
2764881617559336;0.2024;-0.0501;-0.0999;
2764881627666836;0.2567;-0.1321;-0.0967;
2764881637763399;0.3121;-0.0277;-0.1148;
2764881647870899;0.2663;-0.0415;-0.0626;
2764881657978399;0.2897;-0.2663;-0.0626;
2764881668075274;0.2983;-0.4835;-0.0115;
2764881678182774;0.1076;-0.2322;0.0003;
2764881688290222;0.0204;0.1427;-0.0519;
2764881698398607;0.1065;0.3812;-0.0903;
2764881708506107;0.0768;0.4345;-0.0477;
2764881718613607;0.1182;0.3237;-0.0104;
2764881728703711;0.1024;0.2246;-0.0349;
2764881738811159;0.0736;0.2172;-0.0370;
2764881748918659;0.0640;0.0234;0.0013;
2764881759073815;0.0470;-0.0692;0.0067;
2764881769181315;0.0566;0.1076;0.0258;
2764881779288815;0.0459;0.0490;0.0972;
2764881789355899;-0.0063;-0.4495;0.0525;
2764881799463399;-0.0467;-0.2620;-0.0253;
2764881809570899;-0.0723;-0.0831;-0.0349;
2764881819695170;0.1161;-0.1683;-0.0136;
2764881829802670;0.1108;-0.0724;-0.0509;
2764881839910170;0.1704;0.0394;-0.0647;
2764881850016315;0.3036;0.0778;-0.0317;
2764881860123815;0.3611;0.2065;-0.0583;
2764881870231315;0.3984;0.1586;-0.0210;
2764881880341003;0.4272;0.1363;0.0248;
2764881890448503;0.3771;0.2332;0.0748;
2764881900556003;0.2791;-0.0969;0.1121;
2764881910685065;0.2557;-0.2706;0.1473;
2764881920792565;0.1630;-0.1449;0.1579;
2764881930900065;0.1310;-0.2184;0.1409;
2764881940984857;0.1332;-0.1907;0.1770;
2764881951092357;0.0385;-0.1023;0.1695;
2764881961199857;-0.0265;-0.0138;0.1537;
2764881971303607;-0.0957;0.0075;0.1780;
2764881981411107;-0.1138;-0.0852;0.1759;
2764881991518607;-0.0947;-0.0788;0.1569;
2764882001615638;-0.0883;0.0767;0.1632;
2764882011723086;-0.0925;0.0842;0.1961;
2764882021830586;-0.0627;-0.1172;0.2015;
2764882031938086;-0.0798;-0.0767;0.1865;
2764882042052878;-0.1597;-0.0288;0.1919;
2764882052160378;-0.1085;-0.1683;0.1940;
2764882062267878;-0.1192;-0.1598;0.1993;
2764882072392461;-0.2907;-0.0671;0.1654;
2764882082499961;-0.2758;0.0852;0.1206;
2764882092607461;-0.2587;0.2182;0.1111;
2764882102705586;-0.2438;0.1660;0.1121;
2764882112813086;-0.1490;0.0511;0.1366;
2764882122920586;-0.1607;0.1289;0.1356;
2764882133037097;-0.1756;0.1257;0.0961;
2764882143144597;-0.1405;0.1300;0.0855;
2764882153252097;-0.2076;0.2545;0.0812;
2764882163359753;-0.2172;0.3503;0.0684;
2764882173467253;-0.2055;0.1788;0.0887;
2764882183574753;-0.2055;-0.1204;0.0674;
2764882193673815;-0.2992;-0.0107;-0.0008;
2764882203781315;-0.3354;0.0639;0.0194;
2764882213888815;-0.1714;-0.1385;-0.0189;
2764882223996003;-0.1724;-0.1481;-0.0391;
2764882234103503;-0.1703;0.0021;-0.0455;
2764882244211003;-0.0830;0.1150;-0.0487;
2764882254324128;0.0204;-0.0309;-0.0711;
2764882264431628;0.0342;-0.0256;-0.0892;
2764882274539128;-0.0233;0.0948;-0.0370;
2764882284649024;0.0758;0.0298;-0.0413;
2764882294756524;0.1236;-0.1609;-0.0381;
2764882304864024;0.0268;-0.1427;-0.0370;
2764882314956315;0.0033;0.0043;0.0258;
2764882325063815;0.0332;-0.0341;0.0184;
2764882335171315;0.0981;-0.0053;-0.0040;
2764882345277565;0.0289;0.0905;0.0173;
2764882355385065;0.0364;0.0639;0.0333;
2764882365492565;0.0747;0.0181;0.0354;
2764882375602461;-0.0254;-0.2258;0.1185;
2764882385709961;-0.1043;-0.2961;0.0759;
2764882395817461;-0.2342;0.4718;-0.0381;
2764882405933815;-0.2172;0.9659;-0.0668;
2764882416041315;-0.1202;0.5623;-0.0455;
2764882426148815;0.0662;0.1055;-0.0093;
2764882436250690;-0.1341;0.1044;-0.0498;
2764882446358190;-0.2715;0.0671;-0.0349;
2764882456465690;-0.1554;-0.0064;-0.0285;
2764882466572722;-0.1053;0.1767;-0.0349;
2764882476680274;-0.1565;0.1682;-0.0210;
2764882486787774;-0.0041;0.1278;0.0013;
2764882496898920;-0.0776;-0.0820;0.0226;
2764882507006420;-0.0808;-0.8137;-0.0274;
2764882517113920;0.0651;-0.7285;-0.0562;
2764882527222982;0.1118;-0.5453;-0.0647;
2764882537330482;0.3419;-0.5080;-0.0573;
2764882547437982;0.5145;-0.3398;0.0205;
2764882557537878;0.4932;-0.3643;0.0610;
2764882567645222;0.4804;-0.4527;0.1057;
2764882577752617;0.3867;-0.5985;0.1302;
2764882587863295;0.3004;-0.6252;0.1334;
2764882597970638;0.1332;-0.2216;0.1206;
2764882608078034;-0.1181;0.0735;0.1047;
2764882618181420;0.0150;0.0575;0.0866;
2764882628288815;0.0087;0.2321;0.0397;
2764882638396159;-0.2044;0.4228;0.0056;
2764882648496888;-0.1394;0.8082;-0.0296;
2764882658604232;-0.2363;1.3611;-0.0615;
2764882668711628;-0.3589;1.4334;-0.0668;
2764882678823659;-0.3471;1.0714;-0.0519;
2764882688931003;-0.4419;0.7720;-0.0381;
2764882699038399;-0.6762;0.4537;-0.0328;
2764882709147149;-0.7763;-0.0575;-0.0626;
2764882719254492;-0.7869;-0.4165;-0.1627;
2764882729361888;-0.6857;-0.5122;-0.2352;
2764882739458086;-0.4590;-0.6284;-0.3417;
2764882749565430;-0.1511;-0.7040;-0.3949;
2764882759672826;-0.0723;-0.8105;-0.4598;
2764882769786680;0.0758;-0.5911;-0.5546;
2764882779894024;0.1619;-0.1640;-0.5887;
2764882790001420;0.1545;-0.2130;-0.5759;
2764882800120586;0.7370;-0.1587;-0.5535;
2764882810227930;1.1535;0.2449;-0.5343;
2764882820335326;1.0928;0.4387;-0.3864;
2764882830453295;1.0928;0.3098;-0.2447;
2764882840560638;1.0278;0.2001;-0.1201;
2764882850668034;0.8616;0.2065;-0.0381;
2764882860774336;0.7839;0.0937;0.0855;
2764882870881680;0.7062;-0.1300;0.1876;
2764882880989076;0.5837;-0.2684;0.2846;
2764882891080378;0.4346;-0.4122;0.3559;
2764882901187722;0.3409;-0.4517;0.4145;
2764882911295117;0.2237;-0.2834;0.4241;
2764882921403086;0.0598;-0.1150;0.4390;
2764882931510430;-0.0340;-0.0096;0.4656;
2764882941617826;-0.0989;0.1193;0.4316;
2764882951730482;-0.1628;0.1863;0.3868;
2764882961837826;-0.2310;0.1065;0.3964;
2764882971945222;-0.5238;0.0788;0.3538;
2764882982050795;-0.7784;0.3493;0.2920;
2764882992158138;-0.8306;0.6134;0.1919;
2764883002265534;-0.7507;0.6784;0.1228;
2764883012381628;-0.8061;0.6369;0.0759;
2764883022488972;-0.7699;0.5740;0.0035;
2764883032596367;-0.7337;0.5090;-0.0413;
2764883042691680;-0.7230;0.3120;-0.0722;
2764883052799024;-0.6325;0.1204;-0.1659;
2764883062906420;-0.4803;0.0671;-0.1872;
2764883073041211;-0.2917;0.0650;-0.2298;
2764883083148555;-0.1565;0.1012;-0.2543;
2764883093255951;-0.1469;-0.1012;-0.2873;
2764883103335065;-0.0734;-0.4027;-0.3363;
2764883113442409;0.0694;-0.4218;-0.3598;
2764883123549805;0.2184;-0.3664;-0.3502;
2764883133661836;0.3462;-0.4643;-0.3363;
2764883143769180;0.4804;-0.4144;-0.3300;
2764883153876576;0.5071;-0.2983;-0.3118;
2764883163997670;0.4996;-0.2344;-0.2597;
2764883174105013;0.5401;-0.2205;-0.1893;
2764883184212409;0.5742;-0.1140;-0.1744;
2764883194307461;0.5241;0.0298;-0.1063;
2764883204414857;0.4389;-0.0927;-0.0093;
2764883214522201;0.3867;-0.3771;0.0844;
2764883224631211;0.3718;-0.4814;0.1515;
2764883234738555;0.3419;-0.3579;0.1983;
2764883244845951;0.2141;-0.3164;0.2558;
2764883254941367;0.1885;-0.3324;0.3016;
2764883265048711;0.1566;-0.3121;0.3059;
2764883275156107;0.1065;-0.2439;0.3261;
2764883285300482;0.0736;-0.2535;0.3623;
2764883295407878;0.0172;-0.3249;0.3847;
2764883305515222;-0.0553;-0.6411;0.4252;
2764883315600690;-0.1565;-1.1608;0.4284;
2764883325708034;-0.4260;-0.7327;0.3304;
2764883335815430;-0.9691;0.3248;0.2931;
2764883345921003;-0.5718;0.9478;0.1791;
2764883356028347;-0.4473;0.5985;0.1366;
2764883366135742;-0.2001;0.3503;0.0493;
2764883376243503;-0.3620;0.7391;-0.0232;
2764883386350847;-0.7273;0.8817;0.0077;
2764883396458242;-0.5377;0.5357;-0.0168;
2764883406560170;-0.4824;0.3514;-0.0732;
2764883416667565;-0.4728;0.3567;-0.1084;
2764883426774909;-0.3173;1.2066;-0.1244;
2764883436883920;-0.2033;0.9041;-0.0605;
2764883446991263;0.1545;-0.5154;-0.1723;
2764883457098659;-0.2193;-0.4664;-0.2778;
2764883467211420;-0.2715;-0.0735;-0.2831;
2764883477318763;0.2184;-0.3079;-0.3534;
2764883487426159;0.4847;-0.3196;-0.4173;
2764883497532982;0.4953;-0.0447;-0.4045;
2764883507640326;0.6104;0.2790;-0.3619;
2764883517747722;0.7913;0.1778;-0.2586;
2764883527854597;0.9905;-0.1129;-0.1840;
2764883537961992;1.1386;0.2523;-0.1105;
2764883548069336;1.0651;0.2758;0.0013;
2764883558166420;1.1248;-0.1246;0.1025;
2764883568273763;0.9746;0.0117;0.1791;
2764883578381159;0.6466;0.0043;0.2451;
2764883588514545;0.5497;-0.2855;0.2675;
2764883598621888;0.2876;-0.1694;0.3091;
2764883608729284;0.0843;-0.0927;0.3506;
2764883618817409;0.0715;-0.1854;0.3495;
2764883628924753;-0.1096;-0.1225;0.3421;
2764883639032149;-0.3173;-0.0064;0.3059;
2764883649136315;-0.3035;-0.0501;0.2739;
2764883659243659;-0.3493;-0.0756;0.2398;
2764883669351055;-0.4142;-0.1310;0.2334;
2764883679454024;-0.4270;-0.1811;0.1823;
2764883689561367;-0.4739;-0.0575;0.0993;
2764883699668763;-0.5089;0.1161;0.0439;
2764883709761940;-0.4068;0.0575;0.0269;
2764883719869284;-0.3290;-0.0075;-0.0328;
2764883729976680;-0.3067;0.0948;-0.0200;
2764883740130899;-0.2491;0.0053;-0.0210;
2764883750238242;-0.0957;-0.1534;-0.0338;
2764883760345638;-0.1032;-0.1459;-0.0594;
2764883770436107;-0.0872;-0.0256;-0.0839;
2764883780543451;-0.0212;0.0394;-0.0668;
2764883790650847;-0.0020;-0.0085;-0.0434;
2764883800741836;0.0172;0.0107;-0.0573;
2764883810849180;0.0225;-0.0096;-0.0306;
2764883820956576;0.0885;-0.0117;-0.0498;
2764883831077253;0.1035;0.0703;-0.0541;
2764883841184597;0.1257;0.1543;-0.0285;
2764883851291992;0.1172;0.0330;0.0333;
2764883861407461;0.0949;-0.0618;0.0322;
2764883871514805;-0.0105;0.0266;0.0269;
2764883881622201;-0.0233;-0.0011;0.0738;
2764883891728711;-0.0372;-0.1353;0.0887;
2764883901836055;-0.0744;0.0618;0.1004;
2764883911943451;-0.1660;0.1225;0.0780;
2764883922044128;-0.0617;-0.0692;0.0642;
2764883932151472;-0.1352;0.0075;0.0823;
2764883942258867;-0.2321;-0.0170;0.0663;
2764883952365690;-0.1341;0.0415;0.0365;
2764883962473034;-0.2353;0.1660;0.0120;
2764883972580430;-0.1511;0.2204;0.0162;
2764883982683295;-0.0712;0.2608;0.0312;
2764883992790638;-0.1021;0.0597;0.0525;
2764884002898034;-0.1043;0.1459;0.0461;
2764884013006940;-0.1682;0.1481;0.0333;
2764884023114284;-0.0702;-0.0458;0.0013;
2764884033221680;-0.1043;-0.0543;0.0333;
2764884043322357;-0.1213;-0.0362;0.0429;
2764884053429701;-0.0936;-0.0330;0.0205;
2764884063537097;-0.1234;-0.1822;0.0141;
2764884073647461;-0.1437;-0.1747;0.0056;
2764884083754805;-0.2065;-0.0266;-0.0285;
2764884093862201;-0.1554;0.0234;-0.0647;
2764884103975899;-0.0499;0.1172;-0.0498;
2764884114083242;-0.0542;0.2928;-0.0551;
2764884124190638;0.0566;0.0735;-0.0615;
2764884134299545;0.1790;-0.0160;-0.0860;
2764884144406888;0.0598;0.1129;-0.0498;
2764884154514284;0.0971;0.1097;-0.0189;
2764884164635795;0.2194;0.1332;-0.0168;
2764884174743138;0.1470;0.1182;0.0312;
2764884184850534;0.1246;-0.0298;0.0695;
2764884194939753;0.1246;-0.0810;0.0652;
2764884205047097;0.0012;-0.1427;0.0535;
2764884215154492;0.0300;-0.1555;0.0589;
2764884225271211;-0.0105;-0.0767;0.0652;
2764884235378555;-0.0009;-0.1545;0.0099;
2764884245485951;0.0033;0.1332;-0.0360;
2764884255606315;-0.0276;0.2449;-0.0189;
2764884265713659;0.1342;0.0011;-0.0061;
2764884275821055;0.2258;0.0021;0.0013;
2764884285923503;0.0502;-0.0511;0.0599;
2764884296030847;0.0609;-0.1885;0.0642;
2764884306138242;0.0779;-0.0021;0.0375;
2764884316240586;0.0044;0.0852;0.0525;
2764884326347930;0.0832;0.0181;0.0642;
2764884336455326;0.0672;0.0682;0.0823;
2764884346555482;0.0406;0.0043;0.0642;
2764884356662826;0.0310;-0.0575;0.0535;
2764884366770222;0.0033;-0.1012;0.0514;
2764884376884961;-0.0222;-0.0650;0.0567;
2764884386992305;-0.0606;0.1001;0.0407;
2764884397099701;-0.0617;0.0937;0.0770;
2764884407201003;0.0065;0.0565;0.0844;
2764884417308347;-0.0340;0.0714;0.0844;
2764884427415742;-0.0318;0.0107;0.0897;
2764884437520482;0.0193;-0.1161;0.1153;
2764884447627826;-0.0340;-0.1502;0.1164;
2764884457735222;-0.0808;-0.0927;0.0642;
2764884467851732;-0.1298;0.0905;0.0802;
2764884477959076;-0.1458;0.1033;0.0929;
2764884488066472;-0.0350;0.0660;0.0535;
2764884498159336;-0.0627;0.0618;0.0610;
2764884508266732;-0.0808;-0.0671;0.0919;
2764884518374076;-0.0808;-0.2407;0.0812;
2764884528516211;-0.0915;-0.0426;0.0727;
2764884538623555;-0.2374;0.2012;0.0770;
2764884548730951;-0.2449;0.1660;0.0897;
2764884558803815;-0.0915;0.1385;0.0738;
2764884568911263;-0.1895;0.2161;0.0482;
2764884579018659;-0.2363;0.1660;0.0429;
2764884589169545;-0.1714;-0.0767;0.0461;
2764884599276992;-0.1575;-0.1055;0.0301;
2764884609384388;-0.2726;0.0160;0.0237;
2764884619440586;-0.2971;-0.0671;0.0237;
2764884629548034;-0.2012;-0.1459;0.0194;
2764884639655430;-0.1788;0.0873;-0.0040;
2764884649782774;-0.3035;-0.0128;-0.0221;
2764884659890222;-0.1873;-0.2141;-0.0221;
2764884669997617;-0.1085;-0.0746;-0.0541;
2764884680102878;-0.1820;-0.0756;-0.0647;
2764884690210326;-0.1128;-0.0756;-0.0913;
2764884700317722;-0.1192;0.0107;-0.0924;
2764884710473086;-0.1107;0.0799;-0.1158;
2764884720580534;-0.0744;0.1033;-0.0977;
2764884730687930;-0.0659;-0.0479;-0.0935;
2764884740743607;-0.0116;-0.0980;-0.0967;
2764884750851055;-0.0457;0.0607;-0.1158;
2764884760958451;-0.0925;0.1161;-0.1052;
2764884771078607;-0.0276;0.0405;-0.0679;
2764884781186055;-0.0084;0.0650;-0.0636;
2764884791293451;-0.0617;0.0181;-0.0850;
2764884801391003;-0.0499;0.0394;-0.1105;
2764884811498451;-0.0712;0.0597;-0.1105;
2764884821605847;-0.0893;-0.0714;-0.1031;
2764884831708399;-0.0254;-0.0671;-0.0828;
2764884841815847;-0.0041;-0.0032;-0.1041;
2764884851923242;0.0332;-0.0234;-0.0988;
2764884862040065;0.0257;0.0021;-0.1031;
2764884872147513;-0.0126;-0.0330;-0.1212;
2764884882254909;-0.0340;-0.0831;-0.1031;
2764884892360795;-0.0212;-0.1076;-0.0924;
2764884902468190;0.0449;-0.1289;-0.0977;
2764884912575638;0.0672;-0.0650;-0.1169;
2764884922679440;0.0598;-0.0607;-0.1254;
2764884932786888;-0.0638;-0.2162;-0.1329;
2764884942894284;-0.0755;-0.3270;-0.0487;
2764884952997513;0.3547;-0.0778;-0.0860;
2764884963104961;0.8286;0.2683;-0.1318;
2764884973212357;0.6604;0.1513;-0.0818;
2764884983319128;0.0864;-0.0660;0.0130;
2764884993426576;-0.0776;-0.0511;0.0344;
2764885003533972;-0.0372;-0.0373;-0.0019;
2764885013648190;-0.0297;-0.1694;0.0674;
2764885023755638;0.2578;-0.0362;0.0194;
2764885033863034;0.6647;0.3216;0.0333;
2764885043960430;0.5007;0.2363;0.0727;
2764885054067878;-0.0126;0.0256;0.1494;
2764885064175274;0.0268;0.2758;0.1908;
2764885074282149;-0.0095;0.2534;0.1780;
2764885084389597;-0.6634;-0.5655;0.1515;
2764885094496992;-0.6911;-0.3089;0.1356;
2764885104610482;-0.0947;0.2332;0.0834;
2764885114717930;0.0832;-0.0586;0.0269;
2764885124825326;-0.0372;-0.0703;0.0535;
2764885134930690;0.1172;0.2129;0.0546;
2764885145038138;0.1438;0.2342;0.0344;
2764885155145534;-0.2214;-0.1289;0.0397;
2764885165255482;-0.4228;-0.3153;0.0280;
2764885175362930;-0.1192;0.0394;-0.0168;
2764885185470326;0.0534;0.0980;-0.0423;
2764885195580378;-0.1277;-0.1502;-0.0168;
2764885205687774;-0.0712;0.0714;-0.0040;
2764885215795222;0.0150;0.2310;-0.0040;
2764885225898920;-0.1043;-0.0831;0.0056;
2764885236006367;-0.0947;0.0085;0.0173;
2764885246113763;0.0182;0.2076;-0.0051;
2764885256214701;-0.0702;0.0256;-0.0083;
2764885266322149;-0.1788;-0.0490;0.0003;
2764885276429545;-0.0521;0.0501;0.0035;
2764885286539753;0.0289;0.0937;-0.0168;
2764885296647201;-0.0883;0.0479;-0.0210;
2764885306754597;-0.1330;-0.0788;-0.0051;
2764885316867357;-0.1053;-0.1108;-0.0093;
2764885326974805;0.0087;-0.0181;-0.0391;
2764885337082201;0.1278;0.0586;-0.0434;
2764885347189232;0.0907;0.0767;-0.0328;
2764885357296680;-0.0851;-0.0213;-0.0200;
2764885367404076;-0.0563;-0.0479;-0.0562;
2764885377511420;0.0172;0.1065;-0.0871;
2764885387618867;-0.0382;0.0969;-0.0743;
2764885397726263;-0.0542;0.0671;-0.0722;
2764885407836211;-0.0968;0.1044;-0.0498;
2764885417943659;-0.2502;0.0383;-0.0658;
2764885428051055;-0.4142;-0.0916;-0.0818;
2764885438157670;-0.3269;-0.0756;-0.1222;
2764885448265117;0.1395;0.1778;-0.1542;
2764885458372565;0.2365;0.2342;-0.1531;
2764885468496576;-0.0893;0.0202;-0.1478;
2764885478604076;-0.1597;-0.0107;-0.1169;
2764885488711472;-0.0446;0.0490;-0.1489;
2764885498786524;-0.1639;-0.1353;-0.1563;
2764885508893972;-0.2108;-0.2301;-0.1808;
2764885519001367;0.1939;0.0607;-0.1819;
2764885529152670;0.3718;0.0692;-0.2245;
2764885539260117;0.1003;-0.0565;-0.1489;
2764885549367513;-0.0212;0.0170;-0.1425;
2764885559445586;0.1332;0.0895;-0.1499;
2764885569553086;0.0992;0.0341;-0.1446;
2764885579660534;-0.0883;-0.0831;-0.1521;
2764885589761524;-0.0148;-0.0075;-0.1041;
2764885599869024;0.0672;-0.0107;-0.1169;
2764885609976472;0.2397;0.0277;-0.1180;
2764885620106628;0.4037;0.1831;-0.1105;
2764885630214128;0.3920;0.1948;-0.0402;
2764885640321576;0.1822;0.0852;0.0013;
2764885650409024;-0.1075;-0.0628;0.0354;
2764885660516524;-0.2811;-0.3292;0.0578;
2764885670623972;0.0768;-0.2120;0.0237;
2764885680734961;0.4421;0.1427;0.0088;
2764885690842461;0.3526;0.1597;0.0471;
2764885700949909;-0.0755;-0.2290;0.0855;
2764885711076628;-0.0915;-0.1928;0.0887;
2764885721184128;0.2173;0.2129;0.0194;
2764885731291576;0.0981;0.0991;0.0514;
2764885741375586;-0.2523;-0.1992;0.0599;
2764885751483086;-0.2651;-0.0554;0.0663;
2764885761590534;-0.0201;0.1565;0.0013;
2764885771707513;-0.1927;-0.1246;0.0237;
2764885781815013;-0.2417;-0.0969;0.0152;
2764885791922461;-0.0126;0.3642;0.0141;
2764885802021940;-0.2577;-0.1001;0.0184;
2764885812129440;-0.4483;-0.3260;0.0045;
2764885822236888;-0.0297;0.0778;0.0344;
2764885832346420;0.0662;0.1948;-0.0636;
2764885842453920;-0.2044;-0.0064;-0.0892;
2764885852561367;-0.2097;-0.0298;-0.0754;
2764885862683190;-0.0212;0.1257;-0.0658;
2764885872790690;-0.0691;0.0362;-0.1233;
2764885882898138;-0.1256;-0.0170;-0.1435;
2764885892990482;-0.0648;-0.0320;-0.1297;
2764885903097982;-0.0190;-0.0373;-0.1041;
2764885913205430;-0.0297;-0.0724;-0.1521;
2764885923310795;0.0438;0.1236;-0.1606;
2764885933418295;-0.0073;0.1948;-0.1510;
2764885943525742;0.0087;0.0852;-0.0967;
2764885953637149;-0.0190;0.0149;-0.1095;
2764885963744649;0.0001;-0.0873;-0.1084;
2764885973852097;0.0640;-0.0298;-0.1105;
2764885983959128;0.0907;-0.1097;-0.1126;
2764885994066628;0.1662;-0.0714;-0.1233;
2764886004174024;0.1427;0.0724;-0.1244;
2764886014286420;0.0012;0.0639;-0.1158;
2764886024393920;0.0640;-0.0000;-0.0754;
2764886034501367;0.1427;-0.0415;-0.0551;
2764886044624649;0.0854;-0.1278;-0.0498;
2764886054732149;0.1108;-0.1257;-0.0306;
2764886064839597;0.1715;-0.0309;-0.0381;
2764886074919440;0.1204;0.0107;-0.0913;
2764886085026940;0.1161;0.1438;-0.0146;
2764886095134388;0.0800;0.0383;-0.0104;
2764886105246211;0.1640;-0.0192;-0.0232;
2764886115353711;0.1513;0.2300;-0.0168;
2764886125461159;0.0108;0.0170;0.0045;
2764886135567774;-0.0222;-0.5261;0.0450;
2764886145675274;0.1811;-0.2397;0.0631;
2764886155782722;0.1566;0.1533;0.0013;
2764886165917045;0.0172;0.1129;-0.0008;
2764886176024545;0.0822;0.0895;0.0216;
2764886186131992;0.0555;0.0224;0.0439;
2764886196217774;0.0364;-0.1182;0.0450;
2764886206325274;0.0332;-0.0980;0.0205;
2764886216432722;0.0033;0.0884;-0.0274;
2764886226540170;0.0555;0.2587;-0.0434;
2764886236647670;0.0310;0.0522;-0.0317;
2764886246755117;0.0278;-0.1758;-0.0061;
2764886256880795;0.0459;-0.2375;0.0088;
2764886266988295;0.1417;-0.2152;0.0130;
2764886277095742;0.1747;-0.0309;-0.0029;
2764886287179440;0.0598;0.1374;-0.0253;
2764886297286940;0.0662;0.1895;-0.0274;
2764886307394388;0.0683;0.1118;-0.0455;
2764886317509649;0.1013;0.2097;-0.0562;
2764886327617149;0.0971;0.3418;-0.0285;
2764886337724597;0.0907;-0.0969;-0.0104;
2764886347817097;0.1300;-0.1843;-0.0445;
2764886357924597;0.0662;0.0128;-0.0466;
2764886368032045;0.0609;-0.1449;-0.0061;
2764886378137982;0.1438;-0.1726;0.0269;
2764886388245482;0.1491;0.1873;-0.0104;
2764886398352878;0.0715;0.5080;0.0216;
2764886408537201;0.0843;0.0011;0.0620;
2764886418644753;0.1140;-0.3228;0.0546;
2764886428752201;0.0182;-0.0937;0.0237;
2764886438790690;-0.0766;-0.0799;-0.0061;
2764886448898190;-0.0233;-0.2280;0.0269;
2764886459005638;0.0257;-0.1140;-0.0125;
2764886469144232;-0.0830;0.1884;-0.0541;
2764886479251732;-0.1522;0.1395;-0.0189;
2764886489359180;-0.0126;-0.0639;-0.0157;
2764886499434024;-0.0286;0.0639;-0.0178;
2764886509541524;-0.1426;0.1575;0.0035;
2764886519648972;-0.0915;-0.1310;0.0152;
2764886529749545;0.0257;-0.1726;0.0077;
2764886539857045;0.0321;0.0075;-0.0029;
2764886549964492;-0.0041;-0.0320;-0.0051;
2764886560083503;0.0726;-0.0341;-0.0136;
2764886570190951;0.0683;0.0437;0.0067;
2764886580298399;0.0928;-0.0011;-0.0115;
2764886590407774;0.1523;0.0362;-0.0125;
2764886600515222;0.0779;-0.0288;-0.0136;
2764886610622670;0.1182;-0.0533;-0.0221;
2764886620713086;0.0885;-0.0288;-0.0051;
2764886630820534;0.0502;-0.1864;-0.0178;
2764886640927982;0.1332;-0.0597;-0.0423;
2764886651049545;0.0587;0.1193;-0.0146;
2764886661156992;0.0854;0.0842;-0.0051;
2764886671264440;0.0790;0.0149;0.0003;
2764886681367670;0.0555;-0.0565;0.0077;
2764886691475117;0.0683;0.0543;-0.0274;
2764886701582565;0.0587;0.0565;-0.0168;
2764886711716211;0.0630;-0.0756;-0.0157;
2764886721823659;0.0449;-0.0138;-0.0360;
2764886731931159;0.0374;0.0490;-0.0253;
2764886742019961;0.0353;-0.0415;-0.0072;
2764886752127409;0.0513;-0.0660;0.0013;
2764886762234857;0.0598;0.0128;-0.0210;
2764886772339857;0.0758;0.0181;-0.0083;
2764886782447305;0.0534;-0.0437;0.0130;
2764886792554753;0.0534;-0.1310;0.0365;
2764886802662930;0.0885;-0.0298;0.0099;
2764886812770378;0.0885;0.1565;-0.0029;
2764886822877826;0.0481;-0.0767;0.0141;
2764886832985795;0.0790;-0.0277;0.0184;
2764886843093242;0.0587;0.0618;0.0322;
2764886853200690;0.0619;-0.0373;0.0141;
2764886863304753;0.0364;-0.0799;0.0152;
2764886873412201;0.0332;-0.1065;0.0184;
2764886883519649;0.0523;-0.0884;0.0280;
2764886893635430;0.0587;-0.0852;0.0375;
2764886903742878;0.0662;-0.1342;0.0546;
2764886913850326;0.0598;-0.0298;0.0599;
2764886923943867;0.0406;0.0021;0.0652;
2764886934051367;0.0502;-0.0511;0.0493;
2764886944158815;0.0513;-0.0213;0.0695;
2764886954272045;0.0268;-0.2056;0.0897;
2764886964379492;0.0055;-0.1342;0.0525;
2764886974486940;-0.0723;0.2491;-0.0104;
2764886984589753;-0.1021;0.2662;0.0397;
2764886994697201;0.0715;-0.0309;0.0322;
2764887004804649;0.0704;-0.0149;0.0152;
2764887014924857;-0.0201;0.0895;0.0365;
2764887025032305;0.0481;0.0138;0.0482;
2764887035139753;0.0609;0.0256;0.0620;
2764887045210795;0.0225;0.0170;0.0610;
2764887055318242;0.0257;-0.0021;0.0620;
2764887065425690;0.0289;0.0075;0.0557;
2764887075559545;0.0364;-0.0128;0.0525;
2764887085666992;0.0332;0.1597;0.0429;
2764887095774440;0.0289;0.0905;0.0663;
2764887105883399;0.0193;-0.2130;0.0503;
2764887115990847;-0.0052;-0.1832;0.0099;
2764887126098295;-0.0212;-0.1055;-0.0317;
2764887136203607;0.0438;-0.0437;-0.0264;
2764887146311055;0.0822;0.0043;-0.0168;
2764887156418503;0.1140;0.0277;-0.0349;
2764887166522461;0.1406;0.1097;-0.0242;
2764887176629909;0.1491;0.1118;-0.0317;
2764887186737357;0.2248;0.0884;-0.0168;
2764887196853607;0.2514;0.0905;0.0067;
2764887206961055;0.2546;0.1321;-0.0008;
2764887217068503;0.2418;0.1161;0.0344;
2764887227177045;0.2216;0.1225;0.0482;
2764887237284492;0.1790;0.0383;0.0887;
2764887247391940;0.1374;-0.1033;0.0866;
2764887257493034;0.1459;-0.0565;0.1015;
2764887267600482;0.0768;-0.0224;0.1079;
2764887277707930;0.1065;-0.0277;0.1132;
2764887287827253;0.0800;0.0543;0.1430;
2764887297934701;0.0513;0.0692;0.1142;
2764887308042149;0.0427;0.0479;0.1111;
2764887318136524;0.0246;0.0469;0.1047;
2764887328243972;0.0374;0.0884;0.1164;
2764887338351472;0.0172;0.0415;0.1366;
2764887348519336;0.0204;-0.0586;0.1238;
2764887358626784;-0.0073;0.0415;0.1111;
2764887368734284;-0.0883;0.1449;0.1079;
2764887378781315;-0.0244;0.1714;0.1100;
2764887388888763;0.0289;0.1236;0.1356;
2764887398996211;0.0108;0.0724;0.1494;
2764887409154024;-0.0041;0.0298;0.1643;
2764887419261472;-0.0180;-0.0522;0.1451;
2764887429368972;-0.0446;-0.0788;0.1249;
2764887439435899;-0.0702;-0.0714;0.1324;
2764887449543347;-0.0936;-0.0554;0.1185;
2764887459650795;-0.1096;-0.0458;0.0834;
2764887469774649;-0.0979;-0.0202;0.0652;
2764887479882097;-0.0925;0.0586;0.0834;
2764887489989545;-0.1352;-0.1406;0.0855;
2764887500087774;-0.0691;-0.2407;0.0322;
2764887510195222;-0.1565;-0.1087;0.0077;
2764887520302670;-0.1937;-0.0266;0.0056;
2764887530421420;-0.0830;-0.0043;0.0013;
2764887540528867;-0.0382;-0.0330;-0.0083;
2764887550636315;-0.0531;0.0383;-0.0434;
2764887560705899;-0.0627;0.0597;-0.0104;
2764887570813242;-0.0116;-0.0075;-0.0253;
2764887580920534;-0.0340;0.0501;-0.0285;
2764887591046003;-0.0478;0.0490;-0.0296;
2764887601153347;-0.0372;-0.0937;-0.0115;
2764887611260638;-0.0361;-0.1097;-0.0083;
2764887621367878;-0.0372;0.0043;-0.0466;
2764887631475222;-0.0180;0.0937;-0.0455;
2764887641582513;0.0055;0.0927;-0.0434;
2764887651690170;-0.0095;-0.0352;-0.0317;
2764887661797513;-0.0073;-0.1161;-0.0466;
2764887671904805;0.0001;-0.1363;-0.0573;
2764887682011628;0.0033;-0.0692;-0.0562;
2764887692118972;0.0140;0.0437;-0.0594;
2764887702226263;0.0204;0.0330;-0.0626;
2764887712333399;0.0374;0.0543;-0.0775;
2764887722440742;-0.0041;0.1459;-0.0913;
2764887732548034;-0.0201;0.1905;-0.0455;
2764887742653086;0.0172;0.2097;-0.0519;
2764887752760430;0.0204;0.0916;-0.0551;
2764887762867722;-0.0126;-0.0032;-0.0530;
2764887772970378;0.0044;0.0096;-0.0434;
2764887783077722;0.0023;-0.0383;-0.0157;
2764887793185013;0.0044;-0.0245;-0.0274;
2764887803292357;0.0150;0.1087;-0.0328;
2764887813399701;0.0044;0.1735;-0.0008;
2764887823506992;0.0257;-0.0085;-0.0093;
2764887833618347;0.0289;-0.0586;-0.0051;
2764887843725690;0.0055;0.0320;0.0035;
2764887853832982;-0.0105;-0.1108;-0.0008;
2764887863945586;0.0108;-0.2109;-0.0008;
2764887874052930;-0.0105;-0.1843;-0.0274;
2764887884160222;0.0097;-0.1385;-0.0519;
2764887894266003;0.0481;-0.0032;-0.0551;
2764887904373347;0.0704;0.0756;-0.0605;
2764887914480638;0.1118;0.1682;-0.0306;
2764887924605065;0.1161;0.1513;-0.0509;
2764887934712409;0.1790;0.1289;-0.0338;
2764887944819701;0.1523;0.1268;-0.0210;
2764887954906420;0.1566;0.0692;0.0099;
2764887965013763;0.1694;0.0778;0.0258;
2764887975121055;0.1310;0.1406;0.0280;
2764887985233295;0.0811;0.0298;0.0759;
2764887995340638;0.0822;-0.1300;0.0908;
2764888005447930;0.0790;-0.0746;0.0983;
2764888015551628;0.0406;0.0330;0.0897;
2764888025658972;0.0395;0.0181;0.0897;
2764888035766263;0.0364;-0.0937;0.0897;
2764888045891732;0.0076;-0.0735;0.0770;
2764888055999076;-0.0403;-0.1012;0.0450;
2764888066106367;-0.0318;-0.1278;0.0216;
2764888076205378;0.0119;-0.0959;0.0290;
2764888086312722;0.0129;-0.0959;0.0045;
2764888096420013;0.0076;-0.0181;0.0152;
2764888106529024;0.0033;-0.0043;0.0173;
2764888116636367;0.0182;-0.0852;0.0375;
2764888126743659;0.0310;-0.1023;0.0429;
2764888136845795;0.0289;-0.0032;0.0482;
2764888146953138;0.0172;0.0128;0.0546;
2764888157060430;0.0150;-0.0586;0.0695;
2764888167173086;0.0150;-0.1566;0.0919;
2764888177280430;0.0119;-0.1193;0.0727;
2764888187387722;-0.0137;-0.0746;0.0589;
2764888197488711;-0.0286;-0.1001;0.0535;
2764888207596055;-0.0073;-0.0746;0.0589;
2764888217703347;-0.0638;-0.0373;0.0557;
2764888227802670;-0.1149;0.0181;0.0546;
2764888237910013;-0.0979;0.0128;0.0620;
2764888248017305;-0.1192;-0.0597;0.0620;
2764888258130482;-0.0883;-0.0043;-0.0115;
2764888268237826;-0.1288;0.0948;-0.0040;
2764888278345117;-0.1085;0.0277;0.0365;
2764888288522930;-0.0361;-0.0842;0.0237;
2764888298630274;-0.0659;-0.0266;0.0162;
2764888308737565;-0.1256;0.0767;0.0013;
2764888318781107;-0.0638;0.0469;-0.0051;
2764888328888451;-0.0372;0.0586;0.0184;
2764888338995742;-0.0638;0.1182;0.0173;
2764888349142878;-0.0414;0.1395;0.0099;
2764888359250222;-0.0382;0.1565;-0.0136;
2764888369357513;-0.0467;0.0213;-0.0051;
2764888379408607;-0.0393;-0.1012;-0.0093;
2764888389515951;-0.0201;-0.0735;-0.0402;
2764888399623242;-0.0222;-0.0192;-0.0487;
2764888409737513;0.0033;-0.0192;-0.0434;
2764888419844857;0.0033;-0.0224;-0.0328;
2764888429952149;0.0246;-0.0032;-0.0242;
2764888440086992;0.0161;0.0245;-0.0477;
2764888450194336;0.0310;-0.0096;-0.0583;
2764888460301628;0.0427;-0.0170;-0.0519;
2764888470378295;0.0534;-0.0107;-0.0615;
2764888480485638;0.0481;0.0096;-0.0679;
2764888490592930;0.0449;0.0373;-0.0743;
2764888500718086;0.0161;-0.0107;-0.0732;
2764888510825430;0.0598;-0.0202;-0.0786;
2764888520932722;0.0609;0.0245;-0.0711;
2764888531038503;0.0449;-0.0639;-0.0530;
2764888541145847;0.0683;-0.1363;-0.0328;
2764888551255847;0.0960;-0.0788;-0.0253;
2764888561363190;0.0790;0.0383;-0.0370;
2764888571470534;0.0640;0.0852;-0.0349;
2764888581576420;0.0662;-0.0266;-0.0083;
2764888591683763;0.1140;-0.0330;0.0067;
2764888601791055;0.0843;0.1065;-0.0221;
2764888611897878;0.0364;0.1300;-0.0168;
2764888622005222;0.0225;-0.0256;0.0130;
2764888632112513;0.0172;-0.0628;-0.0306;
2764888642220170;0.0364;0.0320;-0.0210;
2764888652327513;0.0001;0.0043;-0.0029;
2764888662434805;0.0768;-0.0756;0.0013;
2764888672575326;0.0651;0.0490;0.0035;
2764888682682670;0.0321;0.0703;0.0226;
2764888692789961;0.0055;-0.1555;0.0290;
2764888702863399;0.0449;-0.2386;0.0514;
2764888712970742;0.0566;-0.0597;0.0514;
2764888723078034;0.0012;0.0746;0.0301;
2764888733180482;0.0268;-0.0692;0.0375;
2764888743287826;0.0640;-0.0128;0.0162;
2764888753395117;0.0097;0.1044;0.0589;
2764888763518295;0.0055;-0.0618;0.0429;
2764888773625638;0.0204;-0.1406;0.0269;
2764888783732930;0.0566;0.0948;-0.0253;
2764888793825065;0.0108;0.1991;-0.0253;
2764888803932409;0.0779;0.1097;0.0077;
2764888814039701;0.0438;0.0554;0.0077;
2764888824150847;0.0534;-0.0224;0.0003;
2764888834258190;0.0800;0.0895;0.0471;
2764888844365482;0.0726;0.0980;0.0770;
2764888854470378;0.0662;-0.1459;0.1068;
2764888864577722;0.1024;-0.0991;0.0983;
2764888874685013;0.0182;0.1065;0.0493;
2764888884827878;-0.0190;-0.1150;0.0940;
2764888894935222;0.0150;-0.2024;0.0972;
2764888905042513;-0.0169;-0.0756;0.0375;
2764888915121315;-0.0638;-0.0927;0.0365;
2764888925228659;-0.0627;-0.1459;0.0194;
2764888935335951;-0.0489;-0.3068;0.0482;
2764888945435170;-0.0606;-0.2503;0.0503;
2764888955542513;-0.1234;-0.0767;-0.0391;
2764888965649805;-0.1256;0.0607;-0.0562;
2764888975757565;-0.0499;0.1417;-0.0328;
2764888985864909;-0.0041;0.0160;0.0194;
2764888995972201;0.0044;0.0724;0.0269;
2764889006105690;-0.0095;0.2491;0.0024;
2764889016213034;-0.0329;0.0107;0.0354;
2764889026320326;-0.0009;-0.1587;0.0503;
2764889036407253;-0.0009;-0.0479;0.0525;
2764889046514597;-0.0212;-0.0788;0.0684;
2764889056621888;0.0044;-0.0639;0.0866;
2764889066738607;0.0012;0.0085;0.0876;
2764889076845951;0.0044;0.0969;0.0961;
2764889086953242;-0.0020;0.0959;0.0780;
2764889097058503;-0.0169;-0.0053;0.0951;
2764889107165847;-0.0105;-0.0586;0.1047;
2764889117273138;-0.0382;-0.0724;0.0972;
2764889127384336;-0.0499;-0.0245;0.0631;
2764889137491680;-0.0862;-0.0117;0.0663;
2764889147598972;-0.1117;-0.1470;0.0993;
2764889157692253;-0.0968;-0.1033;0.0652;
2764889167799597;-0.1107;0.1044;0.0407;
2764889177906888;-0.1085;0.0682;0.0567;
2764889188018607;-0.0233;0.0479;0.0333;
2764889198125951;-0.0329;0.0980;0.0567;
2764889208233242;-0.0361;0.0032;0.0802;
2764889218358711;-0.0158;-0.1342;0.0375;
2764889228466055;0.0044;-0.1246;0.0642;
2764889238573347;-0.0233;-0.0980;0.0429;
2764889248682045;-0.0350;-0.0511;0.0067;
2764889258789388;-0.0510;-0.0213;0.0333;
2764889268896680;-0.0499;0.0170;0.0322;
2764889278977461;-0.0648;-0.0405;0.0397;
2764889289084805;-0.0659;-0.1182;0.0120;
2764889299192097;-0.0595;0.0266;-0.0061;
2764889309299492;-0.1096;0.0650;0.0013;
2764889319406836;-0.0798;-0.0927;0.0130;
2764889329514128;-0.0414;-0.0852;0.0035;
2764889339645170;-0.0830;0.1332;-0.0445;
2764889349752513;-0.0648;0.1937;-0.0349;
2764889359859805;-0.0052;0.0863;-0.0146;
2764889369962878;-0.0254;0.1522;-0.0168;
2764889380070222;-0.0403;0.2342;-0.0200;
2764889390177513;-0.0457;0.0618;0.0194;
2764889400292149;-0.0329;0.0021;0.0525;
2764889410399492;-0.0670;-0.0884;0.0482;
2764889420506784;-0.0510;-0.0863;0.0216;
2764889430609232;-0.0744;0.0884;0.0141;
2764889440716576;-0.0808;-0.0415;0.0226;
2764889450823867;-0.0350;-0.0128;0.0248;
2764889460917253;-0.0531;0.1756;0.0354;
2764889471024597;-0.0787;-0.0639;0.0248;
2764889481131888;-0.0531;-0.1939;0.0077;
2764889491246732;-0.0414;-0.0032;0.0088;
2764889501354076;-0.0702;0.0107;-0.0146;
2764889511461367;-0.0627;-0.0415;-0.0083;
2764889521582930;-0.0734;0.0373;-0.0360;
2764889531690274;-0.0563;0.1161;-0.0242;
2764889541797565;-0.0489;0.0788;0.0099;
2764889551876315;-0.0318;0.0021;0.0194;
2764889561983607;-0.0446;-0.0522;0.0365;
2764889572090899;-0.0286;0.0415;0.0312;
2764889582212878;-0.0382;0.0724;0.0173;
2764889592320170;-0.0457;-0.0107;0.0684;
2764889602427461;-0.0329;0.0362;0.0407;
2764889612536003;-0.0531;0.0735;0.0439;
2764889622643295;-0.0425;0.0671;0.0546;
2764889632750586;-0.0542;0.1513;0.0663;
2764889642862045;-0.0595;0.1300;0.0652;
2764889652969336;-0.0712;0.0980;0.0567;
2764889663076628;-0.1234;0.1182;0.0567;
2764889673190170;-0.1575;-0.0298;0.0567;
2764889683297461;-0.1096;0.0117;0.0365;
2764889693404753;-0.1192;0.1682;0.0471;
2764889703500378;-0.1799;0.2012;0.0748;
2764889713607670;-0.1586;0.0224;0.0716;
2764889723714961;-0.1256;-0.0714;0.0535;
2764889733819649;-0.1245;0.1076;0.0407;
2764889743926940;-0.1895;0.1799;0.0290;
2764889754034232;-0.0979;0.1449;0.0610;
2764889764167878;-0.0925;0.1055;0.0397;
2764889774275170;-0.1181;0.0479;0.0152;
2764889784382461;-0.1394;0.1140;0.0375;
2764889794463711;-0.1320;0.0511;0.0525;
2764889804570951;-0.1277;-0.0234;0.0418;
2764889814678295;-0.1352;0.0756;0.0322;
2764889824783711;-0.1746;0.0490;0.0216;
2764889834891003;-0.1277;-0.0522;0.0248;
2764889844998295;-0.0819;-0.0437;0.0546;
2764889855103920;-0.1213;-0.0735;0.0642;
2764889865211211;-0.1192;-0.0724;0.0194;
2764889875318503;-0.1288;0.0032;0.0077;
2764889885473399;-0.1469;-0.0746;0.0173;
2764889895580690;-0.1053;-0.0107;-0.0221;
2764889905687982;-0.1309;0.1459;-0.0221;
2764889915750378;-0.0989;0.0501;-0.0253;
2764889925857670;-0.0904;-0.0959;-0.0072;
2764889935964961;-0.1053;-0.1214;-0.0509;
2764889946074336;-0.1021;-0.1055;-0.0668;
2764889956181628;-0.0702;-0.0895;-0.0690;
2764889966288920;-0.0680;-0.1023;-0.0754;
2764889976398190;-0.0595;-0.0554;-0.0786;
2764889986505482;-0.0787;0.0873;-0.0605;
2764889996612774;-0.0627;0.1353;-0.0818;
2764890006736524;-0.0499;0.0905;-0.0743;
2764890016843815;-0.0244;0.0170;-0.0658;
2764890026951107;-0.0212;-0.0224;-0.0839;
2764890037042357;-0.0648;-0.0543;-0.0903;
2764890047149649;-0.1032;-0.1182;-0.1244;
2764890057256940;-0.0862;-0.1118;-0.1201;
2764890067376524;-0.0798;0.0107;-0.1574;
2764890077483815;-0.0723;-0.0011;-0.1574;
2764890087591107;-0.0446;-0.0256;-0.1361;
2764890097687461;-0.0712;-0.1917;-0.1137;
2764890107794753;-0.0276;-0.1172;-0.1276;
2764890117902045;-0.0734;0.3855;-0.1861;
2764890128012357;-0.0361;0.4909;-0.2256;
2764890138119649;0.0694;0.1607;-0.1702;
2764890148226940;0.1736;-0.0490;-0.1414;
2764890158333607;0.2375;0.1363;-0.1627;
2764890168440899;0.0364;0.2087;-0.1553;
2764890178548190;0.0459;0.0352;-0.0828;
2764890188670482;0.1928;-0.0277;-0.0700;
2764890198777774;0.1768;0.0149;-0.0903;
2764890208885065;0.0640;-0.0575;-0.0828;
2764890218996003;0.1150;-0.0085;-0.0317;
2764890229103295;0.1555;0.1246;-0.0349;
2764890239210586;0.1395;0.2332;-0.0040;
2764890249293711;0.0832;0.3013;0.0248;
2764890259401003;0.0033;-0.2919;-0.0253;
2764890269508295;0.1097;-0.3398;-0.0530;
2764890279645326;0.0065;0.0458;-0.0402;
2764890289752617;-0.0766;0.0224;-0.0402;
2764890299859909;0.0438;-0.0373;-0.0232;
2764890309942982;0.0076;-0.0128;-0.0402;
2764890320050274;-0.0020;0.1204;-0.0328;
2764890330157565;-0.0499;0.1055;0.0162;
2764890340261628;0.0023;-0.0373;0.0024;
2764890350368920;0.0214;-0.0447;-0.0008;
2764890360476211;0.0076;0.0234;0.0130;
2764890370607565;0.0012;-0.0628;0.0194;
2764890380714857;0.0321;-0.0863;0.0194;
2764890390822149;0.0140;-0.0043;0.0194;
2764890400942982;0.0097;-0.0490;-0.0146;
2764890411050274;0.0161;-0.0053;-0.0168;
2764890421157565;0.0033;0.0075;-0.0168;
2764890431243503;-0.0095;-0.0639;-0.0232;
2764890441350795;-0.0116;0.0032;-0.0317;
2764890451458086;-0.0372;0.0916;-0.0338;
2764890461564753;-0.0137;-0.0266;-0.0274;
2764890471672045;0.0097;-0.0735;-0.0200;
2764890481779336;-0.0190;-0.0288;-0.0626;
2764890491897253;0.0023;-0.0597;-0.0519;
2764890502004545;0.0214;-0.0117;-0.0391;
2764890512111836;0.0204;-0.0533;-0.0477;
2764890522218399;0.0150;-0.1502;-0.0583;
2764890532325690;0.0023;-0.0778;-0.0562;
2764890542432982;0.0236;-0.0266;-0.0434;
2764890552529336;0.0268;-0.1225;-0.0434;
2764890562636628;0.0182;-0.0810;-0.0679;
2764890572743920;-0.0020;0.0703;-0.0850;
2764890582852461;0.0129;0.0415;-0.0615;
2764890592959753;0.0321;-0.0724;-0.0455;
2764890603067045;0.0193;-0.0969;-0.0541;
2764890613180274;0.0065;-0.0586;-0.0679;
2764890623287565;0.0364;-0.0234;-0.0818;
2764890633394857;0.0630;-0.0277;-0.0647;
2764890643500482;0.0662;-0.0394;-0.0551;
2764890653607774;0.0736;-0.0000;-0.0328;
2764890663715065;0.0459;0.0128;-0.0221;
2764890673826732;0.0481;-0.0320;-0.0413;
2764890683934024;0.0598;-0.0075;-0.0232;
2764890694041315;0.0438;0.0256;-0.0221;
2764890704140065;0.0364;0.0256;-0.0115;
2764890714247357;0.0129;-0.0405;-0.0200;
2764890724354649;0.0097;-0.0863;-0.0040;
2764890734457461;-0.0116;-0.0980;0.0045;
2764890744564753;-0.0063;0.0149;-0.0285;
2764890754672045;0.0012;0.0373;-0.0232;
2764890764795065;0.0257;0.0107;-0.0296;
2764890774902357;0.0385;0.0490;-0.0338;
2764890785009649;0.0385;0.0490;-0.0146;
2764890795115378;0.0385;-0.0245;-0.0040;
2764890805222670;0.0395;-0.0234;-0.0253;
2764890815329961;0.0246;0.0937;-0.0125;
2764890825439545;0.0406;0.1543;-0.0125;
2764890835546836;0.0704;0.0916;0.0003;
2764890845654128;0.0491;0.0117;-0.0051;
2764890855748920;0.0055;0.0490;0.0067;
2764890865856211;-0.0041;0.1055;0.0077;
2764890875963503;0.0129;0.0682;0.0141;
2764890886087982;-0.0105;0.0138;0.0088;
2764890896195274;-0.0158;-0.0831;0.0130;
2764890906302565;-0.0105;-0.0117;0.0130;
2764890916389336;-0.0222;-0.0522;0.0248;
2764890926496628;0.0119;-0.1321;0.0290;
2764890936603920;0.0044;-0.0383;0.0024;
2764890946718607;0.0055;0.0692;-0.0157;
2764890956825899;-0.0052;-0.0107;0.0173;
2764890966933190;0.0310;-0.0873;0.0152;
2764890977047982;0.0033;-0.0330;-0.0051;
2764890987155274;0.0012;0.1044;-0.0487;
2764890997262565;0.0236;0.1236;-0.0328;
2764891007369753;0.0150;-0.0650;0.0109;
2764891017477045;0.0055;-0.1427;-0.0029;
2764891027584336;-0.0041;-0.0724;-0.0317;
2764891037684336;0.0172;-0.0660;-0.0242;
2764891047791628;0.0225;-0.1023;0.0024;
2764891057898920;0.0332;0.0895;-0.0296;
2764891068002461;0.0044;0.3205;-0.0328;
2764891078109753;0.0555;0.2172;-0.0178;
2764891088217045;0.1193;-0.0213;0.0152;
2764891098338920;0.1097;-0.0735;0.0322;
2764891108446211;0.0129;0.0202;0.0120;
2764891118553503;-0.0180;-0.0320;0.0237;
2764891128639232;-0.0009;-0.0873;0.0184;
2764891138746524;-0.0222;-0.0586;0.0003;
2764891148853815;-0.0467;-0.0597;-0.0029;
2764891158964232;-0.0435;-0.0650;-0.0157;
2764891169071524;-0.0478;0.0021;-0.0455;
2764891179178815;-0.0318;0.1300;-0.0115;
2764891189275899;-0.0105;0.0948;0.0067;
2764891199383190;0.0481;0.0565;0.0056;
2764891209490482;-0.0308;-0.1438;-0.0029;
2764891219634336;-0.0254;-0.2312;-0.0455;
2764891229741628;-0.0020;0.0053;-0.0455;
2764891239848920;0.0097;0.0415;-0.0285;
2764891249937045;0.0385;0.0202;-0.0210;
2764891260044336;0.0364;0.0895;-0.0136;
2764891270151628;0.0055;0.0245;0.0067;
2764891280256159;-0.0009;-0.0671;0.0130;
2764891290363451;-0.0052;-0.0991;0.0269;
2764891300470742;-0.0084;-0.0362;-0.0029;
2764891310582097;0.0161;0.0671;-0.0008;
2764891320689388;0.0278;0.0607;-0.0061;
2764891330796680;0.0523;-0.0352;0.0088;
2764891340911524;0.0289;-0.0032;0.0077;
2764891351018815;0.0172;0.0330;-0.0328;
2764891361126107;0.0257;-0.0032;-0.0200;
2764891371226628;0.0385;0.0043;-0.0168;
2764891381333920;0.0395;0.0511;-0.0125;
2764891391441211;0.0204;0.0671;-0.0061;
2764891401556263;0.0193;0.0170;-0.0051;
2764891411663555;0.0140;-0.0597;0.0035;
2764891421770847;0.0044;-0.0160;0.0333;
2764891431876211;-0.0158;-0.0799;0.0397;
2764891441983503;-0.0009;-0.1715;0.0099;
2764891452090795;0.0172;-0.0245;0.0173;
2764891462214857;-0.0308;0.0224;0.0003;
2764891472322149;0.0470;-0.0128;-0.0040;
2764891482429440;0.0364;0.0330;-0.0083;
2764891492505899;0.0193;0.0128;-0.0317;
2764891502613190;0.0353;-0.0341;0.0045;
2764891512720482;0.0555;0.0107;-0.0008;
2764891522844961;0.0364;0.0138;-0.0061;
2764891532952253;0.0491;-0.0309;-0.0210;
2764891543059545;0.0364;-0.0479;0.0077;
2764891553137617;0.0204;-0.0170;-0.0019;
2764891563244909;0.0055;-0.0170;0.0205;
2764891573352149;0.0129;-0.0138;-0.0019;
2764891583502461;0.0023;0.0543;-0.0019;
2764891593609753;0.0289;0.0916;0.0269;
2764891603717045;0.0427;-0.0085;0.0258;
2764891613812045;0.0193;-0.1001;0.0407;
2764891623919336;0.0140;-0.0937;0.0024;
2764891634026628;0.0129;-0.0021;-0.0189;
2764891644160274;0.0374;0.0021;-0.0029;
2764891654267565;0.0790;-0.0149;-0.0019;
2764891664374857;0.0779;0.0565;-0.0210;
2764891674455170;0.0758;0.0660;-0.0381;
2764891684562461;0.1225;0.0202;-0.0051;
2764891694669753;0.1566;0.0032;0.0258;
2764891704774649;0.1129;0.0277;0.0099;
2764891714881940;0.0609;-0.0842;0.0354;
2764891724989232;0.0545;-0.1939;0.0013;
2764891735096680;0.0598;0.0138;0.0067;
2764891745203972;0.0268;0.1257;0.0003;
2764891755311263;0.0822;-0.0501;0.0109;
2764891765439961;0.1236;-0.0746;0.0375;
2764891775547253;0.0332;-0.1640;0.0248;
2764891785654545;0.0459;-0.2631;0.0471;
2764891795761211;0.0502;0.0820;-0.0125;
2764891805868503;-0.0403;0.1481;-0.0157;
2764891815975795;0.0449;-0.0884;0.0162;
2764891826079024;0.1332;0.0011;-0.0104;
2764891836186315;0.0044;0.0597;0.0194;
2764891846293607;0.0268;0.0160;0.0173;
2764891856399128;0.0395;-0.0437;0.0045;
2764891866506420;0.0459;0.1097;0.0109;
2764891876613711;0.0129;0.3280;-0.0146;
2764891886713503;-0.0009;0.0181;-0.0051;
2764891896820795;0.0268;-0.3441;0.0940;
2764891906928086;0.0864;-0.0905;0.0610;
2764891917047045;-0.0553;0.2055;-0.0210;
2764891927154336;-0.0766;0.3194;0.0439;
2764891937261628;0.1013;0.2523;0.0866;
2764891947353763;0.0832;-0.1534;0.0844;
2764891957461055;0.0353;-0.0362;0.0269;
2764891967568347;-0.1298;0.1438;0.0354;
2764891977680430;-0.1650;-0.1289;0.0620;
2764891987787722;0.0076;-0.1875;0.0631;
2764891997895013;-0.1202;-0.0842;0.0312;
2764892008027461;-0.1373;0.0895;-0.0051;
2764892018134753;-0.1394;0.1449;0.0045;
2764892028242045;-0.0478;-0.0937;0.0109;
2764892038316940;0.0332;0.0181;0.0045;
2764892048424232;-0.0542;0.4313;0.0003;
2764892058531524;-0.1842;0.0298;0.0450;
2764892068650742;-0.0499;-0.4101;-0.0029;
2764892078758034;0.0726;0.0735;-0.0146;
2764892088865326;-0.1107;0.0639;0.0088;
2764892098980065;-0.0755;-0.0479;0.0099;
2764892109087357;0.0417;0.1395;-0.0093;
2764892119194649;-0.0414;0.1129;0.0056;
2764892129277461;-0.0382;0.0234;0.0237;
2764892139384753;0.0182;-0.0138;0.0130;
2764892149492045;-0.0201;-0.0469;0.0269;
2764892159632045;-0.0158;-0.1140;-0.0008;
2764892169739336;0.0161;-0.0916;0.0099;
2764892179846628;-0.0531;-0.1001;-0.0040;
2764892189928190;0.0289;-0.1811;0.0109;
2764892200035482;0.0140;-0.0309;-0.0551;
2764892210142774;-0.0244;0.2758;-0.0583;
2764892220269649;0.0161;0.3130;-0.0157;
2764892230376940;0.0545;-0.1246;0.0258;
2764892240484232;0.2099;-0.3047;-0.0083;
2764892250578190;0.0832;-0.0831;-0.0530;
2764892260685482;-0.0808;-0.0991;0.0013;
2764892270792774;0.0939;-0.0490;-0.0274;
2764892280914440;0.1172;0.0799;-0.0360;
2764892291021732;0.0523;0.0053;-0.0477;
2764892301129024;0.0992;0.0021;-0.0232;
2764892311226107;0.0672;0.2001;-0.0125;
2764892321333399;0.0342;0.1332;-0.0125;
2764892331440690;0.1470;0.0330;-0.0051;
2764892341546524;0.1640;0.1660;0.0322;
2764892351653815;0.0140;-0.0415;0.0088;
2764892361761107;0.0214;-0.3036;-0.0157;
2764892371874753;0.0342;-0.1843;0.0130;
2764892381982045;0.0502;0.0405;-0.0200;
2764892392089336;0.0119;0.2672;0.0162;
2764892402195586;0.0065;0.0288;-0.0157;
2764892412302878;0.1491;0.0085;0.0013;
2764892422410170;-0.0158;0.1513;-0.0360;
2764892432516211;-0.0403;0.2193;-0.0253;
2764892442623503;0.0832;0.1980;-0.0093;
2764892452730795;0.0481;-0.0565;0.0024;
2764892462848815;0.0193;-0.1300;-0.0423;
2764892472956107;-0.0201;0.1491;-0.0594;
2764892483063399;-0.0521;0.2332;-0.0487;
2764892493140586;0.0417;0.0415;0.0130;
2764892503247878;0.0044;-0.1310;-0.0136;
2764892513355170;0.0161;-0.1896;0.0003;
2764892523493503;0.0310;0.0479;0.0152;
2764892533600795;-0.0105;0.2076;0.0258;
2764892543708086;0.0385;-0.0298;0.0375;
2764892553811003;0.1087;-0.0298;0.0237;
2764892563918399;-0.0063;0.0064;0.0258;
2764892574025795;-0.0254;-0.3238;0.0578;
2764892584135170;0.0289;-0.2503;0.0003;
2764892594242565;0.0278;0.0852;-0.0200;
2764892604349961;-0.0031;0.0597;-0.0445;
2764892614445482;0.0704;-0.0810;-0.0104;
2764892624552878;0.0598;-0.1108;-0.0093;
2764892634660274;0.0459;0.0383;-0.0423;
2764892644770482;0.0406;0.0469;-0.0274;
2764892654877878;0.1024;0.0937;0.0152;
2764892664985274;0.1417;0.2449;0.0759;
2764892675088711;0.0161;-0.1981;0.0652;
2764892685196107;0.0406;-0.3324;0.0716;
2764892695303503;0.0012;-0.0756;0.0684;
2764892705409545;0.0300;0.1236;0.0344;
2764892715516940;0.0438;0.0437;0.0557;
2764892725624336;0.0672;0.0064;0.0823;
2764892735737670;0.0470;-0.0352;0.0897;
2764892745845065;0.0108;-0.0511;0.0482;
2764892755952461;0.0033;0.0320;0.0354;
2764892766044753;0.0204;-0.0522;0.0386;
2764892776152149;0.0193;-0.1225;0.0141;
2764892786259545;-0.0095;-0.0650;0.0152;
2764892796393711;-0.0190;0.0533;0.0120;
2764892806501107;0.0108;0.0852;0.0226;
2764892816608503;0.0193;0.0447;0.0216;
2764892826706680;0.0278;0.1937;0.0354;
2764892836814076;-0.0222;0.0969;0.0514;
2764892846921472;-0.0041;-0.1140;0.0493;
2764892857026003;-0.0031;-0.0660;0.0546;
2764892867133399;-0.0126;-0.0224;0.0759;
2764892877240795;-0.0318;-0.0202;0.0514;
2764892887345586;-0.0414;0.0138;0.0184;
2764892897452982;-0.0766;0.0469;0.0301;
2764892907560378;-0.0893;0.0778;0.0280;
2764892917663607;-0.0851;0.0788;0.0099;
2764892927771003;-0.0425;0.1001;0.0067;
2764892937878399;-0.0702;0.0565;0.0226;
2764892947989753;-0.1000;-0.0533;0.0290;
2764892958097149;-0.1000;-0.0927;0.0035;
2764892968204545;-0.0840;0.0149;-0.0562;
2764892978325274;-0.1000;-0.0128;0.0024;
2764892988432670;-0.0467;0.0160;0.0248;
2764892998540065;-0.0180;0.0501;0.0152;
2764893008644649;-0.0286;-0.0458;0.0216;
2764893018752045;-0.0180;-0.0011;-0.0008;
2764893028859440;-0.0393;0.1321;0.0056;
2764893038956888;-0.0137;0.0607;0.0216;
2764893049064284;0.0150;0.0085;0.0237;
2764893059171680;-0.0318;0.0032;0.0173;
2764893069261836;-0.0361;0.0362;0.0035;
2764893079369232;-0.0478;0.0905;0.0045;
2764893089476628;-0.0553;-0.0213;0.0130;
2764893099624232;-0.0372;-0.0501;0.0344;
2764893109731628;-0.0595;-0.0011;0.0354;
2764893119839024;-0.0350;-0.0330;0.0194;
2764893129919024;-0.0361;0.0288;0.0248;
2764893140026420;-0.0393;0.0437;0.0280;
2764893150133815;-0.0414;0.0341;0.0237;
2764893160261315;-0.0414;0.1332;0.0429;
2764893170368711;-0.0585;0.0192;0.0482;
2764893180476107;-0.0382;-0.0628;0.0418;
2764893190584232;-0.0553;0.0245;0.0365;
2764893200691628;-0.0840;0.0394;0.0184;
2764893210799024;-0.0798;-0.0501;0.0407;
2764893220928503;-0.0862;-0.0085;0.0258;
2764893231035899;-0.1639;-0.0597;0.0322;
2764893241143295;-0.1554;-0.0085;0.0237;
2764893251223920;-0.1437;0.0597;0.0216;
2764893261331315;-0.1607;-0.0075;0.0130;
2764893271438711;-0.0851;0.0256;-0.0115;
2764893281547670;-0.0989;-0.0245;0.0109;
2764893291655065;-0.0627;-0.0309;0.0130;
2764893301762461;-0.0585;0.0575;-0.0061;
2764893311877826;-0.0585;0.0053;-0.0125;
2764893321985222;-0.0308;0.0341;0.0013;
2764893332092617;-0.0318;0.0820;0.0130;
2764893342185795;-0.0126;-0.0458;-0.0200;
2764893352293190;0.0353;0.0426;-0.0125;
2764893362400586;-0.0340;0.1129;-0.0029;
2764893372502045;-0.0617;-0.0852;0.0099;
2764893382609440;-0.0297;-0.1513;-0.0189;
2764893392716836;-0.0393;-0.0831;-0.0232;
2764893402825378;-0.0499;-0.0788;-0.0232;
2764893412932774;-0.0126;-0.0277;-0.0008;
2764893423040170;-0.0276;-0.0011;-0.0306;
2764893433156263;-0.0254;0.0032;-0.0093;
2764893443263659;-0.0190;0.0490;-0.0647;
2764893453371055;-0.0180;0.0117;-0.0573;
2764893463490586;-0.0126;-0.0320;-0.0370;
2764893473597982;0.0044;-0.0352;-0.0509;
2764893483705378;-0.0126;-0.0107;-0.0626;
2764893493812670;-0.0105;0.0277;-0.0573;
2764893503920065;-0.0180;-0.0735;-0.0796;
2764893514027461;-0.0073;-0.1300;-0.0583;
2764893524179128;-0.0105;-0.0639;-0.0839;
2764893534286524;0.0140;0.0181;-0.0775;
2764893544393920;0.0300;0.0458;-0.0786;
2764893554436003;0.0672;0.0565;-0.0711;
2764893564543399;0.0779;0.0320;-0.0391;
2764893574650742;0.0619;-0.0554;-0.0423;
2764893584753190;0.1003;-0.0341;-0.0551;
2764893594860586;0.0587;-0.0320;-0.0690;
2764893604967930;0.0683;-0.0352;-0.0562;
2764893615078711;0.1150;-0.0117;-0.0306;
2764893625186107;0.0864;-0.0554;-0.0466;
2764893635293451;0.1024;-0.0053;-0.0296;
2764893645427149;0.0747;-0.0117;-0.0328;
2764893655534545;0.0566;-0.0298;0.0077;
2764893665641888;0.0640;-0.0597;-0.0040;
2764893675725378;0.0630;-0.0202;-0.0178;
2764893685832774;0.0417;0.0703;-0.0306;
2764893695940117;0.0204;-0.0085;-0.0104;
2764893706044232;0.0289;-0.0831;0.0077;
2764893716151628;0.0182;-0.0000;0.0162;
2764893726258972;-0.0382;-0.0032;-0.0115;
2764893736371107;-0.0031;-0.0266;-0.0125;
2764893746478503;0.0033;-0.0011;-0.0008;
2764893756585847;-0.0063;-0.0075;0.0109;
2764893766697045;-0.0158;-0.0341;-0.0083;
2764893776804440;-0.0158;0.0288;-0.0157;
2764893786911784;-0.0116;0.0501;-0.0008;
2764893797024753;-0.0403;-0.0724;0.0120;
2764893807132149;-0.0201;-0.1087;0.0077;
2764893817239492;-0.0190;-0.0426;0.0003;
2764893827350170;-0.0063;-0.0383;-0.0349;
2764893837457565;0.0044;-0.0959;-0.0296;
2764893847564909;0.0321;-0.0352;-0.0221;
2764893857665586;0.0236;-0.0341;0.0013;
2764893867772982;0.0406;-0.0927;-0.0264;
2764893877880326;0.0736;-0.0362;-0.0466;
2764893887980274;0.0587;0.0469;-0.0210;
2764893898087670;0.0651;0.0053;0.0067;
2764893908195013;0.0768;-0.0543;-0.0253;
2764893918303711;0.0545;-0.0341;-0.0317;
2764893928411107;0.0161;-0.0490;-0.0051;
2764893938518451;0.0257;-0.1108;-0.0072;
2764893948626367;0.0374;-0.1332;0.0088;
2764893958733763;0.0417;-0.0394;-0.0370;
2764893968841107;0.0385;0.0426;-0.0466;
2764893978944961;0.0278;-0.0522;0.0003;
2764893989052357;0.0470;-0.1225;0.0280;
2764893999159701;0.0523;-0.0842;-0.0093;
2764894009282774;0.0577;-0.0320;-0.0178;
2764894019390170;0.0502;-0.0138;-0.0168;
2764894029497513;0.0768;-0.0660;-0.0178;
2764894039595899;0.0758;-0.0533;-0.0040;
2764894049703295;0.0534;0.0320;-0.0391;
2764894059810638;0.0513;0.1182;-0.0434;
2764894069908190;0.0470;0.1055;-0.0232;
2764894080015586;0.0140;-0.1033;0.0067;
2764894090122930;0.0566;-0.1939;0.0407;
2764894100252774;0.0790;0.0043;0.0013;
2764894110360170;0.0385;0.0107;0.0280;
2764894120467513;0.0406;-0.1768;0.0503;
2764894130576524;0.0939;-0.0160;0.0759;
2764894140683920;0.0204;0.1884;0.0610;
2764894150791263;0.0289;0.0586;0.0834;
2764894160903607;0.0321;-0.0309;0.0748;
2764894171011003;0.0097;0.1097;0.0727;
2764894181118347;0.0076;0.2971;0.0674;
2764894191203347;0.0033;0.1172;0.0674;
2764894201310742;-0.0457;-0.0969;0.0919;
2764894211418086;-0.0617;-0.1140;0.1068;
2764894221534545;-0.0542;-0.2663;0.0866;
2764894231641940;-0.0126;-0.0831;0.0461;
2764894241749284;-0.0478;0.2960;0.0226;
2764894251869857;-0.1490;0.0852;0.0471;
2764894261977253;0.0044;-0.1097;0.0897;
2764894272084597;-0.0553;0.1438;0.0823;
2764894282180170;-0.1831;0.1660;0.0429;
2764894292287565;-0.0233;-0.0703;0.0258;
2764894302394909;0.0172;0.0820;0.0056;
2764894312488607;-0.0830;0.2640;0.0099;
2764894322596003;-0.0755;-0.0011;0.0237;
2764894332703347;-0.0286;-0.1640;-0.0093;
2764894342823503;-0.0308;-0.0320;-0.0051;
2764894352930899;-0.0446;0.0714;-0.0157;
2764894363038242;-0.0244;-0.0309;0.0280;
2764894373140795;0.0321;0.1459;0.0397;
2764894383248190;-0.0254;0.1332;0.0439;
2764894393355534;-0.0041;-0.1385;0.0344;
2764894403462878;0.0715;0.0085;0.0365;
2764894413570274;0.0321;0.1268;0.0429;
2764894423677617;0.0087;-0.0426;0.0290;
2764894433787878;0.0172;-0.1949;0.0344;
2764894443895274;0.0044;-0.0575;0.0003;
2764894454002617;-0.0467;-0.0810;-0.0232;
2764894464118190;-0.0169;-0.1374;0.0024;
2764894474225586;0.0150;0.0128;-0.0051;
2764894484332930;-0.0372;0.0799;0.0056;
2764894494444076;-0.0393;-0.0181;-0.0083;
2764894504551420;-0.0318;-0.1033;0.0130;
2764894514658815;-0.0286;0.0937;0.0237;
2764894524777982;-0.0361;0.2087;0.0088;
2764894534885378;0.0268;0.1310;0.0216;
2764894544992722;-0.0009;0.0660;0.0407;
2764894555070690;-0.0169;0.0181;0.0386;
2764894565178086;-0.0169;0.0085;0.0546;
2764894575285482;-0.0308;-0.0660;0.0461;
2764894585396524;0.0033;-0.0810;0.0493;
2764894595503920;0.0108;0.0980;0.0578;
2764894605611263;-0.0244;0.1236;0.0972;
2764894615713399;-0.0286;-0.0415;0.0652;
2764894625820795;-0.0233;0.0788;0.0386;
2764894635928190;-0.0840;0.1948;0.0535;
2764894646058815;-0.0265;-0.0160;0.0706;
2764894656166211;-0.0180;-0.0298;0.0823;
2764894666273607;-0.0755;-0.0309;0.0429;
2764894676358086;-0.0585;-0.0852;0.0365;
2764894686465482;-0.0883;-0.1214;0.0599;
2764894696572878;-0.0755;-0.0916;0.0365;
2764894706677878;-0.0872;0.0021;0.0312;
2764894716785274;-0.1245;-0.0107;0.0099;
2764894726892670;-0.0691;0.0213;0.0695;
2764894737007878;-0.0787;0.1778;0.0642;
2764894747115274;-0.0585;0.0991;0.0301;
2764894757222670;-0.0276;0.0224;0.0258;
2764894767338607;-0.0478;0.1948;0.0525;
2764894777446003;-0.0723;-0.0650;0.0951;
2764894787553399;-0.0244;-0.2365;0.0716;
2764894797646680;-0.0158;-0.0352;0.0407;
2764894807754076;-0.1245;0.0352;0.0695;
2764894817861472;-0.1021;0.0373;0.0589;
2764894827970795;-0.0478;0.0842;0.0557;
2764894838078190;-0.0627;0.0810;0.0802;
2764894848185586;-0.0883;-0.0107;0.0961;
2764894858293295;-0.1032;-0.1172;0.0770;
2764894868400690;-0.1000;-0.0107;0.0269;
2764894878508086;-0.1234;0.0767;0.0461;
2764894888615482;-0.1597;-0.0075;0.0610;
2764894898722878;-0.1426;-0.0714;0.0312;
2764894908830274;-0.1756;0.0128;0.0056;
2764894918953190;-0.2246;-0.0021;-0.0189;
2764894929060586;-0.1873;-0.0575;-0.0051;
2764894939167982;-0.1671;0.0415;0.0003;
2764894949246211;-0.1852;0.0224;0.0088;
2764894959353607;-0.1170;0.0501;-0.0146;
2764894969461003;-0.1085;0.1001;-0.0274;
2764894979597409;-0.0840;0.0085;-0.0253;
2764894989704805;-0.0936;0.0032;-0.0146;
2764894999812201;-0.1000;0.0905;-0.0253;
2764895009921420;-0.0744;0.0905;-0.0413;
2764895020028815;-0.0329;0.0373;-0.0125;
2764895030136211;-0.0414;-0.0075;-0.0317;
2764895040245586;-0.0808;-0.0149;-0.0466;
2764895050352982;-0.0755;0.0117;-0.0562;
2764895060460378;-0.0904;-0.0469;-0.0541;
2764895070570482;-0.1277;-0.0948;-0.0423;
2764895080677878;-0.1128;0.0117;-0.0636;
2764895090785274;-0.1064;0.0959;-0.0626;
2764895100872253;-0.0531;0.0660;-0.0743;
2764895110979649;-0.0382;-0.0064;-0.0668;
2764895121087045;-0.0542;-0.0735;-0.0562;
2764895131197461;-0.0840;-0.0501;-0.0850;
2764895141304857;-0.0957;0.0096;-0.0956;
2764895151412253;-0.0734;0.0085;-0.1095;
2764895161514232;-0.0595;0.0362;-0.1137;
2764895171621628;-0.0499;0.0618;-0.1009;
2764895181729024;-0.0766;0.0213;-0.0967;
2764895191846628;-0.0830;0.0586;-0.1020;
2764895201954024;-0.0680;0.0884;-0.1020;
2764895212061420;-0.0489;0.0682;-0.0871;
2764895222172357;-0.0467;-0.0128;-0.0818;
2764895232279753;-0.1000;-0.0714;-0.0924;
2764895242387149;-0.0936;0.0586;-0.1180;
2764895252472513;-0.0574;0.0799;-0.1116;
2764895262579857;-0.0361;-0.0778;-0.0807;
2764895272687253;-0.0361;-0.0394;-0.0743;
2764895282794649;-0.0350;0.0746;-0.0924;
2764895292917982;0.0417;-0.0554;-0.1009;
2764895303025378;0.0896;-0.2439;-0.0583;
2764895313132774;-0.0126;-0.1960;-0.0519;
2764895323239440;-0.0936;0.0597;-0.1212;
2764895333346836;-0.0265;0.1948;-0.1201;
2764895343454232;0.0992;0.0714;-0.0839;
2764895353557670;0.0406;-0.0245;-0.0839;
2764895363665065;-0.0126;0.0149;-0.0924;
2764895373772461;0.0300;0.0352;-0.0690;
2764895383876524;0.0992;-0.0181;-0.0796;
2764895393983920;0.1353;-0.1001;-0.0690;
2764895404091315;-0.0009;-0.0117;-0.0722;
2764895414216315;-0.0052;0.1140;-0.0615;
2764895424323711;0.0385;0.0053;-0.0668;
2764895434431107;0.0374;-0.0511;-0.0732;
2764895444531420;-0.0073;0.1140;-0.0796;
2764895454638815;0.0246;0.2087;-0.0679;
2764895464746211;0.0917;0.1767;-0.0168;
2764895474867774;0.1577;-0.0224;-0.0328;
2764895484975170;0.1470;-0.1129;-0.0434;
2764895495082565;0.0087;0.0192;-0.0647;
2764895505185847;-0.0265;-0.1268;-0.0466;
2764895515293242;-0.0190;-0.1310;-0.0722;
2764895525400638;-0.0702;0.0927;-0.1244;
2764895535490430;-0.0446;0.1703;-0.0850;
2764895545578399;0.1278;0.1650;-0.0828;
2764895555685742;0.1161;-0.0192;-0.0700;
2764895565793138;0.0822;-0.1310;-0.0732;
2764895575900534;0.0907;0.0735;-0.1169;
2764895586038295;0.0651;0.0735;-0.1148;
2764895596145690;0.1278;-0.1033;-0.0828;
2764895606253086;0.1332;-0.1246;-0.0860;
2764895616362357;0.0513;0.0746;-0.1212;
2764895626469753;0.0459;0.1543;-0.0988;
2764895636577149;0.0768;-0.0820;-0.0477;
2764895646684857;0.1161;-0.0991;-0.0690;
2764895656792253;0.0768;0.0288;-0.0945;
2764895666899649;0.0609;0.0458;-0.0732;
2764895676995274;0.0768;-0.1257;-0.0945;
2764895687102670;0.1065;-0.1577;-0.0892;
2764895697210065;0.0928;-0.0682;-0.0850;
2764895707322670;0.0811;-0.0043;-0.0647;
2764895717430065;0.1193;0.0522;-0.1041;
2764895727537461;0.1800;0.0405;-0.0988;
2764895737633711;0.1523;-0.1214;-0.0530;
2764895747741107;0.1630;-0.1683;-0.0253;
2764895757848503;0.1811;0.0522;-0.0317;
2764895767965586;0.1065;0.0905;-0.0541;
2764895778072982;0.0651;-0.0415;-0.0583;
2764895788180378;0.1321;-0.0043;-0.0317;
2764895798282149;0.0822;-0.1342;-0.0029;
2764895808389545;0.0289;-0.2887;0.0003;
2764895818496940;0.0704;-0.1236;0.0237;
2764895828599701;0.0715;0.0277;0.0003;
2764895838707097;0.0257;0.0085;-0.0157;
2764895848814492;0.0406;-0.1087;0.0216;
2764895858928815;0.0491;-0.0021;0.0482;
2764895869036211;0.0225;0.1385;-0.0519;
2764895879143607;0.0449;0.2257;-0.0562;
2764895889241732;0.0917;0.2822;-0.0423;
2764895899349128;0.1310;0.3067;0.0067;
2764895909456524;0.1065;0.2598;-0.0008;
2764895919582357;0.0800;-0.0011;0.0248;
2764895929689753;0.0726;-0.2780;0.0897;
2764895939797149;0.0033;-0.2045;0.0759;
2764895949883190;0.0502;0.1618;0.0226;
2764895959990586;0.0172;0.2736;0.0418;
2764895970097982;0.0587;0.2225;0.0791;
2764895980224909;0.0960;0.1406;0.1004;
2764895990332305;0.0044;-0.0383;0.0897;
2764896000439701;0.0758;-0.0405;0.1387;
2764896010543920;0.0651;0.2118;0.0589;
2764896020651315;-0.0158;0.1863;0.0301;
2764896030758711;0.0268;0.0330;0.0642;
2764896040859961;-0.0297;-0.2557;0.0695;
2764896050967357;-0.0744;-0.2770;0.0205;
2764896061074753;-0.0595;0.0032;-0.0083;
2764896071238086;-0.0968;0.0799;0.0280;
2764896081345482;-0.0872;0.0692;0.0301;
2764896091452878;0.0108;0.2033;0.0237;
2764896101509336;-0.0712;0.0234;0.0503;
2764896111616732;-0.0585;-0.1715;0.0620;
2764896121724128;0.0470;0.0415;0.0418;
2764896131833503;0.0044;-0.0160;0.0248;
2764896141940899;0.0193;-0.0810;0.0514;
2764896152048295;0.0939;0.0064;0.1036;
2764896162148347;0.0268;-0.1651;0.0716;
2764896172255742;0.0012;-0.3430;0.0738;
2764896182363138;0.0055;-0.2599;0.0450;
2764896192471003;0.0140;-0.2173;0.0738;
2764896202578399;0.0214;0.0799;0.0226;
2764896212685795;-0.1043;0.2481;0.0035;
2764896222799857;-0.1245;-0.0064;0.0162;
2764896232907253;0.0044;-0.0767;0.0834;
2764896243014649;0.0119;-0.0842;0.0290;
2764896253092045;0.0257;-0.0735;0.0493;
2764896263199388;0.0193;-0.1406;0.0184;
2764896273306784;0.0566;-0.1822;0.0109;
2764896283447774;0.0491;-0.0586;0.0290;
2764896293555170;0.0161;0.0628;0.0280;
2764896303662565;-0.0031;-0.2354;-0.0200;
2764896313760065;0.0278;-0.0533;-0.0178;
2764896323867461;-0.1405;0.4888;-0.0232;
2764896333974857;-0.1778;0.2971;0.0365;
2764896344095065;0.0917;-0.0458;0.0120;
2764896354202461;0.1013;0.1204;-0.0072;
2764896364309857;-0.0009;0.0895;-0.0125;
2764896374409753;0.0449;-0.1023;0.0205;
2764896384517149;0.0640;-0.0905;0.0269;
2764896394624545;0.0108;0.0597;-0.0104;
2764896404746315;-0.0606;0.2161;-0.0551;
2764896414853711;-0.0691;0.2236;-0.0381;
2764896424961107;0.0193;0.1257;0.0003;
2764896435052565;0.0246;0.2129;0.0120;
2764896445159961;0.0023;0.0778;0.0024;
2764896455267357;0.0672;-0.1140;0.0173;
2764896465373086;0.1609;0.2523;0.0312;
2764896475480482;0.0481;0.1586;0.0354;
2764896485587878;0.0278;-0.3547;0.0439;
2764896495712982;0.1992;-0.0692;0.0610;
2764896505820378;-0.0212;0.1108;0.0557;
2764896515927774;-0.0361;-0.0160;0.0642;
2764896526004545;0.0193;-0.0405;0.0631;
2764896536111940;-0.0308;-0.1172;0.0631;
2764896546219336;-0.0563;0.0341;0.0897;
2764896556345274;-0.1245;-0.0341;0.0887;
2764896566452722;-0.1320;-0.2642;0.0407;
2764896576560170;-0.0105;-0.0138;0.0290;
2764896586668503;-0.1639;0.0682;0.0589;
2764896596775951;-0.2001;-0.2375;0.0770;
2764896606883399;-0.0105;-0.1172;0.0354;
2764896616986003;-0.1234;0.1671;-0.0136;
2764896627093451;-0.2118;-0.0245;0.0258;
2764896637200899;-0.0095;-0.0309;0.0397;
2764896647317878;-0.0403;0.0916;0.0162;
2764896657425326;-0.0585;0.0415;0.0152;
2764896667532774;-0.0201;0.0224;0.0535;
2764896677633920;-0.0190;-0.0618;0.0684;
2764896687741367;-0.0169;-0.0714;0.0407;
2764896697848815;-0.0531;-0.0352;0.0226;
2764896707942774;-0.0222;-0.0085;0.0386;
2764896718050222;-0.0372;0.0213;0.0642;
2764896728157670;-0.0435;-0.0565;0.0482;
2764896738299388;-0.0329;0.0149;0.0088;
2764896748406836;-0.0478;0.0980;0.0205;
2764896758514284;-0.0201;0.0511;0.0375;
2764896768599024;-0.0553;-0.1683;0.0397;
2764896778706472;-0.0478;-0.1385;0.0322;
2764896788813920;-0.0925;0.2683;-0.0423;
2764896798914753;-0.1309;0.2427;-0.0434;
2764896809022201;-0.0489;-0.0085;-0.0072;
2764896819129649;-0.0020;0.0628;-0.0051;
2764896829230586;-0.1000;0.0746;-0.0061;
2764896839338034;-0.0979;-0.1310;-0.0136;
2764896849445482;-0.0414;-0.0724;-0.0200;
2764896859581107;-0.0617;0.0469;-0.0381;
2764896869688555;-0.0670;-0.0405;-0.0242;
2764896879796003;-0.0009;0.1097;-0.0093;
2764896889871003;-0.0372;0.1310;-0.0125;
2764896899978451;-0.0361;-0.1300;0.0152;
2764896910085899;-0.0031;-0.1385;-0.0115;
2764896920221836;-0.0169;0.0469;-0.0487;
2764896930329284;-0.0084;0.1767;-0.0189;
2764896940436732;0.0065;0.1502;0.0056;
2764896950548503;-0.0521;-0.1864;-0.0200;
2764896960655951;-0.0084;-0.1150;-0.0445;
2764896970763399;-0.0648;0.0671;-0.0700;
2764896980850430;-0.0670;-0.0969;-0.0615;
2764896990957878;0.0214;-0.1161;-0.0423;
2764897001065326;-0.0148;0.0245;-0.0519;
2764897011188711;-0.0403;-0.0202;-0.0668;
2764897021296159;0.0225;-0.0149;-0.0626;
2764897031403607;-0.0126;0.0330;-0.0455;
2764897041497774;-0.0084;-0.0842;-0.0413;
2764897051605222;0.0321;-0.1609;-0.0509;
2764897061712670;0.0268;0.0383;-0.0807;
2764897071790274;-0.0169;0.1023;-0.0647;
2764897081897722;-0.0084;-0.0053;-0.0083;
2764897092005170;0.0236;-0.0778;-0.0445;
2764897102146524;0.0023;-0.0586;-0.0818;
2764897112253972;-0.0712;-0.0064;-0.0775;
2764897122361420;-0.0670;-0.0554;-0.0530;
2764897132473920;-0.0670;-0.0778;-0.0583;
2764897142581367;-0.0648;0.0469;-0.0881;
2764897152688815;-0.0776;0.0746;-0.1254;
2764897162790690;-0.0350;0.0064;-0.0977;
2764897172898138;-0.0063;0.1044;-0.0818;
2764897183005586;0.0236;0.1246;-0.1105;
2764897193106315;0.0523;0.0138;-0.0988;
2764897203213763;0.1045;0.0234;-0.0636;
2764897213321211;0.1406;-0.0107;-0.0722;
2764897223425690;0.1577;-0.0746;-0.0924;
2764897233533138;0.1875;-0.0628;-0.0668;
2764897243640586;0.2109;-0.0415;-0.0391;
2764897253741836;0.1971;0.0213;-0.0391;
2764897263849284;0.2013;0.1363;-0.0700;
2764897273956732;0.1523;0.1575;-0.0690;
2764897284100795;0.1076;0.0959;-0.0221;
2764897294208242;0.1161;0.0256;-0.0157;
2764897304315690;0.0896;-0.0085;-0.0306;
2764897314401211;0.0747;-0.0128;-0.0615;
2764897324508659;0.0864;-0.0011;-0.0615;
2764897334616107;0.0672;-0.0522;-0.0370;
2764897344711211;0.0577;-0.0863;-0.0306;
2764897354818659;0.0832;-0.0298;-0.0391;
2764897364926107;0.0577;-0.0714;-0.0104;
2764897375040690;0.0694;-0.0437;-0.0104;
2764897385148138;0.0662;0.0937;0.0003;
2764897395255586;0.0385;0.0980;0.0067;
2764897405350534;0.0417;0.0298;0.0152;
2764897415457982;0.0332;-0.0224;-0.0093;
2764897425565430;0.0332;-0.0703;0.0226;
2764897435685430;0.0129;-0.0842;0.0290;
2764897445792878;-0.0031;-0.1374;0.0450;
2764897455900326;-0.0020;-0.1704;0.0397;
2764897466003763;-0.0009;-0.1768;0.0173;
2764897476111211;-0.0052;-0.0810;0.0130;
2764897486218659;0.0087;-0.0085;0.0173;
2764897496334024;0.0150;0.0405;0.0375;
2764897506441472;0.0406;0.0905;0.0407;
2764897516548920;0.0374;0.1044;0.0450;
2764897526667878;0.0491;0.0628;0.0375;
2764897536775326;0.0459;0.0469;0.0663;
2764897546862930;0.0289;-0.0266;0.0652;
2764897556970378;0.0523;-0.0778;0.0770;
2764897567077826;0.0225;-0.0831;0.0695;
2764897577194961;0.0172;-0.1193;0.0716;
2764897587302409;0.0161;-0.0905;0.0429;
2764897597409857;-0.0116;-0.0969;0.0333;
2764897607523295;-0.0116;-0.1161;0.0237;
2764897617630742;0.0140;-0.0053;0.0152;
2764897627738190;0.0193;0.0937;0.0024;
2764897637823711;0.0353;0.0959;-0.0487;
2764897647931159;0.0481;0.0831;-0.0764;
2764897658038607;0.0683;0.1927;-0.0562;
2764897668155690;0.0885;0.1895;-0.0466;
2764897678263138;0.1214;0.0639;-0.0839;
2764897688370586;0.1779;0.0362;-0.1116;
2764897698532357;0.2067;0.0501;-0.0977;
2764897708639805;0.2067;0.0160;-0.0775;
2764897718747253;0.2333;-0.0405;-0.0530;
2764897728786940;0.1800;-0.0256;-0.0317;
2764897738894336;0.1438;0.0394;-0.0328;
2764897749001836;0.1332;0.0820;-0.0200;
2764897759166836;0.0907;0.0053;-0.0072;
2764897769274284;0.0587;0.0149;-0.0296;
2764897779381732;0.0449;0.0682;-0.0328;
2764897789453190;0.0087;0.0522;-0.0349;
2764897799560638;0.0097;-0.0405;-0.0285;
2764897809668086;0.0246;-0.0053;-0.0338;
2764897819772409;-0.0169;-0.0639;-0.0551;
2764897829879857;-0.0308;-0.2035;-0.0860;
2764897839987305;0.0108;-0.1502;-0.0924;
2764897850087878;-0.0063;-0.1310;-0.0807;
2764897860195326;0.0023;-0.1214;-0.1254;
2764897870302774;0.0438;-0.0415;-0.1276;
2764897880421107;0.0800;0.0426;-0.1009;
2764897890528555;0.0960;0.0820;-0.0913;
2764897900636003;0.0875;-0.0597;-0.0328;
2764897910747149;0.1150;-0.1598;-0.0125;
2764897920854597;0.1672;0.0490;-0.0221;
2764897930962045;0.0651;0.0298;-0.0338;
2764897941048920;0.0768;-0.0948;-0.0115;
2764897951156367;0.1481;0.0170;0.0067;
2764897961263815;0.0885;-0.0394;0.0088;
2764897971375065;0.0885;-0.1225;0.0109;
2764897981482513;0.0992;-0.0905;0.0482;
2764897991589961;0.0779;-0.0873;0.0269;
2764898001692930;0.0832;-0.0852;0.0365;
2764898011800378;0.0640;-0.1672;0.0929;
2764898021907826;0.0577;-0.1534;0.0290;
2764898032025378;0.0364;0.0138;0.0024;
2764898042132826;0.0076;0.0533;-0.0083;
2764898052240274;0.0023;-0.0181;0.0184;
2764898062345899;0.0012;-0.0138;0.0109;
2764898072453347;0.0513;0.1268;0.0109;
2764898082560795;0.0204;0.0128;0.0375;
2764898092672357;0.0119;-0.2067;0.0312;
2764898102779805;0.0768;-0.1683;0.0056;
2764898112887253;0.0545;-0.0554;0.0258;
2764898122985690;0.0875;0.0234;0.0344;
2764898133093138;0.0832;0.0107;0.0258;
2764898143200586;0.1182;0.0362;0.0237;
2764898153307513;0.1204;0.1533;0.0471;
2764898163414961;0.1651;0.1129;0.0407;
2764898173522409;0.1236;0.0852;0.0663;
2764898183635274;0.1459;0.1937;0.0663;
2764898193742722;0.1172;0.1033;0.1537;
2764898203850170;0.0609;-0.2599;0.0951;
2764898213953920;0.0768;-0.2684;0.0887;
2764898224061367;0.0097;-0.0543;0.1047;
2764898234168815;-0.0009;-0.0032;0.0897;
2764898244275117;-0.0190;-0.0692;0.1004;
2764898254382565;-0.0180;0.0224;0.0887;
2764898264490013;0.0033;0.1087;0.0599;
2764898274600899;0.0055;0.0863;0.0578;
2764898284708347;0.0342;0.0085;0.0802;
2764898294815795;0.0609;-0.0149;0.0844;
2764898304917461;0.0747;0.0341;0.0375;
2764898315024909;0.0694;-0.0085;0.0344;
2764898325132357;0.0768;-0.0469;0.0386;
2764898335244440;0.0843;-0.0383;0.0514;
2764898345351888;0.0949;-0.0948;0.0397;
2764898355459336;0.1129;-0.0575;0.0439;
2764898365564492;0.1182;0.0586;0.0365;
2764898375671940;0.0949;0.0511;0.0205;
2764898385779388;0.0662;0.0522;0.0599;
2764898395889440;0.0790;0.1118;0.0386;
2764898405996888;0.0513;0.0085;0.0759;
2764898416104336;0.0204;-0.1150;0.0344;
2764898426209232;0.0459;-0.0735;0.0589;
2764898436316680;0.0417;-0.0543;0.0642;
2764898446424128;0.0395;0.0181;0.0599;
2764898456534961;0.0129;0.0820;0.0429;
2764898466642409;-0.0009;0.0032;0.0258;
2764898476749857;-0.0073;0.0383;0.0344;
2764898486857930;-0.0414;0.1193;0.0077;
2764898496965378;-0.0702;0.0671;-0.0061;
2764898507072826;-0.0680;0.0266;-0.0115;
2764898517183295;-0.0691;-0.0149;0.0269;
2764898527290742;-0.0808;-0.0256;-0.0146;
2764898537398190;-0.0563;-0.0000;-0.0434;
2764898547493711;-0.0648;-0.0075;-0.0264;
2764898557601159;-0.0521;-0.0117;0.0152;
2764898567708555;-0.0467;0.0128;0.0056;
2764898577814128;-0.0478;-0.0181;-0.0210;
2764898587921576;-0.0510;-0.0298;-0.0200;
2764898598028972;-0.0276;0.0565;0.0067;
2764898608145899;-0.0350;0.0373;0.0322;
2764898618253347;-0.0009;-0.0842;0.0141;
2764898628360795;-0.0297;-0.1076;0.0130;
2764898638524024;-0.0265;-0.1001;0.0067;
2764898648631472;-0.0084;-0.0277;-0.0040;
2764898658738867;0.0012;0.0352;-0.0029;
2764898668774909;-0.0052;-0.0671;0.0194;
2764898678882305;0.0310;-0.0170;-0.0157;
2764898688989753;0.0715;0.1575;-0.0178;
2764898699140378;0.0289;0.0096;0.0248;
2764898709247826;0.0758;-0.0277;0.0088;
2764898719355222;0.1630;0.1236;-0.0104;
2764898729437565;0.0662;0.1236;0.0216;
2764898739545013;0.0395;-0.0117;0.0557;
2764898749652409;0.0960;-0.1012;0.0844;
2764898759761003;0.1045;-0.0937;0.0503;
2764898769868451;0.0726;-0.0511;0.0674;
2764898779975847;0.0417;0.0149;0.0684;
2764898790083867;0.1056;0.1565;0.0631;
2764898800191315;0.0800;0.2523;0.0855;
2764898810298711;0.0438;0.1246;0.0983;
2764898820391628;0.0523;-0.0160;0.1238;
2764898830499076;0.0704;0.0735;0.1079;
2764898840606472;0.0140;0.0543;0.0972;
2764898850718763;0.0108;-0.0224;0.1015;
2764898860826211;-0.0020;-0.0000;0.1377;
2764898870933607;-0.0265;-0.1747;0.1356;
2764898881032357;0.0044;-0.1715;0.0951;
2764898891139805;-0.0009;0.1342;0.0802;
2764898901247201;-0.0957;0.0245;0.1153;
2764898911357930;-0.0425;-0.0426;0.0578;
2764898921465378;-0.0531;0.1502;0.0312;
2764898931572774;-0.0478;0.1586;0.0567;
2764898941687461;-0.0052;0.1097;0.0738;
2764898951794909;-0.0297;0.0011;0.0706;
2764898961902305;0.0044;-0.0383;0.0631;
2764898972006211;-0.0212;0.0501;0.0695;
2764898982113659;-0.0105;-0.1353;0.0674;
2764898992221055;0.0076;-0.1523;0.0674;
2764899002326836;0.0065;0.0905;0.0620;
2764899012434284;-0.0318;0.0426;0.0503;
2764899022541680;-0.0148;-0.0916;0.0503;
2764899032652670;-0.0286;0.0245;0.0397;
2764899042760117;-0.0776;0.0735;0.0439;
2764899052867513;-0.0329;0.1810;0.0173;
2764899062981628;-0.0691;0.2662;0.0141;
2764899073089076;-0.0414;0.1300;0.0205;
2764899083196472;-0.0350;0.0341;0.0130;
2764899093300586;-0.0606;-0.0181;0.0226;
2764899103408034;-0.0265;-0.1118;0.0407;
2764899113515430;-0.0340;-0.1353;0.0333;
2764899123616211;-0.0510;-0.1246;0.0099;
2764899133723659;-0.0489;-0.1012;-0.0157;
2764899143831055;-0.0595;-0.0852;-0.0115;
2764899153931836;-0.0116;-0.0373;-0.0029;
2764899164039284;-0.0073;0.0394;-0.0008;
2764899174146680;0.0108;0.1001;-0.0083;
2764899184260690;0.0119;0.0522;0.0099;
2764899194368138;0.0044;0.0383;0.0045;
2764899204475534;0.0012;0.0873;-0.0093;
2764899214583347;-0.0020;0.0820;0.0216;
2764899224690795;-0.0052;0.0852;0.0375;
2764899234798190;-0.0052;0.0192;0.0258;
2764899244908607;-0.0222;-0.0170;0.0152;
2764899255016055;-0.0340;0.0075;0.0067;
2764899265123451;-0.0489;0.0107;0.0024;
2764899275224961;-0.0350;0.0032;0.0503;
2764899285332409;-0.0457;-0.1715;0.0780;
2764899295439805;-0.0126;-0.1055;0.0461;
2764899305555690;-0.0467;0.1182;0.0290;
2764899315663138;-0.0872;0.1363;0.0333;
2764899325770534;-0.0510;0.1470;0.0450;
2764899335883190;-0.0393;0.2747;0.0514;
2764899345990638;-0.0510;0.3525;0.0546;
2764899356098034;-0.0542;0.2193;0.0706;
2764899366231420;-0.0361;0.0362;0.0961;
2764899376338867;-0.0403;-0.0298;0.1047;
2764899386446263;-0.0414;-0.0170;0.0844;
2764899396526003;-0.0467;0.0224;0.0727;
2764899406633451;-0.0531;0.0277;0.0983;
2764899416740847;-0.0308;0.0075;0.1164;
2764899426847774;-0.0457;-0.0053;0.1228;
2764899436955222;-0.0425;0.0234;0.0791;
2764899447062617;-0.0510;0.0628;0.0674;
2764899457167461;-0.0499;0.0107;0.0780;
2764899467274909;-0.0531;-0.0000;0.0759;
2764899477382305;-0.0595;-0.0021;0.0919;
2764899487492045;-0.0510;0.0980;0.1004;
2764899497599492;-0.0553;0.2087;0.0972;
2764899507706888;-0.0617;-0.0192;0.1004;
2764899517809128;-0.0798;-0.1449;0.0972;
2764899527916576;-0.1458;-0.0298;0.1015;
2764899538023972;-0.2268;-0.0714;0.0897;
2764899548152357;-0.1597;-0.1683;0.0557;
2764899558259857;-0.2044;-0.0756;0.0312;
2764899568367253;-0.2960;0.0682;0.0365;
2764899578510795;-0.2140;0.0703;0.0280;
2764899588618347;-0.1256;0.0213;0.0216;
2764899598725795;-0.1703;0.0671;0.0461;
2764899608753295;-0.1607;0.0873;0.0450;
2764899618860742;-0.1096;-0.0586;0.0620;
2764899628968242;-0.1266;0.0234;0.0525;
2764899639088920;-0.2055;0.1660;0.0503;
2764899649196420;-0.1373;0.0479;0.0525;
2764899659303867;-0.1075;-0.0330;0.0482;
2764899669434024;-0.1937;0.0075;0.0599;
2764899679541524;-0.2353;0.0202;0.0482;
2764899689648972;-0.1511;-0.0043;0.0578;
2764899699730274;-0.1565;0.0011;0.0514;
2764899709837774;-0.1916;0.0192;0.0439;
2764899719945222;-0.2076;0.0565;0.0429;
2764899730057357;-0.1543;0.0799;0.0567;
2764899740164857;-0.1160;0.1076;0.0557;
2764899750272305;-0.1224;0.1172;0.0493;
2764899760374232;-0.1256;0.0895;0.0471;
2764899770481732;-0.1202;0.0852;0.0514;
2764899780589180;-0.1320;0.0650;0.0620;
2764899790724128;-0.1373;0.0639;0.0493;
2764899800831628;-0.1415;0.0820;0.0493;
2764899810939076;-0.1692;0.0437;0.0610;
2764899821026524;-0.1724;0.0575;0.0695;
2764899831134024;-0.1650;0.1406;0.0535;
2764899841241472;-0.1767;0.1236;0.0738;
2764899851354128;-0.1458;0.0160;0.0663;
2764899861461628;-0.1597;-0.0043;0.0791;
2764899871569076;-0.1597;0.0170;0.0972;
2764899881667513;-0.1852;0.0437;0.1015;
2764899891775013;-0.2150;0.0245;0.0993;
2764899901882461;-0.2459;-0.0149;0.0951;
2764899912001836;-0.2715;0.0202;0.0929;
2764899922109336;-0.3546;0.0469;0.0812;
2764899932216784;-0.3333;0.0575;0.0706;
2764899942322878;-0.3312;0.0927;0.0620;
2764899952430378;-0.3759;0.0692;0.0663;
2764899962537826;-0.3482;0.0064;0.0535;
2764899972641680;-0.3738;0.0277;0.0354;
2764899982749180;-0.4025;0.0543;0.0152;
2764899992856628;-0.3929;0.0373;0.0248;
2764900002955951;-0.3631;0.0117;0.0194;
2764900013063399;-0.3461;0.0138;0.0237;
2764900023170847;-0.3386;0.0501;0.0173;
2764900033278347;-0.3120;0.0586;0.0035;
2764900043394024;-0.2438;0.0373;0.0141;
2764900053501524;-0.2406;-0.0586;0.0280;
2764900063608972;-0.2417;-0.0415;0.0162;
2764900073719649;-0.2491;0.0703;0.0258;
2764900083827149;-0.2491;0.0586;0.0429;
2764900093934597;-0.2502;0.0181;0.0503;
2764900104037878;-0.2800;0.0170;0.0301;
2764900114145378;-0.3194;0.0501;0.0344;
2764900124252826;-0.3482;0.0767;0.0535;
2764900134353815;-0.3652;0.0703;0.0503;
2764900144461315;-0.3674;0.0682;0.0280;
2764900154568763;-0.4228;0.0842;0.0429;
2764900164681576;-0.4771;0.0298;0.0429;
2764900174789076;-0.4483;0.0213;0.0375;
2764900184896524;-0.5036;0.0714;0.0216;
2764900195005586;-0.5664;0.0320;0.0056;
2764900205113034;-0.5526;0.0064;-0.0029;
2764900215220534;-0.5877;0.0469;-0.0221;
2764900225326524;-0.6389;0.0660;-0.0381;
2764900235434024;-0.6218;0.0863;-0.0296;
2764900245541472;-0.6218;0.0746;-0.0466;
2764900255643347;-0.6495;0.0501;-0.0700;
2764900265750847;-0.6442;0.0895;-0.0786;
2764900275858295;-0.6612;0.0991;-0.0850;
2764900285989232;-0.6272;0.0756;-0.0786;
2764900296096732;-0.6591;0.0756;-0.0732;
2764900306204180;-0.6762;0.0586;-0.0999;
2764900316300378;-0.6655;0.0447;-0.1350;
2764900326407878;-0.6250;0.0873;-0.1446;
2764900336515326;-0.5292;0.0724;-0.1425;
2764900346627045;-0.4313;0.0884;-0.1340;
2764900356734545;-0.3855;0.1087;-0.1318;
2764900366841992;-0.3865;0.0724;-0.1318;
2764900376938711;-0.3375;0.0735;-0.1457;
2764900387046211;-0.2417;0.0533;-0.1276;
2764900397153659;-0.2278;0.0373;-0.1297;
2764900407272878;-0.1820;0.0415;-0.1265;
2764900417380378;-0.1533;0.0597;-0.1169;
2764900427487826;-0.1170;0.0383;-0.1190;
2764900437586524;-0.0776;0.0511;-0.1137;
2764900447694024;-0.0308;0.0682;-0.0988;
2764900457801472;0.0172;0.0618;-0.0924;
2764900467904180;-0.0318;-0.0000;-0.0743;
2764900478011680;-0.0308;-0.1140;-0.0498;
2764900488119180;-0.0435;0.0458;-0.1041;
2764900498222357;-0.0904;0.1597;-0.1031;
2764900508329805;-0.0617;0.0703;-0.0498;
2764900518437253;0.0640;0.0288;-0.0626;
2764900528562774;-0.0276;0.0224;-0.0839;
2764900538670274;-0.1192;0.0522;-0.0913;
2764900548777722;-0.0893;0.0746;-0.0786;
2764900558872565;-0.0798;0.0501;-0.0775;
2764900568980013;-0.0542;0.0724;-0.0935;
2764900579087409;-0.0957;0.0703;-0.0871;
2764900589203190;-0.0968;0.0128;-0.0786;
2764900599310638;-0.0478;0.0224;-0.0743;
2764900609418034;-0.0680;0.0138;-0.0711;
2764900619550326;-0.0776;-0.0458;-0.0711;
2764900629657774;-0.0638;0.0437;-0.0807;
2764900639765170;-0.0862;0.0511;-0.0626;
2764900649841524;-0.0553;0.0138;-0.0551;
2764900659948972;-0.0340;0.0138;-0.0519;
2764900670056367;-0.0553;0.0096;-0.0647;
2764900680157670;-0.0361;0.0330;-0.0818;
2764900690265065;-0.0403;0.0309;-0.0551;
2764900700372513;-0.0574;0.0298;-0.0423;
2764900710493711;-0.0670;-0.0277;-0.0509;
2764900720601159;-0.0372;0.0213;-0.0519;
2764900730708555;-0.1181;0.0639;-0.0519;
2764900740791211;-0.1671;-0.1182;-0.0711;
2764900750898607;-0.1170;-0.1449;-0.0658;
2764900761006055;-0.1533;-0.0458;-0.0860;
2764900771124336;-0.1501;-0.0245;-0.1265;
2764900781231784;-0.1426;-0.0277;-0.1201;
2764900791339180;-0.1533;-0.0426;-0.1212;
2764900801453399;-0.1362;-0.0192;-0.1233;
2764900811560847;-0.1277;0.0128;-0.1244;
2764900821668242;-0.1128;-0.0383;-0.1158;
2764900831773815;-0.0947;-0.0149;-0.1158;
2764900841881263;-0.1021;0.0415;-0.1361;
2764900851988659;-0.1075;0.0075;-0.1435;
2764900862096003;-0.0467;0.0160;-0.1095;
