Sensor: bmi160 Gyroscope Non-wakeup
Vendor: BOSCH
TimestampGyro [ns]; GyroX [rad/s]; GyroY [rad/s]; GyroZ [rad/s]
5253427235466282;0.0053;0.0029;-0.0348;
5253427245548366;0.0117;0.0019;-0.0337;
5253427255647220;0.0075;-0.0035;-0.0294;
5253427265754512;0.0075;-0.0003;-0.0252;
5253427275869251;0.0064;0.0019;-0.0252;
5253427285990970;0.0053;-0.0003;-0.0230;
5253427296056595;0.0064;0.0008;-0.0188;
5253427306227845;0.0032;-0.0003;-0.0134;
5253427316268991;0.0043;-0.0003;-0.0092;
5253427326393001;0.0021;-0.0003;-0.0060;
5253427336473210;0.0032;-0.0013;-0.0028;
5253427346570605;0.0011;0.0008;-0.0007;
5253427356682272;0.0011;0.0019;0.0047;
5253427366800501;0.0021;0.0019;0.0089;
5253427376876647;-0.0000;0.0008;0.0100;
5253427386981907;0.0011;0.0019;0.0142;
5253427397103418;-0.0011;0.0019;0.0153;
5253427407208991;-0.0032;0.0008;0.0196;
5253427417293730;-0.0032;0.0019;0.0217;
5253427427414772;-0.0021;0.0040;0.0206;
5253427437553314;-0.0032;0.0040;0.0238;
5253427447591387;-0.0032;0.0040;0.0270;
5253427457717012;-0.0032;0.0040;0.0260;
5253427467810241;-0.0043;0.0019;0.0238;
5253427477938730;-0.0064;0.0008;0.0206;
5253427488028262;-0.0032;0.0008;0.0174;
5253427498143522;-0.0021;0.0019;0.0164;
5253427508247168;-0.0011;0.0019;0.0132;
5253427518337428;-0.0021;0.0019;0.0089;
5253427528436387;-0.0032;0.0019;0.0047;
5253427538551699;-0.0000;0.0008;0.0025;
5253427548656595;0.0021;0.0008;-0.0028;
5253427558742480;0.0021;0.0008;-0.0071;
5253427568859668;-0.0000;0.0008;-0.0113;
5253427578972012;-0.0043;0.0019;-0.0156;
5253427589065449;-0.0107;-0.0003;-0.0209;
5253427599147532;-0.0160;-0.0003;-0.0252;
5253427609270762;-0.0192;0.0008;-0.0316;
5253427619356230;-0.0202;0.0008;-0.0358;
5253427629458730;-0.0170;-0.0024;-0.0369;
5253427639586907;-0.0128;-0.0003;-0.0411;
5253427649654147;-0.0075;-0.0013;-0.0433;
5253427659771751;-0.0053;-0.0013;-0.0433;
5253427669872480;-0.0011;-0.0013;-0.0443;
5253427679970605;0.0011;-0.0013;-0.0454;
5253427690078522;0.0011;-0.0035;-0.0475;
5253427700184043;-0.0000;-0.0024;-0.0507;
5253427710280657;-0.0032;-0.0013;-0.0507;
5253427720384564;-0.0032;-0.0024;-0.0507;
5253427730494355;-0.0032;-0.0013;-0.0518;
5253427740592689;-0.0032;-0.0013;-0.0539;
5253427750697897;-0.0043;-0.0003;-0.0539;
5253427760802168;-0.0053;-0.0013;-0.0518;
5253427770902064;-0.0085;-0.0035;-0.0529;
5253427781006960;-0.0096;-0.0024;-0.0518;
5253427791104720;-0.0085;-0.0024;-0.0497;
5253427801213522;-0.0096;-0.0024;-0.0454;
5253427811334668;-0.0064;-0.0013;-0.0433;
5253427821422585;-0.0043;-0.0024;-0.0390;
5253427831519460;-0.0011;-0.0003;-0.0348;
5253427841620397;0.0064;-0.0024;-0.0326;
5253427851725189;0.0117;-0.0035;-0.0284;
5253427861833001;0.0117;-0.0045;-0.0252;
5253427871933835;0.0085;-0.0045;-0.0220;
5253427882039668;0.0064;-0.0035;-0.0198;
5253427892138991;0.0064;-0.0003;-0.0166;
5253427902245501;0.0053;0.0008;-0.0134;
5253427912347480;0.0053;-0.0003;-0.0113;
5253427922447324;0.0032;-0.0013;-0.0071;
5253427932548574;0.0021;-0.0024;-0.0017;
5253427942651022;0.0021;-0.0024;0.0015;
5253427952764772;-0.0000;-0.0003;0.0068;
5253427962856335;-0.0000;0.0019;0.0132;
5253427972962376;-0.0000;0.0029;0.0153;
5253427983065605;-0.0011;0.0019;0.0196;
5253427993170918;-0.0043;0.0019;0.0249;
5253428003272480;-0.0043;0.0019;0.0302;
5253428013369251;-0.0064;0.0019;0.0334;
5253428023481491;-0.0075;0.0040;0.0377;
5253428033582897;-0.0085;0.0051;0.0419;
5253428043684147;-0.0096;0.0040;0.0483;
5253428053788157;-0.0107;0.0029;0.0526;
5253428063902793;-0.0107;0.0040;0.0579;
5253428074002585;-0.0107;0.0029;0.0643;
5253428084095918;-0.0128;0.0051;0.0696;
5253428094205814;-0.0138;0.0029;0.0728;
5253428104303418;-0.0138;0.0061;0.0739;
5253428114404355;-0.0149;0.0061;0.0771;
5253428124503366;-0.0160;0.0051;0.0803;
5253428134623991;-0.0181;0.0061;0.0814;
5253428144710918;-0.0192;0.0061;0.0814;
5253428154814668;-0.0192;0.0061;0.0824;
5253428164914355;-0.0181;0.0051;0.0824;
5253428175028366;-0.0170;0.0083;0.0803;
5253428185115085;-0.0181;0.0072;0.0782;
5253428195222793;-0.0181;0.0083;0.0750;
5253428205345657;-0.0170;0.0104;0.0718;
5253428215437897;-0.0160;0.0083;0.0696;
5253428225533314;-0.0160;0.0061;0.0643;
5253428235633105;-0.0160;0.0040;0.0611;
5253428245754460;-0.0149;0.0051;0.0590;
5253428255843835;-0.0128;0.0061;0.0547;
5253428265955710;-0.0128;0.0051;0.0505;
5253428276052168;-0.0107;0.0061;0.0473;
5253428286140918;-0.0096;0.0061;0.0441;
5253428296255918;-0.0085;0.0040;0.0387;
5253428306329928;-0.0085;0.0040;0.0334;
5253428316475710;-0.0053;0.0040;0.0281;
5253428326555605;-0.0032;0.0040;0.0228;
5253428336672376;-0.0032;0.0019;0.0174;
5253428346752220;-0.0085;-0.0035;0.0079;
5253428356832116;-0.0149;-0.0120;0.0025;
5253428366996439;-0.0383;-0.0162;0.0036;
5253428377076335;-0.0618;-0.0088;0.0025;
5253428387156230;-0.0618;0.0008;0.0004;
5253428397280918;-0.0554;0.0072;-0.0017;
5253428407360814;-0.0447;0.0115;0.0025;
5253428417440710;-0.0309;0.0115;0.0089;
5253428427598730;-0.0170;0.0093;0.0164;
5253428437678626;-0.0053;0.0115;0.0228;
5253428447758522;-0.0011;0.0125;0.0313;
5253428457896855;-0.0032;0.0115;0.0366;
5253428467976751;-0.0043;0.0136;0.0419;
5253428478056647;-0.0064;0.0093;0.0515;
5253428488223522;-0.0085;0.0051;0.0611;
5253428498303418;-0.0085;0.0029;0.0664;
5253428508383314;-0.0138;-0.0003;0.0718;
5253428518518418;-0.0160;-0.0003;0.0760;
5253428528598314;-0.0170;0.0019;0.0803;
5253428538678210;-0.0149;0.0040;0.0856;
5253428548819043;-0.0117;0.0051;0.0877;
5253428558898939;-0.0021;0.0115;0.0931;
5253428568978835;0.0394;0.0125;0.0984;
5253428579158939;0.0842;0.0093;0.1080;
5253428589238835;0.1300;0.0072;0.1144;
5253428599318730;0.1672;0.0040;0.1186;
5253428609494564;0.1724;0.0008;0.1197;
5253428619574460;0.1566;0.0019;0.1165;
5253428629654355;0.1363;0.0040;0.1091;
5253428639782689;0.1076;0.0061;0.1037;
5253428649862585;0.0756;0.0061;0.0973;
5253428659942480;0.0362;0.0061;0.0877;
5253428670066126;-0.0256;0.0083;0.0782;
5253428680146022;-0.0309;0.0093;0.0728;
5253428690225918;-0.0277;0.0157;0.0750;
5253428700389720;-0.0320;0.0168;0.0750;
5253428710469616;-0.0202;0.0061;0.0760;
5253428720549512;-0.0160;-0.0013;0.0739;
5253428730695189;-0.0192;-0.0024;0.0750;
5253428740775085;-0.0213;-0.0024;0.0760;
5253428750854980;-0.0256;0.0040;0.0739;
5253428761016022;-0.0309;0.0104;0.0686;
5253428771095918;-0.0309;0.0104;0.0632;
5253428781175814;-0.0224;0.0061;0.0611;
5253428791318105;-0.0096;0.0029;0.0590;
5253428801398001;-0.0117;0.0029;0.0558;
5253428811477897;-0.0117;0.0051;0.0505;
5253428821619043;-0.0096;0.0083;0.0462;
5253428831698939;-0.0085;0.0061;0.0441;
5253428841778835;-0.0053;0.0029;0.0409;
5253428851938626;-0.0064;0.0019;0.0377;
5253428862018522;-0.0075;0.0040;0.0387;
5253428872098418;-0.0075;0.0040;0.0377;
5253428882243835;-0.0085;0.0019;0.0366;
5253428892323730;-0.0064;0.0029;0.0345;
5253428902403626;-0.0043;0.0040;0.0324;
5253428912550605;-0.0053;0.0040;0.0313;
5253428922630501;-0.0053;0.0008;0.0302;
5253428932710397;-0.0064;0.0019;0.0302;
5253428942861439;-0.0064;0.0040;0.0281;
5253428952941335;-0.0043;0.0061;0.0270;
5253428963021230;-0.0032;0.0029;0.0270;
5253428973170085;-0.0043;0.0019;0.0270;
5253428983249980;-0.0053;0.0029;0.0260;
5253428993329876;-0.0064;0.0019;0.0302;
5253429003481439;-0.0064;0.0019;0.0313;
5253429013561335;-0.0021;0.0029;0.0313;
5253429023641230;0.0043;-0.0013;0.0281;
5253429033800762;0.0469;-0.0120;0.0228;
5253429043880657;0.1150;-0.0248;0.0111;
5253429053960553;0.1214;-0.0162;0.0068;
5253429064116543;0.1342;-0.0088;-0.0081;
5253429074196439;0.1481;-0.0045;-0.0305;
5253429084276335;0.1427;-0.0045;-0.0443;
5253429094424668;0.1161;-0.0099;-0.0529;
5253429104504564;0.0756;-0.0109;-0.0635;
5253429114584460;0.0352;-0.0056;-0.0699;
5253429124705918;0.0096;0.0019;-0.0710;
5253429134785814;0.0202;0.0029;-0.0678;
5253429144865710;0.0202;0.0008;-0.0635;
5253429155018210;0.0170;-0.0035;-0.0603;
5253429165098105;0.0128;-0.0109;-0.0561;
5253429175178001;0.0096;-0.0141;-0.0475;
5253429185317168;0.0096;-0.0088;-0.0433;
5253429195397064;0.0085;-0.0035;-0.0401;
5253429205476960;0.0064;-0.0013;-0.0326;
5253429215633730;0.0053;-0.0003;-0.0230;
5253429225713626;0.0064;-0.0024;-0.0145;
5253429235793522;0.0043;-0.0056;-0.0071;
5253429245938210;-0.0000;-0.0035;-0.0007;
5253429256042532;-0.0011;0.0008;0.0057;
5253429266122376;-0.0011;0.0029;0.0164;
5253429276202272;-0.0011;0.0051;0.0228;
5253429286386751;-0.0032;0.0051;0.0270;
5253429296466647;-0.0053;0.0029;0.0356;
5253429306546543;-0.0096;0.0029;0.0430;
5253429316669251;-0.0117;0.0051;0.0515;
5253429326749147;-0.0128;0.0040;0.0590;
5253429336829043;-0.0138;0.0029;0.0622;
5253429346964460;-0.0160;0.0051;0.0675;
5253429357044355;-0.0181;0.0051;0.0739;
5253429367124251;-0.0213;0.0061;0.0824;
5253429377279564;-0.0234;0.0072;0.0877;
5253429387359460;-0.0245;0.0083;0.0899;
5253429397439355;-0.0256;0.0083;0.0909;
5253429407575189;-0.0256;0.0072;0.0941;
5253429417655085;-0.0266;0.0083;0.0952;
5253429427734980;-0.0266;0.0083;0.0963;
5253429437929251;-0.0245;0.0083;0.0963;
5253429448009147;-0.0288;0.0093;0.0941;
5253429458089043;-0.0394;0.0083;0.0899;
5253429468198939;-0.0501;0.0093;0.0877;
5253429478278835;-0.0479;0.0093;0.0846;
5253429488358730;-0.0415;0.0104;0.0856;
5253429498543105;-0.0288;0.0104;0.0856;
5253429508623001;-0.0138;0.0093;0.0824;
5253429518702897;-0.0160;0.0093;0.0814;
5253429528838418;-0.0181;0.0061;0.0792;
5253429538918314;-0.0181;0.0072;0.0782;
5253429548998210;-0.0181;0.0104;0.0782;
5253429559131595;-0.0181;0.0093;0.0782;
5253429569211491;-0.0181;0.0072;0.0792;
5253429579291387;-0.0192;0.0072;0.0792;
5253429589456439;-0.0192;0.0083;0.0803;
5253429599536335;-0.0202;0.0072;0.0814;
5253429609616230;-0.0213;0.0072;0.0846;
5253429619758939;-0.0213;0.0051;0.0888;
5253429629838835;-0.0224;0.0040;0.0899;
5253429639918730;-0.0266;0.0061;0.0888;
5253429650060397;-0.0352;0.0072;0.0888;
5253429660140293;-0.0426;0.0072;0.0909;
5253429670220189;-0.0437;0.0072;0.0941;
5253429680380397;-0.0415;0.0072;0.0952;
5253429690460293;-0.0394;0.0072;0.0963;
5253429700540189;-0.0309;0.0083;0.0963;
5253429710686751;-0.0234;0.0083;0.0984;
5253429720766647;-0.0213;0.0093;0.1016;
5253429730846543;-0.0234;0.0104;0.0995;
5253429741002168;-0.0224;0.0093;0.1005;
5253429751082064;-0.0224;0.0061;0.1005;
5253429761161960;-0.0234;0.0072;0.0995;
5253429771315137;-0.0266;0.0072;0.0973;
5253429781395032;-0.0245;0.0072;0.0984;
5253429791474928;-0.0234;0.0051;0.1005;
5253429801627168;-0.0266;0.0051;0.1005;
5253429811707064;-0.0298;0.0051;0.0963;
5253429821786960;-0.0330;0.0072;0.0931;
5253429831929147;-0.0309;0.0093;0.0899;
5253429842009043;-0.0202;0.0104;0.0846;
5253429852088939;-0.0149;0.0136;0.0792;
5253429862247272;-0.0138;0.0104;0.0728;
5253429872327168;-0.0117;0.0093;0.0632;
5253429882407064;-0.0085;0.0083;0.0547;
5253429892561126;-0.0032;0.0093;0.0441;
5253429902641022;-0.0011;0.0072;0.0366;
5253429912720918;-0.0000;0.0051;0.0281;
5253429922850085;-0.0021;0.0029;0.0196;
5253429932929980;-0.0021;0.0019;0.0121;
5253429943009876;-0.0021;0.0008;0.0079;
5253429953162689;-0.0011;0.0019;0.0036;
5253429963242585;-0.0011;-0.0003;-0.0007;
5253429973322480;-0.0000;-0.0035;-0.0007;
5253429983479460;0.0032;-0.0077;0.0004;
5253429993559355;0.0043;-0.0077;-0.0007;
5253430003639251;0.0064;-0.0056;-0.0017;
5253430013779668;0.0075;0.0019;-0.0071;
5253430023859564;0.0064;0.0061;-0.0092;
5253430033939460;0.0096;0.0051;-0.0113;
5253430044116543;0.0075;0.0008;-0.0145;
5253430054196439;0.0053;-0.0024;-0.0188;
5253430064276335;0.0096;-0.0035;-0.0198;
5253430074412793;0.0107;-0.0045;-0.0220;
5253430084492689;0.0064;-0.0045;-0.0230;
5253430094572585;0.0064;-0.0045;-0.0230;
5253430104714876;0.0064;-0.0035;-0.0230;
5253430114794772;0.0075;-0.0024;-0.0230;
5253430124874668;0.0096;0.0008;-0.0230;
5253430135019876;0.0085;0.0040;-0.0241;
5253430145099772;0.0075;0.0029;-0.0262;
5253430155179668;0.0053;0.0008;-0.0284;
5253430165348314;0.0064;-0.0003;-0.0294;
5253430175428210;0.0064;-0.0013;-0.0337;
5253430185508105;0.0085;-0.0035;-0.0379;
5253430195629564;0.0117;-0.0045;-0.0433;
5253430205709460;0.0128;-0.0067;-0.0518;
5253430215789355;0.0149;-0.0045;-0.0582;
5253430225947480;0.0160;-0.0035;-0.0667;
5253430236027376;0.0202;-0.0024;-0.0752;
5253430246107272;0.0245;-0.0003;-0.0848;
5253430256240605;0.0266;-0.0045;-0.0944;
5253430266338939;0.0309;-0.0077;-0.1051;
5253430276437272;0.0320;-0.0077;-0.1136;
5253430286552897;0.0330;-0.0067;-0.1221;
5253430296651178;0.0330;-0.0077;-0.1306;
5253430306749564;0.0341;-0.0099;-0.1370;
5253430316889043;0.0352;-0.0130;-0.1423;
5253430326987376;0.0341;-0.0152;-0.1434;
5253430337085710;0.0352;-0.0152;-0.1434;
5253430347175553;0.0330;-0.0130;-0.1423;
5253430357273887;0.0352;-0.0130;-0.1370;
5253430367372220;0.0341;-0.0099;-0.1296;
5253430377541074;0.0309;-0.0077;-0.1200;
5253430387639460;0.0298;-0.0099;-0.1093;
5253430397737793;0.0266;-0.0099;-0.0987;
5253430407780449;0.0256;-0.0067;-0.0880;
5253430417878782;0.0245;-0.0067;-0.0752;
5253430427977116;0.0234;-0.0045;-0.0678;
5253430438135553;0.0192;-0.0045;-0.0593;
5253430448233887;0.0170;-0.0056;-0.0507;
5253430458332272;0.0160;-0.0077;-0.0454;
5253430468397428;0.0128;-0.0067;-0.0411;
5253430478495814;0.0096;-0.0067;-0.0369;
5253430488594095;0.0053;-0.0077;-0.0326;
5253430498730814;0.0075;-0.0077;-0.0262;
5253430508829147;0.0064;-0.0088;-0.0220;
5253430518927480;0.0053;-0.0088;-0.0177;
5253430529050449;0.0053;-0.0077;-0.0145;
5253430539148835;0.0032;-0.0045;-0.0092;
5253430549247116;-0.0000;-0.0035;-0.0060;
5253430559357897;-0.0011;-0.0035;-0.0017;
5253430569456230;-0.0032;-0.0035;0.0057;
5253430579554564;-0.0011;-0.0024;0.0089;
5253430589667428;0.0011;-0.0035;0.0132;
5253430599765814;-0.0021;-0.0056;0.0164;
5253430609864147;-0.0021;-0.0035;0.0206;
5253430619955501;-0.0021;0.0029;0.0217;
5253430630053835;-0.0000;0.0072;0.0228;
5253430640152168;0.0011;0.0072;0.0238;
5253430650269668;0.0032;0.0083;0.0238;
5253430660368001;-0.0021;0.0083;0.0260;
5253430670466335;-0.0053;0.0051;0.0281;
5253430680573001;-0.0032;0.0029;0.0292;
5253430690671335;-0.0032;-0.0003;0.0302;
5253430700769668;-0.0053;0.0008;0.0313;
5253430710885501;-0.0064;0.0008;0.0324;
5253430720983887;-0.0064;0.0008;0.0324;
5253430731082220;-0.0085;0.0019;0.0334;
5253430741195970;-0.0117;0.0019;0.0313;
5253430751294303;-0.0149;0.0029;0.0324;
5253430761392637;-0.0170;0.0040;0.0324;
5253430771505189;-0.0075;0.0051;0.0302;
5253430781603522;-0.0053;0.0061;0.0270;
5253430791701855;-0.0021;0.0061;0.0249;
5253430801828574;-0.0011;0.0061;0.0228;
5253430811926907;0.0011;0.0051;0.0185;
5253430822025293;-0.0000;-0.0003;0.0121;
5253430832127897;-0.0011;-0.0035;0.0047;
5253430842226230;0.0011;-0.0035;-0.0017;
5253430852324564;0.0043;-0.0003;-0.0060;
5253430862433887;0.0021;0.0008;-0.0081;
5253430872532220;0.0021;0.0008;-0.0092;
5253430882630553;-0.0000;-0.0003;-0.0071;
5253430892760814;0.0053;-0.0024;-0.0092;
5253430902859147;0.0096;-0.0003;-0.0177;
5253430912957480;0.0138;0.0008;-0.0230;
5253430923049928;0.0149;0.0008;-0.0273;
5253430933148314;0.0128;0.0019;-0.0337;
5253430943246647;0.0138;0.0008;-0.0401;
5253430953354772;0.0138;-0.0003;-0.0465;
5253430963453105;0.0138;-0.0003;-0.0550;
5253430973551439;0.0160;0.0019;-0.0603;
5253430983676230;0.0170;-0.0003;-0.0635;
5253430993774564;0.0138;-0.0035;-0.0635;
5253431003872897;0.0117;-0.0067;-0.0624;
5253431013984564;0.0085;-0.0099;-0.0603;
5253431024082949;0.0107;-0.0088;-0.0550;
5253431034181282;0.0128;-0.0056;-0.0518;
5253431044307949;0.0138;-0.0013;-0.0465;
5253431054406282;0.0149;-0.0013;-0.0422;
5253431064504668;0.0138;-0.0013;-0.0390;
5253431074618418;0.0138;-0.0013;-0.0348;
5253431084716751;0.0117;-0.0024;-0.0326;
5253431094815085;0.0117;-0.0045;-0.0305;
5253431104912689;0.0107;-0.0035;-0.0262;
5253431115011022;0.0075;-0.0045;-0.0209;
5253431125109355;0.0075;-0.0045;-0.0177;
5253431135228314;0.0085;-0.0013;-0.0103;
5253431145326647;0.0075;-0.0024;-0.0049;
5253431155424980;0.0043;-0.0035;-0.0017;
5253431165537689;0.0043;-0.0024;0.0004;
5253431175636022;0.0032;-0.0013;0.0047;
5253431185734407;0.0032;-0.0013;0.0079;
5253431195830501;-0.0000;-0.0013;0.0121;
5253431205928835;0.0021;0.0019;0.0142;
5253431216027168;0.0053;0.0029;0.0164;
5253431226145189;-0.0000;0.0019;0.0142;
5253431236243522;-0.0053;0.0008;0.0132;
5253431246341855;-0.0075;-0.0035;0.0153;
5253431256451335;-0.0096;-0.0067;0.0164;
5253431266553522;-0.0117;-0.0088;0.0185;
5253431276655710;-0.0096;-0.0045;0.0185;
5253431286761126;-0.0075;-0.0003;0.0174;
5253431296863314;-0.0043;0.0019;0.0153;
5253431306965501;-0.0032;0.0040;0.0174;
5253431317079251;-0.0011;0.0061;0.0185;
5253431327181439;-0.0011;0.0051;0.0164;
5253431337283626;-0.0011;0.0040;0.0153;
5253431347394772;-0.0021;0.0061;0.0153;
5253431357496960;-0.0011;0.0083;0.0153;
5253431367599147;-0.0032;0.0061;0.0174;
5253431377695137;-0.0011;0.0051;0.0196;
5253431387797324;-0.0011;0.0029;0.0217;
5253431397899512;-0.0011;-0.0003;0.0260;
5253431407988001;-0.0011;0.0019;0.0281;
5253431418090189;-0.0032;0.0029;0.0292;
5253431428192324;-0.0043;0.0019;0.0324;
5253431438300137;-0.0032;-0.0003;0.0345;
5253431448402324;-0.0032;0.0019;0.0345;
5253431458504564;-0.0011;0.0008;0.0302;
5253431468644407;-0.0011;-0.0013;0.0270;
5253431478746595;-0.0043;0.0029;0.0249;
5253431488848835;-0.0064;0.0083;0.0217;
5253431498917376;-0.0075;0.0083;0.0142;
5253431509019564;-0.0053;0.0093;0.0079;
5253431519121751;-0.0032;0.0083;0.0004;
5253431529254876;-0.0043;0.0040;-0.0092;
5253431539357064;-0.0064;-0.0013;-0.0198;
5253431549459199;-0.0128;-0.0035;-0.0230;
5253431559561335;-0.0415;-0.0024;-0.0220;
5253431569663522;-0.0937;0.0061;-0.0262;
5253431579765710;-0.1363;0.0178;-0.0305;
5253431589875293;-0.1566;0.0210;-0.0305;
5253431599977480;-0.1449;0.0157;-0.0252;
5253431610079720;-0.1055;0.0051;-0.0166;
5253431620178730;-0.0543;-0.0056;-0.0071;
5253431630280918;0.0011;-0.0120;0.0089;
5253431640383105;0.0064;-0.0109;0.0238;
5253431650473939;-0.0011;-0.0088;0.0324;
5253431660576126;-0.0075;-0.0045;0.0387;
5253431670678314;-0.0107;-0.0067;0.0473;
5253431680781647;-0.0128;-0.0077;0.0569;
5253431690883835;-0.0117;-0.0056;0.0590;
5253431700986022;-0.0085;-0.0003;0.0590;
5253431711107220;-0.0064;0.0029;0.0611;
5253431721209460;-0.0053;0.0072;0.0611;
5253431731311647;0.0053;0.0115;0.0579;
5253431741406022;0.0128;0.0104;0.0505;
5253431751508210;0.0021;0.0072;0.0441;
5253431761610397;-0.0085;0.0072;0.0377;
5253431771736178;-0.0064;0.0061;0.0260;
5253431781838366;-0.0032;0.0040;0.0142;
5253431791940553;-0.0021;0.0008;0.0047;
5253431802036178;-0.0053;-0.0024;-0.0071;
5253431812138418;-0.0064;-0.0035;-0.0188;
5253431822240605;-0.0085;-0.0024;-0.0252;
5253431832338366;-0.0213;0.0008;-0.0273;
5253431842440553;-0.0554;0.0061;-0.0284;
5253431852542741;-0.0863;0.0115;-0.0294;
5253431862648314;-0.1023;0.0146;-0.0305;
5253431872750501;-0.0863;0.0072;-0.0230;
5253431882852689;-0.0394;-0.0035;-0.0113;
5253431892962480;0.0128;-0.0109;0.0004;
5253431903064668;0.0075;-0.0120;0.0068;
5253431913166855;0.0021;-0.0120;0.0142;
5253431923283001;-0.0043;-0.0067;0.0249;
5253431933385189;-0.0053;-0.0035;0.0334;
5253431943487376;-0.0085;-0.0045;0.0387;
5253431953567689;-0.0117;-0.0035;0.0419;
5253431963669876;-0.0096;0.0008;0.0430;
5253431973772064;-0.0096;0.0061;0.0430;
5253431983866126;-0.0085;0.0083;0.0419;
5253431993968314;-0.0085;0.0104;0.0356;
5253432004070501;-0.0096;0.0083;0.0302;
5253432014185189;-0.0064;0.0019;0.0228;
5253432024287376;-0.0032;-0.0013;0.0132;
5253432034389564;0.0011;-0.0003;0.0047;
5253432044511803;0.0032;0.0019;-0.0049;
5253432054613991;0.0021;0.0008;-0.0156;
5253432064716230;-0.0011;0.0008;-0.0220;
5253432074807480;-0.0192;-0.0013;-0.0252;
5253432084909668;-0.0639;-0.0013;-0.0305;
5253432095011855;-0.1001;0.0008;-0.0348;
5253432105118105;-0.0991;0.0072;-0.0348;
5253432115220293;-0.0639;0.0136;-0.0316;
5253432125322480;-0.0096;0.0083;-0.0252;
5253432135428314;0.0192;-0.0056;-0.0220;
5253432145530501;0.0043;-0.0141;-0.0209;
5253432155632689;-0.0053;-0.0205;-0.0209;
5253432165731126;-0.0213;-0.0120;-0.0177;
5253432175833314;-0.0256;0.0072;-0.0198;
5253432185935501;0.0107;0.0189;-0.0188;
5253432196031126;0.0256;0.0178;-0.0113;
5253432206133314;0.0138;0.0061;-0.0092;
5253432216235501;-0.0000;-0.0067;-0.0124;
5253432226345605;-0.0053;-0.0099;-0.0134;
5253432236447793;-0.0000;-0.0035;-0.0060;
5253432246549980;0.0075;0.0019;0.0004;
5253432256684460;0.0075;0.0019;-0.0007;
5253432266787585;0.0021;-0.0013;-0.0007;
5253432276890710;-0.0021;-0.0024;0.0057;
5253432286972532;-0.0000;0.0008;0.0089;
5253432297075657;-0.0021;0.0040;0.0036;
5253432307178835;-0.0011;0.0072;-0.0017;
5253432317267376;0.0021;0.0019;0.0004;
5253432327370501;0.0021;-0.0013;0.0025;
5253432337473626;-0.0000;-0.0013;0.0047;
5253432347594980;-0.0032;-0.0013;0.0047;
5253432357698053;-0.0043;-0.0003;0.0068;
5253432367801230;-0.0011;0.0040;0.0089;
5253432377902845;-0.0011;0.0040;0.0100;
5253432388005970;-0.0000;0.0029;0.0079;
5253432398109095;-0.0011;0.0029;0.0057;
5253432408196491;-0.0021;-0.0003;0.0036;
5253432418299616;-0.0021;0.0008;0.0004;
5253432428402741;-0.0011;0.0029;-0.0049;
5253432438499199;-0.0000;0.0029;-0.0113;
5253432448602324;0.0021;-0.0003;-0.0220;
5253432458705449;-0.0064;0.0008;-0.0316;
5253432468811647;-0.0266;-0.0013;-0.0401;
5253432478914772;-0.0309;-0.0003;-0.0507;
5253432489017949;-0.0117;0.0019;-0.0593;
5253432499131387;0.0128;-0.0013;-0.0593;
5253432509234512;0.0245;-0.0035;-0.0646;
5253432519337689;0.0181;-0.0056;-0.0720;
5253432529461803;0.0149;-0.0077;-0.0784;
5253432539564928;0.0192;-0.0056;-0.0827;
5253432549668053;0.0256;-0.0024;-0.0848;
5253432559736230;0.0245;-0.0024;-0.0891;
5253432569839303;0.0245;-0.0003;-0.0901;
5253432579942480;0.0224;0.0008;-0.0869;
5253432590064980;0.0234;0.0008;-0.0827;
5253432600168105;0.0245;0.0008;-0.0806;
5253432610271230;0.0256;-0.0003;-0.0784;
5253432620377376;0.0245;-0.0013;-0.0731;
5253432630480449;0.0234;-0.0035;-0.0656;
5253432640583626;0.0234;-0.0045;-0.0603;
5253432650677220;0.0224;-0.0045;-0.0550;
5253432660780345;0.0234;-0.0045;-0.0529;
5253432670883470;0.0320;-0.0056;-0.0475;
5253432681005032;0.0309;-0.0045;-0.0401;
5253432691108157;0.0043;-0.0013;-0.0326;
5253432701211282;0.0064;-0.0013;-0.0284;
5253432711292428;0.0064;-0.0013;-0.0220;
5253432721395605;0.0053;-0.0024;-0.0156;
5253432731498678;0.0043;-0.0003;-0.0103;
5253432741616074;0.0011;0.0019;-0.0060;
5253432751719199;-0.0011;0.0029;-0.0007;
5253432761822376;-0.0011;0.0040;0.0068;
5253432771936491;-0.0032;0.0019;0.0121;
5253432782039616;-0.0032;-0.0003;0.0164;
5253432792142741;-0.0043;-0.0013;0.0206;
5253432802236282;-0.0064;0.0019;0.0270;
5253432812339460;-0.0064;0.0019;0.0313;
5253432822442585;-0.0053;0.0008;0.0334;
5253432832543053;-0.0075;0.0019;0.0334;
5253432842646178;-0.0075;0.0019;0.0377;
5253432852749303;-0.0085;0.0019;0.0409;
5253432862837897;-0.0096;0.0029;0.0419;
5253432872941022;-0.0085;0.0040;0.0419;
5253432883044147;-0.0096;0.0029;0.0441;
5253432893172116;-0.0107;0.0040;0.0473;
5253432903275241;-0.0117;0.0040;0.0505;
5253432913378366;-0.0117;0.0051;0.0526;
5253432923454668;-0.0117;0.0040;0.0558;
5253432933557793;-0.0128;0.0040;0.0579;
5253432943660918;-0.0117;0.0061;0.0569;
5253432953764303;-0.0096;0.0040;0.0547;
5253432963867428;-0.0096;0.0040;0.0526;
5253432973970553;-0.0096;0.0029;0.0483;
5253432984073366;-0.0075;0.0019;0.0441;
5253432994176491;-0.0075;0.0040;0.0387;
5253433004279668;-0.0085;0.0051;0.0324;
5253433014389720;-0.0075;0.0040;0.0302;
5253433024492897;-0.0085;0.0008;0.0302;
5253433034595970;-0.0085;-0.0035;0.0334;
5253433044712532;-0.0107;-0.0013;0.0409;
5253433054815657;-0.0128;0.0019;0.0483;
5253433064918782;-0.0160;0.0019;0.0547;
5253433075023366;-0.0170;0.0029;0.0611;
5253433085126543;-0.0170;0.0008;0.0675;
5253433095229616;-0.0192;-0.0003;0.0718;
5253433105317741;-0.0181;0.0019;0.0750;
5253433115420866;-0.0192;0.0061;0.0760;
5253433125523991;-0.0181;0.0072;0.0760;
5253433135619303;-0.0160;0.0083;0.0771;
5253433145722428;-0.0149;0.0072;0.0771;
5253433155825553;-0.0160;0.0051;0.0803;
5253433165930970;-0.0170;0.0051;0.0824;
5253433176034095;-0.0181;0.0083;0.0835;
5253433186137220;-0.0181;0.0104;0.0824;
5253433196239303;-0.0170;0.0104;0.0824;
5253433206342480;-0.0181;0.0083;0.0814;
5253433216445605;-0.0170;0.0061;0.0792;
5253433226554043;-0.0192;0.0040;0.0750;
5253433236657168;-0.0160;0.0040;0.0707;
5253433246760293;-0.0160;0.0029;0.0664;
5253433256848835;-0.0149;0.0019;0.0611;
5253433266951647;-0.0117;0.0008;0.0569;
5253433277054407;-0.0117;0.0008;0.0526;
5253433287171647;-0.0117;-0.0003;0.0473;
5253433297274407;-0.0085;0.0029;0.0451;
5253433307377168;-0.0096;0.0040;0.0409;
5253433317520710;-0.0096;0.0029;0.0356;
5253433327623470;-0.0064;0.0040;0.0313;
5253433337726230;-0.0032;0.0029;0.0281;
5253433347776855;-0.0043;0.0029;0.0238;
5253433357879616;-0.0021;0.0019;0.0185;
5253433367982376;-0.0011;0.0029;0.0132;
5253433378116751;-0.0000;0.0008;0.0089;
5253433388219512;0.0011;0.0008;0.0057;
5253433398322272;0.0021;0.0008;0.0004;
5253433408402793;0.0032;0.0019;-0.0039;
5253433418505553;0.0032;-0.0003;-0.0071;
5253433428608314;0.0043;0.0019;-0.0081;
5253433438709564;0.0053;0.0008;-0.0113;
5253433448812324;0.0064;-0.0003;-0.0156;
5253433458915085;0.0107;-0.0003;-0.0177;
5253433469042689;0.0075;-0.0003;-0.0188;
5253433479145449;0.0075;-0.0003;-0.0177;
5253433489248210;0.0075;-0.0003;-0.0209;
5253433499325710;0.0064;-0.0013;-0.0230;
5253433509428470;0.0085;-0.0013;-0.0230;
5253433519531230;0.0096;-0.0035;-0.0241;
5253433529639460;0.0064;-0.0035;-0.0230;
5253433539742220;0.0053;-0.0056;-0.0220;
5253433549844980;0.0064;-0.0035;-0.0198;
5253433559938835;0.0075;-0.0013;-0.0198;
5253433570041595;0.0064;-0.0024;-0.0209;
5253433580144355;0.0064;-0.0013;-0.0198;
5253433590232793;0.0075;0.0019;-0.0188;
5253433600335605;0.0096;0.0040;-0.0166;
5253433610438314;0.0085;0.0051;-0.0156;
5253433620575189;0.0085;0.0051;-0.0145;
5253433630677949;0.0075;0.0029;-0.0124;
5253433640780710;0.0053;0.0008;-0.0092;
5253433650885918;0.0053;0.0029;-0.0092;
5253433660988678;0.0021;-0.0003;-0.0060;
5253433671091439;-0.0011;-0.0045;-0.0017;
5253433681185293;-0.0011;-0.0067;0.0015;
5253433691288053;-0.0000;-0.0035;0.0036;
5253433701390814;-0.0011;0.0019;0.0079;
5253433711482116;-0.0000;0.0061;0.0100;
5253433721584876;0.0021;0.0083;0.0142;
5253433731687637;0.0021;0.0104;0.0174;
5253433741812376;0.0011;0.0061;0.0206;
5253433751915137;-0.0043;0.0051;0.0260;
5253433762017897;-0.0053;0.0040;0.0292;
5253433772121439;-0.0075;0.0040;0.0345;
5253433782224199;-0.0096;0.0029;0.0377;
5253433792326960;-0.0117;-0.0003;0.0430;
5253433802442428;-0.0117;-0.0003;0.0483;
5253433812545189;-0.0128;0.0019;0.0547;
5253433822647949;-0.0138;0.0019;0.0579;
5253433832745189;-0.0149;0.0029;0.0590;
5253433842847949;-0.0160;0.0008;0.0632;
5253433852950710;-0.0138;-0.0003;0.0632;
5253433863057949;-0.0138;0.0019;0.0601;
5253433873160710;-0.0128;0.0019;0.0569;
5253433883263470;-0.0117;0.0008;0.0537;
5253433893370397;-0.0107;0.0019;0.0494;
5253433903473157;-0.0096;0.0008;0.0451;
5253433913575918;-0.0096;0.0008;0.0409;
5253433923643939;-0.0053;0.0019;0.0366;
5253433933746699;-0.0064;0.0019;0.0334;
5253433943849460;-0.0064;0.0019;0.0270;
5253433953975293;-0.0032;0.0019;0.0238;
5253433964078053;-0.0011;0.0040;0.0196;
5253433974180814;-0.0000;0.0019;0.0121;
5253433984279460;0.0011;-0.0003;0.0057;
5253433994382220;0.0011;0.0019;0.0025;
5253434004484980;0.0011;0.0019;-0.0049;
5253434014598210;0.0043;-0.0013;-0.0103;
5253434024700970;0.0053;-0.0013;-0.0145;
5253434034803730;0.0064;-0.0003;-0.0177;
5253434044889355;0.0075;0.0029;-0.0209;
5253434054992116;0.0085;0.0040;-0.0230;
5253434065094824;0.0107;0.0008;-0.0252;
5253434075219876;0.0107;0.0008;-0.0241;
5253434085322637;0.0085;0.0029;-0.0241;
5253434095425397;0.0085;0.0019;-0.0220;
5253434105512376;0.0064;0.0008;-0.0209;
5253434115615137;0.0085;0.0040;-0.0188;
5253434125717897;0.0085;0.0040;-0.0166;
5253434135829564;0.0064;0.0019;-0.0156;
5253434145932324;0.0053;0.0019;-0.0124;
5253434156035085;0.0053;0.0008;-0.0092;
5253434166139564;0.0021;-0.0013;-0.0060;
5253434176242324;0.0021;-0.0003;-0.0028;
5253434186345085;0.0021;-0.0003;0.0025;
5253434196439043;0.0011;-0.0013;0.0089;
5253434206541803;-0.0021;0.0008;0.0142;
5253434216644564;-0.0053;-0.0003;0.0196;
5253434226740710;-0.0043;0.0008;0.0249;
5253434236843470;-0.0053;0.0019;0.0302;
5253434246946230;-0.0064;0.0029;0.0334;
5253434257094199;-0.0075;0.0040;0.0377;
5253434267197532;-0.0085;0.0051;0.0409;
5253434277300866;-0.0075;0.0051;0.0430;
5253434287396022;-0.0096;0.0040;0.0451;
5253434297499303;-0.0096;0.0051;0.0483;
5253434307602689;-0.0096;0.0051;0.0473;
5253434317678939;-0.0075;0.0040;0.0462;
5253434327782272;-0.0075;0.0029;0.0441;
5253434337885605;-0.0096;0.0019;0.0441;
5253434347988991;-0.0085;0.0008;0.0409;
5253434358092324;-0.0085;0.0008;0.0366;
5253434368195657;-0.0085;0.0008;0.0334;
5253434378292428;-0.0064;0.0019;0.0313;
5253434388395814;-0.0043;0.0029;0.0313;
5253434398499147;-0.0032;0.0029;0.0281;
5253434408608574;-0.0032;0.0029;0.0238;
5253434418711907;0.0011;0.0040;0.0217;
5253434428815293;-0.0011;0.0061;0.0206;
5253434438909095;-0.0000;0.0072;0.0164;
5253434449012480;0.0043;0.0072;0.0142;
5253434459115814;0.0096;0.0083;0.0142;
5253434469227689;0.0245;0.0040;0.0153;
5253434479331022;0.0277;-0.0003;0.0153;
5253434489434355;0.0043;-0.0035;0.0142;
5253434499542532;-0.0064;-0.0045;0.0121;
5253434509645866;-0.0075;-0.0035;0.0121;
5253434519749251;-0.0043;-0.0013;0.0132;
5253434529872428;-0.0032;0.0008;0.0174;
5253434539975814;-0.0032;0.0019;0.0185;
5253434550079147;-0.0043;0.0008;0.0196;
5253434560142585;-0.0043;0.0019;0.0238;
5253434570245970;-0.0053;0.0019;0.0249;
5253434580349303;-0.0021;0.0029;0.0228;
5253434590489720;-0.0032;0.0051;0.0217;
5253434600593053;-0.0032;0.0029;0.0228;
5253434610696387;-0.0021;0.0008;0.0228;
5253434620781699;-0.0043;0.0008;0.0196;
5253434630885032;-0.0032;-0.0003;0.0174;
5253434640988418;-0.0000;0.0019;0.0164;
5253434651087220;0.0021;0.0072;0.0174;
5253434661190553;0.0107;0.0136;0.0196;
5253434671293939;0.0330;0.0115;0.0260;
5253434681394407;0.0490;0.0061;0.0324;
5253434691497741;0.0554;0.0029;0.0377;
5253434701601126;0.0554;-0.0024;0.0441;
5253434711700814;0.0394;-0.0003;0.0473;
5253434721804147;0.0043;0.0083;0.0494;
5253434731907428;-0.0181;0.0093;0.0537;
5253434742016699;-0.0160;-0.0003;0.0590;
5253434752120032;-0.0181;-0.0045;0.0696;
5253434762223418;-0.0234;-0.0067;0.0760;
5253434772342376;-0.0256;-0.0035;0.0750;
5253434782445710;-0.0266;-0.0013;0.0739;
5253434792549095;-0.0224;0.0019;0.0771;
5253434802646699;-0.0192;0.0019;0.0782;
5253434812750032;-0.0213;-0.0003;0.0739;
5253434822853366;-0.0192;0.0029;0.0707;
5253434832958678;-0.0117;0.0072;0.0686;
5253434843062064;-0.0096;0.0125;0.0643;
5253434853165397;-0.0075;0.0136;0.0601;
5253434863258678;-0.0075;0.0125;0.0590;
5253434873362012;-0.0064;0.0115;0.0569;
5253434883465397;-0.0064;0.0093;0.0526;
5253434893576595;-0.0064;0.0083;0.0505;
5253434903679928;-0.0064;0.0072;0.0505;
5253434913783314;-0.0075;0.0093;0.0494;
5253434923859668;-0.0075;0.0083;0.0483;
5253434933962949;-0.0075;0.0061;0.0483;
5253434944066335;-0.0096;0.0051;0.0494;
5253434954169407;-0.0085;0.0040;0.0505;
5253434964272741;-0.0085;0.0040;0.0526;
5253434974376126;-0.0075;0.0051;0.0537;
5253434984487637;-0.0064;0.0061;0.0547;
5253434994591022;-0.0075;0.0040;0.0558;
5253435004694355;-0.0075;0.0051;0.0579;
5253435014802220;-0.0064;0.0040;0.0590;
5253435024905553;-0.0107;0.0029;0.0590;
5253435035008887;-0.0138;0.0040;0.0601;
5253435045091178;-0.0138;0.0029;0.0601;
5253435055194512;-0.0149;0.0008;0.0622;
5253435065297845;-0.0128;0.0008;0.0611;
5253435075417845;-0.0138;0.0019;0.0601;
5253435085521178;-0.0117;0.0019;0.0569;
5253435095624564;-0.0096;0.0029;0.0547;
5253435105725345;-0.0096;0.0008;0.0505;
5253435115828678;-0.0085;0.0008;0.0473;
5253435125932064;-0.0107;0.0019;0.0430;
5253435136037949;-0.0085;0.0019;0.0398;
5253435146141335;-0.0256;0.0040;0.0398;
5253435156244668;-0.0011;0.0040;0.0366;
5253435166339616;-0.0043;0.0029;0.0366;
5253435176442949;-0.0107;0.0008;0.0377;
5253435186546335;-0.0032;0.0008;0.0356;
5253435196641126;-0.0181;0.0051;0.0398;
5253435206744460;-0.0277;0.0104;0.0441;
5253435216847793;-0.0522;0.0093;0.0430;
5253435226949564;-0.0288;0.0008;0.0419;
5253435237052845;-0.0021;-0.0035;0.0483;
5253435247156230;-0.0043;-0.0056;0.0558;
5253435257271178;-0.0064;-0.0067;0.0569;
5253435267374095;-0.0021;-0.0056;0.0526;
5253435277477012;-0.0043;-0.0045;0.0473;
5253435287563626;-0.0032;-0.0024;0.0441;
5253435297666543;-0.0011;0.0051;0.0430;
5253435307769460;-0.0032;0.0125;0.0387;
5253435317895032;-0.0011;0.0168;0.0356;
5253435327997949;-0.0011;0.0157;0.0313;
5253435338100866;-0.0032;0.0168;0.0292;
5253435348192116;-0.0064;0.0189;0.0292;
5253435358295032;-0.0085;0.0157;0.0356;
5253435368397949;-0.0107;0.0115;0.0441;
5253435378489616;-0.0107;0.0083;0.0537;
5253435388592532;0.0373;-0.0067;0.0569;
5253435398695449;0.1651;-0.0322;0.0654;
5253435408803678;0.2172;-0.0312;0.0877;
5253435418906595;0.0628;-0.0056;0.1048;
5253435429009564;-0.1150;0.0338;0.0877;
5253435439134564;-0.1822;0.0647;0.0643;
5253435449237428;-0.2929;0.0498;0.0728;
5253435459340397;-0.3025;-0.0056;0.0909;
5253435469440710;-0.1406;-0.0482;0.0973;
5253435479543626;0.0266;-0.0461;0.0824;
5253435489646491;0.0256;-0.0120;0.0558;
5253435499736335;0.0554;0.0285;0.0270;
5253435509839199;0.0458;0.0541;-0.0017;
5253435519942116;-0.0256;0.0360;-0.0358;
5253435530054876;-0.0607;0.0040;-0.0710;
5253435540157741;-0.1395;-0.0109;-0.0987;
5253435550260710;-0.2013;-0.0162;-0.1232;
5253435560351960;-0.1949;-0.0141;-0.1445;
5253435570454876;-0.1619;0.0029;-0.1551;
5253435580557741;-0.1289;0.0232;-0.1594;
5253435590652116;-0.0000;0.0541;-0.1573;
5253435600755032;0.0469;0.0360;-0.1573;
5253435610857949;-0.0788;-0.0173;-0.1647;
5253435620983366;-0.2152;-0.0450;-0.1690;
5253435631086282;-0.2993;-0.0567;-0.1605;
5253435641189199;-0.2983;-0.0344;-0.1509;
5253435651295918;-0.2088;0.0125;-0.1445;
5253435661398835;-0.1182;0.0391;-0.1338;
5253435671501751;-0.1118;0.0232;-0.1178;
5253435681599460;-0.1609;-0.0024;-0.0997;
5253435691702376;-0.2024;-0.0130;-0.0848;
5253435701805293;-0.2173;-0.0141;-0.0688;
5253435711903939;-0.2056;-0.0077;-0.0465;
5253435722006803;-0.1598;0.0115;-0.0209;
5253435732109772;-0.0927;0.0168;0.0025;
5253435742232689;-0.0394;0.0029;0.0281;
5253435752335605;-0.0053;-0.0035;0.0505;
5253435762438522;-0.0075;-0.0003;0.0664;
5253435772545449;-0.0202;-0.0077;0.0846;
5253435782648366;-0.0213;-0.0013;0.1005;
5253435792751282;-0.0107;0.0136;0.1069;
5253435802841907;0.0149;0.0146;0.1016;
5253435812944824;0.0266;0.0125;0.1027;
5253435823047741;-0.0117;0.0061;0.1133;
5253435833152793;-0.0298;0.0008;0.1208;
5253435843255710;-0.0213;-0.0003;0.1186;
5253435853358626;-0.0224;-0.0045;0.1165;
5253435863453105;-0.0181;-0.0045;0.1229;
5253435873556022;0.0096;-0.0024;0.1346;
5253435883658939;0.0586;-0.0088;0.1442;
5253435893771439;0.1023;-0.0152;0.1591;
5253435903874355;0.1417;-0.0130;0.1687;
5253435913977220;0.1619;-0.0077;0.1740;
5253435924064720;0.1513;-0.0035;0.1772;
5253435934167637;0.0969;0.0019;0.1783;
5253435944270553;-0.0096;-0.0035;0.1794;
5253435954385501;-0.0884;-0.0130;0.1783;
5253435964488418;-0.1001;-0.0141;0.1794;
5253435974591335;-0.1885;-0.0099;0.1836;
5253435984693782;-0.2706;0.0019;0.1889;
5253435994796647;-0.2748;0.0210;0.1985;
5253436004899564;-0.2226;0.0285;0.2145;
5253436015004980;-0.1619;0.0253;0.2305;
5253436025107897;-0.1300;0.0146;0.2443;
5253436035210762;-0.1214;0.0040;0.2550;
5253436045342637;-0.0959;-0.0024;0.2678;
5253436055445553;-0.0565;-0.0003;0.2804;
5253436065548470;-0.0554;-0.0003;0.2868;
5253436075631855;-0.0607;-0.0003;0.2847;
5253436085734772;-0.0682;0.0008;0.2826;
5253436095837637;-0.0724;0.0008;0.2826;
5253436105923210;-0.0724;-0.0045;0.2836;
5253436116026126;-0.0778;-0.0067;0.2826;
5253436126128991;-0.1055;-0.0056;0.2794;
5253436136238314;-0.1427;-0.0056;0.2720;
5253436146341230;-0.1832;-0.0056;0.2646;
5253436156444147;-0.2280;-0.0013;0.2550;
5253436166571699;-0.2823;0.0040;0.2454;
5253436176674668;-0.3355;0.0072;0.2358;
5253436186777532;-0.3877;0.0136;0.2230;
5253436196848887;-0.4357;0.0157;0.2124;
5253436206951803;-0.4845;0.0157;0.1975;
5253436217054720;-0.5357;0.0146;0.1815;
5253436227150762;-0.5719;0.0136;0.1666;
5253436237253730;-0.6102;0.0146;0.1591;
5253436247356595;-0.6571;0.0232;0.1485;
5253436257509355;-0.6997;0.0360;0.1325;
5253436267612637;-0.7232;0.0423;0.1186;
5253436277715918;-0.7445;0.0423;0.1080;
5253436287771387;-0.7849;0.0455;0.0973;
5253436297874772;-0.8137;0.0498;0.0835;
5253436307978053;-0.8595;0.0541;0.0675;
5253436318086543;-0.9170;0.0541;0.0558;
5253436328189876;-0.9564;0.0391;0.0419;
5253436338293210;-0.9905;0.0274;0.0313;
5253436348407428;-0.9991;0.0328;0.0217;
5253436358510762;-0.9660;0.0434;0.0100;
5253436368614043;-0.9426;0.0530;0.0004;
5253436378700553;-0.8947;0.0647;0.0068;
5253436388803887;-0.8734;0.0668;0.0228;
5253436398907220;-0.8499;0.0679;0.0324;
5253436409027116;-0.8009;0.0700;0.0270;
5253436419130449;-0.7849;0.0658;0.0196;
5253436429233782;-0.7807;0.0466;0.0142;
5253436439334668;-0.7487;0.0274;0.0153;
5253436449437949;-0.7274;0.0253;0.0206;
5253436459541282;-0.7296;0.0232;0.0196;
5253436469664407;-0.7189;0.0146;-0.0007;
5253436479767741;-0.6965;0.0274;-0.0060;
5253436489871074;-0.6837;0.0509;0.0132;
5253436499955345;-0.6859;0.0615;0.0217;
5253436510058678;-0.6795;0.0775;0.0036;
5253436520161960;-0.6752;0.1126;-0.0156;
5253436530263366;-0.6859;0.1382;-0.0326;
5253436540366699;-0.7051;0.1435;-0.0497;
5253436550470032;-0.7210;0.1350;-0.0433;
5253436560549772;-0.7285;0.1233;-0.0422;
5253436570653053;-0.7327;0.1169;-0.0688;
5253436580756387;-0.7487;0.1105;-0.0997;
5253436590863782;-0.7690;0.1148;-0.1210;
5253436600967116;-0.7700;0.1371;-0.1402;
5253436611070397;-0.7562;0.1393;-0.1466;
5253436621187116;-0.7562;0.1148;-0.1423;
5253436631290449;-0.7679;0.1137;-0.1317;
5253436641393782;-0.7519;0.1414;-0.1423;
5253436651500345;-0.7019;0.1616;-0.1636;
5253436661603678;-0.6582;0.1776;-0.1956;
5253436671707012;-0.6166;0.2000;-0.1850;
5253436681788991;-0.5730;0.1915;-0.1423;
5253436691892324;-0.5304;0.1553;-0.1317;
5253436701995657;-0.4856;0.1340;-0.1530;
5253436712104303;-0.4229;0.1371;-0.1850;
5253436722207637;-0.3494;0.1851;-0.1860;
5253436732310970;-0.3025;0.2158;-0.1509;
5253436742423001;-0.3100;0.1798;-0.1306;
5253436752526282;-0.3270;0.1457;-0.1338;
5253436762629616;-0.3398;0.1340;-0.1605;
5253436772745449;-0.3419;0.1190;-0.1945;
5253436782848782;-0.3260;0.1169;-0.1807;
5253436792952116;-0.3132;0.1446;-0.1551;
5253436803048887;-0.3292;0.1776;-0.1487;
5253436813152220;-0.3441;0.2011;-0.1754;
5253436823255501;-0.3249;0.2128;-0.1892;
5253436833348314;-0.2770;0.2403;-0.1487;
5253436843451699;-0.2418;0.2489;-0.1200;
5253436853554980;-0.2162;0.2340;-0.1551;
5253436863652220;-0.1459;0.3383;-0.1807;
5253436873755553;-0.1353;0.4289;-0.1668;
5253436883858887;-0.0586;0.3437;-0.1530;
5253436893967637;0.0426;0.2435;-0.1349;
5253436904070970;0.1001;0.2340;-0.1402;
5253436914174303;0.0852;0.2190;-0.1711;
5253436924267845;0.0597;0.1893;-0.2158;
5253436934371178;0.0575;0.2169;-0.2137;
5253436944474512;0.0224;0.2393;-0.2126;
5253436954596647;-0.0778;0.1371;-0.2798;
5253436964699980;-0.1854;0.0125;-0.3106;
5253436974803314;-0.0842;0.1233;-0.2158;
5253436984897845;-0.0352;0.2925;-0.1743;
5253436995001178;-0.1736;0.2925;-0.2329;
5253437005104512;-0.2173;0.2947;-0.2680;
5253437015202637;-0.1587;0.3362;-0.2606;
5253437025305970;-0.1321;0.3128;-0.2798;
5253437035409303;-0.2003;0.1883;-0.3734;
5253437045489460;-0.3004;0.0924;-0.3574;
5253437055592793;-0.2258;0.1691;-0.2254;
5253437065696126;-0.1822;0.2414;-0.1754;
5253437075822637;-0.1704;0.1297;-0.2840;
5253437085925970;-0.1076;0.1276;-0.3361;
5253437096029303;-0.0522;0.2723;-0.2861;
5253437106122845;-0.2652;0.0232;-0.3224;
5253437116226178;-0.3302;-0.3944;-0.3798;
5253437126329512;-0.1651;-0.3102;-0.3787;
5253437136443053;-0.1150;-0.0056;-0.2595;
5253437146546439;0.0426;0.0498;-0.2510;
5253437156649720;0.3471;0.0125;-0.2499;
5253437166754199;0.7306;0.2371;-0.1605;
5253437176857532;0.8498;0.2947;-0.0976;
5253437186960866;0.5527;-0.1590;-0.1839;
5253437197046491;0.5069;-0.3220;-0.2073;
5253437207149824;0.7114;-0.0184;-0.1285;
5253437217253157;0.7869;0.0945;-0.0912;
5253437227354772;0.7880;-0.0280;-0.0987;
5253437237458105;0.9957;-0.0003;-0.0603;
5253437247561387;1.2759;0.1883;-0.0060;
5253437257672116;1.3132;0.1521;0.0260;
5253437267789043;1.2162;-0.1057;0.0292;
5253437277891855;1.3876;-0.1036;0.0334;
5253437287994616;1.6220;0.0956;0.0707;
5253437298076595;1.6997;0.1297;0.1027;
5253437308179355;1.5836;0.0647;0.1570;
5253437318282168;1.4483;-0.0248;0.1900;
5253437328369876;1.3036;-0.1611;0.1804;
5253437338472637;1.1363;-0.1771;0.1676;
5253437348575449;0.9851;-0.0972;0.1740;
5253437358722585;0.8668;-0.0429;0.1794;
5253437368825345;0.7848;-0.0770;0.1900;
5253437378928157;0.7370;-0.0546;0.1538;
5253437389024876;0.7061;0.0700;0.1144;
5253437399127689;0.5453;0.0029;0.0952;
5253437409230449;0.2150;-0.1675;0.1112;
5253437419332428;0.0256;-0.1334;0.0973;
5253437429435189;-0.0043;-0.1089;0.0526;
5253437439538001;0.0277;-0.1771;0.0185;
5253437449621647;0.0447;-0.1036;-0.0071;
5253437459724407;0.0170;0.0647;-0.0316;
5253437469827220;-0.0373;0.2106;-0.0603;
5253437479929772;-0.1289;0.1595;-0.0656;
5253437490032585;-0.2429;-0.0780;-0.0326;
5253437500135345;-0.2961;-0.1654;-0.0294;
5253437510246282;-0.2322;-0.0439;-0.0816;
5253437520349043;-0.1204;0.0008;-0.1157;
5253437530451855;-0.1204;-0.0791;-0.1157;
5253437540560814;-0.1236;-0.1238;-0.0965;
5253437550663574;-0.0543;-0.0620;-0.0838;
5253437560766387;-0.0085;0.0285;-0.1019;
5253437570870501;-0.0085;-0.0130;-0.1008;
5253437580973314;0.0266;-0.0312;-0.0955;
5253437591076074;0.0447;-0.0099;-0.1019;
5253437601174147;0.0703;-0.0450;-0.1019;
5253437611276907;0.1310;-0.0269;-0.0997;
5253437621379720;0.2342;0.0360;-0.1136;
5253437631478522;0.2651;0.0125;-0.1168;
5253437641581282;0.2033;-0.1057;-0.0976;
5253437651684095;0.1692;-0.0802;-0.0859;
5253437661799616;0.1703;-0.0344;-0.0848;
5253437671902376;0.1682;-0.0802;-0.1019;
5253437682005189;0.1852;-0.0844;-0.1285;
5253437692120397;0.2257;-0.0152;-0.1232;
5253437702223157;0.2310;0.0551;-0.0859;
5253437712325970;0.1799;0.0530;-0.0656;
5253437722424980;0.1044;-0.0354;-0.0774;
5253437732527741;0.0352;-0.1025;-0.0965;
5253437742630553;0.0320;-0.0876;-0.0955;
5253437752723626;0.0628;-0.0333;-0.0795;
5253437762826439;0.0714;-0.0152;-0.0742;
5253437772929199;0.0735;-0.0045;-0.0795;
5253437783049251;0.0490;0.0072;-0.0795;
5253437793152012;0.0277;0.0093;-0.0763;
5253437803254824;0.0202;0.0509;-0.0571;
5253437813356647;0.0085;0.1052;-0.0507;
5253437823459407;0.0138;0.1414;-0.0635;
5253437833562220;-0.0298;0.0828;-0.0678;
5253437843652689;-0.1225;-0.0056;-0.0529;
5253437853755449;-0.0991;0.0019;-0.0294;
5253437863858262;-0.0895;-0.0301;-0.0198;
5253437873973626;-0.2248;-0.2208;-0.0177;
5253437884076387;-0.2897;-0.2325;-0.0284;
5253437894179199;-0.2855;-0.1174;-0.0220;
5253437904275918;-0.2365;-0.1057;-0.0134;
5253437914378678;-0.1587;-0.0855;-0.0103;
5253437924481491;-0.0746;-0.0045;-0.0188;
5253437934580501;0.0575;0.1499;-0.0422;
5253437944683262;-0.0000;0.1861;-0.0390;
5253437954786074;-0.2546;-0.0812;0.0132;
5253437964881230;-0.2791;-0.1664;0.0260;
5253437974983991;-0.1875;-0.0013;-0.0177;
5253437985086803;-0.1332;-0.0056;-0.0433;
5253437995189251;-0.0724;-0.1089;-0.0486;
5253438005292012;-0.0138;-0.0567;-0.0145;
5253438015394824;-0.0202;0.0690;-0.0209;
5253438025510397;-0.1023;0.0445;-0.0507;
5253438035613157;-0.2013;-0.0344;-0.0305;
5253438045715970;-0.2493;-0.0152;-0.0241;
5253438055828626;-0.2450;0.0722;-0.0731;
5253438065931387;-0.2567;0.0328;-0.1221;
5253438076034199;-0.3068;-0.0706;-0.1445;
5253438086131491;-0.3419;-0.0290;-0.1423;
5253438096234303;-0.4048;-0.0013;-0.1445;
5253438106337116;-0.4973;-0.0940;-0.1711;
5253438116427116;-0.5847;-0.0897;-0.2020;
5253438126529928;-0.6550;0.0274;-0.2531;
5253438136632689;-0.7146;0.0913;-0.3043;
5253438146735605;-0.7935;0.0498;-0.3350;
5253438156838366;-0.8712;0.0253;-0.3499;
5253438166941178;-0.8425;0.1180;-0.3936;
5253438177034251;-0.8510;0.2106;-0.4362;
5253438187137064;-0.8819;0.1776;-0.4192;
5253438197239824;-0.8041;0.1116;-0.4330;
5253438207377949;-0.6933;0.0189;-0.4948;
5253438217480762;-0.5623;-0.0290;-0.5023;
5253438227583522;-0.3707;-0.0013;-0.4660;
5253438237671022;-0.1939;0.0221;-0.4682;
5253438247773782;-0.1055;0.0583;-0.4533;
5253438257876595;-0.0852;-0.0003;-0.4138;
5253438268002845;0.1470;0.1467;-0.4234;
5253438278105970;0.3834;0.4917;-0.3734;
5253438288209043;0.3024;0.5343;-0.3425;
5253438298269824;0.2172;0.3565;-0.3489;
5253438308372897;0.2864;0.1872;-0.3670;
5253438318476022;0.3535;0.1063;-0.3266;
5253438328625710;0.2853;0.1041;-0.2925;
5253438338728782;-0.0149;0.1020;-0.3075;
5253438348831907;-0.1545;0.0764;-0.3670;
5253438358895345;-0.1065;0.0189;-0.4245;
5253438368998470;-0.0383;-0.0386;-0.3957;
5253438379101595;0.0714;-0.0450;-0.3670;
5253438389200866;0.1257;0.0051;-0.3893;
5253438399303939;0.0895;0.0434;-0.4011;
5253438409407064;0.1214;0.1180;-0.4000;
5253438419531907;0.1449;0.1979;-0.3979;
5253438429634980;0.1703;0.1840;-0.3712;
5253438439738105;0.2363;0.1499;-0.3435;
5253438449828730;0.2790;0.1158;-0.3309;
5253438459931803;0.2939;-0.0077;-0.2851;
5253438470034928;0.2928;-0.0663;-0.2947;
5253438480150814;0.2896;-0.0162;-0.2787;
5253438490253887;0.3205;-0.0077;-0.2457;
5253438500356960;0.3290;0.0285;-0.2169;
5253438510445137;0.3098;0.0232;-0.1626;
5253438520548262;0.2864;-0.0045;-0.1242;
5253438530651387;0.2672;0.0051;-0.1509;
5253438540763939;0.2715;-0.0674;-0.1264;
5253438550867012;0.2992;-0.0652;-0.0475;
5253438560970137;0.3130;0.0530;-0.0230;
5253438571067689;0.3280;0.1254;-0.0252;
5253438581170762;0.3130;0.1904;-0.0134;
5253438591273835;0.3173;0.2340;-0.0188;
5253438601368314;0.3184;0.1755;0.0174;
5253438611471439;0.3003;0.1105;0.0121;
5253438621574564;0.2981;0.0200;-0.0273;
5253438631687793;0.2726;-0.1015;0.0047;
5253438641790866;0.2065;-0.2048;0.0377;
5253438651893991;0.1767;-0.2676;0.0089;
5253438661990085;0.1363;-0.1846;-0.0379;
5253438672093157;0.1587;-0.0525;-0.0358;
5253438682196282;0.2502;0.0093;-0.0124;
5253438692315189;0.3045;0.0519;-0.0475;
5253438702418262;0.3237;0.0839;-0.0571;
5253438712521387;0.3418;0.0796;-0.0795;
5253438722609980;0.3599;-0.0493;-0.0838;
5253438732713053;0.3194;-0.2314;-0.0624;
5253438742816178;0.2630;-0.2549;-0.0891;
5253438752931335;0.2204;-0.1835;-0.1168;
5253438763034407;0.1937;-0.1164;-0.1296;
5253438773137480;0.2438;-0.0205;-0.1423;
5253438783252741;0.3482;0.0935;-0.1711;
5253438793355814;0.4696;0.1616;-0.1647;
5253438803458939;0.5346;0.0349;-0.1498;
5253438813522897;0.5005;-0.1707;-0.1839;
5253438823626022;0.4100;-0.1313;-0.1903;
5253438833729095;0.4355;-0.1057;-0.2052;
5253438843857689;0.4451;-0.1579;-0.2190;
5253438853960762;0.4494;-0.0738;-0.1967;
5253438864063887;0.5250;-0.0152;-0.2126;
5253438874178210;0.5559;-0.0216;-0.2371;
5253438884281282;0.5453;-0.0269;-0.2254;
5253438894384407;0.5815;0.0935;-0.2244;
5253438904474668;0.7125;0.2776;-0.1924;
5253438914577741;0.7997;0.2169;-0.1764;
5253438924680866;0.8093;-0.0056;-0.1242;
5253438934783001;0.7040;0.0615;-0.1296;
5253438944886074;0.6987;0.2510;-0.1296;
5253438954989199;0.6976;0.0679;-0.0880;
5253438965081126;0.5623;-0.0972;-0.0273;
5253438975184199;0.4622;-0.0919;-0.0134;
5253438985287324;0.4015;-0.2410;-0.0166;
5253438995387741;0.3748;-0.2719;-0.0273;
5253439005490866;0.3876;-0.1760;0.0228;
5253439015593991;0.4739;-0.0237;0.0686;
5253439025701543;0.5921;0.1521;0.0579;
5253439035804616;0.7232;0.3405;0.0632;
5253439045907689;0.7774;0.3799;0.1101;
5253439056004512;0.6443;0.2361;0.1336;
5253439066107585;0.4686;-0.1025;0.1485;
5253439076210710;0.3290;-0.0205;0.1122;
5253439086313730;0.3834;0.2648;0.1165;
5253439096427897;0.4302;0.3011;0.1474;
5253439106530970;0.4025;0.2553;0.1985;
5253439116634095;0.3439;0.1851;0.1804;
5253439126741491;0.3226;0.0349;0.1996;
5253439136844564;0.3088;-0.0141;0.2198;
5253439146947689;0.3482;0.1009;0.2667;
5253439157035293;0.3887;0.0541;0.2783;
5253439167138366;0.3525;-0.1249;0.2678;
5253439177241491;0.3418;-0.0961;0.2720;
5253439187357324;0.3684;0.0509;0.2740;
5253439197460449;0.4100;0.0573;0.2996;
5253439207563574;0.3929;-0.0003;0.2921;
5253439217669460;0.3301;0.0402;0.2571;
5253439227772532;0.3557;0.1073;0.2145;
5253439237875657;0.3706;0.1158;0.1826;
5253439247975762;0.3589;0.0935;0.1794;
5253439258078835;0.2992;0.1318;0.1229;
5253439268181960;0.2885;0.1531;0.0909;
5253439278267689;0.3003;0.1553;0.0707;
5253439288370397;0.2566;0.0317;0.0387;
5253439298473157;0.1577;-0.0045;0.0270;
5253439308561907;0.1087;0.1563;-0.0273;
5253439318664668;0.2459;0.0999;-0.0241;
5253439328767376;0.2001;-0.1537;-0.0348;
5253439338905605;0.0053;-0.2410;-0.0369;
5253439349008366;-0.0511;-0.0290;-0.0763;
5253439359111074;0.1332;0.0722;-0.1146;
5253439369215189;0.3226;-0.0631;-0.0752;
5253439379317897;0.2555;-0.1356;-0.0933;
5253439389420657;0.2406;-0.0184;-0.0901;
5253439399509251;0.3578;0.0754;-0.0784;
5253439409612012;0.3716;0.0775;-0.0486;
5253439419714720;0.3461;0.0743;-0.0518;
5253439429816126;0.3397;0.0658;-0.0241;
5253439439918887;0.3194;0.0306;-0.0156;
5253439450021595;0.2949;-0.1505;0.0164;
5253439460133730;0.2033;-0.1174;0.0675;
5253439470236491;0.2853;0.0583;0.0760;
5253439480339199;0.4100;0.0871;0.0877;
5253439490448105;0.3770;-0.0258;0.1293;
5253439500550814;0.3141;0.0370;0.1815;
5253439510653574;0.2949;0.0477;0.2017;
5253439520742532;0.2726;-0.1515;0.2433;
5253439530845241;0.2481;-0.1451;0.2369;
5253439540948001;0.2864;-0.0322;0.2390;
5253439551071126;0.3237;-0.0684;0.2751;
5253439561173835;0.3035;-0.0706;0.3060;
5253439571276595;0.2896;-0.0173;0.3273;
5253439581368314;0.2800;0.0530;0.3039;
5253439591471074;0.2992;0.1105;0.2953;
5253439601573782;0.2822;0.0040;0.3071;
5253439611684616;0.2150;-0.0471;0.3379;
5253439621787324;0.2012;0.0605;0.3539;
5253439631890085;0.2513;-0.0184;0.3539;
5253439641989147;0.1905;-0.1835;0.3901;
5253439652091855;0.0650;-0.0652;0.3731;
5253439662194616;0.0213;0.1585;0.3539;
5253439672301855;0.1692;0.1371;0.3635;
5253439682404564;0.2374;0.0370;0.3901;
5253439692507324;0.1055;0.1095;0.3742;
5253439702611647;0.0213;0.2075;0.3667;
5253439712714355;-0.0618;-0.0961;0.3806;
5253439722817116;-0.3611;-0.3220;0.3422;
5253439732913626;-0.6550;-0.0141;0.2879;
5253439743016335;-0.6113;0.2467;0.2433;
5253439753119095;-0.2461;0.2308;0.2305;
5253439763223835;-0.0309;0.1499;0.2475;
5253439773326595;-0.1513;0.1915;0.2337;
5253439783429303;-0.2269;0.2510;0.2039;
5253439793548939;-0.2024;0.0530;0.2113;
5253439803651647;-0.3920;-0.1366;0.1826;
5253439813754407;-0.6049;0.0253;0.1506;
5253439823851439;-0.5421;0.1776;0.1357;
5253439833954147;-0.3451;-0.1079;0.1293;
5253439844056907;-0.4325;-0.1931;0.0952;
5253439854159355;-0.5666;0.0562;0.0835;
5253439864262064;-0.3952;0.1819;0.0782;
5253439874364824;-0.0192;0.2222;0.0579;
5253439884459980;0.1140;0.1957;0.0963;
5253439894562689;-0.0426;-0.0301;0.1165;
5253439904665449;-0.2599;-0.1121;0.1176;
5253439914773730;-0.4877;-0.1302;0.0835;
5253439924876491;-0.4378;0.0136;0.0196;
5253439934979199;-0.2375;0.2489;0.0451;
5253439945073626;-0.0469;0.1510;0.0430;
5253439955176335;0.0597;-0.0109;0.0750;
5253439965279095;-0.1374;-0.1366;0.0792;
5253439975391230;-0.2876;-0.2783;0.0622;
5253439985493939;-0.3164;-0.2367;0.0526;
5253439995596699;-0.2375;-0.1409;0.0334;
5253440005700605;-0.0810;-0.0301;0.0824;
5253440015803366;0.0383;0.1233;0.0877;
5253440025906074;0.2150;0.0700;0.0803;
5253440035999772;0.1927;-0.0919;0.0814;
5253440046102480;0.0138;0.0498;0.0739;
5253440056205241;-0.0469;0.0860;0.0803;
5253440066329876;-0.0916;-0.1824;0.0643;
5253440076432585;-0.1374;-0.1483;0.0025;
5253440086535345;-0.1118;-0.0684;-0.0081;
5253440096627897;-0.0309;-0.1909;-0.0081;
5253440106730605;-0.0639;-0.1675;0.0302;
5253440116833366;-0.0735;-0.0354;0.0377;
5253440126947272;0.0373;0.1329;-0.0007;
5253440137049980;0.2502;0.2212;-0.0113;
5253440147152741;0.4345;-0.1057;-0.0177;
5253440157233366;0.2758;-0.2240;0.0132;
5253440167336126;-0.0330;0.1851;0.0441;
5253440177438835;0.0607;0.1691;0.0473;
5253440187536543;0.2523;-0.0386;0.0345;
5253440197639303;0.1353;0.0711;0.0057;
5253440207742012;0.0160;0.0903;0.0419;
5253440217843053;0.0586;-0.0397;0.0451;
5253440227945814;0.0309;-0.0205;0.0366;
5253440238048574;-0.0277;0.0040;0.0675;
5253440248168522;-0.0000;-0.0120;0.1229;
5253440258271230;0.0245;-0.0216;0.1282;
5253440268373939;-0.0043;-0.1025;0.1133;
5253440278466803;-0.0224;-0.0866;0.1197;
5253440288569772;-0.0138;0.0860;0.1421;
5253440298672741;0.0415;0.2744;0.1634;
5253440308775293;0.1310;0.4406;0.1932;
5253440318878210;0.2225;0.1403;0.1858;
5253440328981230;0.1714;-0.2687;0.2113;
5253440339103782;-0.1800;0.0423;0.2145;
5253440349206803;-0.3856;0.2702;0.2230;
5253440359309720;-0.1630;-0.0983;0.2475;
5253440369426803;-0.1193;-0.3614;0.2486;
5253440379529824;-0.4325;-0.1632;0.2561;
5253440389632793;-0.5293;-0.0663;0.2156;
5253440399714564;-0.1779;-0.0642;0.2454;
5253440409817532;-0.1023;-0.2538;0.2539;
5253440419920501;-0.1981;-0.3220;0.3113;
5253440430018053;-0.3494;0.1222;0.2953;
5253440440121022;-0.3707;0.3181;0.3177;
5253440450223991;-0.0565;0.0136;0.2794;
5253440460327845;0.0383;0.0360;0.2593;
5253440470430814;-0.1832;0.1425;0.2847;
5253440480533835;-0.1779;-0.0173;0.3017;
5253440490644564;-0.2130;-0.0844;0.2826;
5253440500747480;-0.4686;0.0370;0.2975;
5253440510850501;-0.5090;0.1095;0.2646;
5253440520944095;-0.3707;-0.0652;0.1975;
5253440531047116;-0.4090;-0.3092;0.1666;
5253440541150085;-0.6316;-0.1963;0.1666;
5253440551271282;-0.7668;0.0509;0.1431;
5253440561374303;-0.5964;0.0690;0.0984;
5253440571477272;-0.2897;-0.0642;0.0771;
5253440581567480;-0.2450;-0.0738;0.0814;
5253440591670397;-0.3355;0.0573;0.1005;
5253440601773418;-0.3462;0.2968;0.0941;
5253440611878105;-0.2386;0.3288;0.1048;
5253440621981074;-0.1097;-0.0610;0.0601;
5253440632084043;-0.2045;-0.1409;0.0228;
5253440642186543;-0.5538;0.0306;0.0590;
5253440652289512;-0.5953;-0.2229;0.0121;
5253440662392480;-0.4728;-0.4294;-0.0156;
5253440672498730;-0.6795;-0.1121;-0.0188;
5253440682601699;-0.7913;0.1180;-0.0103;
5253440692704668;-0.4984;-0.1111;-0.0486;
5253440702806543;-0.3473;0.0679;-0.1200;
5253440712909512;-0.4537;0.4608;-0.0656;
5253440723012480;-0.3473;0.3085;-0.0827;
5253440733125814;-0.2663;0.0008;-0.1455;
5253440743228782;-0.5069;0.1350;-0.1711;
5253440753331751;-0.7104;0.3863;-0.1541;
5253440763421335;-0.5037;0.2574;-0.1711;
5253440773524303;-0.3600;0.0732;-0.1850;
5253440783627272;-0.4931;0.3224;-0.2031;
5253440793747532;-0.4357;0.4587;-0.1903;
5253440803850501;-0.2514;0.1648;-0.2084;
5253440813953522;-0.2993;0.0999;-0.2212;
5253440824042480;-0.4707;0.2297;-0.2105;
5253440834145449;-0.4547;0.0487;-0.2499;
5253440844248418;-0.3792;-0.2186;-0.2872;
5253440854360085;-0.4867;-0.3678;-0.3192;
5253440864463053;-0.5868;-0.3571;-0.3043;
5253440874566022;-0.5229;-0.3145;-0.3403;
5253440884669460;-0.3334;-0.3049;-0.3585;
5253440894772428;-0.1949;0.0455;-0.3320;
5253440904875397;-0.1033;0.2670;-0.2979;
5253440914976230;-0.0138;0.0509;-0.2936;
5253440925079147;0.0447;-0.0780;-0.3032;
5253440935182168;-0.0937;0.1212;-0.3245;
5253440945276751;-0.1843;0.1521;-0.3298;
5253440955379720;-0.2599;-0.1675;-0.3542;
5253440965482637;-0.3547;-0.1877;-0.3638;
5253440975581178;-0.4462;-0.1345;-0.4043;
5253440985684147;-0.3462;-0.1164;-0.4075;
5253440995787116;-0.1736;0.1276;-0.4138;
5253441005902428;-0.0703;0.2883;-0.4085;
5253441016005397;0.1055;0.3479;-0.3691;
5253441026108366;0.2097;0.4981;-0.3712;
5253441036199512;0.2001;0.3948;-0.3085;
5253441046302480;0.1703;0.2553;-0.2510;
5253441056405449;0.1502;0.4182;-0.2371;
5253441066529303;-0.0202;0.2212;-0.2542;
5253441076632220;-0.1704;-0.2059;-0.2680;
5253441086735189;-0.2908;-0.3667;-0.2606;
5253441096814095;-0.3366;-0.1270;-0.2563;
5253441106917064;-0.2088;-0.0578;-0.2936;
5253441117020032;-0.0277;-0.0695;-0.2925;
5253441127147116;0.0511;0.1158;-0.2819;
5253441137250085;0.1619;0.2787;-0.2648;
5253441147353053;0.2566;0.2499;-0.2446;
5253441157427168;0.1449;-0.0407;-0.2340;
5253441167530137;0.0810;-0.1270;-0.2105;
5253441177633105;-0.0373;-0.1270;-0.2095;
5253441187739564;0.0192;-0.2293;-0.2361;
5253441197842532;0.1703;-0.0429;-0.2180;
5253441207945501;0.2555;0.0285;-0.1988;
5253441218061595;0.3120;-0.0812;-0.1732;
5253441228164512;0.3482;0.0051;-0.1274;
5253441238267480;0.3301;0.0839;-0.1083;
5253441248378887;0.4047;0.1403;-0.0976;
5253441258481855;0.3802;0.0807;-0.0635;
5253441268584824;0.2395;-0.0663;-0.0411;
5253441278694928;0.1033;-0.1068;-0.0411;
5253441288798210;0.0788;0.0487;-0.0134;
5253441298901439;0.1257;0.1148;-0.0017;
5253441308958053;0.1449;-0.0237;-0.0433;
5253441319061335;0.0799;-0.0226;-0.0337;
5253441329164564;0.0479;0.0530;-0.0103;
5253441339291387;0.1065;0.1638;0.0047;
5253441349394668;0.1023;0.0764;0.0025;
5253441359497897;0.0170;-0.0642;-0.0017;
5253441369588053;-0.0213;0.0711;-0.0177;
5253441379691335;0.0170;0.1052;-0.0358;
5253441389794564;0.0511;0.0253;-0.0443;
5253441399907012;0.0149;0.0093;-0.0656;
5253441410010293;-0.0064;-0.0642;-0.0752;
5253441420113522;-0.0021;-0.1249;-0.0784;
5253441430219616;0.0149;-0.1558;-0.0699;
5253441440322897;0.0021;-0.2847;-0.0646;
5253441450426126;-0.0447;-0.4092;-0.0848;
5253441460529564;-0.0394;-0.3145;-0.1104;
5253441470632845;0.0948;0.0093;-0.1178;
5253441480736074;0.2321;0.0402;-0.1178;
5253441490834564;0.3407;-0.2229;-0.0901;
5253441500937845;0.1969;-0.1324;-0.0816;
5253441511041074;0.0671;0.0360;-0.0848;
5253441521147324;0.1724;-0.1089;-0.1306;
5253441531250605;0.2012;-0.1505;-0.1221;
5253441541353835;0.1289;-0.0407;-0.1146;
5253441551471543;0.1735;0.0274;-0.1189;
5253441561574772;0.2811;0.0786;-0.1349;
5253441571678053;0.3716;0.1830;-0.1136;
5253441581771595;0.3929;0.2021;-0.0678;
5253441591874876;0.3439;0.1158;-0.0411;
5253441601978105;0.2427;0.0860;-0.0017;
5253441612083157;0.1353;0.0477;-0.0028;
5253441622186439;0.1097;-0.0961;0.0025;
5253441632289668;0.1129;0.0093;0.0281;
5253441642381387;0.1692;0.2403;0.0217;
5253441652484668;0.2545;0.0509;0.0632;
5253441662587897;0.1873;-0.1164;0.0419;
5253441672696282;0.1012;0.1158;0.0292;
5253441682799564;0.1193;0.0594;0.0547;
5253441692902793;0.1470;-0.1792;0.0515;
5253441703001907;0.0703;-0.1238;0.0483;
5253441713105189;0.0202;-0.1707;0.0356;
5253441723208418;0.0916;-0.1973;0.0494;
5253441733316647;0.1353;-0.0482;0.0483;
5253441743419928;0.1662;-0.0045;0.0537;
5253441753523157;0.2406;0.0285;0.0643;
5253441763625657;0.2683;0.1148;0.0899;
5253441773728939;0.2843;0.2340;0.1122;
5253441783832168;0.2608;0.1148;0.1293;
5253441793938991;0.1916;-0.0290;0.1325;
5253441804042272;0.1140;0.0967;0.1272;
5253441814145501;0.0607;-0.0099;0.1410;
5253441824246803;0.0799;0.0253;0.1442;
5253441834350085;0.1481;0.4023;0.1453;
5253441844453314;0.1895;0.3192;0.1602;
5253441854555657;0.2246;0.1350;0.1570;
5253441864658939;0.0660;0.1808;0.1772;
5253441874762168;-0.1278;0.1286;0.1858;
5253441884856803;-0.2450;-0.0152;0.1495;
5253441894960085;-0.3036;-0.0269;0.1389;
5253441905063314;-0.3515;0.0349;0.1005;
5253441915183053;-0.2940;-0.0344;0.0675;
5253441925286335;-0.2695;-0.0844;0.0185;
5253441935389564;-0.2535;0.1031;0.0004;
5253441945481595;-0.1747;0.1510;-0.0049;
5253441955584876;-0.0511;0.0189;-0.0209;
5253441965688105;-0.0692;0.0253;-0.0166;
5253441975784980;-0.1747;-0.0173;-0.0475;
5253441985888262;-0.1023;-0.0365;-0.0475;
5253441995991491;-0.0213;0.0455;-0.0752;
5253442006101699;0.0650;0.1883;-0.0816;
5253442016204928;0.1172;0.2053;-0.0635;
5253442026308210;0.0969;0.0711;-0.0422;
5253442036395241;0.0288;0.0306;-0.0134;
5253442046498522;-0.0043;0.0477;-0.0241;
5253442056601751;0.0128;0.0317;-0.0475;
5253442066713314;0.0064;-0.0035;-0.0358;
5253442076816543;-0.0075;-0.1334;-0.0284;
5253442086919772;-0.0000;-0.0439;-0.0230;
5253442097013678;0.0277;0.1883;-0.0177;
5253442107116960;0.0149;0.0051;-0.0177;
5253442117220241;0.0245;-0.1217;-0.0593;
5253442127364824;-0.0032;0.0434;-0.0401;
5253442137468105;-0.0352;-0.0354;-0.0316;
5253442147571335;-0.0149;-0.1590;-0.0273;
5253442157628835;-0.0202;-0.1675;-0.0145;
5253442167732116;0.0053;-0.0226;-0.0390;
5253442177835397;0.0969;0.1020;0.0025;
5253442187949407;0.0905;-0.0780;0.0089;
5253442198052637;0.1257;-0.0866;0.0356;
5253442208155918;0.1108;0.2382;0.0366;
5253442218242741;0.1406;0.3170;0.0547;
5253442228346022;0.1778;0.0541;0.0760;
5253442238449251;0.0842;-0.1483;0.0537;
5253442248580762;-0.0820;-0.0578;0.0888;
5253442258664407;-0.1875;-0.0770;0.0505;
5253442268767689;-0.2216;-0.3294;0.0142;
5253442278870918;-0.0714;0.0668;0.0281;
5253442288996907;0.0597;0.4790;0.0302;
5253442299100189;0.0916;0.1478;0.0451;
5253442309203418;0.1502;-0.2559;0.0632;
5253442319287428;0.0501;0.0306;0.0345;
5253442329390710;-0.1363;0.2553;0.0430;
5253442339493939;-0.1630;-0.1760;0.0494;
5253442349597845;-0.0362;-0.2293;0.0185;
5253442359701126;-0.1044;-0.0184;-0.0316;
5253442369804355;-0.1726;-0.1260;-0.0379;
5253442379928157;0.0149;0.0232;-0.0518;
5253442390031439;0.0021;-0.0866;-0.0113;
5253442400134668;-0.0703;-0.2016;-0.0028;
5253442410206282;-0.0746;0.0519;-0.0390;
5253442420309564;-0.1715;-0.3571;-0.0688;
5253442430412793;-0.0543;-0.2975;-0.0475;
5253442440547428;0.0117;0.1499;-0.0806;
5253442450650657;0.0149;0.0530;-0.0976;
5253442460753939;0.0810;-0.1505;-0.0646;
5253442470833835;0.1321;0.0242;-0.0816;
5253442480937064;0.0256;0.1585;-0.0816;
5253442491040293;0.0064;0.0881;-0.0784;
5253442501149355;0.0437;0.0615;-0.1051;
5253442511252637;0.0138;0.0828;-0.1157;
5253442521355866;0.0511;0.1968;-0.0859;
5253442531469720;0.0107;0.1020;-0.0923;
5253442541573001;-0.0650;-0.2091;-0.0720;
5253442551676230;-0.0628;0.0168;-0.0774;
5253442561775866;-0.0234;0.1073;-0.0859;
5253442571879147;-0.0245;-0.2101;-0.0869;
5253442581982376;-0.0021;-0.0610;-0.0763;
5253442592087585;-0.0064;0.1286;-0.0912;
5253442602190866;0.0437;0.0200;-0.1115;
5253442612294095;0.1459;0.1020;-0.1061;
5253442622385657;0.0405;0.0200;-0.1445;
5253442632488939;-0.0181;-0.1835;-0.1423;
5253442642592168;0.0341;0.0008;-0.1402;
5253442652682116;0.0330;-0.0248;-0.1242;
5253442662785397;0.0650;-0.0599;-0.1029;
5253442672888678;0.0842;0.0274;-0.0955;
5253442683000345;0.0575;-0.0951;-0.0901;
5253442693103626;0.0735;-0.0045;-0.0816;
5253442703206855;0.0863;0.0796;-0.0688;
5253442713308470;0.0394;-0.1068;-0.0550;
5253442723411751;0.0085;-0.0407;-0.0997;
5253442733514980;0.0309;0.0860;-0.1061;
5253442743621387;0.0245;-0.1260;-0.1189;
5253442753724668;0.0107;-0.2165;-0.1338;
5253442763827897;0.0788;0.0988;-0.1051;
5253442773941230;0.1108;0.1968;-0.0923;
5253442784044460;0.1820;0.1222;-0.0688;
5253442794147689;0.2204;0.1126;-0.0507;
5253442804245866;0.1097;0.0242;-0.0284;
5253442814349147;0.0490;0.0967;-0.0433;
5253442824452376;0.0224;0.0594;-0.0401;
5253442834552428;0.0330;-0.0567;-0.0305;
5253442844655710;0.0277;-0.0684;-0.0348;
5253442854758939;0.0245;-0.0099;-0.0731;
5253442864849512;0.0405;-0.0897;-0.0848;
5253442874952793;0.0820;-0.0674;-0.0720;
5253442885056022;0.0863;-0.0109;-0.0688;
5253442895166178;0.0394;-0.1835;-0.0816;
5253442905269460;0.1161;-0.0439;-0.0624;
5253442915372689;0.1502;0.0764;-0.0742;
5253442925476647;0.2150;-0.1366;-0.0731;
5253442935579876;0.3013;-0.0077;-0.0539;
5253442945683105;0.1969;0.0530;-0.0454;
5253442955778730;0.2001;-0.0407;-0.0539;
5253442965882012;0.3450;0.1084;-0.0262;
5253442975985293;0.2534;-0.0269;-0.0294;
5253442986084303;0.2065;-0.2250;-0.0124;
5253442996187585;0.2300;0.1116;-0.0198;
5253443006290814;0.1991;0.1446;-0.0060;
5253443016394616;0.2406;-0.0929;0.0036;
5253443026497897;0.2939;0.0541;0.0121;
5253443036601126;0.1692;-0.0770;0.0100;
5253443046701595;0.1630;-0.1494;0.0100;
5253443056804876;0.1969;0.1403;0.0196;
5253443066908157;0.1481;-0.0748;0.0409;
5253443077037428;0.1980;-0.1153;0.0260;
5253443087140710;0.2481;0.2011;0.0142;
5253443097243939;0.2257;-0.0610;0.0260;
5253443107312897;0.2513;-0.1526;0.0601;
5253443117416126;0.1810;0.0807;0.0601;
5253443127519355;0.1863;-0.0546;0.0483;
5253443137643418;0.2683;-0.0141;0.0611;
5253443147746699;0.2289;-0.0269;0.0899;
5253443157849876;0.2225;-0.1089;0.0920;
5253443167996855;0.2608;0.2297;0.0750;
5253443178100137;0.2502;0.0828;0.0952;
5253443188203366;0.3173;-0.1792;0.1122;
5253443198247845;0.2406;0.0232;0.1314;
5253443208351126;0.1118;0.0115;0.1644;
5253443218454355;0.1884;0.0136;0.1474;
5253443228588366;0.1916;0.0935;0.1485;
5253443238691647;0.1491;-0.0610;0.2071;
5253443248794876;0.1609;0.0924;0.2337;
5253443258858262;0.1873;0.3128;0.2134;
5253443268961282;0.3024;-0.0993;0.2198;
5253443279064303;0.4537;-0.3145;0.2603;
5253443289193262;0.1363;-0.0194;0.3007;
5253443299296282;-0.1587;-0.1196;0.2772;
5253443309399355;-0.0245;-0.0280;0.2252;
5253443319493210;-0.1768;0.1947;0.2507;
5253443329596178;-0.1683;0.0221;0.2603;
5253443339699199;0.0980;-0.0812;0.2667;
5253443349792012;0.0277;0.0764;0.2507;
5253443359895032;-0.0138;0.1382;0.2209;
5253443369998105;0.1150;-0.0993;0.2635;
5253443380108835;0.1332;-0.3518;0.2486;
5253443390211855;-0.1939;0.0913;0.2103;
5253443400314876;-0.5794;0.5780;0.2230;
5253443410409616;-0.2887;-0.0365;0.2262;
5253443420512689;0.2790;-0.2336;0.1261;
5253443430615710;0.1363;0.4076;0.1581;
5253443440724772;0.0916;-0.1782;0.2007;
5253443450827793;0.3834;-0.8385;0.2348;
5253443460930814;-0.1577;-0.2176;0.2039;
5253443471032324;-1.3483;0.3373;0.2081;
5253443481135397;-1.2269;0.3724;0.0803;
5253443491238418;-0.3025;0.1105;-0.0550;
5253443501337116;0.1513;-0.2005;-0.0731;
5253443511440137;-0.0650;-0.0493;-0.0731;
5253443521543210;-0.3068;0.2297;-0.0742;
5253443531651543;-0.0884;0.3309;-0.1168;
5253443541754512;0.2225;0.0029;-0.1711;
5253443551857532;0.2864;-0.2314;-0.1839;
5253443561974668;-0.1108;0.5567;-0.1360;
5253443572077689;-0.2120;0.6750;-0.0379;
5253443582180710;0.4686;-0.2932;-0.0699;
5253443592265345;0.8157;-0.4198;-0.1051;
5253443602368366;0.1640;0.0349;-0.0635;
5253443612471439;-0.1832;-0.1505;-0.0209;
5253443622585866;0.0810;-0.2655;-0.0763;
5253443632688887;-0.0533;-0.2399;-0.0901;
5253443642791907;-0.0916;-0.4028;-0.1061;
5253443652894460;-0.0607;-0.3198;-0.1796;
5253443662997480;-0.1449;0.1904;-0.1807;
5253443673100501;0.1214;0.4353;-0.1253;
5253443683208626;0.6273;0.0061;-0.1264;
5253443693311647;0.7700;-0.0791;-0.1104;
5253443703414668;0.3269;0.1851;-0.0028;
5253443713516439;0.2715;0.1680;0.0174;
5253443723619460;0.5591;0.1126;0.0068;
5253443733722480;0.5399;0.0200;0.0313;
5253443743818782;0.3983;-0.1441;0.0739;
5253443753921751;0.1534;-0.0716;0.1154;
5253443764024824;0.1055;0.0296;0.1367;
5253443774131751;0.2374;0.0423;0.1346;
5253443784234772;0.2363;-0.0535;0.1506;
5253443794337741;0.1214;-0.1505;0.1453;
5253443804453991;0.0021;0.0274;0.1517;
5253443814557064;0.0543;0.1084;0.1836;
5253443824660085;0.1724;-0.0120;0.1772;
5253443834737897;0.1140;0.0189;0.1730;
5253443844840970;0.1118;0.1020;0.1751;
5253443854943991;0.1991;0.2947;0.1772;
5253443865044876;0.3216;0.3831;0.1751;
5253443875147897;0.3748;-0.0365;0.2113;
5253443885250918;0.1927;-0.1387;0.2582;
5253443895361647;-0.0234;0.1212;0.2772;
5253443905464668;0.0373;-0.0684;0.2794;
5253443915567637;0.1417;-0.2186;0.3071;
5253443925650137;-0.0075;-0.1622;0.3134;
5253443935753157;-0.0437;-0.0919;0.3124;
5253443945856178;0.0405;-0.1142;0.3188;
5253443955978470;0.0362;-0.1792;0.3262;
5253443966081543;0.0117;-0.0791;0.3113;
5253443976184512;0.0032;0.0754;0.3017;
5253443986285553;0.1065;0.1627;0.3102;
5253443996388574;0.1746;0.2371;0.3390;
5253444006491595;0.1182;0.0104;0.3752;
5253444016597064;0.0660;0.0136;0.3848;
5253444026700085;-0.0927;0.1361;0.4104;
5253444036803105;-0.0937;-0.0130;0.4487;
5253444046922324;-0.1236;0.0072;0.4562;
5253444057025345;-0.2993;0.0253;0.4445;
5253444067128418;-0.3270;0.0658;0.4328;
5253444077219355;-0.3686;0.0913;0.3997;
5253444087322376;-0.4122;0.0232;0.3710;
5253444097425397;-0.5346;0.0264;0.3401;
5253444107567897;-0.6550;-0.0706;0.3113;
5253444117670918;-0.7125;0.0157;0.2624;
5253444127773939;-0.7008;0.0679;0.2411;
5253444137818157;-0.6113;0.0573;0.2145;
5253444147921230;-0.6049;0.0828;0.1815;
5253444158024199;-0.6592;0.0850;0.1272;
5253444168177637;-0.6987;-0.0940;0.0760;
5253444178280710;-0.7530;-0.1377;0.0249;
5253444188383678;-0.8382;-0.0418;-0.0443;
5253444198452637;-0.7967;0.0764;-0.1104;
5253444208555657;-0.6763;0.0977;-0.1509;
5253444218658678;-0.6113;0.1446;-0.2031;
5253444228753053;-0.5538;0.2021;-0.2403;
5253444238856126;-0.5474;0.0541;-0.2798;
5253444248959095;-0.4877;0.1126;-0.3064;
5253444259062532;-0.5282;0.1095;-0.3350;
5253444269165605;-0.4952;-0.0461;-0.4170;
5253444279268678;-0.4059;0.0104;-0.4447;
5253444289396960;-0.3537;0.2361;-0.4628;
5253444299500032;-0.3249;0.1308;-0.4852;
5253444309603105;-0.2610;0.0296;-0.5214;
5253444319688210;-0.2919;0.0338;-0.5470;
5253444329791282;-0.3110;-0.0503;-0.5832;
5253444339894303;-0.2045;-0.0631;-0.6035;
5253444349991178;-0.0778;0.1063;-0.6088;
5253444360094251;-0.0352;0.0338;-0.6173;
5253444370197324;0.0746;0.0115;-0.6322;
5253444380308626;0.1651;0.1009;-0.6184;
5253444390411647;0.1991;0.0668;-0.6045;
5253444400514720;0.2949;0.1499;-0.6205;
5253444410612220;0.3173;0.1350;-0.5758;
5253444420715345;0.2150;-0.1728;-0.5129;
5253444430818418;0.3045;-0.1718;-0.5204;
5253444440925866;0.4803;0.0509;-0.5033;
5253444451028887;0.3802;-0.0589;-0.4447;
5253444461131960;0.3855;-0.1654;-0.3755;
5253444471237376;0.4952;-0.1941;-0.3606;
5253444481340449;0.5644;-0.0738;-0.3341;
5253444491443522;0.5549;0.0029;-0.2936;
5253444501537949;0.5261;0.0360;-0.2510;
5253444511641074;0.4909;-0.0312;-0.2073;
5253444521744147;0.4643;-0.0748;-0.1764;
5253444531860866;0.5580;0.2340;-0.1253;
5253444541963887;0.5687;0.2776;-0.0752;
5253444552066960;0.3535;-0.2559;0.0196;
5253444562174564;0.2459;-0.1324;0.0643;
5253444572277637;0.2513;0.1574;0.0920;
5253444582380657;0.2502;-0.0642;0.1229;
5253444592467897;0.1980;-0.0791;0.1698;
5253444602571022;0.1534;0.1467;0.1453;
5253444612674095;0.2204;0.2117;0.1858;
5253444622782376;0.1927;0.0423;0.2177;
5253444632885449;0.1012;0.0381;0.2358;
5253444642988522;-0.0128;-0.0162;0.2561;
5253444653085814;-0.0927;-0.1643;0.2911;
5253444663188887;-0.1768;-0.1270;0.3007;
5253444673291960;-0.1896;0.0477;0.2932;
5253444683407897;-0.0458;0.1073;0.2699;
5253444693510970;-0.0277;0.0477;0.2847;
5253444703614043;-0.1449;0.1297;0.2710;
5253444713711022;-0.1800;0.0370;0.2603;
5253444723814043;-0.2013;0.0210;0.2593;
5253444733917168;-0.2727;0.1148;0.2379;
5253444744018314;-0.2674;-0.2357;0.2369;
5253444754121387;-0.3100;-0.1324;0.2124;
5253444764224407;-0.3590;0.1009;0.1932;
5253444774331335;-0.2631;-0.1132;0.1985;
5253444784434407;-0.2237;-0.2005;0.1634;
5253444794537428;-0.3206;-0.0003;0.1453;
5253444804656699;-0.2780;0.1595;0.1112;
5253444814759824;-0.1353;-0.0535;0.0782;
5253444824862845;-0.0788;0.1371;0.0494;
5253444834946022;-0.0799;0.2989;0.0590;
5253444845049095;-0.0575;-0.0834;0.0132;
5253444855152168;0.0682;0.3991;0.0430;
5253444865317480;-0.0107;0.3863;0.0899;
5253444875420553;-0.0447;-0.2410;0.0505;
5253444885523574;0.0043;0.2574;0.0185;
5253444895564980;-0.0618;0.3266;0.0579;
5253444905668001;-0.0543;-0.2080;0.0590;
5253444915771074;-0.0991;-0.1462;0.0047;
5253444925884303;-0.1204;-0.0322;0.0079;
5253444935987376;-0.1204;-0.2197;-0.0134;
5253444946090449;-0.0671;-0.3198;-0.0092;
5253444956177012;-0.0937;-0.2069;-0.0284;
5253444966280085;-0.0149;0.1393;-0.0241;
5253444976383210;0.2289;0.5130;-0.0497;
5253444986498001;0.4600;0.2670;-0.0486;
5253444996601022;0.3578;-0.1345;-0.0049;
5253445006704095;0.1395;0.1254;0.0079;
5253445016789512;-0.0032;0.2201;0.0398;
5253445026892585;0.0490;-0.0748;0.0121;
5253445036995657;0.0628;-0.2676;0.0515;
5253445047125553;0.0075;-0.2229;0.0526;
5253445057228626;0.0234;0.0360;0.0760;
5253445067331699;-0.1214;-0.1973;0.0824;
5253445077427272;-0.2312;-0.6425;0.0228;
5253445087530345;-0.1609;-0.4198;-0.0465;
5253445097633366;-0.1182;-0.0088;-0.0688;
5253445107708105;-0.1214;0.2276;-0.0720;
5253445117811178;0.0160;0.0764;-0.0497;
5253445127914251;0.1969;-0.1675;-0.0710;
5253445138051595;0.1852;0.0626;-0.0593;
5253445148154668;0.0618;0.5865;-0.0134;
5253445158257689;0.1577;0.2787;0.0387;
5253445168359407;0.3908;-0.0365;0.0494;
5253445178462480;0.2822;0.1052;0.0121;
5253445188565553;-0.0138;0.0743;0.0249;
5253445198649980;0.0256;0.0615;0.0068;
5253445208753053;0.0181;-0.0162;0.0036;
5253445218856126;-0.0937;-0.4337;0.0238;
5253445228982220;-0.1310;-0.4369;0.0057;
5253445239085345;-0.2130;-0.0130;-0.0348;
5253445249188366;-0.3324;0.0615;-0.0401;
5253445259269303;-0.1076;-0.2016;-0.0422;
5253445269372428;0.0937;-0.1654;-0.0507;
5253445279475501;-0.0202;0.0743;-0.1360;
5253445289602637;0.0724;0.4076;-0.1146;
5253445299705710;0.3152;0.3490;-0.0955;
5253445309808887;0.5463;-0.0077;-0.0571;
5253445319916491;0.5719;0.2680;-0.0262;
5253445330019616;0.3578;0.4278;0.0419;
5253445340122689;0.2885;0.0498;0.0909;
5253445350197845;0.2193;-0.4358;0.1421;
5253445360300970;0.0117;-0.3550;0.1431;
5253445370404095;-0.0628;0.1510;0.1027;
5253445380512532;-0.1683;-0.1217;0.0803;
5253445390615605;-0.0458;-0.3379;0.0398;
5253445400718730;0.0639;-0.0876;0.0121;
5253445410817012;0.0032;-0.1100;0.0206;
5253445420920137;0.0479;-0.1345;0.0292;
5253445431023262;0.0394;-0.1931;0.0622;
5253445441124824;0.0554;0.0093;0.0877;
5253445451227949;0.1140;0.3692;0.1122;
5253445461331074;0.2587;0.2989;0.1495;
5253445471436751;0.3716;0.0168;0.1772;
5253445481539824;0.2545;-0.1590;0.1868;
5253445491642949;0.0064;-0.2037;0.1751;
5253445501757272;-0.0916;-0.1174;0.1389;
5253445511860345;-0.0011;0.1073;0.1495;
5253445521963470;0.0969;0.1478;0.1623;
5253445532056647;0.1076;0.0562;0.2092;
5253445542159720;-0.0565;-0.2304;0.2071;
5253445552262793;-0.2354;-0.1462;0.2124;
5253445562368730;-0.3931;0.0594;0.1772;
5253445572471803;-0.2471;-0.0429;0.1240;
5253445582574928;-0.0639;-0.0471;0.1091;
5253445592675189;-0.0991;0.1957;0.1431;
5253445602778262;-0.1055;0.4715;0.1325;
5253445612881387;0.0373;0.1776;0.0867;
5253445622979303;0.0682;0.0519;0.1176;
5253445633082428;-0.0969;-0.0162;0.1080;
5253445643185553;-0.2045;0.0008;0.1250;
5253445653293730;-0.2759;-0.0077;0.1453;
5253445663396803;-0.3110;-0.2644;0.1027;
5253445673499928;-0.2333;-0.1036;0.0334;
5253445683609355;-0.2407;0.1521;0.0174;
5253445693712428;-0.1875;0.1350;0.0142;
5253445703815553;-0.1012;-0.0546;-0.0145;
5253445713898991;-0.1172;-0.0961;-0.0699;
5253445724002116;-0.0746;0.1478;-0.0337;
5253445734105241;-0.0916;0.0977;-0.0092;
5253445744226439;-0.0533;-0.0003;0.0206;
5253445754329512;-0.0724;0.0253;0.0142;
5253445764432637;-0.0405;0.1073;0.0068;
5253445774539043;-0.0437;-0.0226;-0.0081;
5253445784642116;-0.0788;-0.0866;-0.0028;
5253445794745241;-0.1566;-0.0748;-0.0134;
5253445804851282;-0.1939;-0.1601;-0.0955;
5253445814954407;-0.1023;-0.0780;-0.1104;
5253445825057532;-0.0778;-0.0375;-0.1083;
5253445835158105;-0.0075;0.2798;-0.0752;
5253445845261178;-0.0511;0.0775;-0.0603;
5253445855364251;-0.0490;-0.1622;-0.0944;
5253445865467585;-0.0873;-0.1547;-0.0848;
5253445875570657;-0.1406;-0.1121;-0.0678;
5253445885673782;-0.1129;-0.0663;-0.0710;
5253445895766855;-0.0927;-0.0525;-0.0997;
5253445905869928;-0.0160;0.0786;-0.1083;
5253445915973053;0.0266;0.0509;-0.1232;
5253445926078730;0.0288;0.0477;-0.1242;
5253445936181803;-0.0820;-0.0301;-0.1253;
5253445946284928;-0.0756;-0.0557;-0.1221;
5253445956381751;-0.0724;-0.0866;-0.1519;
5253445966484824;0.0138;0.0807;-0.1391;
5253445976587949;0.0565;0.3138;-0.1029;
5253445986688157;0.0895;0.1435;-0.0774;
5253445996791282;0.0905;0.0402;-0.1029;
5253446006894355;0.0288;0.1638;-0.1221;
5253446016991491;-0.0533;0.0381;-0.1136;
5253446027094616;-0.0511;-0.1356;-0.1146;
5253446037197741;-0.0501;0.0328;-0.1019;
5253446047295501;-0.0575;-0.0290;-0.1221;
5253446057398574;0.0234;-0.0450;-0.1125;
5253446067501647;0.0266;-0.0024;-0.1253;
5253446077621335;0.0607;0.0594;-0.0806;
5253446087724407;0.0330;-0.0141;-0.0763;
5253446097827480;0.0415;-0.0226;-0.1157;
5253446107940553;0.0458;0.0296;-0.1146;
5253446118043626;-0.0117;-0.1217;-0.0774;
5253446128146751;-0.0394;-0.1686;-0.0901;
5253446138227949;-0.0842;-0.2655;-0.0880;
5253446148331022;-0.0756;-0.3124;-0.0976;
5253446158434147;0.0415;0.0477;-0.0880;
5253446168577324;0.0831;0.2053;-0.0614;
5253446178680397;0.1513;-0.0589;-0.0230;
5253446188783522;0.1640;-0.0770;-0.0294;
5253446198876282;-0.0053;0.0807;-0.0614;
5253446208979355;0.0256;0.1073;-0.0507;
5253446219082480;0.1204;0.1883;-0.0411;
5253446229165918;0.0671;0.1414;-0.0177;
5253446239268991;-0.0011;-0.0322;0.0047;
5253446249372064;-0.0011;0.0264;-0.0262;
5253446259470657;-0.0703;0.0072;-0.0071;
5253446269573782;-0.1300;-0.2644;0.0164;
5253446279676855;-0.1012;-0.1004;-0.0252;
5253446289786126;-0.0575;0.1371;-0.0262;
5253446299889199;-0.0778;-0.2261;-0.0465;
5253446309992272;-0.0799;-0.4422;-0.0635;
5253446320094043;-0.1342;-0.1462;-0.0891;
5253446330197116;-0.1566;-0.0333;-0.0944;
5253446340300189;0.0628;-0.0493;-0.1146;
5253446350399980;0.2800;0.1190;-0.0997;
5253446360503105;0.2768;0.2286;-0.0497;
5253446370606178;0.2822;0.2075;-0.0124;
5253446380708574;0.2608;0.0583;-0.0017;
5253446390811699;0.1969;0.1691;-0.0081;
5253446400914772;0.1417;0.1563;0.0185;
5253446411023522;0.1193;0.0008;0.0164;
5253446421126595;0.0905;0.1308;0.0302;
5253446431229668;0.0437;0.0807;0.0377;
5253446441327532;0.0522;-0.1356;0.0217;
5253446451430657;0.0352;0.0146;-0.0081;
5253446461533730;-0.0767;-0.0599;-0.0007;
5253446471644876;-0.0479;-0.1174;-0.0134;
5253446481747949;-0.0202;0.1041;-0.0177;
5253446491851022;0.0373;0.0605;-0.0348;
5253446501942428;0.1172;-0.0759;-0.0198;
5253446512045553;0.0117;-0.0354;-0.0028;
5253446522148626;-0.0128;-0.1228;-0.0262;
5253446532275970;0.0032;-0.2772;-0.0422;
5253446542379043;0.0043;-0.1025;-0.0369;
5253446552482116;0.0671;0.2169;0.0057;
5253446562586230;0.2395;0.2117;0.0142;
5253446572689303;0.4068;0.2075;-0.0284;
5253446582792376;0.2470;0.1265;0.0111;
5253446592882793;0.0820;-0.0375;0.0419;
5253446602985918;0.0011;0.0349;0.0292;
5253446613088939;-0.0756;-0.0802;0.0505;
5253446623186230;-0.0905;-0.0727;0.0398;
5253446633289303;-0.0852;0.1126;-0.0060;
5253446643392376;-0.0096;0.0754;0.0174;
5253446653491126;0.0330;-0.0652;0.0249;
5253446663594199;-0.0490;-0.0823;-0.0166;
5253446673697272;-0.1076;-0.0834;-0.0550;
5253446683801074;-0.0660;0.0019;-0.0379;
5253446693904199;0.0064;0.0722;-0.0518;
5253446704007272;0.0330;-0.2772;-0.0667;
5253446714105449;-0.0447;-0.2644;-0.0561;
5253446724208574;-0.2397;-0.0503;-0.0561;
5253446734311647;-0.0735;0.0200;-0.1019;
5253446744418991;0.2395;0.1734;-0.0944;
5253446754522116;0.3248;0.1606;-0.0827;
5253446764625189;0.3471;-0.0450;-0.1029;
5253446774729564;0.2342;-0.0993;-0.0997;
5253446784832689;-0.0202;-0.1537;-0.0720;
5253446794935762;-0.0522;-0.1132;-0.0784;
5253446805051699;0.1363;0.2361;-0.0869;
5253446815154824;0.2758;0.2936;-0.1019;
5253446825257897;0.4483;-0.2314;-0.0316;
5253446835352376;0.2427;-0.2314;-0.0284;
5253446845455449;-0.1790;0.0200;-0.0305;
5253446855558522;0.0107;0.0115;-0.0784;
5253446865664980;0.2949;0.0178;-0.1104;
5253446875768053;0.3493;0.1883;-0.1083;
5253446885871126;0.3045;0.2286;-0.0454;
5253446895972897;0.2630;-0.2762;0.0111;
5253446906075970;0.1140;-0.2549;-0.0348;
5253446916179043;-0.0458;0.3021;-0.0401;
5253446926258053;0.2523;0.3394;-0.0230;
5253446936361178;0.6007;-0.0855;0.0270;
5253446946464199;0.3599;-0.2112;0.0292;
5253446956593314;-0.0735;0.0296;0.0324;
5253446966696387;-0.0501;-0.0130;0.0238;
5253446976799460;0.2118;-0.0759;-0.0081;
5253446986893262;0.1353;-0.0205;0.0142;
5253446996996387;0.0735;-0.2144;0.0292;
5253447007099460;-0.0011;-0.1643;0.0387;
5253447017193522;-0.0991;0.0818;0.0462;
5253447027296595;0.1470;0.1158;0.0260;
5253447037399668;0.3706;0.1510;0.0185;
5253447047565918;0.2949;0.0754;0.0345;
5253447057668939;0.1662;0.0029;0.0728;
5253447067772064;0.0682;-0.0162;0.1250;
5253447077820970;0.0043;-0.2101;0.0632;
5253447087924095;0.0170;-0.0780;0.0537;
5253447098027168;-0.0181;0.1489;0.0931;
5253447108174303;0.1236;-0.0791;0.1069;
5253447118277376;0.1129;-0.0993;0.0707;
5253447128380449;-0.0107;-0.0482;0.0899;
5253447138451595;0.0607;-0.0578;0.0537;
5253447148554668;0.1246;0.0935;0.0611;
5253447158657741;0.1268;0.0818;0.0750;
5253447168763835;0.1438;0.0168;0.1208;
5253447178866907;0.1012;0.1084;0.1176;
5253447188969980;0.1470;0.1798;0.1261;
5253447199052845;0.2172;0.2137;0.1378;
5253447209155970;0.1555;0.0221;0.1304;
5253447219259043;0.0320;-0.1132;0.1634;
5253447229366074;-0.1033;0.0200;0.1517;
5253447239469199;-0.0501;-0.0099;0.1304;
5253447249572272;0.0511;-0.1622;0.1208;
5253447259672064;-0.0288;0.0477;0.1314;
5253447269775137;-0.0469;-0.1132;0.1517;
5253447279878262;0.0117;-0.2080;0.1165;
5253447289987480;-0.0692;-0.0407;0.1186;
5253447300090501;-0.0597;-0.0738;0.1154;
5253447310193626;0.0682;-0.0035;0.0995;
5253447320283418;0.0628;0.0679;0.1272;
5253447330386543;0.0437;-0.0024;0.1101;
5253447340489564;0.0746;0.1371;0.1176;
5253447350601907;0.0415;0.2011;0.1495;
5253447360705032;0.0352;-0.0077;0.1208;
5253447370808105;-0.0021;-0.0099;0.1346;
5253447380905814;-0.0820;0.0509;0.1272;
5253447391008939;-0.0682;-0.0088;0.1783;
5253447401112012;-0.0746;0.0136;0.1559;
5253447411227480;-0.0586;0.0434;0.0888;
5253447421330553;0.0043;0.0040;0.0835;
5253447431433626;-0.0937;-0.1164;0.1005;
5253447441535189;-0.1342;-0.1217;0.1069;
5253447451638262;-0.1800;-0.0674;0.1176;
5253447461741335;-0.0969;-0.0429;0.0622;
5253447471834407;0.0320;0.0477;0.0526;
5253447481937480;0.0138;0.0658;0.0505;
5253447492040605;-0.0138;-0.0290;0.0601;
5253447502147949;-0.0991;-0.1782;0.0803;
5253447512251022;-0.0511;0.2798;0.0537;
5253447522354147;0.2161;0.6260;0.0441;
5253447532451699;0.2971;0.0828;0.0952;
5253447542554772;0.1406;-0.5860;0.1336;
5253447552657845;-0.2056;-0.2261;0.1304;
5253447562783314;-0.6262;-0.1707;0.0867;
5253447572886387;-0.4952;-0.2048;0.0366;
5253447582989460;-0.1033;0.2457;-0.0060;
5253447593066907;0.0597;0.1627;0.0409;
5253447603170032;0.0426;-0.0450;0.0441;
5253447613273105;-0.0437;0.1297;-0.0007;
5253447623389876;0.1459;0.4278;-0.0017;
5253447633492897;0.3887;0.7985;0.0398;
5253447643596022;0.2779;0.3096;0.1037;
5253447653699043;0.1257;0.1553;0.1431;
5253447663802116;-0.1449;0.3447;0.1570;
5253447673905189;-0.2823;-0.0514;0.1570;
5253447684002428;-0.2152;-0.3816;0.1325;
5253447694105553;-0.3164;-0.3964;0.1378;
5253447704208626;-0.5687;-0.7618;0.0899;
5253447714314147;-0.7807;-1.1909;0.0132;
5253447724417168;-0.9330;-0.6265;-0.1242;
5253447734520293;-1.0268;0.0786;-0.2137;
5253447744626699;-0.3877;0.1979;-0.1818;
5253447754729772;0.2843;-0.1473;-0.2467;
5253447764832845;0.3610;0.0189;-0.2712;
5253447774929303;0.2278;0.6345;-0.1573;
5253447785032376;0.4941;0.5173;-0.0923;
5253447795135449;0.7722;0.5929;-0.0838;
5253447805259616;0.6017;0.7783;-0.0060;
5253447815362741;0.3738;0.2883;0.1016;
5253447825465814;0.1555;-0.2549;0.1399;
5253447835551960;-0.1300;-0.0120;0.0877;
5253447845655032;-0.2482;0.0754;0.0462;
5253447855758053;-0.1694;-0.4742;0.0142;
5253447865867585;-0.1672;-0.6829;0.0206;
5253447875970657;-0.4389;-0.3933;0.0292;
5253447886073782;-0.5975;-0.0642;-0.0891;
5253447896168262;-0.2152;0.0019;-0.1338;
5253447906271387;0.2694;0.1233;-0.1040;
5253447916374407;0.3173;0.2510;-0.0550;
5253447926456907;0.1682;0.0221;-0.0358;
5253447936559980;0.1630;-0.0162;0.0068;
5253447946663053;0.1342;0.2276;0.0111;
5253447956780866;0.2417;0.4555;0.0206;
5253447966883939;0.3493;0.3756;0.0398;
5253447976987012;0.2236;0.0455;0.1069;
5253447987086647;-0.0948;-0.2325;0.1293;
5253447997189720;-0.3110;0.0988;0.1197;
5253448007292845;-0.4899;-0.1036;0.1112;
5253448017427793;-0.4005;-0.3592;0.0483;
5253448027530866;-0.3334;0.1190;0.0057;
5253448037633939;-0.3973;0.1680;0.0089;
5253448047688991;-0.2024;-0.2218;-0.0497;
5253448057792064;-0.1289;-0.0514;-0.0742;
5253448067895137;-0.2599;0.1840;-0.1008;
5253448078037116;0.0053;0.2808;-0.0784;
5253448088140189;0.1640;0.1947;-0.0507;
5253448098243314;-0.0075;-0.2314;-0.0326;
5253448108322741;-0.1854;-0.1952;-0.0561;
5253448118425814;-0.3398;-0.1483;-0.0720;
5253448128528887;-0.2812;-0.2442;-0.1061;
5253448138639980;-0.0969;-0.0578;-0.1413;
5253448148743105;-0.0650;0.0083;-0.1487;
5253448158846126;0.0138;-0.0386;-0.1487;
5253448168964616;0.0639;-0.0429;-0.1828;
5253448179067689;0.0320;-0.0620;-0.1764;
5253448189170762;0.1055;0.0700;-0.1594;
5253448199273470;0.1884;0.2585;-0.1413;
5253448209376543;0.2672;0.1563;-0.0955;
5253448219479616;0.2864;0.1169;-0.0795;
5253448229564824;0.1545;0.1457;-0.0507;
5253448239667897;0.0778;-0.0226;-0.0497;
5253448249770970;0.0746;-0.1249;-0.0486;
5253448259865553;0.0032;-0.1121;-0.0539;
5253448269968678;-0.0415;-0.1846;-0.0465;
5253448280071699;-0.0447;-0.1398;-0.0465;
5253448290184980;-0.0820;-0.1217;-0.0603;
5253448300288105;-0.0202;-0.1718;-0.0774;
5253448310391126;0.0192;-0.0035;-0.0795;
5253448320492741;0.0575;0.1521;-0.0774;
5253448330595866;0.1555;0.0743;-0.0923;
5253448340698887;0.1714;0.0338;-0.0848;
5253448350806855;0.0373;0.1574;-0.0699;
5253448360909928;0.1087;0.2830;-0.0571;
5253448371012949;0.2342;0.3117;-0.0198;
5253448381114720;0.1852;0.0434;-0.0124;
5253448391217845;0.0586;-0.1324;-0.0103;
5253448401320866;-0.1033;-0.0013;0.0111;
5253448411424668;-0.1768;-0.1579;0.0079;
5253448421527741;-0.1523;-0.3975;-0.0454;
5253448431630762;-0.2248;-0.1462;-0.0880;
5253448441733262;-0.1907;0.0956;-0.0965;
5253448451836335;0.1012;0.0232;-0.1008;
5253448461939407;0.0980;-0.1856;-0.1200;
5253448472042741;-0.0692;-0.1047;-0.1370;
5253448482145866;-0.0597;-0.0088;-0.1285;
5253448492248887;0.1023;0.0807;-0.1125;
5253448502347168;0.1438;0.0636;-0.0742;
5253448512450189;0.1672;0.0903;-0.0944;
5253448522553314;0.1682;0.1851;-0.0518;
5253448532663574;0.1692;0.0125;-0.0390;
5253448542766647;0.1427;0.0061;-0.0411;
5253448552869720;0.0011;-0.0557;-0.0092;
5253448562980449;-0.0277;-0.1356;-0.0156;
5253448573083522;-0.0682;-0.0471;-0.0316;
5253448583186543;-0.0266;0.0381;-0.0188;
5253448593279720;0.0479;0.0381;-0.0166;
5253448603382793;0.0032;-0.0237;-0.0092;
5253448613485866;-0.0607;-0.0248;-0.0294;
5253448623592272;-0.0011;0.1073;-0.0273;
5253448633695293;0.0192;0.0040;-0.0358;
5253448643798366;-0.0298;-0.0897;-0.0614;
5253448653895762;-0.1033;-0.0067;-0.0880;
5253448663998887;-0.0479;-0.0280;-0.0614;
5253448674101907;-0.0043;-0.1356;-0.0997;
5253448684216439;-0.0000;0.0445;-0.1083;
5253448694319512;0.0479;0.1201;-0.1008;
5253448704422532;0.0458;-0.0397;-0.1008;
5253448714520032;-0.0043;-0.0386;-0.1232;
5253448724623105;0.0192;0.0850;-0.1360;
5253448734726126;0.1577;0.3277;-0.1626;
5253448744831022;0.1609;0.1148;-0.1391;
5253448754934095;0.0160;-0.1505;-0.1200;
5253448765037116;-0.1087;-0.0951;-0.1445;
5253448775134460;-0.0671;-0.0194;-0.1594;
5253448785237480;0.0767;-0.1142;-0.1796;
5253448795340553;0.1321;-0.1292;-0.1956;
5253448805427272;0.2427;0.1510;-0.1903;
5253448815530397;0.3375;0.1968;-0.1551;
5253448825633418;0.3280;0.0956;-0.1850;
5253448835763835;0.2129;-0.1334;-0.1850;
5253448845866855;0.1225;-0.1707;-0.1668;
5253448855969928;0.1598;0.1904;-0.1445;
5253448866071439;0.1948;0.0019;-0.1626;
5253448876174512;0.2278;-0.3305;-0.1541;
5253448886277532;0.1788;-0.0674;-0.1551;
5253448896374460;0.1778;0.0296;-0.1818;
5253448906477480;0.2566;-0.1579;-0.1360;
5253448916580553;0.2747;-0.2197;-0.1328;
5253448926707220;0.2853;-0.1025;-0.1328;
5253448936810293;0.5453;0.2457;-0.1136;
5253448946913366;0.7519;0.4076;-0.0582;
5253448956982741;0.6273;0.1031;0.0153;
5253448967085814;0.5037;0.0892;0.0366;
5253448977188887;0.3663;0.2158;0.0601;
5253448987288522;0.2875;-0.0067;0.0441;
5253448997391543;0.2342;-0.1856;0.0622;
5253449007494616;0.1214;-0.1260;0.0654;
5253449017610814;0.1395;-0.0035;0.1048;
5253449027713887;0.1895;-0.2357;0.0728;
5253449037816907;0.1630;-0.4113;0.0739;
5253449047932220;0.2470;-0.0269;0.0941;
5253449058035241;0.4963;0.2979;0.1154;
5253449068138366;0.6017;-0.0354;0.1772;
5253449078223782;0.5144;-0.0418;0.2039;
5253449088326855;0.4110;0.2489;0.2294;
5253449098429876;0.3972;0.0636;0.2550;
5253449108530449;0.3365;-0.0482;0.2550;
5253449118633522;0.2427;0.1126;0.2762;
5253449128736543;0.1724;0.0423;0.3134;
5253449138870449;0.0831;-0.0471;0.3188;
5253449148973470;-0.0213;-0.1068;0.3507;
5253449159076595;-0.0778;-0.1505;0.3923;
5253449169174407;0.0980;0.1073;0.4242;
5253449179277480;0.2491;0.3735;0.3763;
5253449189380501;0.1937;0.2053;0.4178;
5253449199458053;0.0490;0.0605;0.4573;
5253449209561126;-0.1363;0.0668;0.4636;
5253449219664199;-0.2471;0.0104;0.4477;
5253449229773053;-0.2525;-0.1089;0.4210;
5253449239876126;-0.4505;-0.3720;0.3976;
5253449249979199;-0.5804;-0.0429;0.3955;
5253449260083262;-0.5495;0.0615;0.3710;
5253449270186387;-0.3899;-0.2591;0.2804;
5253449280289460;-0.4261;-0.3550;0.2731;
5253449290404564;-0.5453;-0.1345;0.2422;
5253449300507637;-0.3419;0.1979;0.2529;
5253449310610762;-0.1140;0.1787;0.2262;
5253449320698991;-0.1417;-0.0972;0.2145;
5253449330802116;-0.1971;0.0541;0.1911;
5253449340905241;-0.1459;0.5056;0.2284;
5253449351016126;-0.1662;0.0636;0.2667;
5253449361119199;-0.3004;-0.3678;0.1815;
5253449371222324;-0.5144;-0.0706;0.1122;
5253449381324147;-0.3153;0.4768;0.1378;
5253449391427220;-0.0181;0.3554;0.1325;
5253449401530345;-0.1854;-0.2410;0.1559;
5253449411639355;-0.3760;-0.1654;0.1176;
5253449421742428;-0.4473;0.0711;0.0952;
5253449431845553;-0.2301;-0.0908;0.1165;
5253449441940189;-0.0415;-0.1068;0.1229;
5253449452043262;0.0479;0.2851;0.1517;
5253449462146387;0.1076;0.4097;0.1847;
5253449472251230;0.0479;0.0509;0.1655;
5253449482354303;-0.1449;-0.2453;0.1399;
5253449492457428;-0.2280;-0.0514;0.1879;
5253449502552532;-0.1513;0.3128;0.2028;
5253449512655657;-0.1523;-0.0557;0.1964;
5253449522758782;-0.2109;-0.3529;0.1858;
5253449532884407;-0.3047;0.1222;0.1655;
5253449542987480;-0.2961;0.1851;0.1783;
5253449553090605;-0.1118;-0.1270;0.1719;
5253449563185866;-0.1704;-0.0929;0.1591;
5253449573288939;-0.2365;0.2680;0.1655;
5253449583392064;-0.1449;0.2574;0.1772;
5253449593480345;-0.0714;0.0913;0.1772;
5253449603583470;-0.2503;-0.1377;0.1538;
5253449613686595;-0.3569;0.0530;0.1186;
5253449623794876;-0.3931;0.1861;0.1261;
5253449633897949;-0.2812;-0.2389;0.0909;
5253449644001074;-0.2812;-0.2591;0.0100;
5253449654112793;-0.4250;0.0519;-0.0124;
5253449664215866;-0.3217;0.0200;-0.0134;
5253449674318991;-0.1406;-0.1025;-0.0518;
5253449684413782;-0.1885;-0.0269;-0.0763;
5253449694516855;-0.2130;0.0146;-0.0720;
5253449704619980;-0.1502;0.0754;-0.0742;
5253449714728522;-0.1523;0.1009;-0.0795;
5253449724831595;-0.0788;0.0977;-0.0955;
5253449734934720;-0.0522;0.2297;-0.1381;
5253449745034772;-0.0618;0.0999;-0.1402;
5253449755137845;-0.0937;0.0796;-0.1477;
5253449765240918;-0.1885;0.1936;-0.1658;
5253449775345814;-0.1939;-0.0983;-0.2137;
5253449785448887;-0.1875;-0.0578;-0.2393;
5253449795551960;-0.2844;0.2201;-0.2563;
5253449805642064;-0.1726;0.1169;-0.2638;
5253449815745189;-0.0863;0.0541;-0.2755;
5253449825848262;-0.1854;-0.0706;-0.3234;
5253449835963522;-0.1896;-0.1217;-0.3521;
5253449846066595;-0.1609;-0.0375;-0.3478;
5253449856169720;-0.1534;-0.1185;-0.3766;
5253449866267428;-0.1374;-0.2517;-0.4064;
5253449876370553;-0.1087;-0.0738;-0.4170;
5253449886473678;-0.0064;0.0679;-0.4138;
5253449896575970;0.2193;0.0061;-0.3936;
5253449906679095;0.3407;0.1478;-0.3766;
5253449916782168;0.3226;0.0711;-0.3830;
5253449926905241;0.3834;0.1169;-0.3521;
5253449937008366;0.3258;0.1095;-0.3064;
5253449947111439;0.3684;0.1382;-0.2787;
5253449957188678;0.4110;0.2212;-0.2446;
5253449967291803;0.4121;-0.0045;-0.2126;
5253449977394876;0.3312;-0.2506;-0.1615;
5253449987564043;0.1417;-0.3838;-0.1658;
5253449997667116;0.1044;-0.3273;-0.1360;
5253450007770189;0.0831;-0.4337;-0.1551;
5253450017819928;0.1150;-0.2698;-0.1626;
5253450027923053;0.0543;0.1276;-0.1700;
5253450038026126;0.0959;0.1308;-0.1594;
5253450048180762;0.4451;0.1329;-0.1136;
5253450058283835;0.5186;0.0423;-0.0965;
5253450068386907;0.4782;0.2222;-0.0614;
5253450078447897;0.4899;0.4672;0.0068;
5253450088550970;0.6699;0.3469;0.0601;
5253450098654043;0.6422;0.2947;0.0760;
5253450108759355;0.4718;0.4193;0.1091;
5253450118862428;0.3993;0.1286;0.1272;
5253450128965501;0.2427;-0.3550;0.1676;
5253450139068210;-0.1427;-0.4795;0.1847;
5253450149171230;-0.4357;-0.4262;0.1676;
5253450159274355;-0.4941;-0.2815;0.0952;
5253450169383574;-0.5069;-0.1505;0.0324;
5253450179486699;-0.4814;-0.0344;0.0164;
5253450189589772;-0.2290;0.0434;-0.0060;
5253450199672272;0.0746;-0.0652;-0.0539;
5253450209775345;0.1980;-0.4273;-0.0411;
5253450219878470;0.0458;-0.0812;-0.0454;
5253450229981543;-0.1321;0.5088;-0.0454;
5253450240084616;0.2885;0.3501;-0.0049;
5253450250187741;0.6976;-0.0333;-0.0007;
5253450260284720;0.3599;0.0242;0.0079;
5253450270387845;-0.0256;0.2840;0.0632;
5253450280490866;0.1076;0.0626;0.0356;
5253450290607376;0.1735;-0.2346;-0.0113;
5253450300710397;-0.0842;0.0455;-0.0411;
5253450310813522;-0.1747;0.3064;-0.0507;
5253450320904147;0.0735;0.1627;-0.0316;
5253450331007272;0.1289;-0.3401;-0.0550;
5253450341110345;-0.0330;-0.1771;-0.0635;
5253450351213626;-0.1790;-0.0130;-0.0838;
5253450361316699;0.0245;-0.1068;-0.0688;
5253450371419772;0.1692;-0.0684;-0.0795;
5253450381520970;0.1873;-0.1718;-0.0933;
5253450391624043;0.2161;-0.1292;-0.0784;
5253450401727168;0.1937;-0.0130;-0.0624;
5253450411833730;0.3035;0.1020;-0.0742;
5253450421936803;0.4632;0.2085;-0.0507;
5253450432039876;0.5687;0.1180;-0.0017;
5253450442147168;0.5335;0.1531;0.0814;
5253450452250241;0.4441;0.3181;0.1048;
5253450462353262;0.5133;0.1670;0.1517;
5253450472451855;0.5037;-0.2005;0.1964;
5253450482554876;0.2651;-0.1835;0.1996;
5253450492658001;0.0810;0.0104;0.2039;
5253450502776335;0.0490;-0.2463;0.2177;
5253450512879407;-0.0000;-0.2336;0.2198;
5253450522982480;-0.1896;-0.0599;0.2060;
5253450533076439;-0.1587;-0.0567;0.2049;
5253450543179460;-0.0043;-0.0802;0.2156;
5253450553282532;-0.0298;-0.2059;0.2145;
5253450563401439;-0.0756;-0.0674;0.2007;
5253450573504460;-0.1555;0.1414;0.2017;
5253450583607585;-0.0352;0.1638;0.1602;
5253450593704772;0.1065;0.2574;0.1889;
5253450603807845;0.0842;0.3543;0.1975;
5253450613910918;0.1459;0.2340;0.2220;
5253450624006543;0.0948;0.0349;0.2497;
5253450634109616;-0.0756;-0.0727;0.2539;
5253450644212689;-0.2748;-0.0706;0.2262;
5253450654323730;-0.4101;-0.0099;0.2145;
5253450664426803;-0.3728;0.0296;0.1687;
5253450674529876;-0.2951;-0.1015;0.1378;
5253450684620605;-0.3047;-0.2527;0.1549;
5253450694723678;-0.3963;-0.1473;0.1016;
5253450704826751;-0.4941;-0.0280;0.0782;
5253450714941803;-0.3835;-0.0375;0.0345;
5253450725044876;-0.1236;0.1222;0.0196;
5253450735147949;-0.1097;0.1137;0.0249;
5253450745231803;-0.0405;0.0509;0.0398;
5253450755334928;-0.0767;0.0104;0.0451;
5253450765438001;-0.1065;0.0221;0.0100;
5253450775548418;-0.0735;0.2043;0.0462;
5253450785651439;-0.0724;0.1041;0.0750;
5253450795754564;-0.0969;-0.2016;0.0611;
5253450805841595;-0.1971;-0.1281;0.0366;
5253450815944720;-0.3036;-0.1047;0.0356;
5253450826047793;-0.2578;-0.0748;0.0324;
5253450836171126;-0.1790;0.0690;0.0217;
5253450846274147;-0.1651;0.0253;0.0196;
5253450856377272;-0.1236;-0.0109;0.0068;
5253450866498887;-0.1491;-0.0003;-0.0017;
5253450876601960;-0.1545;0.0125;-0.0145;
5253450886705032;-0.1076;0.0977;0.0292;
5253450896794876;-0.1140;0.1180;0.0174;
5253450906897897;-0.1321;-0.0493;0.0334;
5253450917001022;-0.1406;0.0221;0.0142;
5253450927111126;-0.1523;0.1137;0.0015;
5253450937214251;-0.1300;0.0146;0.0153;
5253450947317324;-0.1427;-0.0866;-0.0411;
5253450957421022;-0.1257;-0.0056;-0.0475;
5253450967524095;-0.1257;0.0935;-0.0316;
5253450977627168;-0.1268;0.0349;-0.0273;
5253450987696439;-0.0511;0.2957;-0.0816;
5253450997799512;0.0170;0.3170;-0.0316;
5253451007902585;-0.0107;-0.2208;-0.0124;
5253451018019772;-0.1236;-0.5881;0.0036;
5253451028122845;-0.2535;-0.3071;-0.0284;
5253451038225918;-0.1992;0.3831;-0.0880;
5253451048319303;-0.2216;0.3714;-0.0827;
5253451058422376;0.0586;-0.0503;-0.0316;
5253451068525449;0.3269;0.1361;-0.0443;
5253451078640032;0.0650;0.0125;-0.0688;
5253451088743157;-0.1822;-0.3774;-0.0379;
5253451098846178;-0.0863;-0.0067;-0.0688;
5253451108955241;-0.0405;0.3863;-0.0816;
5253451119058314;0.0394;0.5716;-0.0401;
5253451129161387;0.1672;0.1478;0.0270;
5253451139312428;0.0660;-0.7394;0.0292;
5253451149415449;-0.1672;-0.4454;0.0057;
5253451159518522;-0.2557;0.2585;-0.0422;
5253451169556387;-0.3334;0.0455;-0.0699;
5253451179659512;-0.2077;-0.3774;-0.0688;
5253451189762585;-0.0565;-0.1228;-0.0965;
5253451199872949;-0.1875;0.0796;-0.1232;
5253451209976022;-0.2237;0.0732;-0.1093;
5253451220079095;-0.0586;0.0391;-0.0997;
5253451230181178;0.0639;0.0551;-0.1115;
5253451240284251;0.0628;0.4470;-0.1019;
5253451250387324;0.0597;0.2798;-0.0646;
5253451260493835;0.1225;-0.1217;-0.0411;
5253451270596907;0.0085;-0.0770;-0.0699;
5253451280700032;-0.1257;-0.0684;-0.0593;
5253451290805814;-0.1044;-0.1696;-0.0656;
5253451300908887;-0.1310;-0.1963;-0.0550;
5253451311012012;-0.2184;-0.1025;-0.0997;
5253451321116960;-0.1715;0.1180;-0.1466;
5253451331220032;-0.0650;-0.0684;-0.1317;
5253451341323157;-0.0202;-0.3230;-0.1434;
5253451351413730;-0.0628;-0.1430;-0.1977;
5253451361516855;-0.0810;0.0455;-0.1796;
5253451371619980;0.0149;-0.0194;-0.2020;
5253451381731022;0.2065;0.0253;-0.1690;
5253451391834095;0.2150;0.2158;-0.1562;
5253451401937220;0.1842;0.0509;-0.1029;
5253451412046230;0.1969;-0.0993;-0.0848;
5253451422149303;0.1417;0.0072;-0.1136;
5253451432252428;0.1385;0.2158;-0.1423;
5253451442346595;0.1842;0.1787;-0.1242;
5253451452449720;0.1884;-0.0961;-0.1242;
5253451462552845;0.1321;0.0775;-0.1296;
5253451472658105;0.0490;0.4374;-0.1509;
5253451482761178;0.1746;0.1531;-0.0912;
5253451492864303;0.2491;-0.1569;-0.0752;
5253451502966439;0.0895;-0.0184;-0.0710;
5253451513069564;-0.0032;0.0455;-0.0624;
5253451523172637;0.0320;-0.2101;-0.1115;
5253451533283626;0.0639;-0.2378;-0.0443;
5253451543386699;-0.0288;0.0477;-0.0955;
5253451553489772;0.0352;0.1276;-0.1242;
5253451563608366;0.1161;-0.1696;-0.1306;
5253451573711439;0.1682;-0.1281;-0.0933;
5253451583814564;0.0980;0.1606;-0.1200;
5253451593884928;0.1630;0.1883;-0.0774;
5253451603988053;0.2491;-0.0418;-0.0369;
5253451614091178;0.2310;-0.1015;-0.0465;
5253451624206960;0.0905;0.0285;-0.0252;
5253451634310032;0.0991;0.1222;-0.0134;
5253451644413157;0.0820;-0.1132;0.0153;
5253451654517793;0.0362;-0.2229;-0.0060;
5253451664620866;-0.0064;0.0338;-0.0220;
5253451674723991;-0.0479;0.0221;-0.0220;
5253451684824772;0.0064;-0.0780;-0.0145;
5253451694927845;0.0639;0.1041;0.0068;
5253451705030918;0.0905;0.0679;0.0089;
5253451715134616;0.0916;-0.0099;0.0079;
5253451725237689;0.0767;0.1084;0.0387;
5253451735340814;0.0320;-0.0280;0.0451;
5253451745446699;0.0810;0.0104;0.0526;
5253451755549772;0.0469;-0.0269;0.0632;
5253451765652845;0.0383;-0.0226;0.0387;
5253451775750814;0.0405;0.0988;0.0558;
5253451785853887;0.0415;-0.0003;0.0846;
5253451795956960;0.0618;-0.1867;0.0899;
5253451806059460;0.0032;-0.0663;0.0899;
5253451816162532;-0.0415;0.1116;0.1122;
5253451826265605;0.0032;0.0168;0.1154;
5253451836369407;0.0352;0.0722;0.0984;
5253451846472480;0.0479;0.0668;0.1272;
5253451856575553;0.0447;0.0008;0.1389;
5253451866681960;0.0075;-0.0876;0.1666;
5253451876785032;-0.0916;-0.1792;0.2124;
5253451886888105;-0.1587;-0.0407;0.1538;
5253451896984980;-0.0905;0.1073;0.1474;
5253451907088105;-0.0181;0.1318;0.1485;
5253451917191230;-0.0298;-0.0248;0.1698;
5253451927316178;-0.0724;-0.0439;0.1367;
5253451937419251;-0.1332;0.0658;0.1186;
5253451947522324;-0.1108;-0.0791;0.1612;
5253451957611960;-0.0511;-0.0024;0.1474;
5253451967715032;-0.1204;0.0860;0.1549;
5253451977818105;-0.1598;-0.0674;0.1495;
5253451987934564;-0.1118;-0.0876;0.1687;
5253451998037637;-0.1417;-0.0514;0.1080;
5253452008140710;-0.1214;0.0349;0.0877;
5253452018215293;-0.1140;-0.0258;0.0792;
5253452028318418;-0.0756;0.0594;0.0569;
5253452038421491;-0.0490;0.0988;0.0782;
5253452048568262;-0.0309;0.0296;0.0696;
5253452058671335;-0.0277;0.0455;0.0590;
5253452068774460;-0.0352;0.0700;0.0867;
5253452078833053;-0.0224;-0.0173;0.0888;
5253452088936126;-0.0394;-0.1366;0.0771;
5253452099039251;-0.0895;-0.0535;0.0302;
5253452109165762;-0.1619;0.0413;0.0622;
5253452119268835;-0.1534;-0.0184;-0.0113;
5253452129371960;-0.0383;0.0445;-0.0230;
5253452139464824;-0.0490;0.0573;-0.0124;
5253452149567949;-0.0234;0.0764;-0.0198;
5253452159671022;-0.0256;0.0477;-0.0188;
5253452169763053;-0.0043;-0.0418;0.0260;
5253452179866178;-0.0426;-0.1696;0.0079;
5253452189969251;-0.0565;0.1041;-0.0177;
5253452200074095;-0.1193;0.1776;-0.0049;
5253452210177220;-0.0660;-0.1398;-0.0177;
5253452220280345;-0.0692;-0.1132;-0.0603;
5253452230387637;-0.1843;0.0754;-0.0763;
5253452240490762;-0.1545;0.0679;-0.0891;
5253452250593835;-0.0415;-0.1015;-0.0933;
5253452260700814;-0.0842;-0.0993;-0.0848;
5253452270803887;-0.1087;0.1691;-0.0848;
5253452280906960;-0.0991;0.2032;-0.1061;
5253452291016439;-0.0256;0.0115;-0.0955;
5253452301119512;-0.0458;0.0210;-0.1296;
5253452311222637;-0.0714;0.0626;-0.1264;
5253452321314980;-0.0543;0.0466;-0.1328;
5253452331418053;-0.0831;-0.0620;-0.1541;
5253452341521126;-0.1076;-0.1601;-0.1615;
5253452351626022;-0.0820;0.0221;-0.1594;
5253452361729095;-0.0469;0.1478;-0.1498;
5253452371832168;-0.0213;-0.0876;-0.1391;
5253452381934355;0.0032;0.0636;-0.1445;
5253452392037428;-0.0671;0.0221;-0.1786;
5253452402140501;-0.0032;-0.0961;-0.1956;
5253452412244147;0.0234;0.0967;-0.1754;
5253452422347272;-0.0224;-0.0706;-0.1679;
5253452432450345;0.0160;-0.1387;-0.1764;
5253452442553522;0.0458;0.1222;-0.1509;
5253452452656595;0.0607;0.1585;-0.1615;
5253452462759668;0.1417;-0.0418;-0.1541;
5253452472863210;0.1129;-0.0471;-0.1370;
5253452482966282;-0.0107;-0.0088;-0.1349;
5253452493069355;-0.0213;-0.1047;-0.1647;
5253452503164824;0.0639;0.0146;-0.1690;
5253452513267949;0.0788;0.0360;-0.1338;
5253452523371022;0.1692;0.1489;-0.1104;
5253452533487376;0.1161;0.0754;-0.0976;
5253452543590449;0.0597;-0.1142;-0.1072;
5253452553693522;0.0373;-0.1877;-0.0443;
5253452563811126;0.0224;-0.1281;-0.0571;
5253452573914199;0.0597;0.0455;-0.0784;
5253452584017272;0.1001;0.0871;-0.0561;
5253452594110397;0.1767;0.0892;-0.0869;
5253452604213470;0.1449;-0.0130;-0.0688;
5253452614316595;0.0799;0.0274;-0.0465;
5253452624401647;0.0437;0.0573;-0.0316;
5253452634504772;0.0607;-0.1206;-0.0241;
5253452644607845;0.0426;-0.1398;-0.0049;
5253452654743105;0.0692;0.1201;0.0004;
5253452664846178;0.0650;0.0562;0.0132;
5253452674949303;0.0245;-0.1782;-0.0081;
5253452685039564;0.0011;-0.1004;-0.0145;
5253452695142637;-0.0043;-0.0152;-0.0241;
5253452705245762;0.0778;0.0977;0.0132;
5253452715351126;0.0394;-0.0280;-0.0060;
5253452725454199;0.0405;-0.1675;0.0025;
5253452735557324;0.0245;0.1158;0.0047;
5253452745655866;0.0618;0.1553;0.0132;
5253452755758939;0.1672;0.1638;0.0313;
5253452765862012;0.1459;0.2787;0.0324;
5253452775957272;0.1193;0.1222;0.0324;
5253452786060345;0.0724;-0.0684;0.0185;
5253452796163418;-0.0447;-0.1356;0.0760;
5253452806264928;-0.1310;-0.2133;0.0877;
5253452816368001;-0.1193;0.0019;0.0324;
5253452826471074;-0.0437;0.0967;0.0494;
5253452836569407;0.0597;-0.1707;0.0750;
5253452846672532;0.0128;-0.1750;0.0547;
5253452856775605;-0.0746;-0.1931;0.0696;
5253452866887793;-0.1832;-0.7991;0.0835;
5253452876990866;-0.1417;-0.6915;0.0686;
5253452887093939;0.0202;0.1563;0.0356;
5253452897194980;-0.0245;0.4044;0.0068;
5253452907298053;0.0618;-0.0269;0.1016;
5253452917401126;0.3344;-0.2229;0.1101;
5253452927552949;0.1959;0.1126;0.0867;
5253452937656022;-0.0107;0.3011;0.1272;
5253452947759095;0.0959;0.0562;0.1144;
5253452957813157;0.1587;-0.1206;0.1101;
5253452967916282;0.0266;0.8453;0.0590;
5253452978019355;-0.0138;1.0764;0.1208;
5253452988176491;0.3759;-0.0461;0.1879;
5253452998279564;0.2768;-0.2964;0.2039;
5253453008382637;-0.4643;0.1169;0.1932;
5253453018436387;-0.6262;-0.0578;0.1442;
5253453028539460;-0.4240;-0.1931;0.0792;
5253453038642585;-0.5527;-0.0716;0.0324;
5253453048737741;-0.5762;0.1329;-0.0390;
5253453058840814;-0.3387;0.0402;-0.0614;
5253453068943991;-0.1427;-0.1526;-0.1136;
5253453079039824;-0.1172;-0.1334;-0.1391;
5253453089142949;0.0021;0.0019;-0.1029;
5253453099246074;0.1374;-0.0173;-0.0763;
5253453109366126;0.3088;0.0924;-0.0497;
5253453119469199;0.3067;0.1095;-0.0209;
5253453129572272;0.2822;-0.1984;-0.0007;
5253453139672897;0.2885;-0.0727;0.0025;
5253453149775970;0.1523;0.0700;0.0142;
5253453159879043;0.1374;-0.0897;0.0004;
5253453169977116;0.2278;0.0658;0.0025;
5253453180080189;0.0916;0.0999;0.0441;
5253453190183262;0.0181;-0.1089;0.0483;
5253453200284460;0.0330;0.1031;0.0334;
5253453210387532;-0.0597;0.1893;0.0675;
5253453220490657;-0.0202;0.0040;0.0888;
5253453230594512;0.0394;0.2467;0.0430;
5253453240697637;-0.1033;0.1095;0.0590;
5253453250800762;-0.1545;-0.2623;0.0324;
5253453260905085;-0.1332;0.0221;-0.0348;
5253453271008157;-0.2407;0.1659;-0.0273;
5253453281111282;-0.1140;-0.0738;-0.0060;
5253453291240293;0.0043;-0.0226;-0.0635;
5253453301343366;-0.1097;0.0200;-0.0422;
5253453311446491;-0.0948;-0.0056;-0.0475;
5253453321520449;-0.0490;0.0232;-0.0880;
5253453331623574;-0.0447;-0.1164;-0.1178;
5253453341726699;0.0373;0.1031;-0.0827;
5253453351825762;0.0522;0.1478;-0.0806;
5253453361928887;-0.0202;-0.1345;-0.0624;
5253453372032012;-0.0160;-0.0983;-0.0678;
5253453382144980;-0.0032;-0.0599;-0.0848;
5253453392248053;0.0107;-0.1292;-0.0603;
5253453402351126;0.0554;-0.0983;-0.0422;
5253453412448470;0.0831;-0.1430;-0.0262;
5253453422551595;0.0852;-0.1483;-0.0603;
5253453432654720;0.1140;-0.0748;-0.0465;
5253453442769147;0.1937;0.0360;-0.0550;
5253453452872220;0.3024;0.1478;-0.0390;
5253453462975345;0.2640;0.1489;0.0111;
5253453473078782;0.1129;0.0338;0.0409;
5253453483181855;0.0959;0.0626;0.0611;
5253453493284980;0.1491;0.1947;0.0739;
5253453503390189;0.1502;0.1499;0.1016;
5253453513493262;0.0980;0.0466;0.0984;
5253453523596335;0.0575;0.0296;0.1091;
5253453533706074;-0.0170;-0.0035;0.0984;
5253453543809147;-0.0639;-0.0557;0.0877;
5253453553912272;-0.0959;-0.0642;0.0814;
5253453564000189;-0.0895;-0.1238;0.0803;
5253453574103314;-0.0959;-0.0152;0.0803;
5253453584206387;-0.0107;0.0935;0.1122;
5253453594312064;0.0682;-0.0812;0.1229;
5253453604415137;0.0117;-0.1664;0.1005;
5253453614518262;-0.0458;-0.0844;0.0782;
5253453624627480;-0.0138;-0.0791;0.0973;
5253453634730553;0.0522;0.0381;0.0909;
5253453644833678;0.0852;0.0764;0.1027;
5253453654921907;0.1161;-0.0130;0.1101;
5253453665025032;0.0394;0.0360;0.1293;
5253453675128157;-0.0011;-0.0631;0.1336;
5253453685234772;0.0075;-0.1047;0.1272;
5253453695337845;-0.0511;-0.0173;0.1336;
5253453705440970;-0.0767;-0.0727;0.1165;
5253453715543730;-0.1118;0.0349;0.1016;
5253453725646855;-0.1023;0.2521;0.0931;
5253453735749980;0.0565;0.1648;0.0803;
5253453745851074;0.0799;0.1095;0.0824;
5253453755954199;-0.0810;0.1371;0.0782;
5253453766057324;-0.0650;0.0743;0.0888;
5253453776155345;-0.0501;0.0913;0.0760;
5253453786258470;-0.0618;0.0860;0.0760;
5253453796361543;-0.0628;-0.0248;0.0430;
5253453806441855;-0.1023;-0.0567;0.0473;
5253453816544876;-0.2248;-0.1622;0.0174;
5253453826648001;-0.2354;-0.1931;-0.0305;
5253453836751074;-0.1811;-0.0759;-0.0316;
5253453846902272;-0.0905;-0.2154;-0.0326;
5253453857005345;-0.1161;-0.3614;-0.0656;
5253453867108418;-0.2130;-0.2101;-0.0742;
5253453877193522;-0.1619;-0.0109;-0.0752;
5253453887296595;0.0554;-0.0130;-0.0550;
5253453897399668;0.1980;-0.0173;-0.0987;
5253453907572376;0.2332;0.1052;-0.0901;
5253453917675449;0.2225;0.1872;-0.0411;
5253453927778522;0.1969;-0.0205;-0.0411;
5253453937794876;0.1682;-0.0866;-0.0507;
5253453947897949;0.0501;0.0402;-0.0348;
5253453958001022;0.0277;-0.0344;-0.0124;
5253453968167689;-0.0213;-0.2250;0.0228;
5253453978270710;-0.1854;-0.1846;-0.0007;
5253453988373835;-0.3494;0.1371;-0.0497;
5253453998436074;-0.2216;0.1425;-0.0624;
5253454008539147;0.1150;0.2403;-0.1285;
5253454018642272;0.1991;0.6313;-0.1423;
5253454028753522;0.2832;0.5301;-0.0752;
5253454038856647;0.3109;-0.1920;-0.0348;
5253454048959668;0.0075;-0.1899;-0.0198;
5253454058999772;-0.2322;0.1510;-0.0081;
5253454069102845;-0.1523;-0.0035;-0.0007;
5253454079205918;-0.0128;-0.2016;-0.0156;
5253454089377845;-0.1300;-0.2080;-0.0252;
5253454099480918;-0.2269;-0.1590;-0.0710;
5253454109583991;-0.1758;-0.3806;-0.1200;
5253454119682324;-0.1587;-0.4411;-0.1530;
5253454129785397;-0.1832;-0.1142;-0.1690;
5253454139888522;-0.0746;0.1872;-0.1754;
5253454149974147;0.2310;0.3479;-0.1125;
5253454160077220;0.4856;0.1254;-0.0614;
5253454170180293;0.4909;-0.0589;-0.0039;
5253454180279095;0.2225;-0.0067;0.0334;
5253454190382220;0.1108;0.0743;0.0462;
5253454200485293;0.1991;-0.0557;0.0675;
5253454210591282;0.1682;-0.2666;0.0654;
5253454220694407;0.0426;-0.0290;0.0302;
5253454230797532;-0.0639;-0.0365;0.0632;
5253454240913001;-0.1438;-0.4294;0.0601;
5253454251016074;-0.1779;-0.1217;0.0356;
5253454261119147;-0.3611;0.3394;0.0334;
5253454271217376;-0.1640;0.1819;0.0441;
5253454281320449;0.2182;0.0040;0.0398;
5253454291423522;0.0927;0.0349;0.0398;
5253454301509303;-0.0778;0.0594;0.0526;
5253454311612428;-0.0373;-0.0237;0.0728;
5253454321715553;-0.0426;-0.1931;0.0728;
5253454331843887;-0.0405;-0.0940;0.0398;
5253454341947012;-0.0628;0.1531;0.0686;
5253454352050085;-0.0756;0.0658;0.1027;
5253454362146439;-0.0405;-0.0109;0.0547;
5253454372249512;-0.0437;0.1659;-0.0124;
5253454382352637;-0.0277;0.0423;0.0185;
5253454392457689;-0.0639;-0.0344;0.0121;
5253454402560762;-0.1726;0.1521;-0.0145;
5253454412663887;-0.1779;0.2075;-0.0060;
5253454422770814;-0.0053;0.0381;0.0462;
5253454432873887;-0.0533;-0.0748;0.0249;
5253454442977012;-0.1481;0.1766;-0.0156;
5253454453086647;-0.1513;0.1190;0.0089;
5253454463189720;-0.0533;-0.0695;0.0057;
5253454473292845;-0.0618;0.1158;-0.0539;
5253454483384043;-0.0192;0.4001;-0.0784;
5253454493487116;0.0703;0.4406;-0.0646;
5253454503590241;0.0650;-0.0365;-0.0198;
5253454513690189;-0.1289;-0.3806;-0.0284;
5253454523793262;-0.1726;0.0796;-0.0284;
5253454533896387;-0.1811;0.3383;-0.0081;
5253454544008366;-0.0373;-0.2027;0.0196;
5253454554111439;-0.0170;-0.4433;-0.0348;
5253454564214564;-0.2248;-0.4880;0.0057;
5253454574309251;-0.2674;-0.4358;-0.0827;
5253454584412324;-0.1747;-0.1867;-0.1498;
5253454594515449;-0.1875;-0.0322;-0.1434;
5253454604619147;0.0330;0.2414;-0.1445;
5253454614722220;0.2843;0.6323;-0.1349;
5253454624825345;0.3706;0.2233;-0.0433;
5253454634940814;0.3802;-0.1537;0.0324;
5253454645043939;0.1172;-0.0397;0.0654;
5253454655147012;-0.0692;-0.1601;0.0622;
5253454665251855;0.0469;-0.1142;0.0622;
5253454675354928;-0.0128;-0.1952;0.1154;
5253454685458053;-0.1683;-0.5487;0.0835;
5253454695546855;-0.2407;-0.3007;0.0601;
5253454705649928;-0.3558;-0.4156;0.0398;
5253454715753053;-0.3079;-0.4763;-0.0092;
5253454725838887;-0.2855;0.0892;-0.0614;
5253454735942012;-0.5101;0.0146;-0.0688;
5253454746045137;-0.2184;0.1766;-0.1264;
5253454756167532;0.1566;0.8975;-0.1999;
5253454766270605;0.5027;1.2852;-0.1839;
5253454776373678;0.6837;1.2224;-0.0923;
5253454786476751;0.5634;0.9198;-0.0145;
5253454796579824;0.3631;0.5514;0.0441;
5253454806682949;-0.0426;0.2510;0.0601;
5253454816790814;-0.3249;-0.0929;0.0547;
5253454826893887;-0.4814;-0.4134;0.0675;
5253454836996960;-0.5655;-0.6446;0.0590;
5253454847074147;-0.6337;-0.8853;-0.0198;
5253454857177272;-0.6422;-0.9471;-0.1391;
5253454867280345;-0.5623;-0.5732;-0.2329;
5253454877401126;-0.2802;-0.1196;-0.2830;
5253454887504199;-0.0607;0.0615;-0.3053;
5253454897607324;0.1236;-0.0173;-0.2766;
5253454907695189;0.4856;0.1883;-0.2201;
5253454917798262;0.5666;0.5130;-0.1413;
5253454927901387;0.6529;0.5674;-0.0369;
5253454938033470;0.7880;0.5429;0.0100;
5253454948136543;0.7647;0.2510;0.1091;
5253454958239668;0.6848;0.1521;0.1889;
5253454968340189;0.3727;0.0690;0.2667;
5253454978443210;0.0937;-0.2900;0.2857;
5253454988546335;0.0245;-0.4806;0.2815;
5253454998634303;-0.1044;-0.5093;0.3284;
5253455008737428;-0.2301;-0.3603;0.2772;
5253455018840501;-0.4824;-0.2336;0.2262;
5253455028938053;-0.8031;-0.1558;0.1804;
5253455039041178;-0.6422;0.0445;0.1101;
5253455049144251;-0.2865;0.3873;0.0760;
5253455059276543;0.0383;0.2435;0.0941;
5253455069379564;0.1746;0.0381;0.0260;
5253455079482689;0.0820;0.1627;0.0643;
5253455089550137;-0.0522;0.2000;0.1112;
5253455099653262;0.0298;0.1904;0.1346;
5253455109756387;-0.0032;0.0668;0.1719;
5253455119866647;-0.0927;-0.2048;0.1495;
5253455129969772;-0.2407;-0.1526;0.0824;
5253455140072897;-0.3792;-0.0525;0.0856;
5253455150182949;-0.3100;-0.0077;0.0132;
5253455160286022;-0.1427;-0.1664;0.0132;
5253455170389147;-0.1523;-0.2272;-0.0241;
5253455180494043;-0.2855;-0.1174;-0.0028;
5253455190597116;-0.3047;-0.0972;-0.0379;
5253455200700189;-0.2322;0.0040;-0.0518;
5253455210799772;-0.1715;0.0647;-0.0337;
5253455220902845;-0.0682;0.0072;-0.0699;
5253455231005918;-0.0245;0.0487;-0.0795;
5253455241103053;-0.0064;0.1425;-0.0859;
5253455251206178;0.0937;0.0658;-0.0678;
5253455261309303;0.1023;-0.0226;-0.1221;
5253455271412637;0.0011;0.0487;-0.1146;
5253455281515710;-0.0383;0.1467;-0.1104;
5253455291618782;0.0096;0.1393;-0.0901;
5253455301742220;0.0362;-0.0035;-0.0550;
5253455311845345;-0.0426;-0.0493;-0.0965;
5253455321948418;-0.1321;0.0360;-0.0848;
5253455332039876;-0.1012;0.0413;-0.1040;
5253455342142949;-0.0128;-0.0258;-0.1242;
5253455352246022;-0.0820;-0.2186;-0.1434;
5253455362342845;-0.1672;-0.3284;-0.1722;
5253455372445918;-0.3441;-0.0322;-0.2041;
5253455382549043;-0.4112;0.0956;-0.1956;
5253455392648678;-0.0224;0.0051;-0.2105;
5253455402751751;0.1246;0.0402;-0.2446;
5253455412854876;0.0330;0.0306;-0.2169;
5253455422966126;0.0128;-0.0578;-0.1977;
5253455433069199;-0.0383;0.0253;-0.2212;
5253455443172272;0.0170;0.1670;-0.2371;
5253455453277272;0.2182;0.3980;-0.2371;
5253455463380345;0.3652;0.2702;-0.1647;
5253455473483418;0.3642;-0.1654;-0.1445;
5253455483580189;0.1427;-0.0716;-0.1189;
5253455493683262;-0.0671;0.0370;-0.0912;
5253455503786335;0.0746;0.0519;-0.1360;
5253455513888470;0.1555;0.0423;-0.1253;
5253455523991543;0.0980;-0.1132;-0.1061;
5253455534094668;0.0043;-0.1185;-0.0965;
5253455544229303;-0.0660;-0.1270;-0.1200;
5253455554332376;-0.0138;-0.0802;-0.1519;
5253455564435501;0.0767;0.1435;-0.1178;
5253455574523835;0.1033;0.2329;-0.1168;
5253455584626907;0.2204;0.0690;-0.1029;
5253455594729980;0.1991;-0.0727;-0.0987;
5253455604812220;0.0650;-0.0280;-0.0859;
5253455614915293;0.0490;0.1201;-0.1040;
5253455625018418;0.1449;0.1755;-0.0774;
5253455635136126;0.2172;0.0274;-0.0401;
5253455645239147;0.1724;-0.1057;-0.0273;
5253455655342272;0.0138;-0.2250;-0.0198;
5253455665442585;-0.0202;-0.2144;-0.0177;
5253455675545710;-0.0511;-0.1877;-0.0337;
5253455685648730;-0.0373;-0.1867;-0.0294;
5253455695746960;-0.0256;0.0754;-0.0688;
5253455705849980;-0.0107;0.2915;-0.0944;
5253455715953105;0.1459;-0.0631;-0.0816;
5253455726055085;0.2140;0.0498;-0.0827;
5253455736158157;0.0256;0.0892;-0.0443;
5253455746261230;0.0746;-0.1601;-0.0518;
5253455756365814;0.0245;-0.0589;-0.0198;
5253455766468835;-0.0597;-0.0535;-0.0262;
5253455776571960;0.0170;-0.1654;-0.0230;
5253455786673991;0.0170;-0.1185;-0.0358;
5253455796777116;0.0170;-0.0834;-0.0848;
5253455806880189;0.0671;0.0360;-0.0965;
5253455817009251;0.0842;0.1084;-0.0997;
5253455827112272;0.1609;0.0722;-0.1115;
5253455837215397;0.2257;0.2106;-0.1125;
5253455847314668;0.1969;0.1254;-0.0720;
5253455857417689;0.1927;-0.0045;-0.0518;
5253455867520762;0.1108;0.1830;-0.0422;
5253455877603522;0.1172;0.0796;-0.0241;
5253455887706595;0.1651;0.0051;-0.0518;
5253455897809668;0.1150;0.0754;-0.0443;
5253455907934095;0.1140;-0.0589;-0.0465;
5253455918037168;0.0969;-0.1931;-0.0433;
5253455928140241;0.0767;-0.1835;-0.0784;
5253455938216803;0.1023;-0.1377;-0.0678;
5253455948319876;0.1268;-0.0983;-0.0465;
5253455958422949;0.1491;-0.0951;-0.0230;
5253455968536491;0.1842;-0.1004;-0.0028;
5253455978639564;0.2598;0.0338;0.0100;
5253455988742637;0.3375;-0.0141;-0.0188;
5253455998842376;0.4249;-0.1185;0.0313;
5253456008945449;0.3375;0.1414;0.0366;
5253456019048522;0.3429;0.2446;0.0515;
5253456029168053;0.5783;0.0360;0.1016;
5253456039271178;0.5847;-0.0077;0.1421;
5253456049374199;0.3589;0.0583;0.1783;
5253456059447116;0.3067;-0.0109;0.2529;
5253456069550137;0.3013;-0.1164;0.2932;
5253456079653210;0.2118;-0.1696;0.2868;
5253456089781960;0.1735;0.0168;0.2710;
5253456099885032;0.1969;0.0988;0.3049;
5253456109988105;0.2182;-0.1164;0.3369;
5253456120073053;0.1406;-0.2229;0.3486;
5253456130176178;0.0256;-0.0056;0.3433;
5253456140279251;0.0266;-0.0280;0.3454;
5253456150421855;0.1129;-0.0983;0.3838;
5253456160524928;0.0320;0.0349;0.4104;
5253456170628001;0.0373;0.0690;0.3976;
5253456180705814;0.1300;0.2075;0.3912;
5253456190808835;0.1523;0.0061;0.3933;
5253456200911960;0.0597;-0.0375;0.3976;
5253456211010397;-0.1236;0.0796;0.4104;
5253456221113470;-0.1193;0.0360;0.3955;
5253456231216543;-0.0905;0.1105;0.3965;
5253456241315866;-0.1481;0.0775;0.4008;
5253456251418939;-0.1800;-0.0738;0.3774;
5253456261522012;-0.3345;-0.1782;0.3752;
5253456271645553;-0.4600;-0.0099;0.3081;
5253456281748678;-0.3909;-0.0993;0.3028;
5253456291851803;-0.3110;-0.2261;0.2348;
5253456301952741;-0.4197;0.0072;0.2284;
5253456312055866;-0.5559;-0.3401;0.1730;
5253456322158991;-0.5037;-0.0173;0.1282;
5253456332233470;-0.5101;0.3873;0.1080;
5253456342336647;-0.0799;-0.0312;0.1059;
5253456352439720;0.1374;-0.1654;0.0963;
5253456362554720;-0.2557;-0.0503;0.0782;
5253456372657845;-0.3696;-0.0876;0.0292;
5253456382760970;-0.2450;-0.0812;0.0398;
5253456392860449;-0.2535;0.1265;0.0025;
5253456402963574;-0.1459;0.2712;-0.0049;
5253456413066699;-0.0458;0.3224;0.0196;
5253456423165970;-0.1140;-0.1750;-0.0028;
5253456433269095;-0.1971;-0.4614;-0.0113;
5253456443372272;-0.2663;0.2936;-0.0209;
5253456453488053;-0.2525;0.2680;-0.0039;
5253456463591178;0.1300;-0.0013;-0.0166;
5253456473694303;0.0852;0.1585;-0.0028;
5253456483798782;-0.0959;0.1936;0.0015;
5253456493901907;0.0724;0.2011;0.0238;
5253456504005032;0.0905;-0.0269;0.0707;
5253456514097637;0.0234;-0.0290;0.0877;
5253456524200762;-0.1001;0.0264;0.1133;
5253456534303887;-0.1395;-0.1206;0.1261;
5253456544424928;-0.1097;-0.2389;0.1144;
5253456554528053;-0.0746;0.0583;0.1037;
5253456564631230;-0.0437;0.2425;0.1229;
5253456574720345;0.0575;0.0157;0.1708;
5253456584823470;0.0149;0.1084;0.1336;
5253456594926595;-0.0895;0.1457;0.1676;
5253456605019095;-0.0927;0.0285;0.2124;
5253456615122220;-0.1459;0.0807;0.2007;
5253456625225345;-0.2003;0.0509;0.2252;
5253456635342324;-0.1971;0.0210;0.2103;
5253456645445501;-0.2312;0.0285;0.2188;
5253456655548574;-0.3281;-0.0961;0.1804;
5253456665656282;-0.4154;-0.1132;0.1549;
5253456675759407;-0.4941;0.1233;0.1336;
5253456685862585;-0.4389;0.1116;0.1069;
5253456695950657;-0.2663;0.0839;0.0675;
5253456706053782;-0.3334;0.0519;0.1186;
5253456716156960;-0.4739;-0.0386;0.0728;
5253456726295866;-0.5016;-0.1398;0.0441;
5253456736398991;-0.5218;0.0498;0.0079;
5253456746502116;-0.4547;0.2883;-0.0284;
5253456756591282;-0.3057;0.1414;-0.0316;
5253456766694407;-0.3121;-0.0578;-0.0688;
5253456776797585;-0.4845;-0.0684;-0.1423;
5253456786886595;-0.5325;-0.0344;-0.1626;
5253456796989720;-0.4473;-0.0748;-0.1786;
5253456807092897;-0.3984;-0.0301;-0.1956;
5253456817203210;-0.4346;0.0647;-0.2265;
5253456827306282;-0.3739;0.0828;-0.2659;
5253456837409460;-0.2865;0.0935;-0.3149;
5253456847554043;-0.2865;-0.0141;-0.3341;
5253456857657168;-0.2333;0.2043;-0.3531;
5253456867760241;-0.2173;0.4150;-0.3680;
5253456877813678;-0.1278;0.2222;-0.3638;
5253456887916855;-0.1342;0.1105;-0.3819;
5253456898019980;-0.2738;0.0189;-0.3851;
5253456908167220;-0.2919;-0.1877;-0.3819;
5253456918270345;-0.2471;-0.2027;-0.4213;
5253456928373470;-0.2205;-0.0908;-0.4490;
5253456938432741;-0.1523;-0.0759;-0.4660;
5253456948535866;-0.0096;0.0423;-0.4756;
5253456958638991;0.0234;-0.0589;-0.5001;
5253456968752637;0.0820;-0.0397;-0.5278;
5253456978855762;0.1662;0.1787;-0.5033;
5253456988958887;0.1863;0.0860;-0.4607;
5253456999052012;0.2332;-0.0866;-0.4437;
5253457009155137;0.3098;0.2128;-0.4160;
5253457019258314;0.3258;0.2883;-0.3808;
5253457029346907;0.3610;-0.1377;-0.3627;
5253457039450032;0.3908;-0.0897;-0.3371;
5253457049553210;0.2257;-0.1228;-0.3160;
5253457059657116;0.2694;-0.1377;-0.3096;
5253457069760241;0.3035;-0.1643;-0.2723;
5253457079863366;0.2704;-0.3305;-0.2638;
5253457090000293;0.2917;-0.1324;-0.2787;
5253457100103366;0.3056;-0.0099;-0.2382;
5253457110206491;0.4249;-0.1601;-0.1956;
5253457120288782;0.4600;-0.1089;-0.1732;
5253457130391907;0.4185;0.1893;-0.1711;
5253457140495032;0.5836;0.2340;-0.1189;
5253457150596699;0.8306;0.2233;-0.1019;
