Sensor: bmi160 Accelerometer Non-wakeup
Vendor: BOSCH
TimestampAcc [ns]; AccX [m/s^2]; AccY [m/s^2]; AccZ [m/s^2]
83405467255663;-9.3832;0.0350;-2.7254;
83405477356496;-9.4047;0.0876;-2.7589;
83405487486496;-9.3855;0.1092;-2.7326;
83405497570975;-9.3975;0.1331;-2.7374;
83405507707746;-9.4190;0.1211;-2.7087;
83405517792225;-9.3879;0.0996;-2.6824;
83405527937121;-9.3903;0.1283;-2.7111;
83405538029204;-9.4358;0.1164;-2.7230;
83405548139048;-9.4262;0.1259;-2.7111;
83405558246652;-9.3975;0.1499;-2.7182;
83405568349569;-9.3975;0.1427;-2.6991;
83405578462590;-9.4190;0.0996;-2.6728;
83405588538892;-9.4190;0.0565;-2.6321;
83405598680402;-9.4190;0.0111;-2.6130;
83405608767329;-9.4214;0.0039;-2.6704;
83405618867277;-9.3855;0.0230;-2.6632;
83405628972798;-9.4071;0.0230;-2.6345;
83405639075454;-9.4238;0.0494;-2.6106;
83405649182486;-9.4525;0.0254;-2.5863;
83405659286861;-9.4406;0.0206;-2.5528;
83405669394673;-9.4095;-0.0033;-2.5648;
83405679500194;-9.4167;-0.0583;-2.6010;
83405689606757;-9.3879;-0.1280;-2.6058;
83405699710090;-9.3879;-0.2237;-2.6297;
83405709817590;-9.3975;-0.3075;-2.6082;
83405719922486;-9.3999;-0.3508;-2.5265;
83405730028111;-9.3712;-0.3365;-2.4906;
83405740127538;-9.3999;-0.2477;-2.4811;
83405750238632;-9.4358;-0.1783;-2.5122;
83405760345715;-9.4430;-0.1161;-2.6058;
83405770449204;-9.3808;-0.1208;-2.7517;
83405780551236;-9.3401;-0.2357;-2.8860;
83405790657798;-9.3042;-0.4250;-2.8813;
83405800767694;-9.3185;-0.5734;-2.8211;
83405810873736;-9.3377;-0.6718;-2.6489;
83405820975611;-9.4071;-0.7292;-2.5193;
83405831090350;-9.4454;-0.7244;-2.4452;
83405841205923;-9.4167;-0.6933;-2.5050;
83405851294569;-9.3832;-0.6455;-2.5986;
83405861401027;-9.3018;-0.5973;-2.7470;
83405871503788;-9.2608;-0.5423;-2.9435;
83405881615194;-9.3162;-0.4107;-3.0655;
83405891714882;-9.2898;-0.3290;-3.0799;
83405901832277;-9.3162;-0.3147;-3.0488;
83405911925715;-9.3281;-0.2883;-2.9889;
83405922037382;-9.2994;-0.3580;-2.9243;
83405932140402;-9.3162;-0.4681;-2.9004;
83405942246444;-9.2827;-0.5949;-2.9411;
83405952354569;-9.2560;-0.7651;-2.9722;
83405962462173;-9.2225;-0.9927;-3.0440;
83405972556027;-9.1627;-1.0741;-2.9746;
83405982671288;-9.1220;-1.0095;-2.8789;
83405992764882;-9.1843;-0.9114;-2.8956;
83406002879465;-9.2536;-0.8536;-2.9554;
83406012981861;-9.2874;-0.8297;-3.0009;
83406023088736;-9.2970;-0.8465;-3.0320;
83406033190819;-9.2130;-0.8970;-3.0153;
83406043301652;-9.0981;-0.9377;-3.0655;
83406053407069;-9.0359;-0.8850;-3.1301;
83406063524882;-9.1005;-0.6790;-3.1759;
83406073624986;-9.2178;-0.5399;-3.2501;
83406083728840;-9.3018;-0.4657;-3.3386;
83406093836027;-9.3209;-0.2524;-3.5279;
83406103943736;-9.1986;0.1522;-3.7627;
83406114025298;-8.9351;0.3775;-3.8536;
83406124128475;-8.7939;0.4158;-3.9616;
83406134258944;-8.9471;0.4038;-4.0262;
83406144358319;-9.1866;0.3727;-3.9473;
83406154445142;-9.2850;0.2794;-3.9688;
83406164572382;-9.2584;0.2267;-4.2945;
83406174674986;-9.1029;0.3009;-4.6131;
83406184781236;-8.7820;0.5285;-4.4692;
83406194902329;-8.5543;0.6242;-3.9903;
83406204990507;-8.5376;0.3535;-3.7531;
83406215091444;-8.8801;0.0829;-4.0358;
83406225190298;-9.4549;-0.0296;-4.2778;
83406235315038;-9.2465;-0.1352;-4.1100;
83406245433163;-8.6333;-0.2261;-3.9903;
83406255517798;-8.4200;-0.2429;-4.2009;
83406265615819;-8.6261;-0.0921;-4.3807;
83406275713736;-9.1053;0.1475;-3.9544;
83406285815611;-9.8408;0.2841;-3.2931;
83406295926652;-9.6227;0.0565;-3.0344;
83406306025402;-9.3281;-0.4298;-3.7292;
83406316138527;-8.9590;-0.5662;-4.5054;
83406326273736;-8.1876;-0.3218;-4.6250;
83406336427538;-8.0895;-0.1998;-4.4118;
83406346478632;-8.0560;-0.3580;-4.4791;
83406356559204;-8.3937;-0.8369;-4.8646;
83406366667954;-8.5352;-1.0621;-5.2744;
83406376788788;-8.6501;1.0890;-6.2252;
83406386873371;-9.6562;1.6113;-6.0335;
83406396988996;-8.9853;2.2125;-4.0502;
83406407078996;-8.7915;2.3345;-4.6896;
83406417179517;-9.3832;1.8556;-5.2983;
83406427282382;-8.8370;0.5261;-4.2179;
83406437401548;-8.7461;-0.3170;-3.8704;
83406447498996;-8.7676;0.0541;-4.7255;
83406457646079;-7.5290;0.7295;-5.4897;
83406467711236;-7.1339;0.8638;-6.2803;
83406477817173;-8.9279;0.8423;-6.8551;
83406487950663;-9.7663;1.1201;-5.9928;
83406498055194;-9.0455;1.1943;-4.4046;
83406508134569;-9.1914;0.8542;-4.2108;
83406518264621;-9.7400;0.8088;-4.9484;
83406528371913;-9.0096;0.8997;-4.4357;
83406538472850;-7.9436;0.3703;-3.8704;
83406548590038;-8.3722;-0.1950;-4.8503;
83406558707642;-8.9949;-0.3987;-4.7112;
83406568769361;-9.1077;0.2626;-2.6130;
83406578902746;-9.2441;0.5788;-1.4151;
83406589013736;-8.9495;0.1546;-2.4691;
83406599115298;-9.2130;0.1331;-4.2538;
83406609216861;-9.3401;0.3296;-4.5676;
83406619306861;-9.9030;0.6051;-4.3663;
83406629408423;-9.4262;1.2159;-4.5843;
83406639509986;-7.6534;1.2927;-4.3878;
83406649632798;-7.4381;0.6482;-3.6742;
83406659734361;-8.4921;1.1034;-3.4513;
83406669835871;-8.6788;2.3539;-2.5624;
83406679950923;-9.5964;2.1215;-2.6943;
83406690052486;-10.7390;1.6256;-3.0129;
83406700153996;-9.0574;1.6424;-1.7456;
83406710266288;-7.5171;0.9978;-1.3696;
83406720367850;-9.8671;1.3980;-5.1664;
83406730469361;-11.3641;1.1441;-6.0215;
83406740581965;-9.8360;1.4626;-3.7603;
83406750683527;-7.8260;3.0413;-3.5423;
83406760785038;-6.8270;3.9637;-4.6968;
83406770893632;-6.6236;4.0762;-4.7952;
83406780967434;-8.1206;3.2043;-3.1711;
83406791068944;-10.7414;2.6127;-2.8980;
83406801170507;-11.5271;3.1971;-4.4189;
83406811312902;-11.2421;3.8294;-5.9402;
83406821414465;-9.3640;4.0881;-5.0515;
83406831516027;-8.3794;4.7228;-2.7517;
83406841633840;-7.4213;5.7290;-1.8057;
83406851735402;-7.5362;5.2307;-3.8608;
83406861836913;-8.3650;3.9589;-5.8373;
83406871924361;-9.1914;3.6835;-4.4070;
83406882025923;-9.5390;3.6329;-3.3242;
83406892127486;-10.6457;2.8543;-5.1449;
83406902272382;-10.7581;2.5310;-5.2023;
83406912373892;-7.7447;2.9145;-3.3840;
83406922475454;-7.6487;2.4138;-3.5925;
83406932590559;-8.9973;1.7405;-3.1472;
83406942692069;-9.0766;1.9561;-0.9359;
83406952793632;-9.7926;1.7668;-0.7301;
83406962880350;-10.1809;1.2159;-4.3831;
83406972981861;-9.6849;-0.0105;-6.0359;
83406983083423;-9.7878;-0.4681;-2.7398;
83406993221548;-8.1422;-0.3290;0.5061;
83407003323111;-8.0728;-0.2859;-1.8607;
83407013424621;-9.2297;-0.4178;-4.6705;
83407023543319;-9.0024;-0.7890;-3.4083;
83407033644882;-9.4454;0.0924;-2.4069;
83407043746392;-9.3209;0.8949;-2.8813;
83407053847382;-9.1268;1.0026;-4.1172;
83407063948944;-8.8944;0.9212;-3.6212;
83407074050507;-7.8452;1.0842;-2.8475;
83407084159465;-9.3377;1.0579;-4.3089;
83407094261027;-9.5988;0.8830;-4.6872;
83407104362590;-8.7963;1.2422;-3.5782;
83407114467486;-9.4884;1.9226;-2.7422;
83407124568944;-9.6586;2.1407;-2.9363;
83407134670559;-9.5462;1.6974;-4.6585;
83407144772069;-9.6802;1.5682;-5.4730;
83407154902069;-8.6094;2.5669;-3.7962;
83407165003632;-8.0273;2.9049;-1.5374;
83407175105142;-7.0068;3.0413;-2.1099;
83407185224777;-5.8475;2.8639;-5.0874;
83407195326340;-6.8222;2.3444;-8.6255;
83407205427850;-10.1952;2.4616;-8.1583;
83407215534465;-11.1150;3.2521;-6.1128;
83407225636027;-8.9255;3.6664;-6.6805;
83407235737590;-9.8073;2.5908;-7.1091;
83407245834048;-11.5487;2.5358;-3.3745;
83407255935559;-5.7876;3.5061;1.2559;
83407266037121;-4.2832;2.6725;-1.8631;
83407276161288;-9.1053;0.9858;-6.3066;
83407286262798;-7.5721;0.7175;-5.5400;
83407296364361;-5.3970;1.1297;-4.9603;
83407306482017;-6.9135;1.3789;-4.9005;
83407316583579;-9.4884;2.4209;-1.7384;
83407326685090;-11.1006;4.3732;-2.3471;
83407336792746;-13.8604;3.8653;-8.1799;
83407346894309;-15.0963;3.4128;-8.5107;
83407356995871;-7.5649;3.6305;-0.3754;
83407367127486;-0.6826;1.2541;0.1564;
83407377229048;-9.6108;-0.3843;-7.7584;
83407387330559;-12.4229;0.7609;-2.5986;
83407397445611;-7.6056;1.8700;0.2689;
83407407547173;-10.4970;0.4277;-7.0397;
83407417648684;-13.5634;-0.8225;-6.3452;
83407427733111;-10.8036;-0.5614;-1.1300;
83407437834673;-8.6261;-1.3448;-0.1884;
83407447936184;-7.2009;-2.6767;-1.6116;
83407458075715;-8.0345;-3.1463;-2.7039;
83407468177277;-9.0215;-2.3821;-2.8546;
83407478278788;-9.9963;-2.0922;-3.9182;
83407488389882;-10.7366;-2.2911;-4.5556;
83407498491444;-10.0059;-2.4514;-3.1376;
83407508592954;-9.9915;-2.6288;-2.7805;
83407518692902;-8.7891;-3.1869;-4.0238;
83407528794465;-9.4406;-2.9043;-3.1854;
83407538896027;-8.3339;-1.8766;-0.9814;
83407548991132;-8.4969;-1.2610;-2.4715;
83407559092694;-9.5773;-1.5197;-3.0009;
83407569194204;-9.0479;-1.9845;-1.8200;
83407579351757;-11.0767;-1.5676;-3.0464;
83407589453267;-9.9987;-1.2969;-2.6943;
83407599554829;-7.9292;-0.6694;-2.3471;
83407609653684;-8.5543;0.0733;-5.2816;
83407619755194;-10.6935;-0.3556;-5.0874;
83407629856757;-8.7796;-0.0057;-3.2213;
83407639958527;-9.1053;0.7585;-4.4094;
83407650060090;-11.6973;0.7442;-2.9483;
83407660161600;-9.0526;1.3765;-0.9168;
83407670271861;-7.9651;1.9226;-3.2548;
83407680373423;-8.1876;0.8710;-3.1783;
83407690474934;-9.4884;1.2760;-4.0502;
83407700592069;-9.9341;1.3932;-4.8861;
83407710693632;-9.8073;1.0364;-3.0176;
83407720795142;-9.8862;2.1000;-4.4022;
83407730911340;-8.5184;1.5009;-3.3290;
83407741012902;-7.0140;1.6472;-2.9602;
83407751114413;-6.3434;1.9729;-4.4118;
83407761225819;-10.0514;2.2484;-5.5929;
83407771327382;-9.9604;1.7046;-5.3127;
83407781434048;-9.0742;0.8566;-4.7426;
83407791535559;-9.7591;0.5477;-4.2538;
83407801637121;-7.8141;0.0948;-3.1086;
83407811759569;-8.6022;0.1020;-2.7876;
83407821861132;-10.1402;-0.6526;-2.9339;
83407831962642;-8.8346;-0.7364;-1.9971;
83407842071652;-8.8992;-0.2835;-3.1424;
83407852173215;-8.5280;-0.8731;-5.0109;
83407862274725;-10.0490;0.2195;-5.0850;
83407872392902;-9.8575;0.5261;-4.7785;
83407882494465;-7.0905;0.5788;-3.7866;
83407892595975;-8.2023;-0.1543;-4.6274;
83407902699882;-9.3951;0.3368;-5.5522;
83407912801444;-10.0035;-0.2668;-4.6178;
83407922903007;-8.5519;-0.3987;-4.0502;
83407933018319;-8.9231;0.0589;-2.8594;
83407943119882;-10.1880;-0.5566;-3.6523;
83407953221392;-9.0742;-0.7651;-2.8092;
83407963333788;-8.4200;-0.9449;-2.9291;
83407973435350;-9.5605;-0.4753;-5.1473;
83407983536861;-10.9618;-0.1496;-4.4166;
83407993659361;-10.0370;-0.3556;-3.1352;
83408003760871;-6.3936;0.5142;-3.7053;
83408013862434;-7.6582;-0.5638;-4.3687;
83408023962382;-9.0957;-0.2309;-5.8923;
83408034063892;-7.0451;0.3248;-6.4337;
83408044165454;-6.9230;0.1116;-6.7714;
83408054278319;-9.4286;0.2243;-7.3463;
83408064379882;-9.4621;-0.0897;-4.6490;
83408074481444;-7.9436;0.4086;-2.9195;
83408084589048;-6.9302;-0.5064;-1.9875;
83408094690611;-10.5233;-1.1653;-3.1711;
83408104792121;-11.1221;-1.8981;-1.5446;
83408114909829;-9.3305;-1.0765;-1.8966;
83408125011288;-8.2071;-1.5796;-2.2343;
83408135112850;-7.5075;-1.5556;-3.7149;
83408145238632;-11.3665;-2.0061;-4.9412;
83408155340194;-10.4563;-1.0525;-4.3232;
83408165441704;-10.2861;-0.5638;-3.8154;
83408175550819;-10.0466;-0.9688;-3.0966;
83408185652382;-10.2359;-0.5877;-2.6632;
83408195753944;-9.7208;0.5285;-1.6522;
83408205858371;-6.0942;0.5740;-0.9574;
83408215959934;-6.4032;1.2760;-4.4644;
83408226061496;-6.7744;1.3813;-5.2768;
83408236175350;-6.9852;0.8949;-7.9044;
83408246276861;-10.3726;0.7418;-8.8699;
83408256378423;-12.5883;2.5143;-5.4347;
83408266489100;-11.1440;2.3659;-3.4370;
83408276590611;-11.0982;1.3549;-2.7781;
83408286692173;-10.0657;3.0006;-0.9072;
83408296820246;-8.6764;2.1646;-0.8163;
83408306921809;-8.7242;1.9274;-4.2060;
83408317023371;-9.5892;2.7706;-3.5136;
83408327126132;-9.3114;1.5153;-4.9627;
83408337227642;-9.4143;1.9466;-5.0898;
83408347329204;-9.3257;2.2890;-4.0525;
83408357473944;-8.2358;1.1776;-3.1062;
83408367575454;-8.5591;1.0771;-2.9435;
83408377677017;-9.7878;0.7104;-4.0238;
83408387756236;-9.6227;0.7537;-3.8656;
83408397857798;-9.4837;1.4770;-2.4117;
83408407959309;-7.9170;-0.0033;-2.2750;
83408418082798;-11.0551;-0.1615;-5.1425;
83408428184361;-12.0518;0.5142;-1.4198;
83408438285871;-8.0130;0.8710;-1.1276;
83408448382798;-7.4668;-0.2596;-4.8933;
83408458484361;-5.6581;1.3310;-5.4514;
83408468585871;-5.8594;1.1010;-5.4754;
83408478703527;-10.7031;-0.2740;-8.0483;
83408488805090;-12.1499;0.3559;-6.1008;
83408498906600;-8.7003;-0.2548;-2.3276;
83408509046548;-8.3818;0.0206;-1.6618;
83408519148059;-11.2445;-0.4490;0.2809;
83408529249621;-11.6683;0.1522;-0.1406;
83408539353007;-8.3124;0.2961;-0.7059;
83408549454569;-11.0240;-1.2299;-2.2893;
83408559556079;-11.1269;-1.6585;-3.7579;
83408569666236;-8.7317;-0.1759;-5.3653;
83408579767798;-9.7496;0.4998;-5.9952;
83408589869361;-10.0418;0.9739;-3.6117;
83408599998111;-8.3578;2.0399;-1.3887;
83408610099673;-7.1530;-0.2524;-2.6776;
83408620201236;-7.6104;-1.4671;-6.5677;
83408630297173;-11.1488;-0.7268;-7.2673;
83408640398736;-7.6104;0.1092;-4.2491;
83408650500246;-7.3851;-0.0730;-4.0119;
83408660610715;-9.0957;-0.3987;-4.1004;
83408670712277;-9.0933;-0.4322;-4.0286;
83408680813788;-11.2445;0.1044;-4.4934;
83408690933736;-9.9509;0.4711;-3.0009;
83408701035298;-8.4802;0.7032;-1.8511;
83408711136861;-7.6872;0.5524;-3.7388;
83408721236861;-12.1116;0.3081;-1.1348;
83408731338423;-9.2946;0.4516;2.9279;
83408741439986;-8.0776;-1.1315;-1.6331;
83408751559204;-10.4850;-1.7521;-6.5222;
83408761660767;-10.3439;-0.5255;-4.8407;
83408771762277;-7.7064;0.1331;-2.9052;
83408781875871;-7.6825;0.3344;-5.9641;
83408791980559;-10.1450;-0.0945;-6.4337;
83408802085246;-7.7279;0.6984;-2.7996;
83408812187017;-10.3196;-0.2046;-2.5744;
83408822291704;-13.1178;-0.2357;-3.7771;
83408832396392;-10.9020;0.2411;-1.0582;
83408842519934;-7.0020;-0.1878;0.2330;
83408852624621;-7.6944;-0.7364;-2.2917;
83408862729309;-10.3558;-1.8526;-4.5796;
83408872842121;-12.2626;-0.7866;-3.5207;
83408882946809;-10.6146;-0.6814;-0.1358;
83408893051496;-8.5950;-0.9927;-1.3600;
83408903137642;-5.7996;-1.5843;-2.3327;
83408913242329;-8.3842;-1.6875;-4.6226;
83408923347017;-12.3440;-1.0358;-6.6206;
83408933454517;-10.9451;-0.5064;-2.7254;
83408943559204;-8.2502;-0.4825;0.0150;
83408953663892;-7.3780;-0.8297;-4.6298;
83408963772121;-9.0670;-0.8827;-4.8215;
83408973876809;-7.4979;-1.7689;-0.3682;
83408983981496;-8.6189;-1.6923;-3.4705;
83408994087850;-12.7128;-1.4910;-6.4217;
83409004192538;-10.2766;-1.2849;-3.2309;
83409014297225;-7.2942;-0.1352;-0.5145;
83409024399152;-6.8533;-0.1567;-4.5891;
83409034503840;-11.1631;-0.6263;-6.0694;
83409044608527;-11.7212;-0.2596;-1.7049;
83409054718319;-11.2397;0.0254;-1.2595;
83409064823007;-8.7461;0.3153;-2.1505;
83409074927694;-8.7003;-0.3003;-4.0621;
83409085047017;-9.6012;0.0230;-3.7196;
83409095151704;-8.2573;-0.3987;-2.5887;
83409105256392;-8.1999;-0.3556;-3.5160;
83409115370715;-8.4224;0.2889;-7.6098;
83409125475350;-11.5654;0.8064;-6.8360;
83409135580090;-9.8408;1.9394;-2.5863;
83409145676496;-7.9531;2.1598;-1.5613;
83409155781236;-7.5817;2.1694;-3.0105;
83409165885923;-9.6251;0.5166;-4.0932;
83409175981913;-8.7509;-0.4011;-3.0200;
83409186086600;-9.2225;0.2243;-4.8550;
83409196191288;-9.7831;0.3033;-2.4523;
83409206304725;-7.1435;-0.3389;-1.0654;
83409216409413;-5.3946;0.6840;-5.3031;
83409226514100;-9.9724;0.5788;-8.1081;
83409236604204;-8.9614;0.1905;-3.6523;
83409246708944;-8.8107;0.9882;-3.2381;
83409256813632;-8.2884;1.5538;-3.0440;
83409266945142;-9.0335;0.1379;-3.8847;
83409277049829;-9.1819;0.3153;-4.5843;
83409287154517;-10.1354;0.7992;-4.8048;
83409297258736;-11.5271;0.0972;-2.8187;
83409307363475;-10.5138;0.5572;0.3072;
83409317468163;-11.2684;0.9093;-0.8282;
83409327569829;-13.0098;0.7681;-2.4284;
83409337674517;-7.0451;-0.5231;-0.4570;
83409347779204;-6.8486;-1.0980;-3.0607;
83409357904152;-9.9580;-1.3041;-4.5748;
83409368008840;-8.4969;-0.2979;-1.7360;
83409378113527;-8.8585;-0.7747;-3.5231;
83409388208736;-10.8852;-1.0741;-5.3725;
83409398313423;-11.4266;-1.2227;-3.1519;
83409408418111;-10.0708;-0.5901;0.5372;
83409418543892;-7.3493;-1.2347;-1.8248;
83409428648579;-7.6319;-1.7402;-4.7207;
83409438753267;-9.5124;-1.3783;-2.5504;
83409448849517;-9.4837;-1.7474;0.1325;
83409458954204;-11.3521;-0.8970;-4.6250;
83409469058892;-10.1258;-1.9172;-5.6839;
83409479159100;-6.3144;-1.4169;-1.7695;
83409489263788;-7.6609;-1.0167;-3.6838;
83409499368475;-10.0585;-0.6359;-5.3557;
83409509469829;-8.9782;-0.4848;-4.2778;
83409519574517;-8.4921;-0.2189;-4.5197;
83409529679204;-8.8179;0.1379;-3.9832;
83409539787434;-9.4310;0.7513;-5.6767;
83409549892121;-11.5391;1.5730;-4.7569;
83409559996809;-10.4061;1.1058;-1.3122;
83409570101079;-5.9025;1.1321;-0.0425;
83409580205767;-8.3219;0.9476;-3.6619;
83409590310454;-11.7021;-0.9592;-4.3376;
83409600405559;-9.0861;-2.0707;-0.4328;
83409610510246;-7.9508;-0.4872;-2.6512;
83409620614934;-10.1833;-0.0344;-7.8948;
83409630749986;-9.7352;-0.4035;-4.1794;
83409640854673;-9.9245;0.0517;-0.5623;
83409650959361;-9.7184;0.4158;-1.9277;
83409661062850;-5.9671;-0.0200;-4.6298;
83409671167538;-9.8073;-0.4585;-6.5749;
83409681272225;-15.2402;-0.6024;-2.9530;
83409691374986;-10.7821;0.3823;1.5482;
83409701479673;-5.3515;0.2411;-0.3275;
83409711584361;-8.9303;-0.3867;-5.4969;
83409721680038;-9.3401;-1.7378;-4.8311;
83409731784725;-5.8044;-0.4394;-2.2678;
83409741889413;-7.7207;-0.2046;-2.5337;
83409752008371;-10.1737;-1.1243;-5.6001;
83409762113059;-13.2302;-0.8994;-4.7402;
83409772217746;-12.6338;-0.2979;-1.0247;
83409782327434;-9.2273;-1.1219;0.2402;
83409792432798;-8.5113;-0.4202;-1.1180;
83409802538215;-8.0584;-0.2213;-1.5132;
83409812648684;-7.6008;-0.7436;-3.2333;
83409822754048;-8.6333;-0.1926;-6.8216;
83409832859465;-9.6371;0.3775;-6.0503;
83409842957017;-9.4765;0.9835;-5.3151;
83409853062382;-8.5424;0.5788;-3.6141;
83409863167798;-8.2573;0.6194;-3.1038;
83409873278684;-9.1508;0.3751;-3.8824;
83409883384048;-8.9495;1.0364;-3.0799;
83409893489465;-9.8408;0.3368;-4.6346;
83409903599413;-11.3091;0.5309;-4.5221;
83409913704777;-8.1374;-0.2285;-0.8163;
83409923810194;-6.7409;-0.1615;-0.9837;
83409933904100;-9.5267;-0.0009;-2.0163;
83409944009465;-11.8002;-0.0897;-2.3830;
83409954114882;-9.1125;0.2674;-1.0223;
83409964218475;-8.3650;-0.1831;-4.4596;
83409974323840;-12.7032;0.5812;-7.7943;
83409984429257;-8.6524;1.4841;-1.9158;
83409994548892;-8.3028;1.8772;-1.4294;
83410004654309;-9.8097;1.3693;-4.9771;
83410014759725;-12.0206;0.4878;-4.7641;
83410024839309;-7.6463;0.5046;0.9757;
83410034944673;-8.3602;-0.1472;-1.0702;
83410045050090;-10.9857;-1.0382;-3.3290;
83410055164934;-8.9447;-0.5542;-2.6847;
83410065270298;-8.9327;0.2387;-2.8594;
83410075375715;-9.8599;-0.3604;-5.2840;
83410085485871;-8.4320;-0.1950;-1.7456;
83410095591236;-7.0068;0.3751;-2.5146;
83410105696652;-8.8825;0.6745;-3.7388;
83410115749569;-8.6309;-0.4178;-5.5232;
83410125854986;-9.9748;-0.8536;-3.2620;
83410135960402;-10.0708;-0.2740;-2.0692;
83410146103475;-9.6275;0.8495;-4.7402;
83410156208840;-10.5401;0.0015;-3.5112;
83410166314257;-6.9996;1.0340;-0.5216;
83410176452434;-8.9590;1.1034;-4.4309;
83410186557798;-11.1799;0.7056;-6.0936;
83410196663215;-8.2884;0.6864;-3.2644;
83410206734725;-8.6477;0.7271;-3.0846;
83410216840090;-9.2922;0.7056;-3.3482;
83410226945507;-10.0804;0.5548;-2.8475;
83410237062746;-9.8145;0.8112;-3.0511;
83410247168111;-10.4204;1.3047;-2.3734;
83410257273527;-12.3416;-0.0248;-2.2199;
83410267369204;-7.8308;0.0350;0.4654;
83410277474569;-5.5071;-0.3147;-1.8751;
83410287579986;-8.6166;-1.1653;-5.0635;
83410297679934;-11.5152;-2.5666;-4.2323;
83410307785298;-10.2933;-3.0410;-1.5876;
83410317890715;-8.2813;-0.7244;-1.8894;
83410328026288;-6.6882;-1.0286;-3.8536;
83410338131652;-8.5639;-2.1927;-4.7207;
83410348237069;-9.9772;-2.1138;-4.5341;
83410358336600;-9.9221;-1.0262;-4.8479;
83410368441965;-8.9112;-0.4825;-4.2036;
83410378547382;-9.4789;-0.4657;-2.3662;
83410388648319;-8.9710;0.0565;-0.7011;
83410398753684;-8.2167;0.7825;-1.9947;
83410408859100;-10.3077;0.7705;-4.9986;
83410418990246;-9.9724;0.3464;-4.7761;
83410429095611;-8.9542;0.1666;-2.7733;
83410439201027;-8.2741;1.1560;-2.6608;
83410449283579;-10.5664;1.1800;-4.7641;
83410459388944;-10.6624;1.1752;-3.6933;
83410469494361;-8.7266;1.1369;0.6404;
83410479599829;-8.3195;2.4401;-0.6221;
83410489705194;-11.6516;0.0302;-3.6117;
83410499810611;-11.6109;0.6577;-3.9975;
83410509917746;-7.2392;2.1383;-2.5481;
83410520023111;-7.3062;0.5883;-2.1338;
83410530128527;-9.8240;0.8207;-2.7350;
83410540237642;-10.4420;0.5285;-4.2323;
83410550343007;-9.1460;0.8973;-4.3065;
83410560448423;-9.1675;0.4469;-3.0607;
83410570549934;-9.1077;1.3286;-3.2118;
83410580655298;-8.6166;1.0149;-2.9435;
83410590760715;-8.5400;0.3511;-2.4188;
83410600847486;-8.6046;0.4469;-2.3734;
83410610952850;-9.6371;0.3033;-2.9387;
83410621058267;-12.2267;0.5931;-2.9913;
83410631173944;-9.7113;0.6577;-2.2439;
83410641279309;-6.6906;0.6888;-2.1027;
83410651384725;-8.7413;0.4038;-4.3137;
83410661501184;-10.6576;0.1379;-4.6705;
83410671606548;-10.2957;0.4807;-3.6957;
83410681711965;-9.9485;0.4684;-4.0956;
83410691819621;-9.4286;0.7271;-3.5351;
83410701924986;-7.3588;0.7056;-0.0951;
83410712030402;-8.0584;0.1690;-1.5036;
83410722132329;-12.7199;-0.2764;-7.2673;
83410732237694;-10.5855;-0.7077;-4.2156;
83410742343111;-6.3242;0.0230;-1.2787;
83410752445350;-8.4826;0.1068;-3.5590;
83410762550715;-8.5376;-0.7268;-3.3099;
83410772656132;-9.2656;-0.8560;-3.6500;
83410782756913;-11.9824;-0.6479;-2.6919;
83410792862225;-9.0455;-0.1352;-2.3013;
83410802967590;-9.5629;-0.2046;-4.6753;
83410813082642;-10.9642;-0.3027;-3.8297;
83410823187954;-7.5697;0.8255;-0.8450;
83410833293319;-7.5841;0.1499;-3.1424;
83410843391184;-10.2455;-0.7316;-6.2492;
83410853496496;-11.4936;-0.3987;-4.9005;
83410863601861;-11.1607;0.6673;-2.5528;
83410873687954;-7.5553;1.7166;-0.4570;
83410883793319;-7.9579;0.6553;-2.4165;
83410893898684;-12.9428;0.0781;-5.2816;
83410904022954;-10.0732;0.5213;-1.2281;
83410914128319;-9.5076;0.5094;-0.5408;
83410924233632;-11.9318;0.4854;-1.9828;
83410934342694;-11.7930;0.6362;0.6332;
83410944448059;-9.0335;0.3823;-1.0319;
83410954553371;-7.4142;-0.0129;-3.3410;
83410964659309;-6.5204;-0.4777;-4.2634;
83410974764673;-5.5505;-1.1725;-6.2037;
83410984869986;-4.4459;-1.7282;-8.9010;
83410994978163;-8.9447;-2.1473;-8.8364;
83411005083475;-13.7453;-1.7665;-3.1926;
83411015188840;-15.0293;0.4711;1.7566;
83411025287850;-12.7319;2.7299;1.9962;
83411035393215;-8.7580;0.7681;-2.0474;
83411045498579;-3.9718;-1.0645;-4.7545;
83411055596340;-3.4017;-1.3448;-4.2945;
83411065701704;-7.5099;0.9547;-6.5940;
83411075807069;-9.2946;-0.0105;-6.3811;
83411085915038;-5.2774;-0.1591;-5.2382;
83411096020402;-6.2234;-0.5614;-5.7915;
83411106125715;-10.7103;-0.4705;-6.2922;
83411116232850;-15.1971;0.0230;-3.1181;
83411126338215;-14.4449;1.8102;1.7830;
83411136443579;-11.5965;2.9240;2.0871;
83411146557434;-10.2311;1.5491;0.8701;
83411156662746;-7.1315;-0.2333;0.9613;
83411166768163;-7.0451;-2.0803;-0.6508;
83411176868163;-9.5366;-2.7221;-6.6278;
83411186973475;-13.4794;-1.5867;-9.3849;
83411197078840;-10.7916;0.7633;-3.9520;
83411207175559;-9.3736;1.7764;1.0259;
83411217280871;-9.9437;1.6328;3.2946;
83411227386236;-8.3076;0.1187;3.5195;
83411237511809;-8.1541;-1.5437;-1.4557;
83411247617121;-6.4247;-3.0529;-6.2755;
83411257722486;-10.8924;-3.1343;-5.4323;
83411267838163;-9.8480;-0.9401;3.0479;
83411277943475;-4.8867;-0.7675;3.8384;
83411288048840;-10.2479;-2.1975;-7.3104;
83411298133059;-11.6396;-2.6145;-13.0044;
83411308238371;-10.2144;-0.6646;-7.7082;
83411318343736;-8.1661;1.6783;-4.3950;
83411328453475;-7.6753;2.5525;-4.1363;
83411338558840;-8.5831;1.5248;-3.9879;
83411348664152;-12.0087;2.1239;-3.0846;
83411358771392;-12.2243;1.3167;0.0461;
83411368876704;-8.8944;0.7104;0.5204;
83411378982069;-8.7532;1.4818;-3.0344;
83411389096600;-9.8025;-1.1749;-2.4452;
83411399201965;-10.4157;-0.3843;-3.4920;
83411409307277;-12.0254;0.5213;-2.7661;
83411419406288;-9.3138;-0.7962;-0.1047;
83411429511600;-5.5167;-0.8177;-3.2357;
83411439616965;-6.2139;-0.9185;-8.4194;
83411449732225;-8.6620;-1.6011;-6.3571;
83411459837538;-9.1149;-1.0502;-3.8824;
83411469942902;-10.7821;-0.0272;-4.3807;
83411480038788;-8.8729;0.2100;-3.5518;
83411490144100;-8.2167;0.7992;-3.2812;
83411500249465;-10.2646;0.6505;-3.1807;
83411510363163;-9.8192;0.2770;-1.4438;
83411520468475;-8.6955;0.5453;-1.7767;
83411530573840;-9.7065;0.3679;-4.1961;
83411540678163;-9.9197;-0.1472;-4.5939;
83411550783475;-9.0048;0.3153;-0.6269;
83411560888840;-8.5831;0.3464;0.1612;
83411570992746;-8.3435;-0.1113;-3.3793;
83411581098059;-9.8073;-0.8489;-6.6733;
83411591203423;-12.4588;-0.4107;-5.1784;
83411601293267;-11.2708;-0.1807;0.1253;
83411611398632;-6.2785;-0.2979;2.9997;
83411621503944;-7.1818;-0.4298;-2.3228;
83411631626913;-10.8900;-0.7723;-7.4542;
83411641732225;-8.4754;-0.4729;-4.0741;
83411651837590;-8.3602;-1.0956;-1.1635;
83411661944986;-9.9197;-0.4729;-3.7603;
83411672050298;-10.4396;0.1738;-4.9986;
83411682155663;-8.2669;-1.0382;-1.9277;
83411692261236;-8.1087;0.0972;-2.5074;
83411702366548;-10.0780;-0.2357;-4.4357;
83411712471913;-10.6840;-0.5734;-2.4595;
83411722574829;-8.2741;-0.5471;-0.9479;
83411732680142;-8.8155;-0.4131;-4.3280;
83411742785507;-9.2560;-1.5867;-3.5686;
83411752898059;-8.5400;-0.5112;-2.0210;
83411763003371;-11.7906;-0.2572;-5.5352;
83411773108736;-11.7308;-0.5973;-2.9961;
83411783211913;-7.7973;-0.1519;1.0762;
83411793317434;-8.3076;-0.2022;-2.3877;
83411803423007;-9.0909;-0.1400;-3.7316;
83411813526184;-8.6955;-1.2586;-1.5757;
83411823631704;-8.7437;-1.1339;-3.7029;
83411833737277;-10.7581;-0.9018;-5.0539;
83411843838163;-7.8978;-0.9066;-1.9397;
83411853943736;-7.2894;-0.5877;-2.3710;
83411864049257;-10.6122;-1.0549;-6.0622;
83411874163475;-12.3392;-0.0344;-4.2538;
83411884268996;-10.2455;-0.1304;-0.7301;
83411894374569;-7.8978;-0.2931;-1.0487;
83411904478163;-6.2856;-0.3123;-2.5504;
83411914583684;-9.2393;-0.0873;-3.6667;
83411924689257;-11.5247;-0.1854;-3.2285;
83411934791392;-12.3655;0.1187;-2.5986;
83411944896965;-11.8361;1.3741;-2.4595;
83411955002486;-7.9819;0.1427;-0.3945;
83411965115454;-6.5539;1.0053;-1.2954;
83411975220975;-7.9890;0.1187;-3.3745;
83411985326548;-9.1627;0.5285;-4.3926;
83411995440246;-10.8948;-0.3532;-3.9927;
83412005545767;-9.1914;-0.1543;-2.7374;
83412015651340;-10.0298;0.4014;-2.3830;
83412025734986;-9.6060;-0.1831;-3.2142;
83412035840559;-7.8236;0.8830;-5.2887;
83412045946079;-9.6156;0.7920;-3.8752;
83412056050767;-11.6348;0.4253;-1.2930;
83412066156288;-9.2755;0.9930;-0.4472;
83412076261861;-8.0010;0.3631;-1.0415;
83412086420246;-10.8658;0.4110;-4.8311;
83412096525767;-10.2407;0.7223;-5.0731;
83412106631340;-8.6285;1.1082;-2.1218;
83412116655246;-8.1470;0.8566;-3.2285;
83412126760819;-9.0790;0.2339;-3.3242;
83412136866392;-8.4706;-0.0272;-2.7541;
83412147055767;-9.8169;-0.4585;-3.7029;
83412157161288;-9.4167;-0.8755;-3.8536;
83412167266861;-8.5615;-0.6598;-2.2798;
83412177336913;-9.7926;-1.1581;-4.9986;
83412187442434;-12.3799;0.4854;-5.4610;
83412197548007;-7.0929;0.1953;1.7782;
83412207655454;-6.9039;0.4493;-1.7815;
83412217760975;-13.8676;-0.2907;-6.4122;
83412227866548;-9.5701;-0.5614;-1.7192;
83412237951600;-1.4659;-0.1807;-3.0846;
83412248057121;-9.0311;0.6840;-7.0660;
83412258162694;-13.7333;-0.8177;-3.7675;
83412268281392;-10.4013;-0.6574;-0.6221;
83412278386913;-8.8131;-0.0368;-1.2305;
83412288492486;-9.5315;-1.8144;-4.8550;
83412298609048;-9.4884;-0.4801;-1.7480;
83412308714569;-9.1340;-0.1950;-1.0367;
83412318820142;-9.5581;-0.3891;-4.1243;
83412328899413;-8.1852;0.2530;-2.4212;
83412339004986;-10.1019;-0.3987;-3.6885;
83412349110507;-12.9093;0.5907;-2.5696;
83412359223163;-8.5065;0.0565;-1.0582;
83412369328736;-6.7433;-0.0511;-3.6236;
83412379434257;-11.3043;0.4516;-4.7327;
83412389536392;-11.8792;-0.1663;-0.8617;
83412399641913;-3.2339;-0.4609;3.8886;
83412409747486;-3.9598;-0.6335;-7.2434;
83412419856809;-10.7701;-1.2443;-11.7757;
83412429962329;-12.7032;-1.0214;-2.8570;
83412440067902;-12.5716;0.2171;0.3505;
83412450171809;-10.1617;1.6089;-3.9903;
83412460277329;-6.1373;-0.3147;-4.1483;
83412470382902;-6.5276;1.7118;0.1253;
83412480486236;-11.3689;0.6170;-1.7480;
83412490591809;-14.9049;0.3775;-1.7551;
83412500697329;-6.2785;0.7920;-2.3399;
83412510795246;-7.0020;1.1154;-4.3376;
83412520900819;-10.4635;0.2698;-2.9219;
83412531006340;-9.0742;-0.1567;-1.8870;
83412541119413;-11.1006;0.4588;-5.1090;
83412551224934;-10.7103;-0.9305;-3.7555;
83412561330507;-7.8069;-0.6550;2.4153;
83412571434934;-8.1350;-0.8345;0.5133;
83412581540454;-8.4658;-0.9664;-4.4022;
83412591646027;-8.6955;-0.6837;-9.2124;
83412601775663;-10.6552;-0.0945;-3.9640;
83412611881184;-9.4310;0.1475;0.4510;
83412621986757;-8.7772;0.5620;-0.6676;
83412632074152;-6.8895;-0.4370;-4.5796;
83412642179673;-9.2034;0.4158;-6.9081;
83412652285246;-14.6916;0.0302;-2.7996;
83412662374309;-7.7255;-0.6646;4.3412;
83412672479882;-7.3540;1.1512;-3.0607;
83412682585402;-11.1416;-0.3652;-6.4840;
83412692708684;-8.7413;-1.6899;-1.1037;
83412702814204;-9.7352;-0.1496;-2.3925;
83412712919777;-11.9465;-0.2309;-3.1807;
83412723022642;-9.0766;0.6984;-2.2128;
83412733128215;-8.7389;0.6194;-2.7039;
83412743233736;-9.7208;-0.2596;-0.9407;
83412753333475;-8.4416;-1.3783;-1.3241;
83412763438996;-7.1865;0.1427;-4.8263;
83412773544569;-9.6658;0.1211;-5.6982;
83412783658944;-9.8958;-1.3950;-1.5948;
83412793764517;-8.3267;0.3033;-2.4045;
83412803870090;-9.1771;-0.0535;-5.7413;
83412813970350;-11.0934;-0.1352;-6.3858;
83412824075871;-9.7208;1.0002;0.0942;
83412834181444;-9.4286;0.2506;-1.0295;
83412844291600;-9.9413;0.8040;-3.8321;
83412854397121;-7.3899;0.4086;-2.5481;
83412864502694;-9.9963;0.7056;-1.1013;
83412874599829;-11.1870;0.4854;-3.3769;
83412884705350;-7.2248;-0.2668;-1.6499;
83412894810923;-6.6165;0.1881;-3.8225;
83412904919725;-10.1952;-0.1304;-5.1401;
83412915025298;-11.8241;-0.0778;-1.5900;
83412925130819;-9.8025;-0.2907;-1.1707;
83412935248163;-11.5391;-0.2142;-3.4992;
83412945353684;-8.5591;-0.8656;-2.3782;
83412955459257;-8.7820;1.5706;-2.4188;
83412965556184;-8.1781;-0.4609;-2.8980;
83412975661757;-9.0024;1.0244;-3.8201;
83412985767277;-11.6635;0.6601;-4.9747;
83412995866184;-10.6983;0.1259;-0.9479;
83413005971757;-7.7710;0.6912;-0.3778;
83413016077277;-9.7687;-0.9975;-3.3529;
83413026209621;-10.6840;0.1786;-3.4370;
83413036315142;-9.0766;-0.5901;-0.1741;
83413046420715;-6.2641;-0.7795;-0.9861;
83413056507225;-9.0120;-0.9138;-6.6494;
83413066612746;-11.3426;-1.4575;-6.5940;
83413076718319;-9.9867;-0.8779;-3.9592;
83413086813944;-7.6176;0.6123;-4.6442;
83413096919517;-6.9517;0.2913;-4.2347;
83413107025090;-9.1101;0.3033;-2.9626;
83413117117017;-12.5094;-0.0535;-2.7039;
83413127222590;-8.8035;0.8207;-1.0726;
83413137328111;-9.3449;0.3057;-1.0678;
83413147489517;-9.5725;-0.5518;-1.9899;
83413157595038;-10.3534;-0.0706;-2.8522;
83413167700611;-12.0135;-0.0296;-4.7474;
83413177763163;-8.7290;-0.0583;-1.9493;
83413187868684;-8.5161;0.5189;-2.2223;
83413197974257;-9.1316;-0.1472;-4.3328;
83413208090454;-9.0048;0.0159;-2.6991;
83413218196027;-7.6247;0.4807;-4.8359;
83413228301548;-12.7633;-0.1567;-5.1449;
83413238427434;-8.3363;-1.0549;2.6716;
83413248532954;-5.6342;0.5955;-1.0582;
83413258638527;-12.6194;-1.3017;-7.5236;
83413268712017;-12.7633;-0.9879;-1.7121;
83413278817538;-4.9250;1.3358;-0.2988;
83413288923111;-7.2488;-0.0224;-6.2563;
83413299040871;-9.1316;-0.2022;-5.9354;
83413309146392;-11.6204;0.9739;-4.4886;
83413319251965;-12.1642;0.5620;-3.5710;
83413329350663;-8.5424;1.0866;-1.6403;
83413339456236;-7.4979;0.7729;-3.0488;
83413349561757;-9.3162;0.1403;-0.9885;
83413359679204;-12.3918;0.4636;-1.5589;
83413369784725;-11.7882;0.6769;-1.8033;
83413379890298;-7.6367;-0.3170;-2.4667;
83413389999100;-5.5935;-0.1161;-2.6249;
83413400104621;-7.2823;0.0876;-4.4982;
83413410210194;-12.5740;0.6290;-7.3008;
83413420304934;-11.5941;0.3846;-4.3352;
83413430410454;-9.6251;-0.6885;0.1804;
83413440516027;-10.7151;-0.3413;-0.7107;
83413450633579;-5.2173;-0.8441;-2.8307;
83413460739100;-6.9015;-0.2357;-6.9057;
83413470844673;-8.3722;-0.4968;-5.6599;
83413480948892;-4.5802;0.4349;-2.5648;
83413491054413;-7.9675;0.1187;-4.8144;
83413501159986;-12.5166;-0.3939;-6.1343;
83413511250663;-11.9055;0.4878;-3.3171;
83413521356184;-11.0623;0.7944;-1.8679;
83413531461757;-9.9844;0.2171;2.3483;
83413541570246;-7.6367;-0.5375;2.5519;
83413551675767;-14.1239;-0.3915;-4.1243;
83413561781340;-12.1499;-0.0873;-4.9460;
83413571887225;-5.3874;-0.6933;-0.5767;
83413581992798;-9.2536;0.5644;-5.7174;
83413592098319;-12.6673;0.3870;-3.8943;
83413602224517;-6.3458;-0.4011;3.1029;
83413612330038;-7.6681;-0.5925;-0.8545;
83413622435611;-7.3038;-2.6456;-1.4438;
83413632522329;-5.2364;-2.4634;-1.7336;
83413642627850;-9.8025;-2.0683;-8.4362;
83413652733423;-12.7729;-1.8837;-9.0257;
83413662841913;-8.3028;-1.4240;-3.2285;
83413672947486;-7.4261;0.2171;-2.8331;
83413683053007;-9.3449;0.5596;-5.2693;
83413693156809;-11.2732;1.3813;-5.8035;
83413703262329;-10.5616;2.4209;-2.2558;
83413713367902;-6.2354;0.9284;2.2884;
83413723483059;-7.5769;0.5166;-0.5360;
83413733588579;-14.8567;0.7896;-3.4370;
83413743694152;-13.3023;-0.3075;1.5099;
83413753794309;-5.2220;-0.9664;2.8681;
83413763899882;-7.3397;-1.2179;-3.8512;
83413774005402;-12.1211;-1.6250;-4.3184;
83413784098475;-10.4779;-1.2419;-2.4452;
83413794203944;-11.8409;-0.8946;-3.7890;
83413804309413;-8.5256;-1.1148;-1.8823;
83413814425350;-6.4463;-0.8082;-2.8307;
83413824530819;-8.9183;-0.7914;-5.8397;
83413834636288;-9.0000;-0.6407;-4.3376;
83413844750350;-12.6242;-0.6885;-0.5551;
83413854855819;-10.3439;-0.3796;0.9063;
83413864961288;-6.1134;-1.6756;-1.4964;
83413875054829;-7.4333;-0.5830;-6.3452;
83413885160298;-11.8313;-0.4561;-5.8923;
83413895265767;-9.1101;-0.9808;0.1612;
83413905376184;-8.2621;-0.1448;-0.7899;
83413915481652;-11.8098;-1.0502;-7.0373;
83413925587121;-13.6783;-0.4202;-3.4801;
83413935679100;-6.6691;0.2554;-0.3610;
83413945784569;-8.1733;-0.3915;-3.9278;
83413955890038;-10.6337;0.6553;-2.0163;
83413966002902;-13.3071;0.3511;-0.7083;
83413976108371;-10.4994;0.0996;0.2474;
83413986213840;-4.2114;0.4612;-2.9387;
83413996341600;-8.5878;-0.4370;-6.6996;
83414006447069;-9.4095;-0.1280;-2.9626;
83414016552538;-7.8523;-0.2046;-1.8942;
83414026612642;-14.1239;0.0278;-5.7652;
83414036718111;-9.9030;-0.8321;-2.3925;
83414046823579;-6.1516;0.4373;-1.6834;
83414056949882;-8.5926;0.0852;-6.6159;
83414067055350;-11.9318;0.8160;-5.9641;
83414077160819;-10.1330;0.7992;1.6032;
83414087283684;-6.0293;1.8197;0.0221;
83414097389152;-10.4228;0.8231;-6.6972;
83414107494621;-9.6897;0.4660;-5.4514;
83414117609882;-9.6084;1.4961;-1.6905;
83414127715350;-9.7161;0.2291;-0.4161;
83414137820819;-7.5912;0.0398;-2.0617;
83414147909309;-8.5591;-0.9209;-4.4791;
83414158014777;-9.0048;-0.5064;-3.3984;
83414168120246;-9.2393;-0.8010;-4.6801;
83414178244048;-10.1880;0.9021;-5.0659;
83414188349517;-9.4406;0.5764;-2.7685;
83414198454986;-9.9293;0.5740;-1.6762;
83414208529986;-10.0780;0.7247;-2.2726;
83414218635454;-9.0670;0.0948;-1.4151;
83414228740923;-6.8510;0.3823;-2.2199;
83414238865246;-11.9198;-0.0368;-4.6083;
83414248970715;-8.2238;-0.8489;-1.3744;
83414259076184;-6.3338;0.0326;-2.6776;
83414269180663;-10.2814;-0.5279;-6.3162;
83414279286132;-11.4242;-1.0502;-2.9483;
83414289391600;-6.8103;-0.2572;-0.8043;
83414299499413;-9.1173;0.1786;-4.5389;
83414309604882;-11.5439;-1.0047;-2.6632;
83414319710350;-13.0627;0.3511;0.2330;
83414329811600;-9.1866;-0.3242;-0.7875;
83414339917069;-3.6386;0.6314;-4.0908;
83414350022538;-7.3253;0.1857;-5.7437;
83414360108579;-11.8098;-0.1184;-3.8847;
83414370214048;-10.1737;-0.5830;-1.1683;
83414380319517;-11.3569;-0.2381;-3.4202;
83414390442902;-8.3339;-0.7675;-0.7325;
83414400548371;-7.9747;-0.8874;-1.5108;
83414410653840;-10.6863;0.1570;-5.3701;
83414420759986;-11.4194;-0.3748;-2.0764;
83414430865454;-8.0847;0.6625;1.5864;
83414440970923;-9.4932;-0.6885;-4.0310;
83414451083475;-9.0909;-0.1352;-5.8636;
83414461188944;-10.1258;1.3095;-5.4586;
83414471294413;-10.8371;0.4014;-0.0377;
83414481383736;-7.7183;-0.4035;2.9518;
83414491489204;-8.1374;-1.2227;-4.8838;
83414501594673;-11.6539;-0.2883;-6.7116;
83414511685194;-11.2588;-1.1916;-0.0712;
83414521790663;-8.9255;-0.2022;-1.0917;
83414531896132;-9.8719;0.3511;-4.0430;
83414542015767;-10.3534;0.5907;-2.9698;
83414552121236;-6.9254;0.7490;-1.5278;
83414562226704;-7.6992;0.5357;-2.9578;
83414572335350;-9.9796;0.0494;-4.8861;
83414582440819;-10.7055;0.5572;-5.1497;
83414592546288;-6.6308;-0.0033;-1.7288;
83414602675298;-7.3373;-0.5925;-4.0214;
83414612780767;-10.6887;-0.0200;-5.9474;
83414622886236;-12.6314;-0.5495;-1.8200;
83414632967902;-9.3114;0.4540;-0.3203;
83414643073371;-8.5735;0.3320;-3.8752;
83414653178840;-10.4994;1.4028;-2.6345;
83414663297225;-7.9771;1.0053;-0.9263;
83414673402642;-9.6467;0.8973;-2.6082;
83414683508163;-9.9341;0.6577;-2.3973;
83414693612069;-9.8743;0.2315;-1.4988;
83414703717538;-9.5940;0.0685;-3.4561;
83414713823007;-9.8504;-0.0153;-3.7412;
83414723928267;-7.3708;-0.0778;-1.1444;
83414734033736;-6.5204;-0.8731;-2.4643;
83414744139204;-9.2536;-0.6239;-4.9005;
83414754250559;-9.1340;-0.5949;-5.8756;
83414764356027;-9.5243;0.3823;-5.0228;
83414774461496;-7.7877;0.0494;-1.2401;
83414784552902;-8.3794;0.1331;-1.7886;
83414794658475;-9.6108;0.0135;-3.4226;
83414804764048;-11.5941;0.3416;-3.0033;
83414814869100;-9.5605;0.6625;-1.2763;
83414824974673;-10.4420;-0.2381;-1.5541;
83414835080246;-12.2722;-0.0392;-2.0378;
83414845156704;-8.4009;0.2818;-1.5251;
83414855262277;-8.9949;0.2387;-1.4749;
83414865367798;-9.0646;-0.1472;-1.5661;
83414875527746;-12.6314;0.0781;-3.2261;
83414885633319;-12.7992;-0.3218;-1.8966;
83414895738892;-5.6940;-1.0860;1.0666;
83414905814829;-6.0102;-1.1219;-2.3853;
83414915920402;-8.8585;-1.5269;-6.3643;
83414926025975;-7.8452;-0.8779;-6.0168;
83414936124829;-10.9857;-1.7689;-5.7628;
83414946230402;-12.5070;-0.7938;-3.7053;
83414956335975;-8.5065;-0.5997;-2.2247;
83414966459725;-9.7017;0.5620;-6.0096;
83414976565298;-10.3654;1.2015;-2.1434;
83414986670871;-5.0952;1.3549;2.2116;
83414996782746;-6.1158;-0.0200;-4.6920;
83415006888267;-10.8658;-0.2453;-6.4433;
83415016993892;-12.3990;0.3200;-4.4070;
83415027078371;-12.0518;-0.4370;-1.4007;
83415037183944;-7.3038;-0.4226;0.0799;
83415047289517;-8.1182;-0.0511;-2.9195;
83415057395246;-9.8169;-1.2299;-2.2223;
83415067500819;-8.2693;-0.2644;-2.4069;
83415077606392;-10.3869;-0.9760;-5.9665;
83415087710663;-15.2474;0.2028;-4.1530;
83415097816236;-11.6587;1.0579;1.4019;
83415107921809;-6.9302;0.5955;0.8871;
83415118038163;-5.9551;-0.0009;-0.0138;
83415128143736;-6.7074;-0.3915;-1.9899;
83415138249309;-12.6745;-0.9592;-5.0420;
83415148375767;-10.7581;-0.5806;-3.4657;
83415158481340;-7.8165;-1.6083;-3.8489;
83415168586913;-8.9207;-0.5136;-5.8277;
83415178657850;-6.3096;-0.9209;-2.6321;
83415188763423;-8.2884;0.3009;-3.9664;
83415198868996;-14.3731;-0.0826;-3.7244;
83415208990246;-7.4596;0.9954;-1.0774;
83415219095819;-3.7059;0.1905;-3.9039;
83415229201392;-9.6802;1.0388;-6.8145;
83415239302329;-12.0900;0.6936;-2.2630;
83415249407902;-13.6424;0.2339;-0.0090;
83415259513475;-9.8886;-0.2189;0.9278;
83415269624309;-8.9183;0.2363;-2.7087;
83415279729882;-9.4358;-0.4585;-3.0966;
83415289835454;-4.8508;-0.0993;-0.0090;
83415299941809;-9.2803;0.4445;-5.4514;
83415310047382;-8.7317;-0.9305;-3.4944;
83415320152954;-8.8226;-0.0897;-1.9301;
83415330258319;-10.0346;-0.6072;-5.9067;
83415340363892;-10.7653;-0.1878;-2.7135;
83415350469465;-11.5534;-0.5303;2.6572;
83415360584413;-7.0331;-0.2572;-0.8761;
83415370689986;-8.1709;0.1068;-7.3439;
83415380795559;-12.4205;0.4950;-4.8263;
83415390896913;-12.0398;0.4253;-0.2198;
83415401002486;-7.0881;1.5754;-2.5289;
83415411108059;-8.0991;0.8686;-2.8164;
83415421214725;-9.5557;1.1321;0.7241;
83415431320298;-10.7486;0.0661;0.0652;
83415441425871;-10.2526;-0.7268;-1.8703;
83415451532329;-7.7614;-1.0621;-4.0023;
83415461637902;-10.7414;-0.4609;-3.7005;
83415471743475;-10.2072;-0.1567;-3.5423;
83415481838319;-10.9140;0.3176;-7.0516;
83415491943892;-6.1205;0.5931;-3.5662;
83415502049465;-3.0900;-0.0272;-1.5565;
83415512184517;-11.7141;0.5381;-7.9379;
83415522290090;-17.3100;0.0852;-4.4886;
83415532395663;-9.8264;0.6553;3.6443;
83415542476913;-6.7528;-0.4848;1.8404;
83415552582486;-7.7973;-0.3099;-3.1229;
83415562688059;-12.6362;0.1690;-3.8273;
83415572796184;-11.6683;-0.2333;-2.3853;
83415582901757;-8.6046;-0.1328;-0.8880;
83415593007329;-7.2416;-0.2118;-4.9077;
83415603111184;-10.7079;-0.0655;-6.9224;
83415613216757;-10.1306;-1.1291;-0.7780;
83415623322329;-7.9146;-0.6455;0.4845;
83415633441184;-1.8709;-1.5173;-3.3505;
83415643546757;-6.1612;-1.0693;-8.4099;
83415653652329;-12.7777;-1.6011;-6.5821;
83415663755038;-9.4143;-1.0478;-0.7349;
83415673860611;-13.0771;-0.1137;-3.8106;
83415683966184;-9.0072;-0.1831;-4.9484;
83415694057329;-5.7658;0.8758;-1.5350;
83415704162902;-9.4669;-0.5997;-0.5168;
83415714268475;-10.9116;-0.2118;-1.8918;
83415724397173;-10.2383;-0.3266;-1.6570;
83415734502746;-9.4119;0.6817;-0.8737;
83415744608319;-13.1321;0.8255;-2.6130;
83415754687017;-15.4415;-1.0238;2.3865;
83415764792590;-3.8614;-1.2323;8.2340;
83415774898163;-3.9694;-1.1581;-5.4778;
83415785012017;-12.6099;-0.5064;-12.2282;
83415795117642;-11.9489;-1.4073;-0.6054;
83415805223267;-9.3401;0.3368;-2.3662;
83415815325975;-10.9666;-0.8707;-3.9278;
83415825431600;-5.1646;-0.9712;-0.6556;
83415835537225;-6.8557;0.3057;-5.7293;
83415845628215;-10.5664;-0.4657;-5.4371;
83415855733840;-9.3760;0.2650;0.3431;
83415865839465;-8.8155;0.0182;-2.2391;
83415875949569;-10.4827;1.0244;-5.8971;
83415886055194;-11.0504;2.3345;-5.9928;
83415896160819;-10.1091;1.3262;-0.0712;
83415906291079;-7.6681;0.9404;2.8992;
83415916396704;-10.7462;0.7753;-3.9377;
83415926502329;-15.7409;1.1489;-5.2717;
83415936580663;-6.8031;-0.5662;3.2824;
83415946686288;-9.6658;0.9643;-4.2036;
83415956791913;-16.1049;1.1728;-2.9148;
83415966921288;-4.6280;-0.8201;4.1450;
83415977026913;-2.4290;0.1977;-3.4490;
83415987132538;-5.1144;-2.1185;-8.4027;
83415997203892;-17.5397;-0.4657;-6.9057;
83416007309517;-12.4831;-1.4336;-2.0617;
83416017415142;-6.3290;-0.8106;-1.3074;
83416027558892;-7.5242;-0.0655;-4.6801;
83416037664517;-7.1025;-0.2812;-2.9148;
83416047770142;-8.5807;0.7513;-4.2754;
83416057852017;-12.5189;0.6194;-5.3318;
83416067957642;-8.1733;1.3047;0.2952;
83416078063267;-10.3173;0.9332;-2.0931;
83416088166600;-14.6004;1.3023;-3.0129;
83416098272225;-9.4310;0.1570;1.1841;
83416108377850;-6.2210;-0.2118;4.2168;
83416118481288;-9.4860;-1.3998;-1.6307;
83416128586913;-18.8501;0.7152;-10.6283;
83416138692538;-5.9551;-1.2060;1.4716;
83416148841965;-0.0766;-0.3796;0.6332;
83416158947590;-8.9423;-0.7771;-10.8365;
83416169053215;-11.2875;-0.7436;-5.6456;
83416179141913;-10.4827;-1.3926;1.9265;
83416189247538;-8.6261;-0.9975;-1.1515;
83416199353163;-8.0321;-1.6561;-5.5017;
83416209447329;-11.7906;0.7872;-8.1296;
83416219552954;-12.2961;0.1116;-1.4318;
83416229658579;-8.5137;0.8877;2.5065;
83416239762069;-6.8800;1.1417;-3.6500;
83416249867694;-11.3880;0.1092;-6.0000;
83416259973319;-12.9547;1.7548;-1.3624;
83416270081288;-9.4741;0.7223;3.2632;
83416280186913;-7.9699;0.1044;0.7217;
83416290292538;-8.2358;-0.2548;-1.7910;
83416300409934;-13.5515;-0.5925;-2.7589;
83416310515559;-11.5247;-1.8814;-3.7723;
83416320621184;-2.9800;-0.6311;-3.7962;
83416330713892;-6.2306;-1.0119;-6.2922;
83416340819517;-8.6285;-0.1998;-7.0971;
83416350925142;-11.1078;-0.9760;-5.0635;
83416361049413;-11.9489;-0.5710;-3.0009;
83416371155038;-9.0359;0.5453;-2.3157;
83416381260663;-6.3649;0.4134;-2.4476;
83416391352902;-8.4849;0.8806;-0.6437;
83416401458527;-10.2024;-0.1376;0.0293;
83416411564152;-15.1971;1.1417;-4.1124;
83416421672329;-13.8772;0.6817;-2.2654;
83416431777954;-9.9509;1.5610;-1.8153;
83416441883579;-9.3305;0.8638;1.5123;
83416451988163;-5.8355;-0.0607;3.0165;
83416462093788;-6.3769;-0.7244;-3.1496;
83416472199413;-10.6792;-1.2395;-7.0301;
83416482282017;-14.6988;-0.6622;-6.5294;
83416492387642;-6.6811;-1.8670;-1.1276;
83416502493267;-4.4725;-2.1736;-1.3002;
83416512632954;-6.6284;-0.8755;-5.2621;
83416522738579;-10.8084;-0.0706;-6.8575;
83416532844204;-11.5415;-0.3963;-4.9412;
83416542931600;-12.1451;0.7681;-4.2156;
83416553037225;-4.9490;0.3559;-3.4298;
83416563142850;-4.6017;1.6017;-1.7145;
83416573244934;-11.5630;0.8183;-3.3769;
83416583350559;-15.8198;0.9212;-0.6987;
83416593456184;-8.6716;-0.0009;3.7376;
83416603566600;-5.4497;0.9141;-2.4571;
83416613672225;-8.6596;-0.7986;-4.4934;
83416623777850;-8.9112;-0.1567;-2.1458;
83416633866809;-9.7113;-0.9784;-3.5351;
83416643972434;-10.0609;-0.8680;-3.7077;
83416654078059;-11.5367;-0.5088;-3.1759;
83416664190142;-10.0418;-0.2524;-2.6847;
83416674295767;-10.8347;-0.9281;0.6284;
83416684401392;-10.6648;-0.4083;2.6692;
83416694513163;-6.5803;-0.4561;-1.9564;
83416704618788;-6.8246;0.2243;-4.5389;
83416714724413;-9.7783;0.1235;-4.7521;
83416724833892;-10.8347;-0.7460;-1.7575;
83416734939517;-9.7328;0.0470;-2.3303;
83416745045142;-8.5256;-1.0741;-2.8860;
83416755162850;-9.7878;-0.3338;-2.9698;
83416765268475;-8.4754;-2.0180;-0.2940;
83416775374100;-10.5162;-0.5160;-4.9579;
83416785459725;-14.3489;0.6482;-5.2863;
83416795565298;-7.6534;0.7056;-0.0592;
83416805670819;-5.9647;0.9093;-3.6165;
83416815769725;-9.1938;0.8255;-3.6981;
83416825875246;-6.5252;0.0254;0.5635;
83416835980819;-11.6468;-0.5638;-3.9784;
83416846109100;-11.9800;-1.3807;-3.9473;
83416856214621;-13.6041;-1.1267;-0.6102;
83416866320194;-8.1661;-1.9364;0.5228;
83416876434829;-2.8146;-0.7675;-2.0091;
83416886540350;-9.6275;0.2001;-6.9823;
83416896645923;-14.1072;0.4038;-5.4203;
83416906723788;-7.3660;-0.1472;0.1875;
83416916829309;-8.0201;0.7152;-2.9554;
83416926934882;-9.5172;-0.4322;-1.7838;
83416937073892;-10.4252;0.6697;-0.9287;
83416947179413;-11.9632;-1.0932;-0.9383;
83416957284986;-7.4740;-0.0488;-1.1683;
83416967361079;-7.6032;-0.5303;-3.7172;
83416977466600;-9.7663;-0.1567;-5.8397;
83416987572173;-11.5463;0.8853;-5.4227;
83416997675767;-13.1824;0.8447;0.7122;
83417007781288;-5.9312;0.5716;3.6036;
83417017886861;-5.3300;1.6089;-4.8766;
83417028001809;-9.6180;-0.0849;-5.0779;
83417038107329;-9.8480;0.0565;-0.0305;
83417048212902;-11.5893;-0.6455;-3.7747;
83417058306913;-10.4779;0.3511;-5.6001;
83417068412434;-6.4965;0.2770;-3.3027;
83417078518007;-10.4420;-0.0730;-1.9253;
83417088649204;-11.9536;0.5716;-2.0258;
83417098754725;-14.2364;2.2771;-3.1301;
83417108860298;-9.3760;1.2087;1.3086;
83417118943163;-5.5047;2.3755;-0.0090;
83417129048684;-5.9623;0.8566;-5.0109;
83417139154257;-8.2310;0.4564;-3.2142;
83417149265402;-13.8796;0.7056;-1.8799;
83417159370923;-18.5674;-1.2012;-3.1352;
83417169476496;-8.8585;-0.1831;-2.4356;
83417179576392;0.8838;0.3081;-2.2845;
83417189681913;-7.5506;-0.7412;-2.9794;
83417199787486;-15.2426;-0.4178;-4.1865;
83417209892642;-13.1201;-0.9162;-5.6121;
83417219998163;-4.6591;0.1857;-3.7555;
83417230103736;-2.1416;0.7223;-2.5552;
83417240210038;-7.3950;0.1977;-6.8743;
83417250315559;-10.0899;0.0135;-6.4050;
83417260421132;-9.0574;-1.6609;1.5817;
83417270526392;-11.5654;0.0494;-2.3925;
83417280631913;-16.5266;-0.3652;-8.7526;
83417290737486;-10.3125;1.1728;-1.5637;
83417300850038;-4.5538;1.1106;3.6634;
83417310955559;-2.9225;1.3430;-2.0210;
83417321061132;-8.0393;0.1881;-7.3343;
83417331160142;-14.6270;0.7418;-4.7207;
83417341265663;-14.1814;-0.5997;4.4827;
83417351371236;-8.1975;-1.1605;3.3616;
83417361496809;-6.3841;-0.1974;-3.1950;
83417371602329;-5.8044;-2.1879;-1.8894;
83417381707902;-8.6836;-1.8909;-3.5183;
83417391800246;-15.9876;-1.7521;-7.7273;
83417401905767;-14.5549;-0.5423;-4.0621;
83417412011340;-8.9016;1.5105;-0.4472;
83417422112642;-4.3956;0.1834;1.0690;
83417432218163;-6.5874;1.1082;1.4788;
83417442323736;-9.0790;-1.5173;-0.2557;
83417452438475;-12.2073;-0.8922;-5.1544;
83417462543996;-13.1871;-0.5136;-6.2850;
83417472649569;-8.9614;-0.6144;-1.6977;
83417482740975;-4.8461;-0.8034;-0.2486;
83417492846496;-8.3507;-0.7866;-3.9278;
83417502952069;-12.1092;-0.4370;-6.2061;
83417513052069;-10.1641;0.8495;-7.5380;
83417523157590;-6.5827;0.3440;-3.6571;
83417533263163;-7.5841;0.8853;-0.5934;
83417543378579;-12.3392;0.4229;-1.2835;
83417553484100;-9.5916;-0.7172;-0.2486;
83417563589673;-10.4755;0.5189;-4.0597;
83417573693059;-10.8132;0.7490;-2.5887;
83417583798579;-9.0909;-0.8560;0.1014;
83417593904152;-10.1402;-0.0730;-1.6044;
83417604010663;-8.5232;-0.8731;-1.4964;
83417614116184;-8.0656;0.6817;-4.5820;
83417624221757;-8.6859;0.2001;-5.5328;
83417634329048;-7.0738;-0.3628;-0.4570;
83417644434569;-4.8843;-1.3878;0.0580;
83417654540142;-9.7519;-0.6550;-5.9139;
83417664650559;-15.8318;0.4397;-8.2110;
83417674756132;-9.4502;0.3846;-1.0510;
83417684861652;-4.7982;0.0852;-0.1549;
83417694968059;-12.2842;1.4291;-4.4548;
83417705073579;-12.0613;0.8662;-1.8105;
83417715179152;-9.8767;0.9835;-1.2787;
83417725288996;-7.3349;1.3980;-1.2233;
83417735394517;-8.2502;0.7801;0.6114;
83417745500090;-8.5352;-0.6646;0.1253;
83417755637225;-8.5543;-0.0416;-3.7603;
83417765742746;-11.6181;-1.6370;-3.6861;
83417775848319;-9.5390;0.4783;-2.7661;
83417785914309;-8.2119;-1.1916;-5.9186;
83417796019882;-17.1829;0.6529;-3.4920;
83417806125454;-14.8280;0.3870;4.5832;
83417816231913;-12.3177;2.0279;-2.9267;
83417826337486;-7.1889;1.0026;-4.6944;
83417836443059;0.6924;1.3573;3.2321;
83417846543788;-2.1176;-1.5269;-2.8044;
83417856649361;-14.6916;-0.0440;-10.3816;
83417866754986;-19.7079;-1.7689;-6.3978;
83417876863788;-9.9293;-2.6264;3.4119;
83417886969361;-3.5524;-0.5303;-0.6269;
83417897074934;-4.6663;-0.5758;-7.6843;
83417907169621;-10.9714;-0.3170;-3.6981;
83417917275194;-10.0394;1.2350;-6.2779;
83417927380819;-11.3713;1.4770;-12.1014;
83417937497746;-11.7093;2.3683;-4.5508;
83417947603319;-9.9341;2.3515;5.6061;
83417957708944;-8.8490;-0.4729;5.3904;
83417967800767;-5.1909;-2.5642;3.2417;
83417977906340;-6.5372;-0.3987;-3.6188;
83417988011965;-10.8876;-2.4852;-9.5261;
83417998145663;-14.6988;-0.9712;-6.9751;
83418008251236;-9.5749;-0.6335;0.0823;
83418018356861;-8.0106;1.0244;-0.3179;
83418028475142;-4.5084;-1.0669;-4.3089;
83418038580715;-13.3047;0.6553;-2.9459;
83418048686340;-8.5615;-1.2897;4.5808;
83418058760975;-8.8872;0.0709;-3.6141;
83418068866548;-14.6605;-1.0860;-9.5142;
83418078972173;-12.0613;-0.2716;-0.0903;
83418089080038;-6.5085;-0.3987;6.2937;
83418099185611;-6.5997;-0.5853;-0.9936;
83418109291236;-12.6936;-0.5853;-4.8191;
83418119402538;-10.8108;0.4277;-3.9326;
83418129508111;-7.5673;0.1690;-1.3983;
83418139613736;-5.0569;-0.0009;-2.3495;
83418149723163;-7.9843;-0.4274;-1.9325;
83418159828736;-11.3091;-0.6215;-6.5175;
83418169934361;-16.5769;-0.1280;-7.5906;
83418180049465;-9.6658;-0.5614;0.7792;
83418190155038;-2.0698;0.2985;0.5946;
83418200260611;-6.7433;-0.1256;-7.0493;
83418210357017;-14.0782;0.2626;-5.4156;
83418220462590;-14.5502;0.4181;1.0475;
83418230568215;-7.3062;0.5022;-0.2844;
83418240668892;-4.9107;0.8231;-4.4596;
83418250774465;-9.8360;-0.0440;0.0317;
83418260880090;-12.2842;-0.6144;2.3530;
83418270990454;-13.2855;-0.9281;-2.9602;
83418281096027;-12.1594;0.3727;-5.4682;
83418291201600;-3.8806;-0.4131;-2.2654;
83418301309725;-7.5506;0.8686;-4.1554;
83418311415298;-11.1197;-0.4920;-2.1888;
83418321520923;-7.4429;0.0470;-1.5156;
83418331619829;-10.6528;0.6099;-5.0850;
83418341725402;-12.9212;0.3607;-4.6896;
83418351831027;-7.5194;-0.2142;1.3804;
83418361956079;-3.0781;-0.2166;0.3096;
83418372061652;-11.9414;0.2267;-6.6685;
83418382167225;-14.7419;0.6817;-5.4299;
83418392248579;-2.0770;-0.0921;-2.4667;
83418402354152;-8.2238;1.6161;-5.4658;
83418412459777;-12.5381;-0.4394;-1.3672;
83418422570350;-13.1752;0.6482;-1.0989;
83418432675923;-14.0447;0.7466;-1.8033;
83418442781548;-7.4716;0.1092;2.4464;
83418452889309;-5.0306;0.7729;-1.3504;
83418462994882;-10.1809;0.3320;-5.3892;
83418473100507;-11.5439;0.0254;-3.5710;
83418483201496;-8.9423;0.2028;0.0365;
83418493307069;-8.7413;-1.0765;-3.9063;
83418503412694;-12.0278;-0.7412;-6.5318;
83418513560715;-8.5974;-1.6131;3.4813;
83418523666288;-5.3827;-0.3389;0.1445;
83418533771913;-11.9608;-1.2730;-9.7107;
83418543830559;-12.3368;0.2028;-6.3329;
83418553936132;-4.4100;0.7032;-0.9335;
83418564041757;-5.5983;0.7370;-4.7952;
83418574152486;-11.2182;0.6123;-5.5977;
83418584258059;-11.0025;0.4636;0.4965;
83418594363684;-10.7821;-0.5877;2.2262;
83418604466079;-10.9929;0.5261;-2.7206;
83418614571652;-10.4850;-1.3807;-3.5949;
83418624677277;-11.2205;-0.0993;-0.8856;
83418634764204;-11.0336;0.7442;-1.3768;
83418644869777;-7.5075;0.3392;0.4367;
83418654975350;-6.3386;0.4014;-3.0535;
83418665114309;-9.8049;0.0589;-5.9689;
83418675219882;-9.9317;-1.2778;-1.8846;
83418685325507;-7.7782;-0.5495;1.4716;
83418695412121;-9.8575;-1.9750;-4.3950;
83418705517694;-7.3014;-2.1257;-6.2492;
83418715623319;-15.2498;-0.2118;-3.8106;
83418725760923;-17.1230;-0.0153;-0.9479;
83418735866496;-6.9159;1.1728;0.3287;
83418745972121;-5.4736;1.7142;-2.6058;
83418756045350;-6.1086;1.3071;-3.6571;
83418766150923;-7.4524;1.0364;-1.6427;
83418776256496;-15.2689;-0.1735;-3.3242;
83418786425611;-10.5568;-1.0717;-0.6748;
83418796531652;-6.2928;-1.5317;0.1804;
83418806637746;-9.7591;-1.9582;-4.7856;
83418816671027;-16.2488;-0.1950;-4.0406;
83418826777121;-6.7002;-1.4240;0.4989;
83418836883163;-9.7017;2.0183;-5.2621;
83418847048423;-7.3926;1.2350;-9.2148;
83418857154465;-3.7107;0.3727;-3.3362;
83418867260559;-13.4100;1.2903;-1.3672;
83418877333163;-11.9800;-2.1592;1.3828;
83418887439204;-8.6979;-0.4083;-0.2079;
83418897545298;-6.9206;-1.1892;-4.7112;
83418907643996;-6.6093;-1.4886;-3.3051;
83418917750038;-12.9930;-0.5758;-2.2726;
83418927856132;-15.4798;0.3583;-4.5245;
83418937953632;-11.2421;1.3573;-3.8154;
83418948059673;-5.1885;2.0734;0.4391;
83418958165767;-5.1000;1.1369;-2.7230;
83418968270611;-8.5256;-0.1472;-1.4821;
83418978376652;-6.5348;-0.7579;1.5505;
83418988482746;-9.6849;-1.9510;-6.6685;
83418998573007;-14.1096;-1.8718;-7.7560;
83419008679048;-12.1092;-0.9018;0.5587;
83419018785142;-12.1546;0.2865;1.6128;
83419028897798;-1.2191;-1.2395;0.2067;
83419039003840;-2.4505;0.4588;-8.2328;
83419049109934;-12.3296;1.8150;-10.7910;
83419059221548;-9.7352;0.0494;0.2378;
83419069327590;-9.6395;1.5395;-1.4366;
83419079433684;-12.6147;0.2171;-2.3518;
83419089537382;-8.1757;-0.8560;3.8767;
83419099643423;-10.3582;-0.8010;0.1899;
83419109749517;-14.0423;-0.5088;-2.7159;
83419119874100;-8.6285;0.2076;-2.2750;
83419129980142;-5.5600;0.1522;-5.2816;
83419140086236;-9.8982;2.3393;-4.6537;
83419150174257;-13.2832;-0.9233;2.4846;
83419160280298;-14.8543;-1.3256;4.3053;
83419170386392;-12.1475;-0.5303;-1.1850;
83419180500350;-4.3119;1.0244;-3.5112;
83419190606392;-6.1660;-1.0932;-1.6857;
83419200712486;-9.2369;-1.8024;-2.9698;
83419210815402;-8.9662;-1.4121;-5.9904;
83419220921444;-10.4563;0.2626;-10.3720;
83419231027538;-7.9484;0.4373;-7.4686;
83419241135767;-7.0786;1.6113;-1.6140;
83419251241809;-5.7730;0.3200;0.1469;
83419261347902;-7.7279;-0.0778;-1.8966;
83419271444152;-10.6935;0.6625;-7.6002;
83419281550194;-15.7170;0.7466;-8.5537;
83419291656288;-10.0561;1.2182;1.3349;
83419301765507;-7.2679;3.0843;3.6610;
83419311871548;-9.6323;1.1895;-2.1338;
83419321977642;-8.5017;-0.6718;-1.3385;
83419332075767;-10.2479;1.5921;1.5075;
83419342181809;-13.0026;-0.4226;-1.7767;
83419352287902;-11.1942;-0.0826;-0.5910;
83419362412798;-8.0130;0.1140;0.9805;
83419372518840;-5.5265;-1.2849;-3.0057;
83419382624934;-9.1843;-0.6479;-5.0898;
83419392704361;-10.0899;-0.2477;-5.3581;
83419402810402;-9.7735;-0.8656;-2.7517;
83419412916496;-7.6223;-0.2572;-4.4862;
83419423027277;-8.1278;0.7681;-5.6886;
83419433133319;-6.8728;0.4301;-3.3793;
83419443239413;-3.7848;0.3392;-1.2138;
83419453346184;-8.8585;0.6793;-5.9569;
83419463452225;-13.1895;-0.0706;-4.9460;
83419473558319;-12.1570;0.7175;0.0942;
83419483652798;-15.8749;1.3765;-0.6054;
83419493758840;-7.3950;0.3392;2.4416;
83419503864934;-1.9905;1.4722;-0.2079;
83419513982694;-13.0675;0.1259;-4.9842;
83419524088736;-12.4182;0.1905;-1.2568;
83419534194829;-8.6381;-0.1543;-0.9670;
83419544283736;-8.1374;-0.8874;-3.0105;
83419554389777;-10.9164;-0.2835;-1.3935;
83419564495871;-7.7638;-2.7583;1.5290;
83419574605350;-4.2018;-1.7450;-3.9975;
83419584711392;-11.0575;-0.4920;-7.5715;
83419594817486;-10.4228;-0.8489;-5.1568;
83419604923319;-11.5439;-0.9353;-4.3567;
83419615029413;-11.2253;0.6386;-2.8956;
83419625135454;-5.6868;0.5070;-0.1860;
83419635263527;-11.1966;0.8040;-0.8521;
83419645369569;-12.2985;0.9260;-1.0558;
83419655475663;-9.0766;0.2052;-0.6485;
83419665553944;-10.0995;0.5285;-0.1765;
83419675660038;-8.5065;-0.0464;-3.9520;
83419685766079;-6.4367;1.0747;-4.0908;
83419695870194;-6.3864;-1.6155;-0.7780;
83419705976236;-9.4119;-1.5867;-5.1329;
83419716082329;-14.0758;-1.4551;-6.9727;
83419726193111;-8.7915;-0.7220;-3.6141;
83419736299152;-6.6045;1.0747;-2.8669;
83419746405246;-10.5808;-0.8970;-1.9828;
83419756522121;-10.6624;0.7992;-2.9674;
83419766628163;-9.2273;0.6553;-1.4079;
83419776734257;-8.8322;1.2999;-3.5614;
83419786823892;-11.3761;0.9882;-2.3252;
83419796929100;-9.7735;-0.9305;2.3818;
83419807034361;-6.8294;-0.7579;1.7399;
83419817142746;-8.8729;-0.5136;-4.8407;
83419827247954;-9.3616;-0.8755;-4.1028;
83419837353215;-11.2205;-0.5279;-3.4561;
83419847490871;-10.9116;0.5118;-2.2295;
83419857596079;-4.7312;-0.4059;0.1923;
83419867701340;-7.8380;-0.2142;-8.5466;
83419877767017;-10.4372;0.6099;-6.4002;
83419887872225;-4.7862;0.6075;-0.0832;
83419897977486;-3.1932;-0.2094;-3.0751;
83419908095975;-3.3009;-0.6168;-8.2184;
83419918201184;-15.8486;-0.5136;-5.8636;
83419928306444;-27.2417;-0.6646;6.4516;
83419938428632;-19.2479;1.5200;12.0715;
83419948533840;-2.4314;3.2234;-2.4093;
83419958639100;-2.4170;0.4158;-6.7475;
83419968717121;-9.3425;0.9500;4.1115;
83419978822329;-12.7104;1.9801;-1.1874;
83419988927590;-11.0575;-1.2658;-4.4862;
83419999052329;-10.3316;-1.1892;-1.8511;
83420009157538;-7.9627;-1.4551;0.4941;
83420019262798;-7.2823;-3.7187;0.8055;
83420029355350;-2.6088;-3.1463;0.5348;
83420039460559;-6.1804;-3.4409;-14.2430;
83420049565819;-19.6741;1.9346;-24.4214;
83420059675767;-11.3474;1.4363;-5.0324;
83420069780975;-1.0780;0.8399;7.9155;
83420079886236;-6.4893;2.6940;-3.3003;
83420089994934;-7.7495;1.4506;-6.4026;
83420100100142;-17.6692;0.6027;0.4869;
83420110205402;-16.2464;-0.5351;5.7667;
83420120312850;-6.2569;-0.2500;0.8151;
83420130418059;-4.1249;0.2841;-5.7772;
83420140523319;-9.8719;-0.2309;-1.1157;
83420150642329;-12.3392;-0.5662;0.2282;
83420160747538;-11.7619;0.1451;-3.9688;
83420170852798;-8.3195;-1.0119;-3.0368;
83420180950350;-5.6246;-0.9568;-1.7456;
83420191055559;-8.0752;-1.3639;-2.3662;
83420201160819;-9.4980;-1.1868;-3.3817;
83420211267329;-8.3530;-0.9544;-2.1410;
83420221372538;-8.8226;-0.8536;-6.9009;
83420231477798;-11.0097;0.4636;-8.3381;
83420241596809;-9.5988;0.9380;-0.8186;
83420251702017;-7.5625;1.0484;4.0609;
83420261807277;-9.1077;0.8423;-0.5240;
83420271900767;-14.1144;1.5248;-5.3916;
83420282005975;-15.4319;0.8734;-0.5097;
83420292111236;-8.8298;-0.0559;5.3091;
83420302213059;-5.2436;0.6027;-1.0869;
83420312318267;-11.6877;0.0661;-5.3701;
83420322423527;-7.5027;-0.3290;-0.8378;
83420332526184;-8.2478;0.1857;-3.4705;
83420342631392;-11.3210;-0.3604;-6.7618;
83420352736652;-7.5075;-1.6394;-1.4486;
83420362868579;-9.2345;-0.8584;-1.6810;
83420372973788;-10.7821;-1.4886;-5.3964;
83420383079048;-6.9876;-0.7962;-3.7842;
83420393157225;-10.3125;-0.0897;-4.2060;
83420403262434;-15.2330;1.0436;-4.5556;
83420413367694;-8.4826;0.7466;-0.4017;
83420423487746;-6.6500;0.8853;1.6944;
83420433592954;-9.1460;1.4818;-3.0200;
83420443698215;-11.2421;-0.4681;-1.8870;
83420453808996;-9.6706;0.2052;0.3263;
83420463914204;-9.2154;-1.2873;-1.6283;
83420474019465;-6.9900;-1.6681;-2.4093;
83420484102798;-8.3052;-0.1232;-6.9727;
83420494208059;-12.3224;-1.7282;-3.2285;
83420504313319;-11.5917;-0.1519;0.0942;
83420514420559;-12.0613;-0.0105;-3.5183;
83420524525767;-11.2899;0.0278;-4.1100;
83420534631027;-7.3612;0.9978;0.5468;
83420544748684;-7.6848;0.0661;-0.9837;
83420554853892;-8.9566;-0.1711;-1.1874;
83420564959152;-10.1186;-0.7866;-1.7743;
83420575063892;-5.1909;-1.0214;-4.4118;
83420585169100;-6.6188;-2.0420;-4.7593;
83420595274361;-10.6313;-1.1267;-3.4561;
83420605378996;-11.8050;-1.4432;-2.6776;
83420615484204;-8.2454;-0.2429;-3.9903;
83420625589465;-9.5677;0.4684;-7.4518;
83420635687746;-12.0398;0.9284;-4.6848;
83420645792954;-7.3158;1.3597;1.5912;
83420655898215;-9.9054;1.3478;-0.6676;
83420666006079;-11.3139;-0.0081;-0.0497;
83420676111288;-9.8384;0.6553;0.5061;
83420686216496;-9.3592;-0.3843;-1.3385;
83420696349465;-7.9843;-1.7545;2.3650;
83420706454725;-4.9274;-1.8742;0.3191;
83420716559986;-6.9350;-1.5078;-7.7058;
83420726649517;-13.8197;-1.1701;-8.9704;
83420736754777;-13.4698;-0.4777;-1.9349;
83420746859986;-7.7566;0.2483;0.8222;
83420756966548;-6.6739;0.2028;-4.0406;
83420767071809;-6.9254;0.2698;-3.5207;
83420777177069;-9.8815;0.2746;-1.4892;
83420787294309;-12.4182;1.0460;-3.0009;
83420797399934;-12.4349;0.3368;-1.4007;
83420807505611;-9.2632;0.0517;1.9986;
83420817603892;-4.9753;0.4902;1.2248;
83420827709569;-11.7930;-0.1831;-3.0631;
83420837815194;-12.4158;0.0494;-0.9191;
83420847936913;-9.1484;0.4711;-2.0067;
83420858042538;-8.8657;-0.0081;-5.2645;
83420868148215;-7.9771;-0.2046;-3.0105;
83420878231913;-8.5208;-0.3338;-1.3385;
83420888337590;-9.4573;0.2052;-3.8728;
83420898443215;-10.9044;0.0374;-5.9880;
83420908552329;-9.7496;-1.0980;-2.5098;
83420918657954;-8.3578;0.0254;-1.4533;
83420928763632;-9.1053;0.4229;-4.1602;
83420938859934;-10.8996;0.4588;-0.5503;
83420948965611;-8.8537;0.5405;-1.1252;
83420959071236;-9.6108;0.6649;-3.7292;
83420969180350;-12.1283;-0.4250;-1.8727;
83420979285975;-8.9566;-0.1376;0.1253;
83420989391652;-9.2827;0.1140;-1.7145;
83420999499621;-7.2703;-0.5853;-3.8297;
83421009605246;-2.6782;-1.5126;-1.9923;
83421019710923;-2.8217;-0.9568;-6.9440;
83421029814517;-21.2456;-0.6502;-9.2650;
83421039920142;-29.5938;-0.4226;3.7137;
83421050025819;-12.9452;1.5969;8.4999;
83421060133788;1.8159;2.6581;-3.2118;
83421070239465;-1.2649;0.0781;-1.9110;
83421080345090;-10.2981;1.2760;2.2932;
83421090458267;-16.3923;-0.1256;-4.0645;
83421100563944;-12.2722;-1.3950;-6.6948;
83421110669569;-6.9829;-0.9042;-3.1878;
83421120773163;-5.0282;-1.5867;-0.8952;
83421130878788;-4.5108;-1.3878;0.7409;
83421140984465;-4.2066;-2.3342;-3.3864;
83421151093684;-12.6817;-0.4418;-17.4242;
83421161199309;-18.9030;0.1283;-18.0398;
83421171304986;-11.3354;2.5095;-1.0630;
83421181406600;-4.5179;3.5276;8.4832;
83421191512225;-4.2999;2.7778;2.4921;
83421201617902;-11.0408;1.0101;-4.0214;
83421211725663;-12.9452;-0.6191;0.2186;
83421221831288;-10.6840;-0.2022;1.1746;
83421231936965;-9.1173;0.2937;-3.5949;
83421242053163;-8.8394;0.0015;0.8151;
83421252158788;-7.6582;-0.7627;2.6333;
83421262264465;-8.7796;-0.0296;-3.8776;
83421272360819;-10.2909;-0.4992;-6.8097;
83421282466444;-10.5616;-0.0631;-2.7470;
83421292572121;-8.9088;-0.2285;-1.6499;
83421302676392;-8.8968;0.3488;-4.1339;
83421312782069;-8.6955;0.7729;-3.6742;
83421322887694;-10.0561;0.7968;-2.1912;
83421332985038;-11.7715;0.7825;-1.3385;
83421343090663;-10.6433;1.0675;0.4319;
83421353196340;-7.9074;0.8782;2.1254;
83421363309100;-7.2655;0.1834;-1.9373;
83421373414725;-12.0206;0.4062;-4.7183;
83421383520402;-12.9476;0.1427;-1.2835;
83421393651079;-6.5372;-1.4216;0.3359;
83421403756757;-8.7772;-0.2620;-3.9544;
83421413862382;-11.5176;-0.9353;-5.9139;
83421423945350;-10.8538;-0.4202;-1.5084;
83421434051027;-8.3554;-0.5183;-2.1075;
83421444156652;-8.8633;0.5477;-4.0238;
83421454256392;-8.6812;-0.5806;-2.3228;
83421464362017;-9.2417;0.0805;-2.1601;
83421474467694;-12.5477;0.2985;-3.0176;
83421484577590;-10.0657;0.2267;-1.7743;
83421494683215;-7.7925;-0.6168;-1.0175;
83421504788892;-9.5100;-0.0559;-2.6010;
83421514911548;-10.7414;-0.7603;-2.5816;
83421525017173;-10.1234;0.4711;-2.8860;
83421535122850;-9.4525;-0.4178;-2.3638;
83421545201913;-9.1866;-0.0176;-1.9588;
83421555307590;-8.1446;-0.3796;-0.7875;
83421565413215;-8.4248;0.3248;-2.6824;
83421575520559;-11.2636;0.2435;-4.1195;
83421585626236;-9.5988;0.7008;-2.4236;
83421595731861;-7.6176;0.6482;-2.3806;
83421605838371;-9.2345;-0.0392;-2.9841;
83421615944048;-10.4707;0.7896;-3.7364;
83421626049673;-12.9476;2.0686;-3.7340;
83421636153996;-10.0274;2.6725;-0.1382;
83421646259621;-6.8103;1.7836;-0.2174;
83421656365298;-8.8753;1.1776;-3.1831;
83421666475767;-11.0360;0.6099;-2.8741;
83421676581392;-12.8303;0.6314;-0.5934;
83421686687069;-7.2607;0.2722;-0.2270;
83421696818423;-7.6825;-0.2500;-3.7579;
83421706924048;-11.6758;-0.7125;-2.6800;
83421717029777;-11.4434;-0.1759;-1.0415;
83421727102382;-11.3665;0.2363;-2.8355;
83421737208007;-7.7782;-0.5064;-3.4442;
83421747313684;-5.8618;0.5883;-3.3266;
83421757458579;-8.5974;-0.7077;-3.0631;
83421767564204;-11.6133;-0.4322;-2.8813;
83421777669882;-11.9175;-0.4753;-1.8368;
83421787728996;-6.6787;-1.4408;-2.5289;
83421797834413;-8.0560;-1.3161;-4.1219;
83421807939882;-7.7399;-1.7976;-2.0788;
83421818066288;-9.1795;-0.6072;-2.7398;
83421828171704;-13.0843;-0.7484;-5.1688;
83421838277173;-10.3678;0.1140;-2.6584;
83421848371913;-8.2238;-0.8321;-0.0832;
83421858477329;-7.6391;-0.3170;-1.0343;
83421868582798;-8.7003;-0.7053;-0.8091;
83421878701184;-11.9270;-0.6574;-2.2080;
83421888806600;-10.5042;-1.0693;-2.4380;
83421898912069;-9.9772;-0.2859;-2.1601;
83421909006079;-9.2850;-0.6359;-1.4868;
83421919111548;-10.9259;-0.2142;-2.2367;
83421929216965;-4.9250;0.0733;-1.5036;
83421939327434;-10.9905;0.7199;-2.4954;
83421949432850;-20.4335;-0.5734;-0.8043;
83421959538319;-12.7199;0.7223;2.9231;
83421969647538;-8.3554;2.2962;-1.4749;
83421979752954;-8.4945;0.6649;-2.7135;
83421989858423;-5.4640;-0.5327;0.3167;
83421999970142;-8.2741;0.8853;-3.7675;
83422010075559;-7.4309;-0.4944;-6.1798;
83422020181027;-5.9647;-0.8994;-8.4649;
83422030281184;-6.6332;-0.3027;-7.6600;
83422040386600;-9.1340;-0.5136;-3.8489;
83422050492069;-10.7821;-1.1988;1.0331;
83422060593892;-7.2918;-0.4561;-4.8838;
83422070699309;-11.7835;1.9705;-11.6175;
83422080804777;-13.1943;1.4698;-2.9028;
83422090908267;-8.2119;2.3587;4.6768;
83422101013684;-9.3688;1.7764;-0.6317;
83422111119152;-14.3154;1.0149;-1.1635;
83422121245350;-13.9274;1.7572;3.4190;
83422131350767;-8.1398;0.0924;5.9871;
83422141456236;-5.6821;-0.9018;2.1781;
83422151550975;-6.7457;-2.9091;-1.8942;
83422161656392;-9.0383;-2.9976;-4.3902;
83422171761861;-12.6960;-1.2514;-7.8924;
83422181869725;-11.6901;-2.2361;-5.2597;
83422191975142;-6.2833;-1.0597;0.6739;
83422202080611;-3.3440;-0.2644;-6.4217;
83422212184621;-7.6415;0.3440;-10.8652;
83422222290038;-7.3469;0.0494;-2.9818;
83422232395507;-9.4932;0.2578;-4.6274;
83422242503371;-14.4305;1.2784;-4.2514;
83422252608788;-9.7807;1.5057;2.4081;
83422262714257;-8.8657;2.1670;1.4740;
83422272817121;-15.3479;1.9250;-0.6365;
83422282922538;-8.9758;-0.2979;2.5232;
83422293028007;-8.1182;-0.0993;-0.2844;
83422303139934;-9.0598;-0.0153;-4.4501;
83422313245350;-12.5907;0.0015;-4.5700;
83422323350819;-10.9164;-0.7460;0.7648;
83422333448579;-7.0020;-0.7675;0.9063;
83422343553996;-9.9580;-1.6828;-4.5556;
83422353659465;-7.1746;-1.4647;-3.9302;
83422363761652;-6.2258;-0.8632;-4.8550;
83422373867069;-13.1297;-0.8994;-5.9498;
83422383972538;-11.6587;-0.6526;-2.4500;
83422394082538;-8.3148;0.7056;-4.0143;
83422404187954;-10.0202;0.3033;-3.6093;
83422414293423;-9.0048;1.6926;-1.1324;
83422424400767;-9.1555;1.1489;-0.9598;
83422434506184;-3.5046;0.7609;-1.9158;
83422444611652;-5.2460;-0.1089;-4.4982;
83422454712746;-7.3301;-1.1243;-4.8838;
83422464818163;-11.3833;-0.8707;-5.1401;
83422474923632;-16.9361;-1.0310;-2.1577;
83422485023892;-16.6295;-1.1533;6.1116;
83422495129309;-13.7668;1.5344;1.9675;
83422505234777;-13.3214;1.7501;-5.9115;
83422515361548;-8.0776;1.6472;-0.1911;
83422525466965;-2.8002;2.3922;1.8643;
83422535572434;-7.4788;1.1249;-3.8536;
83422545655975;-11.5247;-0.8417;-3.9808;
83422555761392;-6.6523;-1.4456;0.4295;
83422565866861;-4.0627;-2.5379;-0.3778;
83422575972434;-8.7365;-2.6719;-6.0431;
83422586077850;-12.0805;-3.0410;-5.7293;
83422596183319;-8.4778;-2.0515;-6.2755;
83422606304361;-10.4013;-0.5016;-12.7723;
83422616409829;-15.3000;1.3023;-9.7442;
83422626515298;-9.1890;3.2354;-0.1789;
83422636601027;-7.4046;4.8165;1.5386;
83422646706496;-9.5773;2.5502;4.4683;
83422656811913;-8.9327;0.0087;4.9834;
83422666943267;-14.7634;-0.9999;-0.5982;
83422677048684;-9.8767;-0.8970;2.6477;
83422687154152;-2.6207;-1.7115;2.6046;
83422697254204;-7.9699;-2.7126;-6.5773;
83422707359621;-13.3884;-3.1582;-8.9536;
83422717465090;-12.6458;-1.3208;-4.4524;
83422727565402;-8.4945;0.9954;-3.7460;
83422737670819;-8.3913;0.4301;-5.8923;
83422747776288;-7.5841;0.0852;-2.5193;
83422757879569;-9.3377;-0.2142;-0.5743;
83422767984986;-13.8245;-0.1065;-2.3662;
83422778090454;-10.4133;1.1321;-1.2520;
83422788197329;-5.5959;0.5142;0.3601;
83422798303007;-6.0559;-0.5877;-1.3122;
83422808408684;-9.0048;-0.9999;-2.4236;
83422818513475;-13.7524;-0.4848;-2.5241;
83422828619152;-13.9920;-0.2788;-3.1472;
83422838724829;-7.4189;0.1546;-2.7206;
83422848859882;-6.5204;0.4735;-1.9277;
83422858965559;-8.5591;-0.0921;-2.7541;
83422869071236;-10.9068;0.4636;-4.2084;
83422879160038;-11.2253;-0.0440;-4.0741;
83422889265715;-8.3124;-0.1639;-1.8033;
83422899371392;-5.4090;-0.0873;-2.8068;
83422909460350;-9.9102;-1.0478;-2.3853;
83422919566027;-9.7352;-0.6215;0.2809;
83422929671704;-9.4238;-0.3218;-2.5433;
83422939782746;-13.3573;-0.5327;-4.3543;
83422949888423;-10.8084;0.4564;-1.8153;
83422959994100;-5.9456;0.9691;-0.0592;
83422970102434;-10.0322;0.3176;-2.4069;
83422980208111;-11.6013;1.1967;-2.2104;
83422990313788;-6.8390;0.2506;-1.2114;
83423000422225;-8.5065;0.0924;-4.0454;
83423010527902;-9.0622;-1.0645;-2.9100;
83423020633579;-9.5605;-1.1267;-1.5398;
83423030733996;-11.1679;-1.2443;-3.1711;
83423040839673;-10.3774;0.0254;-2.5648;
83423050945350;-5.8116;-0.0873;-1.5179;
83423061055246;-7.9170;-0.0873;-4.7976;
83423071160923;-15.2833;0.9093;-3.9159;
83423081266600;-9.9509;0.5189;0.6284;
83423091369100;-6.4223;1.1752;-1.1946;
83423101474777;-8.4706;0.2626;-3.8680;
83423111580454;-10.7103;-0.6550;-1.3983;
83423121697746;-6.4678;0.1187;-2.6536;
83423131803423;-11.5750;0.4854;-3.1472;
83423141909100;-10.4133;-0.4657;-3.1038;
83423152002434;-10.9881;1.0723;-2.8355;
83423162108111;-8.4921;0.0470;-0.8856;
83423172213788;-12.4229;1.4219;-0.9048;
83423182329986;-8.5591;0.6194;-1.1611;
83423192435663;-5.3444;1.3765;-3.1735;
83423202541340;-11.9246;0.1187;-4.5365;
83423212641704;-10.6935;-0.1974;-1.6116;
83423222747382;-5.3037;0.3320;-2.8331;
83423232853059;-10.3487;0.3511;-5.9210;
83423242952850;-8.0536;-0.2620;-0.1478;
83423253058527;-2.1583;-0.3242;-2.1984;
83423263164204;-14.0710;-0.7172;-7.1139;
83423273266392;-15.5898;0.4684;-2.9722;
83423283372069;-8.8633;0.2267;0.8629;
83423293477746;-7.6319;1.1752;-2.7876;
83423303587329;-11.1847;1.2855;-3.2142;
83423313693007;-8.2238;0.6817;2.1206;
83423323798684;-6.1062;0.3296;-1.9205;
83423333903579;-11.1293;0.1187;-5.2597;
83423344009257;-13.9681;-0.3099;0.5300;
83423354114934;-10.4276;-1.5150;0.2833;
83423364216184;-5.9767;0.1905;-1.1444;
83423374321861;-4.1273;-0.7077;-0.1430;
83423384427538;-10.4659;-0.8755;-6.2133;
83423394551184;-13.1369;-0.8034;-6.4983;
83423404656861;-8.9686;-0.6359;-3.6619;
83423414762538;-7.0522;-0.1496;-3.4920;
83423424861288;-9.3353;-0.3628;-3.8082;
83423434966965;-12.8997;0.5979;-3.3147;
83423445072642;-9.1029;0.0278;1.8428;
83423455169621;-5.0139;0.1211;0.2737;
83423465275298;-11.3474;-1.0932;-4.2275;
83423475380975;-16.8763;0.7008;-3.4561;
83423485478267;-8.1063;0.2626;1.6606;
83423495583944;-4.0077;1.1895;0.1756;
83423505689621;-9.5342;-0.0607;-3.7484;
83423515794309;-12.1307;-0.7938;-2.6824;
83423525899986;-9.5868;-0.0488;-3.5901;
83423536005663;-8.8968;-1.2323;-4.1076;
83423546115819;-9.2130;0.1164;-3.7077;
83423556221496;-10.7892;-0.7316;-3.0440;
83423566327173;-9.2850;-0.1831;-0.9263;
83423576462850;-8.4969;0.2746;-2.7135;
83423586568527;-9.5653;-0.2979;-3.2572;
83423596674204;-8.9447;0.8183;-2.0282;
83423606770507;-11.5152;-0.9592;-2.5050;
83423616876236;-10.9786;-0.4083;-1.6379;
83423626981913;-7.8260;0.1714;-1.9349;
83423637106809;-9.4310;-0.1998;-5.0252;
83423647212486;-9.3544;0.2985;-0.9574;
83423657318163;-6.4798;0.0278;-2.0163;
83423667376913;-9.9126;-0.6694;-4.2419;
83423677482642;-11.4290;-0.1519;-2.9530;
83423687588319;-10.1545;-0.2500;-2.5265;
83423697700767;-8.2190;-0.2835;-2.0812;
83423707806444;-7.3373;0.4493;-3.0511;
83423717912121;-8.3052;-1.0214;-2.4595;
83423728039100;-10.5162;-0.0200;-3.4896;
83423738144777;-12.8327;-0.0248;-6.3858;
83423748250454;-9.8336;1.2159;-2.2056;
83423758341184;-6.9278;1.1154;0.8919;
83423768446861;-9.1890;0.2698;-1.0056;
83423778552486;-11.2469;-0.2118;-1.4557;
83423788683111;-8.4993;0.3416;-1.7934;
83423798788996;-8.5735;-0.4394;-2.2941;
83423808894829;-11.1607;-0.0200;-3.6093;
83423818988840;-9.1866;-0.3290;-3.8704;
83423829094725;-8.1637;0.6075;-2.4380;
83423839200559;-9.3568;-0.0033;-3.6718;
83423849292590;-9.2058;0.7199;-3.2907;
83423859398475;-9.9939;0.3440;-0.7107;
83423869504309;-9.6610;-0.0129;-0.3012;
83423879613736;-9.4071;-0.0081;-2.8259;
83423889719621;-11.1317;0.7681;-3.2548;
83423899825454;-8.6333;0.6410;-1.4773;
83423909926132;-9.4621;-0.1639;-0.5503;
83423920032017;-8.6189;-0.6287;-2.1051;
83423930137850;-9.9054;-0.0849;-5.0850;
83423940244361;-11.6300;0.5644;-3.3434;
83423950350246;-8.4248;0.2387;-0.6317;
83423960456079;-7.4668;-0.0488;-2.2510;
83423970559100;-9.2779;-0.6957;-1.4007;
83423980664986;-10.3798;-0.1639;-3.1878;
83423990770819;-13.4985;0.2746;-3.6476;
83424000880611;-5.9599;-0.3915;0.4415;
83424010986496;-8.6189;0.1834;-3.2716;
83424021092329;-11.9031;-0.9377;-2.2678;
83424031198944;-12.5572;-0.6742;-1.1635;
83424041304829;-11.0623;0.0637;-4.0502;
83424051410663;-2.6064;0.7056;-1.7791;
83424061515194;-5.6868;-0.1280;-2.1290;
83424071621079;-11.1440;-0.9425;-3.6021;
83424081726913;-13.6759;-1.1749;-2.3471;
83424091833684;-13.2039;-0.5495;-1.7961;
83424101939569;-7.1985;0.0398;-1.7910;
83424112045454;-9.6132;-0.0272;-3.8560;
83424122152486;-9.0455;0.3511;-0.6820;
83424132258371;-8.4897;-0.0682;-1.6140;
83424142364204;-12.5477;-0.0921;-5.5161;
83424152465090;-9.6706;0.5812;-4.2610;
83424162570975;-8.8681;0.7848;-2.4452;
83424172676809;-6.3191;-0.7053;3.5530;
83424182778944;-6.5180;-0.0129;-1.7408;
83424192884829;-12.3727;-1.4456;-5.8851;
83424202990663;-13.0675;-0.5949;-2.8956;
83424213102902;-12.0087;-0.1472;-4.1004;
83424223208788;-13.1249;-0.2094;-2.5241;
83424233314621;-6.4391;1.2736;-0.1741;
83424243417277;-6.9685;0.8542;-2.6847;
83424253523163;-8.9136;1.3717;-2.4260;
83424263628996;-5.9192;0.2818;-2.6512;
83424273732798;-8.0058;-0.0488;-3.6284;
83424283838684;-9.1412;-1.5843;-1.8440;
83424293944569;-9.7543;-1.0238;-4.4719;
83424304043423;-11.2158;0.0637;-4.6346;
83424314149309;-8.1494;0.0302;-1.6977;
83424324255142;-7.2488;0.1786;-4.4046;
83424334364361;-10.5927;0.3990;-3.8919;
83424344470246;-12.8758;1.3262;-4.4501;
83424354576079;-12.6769;0.9978;-1.0439;
83424364671392;-7.9193;2.5669;3.4884;
83424374777173;-6.9589;0.3272;1.7973;
83424384883059;-14.5143;0.0757;1.0427;
83424394988944;-7.6729;-0.5016;0.3840;
83424405107590;-4.3047;-0.0153;-3.3769;
83424415213475;-6.2521;-1.2036;-5.3318;
83424425319309;-9.8456;-1.2084;-7.1306;
83424435442173;-11.0169;-1.1339;-6.0168;
83424445548059;-8.9662;-0.1807;-2.5146;
83424455653892;-7.8428;-0.3413;-4.1267;
83424465732434;-10.2120;-0.2046;-3.4298;
83424475838319;-6.8510;0.5261;0.1708;
83424485944152;-9.7448;0.3224;-1.9780;
83424496051548;-11.0623;0.6912;-3.6117;
83424506157434;-11.7835;0.7394;-2.5959;
83424516263319;-15.3000;0.7801;0.5850;
83424526440038;-6.5997;0.7920;3.7639;
83424536545871;-6.2785;-0.5925;1.1794;
83424546651704;-8.5567;-0.4920;-3.2309;
83424556689152;-12.6290;0.1977;-3.8393;
83424566795038;-10.4731;-0.7388;-2.1840;
83424576900923;-7.9436;-0.7005;-2.7278;
83424587050559;-6.7026;0.5237;-6.7307;
83424597156444;-3.8399;-0.3099;-4.5915;
83424607262277;-15.2354;-0.0802;-4.5365;
83424617339465;-22.3211;-1.2897;-0.5192;
83424627445350;-6.6069;0.1929;0.7552;
83424637551184;-0.5103;2.4329;-5.0348;
83424647615663;-10.5018;0.1379;-1.5084;
83424657721548;-13.4937;1.5538;-2.2463;
83424667827382;-10.7390;-0.1448;-2.4571;
83424677976079;-4.7312;0.8686;-1.3911;
83424688081965;-9.7472;0.6817;-2.1482;
83424698187798;-13.5224;-0.3676;-4.5102;
83424708273527;-8.7051;0.0996;-0.8354;
83424718379413;-2.1153;-1.0956;-0.8785;
83424728485246;-13.8293;-0.9855;-9.0879;
83424738591652;-7.6825;0.3894;-12.1134;
83424748697538;-14.9360;0.9476;-5.6169;
83424758803371;-11.1703;-0.3652;6.6362;
83424768897798;-5.7179;1.0986;2.3937;
83424779003684;-5.4162;0.2937;-4.8885;
83424789109517;-8.1852;-0.0105;-1.9971;
83424799228111;-12.5429;-1.0645;-0.2031;
83424809333892;-13.1417;-0.8560;-2.2869;
83424819439673;-8.7820;-0.4322;-5.2478;
83424829545090;-5.2630;-0.6694;-1.8511;
83424839650871;-6.8486;-0.7316;-2.6034;
83424849756652;-14.5741;0.5357;-7.2864;
83424859878423;-9.0933;-1.9463;2.4607;
83424869984204;-3.5118;0.1881;-0.1741;
83424880089986;-16.3923;0.9571;-11.6198;
83424890177173;-13.9083;-1.0645;0.0365;
83424900282954;-4.1177;0.6840;5.4168;
83424910388736;-4.9274;0.0637;-0.7397;
83424920495298;-9.6634;-1.9606;-3.2788;
83424930601079;-13.6041;-0.5638;-6.6948;
83424940706861;-13.2709;-1.1004;-0.6628;
83424950816965;-7.1985;-0.8656;1.8835;
83424960922746;-6.6882;0.5357;-5.8851;
83424971028527;-10.0971;-0.5255;-3.5782;
83424981138944;-12.6218;-0.9927;0.9852;
83424991244725;-9.5701;1.0101;-3.7340;
83425001350507;-6.7576;-0.0248;-5.6192;
83425011448007;-11.0647;-0.0655;-3.8800;
83425021553788;-4.6161;-0.3437;0.1995;
83425031659569;-6.3817;-1.3639;-2.7517;
83425041765298;-14.7658;-0.6837;-6.9009;
83425051871079;-14.0351;-0.2453;-2.2080;
83425061976861;-12.1618;0.2674;0.2282;
83425072082069;-8.3124;0.5381;-1.7360;
83425082187850;-5.1574;0.7394;0.4558;
83425092293632;-9.6491;-0.2381;-0.0760;
83425102416027;-13.0843;0.8160;-5.1209;
83425112521809;-12.3033;-0.5495;-3.1038;
83425122627642;-5.2412;-0.3676;0.3984;
83425132725715;-7.4907;-0.6957;-4.8861;
83425142831496;-11.1823;-1.0502;-3.0870;
83425152937277;-9.4023;-1.5150;-0.7612;
83425163036132;-10.3869;-0.7579;-7.5595;
83425173141913;-8.6907;0.1594;-4.6609;
83425183247694;-10.2933;0.8112;-2.5720;
83425193347954;-10.0250;0.5692;-1.6235;
83425203453684;-6.7528;0.7370;-0.4400;
83425213559465;-9.1364;0.3583;-3.4418;
83425223668319;-13.1154;-0.1208;-2.4882;
83425233774152;-7.2296;-0.2620;-1.2691;
83425243879882;-7.3086;-0.1089;-2.7996;
83425253981132;-8.6405;-0.1878;-2.4643;
83425264086913;-9.6634;-0.5327;-4.7112;
83425274192694;-13.1584;0.0015;-3.5614;
83425284298111;-9.3808;-0.0873;0.0102;
83425294403892;-7.6992;0.4301;-1.2978;
83425304509673;-11.3091;0.6960;-3.9377;
83425314622746;-13.2879;0.1403;-0.3299;
83425324728579;-8.3794;0.6386;-0.1765;
83425334834309;-2.5008;-0.2931;-3.9664;
83425344935194;-6.8270;0.4205;-4.6394;
83425355040975;-10.1019;-0.3508;-3.2979;
83425365146809;-9.0335;-0.4298;-3.6547;
83425375257382;-7.3998;-0.2357;-2.7972;
83425385363163;-9.8695;-0.8656;-3.8034;
83425395468944;-11.4266;-0.1352;-3.1591;
83425405565715;-5.8618;-0.4131;-1.8320;
83425415671496;-10.5951;1.3214;-3.4346;
83425425777277;-15.6233;-0.0535;-2.6201;
83425435875819;-13.1560;1.8341;-1.8631;
83425445981600;-10.8036;0.7633;0.5563;
83425456087382;-5.4377;1.4650;4.0490;
83425466198684;-4.4581;0.2841;2.6524;
83425476304465;-12.6075;-0.3365;-3.7364;
83425486410246;-15.7361;-1.4743;-2.0450;
83425496508527;-9.1843;-1.8909;-0.6078;
83425506614361;-2.9776;-1.4264;-5.6767;
83425516720090;-9.0263;1.2039;-5.8588;
83425526841548;-9.9485;-1.6780;-0.7493;
83425536947329;-8.3985;-1.1916;-6.6374;
83425547053111;-9.3497;0.6170;-10.4294;
83425557147382;-8.2023;1.6711;-5.2286;
83425567253163;-9.6180;1.7453;-1.9780;
83425577358944;-9.6203;1.2230;0.8438;
83425587486027;-8.3674;1.2374;-0.1717;
83425597591861;-9.5725;0.9547;-3.4394;
83425607697590;-12.2025;1.3286;-3.3553;
83425617786184;-15.0700;1.0890;0.1229;
83425627891965;-5.9862;0.8518;2.5639;
83425637997746;-5.4473;0.6170;-1.8224;
83425648101965;-8.4057;-0.2333;-5.9545;
83425658207746;-13.2589;0.0015;-4.9388;
83425668313527;-11.3258;-0.4083;-0.5503;
83425678437017;-7.8188;-0.6215;0.2665;
83425688542798;-8.4440;0.0254;-3.9664;
83425698648579;-9.3185;-1.4073;-3.5423;
83425708768632;-10.0107;0.5022;-1.4366;
83425718874413;-8.4344;-0.5901;-1.5733;
83425728980194;-8.6836;-0.2644;-5.1114;
83425739074361;-12.7992;0.1116;-4.5772;
83425749180142;-10.6385;-0.1687;-0.9431;
83425759285923;-6.4152;0.5237;-1.2090;
83425769378840;-6.7720;-0.1328;-1.8009;
83425779484621;-10.2670;-0.0272;-1.8775;
83425789590402;-13.8939;-0.5495;-3.2405;
83425799714361;-9.7926;-0.4681;-3.3553;
83425809820194;-5.4042;0.4469;-1.8105;
83425819925975;-7.6391;-0.4561;-2.7135;
83425830011861;-12.6051;-0.3266;-3.4825;
83425840117694;-10.8924;-0.7819;-3.8919;
83425850223475;-8.2693;-0.1328;-2.6800;
83425860342746;-9.3808;0.6458;-3.8201;
83425870448527;-9.6443;-0.2237;-1.2930;
83425880554361;-10.6959;0.5859;-0.2509;
83425890648267;-10.2526;-0.4202;-1.0080;
83425900754100;-8.1541;-0.6455;-2.3830;
83425910859882;-9.9102;0.0446;-2.9387;
83425920966913;-12.3081;0.1235;-2.3806;
83425931072694;-8.0847;-0.2524;-0.6365;
83425941178475;-6.0583;-0.2883;-3.7531;
83425951281861;-8.7796;-0.2764;-4.8311;
83425961387694;-10.3726;-0.6407;-4.2897;
83425971493475;-12.1307;-1.0502;-2.8475;
83425981614777;-10.8757;0.6505;-0.1860;
83425991720611;-7.5266;0.9476;-2.0836;
83426001826392;-5.5361;0.6266;-3.0535;
83426011918007;-13.1800;0.4974;-3.6885;
83426022023840;-11.7906;0.5620;-0.9646;
83426032129621;-6.4415;0.3129;-2.7829;
83426042232694;-6.8871;-0.3628;-5.3964;
83426052338527;-10.5090;0.3296;-2.8594;
83426062444309;-9.6897;-0.5590;-1.6762;
83426072553267;-8.1709;0.0613;-2.1649;
83426082659100;-8.1350;-0.4418;-3.0176;
83426092764882;-13.4363;-0.4705;-3.5949;
83426102858215;-13.2903;0.1522;-2.0067;
83426112964048;-9.5533;1.1824;-0.4089;
83426123069882;-7.5386;0.7418;0.2474;
83426133188527;-9.9891;0.5022;-2.9841;
83426143294361;-12.1283;0.3751;-3.1854;
83426153400194;-8.8035;-0.1735;-1.4844;
83426163526132;-3.5524;-0.4729;-1.1779;
83426173631965;-6.8752;-0.3437;-4.6107;
83426183737746;-14.8256;-0.5638;-5.1497;
83426193832017;-10.5473;-0.7603;-0.6197;
83426203937798;-6.2904;0.0924;-3.2309;
83426214043579;-9.8432;0.7466;-8.2256;
83426224137694;-10.2933;0.7295;-3.7771;
83426234243527;-8.3387;1.0026;-1.1970;
83426244349309;-11.7404;1.5395;-3.8800;
83426254462173;-9.8527;0.6936;-2.9626;
83426264568007;-8.9303;1.7166;-0.7349;
83426274673788;-11.2014;0.4229;0.0700;
83426284771340;-4.1776;-0.2166;2.1781;
83426294877173;-4.5036;-0.4083;-2.8594;
83426304982954;-17.3219;-1.6609;-7.0325;
83426315071444;-13.9681;-0.4490;-3.2572;
83426325177277;-10.1761;0.1642;0.4032;
83426335283059;-6.7074;0.0829;-2.5241;
83426345417173;-6.8991;0.6266;-3.3147;
83426355523007;-6.7170;-0.2189;-3.2237;
83426365628840;-10.9235;0.0589;-5.0803;
83426375716288;-11.9704;-0.2429;-2.4739;
83426385822069;-9.8169;0.0374;-0.2940;
83426395927850;-9.0263;-0.4107;-1.0582;
83426406038111;-8.2932;-0.2333;1.1480;
83426416143944;-5.4568;-1.1004;-0.9048;
83426426249777;-13.7213;0.2243;-9.4807;
83426436408736;-13.2087;-0.5279;-3.9063;
83426446514517;-7.0355;1.0220;-0.9311;
83426456620350;-11.7547;0.1379;-2.2654;
83426466668215;-11.4936;0.8016;-0.7469;
83426476774048;-5.6151;0.3990;0.6667;
83426486879829;-7.8428;-0.0945;-1.8799;
83426497020402;-8.6596;-0.4490;-2.8813;
83426507126236;-10.6576;-0.2788;-5.3844;
83426517232017;-11.3904;-0.9760;-2.8980;
83426527305975;-11.9943;-0.9281;-0.8163;
83426537411757;-8.6429;-0.3314;-2.5552;
83426547517590;-5.3372;0.1211;-3.1205;
83426557614882;-8.5950;0.2267;-4.6681;
83426567720715;-11.2923;0.0613;-3.0583;
83426577826548;-11.1847;0.7920;-2.8403;
83426587924361;-11.2732;-0.3003;-1.0893;
83426598030194;-6.8366;0.7896;1.3373;
83426608135975;-7.3926;0.0972;-1.4462;
83426618261652;-10.6170;-0.7507;-3.4920;
83426628367486;-11.3306;-0.3772;-1.8655;
83426638473267;-9.9293;-1.3089;-2.6321;
83426648579673;-11.6516;0.4540;-5.1927;
83426658685507;-9.7639;0.0565;-1.9804;
83426668791288;-8.2645;0.5572;1.2320;
83426678902590;-7.0570;0.3033;-1.6283;
83426689008423;-9.0718;-0.6335;-3.8512;
83426699114204;-10.1186;-0.4657;-2.6154;
83426709209361;-9.4645;-0.5925;-3.8632;
83426719315194;-9.1962;-0.2955;-3.6428;
83426729420975;-6.4534;-0.6837;-1.4677;
83426739527798;-8.5089;-0.9760;-3.6476;
83426749633632;-11.9632;-0.6598;-5.0133;
83426759739413;-12.7199;-0.1424;-3.5758;
83426769843736;-11.7906;0.6721;0.1540;
83426779949569;-6.5420;1.9346;-0.2988;
83426790055350;-6.7887;0.4229;-2.3375;
83426800180194;-11.1440;0.2291;-0.8785;
83426810285975;-11.8265;-0.8512;-2.1218;
83426820391757;-10.8012;-0.0802;-2.9243;
83426830479100;-8.9231;-1.0908;-0.6604;
83426840584829;-8.8466;-0.5303;-2.6704;
83426850690663;-8.9662;-0.9568;-3.2118;
83426860812277;-6.0030;-1.2945;-3.1711;
83426870918059;-6.6715;0.2865;-6.9392;
83426881023840;-10.9379;0.1403;-6.6278;
83426891113111;-8.3913;-0.3027;-1.8799;
83426901218892;-7.3349;0.9787;-2.9052;
83426911324725;-10.2503;-0.2381;-2.1386;
83426921445507;-10.3774;0.3057;-2.1147;
83426931551340;-10.9140;0.2411;-2.2774;
83426941657069;-10.0490;0.0422;-1.5924;
83426951747434;-9.3784;1.0484;-2.4643;
83426961853215;-9.3879;1.4554;-2.9243;
83426971958996;-10.7892;1.5443;-0.7202;
83426982063111;-8.6812;0.0661;2.8490;
83426992168892;-10.2861;-0.6144;1.0618;
83427002274673;-11.1174;-0.1328;-3.1301;
83427012381861;-7.7853;-0.6933;-3.5710;
83427022487642;-5.4544;-0.9760;-3.0488;
83427032593475;-13.1800;-0.6311;-6.2372;
83427042696027;-8.4200;-0.9305;-3.0129;
83427052801809;-8.1326;-0.1543;-4.0262;
83427062907590;-15.0748;0.9739;-3.5447;
83427073007173;-8.4730;1.6328;-0.7756;
83427083112954;-5.6414;0.4684;0.3673;
83427093218736;-5.3563;1.6496;-2.8765;
83427103347277;-11.6396;-0.2764;-5.2840;
83427113453111;-14.1311;0.4205;-4.3783;
83427123558892;-8.3028;-0.0488;-1.3193;
83427133662434;-4.9777;1.3813;-1.2401;
83427143768163;-4.0555;-0.3314;-3.8106;
83427153873944;-10.9594;0.3440;-7.3032;
83427163976548;-9.9030;-0.1519;-3.0057;
83427174082329;-13.0098;0.2100;-0.8210;
83427184188111;-19.0777;0.2554;-0.1214;
83427194290715;-9.7400;0.8064;4.7222;
83427204396496;-3.7107;1.7716;-0.5934;
83427214502277;-7.1554;0.7633;-4.9173;
83427224603267;-7.1650;0.0589;-2.9698;
83427234709048;-15.2809;-0.8345;-5.0324;
83427244814882;-14.7538;-2.1568;1.0666;
83427254919882;-5.0617;-0.8369;2.9638;
83427265025663;-7.2368;-0.5518;-3.6957;
83427275131444;-8.8968;-1.4862;-2.7350;
83427285222017;-5.5887;-1.7809;0.0293;
83427295327798;-10.5425;-1.0765;-8.9895;
83427305433579;-14.1838;0.8566;-13.3950;
83427315541132;-8.7003;0.9787;-2.6034;
83427325646913;-5.0019;0.9500;2.6501;
83427335752694;-10.3077;0.8662;-2.4835;
83427345863527;-10.0923;-0.7890;-2.6058;
83427355969309;-12.8686;0.2028;-1.5876;
83427366075090;-14.8041;-0.0464;-1.5278;
83427376205246;-6.2761;1.0842;0.6763;
83427386311027;-4.7169;0.6075;-0.6891;
83427396416809;-11.2756;-0.5518;-3.9640;
83427406511288;-12.4229;-0.4920;-2.3495;
83427416617069;-13.0316;-0.6120;-2.0859;
83427426722850;-6.6523;-0.4992;-1.7599;
83427436819673;-3.7346;-0.0873;-3.7627;
83427446925454;-10.5209;-0.6718;-5.1090;
83427457031236;-13.6902;-1.2634;-3.0272;
83427467127486;-8.8226;0.8207;-1.9014;
83427477233267;-7.6223;0.4950;-4.6992;
83427487339048;-7.2392;1.8676;-2.9770;
83427497469465;-9.1244;0.9858;-1.6953;
83427507575246;-11.1607;0.0805;-2.3710;
83427517681027;-10.2335;0.7032;-0.6030;
83427527761027;-8.0584;-0.3218;-2.1745;
83427537866809;-10.5377;0.8255;-4.8981;
83427547972590;-9.0574;-0.5782;-0.2342;
83427558111757;-10.9905;0.2291;-1.0822;
83427568217538;-11.1512;0.3727;-4.5628;
83427578323371;-4.5179;-0.2835;-1.5132;
83427588420402;-8.2980;0.3942;-2.0764;
83427598526184;-10.4444;-0.9832;-3.9206;
83427608631965;-8.0560;-0.0945;-2.9411;
83427618729361;-12.3320;-0.4753;-3.9544;
83427628835142;-9.4597;-0.7962;-1.6475;
83427638940923;-8.3363;-0.8177;-1.1850;
83427649041965;-7.7997;0.2076;-4.1076;
83427659147746;-10.5114;0.3009;-2.5337;
83427669253527;-10.9116;0.2674;-0.6006;
83427679377590;-11.9752;-0.3389;-1.8703;
83427689483371;-7.2129;0.8782;-0.0688;
83427699589152;-7.6609;-0.4681;0.3000;
83427709678944;-9.0096;-0.3123;-5.1209;
83427719784725;-15.0293;-1.3304;-3.2572;
83427729890507;-8.8705;-0.7268;0.6882;
83427740002486;-7.7686;-1.2634;-2.7111;
83427750108267;-10.9618;-0.1998;-5.7078;
83427760214048;-9.6036;0.6721;-1.8583;
83427770311184;-10.1521;-0.2979;-0.0090;
83427780416965;-8.6453;0.2459;-1.6068;
83427790522746;-9.5725;0.0948;-4.3687;
83427800610350;-12.0589;0.1379;-4.5939;
83427810716027;-7.2081;-0.2429;0.1851;
83427820821757;-5.4760;-0.7029;-3.2812;
83427830948475;-4.5132;-1.1124;-5.4514;
83427841054152;-4.8006;-0.8465;-8.3213;
83427851159882;-13.6280;-0.6957;-8.3309;
83427861271184;-15.9829;0.0302;-1.0774;
83427871376861;-9.9532;1.0699;2.8035;
83427881482590;-3.5405;0.9571;1.8284;
83427891576288;-7.7231;0.2698;-2.7972;
83427901681965;-14.3516;1.2398;-5.6288;
83427911787694;-10.7868;0.5022;-1.5876;
83427921906652;-11.7691;0.5405;0.5539;
83427932012329;-10.0923;-0.8225;0.8486;
83427942118059;-5.7826;-0.8803;2.5424;
83427952206288;-9.3042;-0.6024;-0.0616;
83427962311965;-14.7897;-1.3998;0.2163;
83427972417694;-7.4046;-0.9832;-2.8813;
83427982526913;-7.2559;-1.4695;-7.7536;
83427992632590;-6.5515;0.0135;-4.9795;
83428002738319;-7.7925;-1.0717;-3.3553;
83428012855663;-12.6841;-0.2453;-4.8311;
83428022961340;-12.2794;0.1187;-4.4405;
83428033067069;-9.1388;-0.3051;-0.5743;
83428043163059;-6.8680;0.7537;-0.2342;
83428053268736;-11.0695;1.3741;-4.3974;
83428063374465;-10.6959;0.7513;-0.9718;
83428073502225;-6.8055;-0.4561;1.2296;
83428083607902;-12.1020;0.8997;-6.1510;
83428093713632;-13.7142;-0.7771;-1.6690;
83428103800454;-5.7538;0.3248;2.1948;
83428113906132;-5.1168;-1.3735;-2.0593;
83428124011861;-11.1751;-1.1486;-7.0277;
83428134121079;-11.5654;-0.7627;-4.4743;
83428144226757;-6.7433;-1.5126;-2.6297;
83428154332486;-13.6759;0.0829;-5.0468;
83428164430819;-10.6624;-0.0826;-1.5251;
83428174536496;-4.5873;1.2446;1.8643;
83428184642225;-6.1301;-0.4633;-2.8140;
83428194736600;-7.6463;-0.1065;-5.7221;
83428204842277;-7.8858;0.3320;-4.9531;
83428214948007;-26.2259;-0.7196;-1.7719;
83428225073684;-15.4917;-0.7579;8.1287;
83428235179361;1.0828;0.6864;3.3927;
83428245285090;-3.6075;1.4865;-9.1573;
83428255377069;-11.7380;0.2001;-4.9579;
83428265482746;-12.8901;-0.9425;0.9685;
83428275588475;-10.1928;0.2698;-4.4958;
83428285703475;-5.6797;-0.4585;-5.6384;
83428295809152;-6.0245;-0.3604;-1.7192;
83428305914882;-12.6936;-1.1557;-2.3853;
83428316012329;-12.8542;-2.2839;1.6896;
83428326118007;-3.3969;-1.7833;-1.6451;
83428336223736;-11.5822;2.3177;-15.5222;
83428346344829;-11.4553;1.2855;-8.0219;
83428356450507;-8.1182;1.8173;3.9485;
83428366556184;-9.2393;1.5491;2.9973;
83428376640767;-10.1761;0.4062;-1.9253;
83428386746444;-10.5162;1.2760;-3.1448;
83428396852121;-8.0991;0.0182;-0.5647;
83428406971496;-8.1374;-0.6981;0.7792;
83428417077173;-10.5305;-0.7196;-3.4681;
83428427182902;-12.4277;-1.1701;-5.0731;
83428437363475;-7.4118;0.4783;-1.2930;
83428447469100;-8.8561;0.7295;-5.0252;
83428457574882;-13.8341;0.6027;-2.7350;
83428467616288;-5.6198;0.8064;4.8036;
83428477721965;-8.4802;1.1010;-3.4322;
83428487827694;-9.7663;0.3344;-5.4060;
83428497929986;-9.6036;0.9284;-2.5600;
83428508035663;-7.8093;0.2770;-1.1444;
83428518141392;-6.3721;-0.6168;-1.7336;
83428528228736;-11.6516;-0.3891;-5.4251;
83428538334413;-11.9007;0.0541;-4.5102;
83428548440142;-9.2608;1.1177;-0.7899;
83428558553579;-7.4788;1.2637;-0.8833;
83428568659257;-7.9938;1.0026;-3.2883;
83428578764986;-11.6853;0.2985;-3.6356;
83428588888788;-10.4276;-0.1376;-0.3634;
83428598994465;-11.0240;0.7394;-2.5002;
83428609100194;-9.0718;-0.6598;-0.5958;
83428619168684;-7.7064;-0.0416;-1.3911;
83428629274413;-8.9351;-1.5006;-2.0234;
83428639380090;-10.4109;-1.7665;-2.0521;
83428649511809;-13.7405;-0.3532;-5.2935;
83428659617486;-7.4381;-0.1161;-2.5289;
83428669723215;-6.2186;-1.2754;0.9781;
83428679837642;-9.5773;-0.7029;-3.4968;
83428689943319;-10.1880;-0.4322;-4.8718;
83428700049048;-11.5295;-1.0549;-2.6106;
83428710133892;-10.0828;-0.6383;-2.2199;
83428720239569;-11.8193;-0.6239;-1.4151;
83428730345298;-9.6873;0.1714;-0.4256;
83428740465454;-4.9633;-0.2955;-1.8918;
83428750571132;-8.3363;0.3655;-5.9689;
83428760676861;-12.1929;-1.1773;-4.1483;
83428770773996;-11.1583;-0.2166;-0.0640;
83428780879673;-6.9159;-0.6383;-0.9936;
83428790985402;-9.8504;0.5405;-5.8923;
83428801105819;-11.2564;-0.4370;-3.0870;
83428811211600;-11.8122;-0.3437;0.4510;
83428821317329;-10.9187;0.1810;-3.0081;
83428831412434;-5.3994;-0.5614;-2.3061;
83428841518215;-4.8485;1.3765;-5.7461;
83428851623892;-13.7931;1.1752;-6.5294;
83428861740402;-7.3998;-1.0214;2.8274;
83428871846236;-3.0613;-0.3867;-0.3179;
83428881951913;-10.8733;-0.5088;-8.8053;
83428892039100;-12.8542;-0.4155;-3.5566;
83428902144882;-9.1484;0.3272;-0.0138;
83428912250559;-7.1315;0.4516;-2.7565;
83428922340975;-9.0455;0.7370;-4.1507;
83428932446757;-11.6683;1.4985;-3.2788;
83428942552486;-10.0131;1.3549;-1.8033;
83428952668736;-9.9102;2.0471;0.4678;
83428962774517;-11.0145;-0.1496;2.3937;
83428972880246;-7.9241;0.4134;2.7075;
83428983006600;-10.3005;-0.2955;-1.6020;
83428993112382;-11.7787;-0.6383;-2.4763;
83429003218111;-4.9585;-0.4059;-2.6824;
83429013322017;-11.0575;-0.4633;-6.0335;
83429023427798;-10.7845;-1.3974;-2.8693;
83429033533527;-5.6390;-0.1448;-0.9263;
83429043640975;-9.1723;-0.8082;-5.8995;
83429053746757;-12.3057;0.8016;-5.9904;
83429063852486;-9.3544;0.1881;0.3577;
83429073916913;-5.5648;0.4636;-0.4400;
83429084022746;-6.4295;0.3607;-6.3257;
83429094128475;-10.0514;0.1092;-4.3041;
83429104262850;-14.0064;-0.6383;-1.5326;
83429114368632;-15.1418;-0.4609;-0.8737;
83429124474361;-12.0302;-0.6168;2.8729;
83429134597902;-6.0365;0.2028;0.1253;
83429144703684;-9.3664;1.2063;-5.0779;
83429154809361;-10.5808;-1.0717;-0.6485;
83429164901809;-6.6236;-0.1974;-0.3443;
83429175007590;-8.1398;-0.5255;-6.1510;
83429185113319;-12.6841;-0.6407;-5.5427;
83429195192642;-11.1918;-1.9606;0.4750;
83429205298423;-5.7610;-1.1821;1.5769;
83429215404152;-4.5610;-2.3127;-5.1568;
83429225525871;-10.5951;-0.2835;-9.1549;
83429235631652;-11.3450;-0.6766;-5.8516;
83429245737382;-14.9504;1.9107;-5.2887;
83429255848579;-10.3965;1.6567;1.4381;
83429265954309;-3.9670;2.0423;4.4133;
83429276060090;-9.4956;2.0638;-4.4357;
83429286156079;-13.2927;-0.4490;-1.4246;
83429296261861;-11.5032;0.5333;1.5242;
83429306367590;-11.6997;-0.7914;-1.6307;
83429316482850;-6.3529;0.1857;-2.4954;
83429326588632;-5.0067;-0.3461;-3.1158;
83429336694361;-12.2243;-0.2381;-3.8321;
83429346768007;-10.9929;-0.5566;-3.7866;
83429356873788;-6.7959;0.9739;-4.0956;
83429366979569;-6.4582;0.6673;-3.7005;
83429377128267;-10.2239;0.3272;-3.9087;
83429387233996;-12.4397;1.3669;-2.9818;
83429397339725;-9.1005;0.6218;0.4415;
83429407438944;-8.4706;0.7944;-1.5685;
83429417544725;-10.6552;0.8830;-2.6082;
83429427650454;-9.2154;1.1441;-2.9674;
83429437747121;-11.5989;0.8997;0.4750;
83429447852902;-4.6041;-0.0488;1.6582;
83429457958579;-8.7915;1.4100;-5.1544;
83429468076913;-12.4014;-0.8779;-3.7412;
83429478182694;-7.2344;-0.9544;1.8308;
83429488288475;-8.4945;-1.4599;-2.3471;
83429498390038;-12.3535;-0.7579;-7.1955;
83429508495819;-10.6768;-1.0717;-3.1783;
83429518601600;-4.1970;-1.1892;1.2655;
83429528691965;-11.9103;-1.8814;-4.0741;
83429538797746;-19.3460;-1.6250;-2.6489;
83429548903475;-8.3315;-1.7354;3.4956;
83429559015767;-2.9441;-0.3338;0.3936;
83429569121496;-10.2526;-1.6107;-3.8608;
83429579227225;-12.6458;-2.0707;-1.1779;
83429589330090;-10.5832;-0.2070;-2.0306;
83429599435923;-10.2718;-1.1486;-3.1639;
83429609541600;-4.7408;-1.0621;-2.4500;
83429619669517;-7.0977;-0.3843;-5.9378;
83429629775246;-12.4086;-0.9592;-5.8636;
83429639881027;-7.7758;-0.0440;0.2569;
83429649972746;-5.2534;0.7896;-6.4433;
83429660078527;-9.8097;1.5176;-10.7432;
83429670184257;-10.5664;1.2230;-1.4940;
83429680304517;-11.1269;1.1154;2.5735;
83429690410298;-8.7413;1.5395;-2.2008;
83429700516027;-13.8844;0.2913;-4.2993;
83429710604829;-9.0455;0.0852;1.8691;
83429720710611;-7.2846;-0.2070;-1.3672;
83429730816340;-11.9294;-0.4896;-3.5040;
83429740922329;-8.4105;0.0302;-2.7972;
83429751028111;-8.4706;0.5142;-3.1878;
83429761133840;-9.4190;1.0914;-3.9520;
83429771231340;-10.4372;1.0651;-4.6107;
83429781337173;-7.2272;0.9188;-1.7169;
83429791442902;-7.7160;0.0206;-5.1425;
83429801563579;-11.9007;0.2435;-8.7260;
83429811669309;-9.7089;-0.2166;-2.4811;
83429821775038;-8.9949;0.3655;-3.3625;
83429831879309;-11.1440;-0.0224;-4.3256;
83429841984986;-6.6260;1.0484;-1.3504;
83429852090715;-6.0150;0.7032;-3.3410;
83429862201444;-12.9452;0.7104;-3.4418;
83429872307225;-10.1330;1.1919;-1.6211;
83429882412954;-5.8786;-0.6670;-2.0692;
83429892504725;-11.2851;-0.3437;-4.5676;
83429902610454;-13.6831;0.5381;-4.9771;
83429912716132;-7.8045;0.5261;-2.9889;
83429922832121;-5.8546;0.6984;-0.9550;
83429932937850;-7.2559;0.7896;-3.1759;
83429943043579;-8.1999;0.8758;-5.7939;
83429953138267;-14.9527;0.9858;-3.6308;
83429963243996;-8.4009;0.2530;3.0790;
83429973349725;-6.1469;0.3416;-0.8234;
83429983472017;-10.6959;-0.5207;-5.7389;
83429993577746;-11.8744;0.5788;-1.7767;
83430003683475;-9.1914;0.5166;1.8356;
83430013781809;-9.1938;-0.5375;-2.0740;
83430023887538;-13.0938;0.3344;-4.0837;
83430033993215;-12.8088;0.3200;1.0427;
83430044080923;-4.2879;-0.2309;2.3506;
83430054186704;-4.8054;-0.4370;-3.9135;
83430064292434;-10.9857;-1.0143;-5.5977;
83430074391027;-12.4253;-0.7125;-1.3576;
83430084496809;-7.9723;-0.7268;0.4319;
83430094602538;-9.1579;-0.7795;-2.9459;
83430104726079;-11.1317;-0.8249;-1.3792;
83430114831757;-8.7509;-0.8584;0.6090;
83430124937538;-11.9103;0.0517;-3.3027;
83430135052902;-12.8901;-0.8656;-2.2845;
83430145158632;-5.7347;0.7705;-0.1214;
83430155264309;-5.3300;-0.0392;-4.0573;
83430165372538;-13.4076;-0.7507;-2.0764;
83430175478267;-12.0589;-1.9989;3.5605;
83430185583996;-11.3067;-1.5891;-1.2811;
83430195671079;-9.3209;-1.5102;-4.0932;
83430205776757;-12.2865;-1.1916;-0.4232;
83430215882538;-8.7027;-1.6250;-0.0999;
83430225984673;-7.3493;-0.5160;-6.2707;
83430236090454;-5.9551;-0.9927;-5.6312;
83430246196184;-8.6955;-1.5173;-4.9436;
83430256304986;-10.4348;-0.5973;-5.2047;
83430266410715;-8.4634;-1.4480;0.3936;
83430276516444;-7.0977;-2.0994;1.6944;
83430286622225;-10.6600;-0.8489;-4.9412;
83430296727902;-13.6472;-1.6490;-6.2563;
83430306833684;-8.9758;-0.2022;-1.2739;
83430316945767;-5.2508;1.0125;-2.3351;
83430327051444;-13.8485;0.4301;-6.8719;
83430337157173;-18.3589;0.5405;-0.3778;
83430347264882;-1.0086;2.2603;4.8996;
83430357370611;-2.7811;0.7442;-2.2152;
83430367476340;-13.8174;0.4445;-4.8431;
83430377594517;-11.2899;-2.0731;0.4534;
83430387700194;-7.9316;-0.1472;0.0870;
83430397805975;-7.9699;0.1020;-7.1596;
83430407880923;-9.2850;-0.8512;-5.9952;
83430417986652;-9.1196;-0.0057;-4.8287;
83430428092382;-9.7328;1.2446;-2.9435;
83430438226236;-8.9518;-0.2333;-1.6068;
83430448331965;-12.3966;1.6711;-5.6240;
83430458437694;-10.1234;1.3956;-4.7474;
83430468544413;-4.3573;0.3129;4.3340;
83430478650194;-5.0258;0.0159;1.6175;
83430488755923;-13.3095;-1.2395;-8.7790;
83430498829152;-16.2631;-0.6861;-2.7015;
83430508934882;-12.2049;-0.8130;3.0212;
83430519040663;-6.4319;-0.8082;-1.5733;
83430529160142;-7.4429;-1.5173;-3.1926;
83430539265871;-9.4908;-0.2955;-2.2534;
83430549371600;-12.7223;-1.0310;-3.1301;
83430559480663;-8.4344;-0.5734;-4.4309;
83430569586392;-10.2957;0.9547;-4.9101;
83430579692121;-7.0762;-1.4934;0.1373;
83430589799309;-7.0187;-1.8431;-0.6173;
83430599904986;-11.0288;-0.9832;-5.1855;
83430610010715;-9.8192;-1.0621;-2.5839;
83430620132329;-10.3463;-0.8010;-5.2502;
83430630238007;-8.3842;0.2961;-5.4251;
83430640343788;-5.7658;0.3440;-2.5098;
83430650440454;-12.0661;0.9093;-3.4059;
83430660546184;-10.0059;0.1714;-1.3983;
83430670651913;-8.9542;1.2206;-1.3720;
83430680764986;-8.0824;0.7008;-1.9349;
83430690870715;-7.7782;-0.9018;-2.3518;
83430700976444;-10.1737;-1.0621;-0.7588;
83430711062121;-12.5812;-0.1950;-1.8272;
83430721167850;-11.9489;-0.3123;-2.3471;
83430731273579;-3.9335;0.6242;-1.6570;
83430741380559;-8.7509;0.6147;-4.6298;
83430751486288;-11.0527;0.1092;-1.7838;
83430761592017;-9.9556;0.9476;0.3505;
83430771697329;-11.1102;0.2363;-3.2070;
83430781803059;-7.5984;0.3655;-1.6881;
83430791908788;-12.1522;0.8495;-0.9550;
83430802018059;-17.1494;-0.7005;0.9661;
83430812123788;-12.4469;0.5931;2.5376;
83430822229465;7.0068;-0.0176;-2.8092;
83430832331392;1.8278;0.7223;-12.6260;
83430842437121;-15.6930;-1.0502;-10.7169;
83430852542798;-19.9017;-2.8995;2.3961;
83430862669048;-16.2221;1.7764;6.7247;
83430872774725;-6.3120;0.8877;1.5003;
83430882880454;-3.8710;-0.3915;-6.3377;
83430892978788;-7.2105;1.3167;-5.7030;
83430903084517;-8.7652;0.5859;-1.7192;
83430913190194;-15.4846;0.3751;-6.6446;
83430923294413;-13.9681;0.7056;-4.9029;
83430933400142;-10.6122;2.6581;0.9757;
83430943505819;-6.3960;-0.5734;9.9108;
83430953621600;-2.7188;-0.9305;4.6911;
83430963727329;-10.5329;-1.7521;-9.9144;
83430973833007;-14.0279;-1.2849;-10.1707;
83430983917642;-9.6491;-0.9879;-4.3878;
83430994023371;-8.7075;-0.1400;-2.3157;
83431004129048;-9.3903;0.2387;-2.1673;
83431014233267;-9.3544;0.7585;-3.4537;
83431024338996;-9.0024;0.2578;-1.3193;
83431034444673;-8.9088;0.0182;-3.0009;
83431044558475;-12.0541;0.7992;-5.1425;
83431054664152;-8.9566;-0.4633;0.7911;
83431064769882;-8.2621;-0.4825;-0.3706;
83431074857069;-11.3689;0.0709;-3.0511;
83431084962798;-9.4741;-0.5399;-1.6594;
83431095068475;-7.6080;0.1427;-2.8116;
83431105185142;-7.4357;-1.4527;-2.6321;
83431115290871;-8.4873;-1.0286;-4.5054;
83431125396548;-10.8419;-0.6766;-6.5103;
83431135510663;-10.7222;-0.3242;-3.6814;
83431145616392;-7.8428;-0.0320;-1.6379;
83431155722069;-10.0923;-0.1017;-2.7733;
83431165824725;-10.2814;-0.3820;-0.2677;
83431175930454;-7.4357;-0.0224;-0.7684;
83431186036132;-10.2694;-0.1352;-3.0440;
83431196139934;-11.8887;-0.4083;-2.1147;
83431206245611;-12.1618;-0.2668;-0.8091;
83431216351340;-8.2884;-0.3891;1.7064;
83431226452746;-6.7337;-0.2381;-0.9909;
83431236558475;-11.7404;-0.1472;-4.5485;
83431246664152;-11.4458;-0.1663;-3.5447;
83431256745975;-8.9160;0.2148;-0.6437;
83431266851652;-7.0331;0.0852;-1.7408;
83431276957382;-7.6247;0.4062;-6.0912;
83431287075454;-11.1365;0.4974;-4.8144;
83431297181184;-9.6084;0.2124;-0.3156;
83431307286861;-12.4445;0.4373;-2.7948;
83431317430090;-11.2660;0.8638;-3.1974;
83431327535819;-5.7802;1.1154;-0.2103;
83431337641496;-8.2502;0.2483;-3.4537;
83431347744725;-9.4023;0.0206;-4.0406;
83431357850454;-8.7867;0.1427;-2.5911;
83431367956132;-11.5463;0.5142;-3.4083;
83431378039100;-10.4922;-1.1171;-1.1731;
83431388144829;-8.3794;-0.2812;-2.1458;
83431398250507;-7.6104;-0.8970;-1.8799;
83431408372746;-8.0130;-0.5877;-3.0990;
83431418478423;-7.8667;-0.9425;-4.2275;
83431428584152;-12.6242;-0.2453;-6.2850;
83431438665402;-11.8911;-0.2477;-3.5064;
83431448771132;-8.1470;0.2506;0.5396;
83431458876809;-7.6439;-0.8560;0.5109;
83431468986392;-7.1961;-0.4753;-0.9479;
83431479092121;-11.2158;-1.2610;-2.6608;
83431489197798;-11.2038;-1.2132;-2.6919;
83431499307486;-9.8934;-0.9616;-2.6752;
83431509413215;-8.4969;-1.8431;-1.1515;
83431519518892;-10.9953;-1.0190;-1.2329;
83431529621600;-11.7523;-1.5485;-0.2988;
83431539727329;-12.0972;-0.0416;-2.7589;
83431549833007;-11.1392;0.0685;-3.1591;
83431559952329;-6.8967;-0.1711;0.3984;
83431570058059;-2.4338;-0.5925;-2.8570;
83431580163736;-10.5616;-1.1557;-6.1176;
83431590254309;-14.7706;-2.0300;-3.0272;
83431600360038;-10.0609;-0.3628;-2.8956;
83431610465715;-4.9490;-0.4466;-3.6308;
83431620598267;-5.3779;-1.1028;-2.5863;
83431630703996;-10.8371;-0.3532;-5.5304;
83431640809673;-12.9045;-0.5518;-5.3103;
83431650907329;-8.3889;0.5668;-3.1567;
83431661013059;-6.9852;1.0747;-3.9497;
83431671118736;-9.9748;0.0757;-2.5552;
83431681226288;-11.4888;1.6639;0.0846;
83431691332017;-10.4276;-0.1496;3.1340;
83431701437694;-10.3053;-0.1926;0.5587;
83431711524621;-9.0957;0.5142;-4.8407;
83431721630350;-11.4482;-0.6837;-2.7039;
83431731736027;-10.7749;0.6027;1.2799;
83431741852746;-13.6256;0.7992;-0.9359;
83431751958475;-4.5060;0.4735;-3.1735;
83431762064152;-2.2158;0.6386;-4.3041;
83431772168267;-11.8002;-0.7412;-4.2969;
83431782273996;-13.9920;-1.7402;-1.3576;
83431792379673;-13.9322;0.4612;-0.5168;
83431802494100;-7.1363;0.1211;-0.7516;
83431812599829;-4.1898;0.4014;-4.3328;
83431822705559;-9.9054;0.7104;-6.2803;
83431832790975;-10.7342;-1.0382;-2.6967;
83431842896704;-11.5702;1.9896;-2.8669;
83431853002382;-9.5462;1.3717;-3.2716;
83431863127902;-9.6156;0.8901;-4.0789;
83431873233684;-5.3994;1.2159;2.4823;
83431883339413;-4.6543;-1.5317;1.3469;
83431893431079;-13.6113;0.1092;-8.2400;
83431903536809;-13.4267;-2.4443;-5.5977;
83431913642538;-6.8318;-0.3700;0.5037;
83431923765871;-6.7337;0.7008;-2.4739;
83431933871548;-8.0824;-0.6096;-4.7976;
83431943977329;-14.2627;-0.0296;-2.7230;
83431954069986;-13.4267;0.3368;1.4883;
83431964175767;-10.3268;0.0135;1.9481;
83431974281444;-7.3899;0.4110;-1.4916;
83431984372486;-7.0714;1.3143;-3.0607;
83431994478215;-8.5137;-0.7340;-0.3275;
83432004583944;-8.2549;-0.1998;-1.0893;
83432014698579;-8.7580;-1.8024;-4.5676;
83432024804309;-9.4382;-0.3556;-6.0239;
83432034909986;-10.4539;-0.8034;-4.3113;
83432044998423;-7.1602;0.3894;-2.5481;
83432055104204;-8.2789;-0.2668;-2.0883;
83432065209882;-13.4626;0.2387;-4.2491;
83432075350923;-10.2407;-0.1567;-2.4117;
83432085456704;-9.4860;1.8389;-3.2477;
83432095562382;-16.7228;1.2613;-1.5302;
83432105644673;-9.3090;-0.1759;5.6803;
83432115750402;-3.0063;0.9165;0.3721;
83432125856184;-9.7567;-0.7340;-5.3007;
83432135959517;-13.7213;-1.9415;-2.9913;
83432146065298;-8.4177;-1.0573;-1.1013;
83432156171027;-4.0866;-0.5016;-4.4142;
83432166286704;-4.5323;-1.9893;-5.6886;
83432176392434;-8.2669;-1.3256;-7.8374;
83432186498163;-14.3587;-1.2179;-7.5308;
83432196603371;-11.0408;-0.5662;-0.9718;
83432206709048;-4.4653;-0.2118;-0.8498;
83432216814777;-9.6132;0.7585;-5.2597;
83432226925715;-13.9346;0.1905;-2.8546;
83432237031444;-11.6925;0.3176;2.7772;
83432247137173;-9.2513;0.5333;1.8547;
83432257210559;-9.7759;0.4831;-1.1587;
83432267316288;-7.7207;-0.1974;-0.2055;
83432277421965;-10.8036;-0.9640;-0.0520;
83432287567486;-14.7754;-1.0956;1.1626;
83432297673215;-8.9734;-0.5471;-1.1779;
83432307778944;-3.1382;-0.6766;-4.5054;
83432317872121;-7.7901;-0.7220;-6.5868;
83432327977850;-10.0442;-0.3556;-5.8325;
83432338083527;-11.5295;-0.4729;-5.3462;
83432348197069;-10.6720;0.4950;-3.7125;
83432358302850;-6.8824;1.1249;-1.4342;
83432368408579;-6.7768;0.8662;-2.7972;
83432378507486;-8.5280;1.1058;-4.2419;
83432388613215;-11.6468;0.2794;-1.4007;
83432398718996;-9.8958;0.0972;-0.9837;
83432408821288;-7.4022;0.3296;-2.9435;
83432418927017;-11.7595;0.0135;-4.3256;
83432429032746;-11.7428;-0.2333;1.6080;
83432439144413;-9.6108;0.2770;0.5874;
83432449250142;-8.4658;0.8064;-3.5088;
83432459355871;-8.8633;-0.3748;-2.8259;
83432469451236;-8.2238;-0.4370;-1.4007;
83432479556965;-11.3498;-0.9305;-2.0644;
83432489662694;-10.7151;-0.2788;-2.3495;
83432499757590;-7.6271;-0.2548;-1.2787;
83432509863371;-7.0834;-0.3987;-3.6260;
83432519969100;-10.7557;-1.2514;-3.7196;
83432530081027;-10.8443;-0.6407;-0.9383;
83432540186809;-11.7428;0.0350;-3.1543;
83432550292538;-11.1030;0.9141;-2.7135;
83432560414934;-3.7729;0.7295;-0.2964;
83432570520663;-7.8643;-0.1161;-2.8932;
83432580626392;-15.6090;0.0900;-3.8154;
83432590730246;-10.6313;-0.6335;0.1828;
83432600835923;-7.3660;0.5261;-2.5792;
83432610941652;-7.7040;-0.6814;-3.0320;
83432621056913;-8.9877;-0.4107;-2.8283;
83432631162642;-9.6634;-1.6178;-4.3328;
83432641268371;-13.0627;-1.2945;-3.0942;
83432651359204;-11.2110;-0.0897;-3.1974;
83432661464934;-6.2737;-0.2381;-2.6967;
83432671570663;-6.3338;0.3703;-1.9205;
83432681678684;-14.4999;-1.4240;-1.4988;
83432691784413;-7.9122;0.6218;-2.2893;
83432701890142;-5.7323;-0.9616;-4.4237;
83432711981027;-5.5552;-0.0033;-3.6428;
83432722086809;-9.2201;-1.7234;-4.6131;
83432732192538;-13.6950;-0.5160;-4.5269;
83432742297590;-12.2746;-0.2620;-0.1071;
83432752403371;-6.4295;-0.0706;0.7504;
83432762509100;-3.3320;0.9021;-4.4886;
83432772623996;-9.7735;-0.0897;-5.7437;
83432782729673;-19.7868;-0.6861;0.9326;
83432792835454;-20.9318;1.0962;6.0039;
83432802949569;-6.0775;2.0303;0.9326;
83432813055246;0.6637;1.7501;-1.4270;
83432823160975;-5.6007;-1.3543;-3.0105;
83432833255871;-14.6004;-1.5748;-5.3844;
83432843361548;-11.5869;-0.7364;-2.8860;
83432853467277;-7.8571;0.2148;-2.8789;
83432863556288;-3.9646;-0.5351;-5.4371;
83432873661965;-7.5577;-0.4968;-5.6910;
83432883767694;-10.7414;-1.1844;-2.1003;
83432893884413;-6.9733;-0.6335;-2.2199;
83432903990090;-7.6367;0.7657;-9.9814;
83432914095819;-13.3573;0.7968;-10.6256;
83432924217017;-11.4793;0.6027;2.0106;
83432934322746;-7.3851;2.4138;3.2608;
83432944428423;-10.8395;0.6769;0.7744;
83432954540038;-14.1359;0.1570;1.2176;
83432964645715;-7.3373;-0.2022;1.6247;
83432974751444;-9.6491;0.0206;-0.3945;
83432984846809;-12.7104;-1.7641;-1.2835;
83432994952538;-8.2765;0.3009;-2.1960;
83433005058215;-8.8322;-1.1605;-3.1591;
83433015161079;-6.7552;-1.9220;-3.6045;
83433025266757;-7.4118;-0.6048;-6.4840;
83433035372486;-8.9351;-0.5949;-5.4826;
83433045497434;-11.1245;-0.6861;-4.3280;
83433055603111;-9.2369;-0.5231;-1.7360;
83433065708840;-7.9002;-0.9353;-1.8176;
83433075816288;-9.7902;0.5692;-4.3687;
83433085921965;-8.4344;0.2698;-1.0128;
83433096027694;-3.5333;0.2985;-2.3877;
83433106102434;-10.1019;1.1584;-7.5882;
83433116208111;-13.5177;-0.8850;-2.6608;
83433126313840;-16.9840;0.1164;2.0465;
83433136437329;-17.4344;0.4854;2.8011;
83433146543007;-3.7968;0.9547;2.8250;
83433156648736;-4.0484;0.2124;-2.4835;
83433166728163;-6.5396;-0.8249;-5.3462;
83433176833840;-10.5640;-1.2299;-6.2157;
83433186939569;-14.0255;-0.9879;-5.0348;
83433197065246;-6.9517;-1.2610;-0.6197;
83433207170923;-5.7419;-0.7555;-2.1984;
83433217276652;-7.3038;-1.7043;-3.0942;
83433227369309;-6.6643;-2.0324;-2.5600;
83433237474986;-8.6094;-0.6455;-7.3487;
83433247580715;-12.6697;0.3081;-9.1789;
83433257682642;-11.4577;1.7261;-4.4213;
83433267788319;-9.8288;2.0686;1.3732;
83433277894048;-14.0542;1.4506;3.4023;
83433288009934;-9.2731;2.5502;4.5640;
83433298115611;-7.6152;0.1881;0.4247;
83433308221340;-12.4517;-0.6550;-2.8717;
83433318344100;-10.4611;-1.7306;0.3505;
83433328449777;-9.7591;0.0302;-1.3744;
83433338555507;-15.4223;-1.0980;-3.6718;
83433348641913;-9.1843;-0.1591;-1.0056;
83433358747642;-1.8757;0.0709;-2.4906;
83433368853319;-3.1238;-0.4705;-7.4638;
83433378951392;-6.7193;-0.8536;-8.5705;
83433389057069;-11.4048;-0.8489;-9.3371;
83433399162798;-13.1321;-1.0430;-5.4993;
83433409280975;-7.6367;-0.9257;0.0269;
83433419386652;-7.8332;0.0924;-3.0105;
83433429492382;-10.1354;0.3344;-4.0262;
83433439603736;-11.3809;0.7319;-0.6843;
83433449709465;-11.5199;1.7501;-0.2988;
83433459815142;-10.6457;0.8566;-0.5240;
83433469918684;-11.0647;0.5070;-0.1765;
83433480024361;-13.7620;0.8758;2.6644;
83433490130090;-8.8872;-0.1663;4.0513;
83433500222329;-5.1191;-1.3831;1.2416;
83433510328059;-7.2727;-1.2849;-7.2960;
83433520433736;-8.8705;-2.8325;-6.0984;
83433530538996;-6.5587;-2.0420;-6.8169;
83433540644725;-10.5832;-1.5652;-8.4266;
83433550750402;-8.4945;-1.1509;-3.5112;
83433560875975;-8.8561;-0.7986;-1.7575;
83433570981652;-13.3884;0.9619;-2.1960;
83433581087382;-9.3401;0.6218;-0.4448;
83433591192746;-7.5003;1.3549;-0.7875;
83433601298423;-8.0441;1.2230;-4.7641;
83433611404152;-8.3411;0.7295;-3.1014;
83433621485038;-11.0504;0.1092;-1.0606;
83433631590767;-15.2498;-0.3963;1.4381;
83433641696444;-9.2850;0.2291;1.5625;
83433651818163;-5.2869;-0.0464;-1.4414;
83433661923840;-7.0307;-0.2764;-3.5160;
83433672029569;-10.3606;-1.3759;-3.8512;
83433682130246;-13.7596;0.1977;-5.5280;
83433692235923;-14.3516;-0.4083;-4.2514;
83433702341652;-5.5720;-0.0535;0.3912;
83433712468996;-4.1800;0.2219;-2.8164;
83433722574673;-11.6300;-0.2716;-4.4333;
83433732680402;-13.3860;-1.0813;-0.0257;
83433742763892;-8.0417;-0.1017;-0.8282;
83433752869569;-6.7505;-0.3051;-4.4453;
83433762975298;-8.1805;-0.3075;-2.6465;
83433773086704;-11.4000;-0.1376;-1.5179;
83433783192382;-11.7667;-0.4298;-1.5661;
83433793298111;-7.5290;0.8231;-1.9828;
83433803401392;-8.5950;0.0278;-5.9952;
83433813507069;-10.1330;0.2387;-5.2167;
83433823612746;-11.4000;-0.2668;-2.0067;
83433833722434;-6.2593;-0.1831;-0.7612;
83433843828111;-7.1435;0.0661;-4.6155;
83433853933788;-12.2267;-1.0214;-3.2859;
83433864049725;-11.3665;-1.0980;0.5659;
83433874155402;-10.2550;-0.2046;-0.5838;
83433884261079;-10.1521;-0.6694;-1.1061;
83433894347225;-7.9412;-0.3123;-0.3156;
83433904452902;-8.5304;-0.3290;-3.1950;
83433914558579;-9.1843;-0.0849;-5.8516;
83433924684100;-8.2837;-0.0607;-4.1195;
83433934789777;-8.7027;-0.3194;-3.3721;
83433944895454;-10.8371;-0.7603;-2.7781;
83433954992434;-9.0431;-0.7579;0.5587;
83433965098111;-8.2454;-1.6466;0.6595;
83433975203788;-10.3630;0.5309;-3.7460;
83433985304309;-11.2493;-0.4825;-4.1483;
83433995409986;-9.1771;0.8566;-0.6700;
83434005515663;-10.2550;0.2124;-2.7972;
83434015616913;-10.9307;0.4902;-3.3027;
83434025722590;-9.2034;0.4807;-1.0822;
83434035828267;-10.5616;-0.1376;-0.1765;
83434045931496;-7.8930;-0.2740;-1.5996;
83434056037173;-8.9686;-0.4681;-1.1061;
83434066142850;-9.9197;-0.9473;-3.0153;
83434076282225;-8.2023;-0.3748;-3.9401;
83434086387902;-9.4478;-0.5925;-4.8550;
83434096493579;-9.0024;-0.7340;-2.9339;
83434106563059;-10.6146;0.4807;-4.3519;
83434116668736;-7.7375;-0.4801;-3.5758;
83434126774361;-9.7519;0.2100;-4.6801;
83434136901965;-15.0102;0.2483;-2.1745;
83434147007694;-8.5950;-0.1424;2.0154;
83434157113371;-8.3554;1.1776;0.1277;
83434167198215;-13.4387;-0.4274;-1.0965;
83434177303892;-12.5979;0.8638;-0.4496;
83434187409569;-3.8638;-0.0535;-0.7493;
83434197527642;-0.2515;-0.2381;-3.5136;
83434207633319;-8.0106;-1.2945;-9.5405;
83434217738996;-15.2713;-2.4156;-7.2864;
83434227841600;-13.1848;-2.1066;-1.5637;
83434237947277;-7.8643;0.2698;-1.8416;
83434248052954;-4.6256;0.2148;-2.9435;
83434258152225;-9.0168;0.0517;-4.1435;
83434268257902;-11.4242;0.2291;-1.6762;
83434278363579;-12.5620;0.8136;-1.5637;
83434288469725;-12.8614;1.2254;-1.9014;
83434298575402;-10.2718;2.0495;-0.6221;
83434308681079;-8.3602;0.0781;3.5219;
83434318785142;-6.4702;-0.8393;3.1460;
83434328890819;-6.7983;-0.6383;-2.9818;
83434338996496;-13.4483;-1.4623;-7.6505;
83434349099569;-10.4468;-0.6502;-4.1339;
83434359205246;-8.5519;-0.7962;-0.8426;
83434369310923;-11.1488;0.7394;-3.3649;
83434379447329;-9.4908;0.2985;-4.4692;
83434389553007;-8.5089;0.7705;-2.2223;
83434399658684;-6.5563;0.6601;-2.9435;
83434409754934;-8.0632;0.2841;-6.7786;
83434419860611;-9.8575;0.2961;-3.5853;
83434429966288;-8.8202;0.1810;-1.8081;
83434440077225;-9.5366;-0.1328;-1.6331;
83434450182902;-8.2789;-0.3508;0.4343;
83434460288579;-9.4813;-0.1543;-2.2798;
83434470382017;-10.0250;0.0805;-2.0907;
83434480487694;-6.3793;0.5501;-4.6466;
83434490593371;-8.2741;1.0842;-6.3500;
83434500691392;-10.2191;-0.3218;-3.5853;
83434510797069;-13.7907;0.5620;-1.7384;
83434520902746;-18.2848;0.0709;2.0728;
83434531005246;-9.7591;0.9858;5.4215;
83434541110923;-4.1776;0.8351;0.9230;
83434551216600;-7.4094;-0.6072;-3.2046;
83434561325767;-11.0695;-1.2323;-2.3925;
83434571431444;-12.2219;0.0015;-2.7422;
83434581537121;-6.5755;-0.5542;-2.4715;
83434591657329;-6.6906;-0.0224;-4.1291;
83434601763007;-12.2507;-0.9042;-3.3458;
83434611868684;-7.0690;-1.2802;-1.7216;
83434621979204;-7.3612;-0.3700;-5.6145;
83434632084882;-9.5195;-0.0969;-8.4386;
83434642190559;-12.5620;0.7152;-6.6733;
83434652283684;-12.1044;0.2076;-0.7804;
83434662389361;-7.6199;1.6711;1.8811;
83434672495038;-9.7184;1.2063;-0.7564;
83434682606184;-9.0191;0.1259;-1.2787;
83434692711861;-10.0226;-0.5614;-0.4905;
83434702817538;-9.0287;-1.2730;-1.0989;
83434712914934;-9.4167;-1.0430;-2.7278;
83434723020611;-11.0480;-0.7962;-5.3270;
83434733126288;-10.2383;-1.4647;-2.3375;
83434743235038;-7.7040;-0.9975;-0.6006;
83434753340715;-10.2694;-0.6526;-4.0502;
83434763446392;-9.2201;-0.5423;-2.8140;
83434773551079;-9.2489;-0.1113;-2.9506;
83434783656757;-8.6118;0.1355;-2.6824;
83434793762434;-6.6954;0.2100;-3.3290;
83434803864934;-10.0875;-0.8946;-2.5696;
83434813970611;-10.3941;-0.9999;-0.9936;
83434824076288;-8.6477;-0.0921;-2.3518;
83434834193892;-9.1484;-0.5399;-3.4035;
83434844299569;-9.7711;0.0182;-1.8057;
83434854405246;-10.1521;-0.6742;-1.3050;
83434864467486;-10.7103;0.4759;-1.7767;
83434874573163;-7.0570;0.1977;-3.0464;
83434884678840;-9.3449;0.3296;-3.0535;
83434894784517;-12.2339;-0.7077;-1.3217;
83434904914152;-12.7128;0.0541;-1.7695;
83434915019777;-8.4634;-0.4418;0.5252;
83434925125507;-11.5702;0.0996;-2.6752;
83434935232954;-11.4362;-0.2070;-2.1147;
83434945338632;-5.6940;-0.5255;0.0652;
83434955444309;-8.7317;-0.4083;-2.4882;
83434965549829;-14.3082;-0.2500;-3.0583;
83434975655507;-8.4272;-0.2835;-2.2295;
83434985761184;-5.8618;0.2195;-4.3113;
83434995866392;-6.0054;-0.9784;-2.4476;
83435005972069;-8.0560;-1.1339;-5.9306;
83435016077746;-10.1617;-0.5830;-6.7953;
83435026178736;-9.6730;-1.1100;-4.0621;
83435036284413;-10.1402;0.3655;-4.0741;
83435046390090;-12.4397;0.5931;-2.2582;
83435056505767;-9.6371;0.7753;0.9517;
83435066611444;-10.1450;1.4100;1.4333;
83435076717121;-7.8260;0.3368;-1.2185;
83435086823319;-9.8791;0.7944;-4.4886;
83435096929048;-11.3498;-0.7555;-1.0822;
83435107034725;-9.6897;-0.1448;0.8895;
83435117130767;-9.1890;-1.0286;-2.4882;
83435127236444;-7.9675;-0.4872;-3.6308;
83435137342121;-6.4989;-1.5939;-3.3649;
83435147485559;-9.2010;-1.3831;-3.8967;
83435157591236;-9.5892;-0.3194;-4.3208;
83435167696913;-9.6873;0.1810;-4.6777;
83435177752538;-10.1330;0.3727;-2.7517;
83435187858215;-10.6863;1.3884;-1.9014;
83435197963892;-10.9235;0.5883;-0.5767;
83435208107746;-12.5644;1.1847;0.4223;
83435218213423;-10.2479;1.1776;0.6066;
83435228319100;-8.6740;1.2999;-2.2941;
83435238427329;-13.0196;-0.0778;-1.6570;
83435248533007;-10.4276;0.7008;1.6630;
83435258638684;-8.2406;0.2076;-1.2066;
83435268726079;-4.2353;-0.7077;-3.9039;
83435278831757;-3.3945;-0.6742;-7.5188;
83435288937434;-7.9340;-2.2289;-7.9068;
83435299042850;-5.9599;-1.7115;-7.9451;
83435309148527;-7.4620;-1.8550;-8.9991;
83435319254204;-9.9963;-1.1677;-5.4682;
83435329353892;-10.4372;0.5142;-4.3161;
83435339459569;-13.1345;1.0675;0.1516;
83435349565246;-12.9954;1.0316;5.0599;
83435359688892;-9.8910;2.5334;2.4153;
83435369794569;-7.1121;2.8448;-2.5839;
83435379900246;-4.4509;1.8027;-3.1711;
83435389999517;-5.4592;-0.5901;-0.4666;
83435400105194;-12.6003;-1.6059;0.7457;
83435410210871;-23.7754;-1.4264;2.3435;
83435420309621;-19.0202;-1.3687;8.6148;
83435430415298;-4.6591;0.7056;3.1244;
83435440520975;-8.4802;0.3535;-7.8135;
83435450632329;-10.5305;0.0996;-4.5197;
83435460738007;-6.4558;0.1164;-0.2749;
83435470843684;-7.7758;0.5046;-8.0626;
83435480947225;-7.5936;1.1058;-8.8531;
83435491052902;-6.7576;-0.9138;-3.7244;
83435501158579;-6.9350;-1.1988;-1.3959;
83435511311392;-3.6147;-1.9172;-2.2798;
83435521417069;-8.2525;-1.8407;-8.3524;
83435531522746;-15.2234;-0.6885;-12.6858;
83435541566392;-14.9480;0.8614;-5.9282;
83435551672069;-9.4047;2.5980;-0.5456;
83435561777746;-8.0871;4.5171;-1.6331;
83435571906392;-6.6619;2.5334;-0.5623;
83435582012069;-11.6013;1.1225;1.9433;
83435592117746;-11.8002;-1.0214;2.7362;
83435602195350;-8.9949;-0.5949;1.4883;
83435612301027;-10.4468;-2.2433;-0.8139;
83435622406704;-10.2526;-3.3667;2.3052;
83435632530454;-6.9087;-3.4050;-0.2198;
83435642636132;-9.1890;-1.2156;-8.3931;
83435652741809;-11.5415;-1.0525;-7.4423;
83435662848163;-9.0239;-0.0897;-2.9674;
83435672953840;-7.4405;0.8997;-3.7125;
83435683059517;-7.8452;1.1441;-4.6418;
83435693166704;-9.5557;-0.1759;0.0942;
83435703272382;-11.0910;-0.6646;-0.7325;
83435713378059;-9.0359;-0.5231;-1.4438;
83435723494204;-8.8107;-0.3867;-2.1290;
83435733599882;-10.7462;-0.0535;-4.6131;
83435743705559;-10.5784;-0.3604;-1.9732;
83435753786600;-11.1870;-0.1615;-0.1430;
83435763892277;-7.0020;-0.2429;-0.8713;
83435773997954;-6.7122;0.2889;-3.7340;
83435784115038;-9.1843;-0.1639;-5.5762;
83435794220715;-9.4047;-0.8154;-3.7412;
83435804326392;-7.1267;-2.3318;-2.7996;
83435814436392;-7.4668;-1.2251;-6.7044;
83435824542069;-13.8174;-1.8885;-5.5786;
83435834647746;-12.2363;-1.3328;1.7542;
83435844740871;-10.4468;-0.0440;1.1288;
83435854846548;-10.5090;1.2736;-0.3084;
83435864952277;-9.2345;0.6051;-0.0784;
83435875065663;-7.2703;0.9739;-2.1984;
83435885171340;-9.4430;0.1068;-2.5624;
83435895277017;-8.9925;-0.8584;-1.7240;
83435905377902;-8.8155;-0.2524;-1.7216;
83435915483579;-11.3163;-0.7842;-2.2750;
83435925589257;-11.4649;-0.6742;-1.0678;
