Sensor: bmi160 Accelerometer Non-wakeup
Vendor: BOSCH
TimestampAcc [ns]; AccX [m/s^2]; AccY [m/s^2]; AccZ [m/s^2]
80698681373224;-9.3281;2.3779;-1.8200;
80698691495620;-9.2656;2.3659;-1.7815;
80698701606037;-9.1388;2.3803;-1.8129;
80698711700777;-9.2898;2.3874;-1.8488;
80698721827443;-9.4837;2.3273;-1.7503;
80698731922183;-9.4071;2.3539;-1.5900;
80698742070099;-9.3879;2.4114;-1.6044;
80698752165360;-9.5414;2.3731;-1.5733;
80698762263641;-9.4693;2.3468;-1.4605;
80698772361714;-9.2898;2.3563;-1.4318;
80698782472547;-9.3377;2.3539;-1.5446;
80698792571714;-9.5821;2.3201;-1.6020;
80698802655985;-9.7759;2.2699;-1.4486;
80698812790620;-9.7113;2.2890;-1.2377;
80698822888120;-9.5701;2.3345;-1.1898;
80698832992808;-9.5414;2.2795;-1.1898;
80698843096037;-9.5291;2.2268;-1.0965;
80698853201662;-9.3473;2.3154;-1.1228;
80698863308172;-9.2584;2.3201;-1.3146;
80698873414891;-9.3975;2.3249;-1.5589;
80698883519995;-9.5195;2.3201;-1.7360;
80698893625933;-9.4310;2.3683;-1.7336;
80698903734422;-9.3185;2.3898;-1.6810;
80698913843745;-9.3784;2.3201;-1.6092;
80698923957860;-9.4454;2.2555;-1.4174;
80698934046349;-9.4023;2.2866;-1.2930;
80698944148849;-9.4789;2.3444;-1.4318;
80698954257912;-9.6012;2.3225;-1.5326;
80698964361662;-9.4980;2.3321;-1.5108;
80698974469162;-9.2082;2.3225;-1.4390;
80698984575829;-9.0885;2.3417;-1.5709;
80698994683589;-9.1579;2.3297;-1.7073;
80699004790256;-9.2632;2.3225;-1.8488;
80699014892756;-9.4143;2.2531;-1.9038;
80699024993745;-9.4310;2.2196;-1.7623;
80699035097704;-9.4406;2.2172;-1.5179;
80699045203641;-9.4334;2.2101;-1.3265;
80699055311662;-9.3832;2.2723;-1.3217;
80699065417495;-9.4860;2.2555;-1.5227;
80699075521870;-9.5148;2.2340;-1.6092;
80699085628537;-9.4502;2.2555;-1.6786;
80699095739579;-9.4071;2.3034;-1.7240;
80699105835881;-9.3329;2.3321;-1.6451;
80699115949422;-9.2178;2.3922;-1.5278;
80699126054579;-9.2249;2.4544;-1.4964;
80699136157495;-9.4262;2.4736;-1.5374;
80699146260308;-9.5725;2.5310;-1.5541;
80699156363537;-9.5124;2.5956;-1.5326;
80699166473329;-9.3425;2.7132;-1.4749;
80699176578329;-9.2779;2.7778;-1.4629;
80699186682912;-9.2513;2.7921;-1.4773;
80699196779995;-9.1579;2.7897;-1.5350;
80699206918016;-9.1771;2.8137;-1.6905;
80699216997079;-9.2850;2.7897;-1.8320;
80699227097808;-9.3640;2.7347;-1.8488;
80699237203537;-9.2850;2.6103;-1.6594;
80699247309735;-9.2683;2.5717;-1.5924;
80699257445308;-9.3640;2.5047;-1.5685;
80699267548068;-9.4645;2.4090;-1.6020;
80699277626297;-9.3138;2.3492;-1.7336;
80699287737027;-9.1101;2.3321;-1.9899;
80699297858224;-9.1125;2.2555;-2.2247;
80699307954214;-9.1268;2.2531;-2.2941;
80699318050099;-9.2850;2.3082;-2.2845;
80699328179735;-9.3185;2.3201;-2.1721;
80699338258902;-9.2850;2.2603;-2.1123;
80699348363693;-9.3329;2.1622;-2.1338;
80699358478797;-9.3520;2.0734;-1.8440;
80699368600516;-9.1890;2.2053;-1.5036;
80699378684943;-8.9782;2.4903;-1.5494;
80699388795620;-9.0550;3.0772;-2.2343;
80699398886349;-9.3257;3.5300;-2.9578;
80699408992391;-9.7137;2.8881;-2.3375;
80699419106870;-9.8839;2.6844;-1.5203;
80699429221662;-9.4167;3.0915;-1.3528;
80699439321037;-8.8011;3.1516;-0.8186;
80699449443745;-8.7532;3.3670;-1.2209;
80699459553589;-9.1340;3.3861;-1.7408;
80699469635829;-9.6108;3.2043;-1.7719;
80699479744787;-9.4023;3.4415;-1.9277;
80699489824995;-9.1220;3.6401;-2.1242;
80699499949422;-9.3114;3.7002;-2.4069;
80699510047704;-9.1843;3.6018;-1.9756;
80699520158433;-8.9207;3.6305;-1.3528;
80699530271402;-9.2154;3.5994;-1.0415;
80699540377183;-9.3664;3.5994;-1.0271;
80699550491766;-9.1938;3.6353;-1.2090;
80699560587495;-8.9686;3.4439;-1.3696;
80699570722235;-9.4286;3.4101;-1.8153;
80699580798016;-10.1019;3.0485;-1.9469;
80699590904579;-9.7089;2.2101;-1.0654;
80699601008329;-9.5148;1.6280;-0.4472;
80699611131297;-9.7543;1.7070;-0.8115;
80699621220516;-9.2345;1.8700;-1.1204;
80699631322912;-8.5232;2.0399;-1.3839;
80699641425516;-7.5171;3.8940;-4.9005;
80699651553433;-8.9112;4.5051;-4.7064;
80699661638433;-10.0155;1.9035;-2.2463;
80699671746506;-10.5018;1.8173;-0.6963;
80699681853120;-10.3439;2.3444;-1.1755;
80699691950412;-9.7017;1.9896;-0.0568;
80699702085464;-9.2827;1.1919;1.0977;
80699712170829;-9.7639;1.7907;-0.1525;
80699722301558;-9.9700;2.5908;-2.0521;
80699732379370;-9.7424;2.8759;-2.7996;
80699742482495;-9.5557;2.7849;-2.8259;
80699752590724;-8.8801;2.6916;-2.2510;
80699762696870;-8.0824;2.8834;-1.7312;
80699772798954;-7.7495;3.2402;-1.8248;
80699782907339;-8.5328;3.5348;-2.4428;
80699793012808;-9.7113;3.3766;-2.9195;
80699803124995;-10.1330;2.8953;-2.4476;
80699813228433;-9.9652;2.4162;-1.3863;
80699823331870;-9.7998;2.3492;-0.5599;
80699833440412;-9.0646;2.3297;-0.2031;
80699843543849;-8.6094;2.4736;-0.9670;
80699853647235;-8.4706;3.0078;-2.5337;
80699863757495;-8.3315;3.1684;-3.6933;
80699873860933;-9.1484;2.7299;-3.7819;
80699883964318;-10.4587;2.3369;-3.1376;
80699894071454;-10.3846;2.0160;-1.8918;
80699904174891;-9.9461;1.9968;-1.3241;
80699914278277;-9.4669;2.2866;-1.6427;
80699924409058;-8.6453;2.2029;-1.6594;
80699934512495;-8.8418;2.2507;-2.1984;
80699944615881;-9.7974;2.5143;-2.8475;
80699954701297;-10.1210;2.0904;-2.1170;
80699964804683;-9.9221;1.7764;-2.0764;
80699974908120;-9.6586;2.1168;-3.4896;
80699985022860;-8.7341;2.5478;-3.7890;
80699995126245;-7.6872;2.2890;-2.7781;
80700005229683;-7.4070;2.2149;-2.5002;
80700015343954;-7.1363;2.4855;-2.9339;
80700025447391;-7.1507;2.9384;-3.1663;
80700035550777;-8.5208;3.9948;-4.3854;
80700045654631;-10.3654;5.2956;-6.2683;
80700055758016;-11.1942;5.4248;-6.4313;
80700065861402;-10.7533;3.9203;-5.3940;
80700075969422;-8.9638;2.5597;-3.1253;
80700086072808;-6.8390;2.7347;-0.3467;
80700096176245;-6.5085;3.8797;-0.4376;
80700106285047;-8.1876;4.9552;-2.9172;
80700116388433;-9.9748;5.7649;-5.9785;
80700126491818;-9.7161;5.4966;-6.4122;
80700136609891;-8.4802;4.4931;-4.9101;
80700146713329;-8.3913;4.1192;-4.6155;
80700156816766;-7.8284;3.9203;-3.0057;
80700166924995;-7.1097;3.6520;-1.5709;
80700177028433;-8.2765;4.7853;-3.8321;
80700187131870;-8.5280;4.8619;-5.2693;
80700197233902;-7.2392;3.8390;-5.0539;
80700207337287;-8.4464;3.1083;-5.5232;
80700217440724;-8.9399;2.7849;-4.6753;
80700227611766;-7.3349;1.5826;-2.5696;
80700237715204;-7.3038;0.1044;-1.6762;
80700247818589;-7.2057;-0.7388;-0.9766;
80700257876089;-8.8298;-1.4791;-2.1458;
80700267979474;-13.6831;-0.7077;-7.1524;
80700278082912;-14.0976;-0.0897;-7.6122;
80700288229006;-10.6505;-0.1113;-4.5006;
80700298332443;-6.4654;0.1834;-1.2377;
80700308435829;-5.6079;-0.6670;-2.0330;
80700318509266;-11.4386;-1.2179;-4.0525;
80700328612704;-10.7151;-1.7617;-2.3204;
80700338716089;-9.0383;-2.3964;-2.2654;
80700348831974;-11.2373;-1.4145;-3.2620;
80700358935412;-9.9006;-1.1315;-2.3013;
80700369038849;-9.7161;-1.8072;-2.5217;
80700379140829;-8.9351;-2.5451;-1.9181;
80700389244266;-8.6142;-2.9593;-2.3997;
80700399347704;-9.5052;-3.2830;-3.3003;
80700409479631;-10.1258;-2.9689;-2.8403;
80700419583016;-9.5124;-2.5235;-3.0631;
80700429686402;-9.3497;-1.8694;-2.9937;
80700439775881;-9.1627;-1.9439;-2.9435;
80700449879318;-8.8633;-2.2624;-3.8847;
80700459982756;-9.3688;-2.2576;-4.0789;
80700470089631;-9.7567;-1.9077;-4.3543;
80700480193016;-9.5172;-1.2132;-3.8680;
80700490296402;-8.7556;-0.5231;-2.4930;
80700500405881;-7.8835;-0.3532;-2.7374;
80700510509266;-9.4621;-0.0897;-4.1028;
80700520612652;-9.4143;0.2865;-3.1301;
80700530706922;-9.3473;0.1570;-3.0966;
80700540810308;-10.0298;0.6123;-4.6777;
80700550913693;-9.1675;1.1369;-5.4299;
80700561053224;-9.2465;1.0651;-4.2084;
80700571156662;-8.5304;0.6888;-4.2251;
80700581260047;-9.9939;0.5644;-6.3209;
80700591353745;-10.5736;0.5213;-5.0898;
80700601457183;-8.8394;0.2315;-2.4236;
80700611560568;-8.1733;0.9093;-3.3888;
80700621677131;-8.7580;0.8471;-4.7064;
80700631780568;-8.7389;0.8997;-3.6571;
80700641883954;-8.3746;0.6434;-2.5816;
80700651982131;-8.2597;0.3631;-3.8560;
80700662085516;-8.8992;0.5046;-6.8480;
80700672188902;-10.6863;0.4062;-7.6792;
80700682302547;-9.6036;-0.3628;-3.9111;
80700692405933;-7.7997;0.4807;-5.7915;
80700702509318;-8.3195;1.8700;-8.2280;
80700712614006;-8.0369;1.5897;-5.7365;
80700722717391;-7.0881;1.1728;-5.8756;
80700732820829;-6.4582;1.1680;-5.1425;
80700742938016;-6.9637;1.1058;-5.2382;
80700753041402;-10.4133;0.5620;-7.0588;
80700763144787;-9.1819;0.8518;-5.2911;
80700773255620;-8.1805;1.3932;-7.5667;
80700783359058;-11.6782;0.2195;-8.3859;
80700793462495;-11.3043;0.5070;-2.4787;
80700803588797;-5.3444;0.4636;3.0431;
80700813694006;-3.3320;-0.6096;1.5505;
80700823799266;-4.4387;0.5835;-1.5446;
80700833883849;-7.1097;1.4124;-4.5987;
80700843989058;-11.3306;0.9643;-5.2597;
80700854094318;-13.6256;0.6769;-5.1305;
80700864208224;-14.8448;1.5200;-5.2143;
80700874313433;-11.8552;1.2206;-3.8321;
80700884418693;-2.2181;0.6888;0.4798;
80700894529787;-3.1573;1.8051;-1.6379;
80700904634995;-10.3702;0.8351;-8.8316;
80700914740256;-14.5741;-1.8957;-7.2482;
80700924837808;-13.5416;-1.5221;-2.6512;
80700934943016;-10.4061;-1.8144;-0.9191;
80700945048277;-8.3411;-0.7890;-0.0927;
80700955155204;-6.4319;0.2435;-0.4594;
80700965260412;-9.0694;0.4783;-1.4198;
80700975365672;-7.5434;1.2135;-1.0199;
80700985470516;-6.2210;1.3119;-3.0894;
80700995575724;-10.6624;0.4735;-6.1869;
80701005680985;-10.0370;-0.4178;-6.2300;
80701015789683;-8.9614;-0.5542;-7.0038;
80701025894891;-12.1068;-1.0717;-6.8025;
80701036000152;-10.0875;-1.1653;-4.1650;
80701046080516;-5.8905;-0.4274;-3.9568;
80701056185724;-7.9265;-0.9664;-5.1281;
80701066290933;-9.5605;-0.7531;-2.6824;
80701076396193;-7.6705;-0.5112;-4.1602;
80701086524579;-13.9179;-0.4011;-4.6322;
80701096629787;-11.7212;-0.0272;-0.6532;
80701106735047;-8.6381;0.3176;-2.9746;
80701116865829;-10.9235;0.5931;-3.6332;
80701126971037;-8.0728;0.4588;-2.6225;
80701137076297;-12.4469;0.2626;-4.8000;
80701147156558;-10.2622;-0.2955;-2.3901;
80701157261766;-5.0761;0.6649;-3.3840;
80701167367027;-6.8824;1.3382;-5.1449;
80701177489943;-9.7089;0.9117;-3.3194;
80701187595204;-8.3387;1.0675;-2.6847;
80701197700464;-8.5496;0.6242;-3.4298;
80701207783849;-9.2465;-0.0153;-3.1974;
80701217889058;-9.1795;-0.1113;-2.8765;
80701227994318;-9.2656;0.4493;-4.0262;
80701238123485;-9.3688;0.8830;-3.4059;
80701248228745;-9.4406;0.2243;-3.5590;
80701258334006;-9.3281;0.4854;-3.5088;
80701268434266;-10.8395;-0.3485;-3.0966;
80701278539474;-9.7615;-0.2022;-4.5796;
80701288644735;-9.0096;-0.2859;-4.3137;
80701298763954;-9.7878;-0.2524;-4.7689;
80701308869162;-9.4549;-0.1759;-3.0631;
80701318974422;-7.3062;-0.8177;-2.9267;
80701329069891;-7.1025;-0.3796;-4.5843;
80701339175099;-9.3090;-1.3161;-5.0034;
80701349280360;-9.5725;-0.8321;-5.5352;
80701359386141;-10.3196;-1.7091;-4.2060;
80701369491349;-7.3899;-1.2562;-2.6106;
80701379596610;-7.1842;-1.1195;-2.4739;
80701389699995;-8.7820;-1.4169;-1.5012;
80701399805204;-8.1422;-0.9927;-1.2042;
80701409910412;-10.0708;-0.4729;-4.0837;
80701419996870;-10.2838;-1.4192;-3.6694;
80701430102079;-9.5148;-1.1533;-4.9866;
80701440207339;-11.1512;-0.0826;-6.4433;
80701450347547;-11.4386;-0.9784;-5.4108;
80701460452808;-8.2693;-0.8803;-4.4910;
80701470558068;-7.2846;-0.1089;-4.3232;
80701480662391;-9.0479;0.0948;-4.4333;
80701490767599;-6.3386;-0.1113;-3.1831;
80701500872860;-5.0545;-0.4537;-4.9890;
80701510956870;-12.3392;-0.5830;-6.1941;
80701521062079;-10.2359;0.6290;-3.8010;
80701531167339;-8.1206;0.8040;-4.8120;
80701541273849;-8.2645;0.4540;-5.7245;
80701551379058;-8.7194;-0.1998;-6.3476;
80701561484318;-9.1914;-0.7172;-7.4710;
80701571616037;-8.8992;-0.0511;-6.8623;
80701581721245;-9.9437;0.5931;-7.7776;
80701591826506;-9.8408;1.4506;-4.9364;
80701601915881;-7.4740;1.4291;-2.5313;
80701612021089;-8.6859;1.9944;-4.4166;
80701622126349;-9.9580;1.9777;-2.8331;
80701632232495;-9.1220;2.0088;-0.9502;
80701642337704;-10.9594;2.0952;-1.5613;
80701652442964;-11.1221;1.5538;-1.3169;
80701662546558;-8.2717;2.9791;-0.1430;
80701672651766;-5.7658;2.3225;-2.5337;
80701682757027;-8.2262;1.5969;-5.4778;
80701692870724;-8.4945;2.3130;-5.2334;
80701702975933;-8.6620;1.7907;-5.2047;
80701713081193;-7.5912;1.1154;-4.8311;
80701723197079;-7.5410;1.2808;-6.2779;
80701733302287;-10.2287;1.0053;-7.8685;
80701743407547;-10.2670;0.9715;-4.0645;
80701753504370;-7.6920;0.3583;-2.7470;
80701763609579;-8.1517;0.2889;-3.8273;
80701773708954;-12.9236;0.9284;-1.7985;
80701783814162;-10.0083;0.6434;1.6896;
80701793919422;-7.4357;-0.8249;-0.2438;
80701804032079;-9.4167;-0.2309;-5.5352;
80701814137287;-11.7332;0.4926;-5.4969;
80701824242547;-11.9055;-0.5279;-2.4930;
80701834347808;-9.9389;-0.6239;-2.0569;
80701844453016;-7.5649;-0.6861;-3.0105;
80701854558277;-6.9111;-0.7436;-4.6896;
80701864670829;-9.2393;-0.5064;-5.6743;
80701874776037;-7.4620;-1.1868;-5.8612;
80701884881297;-8.5567;-0.8731;-6.8961;
80701894989058;-8.8322;-0.8489;-5.2382;
80701905094266;-8.4344;-0.9855;-3.5375;
80701915199527;-9.8025;-1.2347;-4.7231;
80701925294162;-10.7294;-1.3591;-4.9771;
80701935399370;-8.7939;-1.3113;-2.9626;
80701945504631;-10.2096;-0.5877;-1.7384;
80701955618537;-10.8586;-0.5662;-0.6724;
80701965723745;-9.1771;-0.3676;-1.1204;
80701975829006;-8.5208;-0.3389;-2.2510;
80701985924683;-7.0618;-0.5136;-3.9230;
80701996029891;-9.9269;-0.8512;-5.5352;
80702006135152;-8.8777;-0.7172;-5.9737;
80702016241349;-9.0526;-1.0286;-4.1028;
80702026346558;-6.9637;-0.7268;-5.2549;
80702036451818;-9.4047;-0.5973;-7.6074;
80702046549527;-11.2660;-0.6909;-5.6791;
80702056654735;-8.9782;-0.3413;-1.1539;
80702066759943;-7.4692;-0.3700;-1.8200;
80702076865204;-10.0851;-0.7316;-5.9617;
80702086976662;-10.9834;-0.7675;-4.6394;
80702097081870;-9.9341;-0.4083;-1.4581;
80702107187131;-9.5267;0.0326;0.4032;
80702117288381;-8.7341;-0.4944;-1.9277;
80702127393589;-7.4309;-0.1304;-2.4930;
80702137498849;-9.5533;0.4735;-3.7651;
80702147611349;-11.3067;-0.0272;-3.3362;
80702157716558;-9.9197;0.2339;-4.5365;
80702167821818;-10.7653;0.2578;-3.1543;
80702177914683;-9.2850;0.3966;-2.3471;
80702188019891;-7.4405;0.4110;-3.0296;
80702198125152;-7.0857;-0.0200;-6.0239;
80702208245204;-7.9962;0.9260;-5.7820;
80702218350412;-10.8491;1.0747;-3.4657;
80702228455672;-7.7207;0.4783;-2.1458;
80702238557860;-8.3219;0.6721;-4.5556;
80702248663068;-9.6873;0.6099;-4.6825;
80702258768329;-10.3367;0.7418;-1.9445;
80702268868329;-8.8011;0.2028;-1.1779;
80702278973537;-8.3411;0.1140;-2.6465;
80702289078797;-10.1904;0.3153;-5.9952;
80702299178277;-9.1890;0.1499;-4.7713;
80702309283537;-7.5936;-0.0057;-3.9182;
80702319388745;-8.0369;-0.6120;-3.1783;
80702329557131;-9.5964;-1.0549;-4.0382;
80702339662391;-10.9810;0.0661;-3.9520;
80702349767652;-9.7687;-0.0969;-1.9923;
80702359864891;-9.3640;-0.8225;-1.5398;
80702369970152;-10.2503;-0.4872;-2.7182;
80702380075412;-7.0427;-0.7603;-4.5389;
80702390134058;-5.5047;0.2363;-6.0239;
80702400239266;-10.4970;0.1690;-6.8647;
80702410344527;-13.5802;-0.3051;-3.0631;
80702420488745;-10.4635;-1.1315;2.6381;
80702430593954;-9.8815;-1.5772;1.2703;
80702440699214;-11.5989;0.3368;-2.6512;
80702450782808;-9.6395;-1.3376;-3.5064;
80702460888016;-7.5817;-0.9592;-2.5887;
80702470993277;-7.8093;-0.6215;-3.0081;
80702481101662;-9.3257;-0.7172;-4.7737;
80702491206870;-9.1220;-0.7268;-5.0348;
80702501312131;-9.1962;-0.8273;-4.1865;
80702511419631;-7.5841;-1.0836;-3.4968;
80702521524839;-9.2560;-0.3461;-3.9544;
80702531630099;-10.2766;-0.7962;-2.9889;
80702541732808;-8.2597;-0.5997;-1.7145;
80702551838016;-9.2755;-0.0559;-2.8020;
80702561943277;-9.6251;0.2674;-4.1339;
80702572047183;-9.1077;-0.2333;-4.2778;
80702582152391;-11.0240;-1.0190;-3.2812;
80702592257652;-10.2742;-0.6215;-2.0931;
80702602366454;-7.9122;-0.3772;-0.3706;
80702612471662;-6.4869;-0.6479;-0.6724;
80702622576922;-8.6644;-0.3580;-7.3319;
80702632685881;-12.4540;0.1475;-10.7384;
80702642791089;-8.7556;-0.9544;-3.4418;
80702652896349;-8.7123;-1.2419;-1.3959;
80702663002495;-9.2560;-1.8598;-4.6083;
80702673107704;-8.3148;-0.9233;-2.7135;
80702683212964;-9.2273;-0.5279;-3.1807;
80702693312704;-10.5712;-0.7914;-2.8475;
80702703417912;-9.2417;-0.3556;-1.1157;
80702713523172;-8.9614;-0.2142;-3.0559;
80702723659058;-10.3846;0.1642;-3.6021;
80702733764266;-9.8121;0.1905;-4.4501;
80702743869527;-10.8829;0.6314;-2.7159;
80702753943745;-8.1829;0.2339;-1.5996;
80702764048954;-7.1842;0.4349;-3.6619;
80702774154214;-9.5773;1.0507;-4.1052;
80702784272964;-9.4669;0.3727;-3.7579;
80702794378537;-9.1938;0.5261;-5.6719;
80702804484058;-9.8169;0.4493;-5.6456;
80702814597287;-7.6487;0.3583;-1.2377;
80702824702808;-7.7566;-0.4681;-1.9349;
80702834808381;-8.7461;0.2339;-3.3242;
80702844898849;-9.6802;0.3942;-4.7375;
80702855004422;-10.0298;0.3846;-2.0545;
80702865109943;-10.0585;-0.7627;-1.5470;
80702875229995;-8.8035;-0.0921;-0.3562;
80702885335516;-7.2990;-0.0778;-2.5911;
80702895441089;-9.5390;-0.1065;-5.1664;
80702905532547;-12.3129;-0.4801;-4.3137;
80702915638068;-10.0155;-0.0706;0.1612;
80702925743641;-7.2846;-0.4226;-1.2018;
80702935868329;-6.8680;-0.0200;-3.8177;
80702945973849;-11.3282;-0.1232;-4.8574;
80702956079422;-12.1714;-0.3314;-1.1037;
80702966172704;-9.9221;-0.8154;0.0389;
80702976278224;-5.0234;0.1905;-2.0955;
80702986383797;-5.9695;0.1164;-6.4816;
80702996484787;-16.2535;-0.3891;-4.0932;
80703006590308;-18.2824;-1.7091;2.3674;
80703016695881;-9.9341;-1.6083;6.7199;
80703026792808;-4.5108;-1.6178;1.1384;
80703036898381;-7.0522;-1.2036;-7.4566;
80703047003902;-10.4013;-0.5542;-7.6648;
80703057118954;-8.4392;0.8830;-3.4490;
80703067224474;-9.0790;0.1642;-3.0799;
80703077330047;-10.9810;-0.2716;-2.3710;
80703087455412;-8.6572;-0.4083;-1.3409;
80703097560933;-8.4993;-0.4083;-2.0836;
80703107666506;-8.5639;-0.4083;-3.9712;
80703117732704;-8.1805;0.3416;-3.8201;
80703127838277;-8.8729;0.6075;-4.5150;
80703137943849;-9.8982;0.5596;-3.3314;
80703148086922;-10.5903;-0.2142;-2.9961;
80703158192443;-8.1039;0.3440;-4.0693;
80703168298016;-10.6385;0.6099;-4.9675;
80703178374943;-11.4314;0.4397;0.8871;
80703188480464;-5.3922;1.1106;1.5673;
80703198586037;-8.1565;-1.2562;-8.0459;
80703208727391;-13.8867;-2.2337;-12.6021;
80703218832912;-11.8863;-2.1233;-3.2859;
80703228938485;-7.9627;0.2889;2.9853;
80703239030360;-7.0020;1.4985;-0.1143;
80703249135881;-11.6276;0.6075;-2.6297;
80703259241454;-11.2397;1.3693;-1.5108;
80703269336245;-7.5912;0.8686;-0.8330;
80703279441766;-8.7724;0.1546;-3.7005;
80703289547339;-10.7940;-0.1519;-4.0478;
80703299692808;-8.7365;0.1211;-2.4021;
80703309798329;-7.3516;0.2841;-4.6729;
80703319903902;-10.8467;0.0470;-5.5137;
80703329948120;-9.1914;0.2865;-2.5361;
80703340053641;-8.7628;0.0326;-2.7948;
80703350159214;-9.8743;-0.0706;-4.5987;
80703360286558;-8.7604;0.5381;-3.6476;
80703370392131;-7.3660;-0.0535;-3.7412;
80703380497652;-9.3688;-0.3338;-4.3711;
80703390599162;-10.3487;0.8064;-2.6943;
80703400704735;-9.3760;0.4205;-2.1147;
80703410810256;-11.6853;0.3846;-2.9626;
80703420923329;-11.3258;1.7836;-1.4725;
80703431028849;-7.0810;0.2076;-1.0869;
80703441134422;-7.8380;-0.8731;-4.1339;
80703451254058;-10.5664;0.0135;-4.0214;
80703461359579;-11.6013;0.4229;-2.3157;
80703471465152;-8.8609;-0.0730;-2.5959;
80703481561558;-7.0403;-0.5303;-5.3198;
80703491667131;-8.1589;-0.5088;-5.5017;
80703501772652;-9.4597;-0.0368;-3.1301;
80703511872547;-10.4970;-0.0583;-3.0679;
80703521978068;-9.5845;-0.5662;-3.5806;
80703532083641;-7.9723;-0.6407;-3.4633;
80703542190047;-8.6285;-1.0334;-3.7914;
80703552295568;-9.3879;-0.4777;-3.2142;
80703562401141;-8.5735;-0.2142;-2.2869;
80703572504995;-10.1306;-0.6407;-3.9664;
80703582610568;-11.0025;0.2698;-3.4298;
80703592716089;-7.7327;-0.2022;-1.5541;
80703602826974;-7.7830;-0.7795;-3.9879;
80703612932495;-9.7543;-0.6215;-4.8144;
80703623038068;-11.5726;-0.1591;-3.2620;
80703633136974;-9.6156;-0.2668;-1.2954;
80703643242495;-10.0179;-0.7484;-3.1301;
80703653348068;-10.9068;-0.5447;-2.9028;
80703663458745;-8.0991;-0.2070;-1.1228;
80703673564266;-7.0499;-0.1496;-2.9530;
80703683669839;-9.3377;0.4783;-3.7795;
80703693771870;-9.6778;-0.2716;-2.8211;
80703703877391;-9.0239;-0.5351;-3.0344;
80703713982964;-2.7523;0.9093;-5.3342;
80703724102808;-5.9408;1.1704;-8.0961;
80703734208329;-23.2603;1.6902;-2.3327;
80703744313902;-21.5737;0.5524;8.7873;
80703754405099;-7.1722;-1.8981;10.0762;
80703764510620;-2.4003;-0.3266;-1.5350;
80703774616193;-7.2057;-0.8608;-11.9937;
80703784725829;-7.3950;-1.1940;-8.6016;
80703794831402;-5.5552;1.4148;-2.5959;
80703804936974;-11.2923;2.1742;-2.3997;
80703815044162;-14.1407;2.4114;-2.7135;
80703825149735;-9.1771;1.1106;-1.8894;
80703835255308;-7.9938;0.0494;-2.5911;
80703845358537;-7.5410;0.0182;-2.5050;
80703855464110;-8.4009;0.9811;-1.2544;
80703865569683;-9.2632;0.7992;-2.4141;
80703875678641;-11.4577;0.5812;-3.1926;
80703885784214;-11.8313;1.1369;-1.8823;
80703895889787;-11.9513;0.7343;3.2970;
80703905991662;-5.9934;1.3908;7.9609;
80703916097235;-5.1694;0.1427;-4.3950;
80703926202808;-13.6687;-1.0095;-22.6920;
80703936307079;-14.0303;-0.2142;-12.2572;
80703946412652;-5.1335;1.8843;9.6736;
80703956518224;-8.7051;-0.4944;5.3569;
80703966619058;-12.6697;-0.1831;-1.3098;
80703976724631;-9.3138;2.1694;2.6429;
80703986830204;-6.4391;2.4927;1.7471;
80703996938224;-9.3760;0.6960;-5.9402;
80704007043797;-11.2923;-0.0464;-7.2171;
80704017149370;-9.9891;-0.6431;-1.2497;
80704027252287;-7.6008;-1.0765;1.5290;
80704037357860;-8.5807;-1.1219;-2.2415;
80704047463433;-11.1870;-0.0969;-4.3735;
80704057614995;-10.9116;0.2363;-1.1850;
80704067720568;-5.6007;-0.2835;-0.8426;
80704077826141;-7.6439;0.3224;-4.4237;
80704087878329;-9.5557;-0.5447;-5.4227;
80704097983849;-11.6806;-0.9879;-3.7651;
80704108089474;-13.3023;-0.6957;-1.3648;
80704118244474;-10.4922;-0.3700;0.9063;
80704128350047;-7.1554;-0.7172;-0.4137;
80704138455620;-7.5266;-1.1629;-2.0812;
80704148518849;-10.5305;-0.3796;-5.4634;
80704158624422;-14.1455;-0.8345;-4.8981;
80704168729995;-9.0933;-1.3519;-1.1898;
80704178839891;-6.9876;-1.5748;-1.3457;
80704188945464;-9.9844;-1.4791;-3.2620;
80704199051037;-10.2287;-1.2706;-3.7747;
80704209150308;-10.8227;-1.1148;-5.3605;
80704219255881;-8.9112;-0.5495;-3.5853;
80704229361454;-4.6017;-0.4753;-2.6536;
80704239488641;-6.5563;-0.5112;-4.8885;
80704249594214;-9.6347;0.1283;-6.5557;
80704259699787;-9.4071;0.6075;-4.2610;
80704269785933;-6.7313;-0.2812;-3.2501;
80704279891506;-7.7255;0.3703;-5.2454;
80704289997079;-10.7103;-0.0631;-6.0817;
80704300079995;-10.4204;0.1953;-3.7220;
80704310185568;-8.6213;0.3033;-3.4226;
80704320291141;-8.5472;-0.3170;-4.3208;
80704330427964;-8.7485;-0.3003;-3.8656;
80704340533537;-7.3732;0.0829;-3.6523;
80704350639110;-10.3415;-0.0730;-4.6107;
80704360742079;-13.4028;0.9404;-4.3639;
80704370847652;-10.9235;1.3765;-0.8952;
80704380953224;-9.1819;1.8150;-1.0056;
80704391057912;-9.8312;0.9117;-1.5203;
80704401163485;-8.6118;1.7668;-2.5457;
80704411269058;-8.3243;1.6137;-2.6106;
80704421378797;-7.7064;1.8461;-2.8980;
80704431484370;-8.3267;2.7251;-4.2802;
80704441589943;-11.5319;1.3406;-2.9913;
80704451727808;-12.9930;1.3693;0.0341;
80704461833381;-13.2999;0.1475;0.8007;
80704471938954;-13.7309;-1.2802;0.0197;
80704482012391;-8.8131;-0.8536;-0.8258;
80704492117964;-4.5467;-0.0081;-3.9302;
80704502223537;-5.9743;0.2148;-7.0708;
80704512325829;-7.7016;0.7319;-6.0769;
80704522431402;-8.3674;1.0627;-2.9387;
80704532536974;-7.0475;1.2903;-2.2343;
80704542642495;-7.7279;0.9739;-4.6035;
80704552748068;-8.5089;0.5812;-6.0742;
80704562853641;-10.4755;-0.1017;-4.1100;
80704572965464;-10.9187;-0.8034;-1.7049;
80704583071037;-9.6180;-0.5088;-0.6700;
80704593176610;-9.1316;-0.6766;-0.1238;
80704603286245;-10.4181;-0.5495;0.3096;
80704613391818;-10.2215;-1.5508;-0.8019;
80704623497391;-8.7820;-2.0731;-2.8522;
80704633584266;-8.7317;-1.6923;-6.7666;
80704643689839;-12.1594;-3.0553;-7.2194;
80704653795412;-13.7572;-3.2587;-3.0823;
80704663922131;-10.7581;-2.5690;2.2621;
80704674027704;-5.9504;-1.5102;3.0287;
80704684133277;-4.2449;-0.1519;-0.1334;
80704694233016;-10.6648;-0.2788;-1.3504;
80704704338589;-13.1919;-0.8417;0.3888;
80704714444162;-10.7653;-2.4730;1.2583;
80704724545829;-8.2789;-2.1042;-1.9684;
80704734651402;-7.4357;-1.8311;-5.4538;
80704744756974;-9.1962;-2.9593;-6.6685;
80704754862391;-9.6060;-2.8253;-3.9350;
80704764967964;-8.7194;-2.7655;-2.2941;
80704775073537;-8.0345;-2.5905;-3.8201;
80704785177808;-8.5519;-2.0922;-3.8967;
80704795283381;-10.6576;-1.4862;-2.6728;
80704805388954;-9.7854;-0.5542;-1.1539;
80704815500933;-9.3927;-0.0176;-1.7480;
80704825606506;-12.2025;-0.5064;-2.7948;
80704835712079;-10.9690;-0.6431;-1.0080;
80704845811454;-8.9471;0.2100;0.1995;
80704855917027;-7.8500;1.1082;-0.4496;
80704866022599;-7.8930;0.8279;-2.1362;
80704876133329;-9.0503;0.6482;-5.6982;
80704886238902;-10.5425;0.1283;-7.6193;
80704896344474;-11.7858;-0.8297;-5.4251;
80704906446974;-11.0456;0.0206;-1.5494;
80704916552547;-8.2502;-0.1711;-0.5623;
80704926658120;-8.7194;-0.1878;-2.6632;
80704936754266;-8.5400;0.5046;-2.8594;
80704946859839;-9.4310;0.0876;-2.9076;
80704956965412;-12.2411;0.4564;-2.5768;
80704967077808;-10.7725;1.3143;-1.1420;
80704977183381;-7.1363;0.7633;-2.5050;
80704987288954;-7.5960;0.0781;-5.8011;
80704997391037;-8.4248;0.0709;-5.2744;
80705007496610;-9.0048;0.0159;-4.4381;
80705017602183;-9.0766;0.1187;-4.7160;
80705027708016;-8.9064;-0.0778;-3.6045;
80705037813589;-9.9174;0.0972;-2.6895;
80705047919110;-9.3855;0.4397;-2.1601;
80705058081349;-7.6415;0.8423;-2.3375;
80705068186922;-7.7686;-0.1328;-4.0645;
80705078292495;-4.2018;-0.5303;-5.4849;
80705088335204;-0.9703;-0.1496;-8.3812;
80705098440777;-16.0092;-0.7172;-6.9607;
80705108546349;-22.4100;-0.7388;2.6668;
80705118664943;-13.0914;-0.8560;8.4592;
80705128770516;-6.3888;-0.6933;2.4176;
80705138876089;-8.4849;0.0829;-5.5232;
80705148992808;-8.6668;-0.6191;-5.8540;
80705159098381;-7.7495;-0.4035;-2.6752;
80705169203954;-9.6730;-0.4131;-0.7851;
80705179291245;-10.3268;0.4998;-1.5541;
80705189396818;-9.2827;0.3775;-1.9469;
80705199502391;-9.2970;0.0565;-1.9397;
80705209633381;-9.7041;-0.3147;-2.2487;
80705219738954;-9.2584;-0.2596;-2.2223;
80705229844527;-9.6515;-0.9018;-2.3877;
80705239920829;-10.7510;-0.5901;-1.7408;
80705250026402;-11.6806;0.1475;1.6750;
80705260131974;-7.9603;1.6902;8.6916;
80705270239579;-3.8471;1.2470;0.8581;
80705280345152;-12.2339;-1.0430;-16.2793;
80705290450724;-13.8075;-1.7354;-14.6862;
80705300585204;-7.5027;-1.0167;-0.2318;
80705310690777;-9.0790;-0.5925;4.8179;
80705320796349;-11.1174;0.6601;0.6978;
80705330893016;-9.7591;1.2302;-1.6618;
80705340998589;-9.3855;1.0077;-0.6221;
80705351104162;-9.4813;1.4459;-0.8928;
80705361201141;-8.6907;1.5826;-1.5972;
80705371306714;-7.8643;-0.0081;-2.4212;
80705381412287;-9.5438;-0.1783;-5.1066;
80705391507964;-11.4841;0.0876;-4.8000;
80705401613537;-10.4683;0.6601;-0.8665;
80705411719110;-8.0058;0.8375;-1.2858;
80705421838120;-8.5783;-0.4011;-5.0109;
80705431943693;-9.1053;-0.5279;-4.7545;
80705442049266;-9.2584;0.7295;-2.3997;
80705452152495;-9.2994;0.3176;-1.8751;
80705462258068;-9.8336;-0.4370;-3.3386;
80705472363641;-9.7663;-0.4992;-3.0583;
80705482460308;-8.5902;-0.7436;-2.8235;
80705492565881;-10.2287;-1.1509;-3.4250;
80705502671454;-9.6586;-0.3508;-2.5986;
80705512779058;-8.0560;-1.0238;-1.8416;
80705522884631;-7.7662;-1.4049;-3.6595;
80705532990204;-9.6108;-1.1605;-5.6025;
80705543111245;-10.5640;-0.9999;-3.9832;
80705553216818;-11.3354;-0.5207;-1.3098;
80705563322391;-8.8848;-0.7819;-2.1649;
80705573414579;-7.1315;-1.2730;-3.6404;
80705583520152;-9.4908;-0.8417;-4.3017;
80705593625724;-10.3053;-0.6479;-2.9100;
80705603730204;-9.0120;-0.6814;-1.6499;
80705613835777;-9.2345;-0.6383;-2.8044;
80705623941349;-8.3004;-0.9999;-3.1519;
80705634053954;-8.5902;-1.1100;-4.4743;
80705644159527;-9.2994;-0.9257;-4.8814;
80705654265099;-8.2310;-0.2859;-3.5614;
80705664368745;-7.2009;-0.2070;-3.8417;
80705674474318;-10.1593;-1.3328;-4.8287;
80705684579891;-11.5439;-0.4250;-2.8283;
80705694682391;-10.2287;0.1259;0.2402;
80705704787964;-9.3162;0.7729;0.0173;
80705714893537;-9.4717;-0.1208;-2.6584;
80705725000204;-10.8299;-0.1735;-3.8034;
80705735105777;-10.3149;0.4807;-1.7312;
80705745211349;-7.6582;0.4469;-0.3826;
80705755314474;-7.6367;0.4014;-2.0282;
80705765420047;-7.9723;0.4564;-3.7938;
80705775525620;-9.6778;0.6505;-3.6188;
80705785637704;-10.7342;0.7008;-2.6058;
80705795743329;-10.0609;1.2832;-1.2066;
80705805848954;-5.6342;0.8949;-0.0305;
80705815959474;-6.5444;-0.1902;-2.3997;
80705826065099;-18.3278;0.4014;-2.1266;
80705836170724;-19.1327;0.3488;5.0671;
80705846262495;-8.9399;1.8245;5.7523;
80705856368120;-5.2582;0.1403;-0.3658;
80705866473745;-8.3770;-2.0659;-6.7259;
80705876576558;-8.5496;-1.2562;-6.6996;
80705886682183;-8.4969;0.7848;-2.8669;
80705896787808;-11.6420;2.3731;-0.7469;
80705906894162;-12.1068;1.3167;0.1469;
80705916999787;-9.6754;1.1752;-0.4738;
80705927105412;-7.0834;0.6864;-1.4533;
80705937204370;-6.7026;0.1475;-3.3936;
80705947309995;-8.4634;-0.0682;-4.6729;
80705957415620;-9.1101;-0.1137;-4.4213;
80705967572391;-11.0647;0.1499;-3.2022;
80705977678016;-10.3463;-0.0392;-2.0210;
80705987783641;-8.7820;-0.2979;-0.1836;
80705997835724;-8.2525;-0.8106;-4.6872;
80706007941349;-11.7906;-2.3414;-10.8700;
80706018046974;-11.5247;-0.6311;-7.1764;
80706028195204;-7.1889;0.5716;0.0772;
80706038300829;-7.8595;0.1164;-0.6580;
80706048406454;-9.6395;0.7104;-2.4500;
80706058487704;-8.3626;0.5979;-1.4462;
80706068593329;-9.5414;0.4062;-2.3806;
80706078698954;-9.3592;0.3679;-4.8120;
80706088821558;-10.9140;0.1092;-5.0180;
80706098927183;-11.3474;-0.0296;-2.5863;
80706109032808;-6.9422;-0.0754;-0.9790;
80706119128693;-6.6308;-0.4178;-3.3577;
80706129234318;-10.0322;-0.0176;-4.8574;
80706139339943;-10.4659;0.6505;-3.9425;
80706149436454;-6.9589;0.6673;-3.8106;
80706159542079;-8.1302;0.0063;-5.8780;
80706169647704;-10.0585;0.2459;-5.5208;
80706179768745;-9.8719;0.2770;-2.6680;
80706189874370;-8.5519;0.5477;-0.7397;
80706199979995;-7.3038;0.2841;-1.8918;
80706210052183;-7.7901;-0.0248;-3.2812;
80706220157808;-9.4645;0.2506;-3.8273;
80706230263433;-11.6925;0.4134;-2.8164;
80706240373433;-10.5305;0.3799;-1.3385;
80706250479058;-8.1709;-0.0535;-0.9359;
80706260584735;-8.0632;-0.7986;-4.6609;
80706270693641;-9.3999;-1.0047;-6.3978;
80706280799266;-10.5497;-0.6550;-2.7398;
80706290904891;-8.3267;-0.5901;0.4774;
80706301030099;-8.3770;-0.3556;-1.5589;
80706311135724;-12.4878;-0.0778;-3.5088;
80706321241349;-11.2923;-0.3461;-0.5025;
80706331336974;-8.6668;-0.5399;-0.4400;
80706341442599;-9.3473;-0.6861;-2.7063;
80706351548224;-12.1187;-1.1749;-2.2415;
80706361647547;-9.3855;-0.9664;-0.1935;
80706371753172;-7.0427;-0.1687;-1.0247;
80706381858797;-9.1675;-0.5040;-2.9770;
80706391963329;-8.2741;-0.7842;-3.2596;
80706402068954;-8.8155;-1.2706;-4.9316;
80706412174579;-10.0780;-0.9520;-4.8191;
80706422287547;-10.5377;-0.9305;-3.0440;
80706432393172;-9.2584;-0.8154;-0.5408;
80706442498797;-7.6487;-0.5183;-1.3576;
80706452607079;-8.9590;0.0948;-3.5183;
80706462712704;-9.9006;-0.3075;-3.0033;
80706472818329;-10.9355;-0.1113;-2.1482;
80706482910412;-9.9437;-0.5160;-2.5792;
80706493016037;-10.7964;-0.4633;-2.2965;
80706503121662;-8.9877;0.0565;-1.4821;
80706513239058;-8.3004;-0.4394;-3.5351;
80706523344683;-10.0828;-0.6574;-4.3831;
80706533450308;-9.8145;0.0972;-0.7995;
80706543562704;-8.8920;-0.7053;-0.9694;
80706553668329;-10.7031;-0.5231;-3.3577;
80706563773954;-12.2148;-0.8225;-1.7169;
80706573880829;-8.5567;-0.7675;-0.5025;
80706583986454;-6.4247;-0.3963;-2.9315;
80706594092079;-8.3387;-0.5710;-5.8756;
80706604195881;-10.8682;-0.5136;-4.4237;
80706614301506;-10.0107;0.0852;-1.4486;
80706624407131;-8.6237;-0.0344;-1.9445;
80706634501454;-8.7242;-0.2046;-3.8991;
80706644607079;-10.2838;-0.2572;-4.1339;
80706654712704;-10.6457;-0.3003;-3.5231;
80706664826558;-9.1149;-0.7603;-1.4773;
80706674932183;-6.7840;-0.4394;-1.9923;
80706685037808;-9.3903;-0.9712;-3.5136;
80706695141766;-11.7236;-0.4681;-2.4619;
80706705247391;-10.2526;-0.6407;-1.8583;
80706715353016;-7.5529;-0.4322;-2.7852;
80706725452547;-7.3636;-0.3700;-3.9039;
80706735558172;-10.1904;0.0852;-4.9340;
80706745663797;-10.6600;0.2028;-2.9746;
80706755767964;-7.7973;0.3607;-1.1874;
80706765873589;-8.0919;0.5524;-2.2439;
80706775979214;-10.3220;-0.2596;-2.7829;
80706786082599;-9.6227;-0.5279;-3.4729;
80706796188120;-8.7604;0.0254;-3.7914;
80706806293641;-8.5783;-0.0655;-2.7470;
80706816405881;-8.8705;0.1068;-2.2630;
80706826511402;-9.8480;-0.0921;-2.7254;
80706836616922;-10.1976;0.4445;-1.9899;
80706846709735;-7.7901;0.9069;-0.7756;
80706856815256;-9.5964;0.7175;-1.9301;
80706866920777;-16.3540;0.4469;-2.1577;
80706877035724;-12.3272;1.1967;0.7552;
80706887141245;-5.9001;0.2148;1.1865;
80706897246766;-5.5361;0.1331;-3.1352;
80706907349162;-8.8202;0.2339;-4.9771;
80706917454683;-11.0264;0.8973;-1.8416;
80706927560204;-10.3774;1.5129;-1.7575;
80706937665829;-8.4945;0.4612;-4.3161;
80706947771349;-8.2573;0.1092;-3.8919;
80706957876870;-8.6859;0.0900;-3.0224;
80706967990933;-10.8156;0.3129;-2.1649;
80706978096454;-9.9030;0.3775;-1.5685;
80706988201974;-9.6778;0.0326;-1.6690;
80706998296141;-9.3855;-0.2572;-1.7192;
80707008401662;-10.9834;-0.2500;-2.0521;
80707018507183;-8.8537;-0.0559;-2.1721;
80707028646454;-9.8145;-0.3604;-5.4275;
80707038751974;-12.1810;-0.8345;-6.2539;
80707048857495;-12.0685;0.0111;-1.1037;
80707058931349;-9.6467;-0.0224;2.1805;
80707069036870;-6.3168;-0.1184;-0.4208;
80707079142391;-6.7098;-0.3218;-4.3902;
80707089271974;-9.3114;0.0757;-5.0010;
80707099377495;-7.4668;1.3214;-2.7589;
80707109483016;-8.9949;0.6793;-3.9473;
80707119567704;-11.6300;0.0039;-5.1640;
80707129673224;-9.0790;0.2363;-2.3782;
80707139778745;-7.0164;-0.3604;-2.9650;
80707149887912;-9.1005;-0.8201;-4.8550;
80707159993433;-10.7821;-0.2022;-4.3089;
80707170098954;-9.7663;-0.2022;-2.0569;
80707180203641;-7.5960;0.3248;-1.3074;
80707190309162;-8.1829;0.0829;-2.5744;
80707200414683;-12.4517;0.1044;-2.5265;
80707210541506;-12.6577;0.0015;-1.9181;
80707220647027;-11.7212;-0.5925;-0.8282;
80707230752547;-10.3917;-0.5830;0.6212;
80707240837391;-7.2009;-0.3772;0.3577;
80707250942912;-8.5902;-0.2309;-2.7254;
80707261048433;-9.9891;0.2100;-2.2391;
80707271152912;-7.3804;0.5333;-0.2270;
80707281258433;-7.6128;1.2278;-4.3280;
80707291363954;-12.1738;0.3248;-6.0960;
80707301486662;-11.4553;1.0101;-2.6895;
80707311592183;-7.0977;0.4564;-0.3060;
80707321697704;-6.8632;-0.0081;-3.4920;
80707331809266;-11.0240;0.4902;-4.0167;
80707341914787;-8.4081;0.5548;-0.6891;
80707352020308;-7.4357;0.4636;-1.6570;
80707362112704;-9.4525;0.5596;-4.0765;
80707372218224;-10.5688;-0.2931;-3.6212;
80707382323745;-11.1006;-0.5734;-3.5901;
80707392421141;-12.1403;-0.2333;-2.5170;
80707402526662;-8.0752;-0.5566;-0.2294;
80707412632183;-4.6926;-0.1567;-0.7131;
80707422736558;-8.8370;0.7466;-3.0511;
80707432842079;-11.4673;0.8806;-2.9435;
80707442947599;-11.1966;1.8772;-0.5097;
80707453053120;-10.3582;1.3717;-0.2031;
80707463158641;-9.9796;-0.0849;-2.2678;
80707473264162;-9.5462;-0.5973;-2.4547;
80707483371297;-6.9446;0.0422;-2.4763;
80707493476818;-7.6848;-0.2955;-3.7986;
80707503582339;-10.1306;-0.0153;-3.1663;
80707513692704;-9.5124;0.6649;-0.7493;
80707523798224;-9.2584;0.2818;-2.6560;
80707533903745;-11.6444;-0.1878;-3.5351;
80707544023693;-10.3149;-0.0392;-1.1563;
80707554129214;-7.3588;-0.1759;-1.1731;
80707564234735;-8.8944;-0.2548;-4.2538;
80707574320933;-11.7380;-0.0224;-2.1769;
80707584426454;-10.4109;0.4158;1.3469;
80707594531974;-8.1087;0.9811;-0.2725;
80707604643745;-9.2273;0.3583;-2.9841;
80707614749266;-10.4635;-0.3170;-4.4213;
80707624854787;-10.3173;-0.6861;-3.6021;
80707634957287;-9.6538;-0.7747;-2.2774;
80707645062808;-10.3415;-0.2883;-0.9191;
80707655168329;-9.9724;-0.1400;0.3984;
80707665277391;-14.2675;0.2171;-0.5145;
80707675382912;-8.4993;-0.0057;-0.5647;
80707685488433;-3.7825;-1.8598;-2.3997;
80707695589058;-9.5267;-1.8120;-6.7235;
80707705694579;-12.5429;-0.8560;-5.8708;
80707715800099;-10.2359;-0.1400;-1.8990;
80707725904058;-7.9146;-0.5423;-0.5910;
80707736009579;-8.5711;-0.8010;-3.7149;
80707746115099;-9.4502;-1.1076;-4.9436;
80707756223381;-9.0766;-1.0190;-3.1974;
80707766328902;-7.2512;-0.7842;-2.7876;
80707776433068;-7.7207;-0.5327;-5.3366;
80707786538641;-10.7581;-0.6359;-4.0813;
80707796644162;-10.8924;-0.5399;-2.0644;
80707806768954;-11.4410;-0.0849;-3.1735;
80707816874474;-8.1326;-1.0334;-2.0330;
80707826979995;-7.5649;-0.9425;-3.5638;
80707837056714;-11.3067;-0.9664;-4.6848;
80707847162235;-9.7137;0.2291;-1.8224;
80707857267756;-7.8476;0.3320;-1.5924;
80707867387547;-10.2311;0.2506;-2.9602;
80707877493068;-9.1173;0.1427;-2.0163;
80707887598589;-8.7700;0.3942;-2.2702;
80707897677079;-9.6538;0.1642;-2.5409;
80707907782599;-8.0943;-0.0344;-2.5959;
80707917888120;-9.0431;-0.1735;-3.4896;
80707928070256;-9.5172;0.3129;-2.6895;
80707938175777;-9.4741;0.7370;-0.7947;
80707948281297;-9.9724;0.5309;-1.9851;
80707958323641;-9.4645;-0.1591;-3.3338;
80707968429162;-9.6754;0.1786;-2.8020;
80707978534683;-9.7017;0.5166;-2.5887;
80707988660308;-9.0072;0.3272;-2.8669;
80707998765829;-9.9485;0.7032;-2.5504;
80708008871349;-9.8432;0.5357;-0.3706;
80708018993224;-8.7652;0.6386;0.1349;
80708029098745;-9.7974;0.4974;-2.0378;
80708039204266;-9.6060;0.3057;-1.9301;
80708049272756;-7.8954;0.6458;-2.5935;
80708059378277;-9.5076;-0.1208;-3.5997;
80708069483797;-10.4683;0.3057;-2.0234;
80708079597339;-9.8743;0.6864;-1.3648;
80708089702860;-8.8035;-0.1950;-1.9038;
80708099808381;-8.1422;-0.6407;-2.3037;
80708109904787;-9.9030;0.5501;-2.7565;
80708120010308;-12.4086;0.2411;-2.5026;
80708130115829;-11.9632;-0.0873;-1.7073;
80708140232912;-7.6920;0.2530;-0.5767;
80708150338433;-6.9996;-0.1543;-1.8918;
80708160443954;-11.1631;-0.0105;-2.9770;
80708170546974;-11.5295;-0.3099;-0.6437;
80708180652495;-8.0824;0.3631;-0.0784;
80708190758016;-8.2884;-0.1543;-3.9015;
80708200866870;-10.2957;0.0446;-4.9292;
80708210972391;-8.1757;0.3129;-1.3552;
80708221077912;-8.3267;-0.3652;-1.2835;
80708231189370;-8.6716;-0.3051;-4.3448;
80708241294891;-9.4478;0.0613;-3.1759;
80708251400412;-11.1245;-0.0248;-1.0415;
80708261503098;-11.8600;0.2650;-1.3050;
80708271608619;-10.7390;0.5381;-1.5036;
80708281714140;-8.7963;-0.5949;-2.3447;
80708291810702;-8.4921;-1.1797;-4.1243;
80708301916223;-7.6896;-0.6072;-3.4609;
80708312021744;-7.1267;0.1714;-1.3576;
80708322159192;-11.9824;-0.1663;-1.2544;
80708332264713;-11.3521;-0.0344;-2.9291;
80708342370233;-13.3789;-0.0416;-1.2544;
80708352457160;-11.6348;-0.2835;1.7183;
80708362562681;-8.5567;-1.1677;0.4128;
80708372668202;-8.2238;-1.0382;-2.7159;
80708382774348;-7.4237;-0.4537;-2.6154;
80708392879869;-10.0708;-0.5853;-2.6608;
80708402985390;-11.8313;-0.5255;-2.1625;
80708413096223;-7.3110;-0.0655;-2.7494;
80708423201744;-7.4094;-0.5040;-5.8684;
80708433307265;-11.0504;-0.5782;-6.0503;
80708443407369;-9.0407;-0.8297;-2.4021;
80708453512890;-8.6285;-0.8584;-0.6724;
80708463618410;-9.6897;0.5285;-1.0343;
80708473727681;-9.2010;0.8471;-1.6475;
80708483833202;-9.6395;-0.0440;-2.3782;
80708493938723;-9.7065;-0.5614;-3.3362;
80708504039140;-8.8801;-1.8431;-3.4059;
80708514144660;-11.3593;-1.6107;-4.0669;
80708524250181;-10.9642;-1.3304;-2.5672;
80708534373827;-11.0743;-1.2036;-1.1228;
80708544479348;-11.2875;0.2530;-0.4642;
80708554584869;-7.8428;0.3392;0.1205;
80708564682525;-8.6046;-0.4801;-1.7961;
80708574788046;-9.7974;0.1379;-2.6512;
80708584893567;-6.9948;0.4612;-1.1157;
80708595000858;-7.6008;-0.3532;-2.6943;
80708605106379;-12.3535;0.2841;-3.6236;
80708615211900;-12.9787;-0.1711;-1.4605;
80708625305806;-10.0466;0.4134;-0.7059;
80708635411327;-5.6366;0.0900;-2.6943;
80708645516848;-6.2163;-1.2778;-4.4719;
80708655641535;-9.6156;-0.6742;-3.8967;
80708665747056;-9.8384;0.0924;-1.9014;
80708675852577;-11.9246;0.4205;-2.3901;
80708685950181;-10.5209;0.4950;-2.9315;
80708696055702;-2.0312;0.1259;-3.1854;
80708706161223;-10.3846;-0.1783;-5.5017;
80708716262994;-16.4402;-0.0368;-1.9349;
80708726368515;-10.2503;0.3966;4.1665;
80708736474035;-8.7772;0.3870;1.2966;
80708746572785;-9.5076;0.0206;-2.6130;
80708756678306;-10.0609;-0.6311;-1.7408;
80708766783827;-10.7605;0.5285;-0.9096;
80708776888931;-9.7567;0.1642;-2.5648;
80708786994504;-8.3865;-0.9903;-4.2203;
80708797100129;-10.9499;-0.8608;-3.4107;
80708807220858;-10.8227;0.5381;-0.1047;
80708817326431;-8.0273;0.8830;-0.0712;
80708827432004;-7.3397;0.3009;-3.9664;
80708837530546;-9.4717;-0.7507;-5.7197;
80708847636119;-11.5271;-0.4920;-4.0549;
80708857741692;-11.4649;0.5812;1.5218;
80708867841223;-6.2450;0.8710;4.3220;
80708877946796;-6.6141;-1.3711;-6.0096;
80708888052369;-12.1355;-1.2993;-9.8016;
80708898191119;-11.2086;-0.8106;-2.5863;
80708908296692;-10.3149;0.4181;-0.1741;
80708918402265;-8.2693;0.0948;-2.0234;
80708928482577;-7.1937;-0.3218;-3.5973;
80708938588150;-10.1402;-0.3748;-3.9087;
80708948693723;-9.9820;0.8734;-1.6140;
80708958812056;-8.7987;-0.0248;-0.3108;
80708968917629;-9.7208;-0.1304;-4.4381;
80708979023202;-10.7725;-0.7149;-5.1903;
80708989109765;-10.4037;-0.4274;-0.8809;
80708999215338;-7.9364;0.2937;0.3888;
80709009320910;-8.0082;-0.5207;-2.1458;
80709019425077;-9.5916;-0.9640;-4.0214;
80709029530650;-9.8145;-1.0047;-3.9063;
80709039636275;-12.1379;-0.5710;-3.2237;
80709049737785;-12.0135;0.6099;0.4678;
80709059843358;-5.9527;-0.0730;0.6739;
80709069948983;-8.8968;-1.3735;-4.9579;
80709080055181;-10.3630;-1.0430;-5.4227;
80709090160754;-9.5028;-0.8393;-1.0606;
80709100266379;-7.5888;-0.4609;0.2976;
80709110376119;-10.3340;-0.0849;-2.9124;
80709120481692;-11.4601;-0.1543;-3.5231;
80709130587265;-8.0704;-0.5542;-1.6331;
80709140694348;-6.2809;-0.7986;-2.2199;
80709150799921;-7.6199;-0.9090;-3.5518;
80709160905494;-9.8049;-0.6694;-3.3864;
80709171015494;-12.3368;-0.9664;-1.8679;
80709181121067;-14.7634;0.5022;1.6439;
80709191226640;-12.0948;0.6864;3.0479;
80709201320598;-4.2353;-0.3461;0.3793;
80709211426171;-4.5108;-1.8550;-6.6805;
80709221531796;-8.9973;-1.8048;-8.4218;
80709231638931;-11.1559;-0.8154;-2.6201;
80709241744504;-10.1258;0.1140;0.8943;
80709251850077;-10.9187;0.4086;0.2498;
80709261968619;-11.4099;1.0771;-0.2222;
80709272074192;-7.5458;1.0699;-0.4714;
80709282179817;-6.8486;0.0613;-3.5064;
80709292298202;-9.4669;0.1786;-4.2538;
80709302403775;-10.5879;0.5405;-0.6317;
80709312509348;-9.4813;0.6482;1.2990;
80709322581223;-10.3558;1.0484;-0.3323;
80709332686796;-10.7438;1.7644;-2.3423;
80709342792369;-6.6954;0.4807;-3.6308;
80709352915181;-7.5386;-1.1797;-5.4993;
80709363020754;-14.9982;-1.4958;-4.6035;
80709373126327;-14.1000;0.4229;2.1470;
80709383232108;-3.6290;1.7237;5.2851;
80709393337681;9.7953;0.9739;-3.6909;
80709403443254;-6.0293;-2.5451;-13.9771;
80709413553775;-32.3465;0.5596;-4.2371;
80709423659348;-27.3230;1.4100;17.3560;
80709433764921;-2.3979;2.2196;8.1479;
80709443871952;0.8791;-3.4241;-11.3659;
80709453977525;-8.2238;-6.8210;-5.2816;
80709464083098;-17.2475;-0.9257;0.4989;
80709474182265;-11.1847;1.5344;1.8069;
80709484287838;-2.5920;-0.8755;-1.3552;
80709494393410;-6.9805;-0.3051;-5.3318;
80709504502108;-11.6420;0.6769;-5.4419;
80709514607681;-9.9939;-0.5351;-2.8211;
80709524713254;-9.7184;-1.2969;0.0245;
80709534817473;-15.1490;0.4564;-3.5399;
80709544923046;-11.1317;0.1810;-3.2166;
80709555028619;-6.4008;-1.7689;-1.1683;
80709565136431;-7.0331;0.0087;4.3101;
80709575242004;-1.2458;-0.0224;9.0078;
80709585347577;-5.2508;-0.2620;-8.7646;
80709595456640;-19.7677;-1.8215;-22.2368;
80709605562213;-17.7936;-2.6982;-8.1009;
80709615667785;-4.7982;-0.9879;5.9270;
80709625767473;-2.3357;0.0948;-0.2366;
80709635873046;-10.0899;2.0518;-9.5429;
80709645978619;-18.9580;-0.4777;0.2737;
80709656067785;-11.1870;0.7992;9.0844;
80709666173358;-4.2449;0.7032;0.9063;
80709676278931;-5.6414;-0.9281;-3.4705;
80709686391848;-9.6443;-0.5471;-0.9766;
80709696497421;-14.1885;0.5883;-3.4561;
80709706603046;-16.2775;0.3296;-4.8048;
80709716709348;-11.7571;-0.5518;-1.6977;
80709726814921;-2.8361;-0.8850;0.3936;
80709736920546;-4.9995;-0.5638;-2.7781;
80709747033723;-11.3976;0.9165;-3.2596;
80709757139296;-13.1560;1.3789;0.6667;
80709767244869;-11.9007;1.7620;1.8523;
80709777348306;-8.0513;1.0938;-1.5637;
80709787453931;-7.3612;-0.7268;-2.8813;
80709797559556;-8.1398;0.2794;-2.0234;
80709807652473;-9.2130;0.3272;-2.2487;
80709817758098;-11.2828;0.2602;-4.2371;
80709827863775;-10.5784;0.0757;-4.0908;
80709837979400;-9.2560;-0.1711;-1.1157;
80709848085077;-10.0059;1.1847;-0.7612;
80709858190702;-7.5912;1.3430;-0.1860;
80709868297160;-7.4836;-0.1759;-1.0391;
80709878402785;-8.6955;0.1283;-3.8704;
80709888508410;-12.8112;-0.0033;-4.6729;
80709898602681;-8.5950;-0.5303;-2.1529;
80709908708306;-8.4392;-0.1567;0.2306;
80709918813931;-9.7376;1.1273;0.2091;
80709928921015;-10.5568;0.3416;-0.6628;
80709939026640;-10.2479;-0.0224;-1.6929;
80709949132265;-8.3937;-0.5518;-1.8224;
80709959270910;-10.2335;-0.8779;-2.6680;
80709969376535;-10.8371;-0.9497;-1.6020;
80709979482160;-9.1843;-0.6024;-0.1911;
80709989596223;-9.1699;-0.5638;-0.7875;
80709999701848;-11.2445;-0.3123;-1.5589;
80710009807473;-9.4956;0.2770;-1.8392;
80710019876640;-8.3865;-0.6311;-2.0186;
80710029982265;-8.9973;-0.5662;-2.4212;
80710040087890;-10.1785;-0.2716;-0.9885;
80710050225494;-9.9532;-0.6096;0.0461;
80710060331119;-12.0829;0.2794;-0.3203;
80710070436744;-8.4177;0.0494;-0.3945;
80710080519973;-7.4022;-0.5016;-2.1625;
80710090625598;-9.6443;-0.3652;-2.0716;
80710100731223;-10.1163;0.0996;-1.3313;
80710110837785;-8.7987;0.1020;-2.2534;
80710120943410;-9.5366;-0.4035;-3.7507;
80710131049088;-10.8876;-0.8297;-2.8860;
80710141144869;-8.8968;-0.4513;-1.4677;
80710151250494;-9.9030;-0.4681;-1.4557;
80710161356119;-10.4516;-0.1687;-1.0175;
80710171481119;-10.5401;0.3511;-1.8799;
80710181586744;-9.6849;-0.5231;-1.8105;
80710191692369;-9.0263;-0.5662;-1.5996;
80710201781119;-9.3879;-0.3580;-1.2595;
80710211886744;-12.9739;0.0852;-1.1779;
80710221992369;-11.6539;0.3607;-0.2868;
80710232104192;-6.9206;0.1211;-0.7011;
80710242209817;-6.4534;-0.2405;-3.0416;
80710252315442;-11.7978;-0.5160;-4.4381;
80710262433306;-12.4421;-0.3099;-2.0354;
80710272538931;-8.3267;0.2411;-0.7971;
80710282644608;-5.7996;-0.1065;-2.5744;
80710292760181;-8.3219;-0.5949;-3.7842;
80710302865806;-12.5189;-0.1926;-2.9746;
80710312971431;-11.2684;-0.3194;-1.2401;
80710323052785;-6.7098;-0.0296;-1.0822;
80710333158410;-8.4440;-0.7388;-2.4643;
80710343264035;-10.2311;-1.2156;-2.9722;
80710353372525;-8.6668;-0.2979;-2.7565;
80710363478150;-8.5376;-0.3724;-2.1434;
80710373583775;-10.3053;-0.2955;-2.0115;
80710383682369;-10.8924;0.5070;-1.2425;
80710393787994;-9.0981;-0.1113;-0.9790;
80710403893619;-8.6118;-0.7029;-2.8259;
80710414010910;-10.9546;-0.8441;-2.6417;
80710424116535;-11.4577;-0.2118;-0.9960;
80710434222160;-11.4482;-0.5040;-0.2007;
80710444330025;-11.0839;-0.2477;-0.1983;
80710454435650;-7.9866;-0.8970;-0.4304;
80710464541275;-8.6261;-0.7340;-1.6092;
80710474638775;-10.9905;0.1857;-1.4438;
80710484744400;-8.9327;0.7992;-0.4929;
80710494850025;-5.9934;0.2818;-2.3806;
80710504967681;-10.1354;-0.5136;-5.2935;
80710515073306;-11.0815;-0.0559;-3.6500;
80710525178931;-8.3554;0.1929;-0.7493;
80710535264348;-11.5630;0.7777;-0.8569;
80710545369973;-12.1570;0.7681;-0.1860;
80710555475598;-7.0044;0.9500;0.2928;
80710565585390;-5.8116;-1.0095;-0.9598;
80710575691015;-10.1450;-0.3051;-3.0248;
80710585796640;-11.3545;0.7418;-1.9804;
80710595917681;-8.9949;0.8279;-1.8416;
80710606023306;-10.0059;0.3846;-2.6154;
80710616128931;-9.8121;0.4181;-2.4476;
80710626225702;-9.4932;-0.6718;-2.5600;
80710636331327;-11.7093;-0.8898;-3.1902;
80710646436952;-11.5774;-0.5160;-1.2281;
80710656525702;-8.7748;-1.0980;-0.4352;
80710666631327;-6.6045;-0.1448;-0.9479;
80710676736952;-10.5520;-0.7747;-1.6307;
80710686848306;-11.9513;0.8303;-1.0080;
80710696953931;-9.6849;0.2363;-0.4208;
80710707059556;-9.9174;-0.1256;-1.0822;
80710717161223;-10.2407;0.3200;-0.6676;
80710727266848;-7.9771;-0.8608;-0.6389;
80710737372473;-9.3520;-0.2237;-4.8790;
80710747523202;-9.8169;-0.6024;-3.6117;
80710757628827;-9.5797;-0.3290;-2.7422;
80710767734452;-9.7424;0.1546;-1.8655;
80710777811588;-7.1145;0.1283;-1.7025;
80710787917265;-7.5147;0.1953;-2.2534;
80710798022890;-11.0671;-0.4059;-3.1014;
80710808133983;-11.2899;0.0039;-1.7503;
80710818239608;-8.7987;-0.3218;-1.3457;
80710828345233;-6.4941;-0.7196;-1.7049;
80710838440858;-6.9230;-0.1639;-2.6177;
80710848546483;-12.2530;-1.2156;-4.0071;
80710858652108;-13.0268;-0.9497;-2.1123;
80710868761223;-8.0034;-0.8731;0.5396;
80710878866848;-9.4597;-0.9616;-2.2391;
80710888972473;-12.4974;-0.3218;-1.1755;
80710899072681;-7.5793;-0.7962;2.1135;
80710909178306;-6.8752;-0.4872;-1.3385;
80710919283931;-13.8174;-0.1232;-3.8058;
80710929386848;-12.8231;-0.2022;-1.0558;
80710939492473;-8.1661;-0.3604;-1.0750;
80710949598098;-8.3028;-0.4848;-1.7551;
80710959720754;-8.9542;-0.6072;-0.5695;
80710969826379;-9.2874;0.4469;-2.1170;
80710979932004;-12.2291;0.0757;-2.7852;
80710990015077;-11.3139;0.3129;-1.1515;
80711000120702;-7.4261;0.0230;-0.9718;
80711010226327;-7.9675;-0.7842;-1.9349;
80711020339973;-10.5473;-0.5973;-2.5050;
80711030445598;-9.9269;0.8447;-1.5422;
80711040551223;-9.0048;0.6123;-0.8210;
80711050660285;-10.0226;0.6888;-1.5733;
80711060765910;-8.8753;0.8901;-1.1635;
80711070871535;-6.8680;-0.2094;-2.3423;
80711080975702;-7.8476;-0.1352;-4.3687;
80711091081327;-11.3904;0.1905;-3.8441;
80711101186952;-9.5486;0.2746;-1.5900;
80711111285806;-6.5925;0.6817;-2.2247;
80711121391431;-11.8959;-0.3027;-3.2357;
80711131497056;-16.1886;0.3559;-1.0654;
80711141609452;-12.0087;0.7968;2.0680;
80711151715077;-7.9890;-0.4561;1.3732;
80711161820702;-8.8394;-1.1964;-0.8186;
80711171922525;-10.0179;-0.8225;-0.4472;
80711182028150;-8.2382;-0.5112;-0.6604;
80711192133775;-8.0225;-0.5399;-3.1878;
80711202243515;-9.7639;-0.6885;-4.8694;
80711212349140;-11.4386;-0.9257;-4.5126;
80711222454765;-10.0346;-0.6311;-2.4787;
80711232560702;-9.6826;0.6434;-1.9445;
80711242666327;-9.1555;0.6290;-1.4198;
80711252771952;-8.7628;-0.5518;-0.4448;
80711262880442;-8.6859;-0.2620;-0.8498;
80711272986067;-10.4850;0.5070;-0.9191;
80711283091692;-9.9915;0.3081;-0.3538;
80711293214244;-8.5424;-0.2381;-1.2305;
80711303319869;-10.1665;-0.6359;-2.0931;
80711313425494;-12.4783;-0.9951;-1.9756;
80711323508410;-10.9881;0.5668;-1.0606;
80711333614035;-6.8007;-0.4681;-1.7456;
80711343719660;-8.6931;-2.2337;-5.0994;
80711353831327;-12.8566;-2.0061;-6.2061;
80711363936952;-9.4382;-1.2179;-2.9674;
80711374042577;-7.7566;-0.1663;-1.8081;
80711384150077;-9.2536;0.1642;-1.3792;
80711394255702;-10.0035;0.7537;-0.2294;
80711404361327;-10.6983;0.9476;-0.1430;
80711414469973;-9.3927;0.8231;-0.7349;
80711424575598;-8.5161;0.2459;-1.4821;
80711434681223;-8.1709;-1.1052;-1.7360;
80711444782160;-8.4849;-1.1868;-3.2022;
80711454887785;-11.3474;-1.3974;-3.7866;
80711464993410;-11.3521;-0.5614;-2.2104;
80711475102785;-8.6501;-0.8130;-1.0415;
80711485208410;-8.0082;-0.3556;-2.8884;
80711495314035;-8.8968;-0.2405;-3.3912;
80711505409035;-9.6754;0.0039;-1.4438;
80711515514660;-12.5189;0.1977;-0.1911;
80711525620285;-13.1417;-0.4657;-0.8210;
80711535740754;-12.2243;-0.4825;-1.2473;
80711545846379;-9.1460;-1.0167;0.3407;
80711555952004;-9.8456;-1.1171;0.2306;
80711566052369;-9.2803;-0.6909;-0.6652;
80711576157994;-7.9098;0.0063;-1.0726;
80711586263619;-9.5004;-0.6191;-3.1038;
80711596376223;-10.9977;0.2913;-2.6130;
80711606481848;-9.4502;0.7343;-1.2497;
80711616587473;-8.0632;0.3511;-1.7815;
80711626684556;-7.2799;-0.0033;-3.7196;
80711636790181;-9.7854;-0.8536;-2.9243;
80711646895806;-11.8720;0.4854;-1.3887;
80711656986119;-7.9436;0.6529;-0.4642;
80711667091744;-5.7371;-0.4155;-2.0115;
80711677197369;-5.1000;-0.5471;-4.7450;
80711687311119;-7.2535;-0.9999;-5.8229;
80711697416744;-12.1594;-0.3170;-4.6896;
80711707522369;-11.3354;0.8638;-0.0568;
80711717620806;-9.4573;0.7319;0.6978;
80711727726431;-10.3439;-0.8536;-1.7145;
80711737832056;-12.8471;-1.3926;-3.4801;
80711747929348;-11.2158;-1.4408;-0.6939;
80711758034921;-7.3397;-1.4384;-0.0784;
80711768140598;-10.3101;-2.0731;-2.2080;
80711778267004;-12.0015;-1.3400;-2.0764;
80711788372629;-12.7896;-0.2453;-0.3132;
80711798478202;-10.7079;0.6505;1.2392;
80711808574504;-5.6246;0.4493;1.8428;
80711818680129;-6.5133;-0.7507;-2.1051;
80711828785702;-11.0408;-0.6383;-3.0344;
80711838919244;-11.9294;-0.0921;-3.2213;
80711849024869;-12.4445;-0.3748;-2.6800;
80711859130442;-10.1163;-0.3700;-0.4618;
80711869214660;-4.8652;-0.8154;-1.6522;
80711879320285;-9.4095;-1.2371;-4.5293;
80711889425858;-13.7836;-0.2429;-0.9000;
80711899536119;-9.1890;0.8566;3.5291;
80711909641744;-5.6605;0.7944;0.9805;
80711919747369;-8.2454;-0.3485;-2.6321;
80711929836431;-10.3654;-0.1878;-3.2309;
80711939942056;-11.5534;0.4516;-2.5528;
80711950047681;-11.6109;-0.6335;-3.8800;
80711960152265;-11.7236;-0.4992;-4.1459;
80711970257890;-10.4659;-1.2658;-2.4356;
80711980363515;-9.1101;-0.5016;-0.7059;
80711990480806;-7.9265;-0.1783;-0.9861;
80712000586431;-8.0895;-0.2213;-0.9909;
80712010692004;-8.2932;0.1427;-2.1912;
80712020805285;-11.8002;-0.6957;-3.6742;
80712030910910;-11.3210;0.1977;-2.7254;
80712041016535;-7.5649;-0.4681;-1.4581;
80712051107369;-9.0191;-1.1462;-1.4318;
80712061212994;-8.7987;-0.4202;-1.2858;
80712071318567;-7.8356;-0.6287;-2.2606;
80712081431535;-11.2923;-1.2969;-5.2406;
80712091537160;-13.0508;-0.8010;-3.3936;
80712101642733;-8.8872;-0.1137;0.6308;
80712111748619;-7.5649;-0.8803;-0.4352;
80712121854244;-10.3125;-1.4934;-3.4609;
80712131959869;-13.1752;-1.1725;-1.2281;
80712142068931;-12.5524;-0.1041;0.7361;
80712152174556;-8.6931;-0.4992;0.2665;
80712162280129;-7.8284;-1.5245;-1.7886;
80712172388098;-10.7725;-0.4250;-1.9181;
80712182493723;-8.0584;-0.4992;-1.7001;
80712192599348;-8.5304;-0.5710;-5.6839;
80712202705077;-12.2578;-1.0573;-5.4514;
80712212810702;-11.7452;0.1570;-0.5240;
80712222916275;-8.9064;1.5248;0.8174;
80712233021275;-8.3076;1.1273;-1.4509;
80712243126900;-7.8404;0.1283;-1.0702;
80712253232473;-8.9375;-0.4418;-1.1061;
80712263346119;-9.2106;0.4205;-2.4045;
80712273451744;-8.1422;0.2865;-2.6273;
80712283557369;-9.6682;0.5883;-3.0751;
80712293669608;-9.6826;1.0268;-2.7182;
80712303775233;-7.8380;0.8806;-2.2630;
80712313880806;-9.7496;-0.0009;-3.2070;
80712323991223;-10.1450;0.4926;-3.8010;
80712334096848;-9.2393;1.2709;-2.3782;
80712344202421;-9.0144;0.7247;-2.1936;
80712354296535;-9.7902;0.7609;-2.4739;
80712364402160;-9.5821;1.1728;-2.3997;
80712374507733;-10.9307;1.1608;-3.2836;
80712384603723;-11.2780;0.5046;-1.9038;
80712394709348;-9.1962;0.8662;-0.5719;
80712404814921;-9.0503;1.2494;-1.1970;
80712414928723;-11.2636;1.2589;-0.5886;
80712425034348;-10.5401;1.1273;-0.2390;
80712435139921;-9.6802;0.4540;-1.2305;
80712445242473;-10.3268;-0.1376;-2.2630;
80712455348098;-10.4516;-0.8512;-2.7230;
80712465453671;-8.0249;-0.4131;-1.9995;
80712475552681;-10.2694;-0.3290;-1.7743;
80712485658306;-8.9351;-0.2644;-2.1553;
80712495763931;-7.6944;0.5429;-3.1158;
80712505875390;-8.3842;0.4253;-2.1745;
80712515981015;-6.5396;-0.4298;-0.9502;
80712526086588;-9.0694;-0.4753;-3.3027;
80712536177525;-9.9389;-0.7747;-3.1543;
80712546283150;-12.3535;-0.5351;-1.8607;
80712556388723;-8.8011;-0.1232;-2.3109;
80712566502369;-6.7600;-1.1004;-2.9148;
80712576607994;-11.8672;-0.6909;-1.9325;
80712586713567;-11.1942;-0.4513;-0.6437;
80712596828827;-8.1206;-0.5040;-3.3697;
80712606934452;-10.6193;-1.3902;-4.3017;
80712617040025;-9.9413;-1.4145;-0.7325;
80712627138202;-8.3339;-0.0535;-1.6881;
80712637243827;-7.9795;-0.5542;-2.7613;
80712647349400;-8.8896;-1.4527;-3.1229;
80712657508619;-12.0087;-0.4035;-3.6188;
80712667614192;-11.3689;0.1140;-1.6929;
80712677719817;-8.8059;-0.7053;-1.0558;
80712687758098;-9.6203;-1.0765;-3.3099;
80712697863723;-11.8672;-0.8608;-2.4308;
80712707969348;-11.9608;-2.1138;1.5123;
80712718102681;-4.7982;-0.6766;-0.0927;
80712728208306;-6.0894;0.3631;-3.2692;
80712738313879;-7.2224;-1.5054;-3.2931;
80712748390338;-2.9512;-0.1232;-3.3649;
80712758495963;2.9225;0.1044;-9.4424;
80712768601535;-2.6423;-0.2596;-11.4114;
80712778715806;-29.4383;0.6721;-4.2897;
80712788821327;-42.1630;1.0460;17.7129;
80712798926900;-7.3950;3.5898;21.0404;
80712809061692;9.1747;5.5134;-4.9316;
80712819167213;-3.4424;-5.2113;-11.4114;
80712829272785;-10.7773;-7.0173;-6.2180;
80712839352317;-11.3569;-1.0047;-0.7202;
80712849457838;-10.5209;1.9729;0.4439;
80712859563410;-7.5482;2.0638;-3.7579;
80712869705285;-2.4697;0.5046;-6.2707;
80712879810806;-10.7653;-0.5853;-5.0324;
80712889916379;-36.8187;0.6625;4.4515;
80712899995285;-25.6415;2.9001;17.0519;
80712910100858;6.6811;-0.9018;0.1971;
80712920206379;0.5031;-8.8666;-6.2204;
80712930323827;-15.4196;-3.2539;-0.6915;
80712940429348;-12.2602;1.0627;-0.8498;
80712950534921;-4.8461;-0.3099;-4.1291;
80712960626952;-8.3052;0.3535;-7.6768;
80712970732473;-9.7687;1.5778;-3.9520;
80712980838046;-8.6166;0.8399;-1.7432;
80712990937369;-8.0680;0.7223;-2.0836;
80713001042942;-6.3362;1.3717;-0.2557;
80713011148463;-7.3780;1.0986;3.6706;
80713021254765;-2.0192;1.5033;7.0986;
80713031360338;-1.4587;-0.2644;-11.7661;
80713041465858;-24.4555;-0.8922;-34.1590;
80713051590598;-23.0758;-3.2252;-14.4156;
80713061696119;1.6768;-2.4924;16.4650;
80713071801692;1.4949;-1.9196;7.7189;
80713081894765;-12.7319;1.9298;-11.8451;
80713092000338;-14.5358;2.9384;-0.1911;
80713102105858;-9.5988;0.5046;8.1814;
80713112211015;-8.8633;1.7405;0.0846;
80713122316535;-9.7567;1.8963;0.6978;
80713132422108;-6.4104;-0.8297;1.4067;
80713142526015;-8.0273;-2.0061;-15.1173;
80713152631588;-21.1905;-3.7235;-23.3578;
80713162737108;-13.4483;-2.6719;-1.8823;
80713172855442;-0.1726;0.2985;9.1059;
80713182960963;-9.1220;1.9466;-3.0296;
80713193066535;-15.2737;2.5884;-1.9349;
80713203164140;-12.2722;2.5932;7.2470;
80713213269660;-9.8025;3.1875;4.2215;
80713223375233;-8.5759;-0.0344;-1.4988;
80713233480390;-8.2430;-1.4551;-1.1300;
80713243585963;-9.6802;-0.8994;0.1780;
80713253691483;-9.9628;0.0733;-3.3266;
80713263794608;-8.6142;-0.2500;-4.5269;
80713273900129;-7.5649;0.3823;-3.6571;
80713284005702;-8.1446;1.0890;-3.2883;
80713294128202;-7.6657;1.7237;-3.1639;
80713304233723;-8.8920;1.2039;-2.1601;
80713314339296;-7.5218;1.6759;-3.5614;
80713324435598;-9.6682;0.1116;-5.2669;
80713334541171;-12.3320;-0.9951;-1.7503;
80713344646692;-8.9351;-0.2022;0.9063;
80713354750025;-10.7701;-0.1400;-0.2151;
80713364855546;-10.3750;-0.6694;1.2320;
80713374961119;-8.6237;-0.6407;1.1240;
80713385065910;-8.1589;-1.4958;0.6066;
80713395171431;-10.4970;-2.4108;-1.5326;
80713405277004;-12.2435;-2.3821;-2.8379;
80713415385598;-10.1402;-2.8373;-1.9947;
80713425491119;-8.5328;-2.9043;-2.6776;
80713435596692;-9.6515;-1.8024;-3.0344;
80713445697525;-8.3339;-2.4036;-1.2619;
80713455803046;-6.7744;-1.2179;-3.1735;
80713465908619;-7.3708;-0.8010;-4.8814;
80713476016848;-5.2558;-0.5255;-6.2946;
80713486122369;1.6696;-0.3099;-7.9379;
80713496227942;-2.6686;-0.6837;-10.4270;
80713506329556;-24.6664;-0.1017;-6.5294;
80713516435077;-42.9823;4.4665;9.1298;
80713526540650;-24.8653;8.1724;15.6721;
80713536645598;5.1766;-1.6394;1.6104;
80713546751119;3.4759;-5.1610;16.3594;
80713556856692;-12.4421;-0.5183;3.7161;
80713566962994;-14.4712;3.0150;-4.4142;
80713577068567;-2.7763;-0.8130;-4.7016;
80713587174088;-3.7633;0.1570;-13.1842;
80713597277890;-9.3185;0.9667;-14.9402;
80713607383410;-6.6954;-0.5973;-8.5825;
80713617488983;-5.2412;-0.2548;-8.5107;
80713627615494;-8.9542;-0.5040;-6.2396;
80713637721015;-19.3914;-0.6933;-1.6379;
80713647826588;-23.2149;0.0900;7.4865;
80713657907265;-4.6448;-1.0789;6.3918;
80713668012785;0.5773;-1.5700;3.9843;
80713678118358;-13.4363;-1.0549;5.9991;
80713688261223;-13.7620;-0.8273;1.2846;
80713698366744;-4.4892;-0.7005;-1.5227;
80713708472317;-6.0583;0.2100;-5.9665;
80713718536848;-10.2455;0.9021;-10.4151;
80713728642369;-9.3473;-0.4681;-7.8709;
80713738747942;-8.3148;0.6482;-4.7160;
80713748853358;-8.0417;1.7237;-4.1052;
80713758958879;-8.7485;2.7897;1.3397;
80713769064452;-4.7934;4.1527;9.7071;
80713779182890;-2.8265;0.8734;0.0413;
80713789288567;-14.5143;-2.9402;-17.6423;
80713799394244;-23.0949;-5.7981;-22.2009;
80713809501848;-11.8457;-4.7369;-9.5022;
80713819607525;-1.7991;-1.9798;3.5339;
80713829713254;-5.3037;0.4110;2.9327;
80713839817785;-12.4517;3.9685;1.3540;
80713849923463;-13.0388;3.9395;5.6850;
80713860029192;-10.2191;2.5621;7.0890;
80713870130858;-8.8992;1.5826;2.3626;
80713880236535;-10.3822;1.4148;1.0594;
80713890342265;-7.0475;0.0972;2.2382;
80713900447890;-6.3793;-1.4982;-6.3643;
80713910553567;-11.9007;-4.4710;-16.5667;
80713920659296;-16.1647;-7.3600;-16.7486;
80713930793567;-16.1647;-5.5322;-3.9616;
80713940899244;-5.8140;1.2039;7.6519;
80713951004921;-1.7198;5.2116;4.1234;
80713961088723;-9.4143;3.3359;0.8294;
80713971194400;-12.0063;2.2675;3.8551;
80713981300129;-10.5616;2.0231;1.4716;
80713991403931;-9.6156;0.6434;-1.6427;
80714001509608;-8.2214;-1.1462;-1.7360;
80714011615338;-8.6548;-1.3926;-2.0569;
80714021723931;-9.7878;-1.0095;-3.1711;
80714031829608;-9.5195;-0.7101;-3.9736;
80714041935338;-9.8982;-0.3556;-2.9004;
80714052044140;-9.1866;0.5524;-1.9684;
80714062149817;-10.1593;0.5094;-1.7264;
80714072255546;-9.5315;0.8925;-1.8918;
80714082348202;-8.4392;0.0541;-1.6211;
80714092453879;-6.2713;-0.5495;-1.8057;
80714102559608;-9.4741;-1.4647;-2.3471;
80714112674348;-12.1953;-0.0224;-1.1037;
80714122780025;-11.8217;0.8518;-0.9984;
80714132885754;-11.7141;-0.2524;-0.0927;
80714142990025;-10.3893;-0.4777;-0.5097;
80714153095702;-10.1641;-0.2477;-1.1133;
80714163201431;-7.0546;-0.7962;-1.0965;
80714173306431;-8.0752;0.1570;-3.2022;
80714183412108;-11.5415;0.5429;-3.3529;
80714193517838;-9.8791;1.5368;-3.1735;
80714203620598;-8.1637;0.4205;-3.1591;
80714213726275;-9.8432;0.1116;-3.6595;
80714223832004;-11.6348;0.3176;-2.2152;
80714233945702;-9.0168;0.9858;-1.0845;
80714244051379;-8.2813;0.1929;-0.3730;
80714254157108;-9.1484;0.4014;-1.6475;
80714264263098;-10.3487;0.2195;-0.9837;
80714274368775;-10.2694;-0.1400;-0.9359;
80714284474504;-10.2239;-0.2094;-1.3768;
80714294597890;-8.3746;0.1546;-1.3792;
80714304703567;-7.9914;-0.2333;-1.6283;
80714314809244;-9.4597;-0.2285;-1.9014;
80714324897942;-10.1498;0.9069;-2.9291;
80714335003619;-12.3009;0.7777;-1.0869;
80714345109348;-9.3066;1.1991;-0.4065;
80714355210858;-9.1484;-0.1878;-0.5503;
80714365316535;-9.3760;-0.1232;-0.5384;
80714375422265;-9.5315;-0.0296;-0.9311;
80714385527785;-9.6706;0.3129;-0.2031;
80714395633463;-10.1091;0.1810;-0.6963;
80714405739192;-9.1364;0.0900;-1.3074;
80714415850858;-8.2932;-0.7340;-3.0751;
80714425956535;-9.8264;-0.5590;-3.5327;
80714436062265;-11.4147;-0.2740;-2.7876;
80714446170806;-11.8887;0.3846;-1.2595;
80714456276483;-6.9900;-0.8058;-0.5791;
80714466382213;-6.2450;-1.2251;-2.9315;
80714476473931;-10.7103;-1.0932;-3.0966;
80714486579608;-14.5047;0.5381;-1.9469;
80714496685338;-13.1417;0.1594;0.3335;
80714506785598;-10.3606;-0.4035;-0.5432;
80714516891275;-8.1494;-1.2156;-0.9239;
80714526997004;-10.4157;-0.2285;-1.2882;
80714537105442;-11.4817;-0.4872;-0.6389;
80714547211119;-9.2297;0.9069;-2.4691;
80714557316796;-8.1661;-0.6742;-2.0330;
80714567440077;-8.6979;0.1762;-4.0860;
80714577545754;-9.1795;-0.9042;-4.6131;
80714587651431;-9.6108;0.2483;-4.5221;
80714597744296;-8.5735;-0.7412;-4.1794;
80714607849973;-8.9327;-0.1615;-4.3759;
80714617955650;-10.8852;-0.9090;-1.9780;
80714628059348;-11.4048;0.5979;-1.8535;
80714638165077;-9.9724;0.0422;0.8701;
80714648270754;-8.8801;-0.2261;-1.3433;
80714658361119;-9.9317;-0.1137;-1.7408;
80714668466796;-10.4181;-0.1017;-1.9493;
80714678572525;-11.6949;0.5477;-2.2965;
80714688704556;-16.7854;0.6290;-0.9718;
80714698810233;-24.2809;1.5610;2.0967;
80714708915963;-25.9959;-0.6072;6.9763;
80714719002369;-18.6395;-2.2983;9.6257;
80714729108046;-7.6992;-2.1760;10.9050;
80714739213775;-1.1569;-1.0549;7.8724;
80714749323931;-0.1750;1.2494;-1.9899;
80714759429608;-0.9727;2.0423;-9.8617;
80714769535285;-1.4300;2.5358;-15.2874;
80714779639556;-2.3859;2.4640;-15.9580;
80714789745181;2.3716;1.7859;-18.0948;
80714799850806;3.3105;0.0733;-16.6122;
80714809951223;-1.7919;-1.0286;-13.5194;
80714820056848;-4.4701;-0.9425;-8.2328;
80714830162473;-2.9321;-2.0396;-1.7456;
80714840271275;-1.4133;-1.4336;2.1087;
80714850376900;-2.8890;-1.3161;3.4095;
80714860482525;-5.3109;0.1881;3.1890;
80714870588931;-7.1578;0.7056;1.3181;
80714880694556;-7.5386;0.9021;-0.0855;
80714890800181;-7.2607;2.0016;-0.8713;
80714900911640;-6.5659;1.4124;-1.2138;
80714911017265;-5.5816;1.8365;-1.5374;
80714921122890;-5.3994;1.7907;-0.6173;
80714931242160;-8.2884;0.3176;0.5468;
80714941347785;-12.7415;-0.4920;-0.4041;
80714951453410;-24.2231;-9.8178;-3.4490;
80714961545702;-28.9783;0.0972;6.1235;
80714971651327;6.2931;1.8939;19.5096;
80714981756952;-12.8088;-5.8627;15.0299;
80714991865598;-25.7300;6.8070;3.6179;
80715001971223;-15.0221;-0.3772;5.2086;
80715012076848;-1.5715;-2.5857;-1.0295;
80715022177473;-8.7748;1.4865;-3.4537;
80715032283098;-21.0299;2.1359;-7.3199;
80715042388723;-12.1546;4.3828;-8.5370;
80715052504348;-4.1970;3.4893;-7.2888;
80715062609973;-7.9193;1.9896;-7.0325;
80715072715598;-13.9968;-1.8311;-5.2047;
80715082826744;-10.5090;-3.2683;-4.7016;
80715092932369;-6.3290;-4.6388;-1.8153;
80715103037994;-7.9340;-2.6599;0.5348;
80715113140806;-10.4635;-0.9497;0.8151;
80715123246431;-9.4071;-0.0631;2.6668;
80715133352056;-7.5960;0.7032;3.9150;
80715143446692;-7.2368;0.6027;4.2335;
80715153552317;-8.0345;0.3679;3.9915;
80715163657942;-9.8312;1.4339;2.5591;
80715173765390;-10.6023;0.8782;1.8308;
80715183871015;-10.0780;0.5357;1.7471;
80715193976640;-9.2803;0.8638;1.4716;
80715204081431;-9.6419;1.3071;0.7576;
80715214187056;-9.9221;1.6184;0.4941;
80715224292681;-9.4047;1.7094;1.1865;
80715234395806;-7.9098;2.0734;1.3564;
80715244501431;-8.6070;0.9141;1.2775;
80715254607056;-10.6217;0.7104;1.1770;
80715264722056;-10.2670;1.9274;1.0140;
80715274827681;-7.6729;1.1010;1.7901;
80715284933306;-9.8551;1.1536;0.9948;
80715295022890;-9.6347;2.3611;0.7600;
80715305128515;-8.4009;2.3177;0.8967;
80715315234140;-9.7256;2.0231;-0.1935;
80715325359035;-11.7117;1.0268;0.2426;
80715335464660;-8.7365;0.1140;1.0690;
80715345570285;-6.5731;-1.5150;1.1264;
80715355670598;-8.3148;-1.1124;1.2559;
80715365776223;-7.1889;-0.4633;0.1421;
80715375881848;-6.7026;-0.8034;-0.9191;
80715385990025;-7.6801;0.7343;-2.6321;
80715396095650;-9.5315;-0.7244;-3.7651;
80715406201275;-7.3828;-1.3496;-0.3132;
80715416319035;4.9612;-1.3256;-12.9494;
80715426424660;-22.4148;0.8016;-55.0744;
80715436530285;-38.1362;1.1321;-30.2689;
80715446621640;4.5156;0.0230;2.0321;
80715456727265;12.0996;-5.5178;6.7654;
80715466832890;-12.4854;-6.2797;3.7711;
80715476959035;-33.0844;-4.8951;5.3306;
80715487064660;-12.6506;-3.4122;9.6688;
80715497170285;-0.3832;-3.9488;3.6323;
80715507249765;-14.4138;-2.3270;-3.8106;
80715517355390;-13.9346;-0.3772;-0.2055;
80715527461015;-6.0341;0.1786;0.8366;
80715537621952;-5.1838;1.1489;-4.2132;
80715547727577;-9.2489;0.6864;-5.5376;
80715557833202;-10.1761;1.8003;-4.5963;
80715567883306;-7.4931;3.0078;-5.0970;
80715577988931;-7.2392;3.1540;-4.5891;
80715588094556;-8.9231;3.4175;-3.8345;
80715598248098;-9.0168;2.8352;-2.9483;
80715608353723;-9.1412;1.9466;-1.8416;
80715618459348;-11.1150;1.8365;-1.3744;
80715628534088;-8.4583;2.4664;0.0437;
80715638639713;-8.4392;3.1971;0.2378;
80715648745338;-10.3822;3.6066;0.5228;
80715658841692;-9.6443;4.1719;1.6056;
80715668947317;-9.6610;4.3540;0.3287;
80715679052942;-10.1115;2.9862;-1.0343;
80715689167994;-9.2731;2.1024;-0.9574;
80715699273619;-10.2694;1.1010;-0.9215;
80715709379244;-10.4204;0.0924;-0.5480;
80715719469869;-8.1398;-1.3184;-0.0233;
80715729575494;-8.8657;-2.0827;-1.1420;
80715739681119;-9.7041;-1.6971;-2.7230;
80715749790702;-9.8862;-1.5030;-3.0272;
80715759896327;-12.0254;-0.8779;-2.4404;
80715770001952;-9.8504;-0.9855;-1.6140;
80715780104452;-9.1149;-1.9077;-1.1133;
80715790210077;-8.4488;-1.7737;-1.8727;
80715800315858;-10.3101;-1.2371;-3.1110;
80715810403931;-13.4124;-0.4657;-2.2726;
80715820509608;-8.8537;-0.1639;-0.4161;
80715830615285;-7.3636;-0.5351;-2.0812;
80715840732108;-9.6203;-0.5997;-2.7159;
80715850837733;-10.4109;0.1116;-2.4356;
80715860943515;-8.8633;-0.2979;-3.3099;
80715871052785;-10.2263;-0.4681;-4.3065;
80715881158463;-9.4741;0.5716;-4.3998;
80715891264192;-7.0451;-0.0873;-4.3759;
80715901371015;-10.6193;-0.4920;-4.4022;
80715911476692;-10.4803;0.4014;-3.3864;
80715921582369;-7.6944;0.3559;-2.2582;
80715931719921;-8.6501;-0.9951;-2.7637;
80715941825598;-11.4601;0.1451;-3.5040;
80715951931275;-8.8777;0.0948;-1.3217;
80715962009035;-7.6487;-1.3926;-2.1051;
80715972114713;-9.7902;-0.8441;-4.1124;
80715982220442;-10.3463;-0.7962;-2.6369;
80715992324869;-8.3267;-0.8827;-2.0067;
80716002430546;-10.1737;-1.3735;-3.7771;
80716012536223;-10.6648;-0.8803;-2.5744;
80716022637108;-9.1747;-0.2596;-1.6834;
80716032742785;-8.7242;-0.2261;-1.6570;
80716042848515;-10.2957;-0.3867;-1.9397;
80716052973827;-10.0633;-0.0105;-2.1960;
80716063079504;-10.4707;-0.2285;-2.0402;
80716073185233;-11.3689;-0.7101;-2.2798;
80716083277525;-12.0541;0.3368;-2.7302;
80716093383202;-7.9555;0.2483;-1.5446;
80716103488931;-7.5314;0.1690;-2.3204;
80716113595598;-10.6122;-0.7053;-3.4609;
80716123701275;-8.7099;0.3703;-2.8259;
80716133806952;-7.2631;0.5357;-3.9063;
80716143917108;-11.3976;-0.0033;-4.7088;
80716154022785;-9.2369;-0.0921;-3.5758;
80716164128463;-9.7376;-0.9975;-3.0703;
80716174227681;-8.9255;-1.3663;-2.8837;
80716184333358;-7.1363;-0.7699;-2.0426;
80716194439035;-9.0048;-1.3328;-3.6356;
80716204546275;-9.3616;-1.1339;-4.4934;
80716214651952;-9.0622;-0.9497;-3.8871;
80716224757629;-9.0359;-1.2826;-2.9961;
80716234859765;-7.5649;-2.0468;-3.6790;
80716244965442;-10.3941;-1.9702;-5.6049;
80716255071171;-8.0321;-0.7627;-3.4131;
80716265179765;-8.7171;-1.7665;-2.9674;
80716275285442;-10.7797;-2.0515;-4.3902;
80716285391119;-9.8097;-0.7986;-2.9626;
80716295509556;-9.8097;-0.9736;-2.2367;
80716305615233;-8.1159;-0.8297;-1.4677;
80716315720910;-8.1230;-0.7938;-3.2907;
80716325817994;-9.4693;-0.7890;-4.0406;
80716335923671;-10.4324;-1.1509;-3.3003;
80716346029348;-10.2861;-0.2907;-3.2979;
80716356127785;-9.1484;-0.9760;-3.5782;
80716366233463;-7.7279;-1.0502;-3.9377;
80716376339140;-8.8059;-1.2084;-4.6346;
80716386452369;-10.2024;-0.4346;-4.1028;
80716396558046;-9.6586;-1.0549;-2.6943;
80716406663723;-8.8298;-1.2203;-2.8908;
80716416772890;-10.3822;-1.1725;-1.8631;
80716426878567;-10.1019;-1.2156;-2.1553;
80716436984244;-10.2168;-0.6407;-2.6441;
80716447074192;-7.5888;-0.8970;-3.0655;
80716457179869;-9.5940;-0.8201;-3.4825;
80716467285546;-10.2479;-0.1519;-2.7015;
80716477388619;-9.0144;0.3775;-3.3601;
80716487494296;-8.2190;-0.2788;-4.1100;
80716497599973;-9.9006;0.0565;-4.6490;
80716507696327;-9.9724;-0.1615;-3.5399;
80716517802004;-8.6692;0.2985;-3.1014;
80716527907681;-8.3554;0.0015;-3.2836;
80716538045858;-9.2201;0.4301;-3.1926;
80716548151588;-9.5438;0.8662;-3.2309;
80716558257265;-9.0670;0.5883;-3.7436;
80716568339244;-8.3411;0.4660;-3.9592;
80716578444921;-8.0656;-0.4442;-4.3232;
80716588550598;-9.4071;0.1642;-4.2610;
80716598691015;-8.9088;0.2770;-2.9530;
80716608796692;-8.3507;0.5931;-4.0621;
80716618902369;-9.7711;-0.8225;-4.4982;
80716628974556;-8.3291;-0.3915;-3.8249;
80716639080233;-9.2178;-1.0478;-4.1818;
80716649185963;-9.6945;-1.5102;-3.5231;
80716659314765;-9.6299;-2.1568;-1.6642;
80716669420442;-9.7232;-1.3663;-2.5050;
80716679526119;-9.2369;-1.3687;-2.0692;
80716689658515;-8.8681;-1.7569;-2.9387;
80716699764192;-10.8562;-2.5762;-3.3171;
80716709869921;-11.3354;-1.4838;-2.1075;
80716719925025;-9.2010;-1.1052;-1.9277;
80716730030650;-8.9830;-0.9042;-3.6981;
80716740136431;-8.9662;-2.2648;-3.8560;
80716750244452;-8.7171;-1.1940;-5.1664;
80716760350129;-10.6098;-1.3543;-4.4357;
80716770455858;-9.3664;-0.8225;-3.2979;
80716780557473;-7.1818;-1.1821;-3.6861;
80716790663098;-7.6777;-0.9449;-4.3400;
80716800768671;-9.1364;-1.4049;-5.3533;
80716810904765;-10.3292;-0.6550;-3.9640;
80716821010338;-9.3832;-0.4107;-2.1840;
80716831115963;-7.8667;-0.5638;-3.7388;
80716841192473;-8.1494;-0.3915;-3.5614;
80716851298098;-7.6633;-0.3290;-3.8345;
80716861403671;-8.4535;-0.3843;-5.2645;
80716871509035;-10.4970;-0.7603;-5.5041;
80716881614608;-10.4683;0.4062;-3.9640;
80716891720233;-8.3459;0.8231;-2.5289;
80716901832108;-7.7590;0.6864;-3.1783;
80716911937681;-8.9495;0.5381;-3.3386;
80716922043306;-9.0646;0.2913;-4.0406;
80716932152056;-8.3554;0.8064;-3.8895;
80716942257629;-9.3281;0.3081;-4.3448;
80716952363254;-9.2106;0.4325;-4.7665;
80716962471952;-9.3209;0.4735;-3.9544;
80716972577525;-9.6897;0.1666;-4.3256;
80716982683150;-11.3713;0.2459;-4.4767;
80716992787056;-9.9197;-0.2788;-3.0057;
80717002892629;-8.2884;0.1283;-3.8106;
80717012998254;-9.4071;0.2554;-3.2907;
80717023107265;-10.0155;0.4110;-2.8187;
80717033212838;-9.7591;-0.3290;-3.0799;
80717043318463;-10.4276;-0.8417;-3.8489;
80717053433931;-9.8408;-0.1663;-4.2993;
80717063539504;-10.2191;-0.5590;-2.8307;
80717073645129;-8.7461;-0.0631;-3.1301;
80717083735181;-7.8787;-0.6598;-2.8908;
80717093840754;-8.4272;-0.9353;-4.2084;
80717103946379;-8.8537;-0.2189;-4.6801;
80717114053306;-9.3879;-0.1783;-4.3711;
80717124158931;-10.1569;-0.3123;-5.0922;
80717134264504;-10.9164;0.5333;-2.4021;
80717144382265;-8.6501;0.5357;-1.3265;
80717154487838;-9.2584;-0.5495;-3.4490;
80717164593463;-9.9341;-0.0511;-3.1086;
80717174690025;-9.8049;0.6003;-3.2142;
80717184795650;-8.0943;0.4783;-4.0956;
80717194901223;-9.7998;0.1379;-3.8776;
80717205007056;-9.4884;0.8782;-4.0908;
80717215112681;-7.4692;1.2975;-4.9029;
80717225218254;-9.0598;0.3990;-5.5427;
80717235323306;-8.6405;1.6807;-6.1893;
80717245428879;-8.5902;1.2808;-4.6394;
80717255534504;-9.0144;0.7825;-5.0755;
80717265641640;-10.3989;1.0890;-4.3998;
80717275747213;-9.4860;-0.3939;-2.0258;
80717285852838;-10.3053;-0.3772;-3.0894;
80717295940181;-9.6538;-0.2548;-2.7111;
80717306045754;-8.8370;-0.7388;-1.9229;
80717316151379;-8.8394;-1.3041;-2.0378;
80717326281223;-6.7313;-1.0047;-4.0813;
80717336386796;-9.1747;-0.2548;-4.8024;
80717346492421;-9.3999;-0.5638;-3.6308;
80717356589035;-8.4081;-0.3147;-4.2060;
80717366694608;-7.2846;0.6314;-3.4490;
80717376800233;-7.2081;-0.7412;-4.6609;
80717386899140;-8.8537;-0.6526;-4.9866;
80717397004713;-9.3592;-1.5317;-4.3687;
80717407110338;-12.3559;-2.2146;-2.6704;
80717417224869;-14.6533;-2.9521;-0.9694;
80717427330442;-10.5066;-2.8134;2.1206;
80717437436067;-6.4152;-2.7197;0.1038;
80717447576848;-7.3998;-2.1640;-3.4131;
80717457682421;-8.7266;-2.1497;-3.1181;
80717467788046;-8.9518;-2.5259;-3.4346;
80717477845390;-7.7040;-1.6633;-4.7641;
80717487951015;-7.5482;-2.3414;-6.4983;
80717498056588;-9.5124;-2.7173;-4.5365;
80717508203410;-7.8428;-2.9521;-4.5748;
80717518308983;-9.3233;-3.0410;-3.8895;
80717528414608;-9.0096;-2.9856;-2.3853;
80717538490077;-9.7352;-3.0458;-2.1912;
80717548595650;-11.7667;-2.1114;-1.1731;
80717558701275;-13.3669;-2.2528;0.8198;
80717568808410;-11.0910;-1.7593;2.3387;
80717578913983;-8.0513;-1.2156;0.6066;
80717589019608;-9.1364;-0.7029;-1.7599;
80717599147681;-9.1723;-0.1519;-3.5614;
80717609253254;-8.4416;-0.0535;-3.0846;
80717619358879;-8.7461;-0.1448;-3.9326;
80717629436952;-8.6309;0.2411;-4.7183;
80717639542577;-7.2105;1.0101;-4.6609;
80717649648150;-5.1431;0.0709;-5.9545;
80717659781640;-6.4678;-0.2237;-9.1525;
80717669887265;-13.7333;-0.1472;-7.8781;
80717679992838;-16.8189;-0.0655;1.0020;
80717690098983;-10.9259;-0.5064;4.9546;
80717700204556;-7.4859;0.7080;4.2814;
80717710310181;-7.7088;0.4110;-0.9550;
80717720387369;-10.1043;-0.1998;-3.8130;
80717730492994;-7.7375;-0.7412;-4.2251;
80717740598567;-8.4057;-0.2788;-4.4548;
80717750705285;-7.6152;1.0651;-6.9918;
80717760810910;-9.7472;1.6400;-7.0947;
80717770916483;-7.2631;1.2760;-5.7556;
80717781026431;-7.7542;0.0517;-4.5006;
80717791132108;-8.3483;-2.0109;-6.8818;
80717801237890;-10.2263;-0.7436;-6.9440;
80717811331327;-10.1163;-1.0143;-3.3721;
80717821437056;-7.7327;-0.9257;-1.7025;
80717831542785;-9.3832;-1.1821;-2.8837;
80717841657421;-10.8108;-0.8898;-3.2453;
80717851763150;-10.2598;-0.9712;-1.2739;
80717861868879;-6.7337;0.0182;-2.5696;
80717871981327;-9.3066;-0.4561;-3.9425;
80717882087056;-11.0862;-0.8680;-2.7302;
80717892192785;-7.7255;-0.1663;-2.0498;
80717902289140;-7.1602;-0.7579;-7.0540;
80717912394869;-10.8538;-1.7569;-11.3492;
80717922500546;-11.5487;-1.0669;-7.2697;
80717932607994;-9.1077;-0.8249;-0.5073;
80717942713723;-7.5218;-0.4155;-1.2978;
80717952819452;-9.0694;-0.3461;-2.1099;
80717962924817;-11.6492;-0.0248;-0.9766;
80717973030598;-9.0526;0.0781;-0.3060;
80717983136327;-7.8045;0.5142;-1.1013;
80717993245390;-8.1781;-0.1950;-4.6490;
80718003351119;-9.3497;0.5381;-6.3185;
80718013456848;-8.9064;0.3296;-2.7757;
80718023566327;-8.2430;0.5596;-4.0645;
80718033672056;-9.1843;1.1919;-5.8708;
80718043777733;-9.9915;0.8518;-3.0559;
80718053899660;-8.9112;0.4711;-2.0234;
80718064005390;-8.3937;0.1810;-2.6871;
80718074111119;-9.9509;0.7848;-3.3003;
80718084199244;-8.5998;0.3966;-2.8594;
80718094304973;-8.1900;0.4660;-3.8752;
80718104410650;-9.0622;0.5166;-5.9186;
80718114524556;-10.2215;1.2855;-3.2931;
80718124630285;-9.8240;0.5907;-2.0378;
80718134736015;-10.9953;0.0805;-3.7077;
80718144845494;-10.0250;0.6338;-1.2449;
80718154951223;-7.5888;0.7271;-0.5671;
80718165056952;-5.6964;-0.0224;-2.6584;
80718175165390;-9.9939;0.1187;-7.5212;
80718185271119;-11.7380;1.2039;-4.8861;
80718195376848;-9.0000;1.1680;0.0173;
80718205476744;-8.0106;0.1881;-2.9028;
80718215582473;-9.5845;0.0876;-3.6838;
80718225688202;-9.1603;0.1834;-2.8187;
80718235787785;-9.2632;1.0627;-1.2787;
80718245893515;-10.2000;0.1834;-4.3089;
80718255999192;-9.5773;-0.0392;-3.0846;
80718266096067;-8.2262;-0.5136;-3.2859;
80718276201848;-7.7877;-0.2118;-3.0727;
80718286307577;-10.4061;-0.3485;-4.5413;
80718296434608;-11.4793;0.5237;-1.9756;
80718306540338;-9.4310;-0.0993;-0.5982;
80718316646067;-6.5276;0.1570;-2.1482;
80718326745494;-5.1766;-0.4896;-6.0574;
80718336851171;-11.5917;-0.5160;-7.0349;
80718346956952;-15.9156;-0.5447;-1.2667;
80718357051692;-13.5873;-1.4886;4.8730;
80718367157369;-8.6189;-1.6370;3.4717;
80718377263098;-6.2521;-0.2716;-3.5399;
80718387359973;-6.4487;-0.7675;-8.7790;
80718397465702;-6.6643;-0.6526;-6.9990;
80718407571379;-8.5472;-0.4155;-4.1530;
80718417692994;-10.3125;-0.4322;-2.5241;
80718427798723;-10.0394;-0.6550;-2.3180;
80718437904400;-9.7208;-0.6431;-3.8034;
80718448010650;-9.1340;-0.8393;-4.9053;
80718458116379;-8.4730;-1.0430;-3.9159;
80718468222056;-8.4559;-0.1926;-2.9052;
80718478313463;-9.5438;-0.2692;-3.0009;
80718488419192;-10.9307;-0.6742;-2.4404;
80718498524921;-8.4392;-0.2883;-1.9732;
80718508642733;-8.3650;-0.6718;-3.3601;
80718518748463;-8.6883;0.6290;-1.7503;
80718528854192;-7.6223;0.4421;0.2474;
80718538941796;-14.2268;-1.5078;-4.4070;
80718549047525;-12.3559;-0.2333;-7.7417;
80718559153254;-9.5916;-0.9760;-4.7426;
80718569271535;-7.6415;-0.2524;-0.0568;
80718579377265;-7.7973;0.5620;1.2296;
80718589482942;-8.9973;2.3468;-1.2595;
80718599615963;-10.9211;2.8352;-1.5374;
80718609721744;-9.2513;1.9825;-1.9158;
80718619827421;-8.7147;1.4554;-3.9688;
80718629906015;-9.8743;1.0388;-4.1291;
80718640011744;-9.1196;0.2770;-2.5409;
80718650117421;-10.1258;0.5357;-1.9899;
80718660224660;-8.5472;1.3502;-0.7226;
80718670330338;-7.5434;1.1249;-1.2138;
80718680436067;-9.7831;0.7128;-2.3037;
80718690515546;-12.0494;0.4564;-1.9516;
80718700621275;-11.3976;0.6960;0.9278;
80718710727004;-12.1283;1.5033;2.3028;
80718720842213;-8.0680;0.0111;1.5266;
80718730947942;-6.6906;-1.8239;-4.3759;
80718741053671;-10.5760;-0.5734;-7.6313;
80718751170494;-10.1402;-0.1831;-3.2094;
80718761276223;-8.8155;-0.3987;-0.2366;
80718771381900;-9.6682;-0.5853;-0.8091;
80718781488931;-9.3185;-1.4336;-0.6102;
80718791594660;-10.4611;-1.3950;-1.9086;
80718801700338;-10.5401;-1.5796;-1.9325;
80718811803723;-10.4946;-1.6780;-2.1027;
80718821909452;-10.1713;-1.9774;-1.7240;
80718832015129;-6.0607;-1.3567;-0.5886;
80718842112317;-8.9973;-0.8803;-2.5959;
80718852218046;-10.8562;-0.0176;-3.6523;
80718862323723;-8.6142;0.4325;-2.4787;
80718872440390;-9.8551;1.3860;-2.4188;
80718882546119;-9.5797;1.3765;-3.8082;
80718892651796;-7.4955;0.5788;-4.6801;
80718902759869;-8.7796;0.9069;-4.4237;
80718912865598;-7.9146;1.3119;-3.6093;
80718922971275;-9.7041;0.8207;-3.8321;
80718933071952;-14.0279;0.7394;-2.4380;
80718943177681;-12.0996;0.3488;0.9517;
80718953283358;-8.3387;-0.0105;1.9842;
80718963390077;-8.9614;-0.3748;-0.0808;
80718973495806;-10.5042;0.8901;-1.4222;
80718983601483;-9.8743;0.5118;-1.5227;
80718993714035;-7.5673;0.5166;-3.5136;
80719003819765;-7.8212;0.7561;-5.0731;
80719013925442;-10.2790;0.9667;-5.7006;
80719024028202;-11.5176;0.9739;-3.4346;
80719034133931;-12.9906;0.6505;-0.7155;
80719044239608;-7.4022;0.6864;-0.3921;
80719054362577;-5.9862;-0.6144;-0.5575;
80719064468306;-10.8538;0.6434;-2.6225;
80719074573983;-11.4673;0.3990;-1.7695;
80719084654765;-8.8848;0.6123;-1.0869;
80719094760494;-7.6223;-0.1759;-2.5959;
80719104866171;-9.1986;-0.2381;-3.1134;
80719114979869;-7.7590;0.3392;-2.2487;
80719125085598;-8.0560;0.2363;-4.4357;
80719135191275;-12.3870;-0.9808;-7.2266;
80719145292785;-11.3067;-0.9090;-6.6398;
80719155398515;-8.4993;0.4493;-3.3912;
80719165504192;-7.8093;0.2001;-1.1946;
80719175618515;-8.6955;-0.8249;-1.4509;
80719185724244;-9.9221;-0.3580;-1.6020;
80719195829921;-11.9608;-0.0392;-0.7899;
80719205929348;-10.3196;0.4926;-0.4280;
80719216035077;-7.1889;-0.8779;-2.5720;
80719226140754;-9.9126;-0.3915;-5.6599;
80719236252056;-11.2516;-0.0535;-4.3663;
80719246357785;-8.1948;0.6721;-2.3495;
80719256463463;-7.7877;0.2100;-3.8512;
80719266567369;-10.9594;-0.6766;-6.1463;
80719276673098;-10.3941;-0.3170;-3.7507;
80719286778775;-7.6223;0.9882;-0.2270;
80719296902577;-8.3961;-0.7029;-1.0941;
80719307008254;-10.7462;-0.2213;-4.0502;
80719317113983;-8.2071;-0.0993;-2.9794;
80719327202473;-10.5808;-0.2596;-3.1998;
80719337308150;-10.1713;0.4062;-3.1496;
80719347413879;-9.3497;0.3440;-1.2353;
80719357532577;-8.8490;1.0220;-1.1515;
80719367638254;-8.6788;1.2685;-2.1434;
80719377743983;-9.9724;0.2315;-3.3817;
80719387842056;-9.8910;0.6003;-3.9254;
80719397947733;-9.2683;0.6410;-2.9506;
80719408053410;-8.4512;1.5682;-1.7384;
80719418138306;-9.0215;0.9858;-2.0139;
80719428244035;-10.9068;0.7753;-3.3505;
80719438349713;-10.8180;1.2736;-1.9947;
80719448444765;-9.0670;0.8806;-0.4065;
80719458550494;-8.5232;0.4588;-0.9120;
80719468656171;-10.7055;0.7080;-2.1482;
80719478796119;-9.6491;0.8518;-1.7647;
80719488901848;-8.3626;0.4902;-2.8020;
80719499007525;-10.4085;0.9835;-2.3109;
80719509111640;-10.0780;0.9117;-0.6126;
80719519217369;-10.2503;1.3262;-2.0139;
80719529323046;-10.5568;0.3846;-1.9851;
80719539426640;-6.5635;0.0829;-1.2233;
80719549532317;-6.6356;-0.0849;-3.1926;
80719559638046;-11.3139;0.1618;-5.4227;
80719569739869;-11.8600;1.0292;-2.3782;
80719579845598;-9.8839;0.4181;0.1014;
80719589951275;-9.8264;-1.2371;-1.2595;
80719600046692;-9.4693;-2.1544;-3.3338;
80719610152421;-8.7891;-1.5221;-2.3686;
80719620258098;-8.3602;-1.3854;-2.2104;
80719630361119;-10.0514;-0.8201;-2.8020;
80719640466848;-9.1125;0.5094;-3.9903;
80719650572525;-7.9579;0.0326;-3.4466;
80719660680390;-8.9566;-0.0682;-4.1483;
80719670786119;-11.4649;0.6912;-2.9315;
80719680891796;-10.4109;1.0172;-1.4103;
80719690989452;-9.1436;-0.5566;-2.5816;
80719701095129;-7.8595;-0.9042;-3.2572;
80719711200858;-8.2478;0.3607;-2.8140;
80719721319348;-10.5305;0.4660;-3.5925;
80719731425077;-9.0861;0.9763;-2.3686;
80719741530754;-10.6863;0.7561;-2.2774;
80719751629973;-12.4421;0.1187;-2.7230;
80719761735702;-10.3125;-0.0464;-1.9995;
80719771841379;-8.8920;0.1834;-2.4117;
80719781950442;-7.3277;-0.3915;-3.3625;
80719792056119;-6.8871;0.1905;-4.3854;
80719802161848;-8.7891;0.5501;-4.6059;
80719812285963;-9.9221;1.5491;-3.0488;
80719822391640;-9.5100;1.9226;-1.1204;
80719832497369;-10.4587;1.0723;-1.6140;
80719842573931;-10.1569;0.7152;-1.6211;
80719852679608;-8.7218;0.4253;-1.7985;
80719862785338;-7.9170;-0.5853;-2.9459;
80719872900025;-10.2168;0.4588;-4.1363;
80719883005702;-9.3616;0.9906;-2.2702;
80719893111431;-9.2946;0.5285;-1.8440;
80719903211431;-10.0971;0.4014;-1.5996;
80719913317108;-8.9279;-0.6670;-2.2415;
80719923422838;-7.8021;-0.1161;-2.2008;
80719933535390;-9.2560;-1.2108;-4.4501;
80719943641067;-10.7892;-1.3328;-5.5857;
80719953746796;-10.3678;-0.3652;-2.1984;
80719963849452;-15.3263;0.1403;1.5099;
80719973955129;-13.0747;0.2243;4.4970;
80719984060858;-6.9709;-1.4743;4.1067;
80719994160442;-8.3459;-0.7292;-2.2917;
80720004266119;-13.0340;-0.9162;-2.9746;
80720014371848;-9.4262;-0.5973;0.0532;
80720024484348;-4.3860;-0.0176;-2.3180;
80720034590025;-8.2813;-0.8201;-6.2587;
80720044695754;-10.4994;0.0972;-5.1138;
80720054818775;-8.9949;1.0364;-2.5122;
80720064924452;-10.2263;1.2015;-2.3853;
80720075030181;-8.9662;0.4854;-3.2285;
80720085115806;-7.4046;-0.0607;-2.1242;
80720095221483;-8.4682;-0.0009;-2.7805;
80720105327213;-11.2397;-0.7388;-0.9431;
80720115441379;-12.2195;0.5357;1.2344;
80720125547056;-9.7663;0.3511;1.0427;
80720135652785;-6.1325;-0.5542;-0.4424;
80720145755702;-9.1843;-1.3448;-2.7494;
80720155861379;-13.4291;-0.3413;-5.1473;
80720165967108;-12.3296;0.1427;-2.3180;
80720176084452;-7.3229;0.0422;-0.5432;
80720186190129;-7.0810;-0.4729;-3.3505;
80720196295858;-10.1426;-0.0081;-4.1722;
80720206399660;-11.8768;0.9739;-2.5026;
80720216505338;-10.5544;0.1522;-0.5695;
80720226611067;-8.5041;0.3392;0.0485;
80720236698306;-7.8212;-0.4896;-1.1850;
80720246803983;-11.1894;-0.7029;-1.3768;
80720256909713;-11.2421;-0.0682;-1.1157;
80720267019869;-8.9901;-0.7866;-1.2954;
80720277125546;-6.8342;0.4253;-1.4844;
80720287231275;-7.7303;0.0087;-2.7829;
80720297311431;-11.1512;-0.2979;-5.9091;
80720307417056;-10.4563;1.0842;-4.6825;
80720317522785;-8.7365;1.0101;-2.0955;
80720327628463;-7.9843;1.2182;-2.6369;
80720337754660;-9.7208;0.0805;-1.8033;
80720347860390;-10.4013;0.6553;-0.4953;
80720357966015;-9.4167;0.8590;-0.7301;
80720368097629;-9.3975;0.1427;-1.3026;
80720378203358;-10.3846;0.9858;-2.0282;
80720388309088;-11.4936;-0.1591;-1.1635;
80720398389035;-8.4826;0.5477;-0.9287;
80720408494713;-8.0895;-0.3891;-1.7480;
80720418600442;-12.5501;-0.2166;-3.4585;
80720428732160;-10.1665;0.8518;-2.0955;
80720438837838;-5.5935;-0.2859;-2.3782;
80720448943567;-9.2536;-0.5303;-4.0262;
80720459044140;-12.8112;1.0603;-3.5638;
80720469149817;-10.0708;0.4086;-1.6929;
80720479255546;-9.4573;-0.1878;-0.4905;
80720489339556;-8.6189;0.6625;-0.6293;
80720499445233;-8.3387;-0.2907;-0.8928;
80720509550963;-9.7543;0.2459;-2.0043;
80720519690702;-11.1535;0.2602;-2.0836;
80720529796379;-9.2417;0.6003;-1.8870;
80720539902108;-7.2679;-0.2285;-2.9291;
80720549965598;-12.9547;0.1881;-4.1195;
80720560071275;-8.7652;0.3703;-1.6235;
80720570177004;-6.8103;-0.3075;-1.6427;
80720580296015;-8.8992;0.0613;-3.8034;
80720590401692;-11.0073;-0.3628;-3.0727;
80720600507421;-11.2062;-0.1184;-0.5743;
80720610605077;-8.6836;-0.2620;-1.1204;
80720620710754;-9.3305;-0.2500;-2.2510;
80720630816483;-9.8647;-0.1519;-1.3600;
80720640928098;-12.4062;-0.3915;-0.5671;
80720651033775;-10.3391;0.3153;-0.5719;
80720661139504;-6.9565;-1.2467;-0.7780;
80720671245494;-8.3315;-0.7723;-2.4835;
80720681351171;-11.5822;-0.2931;-2.9794;
80720691456900;-12.1834;0.5118;-1.4940;
80720701581952;-5.8570;-0.3676;-1.6690;
80720711687629;-6.4798;0.1331;-3.8967;
80720721793358;-8.4224;-0.5566;-4.2251;
80720731873098;-9.6562;0.0757;-3.5997;
80720741978775;-10.6600;1.2999;-3.3817;
80720752084504;-8.4057;0.2387;-3.0248;
80720762199140;-11.6731;-0.4274;-1.1946;
80720772304817;-15.9395;-0.0081;1.2081;
80720782410546;-11.6731;-0.6359;4.3196;
80720792517473;-7.0546;-2.0755;1.9627;
80720802623150;-9.3712;-1.1171;-1.2978;
80720812728879;-12.1690;-0.1567;-2.3037;
80720822847369;-8.3004;0.4493;-1.6834;
80720832953046;-4.4677;-1.2921;-2.5720;
80720843058775;-10.8060;-0.0464;-7.5045;
80720853148358;-12.6745;0.3344;-4.6298;
80720863254035;-8.1517;0.3272;-0.8593;
80720873359765;-6.8486;-0.1950;-3.3769;
80720883473723;-9.2779;-0.4226;-4.1818;
80720893579400;-11.6181;-0.5040;-1.5227;
80720903685129;-10.8658;-0.0849;1.1889;
80720913794869;-9.6993;-0.0921;1.9361;
80720923900546;-8.2956;-0.1998;1.2368;
80720934006275;-7.9193;-0.2309;-0.6580;
80720944107525;-8.8872;-0.4490;-3.2453;
80720954213202;-8.8896;0.0685;-3.4370;
80720964318931;-9.0598;-0.1161;-5.0946;
80720974431119;-11.1990;-0.3051;-8.5466;
80720984536796;-13.1489;0.1738;-7.0804;
80720994642525;-9.8192;0.0900;-0.9120;
80721004740390;-4.6831;0.3846;-0.4472;
80721014846067;-8.5232;-0.0969;-0.8976;
80721024951796;-13.1991;1.2832;0.9326;
80721035056692;-11.7882;1.1680;2.5663;
80721045162369;-8.4105;-0.2381;0.7696;
80721055268046;-9.2946;0.0087;-2.2319;
80721065370858;-9.2656;-0.3218;-2.5839;
80721075476535;-9.5052;-0.3051;-2.3061;
80721085582265;-9.6203;0.0422;-2.9961;
80721095695285;-9.6802;-0.0897;-3.3553;
80721105800963;-8.4754;-0.4250;-3.3290;
80721115906692;-7.6463;-0.6048;-3.8345;
80721126006535;-9.4478;0.4086;-3.7675;
80721136112213;-10.4731;0.8255;-0.5025;
80721146217942;-9.7328;0.7008;0.7289;
80721156330285;-9.3832;0.9858;-0.6652;
80721166435963;-8.1541;-0.2524;-1.5733;
80721176541692;-11.6635;0.2698;-1.4844;
80721186646692;-10.7007;0.7032;-0.4065;
80721196752369;-9.8456;0.3823;-0.7588;
80721206858098;-10.0947;0.5788;-0.7107;
80721216970181;-9.1364;-0.1519;-0.4519;
80721227075858;-9.0574;0.0996;-2.1147;
80721237181588;-8.3291;-0.3508;-3.8082;
80721247254348;-11.4721;-0.0730;-3.4825;
80721257360025;-10.6098;0.3416;-1.3504;
80721267465754;-7.8452;-0.6191;-0.5862;
80721277599140;-9.4645;-0.4609;-2.0617;
80721287704817;-10.9140;-0.7125;-1.7049;
80721297810494;-11.0097;-1.1581;-0.0353;
80721307903410;-9.5605;-0.8393;-0.4352;
80721318009035;-9.6706;-0.5662;-0.6221;
80721328114817;-11.0480;-0.3987;-1.3289;
80721338256535;-8.9016;-0.5399;-1.9780;
80721348362213;-5.1048;-1.2826;-1.6068;
80721358467942;-6.6858;-0.2118;-4.7809;
80721368528827;-11.6420;0.1235;-4.3711;
80721378634504;-13.7955;-0.1543;-1.4605;
80721388740181;-12.9858;0.4783;-1.4462;
80721398851900;-7.0044;-0.0129;-1.0822;
80721408957629;-6.4391;-1.0669;-0.4857;
80721419063358;-9.6132;-1.3137;-1.9086;
80721429169140;-12.4974;-0.5303;-3.0272;
80721439274817;-9.0407;0.9236;-1.0367;
80721449380546;-5.1574;-0.2620;-1.0534;
80721459515702;-11.0575;-0.4226;-3.7484;
80721469621379;-13.0508;-0.7149;-3.0464;
80721479727108;-8.3459;-0.5327;-1.0175;
80721489797265;-7.0379;-0.2955;-2.4476;
80721499902942;-11.7715;-0.5303;-3.1567;
80721510008671;-11.9728;0.3751;-2.6895;
80721520111327;-9.3018;-0.3413;-1.4151;
80721530217004;-6.1086;0.0470;-1.5302;
80721540322733;-9.8384;-0.6168;-1.8105;
80721550428098;-12.2073;-0.1232;-1.6810;
80721560533775;-10.2000;0.6601;-0.4208;
80721570639504;-8.4272;0.4902;0.6042;
80721580755910;-6.8318;0.3464;-0.5815;
80721590861588;-9.5845;-0.3266;-4.2419;
80721600967317;-12.5477;-0.6239;-6.0984;
80721611065338;-10.6768;-0.0873;-3.5901;
80721621171067;-6.8895;0.4421;-1.2042;
80721631276796;-6.6452;-0.0105;-1.7961;
80721641393098;-10.6911;0.0852;-2.5744;
80721651498775;-12.6099;-0.0535;-1.6020;
80721661604504;-8.6022;0.0805;0.3167;
80721671701327;-7.6343;-0.0873;-0.3778;
80721681807004;-11.9848;-0.5710;-1.4246;
80721691912733;-12.2578;0.2001;-1.6594;
80721702041431;-7.5841;-0.1831;-0.6413;
80721712147108;-8.3889;-0.6574;-2.9148;
80721722252785;-12.4325;0.2913;-3.0081;
80721732335910;-9.8599;0.0398;-1.7719;
80721742441588;-8.8825;0.0278;-1.5251;
80721752547317;-9.7902;-0.1711;-1.1396;
80721762652785;-7.8571;-0.7627;-1.6786;
80721772758463;-8.6333;0.2626;-2.3013;
80721782864192;-10.4803;-0.2166;-2.7326;
80721792995025;-11.5080;-0.3051;-2.4858;
80721803100806;-7.6558;0.3009;-1.7480;
80721813206535;-7.6391;0.1427;-1.2473;
80721823303410;-10.1641;-0.0081;-2.0019;
80721833409140;-8.5400;-0.2835;-1.6307;
80721843514869;-9.7926;-0.4298;-2.1721;
80721853623202;-9.3544;0.0182;-1.9181;
80721863728931;-9.0814;-0.3314;-1.4174;
80721873834660;-8.6309;0.0326;-1.8009;
80721883931431;-7.9316;0.1929;-2.8594;
80721894037160;-14.5884;-0.0802;-2.7350;
80721904142890;-15.9538;-0.1280;-0.7226;
80721914250702;-9.5219;-0.3437;1.9481;
80721924356431;-4.0029;-0.2094;1.5147;
80721934462160;-7.5410;-0.2500;-0.9984;
80721944572108;-12.5764;-0.2979;-3.0176;
80721954677785;-10.1545;-0.3891;-3.1854;
80721964783567;-7.3684;0.1834;-3.5423;
80721974898202;-9.1914;-0.0200;-3.8034;
80721985003931;-12.5405;-0.3867;-2.8594;
80721995109660;-7.6152;0.3320;-0.4352;
80722005191119;-7.3421;0.2100;-1.0463;
80722015296848;-11.4458;-0.5806;-1.5876;
80722025402577;-12.2937;-0.3556;-0.5216;
80722035512473;-9.6323;-0.6814;0.5803;
80722045618150;-7.3038;0.2243;-0.5480;
80722055723931;-11.5463;-0.7579;-1.3337;
80722065834348;-13.6113;-0.2812;-1.5422;
80722075940077;-8.0154;0.4902;-0.4642;
80722086045806;-6.6547;-1.0358;-2.0450;
80722096158358;-11.5702;-0.7149;-3.7340;
80722106264088;-9.7352;0.0159;-0.8641;
80722116369817;-5.8044;-0.3796;-1.7169;
80722126466119;-11.0025;-0.5471;-6.9727;
80722136571848;-11.6468;-0.8417;-6.0024;
80722146677577;-7.9122;-0.8632;-1.7719;
80722156771796;-7.5266;-0.8874;-1.0702;
80722166877577;-10.8829;-0.3796;-0.7804;
80722176983306;-12.1738;-0.1017;0.3407;
80722187088254;-9.2489;-0.6598;0.8007;
80722197194035;-8.0201;-1.6059;-0.6748;
80722207299765;-9.2755;-0.7029;-1.0008;
80722217421744;-10.5975;-0.5447;-1.9397;
80722227527473;-10.5042;-1.2299;-2.6919;
80722237633202;-8.4873;-0.4872;-3.5207;
80722247731744;-9.8169;-1.2347;-3.2907;
80722257837473;-10.0155;-0.6885;-3.6093;
80722267943150;-9.0479;-0.1304;-2.9243;
80722278047942;-8.3842;-0.4107;-1.0199;
80722288153723;-8.1829;0.1068;-3.3314;
80722298259400;-10.8852;-0.4825;-3.9951;
80722308371119;-9.9772;0.5429;-1.3385;
80722318476848;-8.9495;-0.2429;0.2115;
80722328582577;-10.8299;-0.3075;-1.2018;
80722338687629;-8.8370;0.7920;-0.7899;
80722348793410;-9.9437;-0.3580;0.4223;
80722358899140;-11.5558;-0.1854;-1.2811;
80722368990858;-10.6696;-0.6168;-0.4280;
80722379096640;-6.5925;-0.4346;-0.3730;
80722389202317;-9.6467;0.0972;-2.7039;
80722399316015;-11.3019;-0.9066;-2.1840;
80722409421744;-11.3665;-0.1089;-2.0545;
80722419527473;-9.5219;-0.3437;-1.8176;
80722429631952;-9.6227;-0.6814;-1.6642;
80722439737629;-9.9748;0.2363;-1.0032;
80722449843410;-7.8165;-0.1519;-0.5503;
80722459953306;-9.9820;0.5524;-1.5036;
80722470058983;-12.6290;0.0135;-2.3303;
80722480164713;-10.5185;0.3033;-0.7178;
80722490254244;3.0473;-0.1184;0.2498;
80722500359973;-18.3015;0.8112;-3.2859;
80722510465650;-17.2666;1.5248;-2.0521;
80722520574713;-1.1378;0.6123;2.7218;
80722530680442;-9.4143;-0.0559;0.4175;
80722540786171;-13.6663;0.8495;-0.5408;
80722550904035;-9.2632;-0.5112;2.1661;
80722561009765;-10.6146;-0.0655;1.6896;
80722571115442;-10.6983;0.5883;0.9876;
80722581216640;-9.6060;-0.0873;-0.2270;
80722591322369;-10.5114;-0.0320;-0.5503;
80722601428098;-10.1043;-0.3485;-0.9000;
80722611527473;-8.4969;0.0852;-2.2152;
80722621633202;-7.9074;-0.2333;-1.6570;
80722631738931;-9.7687;0.6386;-2.3734;
80722641847369;-10.6217;0.7609;-1.2473;
80722651953098;-9.0479;0.9643;-0.8426;
80722662058827;-12.5764;-0.0488;-2.1888;
80722672165702;-13.8652;-0.4418;-1.9636;
80722682271379;-10.6337;0.1499;0.8749;
80722692377160;-7.3110;-0.7579;2.6740;
80722702482160;-7.3612;-0.9042;1.5577;
80722712587838;-10.0107;0.2889;-0.6150;
80722722693567;-9.5868;-0.7651;-1.7432;
80722732796535;-9.9748;0.0541;-5.9139;
80722742902265;-15.6449;-0.7053;-5.4060;
80722753007994;-7.5003;1.2565;2.3530;
80722763119452;-4.5419;0.5070;3.0239;
80722773225181;-7.9074;-0.2381;1.7853;
80722783330858;-12.2411;0.7585;-3.3123;
80722793449244;-14.3465;-1.1964;-4.2299;
80722803554921;-8.7748;0.2100;0.1181;
80722813660650;-4.2760;-0.5710;-0.1095;
80722823752525;-11.3521;-0.6096;-2.9554;
80722833858202;-12.9954;0.1092;-2.7876;
80722843963931;-6.8632;-0.4298;-0.1047;
80722854070181;-7.9484;0.1834;-1.5132;
80722864175858;-12.2387;-1.4264;-2.0186;
80722874281588;-11.9967;0.2243;-1.0702;
80722884386744;-10.5784;-1.7091;-0.2318;
80722894492421;-7.1842;-0.3700;1.1961;
80722904598150;-9.2632;-0.8560;0.2689;
80722914706431;-11.7380;-0.6574;-0.6389;
80722924812108;-8.1350;-1.0095;-2.4093;
80722934917838;-7.9484;-0.4226;-3.1926;
80722945029140;-13.1321;-0.9473;-4.1148;
80722955134817;-8.0632;-0.5160;-3.7603;
80722965240546;-8.3554;-0.7484;-5.0468;
80722975353098;-10.4228;-0.9688;-5.4610;
80722985458775;-9.1627;-0.4920;-1.9708;
80722995564504;-11.2086;-0.9281;-1.6905;
80723005659765;-9.5390;0.0254;-1.0080;
80723015765442;-6.1875;-0.8321;-0.1430;
80723025871171;-9.8934;0.3344;-2.5744;
80723035969348;-11.1365;0.2913;-2.7924;
80723046075025;-9.1699;0.3368;-2.3542;
80723056180754;-8.1781;-0.4155;-3.4633;
80723066295806;-10.6959;0.3607;-4.8766;
80723076401483;-9.2946;0.9069;-1.7240;
80723086507213;-7.0881;0.6458;-1.1874;
80723096605858;-8.4200;0.4253;-3.5590;
80723106711535;-10.4779;-0.2644;-3.3123;
80723116817265;-11.5989;0.4062;-1.4844;
80723126921640;-10.3149;0.7080;-0.3969;
80723137027317;-11.3689;-0.3365;1.3134;
80723147133046;-9.1675;0.4325;-0.2222;
80723157241223;-10.6863;-0.1065;-1.3313;
80723167346900;-10.8347;-0.1878;-0.7684;
80723177452577;-7.5194;-0.0129;-1.3217;
80723187620077;-7.3086;0.0852;-1.5374;
80723197725754;-10.6911;-0.2022;-2.0091;
80723207831483;-13.7237;0.6745;-1.0534;
80723217847994;-9.6395;0.8806;1.2942;
80723227953619;-7.3950;-0.0969;-1.7551;
80723238059348;-9.8910;-0.8417;-4.4309;
80723248243567;-9.5438;-0.1519;-1.7240;
80723258349244;-8.7147;0.2554;-0.7253;
80723268454973;-10.9690;0.2001;-1.8511;
80723278505598;-7.8212;0.1738;-0.0257;
80723288611275;-8.0704;-0.1089;-1.6307;
80723298716952;-12.2148;0.2028;-3.3817;
80723308847473;-10.6122;0.2052;-0.6365;
80723318953150;-7.6705;0.9715;0.4391;
80723329058879;-9.9604;0.5357;-2.0426;
80723339145442;-9.7232;0.5716;-2.3109;
80723349251119;-8.8131;-0.3915;-0.3921;
80723359356848;-11.8122;0.3081;-2.2439;
80723369464556;-8.2645;0.7753;-2.7589;
80723379570233;-9.7831;-0.2548;-1.8224;
80723389675963;-11.2540;0.3105;-2.2367;
80723399776275;-8.8992;0.5692;-0.0114;
80723409881952;-7.0211;0.2435;-1.1635;
80723419987681;-10.5449;0.3464;-3.6981;
80723430087525;-11.1293;-0.5255;-2.2415;
80723440193202;-9.3305;0.1235;-2.5265;
80723450298931;-12.6147;-0.5160;-3.5662;
80723460427265;-9.7831;-0.1711;-1.3481;
80723470532942;-8.9542;-1.4599;-0.2007;
80723480638671;-8.4081;0.1714;-0.8545;
80723490728827;-8.5280;-0.9832;0.1851;
80723500834504;-10.4133;-1.0095;-2.3806;
80723510940233;-11.9222;-0.6646;-3.9350;
80723521027942;-9.4334;-0.7842;-2.6058;
80723531133619;-6.6308;-0.3867;-2.5504;
80723541239348;-10.0828;-0.4322;-3.2501;
80723551379608;-10.2814;-0.1208;-1.3385;
80723561485285;-9.6108;-0.2907;-0.3897;
80723571591015;-9.7113;0.2339;-1.5251;
80723581673202;-7.6319;-0.5112;-1.0582;
80723591778879;-12.0063;-0.3628;-1.4797;
80723601884608;-8.8944;-0.5806;-0.3706;
80723611982369;-6.3506;-0.2309;-2.1314;
80723622088046;-9.7065;-0.9042;-3.9760;
80723632193775;-10.9355;0.2770;-3.8489;
80723642308410;-11.4745;-0.2213;-2.6943;
80723652414088;-9.9891;0.0111;-1.7838;
80723662519817;-8.9088;-0.1711;-0.6126;
80723672629608;-8.7437;-0.0416;-0.7732;
80723682735285;-10.4683;0.1259;-2.1912;
80723692841015;-12.5285;0.0876;-1.6762;
80723702961431;-9.1508;0.1929;0.7002;
80723713067108;-6.0775;-0.1304;-0.4810;
80723723172838;-10.1186;-0.3700;-3.9159;
80723733255806;-11.8863;0.3703;-3.3721;
80723743361483;-6.8366;-0.1113;-0.5886;
80723753467213;-7.5960;0.4807;-3.9544;
80723763573931;-11.1990;-0.2931;-5.2023;
80723773679608;-11.7428;-0.3290;-3.5686;
80723783785338;-10.8132;-0.3652;-2.0019;
80723793918098;-8.0776;-0.0416;-0.3491;
80723804023775;-8.3578;0.4229;-0.9287;
80723814129504;-9.4621;-0.2046;-1.0080;
80723824216015;-9.9197;0.0924;-0.9790;
80723834321692;-11.3880;0.0996;-1.3983;
80723844427421;-7.0857;0.9523;-0.9790;
80723854526119;-10.7533;-0.1663;-2.4500;
80723864631796;-11.3210;0.2459;-2.0764;
80723874737525;-8.7532;-0.3915;-1.7169;
80723884852942;-7.6008;-0.1280;-2.8765;
80723894958619;-9.6658;-0.2118;-2.7494;
80723905064348;-10.5329;0.4038;-1.2643;
80723915166848;-9.6251;-0.2022;-2.2415;
80723925272525;-11.0384;0.9500;-1.1683;
80723935378254;-11.0073;-0.5160;-0.7083;
80723945487369;-4.4172;0.8207;-1.7791;
80723955593046;-9.4837;-0.2979;-3.5423;
80723965698775;-11.0551;0.3535;-3.1615;
80723975808723;-11.5247;0.4397;-1.7312;
80723985914400;-10.4874;-0.2142;-0.2892;
80723996020129;-7.8595;0.6912;-2.6560;
80724006117681;-9.4837;-0.7388;-2.4236;
80724016223358;-10.1186;-0.3437;-1.0032;
80724026329088;-8.2238;-0.4418;-0.7899;
80724036417994;-10.5138;0.0446;-2.8837;
80724046523723;-11.2397;-0.6407;-1.7145;
80724056629400;-7.9002;-0.7747;-1.0822;
80724066756640;-10.1234;-0.6814;-2.1362;
80724076862317;-8.5256;-0.0105;-0.9550;
80724086968046;-8.0871;-1.1725;-1.4462;
80724097058619;-11.4841;0.1905;-3.0703;
80724107164296;-9.9102;-0.4107;-2.3614;
80724117270025;-9.3401;-0.1807;-2.7948;
80724127386640;-10.4181;0.0781;-1.6068;
80724137492317;-8.7532;-0.6646;-0.5121;
80724147598046;-10.7031;0.8351;-2.4236;
80724157690546;-8.9327;0.2171;-0.3275;
80724167796223;-8.8442;0.3775;-1.6881;
80724177901952;-10.8586;0.9835;-2.3447;
80724188059869;-10.2455;1.0412;-2.0883;
80724198165546;-7.9627;-0.2285;-1.6666;
80724208271275;-10.7916;0.8542;-2.7159;
80724218325181;-9.6826;0.2578;-2.4476;
80724228430858;-8.7509;1.0771;-2.9961;
80724238536588;-8.9662;0.2076;-2.4045;
80724248655338;-10.1426;0.6888;-2.5433;
80724258761015;-10.5616;0.1235;-1.6403;
80724268866744;-7.6920;1.5129;-1.5302;
80724278975598;-11.4864;0.3775;-1.9277;
80724289081275;-9.5916;0.6194;-1.2906;
80724299187004;-6.5949;0.2076;-0.7301;
80724309342421;-11.2277;-0.5375;-1.5422;
80724319448098;-10.4946;0.8542;-1.9325;
80724329553827;-8.8083;-0.8731;-1.5541;
80724339596744;-11.2373;0.7008;-3.4585;
80724349702421;-10.2718;-0.3532;-1.8727;
80724359808150;-8.4583;-0.2740;-1.4198;
80724369922473;-9.2345;-0.2285;-1.3241;
80724380028150;-8.8059;-0.3652;-1.5517;
80724390133879;-9.6610;0.0685;-2.3997;
80724400227160;-9.2803;-0.0921;-2.1003;
80724410332838;-10.2646;-0.1926;-2.2750;
80724420438567;-10.3917;-0.2405;-1.3265;
80724430543723;-8.8250;-0.4513;-0.4690;
80724440649400;-10.5305;-0.5183;-2.1051;
80724450755077;-10.1306;-1.2299;-1.1372;
80724460880702;-10.9810;-1.3304;-0.4594;
80724470986379;-9.6467;-0.5877;-1.3672;
80724481092108;-5.7395;-0.4681;-1.5203;
80724491198827;-8.2071;-0.7795;-3.2955;
80724501304504;-10.3268;-0.3365;-3.1663;
80724511410233;-7.4883;-0.7196;-2.4858;
80724521505598;-11.8050;0.6290;-3.9449;
80724531611327;-11.8528;0.6290;-2.2343;
80724541717004;-10.2263;-0.5518;-0.5791;
80724551835910;-9.3903;-0.6837;-0.6508;
80724561941588;-8.8848;-0.3003;-0.9814;
80724572047317;-11.3306;-0.2405;-0.9790;
80724582144140;-10.5090;0.3655;-0.3275;
80724592249817;-8.0584;0.0326;-0.2892;
80724602355546;-8.0800;-0.0416;-2.2104;
80724612468098;-9.7184;-0.3628;-2.3061;
80724622573775;-10.4587;0.6242;-3.1519;
80724632679504;-10.8658;-0.6407;-2.6919;
80724642771431;-8.2143;0.5285;-1.7049;
80724652877108;-9.6060;-0.9449;-2.3133;
80724662982838;-10.9834;-0.3891;-1.8416;
80724673095285;-10.7222;-0.2429;-0.8904;
80724683200963;-9.2034;-0.3123;-0.3227;
80724693306692;-8.6094;0.0374;-0.6365;
80724703404556;-8.6189;-0.5853;-1.5278;
80724713510285;-11.9871;-0.0897;-2.0139;
80724723615963;-10.2215;0.4110;-2.2439;
80724733714973;-8.5448;-0.0730;-1.6116;
80724743820650;-7.3732;-0.0921;-2.1864;
80724753926379;-10.4922;-0.0368;-3.3386;
80724764037994;-10.4348;0.1810;-1.6235;
80724774143671;-8.2789;0.2650;-1.6235;
80724784249400;-10.3125;-0.3724;-1.4964;
80724794368202;-9.1364;0.0924;-1.6594;
80724804473879;-9.2513;-0.6072;-1.0869;
80724814579556;-10.0418;-0.3628;-0.9383;
80724824673775;-10.0442;-0.8082;-2.1147;
80724834779452;-9.3568;-0.6742;-2.0931;
80724844885129;-10.1163;-0.3266;-2.1912;
80724854983723;-9.9652;-0.7914;-1.5156;
80724865089400;-9.7304;-0.7412;-1.3911;
80724875195077;-8.4945;-0.0754;-0.7612;
80724885309869;-9.6227;-0.5973;-0.2222;
80724895415546;-10.3268;0.7561;-1.4462;
80724905521223;-11.5534;0.3057;-0.1358;
80724915622994;-7.9508;0.0254;-0.9909;
80724925728671;-8.4200;-0.1615;-2.3303;
80724935834348;-10.7175;-0.8106;-1.6307;
80724945935025;-10.2479;0.9117;-3.0655;
80724956040702;-9.0838;0.6242;-0.6269;
80724966146379;-10.1186;0.0805;-0.8928;
80724976279035;-12.3655;0.9308;-1.1396;
80724986384713;-8.5161;-0.2285;1.2153;
80724996490390;-7.7375;-0.1400;-0.2342;
80725006573619;-11.6228;0.3033;-1.4366;
80725016679296;-10.0274;-0.5423;-1.3720;
80725026784973;-8.6836;-0.0129;-1.9493;
80725036883515;-11.8768;0.1881;-1.3289;
80725046989192;-9.1173;-0.4322;-1.0104;
80725057094869;-8.0584;0.2722;-2.3518;
80725067204192;-10.1785;-0.5495;-2.3901;
80725077309869;-11.5678;-0.2620;-2.3901;
80725087415546;-10.1617;0.0661;-1.3528;
80725097552473;-8.7700;-0.4585;-0.2749;
80725107658150;-8.9638;-0.4490;-1.7001;
80725117763827;-10.3774;-0.4896;-1.0343;
80725127835285;-10.6170;-0.3075;-0.7612;
80725137940910;-8.6261;-0.2285;-1.6762;
80725148046588;-9.3760;-0.5112;-1.4103;
80725158153098;-11.0049;-0.4825;-1.7961;
80725168258775;-8.5878;-0.9329;-1.2520;
80725178364452;-7.9866;-0.6335;-1.3816;
80725188449765;-10.9690;-0.5806;-1.7456;
80725198555442;-10.7605;0.2937;-1.5565;
80725208661119;-10.3268;-0.1543;-1.5350;
80725218798619;-8.3698;-0.3628;-1.1180;
80725228904296;-8.2143;-0.2907;-2.2152;
80725239009973;-9.3138;-0.2596;-3.1950;
80725249104140;-9.2898;-0.1448;-3.5949;
80725259209817;-8.5735;-0.4274;-3.4442;
80725269315494;-8.6692;-0.5016;-3.6523;
80725279419973;-10.1856;-0.1352;-4.6920;
80725289525650;-9.1819;-0.0802;-2.9315;
80725299631275;-8.9447;-0.0802;-3.4011;
80725309723619;-10.4492;0.2602;-2.4260;
80725319829296;-8.9495;-0.1424;-0.7684;
80725329934973;-7.7518;-0.2931;-2.5576;
80725340059035;-10.4563;-0.0129;-2.8044;
80725350164713;-9.6754;0.2315;-2.1123;
80725360270390;-10.7390;-0.2118;-2.2726;
80725370377577;-11.0121;0.4807;-1.9134;
80725380483254;-10.1617;-1.0980;-1.1420;
80725390588931;-5.9001;-0.1687;-2.0617;
80725400688619;-7.7662;-0.6742;-3.1134;
80725410794244;-13.5057;-0.5614;-3.1663;
80725420899973;-10.7198;-0.7795;-0.5743;
80725431018723;-6.5515;-1.2730;-1.9110;
80725441124400;-10.7605;-1.5293;-3.9712;
80725451230077;-11.4673;-0.2524;-1.9780;
80725461327265;-7.2416;-0.9760;-0.1959;
80725471432942;-8.0106;-1.6490;-1.8966;
80725481538619;-11.2277;-0.3628;-2.5792;
80725491666640;-11.0264;-0.1400;-1.1587;
80725501772317;-8.0034;-0.4705;-2.3061;
80725511877994;-7.1961;-0.7579;-3.3147;
80725521978515;-10.8227;-0.1807;-3.3649;
80725532084192;-12.6003;0.1092;-3.2381;
80725542189869;-8.7461;-0.4848;-1.1946;
80725552290702;-8.3913;-0.2620;-2.2032;
80725562396379;-11.7284;0.9763;-2.9889;
80725572502056;-10.8757;-0.2835;-1.2377;
80725582600806;-9.4478;-0.7412;-0.5886;
80725592706483;-9.4023;1.0507;-0.9622;
80725602812160;-9.2513;0.3033;-1.2305;
80725612921952;-9.9652;0.0159;-1.4222;
80725623027629;-8.7867;0.9523;-2.2774;
80725633133306;-9.3736;-0.1926;-2.8522;
80725643238306;-10.9475;0.7825;-3.4633;
80725653343983;-11.4577;0.7008;-2.6201;
80725663449660;-14.7826;0.1187;-0.5168;
80725673553515;-21.4158;0.2148;1.4596;
80725683659192;-24.3622;1.5873;7.8266;
80725693764869;-17.5469;-0.8058;11.2738;
80725703858098;-11.5367;-2.5068;7.8676;
80725713963775;-9.3185;-1.2179;10.9768;
80725724069452;-8.7461;0.1235;8.4975;
80725734173098;-9.4262;0.0111;2.5089;
80725744278775;-6.7074;1.0172;-2.6225;
80725754384452;-5.5289;0.7513;-7.1234;
80725764487681;-5.0258;-0.3003;-10.0651;
80725774593358;-3.7537;-0.3843;-12.1660;
80725784699035;-3.5118;-0.1472;-11.8379;
80725794825077;-4.7504;-0.9233;-9.7418;
80725804930702;-4.1656;-0.4011;-7.0038;
80725815036379;-3.4783;0.9500;-4.0502;
80725825130025;-4.8126;0.4588;-2.6273;
80725835235702;-7.4812;-0.0033;-2.7039;
80725845341327;-8.5041;0.2650;-1.3959;
80725855463515;-7.0283;0.2100;-0.6006;
80725865569192;-5.8881;0.2076;-3.8297;
80725875674817;-7.4883;0.3488;-6.1176;
80725885759660;-6.9924;0.2315;-2.1625;
80725895865338;-4.7982;-0.6742;-3.5279;
80725905970963;-5.3204;-1.0741;-6.1630;
80725916083931;-5.3037;-0.9185;-5.8947;
80725926189608;-5.3659;-1.6537;-5.3509;
80725936295233;-8.1999;-2.4132;-4.4118;
80725946394035;-8.9183;-1.6274;-2.3853;
80725956499713;-7.9699;-0.2333;-2.3327;
80725966605390;-9.3066;-0.0296;-1.8655;
80725976730285;-12.6290;-1.2179;-0.3443;
80725986835963;-13.4435;-1.1821;-0.0138;
80725996941640;-10.7294;-0.0320;-0.5001;
80726007016015;-7.9819;-0.3027;-0.3969;
80726017121692;-12.7944;-0.9066;-1.4055;
80726027227317;-20.1915;-1.9172;0.4726;
80726037344556;-16.1097;-0.6479;1.0786;
80726047450233;-13.7381;-0.4131;1.1145;
80726057555858;-12.5596;-0.6455;0.8629;
80726067667213;-10.7653;-0.0826;-1.2643;
80726077772890;-11.1150;0.0206;-1.0941;
80726087878567;-7.3397;-0.7555;-0.4690;
80726097994296;-9.3999;0.0852;-3.9230;
80726108099973;-10.0995;0.7801;-3.0583;
80726118205650;-8.8179;1.1417;-3.4418;
80726128295077;-9.5773;0.9906;-3.8201;
80726138400754;-8.3818;0.5285;-2.9028;
80726148506379;-9.3760;0.2076;-2.4380;
80726158637160;-9.6873;0.5453;-1.6140;
80726168742838;-9.6491;0.3464;-2.1697;
80726178848463;-10.6170;0.1881;-1.5251;
80726188927473;-10.1665;0.6003;0.0461;
80726199033150;-8.5424;0.4612;-0.8258;
80726209138827;-9.4525;0.3440;-2.7326;
80726219241431;-11.4099;-0.1543;-2.6728;
80726229347108;-8.5783;-0.1376;-2.2223;
80726239452785;-7.8787;-0.2046;-3.7651;
80726249577265;-10.1426;-1.0358;-5.8205;
80726259682942;-11.3043;-1.1821;-4.6059;
80726269788567;-10.0490;-1.4121;-2.8522;
80726279876692;-12.5788;-2.4467;-1.4390;
80726289982317;-13.8915;-2.1616;1.3732;
80726300087994;-10.7940;-1.8144;4.7342;
80726310202890;-9.4717;-2.1233;6.3296;
80726320308567;-9.8623;-1.8168;5.0480;
80726330414192;-10.4181;-0.9209;3.0359;
80726340515285;-11.8170;-0.5136;2.3746;
80726350620963;-9.9293;-0.8082;1.6920;
80726360726588;-9.0814;-0.6957;-0.1597;
80726370808046;-10.8180;-0.5614;-0.7708;
80726380913775;-9.6227;-0.1256;-0.4543;
80726391019400;-8.1302;0.3368;-0.6341;
80726401141223;-8.7413;0.4445;-0.8833;
80726411246900;-9.0622;0.2985;-0.8809;
80726421352525;-9.1914;0.6960;-1.3552;
80726431482994;-10.5544;1.0002;-0.9526;
80726441588671;-9.5172;0.4493;0.2689;
80726451694296;-8.6859;0.0733;0.0604;
80726461776015;-9.4143;0.3918;-1.1444;
80726471881692;-10.0226;1.2350;-1.5541;
80726481987317;-10.3125;1.6974;-1.1994;
80726492100025;-9.1819;1.3693;-1.0152;
80726502205702;-8.4826;0.8016;-1.8153;
80726512311327;-8.8250;0.5859;-2.5289;
80726522414452;-10.0851;0.4493;-2.3973;
80726532520129;-9.3305;0.1092;-2.0740;
80726542625806;-7.9388;-0.0344;-2.6082;
80726552722265;-10.7749;-0.0272;-2.8355;
80726562827942;-10.4827;-0.3700;-1.7551;
80726572933619;-8.4440;-0.9305;-1.1252;
80726583060702;-9.3162;-1.2227;-1.6977;
80726593166379;-9.3640;-0.4968;-2.2510;
80726603272004;-8.8896;0.0063;-2.1577;
80726613382577;-9.1412;0.8830;-2.6393;
80726623488254;-8.9877;1.0651;-2.5816;
80726633593879;-7.8356;0.8710;-3.6141;
80726643694765;-7.4022;1.0101;-4.5628;
80726653800442;-8.6118;1.1321;-4.7833;
80726663906067;-8.8872;1.5514;-4.3974;
80726674010806;-7.6271;1.4913;-3.0200;
80726684116483;-7.3253;1.0388;-3.3577;
80726694222108;-6.8462;1.2736;-4.4429;
80726704314765;-8.1470;0.7872;-5.1401;
80726714420442;-8.5184;1.2063;-5.1544;
80726724526067;-6.4463;1.0747;-5.3366;
80726734622265;-6.8270;0.0900;-7.4686;
80726744727942;-8.3554;0.0182;-7.4207;
80726754833567;-4.0244;-0.6526;-11.9551;
80726764950858;-8.0967;-2.0563;-20.4305;
80726775056535;-11.9776;-2.1855;-23.2167;
80726785162213;-15.0389;-1.8144;-11.3228;
80726795281640;-14.6821;0.2985;0.0126;
80726805387265;-7.6753;-2.2816;2.7434;
80726815492942;-7.7686;-4.2242;2.7123;
80726825588723;-12.8016;-2.1712;1.9842;
80726835694348;-12.0470;0.1786;0.3625;
80726845800025;-10.0202;-0.1615;-1.5781;
80726855923463;-7.9002;-0.7149;-4.6825;
80726866029140;-8.5759;-1.5197;-6.3353;
80726876134817;-10.3511;-0.9162;-5.3127;
80726886210910;-9.9174;-0.9855;-3.8895;
80726896316535;-9.5342;-1.1438;-4.0143;
80726906422213;-7.7040;-0.7292;-4.3017;
80726916528410;-7.6367;-0.6024;-4.3472;
80726926634035;-7.0140;-1.1438;-4.1889;
80726936739713;-8.2143;-0.6383;-5.1449;
80726946844556;-8.3961;-0.5183;-3.7268;
80726956950181;-9.0742;-0.3099;-3.4322;
80726967055858;-8.5065;-0.4848;-3.3194;
80726977164765;-9.1795;-0.0296;-3.1759;
80726987270390;-11.1126;0.9165;-2.6106;
80726997376067;-8.4559;0.5309;-1.1587;
80727007501327;-8.3124;0.5788;-2.0354;
80727017606952;-9.2058;0.2195;-3.2118;
80727027712629;-9.6419;0.0063;-3.3314;
80727037810338;-10.1139;0.2698;-3.5303;
80727047916015;-9.2489;0.2937;-4.1937;
80727058021640;-9.5004;-0.0873;-3.9808;
80727068131327;-10.7940;-0.3194;-2.8427;
80727078236952;-11.1245;-0.7771;-2.2726;
80727088342629;-9.2827;-0.7005;-2.0545;
80727098444660;-8.2693;-0.2668;-2.2391;
80727108550285;-10.1450;0.0422;-2.8908;
80727118655963;-9.3401;0.4325;-3.5040;
80727128736431;-10.0681;0.2530;-3.2979;
80727138842108;-8.5950;0.4564;-3.8632;
80727148947733;-8.7652;1.0531;-4.1459;
80727159067473;-9.3999;0.2435;-4.2084;
80727169173150;-9.4549;0.5692;-4.3400;
80727179278775;-9.1986;0.0230;-3.8824;
80727189367108;-8.6524;0.4564;-3.6212;
80727199472785;-9.3760;0.0517;-3.6571;
80727209578463;-9.3688;0.1953;-3.2022;
80727219696848;-7.1722;0.9452;-4.2132;
80727229802525;-9.2417;0.3583;-5.4754;
80727239908150;-10.3077;0.4469;-4.8239;
80727249996275;-8.7915;0.2267;-3.4370;
80727260101952;-7.7614;0.4493;-3.8536;
80727270207629;-8.4559;-0.0464;-3.6742;
80727280330702;-9.4789;0.1857;-5.0228;
80727290436327;-9.2946;0.1140;-4.5676;
80727300542004;-8.2669;-0.1854;-4.7569;
80727310657681;-9.9245;-0.1854;-5.8445;
80727320763306;-10.0466;-0.1280;-4.3376;
80727330868931;-8.8131;-0.1854;-3.4561;
80727340969973;-7.5338;-0.4681;-2.9602;
80727351075598;-7.1073;0.0182;-3.3697;
80727361181275;-10.8634;-0.7819;-4.9029;
80727371311640;-10.8084;-1.1557;-3.3051;
80727381417265;-7.9866;-0.8130;-4.1794;
80727391522942;-7.3756;0.0230;-4.3424;
80727401604348;-9.2465;-1.3735;-4.2921;
80727411709973;-9.9844;-1.0932;-4.7474;
80727421815650;-9.5605;-0.8970;-3.6045;
80727431922577;-8.3865;-0.9832;-3.2405;
80727442028202;-9.1196;-1.6828;-3.7579;
80727452133879;-9.0359;-0.9353;-4.0167;
80727462244556;-8.7844;-1.4575;-4.1770;
80727472350181;-10.5855;-0.6981;-4.2706;
80727482455858;-10.0370;-1.4336;-2.7326;
80727492574556;-8.5711;-0.8707;-2.9076;
80727502680181;-9.6634;-1.5006;-3.4178;
80727512785858;-9.3640;-0.6742;-3.0559;
80727522874765;-8.4033;-0.7723;-3.7053;
80727532980442;-11.2158;-0.4035;-3.5255;
80727543086119;-9.2082;-0.3939;-2.0593;
80727553201952;-7.8069;-0.2716;-3.1543;
80727563307629;-9.5172;-0.3003;-3.4585;
80727573413254;-9.6395;-0.3748;-2.9818;
80727583514192;-10.3077;-0.5136;-3.5925;
80727593619817;-8.3842;-0.6861;-3.0105;
80727603725494;-9.1005;-0.4418;-3.0153;
80727613837994;-8.5376;-0.7627;-3.2213;
80727623943619;-8.0680;0.5333;-3.2309;
80727634049296;-9.2898;-0.2405;-3.6766;
80727644166952;-9.8695;-0.0176;-4.0095;
80727654272577;-9.3185;0.5788;-2.7446;
80727664378254;-7.9388;0.4564;-3.6909;
80727674469035;-8.9590;0.0159;-4.2467;
80727684574660;-9.8049;0.4516;-3.7579;
80727694680338;-9.5725;0.1355;-1.0774;
80727704779973;-9.1388;-0.3147;-2.0569;
80727714885598;-7.5912;0.4349;-3.3769;
80727724991275;-8.7628;0.5883;-4.9340;
80727735091535;-11.4625;0.3272;-4.3113;
80727745197160;-9.0526;-0.2166;-3.7890;
80727755302838;-8.8992;0.1283;-3.8058;
80727765417890;-9.0024;-0.1089;-3.9254;
80727775523515;-9.3114;0.2363;-3.8728;
80727785629192;-10.0851;0.2937;-3.8871;
80727795705285;-8.1494;0.3440;-2.7159;
80727805810858;-8.9495;-0.1041;-3.2405;
80727815916431;-9.0168;0.0757;-4.0071;
80727826049973;-9.7328;-0.0464;-3.8465;
80727836155546;-10.6672;-0.6191;-3.5088;
80727846261119;-8.3937;-0.0730;-3.5375;
80727856373410;-8.1661;-0.8130;-5.0444;
80727866478983;-11.7595;-0.3532;-4.9531;
80727876584556;-10.5832;-0.2812;-2.1338;
80727886675910;-9.2178;-0.6526;-1.7360;
80727896781483;-10.3654;-0.7675;-3.0511;
80727906887056;-8.4392;-0.2357;-3.2261;
80727916988931;-7.9170;0.1881;-3.2644;
80727927094504;-9.1579;0.6505;-4.1243;
80727937200077;-9.0790;0.2076;-4.4309;
80727947299765;-8.9782;0.2770;-3.3721;
80727957405338;-5.9839;0.4711;-3.1181;
80727967510910;-9.0383;0.1379;-5.8011;
80727977634140;-10.7414;-0.0296;-5.5618;
80727987739713;-8.6644;0.3368;-2.7613;
80727997845285;-8.2549;0.5812;-3.3888;
80728007917160;-9.3712;0.8112;-4.2706;
80728018022733;-7.9866;0.5285;-4.0023;
80728028128306;-8.6596;-0.1496;-4.2084;
80728038282681;-11.3019;1.3836;-4.2371;
80728048388202;-8.3937;1.3382;-3.4777;
80728058493827;-9.9556;0.8303;-3.0942;
80728068571327;-8.6620;0.8255;-3.1639;
80728078676900;-7.9146;0.2435;-3.3936;
80728088782473;-9.1819;-0.5830;-4.4357;
80728098886431;-10.1067;-0.5710;-5.4395;
80728108992004;-9.5964;-0.7436;-3.6766;
80728119097577;-9.4190;-0.6263;-4.7689;
80728129226223;-11.0360;-0.7507;-4.6944;
80728139331796;-6.8031;-1.2682;-4.8790;
80728149437369;-9.5172;-1.7665;-5.6982;
80728159578098;-10.2933;-0.8803;-3.4011;
80728169683671;-10.2000;-0.0033;-1.3193;
80728179789244;-10.7701;-0.5997;-1.4342;
80728189849035;-8.9471;-0.5495;-3.7412;
80728199954608;-10.1689;-0.6694;-2.6776;
80728210060181;-9.2922;-0.3676;-0.9048;
80728220159140;-8.6142;0.2554;-1.7192;
80728230264713;-6.4989;0.2195;-3.7531;
80728240370285;-8.4634;-0.6837;-4.6059;
80728250479348;-8.4730;0.0111;-3.9039;
80728260584921;-8.6668;-0.0057;-3.7244;
80728270690494;-8.4344;0.2076;-5.1616;
80728280805806;-10.7486;-0.6168;-6.9607;
80728290911379;-10.5879;0.3870;-5.4227;
80728301016952;-9.2707;1.2446;-2.4476;
80728311121431;-7.7447;1.0077;-0.5073;
80728321227004;-8.2932;0.3990;-1.6068;
80728331332577;-7.2727;0.9260;-2.4691;
80728341435285;-8.4535;0.4564;-2.8980;
80728351540858;-9.6180;0.4564;-2.6441;
80728361646431;-8.2454;1.2063;-2.4380;
80728371727473;-8.9088;0.7199;-4.1052;
80728381833046;-11.2325;1.3334;-4.3232;
80728391938619;-11.8170;1.0747;-3.2405;
80728402057994;-10.5975;2.2125;-3.4825;
80728412163567;-10.5473;0.5548;-3.3123;
80728422269140;-9.4980;-0.4513;-3.6838;
80728432370285;-8.9518;1.2541;-1.8105;
80728442475858;-7.0546;0.8853;0.7289;
80728452581431;-9.8025;0.2411;0.0966;
80728462700025;-7.3540;0.0685;-2.6919;
80728472805598;-5.8451;-0.6072;-6.3401;
80728482911171;-11.9366;-0.7986;-6.9870;
80728493011640;-16.1528;-0.3963;-3.5016;
80728503117213;-14.2579;0.2483;-1.5637;
80728513222785;-6.5850;-0.8680;-1.1348;
80728523309556;-5.3755;-1.3113;-2.6010;
80728533415129;-7.8380;-0.6837;-3.7172;
80728543520702;-9.9820;-0.7364;-2.7063;
80728553663931;-10.4994;-1.5628;-4.5413;
80728563769504;-8.9495;-1.9029;-4.8287;
80728573875077;-8.8537;-0.7866;-5.1927;
80728583958515;-7.5027;-0.7316;-3.6380;
80728594064088;-8.1206;-0.7723;-3.0631;
80728604169660;-9.4334;-1.1677;-3.9736;
80728614282785;-9.5773;-0.5806;-5.3151;
80728624388358;-8.7290;-0.4777;-4.5891;
80728634493931;-8.5256;-0.1902;-2.5170;
80728644593723;-7.3086;-0.6526;-2.6321;
80728654699296;-10.1785;-0.1256;-4.8072;
80728664804869;-11.1751;-0.1783;-4.0502;
80728674913723;-8.3315;0.0326;-1.2858;
80728685019296;-8.6931;-0.5662;-1.3217;
80728695124869;-8.7290;-0.0248;-0.0664;
80728705248515;-7.1507;0.3176;-2.5217;
80728715354088;-11.5367;-0.8393;-9.8112;
80728725459660;-12.8830;0.5907;-9.5958;
80728735545598;-7.7303;0.7442;-2.2319;
80728745651171;-6.3697;0.1259;-0.1884;
80728755756744;-9.2345;-0.4394;-2.4212;
80728765869765;-9.1890;-0.6048;-4.3902;
80728775975338;-8.6859;0.2985;-3.5925;
80728786080910;-10.3654;0.6218;-3.8704;
80728796194869;-9.5052;0.5285;-5.4562;
80728806300494;-8.7075;1.2302;-2.2726;
80728816406171;-8.5113;0.0613;-1.3624;
80728826500181;-9.0838;-0.1376;-2.7613;
80728836605858;-10.2263;-0.3700;-5.3103;
80728846711483;-10.3606;-0.4585;-3.7866;
80728856810858;-8.6788;-0.3170;-3.0679;
80728866916483;-9.6849;-0.3867;-2.5265;
80728877022160;-10.8586;-0.8803;-3.1229;
80728887121431;-9.4908;-0.3314;-2.1338;
80728897227108;-10.5568;-0.7388;-3.0583;
80728907332733;-8.6142;-0.9138;-1.8440;
80728917463619;-7.4453;-1.2036;-3.4346;
80728927569244;-8.3435;-0.7316;-3.5853;
80728937674921;-11.1870;-0.8512;-3.4011;
80728947748723;-10.3798;-1.4503;-2.3204;
80728957854400;-8.6453;-1.1414;-2.2008;
80728967959973;-7.9938;-1.0071;-3.5901;
80728978092838;-6.9398;-1.2754;-3.3171;
80728988198515;-9.5916;-2.0204;-3.4178;
80728998304192;-10.4874;-2.0874;-2.3447;
80729008392994;-9.0191;-2.0611;-3.6814;
80729018498619;-8.9734;-1.8957;-4.3543;
80729028604296;-9.2970;-1.1533;-3.9159;
80729038725598;-10.1737;-1.5269;-3.2931;
80729048831223;-9.5510;-1.4169;-2.6465;
80729058936900;-9.2249;-0.7292;-3.2237;
80729069039035;-10.0828;-0.7196;-3.8919;
80729079144660;-9.3712;-1.2203;-2.9363;
80729089250338;-8.8370;-0.7747;-2.4500;
80729099345025;-10.1067;-0.3748;-3.1735;
80729109450702;-11.0480;-0.8273;-1.8344;
80729119556327;-6.8055;-0.4848;-1.6594;
