Sensor: bmi160 Gyroscope Non-wakeup
Vendor: BOSCH
TimestampGyro [ns]; GyroX [rad/s]; GyroY [rad/s]; GyroZ [rad/s]
3101124940845339;-0.0113;0.0040;0.0278;
3101124950960287;-0.0092;0.0008;0.0246;
3101124961047162;-0.0060;-0.0056;0.0289;
3101124971171641;-0.0049;-0.0067;0.0321;
3101124981276954;-0.0049;-0.0056;0.0321;
3101124991388777;-0.0081;-0.0045;0.0332;
3101125001477995;-0.0103;-0.0056;0.0353;
3101125011582423;-0.0081;-0.0045;0.0374;
3101125021683308;-0.0092;-0.0056;0.0385;
3101125031797631;-0.0103;-0.0056;0.0385;
3101125041910079;-0.0081;-0.0067;0.0385;
3101125052020183;-0.0092;-0.0077;0.0406;
3101125062120912;-0.0103;-0.0056;0.0417;
3101125072228100;-0.0103;-0.0045;0.0395;
3101125082330495;-0.0103;-0.0035;0.0417;
3101125092444037;-0.0103;-0.0045;0.0427;
3101125102549037;-0.0092;-0.0045;0.0395;
3101125112658412;-0.0060;-0.0056;0.0406;
3101125122756329;-0.0060;-0.0067;0.0385;
3101125132897110;-0.0049;-0.0067;0.0385;
3101125142972787;-0.0081;-0.0077;0.0406;
3101125153078829;-0.0092;-0.0077;0.0385;
3101125163186641;-0.0113;-0.0077;0.0395;
3101125173315339;-0.0113;-0.0099;0.0395;
3101125183463152;-0.0113;-0.0077;0.0385;
3101125193521798;-0.0103;-0.0077;0.0395;
3101125203613360;-0.0081;-0.0109;0.0406;
3101125213734662;-0.0103;-0.0141;0.0427;
3101125223810600;-0.0103;-0.0162;0.0438;
3101125233965235;-0.0103;-0.0173;0.0438;
3101125244101641;-0.0017;-0.0152;0.0502;
3101125254159141;0.0142;-0.0109;0.0587;
3101125264276537;0.0238;-0.0099;0.0694;
3101125274380183;0.0142;-0.0099;0.0790;
3101125284476537;-0.0092;-0.0130;0.0875;
3101125294593100;-0.0273;-0.0173;0.0960;
3101125304722787;-0.0294;-0.0248;0.1077;
3101125314832787;-0.0156;-0.0301;0.1216;
3101125324910079;0.0132;-0.0312;0.1365;
3101125335018308;0.0569;-0.0322;0.1514;
3101125345140391;0.1005;-0.0333;0.1674;
3101125355235600;0.1378;-0.0333;0.1802;
3101125365336225;0.1644;-0.0354;0.1919;
3101125375464766;0.1868;-0.0397;0.2004;
3101125385552891;0.2092;-0.0407;0.2089;
3101125395690704;0.2252;-0.0429;0.2185;
3101125405768725;0.2305;-0.0439;0.2217;
3101125415875808;0.2241;-0.0418;0.2238;
3101125425985287;0.2124;-0.0375;0.2249;
3101125436094141;0.2028;-0.0365;0.2260;
3101125446198881;0.1996;-0.0322;0.2270;
3101125456306537;0.2007;-0.0322;0.2270;
3101125466422318;0.2039;-0.0344;0.2281;
3101125476524558;0.2103;-0.0354;0.2270;
3101125486640964;0.2145;-0.0375;0.2249;
3101125496739245;0.2209;-0.0375;0.2228;
3101125506848308;0.2358;-0.0365;0.2217;
3101125516955548;0.2635;-0.0322;0.2217;
3101125527059870;0.3051;-0.0312;0.2217;
3101125537163516;0.3594;-0.0301;0.2206;
3101125547273829;0.4084;-0.0312;0.2228;
3101125557388620;0.4254;-0.0322;0.2217;
3101125567490079;0.4276;-0.0333;0.2164;
3101125577597058;0.4339;-0.0322;0.2100;
3101125587703048;0.4531;-0.0280;0.2079;
3101125597818933;0.4702;-0.0226;0.2068;
3101125607917370;0.4691;-0.0194;0.2047;
3101125618024662;0.4680;-0.0205;0.1983;
3101125628136381;0.4755;-0.0258;0.1961;
3101125638243933;0.4755;-0.0280;0.1929;
3101125648346745;0.4638;-0.0290;0.1919;
3101125658457162;0.4723;-0.0290;0.1897;
3101125668588673;0.5075;-0.0248;0.1876;
3101125678678412;0.5490;-0.0194;0.1940;
3101125688781329;0.5872;-0.0152;0.1993;
3101125698883620;0.6160;-0.0205;0.1972;
3101125708982787;0.5245;-0.0450;0.1908;
3101125719104037;0.3359;-0.0738;0.1770;
3101125729214662;0.0739;-0.0897;0.1578;
3101125739357631;-0.0421;-0.0578;0.1471;
3101125749423308;0.0153;0.0029;0.1418;
3101125759530964;0.0824;0.0498;0.1407;
3101125769640287;0.0995;0.0764;0.1344;
3101125779745912;0.0206;0.0615;0.1194;
3101125789866537;-0.0794;0.0093;0.1088;
3101125799963412;-0.0474;-0.0354;0.1045;
3101125810067683;-0.0431;-0.0631;0.1120;
3101125820181641;-0.0156;-0.0546;0.1109;
3101125830283308;-0.0071;-0.0248;0.1003;
3101125840389975;0.0142;0.0029;0.0864;
3101125850501954;0.0728;0.0146;0.0832;
3101125860603412;0.1304;0.0093;0.0885;
3101125870736277;0.1698;0.0146;0.0843;
3101125880818829;0.1772;0.0157;0.0747;
3101125890924454;0.1719;0.0125;0.0587;
3101125901031745;0.1879;0.0338;0.0502;
3101125911131225;0.1953;0.0509;0.0513;
3101125921249662;0.1794;0.0349;0.0481;
3101125931356381;0.1623;0.0178;0.0395;
3101125941463308;0.1399;0.0072;0.0332;
3101125951574610;0.1059;-0.0184;0.0321;
3101125961677162;0.0877;-0.0407;0.0310;
3101125971787266;0.1101;-0.0248;0.0257;
3101125981894298;0.1250;0.0125;0.0172;
3101125992005287;0.0835;0.0029;0.0108;
3101126002113256;0.0356;-0.0248;0.0119;
3101126012221225;0.0196;-0.0173;0.0108;
3101126022321954;-0.0017;0.0029;0.0055;
3101126032429923;-0.0103;0.0115;-0.0009;
3101126042537891;-0.0017;0.0029;0.0001;
3101126052644454;0.0057;-0.0045;0.0065;
3101126062752423;0.0142;-0.0013;0.0140;
3101126072860391;0.0132;-0.0035;0.0129;
3101126082967475;0.0068;-0.0205;0.0097;
3101126093075443;0.0089;-0.0237;0.0129;
3101126103183412;0.0409;-0.0067;0.0119;
3101126113306589;0.0739;0.0146;0.0182;
3101126123414506;0.0941;0.0328;0.0268;
3101126133522475;0.0931;0.0221;0.0321;
3101126143602579;0.0760;-0.0184;0.0332;
3101126153710548;0.0824;-0.0194;0.0300;
3101126163818464;0.0856;0.0051;0.0278;
3101126173956745;0.0345;0.0019;0.0204;
3101126184064714;-0.0124;0.0072;0.0172;
3101126194172683;-0.0092;0.0168;0.0193;
3101126204245443;-0.0039;0.0146;0.0257;
3101126214353412;0.0057;0.0008;0.0300;
3101126224461381;0.0079;-0.0248;0.0268;
3101126234585808;0.0142;-0.0077;0.0161;
3101126244693777;0.0025;0.0221;0.0055;
3101126254801745;-0.0103;0.0051;0.0033;
3101126264903933;-0.0028;0.0136;0.0087;
3101126275011902;0.0025;0.0370;0.0182;
3101126285119870;0.0004;-0.0024;0.0182;
3101126295241329;0.0142;-0.0407;0.0076;
3101126305349298;-0.0007;-0.0354;-0.0073;
3101126315457266;-0.0209;-0.0344;-0.0201;
3101126325575391;-0.0336;-0.0322;-0.0105;
3101126335683360;-0.0453;-0.0013;0.0033;
3101126345791329;-0.0399;0.0157;0.0033;
3101126355873412;0.0025;0.0029;-0.0020;
3101126365981381;0.0174;-0.0141;-0.0041;
3101126376089350;0.0089;0.0093;-0.0105;
3101126386192162;0.0100;0.0626;-0.0254;
3101126396300131;-0.0103;0.0264;-0.0254;
3101126406408100;-0.0049;-0.0684;-0.0212;
3101126416520548;0.0366;-0.0716;-0.0169;
3101126426628516;0.0270;-0.0258;-0.0435;
3101126436736485;0.0132;0.0573;-0.0755;
3101126446836329;0.0121;0.0796;-0.0766;
3101126456944298;0.0302;0.0093;-0.0510;
3101126467052266;0.0398;-0.0312;-0.0510;
3101126477164245;0.0249;-0.0205;-0.0925;
3101126487272214;0.0153;-0.0099;-0.1277;
3101126497380183;0.0249;0.0146;-0.1256;
3101126507490964;0.0441;0.0264;-0.1213;
3101126517598933;0.0387;0.0040;-0.1479;
3101126527707423;0.0196;0.0306;-0.1575;
3101126537815339;0.0366;0.0647;-0.1298;
3101126547923308;0.0558;0.0519;-0.1181;
3101126558022162;0.0579;0.0306;-0.1383;
3101126568130131;0.0696;0.0807;-0.1426;
3101126578238100;0.1027;0.1423;-0.1192;
3101126588347579;0.1932;0.0924;-0.0957;
3101126598455548;0.3498;0.0189;-0.0851;
3101126608563516;0.5106;0.0146;-0.0297;
3101126618677683;0.5989;0.0242;0.0353;
3101126628785652;0.6096;-0.0024;0.0310;
3101126638893620;0.5362;0.0242;0.0150;
3101126648986433;0.3754;0.0988;0.0545;
3101126659094402;0.2188;0.1136;0.0875;
3101126669202370;0.1495;0.0455;0.0779;
3101126679312162;0.0632;0.0722;0.0981;
3101126689420131;0.0015;0.1402;0.1269;
3101126699528100;0.0345;0.0903;0.1130;
3101126709625339;-0.0145;0.0722;0.0917;
3101126719733256;-0.1092;0.1455;0.1184;
3101126729841225;-0.2732;0.1391;0.1354;
3101126739975912;-0.3755;0.0818;0.0790;
3101126750083881;-0.5662;0.1063;0.0566;
3101126760191850;-0.7823;0.1658;0.0651;
3101126770283725;-0.8771;0.1136;0.0225;
3101126780391693;-0.9644;0.0668;-0.0340;
3101126790499662;-1.1221;0.1115;-0.0563;
3101126800603412;-1.2446;0.1232;-0.0830;
3101126810711381;-1.2615;0.0328;-0.1128;
3101126820819350;-1.2817;-0.0237;-0.1415;
3101126830909298;-1.3425;0.0487;-0.1511;
3101126841017266;-1.3318;0.0988;-0.1724;
3101126851125235;-1.2540;0.0264;-0.2362;
3101126861240079;-1.2009;0.0285;-0.2447;
3101126871348048;-1.1817;0.0999;-0.2309;
3101126881456016;-1.0848;0.0658;-0.2586;
3101126891560495;-0.9538;0.0008;-0.3001;
3101126901668464;-0.8792;0.0423;-0.2969;
3101126911776433;-0.8078;0.0786;-0.2884;
3101126921882995;-0.6438;0.0221;-0.3225;
3101126931990964;-0.4714;0.0019;-0.3395;
3101126942098933;-0.3638;0.0818;-0.3023;
3101126952208204;-0.2413;0.0977;-0.2969;
3101126962316173;-0.1358;0.0083;-0.3342;
3101126972424141;-0.0921;0.0338;-0.3353;
3101126982525808;-0.0613;0.1328;-0.3097;
3101126992633777;-0.0273;0.0754;-0.3385;
3101127002741745;0.0664;-0.0322;-0.3566;
3101127012847058;0.0941;0.0466;-0.3268;
3101127022955027;0.1112;0.1115;-0.3097;
3101127033062995;0.2156;0.0285;-0.3342;
3101127043166850;0.3157;0.0029;-0.3161;
3101127053274818;0.3754;0.0764;-0.2820;
3101127063382787;0.4233;0.0605;-0.2746;
3101127073506537;0.4798;0.0104;-0.2586;
3101127083614506;0.5341;0.0242;-0.2373;
3101127093722475;0.5851;0.0477;-0.2501;
3101127103821433;0.6288;-0.0035;-0.2511;
3101127113929402;0.6937;-0.0056;-0.1927;
3101127124037370;0.7768;0.0349;-0.1618;
3101127134139350;0.8439;0.0189;-0.1778;
3101127144247318;0.8951;-0.0088;-0.1405;
3101127154355287;0.9409;0.0104;-0.1181;
3101127164486537;0.9760;0.0200;-0.1117;
3101127174594506;0.9771;-0.0088;-0.0563;
3101127184702475;0.9824;-0.0312;-0.0617;
3101127194782266;0.9760;0.0008;-0.0414;
3101127204890235;0.9515;0.0285;0.0129;
3101127214998204;0.9398;-0.0418;0.0076;
3101127225105600;0.8525;-0.0610;0.0268;
3101127235213568;0.7853;-0.0003;0.0257;
3101127245321537;0.7449;0.0189;0.0182;
3101127255434037;0.6895;-0.0130;0.0438;
3101127265542006;0.6650;-0.0088;0.0385;
3101127275649975;0.6117;0.0242;0.0300;
3101127285782370;0.5575;-0.0248;0.0609;
3101127295890339;0.5000;-0.0716;0.0438;
3101127305998308;0.4595;-0.0258;0.0310;
3101127316081433;0.4254;-0.0035;0.0214;
3101127326189402;0.3658;-0.0344;0.0236;
3101127336297370;0.3328;-0.0333;0.0374;
3101127346400704;0.2784;-0.0024;0.0087;
3101127356508673;0.2646;-0.0045;0.0257;
3101127366616641;0.1985;0.0061;0.0150;
3101127376716850;0.1847;0.0232;0.0065;
3101127386824818;0.1783;0.0104;-0.0169;
3101127396932787;0.2071;0.0242;-0.0031;
3101127407045808;0.2071;0.0413;0.0278;
3101127417153777;0.2188;0.0573;0.0161;
3101127427261745;0.1975;0.0328;0.0726;
3101127437371641;0.1826;0.0157;0.0704;
3101127447479610;0.1826;0.0626;0.1162;
3101127457587579;0.1783;0.0509;0.0992;
3101127467699141;0.1943;0.0146;0.1439;
3101127477807110;0.1655;0.0466;0.1407;
3101127487915079;0.2028;0.0775;0.1599;
3101127498012787;0.1708;0.1072;0.1684;
3101127508120756;0.1698;0.0764;0.1716;
3101127518228725;0.1154;0.0445;0.1855;
3101127528333568;0.0995;0.0775;0.2004;
3101127538441016;0.0632;0.0956;0.2047;
3101127548548464;0.0750;0.0807;0.1919;
3101127558652839;0.0387;0.0711;0.1961;
3101127568760287;0.0398;0.1157;0.1993;
3101127578867735;0.0356;0.1732;0.1929;
3101127588976850;0.0569;0.1498;0.1940;
3101127599084298;0.0132;0.1434;0.1802;
3101127609191745;-0.0092;0.1200;0.1770;
3101127619303256;-0.0868;0.0796;0.1493;
3101127629410704;-0.1326;0.0668;0.1567;
3101127639518152;-0.1795;0.1009;0.1109;
3101127649614089;-0.1422;0.1041;0.1099;
3101127659721537;-0.1699;0.1328;0.0640;
3101127669828985;-0.1475;0.1455;0.0726;
3101127679942423;-0.1827;0.1072;0.0087;
3101127690049870;-0.2317;0.0935;-0.0148;
3101127700157318;-0.2828;0.0583;-0.0648;
3101127710288568;-0.3095;0.0423;-0.0808;
3101127720396016;-0.3095;0.0296;-0.1192;
3101127730503516;-0.2849;0.0051;-0.1650;
3101127740615756;-0.2402;0.0210;-0.2106;
3101127750723204;-0.1848;0.0115;-0.2501;
3101127760830652;-0.1017;0.0157;-0.2458;
3101127770914089;-0.0145;0.0722;-0.2597;
3101127781021537;0.0995;0.1063;-0.2767;
3101127791128985;0.1240;0.0498;-0.2884;
3101127801231485;0.1144;0.0338;-0.2842;
3101127811338933;0.1080;0.0498;-0.2927;
3101127821446381;0.1218;0.0402;-0.2703;
3101127831555027;0.1122;0.0285;-0.2746;
3101127841662475;0.1154;0.0296;-0.2586;
3101127851769923;0.1154;-0.0194;-0.2810;
3101127861882527;0.1101;-0.0226;-0.2469;
3101127871989975;0.1421;-0.0099;-0.2256;
3101127882097423;0.1357;-0.0173;-0.2181;
3101127892195964;0.1794;-0.0439;-0.1660;
3101127902303412;0.1751;-0.0344;-0.1746;
3101127912410860;0.2433;-0.0067;-0.1352;
3101127922518568;0.2550;-0.0418;-0.1107;
3101127932626016;0.3040;-0.0461;-0.0617;
3101127942733464;0.3626;-0.0045;-0.0297;
3101127952846798;0.3999;0.0072;0.0332;
3101127962954245;0.4414;-0.0003;0.0981;
3101127973061693;0.3945;-0.0290;0.1120;
3101127983177683;0.3764;-0.0407;0.1716;
3101127993285079;0.2923;-0.0439;0.1791;
3101128003392579;0.2252;-0.0503;0.2110;
3101128013500027;0.1612;-0.0791;0.2185;
3101128023601068;0.0973;-0.0855;0.2313;
3101128033708516;0.0835;-0.0642;0.2632;
3101128043815964;0.0686;-0.0333;0.2313;
3101128053914506;0.0579;0.0040;0.2803;
3101128064021954;0.0824;0.0370;0.2590;
3101128074129454;0.0441;0.0530;0.2600;
3101128084225183;0.0664;0.0221;0.2558;
3101128094332683;0.0164;-0.0429;0.2334;
3101128104440131;0.0089;-0.0386;0.2505;
3101128114589245;-0.0357;-0.0003;0.2377;
3101128124696693;-0.0198;-0.0237;0.2079;
3101128134804141;-0.0092;-0.0557;0.1897;
3101128144903673;-0.0378;-0.0322;0.1706;
3101128155011120;-0.0209;-0.0035;0.1674;
3101128165118568;-0.0262;-0.0397;0.1333;
3101128175226589;-0.0368;-0.0578;0.1184;
3101128185334037;-0.0421;-0.0184;0.0949;
3101128195441485;-0.0124;0.0210;0.0736;
3101128205537318;0.0089;0.0104;0.0609;
3101128215644766;-0.0007;0.0306;0.0449;
3101128225752214;0.0249;0.0850;0.0470;
3101128235842839;0.0451;0.1530;0.0236;
3101128245950287;0.0995;0.1541;-0.0084;
3101128256057735;0.0771;0.2158;0.0097;
3101128266177631;0.1154;0.2403;-0.0297;
3101128276285079;0.0803;0.2318;-0.0244;
3101128286392527;0.0963;0.2414;0.0236;
3101128296503256;0.0696;0.1615;0.0097;
3101128306610704;-0.0336;0.0541;-0.0158;
3101128316718152;-0.1305;-0.0013;-0.0510;
3101128326824193;-0.2232;-0.0482;-0.0574;
3101128336931641;-0.2828;-0.0344;-0.0755;
3101128347039089;-0.2828;-0.0525;-0.1096;
3101128357150860;-0.3702;-0.2527;-0.1639;
3101128367258308;-0.3819;-0.4104;-0.1586;
3101128377365756;-0.3148;-0.0056;-0.1138;
3101128387463152;-0.2317;0.3405;-0.1916;
3101128397570600;0.1176;0.1839;-0.2415;
3101128407678048;0.2550;-0.0620;-0.2256;
3101128417803777;0.0121;-0.0780;-0.2447;
3101128427911225;-0.1156;-0.0439;-0.2628;
3101128438018725;-0.0485;-0.0503;-0.3150;
3101128448107527;-0.0463;-0.0802;-0.3672;
3101128458214975;-0.0762;-0.2112;-0.3843;
3101128468322423;-0.0581;-0.3294;-0.3758;
3101128478432527;-0.0794;-0.2964;-0.4397;
3101128488539975;-0.0284;-0.2357;-0.4716;
3101128498647423;0.0377;-0.2474;-0.4407;
3101128508769714;0.0632;-0.2623;-0.4514;
3101128518877162;0.0632;-0.2559;-0.4461;
3101128528984610;0.1336;-0.1888;-0.4184;
3101128539080652;0.1314;-0.1334;-0.4173;
3101128549188100;0.2529;-0.0578;-0.3577;
3101128559295600;0.2656;-0.1324;-0.3193;
3101128569400443;0.2401;-0.1579;-0.2895;
3101128579507891;0.2944;0.0615;-0.2352;
3101128589615391;0.3892;0.2425;-0.1852;
3101128599722318;0.3391;-0.1622;-0.1330;
3101128609829766;0.0984;-0.5487;-0.1639;
3101128619937266;0.0089;-0.1004;-0.1607;
3101128630072631;0.1314;0.1860;-0.1767;
3101128640180131;0.2198;-0.0024;-0.1479;
3101128650287579;0.3913;-0.1015;-0.1277;
3101128660365600;0.3296;0.0178;-0.1202;
3101128670473048;0.1932;0.1232;-0.0808;
3101128680580548;0.2305;0.0168;-0.0702;
3101128690696589;0.2880;-0.0344;-0.0595;
3101128700804037;0.2688;0.0711;-0.0286;
3101128710911537;0.2529;0.0210;0.0172;
3101128721014610;0.2635;-0.0429;0.0502;
3101128731122058;0.2475;0.0072;0.0470;
3101128741229558;0.2411;-0.0205;0.0790;
3101128751338464;0.2252;-0.0770;0.0832;
3101128761445912;0.2220;-0.0216;0.0971;
3101128771553412;0.2039;-0.0237;0.1226;
3101128781661589;0.1921;-0.0610;0.1354;
3101128791769037;0.1549;-0.0535;0.1535;
3101128801876537;0.0984;-0.0727;0.1365;
3101128811980548;0.0995;-0.0578;0.1280;
3101128822087995;0.1378;0.0360;0.1216;
3101128832195495;0.1495;0.0115;0.1013;
3101128842299298;0.1485;-0.0088;0.0917;
3101128852406745;0.1527;0.0668;0.1141;
3101128862514245;0.1410;0.0573;0.1003;
3101128872625652;0.1538;0.0370;0.0907;
3101128882733100;0.1772;0.0999;0.0885;
3101128892840600;0.1730;0.0690;0.0630;
3101128902937735;0.1932;0.0306;0.0704;
3101128913045183;0.1421;-0.0280;0.0736;
3101128923152683;0.1442;-0.0269;0.0491;
3101128933273308;0.1719;0.0221;0.0193;
3101128943380808;0.2358;0.0253;0.0225;
3101128953488308;0.2838;0.0200;0.0161;
3101128963595548;0.3178;-0.0045;0.0150;
3101128973702995;0.3604;-0.0120;0.0268;
3101128983810443;0.4020;0.0093;0.0364;
3101128993903881;0.4691;0.0040;0.0523;
3101129004011329;0.5202;0.0093;0.0811;
3101129014118829;0.5373;0.0072;0.0768;
3101129024250964;0.5787;-0.0226;0.0843;
3101129034358464;0.5618;-0.0258;0.1152;
3101129044465912;0.5128;0.0083;0.1088;
3101129054561277;0.5085;-0.0141;0.1216;
3101129064668725;0.5064;-0.0045;0.1397;
3101129074776225;0.4414;-0.0024;0.1258;
3101129084886902;0.3924;-0.0205;0.1407;
3101129094994350;0.3349;0.0083;0.1514;
3101129105101850;0.3200;0.0360;0.1407;
3101129115210964;0.3413;0.0605;0.1418;
3101129125318412;0.3114;0.0626;0.1525;
3101129135425912;0.3125;0.0679;0.1706;
3101129145563777;0.2880;0.0881;0.1791;
3101129155671225;0.2784;0.0764;0.1834;
3101129165778725;0.3008;0.1423;0.1897;
3101129175848360;0.3232;0.1052;0.1844;
3101129185955808;0.3008;0.0157;0.2196;
3101129196063308;0.2880;-0.0365;0.2675;
3101129206182110;0.2294;-0.0631;0.2728;
3101129216289558;0.2007;-0.0748;0.2675;
3101129226397058;0.1687;-0.1068;0.3037;
3101129236504818;0.1272;-0.0855;0.3389;
3101129246612266;0.1144;-0.0109;0.3314;
3101129256719766;0.1261;0.0466;0.3240;
3101129266835131;0.1751;0.0839;0.3229;
3101129276942579;0.2241;0.0626;0.3421;
3101129287050079;0.2220;0.0519;0.3634;
3101129297142631;0.1953;0.0626;0.3751;
3101129307250079;0.1921;0.0562;0.3879;
3101129317357579;0.1453;0.0083;0.4092;
3101129327485131;0.0569;-0.0525;0.4112;
3101129337592579;-0.0431;-0.0557;0.4049;
3101129347700079;-0.1028;-0.0876;0.3644;
3101129357800443;-0.0378;-0.0258;0.3751;
3101129367907891;-0.0751;-0.0503;0.3953;
3101129378015391;-0.0198;-0.1047;0.4314;
3101129388115235;-0.0273;0.1881;0.4485;
3101129398222683;0.0015;0.2446;0.4783;
3101129408330183;0.1900;0.1434;0.5081;
3101129418418464;0.0909;0.0754;0.5582;
3101129428525912;-0.0623;0.0338;0.5752;
3101129438633412;-0.1529;0.0445;0.5465;
3101129448758516;-0.2189;0.0210;0.5198;
3101129458865964;-0.2423;0.0253;0.5124;
3101129468973464;-0.2818;0.0455;0.5071;
3101129479097839;-0.3148;0.0317;0.4953;
3101129489205339;-0.3190;0.0583;0.4740;
3101129499312787;-0.3702;0.0402;0.4591;
3101129509407006;-0.4330;-0.0216;0.4762;
3101129519514454;-0.4831;0.0072;0.4517;
3101129529621954;-0.5161;0.0455;0.4399;
3101129539724610;-0.5129;0.0210;0.4410;
3101129549832110;-0.4991;0.0573;0.4559;
3101129559939610;-0.5459;0.0764;0.4442;
3101129570042943;-0.5736;0.0136;0.4282;
3101129580150443;-0.6098;-0.0258;0.4102;
3101129590257943;-0.6843;0.0615;0.3857;
3101129600367214;-0.6928;0.0999;0.3804;
3101129610474714;-0.5917;0.0658;0.3602;
3101129620582214;-0.5821;0.1200;0.3442;
3101129630710912;-0.6035;0.1626;0.3240;
3101129640818412;-0.5459;0.0711;0.3091;
3101129650925912;-0.5683;0.0391;0.2963;
3101129661009923;-0.6981;0.0402;0.2973;
3101129671117423;-0.7301;0.0317;0.2920;
3101129681224923;-0.7248;0.0242;0.2419;
3101129691340548;-0.7109;0.0360;0.2185;
3101129701448048;-0.7162;0.0647;0.2057;
3101129711555548;-0.6715;0.0594;0.2079;
3101129721660964;-0.6301;0.0892;0.1876;
3101129731768464;-0.6248;0.0796;0.1716;
3101129741875964;-0.6098;0.0477;0.1258;
3101129751980339;-0.6194;0.0221;0.1056;
3101129762087839;-0.6173;0.0594;0.1152;
3101129772195339;-0.6035;0.1146;0.0939;
3101129782298464;-0.5150;0.1668;0.0917;
3101129792405964;-0.4607;0.1455;0.0683;
3101129802513464;-0.4714;0.0615;0.0342;
3101129812617214;-0.5257;-0.0003;0.0065;
3101129822724714;-0.5704;0.0104;0.0172;
3101129832832214;-0.5619;0.0083;0.0172;
3101129842937110;-0.5118;0.0775;-0.0095;
3101129853044610;-0.4671;0.1178;0.0055;
3101129863152058;-0.4479;0.1052;-0.0041;
3101129873273204;-0.4660;0.1125;-0.0265;
3101129883380756;-0.4810;0.1317;-0.0180;
3101129893488204;-0.4969;0.1178;-0.0403;
3101129903594766;-0.4660;0.1285;-0.0659;
3101129913702318;-0.4671;0.1221;-0.0872;
3101129923809818;-0.4863;0.0871;-0.1138;
3101129933908725;-0.4831;0.0690;-0.1352;
3101129944016225;-0.4767;0.0924;-0.1426;
3101129954123725;-0.4362;0.2329;-0.1415;
3101129964215443;-0.4202;0.1764;-0.1266;
3101129974322943;-0.4277;0.1242;-0.1639;
3101129984430443;-0.4394;0.1956;-0.1565;
3101129994561589;-0.4288;0.1647;-0.1628;
3101130004669089;-0.4405;0.0871;-0.1873;
3101130014776589;-0.4724;0.0722;-0.1884;
3101130024898360;-0.4831;0.0338;-0.2085;
3101130035005860;-0.4671;0.0541;-0.2224;
3101130045113360;-0.4405;0.1136;-0.2490;
3101130055222579;-0.4106;0.1594;-0.2724;
3101130065330079;-0.3915;0.2009;-0.2756;
3101130075437579;-0.3787;0.2126;-0.2873;
3101130085556068;-0.3787;0.2148;-0.3097;
3101130095663568;-0.3851;0.2244;-0.3395;
3101130105771068;-0.3798;0.1615;-0.3619;
3101130115858673;-0.4075;0.0487;-0.3939;
3101130125966173;-0.4160;0.0157;-0.4407;
3101130136073673;-0.4202;-0.0077;-0.4642;
3101130146182839;-0.3744;0.0402;-0.4876;
3101130156290339;-0.3627;0.1349;-0.4865;
3101130166397839;-0.3286;0.0967;-0.4823;
3101130176499089;-0.3212;0.0530;-0.5185;
3101130186606589;-0.3148;0.0967;-0.5366;
3101130196714089;-0.3116;0.1115;-0.5537;
3101130206857006;-0.2604;0.1031;-0.5760;
3101130216964454;-0.2328;0.1157;-0.5941;
3101130227072006;-0.2168;0.1157;-0.6357;
3101130237129402;-0.1454;0.1402;-0.6463;
3101130247236850;-0.1156;0.0881;-0.6794;
3101130257344402;-0.0495;0.0264;-0.6889;
3101130267449766;-0.0113;0.0711;-0.6847;
3101130277557318;0.0356;0.0935;-0.6857;
3101130287664818;0.1314;0.0700;-0.6921;
3101130297781850;0.2230;0.0562;-0.6719;
3101130307889350;0.2443;0.0210;-0.6623;
3101130317996850;0.3029;0.0115;-0.6602;
3101130328107423;0.4041;0.0615;-0.6602;
3101130338214923;0.4968;0.0818;-0.6549;
3101130348322423;0.6000;0.0775;-0.6357;
3101130358437839;0.6714;0.0562;-0.6229;
3101130368545339;0.7310;0.0061;-0.6090;
3101130378652839;0.7790;-0.0216;-0.5760;
3101130388749766;0.8077;-0.0130;-0.5537;
3101130398857318;0.8546;-0.0557;-0.5441;
3101130408964818;0.8951;-0.0834;-0.4972;
3101130419096589;0.9100;-0.0866;-0.4652;
3101130429204089;0.9494;-0.0407;-0.4194;
3101130439311589;0.9579;-0.0045;-0.3683;
3101130449392631;0.9728;-0.0141;-0.3321;
3101130459500131;0.9505;-0.0706;-0.2937;
3101130469607579;0.9036;-0.0716;-0.2554;
3101130479718516;0.8290;-0.0631;-0.2096;
3101130489826016;0.7470;-0.1121;-0.1905;
3101130499933516;0.7044;-0.0929;-0.1490;
3101130510051902;0.6394;-0.0375;-0.1362;
3101130520159402;0.6245;0.0306;-0.1224;
3101130530266902;0.6245;0.0317;-0.0819;
3101130540359506;0.5968;-0.0471;-0.0904;
3101130550466954;0.5117;-0.0280;-0.0382;
3101130560574402;0.4361;-0.0077;-0.0158;
3101130570701381;0.4222;0.0029;0.0065;
3101130580808829;0.3935;-0.0109;0.0225;
3101130590916277;0.3551;0.0008;0.0129;
3101130601008777;0.3690;0.0711;0.0470;
3101130611116225;0.3455;0.1115;0.0438;
3101130621223673;0.3700;0.0988;0.0353;
3101130631329298;0.3391;0.0839;0.0395;
3101130641436745;0.2827;0.0551;0.0790;
3101130651544193;0.2220;0.0061;0.0736;
3101130661648360;0.1730;-0.0482;0.0704;
3101130671755808;0.1240;-0.0514;0.0630;
3101130681863256;0.1037;-0.0897;0.0640;
3101130691975443;0.0909;-0.1196;0.0747;
3101130702082891;0.0707;-0.0759;0.0694;
3101130712190339;0.0846;-0.0248;0.0566;
3101130722300756;0.1048;-0.0578;0.0534;
3101130732408204;0.1389;-0.0013;0.0417;
3101130742515652;0.1868;0.0445;0.0364;
3101130752624610;0.2401;-0.0035;0.0246;
3101130762732058;0.2752;0.0157;0.0321;
3101130772839506;0.2646;0.0242;0.0246;
3101130782942527;0.2880;0.0008;0.0332;
3101130793049975;0.2678;-0.0152;0.0502;
3101130803157423;0.2742;-0.0035;0.0662;
3101130813267214;0.2582;0.0104;0.0683;
3101130823374662;0.2390;0.0306;0.0694;
3101130833482110;0.2475;0.0945;0.0736;
3101130843588360;0.2230;0.0690;0.1003;
3101130853695808;0.2049;-0.0088;0.0864;
3101130863803256;0.1858;0.0647;0.0885;
3101130873912423;0.1527;0.0754;0.0822;
3101130884019870;0.1612;0.0189;0.0598;
3101130894127318;0.1740;0.0360;0.0555;
3101130904220339;0.1442;-0.0035;0.0491;
3101130914327787;0.1591;-0.0035;0.0598;
3101130924435235;0.1751;0.0668;0.0406;
3101130934542735;0.1975;0.1104;0.0449;
3101130944650183;0.2209;0.1104;0.0598;
3101130954757631;0.1932;0.0210;0.0630;
3101130964873933;0.1538;-0.0407;0.0630;
3101130974981381;0.1091;-0.0812;0.0683;
3101130985088829;0.0877;-0.1249;0.0609;
3101130995218360;0.0888;-0.0929;0.0587;
3101131005325808;0.1346;-0.0450;0.0491;
3101131015433256;0.1687;-0.0439;0.0577;
3101131025542527;0.1762;0.0498;0.0694;
3101131035649975;0.2060;0.2595;0.0960;
3101131045757423;0.2348;0.1530;0.0385;
3101131055869245;0.2188;-0.0610;0.0672;
3101131065976693;0.1154;-0.1132;0.1290;
3101131076084141;0.1112;-0.0770;0.1354;
3101131086179923;0.1463;0.0125;0.1109;
3101131096287370;0.1410;0.0296;0.1162;
3101131106394818;0.1517;0.0466;0.1301;
3101131116512735;0.1794;0.0700;0.1546;
3101131126620183;0.1698;0.0935;0.1620;
3101131136727631;0.1410;0.0732;0.1834;
3101131146831693;0.0888;-0.0099;0.1919;
3101131156939141;0.0345;-0.0109;0.2100;
3101131167046589;-0.0453;-0.1057;0.2004;
3101131177153256;-0.0676;-0.1909;0.1631;
3101131187260704;0.0313;0.0850;0.1738;
3101131197368152;0.0920;0.2073;0.1748;
3101131207479610;0.1165;0.0381;0.1780;
3101131217587058;0.0419;-0.0045;0.1897;
3101131227694506;-0.0262;-0.0333;0.1897;
3101131237813516;-0.0442;-0.0599;0.1897;
3101131247920964;-0.0378;-0.0695;0.1919;
3101131258028412;-0.0262;-0.0546;0.1780;
3101131268116016;0.0206;-0.0056;0.1929;
3101131278223464;0.0356;0.0466;0.1780;
3101131288330912;0.0494;0.0850;0.1919;
3101131298424558;0.0579;0.1498;0.2057;
3101131308532006;0.0494;0.1764;0.2100;
3101131318639454;0.0377;0.0967;0.2110;
3101131328764923;-0.0230;0.0360;0.2004;
3101131338872370;-0.0964;0.0423;0.1951;
3101131348979818;-0.1539;-0.0407;0.1716;
3101131359077631;-0.1731;-0.0375;0.1844;
3101131369185079;-0.2157;-0.0301;0.1727;
3101131379292527;-0.2051;-0.0312;0.1663;
3101131389406173;-0.2072;-0.0184;0.1461;
3101131399513620;-0.2104;0.0168;0.1365;
3101131409621068;-0.2083;0.0242;0.1280;
3101131419720860;-0.2285;0.0360;0.0971;
3101131429828308;-0.2306;0.0051;0.0598;
3101131439935756;-0.2754;-0.0738;0.0087;
3101131450043777;-0.2743;-0.0759;-0.0020;
3101131460151225;-0.2573;-0.0876;-0.0126;
3101131470258673;-0.1923;-0.1142;-0.0158;
3101131480378152;-0.1209;-0.0045;-0.0233;
3101131490485600;-0.0666;0.1115;-0.0222;
3101131500593048;-0.0410;0.1296;-0.0212;
3101131510714402;-0.0346;0.0924;0.0119;
3101131520821850;-0.0687;-0.0109;0.0108;
3101131530897370;-0.0783;-0.0088;-0.0158;
3101131541004818;-0.1017;-0.0035;-0.0148;
3101131551112266;-0.1582;-0.1302;-0.0308;
3101131561227214;-0.1571;-0.1867;-0.0403;
3101131571334662;-0.0921;-0.0589;-0.0563;
3101131581442110;-0.0911;0.0434;-0.0617;
3101131591554193;-0.0932;-0.0162;-0.0691;
3101131601661641;-0.0900;-0.0780;-0.0606;
3101131611769089;-0.0868;-0.0322;-0.0712;
3101131621869298;-0.0655;0.0423;-0.0680;
3101131631976745;-0.0719;0.0232;-0.1000;
3101131642084193;-0.0463;0.0605;-0.0925;
3101131652190860;-0.0538;0.1146;-0.1000;
3101131662298308;-0.0474;0.0658;-0.1128;
3101131672405756;-0.0209;0.1210;-0.0979;
3101131682517110;-0.0209;0.1679;-0.0883;
3101131692624558;-0.0198;0.1423;-0.0712;
3101131702732006;-0.0655;0.0945;-0.0648;
3101131712830183;-0.1166;-0.0503;-0.0638;
3101131722937631;-0.1060;-0.1313;-0.0691;
3101131733045079;-0.1124;-0.1121;-0.0670;
3101131743180443;-0.1305;-0.1654;-0.0936;
3101131753287891;-0.1188;-0.2091;-0.1128;
3101131763395339;-0.1017;-0.2016;-0.1383;
3101131773480235;-0.0826;-0.1569;-0.1820;
3101131783587683;-0.0559;-0.0759;-0.2128;
3101131793695131;-0.0453;-0.0961;-0.2192;
3101131803812110;0.0377;-0.0791;-0.2288;
3101131813919558;0.0909;0.0178;-0.2383;
3101131824027006;0.0835;-0.0514;-0.2341;
3101131834117006;0.1218;-0.1324;-0.2426;
3101131844224454;0.1740;0.0658;-0.1959;
3101131854331902;0.1666;0.1125;-0.1948;
3101131864453152;0.2571;0.0988;-0.1863;
3101131874560600;0.3221;0.1871;-0.1352;
3101131884668048;0.2497;0.0764;-0.1138;
3101131894801850;0.1847;-0.0365;-0.1000;
3101131904909298;0.0920;0.0200;-0.1021;
3101131915016745;0.0249;0.0434;-0.1107;
3101131925107162;0.0601;0.0754;-0.1628;
3101131935214610;0.0792;0.0988;-0.1767;
3101131945322058;0.0931;-0.0194;-0.1916;
3101131955436173;0.1091;-0.0897;-0.2032;
3101131965543620;0.0877;-0.0439;-0.1905;
3101131975651068;0.0899;-0.0642;-0.2192;
3101131985765756;0.1581;-0.0770;-0.1969;
3101131995873204;0.1666;-0.1164;-0.1979;
3101132005980652;0.2507;-0.1068;-0.1863;
3101132016064923;0.3029;-0.0173;-0.1756;
3101132026172370;0.3455;-0.0439;-0.1437;
3101132036279818;0.3924;-0.0599;-0.1352;
3101132046382631;0.4105;-0.0130;-0.1107;
3101132056490079;0.3988;-0.0248;-0.0883;
3101132066597527;0.4276;-0.0237;-0.0925;
3101132076716277;0.4840;0.0306;-0.0680;
3101132086823725;0.5096;-0.0024;-0.0574;
3101132096931173;0.5533;-0.0226;-0.0063;
3101132107030964;0.5192;-0.0471;0.0300;
3101132117138412;0.4659;-0.0897;0.0747;
3101132127245860;0.4190;-0.0461;0.1077;
3101132137353516;0.3509;0.0413;0.1162;
3101132147460964;0.3189;0.0732;0.1162;
3101132157568412;0.3711;0.0796;0.1344;
3101132167684298;0.4041;0.0487;0.1535;
3101132177791745;0.3466;-0.0344;0.1546;
3101132187899193;0.2411;-0.0716;0.1578;
3101132198007683;0.2273;-0.0290;0.1578;
3101132208115131;0.2593;0.0232;0.1610;
3101132218222579;0.2859;0.0594;0.1897;
3101132228341485;0.3093;0.0892;0.2228;
3101132238448933;0.3189;0.1423;0.2675;
3101132248556381;0.2774;0.1519;0.2579;
3101132258663881;0.2624;0.0988;0.2867;
3101132268771329;0.2103;0.0210;0.2899;
3101132278878777;0.1932;-0.0301;0.2824;
3101132288959402;0.1485;-0.0908;0.2941;
3101132299066850;0.1048;-0.1238;0.2952;
3101132309174298;0.0941;-0.0748;0.2931;
3101132319288516;0.1176;0.0072;0.2792;
3101132329395964;0.1165;0.0210;0.2899;
3101132339503412;0.1698;0.0498;0.3165;
3101132349614610;0.2316;0.0796;0.3176;
3101132359722058;0.2337;0.0551;0.3197;
3101132369829506;0.2124;-0.0333;0.3208;
3101132379929402;0.1911;-0.0248;0.3474;
3101132390036850;0.2124;0.0370;0.3389;
3101132400144298;0.1921;0.0264;0.3485;
3101132410252631;0.1911;0.0115;0.3591;
3101132420360079;0.1740;0.0530;0.3762;
3101132430467527;0.0899;0.0083;0.3964;
3101132440572527;0.0260;0.0839;0.4165;
3101132450679975;0.0196;0.1732;0.4133;
3101132460787423;0.1112;0.0764;0.3932;
3101132470922839;0.1378;-0.0780;0.4071;
3101132481030287;-0.0284;-0.1451;0.4261;
3101132491137735;-0.1774;-0.0802;0.4060;
3101132501224193;-0.2338;0.0274;0.4229;
3101132511331641;-0.1923;0.0317;0.3794;
3101132521439089;-0.0943;0.0455;0.3634;
3101132531517370;-0.1230;0.0924;0.3826;
3101132541624818;-0.1284;0.0913;0.3900;
3101132551732266;-0.1017;0.0913;0.3836;
3101132561876068;-0.1624;-0.0535;0.3517;
3101132571983516;-0.2072;-0.1228;0.3240;
3101132582090964;-0.2807;-0.0567;0.3346;
3101132592195756;-0.2860;0.0264;0.3112;
3101132602303204;-0.2093;0.1031;0.3016;
3101132612410652;-0.1529;0.1136;0.3176;
3101132622522006;-0.1518;0.0306;0.3037;
3101132632629454;-0.1337;0.0360;0.2899;
3101132642736902;-0.1795;0.0807;0.2931;
3101132652833100;-0.2200;-0.0184;0.2558;
3101132662940548;-0.2306;-0.1292;0.2217;
3101132673047995;-0.2359;-0.1068;0.2249;
3101132683143673;-0.2679;-0.0077;0.2228;
3101132693251120;-0.2200;0.0264;0.2228;
3101132703358568;-0.1795;-0.0056;0.2068;
3101132713476277;-0.1688;0.0306;0.1993;
3101132723583725;-0.1774;0.0583;0.2057;
3101132733691173;-0.1827;0.0381;0.1865;
3101132743780443;-0.1497;0.0594;0.1620;
3101132753887891;-0.1720;-0.0013;0.1429;
3101132763995339;-0.1912;-0.0418;0.1365;
3101132774149975;-0.1912;0.0423;0.1407;
3101132784257423;-0.1880;0.1423;0.1322;
3101132794364870;-0.1433;0.1232;0.1258;
3101132804433985;-0.1422;0.0391;0.1099;
3101132814541433;-0.1774;0.0168;0.0896;
3101132824648881;-0.2019;0.0264;0.1045;
3101132834771381;-0.2541;-0.0535;0.0470;
3101132844878829;-0.2328;-0.0503;0.0310;
3101132854986277;-0.2296;-0.0205;0.0012;
3101132865099714;-0.1848;0.0093;0.0012;
3101132875207162;-0.1742;0.0679;-0.0073;
3101132885314610;-0.1614;0.0157;-0.0276;
3101132895426485;-0.1305;0.0019;-0.0393;
3101132905533933;-0.1198;0.0168;-0.0680;
3101132915641381;-0.1294;0.0647;-0.0680;
3101132925737318;-0.1294;0.0881;-0.0606;
3101132935844766;-0.1337;0.0317;-0.0723;
3101132945952214;-0.1166;0.0487;-0.1075;
3101132956058933;-0.1113;0.1264;-0.1192;
3101132966166381;-0.1103;0.0839;-0.1320;
3101132976273829;-0.1316;-0.0258;-0.1213;
3101132986380964;-0.1316;-0.0844;-0.1437;
3101132996488412;-0.1337;-0.0450;-0.1628;
3101133006595860;-0.1039;0.0019;-0.1767;
3101133016708048;-0.1081;-0.0333;-0.1852;
3101133026815495;-0.1209;-0.0120;-0.2138;
3101133036922943;-0.1039;0.0509;-0.2053;
3101133047031068;-0.0996;0.0487;-0.2213;
3101133057138516;-0.0581;0.0221;-0.2320;
3101133067245964;-0.0506;0.0296;-0.2352;
3101133077357110;-0.0634;-0.0003;-0.2341;
3101133087464558;-0.0549;-0.0003;-0.2330;
3101133097572006;-0.0506;0.0445;-0.2160;
3101133107675652;-0.0431;0.0850;-0.2053;
3101133117783100;-0.0273;0.0786;-0.2053;
3101133127890548;-0.0156;0.0413;-0.1937;
3101133138001173;-0.0305;0.0136;-0.1884;
3101133148108620;-0.0772;-0.0557;-0.2032;
3101133158216068;-0.0559;-0.0652;-0.1831;
3101133168333673;-0.0453;0.0083;-0.1948;
3101133178441120;-0.0399;0.0296;-0.1831;
3101133188548568;-0.0485;-0.0184;-0.1810;
3101133198646016;-0.0325;-0.0439;-0.1586;
3101133208753464;-0.0273;0.0285;-0.1628;
3101133218860912;-0.0389;0.0881;-0.1565;
3101133228945443;-0.0368;0.0306;-0.1309;
3101133239052891;-0.0623;-0.0013;-0.1522;
3101133249160339;-0.0644;0.0136;-0.1437;
3101133259283568;-0.0570;0.0029;-0.1362;
3101133269391016;-0.0474;0.0232;-0.1362;
3101133279498464;-0.0346;0.0615;-0.1415;
3101133289611798;-0.0538;0.0903;-0.1352;
3101133299719245;-0.0517;0.1125;-0.1245;
3101133309826693;-0.0325;0.1328;-0.1138;
3101133319931798;-0.0591;0.0477;-0.1352;
3101133330039245;-0.0762;-0.0312;-0.1597;
3101133340146693;-0.0740;0.0019;-0.1447;
3101133350273464;-0.0655;-0.0120;-0.1628;
3101133360380912;-0.0431;-0.0397;-0.2085;
3101133370488360;0.0089;0.0157;-0.2149;
3101133380570600;0.0579;0.0679;-0.2043;
3101133390678048;0.0547;-0.0099;-0.1969;
3101133400785495;-0.0017;-0.1164;-0.2213;
3101133410902214;-0.0039;-0.1164;-0.2469;
3101133421009662;0.0537;0.0104;-0.2405;
3101133431117110;0.1016;0.0615;-0.2618;
3101133441222266;0.2113;0.0200;-0.2447;
3101133451329714;0.3072;-0.0120;-0.2511;
3101133461437162;0.3573;0.0051;-0.2320;
3101133471548777;0.3935;0.0370;-0.2106;
3101133481656225;0.4627;0.1052;-0.1714;
3101133491763673;0.4861;0.0924;-0.1362;
3101133501874714;0.4776;-0.0525;-0.1138;
3101133511982162;0.4137;-0.1462;-0.0489;
3101133522089610;0.3317;-0.0983;-0.0212;
3101133532169037;0.3051;-0.0322;-0.0233;
3101133542276485;0.2848;-0.0344;-0.0212;
3101133552383881;0.2955;-0.0663;-0.0244;
3101133562509714;0.3125;-0.0450;-0.0105;
3101133572617162;0.2742;0.0040;0.0076;
3101133582724610;0.2507;0.0594;0.0566;
3101133592840756;0.2358;0.1072;0.0470;
3101133602948204;0.2529;-0.0184;0.0630;
3101133613055652;0.2028;-0.0652;0.1205;
3101133623147527;0.1772;0.0391;0.1834;
3101133633254975;0.1485;0.0328;0.2015;
3101133643362423;0.0909;-0.0035;0.1972;
3101133653483673;0.0515;-0.0301;0.2079;
3101133663591120;0.0174;-0.0471;0.1876;
3101133673698568;0.0419;0.0253;0.1993;
3101133683810235;0.0238;0.0743;0.1961;
3101133693917683;-0.0145;-0.0184;0.2089;
3101133704025131;-0.0581;-0.1015;0.2036;
3101133714124245;0.0206;0.0477;0.2270;
3101133724231693;0.0334;0.0743;0.2334;
3101133734339141;-0.0039;-0.0216;0.2632;
3101133744438673;-0.0495;-0.0109;0.2814;
3101133754546120;-0.0719;0.0051;0.2664;
3101133764653568;-0.0804;-0.0056;0.2664;
3101133774759923;-0.0953;0.0083;0.2728;
3101133784867370;-0.0794;0.0541;0.2579;
3101133794974818;-0.0623;0.1020;0.2632;
3101133805098100;-0.0943;0.0061;0.2824;
3101133815205548;-0.1241;-0.0557;0.2760;
3101133825312995;-0.1305;0.0125;0.2931;
3101133835438777;-0.1582;-0.0162;0.3069;
3101133845546225;-0.1901;-0.0141;0.2973;
3101133855653673;-0.2146;-0.0248;0.3080;
3101133865731798;-0.2285;-0.0386;0.2920;
3101133875839245;-0.2189;0.0157;0.2622;
3101133885946693;-0.2146;0.0530;0.2569;
3101133896084662;-0.2413;0.0029;0.2355;
3101133906192110;-0.2455;-0.0525;0.2217;
3101133916299558;-0.2253;0.0338;0.2217;
3101133926380027;-0.2732;0.0413;0.2164;
3101133936487475;-0.2764;0.0338;0.2089;
3101133946594923;-0.2754;0.0253;0.2132;
3101133956710131;-0.3222;-0.0610;0.1834;
3101133966817579;-0.2849;0.0157;0.1642;
3101133976925027;-0.2903;0.0903;0.1375;
3101133987020964;-0.3095;0.0498;0.1162;
3101133997128412;-0.2786;0.0636;0.0960;
3101134007235860;-0.2604;0.1072;0.0885;
3101134017369141;-0.2828;0.0381;0.0651;
3101134027476589;-0.2828;-0.0003;0.0513;
3101134037584037;-0.2636;0.0700;0.0619;
3101134047685600;-0.3084;0.0562;0.0353;
3101134057793048;-0.3329;-0.0631;0.0044;
3101134067900495;-0.2828;-0.0706;-0.0201;
3101134077993673;-0.2093;0.0541;-0.0052;
3101134088101120;-0.2317;0.0732;-0.0467;
3101134098208568;-0.2455;0.0253;-0.0776;
3101134108319298;-0.2274;0.0136;-0.0830;
3101134118426745;-0.2083;0.0189;-0.0776;
3101134128534193;-0.2146;0.0115;-0.0830;
3101134138637943;-0.2146;0.0381;-0.0723;
3101134148745391;-0.2051;0.0061;-0.0766;
3101134158852839;-0.1848;0.0008;-0.0798;
3101134168951173;-0.1763;0.0519;-0.1021;
3101134179058620;-0.1944;0.0573;-0.0883;
3101134189166068;-0.1965;0.0168;-0.1192;
3101134199286850;-0.2008;0.0019;-0.1234;
3101134209394298;-0.1859;0.0498;-0.1511;
3101134219501745;-0.1997;0.0519;-0.1533;
3101134229629714;-0.2019;0.0615;-0.1660;
3101134239737162;-0.2114;0.0796;-0.1639;
3101134249844610;-0.1955;-0.0045;-0.1767;
3101134259937266;-0.1944;-0.0919;-0.2053;
3101134270044714;-0.1571;-0.0301;-0.2000;
3101134280152162;-0.1561;0.0541;-0.1969;
3101134290261381;-0.1795;0.0423;-0.2277;
3101134300368829;-0.1710;0.0796;-0.2575;
3101134310476277;-0.1678;0.0988;-0.2905;
3101134320576381;-0.1763;0.0125;-0.3257;
3101134330683829;-0.1742;-0.0056;-0.3225;
3101134340791277;-0.1891;-0.0088;-0.3214;
3101134350902527;-0.1316;-0.0130;-0.3321;
3101134361009975;-0.0879;0.0402;-0.3374;
3101134371117423;-0.0284;0.1477;-0.3427;
3101134381223516;-0.0081;0.1360;-0.3353;
3101134391330964;-0.0145;0.0477;-0.3523;
3101134401438412;0.0036;0.0093;-0.3491;
3101134411547735;-0.0177;-0.0738;-0.3577;
3101134421655183;-0.0134;-0.1164;-0.3438;
3101134431762631;0.0206;-0.0972;-0.3640;
3101134441865027;0.0707;-0.0823;-0.3651;
3101134451972475;0.1495;-0.0035;-0.3417;
3101134462079923;0.2103;0.0349;-0.3321;
3101134472204193;0.2337;-0.0077;-0.3140;
3101134482311641;0.2635;-0.0514;-0.3033;
3101134492419089;0.2816;-0.0248;-0.3012;
3101134502513100;0.2997;0.0061;-0.2746;
3101134512620548;0.3264;-0.0184;-0.2426;
3101134522727995;0.3541;0.0008;-0.2032;
3101134532828881;0.3722;0.0647;-0.1660;
3101134542936537;0.3818;0.0541;-0.1277;
3101134553044141;0.3881;-0.0312;-0.0787;
3101134563152787;0.3583;-0.0301;-0.0798;
3101134573260443;0.3125;-0.0024;-0.0489;
3101134583368048;0.2507;-0.0535;-0.0137;
3101134593466850;0.2198;-0.0088;-0.0126;
3101134603574506;0.1889;0.0519;0.0023;
3101134613682110;0.1549;-0.0056;0.0087;
3101134623802475;0.1410;-0.0216;0.0214;
3101134633910131;0.1005;-0.0397;0.0193;
3101134644017683;0.1091;-0.0738;0.0087;
3101134654119350;0.1399;0.0743;0.0300;
3101134664227006;0.1208;0.1498;0.0225;
3101134674334610;0.1463;0.0967;0.0289;
3101134684439662;0.1794;0.1115;0.0470;
3101134694547318;0.1378;0.0807;0.0523;
3101134704654923;0.1133;-0.0226;0.0651;
3101134714759975;0.0675;-0.0759;0.0672;
3101134724867631;-0.0049;-0.1142;0.0672;
3101134734975287;-0.0346;-0.1238;0.0726;
3101134745098308;-0.0198;-0.0141;0.0449;
3101134755205964;-0.0071;-0.0088;0.0374;
3101134765313568;0.0089;-0.0823;0.0033;
3101134775429141;0.0430;-0.0897;0.0097;
3101134785536798;0.0387;-0.0067;0.0129;
3101134795644402;0.0377;0.0839;-0.0137;
3101134805732579;0.0909;0.0434;-0.0020;
3101134815840235;0.1133;0.0189;0.0268;
3101134825947839;0.0739;0.0402;0.0417;
3101134836068412;0.0718;0.1668;0.0545;
3101134846176068;0.0995;0.2095;0.0385;
3101134856283673;0.1591;0.1052;0.0342;
3101134866391798;0.1442;-0.1356;0.0406;
3101134876499454;0.0696;-0.1899;0.0779;
3101134886607058;0.0515;-0.1462;0.0917;
3101134896703412;-0.0241;-0.2112;0.0640;
3101134906811068;-0.0336;-0.2442;0.0640;
3101134916918673;0.0217;-0.1206;0.0736;
3101134927026745;0.0025;-0.0652;0.0768;
3101134937134402;-0.0325;-0.1441;0.0481;
3101134947242006;0.0664;-0.0983;0.0332;
3101134957352579;0.0441;-0.0706;0.0033;
3101134967460235;0.1101;0.0072;0.0332;
3101134977567839;0.1346;0.2393;0.0672;
3101134987691381;0.1186;0.2126;0.0917;
3101134997799037;0.2092;0.1860;0.1386;
3101135007906641;0.2475;0.1605;0.1727;
3101135017988933;0.0835;-0.0439;0.1748;
3101135028096589;0.0015;-0.0312;0.2142;
3101135038204193;-0.0166;0.0264;0.1695;
3101135048315391;-0.0463;-0.0333;0.1567;
3101135058423048;-0.0847;-0.0951;0.1109;
3101135068530652;-0.0623;0.0029;0.1088;
3101135078640600;-0.1049;0.1349;0.0939;
3101135088748256;-0.1635;0.0892;0.0640;
3101135098855860;-0.0847;-0.0322;0.0609;
3101135108942787;-0.0751;-0.0450;0.0726;
3101135119050391;-0.1252;0.0541;0.0683;
3101135129158048;-0.1358;0.0200;0.0683;
3101135139282787;-0.0889;-0.0312;0.0491;
3101135149390443;-0.0346;0.0093;0.0449;
3101135159498048;-0.0421;-0.0652;0.0630;
3101135169602995;-0.0431;-0.1206;0.0449;
3101135179710652;-0.0421;-0.1675;0.0545;
3101135189818256;-0.0644;-0.2304;0.0577;
3101135199927995;-0.0698;-0.2442;0.0800;
3101135210035652;-0.1039;-0.3113;0.0491;
3101135220143256;-0.0858;-0.3177;0.0523;
3101135230265183;-0.0241;-0.1409;0.0736;
3101135240372839;-0.0262;-0.0258;0.0577;
3101135250480443;-0.0485;-0.0961;0.0555;
3101135260579037;-0.0092;-0.0194;0.0790;
3101135270686693;-0.0124;0.1020;0.0928;
3101135280794298;-0.0294;0.1519;0.1088;
3101135290897787;-0.0198;0.1754;0.1120;
3101135301005443;0.0121;0.1072;0.1429;
3101135311113048;0.0867;0.2265;0.1663;
3101135321223204;0.0164;0.3501;0.1876;
3101135331330860;0.0132;0.2148;0.1961;
3101135341438464;0.0909;0.1009;0.2110;
3101135351547995;0.0430;0.1583;0.1972;
3101135361655652;-0.0772;0.1700;0.2047;
3101135371763256;-0.1177;0.0945;0.1780;
3101135381879454;-0.1720;0.0935;0.1834;
3101135391987110;-0.2839;0.0573;0.1791;
3101135402094714;-0.3542;-0.0525;0.1248;
3101135412196850;-0.3776;-0.0876;0.1109;
3101135422304506;-0.4117;-0.0897;0.0790;
3101135432412110;-0.3947;-0.1292;0.0609;
3101135442521537;-0.3808;-0.1089;0.0193;
3101135452629193;-0.3414;0.0402;-0.0084;
3101135462736798;-0.3201;0.0764;-0.0031;
3101135472839870;-0.2445;-0.0013;-0.0031;
3101135482947527;-0.1869;-0.0897;-0.0148;
3101135493055131;-0.2029;-0.1153;-0.0233;
3101135503152162;-0.1816;-0.0322;-0.0318;
3101135513259818;-0.1475;0.0413;-0.0190;
3101135523367423;-0.1593;0.0019;-0.0095;
3101135533467631;-0.1230;-0.0546;-0.0265;
3101135543575131;-0.0900;-0.0280;-0.0084;
3101135553682631;-0.1550;0.0178;-0.0340;
3101135563806381;-0.2008;0.0658;-0.0819;
3101135573913881;-0.2178;0.1477;-0.0819;
3101135584021381;-0.2935;0.1913;-0.1341;
3101135594122214;-0.3989;0.3980;-0.1746;
3101135604229714;-0.3648;0.7398;-0.1948;
3101135614337214;0.0590;0.6537;-0.2043;
3101135624464818;0.6234;0.1328;-0.1788;
3101135634572318;1.1454;-0.0674;-0.1320;
3101135644679818;0.7438;0.0903;-0.0734;
3101135654758360;-0.1092;0.1052;-0.0116;
3101135664865860;-0.3265;-0.0333;-0.0329;
3101135674973360;-0.2967;-0.1718;-0.0670;
3101135685101329;-0.3340;-0.3316;-0.1309;
3101135695208829;-0.4160;-0.4999;-0.2213;
3101135705316329;-0.4511;-0.6041;-0.3363;
3101135715413881;-0.2626;-0.4061;-0.3853;
3101135725521381;-0.0815;-0.0706;-0.4269;
3101135735628881;-0.0017;0.0626;-0.3608;
3101135745730131;0.0515;0.0732;-0.3065;
3101135755837631;0.3125;0.1924;-0.2842;
3101135765945131;0.6469;0.2244;-0.2138;
3101135776058881;0.8801;0.0072;-0.1373;
3101135786166381;1.0762;-0.1324;-0.0329;
3101135796273881;0.9750;0.0264;0.0747;
3101135806378725;0.5819;0.1360;0.1397;
3101135816486225;0.3658;0.0434;0.1344;
3101135826593725;0.4201;0.0019;0.1407;
3101135836707110;0.3722;0.0232;0.1631;
3101135846814610;0.1911;-0.0461;0.2015;
3101135856922110;0.0664;-0.0770;0.2079;
3101135867036016;-0.0538;0.0445;0.1770;
3101135877143516;-0.0538;0.0498;0.1738;
3101135887251016;-0.0273;-0.1057;0.1791;
3101135897347839;-0.1411;-0.1270;0.2110;
3101135907455339;-0.3467;-0.1111;0.2079;
3101135917562839;-0.4213;0.0477;0.1365;
3101135927683568;-0.3766;0.1296;0.0800;
3101135937791068;-0.2168;-0.0013;0.0630;
3101135947898568;-0.0762;0.0157;0.0587;
3101135958003360;-0.1731;0.0051;0.0630;
3101135968110860;-0.2487;-0.1047;0.0150;
3101135978218360;-0.1486;-0.0237;0.0150;
3101135988326016;-0.1475;0.1764;0.0289;
3101135998433516;-0.1518;0.0711;0.0214;
3101136008541016;-0.0145;-0.0237;-0.0084;
3101136018638048;-0.0421;-0.0248;-0.0403;
3101136028745548;-0.0591;0.0296;-0.0467;
3101136038853048;-0.0273;0.0221;-0.0606;
3101136048965027;-0.0410;-0.1441;-0.0989;
3101136059072527;-0.0336;-0.1814;-0.1288;
3101136069180027;-0.0314;-0.1164;-0.1490;
3101136079286120;-0.0071;-0.1068;-0.1533;
3101136089393620;-0.0081;-0.1174;-0.1426;
3101136099501120;-0.0039;-0.0312;-0.1490;
3101136109621381;-0.0071;0.1063;-0.1884;
3101136119728881;0.0846;0.1530;-0.1767;
3101136129836381;0.2678;0.0796;-0.1618;
3101136139926173;0.4872;-0.0205;-0.1107;
3101136150033673;0.5394;-0.0003;-0.0531;
3101136160141173;0.3264;0.0658;-0.0105;
3101136170249193;0.1367;0.0157;0.0278;
3101136180356693;0.1367;0.0317;0.0310;
3101136190464193;0.1282;0.0029;0.0683;
3101136200573985;0.0718;-0.1419;0.0587;
3101136210681485;0.0494;-0.1963;0.0523;
3101136220788985;-0.0028;-0.0983;0.0321;
3101136230923048;-0.0655;-0.0482;0.0481;
3101136241030548;-0.0676;-0.0482;0.0342;
3101136251138048;-0.0039;0.0242;0.0023;
3101136261228881;0.0036;0.0786;0.0076;
3101136271336381;0.0377;0.1434;0.0566;
3101136281443881;0.0995;0.1200;0.0758;
3101136291547943;0.0675;0.0083;0.0747;
3101136301655443;0.0366;0.0019;0.0736;
3101136311762943;0.0132;0.0615;0.0790;
3101136321872423;-0.0421;0.0104;0.0534;
3101136331979923;-0.0623;-0.0620;0.0353;
3101136342087423;-0.0804;-0.1025;0.0172;
3101136352205860;-0.1316;-0.1547;-0.0031;
3101136362313360;-0.1358;-0.1036;0.0065;
3101136372420860;-0.1795;-0.0908;-0.0382;
3101136382521068;-0.1188;-0.0482;-0.0595;
3101136392628568;-0.0527;0.0306;-0.0638;
3101136402736068;-0.0294;-0.0067;-0.0776;
3101136412831798;-0.0346;-0.0386;-0.0670;
3101136422939298;-0.0378;0.0104;-0.0638;
3101136433046798;-0.0230;0.0541;-0.0862;
3101136443148048;-0.0060;0.0668;-0.1032;
3101136453255495;0.0089;0.1221;-0.1011;
3101136463363048;-0.0071;0.0668;-0.1043;
3101136473481902;0.0558;0.0711;-0.0925;
3101136483589402;0.0334;0.1093;-0.1117;
3101136493696902;0.0387;0.0605;-0.0947;
3101136503774506;0.0366;0.1083;-0.0872;
3101136513882006;0.0206;0.1009;-0.0925;
3101136523989506;0.0334;0.0445;-0.1224;
3101136534126120;-0.0103;-0.0727;-0.1394;
3101136544233777;-0.0113;-0.0716;-0.1138;
3101136554341381;0.0004;-0.0535;-0.1138;
3101136564449350;0.0217;-0.0365;-0.1341;
3101136574557006;0.0377;-0.0802;-0.1511;
3101136584664610;0.0281;-0.0748;-0.1554;
3101136594767839;0.0494;-0.0024;-0.1298;
3101136604875443;0.0270;-0.0258;-0.1458;
3101136614983048;0.0707;-0.0322;-0.1383;
3101136625090495;0.1112;0.0200;-0.1298;
3101136635198152;0.1165;-0.0056;-0.1138;
3101136645305756;0.1176;-0.0557;-0.0851;
3101136655414245;0.1016;-0.0503;-0.0755;
3101136665521902;0.0739;-0.1206;-0.0595;
3101136675629506;0.0441;-0.1814;-0.0691;
3101136685734870;0.0494;-0.1302;-0.0414;
3101136695842527;0.0217;-0.1547;-0.0425;
3101136705950131;0.0356;-0.1302;-0.0574;
3101136716064245;0.0196;-0.0450;-0.0776;
3101136726171902;0.0260;-0.0194;-0.0915;
3101136736279506;0.0292;0.0146;-0.0766;
3101136746378725;0.0526;0.0541;-0.0435;
3101136756486381;0.1037;0.0892;-0.0457;
3101136766593985;0.0547;0.0647;-0.0755;
3101136776704454;0.0643;0.2063;-0.0393;
3101136786812110;0.0419;0.2819;-0.0329;
3101136796919714;0.0846;0.1647;-0.0382;
3101136807021954;0.1634;0.0562;-0.0478;
3101136817129610;0.0888;-0.0013;-0.0574;
3101136827237214;-0.0336;-0.0759;-0.0478;
3101136837354714;-0.0868;-0.1782;-0.0670;
3101136847462370;-0.0985;-0.2868;-0.0755;
3101136857569975;-0.0538;-0.3284;-0.0723;
3101136867691485;-0.0177;-0.2719;-0.0957;
3101136877799141;-0.0060;-0.2570;-0.1117;
3101136887906745;0.0228;-0.1835;-0.1373;
3101136897992370;0.0142;-0.0802;-0.1415;
3101136908100027;0.0569;-0.1057;-0.1341;
3101136918207631;0.1410;-0.0333;-0.1256;
3101136928313725;0.2284;0.0722;-0.1309;
3101136938421381;0.2497;0.1146;-0.0883;
3101136948528985;0.2838;0.2670;-0.0574;
3101136958644245;0.3232;0.2925;-0.0137;
3101136968751902;0.4254;0.1434;0.0225;
3101136978859506;0.5861;0.0850;0.0374;
3101136988961016;0.5426;0.0860;0.0609;
3101136999068620;0.2965;0.1210;0.1045;
3101137009176277;0.1218;0.0690;0.1290;
3101137019286954;0.1463;-0.0205;0.1546;
3101137029394610;0.0856;0.0381;0.1226;
3101137039502214;-0.0156;0.0700;0.1173;
3101137049608048;-0.0730;0.0413;0.0758;
3101137059715704;-0.0017;0.1381;0.0854;
3101137069823308;0.0057;0.1594;0.0651;
3101137079929870;0.1410;0.1615;0.0555;
3101137090037527;0.1357;0.1530;0.0726;
3101137100145131;0.1080;0.0722;0.0928;
3101137110269975;0.1176;0.0903;0.1312;
3101137120377631;0.1144;0.0391;0.1503;
3101137130485235;0.1048;-0.1111;0.1791;
3101137140575079;0.0664;-0.1057;0.2047;
3101137150682735;0.0334;-0.1004;0.1972;
3101137160790339;-0.0039;-0.1313;0.1855;
3101137170895287;0.0228;-0.0567;0.1716;
3101137181002943;0.0419;-0.0897;0.1631;
3101137191110548;0.0814;-0.0759;0.1748;
3101137201225391;0.0760;-0.0141;0.1748;
3101137211333048;0.1048;-0.0620;0.2196;
3101137221440652;0.1080;-0.0557;0.2377;
3101137231569141;0.0739;0.0051;0.2632;
3101137241676798;0.0462;-0.0109;0.2632;
3101137251784402;0.0270;0.0008;0.2941;
3101137261876850;0.0313;0.0615;0.2803;
3101137271984506;0.0505;0.0530;0.2909;
3101137282092110;0.0643;0.0338;0.2846;
3101137292203204;0.0217;-0.0557;0.2920;
3101137302310860;-0.0431;-0.0759;0.3133;
3101137312418464;-0.1305;0.1178;0.3272;
3101137322519766;-0.2487;0.1754;0.3176;
3101137332627423;-0.1965;0.2222;0.3027;
3101137342735027;0.0185;0.1541;0.3059;
3101137352839975;0.0505;-0.1409;0.2899;
3101137362947631;-0.1241;-0.1877;0.2696;
3101137373055235;-0.3031;-0.0162;0.2686;
3101137383152475;-0.4128;0.0775;0.2228;
3101137393260131;-0.3041;0.0104;0.1929;
3101137403367735;-0.2040;-0.1430;0.1727;
3101137413472787;-0.2274;-0.1185;0.1514;
3101137423580443;-0.2945;0.0210;0.1280;
3101137433688048;-0.3776;-0.1206;0.0917;
3101137443780964;-0.2317;-0.0077;0.0353;
3101137453888620;-0.1997;0.4395;0.0491;
3101137463996173;-0.2381;0.2680;0.0630;
3101137474126433;0.0984;-0.1760;0.0364;
3101137484234089;0.2848;-0.1622;0.0204;
3101137494341693;-0.0879;0.0764;0.0470;
3101137504457891;-0.2999;0.1083;0.0609;
3101137514565548;-0.2040;-0.0152;0.0395;
3101137524673152;-0.1028;-0.0003;-0.0148;
3101137534764089;-0.1603;-0.0301;-0.0446;
3101137544871589;-0.1944;-0.1377;-0.0957;
3101137554979089;-0.1337;-0.0333;-0.0989;
3101137565110131;-0.1593;0.0210;-0.0925;
3101137575217631;-0.1390;-0.0748;-0.1202;
3101137585325131;-0.0836;0.0349;-0.1021;
3101137595435860;-0.0815;0.2212;-0.1043;
3101137605543360;-0.0368;0.1221;-0.0979;
3101137615650860;0.0153;-0.0674;-0.1170;
3101137625743360;0.0867;-0.0269;-0.0936;
3101137635850860;-0.0581;0.0722;-0.1117;
3101137645958360;-0.0943;0.0274;-0.1288;
3101137656058100;-0.0687;-0.0759;-0.1234;
3101137666165600;-0.0858;-0.1057;-0.1181;
3101137676273100;-0.0463;-0.0173;-0.1160;
3101137686387839;-0.0687;0.0274;-0.1075;
3101137696495339;-0.0655;-0.0077;-0.1288;
3101137706602839;-0.0634;0.0370;-0.1692;
3101137716712631;-0.0527;0.0221;-0.1373;
3101137726820131;-0.0198;0.0093;-0.1352;
3101137736927631;-0.0060;0.0285;-0.1352;
3101137747037266;-0.0559;-0.0866;-0.1479;
3101137757144766;-0.0336;-0.0791;-0.1075;
3101137767252266;-0.0549;-0.0482;-0.1181;
3101137777358985;-0.0421;0.0157;-0.1043;
3101137787466485;-0.0559;0.0189;-0.1160;
3101137797573985;-0.0602;-0.0599;-0.1426;
3101137807683464;-0.0431;-0.1302;-0.1405;
3101137817790964;-0.0124;0.0807;-0.1447;
3101137827898464;-0.0868;0.4065;-0.1703;
3101137838004923;-0.0081;0.2265;-0.1565;
3101137848112423;0.2401;-0.1398;-0.1224;
3101137858219923;0.3722;-0.1814;-0.0862;
3101137868330131;0.0601;-0.0397;-0.0446;
3101137878437631;-0.0740;-0.0205;-0.0457;
3101137888545131;-0.0060;-0.0663;-0.0659;
3101137898637943;-0.0188;-0.0940;-0.0702;
3101137908745443;0.0121;-0.0088;-0.0627;
3101137918852943;-0.0262;-0.0354;-0.0872;
3101137928970339;-0.0346;-0.2325;-0.1501;
3101137939077839;0.0356;-0.0514;-0.1320;
3101137949185339;0.0324;0.0700;-0.1117;
3101137959290756;0.0473;-0.0205;-0.0883;
3101137969398256;0.0664;0.0562;-0.0659;
3101137979505756;0.0569;0.1860;-0.0318;
3101137989626485;0.0537;0.1391;-0.0521;
3101137999733985;0.1687;0.0083;-0.0648;
3101138009841485;0.2326;-0.0940;-0.0776;
3101138019938777;0.1634;0.0125;-0.0361;
3101138030046277;0.0217;0.0370;-0.0414;
3101138040153777;0.0558;-0.0770;-0.0329;
3101138050257527;0.0824;-0.0642;-0.0318;
3101138060365027;0.0632;-0.0599;0.0193;
3101138070472527;0.0398;-0.0866;-0.0009;
3101138080583933;0.0047;-0.1111;-0.0212;
3101138090691433;0.0228;-0.0610;-0.0382;
3101138100798933;0.0569;0.0008;-0.0638;
3101138110895339;0.0771;0.0679;-0.0585;
3101138121002839;0.0750;0.1104;-0.0435;
3101138131110339;0.1080;0.0051;-0.0372;
3101138141216798;0.1858;0.0349;-0.0308;
3101138151324298;0.1612;0.1360;0.0076;
3101138161431798;0.0728;0.1541;0.0129;
3101138171546433;0.0846;-0.0450;0.0172;
3101138181653933;0.0611;-0.1025;0.0300;
3101138191761433;0.0015;0.0019;0.0065;
3101138201875548;0.0036;0.0583;-0.0340;
3101138211983048;0.0164;0.0328;-0.0244;
3101138222090548;0.0398;-0.1696;-0.0244;
3101138232212423;0.0260;-0.1451;-0.0244;
3101138242319923;-0.0092;0.0530;-0.0201;
3101138252427423;-0.0431;0.1466;-0.0276;
3101138262514766;0.0622;-0.0514;-0.0180;
3101138272622266;0.2060;-0.0099;-0.0308;
3101138282729766;0.1538;0.1306;0.0076;
3101138292826902;0.0718;0.0285;-0.0148;
3101138302934402;0.1485;0.0530;-0.0084;
3101138313041902;0.0973;0.0317;0.0076;
3101138323150860;0.1091;0.0700;0.0033;
3101138333258308;0.0963;-0.0386;0.0268;
3101138343365860;0.0441;-0.2506;0.0246;
3101138353491798;0.0356;-0.1611;0.0502;
3101138363599298;0.0068;-0.0908;0.0395;
3101138373706798;-0.0145;-0.1206;-0.0063;
3101138383780964;0.0462;0.0221;-0.0020;
3101138393888464;0.0462;0.0679;-0.0041;
3101138403995964;0.1059;0.0360;0.0150;
3101138414120756;0.1186;-0.0535;0.0023;
3101138424228256;0.1240;-0.0738;0.0140;
3101138434335756;0.0824;0.1221;0.0300;
3101138444435652;0.0515;0.1988;0.0694;
3101138454543152;0.0877;0.0445;0.0832;
3101138464650652;0.1037;-0.0077;0.0768;
3101138474767943;0.0654;0.0210;0.0800;
3101138484875391;0.0281;-0.0216;0.0640;
3101138494982943;-0.0103;-0.0130;0.0609;
3101138505114402;-0.0581;-0.0141;0.0406;
3101138515221902;-0.0389;-0.0216;0.0630;
3101138525329402;-0.0241;-0.0397;0.0822;
3101138535439870;-0.0410;-0.0280;0.0683;
3101138545547631;-0.0431;0.0594;0.1056;
3101138555655443;-0.0644;-0.0162;0.0694;
3101138565747787;0.0174;-0.0184;0.0385;
3101138575855548;0.0057;0.0999;0.0364;
3101138585963308;-0.0039;0.0636;0.0672;
3101138596073464;0.0324;-0.0120;0.1003;
3101138606181225;0.0153;0.0466;0.0672;
3101138616289037;0.0004;0.0370;0.0683;
3101138626379975;0.0004;0.0178;0.0854;
3101138636487735;-0.0071;0.0296;0.1120;
3101138646595495;-0.0368;-0.1313;0.0917;
3101138656702995;-0.0294;-0.0908;0.0854;
3101138666810756;-0.0527;0.0583;0.0736;
3101138676918568;-0.0943;0.0913;0.0790;
3101138687027787;-0.0294;0.0232;0.0875;
3101138697135548;-0.0007;-0.0482;0.0971;
3101138707243308;-0.0145;-0.0280;0.0907;
3101138717364662;-0.0421;0.0306;0.1109;
3101138727472423;-0.0506;0.0157;0.1226;
3101138737580235;-0.0368;0.0083;0.1067;
3101138747678516;-0.0346;0.1009;0.1152;
3101138757786277;-0.0314;0.0466;0.1109;
3101138767894089;-0.0060;0.0509;0.0981;
3101138777999662;-0.0336;0.1009;0.1003;
3101138788107423;-0.0325;0.0413;0.1152;
3101138798215235;-0.0252;0.0019;0.1290;
3101138808319245;-0.0262;-0.0152;0.1652;
3101138818427006;-0.0783;0.0317;0.1450;
3101138828534818;-0.0921;-0.0301;0.1290;
3101138838642475;-0.1092;-0.0908;0.1162;
3101138848750235;-0.0858;-0.0450;0.1258;
3101138858857995;-0.1028;0.0019;0.0992;
3101138868938100;-0.1284;0.0679;0.1003;
3101138879045860;-0.1209;0.0647;0.0992;
3101138889153620;-0.0634;0.0072;0.0822;
3101138899284350;-0.0485;0.0136;0.0928;
3101138909392110;-0.0719;0.1296;0.0822;
3101138919499870;-0.0836;0.0818;0.1003;
3101138929605495;-0.0442;0.0466;0.0928;
3101138939713256;-0.0431;0.0573;0.0672;
3101138949821016;-0.0410;0.0274;0.0875;
3101138959931016;-0.0655;0.0306;0.0832;
3101138970038777;-0.0836;-0.0951;0.0800;
3101138980146537;-0.1007;-0.1270;0.0672;
3101138990277058;-0.1166;-0.0610;0.0566;
3101139000384818;-0.1433;-0.0290;0.0566;
3101139010492631;-0.1624;0.0242;0.0278;
3101139020578620;-0.1252;-0.0045;-0.0116;
3101139030686381;-0.0581;-0.0088;-0.0148;
3101139040794141;-0.0687;0.0945;0.0044;
3101139050900391;-0.0305;0.1434;-0.0031;
3101139061008152;-0.0410;0.0466;0.0033;
3101139071115912;-0.0336;0.0200;0.0055;
3101139081223412;-0.0634;0.0221;0.0236;
3101139091331173;-0.0889;-0.0162;0.0182;
3101139101438985;-0.1241;-0.0194;0.0076;
3101139111546225;-0.1241;-0.1153;-0.0297;
3101139121653985;-0.0836;-0.0663;-0.0403;
3101139131761745;-0.0889;0.0264;-0.0340;
3101139141873620;-0.1209;0.0093;-0.0840;
3101139151981381;-0.0772;0.0583;-0.0808;
3101139162089141;-0.0442;0.1041;-0.0617;
3101139172190131;-0.0325;0.0274;-0.0670;
3101139182297891;-0.0495;-0.0471;-0.0425;
3101139192405704;-0.0762;-0.0312;-0.0180;
3101139202513725;-0.0666;-0.0631;-0.0084;
3101139212621485;-0.0847;-0.0759;-0.0063;
3101139222729245;-0.0751;-0.0439;-0.0521;
3101139232835287;-0.0783;-0.0077;-0.0382;
3101139242943048;-0.0698;-0.0194;-0.0233;
3101139253050860;-0.0602;-0.0375;-0.0222;
3101139263154870;-0.0570;-0.0429;-0.0095;
3101139273262683;-0.0794;-0.0290;0.0119;
3101139283370391;-0.0911;0.0796;0.0193;
3101139293472058;-0.1028;0.2297;0.0150;
3101139303579818;-0.0602;0.0871;0.0662;
3101139313687579;-0.0399;-0.2069;0.0619;
3101139323812579;-0.0740;-0.0716;0.0704;
3101139333920391;-0.1007;0.0818;0.0843;
3101139344028152;-0.0868;-0.0152;0.0640;
3101139354133725;-0.0826;-0.1079;0.0779;
3101139364241485;-0.0911;-0.0620;0.0854;
3101139374349298;-0.1326;-0.0194;0.0917;
3101139384472579;-0.1816;0.0061;0.0907;
3101139394580339;-0.2306;-0.1334;0.0598;
3101139404688152;-0.1337;-0.0535;0.0236;
3101139414798516;-0.1603;0.3032;0.0193;
3101139424906277;-0.3095;0.0711;0.0332;
3101139435014089;-0.0996;0.0530;0.0310;
3101139445110287;-0.0634;0.2180;0.0087;
3101139455218048;-0.1177;0.0775;0.0119;
3101139465325860;-0.1273;-0.0077;0.0342;
3101139475419141;-0.1944;-0.1121;0.0001;
3101139485526902;-0.1742;-0.1526;-0.0126;
3101139495634662;-0.1720;-0.0961;-0.0393;
3101139505738204;-0.1731;-0.1238;-0.1138;
3101139515845964;-0.1124;-0.0162;-0.1021;
3101139525953777;-0.1316;-0.0003;-0.1277;
3101139536063933;-0.1017;-0.0067;-0.1778;
3101139546171329;-0.0602;0.0306;-0.1810;
3101139556278725;-0.0336;0.0104;-0.1788;
3101139566385964;0.0260;0.0306;-0.1650;
3101139576493360;0.0377;0.0498;-0.1788;
3101139586600756;0.0856;-0.0035;-0.1618;
3101139596709350;0.0846;-0.1228;-0.1660;
3101139606816745;0.0622;-0.0525;-0.1554;
3101139616924141;0.0025;0.1009;-0.1394;
3101139627024506;-0.0325;0.0668;-0.1852;
3101139637131902;0.0622;0.0008;-0.2053;
3101139647239298;0.1772;-0.0557;-0.2021;
3101139657347423;0.1783;-0.0386;-0.2000;
3101139667454818;0.0526;-0.0439;-0.1927;
3101139677562214;-0.0103;-0.0844;-0.1714;
3101139687678360;0.0238;-0.0109;-0.1628;
3101139697785756;0.0462;0.1285;-0.1447;
3101139707893152;0.0217;0.0956;-0.1490;
3101139718000339;0.0739;-0.0344;-0.1831;
3101139728107735;0.1378;0.0061;-0.1852;
3101139738215131;0.1016;0.0168;-0.2128;
3101139748325964;0.0419;-0.0972;-0.1895;
3101139758433360;-0.0071;-0.0152;-0.1767;
3101139768540756;0.0079;0.0956;-0.1575;
3101139778645027;0.0601;0.1200;-0.1682;
3101139788752423;0.0856;0.0573;-0.1586;
3101139798859818;0.0888;0.0189;-0.1352;
3101139808970131;0.0419;0.0466;-0.1426;
3101139819077527;0.0473;0.0413;-0.1607;
3101139829184923;0.0590;-0.0152;-0.1543;
3101139839284923;0.0260;-0.0972;-0.1522;
3101139849392318;0.0025;-0.0844;-0.1501;
3101139859499714;0.0111;-0.0738;-0.1437;
3101139869629923;0.0334;-0.0120;-0.1490;
3101139879737318;0.0664;0.0391;-0.1362;
3101139889844714;0.0835;-0.0013;-0.1362;
3101139899922943;0.0984;0.0136;-0.1192;
3101139910030339;0.0686;-0.0184;-0.1277;
3101139920137735;0.0590;-0.0173;-0.1362;
3101139930254193;0.0505;0.0498;-0.1000;
3101139940361589;0.0505;0.0423;-0.0936;
3101139950468985;0.0707;-0.0226;-0.0808;
3101139960577839;0.0739;-0.0290;-0.0531;
3101139970685235;0.0462;-0.0386;-0.0798;
3101139980792631;0.0302;-0.0269;-0.0766;
3101139990895131;0.0558;0.0115;-0.0340;
3101140001002527;0.0601;0.0338;-0.0617;
3101140011109923;0.0569;0.0157;-0.0606;
3101140021224298;0.0451;-0.0003;-0.0531;
3101140031331693;0.0185;-0.0823;-0.0403;
3101140041439089;-0.0081;-0.0876;-0.0350;
3101140051547423;0.0174;0.0264;-0.0372;
3101140061654818;0.0260;0.1274;-0.0265;
3101140071762214;0.0537;0.1178;-0.0297;
3101140081872839;0.0867;0.0807;-0.0233;
3101140091980235;0.1059;0.0360;-0.0148;
3101140102087631;0.0611;0.0168;-0.0233;
3101140112194923;0.0302;0.0466;0.0044;
3101140122302318;0.0334;0.0178;0.0257;
3101140132409714;0.0132;-0.0759;0.0374;
3101140142511693;0.0164;-0.1164;0.0406;
3101140152619089;-0.0124;-0.0567;0.0193;
3101140162726485;-0.0081;-0.1121;0.0044;
3101140172835131;0.0121;-0.1132;-0.0148;
3101140182942527;0.0100;-0.0269;-0.0073;
3101140193049923;0.0153;0.0530;-0.0372;
3101140203185235;0.0324;0.1530;-0.0393;
3101140213292631;0.0590;0.0722;-0.0308;
3101140223400027;0.1059;-0.0226;0.0023;
3101140233508256;0.0505;0.0104;0.0300;
3101140243615652;-0.0060;0.0573;0.0289;
3101140253723048;0.0313;0.1083;0.0364;
3101140263814975;0.0643;0.2084;0.0332;
3101140273922370;0.0664;0.1146;0.0108;
3101140284029818;0.0462;-0.0823;-0.0137;
3101140294119818;-0.0017;-0.0919;0.0076;
3101140304227214;-0.0634;-0.1047;-0.0308;
3101140314334610;-0.0294;-0.0290;-0.0329;
3101140324472110;-0.0156;-0.0226;-0.0403;
3101140334579506;0.0025;-0.1132;-0.0563;
3101140344686902;0.0164;-0.0439;-0.0233;
3101140354796277;0.0377;0.0136;-0.0393;
3101140364903673;0.0377;-0.0823;-0.0659;
3101140375011068;0.0430;-0.0780;-0.0723;
3101140385089766;0.0537;0.1146;-0.0883;
3101140395197162;0.0718;0.1967;-0.0798;
3101140405304558;0.1112;0.0551;-0.0617;
3101140415416381;0.1644;-0.0301;-0.0553;
3101140425523777;0.0718;-0.0397;-0.0425;
3101140435631173;0.0398;-0.0620;-0.0265;
3101140445770443;0.0782;-0.0418;-0.0233;
3101140455877839;0.0430;-0.0258;-0.0553;
3101140465985235;0.0643;0.0189;-0.0617;
3101140476070027;0.0622;-0.0194;-0.0872;
3101140486177423;0.0696;-0.0652;-0.0989;
3101140496284818;0.0718;-0.0365;-0.0915;
3101140506388777;0.0356;-0.0258;-0.1085;
3101140516496173;0.0366;-0.0876;-0.1309;
3101140526603568;0.0515;0.0061;-0.1373;
3101140536707943;0.0846;0.1700;-0.1064;
3101140546815443;0.0739;0.0903;-0.1032;
3101140556922943;0.1410;0.0115;-0.1032;
3101140567023464;0.2103;0.0200;-0.0989;
3101140577130964;0.2316;-0.0194;-0.0787;
3101140587238464;0.1794;-0.0354;-0.0744;
3101140597358048;0.1005;-0.0280;-0.0361;
3101140607465548;0.0792;-0.0716;-0.0254;
3101140617573048;0.0792;-0.1111;-0.0297;
3101140627685131;0.0856;-0.1473;-0.0201;
3101140637792631;0.0888;-0.1867;-0.0276;
3101140647900131;0.0792;-0.1569;-0.0350;
3101140657997631;0.0377;-0.0951;-0.0531;
3101140668105131;0.0111;0.0413;-0.0531;
3101140678212631;-0.0389;0.0583;-0.0617;
3101140688318881;0.1261;-0.0013;-0.0233;
3101140698426381;0.2156;-0.0493;-0.0020;
3101140708533829;0.2475;-0.1036;0.0236;
3101140718645027;0.2028;0.0051;0.0257;
3101140728752527;0.1101;0.1594;0.0790;
3101140738860027;0.1826;0.1647;0.1301;
3101140748975027;0.3178;0.1903;0.1567;
3101140759082527;0.4084;0.0466;0.1748;
3101140769190027;0.3828;-0.1206;0.2302;
3101140779290027;0.1314;-0.1281;0.2377;
3101140789397527;-0.0762;-0.0482;0.2675;
3101140799505027;-0.1699;-0.0493;0.2622;
3101140809610027;-0.1060;-0.1558;0.2419;
3101140819717527;-0.1497;-0.1153;0.2313;
3101140829825027;-0.2913;-0.0546;0.2366;
3101140839932943;-0.2200;-0.1057;0.2089;
3101140850040443;-0.1965;-0.0844;0.1716;
3101140860147943;-0.2509;-0.0887;0.1216;
3101140870273777;-0.1763;0.1807;0.1099;
3101140880381277;-0.0262;0.1072;0.1162;
3101140890488777;0.1186;0.0146;0.0917;
3101140900577423;-0.0092;-0.0109;0.1130;
3101140910684923;-0.0783;-0.0663;0.1099;
3101140920792423;-0.0953;0.0562;0.0822;
3101140930901173;-0.0772;0.0988;0.0864;
3101140941008673;0.0206;0.0115;0.0470;
3101140951116173;-0.0262;-0.0088;0.0246;
3101140961223256;-0.0305;0.0423;0.0055;
3101140971330756;-0.0017;-0.0322;-0.0137;
3101140981438256;-0.0485;0.0146;-0.0329;
3101140991551798;-0.1039;0.1157;-0.0276;
3101141001659298;-0.0134;0.0445;-0.0297;
3101141011766798;0.0334;0.0647;-0.0702;
3101141021874298;0.0409;0.0796;-0.0723;
3101141031981798;0.1282;-0.0397;-0.0595;
3101141042089298;0.1357;-0.0503;-0.0755;
3101141052192943;-0.0368;0.0306;-0.0915;
3101141062300443;-0.0900;0.1083;-0.1021;
3101141072407943;0.0590;0.0839;-0.1117;
3101141082517214;0.1783;-0.0365;-0.0904;
3101141092624714;0.2795;-0.1196;-0.0734;
3101141102732214;0.2816;-0.1356;-0.0766;
3101141112845183;0.0856;-0.0695;-0.0627;
3101141122952683;-0.0134;-0.0130;-0.0457;
3101141133060183;0.0675;-0.0354;-0.0244;
3101141143155964;0.0569;0.0104;-0.0617;
3101141153263412;0.0792;0.0445;-0.0276;
3101141163370964;0.0952;-0.0077;-0.0350;
3101141173481068;0.0984;0.0093;-0.0617;
3101141183588568;0.1091;0.0988;-0.0254;
3101141193696068;0.1389;-0.0162;0.0055;
3101141203819714;0.3114;-0.1814;-0.0020;
3101141213927214;0.3796;-0.0929;0.0150;
3101141224034714;0.1197;0.0200;0.0545;
3101141234139350;-0.1273;0.0743;0.0779;
3101141244246798;-0.2338;0.0903;0.0577;
3101141254354298;-0.1806;0.1306;0.0150;
3101141264461745;0.0643;0.0274;0.0001;
3101141274584193;0.2774;-0.1909;0.0065;
3101141284691693;0.3913;-0.1409;0.0214;
3101141294799193;0.1176;-0.0365;0.0406;
3101141304896329;-0.0666;-0.0461;0.0513;
3101141315003829;-0.1071;0.0999;0.0246;
3101141325111329;-0.2061;0.1722;0.0523;
3101141335203360;0.0004;0.0253;0.0342;
3101141345310860;0.1815;-0.0695;-0.0116;
3101141355418360;0.1612;-0.0482;0.0076;
3101141365523777;0.0920;-0.0194;0.0044;
3101141375631277;0.0451;-0.0109;0.0001;
3101141385738777;0.0377;0.0253;0.0012;
3101141395843516;0.0441;-0.0067;-0.0148;
3101141405951016;0.0462;-0.0631;-0.0041;
3101141416058516;0.0590;0.0210;0.0001;
3101141426176693;0.1080;0.0551;0.0023;
3101141436284193;0.1154;-0.1015;0.0119;
3101141446391693;0.0718;-0.0919;-0.0063;
3101141456492214;0.0206;0.0072;-0.0095;
3101141466599714;0.0047;0.0839;-0.0158;
3101141476707214;0.0877;0.1063;-0.0382;
3101141486844506;0.1570;0.0668;-0.0201;
3101141496952006;0.1783;-0.0045;0.0150;
3101141507059506;0.1304;-0.0301;0.0129;
3101141517144089;0.1027;0.0221;0.0289;
3101141527251589;0.0909;0.0072;0.0119;
3101141537359089;0.0856;-0.0471;0.0342;
3101141547467787;0.0814;-0.0035;0.0449;
3101141557575443;0.0856;0.0349;0.0214;
3101141567682943;0.0824;-0.0056;0.0097;
3101141577789923;0.0505;-0.0770;-0.0073;
3101141587897527;0.0537;-0.0301;-0.0031;
3101141598005079;0.0238;-0.0375;0.0097;
3101141608112527;0.0132;-0.1324;-0.0116;
3101141618220131;0.0526;-0.0706;-0.0361;
3101141628327631;0.0739;0.0157;-0.0340;
3101141638430235;0.1112;0.0317;-0.0254;
3101141648537839;0.1176;0.0146;-0.0095;
3101141658645391;0.1154;0.0083;-0.0190;
3101141668755704;0.1634;0.0402;-0.0126;
3101141678863308;0.1868;0.1031;-0.0105;
3101141688970912;0.1399;0.1189;-0.0063;
3101141699075131;0.0984;0.0754;0.0119;
3101141709182735;0.0835;-0.0184;0.0087;
3101141719290287;0.0803;-0.0035;0.0300;
3101141729395756;0.0462;0.0061;0.0214;
3101141739503308;0.0558;-0.0130;0.0065;
3101141749610860;0.0728;-0.0269;0.0406;
3101141759722839;0.0760;0.0104;0.0119;
3101141769830443;0.0899;0.0413;0.0140;
3101141779937995;0.0611;0.0083;0.0108;
3101141790064714;0.0782;-0.0120;-0.0095;
3101141800172318;0.0601;0.0019;0.0001;
3101141810279818;0.0547;-0.0503;-0.0084;
3101141820366589;0.0771;-0.0109;-0.0137;
3101141830474193;0.0963;0.0498;-0.0105;
3101141840581745;0.1016;0.0338;0.0268;
3101141850694818;0.0952;0.0072;0.0332;
3101141860802423;0.0696;-0.0333;0.0236;
3101141870909975;0.0750;-0.0429;0.0449;
3101141881014923;0.0728;-0.0439;0.0577;
3101141891122527;0.0782;-0.0642;0.0438;
3101141901230079;0.0707;0.0487;0.0470;
3101141911336433;0.0313;0.0487;0.0470;
3101141921444037;0.0281;-0.0088;0.0342;
3101141931551641;0.0643;0.0328;0.0427;
3101141941659402;0.0419;0.0370;0.0491;
3101141951766954;0.0100;0.0019;0.0566;
3101141961874506;-0.0198;-0.0567;0.0832;
3101141971986120;-0.0166;-0.0471;0.0758;
3101141982093777;0.0185;0.0168;0.0726;
3101141992201277;-0.0389;-0.0418;0.0822;
3101142002309298;-0.0879;-0.0876;0.0779;
3101142012416902;-0.1049;-0.1185;0.0694;
3101142022524454;-0.1710;-0.1728;0.0523;
3101142032633881;-0.1752;-0.1132;0.0204;
3101142042741485;-0.1358;-0.0525;-0.0126;
3101142052849089;-0.1028;0.0136;-0.0297;
3101142062952006;-0.0719;0.0690;-0.0265;
3101142073059610;-0.0527;0.0679;-0.0403;
3101142083167110;0.0047;0.1306;-0.0425;
3101142093274662;0.0100;0.1690;-0.0244;
3101142103382266;0.0121;0.1573;-0.0180;
3101142113489818;0.0015;0.1828;0.0150;
3101142123619245;-0.0495;0.0754;0.0246;
3101142133726850;-0.0804;-0.0844;0.0364;
3101142143834454;-0.0442;-0.0589;0.0523;
3101142153906745;-0.0262;-0.0205;0.0491;
3101142164014298;-0.0506;-0.0301;0.0310;
3101142174121902;-0.0517;-0.0141;0.0332;
3101142184223568;-0.0431;-0.0322;0.0310;
3101142194331120;-0.0357;-0.0525;-0.0137;
3101142204438725;-0.0442;-0.0546;-0.0286;
3101142214604714;-0.0294;-0.0322;-0.0201;
3101142224712318;-0.0538;-0.0045;-0.0105;
3101142234819818;-0.0474;-0.0525;-0.0095;
3101142244912162;-0.0188;-0.0088;0.0140;
3101142255019714;0.0089;0.0455;0.0150;
3101142265127318;-0.0241;-0.0013;0.0534;
3101142275231329;-0.0262;-0.0514;0.0726;
3101142285338933;-0.0081;-0.0983;0.0598;
3101142295446485;0.0356;-0.0493;0.0736;
3101142305535027;0.0526;0.0157;0.0981;
3101142315642579;0.0356;0.0477;0.0896;
3101142325750183;0.0111;0.0264;0.0907;
3101142335861120;0.0079;0.0700;0.1120;
3101142345968777;-0.0113;0.0157;0.1248;
3101142356076277;-0.0485;-0.1345;0.1269;
3101142366179298;-0.0124;-0.0567;0.1397;
3101142376286954;-0.0220;0.0402;0.1493;
3101142386394506;-0.0399;0.0072;0.1674;
3101142396504870;-0.0410;-0.0514;0.1663;
3101142406612527;-0.0252;0.0019;0.1439;
3101142416720027;-0.0389;0.0722;0.1461;
3101142426827214;-0.0676;0.0168;0.1450;
3101142436934818;-0.0858;-0.0375;0.1493;
3101142447042423;-0.0740;0.0551;0.1482;
3101142457143673;-0.0751;0.1743;0.1386;
3101142467251225;-0.1465;0.0264;0.1695;
3101142477358829;-0.1848;-0.0280;0.1471;
3101142487496016;-0.1539;-0.0855;0.1322;
3101142497603620;-0.2040;-0.1377;0.1599;
3101142507711173;-0.1635;0.0668;0.1322;
3101142517800287;-0.1475;0.1391;0.1205;
3101142527907891;-0.2370;0.0115;0.1003;
3101142538015443;-0.2455;-0.0226;0.0864;
3101142548111798;-0.2434;-0.0024;0.0704;
3101142558219350;-0.2935;-0.0099;0.0534;
3101142568326850;-0.3009;-0.0035;-0.0041;
3101142578435964;-0.2679;0.0232;-0.0329;
3101142588543464;-0.3190;-0.0120;-0.0265;
3101142598651016;-0.3116;-0.0077;-0.0457;
3101142608762527;-0.2711;0.0115;-0.0766;
3101142618870079;-0.2615;0.0850;-0.0723;
3101142628977579;-0.2445;0.1093;-0.1053;
3101142639080860;-0.2604;-0.1015;-0.1543;
3101142649188412;-0.1933;0.0487;-0.1650;
3101142659295912;-0.1390;0.1786;-0.1618;
3101142669412162;-0.1358;0.0988;-0.1660;
3101142679519714;-0.1113;0.0573;-0.1895;
3101142689627214;-0.0847;0.0583;-0.2106;
3101142699733777;-0.0730;0.0796;-0.2106;
3101142709841329;-0.0581;0.0445;-0.1927;
3101142719948829;-0.0676;-0.0365;-0.2053;
3101142730050548;0.0121;-0.0429;-0.2224;
3101142740158100;0.0611;0.0157;-0.2192;
3101142750265548;0.1005;0.0743;-0.1979;
3101142760381381;0.0835;0.0104;-0.1767;
3101142770488933;0.1282;-0.0088;-0.2181;
3101142780596433;0.2177;0.1020;-0.2021;
3101142790725495;0.2071;0.0935;-0.1895;
3101142800833048;0.2316;0.0679;-0.1895;
3101142810940548;0.2603;0.0402;-0.1799;
3101142821029506;0.2518;0.0285;-0.1703;
3101142831137058;0.2497;0.0700;-0.1533;
3101142841244558;0.1889;-0.0727;-0.1437;
3101142851346589;0.1879;-0.1174;-0.1320;
3101142861454141;0.2422;0.0104;-0.1149;
3101142871561641;0.1932;0.0253;-0.0936;
3101142881682214;0.1921;-0.0226;-0.0808;
3101142891789818;0.2060;-0.0130;-0.0574;
3101142901897318;0.1953;0.0146;-0.0936;
3101142911993360;0.2465;0.1093;-0.0862;
3101142922100912;0.1858;0.0796;-0.0553;
3101142932208412;0.1293;-0.0557;-0.0403;
3101142942313933;0.1527;-0.0333;-0.0510;
3101142952421485;0.1485;0.0168;-0.0542;
3101142962528985;0.1197;-0.0258;-0.0670;
3101142972630860;0.1367;-0.0280;-0.0233;
3101142982738412;0.1218;-0.0290;-0.0020;
3101142992845912;0.1186;-0.0493;-0.0169;
3101143002947110;0.1581;-0.0248;-0.0393;
3101143013054662;0.1900;0.0157;-0.0190;
3101143023162110;0.1868;0.0285;-0.0009;
3101143033283620;0.2411;0.0455;-0.0031;
3101143043391173;0.2582;0.0828;-0.0052;
3101143053498673;0.2305;0.0668;-0.0020;
3101143063588829;0.2209;0.0178;0.0023;
3101143073696381;0.2550;0.0168;0.0214;
3101143083803933;0.2454;0.0232;0.0342;
3101143093949714;0.2166;-0.0152;0.0278;
3101143104057266;0.2177;-0.0173;0.0513;
3101143114164766;0.2039;-0.0013;0.0619;
3101143124261225;0.2049;0.0391;0.0768;
3101143134368777;0.1687;-0.0013;0.0779;
3101143144476277;0.1826;-0.0162;0.0747;
3101143154560235;0.1794;0.0636;0.0726;
3101143164667787;0.1740;0.0402;0.0736;
3101143174775287;0.1581;-0.0130;0.0981;
3101143184917110;0.1655;0.0434;0.0715;
3101143195024610;0.1602;0.0700;0.0683;
3101143205132162;0.1005;0.0487;0.0971;
3101143215233048;0.0973;0.0477;0.0917;
3101143225340600;0.1112;0.0711;0.0694;
3101143235448100;0.0941;0.0722;0.0811;
3101143245577995;0.0601;0.0381;0.0917;
3101143255685548;0.0526;0.0125;0.1035;
3101143265793048;0.0441;0.0040;0.1237;
3101143275866850;0.0270;-0.0248;0.1120;
3101143285974402;0.0313;-0.0535;0.1077;
3101143296081902;0.0302;-0.0248;0.1024;
3101143306183256;0.0409;0.0221;0.0960;
3101143316290756;0.0494;0.0306;0.1024;
3101143326398308;0.0462;0.0498;0.1099;
3101143336510339;0.0611;0.1009;0.0907;
3101143346617891;0.0377;0.0850;0.1045;
3101143356725391;0.0036;0.0253;0.1354;
3101143366836798;-0.0156;-0.0056;0.1333;
3101143376944350;-0.0134;0.0029;0.0971;
3101143387051850;-0.0007;0.0328;0.0854;
3101143397164714;-0.0325;0.0264;0.1099;
3101143407272266;-0.0549;0.0136;0.1205;
3101143417379766;-0.0570;0.0200;0.1344;
3101143427478360;-0.0921;0.0402;0.1386;
3101143437585912;-0.0847;0.0434;0.1237;
3101143447693412;-0.1007;0.0370;0.1226;
3101143457798048;-0.1198;0.0232;0.1354;
3101143467905548;-0.1390;0.0381;0.1354;
3101143478013100;-0.1348;0.0626;0.1162;
3101143488149610;-0.1422;0.0402;0.1067;
3101143498257162;-0.1838;0.0083;0.0992;
3101143508364662;-0.2253;0.0040;0.1067;
3101143518450391;-0.2359;-0.0067;0.1035;
3101143528557995;-0.2487;-0.0269;0.0949;
3101143538665495;-0.2477;-0.0386;0.0917;
3101143548784662;-0.2466;-0.0216;0.0598;
3101143558892423;-0.2178;0.0328;0.0300;
3101143569000183;-0.2338;0.0423;0.0193;
3101143579092631;-0.2370;0.0487;0.0182;
3101143589200391;-0.1944;0.0690;0.0204;
3101143599308152;-0.2029;0.0828;0.0289;
3101143609412631;-0.2189;0.0466;0.0108;
3101143619520391;-0.2349;-0.0482;-0.0009;
3101143629628152;-0.2754;-0.0589;0.0055;
3101143639737787;-0.2359;-0.0354;-0.0095;
3101143649845548;-0.1965;-0.0684;-0.0276;
3101143659953308;-0.2189;-0.1100;-0.0297;
3101143670046016;-0.1795;-0.0908;-0.0510;
3101143680153777;-0.1220;0.0146;-0.0489;
3101143690261537;-0.0241;0.1913;-0.0510;
3101143700380600;0.0228;0.3277;-0.0585;
3101143710488360;0.0302;0.4012;-0.0691;
3101143720596120;0.0569;0.4907;-0.0862;
3101143730711537;0.0728;0.5312;-0.0744;
3101143740819298;-0.0177;0.4129;-0.0531;
3101143750927058;-0.1166;0.1594;-0.0435;
3101143761039870;-0.1518;0.0040;-0.0350;
3101143771147631;-0.1316;-0.0684;-0.0308;
3101143781255391;-0.1188;-0.1356;-0.0308;
3101143791339662;-0.0985;-0.1238;-0.0340;
3101143801447423;-0.0911;-0.0823;-0.0489;
3101143811555183;-0.0676;-0.0312;-0.0393;
3101143821680704;-0.0368;0.0317;-0.0414;
3101143831788464;-0.0134;0.1274;-0.0627;
3101143841896225;0.0270;0.2169;-0.0542;
3101143851998620;0.0632;0.2808;-0.0425;
3101143862106381;0.0632;0.3064;-0.0744;
3101143872214141;0.0238;0.2766;-0.0723;
3101143882312787;-0.0634;0.1722;-0.0585;
3101143892420548;-0.1497;-0.0929;-0.0840;
3101143902528308;-0.2168;-0.2740;-0.1117;
3101143912646537;-0.1731;-0.2932;-0.1586;
3101143922754298;-0.1294;-0.3305;-0.1788;
3101143932862058;-0.1113;-0.3390;-0.1948;
3101143942980808;-0.0410;-0.3071;-0.2085;
3101143953088568;0.0057;-0.2261;-0.1959;
3101143963196329;0.0366;-0.1089;-0.1799;
3101143973301225;0.0601;-0.0802;-0.1522;
3101143983408985;0.0707;-0.0546;-0.1192;
3101143993516745;0.1165;-0.0045;-0.1117;
3101144003591850;0.1293;-0.0248;-0.0957;
3101144013699610;0.0995;-0.0951;-0.0638;
3101144023807370;0.1272;-0.1270;-0.0585;
3101144033916954;0.1453;-0.1441;-0.0446;
3101144044024714;0.1410;-0.1462;-0.0467;
3101144054132475;0.1794;-0.1324;-0.0553;
3101144064247891;0.1719;-0.1419;-0.0340;
3101144074355652;0.2060;-0.1302;-0.0435;
3101144084463412;0.2571;-0.0983;-0.0521;
3101144094599766;0.2891;-0.0961;-0.0478;
3101144104707527;0.3296;-0.0834;-0.0137;
3101144114815287;0.3668;-0.0620;0.0023;
3101144124898725;0.4276;-0.0525;0.0076;
3101144135006485;0.4798;-0.0258;0.0353;
3101144145114245;0.5138;-0.0099;0.0545;
3101144155230287;0.5160;-0.0099;0.1077;
3101144165338048;0.4947;-0.0248;0.1429;
3101144175445808;0.4638;-0.0514;0.1684;
3101144185544245;0.4105;-0.0620;0.1951;
3101144195652006;0.3359;-0.0738;0.2185;
3101144205759766;0.2507;-0.0706;0.2451;
3101144215871798;0.1634;-0.0525;0.2441;
3101144225979558;0.0771;-0.0120;0.2696;
3101144236087318;0.0281;-0.0003;0.2494;
3101144246200912;-0.0559;0.0083;0.2632;
3101144256308673;-0.1635;0.0157;0.2409;
3101144266416433;-0.2328;0.0274;0.2654;
3101144276528829;-0.3531;0.0594;0.2441;
3101144286636589;-0.3968;0.0754;0.2409;
3101144296744350;-0.4841;0.0850;0.1993;
3101144306832995;-0.5331;0.0668;0.1919;
3101144316940756;-0.6534;0.0636;0.1748;
3101144327048516;-0.7237;0.0647;0.1663;
3101144337166120;-0.8238;0.0349;0.1258;
3101144347273881;-0.8771;0.0274;0.1077;
3101144357381641;-0.9410;0.0498;0.0843;
3101144367490079;-0.9591;0.0477;0.0630;
3101144377597839;-1.0017;0.0200;0.0300;
3101144387705600;-0.9889;0.0104;0.0076;
3101144397819454;-0.9975;0.0338;-0.0318;
3101144407927214;-0.9421;0.0402;-0.0606;
3101144418034975;-0.9325;0.0370;-0.0819;
3101144428131850;-0.8845;0.0423;-0.0808;
3101144438239610;-0.8153;0.0466;-0.1149;
3101144448347370;-0.7375;0.0541;-0.1043;
3101144458455495;-0.7024;0.0594;-0.1330;
3101144468563256;-0.5971;0.0498;-0.1075;
3101144478671016;-0.5555;0.0434;-0.1149;
3101144488798516;-0.4405;0.0413;-0.0925;
3101144498906277;-0.3830;0.0402;-0.0968;
3101144509014037;-0.3212;0.0402;-0.0766;
3101144519094037;-0.2796;0.0285;-0.0766;
3101144529201798;-0.2604;0.0285;-0.0744;
3101144539290079;-0.2604;0.0391;-0.0638;
3101144549397839;-0.2551;0.0391;-0.0872;
3101144559505548;-0.2626;0.0253;-0.0595;
3101144569640287;-0.2636;0.0285;-0.0840;
3101144579748048;-0.2615;0.0360;-0.0787;
3101144589855808;-0.2668;0.0157;-0.0979;
3101144599968933;-0.2338;0.0221;-0.1085;
3101144610076693;-0.2370;0.0083;-0.0840;
3101144620184454;-0.2189;0.0157;-0.1043;
3101144630301225;-0.1859;0.0189;-0.0830;
3101144640408985;-0.2104;0.0498;-0.1128;
3101144650516745;-0.1944;0.0285;-0.1181;
3101144660603308;-0.1752;0.0008;-0.1085;
3101144670711068;-0.1912;0.0349;-0.1138;
3101144680818829;-0.1933;0.0264;-0.0904;
3101144690926537;-0.1891;-0.0226;-0.1170;
3101144701034298;-0.1806;-0.0248;-0.1181;
3101144711142058;-0.1593;-0.0035;-0.1021;
3101144721244141;-0.1454;-0.0013;-0.1245;
3101144731351902;-0.1348;-0.0099;-0.1170;
3101144741459662;-0.0858;0.0040;-0.1181;
3101144751568308;-0.0687;0.0264;-0.1479;
3101144761676068;-0.0708;0.0157;-0.1330;
3101144771783829;-0.0284;0.0296;-0.1256;
3101144781905287;-0.0241;0.0296;-0.1373;
3101144792013048;-0.0368;-0.0024;-0.1202;
3101144802120808;0.0270;0.0051;-0.1224;
3101144812225287;0.0366;0.0242;-0.1394;
3101144822333048;0.0324;-0.0024;-0.1181;
3101144832440808;0.0835;-0.0109;-0.1075;
3101144842540808;0.1016;-0.0045;-0.1266;
3101144852648568;0.1091;-0.0141;-0.1192;
3101144862756329;0.1644;-0.0099;-0.1075;
3101144872875548;0.2166;0.0040;-0.1245;
3101144882983308;0.2230;0.0029;-0.1202;
3101144893091068;0.2593;0.0008;-0.0872;
3101144903174766;0.3104;0.0008;-0.0830;
3101144913282527;0.3370;-0.0003;-0.1021;
3101144923390287;0.3551;-0.0056;-0.0851;
3101144933513308;0.3924;-0.0205;-0.0702;
3101144943621068;0.4425;-0.0173;-0.0904;
3101144953728829;0.4584;-0.0099;-0.0883;
3101144963829141;0.4489;-0.0365;-0.0510;
3101144973936902;0.4925;-0.0354;-0.0414;
3101144984044662;0.5607;-0.0003;-0.0648;
3101144994159662;0.5671;0.0040;-0.0542;
3101145004267423;0.5586;-0.0226;-0.0148;
3101145014375183;0.6074;-0.0130;-0.0126;
3101145024490860;0.6479;0.0093;-0.0414;
3101145034598620;0.6511;-0.0024;-0.0222;
3101145044706381;0.6021;-0.0269;0.0236;
3101145054795964;0.6064;-0.0312;0.0364;
3101145064903725;0.6277;-0.0152;-0.0020;
3101145075011485;0.6266;-0.0035;-0.0073;
3101145085112683;0.5639;-0.0088;0.0332;
3101145095220443;0.5096;-0.0099;0.0545;
3101145105328204;0.5000;0.0008;0.0289;
3101145115455912;0.4957;0.0072;-0.0041;
3101145125563673;0.4616;0.0072;0.0140;
3101145135671433;0.3871;0.0125;0.0545;
3101145145767631;0.3168;0.0019;0.0555;
3101145155875391;0.2869;-0.0045;0.0236;
3101145165983152;0.2667;-0.0045;0.0001;
3101145176099870;0.2326;-0.0045;0.0214;
3101145186207631;0.1889;-0.0013;0.0555;
3101145196315391;0.1495;0.0104;0.0534;
3101145206408516;0.1250;0.0178;0.0204;
3101145216516277;0.1005;0.0168;0.0012;
3101145226624037;0.0782;0.0168;0.0065;
3101145236725808;0.0537;0.0136;0.0246;
3101145246833568;0.0324;0.0115;0.0289;
3101145256941329;0.0377;0.0264;0.0150;
3101145267080443;0.0441;0.0445;0.0055;
3101145277188204;0.0366;0.0477;0.0087;
3101145287295964;0.0089;0.0455;0.0204;
3101145297384350;-0.0060;0.0391;0.0225;
3101145307492110;-0.0156;0.0477;0.0150;
3101145317599870;-0.0273;0.0541;0.0193;
3101145327717162;-0.0527;0.0487;0.0310;
3101145337824923;-0.0953;0.0487;0.0385;
3101145347932683;-0.1262;0.0317;0.0406;
3101145358029454;-0.1688;0.0136;0.0395;
3101145368137214;-0.2221;0.0210;0.0470;
3101145378244975;-0.2509;0.0157;0.0630;
3101145388353516;-0.2786;-0.0013;0.0651;
3101145398461277;-0.3041;-0.0013;0.0566;
3101145408569037;-0.3371;-0.0045;0.0502;
3101145418675183;-0.3702;-0.0077;0.0577;
3101145428782943;-0.3893;0.0093;0.0790;
3101145438890704;-0.3851;0.0274;0.0949;
3101145448993048;-0.3478;0.0328;0.1056;
3101145459100808;-0.3073;0.0423;0.1045;
3101145469208568;-0.2530;0.0423;0.1088;
3101145479333308;-0.1987;0.0242;0.1258;
3101145489441068;-0.1475;0.0146;0.1397;
3101145499548829;-0.1007;0.0200;0.1546;
3101145509637266;-0.0517;0.0221;0.1695;
3101145519745027;-0.0209;0.0264;0.1748;
3101145529852787;0.0047;0.0381;0.1791;
3101145539972370;0.0814;0.0434;0.1823;
3101145550080287;0.1112;0.0487;0.1919;
3101145560188152;0.0792;0.0541;0.2089;
3101145570282162;0.0771;0.0509;0.2185;
3101145580390027;0.0675;0.0413;0.2228;
3101145590497891;0.0558;0.0051;0.2313;
3101145600610131;0.1708;-0.0493;0.2366;
3101145610717995;0.1442;-0.0503;0.2409;
3101145620825860;-0.0421;-0.0258;0.2292;
3101145630921225;-0.1007;-0.0173;0.1972;
3101145641029089;-0.1124;-0.0184;0.1706;
3101145651137006;-0.1688;-0.0194;0.1567;
3101145661259350;-0.1678;-0.0301;0.1418;
3101145671367214;-0.1475;-0.0365;0.1226;
3101145681475131;-0.1710;-0.0290;0.1067;
3101145691579975;-0.2242;-0.0173;0.1141;
3101145701687839;-0.2423;-0.0173;0.1322;
3101145711795756;-0.2370;-0.0024;0.1599;
3101145721901745;-0.2658;0.0423;0.1695;
3101145732009662;-0.2796;0.0498;0.1684;
3101145742117527;-0.2402;0.0296;0.1748;
3101145752223725;-0.2487;0.0285;0.1876;
3101145762331589;-0.2775;0.0274;0.1919;
3101145772439506;-0.2711;0.0178;0.1961;
3101145782546745;-0.2583;0.0146;0.2121;
3101145792654610;-0.2711;0.0125;0.2355;
3101145802762527;-0.2924;0.0061;0.2515;
3101145812863308;-0.3009;0.0029;0.2537;
3101145822971173;-0.3180;0.0083;0.2505;
3101145833079089;-0.3467;0.0146;0.2547;
3101145843184558;-0.3585;0.0136;0.2622;
3101145853292475;-0.3670;0.0210;0.2686;
3101145863400339;-0.3968;0.0285;0.2611;
3101145873530495;-0.3872;0.0242;0.2515;
3101145883638360;-0.3702;0.0242;0.2505;
3101145893746225;-0.3798;0.0264;0.2505;
3101145903847475;-0.3883;0.0178;0.2430;
3101145913955391;-0.3574;0.0051;0.2281;
3101145924063256;-0.2679;0.0019;0.2206;
3101145934148620;-0.1529;-0.0045;0.2217;
3101145944256485;-0.0378;-0.0141;0.2228;
3101145954364402;-0.0241;-0.0120;0.2121;
3101145964504558;-0.0113;0.0008;0.1834;
3101145974612423;0.0164;0.0104;0.1599;
3101145984720339;0.0036;0.0136;0.1461;
3101145994822370;-0.0284;0.0200;0.1375;
3101146004930235;-0.0357;0.0221;0.1226;
3101146015038152;-0.0209;0.0125;0.0981;
3101146025130964;-0.0049;0.0051;0.0768;
3101146035238829;0.0217;0.0061;0.0640;
3101146045346745;0.0664;0.0040;0.0523;
3101146055449454;0.1186;-0.0024;0.0364;
3101146065557318;0.1634;-0.0045;0.0119;
3101146075665235;0.2017;-0.0045;-0.0148;
3101146085778464;0.2177;-0.0088;-0.0435;
3101146095886329;0.2124;-0.0088;-0.0670;
3101146105994245;0.1868;-0.0003;-0.0957;
3101146116110808;0.1378;0.0029;-0.1224;
3101146126218673;0.0675;0.0008;-0.1479;
3101146136326589;0.0196;-0.0003;-0.1724;
3101146146432787;0.0409;0.0008;-0.1895;
3101146156540652;0.0377;-0.0013;-0.1937;
3101146166648568;0.0419;-0.0045;-0.1969;
3101146176769766;0.0537;-0.0035;-0.2011;
3101146186877631;0.0558;-0.0056;-0.2011;
3101146196985495;0.0537;-0.0120;-0.1989;
3101146207076329;0.0494;-0.0130;-0.1959;
3101146217184193;0.0483;-0.0056;-0.1916;
3101146227292058;0.0494;-0.0013;-0.1873;
3101146237383100;0.0494;0.0008;-0.1831;
3101146247490964;0.0483;0.0008;-0.1767;
3101146257598829;0.0451;-0.0077;-0.1682;
3101146267700912;0.0451;-0.0130;-0.1597;
3101146277808777;0.0441;-0.0120;-0.1522;
3101146287916693;0.0526;-0.0067;-0.1469;
3101146298025391;0.0728;-0.0013;-0.1426;
3101146308133256;0.0867;0.0019;-0.1383;
3101146318241173;0.0909;0.0019;-0.1320;
3101146328363620;0.0835;-0.0045;-0.1309;
3101146338471485;0.0696;-0.0088;-0.1298;
3101146348579402;0.0569;-0.0099;-0.1309;
3101146358699714;0.0462;-0.0067;-0.1309;
3101146368807579;0.0366;-0.0035;-0.1320;
3101146378915495;0.0345;-0.0003;-0.1341;
3101146388991381;0.0356;0.0008;-0.1341;
3101146399099245;0.0356;-0.0035;-0.1362;
3101146409207162;0.0356;-0.0077;-0.1394;
3101146419315391;0.0366;-0.0088;-0.1415;
3101146429423256;0.0366;-0.0077;-0.1426;
3101146439531173;0.0387;-0.0056;-0.1405;
3101146449653048;0.0377;-0.0035;-0.1426;
3101146459760912;0.0356;-0.0013;-0.1490;
3101146469868777;0.0356;-0.0013;-0.1501;
3101146479987683;0.0377;-0.0035;-0.1501;
3101146490095600;0.0398;-0.0077;-0.1501;
3101146500203464;0.0398;-0.0120;-0.1554;
3101146510281120;0.0409;-0.0109;-0.1607;
3101146520388985;0.0409;-0.0067;-0.1660;
3101146530538152;0.0409;-0.0013;-0.1660;
3101146540646016;0.0409;0.0008;-0.1671;
3101146550753881;0.0398;-0.0013;-0.1767;
3101146560837787;0.0494;-0.0003;-0.1714;
3101146570945652;0.0356;-0.0088;-0.1639;
3101146581053568;0.0451;-0.0056;-0.1660;
3101146591159975;0.0409;-0.0077;-0.1618;
3101146601267839;0.0419;-0.0077;-0.1597;
3101146611375756;0.0430;-0.0045;-0.1586;
3101146621484141;0.0419;-0.0067;-0.1543;
3101146631592006;0.0451;-0.0088;-0.1479;
3101146641699923;0.0622;-0.0088;-0.1405;
3101146651804454;0.0856;-0.0088;-0.1298;
3101146661912318;0.1069;-0.0099;-0.1224;
3101146672020235;0.1304;-0.0088;-0.1128;
3101146682123412;0.1538;-0.0088;-0.1043;
3101146692231277;0.1687;-0.0130;-0.0989;
3101146702339193;0.1762;-0.0141;-0.0925;
3101146712441433;0.1826;-0.0109;-0.0872;
3101146722549298;0.1847;-0.0099;-0.0830;
3101146732657214;0.1836;-0.0099;-0.0798;
3101146742781537;0.1698;-0.0077;-0.0798;
3101146752889402;0.1431;-0.0035;-0.0787;
3101146762997266;0.0995;-0.0024;-0.0808;
3101146773098464;0.0515;-0.0013;-0.0840;
3101146783206381;0.0100;-0.0013;-0.0819;
3101146793314245;0.0132;-0.0003;-0.0808;
3101146803472891;0.0153;-0.0003;-0.0734;
3101146813580808;0.0132;-0.0013;-0.0691;
3101146823688673;0.0164;-0.0024;-0.0648;
3101146833740964;0.0142;-0.0035;-0.0595;
3101146843848829;0.0100;-0.0056;-0.0553;
3101146853956693;0.0100;-0.0024;-0.0478;
3101146864092787;0.0047;-0.0024;-0.0393;
3101146874200704;0.0047;-0.0013;-0.0350;
3101146884308568;0.0047;-0.0035;-0.0297;
3101146894369350;0.0068;-0.0045;-0.0212;
3101146904477214;0.0068;-0.0045;-0.0190;
3101146914585131;0.0036;-0.0067;-0.0137;
3101146924707787;0.0025;-0.0045;-0.0084;
3101146934815652;0.0047;-0.0003;-0.0052;
3101146944923568;0.0089;0.0008;0.0001;
3101146955034141;0.0164;0.0008;0.0065;
3101146965142006;0.0206;-0.0003;0.0076;
3101146975249923;0.0185;-0.0024;0.0097;
3101146985306277;0.0121;-0.0045;0.0140;
3101146995414089;0.0036;-0.0024;0.0172;
3101147005521954;-0.0060;-0.0013;0.0182;
3101147015629818;-0.0113;0.0008;0.0225;
3101147025781120;-0.0103;0.0051;0.0246;
3101147035888985;-0.0103;0.0061;0.0257;
3101147045996902;-0.0103;0.0051;0.0268;
3101147056105808;-0.0113;0.0019;0.0278;
3101147066213725;0.0025;0.0008;0.0289;
3101147076321537;-0.0028;-0.0024;0.0321;
3101147086417058;-0.0049;-0.0035;0.0332;
3101147096524923;-0.0007;0.0008;0.0332;
3101147106632787;-0.0092;-0.0003;0.0332;
3101147116744870;-0.0103;0.0040;0.0310;
3101147126852735;-0.0134;0.0051;0.0300;
3101147136960652;-0.0134;0.0029;0.0289;
3101147147066745;-0.0134;0.0019;0.0246;
3101147157174610;-0.0039;0.0008;0.0257;
3101147167282527;0.0004;0.0019;0.0268;
3101147177379766;0.0004;-0.0003;0.0246;
3101147187487631;0.0015;0.0008;0.0246;
3101147197595495;0.0004;0.0019;0.0257;
3101147207709558;0.0015;0.0029;0.0236;
3101147217817423;0.0015;0.0072;0.0214;
