Sensor: bmi160 Accelerometer Non-wakeup
Vendor: BOSCH
TimestampAcc [ns]; AccX [m/s^2]; AccY [m/s^2]; AccZ [m/s^2]
973899512449199;-9.1053;-1.4599;-2.9913;
973899522492324;-9.1292;-1.4647;-2.9937;
973899532691856;-9.1364;-1.4719;-2.9865;
973899542734981;-9.1173;-1.4958;-3.0057;
973899552919043;-9.1173;-1.5221;-2.9913;
973899562962168;-9.1101;-1.5508;-2.9698;
973899573126856;-9.0933;-1.6059;-2.9530;
973899583225918;-9.1005;-1.6011;-2.9459;
973899593337481;-9.0957;-1.5915;-2.9148;
973899603443522;-9.0861;-1.5676;-2.9698;
973899613552585;-9.1101;-1.5413;-2.9746;
973899623667637;-9.1268;-1.5341;-3.0296;
973899633754043;-9.0981;-1.5150;-3.0583;
973899643833470;-9.0933;-1.4815;-3.0583;
973899653950397;-9.1173;-1.4408;-3.0511;
973899664074772;-9.1412;-1.4145;-3.0679;
973899674169095;-9.1053;-1.4599;-3.0368;
973899684262272;-9.1149;-1.4671;-3.0200;
973899694372689;-9.1244;-1.4934;-3.0631;
973899704478783;-9.1149;-1.5054;-3.0320;
973899714572481;-9.1268;-1.5245;-2.9913;
973899724668366;-9.1196;-1.5461;-2.9148;
973899734776387;-9.1149;-1.5532;-2.8522;
973899744874199;-9.1149;-1.5796;-2.8499;
973899755002481;-9.1125;-1.6513;-2.8116;
973899765094095;-9.1316;-1.6899;-2.7900;
973899775235033;-9.1316;-1.7880;-2.7924;
973899785294408;-9.1340;-1.8168;-2.7326;
973899795392533;-9.1412;-1.8383;-2.6895;
973899805500762;-9.1388;-1.9125;-2.7206;
973899815610762;-9.0909;-1.9726;-2.6680;
973899825720085;-9.0838;-2.0109;-2.5959;
973899835818991;-9.1412;-2.0420;-2.5409;
973899845927793;-9.1747;-2.0587;-2.5146;
973899856024616;-9.1484;-2.0731;-2.4356;
973899866135918;-9.1962;-2.0731;-2.3590;
973899876236543;-9.2154;-2.0539;-2.3782;
973899886350606;-9.1436;-1.9292;-2.3710;
973899896446751;-9.0168;-1.8503;-2.3901;
973899906557897;-9.1627;-1.7880;-2.4356;
973899916660970;-9.3688;-1.5867;-2.2702;
973899926759251;-9.3688;-1.3161;-2.1194;
973899936865293;-9.4143;-1.1243;-2.2750;
973899946975814;-9.4023;-1.0238;-2.4595;
973899957072168;-9.3281;-0.9616;-2.6225;
973899967178887;-9.3114;-0.9401;-2.8642;
973899977290085;-9.2417;-0.9425;-3.1352;
973899987388418;-9.1890;-0.9449;-3.3266;
973899997491803;-9.0981;-0.9855;-3.4442;
973900007593210;-8.9710;-1.0765;-3.6523;
973900017699564;-8.8944;-1.1988;-3.9712;
973900027807376;-8.8968;-1.2443;-4.2538;
973900037908522;-8.9279;-1.3208;-4.4405;
973900048014251;-8.7413;-1.5245;-4.7327;
973900058111178;-8.1565;-1.6971;-5.3486;
973900068226126;-7.7830;-1.8096;-6.0120;
973900078323001;-8.1182;-1.8766;-5.8851;
973900088430137;-8.8418;-1.6178;-4.9244;
973900098531335;-9.3712;-1.0119;-3.9159;
973900108638314;-9.5366;-0.5303;-3.3075;
973900118739043;-9.3879;-0.4418;-2.9961;
973900128849147;-9.0981;-0.6622;-2.6752;
973900138949564;-9.1914;-1.0286;-2.4787;
973900149058887;-9.4693;-1.2993;-2.2319;
973900159164356;-9.5438;-1.3783;-2.0330;
973900169266335;-9.3377;-1.3591;-2.0692;
973900179359668;-9.1603;-1.6035;-2.2104;
973900189471751;-9.1292;-1.8550;-2.1960;
973900199579981;-9.2345;-2.0515;-1.8799;
973900209679147;-9.3592;-2.0755;-1.7551;
973900219781491;-9.3855;-2.0444;-1.7288;
973900229889356;-9.3353;-2.0755;-1.6259;
973900239991543;-9.3042;-2.1138;-1.6570;
973900250087949;-9.2755;-2.1018;-2.0234;
973900260216543;-9.2994;-2.0300;-2.2199;
973900270308626;-9.2707;-1.9774;-2.2367;
973900280400345;-9.2201;-1.9487;-2.5241;
973900290503887;-8.9495;-2.1042;-3.1158;
973900300622793;-7.6415;-3.1510;-3.9425;
973900310710345;-5.9791;-0.8177;-6.9272;
973900320815658;-12.6673;-2.4996;-4.8431;
973900330930085;-10.7318;0.1929;-0.7226;
973900341031126;-7.3828;-0.3724;-1.9851;
973900351133210;-9.1843;-2.9019;-5.1736;
973900361233991;-8.5591;-2.4610;-3.1496;
973900371342585;-8.1135;-1.5126;-1.3839;
973900381436022;-10.1115;-1.8526;-2.7470;
973900391557481;-10.2814;-1.7163;-2.8741;
973900401658418;-8.7365;-0.4657;-1.5060;
973900411761856;-8.5376;-0.6359;-1.4414;
973900421858210;-9.8360;-2.0061;-2.5528;
973900431975501;-10.0899;-1.9244;-2.5986;
973900442071022;-9.0503;-1.6370;-1.7264;
973900452181751;-9.3449;-2.5355;-2.1697;
973900462282481;-9.5462;-2.7389;-2.6225;
973900472407324;-8.3243;-2.1090;-1.7216;
973900482481908;-8.6261;-2.4443;-1.9516;
973900492593835;-9.7041;-2.7413;-2.8044;
973900502701126;-9.0790;-2.5187;-2.2032;
973900512801439;-8.8561;-2.4996;-2.1912;
973900522900137;-9.3018;-2.6767;-3.1158;
973900533011387;-8.7628;-2.4876;-3.0033;
973900543111960;-8.6740;-2.5451;-2.8427;
973900553210918;-9.1675;-2.1688;-3.1301;
973900563312324;-8.9088;-1.8263;-2.9219;
973900573430501;-8.7867;-1.7761;-3.0990;
973900583528626;-8.7891;-1.7330;-3.4848;
973900593623158;-8.6572;-1.5748;-3.4896;
973900603729928;-9.1340;-1.4671;-3.8177;
973900613831126;-9.2369;-1.1677;-3.8369;
973900623980085;-8.8107;-0.9425;-3.4035;
973900634073001;-8.9375;-0.7340;-3.4968;
973900644165189;-9.0311;-0.6455;-3.6308;
973900654257376;-8.8226;-0.5112;-3.5830;
973900664359720;-9.1220;-0.5447;-3.9640;
973900674451908;-9.1268;-0.3218;-4.1865;
973900684544095;-8.8848;-0.1113;-3.9784;
973900694700814;-9.0574;-0.1902;-3.9135;
973900704792949;-9.0287;-0.1663;-3.7699;
973900714885189;-8.9638;-0.1926;-3.7220;
973900724966751;-9.1866;-0.2524;-3.9111;
973900735058939;-9.0646;-0.1783;-3.8130;
973900745151126;-8.9423;-0.2357;-3.6188;
973900755299772;-9.1484;-0.3772;-3.6933;
973900765391960;-9.0263;-0.2740;-3.5901;
973900775484147;-8.9327;-0.0754;-3.6141;
973900785611335;-9.2010;0.0924;-4.0190;
973900795703522;-9.0838;0.3368;-4.1028;
973900805795710;-9.0191;0.3823;-4.1674;
973900815916595;-9.1675;0.3296;-4.4886;
973900826008783;-8.9279;0.5022;-4.5772;
973900836100970;-8.9399;0.6601;-4.6513;
973900846232272;-9.1029;0.8566;-4.6298;
973900856324460;-8.9686;0.8183;-4.3783;
973900866416647;-9.0670;0.3535;-4.3543;
973900876523939;-9.1029;-0.1065;-4.2682;
973900886616126;-8.9566;-0.3891;-3.7890;
973900896708314;-9.0838;-0.7771;-3.4011;
973900906865085;-9.1986;-1.2084;-3.0631;
973900916957272;-8.9758;-1.6155;-2.7206;
973900927049460;-9.0622;-1.9822;-2.8116;
973900937173314;-9.1938;-2.0635;-3.0679;
973900947265501;-9.0550;-1.8790;-3.1376;
973900957357689;-9.0335;-1.6875;-3.2740;
973900967488626;-8.9399;-1.4192;-3.3912;
973900977580814;-8.8107;-1.1581;-3.4274;
973900987673001;-8.9040;-0.9329;-3.5758;
973900997799408;-9.0144;-0.7842;-3.6814;
973901007891595;-8.9877;-0.7579;-3.6838;
973901017983783;-9.0598;-0.8417;-3.7220;
973901028119356;-9.0311;-0.8225;-3.5495;
973901038211543;-9.0263;-0.7531;-3.3864;
973901048303731;-9.1364;-0.7364;-3.3577;
973901058422897;-9.0838;-0.7029;-3.3051;
973901068515085;-9.0335;-0.7531;-3.2979;
973901078607272;-9.1292;-0.8827;-3.3123;
973901088735189;-9.0431;-0.8536;-3.2333;
973901098827376;-9.0646;-0.8707;-3.2309;
973901108919564;-9.1675;-0.8536;-3.3242;
973901119067324;-9.1340;-0.8465;-3.3793;
973901129159512;-9.1053;-0.9257;-3.4035;
973901139251699;-9.1292;-1.0430;-3.4609;
973901149372376;-9.0383;-1.0502;-3.4346;
973901159464564;-8.9399;-1.0190;-3.4131;
973901169556751;-9.0168;-1.2036;-3.4513;
973901179688470;-8.8825;-1.3519;-3.3721;
973901189780658;-8.8226;-1.1171;-3.4298;
973901199872845;-8.9638;-0.8010;-3.7364;
973901209983626;-9.1029;-0.5375;-3.9401;
973901220075814;-9.2536;-0.6933;-4.0238;
973901230168001;-9.0766;-0.7795;-3.8154;
973901240292533;-8.9423;-0.7555;-3.6260;
973901250384720;-8.9806;-0.7125;-3.5351;
973901260476908;-8.9399;-0.6694;-3.4418;
973901270616335;-8.9231;-0.8082;-3.5136;
973901280708522;-9.0072;-0.9975;-3.6957;
973901290800710;-8.9853;-0.8632;-3.7795;
973901300937533;-8.9590;-0.6742;-3.8034;
973901311029720;-8.9901;-0.6072;-3.8249;
973901321121908;-9.0574;-0.5925;-3.7795;
973901331234147;-9.1220;-0.6455;-3.7077;
973901341326335;-9.1316;-0.6861;-3.5590;
973901351418522;-9.1077;-0.7866;-3.4083;
973901361544824;-8.9710;-0.7627;-3.3123;
973901371636960;-8.9016;-0.7172;-3.4178;
973901381729199;-9.0503;-0.6622;-3.5375;
973901391866491;-9.1651;-0.6502;-3.4872;
973901401958678;-9.1771;-0.7077;-3.3936;
973901412050866;-9.1412;-0.8154;-3.3410;
973901422180085;-9.0933;-0.9114;-3.3266;
973901432272272;-9.0550;-0.9544;-3.2764;
973901442364460;-9.0526;-0.9736;-3.2596;
973901452480501;-9.0742;-0.9138;-3.2501;
973901462572689;-9.1053;-0.7531;-3.2716;
973901472664876;-9.1388;-0.6957;-3.2812;
973901482804147;-9.0622;-0.7842;-3.2524;
973901492896335;-8.9231;-0.7077;-3.2979;
973901502988522;-8.9303;-0.5853;-3.4896;
973901513105293;-9.0694;-0.4537;-3.5447;
973901523197481;-9.1029;-0.4059;-3.4178;
973901533289668;-9.2178;-0.4490;-3.6643;
973901543424147;-9.2656;-0.6431;-3.9206;
973901553516335;-9.0981;-0.6598;-3.9425;
973901563608522;-8.9758;-0.7125;-3.7412;
973901573731335;-8.9758;-0.8779;-3.4848;
973901583823522;-8.9566;-0.9927;-3.3003;
973901593915710;-8.8968;-1.1414;-3.2333;
973901604059668;-9.0311;-1.4264;-3.3864;
973901614151856;-9.0622;-1.6298;-3.4346;
973901624244043;-8.9471;-1.6657;-3.2046;
973901634366543;-8.9758;-1.5891;-3.0344;
973901644468106;-9.0814;-1.4192;-2.9674;
973901654569772;-9.1053;-1.2467;-2.8451;
973901664672220;-9.1029;-1.2227;-2.8789;
973901674773835;-9.0742;-1.3137;-3.0440;
973901684875449;-9.1029;-1.5150;-2.9650;
973901694992481;-9.1866;-1.7354;-2.5672;
973901705094147;-9.2803;-1.8407;-2.2319;
973901715195710;-9.3233;-1.8909;-2.1314;
973901725313470;-9.2584;-2.1114;-2.1505;
973901735415085;-9.0909;-2.4132;-2.1410;
973901745516699;-9.0383;-2.4203;-2.2750;
973901755599303;-9.1053;-2.3629;-2.3949;
973901765700970;-9.0790;-2.2337;-2.5792;
973901775802533;-9.0526;-2.2241;-2.7111;
973901785915137;-9.0120;-2.1927;-2.9100;
973901796016803;-8.9231;-1.9340;-3.1519;
973901806118418;-8.8753;-1.6298;-3.2907;
973901816227428;-8.9327;-1.2634;-3.4394;
973901826329095;-8.9949;-0.8970;-3.5877;
973901836430710;-9.0311;-0.5016;-3.8369;
973901846542897;-8.9734;-0.3003;-3.9135;
973901856644512;-8.9351;0.0924;-4.1195;
973901866746126;-8.9638;0.2985;-4.1626;
973901876872428;-9.0598;0.3105;-4.0956;
973901886974043;-9.1029;0.2937;-4.0621;
973901897075658;-9.0909;0.2985;-4.1052;
973901907172324;-9.0455;0.3488;-4.2203;
973901917273939;-9.0383;0.2865;-4.2347;
973901927375553;-9.0120;0.2961;-4.1770;
973901937483887;-9.0407;0.3081;-4.1889;
973901947585501;-9.0718;0.2746;-4.2036;
973901957687116;-9.0215;0.2387;-4.2491;
973901967794928;-8.9925;0.1786;-4.2227;
973901977896543;-9.0072;0.0589;-4.1794;
973901987998158;-9.0048;0.0015;-4.0932;
973901998112845;-9.0048;-0.0897;-4.0095;
973902008214460;-9.0287;-0.2118;-3.9832;
973902018316074;-9.0144;-0.3123;-3.9760;
973902028424981;-8.9806;-0.3891;-3.9182;
973902038526595;-8.9830;-0.4370;-3.8465;
973902048628210;-9.0335;-0.4872;-3.8010;
973902058736647;-9.0885;-0.4992;-3.5734;
973902068838262;-9.0861;-0.5040;-3.5231;
973902078939876;-9.0622;-0.5566;-3.5279;
973902089040345;-8.9949;-0.6574;-3.6356;
973902099141960;-8.8370;-0.5686;-3.5471;
973902109243574;-8.4153;-1.7593;-1.0774;
973902119357220;-9.3544;-3.4935;-2.2606;
973902129458835;-9.7543;-2.0970;-4.4501;
973902139560501;-8.9590;0.5070;-5.3462;
973902149672116;-9.1579;-0.7531;-3.1424;
973902159773731;-9.0383;0.1857;-2.3180;
973902169875345;-8.6548;1.6113;-2.8789;
973902179951960;-8.9830;0.5668;-3.6069;
973902190053626;-9.4358;-0.5423;-4.8933;
973902200155241;-9.0718;-1.5197;-4.9555;
973902210294199;-8.5352;-1.6633;-4.2108;
973902220395866;-8.7099;-1.3472;-3.6093;
973902230497428;-9.0861;-1.9244;-3.5207;
973902240608262;-8.4200;-1.8359;-6.2420;
973902250709876;-7.5506;-0.2764;-6.3500;
973902260811491;-8.5567;-0.1902;-4.6490;
973902270908835;-9.9389;0.6649;-4.1937;
973902281010449;-9.0526;-0.9425;-1.3576;
973902291112064;-8.7748;-2.9928;-1.1085;
973902301258626;-8.8561;-2.2672;-3.6428;
973902311360241;-8.4897;-2.7703;-5.0874;
973902321461856;-8.6572;-3.3308;-5.5522;
973902331542428;-8.8848;-3.3260;-5.5570;
973902341644095;-8.8896;-2.0061;-5.4730;
973902351745710;-8.6477;-0.6885;-4.7928;
973902361852428;-8.4658;-0.0535;-3.9278;
973902371954043;-8.5472;0.4014;-3.3601;
973902382055710;-8.7290;0.5764;-3.2309;
973902392174512;-9.0168;-0.4681;-3.8010;
973902402276178;-9.1938;-1.7761;-4.1889;
973902412377741;-9.0120;-2.4538;-4.6729;
973902422482428;-8.7796;-2.6504;-5.4395;
973902432584043;-8.7365;-2.4757;-5.5714;
973902442685658;-8.3148;-2.0372;-4.9101;
973902452791803;-7.8500;-1.5150;-4.6466;
973902462893418;-8.0297;-1.0884;-4.7545;
973902472995033;-9.1149;-0.6694;-4.3639;
973902483101074;-9.4980;-0.0873;-3.9808;
973902493202741;-8.8083;0.2578;-4.4620;
973902503304356;-8.4464;-0.1208;-5.3940;
973902513406491;-8.3530;-1.1315;-5.6408;
973902523508158;-8.5065;-1.5891;-5.3055;
973902533609772;-8.4177;-1.1414;-5.2816;
973902543726908;-8.0178;-0.5183;-5.5690;
973902553828574;-8.5543;-0.6287;-5.6145;
973902563930189;-9.2970;-0.8417;-2.4930;
973902574061126;-9.1125;-1.2036;2.7652;
973902584162741;-11.4793;-2.0300;-4.7279;
973902594264303;-9.1555;-0.8946;-7.9669;
973902604363783;-5.6916;-1.1821;-5.0874;
973902614465397;-7.3926;-2.2146;-6.9583;
973902624567064;-10.0107;-2.0970;-5.8804;
973902634658731;-9.4047;-0.6383;-2.2917;
973902644762220;-7.8500;1.3884;-3.9326;
973902654865762;-8.9877;1.6759;-6.7834;
973902664961231;-11.3067;1.6567;-7.3391;
973902675064720;-9.3497;0.9811;-5.0468;
973902685168262;-6.8967;-0.3915;-2.9674;
973902695293626;-6.9709;-1.3735;-5.5475;
973902705397168;-7.7877;-1.7163;-6.6036;
973902715500658;-9.0024;-1.0621;-6.3523;
973902725622168;-9.8886;-1.2514;-5.7580;
973902735725658;-8.7724;-0.9903;-4.9436;
973902745829199;-8.9758;-1.8024;-4.5437;
973902755914564;-9.0526;-1.7498;-3.3601;
973902766018053;-6.8198;-2.5570;-2.2295;
973902776121543;-8.0058;-3.5991;-3.1086;
973902786228106;-10.7390;-2.8995;-4.4692;
973902796331647;-9.5821;-2.2720;-4.3304;
973902806435137;-7.3181;-2.0324;-3.7675;
973902816537741;-6.3386;-2.2481;-4.2108;
973902826641231;-8.0919;-2.7006;-5.5137;
973902836744720;-10.2144;-2.4036;-5.5137;
973902846862272;-9.8767;-1.5820;-4.5843;
973902856965814;-8.0847;-0.9736;-3.8130;
973902867069303;-9.1651;-0.7603;-4.0621;
973902877176022;-8.1063;-0.2285;-3.8465;
973902887279512;-7.1913;-1.0525;-4.0454;
973902897383053;-8.2238;-2.1162;-6.2922;
973902907485501;-9.0885;-2.5810;-6.8456;
973902917588991;-8.4921;-1.8048;-5.3868;
973902927692533;-8.0178;-1.0167;-4.2873;
973902937806751;-9.4693;-0.9425;-4.7426;
973902947910241;-10.4539;0.2339;-4.5796;
973902958013783;-8.1159;0.2001;-4.0310;
973902968105085;-8.6285;-0.5016;-4.2371;
973902978208574;-9.9844;-0.2859;-4.7737;
973902988312116;-8.3148;0.5859;-4.2610;
973902998418001;-8.9495;0.6984;-3.9159;
973903008521491;-8.4535;0.2052;-3.8632;
973903018625033;-6.1397;-0.5040;-4.0095;
973903028736647;-8.5783;-1.3232;-4.6825;
973903038840137;-10.8805;-0.2812;-5.1066;
973903048943678;-8.4826;-0.1208;-4.3759;
973903059044095;-9.8384;-1.1964;-3.8512;
973903069147585;-9.1316;-0.3075;-4.3208;
973903079251126;-8.9614;-0.6287;-4.0478;
973903089361439;-7.7112;-0.4801;-3.2070;
973903099464981;-6.7313;-0.4226;-2.9315;
973903109568470;-8.5137;-1.0860;-2.8837;
973903119667585;-9.8767;-0.7460;-2.7805;
973903129771074;-9.9915;0.0685;-3.4944;
973903139874564;-10.8562;-0.5686;-4.2562;
973903149973991;-10.9929;-0.9975;-3.8201;
973903160077481;-10.4133;0.1403;-2.7613;
973903170180918;-8.5208;0.9858;-1.6331;
973903180308939;-8.7242;0.6697;-1.8224;
973903190412428;-7.9026;0.0039;-3.0009;
973903200515918;-7.0475;-0.6981;-3.7125;
973903210605814;-8.5232;-0.3532;-3.0488;
973903220709303;-8.1661;0.9643;-2.3133;
973903230812793;-8.7796;1.0914;-2.5624;
973903240913731;-10.1186;-0.6120;-4.9460;
973903251017220;-13.4483;-2.5499;-8.3596;
973903261120710;-9.8527;-2.8349;-9.1334;
973903271233835;-10.6122;-1.7258;-5.9521;
973903281337324;-9.4454;2.1383;-0.7469;
973903291440866;-5.9504;4.7396;1.6439;
973903301556231;-6.3864;2.2866;-1.5829;
973903311659720;-7.8332;-0.9760;-6.0888;
973903321763210;-9.3209;-1.8909;-7.6098;
973903331849356;-11.8217;-0.3867;-6.2611;
973903341952897;-12.6864;1.7596;-4.4166;
973903352056387;-10.9762;2.9456;-4.1028;
973903362160970;-9.6897;2.3994;-3.6404;
973903372264460;-6.9996;2.3874;-2.4595;
973903382367949;-5.4999;2.7395;-1.5179;
973903392485814;-5.6964;2.5406;-2.3276;
973903402589303;-10.8299;1.5658;-4.7064;
973903412692845;-13.7907;1.8939;-6.6108;
973903422803210;-13.6926;1.6567;-7.7249;
973903432906699;-10.3244;0.3033;-7.4231;
973903443010241;-6.9900;-0.8707;-4.0238;
973903453102741;-5.4114;-0.5590;0.1851;
973903463206178;-6.4176;-0.6694;-1.5685;
973903473309668;-5.7778;-0.6837;-3.0823;
973903483412168;-5.3755;-0.6431;-3.6523;
973903493515710;-8.2573;-3.0912;-9.8354;
973903503619199;-13.4937;-5.9898;-16.8924;
973903513722793;-14.1359;-5.2878;-13.7758;
973903523826283;-6.5085;-4.3825;-9.4735;
973903533929824;-5.9623;-3.3930;-7.0110;
973903544050345;-6.6021;-2.1832;-5.1616;
973903554153835;-4.6854;-1.5317;-3.5830;
973903564257324;-6.5037;-0.3604;-3.1998;
973903574332428;-8.3219;-0.8225;-6.3811;
973903584435918;-11.8265;-0.0368;-10.9277;
973903594539408;-12.7849;-0.3314;-9.9359;
973903604664408;-8.1230;0.0135;-4.7183;
973903614767897;-2.8819;1.5826;-4.3472;
973903624871439;-4.3765;0.9093;-9.3969;
973903634965501;-8.6237;0.2339;-11.6414;
973903645069460;-6.8462;2.0880;-9.0159;
973903655173470;-6.1086;2.6414;-6.9727;
973903665289824;-7.1507;2.6318;-4.7593;
973903675393731;-6.9924;2.3515;-2.3495;
973903685497741;-13.0220;1.3454;-1.3193;
973903695614876;-11.4147;1.2494;-2.2080;
973903705718835;-14.0710;2.5190;-5.8301;
973903715822897;-9.9245;2.3850;-2.4093;
973903725932585;-1.5882;3.0532;-1.3265;
973903736036543;-7.6391;3.9494;-7.7776;
973903746140606;-7.8882;4.4979;-5.1233;
973903756228522;-5.7706;3.7193;-3.6619;
973903766332481;-12.0326;3.4391;-8.0195;
973903776436491;-13.9561;2.1790;-3.9999;
973903786546074;-14.2316;-0.0105;-0.5432;
973903796649981;-10.0537;0.1618;0.7959;
973903806754043;-7.9699;-2.1927;-2.1314;
973903816851543;-9.1508;-2.8373;-2.4332;
973903826955501;-7.6104;-4.0373;-0.3993;
973903837059564;-10.1785;-4.5858;-3.6957;
973903847167533;-13.0579;-4.5332;-1.7985;
973903857271491;-11.3593;-5.3309;0.1086;
973903867375449;-10.6170;-3.8243;-1.3289;
973903877492428;-8.6548;-4.0612;-0.4881;
973903887596387;-10.3149;-3.6015;-2.2941;
973903897700397;-9.8432;-2.8636;0.2115;
973903907802533;-8.9877;-2.2863;0.2450;
973903917906491;-10.5042;-2.3653;-2.2008;
973903928010501;-10.2359;-1.8861;-0.7540;
973903938094460;-8.5735;-0.1137;-1.6403;
973903948198470;-10.4109;-0.1280;-2.1362;
973903958302481;-9.2731;0.8136;-1.3193;
973903968424303;-7.9074;1.1584;-4.0190;
973903978528262;-12.5764;0.4807;-5.0085;
973903988632272;-9.2827;0.9380;-1.9277;
973903998728783;-5.8044;2.8400;-4.5389;
973904008832741;-9.9150;1.4865;-6.2515;
973904018936751;-8.6381;0.9404;-3.4226;
973904029046178;-6.6930;2.8352;-5.5881;
973904039150085;-10.3606;2.1120;-6.3595;
973904049254147;-9.3664;1.6926;-4.6107;
973904059356543;-9.2058;2.4520;-5.3653;
973904069460553;-9.8456;2.1191;-4.9460;
973904079564564;-6.7361;1.8389;-4.4982;
973904089665397;-8.7194;2.1885;-7.1067;
973904099769356;-8.1039;0.5381;-4.5030;
973904109873366;-6.9422;1.2087;-5.9306;
973904119987324;-9.3257;2.1479;-9.7346;
973904130091283;-8.7509;0.0685;-6.5773;
973904140195241;-7.3038;-0.0826;-4.9244;
973904150299095;-6.6523;1.5945;-5.0659;
973904160403053;-8.5161;1.1489;-3.3027;
973904170507064;-11.1559;1.6711;-3.3051;
973904180623001;-7.7231;1.5224;-4.9531;
973904190727012;-8.2262;0.1379;-6.2659;
973904200830970;-8.5041;-0.3915;-5.6623;
973904210920866;-5.7203;-0.5686;-4.1435;
973904221024772;-6.4128;0.4349;-6.2922;
973904231128835;-8.4849;-0.3461;-8.1248;
973904241226647;-11.7332;-1.6394;-5.9163;
973904251327428;-7.5817;-0.8970;-3.8608;
973904261431439;-7.4309;0.0541;-6.0287;
973904271535397;-9.2393;-0.6239;-6.5366;
973904281662220;-9.8791;-1.7617;-4.9986;
973904291766178;-9.9963;-0.8994;-4.8359;
973904301870189;-8.9016;-0.2883;-5.4395;
973904311966595;-9.8456;-0.3700;-3.5997;
973904322070553;-7.5171;0.8614;-3.4537;
973904332174564;-6.4989;-0.0682;-4.8622;
973904342280762;-8.5759;1.0771;-7.1163;
973904352384720;-9.5291;-0.3437;-5.2382;
973904362488731;-7.2846;1.9418;-3.5686;
973904372596491;-6.4534;1.2446;-5.1425;
973904382700501;-10.9905;1.7572;-6.8073;
973904392804512;-10.6672;2.1072;-3.0153;
973904402897481;-6.8943;3.0891;-1.8344;
973904413001439;-7.4501;2.8304;-5.6432;
973904423105449;-10.2503;0.8471;-6.1391;
973904433216595;-7.6920;1.5514;-4.6202;
973904443320553;-6.7481;0.6458;-4.4285;
973904453424512;-9.2922;0.2100;-6.9296;
973904463525345;-12.4445;-0.0655;-4.8239;
973904473629251;-9.0239;0.0589;-2.1673;
973904483733314;-7.7710;-1.0358;-3.6021;
973904493824147;-8.0632;-2.0228;-4.1195;
973904503928106;-8.3770;-2.2241;-3.3099;
973904514032168;-8.6931;-2.3103;-2.3782;
973904524133783;-10.5951;-2.5666;-3.0511;
973904534237741;-14.1838;-3.7068;-0.9550;
973904544341751;-11.4673;-3.9488;0.4750;
973904554444564;-6.5901;-4.4638;-2.7685;
973904564548522;-12.3296;-4.1524;-5.2840;
973904574652585;-10.2526;-3.1510;-1.0247;
973904584767272;-6.7672;-1.7809;-2.4141;
973904594871231;-8.9327;-2.1616;-3.9159;
973904604975241;-11.1583;-2.4586;-2.2582;
973904615069147;-8.8561;-2.5331;-0.5097;
973904625173106;-7.8069;-1.9941;-3.6838;
973904635277116;-10.6983;-2.6838;-4.0741;
973904645394824;-10.4109;-2.8205;-1.1779;
973904655498731;-8.2334;-1.8957;-0.8713;
973904665602793;-10.5305;-1.9077;-1.4007;
973904675730189;-10.8036;-2.1808;0.2545;
973904685834199;-8.3291;-1.8000;-1.0008;
973904695938158;-9.9748;-1.9798;-1.9062;
973904706019199;-9.6323;-2.6767;-1.7336;
973904716123106;-8.8011;-2.6934;-1.4103;
973904726227116;-8.3650;-1.8407;-2.2391;
973904736320501;-8.6477;-1.7665;-3.3625;
973904746424512;-9.6419;-2.7054;-0.9120;
973904756528522;-9.0311;-1.5126;-1.7961;
973904766647428;-11.5965;-0.8731;-3.3218;
973904776751387;-10.8610;-0.5901;-2.2965;
973904786855397;-10.7055;-0.6502;-2.6441;
973904796960762;-8.6548;0.0326;-2.2702;
973904807064720;-6.7935;-0.0778;-1.8416;
973904817168731;-8.0680;1.1273;-3.4609;
973904827270814;-9.7328;0.5333;-4.0645;
973904837374772;-7.8571;0.3990;-4.3496;
973904847478731;-8.4826;0.6170;-5.9043;
973904857599356;-9.7424;-0.7220;-5.2262;
973904867703314;-9.0838;-0.3290;-3.2788;
973904877807376;-8.0345;-0.1615;-2.6512;
973904887902220;-8.0608;0.5477;-5.4156;
973904898006178;-9.2994;-0.0778;-7.4231;
973904908110189;-9.2683;-0.4705;-4.6418;
973904918215553;-7.4501;-0.0778;-2.6489;
973904928319512;-8.2358;-0.2524;-3.9039;
973904938423522;-8.9973;-0.1232;-4.6992;
973904948527116;-9.9054;-0.6933;-5.1305;
973904958631074;-8.8370;0.4516;-3.5566;
973904968735085;-6.4630;-0.7125;-4.7833;
973904978832637;-10.0107;-0.0730;-6.6517;
973904988936595;-8.3602;0.2195;-3.5734;
973904999040606;-7.0307;-0.0511;-2.9052;
973905009148678;-9.6012;0.1164;-5.3629;
973905019252637;-8.0465;-0.5207;-4.4862;
973905029356647;-8.4081;-1.1390;-6.7546;
973905039449981;-12.6841;-0.5830;-6.4433;
973905049553991;-8.1661;-1.0406;-1.1922;
973905059658001;-8.4583;-0.4346;-2.1793;
973905069785241;-6.9709;0.2746;-3.8417;
973905079889199;-7.6008;-0.9784;-4.0167;
973905089993158;-10.4109;-1.4719;-4.0430;
973905100101491;-7.7686;-1.5269;-4.0669;
973905110205501;-4.5514;-1.1291;-6.1319;
973905120309512;-6.3338;-2.9761;-7.6744;
973905130416699;-18.0069;-2.6671;-5.4467;
973905140520606;-22.8386;-2.6169;1.4859;
973905150624668;-12.9236;0.4181;5.2899;
973905160717220;-2.5223;2.1814;2.5256;
973905170821126;-7.0211;-0.3915;-2.7111;
973905180925137;-10.5688;-4.5117;-3.8560;
973905191028678;-10.2215;-3.3452;-1.9660;
973905201132637;-6.9326;-0.9999;-2.9794;
973905211236647;-6.2163;0.9595;-4.6011;
973905221396856;-9.3449;0.0661;-4.1770;
973905231500866;-10.4372;-0.1280;-2.8020;
973905241604876;-9.9652;0.6194;-3.8895;
973905251650606;-9.7208;1.3167;-3.9473;
973905261754824;-9.1316;-0.0392;-3.5136;
973905271859043;-9.7017;-0.3170;-3.6236;
973905281966960;-8.8968;0.1762;-3.7077;
973905292071178;-9.6802;0.0374;-3.2189;
973905302175397;-7.9747;-0.6215;-1.8033;
973905312275814;-8.4634;-0.9568;-2.6082;
973905322380033;-8.4826;0.5548;-3.3266;
973905332484251;-8.4969;0.0398;-2.3423;
973905342593731;-9.7687;-0.1280;-3.6212;
973905352697949;-10.8972;-0.1304;-3.7699;
973905362802168;-8.2765;1.0196;-1.7985;
973905372889251;-7.6391;-0.2764;-3.3577;
973905382993470;-10.1330;-0.4226;-3.6766;
973905393097689;-8.8872;-0.2261;-2.9818;
973905403220710;-9.3329;0.8638;-3.1735;
973905413324928;-10.2526;0.2961;-3.2524;
973905423429147;-10.2287;0.6170;-2.1577;
973905433519772;-8.7844;1.5921;-0.7035;
973905443623991;-6.1875;1.8078;-0.5982;
973905453728210;-6.3577;1.0866;-4.1028;
973905463831439;-7.9436;-1.9774;-8.8268;
973905473935658;-12.8255;-3.7092;-11.9842;
973905484039876;-13.4722;-1.3950;-6.9200;
973905494135606;-7.2703;1.1201;0.7217;
973905504239824;-6.5348;1.2855;0.6138;
973905514344043;-10.5425;0.4711;-2.2893;
973905524434668;-10.8876;0.8351;-1.0223;
973905534538887;-8.5041;0.8471;-1.1755;
973905544643106;-8.3148;1.1058;-2.9961;
973905554765501;-9.4119;-0.8177;-3.0966;
973905564869720;-11.0958;-0.2596;-4.0645;
973905574973939;-9.7113;0.1475;-2.9148;
973905585069564;-6.6954;0.2961;-3.0129;
973905595173783;-8.4105;-0.0897;-3.7938;
973905605278001;-9.8169;-0.0129;-3.8489;
973905615403522;-8.7194;0.3105;-5.0276;
973905625507741;-11.3593;-1.0908;-4.1267;
973905635611960;-8.9590;0.3918;-2.9172;
973905645725241;-6.5492;-1.7545;-3.3697;
973905655829460;-9.6706;-1.8694;-5.5352;
973905665933678;-9.3329;-0.8225;-3.8082;
973905676039408;-9.1938;-0.7029;-3.9182;
973905686143626;-7.2488;-0.3123;-5.0228;
973905696247845;-8.8155;-1.2419;-6.0526;
973905706330918;-10.2646;0.4998;-6.1487;
973905716435137;-7.5721;0.5309;-4.5221;
973905726539356;-9.6443;0.8973;-6.2396;
973905736644772;-9.1938;0.6888;-6.5605;
973905746748991;-5.2774;0.6266;-5.0085;
973905756853210;-6.8584;0.4373;-5.4610;
973905766954356;-10.0466;0.6721;-5.4562;
973905777058574;-7.6080;1.6639;-5.9043;
973905787162793;-8.5878;0.4684;-6.7738;
973905797270189;-7.3612;0.2985;-6.5486;
973905807374408;-8.0560;0.5189;-8.1153;
973905817478626;-9.7926;1.4243;-7.8278;
973905827586751;-9.5916;2.6892;-5.6288;
973905837690970;-8.4583;3.7696;-4.1339;
973905847795189;-10.3244;3.6664;-4.6083;
973905857894356;-6.2952;2.9145;-5.4538;
973905867998574;-10.1354;2.9121;-6.1295;
973905878102793;-12.2913;3.1995;-4.9173;
973905888208001;-6.5803;3.0939;-4.2347;
973905898312220;-6.8198;2.3225;-4.4839;
973905908416439;-9.7759;1.9633;-4.0980;
973905918517793;-7.6176;1.2879;-3.5112;
973905928622012;-9.5845;0.9858;-3.1854;
973905938726231;-9.2874;0.1092;-2.1673;
973905948834251;-9.5940;-0.6526;-1.0008;
973905958938470;-9.1651;-1.1486;-1.8464;
973905969042689;-10.4922;-1.1892;-3.0296;
973905979147689;-9.4238;-1.5987;-2.4523;
973905989251908;-9.6778;-0.9473;-1.5398;
973905999356126;-8.7242;-0.9353;-2.7159;
973906009456022;-9.1268;-1.3328;-3.4753;
973906019560241;-8.7147;-0.4585;-1.6068;
973906029664460;-8.5424;0.8542;-4.2873;
973906039778314;-10.7222;0.4588;-4.6083;
973906049882533;-8.1039;-1.0430;-1.6522;
973906059986751;-10.7414;-0.3194;-4.1411;
973906070092897;-11.8672;-1.1557;-3.1974;
973906080197116;-8.5304;-0.9066;-1.6905;
973906090301335;-7.9484;-1.0693;-2.5146;
973906100392689;-8.3339;-0.5542;-4.3161;
973906110496908;-10.1809;-2.1760;-3.6452;
973906120601126;-7.1025;-2.3486;-2.3109;
973906130728835;-7.7375;-2.1616;-3.6093;
973906140833053;-8.6812;-2.1520;-6.6060;
973906150937272;-16.0475;-2.6264;-4.9244;
973906161023626;-11.9848;-0.8680;-1.1444;
973906171127845;-9.0287;-1.0765;-2.4811;
973906181232064;-7.1121;-0.6335;-3.1974;
973906191342376;-7.6415;-0.5518;-0.5695;
973906201446595;-6.2928;-0.1472;-2.1721;
973906211550814;-9.6251;0.5070;-3.1807;
973906221676439;-11.9441;0.4277;-2.8693;
973906231780658;-12.0709;-0.2692;-2.0282;
973906241884876;-10.3534;0.0063;-1.0223;
973906251968210;-7.5171;-0.7819;-0.5312;
973906262072428;-7.0475;-1.2227;-2.3566;
973906272176647;-8.7290;-1.5437;-2.0569;
973906282274668;-10.8562;-0.9832;-1.0510;
973906292378887;-10.2048;-0.0296;-2.1769;
973906302483106;-10.1641;0.0852;-2.6034;
973906312582585;-6.9039;-0.4920;-3.0105;
973906322686803;-10.6481;-1.1605;-3.4298;
973906332791022;-8.8872;-0.3700;-3.2812;
973906342895085;-9.7232;-0.4561;-3.8512;
973906352999303;-9.7041;0.2602;-1.8535;
973906363103522;-7.7183;0.3894;-2.2582;
973906373208991;-10.1593;0.2148;-4.2730;
973906383313210;-10.7940;-0.2166;-3.2357;
973906393417428;-9.2731;-0.0464;-1.5108;
973906403513262;-6.9135;-0.1352;-2.8116;
973906413617481;-10.9211;0.1499;-3.2261;
973906423721699;-8.7915;0.4397;-2.5624;
973906433832272;-8.0010;0.7370;-3.7125;
973906443936491;-8.6453;0.1762;-5.7580;
973906454040710;-9.6132;-0.1448;-4.6992;
973906464141856;-10.5712;-0.5231;-2.6752;
973906474246126;-20.7329;1.7596;-2.1338;
973906484350293;-7.7016;2.4377;2.0082;
973906494436491;2.3022;-0.2907;-2.3228;
973906504540710;3.4998;0.4807;-13.3950;
973906514644928;-0.1798;-1.0884;-14.0369;
973906524797376;-20.7473;-1.3376;-7.9765;
973906534901595;-22.7405;-0.9497;-0.7851;
973906545005814;-9.3042;-0.5327;-1.9445;
973906555079876;-2.0961;-1.3926;-6.4026;
973906565184095;-6.9015;-2.5594;-8.0818;
973906575288314;-11.4888;-3.5608;-3.6308;
973906585399356;-10.4276;-3.5151;-1.5637;
973906595503574;-5.3970;-0.5901;-4.1626;
973906605607793;-11.5367;-2.2337;-5.5280;
973906615709251;-9.9006;-1.4240;-3.8201;
973906625813470;-7.3588;-1.8718;-3.4059;
973906635917689;-8.2549;-1.2969;-6.8432;
973906646047324;-10.3654;-1.5987;-6.9583;
973906656151543;-8.2430;-1.1725;-6.0718;
973906666255762;-6.3577;-1.1940;-6.6972;
973906676360189;-11.4721;-0.6048;-6.9368;
973906686464408;-10.0923;-0.8369;-5.7269;
973906696568626;-6.3096;0.2267;-7.0086;
973906706652689;-6.4510;0.0326;-5.5475;
973906716756908;-7.4524;0.7944;-5.4658;
973906726861126;-6.7481;0.7442;-6.6685;
973906736959356;-9.8025;0.9404;-6.4983;
973906747063574;-13.5440;0.7080;-5.5522;
973906757167793;-8.9973;1.2613;-4.7856;
973906767276960;-1.7127;1.0101;-5.1449;
973906777381178;-7.2416;0.5644;-7.5595;
973906787485397;-22.5559;1.1728;-4.8574;
973906797588939;-5.2534;2.7658;0.3577;
973906807693158;-2.4936;2.6844;-13.7949;
973906817797376;-18.5219;-1.5987;-12.2883;
973906827905501;-6.1062;1.8269;13.6358;
973906838009720;12.3942;3.7624;8.9070;
973906848113939;1.3654;0.4158;-21.6859;
973906858220397;-23.8328;-1.9388;-26.8648;
973906868324616;-27.1074;-0.9784;-0.4857;
973906878428835;-0.9508;0.0326;13.8706;
973906888531335;1.4300;-0.6096;-6.0383;
973906898635553;-9.4214;-3.8483;-10.9229;
973906908739772;-11.9895;-1.7378;-1.7025;
973906918850762;-8.7099;1.9107;-1.0343;
973906928954981;-11.8433;1.4770;-4.6035;
973906939059199;-14.5956;1.6041;-4.0047;
973906949152897;-10.7414;2.5119;0.0102;
973906959257116;-0.0670;4.1121;-0.7202;
973906969361335;-2.6901;4.2416;-7.9789;
973906979478835;-10.9379;4.6415;-8.0459;
973906989583053;-6.7122;5.6812;-3.0416;
973906999687272;-12.6553;4.2176;-6.0888;
973907009785293;-13.7836;3.0030;-2.9243;
973907019889512;-9.3329;1.9585;-2.6369;
973907029993731;-11.4338;2.2412;-4.4958;
973907040091335;-6.6978;-0.9305;-0.9718;
973907050195553;-8.3865;-1.2538;-4.4237;
973907060299772;-6.6188;-1.1438;-3.2764;
973907070397064;-8.5591;-3.7259;-6.9918;
973907080501283;-16.7085;-3.3954;-1.9301;
973907090605501;-9.9844;-4.3633;5.6324;
973907100703835;-6.8776;-3.0171;0.7337;
973907110808053;-6.8462;-1.4767;-4.1841;
973907120912272;-12.5022;-1.8383;-4.2275;
973907131041647;-10.2766;-0.3604;1.5553;
973907141145866;-8.0967;-0.2357;-3.2620;
973907151250085;-14.8376;-0.2907;-3.4298;
973907161349512;-11.7476;-0.1783;0.1995;
973907171453731;-8.2741;0.2243;0.2282;
973907181557949;-5.1431;0.9715;-0.2414;
973907191658418;-5.1120;-0.1831;-2.9985;
973907201762637;-8.9806;-0.2453;-5.7269;
973907211866856;-13.8221;-1.0502;-4.0238;
973907221962272;-13.0651;-1.2993;-2.1936;
973907232066491;-10.0322;-1.0071;-0.4256;
973907242170710;-8.7461;0.0829;0.9302;
973907252292793;-5.4497;0.6290;-0.2916;
973907262397064;-7.5051;0.3942;-2.9172;
973907272501335;-8.1254;-0.1328;-2.1386;
973907282588835;-9.3688;-1.1052;-3.6188;
973907292693106;-11.8887;-0.4561;-2.3204;
973907302797376;-9.7926;-1.5700;-1.1372;
973907312901022;-9.4932;-0.1639;-1.8129;
973907323005293;-8.3674;-0.4513;-3.0224;
973907333109564;-3.1238;0.4325;-4.8335;
973907343209564;0.7977;-0.0993;-7.3439;
973907353313835;-14.8496;-0.5901;-7.4037;
973907363418106;-23.2603;-2.4730;-4.0262;
973907373511231;-14.9934;-1.3472;-2.5122;
973907383615501;-2.0722;0.3440;-2.0402;
973907393719772;-4.7910;0.6553;-6.0718;
973907403837376;-9.4884;-1.1004;-8.8771;
973907413941699;-11.0264;-0.2094;-6.2827;
973907424045918;-6.0293;0.9332;-4.5054;
973907434147376;-4.8197;1.8126;-11.2056;
973907444251647;-7.9412;-0.0416;-11.2678;
973907454355918;-9.5797;0.0589;-10.4581;
973907464470189;-10.4109;0.2889;-11.0665;
973907474574460;-8.0130;0.0829;-10.5108;
973907484678731;-6.1804;0.6099;-9.7370;
973907494775710;-7.8260;0.7394;-9.8016;
973907504879981;-8.0441;0.5405;-6.6924;
973907514984251;-10.1952;1.2278;-6.5677;
973907525084043;-7.3158;0.6529;-5.7748;
973907535188314;-2.4936;0.9523;-6.0841;
973907545292585;-6.8246;0.7585;-7.3295;
973907555395606;-14.5310;-0.5423;-3.1663;
973907565499876;-9.5462;-1.2538;0.4965;
973907575604147;-6.1277;0.3894;-3.0990;
973907585713106;-8.8825;-0.4370;-3.2788;
973907595817376;-6.6093;-1.9582;0.6356;
973907605921647;-6.2761;-0.3099;0.0150;
973907616036908;-14.8472;-0.0105;-4.0214;
973907626141178;-17.5926;0.2674;-1.5302;
973907636245449;-11.2301;0.8901;7.3047;
973907646351439;-0.3784;1.6878;1.0283;
973907656455710;-12.0159;1.3549;-15.3090;
973907666559981;-13.2039;-0.0392;-6.1774;
973907676657376;0.4050;1.7501;3.7017;
973907686761647;-1.2625;3.1588;-7.1692;
973907696865918;-10.9522;0.4878;-10.2975;
973907706979876;-12.7080;-1.5173;-0.8450;
973907717084147;-9.0766;-1.2586;1.7160;
973907727188418;-11.3043;-1.0956;-4.4767;
973907737267272;-13.7716;-2.0396;-6.5821;
973907747371543;-13.5706;0.1307;-2.7087;
973907757475814;-6.1660;1.8485;0.5420;
973907767590085;-2.3740;2.9240;-4.6202;
973907777694356;-4.9801;3.5874;-7.4662;
973907787798626;-9.0574;4.6822;-2.6704;
973907797906751;-5.0402;2.3010;-0.4208;
973907808011022;-16.2296;1.8652;-8.0435;
973907818115293;-13.8245;0.7801;0.5420;
973907828218314;-8.9518;-0.6694;-0.0975;
973907838322585;-9.1460;-1.7426;-2.1458;
973907848426856;-5.9719;-1.0549;-2.7541;
973907858539095;-7.7016;-2.7341;-3.2405;
973907868643366;-5.9982;-3.0096;-3.5136;
973907878747637;-12.9715;-3.9416;-9.8569;
973907888853522;-18.3135;-3.1104;-3.9302;
973907898957793;-11.1775;-4.4614;0.4941;
973907909062064;-8.2932;-3.5512;-2.5911;
973907919157585;-6.8390;-3.9105;-1.5036;
973907929261856;-6.6523;-3.4050;0.5803;
973907939366126;-6.8991;-2.5977;-0.1167;
973907949468262;-9.9700;-1.7713;-1.1372;
973907959572533;-11.7212;-1.1868;-0.8115;
973907969676803;-11.8361;-1.3232;-1.0582;
973907979753731;-10.4707;-0.9592;-2.3901;
973907989858001;-10.4850;-2.0803;-2.6967;
973907999962324;-7.8619;-1.4336;-2.3351;
973908010097376;-8.5854;-0.2524;-3.1496;
973908020201647;-7.2631;-0.3123;-2.0474;
973908030305918;-7.4883;-0.3051;-3.7101;
973908040403001;-10.5473;0.1379;-4.8646;
973908050507272;-11.0408;-0.2022;-2.5385;
973908060611543;-9.0191;-0.0706;-2.2487;
973908070734460;-9.2803;0.3368;-2.9865;
973908080838731;-9.5366;0.1044;-2.2654;
973908090943001;-7.7686;0.2698;-2.5002;
973908101036439;-8.7194;0.5931;-5.3007;
973908111140710;-10.2000;-0.0440;-4.5580;
973908121244981;-9.6299;-0.3796;-2.9387;
973908131368939;-6.9063;-0.4274;-4.1052;
973908141473210;-8.8011;-1.3208;-5.3509;
973908151577481;-8.1494;-0.9066;-4.4309;
973908161662689;-10.3654;-1.5173;-4.5461;
973908171766960;-10.8682;-0.3266;-4.5508;
973908181871231;-8.4081;-0.9473;-4.2419;
973908191975918;-7.8595;-0.4537;-5.5137;
973908202080189;-8.8155;-0.4442;-5.2621;
973908212184460;-7.0570;0.4612;-4.7040;
973908222289043;-8.5041;0.7753;-6.1917;
973908232393314;-9.1819;1.0125;-5.0898;
973908242497585;-8.9734;1.8772;-4.2682;
973908252606543;-8.8370;1.5754;-5.3366;
973908262710710;-9.9221;1.1824;-6.3305;
973908272814928;-9.2922;2.0856;-4.7279;
973908282909564;-7.9675;1.5610;-5.3964;
973908293013731;-8.4440;1.1130;-7.0828;
973908303117949;-8.0297;1.3932;-6.6637;
973908313212793;-8.7700;1.7955;-6.7762;
973908323317012;-8.3746;1.0795;-6.9033;
973908333421178;-8.3100;1.5802;-6.5892;
973908343528001;-5.4568;1.0603;-5.1281;
973908353632220;-7.2535;1.1967;-5.8660;
973908363736387;-8.4945;1.2541;-6.6517;
973908373853418;-8.5376;0.8973;-7.4231;
973908383957637;-10.3173;0.3488;-7.1258;
973908394061803;-9.0670;-0.1639;-5.9785;
973908404150293;-5.4808;-0.1017;-5.2358;
973908414254512;-6.2761;-0.7962;-6.0912;
973908424358678;-6.6165;-0.5231;-6.8889;
973908434465814;-7.5171;0.3320;-5.2887;
973908444570033;-7.1363;1.2374;-5.3988;
973908454674199;-10.7868;1.8413;-8.4171;
973908464813001;-11.2134;1.8772;-2.1888;
973908474917168;-5.4138;3.5324;4.0442;
973908485021387;-4.7312;3.4101;-4.2562;
973908495087897;-12.6936;-0.1424;-10.8413;
973908505192116;-15.2857;1.4650;-5.4634;
973908515296283;-7.0020;1.9442;0.6236;
973908525392845;-6.1469;1.5320;-4.2491;
973908535497064;-9.7017;0.9930;-6.8001;
973908545601231;-9.4358;1.7381;-5.1138;
973908555735814;-9.1890;2.4257;-2.5170;
973908565839981;-9.1077;0.8518;-3.7771;
973908575944199;-11.1341;-0.2309;-2.1912;
973908586027689;-8.3291;-1.3232;1.0403;
973908596131908;-9.7831;-1.9340;-2.1984;
973908606236074;-14.0016;-2.5834;-1.3696;
973908616366335;-6.9159;-2.3581;1.2320;
973908626470501;-10.2526;-1.8909;-2.6632;
973908636574720;-10.0561;-2.6216;-2.7159;
973908646661595;-5.9432;-2.0348;-2.3590;
973908656765762;-9.3138;-1.2826;-4.6202;
973908666869981;-9.9891;-1.7952;-3.7531;
973908676971856;-10.2838;-1.2227;-2.0234;
973908687076022;-10.6959;-1.2179;-1.9516;
973908697180241;-9.8886;-1.6035;-1.6259;
973908707279668;-10.3630;-0.6383;-1.5302;
973908717383887;-11.8481;-1.0717;-0.4762;
973908727488053;-10.8805;-1.0334;0.0317;
973908737595814;-5.8283;-0.9257;-0.7708;
973908747699981;-7.9508;-0.1304;-2.1266;
973908757804199;-10.3941;-0.6933;-2.2463;
973908767912428;-10.9786;-1.7139;-1.1348;
973908778016595;-12.0541;0.3176;-3.3769;
973908788120814;-11.2780;-0.4944;-0.3491;
973908798228210;-8.2837;-0.9066;0.2952;
973908808332376;-6.1660;-0.2955;-1.6977;
973908818436595;-9.7041;0.7199;-3.4226;
973908828544668;-10.6122;-0.0296;-2.7733;
973908838648887;-9.9556;0.5213;-1.6355;
973908848753053;-9.1484;-0.1089;-2.5816;
973908858839147;-8.3985;0.5094;-4.0669;
973908868943314;-10.2168;0.4253;-2.9195;
973908879047533;-8.6022;0.6123;-2.2128;
973908889169460;-8.7748;-0.3652;-3.0033;
973908899273626;-8.7700;0.8471;-3.0368;
973908909377845;-8.9542;-0.0897;-1.2066;
973908919470710;-7.3875;-0.6766;-3.4920;
973908929574876;-11.4314;-0.1807;-5.0204;
973908939679095;-9.1723;-0.2955;-2.4260;
973908949784460;-10.1019;-0.2620;-2.1984;
973908959888626;-8.3937;0.9069;-2.7494;
973908969992845;-7.7997;0.3392;-2.9243;
973908980114043;-8.2860;0.6194;-4.5078;
973908990218210;-10.1785;-0.2166;-4.1626;
973909000322428;-9.9628;0.5979;-3.9855;
973909010406856;-10.0828;-0.0368;-4.0214;
973909020511074;-7.3516;0.1953;-3.5016;
973909030615241;-8.7290;-0.0559;-3.9712;
973909040719876;-9.4167;0.4878;-3.4490;
973909050824043;-8.6046;0.5118;-3.7268;
973909060928262;-8.9375;0.5644;-4.8885;
973909071042585;-10.8634;-0.0224;-3.8130;
973909081146751;-8.4057;0.1690;-2.7517;
973909091250970;-8.5424;0.1953;-3.5638;
973909101349356;-10.1474;0.6194;-3.3434;
973909111453522;-10.0780;-0.2907;-1.5084;
973909121557741;-8.3028;0.1020;-2.1625;
973909131676960;-8.0895;0.1307;-3.4466;
973909141781178;-8.9088;0.0302;-3.4226;
973909151885345;-10.1761;-0.0655;-3.1567;
973909161983783;-10.7127;0.0565;-3.2046;
973909172088001;-8.2430;-0.4202;-2.4571;
973909182192168;-7.3926;-0.4968;-3.0440;
973909192285710;-2.0097;0.3870;-3.7986;
973909202389876;-3.7896;0.8710;-7.2458;
973909212494095;-21.0422;1.7285;-7.3606;
973909222610501;-20.1724;-1.3854;1.6702;
973909232714668;-3.5548;-1.9439;2.5448;
973909242818887;-3.9021;0.2602;-3.7436;
973909252910397;-9.0263;1.2494;-5.9019;
973909263014512;-11.6925;-1.2251;-0.6772;
973909273118574;-10.1474;-0.7651;0.7600;
973909283226647;-9.5172;0.6410;-2.4476;
973909293330762;-8.6836;1.1895;-3.9254;
973909303434876;-8.5352;-0.5782;-2.7948;
973909313528678;-10.4850;-0.4705;-2.6991;
973909323632793;-9.6084;-0.2572;-2.7589;
973909333736856;-10.0274;-0.3314;-3.3027;
973909343849147;-8.8011;0.0230;-3.9927;
973909353953210;-9.2489;0.0182;-3.0176;
973909364057324;-7.7997;0.1522;-3.1807;
973909374163678;-10.2168;-0.1184;-4.8072;
973909384267741;-9.5533;0.0350;-3.1519;
973909394371856;-7.5697;0.4636;-3.0344;
973909404473314;-10.2287;0.2530;-3.9350;
973909414577428;-8.1374;0.2459;-2.6058;
973909424681491;-8.9207;1.0244;-2.7685;
973909434780085;-8.4177;1.7046;-4.3137;
973909444884199;-8.4344;0.6266;-4.0262;
973909454988262;-8.3267;-0.0272;-3.7555;
973909465085085;-7.6080;-0.0416;-4.2371;
973909475189199;-11.7739;0.4759;-4.1363;
973909485293262;-15.3909;1.2015;-1.9684;
973909495398210;-9.2417;0.7319;0.0485;
973909505502324;-4.1393;1.2736;-3.7101;
973909515606387;-6.8943;0.3894;-5.3318;
973909525719043;-10.8900;-0.8779;-4.0549;
973909535823158;-8.1924;0.6553;-3.0631;
973909545927272;-9.6945;1.5129;-1.5996;
973909556028001;-6.6978;2.6246;-0.3012;
973909566132116;-7.0259;2.4353;-6.4433;
973909576236231;-11.8289;-0.2500;-11.3228;
973909586368314;-12.6601;-1.4169;-6.7857;
973909596472428;-8.6931;0.4445;0.9948;
973909606576491;-6.1181;0.5835;1.0451;
973909616663314;-8.9973;0.9404;-5.5184;
973909626767428;-9.7687;0.4062;-5.5161;
973909636871543;-9.3185;-0.3532;-2.5720;
973909646980189;-8.9734;-0.1902;-3.0679;
973909657084303;-10.8924;-0.5423;-3.7436;
973909667188366;-8.7580;-0.6455;-2.8693;
973909677287845;-7.0092;-1.0023;-3.5782;
973909687391960;-11.2134;-0.7723;-5.8636;
973909697496022;-9.8910;-1.3735;-4.1243;
973909707609772;-6.8270;-1.0454;-3.4968;
973909717713887;-11.3569;-0.0296;-3.8154;
973909727818001;-10.8586;-0.8273;-3.2620;
973909737909356;-8.4658;-0.4992;-3.7340;
973909748013470;-8.7218;-0.0993;-4.6083;
973909758117533;-8.2262;-0.0802;-4.8431;
973909768235710;-8.3339;0.5453;-5.3198;
973909778339824;-9.0191;0.4038;-5.6982;
973909788443887;-7.0403;1.4889;-5.8469;
973909798538418;-7.1121;1.5129;-6.9990;
973909808642533;-8.0728;1.2589;-6.6948;
973909818746595;-6.7863;0.6290;-5.0515;
973909828854564;-8.8848;1.2015;-5.7126;
973909838958678;-7.0714;2.2005;-5.9761;
973909849062741;-7.2296;1.3549;-8.6255;
973909859180606;-11.2995;0.4158;-9.4878;
973909869284668;-10.7486;-0.0682;-4.5174;
973909879388783;-7.2703;2.5358;-2.3662;
973909889475814;-5.2029;2.4018;-5.4658;
973909899579928;-7.7088;1.2760;-5.9856;
973909909683991;-9.9772;-0.3389;-3.0368;
973909919790501;-7.9938;1.3047;-4.4934;
973909929894616;-9.6658;1.0627;-10.3720;
973909939998731;-9.8312;-0.6431;-8.2158;
973909950102064;-6.4774;-0.5925;-1.3552;
973909960206178;-8.8825;0.9978;-1.9708;
973909970310293;-8.3722;0.6697;-5.6097;
973909980421751;-9.5414;-0.7699;-4.6083;
973909990525814;-8.7580;-0.4537;-3.6476;
973910000629928;-8.5926;-0.4178;-5.3725;
973910010723001;-10.3220;0.1068;-5.4754;
973910020827116;-8.6453;-0.4705;-1.5852;
973910030931231;-4.6543;0.8949;-0.9622;
973910041030814;-5.9527;0.9356;-4.5724;
973910051134928;-14.4257;0.7442;-4.6298;
973910061239043;-12.4807;1.0986;-0.3108;
973910071372845;-8.2143;2.2029;-0.9120;
973910081476908;-10.6792;1.5248;-3.8752;
973910091581022;-9.0694;1.6424;-2.4188;
973910101691335;-7.2153;1.3478;-2.4954;
973910111795397;-5.4401;2.8065;-4.0478;
973910121899512;-7.7279;1.6065;-5.4849;
973910131982585;-7.3612;2.5286;-3.2405;
973910142086699;-8.3195;1.7166;-4.1794;
973910152190814;-11.4649;1.7740;-5.5208;
973910162285710;-12.4421;1.1249;-2.8235;
973910172389824;-11.2947;0.9523;-2.6512;
973910182493939;-8.4993;0.5812;-2.3973;
973910192602168;-9.5291;0.0829;-3.5136;
973910202706283;-5.9982;-0.1161;-2.5265;
973910212810345;-8.9303;-1.0813;-4.7593;
973910222915762;-9.8767;-1.0478;-2.5098;
973910233019876;-10.0633;-1.0214;-2.3973;
973910243123939;-10.4922;-1.0549;-2.8522;
973910253229772;-9.9078;-1.7904;-2.0859;
973910263333991;-7.3277;-1.8407;-2.1314;
973910273438158;-9.4645;-2.4876;-4.6561;
973910283543939;-10.2287;-1.6298;-2.0306;
973910293648158;-8.2813;-2.1281;-2.7972;
973910303752376;-10.5138;-1.4312;-4.1985;
973910313845606;-10.9187;-2.0827;-2.3013;
973910323949824;-9.3520;-0.6359;-1.8727;
973910334053991;-9.2489;-1.4384;-1.6164;
973910344190606;-8.9566;-1.0645;-1.4629;
973910354294824;-7.6487;-1.1414;-0.9909;
973910364398991;-7.4931;-1.2467;-1.9062;
973910374465085;-7.9074;-0.5040;-4.2036;
973910384569303;-13.3741;-2.0133;-3.4418;
973910394673470;-11.9441;-1.1940;-2.2271;
973910404788522;-10.0466;-0.8994;-2.5696;
973910414892741;-8.3674;-0.5686;-1.4916;
973910424996908;-6.3362;-0.4490;-1.5924;
973910435119460;-8.5543;-0.3796;-2.8044;
973910445223678;-9.2994;-0.4250;-2.2295;
973910455327845;-9.0024;-0.8273;-2.2056;
973910465430189;-7.5984;-0.6072;-3.0153;
973910475534356;-8.9327;-1.4671;-3.8297;
973910485638574;-12.9691;-1.6011;-2.7924;
973910495720918;-9.7089;-0.8946;-2.0498;
973910505825137;-8.7509;-1.1964;-3.2022;
973910515929303;-8.4177;-0.8082;-3.6790;
973910526033001;-8.2095;-1.4145;-4.9053;
973910536137220;-8.8370;-1.3854;-4.8383;
973910546241387;-6.9278;-0.4155;-5.6216;
973910556355189;-9.4741;-1.4934;-7.0205;
973910566459356;-9.9509;-0.1472;-5.4969;
973910576563626;-8.0919;-0.2596;-5.4802;
973910586663626;-8.9136;-0.5423;-6.4505;
973910596767845;-7.8858;0.2195;-5.4012;
973910606872064;-8.7700;0.2459;-5.9354;
973910616973731;-8.8035;1.0053;-5.6791;
973910627077949;-8.2621;0.7223;-5.1616;
973910637182168;-7.7183;0.0326;-6.1654;
973910647290606;-9.7137;0.5740;-6.4074;
973910657394824;-9.9245;0.6960;-4.8790;
973910667499043;-8.5352;1.0747;-5.2023;
973910677606439;-8.0967;0.6601;-4.8933;
973910687710658;-7.6080;0.4253;-5.0034;
973910697814824;-8.3889;0.9476;-5.3701;
973910707927168;-7.7327;0.3535;-4.1172;
973910718031387;-7.3397;0.8303;-5.5881;
973910728135606;-10.3463;-0.1974;-5.9665;
973910738229668;-11.2421;0.3200;-3.3027;
973910748333887;-8.1709;0.2052;-3.6069;
973910758438053;-6.6763;1.1106;-6.1439;
973910768545189;-7.2344;0.4660;-6.2157;
973910778649408;-9.3018;1.1082;-5.2238;
973910788753626;-8.3794;1.4650;-4.5508;
973910798864043;-6.7624;1.7166;-4.7665;
973910808968262;-8.1709;1.9537;-6.1223;
973910819072481;-9.8839;1.4698;-5.1712;
973910829171231;-8.5352;1.8676;-3.6428;
973910839275449;-7.0331;1.4506;-4.5269;
973910849379616;-7.9364;1.5443;-6.3500;
973910859489772;-12.5333;0.1714;-6.2515;
973910869593939;-11.2421;2.1503;-3.3386;
973910879698158;-6.6356;0.0924;-1.5565;
973910889802481;-6.2904;1.3406;-3.9206;
973910899906647;-6.9733;-0.2381;-4.2849;
973910910010866;-8.8825;1.6328;-4.0382;
973910920101960;-3.7418;0.6123;-4.0262;
973910930206178;-4.3214;0.8255;-6.6541;
973910940310397;-16.4282;-0.9951;-4.6681;
973910950420397;-18.3063;0.7657;1.5290;
973910960524616;-9.9652;0.5740;2.9183;
973910970628835;-7.8165;-0.5949;-1.0845;
973910980718939;-7.5458;-1.3280;-3.2859;
973910990823158;-6.4678;0.8303;-4.3759;
973911000927324;-6.1397;1.0077;-5.2983;
973911011047272;-6.7289;0.7442;-5.8828;
973911021151491;-8.7194;2.2196;-6.0984;
973911031255658;-12.2889;1.1010;-4.2084;
973911041360397;-10.3989;1.9226;-2.4547;
973911051464616;-9.6251;0.0159;-3.1400;
973911061568835;-9.2441;1.1225;-3.8776;
973911071681126;-9.4813;0.5740;-4.7040;
973911081785345;-8.0393;1.0316;-4.4237;
973911091889564;-4.2808;-0.1902;-3.8441;
973911101978418;1.2864;-1.0286;-6.2827;
973911112082637;6.3242;-2.3198;-8.2014;
973911122186856;-19.5879;-4.3175;-7.1596;
973911132308314;-49.8551;-5.3692;1.7997;
973911142412533;-28.1710;-3.5342;11.0871;
973911152516751;0.1726;-2.6121;5.8648;
973911162613731;8.3865;-3.2925;-4.7617;
973911172717949;4.3959;-4.0493;-8.1033;
973911182822116;-1.7895;-3.9559;-2.3204;
973911192921647;-7.8188;-0.7364;-4.6537;
973911203025866;-14.3489;-3.5800;-7.4566;
973911213130085;-18.3374;-3.4098;-7.1234;
973911223233626;-16.8906;-3.8554;-3.0894;
973911233337845;-9.3712;-2.4108;0.1301;
973911243442064;-0.7977;-2.1066;-0.4642;
973911253539251;-6.1804;-1.3807;-3.2453;
973911263643418;-9.5438;-2.0874;-1.0271;
973911273747533;-10.7198;-0.3290;-2.4571;
973911283859095;-11.3928;-0.2070;-6.1678;
973911293963210;-15.2593;-1.8574;-4.0549;
973911304067324;-8.5807;-0.0802;0.5611;
973911314178001;-5.1263;0.0470;-0.6939;
973911324282168;-4.3358;0.8566;-1.7240;
973911334386231;-8.2525;0.8160;-3.0775;
973911344490293;-10.8036;1.0268;-2.5744;
973911354594460;-10.1641;0.5668;-3.2812;
973911364698574;-12.0852;0.0446;-4.0573;
973911374801074;-8.3124;0.6338;-2.5552;
973911384905241;-8.4873;-0.1424;-3.3577;
973911395009356;-8.1876;0.9093;-4.1124;
973911405098001;-6.6619;0.9045;-3.4561;
973911415202168;-9.9413;0.7777;-3.4825;
973911425306283;-8.0776;0.7343;-3.0535;
973911435419043;-8.7963;0.3799;-4.0621;
973911445523210;-9.7759;1.1154;-4.1148;
973911455627324;-8.5113;0.9595;-1.0798;
973911465743314;-10.1019;1.0651;1.0690;
973911475847481;-4.6376;2.7275;1.0570;
973911485951595;-3.6338;2.9121;-7.7489;
973911496044981;-13.6232;0.0541;-23.5974;
973911506149147;-24.3862;-2.0468;-16.6576;
973911516253262;-15.2234;-2.2457;5.3976;
973911526348626;-2.8484;0.6386;10.4856;
973911536452793;1.5595;2.9073;1.8906;
973911546556908;2.5226;2.5908;-6.3811;
973911556670397;-12.4373;1.0579;-6.9081;
973911566774564;-15.0628;-0.6933;-3.5614;
973911576878678;-10.4707;0.4588;-4.1028;
973911586995085;-11.3163;-0.4561;-6.3329;
973911597099251;-10.5688;-1.9965;-5.2310;
973911607203366;-8.2717;-2.8086;-3.4466;
973911617297064;-6.6835;-0.9664;-4.8957;
973911627401231;-7.9217;-0.4202;-5.0611;
973911637505397;-9.4190;0.2985;-5.8325;
973911647614460;-9.9939;0.2818;-5.0324;
973911657718626;-9.6897;-0.4896;-4.7402;
973911667822741;-9.2201;-0.5423;-4.9555;
973911677931751;-10.5401;-1.4503;-3.4250;
973911688035918;-8.7147;-0.7723;-3.5590;
973911698140033;-8.1589;0.0302;-4.5317;
973911708245397;-9.0718;-0.1065;-4.7928;
973911718349564;-9.4238;-0.2429;-4.2323;
973911728453678;-10.0732;-0.7101;-5.2430;
973911738548418;-8.8155;-0.1161;-4.2060;
973911748652585;-7.9316;0.3416;-4.0645;
973911758756699;-8.7580;1.1130;-4.9244;
973911768866960;-7.2177;0.3894;-3.3936;
973911778971126;-8.3243;1.5538;-5.5977;
973911789075241;-8.0536;1.6711;-6.2922;
973911799183939;-7.2512;1.6280;-5.1975;
973911809288106;-9.0909;2.4568;-5.6312;
973911819392272;-8.8155;2.2699;-4.5245;
973911829487897;-7.3373;2.8352;-4.9723;
973911839592064;-7.2942;2.3946;-6.9464;
973911849696178;-10.0346;2.0447;-6.8599;
973911859794512;-9.2850;1.5754;-5.0922;
973911869898678;-8.6166;2.0856;-5.0085;
973911880002793;-9.2994;1.2903;-5.8011;
973911890125501;-9.4286;1.1058;-3.8010;
973911900229668;-6.5874;1.0002;-3.2524;
973911910333783;-9.3401;2.3417;-6.5677;
973911920428262;-10.6481;0.7442;-5.4778;
973911930532428;-8.7509;1.0603;-3.4083;
973911940636543;-9.0766;1.2182;-3.9544;
973911950741960;-7.9074;1.0675;-3.7364;
973911960846126;-7.9555;1.1225;-4.5556;
973911970950293;-7.7925;1.2087;-4.1794;
973911981054824;-8.1494;0.4205;-3.9640;
973911991158939;-9.9820;0.5046;-4.7952;
973912001263106;-9.7519;0.1044;-3.6117;
973912011369356;-7.3373;-0.1137;-2.3495;
973912021473522;-8.1398;-0.1519;-4.1267;
973912031577637;-8.7532;-0.6766;-2.7781;
973912041675606;-6.8007;-0.1854;-2.5074;
973912051779772;-7.2105;0.3320;-3.3171;
973912061883887;-13.0747;0.2554;-5.1305;
973912072004043;-11.4242;0.1068;-2.1745;
973912082108210;-8.9949;0.4516;-1.9062;
973912092212324;-7.4070;0.1762;-2.8717;
973912102301231;-8.2286;1.2736;-3.1711;
973912112405397;-9.0431;0.5644;-2.2199;
973912122509512;-7.8045;1.8748;-2.4739;
973912132628522;-9.2010;0.7271;-3.8943;
973912142732689;-10.1234;1.7620;-4.0789;
973912152836803;-10.3630;0.4110;-3.9760;
973912162928106;-10.1521;0.9858;-3.8632;
973912173032272;-9.2584;0.0278;-3.8154;
973912183136387;-8.9207;0.3200;-3.7914;
973912193240606;-8.5208;-0.5590;-2.8044;
973912203344772;-9.9413;-0.1256;-4.0645;
973912213448887;-9.8216;-1.2108;-2.7111;
973912223552845;-10.0202;-1.4767;-3.6045;
973912233657012;-8.7724;-1.7689;-3.4777;
973912243761126;-11.3833;-2.3366;-3.8967;
973912253858522;-10.1689;-1.9244;-2.0764;
973912263962741;-7.8308;-1.5556;-2.3734;
973912274066960;-6.3697;-0.9760;-2.9100;
973912284186126;-9.8169;-1.6780;-3.3290;
973912294290345;-10.6911;-0.7149;-1.6905;
973912304394616;-11.2182;-1.3496;-2.3423;
973912314455189;-9.3879;-0.2213;-1.9708;
973912324559408;-9.7208;-1.2658;-1.2858;
973912334663626;-9.1388;-0.5973;-1.5084;
973912344798106;-6.7911;0.0087;-1.7743;
973912354902324;-8.7915;-0.0081;-2.5863;
973912365006543;-8.9853;0.2937;-1.9493;
973912375130397;-10.7175;-0.1304;-2.0545;
973912385234616;-9.8145;-0.1567;-1.1946;
973912395338835;-9.1603;0.1211;-2.3973;
973912405418522;-10.4204;0.0494;-2.4069;
973912415522741;-9.4837;-0.1567;-2.6871;
973912425626960;-10.8419;-0.3413;-2.2391;
973912435741856;-8.2549;0.2001;-0.8713;
973912445846074;-6.3673;-0.1759;-1.8727;
973912455950293;-9.1196;-0.4681;-3.5901;
973912466072689;-10.3101;-0.2620;-2.7135;
973912476176908;-10.1809;-0.9927;-2.7972;
973912486281126;-9.7663;-0.6215;-3.7292;
973912496370606;-9.3138;-0.5088;-2.8837;
973912506474824;-9.3951;-0.3939;-2.4571;
973912516579043;-8.1422;0.6864;-2.6584;
973912526679981;-8.3004;0.0039;-2.8908;
973912536784199;-8.9016;-0.3003;-3.2620;
973912546888418;-7.4429;0.3918;-4.1100;
973912557000085;-11.4601;0.0709;-4.3400;
973912567104303;-10.2742;0.3727;-2.9219;
973912577208522;-7.2296;0.6218;-3.6404;
973912587310293;-10.4492;0.1977;-4.6011;
973912597414512;-8.8920;0.1738;-3.1711;
973912607518731;-6.9972;-0.0105;-4.0908;
973912617613418;-9.1005;-0.1304;-4.8024;
973912627717637;-9.1531;-0.1591;-4.0813;
973912637821856;-7.6992;0.2459;-4.8239;
973912647936439;-9.3329;-0.8803;-4.5389;
973912658040658;-8.5711;-0.5279;-4.3448;
973912668144876;-9.5510;-0.0296;-4.4166;
973912678250606;-10.1330;-0.3413;-3.5566;
973912688354824;-8.3124;-0.2285;-3.7316;
973912698459043;-8.4778;-0.6287;-3.2668;
973912708564668;-8.1039;-0.5064;-4.3591;
973912718668887;-9.6156;-0.1017;-4.9819;
973912728773106;-8.6883;-0.6287;-3.5303;
973912738866595;-7.7734;-0.7412;-5.7293;
973912748970814;-10.1378;-0.3796;-5.0348;
973912759075033;-9.1627;-0.4633;-2.9650;
973912769182845;-7.9508;0.0422;-4.9603;
973912779287064;-8.5615;-0.5303;-5.3222;
973912789391283;-9.4358;-0.7555;-4.9507;
973912799506439;-11.5080;0.1379;-3.8871;
973912809610658;-9.3975;-0.2453;-3.7077;
973912819714876;-7.1240;-0.4370;-4.7880;
973912829815606;-8.0728;-0.2716;-4.8766;
973912839919824;-8.5831;-0.2955;-5.9115;
973912850024043;-11.0240;0.0900;-5.2959;
973912860127168;-10.6337;0.1475;-4.2179;
973912870231335;-7.7160;1.0292;-5.3916;
973912880335553;-7.7160;0.3272;-5.3749;
973912890449981;-8.0441;0.8853;-5.1975;
973912900554199;-7.2153;1.6352;-4.9914;
973912910658418;-9.2755;1.8173;-6.3811;
973912920749356;-7.6295;1.8485;-5.4060;
973912930853574;-7.6152;2.0662;-6.0359;
973912940957793;-8.8011;2.6509;-7.2936;
973912951054668;-7.9795;2.4209;-4.5604;
973912961158887;-6.6165;2.8448;-5.7628;
973912971263106;-7.2990;2.8232;-6.8794;
973912981391647;-9.9269;1.6304;-7.2960;
973912991495866;-9.7448;2.0880;-6.9009;
973913001600085;-8.8179;1.3573;-5.8732;
973913011681751;-7.8380;1.2927;-4.8191;
973913021785970;-7.1483;0.8782;-6.2515;
973913031890189;-8.5639;0.0374;-4.9412;
973913042001751;-7.3205;0.4445;-3.7507;
973913052105970;-7.4979;0.1929;-5.6097;
973913062210189;-9.0335;0.0350;-6.1750;
973913072306647;-10.2622;-0.0057;-5.9474;
973913082410866;-9.9772;0.8901;-4.8861;
973913092515085;-7.9098;-0.7436;-4.0143;
973913102628106;-7.5123;0.0135;-4.8096;
973913112732324;-9.4286;-0.3508;-4.5963;
973913122836543;-7.6729;-0.1615;-2.4093;
973913132949876;-7.0522;-0.0488;-3.4226;
973913143054095;-8.3339;1.4578;-5.1401;
973913153158314;-8.8322;0.7295;-5.0707;
973913163246543;-10.9427;1.7979;-5.2430;
973913173350762;-10.8805;1.8051;-3.7292;
973913183454981;-7.8260;2.0183;0.1397;
973913193550762;-7.6872;2.0447;-1.2568;
973913203654981;-8.0489;0.9619;-2.7159;
973913213759199;-10.2766;2.1670;-4.6418;
973913223870814;-11.3593;1.7189;-1.3768;
973913233975033;-8.4583;3.0078;1.1264;
973913244079251;-6.4487;2.1024;-0.6485;
973913254190397;-8.4368;2.4616;-2.7661;
973913264294720;-10.0346;0.9428;-2.0812;
973913274399095;-10.9810;1.5682;-2.5385;
973913284494564;-12.7753;0.2889;-3.2859;
973913294598887;-12.1427;-0.6694;-1.8464;
973913304703262;-7.2105;0.4759;-1.6642;
973913314815501;-8.2119;-1.2491;-3.4418;
973913324919824;-9.4597;-1.6756;-2.8642;
973913335024147;-9.0407;-2.8229;-1.7862;
973913345151908;-10.6744;-2.0755;-2.3447;
973913355256231;-10.5114;-2.6575;-0.8115;
973913365360553;-10.1498;-2.3868;-2.0812;
973913375447793;-8.8920;-0.9879;-3.0559;
973913385552116;-9.5557;-1.5867;-2.3423;
973913395656439;-8.4897;-1.5365;-3.1759;
973913405748835;-9.0909;-1.4695;-4.3184;
973913415853158;-11.0360;-1.8861;-3.4944;
973913425957481;-9.1508;-1.5915;-2.6345;
973913436068001;-7.6439;-1.1677;-3.0009;
973913446172324;-6.8728;-0.7842;-4.5341;
973913456276699;-12.5118;-0.7268;-4.9747;
973913466394147;-9.0215;-1.5150;-1.6044;
973913476498470;-9.4813;-0.3437;-2.7254;
973913486602793;-9.5773;-1.2084;-3.3936;
973913496689147;-9.1484;-0.3314;-2.8259;
973913506793470;-8.7987;0.3129;-1.8870;
973913516897793;-7.5745;0.6888;-2.0593;
973913527002428;-8.8155;1.1417;-3.5375;
973913537106751;-9.9365;0.2315;-3.4442;
973913547211074;-9.3233;0.0829;-2.3157;
973913557311960;-7.9771;0.9117;-2.9937;
973913567416283;-8.8059;0.0494;-3.5925;
973913577520606;-8.9901;0.4493;-3.0727;
973913587634512;-8.6620;0.2530;-2.2056;
973913597738835;-9.5004;-0.0730;-3.4490;
973913607843158;-9.3185;0.6123;-3.7603;
973913617950501;-9.0383;0.0111;-4.2275;
973913628054824;-9.6156;-0.5734;-3.4681;
973913638159199;-7.1937;-0.2237;-2.6632;
973913648254251;-8.3578;-0.3194;-5.0611;
973913658358574;-10.5927;0.2650;-5.0109;
973913668462897;-8.2813;-0.3963;-2.3638;
973913678570710;-7.1913;-0.4274;-2.9172;
973913688675033;-8.7724;0.9332;-5.7796;
973913698779356;-9.5701;-0.1280;-4.9292;
973913708897481;-8.2502;-1.4456;-2.5409;
973913719001803;-8.8035;-0.7268;-4.1148;
973913729106126;-10.2335;-0.8656;-4.0406;
973913739191595;-8.1517;-1.0502;-2.8860;
973913749295918;-8.0465;-0.6837;-4.9268;
973913759400241;-9.5366;-1.5724;-5.2382;
973913769507689;-7.6968;-1.2251;-3.3123;
973913779612012;-10.0490;-1.3615;-3.9544;
973913789716335;-9.3233;-1.3328;-4.8335;
973913799804981;-9.1005;-0.0559;-2.1936;
973913809909303;-9.9341;-0.4992;-2.8331;
973913820013678;-7.6056;-0.8058;-4.8550;
973913830128106;-9.9987;0.3200;-4.7737;
973913840232428;-9.3185;0.2411;-3.3793;
973913850336803;-8.1733;-0.0559;-3.7388;
973913860425085;-9.0144;-0.3963;-4.4381;
973913870529408;-7.3373;0.8973;-3.6165;
973913880633731;-9.6586;0.8160;-4.2634;
973913890765606;-11.8911;-0.6479;-4.0406;
973913900869981;-10.3053;0.6458;-2.7852;
973913910974251;-8.9423;0.1522;-2.8789;
973913921074981;-7.5434;-0.7029;-3.4633;
973913931179303;-7.8858;-1.0095;-3.7460;
973913941283678;-10.4396;-0.9712;-4.1004;
973913951384147;-8.9566;-0.6861;-2.5002;
973913961488470;-7.9364;-1.0669;-2.0788;
973913971592845;-9.8312;-1.0621;-4.5197;
973913981731751;-8.7389;-1.3831;-4.4620;
973913991836074;-8.0465;-2.2863;-3.8824;
973914001940397;-10.2933;-2.0348;-3.7627;
973914012019512;-8.4440;-0.9377;-2.2463;
973914022123835;-8.8633;-1.6370;-2.8717;
973914032228158;-9.9867;-1.9101;-4.3974;
973914042330710;-8.9901;-0.5853;-2.8956;
973914052435033;-8.1517;-1.3759;-3.0009;
973914062539356;-9.1484;-0.8874;-4.4261;
973914072653262;-9.7543;-0.6311;-3.2405;
973914082757585;-8.9949;-0.7555;-2.9387;
973914092861908;-8.8872;-0.3413;-3.3147;
973914102963210;-8.0201;-0.7866;-3.1902;
973914113067533;-8.3794;-0.2333;-4.0430;
973914123171856;-7.7375;-0.1950;-4.2826;
973914133278835;-9.0718;-0.3820;-4.6585;
973914143383158;-9.6156;-0.0778;-4.8072;
973914153487533;-8.1781;1.2784;-4.5867;
973914163570345;-8.5256;-0.0200;-4.1219;
973914173674668;-11.6731;-0.5614;-3.3864;
973914183778991;-9.1531;0.7657;-1.6092;
973914193882793;-7.2009;-0.1567;-1.7838;
973914203987116;-9.3281;0.5429;-4.3184;
973914214091439;-9.5390;1.5586;-4.7665;
973914224214043;-10.4468;2.5860;-3.7005;
973914234318366;-8.8394;3.3526;-2.7613;
973914244422741;-8.8777;3.0939;-4.5987;
973914254520710;-9.9437;2.5621;-4.3663;
973914264625033;-8.6333;2.9862;-3.5495;
973914274729408;-8.7341;3.1660;-3.1854;
973914284826543;-7.9026;2.9480;-2.8980;
973914294930866;-7.4285;2.2220;-3.5136;
973914305035241;-7.0259;1.4626;-4.6968;
973914315166231;-9.1196;1.3262;-5.3844;
973914325270553;-9.7400;1.4865;-5.0659;
973914335374928;-9.2874;1.4578;-5.2573;
973914345459147;-8.8968;0.6673;-4.4118;
973914355563470;-6.5228;0.2865;-2.1697;
973914365667845;-6.0679;0.2889;-3.2166;
973914375769564;-10.0083;-0.7340;-7.6843;
973914385873939;-12.6027;-0.5542;-7.8254;
973914395978262;-10.1258;1.2063;-4.1507;
973914406083522;-6.4008;0.9045;-2.4619;
973914416187845;-6.7887;0.2001;-4.6920;
973914426292220;-9.7400;0.8710;-5.7556;
973914436391231;-8.7147;0.8207;-4.4524;
973914446495606;-7.1145;0.5261;-5.4897;
973914456599928;-9.2489;1.0340;-5.7030;
973914466714772;-7.2105;1.1800;-4.2251;
973914476819095;-7.8858;1.0364;-6.3882;
973914486923470;-10.2574;1.4291;-8.1320;
973914497023522;-8.9231;0.8806;-5.4084;
973914507127845;-7.2296;0.7896;-3.7388;
973914517232220;-8.0800;0.7729;-3.7388;
973914527341335;-6.1708;0.3631;-4.2009;
973914537445658;-8.9040;1.1465;-6.2180;
973914547550033;-9.4956;1.4363;-5.3246;
973914557660397;-8.9160;1.2951;-5.9139;
973914567764720;-10.7868;0.9284;-6.0263;
973914577869095;-8.0201;1.1895;-4.4910;
973914587967533;-7.6176;1.0268;-6.7283;
973914598071908;-9.9126;1.5395;-6.5270;
973914608176231;-4.3645;2.0638;-4.1507;
973914618280189;-8.6070;0.8949;-7.8374;
973914628384512;-9.1603;1.8700;-6.2635;
973914638488887;-6.7672;1.3430;-5.9067;
973914648585501;-8.9566;0.2889;-8.6758;
973914658689824;-9.1005;-0.4011;-4.6513;
973914668794199;-6.5109;-0.9975;-3.5806;
973914678893210;-9.8910;-2.0635;-6.3209;
973914688997533;-12.8686;-1.9244;-4.3567;
973914699101908;-9.9078;-1.1749;-2.1410;
973914709208210;-8.9040;-1.5867;-1.7049;
973914719312533;-6.2904;-1.3759;-2.0907;
973914729416908;-7.8882;-2.3486;-4.2443;
973914739524668;-12.5166;-2.5403;-3.4513;
973914749628991;-8.4296;-1.6131;-1.8799;
973914759733366;-9.4454;-2.3773;-4.0214;
973914769827168;-11.4338;-0.7005;-2.8211;
973914779931543;-9.4334;-1.8598;-2.0859;
973914790035866;-11.4649;-1.5987;-4.4719;
973914800137845;-10.7677;-1.7713;-0.2438;
973914810242168;-6.1086;-2.3605;0.1851;
973914820346543;-6.9972;-2.4805;-2.5720;
973914830451751;-10.9140;-2.8325;-1.9014;
973914840556074;-9.9341;-3.2901;-1.5972;
973914850660449;-13.0651;-3.9631;-1.3911;
973914860761908;-10.9307;-4.2673;-0.2892;
973914870866231;-7.8284;-4.0086;-1.3839;
973914880970606;-10.3149;-4.0998;-0.6150;
973914891091231;-7.6534;-4.1118;-0.0760;
973914901195606;-9.5172;-3.5632;-1.4198;
973914911299928;-10.7318;-3.5536;0.3431;
973914921399668;-9.2683;-2.7197;-1.3504;
973914931503991;-12.5668;-2.7197;-1.8679;
973914941608366;-10.5855;-2.7054;-0.0209;
973914951717585;-6.9589;-1.6370;-1.5829;
973914961821908;-9.3209;-0.6861;-3.2931;
973914971926283;-8.9949;-1.0238;-2.9818;
973914982018939;-9.3784;-0.3290;-3.0727;
973914992123262;-9.3736;0.3464;-2.6441;
973915002227637;-8.3602;-0.4346;-3.2333;
973915012342272;-10.4013;0.4158;-3.7531;
973915022446595;-12.3559;0.5979;-1.6834;
973915032550970;-9.8815;0.9069;-2.0764;
973915042651856;-8.8011;1.0220;-1.8368;
973915052756178;-6.8557;0.9165;-2.0716;
973915062860553;-10.1545;1.0460;-3.5590;
973915072944356;-10.8948;1.1297;-1.9469;
973915083048731;-8.1182;1.5368;-1.3504;
973915093153053;-6.6356;2.1574;-4.2802;
973915103268314;-11.2205;1.0196;-4.1195;
973915113372689;-12.9643;-0.0873;-2.5026;
973915123477012;-8.5017;1.1608;-3.4131;
973915133577272;-8.7365;1.1632;-2.2678;
973915143681595;-8.3865;0.4445;-1.5108;
973915153785970;-9.6515;1.1321;-4.1889;
973915163877793;-9.7400;1.1010;-3.6571;
973915173982116;-8.2573;0.5213;-2.0378;
973915184086439;-9.5845;0.9260;-3.6284;
973915194214564;-8.2980;0.2483;-3.2668;
973915204318939;-9.6826;0.0565;-2.4021;
973915214423262;-9.5845;0.5453;-2.8331;
973915224527793;-10.1354;1.4148;-3.0057;
973915234632116;-10.0442;1.6256;-2.4332;
973915244736491;-7.1387;1.4626;-2.7685;
973915254829824;-7.3469;1.7716;-4.3280;
973915264933991;-8.7461;0.9165;-4.6035;
973915275038158;-9.0550;0.2818;-4.8311;
973915285155814;-9.4932;0.5668;-4.4453;
973915295259981;-11.5534;0.1857;-1.9995;
973915305364147;-7.8763;0.8160;-1.7838;
973915315442168;-8.0297;2.4185;-4.8311;
973915325546335;-8.8466;1.1321;-4.3232;
973915335650501;-7.9316;0.4735;-3.1181;
973915345779928;-8.9806;1.6017;-4.9005;
973915355884095;-11.1559;1.9178;-4.5532;
973915365988262;-8.1948;1.4889;-2.9841;
973915376100710;-8.2717;2.0976;-4.1985;
973915386204876;-10.3077;1.1919;-4.5365;
973915396309043;-9.2321;0.9452;-3.7675;
973915406400345;-9.0838;0.7537;-1.9660;
973915416504512;-10.9379;0.4516;-1.0319;
973915426608678;-7.0164;0.3368;-3.4944;
973915436701751;-7.4477;0.5381;-4.4070;
973915446805918;-10.7533;-0.9473;-2.7206;
973915456910085;-9.7352;-0.9042;-1.7336;
973915467028678;-8.5424;-0.6144;-3.1229;
973915477132845;-10.8852;-0.8632;-3.4394;
973915487237012;-9.9628;-0.8779;-2.3471;
973915497332481;-7.4477;-0.0583;-3.1472;
973915507436647;-9.2225;0.8758;-3.9039;
973915517540866;-10.6050;-0.0488;-2.7900;
973915527642689;-8.9447;-0.3772;-2.6465;
973915537746856;-8.9016;0.8183;-4.5915;
973915547851022;-7.9627;1.4554;-3.6260;
973915557964460;-8.2837;0.8088;-2.4141;
973915568068626;-9.7017;0.5333;-4.4743;
973915578172793;-10.1641;0.6601;-3.6957;
973915588284095;-9.1077;0.7561;-2.1697;
973915598388262;-8.2669;0.7247;-3.8465;
973915608492428;-9.8145;0.8782;-3.4801;
973915618594772;-8.9495;0.8925;-2.3806;
973915628698939;-6.1851;1.0507;-3.5806;
973915638803106;-11.6635;0.2554;-3.5710;
973915648901647;-12.1618;0.4660;-2.2869;
973915659005814;-6.6882;1.5921;-1.9014;
973915669109981;-7.8763;1.1417;-2.4811;
973915679221647;-11.4817;-0.1663;-3.1253;
973915689325814;-10.3750;0.4783;-3.0488;
973915699429981;-8.1063;0.8064;-2.2391;
973915709528626;-6.9063;0.2985;-2.5241;
973915719632793;-8.5137;0.1929;-4.8263;
973915729736960;-11.4458;-0.1974;-4.8144;
973915739807220;-9.6132;-0.2453;-2.8765;
973915749911387;-8.7003;0.5955;-3.1352;
973915760015553;-9.6012;0.4974;-5.1640;
973915770158106;-11.0839;-0.3147;-5.8110;
973915780262272;-10.9546;-0.5231;-3.8584;
973915790366439;-8.5831;0.3200;-3.3338;
973915800459147;-6.9685;0.7729;-2.9674;
973915810563314;-7.1507;0.1235;-1.0941;
973915820667481;-6.9805;-0.0464;-1.9325;
973915830774564;-9.1244;0.9763;-6.2803;
973915840878731;-12.3248;0.6553;-6.1128;
973915850982897;-10.3101;0.5931;-4.0645;
973915861075918;-8.3291;1.1800;-4.6155;
973915871180085;-8.9495;0.7848;-5.5256;
973915881284251;-8.1087;0.2219;-4.9029;
973915891404876;-6.5348;0.1738;-5.1185;
973915901509043;-6.5925;0.6793;-5.7221;
973915911613210;-7.1025;1.1776;-5.3605;
973915921717481;-6.6667;1.4267;-5.6527;
973915931821647;-8.5831;0.7466;-6.7211;
973915941925814;-10.5688;0.7128;-6.2276;
973915952038835;-9.5124;1.6376;-4.4022;
973915962143001;-7.0235;1.1632;-4.0956;
973915972247168;-8.7027;0.7920;-4.5485;
973915982339668;-9.6180;0.6147;-4.1076;
973915992443835;-9.3233;0.3846;-4.2778;
973916002548001;-9.0981;-0.2500;-5.2214;
973916012661543;-9.1723;-0.3389;-5.8110;
973916022765710;-9.1914;-0.8201;-5.1209;
973916032869876;-8.0513;-1.4719;-3.9111;
973916042974668;-6.4750;-0.1854;-3.6260;
973916053078835;-7.4166;0.2794;-5.0659;
973916063183001;-10.5305;-1.5700;-6.8575;
973916073277845;-11.5343;-1.3448;-4.6681;
973916083381960;-9.3449;0.1666;-2.5217;
973916093486178;-7.7590;-0.2046;-4.2921;
973916103649460;-8.8490;-0.8512;-4.5269;
973916113753626;-7.9771;-0.3027;-3.9401;
973916123857793;-7.9962;-0.8536;-4.6131;
973916133910189;-8.5041;-0.7819;-5.0587;
973916144014408;-8.8370;-0.6957;-4.1650;
973916154118522;-10.4707;-0.9233;-4.5843;
973916164217897;-10.5497;-0.7627;-4.0621;
973916174322064;-8.1637;0.5022;-2.9506;
973916184426283;-7.0211;0.3176;-3.7244;
973916194532168;-8.2837;-0.3170;-4.7279;
973916204636335;-9.1747;0.2865;-3.5064;
973916214740501;-9.2946;0.4253;-3.2166;
973916224835397;-9.2058;-0.2572;-3.3099;
973916234939564;-9.3042;-0.1615;-4.0454;
973916245043731;-10.0681;-0.2788;-5.1401;
973916255159981;-9.6778;-0.5686;-4.1363;
973916265264303;-6.7624;0.3320;-2.3758;
973916275368574;-7.9265;-0.2955;-3.7005;
973916285465606;-10.2742;-0.3915;-5.1736;
973916295569928;-9.8982;0.4854;-3.7436;
973916305674199;-9.2632;0.8064;-3.4633;
973916315794356;-8.3052;0.8016;-3.1807;
973916325898678;-6.8943;1.1417;-3.2046;
973916336002949;-7.1698;0.8016;-5.7413;
973916346078001;-6.8342;0.4711;-6.2994;
973916356182324;-7.2846;0.1379;-4.0478;
973916366286647;-11.3043;0.4205;-4.2009;
973916376426908;-13.6663;0.5740;-3.6260;
973916386531231;-11.2325;0.5453;-3.2142;
973916396635501;-9.0718;1.2422;-4.1602;
973916406714356;-7.5912;1.1034;-3.0631;
973916416818678;-5.7562;0.6123;-2.3423;
973916426923001;-5.9264;1.2832;-3.3697;
973916437035241;-10.4803;0.7223;-4.7641;
973916447139512;-11.3593;0.7080;-4.9507;
973916457243835;-9.0694;1.1776;-5.1090;
973916467344251;-9.0335;0.6218;-5.6910;
973916477448574;-10.2215;0.1211;-4.3783;
973916487552845;-6.8919;1.1680;-2.4069;
973916497656022;-5.2460;1.2039;-4.4791;
973916507760345;-9.5390;0.1116;-7.5715;
973916517864668;-11.2636;0.3823;-6.0168;
973916527958835;-8.8609;1.6639;-2.7924;
973916538063158;-7.9241;1.2517;-3.2836;
973916548167428;-7.9771;1.2302;-5.3079;
973916558278418;-9.4932;1.1991;-4.1243;
973916568382741;-8.3722;1.7381;-3.2118;
973916578487012;-7.6367;2.3393;-4.1841;
973916588589668;-10.0274;1.4411;-5.2911;
973916598693991;-10.6146;1.9777;-4.8574;
973916608798262;-10.3053;2.0183;-3.6766;
973916618909251;-7.8547;1.7166;-2.2415;
973916629013574;-5.1742;2.0518;-2.5409;
973916639117897;-7.5697;1.4770;-5.2286;
973916649221022;-11.1464;1.0125;-5.4323;
973916659325345;-9.7208;2.1144;-3.1998;
973916669429668;-8.0201;1.4698;-3.4370;
973916679537272;-8.8442;1.0555;-4.2778;
973916689641595;-7.6223;1.2135;-4.1483;
973916699745918;-9.5462;0.7633;-5.4012;
973916709851960;-11.1269;0.6338;-3.4633;
973916719956283;-7.3851;1.5009;-1.2882;
973916730060553;-7.8476;1.4985;-3.1205;
973916740159147;-7.7112;0.9978;-3.9568;
973916750263470;-10.7749;0.8710;-6.3162;
973916760367741;-12.6745;0.1857;-4.5197;
973916770456283;-9.3927;1.0603;-1.1563;
973916780560553;-7.1387;1.6543;-2.8980;
973916790664876;-7.1049;0.9141;-4.1028;
973916800775085;-7.7542;1.6711;-2.4476;
973916810879408;-9.3975;1.9346;1.8188;
973916820983731;-4.0316;3.0604;2.6213;
973916831091439;-7.3588;2.8543;-10.0101;
973916841195762;-21.5306;-0.3099;-18.1334;
973916851300085;-16.2655;-1.6585;-2.5504;
973916861417689;-1.3510;3.3598;6.1092;
973916871521960;-0.8719;6.6826;-3.7627;
973916881626283;-5.8044;0.7537;-5.8083;
973916891729043;-7.5266;-0.1400;-4.4719;
973916901833366;-10.1545;2.5454;-6.8842;
973916911937637;-14.8711;1.4985;-10.1037;
973916922033731;-15.4196;0.7944;-6.1032;
973916932138053;-7.0834;3.0556;0.4798;
973916942242324;-1.2335;2.3898;-1.3600;
973916952354251;-5.7443;1.7381;-6.6326;
973916962458574;-8.8872;0.9428;-3.3553;
973916972562897;-8.2741;2.3994;-3.6909;
973916982662793;-11.6611;2.5167;-7.6552;
973916992767116;-12.3105;1.2999;-4.5915;
973917002871387;-9.5821;2.6557;-2.4739;
973917012979356;-6.5850;1.8293;-3.2213;
973917023083678;-6.4319;2.0928;-6.4026;
973917033187949;-6.2641;1.4076;-5.3988;
973917043282897;-3.9263;2.3946;-4.1889;
973917053387220;-12.2770;1.1991;-5.2621;
973917063491491;-19.0394;1.8963;-4.8742;
973917073611856;-11.1269;2.7969;-3.4155;
973917083716178;-7.7255;2.3321;-4.9388;
973917093820449;-5.6127;1.9920;-2.7135;
973917103897116;-2.8603;3.0532;-0.9742;
973917114001387;-5.0163;1.7788;-3.3051;
973917124105710;-9.4525;1.3382;-5.8373;
973917134225189;-12.9021;1.2709;-5.8349;
973917144329512;-13.3813;1.6328;-5.0635;
973917154433835;-9.4047;1.3860;-3.3721;
973917164529303;-8.1876;0.9763;-3.5375;
973917174633626;-7.1025;1.0316;-2.6704;
973917184737897;-5.8068;2.0566;-1.1635;
973917194838210;-7.9050;2.3345;-3.8752;
973917204942533;-10.8275;2.0207;-5.7317;
973917215046803;-10.7581;2.9719;-3.9497;
973917225186231;-9.7735;2.7945;-3.4753;
973917235290553;-10.3511;2.0088;-4.1315;
973917245394876;-8.4129;2.1622;-2.9172;
973917255463418;-6.9661;2.5502;-2.6536;
973917265567689;-7.3684;1.9226;-3.1352;
973917275671960;-8.2741;2.2268;-3.5207;
973917285798418;-9.8360;2.1263;-3.3769;
973917295902689;-10.2120;1.4530;-3.3242;
973917306006908;-9.1196;1.5467;-3.6428;
973917316116022;-10.0083;0.9667;-3.6380;
973917326220293;-9.3688;0.7370;-1.7985;
973917336324564;-6.9805;1.8413;-2.6345;
973917346404460;-8.4535;0.6505;-4.3519;
973917356508731;-9.7519;-0.2285;-3.9063;
973917366613001;-9.7137;1.1393;-3.3386;
973917376728626;-9.6395;1.5200;-3.6981;
973917386832897;-8.4488;0.8949;-3.9015;
973917396937168;-8.3818;1.3023;-4.9340;
973917407036126;-9.9652;1.1560;-3.9903;
973917417140397;-7.3612;1.4554;-1.5036;
973917427244668;-5.4712;0.7848;-2.7541;
973917437378314;-10.7677;-0.1974;-5.7532;
973917447482533;-11.8505;1.2613;-4.1913;
973917457586803;-9.1819;1.6232;-3.8512;
973917467661647;-10.1067;0.7056;-5.4179;
973917477765918;-8.7123;0.6266;-2.7757;
973917487870189;-5.3468;2.0590;-2.5265;
973917497972428;-6.0221;1.4435;-1.8272;
973917508076699;-4.7384;1.9226;0.0341;
973917518180970;-8.5232;2.0710;-11.3037;
973917528283210;-22.0050;-2.0061;-18.3081;
973917538387481;-17.6309;-1.4073;-2.8884;
973917548491751;-2.3405;3.5970;6.1307;
973917558594876;1.3917;2.3755;-0.7349;
973917568699147;-0.5007;0.0326;-5.9569;
973917578803418;-9.2850;-0.8707;-7.7178;
973917588917012;-16.1599;-0.4609;-5.2717;
973917599021283;-12.7319;1.6400;-3.4705;
973917609125553;-13.4602;0.3081;-4.8263;
973917619226439;-9.8384;1.0220;-2.2343;
973917629330710;-3.6171;2.1646;-0.3945;
973917639434981;-5.2268;1.0938;-4.2108;
973917649534043;-6.9063;0.4735;-2.0139;
973917659638314;-10.1186;1.1656;-2.4476;
973917669742585;-13.0603;0.8734;-5.4706;
973917679846439;-10.9020;0.1451;-3.8082;
973917689950710;-8.2932;1.6328;-4.0908;
973917700054981;-9.3544;0.6051;-3.9568;
973917710170918;-7.1794;0.4711;-1.8799;
973917720275189;-6.8991;1.3238;-3.6165;
973917730379460;-8.8944;1.1201;-5.2792;
973917740449147;-11.3474;0.3727;-3.4657;
973917750553418;-10.7629;1.5897;-2.8235;
973917760657689;-9.1460;1.9202;-3.2788;
973917770813626;-8.6907;1.6854;-3.6212;
973917780917897;-8.8418;2.1383;-3.8393;
973917791022116;-8.1781;2.3922;-2.6082;
973917801106751;-6.1923;2.0375;-2.1218;
973917811211022;-8.9877;1.5200;-4.7689;
973917821315293;-13.3119;1.3430;-3.7819;
973917831410606;-10.0466;1.4148;-0.9096;
973917841514876;-6.6476;1.9657;-3.9760;
973917851619147;-8.4153;0.7466;-5.4969;
973917861750918;-8.5519;-0.4250;-3.8871;
973917871855189;-7.5147;-0.0320;-3.4825;
973917881959408;-9.1603;-0.2931;-4.2778;
973917892032376;-9.3066;-0.9784;-3.6284;
973917902136647;-9.6873;-0.1280;-4.5748;
973917912240918;-10.4563;-0.0873;-3.9473;
973917922349981;-8.5089;0.4445;-3.0464;
973917932454251;-8.6572;0.2195;-4.7088;
973917942558522;-7.9890;-0.0754;-3.4753;
973917952667272;-7.5434;0.7128;-2.7637;
973917962771543;-7.3588;0.2698;-3.8321;
973917972875814;-9.5940;0.2961;-4.3280;
973917982973106;-11.1030;1.2039;-4.3041;
973917993077376;-10.8227;0.3583;-4.4791;
973918003181647;-8.3076;0.4950;-3.4944;
973918013284356;-6.4247;1.4818;-5.1257;
973918023388626;-8.9877;-0.5112;-6.5581;
973918033492897;-9.4406;-0.5518;-3.5423;
973918043599981;-6.6428;1.8485;-3.5303;
973918053704251;-7.4979;0.7104;-5.8253;
973918063808470;-10.0418;-0.2477;-5.7820;
973918073919303;-10.9666;1.3478;-4.6418;
973918084023522;-9.9867;1.4076;-4.0023;
973918094127741;-7.5362;1.0053;-3.2548;
973918104230606;-5.6103;2.0880;-3.6117;
973918114334824;-6.4223;1.4459;-4.6848;
973918124439147;-9.6897;-0.0129;-6.2874;
973918134592793;-11.7404;0.3488;-6.0072;
973918144697012;-11.7882;0.1379;-4.1243;
973918154801283;-9.1149;0.4181;-2.9435;
973918164842793;-6.5635;1.6208;-3.4155;
973918174947064;-7.2488;0.4038;-4.4070;
973918185051335;-7.6534;-0.2453;-4.1865;
973918195193106;-7.4955;0.4421;-4.4022;
973918205297324;-10.5162;0.0230;-6.5533;
973918215401595;-14.0207;-0.2381;-4.9340;
973918225466126;-9.6993;1.8437;-1.5972;
973918235570397;-6.8342;2.5478;-3.7531;
973918245674668;-8.0369;0.7223;-4.9292;
973918255804668;-8.8753;0.9332;-3.2931;
973918265908991;-8.3913;1.0026;-2.8980;
973918276013262;-8.8657;-0.1448;-4.3208;
973918286120293;-9.4023;-0.9066;-4.9077;
973918296224616;-9.7735;-1.0836;-4.2778;
973918306328887;-9.6802;-1.8311;-3.2764;
973918316412168;-8.8442;-1.8694;-3.0870;
973918326516491;-10.3702;-2.0779;-4.3591;
973918336620762;-9.7304;-2.7341;-2.8235;
973918346728939;-6.8198;-1.9149;-3.0009;
973918356833262;-8.2549;-1.9726;-4.0406;
973918366937533;-9.0718;-2.8014;-2.5744;
973918377060606;-7.7136;-1.5724;-3.2070;
973918387164928;-9.6060;-0.9903;-5.4730;
973918397269199;-10.0633;-2.0707;-4.0454;
973918407370606;-8.0082;-1.5508;-3.7699;
973918417474928;-8.4802;-0.5877;-5.4778;
973918427579199;-9.7902;-1.3089;-4.7641;
973918437678314;-11.1464;-0.4298;-4.2706;
973918447782585;-10.3316;0.6817;-4.8790;
973918457886908;-7.8308;0.6027;-4.1459;
973918467972793;-5.5624;0.7128;-3.9520;
973918478077116;-8.5711;1.0053;-4.0908;
973918488181387;-8.7939;0.9476;-2.2199;
973918498302012;-7.6920;2.0518;-3.7986;
973918508406283;-11.0910;2.1287;-7.1955;
973918518510606;-12.7367;0.6314;-4.6202;
973918528605814;-8.3913;1.2951;-1.7985;
973918538710137;-6.7002;2.6629;-4.0190;
973918548814408;-6.8967;1.5658;-4.9388;
973918558919564;-8.2597;0.5261;-4.1028;
973918569023887;-9.2106;1.2254;-3.8824;
973918579128158;-8.6357;1.4650;-4.6370;
973918589228001;-9.4860;1.0149;-5.8516;
973918599332324;-10.1163;-0.0730;-3.4178;
973918609436595;-7.9484;0.8614;-1.5446;
973918619566960;-8.4583;1.4554;-5.6073;
973918629671283;-12.5524;0.4086;-4.5006;
973918639775553;-7.6705;0.8949;-0.4953;
973918649864251;-7.1387;1.1201;-3.0846;
973918659968574;-9.2130;0.4493;-2.0426;
973918670072845;-6.9326;0.9069;-1.7432;
973918680180189;-11.4410;1.2903;-6.6278;
973918690284512;-14.7778;-0.2883;-3.6667;
973918700388783;-8.2358;0.3033;-0.8450;
973918710493314;-5.7467;1.7261;-3.4609;
973918720597637;-6.5563;0.0326;-2.0569;
973918730701908;-7.4907;1.1512;-2.8211;
973918740786543;-9.9078;1.8245;-4.6035;
973918750890814;-13.3525;0.9906;-3.8967;
973918760995137;-11.2899;1.8796;-4.3424;
973918771096856;-10.7845;1.2975;-3.9377;
973918781201178;-7.2583;1.5395;-1.0128;
973918791305449;-3.6266;2.1742;-2.1529;
973918801422272;-6.1995;1.5562;-4.4596;
973918811526543;-9.8025;1.8027;-3.2309;
973918821630866;-11.4000;1.4459;-3.4442;
973918831737376;-11.6830;0.7319;-4.6537;
973918841841699;-10.5042;0.3799;-3.7172;
973918851945970;-8.6596;0.7753;-4.1841;
973918862039356;-8.3291;0.1499;-4.0860;
973918872143626;-6.5803;-0.0873;-2.1386;
973918882247949;-7.0092;1.4483;-4.6011;
973918892362012;-9.9891;0.2363;-5.4969;
973918902466335;-9.3999;-0.2979;-4.0358;
973918912570606;-8.7724;1.4770;-5.4443;
973918922689251;-9.5342;0.1020;-4.3328;
973918932793574;-8.8968;0.2794;-3.2142;
973918942897845;-8.2334;1.7931;-4.9149;
973918952990189;-8.9423;0.6840;-4.4501;
973918963094512;-4.4100;0.7729;-3.8321;
973918973198783;-1.3367;1.5802;-6.0048;
973918983302897;-14.7443;-0.6120;-6.1152;
973918993407220;-20.8648;0.5070;-2.4882;
973919003511491;-12.5836;4.6989;-4.1076;
973919013616699;-9.6562;2.6509;-5.5570;
973919023721022;-5.5576;1.0890;-3.2548;
973919033825293;-2.6160;2.2101;-1.5350;
973919043924408;-1.6887;1.5538;-1.8129;
973919054028626;-5.0234;1.4483;-6.3162;
973919064132949;-13.9537;0.1068;-9.7801;
973919074241543;-16.8165;-1.6537;-5.8397;
973919084345814;-8.6213;1.0890;-2.6943;
973919094450137;-6.7313;2.1311;-6.1702;
973919104541751;-7.9627;-1.5078;-5.2911;
973919114646022;-6.8031;0.5477;-3.7436;
973919124750345;-7.8404;0.9069;-3.9497;
973919134857168;-8.2406;0.5668;-2.9243;
973919144961491;-8.6979;1.5945;-5.0133;
973919155065762;-13.9370;0.8471;-5.5905;
973919165214824;-12.6290;0.2506;-1.0630;
973919175319095;-7.0283;2.9240;-1.5398;
973919185423418;-7.3708;1.4578;-4.3065;
973919195481439;-7.0283;0.2794;-3.9326;
973919205585762;-6.8656;0.7848;-4.6872;
973919215690033;-10.1139;-0.5806;-4.4886;
973919225788939;-8.4153;-0.2524;-3.4777;
973919235893262;-10.7414;-0.1878;-6.1702;
973919245997533;-12.0135;-1.2179;-4.0645;
973919256128314;-6.7887;0.4612;-2.4141;
973919266232585;-7.2320;0.7223;-5.0922;
973919276336908;-10.1282;-0.2429;-4.1483;
973919286413731;-8.9542;0.7152;-2.3662;
973919296518053;-8.6477;0.6625;-3.1926;
973919306622324;-9.6993;-0.4346;-3.0846;
973919316738835;-9.4190;0.2578;-2.6847;
973919326843106;-8.7413;0.2052;-2.7446;
973919336947428;-8.4993;0.5668;-3.5495;
973919347053106;-9.2584;0.4349;-3.9736;
973919357157428;-8.4488;-0.5040;-3.1110;
973919367261699;-7.1267;0.6649;-4.3304;
973919377384095;-9.2827;0.0709;-6.3257;
973919387488366;-10.5353;-0.7460;-5.4945;
973919397592689;-9.3784;0.2722;-3.1352;
973919407680710;-6.7457;1.4435;0.2163;
973919417784981;-0.3520;2.0016;1.0187;
973919427889303;-9.2345;1.2661;-13.8455;
973919438019981;-25.1886;-1.1557;-20.0330;
973919448124251;-16.1982;-2.9402;0.6882;
973919458228574;-1.6433;4.3062;5.2086;
973919468322845;1.7321;4.3612;-1.4725;
973919478427116;-2.3572;-0.2740;-5.4084;
973919488531439;-9.4908;-0.4753;-5.1784;
973919498611856;-12.5142;2.3393;-3.2620;
973919508716126;-14.2795;2.8376;-6.4146;
973919518820449;-17.3818;1.7405;-7.0038;
973919528921178;-8.3937;1.7357;0.5827;
973919539025449;-0.2827;1.8796;-0.2892;
973919549129772;-4.6065;1.2278;-5.9498;
973919559242272;-7.5171;0.2076;-4.4501;
973919569346543;-10.3989;1.3214;-6.3691;
973919579450918;-15.3479;1.2903;-6.0574;
973919589551751;-11.2182;-0.0176;-3.3745;
973919599656074;-7.7686;0.8231;-5.1042;
973919609760345;-8.2741;-0.3628;-2.6393;
973919619841335;-5.5744;-0.4155;-0.2581;
973919629945658;-6.9087;1.3430;-2.3471;
973919640049928;-7.3684;0.6769;-3.9640;
973919650173939;-11.6348;-0.1735;-5.0396;
973919660278210;-14.6821;0.0494;-3.0918;
973919670382533;-9.6108;0.2961;-0.7226;
973919680487168;-8.1111;1.4411;-3.5518;
973919690591439;-9.6634;0.7199;-2.7852;
973919700695762;-7.4405;1.4841;-1.5302;
973919710816126;-6.8414;2.3659;-3.1854;
973919720920397;-9.1771;1.3908;-3.9544;
973919731024720;-10.2550;0.7418;-3.8417;
973919741128939;-9.8862;1.4148;-3.5040;
973919751233210;-9.7304;1.4004;-3.7077;
973919761337533;-8.5017;0.1762;-3.2501;
973919771434564;-7.2775;0.9835;-3.0248;
973919781538835;-8.1661;1.1536;-3.0823;
973919791643158;-10.7653;-0.2070;-2.8044;
973919801739668;-10.0155;0.1762;-2.2941;
973919811843939;-10.3029;0.9547;-2.7589;
973919821948262;-11.4000;0.0733;-2.9028;
973919832058210;-9.1292;0.6625;-2.2487;
973919842162481;-6.3817;1.3789;-3.1950;
973919852266803;-6.0751;0.1211;-3.9712;
973919862368939;-8.1159;-0.1831;-4.5102;
973919872473210;-9.6491;0.4564;-5.6910;
973919882577533;-10.9810;-0.2859;-5.4467;
973919892694772;-10.6023;0.9069;-4.5915;
973919902799043;-8.4009;1.5395;-4.4357;
973919912903366;-7.9364;0.5883;-3.5590;
973919922993835;-7.8332;1.4052;-4.1435;
973919933098106;-9.1651;1.0962;-4.9842;
973919943202428;-10.8467;0.2770;-4.7641;
973919953302376;-9.1388;1.5562;-3.5638;
973919963406699;-7.9292;1.2903;-3.9063;
973919973510970;-7.7160;0.3200;-4.0956;
973919983615501;-7.4979;0.6745;-2.5768;
973919993719824;-9.2201;0.4735;-3.8249;
973920003824095;-9.8384;-0.5710;-5.6480;
973920013932116;-10.5401;-0.2835;-6.3643;
973920024036335;-9.8384;-1.0860;-4.3735;
973920034140658;-6.6332;-0.8201;-2.6560;
973920044246751;-5.9073;0.3607;-4.8263;
973920054351022;-8.6213;-1.6298;-6.8599;
973920064455397;-9.7878;-2.2146;-5.9091;
973920074605710;-8.9925;-0.1615;-4.4094;
973920084709981;-10.0107;-0.2381;-3.3912;
973920094814303;-8.1541;0.8447;-1.8009;
973920104881335;-6.0703;2.7802;-4.8024;
973920114985606;-11.3713;0.4759;-6.2611;
973920125089928;-10.3606;0.7777;-1.8464;
973920135204981;-5.0761;2.9575;-0.6437;
973920145309251;-7.3684;1.0388;-7.3032;
973920155413574;-13.1560;-0.0802;-8.0291;
973920165488001;-13.3693;0.0852;-3.8225;
973920175592272;-8.7341;1.6567;-0.7226;
973920185696595;-5.1096;2.1861;-1.2643;
973920195811751;-5.6366;0.4807;-5.1568;
973920205916074;-8.6620;-1.0789;-5.6839;
973920216020345;-10.2407;-0.5638;-3.8225;
973920226141335;-10.2670;-0.2333;-4.0214;
973920236245606;-9.8240;-1.0980;-3.6790;
973920246349928;-9.9341;0.1666;-3.7938;
973920256421022;-10.9929;-0.0559;-3.7077;
973920266525241;-7.8332;0.1355;-1.6857;
973920276629512;-4.7504;0.8710;-3.0559;
973920286742793;-8.3650;-0.9544;-3.6909;
973920296847012;-11.9246;-0.6287;-2.3375;
973920306951231;-11.2229;0.5979;-2.9052;
973920317073210;-11.8457;-0.6024;-5.0587;
973920327177428;-7.7877;-1.5987;-2.8741;
973920337281699;-7.1216;-1.0860;-1.9564;
973920347376231;-8.6716;-0.9114;-3.8345;
973920357480449;-8.1948;-1.0980;-6.5294;
973920367584720;-10.0394;-1.5652;-7.0732;
973920377697845;-9.4262;-1.3041;-3.4848;
973920387802064;-7.4237;-0.6502;-1.4486;
973920397906283;-8.6166;0.4902;-4.7183;
973920408006543;-9.3927;0.7319;-5.7269;
973920418110762;-10.0442;0.1499;-4.3831;
973920428214981;-10.0804;0.8638;-2.4715;
973920438307428;-6.7289;2.1837;-2.2510;
973920448411647;-8.3100;2.2771;-6.9392;
973920458515866;-11.6539;0.5429;-6.9488;
973920468631335;-7.3253;-0.2213;-1.2544;
973920478735553;-6.2426;1.6184;-2.4811;
973920488839772;-8.2167;1.5296;-5.0898;
973920498936439;-9.1843;0.2387;-5.4682;
973920509040658;-12.4469;-0.1687;-5.5618;
973920519144928;-10.3798;0.0278;-2.9985;
973920529247897;-7.4644;0.3368;-2.3949;
973920539352116;-7.9388;0.1786;-3.1301;
973920549456387;-6.5444;-0.0129;-2.0716;
973920559554772;-7.0403;-0.0368;-4.1722;
973920569658991;-9.6156;-0.0200;-6.3162;
973920579763210;-11.0192;0.1379;-4.4309;
973920589871439;-11.9584;-0.6072;-3.1854;
973920599975658;-10.8491;-0.3485;-2.8403;
973920610079876;-7.7231;0.3440;-1.1180;
973920620185293;-7.0570;0.6266;-2.3877;
973920630289512;-8.2430;0.9404;-3.4561;
973920640393731;-7.0786;1.0723;-3.6380;
973920650491543;-11.6037;0.9476;-4.1507;
973920660595762;-11.2899;0.6170;-2.4715;
973920670699981;-7.6176;0.8925;-3.1325;
973920680810606;-9.3640;2.0351;-5.8158;
973920690914824;-9.0168;2.2005;-3.5758;
973920701019095;-5.7132;1.6591;-3.0894;
973920711121647;-9.0000;1.6878;-5.4730;
973920721225866;-11.1799;1.5706;-2.4404;
973920731330085;-8.1111;0.6553;-1.2497;
973920741447168;-11.2780;1.7548;-6.5198;
973920751551387;-12.3607;1.8413;-6.1917;
973920761655606;-7.5123;0.8495;-1.9732;
973920771757376;-5.9432;1.1704;-0.6078;
973920781861595;-5.5840;1.5514;-1.6379;
973920791965814;-8.1135;1.0699;-5.1736;
973920802069251;-13.5754;0.4158;-6.8025;
973920812173470;-12.5070;-0.1543;-4.1339;
973920822277689;-9.1603;0.0805;-4.2371;
973920832380189;-8.9542;0.9954;-5.0348;
973920842484408;-6.6045;-0.0344;-3.0224;
973920852588626;-6.4487;-0.2716;-3.4777;
973920862689772;-7.8404;0.0302;-4.7160;
973920872793991;-7.2583;-0.0057;-5.2816;
973920882898210;-11.1464;-0.6072;-6.2563;
973920893005606;-10.6863;-0.5638;-3.8082;
973920903109824;-9.2731;0.1594;-2.3806;
973920913214095;-9.2321;0.2267;-3.4968;
973920923308106;-6.7122;1.3741;-3.6308;
973920933412324;-8.1975;0.8327;-4.0884;
973920943516595;-10.5664;0.5524;-4.8885;
973920953612168;-8.4559;0.7896;-3.9230;
973920963716387;-9.0311;0.1044;-5.4299;
973920973820606;-8.9949;-0.4202;-5.7748;
973920983939668;-7.4548;-0.4035;-3.4753;
973920994043887;-7.1459;-1.2179;-3.7029;
973921004148106;-10.0155;-1.1581;-4.8718;
973921014255814;-10.2526;-1.0813;-3.8680;
973921024360085;-8.6094;-1.4097;-3.0607;
973921034464303;-10.0155;-0.2788;-6.0479;
973921044568626;-10.3029;-0.2022;-6.0864;
973921054672845;-6.6858;-0.5806;-2.1840;
973921064777064;-7.2033;0.0876;-3.3386;
973921074868991;-9.4334;0.2937;-6.2109;
973921084973210;-8.3483;0.3272;-5.3821;
973921095077428;-8.1350;0.6912;-4.3352;
973921105208731;-10.0875;-0.2812;-4.5174;
973921115312949;-10.0155;0.3057;-3.0703;
973921125417168;-7.9819;1.5419;-2.2845;
973921135499876;-7.2440;1.7524;-4.3137;
973921145604095;-9.5291;1.8197;-5.6408;
973921155708314;-11.2110;1.2015;-4.9005;
973921165822376;-8.2621;1.1201;-3.3984;
973921175926595;-8.8418;1.3310;-4.4022;
973921186030814;-9.4454;0.2028;-3.9473;
973921196137845;-6.8776;0.0063;-1.5278;
973921206242064;-8.5304;0.6912;-4.3256;
973921216346335;-10.4874;-0.0730;-5.6049;
973921226462585;-9.0359;-0.7747;-4.2275;
973921236566803;-10.8012;-0.7340;-6.0000;
973921246671022;-10.6289;-1.4121;-4.4381;
973921256751751;-6.1612;-0.3242;-1.1324;
973921266856022;-6.1325;-0.2524;-2.2534;
973921276960241;-7.5314;-0.1280;-4.2897;
973921287069460;-10.4420;-0.2764;-4.9292;
973921297173731;-11.6635;-0.6168;-3.6093;
973921307277949;-8.4464;-0.3891;-3.0200;
973921317383418;-9.3640;-0.0440;-4.9747;
973921327487689;-9.6778;-0.5327;-4.0238;
973921337591908;-5.1550;-0.3939;-2.6943;
973921347693210;-6.1732;-0.2333;-4.4094;
973921357797481;-9.9987;-0.7579;-4.1483;
973921367901699;-13.0050;-0.6766;-4.2754;
973921378012428;-13.3143;0.3416;-5.5137;
973921388116699;-10.1258;0.6984;-3.8871;
973921398220918;-9.4645;1.1297;-2.4380;
973921408323001;-6.5635;1.6591;-0.7226;
973921418427272;-1.7198;2.3369;-1.3720;
973921428531491;-4.0436;2.2101;-7.8805;
973921438641231;-11.9991;0.3224;-9.5743;
973921448745449;-14.0952;-0.9520;-4.9412;
973921458849720;-12.1810;0.5477;-3.3625;
973921468934460;-8.6189;1.3669;-3.3123;
973921479038731;-7.1363;0.5644;-1.9612;
973921489143001;-7.7351;1.5153;-1.8751;
973921499243314;-7.9292;2.2747;-3.3338;
973921509347585;-10.5520;1.7285;-5.1736;
973921519451803;-10.8395;1.1130;-3.8536;
973921529566751;-7.1530;0.9858;-3.0511;
973921539670970;-9.2130;0.6888;-3.8225;
973921549775241;-9.7400;0.0829;-2.5744;
973921559876543;-6.2067;0.2171;-2.0955;
973921569980762;-7.7901;0.0374;-4.3352;
973921580085085;-9.7017;-0.3628;-5.0348;
973921590194876;-9.7543;-0.2142;-3.5327;
973921600299147;-10.9235;0.1283;-3.2213;
973921610403366;-10.5042;0.4831;-3.5949;
973921620483574;-9.0311;0.9332;-1.8153;
973921630587793;-7.0140;1.9825;-1.1013;
973921640692064;-8.6572;2.0136;-2.7254;
973921650818053;-9.9102;2.3683;-3.8058;
973921660922324;-8.5735;2.4233;-4.1076;
973921671026543;-10.1378;1.3669;-3.5255;
973921681134043;-8.2860;1.7237;-0.9574;
973921691238314;-6.2833;2.6390;-2.4954;
973921701342585;-8.6309;1.1656;-5.8947;
973921711444668;-10.7246;0.4854;-6.5701;
973921721548939;-11.5726;0.4493;-3.8417;
973921731653158;-9.2297;0.3894;-1.2449;
973921741773731;-8.6070;1.4650;-1.2449;
973921751877949;-8.5017;0.8638;-2.9530;
973921761982220;-9.1316;0.9428;-3.4561;
973921772071543;-6.8318;1.3406;-1.7169;
973921782175814;-7.1770;0.9500;-3.7412;
973921792280033;-12.2507;0.2001;-7.7728;
973921802380606;-13.1321;-0.1232;-6.6517;
973921812484876;-10.0609;-0.6646;-2.7182;
973921822589095;-5.3850;1.1608;-1.8296;
973921832701178;-4.8221;0.7537;-4.1507;
973921842805449;-8.6596;-0.7172;-5.1832;
973921852909668;-7.7782;0.8806;-1.2739;
973921863008939;-5.7132;1.9083;-2.1888;
973921873113210;-10.0274;2.0638;-8.9010;
973921883217428;-19.1952;-0.2453;-6.5844;
973921893315397;-16.1097;0.7466;-0.4184;
973921903419668;-6.7385;3.9299;0.1851;
973921913523939;-2.9010;4.2679;-3.6452;
973921923628210;-6.4487;1.8987;-5.9067;
973921933732481;-6.5779;-0.8731;-3.3171;
973921943836699;-6.7098;0.6984;-4.5724;
973921953943470;-12.4493;1.1871;-8.4218;
973921964047637;-13.3214;-1.0095;-5.4156;
973921974151908;-8.7171;-0.0129;-1.7862;
973921984268418;-6.1804;1.5610;-3.7053;
973921994372689;-7.4046;0.7896;-5.4084;
973922004476960;-9.6515;-0.8034;-3.6814;
973922014571543;-7.7112;0.1499;-3.2189;
973922024675762;-7.1865;1.2832;-4.4620;
973922034780033;-9.1101;0.8853;-5.8851;
973922044880814;-11.2732;-0.3676;-5.2310;
973922054985085;-11.4266;-0.3556;-2.4500;
973922065089303;-7.4094;1.3167;-1.9851;
973922075224043;-7.0187;1.9394;-4.4189;
973922085328314;-9.1460;0.8303;-5.0994;
973922095432585;-10.0011;-0.5758;-4.2299;
973922105523939;-8.8466;-0.3891;-3.4657;
973922115628210;-8.2693;0.3631;-3.3745;
973922125732428;-9.2321;0.0996;-4.5508;
973922135847481;-9.9676;-0.3314;-4.1818;
973922145951699;-11.4218;-0.0057;-3.4011;
973922156055970;-8.3578;0.7968;-1.6714;
973922166135814;-6.6667;2.3058;-3.6380;
973922176240085;-9.0861;2.1144;-6.0550;
973922186344356;-11.2373;0.0685;-4.9388;
973922196454095;-10.5640;0.4038;-4.1865;
973922206558366;-8.4200;0.6601;-2.3830;
973922216662637;-6.6858;0.4878;-1.1372;
973922226752428;-5.6677;0.9835;-3.2931;
973922236856699;-9.5868;0.3248;-5.2792;
973922246960918;-12.1116;-0.1424;-3.8154;
973922257067585;-10.8829;1.4913;-2.7015;
973922267171803;-8.7628;1.4267;-2.2798;
973922277276074;-6.0607;2.1814;-3.3529;
973922287386126;-7.4596;2.1526;-5.1281;
973922297490345;-6.0509;1.3502;-4.4668;
973922307594616;-8.7748;1.7118;-5.9186;
973922317695710;-14.6294;0.8088;-7.2099;
973922327799928;-14.9480;0.4854;-6.4576;
973922337904199;-9.7328;1.8963;-4.6131;
973922348008210;-5.3587;2.1694;-1.3361;
973922358112481;-3.2483;2.4185;0.5707;
973922368216699;-4.0819;3.0102;-2.8092;
973922378324876;-8.9973;2.8905;-6.7522;
973922388429095;-13.3765;2.1790;-8.0602;
973922398533366;-13.6089;1.1177;-5.4467;
973922408634356;-9.5749;1.8317;-2.2678;
973922418738626;-5.4855;2.4066;-2.0668;
973922428842845;-7.6729;1.5129;-4.3232;
973922438976960;-8.7724;1.1130;-3.7771;
973922449081178;-8.1757;0.4516;-1.9445;
973922459185449;-6.2210;1.7501;-2.5624;
973922469269772;-5.7562;2.0809;-6.2109;
973922479373991;-12.8542;0.6290;-9.0233;
973922489478262;-14.6270;-0.9042;-4.6418;
973922499617272;-9.7328;-0.1639;-0.4929;
973922509721543;-7.7495;1.3956;-1.3313;
973922519825762;-5.2125;0.5740;-1.8416;
973922529878106;-7.1411;-0.2357;-4.3878;
973922539982376;-11.1918;-0.6407;-4.6370;
973922550086595;-9.3377;-1.0334;-1.8703;
973922560201595;-8.6213;0.1690;-2.7446;
973922570305866;-8.5184;0.8064;-3.9087;
973922580410085;-10.7390;-0.2859;-5.6240;
973922590513626;-14.9192;-0.8345;-3.7101;
973922600617845;-8.6572;0.9739;0.4032;
973922610722116;-4.5993;2.7682;-3.1014;
973922620807637;-8.6429;1.9777;-5.8828;
973922630911856;-8.1757;1.3502;-2.3973;
973922641016074;-7.0499;2.4832;-2.3303;
973922651120345;-7.9002;2.6533;-4.7641;
973922661261647;-11.1894;2.3539;-6.4409;
973922671365866;-12.4205;1.1465;-3.6571;
973922681470137;-8.9375;2.1191;-1.3385;
973922691561335;-6.6212;2.3731;-4.1100;
973922701665606;-9.5701;1.3095;-4.0645;
973922711769824;-8.3387;1.1321;-0.4881;
973922721870606;-4.6663;1.9825;-1.5084;
973922731974824;-7.8021;1.9250;-5.4586;
973922742079095;-11.0934;0.5501;-6.8842;
973922752181595;-14.6701;-0.9999;-8.6638;
973922762285814;-14.7251;-0.9138;-5.6192;
973922772390085;-7.5458;0.8375;0.3239;
973922782493626;-1.5978;2.2747;-0.3778;
973922792597845;-4.7934;1.1417;-5.2621;
973922802702116;-9.5964;-0.5207;-6.8889;
973922812808678;-12.8925;-0.4131;-4.5102;
973922822912897;-8.0632;2.1694;-2.1721;
973922833017168;-8.0178;3.1394;-5.1473;
973922843122428;-12.2483;1.2254;-4.5102;
973922853226647;-7.4405;1.3836;-2.2893;
973922863330918;-8.3028;1.9585;-6.9846;
973922873441856;-9.4382;0.7199;-6.7427;
973922883546074;-6.6667;1.6663;-3.1448;
973922893650345;-4.4916;1.2927;-2.3758;
973922903728783;-6.5973;1.2494;-4.5556;
973922913833001;-12.6769;0.8638;-7.3678;
973922923937272;-13.9537;0.2100;-6.7020;
973922934112533;-10.9092;0.6194;-4.8742;
973922944216699;-4.9107;-1.7067;-2.0474;
973922954320970;-0.9461;2.1096;-2.5672;
973922964364772;-2.6375;0.9882;-9.4974;
973922974469043;-13.6902;-1.8168;-18.7107;
973922984573314;-18.6200;-3.2587;-12.3123;
973922994718835;-9.2827;-0.6837;-1.0534;
973923004823053;-4.1560;1.2685;-0.4543;
973923014927324;-4.4916;1.8652;-4.5604;
973923025007376;-5.6222;0.2650;-4.5580;
973923035111595;-9.4980;1.0675;-4.8479;
973923045215866;-12.0852;2.7347;-5.2863;
973923055317689;-11.5678;3.2617;-5.5953;
973923065421960;-8.6644;2.3297;-3.0320;
973923075526178;-7.3998;2.2172;-1.4031;
973923085634147;-3.9574;2.7251;-2.5959;
973923095738366;-6.2593;3.2234;-5.0324;
973923105842637;-7.5960;4.1671;-4.0478;
973923115932168;-7.1554;6.2465;-5.9186;
973923126036439;-12.8566;4.4139;-8.6327;
973923136140658;-11.1078;4.2176;-7.8829;
973923146243262;-10.9187;3.7576;-7.4662;
973923156347481;-8.2214;3.6185;-4.1148;
973923166451751;-5.3898;3.1226;-4.0478;
973923176552168;-7.7566;2.1503;-5.2693;
973923186656387;-6.1828;1.5368;-4.4815;
973923196760658;-9.2058;0.5285;-3.7220;
973923206878522;-14.7227;-0.9090;-0.3993;
973923216982741;-9.8982;-1.7450;-0.7708;
973923227087012;-13.1369;-2.6623;-2.9411;
973923237186439;-11.4362;-5.1849;0.7720;
973923247290710;-5.7467;-3.6924;-1.5661;
973923257394928;-6.2450;-3.9105;-4.3256;
973923267493262;-9.0885;-5.7263;-3.5877;
973923277597533;-10.0851;-3.9416;-2.9506;
973923287701751;-9.8336;-1.9101;-3.4226;
973923297812272;-11.8146;-2.0420;-3.4896;
973923307916491;-8.9830;-2.7126;-2.6680;
973923318020762;-9.0479;-2.2768;-4.1865;
973923328130606;-7.5529;-2.7126;-2.7254;
973923338234876;-5.9336;-2.2696;-4.5437;
973923348339095;-8.2143;-1.5102;-6.1702;
973923358436439;-9.4884;-3.2013;-3.4442;
973923368540710;-10.4013;-2.0515;-3.5949;
973923378644928;-10.8781;-1.4408;-3.0583;
973923388762064;-9.5414;-2.1544;-3.3123;
973923398866335;-8.9112;-1.3615;-3.2381;
973923408970553;-9.6443;-1.7306;-4.6537;
973923419064147;-8.6620;-1.4022;-4.6346;
973923429168366;-7.5147;-1.2993;-4.3017;
973923439272637;-8.5137;-1.6513;-6.3257;
973923449377376;-8.2095;-0.9664;-6.2970;
973923459481647;-8.0369;-1.1533;-6.7881;
973923469585866;-8.6596;-0.8584;-5.6192;
973923479689928;-7.2272;-0.1543;-5.8780;
973923489794147;-9.5868;0.2243;-8.6375;
973923499898418;-10.9570;0.8542;-6.9535;
973923510001126;-7.3469;0.5548;-3.8967;
973923520105397;-7.2440;0.8806;-5.5642;
973923530209616;-8.2765;0.0996;-5.5929;
973923540322272;-8.1015;0.6673;-5.1209;
973923550426491;-7.9938;2.1550;-7.4542;
973923560530762;-8.6548;0.9212;-5.4251;
973923570642897;-8.4033;1.5945;-4.1626;
973923580747116;-8.7317;0.8949;-6.3739;
973923590851387;-11.8792;1.2206;-9.4687;
973923600936126;-9.6562;-0.3051;-5.7676;
973923611040345;-6.9398;1.4961;-2.5504;
973923621144616;-3.7035;1.8126;-2.1338;
973923631277376;-5.3324;2.5095;-5.4179;
973923641381595;-9.0957;-0.3556;-5.8253;
973923651485866;-8.7509;-0.1352;-4.4958;
973923661575814;-10.4300;1.2975;-6.5222;
973923671680033;-11.8337;0.9045;-4.1507;
973923681784303;-6.9685;1.1058;-0.7253;
973923691883626;-4.1752;2.4640;-4.4862;
973923701987845;-8.0369;1.1058;-7.2410;
973923712092116;-10.5975;-0.8560;-4.2873;
973923722196543;-8.7628;1.5057;-5.0970;
973923732300762;-10.0851;0.9547;-5.7556;
973923742405033;-10.7175;0.6673;-5.1018;
973923752505710;-8.6955;0.5644;-2.5935;
973923762609928;-7.3373;2.1407;-3.1229;
973923772714199;-8.8609;0.8877;-2.5098;
973923782826595;-8.2669;1.9250;-1.3576;
973923792930866;-4.6854;1.2374;-0.7421;
973923803035085;-4.0507;1.7548;-4.8168;
973923813128210;-4.5203;0.3464;-7.1115;
973923823232428;-1.1450;1.7524;-5.7078;
973923833336699;-15.1059;0.5381;-5.3414;
973923843451231;-31.5918;1.0938;0.9541;
973923853555449;-16.1504;1.5778;6.9595;
973923863659720;-5.5313;-0.1137;2.0130;
973923873786178;-3.6003;-1.8215;-3.1253;
973923883890397;-4.3789;0.5261;-5.4012;
973923893994668;-6.8656;0.6170;-6.2468;
973923904098835;-10.0537;0.6505;-3.6332;
973923914203053;-8.2549;-1.0573;-1.1994;
973923924307324;-11.6901;-2.8397;-1.7767;
973923934377533;-13.2709;-5.0698;-1.3146;
973923944481803;-10.5449;-5.7263;-1.1707;
973923954586074;-9.0383;-6.7418;-2.6082;
973923964727376;-8.1565;-6.7588;-3.1158;
973923974831595;-8.7461;-4.9454;-3.0296;
973923984935866;-7.6247;-3.3715;-2.4117;
973923994987376;-10.3989;-1.3759;-3.2070;
973924005091647;-12.1522;-0.6981;-1.8368;
973924015195866;-12.2507;0.6553;-2.1482;
973924025327689;-10.2981;0.1499;-2.2104;
973924035431908;-8.5304;0.7920;-3.0105;
973924045536178;-8.0536;0.2865;-4.2395;
973924055639981;-9.7280;1.5272;-3.8728;
973924065744199;-7.8906;0.6553;-4.5891;
973924075848470;-9.3281;0.7872;-4.1937;
973924085948939;-7.1985;0.7175;-4.3137;
973924096053158;-10.0418;-0.8632;-3.8560;
973924106157428;-10.7557;-1.5915;-2.8355;
973924116261022;-9.4717;-1.6274;-1.5972;
973924126365241;-8.7242;-0.2094;-1.6427;
973924136469512;-6.7433;-1.4886;-1.6187;
973924146570397;-7.6056;-1.6394;-1.6618;
973924156674616;-9.4669;-1.3400;-0.8521;
973924166778887;-6.6308;-0.0464;4.3077;
973924176892845;-3.7585;-2.2433;-5.8059;
973924186997064;-16.0092;-6.6509;-14.2023;
973924197101335;-22.4459;-5.1993;-10.8915;
973924207203418;-13.3454;-3.7762;1.3373;
973924217307637;-0.6562;-1.8024;3.1268;
973924227411908;2.8316;-4.6146;0.0485;
973924237525293;-4.3837;-3.1128;-4.8191;
973924247629512;-10.8347;-1.3639;-3.1543;
973924257733783;-11.0288;-0.2859;-0.3443;
973924267818001;-12.7609;-1.1868;-5.3677;
973924277922272;-13.6711;-2.0444;-5.6767;
973924288026491;-9.1508;-1.6394;0.1516;
973924298131960;-6.1995;-3.5656;-0.9311;
973924308236231;-7.7614;-2.2935;-3.8345;
973924318340449;-6.3191;-1.3424;-4.0884;
973924328441856;-7.9217;-1.8526;-3.9278;
973924338546074;-9.4860;-1.8503;-4.5341;
973924348650345;-8.9399;-2.0133;-5.0898;
973924358761595;-10.2479;-1.3376;-4.6274;
973924368865866;-8.5567;-1.6346;-3.8536;
973924378970085;-9.6778;-1.1581;-4.2514;
973924389080189;-9.6658;0.2243;-3.8010;
973924399184460;-6.7600;0.1834;-3.4059;
973924409288678;-9.0574;0.3176;-4.7207;
973924419378001;-8.5591;0.1235;-4.2203;
973924429482272;-8.7290;-0.0440;-3.2931;
973924439586491;-7.1818;0.4854;-4.3615;
973924449695710;-9.4286;0.4564;-5.2190;
973924459799928;-8.9207;1.2613;-3.9497;
973924469904251;-8.3578;0.4684;-4.1841;
973924480016335;-11.4817;-0.4083;-6.4816;
973924490120606;-7.4548;-0.4035;-3.5471;
973924500224876;-7.5362;-0.8010;-3.1519;
973924510323106;-10.8036;-0.3796;-5.3390;
973924520427376;-8.8226;-1.5461;-2.8860;
973924530531595;-9.0718;-1.2802;-3.5949;
973924540649303;-9.5052;-1.1390;-4.9364;
973924550753522;-9.8049;-1.5724;-3.8417;
973924560857793;-10.8733;-0.8489;-3.0464;
973924570957064;-9.7615;-0.6502;-3.3840;
973924581061283;-7.5194;-0.4968;-3.0057;
973924591165553;-9.3544;-1.0525;-2.8451;
973924601271022;-8.7820;-0.4490;-4.5245;
973924611375293;-9.5004;-0.9377;-3.3936;
973924621479564;-9.5773;-1.0071;-4.1674;
973924631599981;-8.4440;0.1953;-5.2119;
973924641704199;-9.7232;-0.7603;-4.5508;
973924651808470;-8.2789;-0.0344;-4.6418;
973924661882689;-7.5936;0.6912;-4.5389;
973924671986960;-8.2262;1.7189;-5.1185;
973924682091178;-9.5677;1.7381;-5.1018;
973924692211543;-8.8155;2.4975;-5.3031;
973924702315814;-6.5252;2.4855;-4.9460;
973924712419437;-9.2201;2.8639;-6.5198;
973924722529905;-9.6467;2.6028;-6.9224;
973924732634176;-8.4658;2.7179;-6.5605;
973924742738394;-8.8466;2.2268;-5.5786;
973924752826259;-7.9050;1.3908;-4.3926;
973924762930530;-7.1240;1.6376;-4.5245;
973924773034749;-9.1412;2.0833;-5.6671;
973924783143811;-8.9662;1.9178;-6.0936;
973924793248082;-9.0048;1.8221;-5.8851;
973924803352301;-7.8260;1.7836;-5.4419;
973924813445947;-7.2153;1.4435;-4.4958;
973924823550217;-6.6045;1.1871;-4.8885;
973924833654436;-8.5615;1.4459;-7.6768;
973924843766728;-10.2790;0.6194;-7.4207;
973924853870947;-9.2369;0.0757;-4.5341;
973924863975217;-9.5605;0.3583;-4.7375;
973924874155426;-8.2621;-0.7507;-3.9832;
973924884259644;-5.2196;-0.8273;-2.8522;
973924894363915;-6.1373;0.1068;-8.4458;
973924904404488;-12.2507;-1.2897;-6.6565;
973924914508759;-9.7280;-1.8311;-1.7575;
973924924612978;-6.7983;0.2602;-3.2620;
973924934713551;-7.7758;1.4219;-4.7064;
973924944817769;-9.1555;-0.0081;-2.7565;
973924954922040;-7.7495;0.1379;-1.3457;
973924964993655;-7.3469;0.9141;-0.6532;
973924975097926;-8.7218;-0.1519;-0.9718;
973924985202197;-10.0995;-0.3843;-0.8569;
973924995330426;-12.4205;-0.7460;-3.7842;
973925005434697;-13.4794;-0.1615;-3.5782;
973925015538967;-10.1713;1.5802;-1.6475;
973925025638447;-5.8834;2.1263;-2.4978;
973925035742717;-5.0402;2.2771;-5.8612;
973925045846936;-7.0164;2.4975;-4.8120;
973925055959697;-7.4118;2.6151;-6.2061;
973925066063967;-10.0585;1.8197;-5.6097;
973925076168186;-12.5836;1.4770;-4.9460;
973925086277978;-10.7701;0.3823;-4.2371;
973925096382249;-11.2971;-0.0945;-3.1974;
973925106486467;-7.7016;-0.7149;-1.6953;
973925116582301;-7.4859;-1.3424;-4.2156;
973925126686572;-9.1938;-2.9474;-2.8765;
973925136790790;-10.9020;-3.3547;-2.3252;
973925146900842;-9.8599;-3.2949;-1.3552;
973925157005113;-9.5629;-3.1582;-2.7685;
973925167109332;-9.6227;-3.4433;-3.2166;
973925177206155;-10.5377;-3.1319;-2.7637;
973925187310426;-9.3162;-2.6958;-1.2401;
973925197414644;-7.6223;-2.1664;-2.4835;
973925207531728;-10.1785;-2.0300;-2.8546;
973925217635999;-11.6563;-1.6633;-1.2497;
973925227740217;-9.7208;-1.2754;-1.0702;
973925237834697;-9.1508;-0.4394;-1.5278;
973925247938915;-7.0690;-1.4121;-1.4079;
973925258043186;-9.5028;-1.7952;-3.7699;
973925268172144;-9.4454;-1.1243;-2.4858;
973925278276467;-8.2214;-0.8946;-2.8884;
973925288380790;-10.2096;-0.8225;-3.6814;
973925298461155;-12.4469;-0.8850;-1.7961;
973925308565478;-9.2010;-1.1148;-1.1085;
973925318669801;-8.5256;-0.6957;-1.8272;
973925328774644;-8.9830;-0.7507;-2.8980;
973925338878967;-8.2573;-0.4298;-2.3830;
973925348983290;-8.4512;-1.1028;-2.1721;
973925359084905;-7.6729;-1.4336;-3.9736;
973925369189228;-9.3329;-1.2634;-4.7474;
973925379293551;-10.7103;-1.8407;-2.8116;
973925389398342;-10.4061;-1.4408;-1.8942;
973925399502665;-10.1474;-1.5628;-2.6728;
973925409606988;-8.3578;-0.8273;-2.6943;
973925419733342;-7.6992;-1.1195;-2.6297;
973925429837665;-9.1603;-1.2179;-3.4705;
973925439941988;-8.2741;-1.3304;-3.7196;
973925450024905;-10.1761;-1.9077;-4.2538;
973925460129228;-8.1805;-2.4179;-3.1902;
973925470233551;-8.0082;-2.3533;-3.7101;
973925480334905;-10.4898;-1.4456;-4.4692;
973925490439228;-9.9772;-1.4121;-2.6512;
973925500543551;-10.5760;-1.9316;-2.7039;
973925510643967;-6.9302;-1.4264;-2.3782;
973925520748290;-8.3746;-0.9616;-4.4046;
973925530852613;-9.8862;-0.5423;-5.4323;
973925540960947;-9.4884;-0.9377;-3.2788;
973925551065269;-8.8274;-0.5471;-3.3601;
973925561169592;-7.2464;-0.6144;-4.0095;
973925571302301;-8.3770;-0.8010;-5.9354;
973925581406624;-10.3005;-0.4274;-5.9976;
973925591510947;-12.0039;-0.5471;-2.5433;
973925601594384;-7.8165;0.4038;-1.4007;
973925611698707;-7.7806;1.3406;-3.6643;
973925621803030;-9.6730;0.9260;-4.7976;
973925631910738;-8.2023;1.4841;-3.0942;
973925642015061;-9.2154;1.3430;-2.8693;
973925652119384;-8.4969;1.4076;-2.8618;
973925662213967;-9.3473;1.3167;-4.1100;
973925672318290;-11.6516;1.1058;-4.6394;
973925682422613;-9.0072;0.0924;-1.8918;
973925692534801;-6.9182;0.2722;-2.9698;
973925702639124;-8.2238;0.8040;-4.7016;
973925712743447;-9.3544;0.1834;-4.6466;
973925722847092;-9.4382;0.4516;-3.3553;
973925732951415;-8.5376;-0.1878;-1.7551;
973925743055738;-9.0503;0.2746;-3.2668;
973925753165426;-8.7218;0.2411;-5.0898;
973925763269749;-8.8657;-0.4801;-5.6862;
973925773374072;-11.7332;-1.4671;-3.5566;
973925783469384;-10.3869;-1.9053;-1.4270;
973925793573707;-7.5506;0.0206;-2.1242;
973925803678030;-8.5519;0.3751;-3.9350;
973925813761884;-7.6534;0.1092;-5.1688;
973925823866207;-9.9006;-1.1509;-5.4610;
973925833970530;-8.7796;-0.4944;-5.2816;
973925844150426;-9.3808;-0.5638;-3.8680;
973925854254749;-9.8480;0.3033;-3.2453;
973925864359072;-6.5707;1.4985;-3.9664;
973925874412509;-9.9796;-0.1759;-5.5232;
973925884516884;-8.6357;-0.0583;-3.1831;
973925894621207;-6.6643;0.5142;-5.0946;
973925904723551;-11.7547;1.3956;-7.7800;
973925914827874;-7.6223;0.9404;-3.0081;
973925924932197;-7.8045;1.4004;-5.5328;
973925935003447;-10.8060;2.0064;-7.2841;
973925945107769;-9.1077;1.3238;-3.9832;
973925955212092;-7.7830;2.8232;-4.5485;
973925965353551;-8.3124;1.5081;-5.1592;
973925975457874;-9.1220;1.5009;-6.6685;
973925985562197;-9.5172;1.6089;-5.7724;
973925995646676;-7.9795;2.6076;-4.3902;
973926005750999;-7.8356;2.7491;-6.0479;
973926015855322;-8.7051;1.5419;-6.2755;
973926025967301;-7.2918;1.9657;-4.8000;
973926036071624;-9.0000;2.3707;-6.4672;
973926046175947;-5.6509;2.1120;-7.5643;
973926056283551;-2.0025;1.0579;-6.4481;
973926066387874;-10.5185;1.5754;-6.1008;
973926076492197;-10.1928;2.1885;-5.9928;
973926086586259;-11.7380;2.2723;-6.6326;
973926096690582;-14.1000;1.6065;-5.5328;
973926106794905;-7.7662;0.4974;-0.9072;
973926116916259;-4.7264;1.1177;-0.2701;
973926127020582;-6.6978;1.2565;-3.9473;
973926137124905;-8.5878;-0.2381;-5.5232;
973926147231467;-10.3125;-0.0849;-6.3978;
973926157335790;-12.7104;1.1106;-6.8384;
973926167440113;-10.4850;-0.0224;-0.9670;
973926177520842;-6.1134;0.7271;1.5410;
973926187625165;-4.9202;1.1249;-4.2347;
973926197729488;-7.1435;-0.4346;-7.3941;
973926207842405;-8.6381;-0.7244;-4.3280;
973926217946728;-10.0107;-0.1496;-3.5758;
973926228051051;-11.6372;0.9500;-3.3362;
973926238138030;-9.9485;0.6697;-1.1898;
973926248242353;-8.4224;0.5357;-0.2294;
973926258346676;-8.5089;1.5849;-0.7947;
973926268485842;-7.9866;1.5491;-2.4284;
973926278590165;-7.6681;2.3225;-3.8201;
973926288694436;-10.0155;2.2603;-4.4405;
973926298787561;-9.0742;2.8328;-2.9722;
973926308891832;-8.6357;2.9695;-3.3003;
973926318996155;-9.3640;2.6366;-3.2405;
973926329094801;-9.5243;1.6089;-2.3590;
973926339199072;-8.8872;1.7764;-2.8044;
973926349303394;-8.9758;0.0924;-4.3304;
973926359398655;-10.8180;-0.7962;-4.3687;
973926369502978;-9.2946;-0.4633;-1.7456;
973926379607301;-5.6175;-1.3041;-1.8846;
973926389718134;-8.5089;-0.5207;-5.4514;
973926399822405;-8.7194;-2.0611;-4.8766;
973926409926728;-12.6362;-2.6049;-6.6254;
973926420055009;-12.4301;-3.6398;-1.1396;
973926430159280;-6.8127;-3.5847;-1.9732;
973926440263603;-7.5338;-4.0540;-4.0262;
973926450341988;-10.2215;-3.0048;-2.9076;
973926460446311;-11.2421;-3.2683;-2.4643;
973926470550582;-10.6744;-2.6575;-3.0679;
973926480644436;-7.8571;-2.9593;-1.1922;
973926490748707;-8.4464;-3.1510;-2.1721;
973926500853030;-9.3233;-2.5953;-1.6044;
973926510970842;-9.4884;-2.3677;-2.4165;
973926521075113;-10.3534;-2.0803;-3.2357;
973926531179436;-11.2923;-1.8096;-1.3863;
973926541293967;-9.0287;-1.0813;-1.9947;
973926551398238;-8.2860;-1.4480;-1.4509;
973926561502561;-7.4812;-1.4767;-2.3204;
973926571590426;-9.6873;-1.3376;-3.4490;
973926581694749;-11.1006;-1.0813;-1.9971;
973926591799019;-10.1545;-0.5351;-2.2654;
973926601905217;-9.9987;0.3272;-2.2606;
973926612009488;-7.6705;0.4205;-2.0644;
973926622113811;-8.2932;0.3607;-2.6393;
973926632226311;-8.9877;0.9284;-2.2941;
973926642330582;-8.0489;-0.0009;-3.0296;
973926652434905;-10.1354;1.0172;-3.8225;
973926662533863;-10.3220;2.0399;-3.0703;
973926672638134;-9.9867;0.2530;-2.6177;
973926682742457;-8.3076;0.7848;-3.2548;
973926692848811;-7.4620;0.7585;-3.8991;
973926702953082;-9.0933;0.2913;-3.9350;
973926713057405;-8.3195;0.7681;-3.4729;
973926723154905;-8.4368;0.7633;-3.8656;
973926733259228;-9.7376;0.2124;-4.3304;
973926743363499;-10.3101;-0.3170;-3.8297;
973926753465113;-8.5400;-0.8608;-3.5495;
973926763569436;-7.6080;0.2124;-3.9473;
973926773673707;-9.1388;-0.5590;-3.5375;
973926783778811;-8.5902;-1.2203;-3.0057;
973926793883082;-9.8025;-1.0071;-3.9808;
973926803987457;-9.0096;-1.4599;-3.0344;
973926814148342;-7.7973;-1.8311;-2.6943;
973926824252613;-8.1302;-1.6971;-3.6981;
973926834356936;-9.7352;-2.5331;-4.6250;
973926844408447;-10.7701;-2.2863;-4.9029;
973926854512769;-8.4778;-2.2576;-2.8235;
973926864617040;-7.9627;-1.5437;-3.3625;
973926874765426;-7.5529;-0.8874;-3.9015;
973926884869697;-10.3678;-2.2337;-2.9722;
973926894974019;-10.2909;-1.5389;-3.0272;
973926905023342;-9.5076;-0.6909;-2.4380;
973926915127665;-10.4133;-1.1148;-2.6728;
973926925231936;-8.4849;-0.1519;-3.7388;
973926935357197;-7.9265;-0.8560;-3.0392;
973926945461519;-9.8671;-1.7282;-3.5830;
973926955565790;-9.9676;0.0398;-2.6800;
973926965668342;-7.8882;-0.2285;-0.8641;
973926975772613;-8.0967;0.2315;-4.5221;
973926985876936;-9.8384;0.7561;-4.9388;
973926995968447;-8.7509;-0.9879;-2.8235;
973927006072769;-10.9451;-0.3437;-5.1592;
973927016177040;-8.7604;0.6912;-3.9999;
973927026275947;-8.0513;0.1834;-2.0115;
973927036380269;-8.3818;0.8327;-3.4107;
973927046484540;-8.9566;0.1810;-4.7160;
973927056595478;-9.5821;0.1881;-3.5160;
973927066699749;-9.2827;0.8686;-2.8211;
973927076804072;-8.9638;0.6242;-4.1100;
973927086896988;-9.3162;0.4660;-3.9544;
973927097001311;-8.3578;-0.0802;-2.9961;
973927107105582;-10.2526;0.1427;-2.8211;
973927117237040;-9.9963;1.0842;-3.1158;
973927127341311;-8.0297;0.7490;-2.8980;
973927137445634;-7.7542;0.3823;-3.4298;
973927147544644;-9.5892;0.5213;-4.0884;
973927157648915;-9.7137;0.5979;-2.5696;
973927167753238;-8.0824;-0.0296;-3.4131;
973927177854280;-10.6385;0.4588;-4.6872;
973927187958551;-8.9758;0.5453;-2.4093;
973927198062874;-8.0154;-0.2524;-3.1926;
973927208169801;-9.9987;1.0507;-4.0741;
973927218274072;-7.7710;0.3009;-2.4380;
973927228378394;-10.0804;0.0541;-3.6957;
973927238492613;-9.2683;1.1273;-3.0942;
973927248596884;-7.7423;0.1953;-2.8717;
973927258701207;-11.0504;-0.0248;-4.1865;
973927268807509;-8.3507;0.6577;-2.3518;
973927278911780;-9.3401;-0.6622;-3.0057;
973927289016103;-10.7868;0.2889;-3.6667;
973927299105842;-7.7662;-0.0488;-2.0067;
973927309210113;-8.8059;-0.8058;-2.5576;
973927319314436;-8.4778;0.2626;-3.5997;
973927329415009;-8.5376;0.1116;-3.3721;
973927339519280;-12.7537;-0.2094;-2.9315;
973927349623603;-9.7041;0.4735;-2.1888;
973927359725842;-5.9097;0.1235;-2.6871;
973927369830113;-10.1067;-0.6598;-4.0908;
973927379934436;-11.1966;0.1187;-2.0234;
973927390032926;-5.8140;0.8925;-1.4581;
973927400137197;-9.1866;0.3416;-4.3496;
973927410241519;-11.7571;-0.0826;-3.3099;
973927420347822;-8.2813;1.2494;-1.3026;
973927430452092;-8.9782;0.7370;-3.3912;
973927440556363;-10.0490;0.1499;-3.4801;
973927450662978;-9.3568;0.4974;-2.4021;
973927460767249;-8.0704;0.5668;-2.2630;
973927470871519;-9.6873;0.0398;-3.5160;
973927480981572;-10.5927;0.6697;-3.0248;
973927491085842;-8.1589;0.2674;-2.0716;
973927501190165;-10.8829;0.3775;-2.3375;
973927511291467;-9.5004;0.5046;-1.8607;
973927521395738;-7.9170;0.2818;-1.6762;
973927531500061;-8.8466;-0.2213;-3.0775;
973927541619176;-11.2756;-0.2022;-2.9506;
973927551723447;-8.5280;0.3966;-1.2691;
973927561827769;-7.9484;0.2937;-2.7398;
973927571927822;-11.1102;-0.4370;-4.9819;
973927582032092;-11.7332;-0.1448;-3.5901;
973927592136415;-7.3277;0.9260;-2.4260;
973927602228394;-8.8633;0.4229;-3.7268;
973927612332665;-10.1091;0.5596;-3.5590;
973927622436988;-6.2450;0.9021;-1.6116;
973927632548863;-8.0441;0.2554;-3.2812;
973927642653134;-11.3761;-0.0706;-4.1674;
973927652757457;-9.3305;0.4493;-2.4188;
973927662860634;-9.7663;0.6553;-5.5137;
973927672964905;-12.8590;0.5572;-6.2348;
973927683069228;-8.2262;1.1991;-1.8033;
973927693165322;-4.4964;1.5224;-2.8068;
973927703269592;-6.9996;0.0446;-6.4696;
973927713373915;-7.5027;0.1857;-5.8971;
973927723485530;-8.1613;0.6027;-4.6226;
973927733589801;-9.5510;0.1522;-6.0263;
973927743694124;-10.2287;-0.1089;-6.9966;
973927753788967;-8.6931;-0.0826;-6.2085;
973927763893238;-7.0953;-0.0993;-5.6145;
973927773997561;-7.3421;-0.2979;-5.9474;
973927784151988;-8.4272;-0.0248;-5.6743;
973927794256259;-7.3421;0.0350;-3.8656;
973927804360530;-7.0211;0.1881;-5.2549;
973927814396467;-10.2885;-0.1711;-6.7331;
973927824500790;-11.0001;0.3009;-5.3366;
973927834605061;-10.4085;0.5285;-4.4958;
973927844766780;-10.4611;0.5309;-3.7412;
973927854871051;-8.1805;1.0747;-2.4978;
973927864975322;-5.8427;0.7944;-4.4862;
973927875026259;-7.4812;0.0182;-7.1907;
973927885130530;-7.3086;-0.7220;-6.6060;
973927895234853;-3.9694;-0.9999;-7.0349;
973927905378030;-6.8246;-0.8827;-8.7718;
973927915482301;-15.5013;-1.1988;-5.0133;
973927925586572;-13.4339;-0.4394;-0.7131;
973927935667092;-8.8179;0.9691;-3.8082;
973927945771363;-10.1019;1.6974;-7.4061;
973927955875686;-7.6633;-0.6646;-2.8669;
973927966003655;-3.7705;-0.5447;-1.1515;
973927976107926;-5.4664;0.8375;-5.5113;
973927986212249;-8.6046;0.1187;-8.0650;
973927996292405;-11.3019;-1.4432;-6.6852;
973928006396676;-11.4553;0.0613;-4.6322;
973928016500999;-10.8108;0.4349;-3.8584;
973928026644280;-9.6634;0.1738;-1.7264;
973928036748603;-6.2617;0.8758;-1.1348;
973928046852822;-6.8151;0.5859;-5.9474;
973928056920322;-11.2851;-0.8827;-6.0191;
973928067024592;-8.6189;-0.5423;-1.9828;
973928077128915;-8.2334;0.3033;-4.3113;
973928087240009;-9.8599;-0.2692;-5.1640;
973928097344280;-7.6582;-0.5136;-3.9015;
973928107448603;-8.0536;-0.6311;-4.9101;
973928117568447;-10.8084;-0.6718;-3.0511;
973928127672717;-8.6261;0.1475;-1.5876;
973928137776988;-9.1244;0.5309;-5.2310;
973928147868551;-10.3941;-0.0730;-4.9101;
973928157972822;-7.6681;-0.0320;-2.7326;
973928168077144;-9.3951;0.7271;-3.9544;
973928178176051;-7.9866;1.1321;-3.7436;
973928188280322;-10.6170;0.2746;-5.4060;
973928198384644;-11.5893;0.6170;-4.1148;
973928208487822;-7.9986;1.5754;-1.4055;
973928218592092;-6.1349;2.0231;-4.6083;
973928228696415;-9.0646;1.0986;-4.9747;
973928238805217;-7.8691;1.1441;-2.0186;
973928248909488;-6.9398;1.9561;-3.7675;
973928259013759;-10.4204;1.8556;-5.6934;
973928269136572;-10.8012;1.2661;-4.6609;
973928279240842;-9.1316;1.5200;-4.9627;
973928289345165;-8.9925;1.7166;-5.6527;
973928299425947;-8.7748;1.5368;-4.7880;
973928309530165;-8.7748;1.2446;-3.4490;
973928319634488;-8.6644;2.1000;-2.5720;
973928329741259;-8.0201;2.3563;-2.6106;
973928339845530;-7.6176;2.2507;-0.3060;
973928349949853;-3.7513;2.2531;1.7877;
973928360039801;-9.1675;4.3851;-11.5792;
973928370144072;-21.8447;1.7596;-19.4052;
973928380248394;-14.4592;-2.9091;1.4812;
973928390372613;-1.0947;0.8040;8.2651;
973928400476884;-1.9762;4.7324;-4.6753;
973928410581207;-5.7826;-1.2251;-5.8229;
973928420689280;-7.3277;-1.6035;-1.9445;
973928430793551;-10.2598;0.3033;-4.3711;
973928440897874;-16.6869;0.5070;-7.3774;
973928450983655;-16.1791;-0.8082;-2.1673;
973928461087978;-7.0307;0.5094;0.0556;
973928471192249;-5.2845;2.1957;-4.3089;
973928481298342;-5.9480;0.6314;-2.1840;
973928491402613;-5.3204;1.5538;-0.6939;
973928501506936;-8.5543;2.2795;-3.3051;
973928511608759;-13.4339;1.5993;-3.8154;
973928521713030;-14.6318;2.2388;-3.9206;
973928531817353;-11.3856;2.2675;-3.0703;
973928541913863;-7.0834;1.8556;-0.5767;
973928552018134;-4.9923;2.1526;-1.5422;
973928562122457;-4.8485;2.4999;-4.7136;
973928572264384;-7.5410;1.7405;-5.6623;
973928582368655;-13.1369;0.9787;-4.3567;
973928592472978;-12.3248;2.3154;-2.3590;
973928602543863;-7.4716;3.4439;-3.2405;
973928612648134;-8.7317;2.5908;-5.2143;
973928622752457;-10.1521;2.1574;-1.9899;
973928632875217;-6.8943;3.8940;-0.1071;
973928642979488;-7.3851;4.1456;-3.6404;
973928653083811;-10.6457;2.3659;-6.0670;
973928663174176;-9.7591;2.2675;-4.0789;
973928673278447;-8.3028;2.7802;-2.1290;
973928683382769;-8.4129;2.2340;-4.1435;
973928693485634;-9.2201;1.5419;-5.9306;
973928703589957;-8.7939;1.4626;-4.5006;
973928713694228;-7.5817;0.8231;-2.6249;
973928723793030;-6.9063;1.4052;-3.8656;
973928733897301;-8.7365;1.0149;-5.7341;
973928744001624;-11.2229;0.5405;-6.1726;
973928754133811;-10.9977;0.5907;-3.9111;
973928764238134;-9.1340;1.3717;-1.6499;
973928774342405;-6.6212;1.9777;-4.1507;
973928784401155;-10.2742;1.2951;-7.4542;
973928794505478;-9.9556;0.0637;-3.4490;
973928804609749;-5.5361;1.5176;0.8414;
973928814778134;-4.4028;2.0327;-3.6718;
973928824882405;-9.6084;1.0053;-9.9670;
973928834986728;-12.2530;-0.0081;-6.1319;
973928845062197;-10.4348;1.1704;-1.2568;
973928855166467;-8.5711;1.2951;-3.1472;
973928865270790;-9.0574;1.4315;-6.5940;
973928875354801;-9.6562;0.6601;-4.8407;
973928885459124;-7.0187;0.7848;-2.3566;
973928895563394;-5.3659;1.8796;-3.7388;
973928905665842;-8.2669;1.5562;-6.4720;
973928915770113;-10.9642;0.7729;-5.7915;
973928925874436;-11.4075;1.5706;-2.8546;
973928936011363;-9.0144;2.8881;-2.6512;
973928946115634;-7.2918;2.8065;-4.2945;
973928956219957;-8.3219;2.3922;-3.3171;
973928966309488;-7.7614;2.4832;-3.0272;
973928976413811;-8.2119;2.5286;-5.2334;
973928986518082;-12.4684;2.1048;-6.8001;
973928996615426;-12.3512;1.3454;-3.8465;
973929006719749;-6.6595;1.6663;-1.0152;
973929016824019;-5.5143;2.4784;-3.5853;
973929026928447;-9.6610;0.6314;-5.3509;
973929037032769;-10.8852;-0.0778;-2.0378;
973929047137040;-7.9747;1.6113;-2.2439;
973929057243134;-8.8155;1.9537;-6.6781;
973929067347405;-10.6337;-0.6072;-4.2227;
973929077451728;-6.2210;0.6410;-1.5278;
973929087548759;-7.5936;1.0364;-3.4107;
973929097653030;-11.7428;0.0733;-4.3400;
973929107757353;-11.4721;0.5405;-3.8321;
973929117881780;-10.3989;0.2363;-3.9015;
973929127986051;-7.6992;0.7585;-2.2965;
973929138090374;-6.9900;0.8495;-3.1711;
973929148194905;-7.2440;0.6529;-5.1975;
973929158299176;-8.3195;0.7920;-4.7112;
973929168403499;-10.5497;-0.0682;-4.6848;
973929178493863;-10.6624;-0.5112;-3.8082;
973929188598134;-7.8595;0.5309;-2.9195;
973929198702457;-8.1565;1.4865;-5.8158;
973929208813238;-8.8322;0.7944;-4.8168;
973929218917509;-8.7532;0.6242;-2.5217;
973929229021832;-9.6658;1.2159;-4.8981;
973929239113447;-10.1952;1.2063;-4.8957;
973929249217717;-6.1277;1.9753;-3.9326;
973929259322040;-4.6256;2.0710;-5.7006;
973929269452822;-6.0461;1.0555;-4.9723;
