Sensor: bmi160 Gyroscope Non-wakeup
Vendor: BOSCH
TimestampGyro [ns]; GyroX [rad/s]; GyroY [rad/s]; GyroZ [rad/s]
81705831500127;-0.0362;0.0273;-0.0194;
81705841612732;-0.0202;0.0284;-0.0184;
81705851719086;0.0277;0.0284;-0.0216;
81705861815804;0.0831;0.0326;-0.0194;
81705871917836;0.1609;0.0646;-0.0045;
81705882026429;0.2109;0.0869;0.0072;
81705892134086;0.1694;0.0603;0.0019;
81705902249659;0.0948;0.0177;-0.0088;
81705912322471;0.0522;-0.0079;-0.0109;
81705922447940;0.0117;-0.0441;-0.0099;
81705932534138;-0.0032;-0.0674;-0.0099;
81705942657679;0.0778;-0.0324;0.0083;
81705952763825;0.1832;0.0166;0.0264;
81705962862679;0.1971;0.0262;0.0296;
81705972974919;0.1236;0.0166;0.0306;
81705983079554;0.0107;0.0071;0.0338;
81705993184607;-0.1246;-0.0079;0.0274;
81706003288929;-0.2257;-0.0270;0.0168;
81706013399919;-0.1939;-0.0174;0.0136;
81706023500232;-0.2013;-0.0142;0.0157;
81706033608148;-0.1949;-0.0228;0.0189;
81706043717784;-0.1864;-0.0047;0.0242;
81706053836377;-0.1960;0.0252;0.0210;
81706063930075;-0.2130;0.0209;0.0093;
81706074031273;-0.2099;0.0092;-0.0056;
81706084137888;-0.2099;0.0124;-0.0077;
81706094273252;-0.2130;0.0198;-0.0045;
81706104351325;-0.2035;0.0198;-0.0013;
81706114446221;-0.1949;0.0305;-0.0024;
81706124552940;-0.2035;0.0603;-0.0045;
81706134688513;-0.2193;0.0774;-0.0056;
81706144780700;-0.2353;0.0561;-0.0099;
81706154883825;-0.2204;0.0337;-0.0056;
81706164985492;-0.2225;0.0305;0.0008;
81706175094346;-0.2289;0.0273;-0.0003;
81706185201013;-0.2236;0.0188;0.0008;
81706195302992;-0.2257;0.0156;0.0029;
81706205410232;-0.2257;0.0230;0.0083;
81706215516013;-0.1811;0.0411;0.0178;
81706225613148;-0.0927;0.0593;0.0360;
81706235729242;-0.0362;0.0624;0.0509;
81706245850336;-0.0724;0.0305;0.0498;
81706255939763;-0.1353;-0.0142;0.0413;
81706266046429;-0.1598;-0.0366;0.0413;
81706276149034;-0.1555;-0.0461;0.0445;
81706286253409;-0.1566;-0.0663;0.0477;
81706296363409;-0.1523;-0.0770;0.0573;
81706306468825;-0.1001;-0.0674;0.0636;
81706316574971;0.0234;-0.0281;0.0754;
81706326686950;0.1534;0.0273;0.0848;
81706336783096;0.1928;0.0529;0.0784;
81706346900388;0.0937;0.0358;0.0551;
81706357002575;-0.0288;0.0113;0.0370;
81706367107054;-0.1108;-0.0025;0.0370;
81706377213096;-0.1278;0.0081;0.0423;
81706387323825;-0.1236;0.0134;0.0381;
81706397426221;-0.1257;0.0060;0.0157;
81706407528929;-0.1033;0.0081;0.0019;
81706417642992;-0.0373;0.0092;-0.0035;
81706427731950;0.0554;0.0060;0.0019;
81706437849138;0.1896;0.0273;0.0178;
81706447961846;0.2887;0.0411;0.0221;
81706458061325;0.2951;0.0262;0.0115;
81706468172054;0.2951;0.0166;0.0040;
81706478275596;0.3547;0.0369;0.0083;
81706488384450;0.3899;0.0411;0.0146;
81706498487054;0.3931;0.0252;0.0072;
81706508588304;0.4430;0.0390;0.0210;
81706518696638;0.4632;0.0422;0.0210;
81706528801065;0.3398;0.0060;0.0349;
81706538910232;0.2397;-0.0196;0.0423;
81706549014346;0.3015;0.0177;0.0519;
81706559110909;0.3089;0.0220;0.0551;
81706569225804;0.2099;-0.0302;0.0413;
81706579349554;0.2088;-0.0398;0.0519;
81706589423409;0.3483;0.0028;0.0848;
81706599578304;0.4654;0.0486;0.1200;
81706609704294;0.5090;0.0816;0.1274;
81706619754815;0.4728;0.0848;0.1306;
81706629840336;0.4036;0.0763;0.1285;
81706639978200;0.3622;0.0859;0.1381;
81706650077367;0.2929;0.0720;0.1530;
81706660182211;0.1459;-0.0036;0.1466;
81706670322627;0.0352;-0.0377;0.1434;
81706680383929;0.1395;0.0475;0.1658;
81706690509034;0.2290;0.0880;0.1786;
81706700604763;0.1427;0.0326;0.1839;
81706710703773;0.0458;0.0209;0.1796;
81706720809763;-0.1161;-0.0025;0.1690;
81706730903096;-0.3269;-0.0780;0.1402;
81706740999138;-0.2779;-0.0876;0.1232;
81706751126482;-0.1854;-0.0121;0.1317;
81706761232992;-0.1768;0.0912;0.1274;
81706771335804;-0.2278;0.1136;0.1061;
81706781461898;-0.2608;0.0529;0.0763;
81706791563982;-0.2726;0.0049;0.0519;
81706801652315;-0.3333;-0.0324;0.0583;
81706811761325;-0.4174;-0.0514;0.0594;
81706821867263;-0.4292;-0.0121;0.0391;
81706831972054;-0.4217;0.0326;0.0061;
81706842069659;-0.4164;0.0688;-0.0301;
81706852221846;-0.4036;0.0869;-0.0280;
81706862289138;-0.4185;0.0688;-0.0120;
81706872398513;-0.4526;0.0209;-0.0194;
81706882495596;-0.4057;0.0188;-0.0493;
81706892590336;-0.3035;0.0635;-0.0503;
81706902698721;-0.2534;0.0987;-0.0461;
81706912807211;-0.2981;0.0646;-0.0599;
81706922932054;-0.3333;0.0124;-0.0823;
81706933040544;-0.2406;0.0390;-0.0748;
81706943148929;-0.2077;0.0976;-0.0642;
81706953248513;-0.2523;0.1115;-0.0780;
81706963356950;-0.2683;0.0742;-0.0876;
81706973465440;-0.2587;0.0305;-0.0855;
81706983565596;-0.2257;0.0145;-0.0844;
81706993674034;-0.2289;0.0348;-0.0951;
81707003782471;-0.2417;0.0699;-0.1015;
81707013894711;-0.2438;0.1029;-0.0951;
81707024003096;-0.2608;0.1040;-0.0866;
81707034111534;-0.2822;0.0774;-0.0802;
81707044202679;-0.3226;0.0252;-0.1004;
81707054311169;-0.3301;-0.0345;-0.1100;
81707064419554;-0.2790;-0.0493;-0.0748;
81707074512523;-0.1896;0.0422;-0.0450;
81707084620909;-0.1747;0.1477;-0.0706;
81707094729346;-0.1832;0.1775;-0.0535;
81707104835127;-0.2811;0.1764;0.0083;
81707114943513;-0.3237;0.1455;-0.0216;
81707125051950;-0.3716;0.0656;-0.1664;
81707135156794;-0.4654;-0.0121;-0.2421;
81707145265179;-0.3418;-0.0057;-0.2101;
81707155373617;-0.1694;0.0614;-0.1430;
81707165469867;-0.1161;0.1594;-0.1515;
81707175578304;0.0234;0.1871;-0.1792;
81707185686794;-0.0298;0.1285;-0.2485;
81707195787367;-0.0575;0.1796;-0.3102;
81707205895857;-0.0724;0.2350;-0.3252;
81707216004294;-0.1822;0.1391;-0.3592;
81707226106950;-0.1928;0.0752;-0.3848;
81707236215440;-0.0810;0.1242;-0.3955;
81707246323825;0.1055;0.1455;-0.4945;
81707256419815;0.1662;0.2073;-0.6063;
81707266528252;0.1172;0.2180;-0.6542;
81707276636690;0.0714;0.1413;-0.6776;
81707286733461;0.1097;0.1413;-0.6766;
81707296841846;0.1875;0.1658;-0.6563;
81707306950284;0.2301;0.1349;-0.6222;
81707317062784;0.2514;0.0880;-0.6180;
81707327171221;0.2269;0.1210;-0.6499;
81707337279711;0.1065;0.1647;-0.6723;
81707347375700;-0.0128;0.0486;-0.6457;
81707357484138;0.0373;-0.0036;-0.5711;
81707367592575;-0.0053;0.0539;-0.4977;
81707377689086;-0.0011;0.0230;-0.4349;
81707387797471;0.1715;-0.0217;-0.3795;
81707397905909;0.2429;0.0337;-0.3358;
81707408015440;0.2887;0.0603;-0.2889;
81707418123877;0.3877;0.0465;-0.2421;
81707428232315;0.4110;0.0390;-0.1782;
81707438329138;0.4281;0.0529;-0.1366;
81707448437575;0.4803;0.0603;-0.0993;
81707458546013;0.3877;0.0720;-0.0791;
81707468644554;0.3515;0.0582;-0.0514;
81707478753044;0.3196;0.0198;-0.0386;
81707488861482;0.2418;-0.0345;-0.0109;
81707498965804;0.2024;-0.0036;0.0083;
81707509074294;0.0724;-0.1057;0.0253;
81707519182732;0.0426;-0.3475;0.0306;
81707529284659;-0.0650;-0.3252;0.0317;
81707539393096;-0.2353;-0.0142;0.0178;
81707549501534;-0.2470;0.1679;0.0040;
81707559615023;-0.2960;0.1775;0.0019;
81707569723461;-0.2832;0.2105;0.0168;
81707579831898;-0.2907;0.2808;-0.0162;
81707589921221;-0.2534;0.1519;-0.0077;
81707600029711;-0.1779;0.0305;-0.0461;
81707610138148;-0.1992;0.0326;-0.0216;
81707620267679;-0.1481;0.0816;0.0040;
81707630376117;-0.1385;0.1232;-0.0141;
81707640484607;-0.1768;0.0848;-0.0418;
81707650538617;-0.1971;0.1146;-0.0652;
81707660647107;-0.2035;0.1509;-0.0557;
81707670755544;-0.1768;0.1178;-0.0599;
81707680879034;-0.1577;0.0752;-0.0663;
81707690987471;-0.1715;-0.0249;-0.0791;
81707701095961;-0.1811;0.0124;-0.1164;
81707711189034;-0.1672;0.0923;-0.1025;
81707721297471;-0.1523;0.0838;-0.0972;
81707731405961;-0.1459;0.0742;-0.0599;
81707741528565;-0.1736;0.1093;-0.0652;
81707751637002;-0.1939;0.0624;-0.0929;
81707761745440;-0.2193;-0.0313;-0.1292;
81707771832679;-0.2459;-0.0174;-0.1079;
81707781941117;-0.2321;0.0454;-0.0866;
81707792049607;-0.2268;0.0561;-0.0812;
81707802131950;-0.2342;0.0316;-0.0866;
81707812240336;-0.2694;0.0710;-0.0727;
81707822348825;-0.2832;0.0624;-0.0535;
81707832448409;-0.2747;0.0763;-0.0834;
81707842556898;-0.2640;0.1189;-0.0791;
81707852665336;-0.2268;0.1051;-0.0652;
81707862772159;-0.2321;0.1210;-0.0216;
81707872880596;-0.2214;0.1956;0.0008;
81707882988982;-0.2332;0.3234;0.0104;
81707893075440;-0.2587;0.2084;-0.0375;
81707903183877;-0.3344;-0.0589;-0.0897;
81707913292315;-0.4569;-0.3337;-0.0791;
81707923419763;-0.5431;-0.3667;-0.0748;
81707933528252;-0.5762;-0.1835;-0.0375;
81707943636690;-0.5240;-0.0047;-0.0482;
81707953725544;-0.4174;0.0710;-0.0514;
81707963833929;-0.3407;0.0529;-0.0748;
81707973942419;-0.3610;0.0422;-0.0386;
81707984045752;-0.3471;0.0166;-0.0333;
81707994154190;-0.3333;0.0379;-0.0418;
81708004262627;-0.2896;0.0955;-0.0748;
81708014386794;-0.3024;0.0529;-0.0951;
81708024495232;-0.3471;-0.0228;-0.0450;
81708034603617;-0.4249;-0.0121;-0.0333;
81708044678357;-0.4164;0.0103;-0.0461;
81708054786794;-0.4355;-0.0238;-0.0791;
81708064895179;-0.4015;-0.0451;-0.0823;
81708075001742;-0.4185;0.0752;-0.0791;
81708085110232;-0.3652;0.1509;-0.0919;
81708095218617;-0.3237;0.1242;-0.0972;
81708105321221;-0.3450;0.1146;-0.0855;
81708115429659;-0.3525;0.1061;-0.1025;
81708125538096;-0.3493;0.0465;-0.1174;
81708135653825;-0.3503;-0.0025;-0.1153;
81708145762263;-0.3365;-0.0217;-0.1324;
81708155870700;-0.3141;-0.0419;-0.1111;
81708165955492;-0.2875;-0.0791;-0.1451;
81708176063929;-0.3045;-0.1686;-0.1473;
81708186172367;-0.2960;-0.1750;-0.1345;
81708196268200;-0.2758;-0.0238;-0.0951;
81708206376638;-0.2758;0.0518;-0.1292;
81708216485023;-0.2971;0.0262;-0.1377;
81708226594450;-0.3162;0.0816;-0.1643;
81708236702888;-0.3056;0.1242;-0.1462;
81708246811377;-0.2800;0.0816;-0.1835;
81708256915179;-0.3035;0.0028;-0.1877;
81708267023669;-0.2790;-0.0004;-0.1824;
81708277132054;-0.2853;0.0273;-0.1760;
81708287223617;-0.2662;0.0081;-0.2154;
81708297332107;-0.2491;-0.0111;-0.2176;
81708307440492;-0.3045;-0.0015;-0.1792;
81708317541846;-0.3098;-0.0260;-0.1963;
81708327650284;-0.3077;-0.0217;-0.1995;
81708337758721;-0.3056;0.0134;-0.2410;
81708347863773;-0.3045;0.0241;-0.2304;
81708357972211;-0.2779;0.0358;-0.2218;
81708368080648;-0.2747;0.0134;-0.2229;
81708378177992;-0.2470;-0.0260;-0.2762;
81708388286429;-0.2161;-0.0302;-0.2698;
81708398394919;-0.1640;-0.0025;-0.2389;
81708408490648;-0.0415;-0.0238;-0.1824;
81708418599034;0.0554;-0.0377;-0.1643;
81708428707471;0.1300;0.0017;-0.2261;
81708438808721;0.2418;0.0411;-0.2293;
81708448917159;0.2642;0.0156;-0.1941;
81708459025596;0.3047;0.0529;-0.1696;
81708469127419;0.3993;0.1029;-0.1387;
81708479235804;0.4867;0.0305;-0.1451;
81708489344242;0.5378;-0.0206;-0.1132;
81708499449450;0.5229;-0.0121;-0.0887;
81708509557888;0.5335;-0.0004;-0.0802;
81708519666325;0.5708;0.0369;-0.0578;
81708529768461;0.5538;0.0688;-0.0791;
81708539876898;0.5602;0.0752;-0.0652;
81708549985388;0.4622;0.0603;-0.0663;
81708560081377;0.3292;0.0188;-0.0908;
81708570189815;0.2727;0.0220;-0.0855;
81708580298252;0.1651;0.0039;-0.1217;
81708590393669;0.1310;-0.0398;-0.1537;
81708600502107;0.0415;-0.0377;-0.1547;
81708610610544;0.0170;-0.0334;-0.1835;
81708620737732;0.0138;-0.0100;-0.1643;
81708630846117;0.0352;0.0252;-0.2005;
81708640954554;0.0138;0.0230;-0.2229;
81708651035075;0.0266;-0.0132;-0.2069;
81708661143513;0.0192;-0.0153;-0.2336;
81708671251950;0.0405;-0.0047;-0.2282;
81708681357888;0.0660;0.0422;-0.1984;
81708691466377;0.0820;0.1072;-0.1941;
81708701574763;0.0714;0.0848;-0.1899;
81708711671950;0.0628;0.0614;-0.2059;
81708721780388;0.0320;0.0177;-0.2037;
81708731888825;0.0554;-0.0366;-0.1686;
81708742022002;0.0650;-0.0684;-0.1611;
81708752130388;0.0575;-0.0535;-0.1547;
81708762238825;0.1459;-0.0493;-0.1526;
81708772308773;0.1971;-0.0100;-0.1601;
81708782415127;0.2706;-0.0004;-0.1164;
81708792521534;0.2663;-0.1025;-0.0652;
81708802623148;0.2567;-0.1047;-0.0738;
81708812729502;0.3377;0.0113;-0.0493;
81708822835909;0.4260;0.0529;-0.0312;
81708832938773;0.4909;0.0401;-0.0354;
81708843045127;0.5069;0.0571;-0.0024;
81708853151534;0.4632;0.0603;0.0019;
81708863257107;0.4355;0.0316;0.0253;
81708873363461;0.4238;-0.0578;0.0658;
81708883469867;0.3345;-0.0461;0.0668;
81708893628669;0.3164;0.0316;0.0509;
81708903735023;0.3313;0.0507;0.0487;
81708913841429;0.2897;-0.0302;0.0455;
81708923908148;0.2099;-0.0313;0.0477;
81708934014502;0.1491;-0.0004;0.0573;
81708944120909;0.2045;-0.0302;0.0541;
81708954212732;0.1609;-0.0430;0.0487;
81708964319086;0.1417;-0.0121;0.0115;
81708974425492;0.1683;0.0752;-0.0141;
81708984538357;0.1566;0.0667;0.0019;
81708994644711;0.1640;0.0273;-0.0130;
81709004751117;0.1875;0.0092;-0.0045;
81709014852627;0.1747;-0.0684;0.0210;
81709024958982;0.1672;-0.1228;-0.0216;
81709035065388;0.1896;-0.0387;-0.0333;
81709045170023;0.1971;0.0443;-0.0365;
81709055276377;0.1832;0.0081;-0.0759;
81709065382784;0.1545;-0.0695;-0.0684;
81709075485127;0.1342;-0.2261;-0.0610;
81709085591482;0.1406;-0.2889;-0.0706;
81709095697888;0.2450;-0.1238;-0.0077;
81709105799815;0.2652;0.0816;0.0210;
81709115906169;0.2983;0.1146;0.0029;
81709126012575;0.2620;0.1594;0.0242;
81709136118669;0.1385;0.2329;0.0296;
81709146225023;0.1513;0.1189;0.0530;
81709156331429;0.1449;-0.1100;0.0795;
81709166437107;0.1917;-0.0940;0.0912;
81709176543461;0.2152;0.0933;0.0509;
81709186649867;0.2333;0.0465;0.0434;
81709196746586;0.2056;-0.0812;0.0859;
81709206852940;0.1118;-0.0695;0.1455;
81709216959346;0.1694;0.0379;0.1338;
81709227075752;0.2056;0.1722;0.1487;
81709237182107;0.2301;0.0795;0.1594;
81709247288513;0.1044;-0.0324;0.1200;
81709257392211;0.1459;0.1519;0.1083;
81709267498565;0.1939;0.2318;0.1178;
81709277604971;0.1246;0.0028;0.1274;
81709287705492;0.0618;-0.1270;0.1509;
81709297811846;0.1172;0.0081;0.1434;
81709307918252;0.1683;0.3064;0.1221;
81709318030752;0.2674;0.3128;0.1317;
81709328137107;0.1534;-0.0770;0.1264;
81709338243513;0.1023;-0.2676;0.1104;
81709348348409;0.0288;-0.3220;0.1466;
81709358454763;0.0873;-0.2229;0.1562;
81709368561169;0.1875;0.0582;0.1466;
81709378684815;0.2290;0.2137;0.1722;
81709388791169;0.1917;0.0028;0.1498;
81709398897575;0.0810;-0.0546;0.1349;
81709408977836;0.1310;0.0518;0.1136;
81709419084190;0.1523;0.0720;0.1242;
81709429190596;0.1715;0.0475;0.1711;
81709439291690;0.1619;0.0028;0.1764;
81709449398044;0.1555;0.0103;0.1338;
81709459504398;0.1619;0.0326;0.1232;
81709469635857;0.1353;0.0411;0.1040;
81709479742211;0.1459;-0.0249;0.1178;
81709489848617;0.1182;-0.0802;0.1274;
81709499928357;0.0852;-0.0503;0.1136;
81709510034711;0.1140;-0.0461;0.1125;
81709520141117;0.1118;-0.0727;0.1807;
81709530311794;0.1353;-0.0377;0.1722;
81709540418148;0.1332;0.0284;0.1285;
81709550524554;0.1076;0.0422;0.1913;
81709560570127;0.0490;0.0241;0.2148;
81709570676482;-0.0394;0.0518;0.1850;
81709580782888;-0.1278;0.0933;0.1477;
81709590868148;-0.2077;0.0198;0.1413;
81709600974502;-0.2800;-0.0313;0.1423;
81709611080909;-0.3461;-0.0206;0.1370;
81709621202627;-0.3855;-0.1089;0.1061;
81709631308982;-0.4537;-0.0972;0.0774;
81709641415388;-0.4888;-0.0238;0.0679;
81709651528982;-0.5421;-0.0610;0.0711;
81709661635336;-0.5410;-0.0759;0.0509;
81709671741742;-0.5602;-0.0196;0.0157;
81709681863357;-0.5698;-0.0036;-0.0024;
81709691969711;-0.5133;0.0454;-0.0280;
81709702076117;-0.4686;0.0795;-0.0226;
81709712167627;-0.4217;0.1711;-0.0418;
81709722273982;-0.4355;0.1157;-0.0652;
81709732380388;-0.4473;-0.0334;-0.1228;
81709742476273;-0.3567;-0.0578;-0.1238;
81709752582627;-0.3216;-0.0377;-0.0834;
81709762689034;-0.2289;-0.0482;-0.1089;
81709772794711;-0.1587;-0.0471;-0.1409;
81709782900700;-0.1204;-0.0132;-0.1089;
81709793006742;-0.1406;0.0028;-0.1142;
81709803111898;-0.0756;-0.0111;-0.0897;
81709813217888;-0.0224;0.0209;-0.0610;
81709823323929;0.0011;0.1210;-0.0439;
81709833426325;0.0927;0.1040;0.0093;
81709843532315;0.1555;0.0028;0.0253;
81709853638357;0.1939;0.0465;0.0594;
81709863746169;0.2120;0.1296;0.1072;
81709873852159;0.3025;0.0188;0.1434;
81709883958200;0.3047;-0.1249;0.2052;
81709894074659;0.2205;-0.0951;0.2244;
81709904180648;0.1651;0.0017;0.2031;
81709914286690;0.1790;-0.0780;0.2116;
81709924372732;0.1193;-0.1377;0.2265;
81709934478773;-0.0511;-0.0684;0.2148;
81709944584763;-0.1023;-0.0759;0.2819;
81709954704711;-0.1268;-0.0780;0.3138;
81709964810700;-0.1310;0.0433;0.3096;
81709974916742;-0.1278;0.1391;0.2840;
81709985019659;-0.1768;0.0976;0.2755;
81709995125648;-0.2513;0.0443;0.2542;
81710005231690;-0.3120;-0.0079;0.2371;
81710015341377;-0.4079;-0.1142;0.1839;
81710025447367;-0.3418;-0.1430;0.1360;
81710035553409;-0.2928;-0.0153;0.1306;
81710045633565;-0.2150;0.0411;0.1338;
81710055739607;-0.0831;-0.1100;0.1146;
81710065845596;-0.1257;-0.1888;0.1296;
81710075972002;-0.1087;-0.0695;0.1146;
81710086077992;-0.0980;0.0060;0.1221;
81710096184034;-0.1150;-0.0770;0.0551;
81710106285857;-0.1449;-0.1228;0.0381;
81710116391846;-0.1779;-0.0174;0.0349;
81710126497888;-0.1257;0.0561;0.0615;
81710136585127;-0.1097;0.0273;0.0264;
81710146691117;-0.1363;-0.0217;0.0296;
81710156797159;-0.2120;-0.0951;0.0232;
81710166930909;-0.2598;-0.0535;-0.0109;
81710177036898;-0.3386;0.0241;-0.0535;
81710187142940;-0.3301;-0.0025;-0.0301;
81710197242419;-0.3013;-0.0004;-0.0365;
81710207348409;-0.3589;0.0720;-0.0557;
81710217454450;-0.3812;0.0518;-0.0429;
81710227562419;-0.4004;-0.0409;-0.0546;
81710237668409;-0.4206;-0.0727;-0.0887;
81710247774450;-0.4174;0.0007;-0.0748;
81710257879919;-0.4217;0.0390;-0.0695;
81710267985909;-0.4377;0.0454;-0.1079;
81710278091950;-0.3919;-0.0047;-0.1047;
81710288195909;-0.3642;-0.0419;-0.1238;
81710298301898;-0.3194;-0.0015;-0.1217;
81710308407940;-0.3120;0.0348;-0.1281;
81710318520023;-0.2662;0.0848;-0.1217;
81710328626013;-0.2491;0.1104;-0.1185;
81710338732054;-0.2555;0.0411;-0.0972;
81710348853461;-0.2534;-0.0196;-0.1025;
81710358959450;-0.2342;-0.0057;-0.0993;
81710369065492;-0.2385;-0.0121;-0.1079;
81710379121638;-0.2300;-0.0557;-0.1089;
81710389227627;-0.2321;-0.0897;-0.1089;
81710399333669;-0.2651;-0.2442;-0.0567;
81710409470961;-0.2427;-0.3209;-0.0834;
81710419576950;-0.2545;0.0774;-0.1228;
81710429682992;-0.2790;0.4012;-0.1292;
81710439773148;-0.2459;0.1935;-0.0993;
81710449879138;-0.2385;0.0134;-0.0993;
81710459985179;-0.2182;0.1328;-0.0961;
81710470150023;-0.2800;0.2574;-0.1324;
81710480256013;-0.3194;0.0912;-0.1313;
81710490362054;-0.2758;-0.0951;-0.1366;
81710500419190;-0.2811;-0.0441;-0.1547;
81710510525179;-0.2640;-0.0674;-0.1462;
81710520631221;-0.2662;-0.1590;-0.1345;
81710530750440;-0.2140;-0.0430;-0.1515;
81710540856429;-0.2246;0.0795;-0.1196;
81710550962471;-0.2214;0.1125;-0.1238;
81710561045752;-0.2246;0.1008;-0.1196;
81710571151742;-0.2523;0.0859;-0.1100;
81710581257784;-0.2566;0.3117;-0.1356;
81710591390440;-0.2427;0.2808;-0.1366;
81710601496429;-0.3184;-0.3422;-0.1366;
81710611602471;-0.3067;-0.4359;-0.1750;
81710621691273;-0.2332;-0.0972;-0.1920;
81710631797263;-0.2853;0.0028;-0.2005;
81710641903304;-0.2758;-0.0706;-0.1803;
81710652002002;-0.2651;-0.0313;-0.1483;
81710662107992;-0.2353;0.0944;-0.1771;
81710672214034;-0.2268;0.1690;-0.1899;
81710682324190;-0.1683;0.1764;-0.1952;
81710692430179;-0.1715;0.0763;-0.1696;
81710702536221;-0.1502;-0.0441;-0.1696;
81710712646273;-0.1843;-0.0834;-0.1824;
81710722752263;-0.2214;-0.0451;-0.2005;
81710732858304;-0.2545;-0.0812;-0.2133;
81710742960440;-0.2555;-0.0461;-0.2048;
81710753066429;-0.2193;-0.0079;-0.2048;
81710763172471;-0.2056;-0.0461;-0.1995;
81710773293409;-0.1939;0.0390;-0.2357;
81710783399450;-0.1928;0.1178;-0.2101;
81710793505492;-0.2088;0.0049;-0.2304;
81710803592940;-0.1609;-0.0695;-0.2293;
81710813698982;-0.2130;-0.0356;-0.2666;
81710823805023;-0.2013;-0.0387;-0.2570;
81710833920752;-0.1779;-0.0377;-0.2559;
81710844026794;-0.1587;-0.0068;-0.2751;
81710854132836;-0.1864;-0.0887;-0.2708;
81710864237002;-0.1726;-0.0770;-0.2730;
81710874343044;-0.1449;0.0273;-0.2783;
81710884449086;-0.1502;0.0774;-0.2857;
81710894540648;-0.1470;-0.0153;-0.3252;
81710904646690;-0.1033;-0.0791;-0.3049;
81710914752732;-0.1033;0.0017;-0.3028;
81710924879294;-0.1257;0.0124;-0.3475;
81710934985336;-0.0810;-0.0461;-0.3838;
81710945091377;-0.0810;-0.0292;-0.3880;
81710955200648;-0.0650;-0.0238;-0.3614;
81710965306690;-0.0277;-0.0897;-0.3475;
81710975412732;0.0916;-0.0684;-0.3859;
81710985495752;0.2386;0.1125;-0.3976;
81710995601794;0.3068;0.1881;-0.3326;
81711005707836;0.3036;-0.0185;-0.2772;
81711015831065;0.5154;-0.1100;-0.3028;
81711025937107;0.7072;0.0539;-0.2847;
81711036043148;0.5580;0.0369;-0.2506;
81711046136898;0.4750;-0.0334;-0.1984;
81711056242940;0.5410;0.0071;-0.1846;
81711066348982;0.5495;0.0710;-0.2005;
81711076466690;0.5197;0.0060;-0.1888;
81711086572732;0.4931;-0.0270;-0.1750;
81711096678773;0.5197;0.0198;-0.1142;
81711106778669;0.4377;-0.0100;-0.1238;
81711116884711;0.3505;-0.0642;-0.1100;
81711126990752;0.3185;0.0518;-0.1057;
81711137108982;0.2727;0.1732;-0.1100;
81711147215023;0.2493;0.0198;-0.0972;
81711157321065;0.2812;-0.1622;-0.0812;
81711167410909;0.3515;-0.0482;-0.0450;
81711177516950;0.2045;0.0497;-0.0620;
81711187622992;0.1619;0.0390;-0.0461;
81711197732523;0.2056;0.0156;-0.0216;
81711207838565;0.2067;0.0316;-0.0301;
81711217944607;0.2024;-0.0068;-0.0599;
81711228047419;0.1864;-0.0079;-0.0780;
81711238153461;0.2067;0.0635;-0.0503;
81711248259502;0.1949;0.0923;-0.0599;
81711258370440;0.1896;-0.0620;-0.0184;
81711268476482;0.1374;-0.0642;-0.0802;
81711278582523;0.2418;0.0827;-0.0354;
81711288678669;0.2418;0.0220;0.0008;
81711298784711;0.2205;-0.0663;0.0061;
81711308890752;0.2045;0.0220;0.0083;
81711318997002;0.1907;0.1328;-0.0035;
81711329103044;0.1758;0.0124;0.0168;
81711339209086;0.1353;-0.2005;0.0541;
81711349310857;0.1491;-0.1356;0.0136;
81711359416898;0.2258;0.0454;-0.0056;
81711369522940;0.1960;-0.0260;0.0083;
81711379695232;0.1939;-0.0759;0.0477;
81711389801273;0.1960;-0.0535;0.0391;
81711399907315;0.2045;-0.0334;0.0242;
81711409932002;0.2312;0.0124;0.0679;
81711420038044;0.2525;-0.0121;0.1008;
81711430144086;0.2333;-0.0557;0.1072;
81711440286898;0.2045;-0.0079;0.0955;
81711450392940;0.1917;-0.0292;0.1157;
81711460498982;0.1715;-0.0589;0.0955;
81711470603461;0.1523;-0.0228;0.1072;
81711480709502;0.1342;-0.0471;0.0891;
81711490815544;0.1704;0.0145;0.1008;
81711500919502;0.2003;0.0646;0.1178;
81711511025544;0.1992;0.0901;0.1157;
81711521131586;0.1960;-0.0057;0.1264;
81711531219607;0.1449;-0.0356;0.1434;
81711541325648;0.1609;0.0774;0.1008;
81711551431690;0.1790;0.0731;0.1200;
81711561554294;0.1971;-0.0419;0.1434;
81711571660336;0.2067;-0.0876;0.2041;
81711581766377;0.1992;-0.0791;0.2020;
81711591877888;0.1545;-0.0292;0.1818;
81711601983929;0.1577;-0.0185;0.1530;
81711612089971;0.1491;-0.0079;0.1775;
81711622175961;0.1193;0.0912;0.1786;
81711632282002;0.1662;0.1786;0.1892;
81711642388044;0.1470;0.1093;0.1732;
81711652500023;0.1363;0.1668;0.1775;
81711662606065;0.1598;0.1999;0.2084;
81711672712107;0.1214;0.0646;0.2041;
81711682821325;0.1076;0.0475;0.1796;
81711692927367;0.0788;0.0561;0.1732;
81711703033409;0.0586;-0.0174;0.1988;
81711713131586;0.1332;0.0092;0.2222;
81711723237627;0.1726;0.1434;0.2020;
81711733343669;0.1395;0.1818;0.2180;
81711743447419;0.1363;0.1178;0.2712;
81711753553461;0.1268;0.2180;0.2382;
81711763659502;0.1395;0.2574;0.2212;
81711773777419;0.1438;0.1391;0.2435;
81711783883357;0.1257;0.1136;0.2638;
81711793989294;0.0426;0.0901;0.2169;
81711804085961;-0.0256;-0.0398;0.2137;
81711814191898;-0.0937;-0.1643;0.1871;
81711824297836;-0.0948;-0.0972;0.1871;
81711834403565;-0.1342;-0.1558;0.1583;
81711844509502;-0.1055;-0.2367;0.1253;
81711854615440;0.0405;-0.0770;0.1583;
81711864720232;0.0756;0.0454;0.1764;
81711874826169;0.0426;-0.1036;0.1871;
81711884932107;0.0383;-0.2059;0.2063;
81711895045909;0.0085;-0.2623;0.1967;
81711905151846;-0.0160;-0.2005;0.1807;
81711915257784;-0.0682;-0.1622;0.1690;
81711925365492;-0.1779;-0.3433;0.1711;
81711935471429;-0.2257;-0.3635;0.1850;
81711945577367;-0.2790;-0.1622;0.1051;
81711955666377;-0.2651;0.0273;0.0869;
81711965772315;-0.2140;0.1903;0.1008;
81711975878252;-0.1012;0.2744;0.1477;
81711985994711;0.0213;0.3298;0.1690;
81711996100648;0.0043;0.2542;0.1754;
81712006206586;-0.0884;-0.0377;0.1434;
81712016327940;-0.0767;-0.1356;0.0848;
81712026433877;-0.0703;-0.0652;0.1104;
81712036539815;-0.1545;-0.0940;0.1029;
81712046603877;-0.1555;-0.0068;0.1264;
81712056709815;-0.1928;0.1253;0.1061;
81712066815752;-0.2056;0.1881;0.1285;
81712076951273;-0.1747;0.1764;0.1242;
81712087057211;-0.0969;0.0667;0.1253;
81712097163148;-0.0469;0.0582;0.1477;
81712107271169;-0.0607;0.1189;0.1338;
81712117377107;-0.1044;-0.1292;0.1477;
81712127483044;-0.1438;-0.2474;0.1136;
81712137612732;-0.1875;-0.0823;0.1146;
81712147718669;-0.2332;0.0550;0.1391;
81712157824607;-0.2449;0.1519;0.1178;
81712167902211;-0.2088;0.1796;0.1232;
81712178008148;-0.2449;0.1903;0.0690;
81712188114086;-0.1640;0.2041;0.1040;
81712198224294;-0.1875;0.0465;0.1125;
81712208330232;-0.1726;-0.0142;0.1072;
81712218436169;-0.1545;-0.0153;0.0784;
81712228537315;-0.1332;-0.0451;0.1210;
81712238643252;-0.1332;-0.0174;0.1434;
81712248749190;-0.1960;-0.0281;0.1200;
81712258860232;-0.1875;0.1221;0.0923;
81712268966169;-0.1523;0.3479;0.1051;
81712279072107;-0.1609;0.0656;0.1423;
81712289166169;-0.1960;-0.1824;0.0816;
81712299272107;-0.1779;-0.0802;0.0743;
81712309378044;-0.2406;-0.0313;0.0690;
81712319495232;-0.2640;-0.0217;0.0784;
81712329601169;-0.2704;-0.0164;0.0732;
81712339707107;-0.2790;0.0017;0.0615;
81712349806690;-0.2566;0.0028;0.0891;
81712359912627;-0.2481;-0.0281;0.1029;
81712370018565;-0.2225;-0.0057;0.0242;
81712380125127;-0.2109;0.0763;0.0029;
81712390231065;-0.2045;0.0220;0.0455;
81712400337002;-0.2067;-0.0951;0.0423;
81712410427002;-0.2161;-0.0748;0.0210;
81712420532940;-0.2427;0.0316;0.0008;
81712430638877;-0.2630;0.0742;-0.0109;
81712440803565;-0.2875;0.0326;0.0093;
81712450909502;-0.2939;-0.0780;0.0136;
81712461015440;-0.3067;-0.1121;-0.0013;
81712471066794;-0.3301;-0.0387;-0.0184;
81712481172732;-0.3173;0.0113;-0.0375;
81712491278669;-0.2385;0.0422;-0.0248;
81712501402523;-0.2385;0.0348;-0.0301;
81712511508461;-0.2715;-0.0025;-0.0386;
81712521614398;-0.2449;-0.0844;-0.0365;
81712531743252;-0.2619;-0.1121;-0.0546;
81712541849190;-0.2971;-0.0684;-0.0876;
81712551955127;-0.2928;-0.0441;-0.1025;
81712562016273;-0.2864;-0.0759;-0.0897;
81712572122211;-0.2981;-0.0249;-0.0908;
81712582228148;-0.2885;0.1083;-0.0908;
81712592349086;-0.3045;0.0901;-0.0844;
81712602455023;-0.2310;0.0933;-0.0844;
81712612560961;-0.2268;0.0401;-0.1174;
81712622656586;-0.2566;-0.0345;-0.1483;
81712632762523;-0.2704;0.0337;-0.1270;
81712642868461;-0.2971;-0.0482;-0.1324;
81712652992732;-0.2736;-0.1249;-0.1654;
81712663098669;-0.2534;-0.0695;-0.1622;
81712673204607;-0.2704;0.0348;-0.1941;
81712683302627;-0.2363;0.0763;-0.1675;
81712693408565;-0.2470;0.0859;-0.1643;
81712703514502;-0.2363;-0.0164;-0.1611;
81712713615961;-0.2056;-0.0068;-0.1750;
81712723721898;-0.1736;0.0859;-0.1792;
81712733827836;-0.2056;-0.0036;-0.1952;
81712743940075;-0.2459;-0.0791;-0.2218;
81712754046013;-0.2640;0.0433;-0.2389;
81712764151950;-0.2182;0.0912;-0.2197;
81712774218044;-0.2045;-0.0228;-0.2559;
81712784323929;-0.1854;-0.0652;-0.2985;
81712794429867;-0.1896;0.0582;-0.2889;
81712804573148;-0.1662;0.0720;-0.2783;
81712814679086;-0.1097;-0.1004;-0.2996;
81712824785023;-0.0554;-0.1228;-0.2985;
81712834885023;-0.1502;0.0326;-0.3102;
81712844990961;-0.1129;0.0976;-0.3113;
81712855096898;-0.0309;-0.0132;-0.3284;
81712865205857;0.0330;0.0752;-0.3667;
81712875311794;-0.0149;0.1818;-0.3273;
81712885417732;-0.0575;0.0316;-0.3252;
81712895532107;0.0415;-0.0812;-0.3561;
81712905638044;-0.0298;-0.0441;-0.3731;
81712915743982;-0.1087;0.0145;-0.3656;
81712925834919;-0.0554;0.0188;-0.3667;
81712935940857;-0.0234;-0.0834;-0.3678;
81712946046794;0.0085;-0.0503;-0.3678;
81712956163461;0.0181;0.0209;-0.3422;
81712966269398;0.1044;-0.0578;-0.3305;
81712976375336;0.2258;-0.1686;-0.3497;
81712986480232;0.2141;-0.1377;-0.3369;
81712996586169;0.1353;-0.0866;-0.3166;
81713006692107;0.1949;-0.2037;-0.2783;
81713016801325;0.1779;-0.2602;-0.2783;
81713026907263;0.0405;0.1562;-0.2932;
81713037013200;0.1023;0.4949;-0.3039;
81713047132940;0.1225;0.2648;-0.2911;
81713057238877;0.2610;-0.0503;-0.2527;
81713067344815;0.6124;0.0901;-0.2272;
81713077435544;0.4366;0.2308;-0.2027;
81713087541482;0.1363;-0.0047;-0.1686;
81713097647419;0.1640;-0.0908;-0.1281;
81713107753148;0.1332;0.0795;-0.1984;
81713117859086;0.0980;0.0646;-0.1792;
81713127965023;0.0799;-0.0377;-0.1760;
81713138058877;0.0980;0.1232;-0.1888;
81713148164815;0.1854;0.3841;-0.2027;
81713158270752;0.2152;-0.0652;-0.1451;
81713168393409;0.3494;-0.4583;-0.1462;
81713178499346;0.3196;-0.2080;-0.1228;
81713188605284;0.1108;0.0571;-0.0812;
81713198698044;0.2173;-0.0079;-0.0706;
81713208803982;0.2674;-0.1025;-0.0908;
81713218909919;0.3047;0.1146;-0.1270;
81713229018669;0.2088;0.2403;-0.0844;
81713239124607;0.2514;-0.0535;-0.0589;
81713249230544;0.3952;-0.0153;-0.1089;
81713259339607;0.2972;0.1370;-0.1238;
81713269445544;0.2120;-0.0663;-0.0780;
81713279551429;0.2695;-0.1494;-0.0514;
81713289708669;0.1747;-0.0493;-0.0674;
81713299814607;0.2397;0.0252;-0.0599;
81713309920544;0.2631;0.0092;-0.0333;
81713319960752;0.2716;-0.0174;-0.0216;
81713330066690;0.2514;0.0305;-0.0802;
81713340172627;0.2620;0.0422;-0.0322;
81713350332627;0.2439;0.0103;-0.0269;
81713360438565;0.2738;0.0294;-0.0578;
81713370544502;0.2514;0.0305;-0.0365;
81713380599711;0.2141;-0.0025;-0.0493;
81713390705648;0.2557;0.0859;-0.0439;
81713400811586;0.2642;0.1051;-0.0290;
81713410935336;0.2844;-0.0228;-0.0077;
81713421041273;0.2716;-0.0270;-0.0120;
81713431147211;0.2791;-0.0164;0.0338;
81713441254502;0.2248;-0.0738;0.0008;
81713451360440;0.2162;-0.0281;-0.0312;
81713461466377;0.2003;0.0305;0.0061;
81713471568461;0.2386;-0.0004;0.0115;
81713481674398;0.2024;-0.0663;-0.0099;
81713491780336;0.2354;-0.0142;0.0008;
81713501867315;0.2226;0.0262;0.0136;
81713511973252;0.2450;-0.0260;-0.0077;
81713522079190;0.2099;-0.0451;0.0232;
81713532255336;0.2610;0.0763;0.0274;
81713542361273;0.2876;0.0656;0.0636;
81713552467211;0.2493;0.0252;0.0615;
81713562543461;0.2567;0.1072;0.0349;
81713572649398;0.2418;0.0646;0.0816;
81713582755336;0.2184;-0.0174;0.0445;
81713592839815;0.2120;0.0614;0.0455;
81713602945752;0.2205;0.1306;0.0615;
81713613051690;0.2578;0.0869;0.0774;
81713623145440;0.2248;0.0337;0.1051;
81713633251377;0.2226;0.0635;0.1104;
81713643357315;0.2482;-0.0121;0.1413;
81713653451794;0.2045;0.0049;0.1519;
81713663557732;0.2045;0.0838;0.1306;
81713673663669;0.1843;0.0752;0.1487;
81713683790544;0.1758;-0.0025;0.1700;
81713693896482;0.1662;-0.0260;0.1594;
81713704002419;0.1545;-0.0260;0.1317;
81713714105492;0.1790;0.0475;0.1583;
81713724211429;0.1885;0.0475;0.1754;
81713734317367;0.1832;-0.0356;0.1850;
81713744418461;0.1896;-0.0409;0.2031;
81713754524398;0.2216;0.0443;0.2052;
81713764630336;0.2386;0.1146;0.2244;
81713774736794;0.2067;0.0571;0.2063;
81713784842992;0.1619;-0.0334;0.2329;
81713794949190;0.1438;0.1104;0.2457;
81713805060127;0.1715;0.1626;0.2308;
81713815166325;0.1640;0.0571;0.2190;
81713825272523;0.1406;0.0092;0.2286;
81713835377523;0.1310;0.0348;0.2201;
81713845483721;0.1214;0.0103;0.2425;
81713855589919;0.1545;0.0262;0.2979;
81713865702159;0.1822;0.0656;0.2893;
81713875808357;0.2077;-0.0153;0.3170;
81713885914554;0.1257;-0.1409;0.2957;
81713896025752;0.1055;-0.0620;0.2872;
81713906131950;0.1513;0.0869;0.3586;
81713916238148;0.1055;-0.1206;0.3501;
81713926347107;0.0810;-0.2485;0.3351;
81713936453304;0.0586;0.1040;0.3437;
81713946559502;0.0075;0.3522;0.3628;
81713956653357;-0.0288;0.1775;0.3703;
81713966759554;0.1363;0.0305;0.4055;
81713976865752;0.1268;0.1466;0.4097;
81713986973148;0.0298;0.1839;0.3533;
81713997079346;-0.0671;0.1754;0.3330;
81714007185544;-0.1534;0.1232;0.3660;
81714017292836;-0.1779;0.0923;0.3511;
81714027399034;-0.2099;-0.0663;0.3245;
81714037505232;-0.2779;-0.0791;0.2957;
81714047622627;-0.2960;0.1786;0.2766;
81714057728825;-0.3269;-0.0057;0.2808;
81714067835023;-0.3429;-0.3124;0.2233;
81714077927940;-0.2683;-0.1483;0.2095;
81714088034138;-0.2939;0.0379;0.1967;
81714098140336;-0.2971;-0.0079;0.1743;
81714108240232;-0.1981;-0.0334;0.1136;
81714118346429;-0.1406;0.0028;0.1285;
81714128452627;-0.1779;0.0124;0.1232;
81714138581898;-0.1800;0.0326;0.0795;
81714148688096;-0.1747;-0.0121;0.0743;
81714158794294;-0.1790;-0.0514;0.0743;
81714168868252;-0.2067;-0.0441;0.0413;
81714178974450;-0.2013;0.0316;0.0530;
81714189080648;-0.2130;0.0305;0.0381;
81714199180492;-0.2013;-0.0802;0.0402;
81714209286690;-0.1300;-0.0748;0.0242;
81714219392888;-0.0895;0.1061;0.0519;
81714229522627;-0.0799;0.2222;0.0806;
81714239628825;-0.1065;0.0518;0.0838;
81714249735023;-0.1310;-0.1334;0.0827;
81714259812784;-0.1896;-0.0535;-0.0120;
81714269918982;-0.1438;0.1008;0.0029;
81714280025179;-0.1150;0.0816;0.0391;
81714290141273;-0.1065;-0.0313;0.0519;
81714300247471;-0.1204;-0.0897;0.0466;
81714310353669;-0.1055;0.0348;0.0093;
81714320438877;-0.1502;0.0624;-0.0077;
81714330545075;-0.1747;-0.1164;0.0487;
81714340651273;-0.2491;-0.2122;0.0413;
81714350789919;-0.1896;-0.1782;0.0413;
81714360896117;-0.1768;-0.0738;0.0519;
81714371002315;-0.1363;-0.0430;0.0955;
81714381093877;-0.2172;-0.1089;0.0487;
81714391200075;-0.1449;-0.0929;0.0859;
81714401306273;-0.1577;0.1967;0.0891;
81714411419919;-0.1332;0.1487;0.0880;
81714421526117;-0.1172;-0.0356;0.0784;
81714431632315;-0.1694;0.0869;0.0115;
81714441752940;-0.1758;0.2212;0.0061;
81714451859138;-0.1534;0.2169;0.0498;
81714461965336;-0.1619;0.0358;0.0732;
81714472044711;-0.1811;-0.0334;-0.0013;
81714482150909;-0.1555;0.1530;0.0146;
81714492257107;-0.1758;0.1317;0.0168;
81714502366690;-0.1630;-0.0313;0.0711;
81714512472888;-0.1630;-0.1015;0.0891;
81714522579086;-0.1864;-0.1920;-0.0067;
81714532703877;-0.1683;-0.0249;-0.0024;
81714542810075;-0.1715;0.0337;0.0338;
81714552916273;-0.1545;-0.0759;-0.0056;
81714563001898;-0.1747;-0.0015;-0.0365;
81714573108096;-0.1577;0.1477;-0.0365;
81714583214294;-0.1427;0.0113;-0.0109;
81714593321065;-0.1417;-0.1867;-0.0173;
81714603427263;-0.1779;-0.1824;-0.0365;
81714613533461;-0.1555;-0.1888;-0.0386;
81714623633565;-0.1065;-0.0334;0.0040;
81714633739763;-0.1278;-0.0047;-0.0003;
81714643845961;-0.1534;-0.2005;-0.0216;
81714653979138;-0.2513;-0.1526;-0.0535;
81714664085336;-0.2534;0.1988;-0.0951;
81714674191534;-0.1491;0.3586;-0.0642;
81714684284815;-0.1332;0.0997;-0.0450;
81714694391013;-0.1182;0.0433;-0.0514;
81714704497211;-0.1502;0.2595;-0.0716;
81714714596377;-0.1971;0.2744;-0.0237;
81714724702575;-0.2013;0.1360;-0.0013;
81714734808773;-0.2374;0.1253;-0.0663;
81714744922523;-0.2470;0.0752;-0.0599;
81714755028721;-0.1939;0.0124;-0.0844;
81714765134919;-0.1949;0.1530;-0.0961;
81714775237315;-0.2109;-0.0121;-0.0738;
81714785343409;-0.2257;-0.4274;-0.0748;
81714795449502;-0.2363;-0.4956;-0.0908;
81714805549607;-0.2099;-0.1931;-0.0695;
81714815655700;-0.1598;-0.0174;0.0029;
81714825761794;-0.1672;-0.0929;-0.0088;
81714835861482;-0.1438;0.0433;-0.0748;
81714845967575;-0.1630;0.2489;-0.0929;
81714856073669;-0.1161;0.2052;-0.1206;
81714866200961;-0.0735;-0.0706;-0.1153;
81714876307054;-0.1587;-0.1515;-0.1430;
81714886413148;-0.2577;-0.0802;-0.1782;
81714896506586;-0.1587;-0.1409;-0.0876;
81714906612679;-0.1449;-0.0493;-0.1228;
81714916718773;-0.1523;0.2276;-0.0908;
81714926831273;-0.1619;0.2137;-0.1079;
81714936937367;-0.0628;0.1668;-0.0802;
81714947043461;-0.1087;0.2190;-0.1867;
81714957141065;-0.0799;0.2126;-0.2165;
81714967247159;-0.0618;0.1296;-0.2069;
81714977353252;-0.0575;0.1029;-0.2186;
81714987453461;-0.1321;0.1658;-0.2506;
81714997559554;-0.0959;0.1381;-0.2250;
81715007665648;-0.0341;0.0390;-0.2229;
81715017778825;-0.0703;0.0071;-0.2698;
81715027884919;-0.0778;-0.1174;-0.2719;
81715037991013;-0.0128;-0.1419;-0.2612;
81715048102107;-0.0043;-0.1196;-0.2612;
81715058208200;0.0533;-0.0972;-0.2336;
81715068314294;0.0522;-0.0036;-0.2953;
81715078416898;0.0873;-0.0493;-0.2879;
81715088522992;0.0490;-0.0620;-0.3007;
81715098629086;-0.0053;0.0049;-0.2815;
81715108729086;0.0245;0.0880;-0.2730;
81715118835179;0.0852;0.1605;-0.2527;
81715128941273;0.1023;0.1189;-0.2485;
81715139026846;0.1353;-0.0876;-0.2069;
81715149132940;0.0692;-0.1249;-0.2442;
81715159239034;0.0277;-0.0270;-0.2527;
81715169370544;0.0352;-0.0642;-0.1739;
81715179476638;0.0554;-0.2144;-0.1941;
81715189582732;0.0117;-0.2005;-0.2197;
81715199690127;-0.0224;-0.1515;-0.2016;
81715209796221;-0.0277;-0.1366;-0.2048;
81715219902315;0.0831;0.0305;-0.1643;
81715229999190;0.1055;0.1764;-0.0887;
81715240105284;0.2354;0.0806;-0.1036;
81715250211377;0.4142;-0.0951;-0.1846;
81715260305336;0.4377;0.0614;-0.1057;
81715270411429;0.0991;0.1381;-0.1047;
81715280517523;0.1023;0.0401;-0.0748;
81715290623461;0.1193;0.0699;-0.0727;
81715300729554;0.0863;0.1306;-0.0738;
81715310835648;0.0895;0.0188;-0.0546;
81715320940544;0.1087;0.1157;-0.0823;
81715331046638;0.1438;0.0316;-0.0482;
81715341152732;0.1257;-0.3049;0.0104;
81715351281221;0.0586;-0.3411;-0.0056;
81715361387315;0.0756;0.0017;-0.0450;
81715371493409;0.0937;0.2158;-0.0450;
81715381588357;0.1438;-0.0079;-0.0248;
81715391694450;0.2865;-0.0855;-0.0067;
81715401800544;0.2887;-0.0079;0.0264;
81715411909919;0.0916;-0.0345;0.0285;
81715422016013;0.1193;-0.0642;0.0051;
81715432122107;0.1268;0.0507;0.0360;
81715442212107;0.1523;0.0294;0.0466;
81715452318200;0.1278;-0.0356;0.0583;
81715462424294;0.1044;0.0145;0.0253;
81715472539398;0.1321;0.0593;0.0370;
81715482645492;0.1204;0.0017;0.0658;
81715492751586;0.0778;-0.0238;0.0455;
81715502853461;0.0565;0.0241;0.0423;
81715512959554;0.0618;0.0124;0.0391;
81715523065648;0.0916;-0.0079;0.0594;
81715533182315;0.1129;0.0273;0.0859;
81715543288409;0.1353;0.0806;0.0880;
81715553394502;0.1214;0.0529;0.0668;
81715563496065;0.1417;0.0987;0.0594;
81715573602159;0.1033;0.0806;0.0679;
81715583708252;0.0948;-0.0599;0.0690;
81715593802836;0.0202;-0.1611;0.0912;
81715603908929;0.0266;-0.1174;0.0754;
81715614015023;0.0160;-0.0908;0.0891;
81715624131325;0.0000;-0.0206;0.0784;
81715634237419;0.1204;0.0678;0.1029;
81715644343513;0.1257;0.0635;0.1253;
81715654434711;0.0511;-0.0068;0.0838;
81715664540804;0.0884;0.0326;0.0530;
81715674646898;0.0852;0.0752;0.0880;
81715684774294;0.0799;0.0166;0.1189;
81715694880388;0.0213;-0.0089;0.1125;
81715704986482;0.0170;0.0401;0.0923;
81715715096794;0.0479;0.0624;0.1349;
81715725202888;0.0533;-0.0546;0.1168;
81715735308982;0.0298;-0.1238;0.1146;
81715745408877;-0.0085;-0.1931;0.1594;
81715755514971;-0.0181;-0.1899;0.1445;
81715765621065;-0.0916;-0.1100;0.1360;
81715775721169;-0.1182;-0.0313;0.1274;
81715785827107;-0.0043;0.1658;0.1072;
81715795933044;0.1033;0.2893;0.1232;
81715806032940;0.0224;0.1477;0.1455;
81715816138877;-0.0096;0.0198;0.1274;
81715826244815;0.0000;0.1253;0.1221;
81715836347627;0.0320;0.1754;0.1562;
81715846453565;-0.0650;0.0731;0.1402;
81715856559502;-0.1023;0.0880;0.1125;
81715866678148;-0.1342;0.1317;0.0987;
81715876784086;-0.1118;0.1860;0.1029;
81715886890023;0.0053;0.0987;0.1157;
81715896994607;-0.0831;-0.3124;0.0944;
81715907100544;-0.1598;-0.3816;0.0743;
81715917206482;-0.2172;-0.2037;0.0668;
81715927289502;-0.1896;-0.0951;0.1008;
81715937395440;-0.0948;-0.0727;0.0912;
81715947501377;-0.0032;-0.0589;0.1296;
81715957622107;-0.0873;0.2340;0.0189;
81715967728044;0.0107;0.2979;0.0146;
81715977833982;0.0107;-0.0503;0.0296;
81715987945961;0.0000;-0.0791;-0.0056;
81715998051898;-0.1118;0.0358;-0.0248;
81716008157836;-0.0767;0.0081;-0.0013;
81716018263982;-0.0948;-0.0620;-0.0429;
81716028369919;-0.0469;-0.0142;0.0104;
81716038475857;-0.0373;0.0774;0.0423;
81716048577836;0.0096;0.0795;0.0700;
81716058683773;-0.0415;-0.0206;0.0370;
81716068789711;-0.0490;0.0422;0.0093;
81716078886273;-0.0437;0.0678;-0.0003;
81716088992211;-0.0714;0.0326;0.0008;
81716099098148;-0.0597;0.0742;0.0051;
81716109208773;-0.0565;0.0465;0.0189;
81716119314711;-0.0522;-0.0567;0.0317;
81716129420648;-0.0522;-0.0345;0.0487;
81716139553513;-0.0362;-0.0025;0.0477;
81716149659450;-0.0202;-0.0897;0.0711;
81716159765388;-0.0682;-0.1931;0.0541;
81716169838461;-0.0469;-0.0546;0.0477;
81716179944398;-0.0128;-0.0100;0.0594;
81716190050336;-0.0639;-0.0951;0.0328;
81716200179398;-0.1033;-0.0578;0.0200;
81716210285336;-0.0948;-0.0430;0.0487;
81716220391273;-0.0607;-0.0164;0.0636;
81716230461273;-0.0149;0.0582;0.1083;
81716240567211;-0.0415;-0.0324;0.1477;
81716250673148;-0.0810;-0.0770;0.0700;
81716260788565;-0.1087;-0.0015;0.0445;
81716270894502;-0.0735;0.0411;0.0700;
81716281000440;-0.0426;0.0710;0.0754;
81716291136794;-0.0820;-0.0356;0.0784;
81716301242732;-0.1236;-0.0036;0.0636;
81716311348669;-0.0959;0.0774;0.0880;
81716321427940;-0.1065;0.0337;0.0349;
81716331533877;-0.0991;0.0284;0.0200;
81716341639815;-0.0543;0.1168;0.0722;
81716351752575;-0.1023;0.0859;0.1210;
81716361858513;-0.0618;0.1924;0.0784;
81716371964450;-0.0479;0.2893;0.0615;
81716382063252;-0.0447;0.2158;0.0168;
81716392169190;-0.0820;0.0411;0.0402;
81716402275127;-0.1204;0.0060;0.0806;
81716412392627;-0.1289;-0.0802;0.0827;
81716422498565;-0.1257;-0.3220;0.0955;
81716432604502;-0.1289;-0.2272;0.0668;
81716442712315;-0.1150;-0.1356;0.0700;
81716452818252;-0.0767;-0.2996;0.0658;
81716462924190;-0.0650;-0.1909;0.0732;
81716473025909;-0.0660;-0.0940;0.0615;
81716483131846;-0.0735;-0.2644;0.0477;
81716493237784;-0.1332;-0.2325;0.0285;
81716503345440;-0.1577;0.0124;0.0029;
81716513451377;-0.1449;0.2776;0.0125;
81716523557315;-0.0362;0.5258;0.0338;
81716533663669;-0.0107;0.5715;0.0551;
81716543769607;-0.0202;0.5715;0.0626;
81716553875544;-0.0181;0.8240;-0.0461;
81716563982107;-0.0927;0.9039;-0.0610;
81716574088044;-0.1055;0.5482;-0.0333;
81716584193982;-0.1087;0.2979;0.0040;
81716594301482;-0.1949;0.2467;0.0136;
81716604407419;-0.3525;-0.0557;0.0274;
81716614513357;-0.4217;-0.4349;0.0040;
81716624615336;-0.3887;-0.6330;-0.0269;
81716634721273;-0.3802;-0.8076;-0.0461;
81716644827211;-0.2981;-0.8821;-0.0695;
81716654931377;-0.2204;-0.8981;-0.1185;
81716665037315;-0.2257;-0.9620;-0.1387;
81716675143252;-0.1854;-0.6181;-0.1888;
81716685252627;-0.1715;0.1253;-0.2261;
81716695358565;-0.0554;0.3245;-0.2165;
81716705464502;-0.0895;-0.0270;-0.1760;
81716715578877;0.1545;0.1807;-0.1771;
81716725684815;0.3036;0.5683;-0.1611;
81716735790752;0.1907;0.5067;-0.1387;
81716745895909;0.1214;0.2755;-0.1632;
81716756001846;0.1704;0.2989;-0.1451;
81716766107784;0.1140;0.3149;-0.1089;
81716776210127;0.0820;0.2627;-0.0684;
81716786316065;0.0820;0.0241;-0.0322;
81716796422002;0.1033;-0.3880;0.0381;
81716806519919;0.0266;-0.4583;0.0296;
81716816625857;-0.0852;-0.2101;0.0115;
81716826731794;0.0032;-0.0111;0.0498;
81716836841482;-0.0117;0.0561;0.0242;
81716846947419;-0.0735;-0.0642;-0.0024;
81716857053357;-0.0405;0.0369;-0.0344;
81716867152159;-0.0224;0.1892;-0.0663;
81716877258096;-0.0469;0.0358;-0.0684;
81716887364034;-0.0479;-0.0206;-0.0695;
81716897491273;-0.0703;0.0241;-0.0173;
81716907597211;-0.0905;0.0891;-0.0141;
81716917703148;-0.1076;0.0358;-0.0067;
81716927797315;-0.1097;-0.0780;0.0051;
81716937903252;-0.0959;-0.0951;-0.0045;
81716948009190;-0.1438;-0.0185;-0.0695;
81716958112836;-0.1502;-0.0132;-0.0280;
81716968218773;-0.0607;0.0145;-0.0823;
81716978324711;-0.0533;-0.0493;-0.0652;
81716988426169;-0.0671;-0.1984;-0.0237;
81716998532107;-0.1342;-0.3049;-0.0684;
81717008638044;-0.0714;0.2073;-0.0109;
81717018745440;-0.0618;0.5067;-0.0727;
81717028851377;-0.0479;0.0869;-0.0823;
81717038957315;-0.0181;-0.0153;-0.0961;
81717049060857;0.0128;0.1008;-0.0716;
81717059166794;-0.0501;0.1093;-0.1068;
81717069272732;-0.1097;0.0614;-0.1909;
81717079372419;-0.1140;-0.0334;-0.1675;
81717089478357;-0.1332;-0.0047;-0.1526;
81717099584294;-0.0383;0.2680;-0.1686;
81717109719502;-0.0064;0.3554;-0.1185;
81717119825440;-0.0884;-0.4381;-0.0610;
81717129931377;0.0160;-0.6330;-0.1089;
81717139998252;-0.0352;-0.0599;-0.1899;
81717150104190;-0.0394;0.0646;-0.1281;
81717160210127;0.0234;-0.0727;-0.0897;
81717170327836;-0.0096;-0.1888;-0.0897;
81717180433773;-0.0213;0.0390;-0.1611;
81717190539711;-0.0266;0.2893;-0.1835;
81717200652836;-0.0107;0.1626;-0.1760;
81717210758773;0.0213;-0.0036;-0.1547;
81717220864711;0.1417;0.0518;-0.1025;
81717230963148;0.1481;0.0795;-0.1483;
81717241069086;0.0362;0.0358;-0.1494;
81717251175023;-0.0021;-0.0876;-0.1047;
81717261307315;0.0437;-0.2708;-0.0897;
81717271413252;-0.0213;-0.1398;-0.1366;
81717281519190;-0.0288;0.1008;-0.1601;
81717291629138;-0.0107;0.0369;-0.1270;
81717301735075;-0.0245;-0.1611;-0.1153;
81717311841013;0.0170;-0.1739;-0.0951;
81717321931482;0.0266;-0.0738;-0.0780;
81717332037419;0.0458;-0.0153;-0.1324;
81717342143357;-0.0224;-0.0206;-0.1611;
81717352243357;0.0192;0.0166;-0.1249;
81717362349294;0.0501;0.1157;-0.1356;
81717372455232;0.0181;0.0987;-0.1558;
81717382550127;-0.0117;-0.0398;-0.1686;
81717392656065;-0.0085;0.0209;-0.1590;
81717402762002;0.0128;-0.0153;-0.1377;
81717412890440;0.0053;-0.1281;-0.1228;
81717422996377;0.0266;-0.0599;-0.1324;
81717433102315;0.0085;0.0273;-0.1643;
81717443202419;0.0330;0.0039;-0.1292;
81717453308357;0.0181;-0.0057;-0.1537;
81717463414294;0.0522;0.0071;-0.1750;
81717473512732;0.0075;0.0220;-0.1941;
81717483618669;0.0639;-0.0047;-0.1590;
81717493724607;0.0522;-0.0217;-0.1547;
81717503826065;0.0778;-0.0546;-0.1675;
81717513932002;0.1257;-0.0142;-0.1324;
81717524037940;0.1278;0.0017;-0.1302;
81717534161482;0.1822;0.0316;-0.1846;
81717544267419;0.2333;0.1381;-0.1537;
81717554373357;0.3174;0.0092;-0.0951;
81717564463773;0.4281;-0.0951;-0.0780;
81717574569711;0.3728;-0.0525;-0.0663;
81717584675648;0.3483;0.0646;-0.0045;
81717594779502;0.3079;0.0699;0.0061;
81717604885440;0.3696;-0.0738;0.0455;
81717614991377;0.4686;-0.1579;0.1157;
81717625101742;0.3068;0.0379;0.1115;
81717635207679;0.3345;0.3181;0.1253;
81717645313617;0.3025;0.3256;0.1210;
81717655417211;0.1971;0.0358;0.1242;
81717665523148;0.2919;-0.0100;0.1945;
81717675629086;0.3814;0.0976;0.2126;
81717685731898;0.1491;0.1445;0.1690;
81717695837836;0.1704;-0.0089;0.2766;
81717705943773;0.2141;-0.0993;0.2915;
81717716057107;0.1885;-0.1089;0.2819;
81717726163044;0.1747;0.0497;0.2766;
81717736268982;0.1928;0.0699;0.2915;
81717746373982;0.1577;-0.4498;0.3735;
81717756479919;0.1182;-0.4402;0.3117;
81717766585857;0.1161;0.0603;0.2808;
81717776694086;-0.0160;0.1146;0.2787;
81717786799971;-0.1651;-0.0313;0.3309;
81717796905909;0.0320;-0.0493;0.3469;
81717807006273;0.1715;0.1157;0.2819;
81717817112159;0.1278;0.1764;0.3021;
81717827218096;0.1087;0.1328;0.2766;
81717837315023;0.1140;0.0486;0.2744;
81717847420909;0.1140;-0.0535;0.2680;
81717857526846;0.0586;-0.0471;0.2553;
81717867637419;-0.0692;0.0188;0.2371;
81717877743304;-0.1736;-0.0068;0.2691;
81717887849242;-0.2566;-0.0356;0.2553;
81717897967627;-0.1875;-0.1281;0.2542;
81717908073513;-0.1619;-0.1952;0.2414;
81717918179450;-0.2056;-0.0983;0.1562;
81717928289502;-0.2640;0.0912;0.1051;
81717938395388;-0.2726;0.0720;0.1732;
81717948501325;-0.1811;-0.0716;0.0944;
81717958596586;-0.0085;0.0113;0.0210;
81717968702471;-0.0756;0.1658;0.0477;
81717978808409;-0.0937;0.1019;0.0583;
81717988900232;-0.0309;-0.0748;0.0838;
81717999006169;-0.0266;-0.0652;0.0923;
81718009112054;-0.0842;0.1296;0.0370;
81718019227523;-0.1225;0.1242;-0.0045;
81718029333409;-0.1204;0.0103;0.0264;
81718039439346;-0.0778;0.0667;-0.0162;
81718049576898;-0.0969;0.1157;-0.0397;
81718059682784;-0.0863;0.0646;-0.0429;
81718069788721;-0.0863;-0.0068;-0.0450;
81718079860440;-0.0682;-0.0079;-0.0173;
81718089966377;-0.0810;-0.0599;0.0157;
81718100072263;-0.0586;-0.0855;0.0146;
81718110188044;-0.0522;-0.0674;-0.0194;
81718120293929;-0.0437;-0.0525;-0.0162;
81718130399867;-0.0352;0.0017;-0.0471;
81718140514971;-0.0309;-0.0748;-0.0418;
81718150620857;-0.0213;0.0124;-0.0642;
81718160726794;-0.0373;0.0869;-0.0312;
81718170842002;-0.0234;0.0049;-0.0194;
81718180947888;-0.0107;0.0699;0.0072;
81718191053825;-0.0213;0.0593;0.0381;
81718201137732;0.0075;-0.0430;0.0647;
81718211243617;-0.0107;-0.0546;0.0242;
81718221349554;-0.0522;0.0177;0.0232;
81718231468565;-0.0245;0.0092;0.0093;
81718241574450;-0.0330;-0.1739;0.0498;
81718251680388;-0.0639;-0.2581;0.0296;
81718261795232;-0.1001;-0.2538;-0.0024;
81718271901117;-0.0724;-0.0919;0.0168;
81718282007054;-0.0490;-0.0759;0.1200;
81718292106690;-0.0288;-0.1249;0.1232;
81718302212575;-0.0341;0.0987;0.0700;
81718312318513;-0.0245;0.2840;0.0168;
81718322429607;-0.0394;0.2798;0.0434;
81718332535492;-0.0724;0.1370;0.0349;
81718342641429;-0.0533;0.1008;0.0423;
81718352724242;-0.0479;0.2414;0.0434;
81718362830127;-0.0650;0.0752;0.0880;
81718372936065;-0.1182;-0.1100;0.0594;
81718383046586;-0.0873;-0.0610;0.0912;
81718393152471;-0.1438;-0.0089;0.0944;
81718403258409;-0.1960;-0.1356;0.0848;
81718413362159;-0.1598;-0.1686;0.0562;
81718423468044;-0.1534;-0.1089;0.0051;
81718433573982;-0.1619;-0.1409;0.0253;
81718443690857;-0.1300;0.0198;-0.0493;
81718453796742;-0.0735;0.1850;-0.0035;
81718463902679;-0.0959;0.1722;-0.0024;
81718474005857;-0.1087;0.1157;0.0178;
81718484111742;-0.0916;-0.0324;0.0391;
81718494217679;-0.1140;-0.0132;-0.0514;
81718504318148;-0.1033;0.2041;-0.0929;
81718514424034;-0.1161;0.1658;-0.0578;
81718524529971;-0.1417;-0.0791;-0.0237;
81718534631898;-0.0863;-0.0482;-0.0844;
81718544737784;-0.0916;0.0166;-0.0951;
81718554843721;-0.1619;-0.1068;-0.0961;
81718564963982;-0.0778;-0.1366;-0.0503;
81718575069867;-0.0831;-0.0514;-0.0407;
81718585175804;-0.0597;-0.0334;-0.0429;
81718595272107;-0.0735;-0.0514;-0.0802;
81718605377992;-0.0831;0.0475;-0.1398;
81718615483929;-0.0724;0.0145;-0.1398;
81718625602940;-0.0724;0.0007;-0.1334;
81718635708825;-0.0650;0.1200;-0.1387;
81718645814763;-0.0735;0.1029;-0.1537;
81718655904398;-0.0724;0.0007;-0.1537;
81718666010284;-0.0543;0.0848;-0.1068;
81718676116221;-0.0298;0.0656;-0.0738;
81718686227575;-0.0831;-0.1292;-0.1089;
81718696333461;-0.0607;-0.0132;-0.1419;
81718706439398;-0.0522;0.1029;-0.1111;
81718716537940;-0.0714;-0.0206;-0.1302;
81718726643825;-0.0778;-0.1313;-0.1356;
81718736749763;-0.0458;-0.0387;-0.1569;
81718746864398;-0.0447;-0.0684;-0.1409;
81718756970284;-0.0650;-0.1281;-0.1334;
81718767076221;-0.0320;0.0145;-0.1142;
81718777175857;-0.0522;-0.0770;-0.0652;
81718787281742;-0.0916;-0.2676;-0.0919;
81718797387627;0.0075;0.0720;-0.1057;
81718807492419;0.0948;0.4225;-0.1696;
81718817598304;-0.0309;0.1541;-0.1686;
81718827704190;-0.0788;-0.0940;-0.1686;
81718837807107;-0.0021;0.1338;-0.1824;
81718847912992;0.0128;0.1999;-0.1366;
81718858018877;-0.0426;0.0081;-0.0663;
81718868131794;-0.0522;-0.1814;-0.0695;
81718878237679;-0.0373;-0.0919;-0.1260;
81718888343565;0.0490;0.2808;-0.1302;
81718898458565;0.0202;0.1977;-0.1142;
81718908564450;-0.0469;-0.3113;-0.1356;
81718918670336;0.0266;-0.3752;-0.1281;
81718928788148;-0.0202;0.0177;-0.1590;
81718938894034;0.0362;0.0390;-0.1611;
81718948999919;-0.0043;-0.1973;-0.1121;
81718959077419;0.0618;-0.0015;-0.1228;
81718969183304;0.1726;0.2936;-0.1238;
81718979289190;0.1172;0.1306;-0.1569;
81718989390336;0.0660;-0.1483;-0.1398;
81718999496221;0.1161;-0.1196;-0.1260;
81719009602107;0.0245;0.0262;-0.1462;
81719019713252;0.0533;-0.0578;-0.1292;
81719029819138;0.0852;-0.0738;-0.1270;
81719039925023;0.0724;-0.0451;-0.1015;
81719050011169;0.0895;-0.0716;-0.0429;
81719060117054;0.0927;0.0198;-0.0503;
81719070222940;0.0842;0.0220;-0.0887;
81719080343669;0.0735;-0.0535;-0.0706;
81719090449554;0.0618;0.0582;-0.0972;
81719100555440;0.1204;0.2020;-0.0887;
81719110673982;0.0831;0.1061;-0.0514;
81719120779867;0.0628;-0.0111;-0.0493;
81719130885752;0.0565;-0.0111;-0.0216;
81719141000440;0.0362;-0.0493;-0.0258;
81719151106325;0.0628;-0.0866;-0.0067;
81719161212211;0.0511;-0.1217;0.0466;
81719171326169;0.0362;-0.1206;0.0008;
81719181432054;0.0533;-0.0961;0.0157;
81719191537940;0.0181;-0.1324;0.0189;
81719201630752;-0.0458;-0.3454;0.0264;
81719211736638;0.1822;0.1061;0.0859;
81719221842523;0.6262;0.8463;-0.0141;
81719231938357;0.4451;0.7739;-0.0237;
81719242044242;-0.0437;0.2798;0.1274;
81719252150127;0.0937;0.2190;0.1764;
81719262259294;0.1044;0.4001;0.1306;
81719272365179;-0.0554;0.2435;0.1264;
81719282471065;-0.2534;-0.0674;0.1157;
81719292587211;-0.2161;-0.1217;0.0827;
81719302693096;-0.0863;-0.0716;0.0658;
81719312798982;-0.1395;-0.0972;0.0487;
81719322908357;-0.1566;-0.8278;0.1498;
81719333014242;-0.1854;-1.7928;0.1509;
81719343120127;-0.1630;-1.5552;0.0668;
81719353213982;-0.0128;-0.1782;0.0690;
81719363319867;0.1928;0.3501;0.0668;
81719373425752;0.1182;-0.1856;0.0626;
81719383532002;0.3334;-0.0196;0.0668;
81719393637888;0.3983;0.7334;0.0562;
81719403743773;0.2056;0.6972;0.1061;
81719413867471;0.0352;0.4140;0.1391;
81719423973357;0.0671;0.6397;0.1338;
81719434079242;0.1097;0.7867;0.1381;
81719444175336;0.1491;1.0114;0.1605;
81719454281221;-0.1555;0.2041;0.1360;
81719464387107;-0.3258;-1.0121;0.2510;
81719474493252;-0.1353;-0.5510;0.2009;
81719484599138;0.0767;0.0497;0.1605;
81719494705023;-0.0341;-0.2506;0.1967;
81719504807940;-0.0820;-0.4423;0.2595;
81719514913825;-0.0256;0.0166;0.2158;
81719525019711;0.0043;0.3447;0.2041;
81719535121690;-0.0309;0.2361;0.1999;
81719545227575;-0.0724;0.1381;0.1562;
81719555333461;-0.0234;0.2574;0.1455;
81719565445232;-0.0628;0.2947;0.1573;
81719575551117;-0.0639;0.0028;0.1434;
81719585657002;-0.0905;-0.0377;0.0848;
81719595761690;-0.1417;-0.0313;0.1210;
81719605867575;-0.2013;-0.1228;0.1285;
81719615973461;-0.1459;0.0603;0.1509;
81719626077315;-0.1779;0.0859;0.1317;
81719636183200;-0.1704;-0.0345;0.1455;
81719646289086;-0.1758;-0.0281;0.1040;
81719656391690;-0.1694;0.0678;0.0891;
81719666497575;-0.2067;0.0624;0.0391;
81719676603461;-0.2045;-0.0674;0.0189;
81719686707836;-0.2481;-0.0578;0.0189;
81719696813721;-0.3067;0.0134;-0.0035;
81719706919607;-0.3599;0.0571;-0.0312;
81719717037211;-0.3929;0.0305;-0.0716;
81719727143096;-0.3972;0.0049;-0.0951;
81719737248982;-0.3844;-0.0249;-0.1164;
81719747346273;-0.3855;-0.0557;-0.1345;
81719757452159;-0.3716;-0.0356;-0.1899;
81719767558044;-0.3237;-0.0217;-0.2282;
81719777671065;-0.3045;0.0177;-0.2644;
81719787777054;-0.3077;0.0241;-0.2666;
81719797883044;-0.3077;-0.0206;-0.2559;
81719807984242;-0.2790;-0.0471;-0.2932;
81719818090232;-0.1992;-0.0153;-0.2538;
81719828196221;-0.2555;-0.2357;-0.2740;
81719838295127;-0.1928;-0.2005;-0.3220;
81719848401117;-0.1864;0.1104;-0.3401;
81719858507107;-0.1694;0.0710;-0.3284;
81719868611898;-0.1225;-0.0684;-0.3486;
81719878717888;-0.0245;0.0177;-0.3347;
81719888823877;-0.0437;0.0944;-0.3188;
81719898945596;-0.0671;0.0784;-0.3305;
81719909051586;0.0320;0.0710;-0.2985;
81719919157575;0.0873;0.0028;-0.2570;
81719929249242;0.1651;0.0049;-0.2453;
81719939355232;0.3228;0.3309;-0.2538;
81719949461221;0.2450;0.0166;-0.2101;
81719959598773;0.1523;-0.5020;-0.1718;
81719969704763;0.4121;-0.2048;-0.1782;
81719979810752;0.5122;-0.0302;-0.1643;
81719989874502;0.3972;-0.2676;-0.0855;
81719999980492;0.3537;-0.1686;-0.0716;
81720010086482;0.4718;0.0039;-0.0312;
81720020216898;0.5304;0.0379;0.0594;
81720030322888;0.4451;0.0390;0.0509;
81720040428877;0.3686;0.0145;0.0647;
81720050504190;0.3206;0.0720;0.0869;
81720060610179;0.3281;0.1402;0.1061;
81720070716169;0.2919;0.1679;0.1402;
81720080856221;0.1758;0.0976;0.1977;
81720090962211;0.1779;0.0816;0.1594;
81720101068200;0.2184;0.1146;0.1658;
81720111167054;0.1768;0.0166;0.2212;
81720121273044;0.1545;0.0390;0.2457;
81720131379034;0.0959;0.0838;0.2222;
81720141474190;0.0969;0.0571;0.2393;
81720151580179;0.0980;0.0220;0.2137;
81720161686169;0.0692;-0.0748;0.2254;
81720171800752;0.0224;-0.1238;0.2222;
81720181906742;-0.1225;-0.0823;0.2318;
81720192012732;-0.2257;0.0656;0.1445;
81720202118877;-0.1768;0.0987;0.1658;
81720212224867;-0.0405;-0.0461;0.2031;
81720222330857;0.0021;0.0220;0.1626;
81720232432940;-0.1118;0.0443;0.1487;
81720242538929;-0.1917;-0.1111;0.1402;
81720252644919;-0.2545;-0.1909;0.0827;
81720262736273;-0.2875;-0.1409;0.0498;
81720272842263;-0.3162;-0.0100;0.0146;
81720282948252;-0.3642;0.0571;0.0264;
81720293075284;-0.3173;0.0763;-0.0216;
81720303181273;-0.1300;-0.0153;-0.0205;
81720313287263;-0.0799;0.0252;-0.0652;
81720323392627;-0.1363;0.0763;-0.0919;
81720333498617;-0.1577;-0.0503;-0.0887;
81720343604607;-0.0873;0.0348;-0.0812;
81720353699190;-0.0746;0.1168;-0.1302;
81720363805179;-0.0959;0.0369;-0.1835;
81720373911169;-0.0160;0.0848;-0.1505;
81720384036586;-0.0085;0.0678;-0.0887;
81720394142575;-0.0394;-0.1132;-0.1100;
81720404248565;-0.0341;-0.1419;-0.1611;
81720414367471;-0.0234;0.0262;-0.1654;
81720424473461;-0.0107;0.0198;-0.1142;
81720434579450;-0.0565;-0.1398;-0.1079;
81720444658252;0.0138;0.1178;-0.1846;
81720454764242;0.0405;0.2084;-0.1451;
81720464870232;-0.0671;-0.0270;-0.1558;
81720474979086;-0.0224;-0.0844;-0.1313;
81720485085075;0.0277;0.0177;-0.1334;
81720495191065;0.0320;0.0539;-0.1430;
81720505299398;0.0256;-0.0482;-0.1345;
81720515405388;0.0362;-0.0695;-0.1260;
81720525511377;0.0543;-0.1111;-0.1015;
81720535614242;0.0501;-0.0834;-0.1270;
81720545720232;0.0522;-0.0047;-0.1387;
81720555826221;0.0128;-0.1015;-0.1569;
81720565937992;0.0437;-0.0578;-0.1590;
81720576043982;0.0927;0.0848;-0.1068;
81720586149971;0.1289;0.0752;-0.0706;
81720596248773;0.0756;-0.1334;-0.1015;
81720606354763;0.0905;-0.0759;-0.1334;
81720616460752;0.0671;0.1029;-0.1057;
81720626567732;0.0533;-0.0844;-0.0887;
81720636673721;0.0756;-0.2197;-0.0695;
81720646779711;0.0330;-0.2591;-0.1015;
81720656880544;0.0543;-0.0441;-0.0919;
81720666986534;0.1353;0.2403;-0.1047;
81720677092523;0.1672;0.1296;-0.0088;
81720687202107;0.2248;-0.1377;0.0083;
81720697308096;0.2940;0.1360;-0.0631;
81720707414086;0.2876;0.3703;-0.0258;
81720717520648;0.0692;0.0454;-0.0226;
81720727626638;0.0788;-0.0876;-0.0216;
81720737732627;0.0991;0.2585;-0.0493;
81720747840752;0.1332;0.2616;-0.0344;
81720757946742;0.0895;0.0710;-0.0365;
81720768052732;0.1193;-0.2399;0.0264;
81720778161273;0.0692;-0.3188;-0.0162;
81720788267263;0.0991;-0.2091;-0.0290;
81720798373200;0.0554;-0.1750;-0.0088;
81720808467523;0.0810;-0.2463;0.0477;
81720818573513;0.0501;-0.1494;0.0210;
81720828679450;0.0607;-0.0260;-0.0567;
81720838782940;0.0884;0.0859;-0.0194;
81720848888929;0.0586;0.0443;-0.0418;
81720858994867;0.1395;0.0667;-0.0514;
81720869093982;0.1385;0.1754;0.0019;
81720879199971;0.1534;0.0784;0.0466;
81720889305909;0.0852;-0.0111;0.0200;
81720899429607;0.1055;0.1115;-0.0099;
81720909535544;0.0852;0.1242;0.0019;
81720919641534;0.0905;0.0571;-0.0045;
81720929750752;0.0479;-0.0217;-0.0354;
81720939856742;0.0756;-0.1015;0.0360;
81720949962679;0.0565;-0.0057;0.0232;
81720960079815;0.1193;-0.0228;0.0477;
81720970185804;0.1076;-0.0908;0.0795;
81720980291742;0.1470;0.0262;0.0784;
81720990375857;0.1140;0.0177;0.0381;
81721000481846;0.1108;0.0252;0.0891;
81721010587784;0.0383;0.0923;0.0562;
81721020718877;0.0170;-0.0812;0.0029;
81721030824867;-0.0362;-0.2591;-0.0280;
81721040930804;0.1108;0.1413;0.0146;
81721051000232;0.1779;0.3437;0.0636;
81721061106221;0.0948;0.0092;0.0700;
81721071212159;0.1012;-0.0674;0.1115;
81721081342627;0.0756;0.1115;0.0391;
81721091448617;0.0959;0.2180;0.0647;
81721101554554;0.0490;0.1104;0.1136;
81721111645388;0.0213;-0.1217;0.1093;
81721121751377;0.0256;-0.0292;0.0816;
81721131857315;0.0873;0.1850;0.0455;
81721141958982;0.0831;0.2063;0.0530;
81721152064971;0.0426;-0.1579;0.0763;
81721162170909;0.0607;-0.3475;0.1083;
81721172270179;0.0788;-0.1526;0.0880;
81721182376169;0.0810;0.0795;0.0838;
81721192482107;0.0415;-0.0079;0.1125;
81721202582107;0.0362;-0.1217;0.1264;
81721212688096;0.0415;0.0273;0.0774;
81721222794034;0.0575;0.1019;0.0466;
81721232923982;0.0522;0.0145;0.0955;
81721243029971;0.0469;-0.0057;0.1264;
81721253135909;0.0447;-0.0238;0.0997;
81721263237523;0.0863;0.0316;0.1008;
81721273343513;0.0628;0.0177;0.0806;
81721283449450;0.0234;-0.0514;0.1477;
81721293551169;-0.0394;-0.0313;0.0754;
81721303657159;0.0053;-0.0716;0.0658;
81721313763096;-0.0586;-0.1015;0.1008;
81721323864815;-0.0085;0.0678;0.0615;
81721333970804;0.0767;0.2776;0.0466;
81721344076742;0.0415;0.1668;0.1093;
81721354182940;0.0213;0.0198;0.1264;
81721364288929;0.0703;0.0731;0.1338;
81721374394867;0.0724;0.3106;0.0636;
81721384484867;-0.0288;0.1977;0.0711;
81721394590752;-0.0735;-0.0738;0.1200;
81721404696742;-0.0373;0.0486;0.0827;
81721414802679;0.0000;0.1839;0.0583;
81721424931273;-0.1257;-0.0897;0.0573;
81721435037263;-0.1087;-0.1963;0.0636;
81721445143200;-0.0277;-0.1558;0.0754;
81721455244711;0.0224;-0.1089;0.0594;
81721465350700;0.0117;-0.0174;0.0189;
81721475456638;-0.0181;-0.0398;0.0093;
81721485570023;-0.0469;-0.2144;0.0487;
81721495676013;-0.0213;-0.0834;0.0594;
81721505781950;-0.0117;0.0294;0.0072;
81721515882002;-0.0447;-0.1707;0.0061;
81721525987992;-0.0170;-0.1025;-0.0173;
81721536093929;0.0586;0.1754;-0.0099;
81721546197940;0.0607;0.0997;0.0583;
81721556303929;-0.0043;-0.1877;0.0466;
81721566409867;0.0298;-0.2804;0.0189;
81721576520336;0.0618;0.0944;0.0232;
81721586626325;0.0660;0.3991;-0.0269;
81721596732263;-0.0224;0.1541;-0.0003;
81721606828929;-0.0831;-0.1302;0.0423;
81721616934919;-0.0138;0.0997;0.0029;
81721627040857;0.0213;0.2041;0.0189;
81721637147575;-0.0490;-0.0461;0.0722;
81721647253565;-0.0628;-0.0802;0.0306;
81721657359502;0.0479;0.0816;-0.0322;
81721667472211;0.0469;0.2318;-0.0152;
81721677578200;-0.0160;0.0859;0.0232;
81721687684138;-0.1278;-0.4573;0.0360;
81721697795232;-0.0277;-0.4359;0.0274;
81721707901221;-0.0607;-0.2144;-0.0482;
81721718007159;-0.0160;0.0145;0.0360;
81721728115544;0.0224;0.1477;0.0562;
81721738221534;0.0565;0.1242;0.0668;
81721748327471;0.0479;0.2041;-0.0003;
81721758428825;0.0213;0.2499;-0.0162;
81721768534815;-0.0181;0.0720;0.0115;
81721778640752;-0.0575;-0.0089;0.0104;
81721788740336;-0.0277;0.1178;-0.0099;
81721798846169;-0.0288;0.0028;0.0093;
81721808952002;-0.0873;-0.0961;0.0189;
81721819053148;0.0085;0.0901;-0.0301;
81721829158982;0.0149;0.0284;0.0498;
81721839264815;-0.0341;-0.1654;0.0722;
81721849365336;0.0352;-0.1558;0.0732;
81721859471221;-0.0234;-0.0684;0.0242;
81721869577054;-0.0660;0.0646;-0.0237;
81721879683929;-0.0618;-0.0249;-0.0194;
81721889789763;-0.0703;-0.0706;-0.0013;
81721899895596;-0.0330;-0.0206;0.0306;
81721910020440;-0.0075;-0.0238;0.0370;
81721920126273;0.0011;0.0518;0.0200;
81721930232107;0.0181;0.0166;0.0413;
81721940331377;-0.0138;-0.0409;0.0040;
81721950437211;-0.0213;0.1253;0.0146;
81721960543044;-0.0075;0.0944;0.0093;
81721970630127;-0.0842;-0.1324;0.0264;
81721980735961;-0.0767;-0.1473;0.0125;
81721990841794;-0.0202;0.0028;0.0360;
81722000953409;-0.0671;-0.0196;0.0264;
81722011059242;-0.0256;-0.0366;0.0413;
81722021165075;0.0064;0.0901;0.0466;
81722031276065;0.0075;0.0390;0.0413;
81722041381898;0.0053;0.0305;0.0285;
81722051487732;-0.0320;-0.0206;0.0008;
81722061616482;-0.0660;-0.0738;-0.0056;
81722071722315;-0.0447;0.0284;-0.0173;
81722081828148;-0.0820;-0.0057;0.0360;
81722091903721;-0.0703;-0.0620;0.0178;
81722102009502;0.0011;0.0518;0.0509;
81722112115388;0.0021;0.1839;0.0168;
81722122240023;-0.0405;-0.0260;0.0157;
81722132345909;-0.0639;-0.1995;0.0189;
81722142451690;0.0096;0.1168;0.0274;
81722152551898;-0.0330;0.0784;0.0242;
81722162657732;-0.1065;-0.1515;-0.0162;
81722172763565;-0.0021;0.0593;0.0115;
81722182878357;-0.0128;0.1881;0.0274;
81722192984190;-0.0256;0.1615;-0.0067;
81722203090023;-0.0117;0.0699;0.0296;
81722213180440;-0.0128;-0.0535;0.0795;
81722223286221;0.0160;-0.0238;0.0306;
81722233392054;-0.0234;0.0230;-0.0418;
81722243504294;-0.0117;0.0262;0.0125;
81722253610127;-0.0692;-0.1196;0.0434;
81722263715961;-0.0756;-0.0770;0.0115;
81722273822159;-0.0405;0.0901;0.0136;
81722283927992;-0.0554;-0.1441;0.0200;
81722294033825;-0.0320;-0.2431;0.0466;
81722304139607;0.0000;-0.1515;0.1029;
81722314245440;-0.0181;-0.0578;0.0722;
81722324351273;-0.0309;0.0593;-0.0333;
81722334445648;-0.0096;0.1498;0.0328;
81722344551482;-0.0085;0.1988;0.0221;
81722354657315;-0.0320;0.1530;0.0253;
81722364784659;-0.0724;0.0305;0.0328;
81722374890492;-0.0565;0.0667;-0.0067;
81722384996325;-0.0245;0.0454;0.0104;
81722395117836;-0.0064;0.0443;0.0869;
81722405223669;0.0149;0.1509;0.0923;
81722415329502;-0.0415;0.0742;0.0615;
81722425421690;-0.0383;0.0252;0.0306;
81722435527523;-0.0447;-0.0940;0.0477;
81722445633357;-0.0692;-0.2037;-0.0152;
81722455734607;-0.1087;-0.0780;0.0125;
81722465840440;-0.0511;-0.0174;0.0210;
81722475946273;-0.0511;-0.0812;0.0370;
81722486048252;-0.0266;-0.1153;0.0306;
81722496154086;-0.0288;-0.0972;0.0328;
81722506259919;-0.0511;-0.1036;-0.0099;
81722516370336;-0.0437;-0.0674;-0.0397;
81722526476221;0.0117;0.0529;0.0093;
81722536582002;-0.0266;0.0518;0.0051;
81722546687315;-0.0522;-0.0015;-0.0109;
81722556793148;-0.0298;-0.1068;0.0040;
81722566898982;-0.0650;-0.0313;0.0104;
81722577002732;-0.0043;0.0912;-0.0045;
81722587108565;-0.0096;0.0273;-0.0013;
81722597214398;-0.0501;-0.0684;0.0189;
81722607318877;-0.0618;0.0369;-0.0418;
81722617424711;0.0117;0.2212;-0.0450;
81722627530544;-0.0266;0.0774;-0.0269;
81722637657627;-0.0383;-0.2442;-0.0035;
81722647763461;-0.0692;-0.1718;-0.0141;
81722657869294;-0.0767;-0.0004;-0.0716;
81722667956690;-0.0533;-0.1483;-0.0173;
81722678062523;0.0000;-0.1153;0.0391;
81722688168357;0.0415;0.1764;0.0562;
81722698278044;0.0288;0.3106;-0.0162;
81722708383877;-0.0192;0.2542;-0.0546;
81722718489711;-0.0533;0.0454;-0.0173;
81722728607002;-0.0415;0.0688;-0.0397;
81722738712836;-0.0202;0.2915;-0.0770;
81722748818669;-0.0703;0.1999;-0.0344;
81722758902836;-0.0746;0.0795;-0.0386;
81722769008669;-0.0138;0.0337;-0.0386;
81722779114502;0.0245;0.0156;0.0115;
81722789214190;-0.0437;-0.2431;0.0445;
81722799319971;-0.0767;-0.2996;-0.0386;
81722809425804;-0.0362;-0.1015;-0.0429;
81722819556013;-0.0096;-0.1015;-0.0162;
81722829661794;0.0011;-0.0940;-0.0088;
81722839767575;-0.0660;-0.0196;-0.0439;
81722849838825;-0.0437;0.0486;-0.0631;
81722859944607;-0.0746;0.0742;-0.0333;
81722870050388;0.0128;0.0603;-0.0620;
81722880190232;-0.0043;0.1061;-0.0280;
81722890296013;0.0021;0.2020;-0.0503;
81722900401846;-0.0064;0.0284;-0.0088;
81722910474086;-0.0628;-0.1462;-0.0184;
81722920579867;-0.0447;-0.1377;-0.0802;
81722930685700;-0.0447;-0.0004;-0.0493;
81722940802419;-0.0490;0.0742;-0.0248;
81722950908200;-0.0383;-0.0281;-0.0194;
81722961014034;-0.0032;-0.0493;0.0328;
81722971133982;0.0138;0.0156;0.0328;
81722981239763;0.0075;0.0401;0.0083;
81722991345596;-0.0501;0.0571;-0.0482;
81723001445544;-0.0192;0.0358;-0.0439;
81723011551325;-0.0170;0.0241;-0.0205;
81723021657159;-0.0202;0.0294;-0.0248;
81723031765232;-0.0639;-0.0004;-0.0471;
81723041871013;-0.0607;-0.0993;0.0008;
81723051976898;-0.0618;-0.1164;0.0242;
81723062086273;-0.0266;-0.0366;0.0285;
81723072192054;-0.0405;0.0092;0.0541;
81723082297888;-0.0224;0.0593;0.0530;
81723092367575;-0.0479;0.0912;-0.0056;
81723102473357;-0.0160;0.0284;-0.0290;
81723112579138;-0.0320;0.0465;-0.0194;
81723122713825;-0.0533;0.1338;-0.0205;
81723132819607;-0.0724;0.0838;0.0498;
81723142925388;-0.0991;-0.0228;0.0487;
81723153039919;-0.0362;0.0369;0.0349;
81723163145700;0.0032;0.1562;0.0583;
81723173251534;-0.0394;-0.0302;0.0615;
81723183358357;-0.0628;-0.0823;0.0285;
81723193464138;-0.0597;0.0497;0.0051;
81723203569971;-0.0447;0.0401;-0.0258;
81723213683461;-0.0352;-0.0281;-0.0141;
81723223789242;-0.0639;-0.1185;0.0040;
81723233895075;-0.0959;-0.1931;-0.0067;
81723243988252;-0.0373;-0.1686;0.0136;
81723254094034;-0.0075;-0.0525;0.0541;
81723264199867;-0.0511;-0.1707;0.0264;
81723274305961;-0.0405;-0.0652;-0.0407;
81723284411742;-0.0458;0.2851;-0.0631;
81723294517575;-0.0138;0.1818;-0.0013;
81723304636325;-0.0192;-0.0631;0.0210;
81723314742107;-0.0277;0.0294;0.0051;
81723324847940;-0.0256;0.1189;-0.0652;
81723334947940;-0.0554;0.1232;-0.0280;
81723345053721;-0.0394;0.1626;0.0061;
81723355159554;0.0160;0.0603;0.0594;
81723365267940;-0.0330;-0.0132;0.0115;
81723375373721;0.0224;0.1999;-0.0312;
81723385479554;-0.0181;0.0571;-0.0184;
81723395595023;-0.0692;-0.1164;-0.1451;
81723405700804;-0.0437;-0.0663;-0.1515;
81723415806638;-0.1087;-0.0738;-0.1451;
81723425902107;-0.1118;-0.0047;-0.1356;
81723436007888;-0.0831;-0.0471;-0.1483;
81723446113721;-0.0565;-0.1750;-0.1260;
81723456213148;-0.0565;-0.1036;-0.1632;
81723466318929;-0.0266;0.0603;-0.1771;
81723476424763;-0.0224;0.1711;-0.1643;
81723486526898;0.0117;0.0976;-0.1622;
81723496632679;-0.0021;-0.0430;-0.1739;
81723506738513;-0.0032;-0.0525;-0.1750;
81723516848825;0.0245;-0.0121;-0.1419;
81723526954607;0.0075;-0.0834;-0.1345;
81723537060440;0.0298;-0.1664;-0.1249;
81723547166482;0.0692;-0.0345;-0.1132;
81723557272263;0.0490;0.0550;-0.1100;
81723567378096;0.0724;0.0262;-0.0908;
81723577483565;0.0671;-0.0844;-0.0642;
81723587589346;0.1023;-0.0260;-0.1015;
81723597695179;0.1534;0.0784;-0.0631;
81723607800336;0.0597;0.0358;-0.0663;
81723617906117;0.0565;0.0635;-0.0290;
81723628011950;0.0479;0.0348;0.0306;
81723638126898;-0.0202;-0.1068;0.0210;
81723648232679;0.0202;-0.0663;-0.0056;
81723658338513;0.0160;-0.0153;0.0072;
81723668440544;0.0085;-0.0057;0.0306;
81723678546325;0.0128;-0.0345;0.0232;
81723688652159;0.0224;0.0497;0.0072;
81723698766065;-0.0021;0.0049;0.0477;
81723708871846;-0.0426;-0.0441;0.0264;
81723718977679;-0.0383;0.0198;0.0285;
81723729071638;-0.0128;0.0688;0.0763;
81723739177419;0.0053;0.1168;0.0816;
81723749283200;-0.0075;0.0933;0.0562;
81723759397263;0.0032;0.0209;0.0477;
81723769503044;-0.0117;0.0177;0.0423;
81723779608877;-0.0075;-0.0238;0.0402;
81723789710857;-0.0096;-0.0514;-0.0067;
81723799816846;-0.0288;-0.1068;0.0242;
81723809922836;-0.0362;-0.0503;0.0434;
81723820001065;-0.0128;-0.0174;0.0711;
81723830107054;-0.0128;-0.1515;0.0763;
81723840213044;-0.0138;-0.2538;0.0732;
81723850333565;-0.0202;-0.3102;0.0519;
81723860439554;-0.0128;-0.0451;0.0402;
81723870545544;0.0458;0.3234;0.0242;
81723880645648;0.0330;0.2755;-0.0035;
81723890751638;-0.0341;0.0188;0.0221;
81723900857627;-0.0181;0.0262;0.0413;
81723910974190;0.0128;0.1722;0.0509;
81723921080179;-0.0138;0.0816;0.0711;
81723931186169;-0.0234;-0.0441;0.0626;
81723941324138;-0.0341;0.0486;0.0136;
81723951430127;0.0128;0.1935;-0.0088;
81723961536117;-0.0064;0.1839;0.0157;
81723971612627;0.0021;-0.0802;0.0146;
81723981718617;0.0032;-0.3284;0.0040;
81723991824607;-0.0298;-0.3454;-0.0301;
81724001930857;-0.0607;-0.2048;-0.0077;
81724012036846;-0.0298;-0.0663;0.0221;
81724022142836;-0.0128;-0.1185;0.0583;
81724032251794;-0.0213;-0.1366;0.0296;
81724042357784;0.0213;0.0848;-0.0269;
81724052463773;0.0202;0.2180;-0.0322;
81724062567940;0.0053;0.1679;-0.0344;
81724072673929;-0.0021;0.0539;-0.0610;
81724082779919;0.0224;-0.0620;-0.0546;
81724092884502;0.0149;-0.1196;-0.0397;
81724102990492;-0.0117;-0.0887;-0.0514;
81724113096482;0.0117;-0.0929;0.0029;
81724123210909;-0.0213;-0.2325;0.0221;
81724133316898;-0.0117;-0.0834;-0.0631;
81724143422888;0.0575;0.4406;-0.0759;
81724153531273;0.0522;0.4481;-0.0407;
81724163637263;-0.0447;-0.0823;-0.0407;
81724173743252;0.0362;-0.0674;-0.0503;
81724183843409;0.0724;0.1956;-0.0610;
81724193949398;0.0170;0.1146;-0.0578;
81724204055388;-0.0277;-0.0047;-0.0333;
81724214180336;0.0043;-0.0079;-0.0077;
81724224286325;0.0245;0.0209;-0.0322;
81724234392315;0.0479;0.0901;-0.0365;
81724244485127;0.0320;0.0220;-0.0333;
81724254591117;-0.0298;-0.2868;-0.0461;
81724264697107;0.0043;-0.2794;-0.0791;
81724274792836;0.0181;0.0230;-0.0748;
81724284898825;0.0373;0.0667;-0.0589;
81724295004815;0.0011;-0.0206;-0.0354;
81724305117992;0.0170;0.0390;-0.0088;
81724315223982;0.0543;0.0880;0.0168;
81724325329971;0.0298;0.0624;-0.0205;
81724335446794;0.0128;0.0316;-0.0535;
81724345552784;0.0224;0.0816;-0.0439;
81724355658773;0.0320;0.0134;-0.0567;
81724365737315;0.0245;-0.0441;-0.0738;
81724375843304;0.0426;0.0092;-0.0375;
81724385949294;0.0107;-0.0642;-0.0493;
81724396061065;0.0107;-0.1217;-0.0162;
81724406167054;0.0256;-0.1089;-0.0045;
81724416273044;0.0202;-0.1409;0.0104;
81724426388148;0.0149;-0.0398;-0.0344;
81724436494138;0.0330;0.1115;-0.0461;
81724446600127;0.0426;0.0891;-0.0344;
81724456712836;0.0256;0.0028;-0.0418;
81724466818825;0.0511;0.0816;-0.0407;
81724476924815;0.0128;0.1157;-0.0525;
81724487019607;0.0032;0.0699;-0.0546;
81724497125596;0.0064;0.0241;-0.0162;
81724507231586;0.0192;-0.0610;0.0136;
81724517342419;0.0021;-0.0217;-0.0248;
81724527448409;0.0426;0.0561;-0.0290;
81724537554398;0.0405;-0.0493;-0.0120;
81724547661898;0.0053;-0.2027;-0.0152;
81724557767888;0.0032;-0.1153;-0.0663;
81724567873877;0.0373;0.0486;-0.0407;
81724577993773;0.0266;-0.0025;-0.0301;
81724588099763;0.0234;-0.0716;0.0104;
81724598205752;0.0341;0.0113;0.0210;
81724608286690;0.0628;0.0422;0.0168;
81724618392679;0.0256;0.0667;-0.0226;
81724628498669;0.0021;0.0731;-0.0173;
81724638598877;0.0011;0.0443;-0.0397;
81724648704867;0.0021;0.0198;-0.0620;
81724658810857;0.0266;0.0742;-0.0663;
81724668922732;0.0628;0.0262;-0.0322;
81724679028721;0.0362;-0.1089;-0.0024;
81724689134711;0.0320;-0.1111;0.0072;
81724699260544;0.0213;-0.0855;0.0168;
81724709366534;0.0117;-0.1068;-0.0354;
81724719472523;0.0277;-0.0025;-0.0322;
81724729568982;0.0373;0.0390;-0.0088;
81724739674971;0.0362;0.0113;-0.0301;
81724749780961;0.0554;0.0539;-0.0493;
81724759865440;0.0479;0.0635;-0.0482;
81724769971429;0.0554;0.0113;-0.0471;
81724780077419;0.0362;-0.0111;-0.0216;
81724790209711;0.0362;0.0049;-0.0045;
81724800315700;0.0490;-0.0142;0.0083;
81724810421690;0.0405;-0.0514;-0.0205;
81724820497836;0.0309;-0.0823;-0.0269;
81724830603825;0.0298;-0.0514;-0.0546;
81724840709815;0.0469;-0.0514;-0.0344;
81724850835023;0.0373;-0.1004;-0.0386;
81724860941013;0.0415;-0.0620;-0.0684;
81724871047002;0.0660;0.0678;-0.0684;
81724881144086;0.0756;-0.0546;-0.0237;
81724891250075;0.1598;-0.3060;0.0306;
81724901356065;0.1065;-0.1473;-0.0184;
81724911474086;0.0639;0.2616;-0.0269;
81724921580075;0.1012;0.1860;0.0008;
81724931686065;0.0788;-0.1036;-0.0024;
81724941802054;0.1427;0.0326;-0.0162;
81724951908044;0.1055;0.1370;0.0019;
81724962014034;0.0447;-0.0185;-0.0088;
81724972115232;0.0831;0.0369;0.0104;
81724982221221;0.1065;0.1796;0.0253;
81724992327211;0.1012;0.2947;0.0221;
81725002426690;0.1055;0.2957;0.0051;
81725012532679;0.0394;-0.0377;0.0434;
81725022638669;0.0298;-0.1718;0.0530;
81725032740232;0.0618;0.0262;0.0029;
81725042846221;0.0479;-0.0004;0.0093;
81725052952211;0.0735;-0.0780;0.0136;
81725063065857;0.0714;0.0859;0.0264;
81725073171846;0.1065;0.1583;0.0487;
81725083277836;0.0671;-0.1888;0.0743;
81725093405336;0.0245;-0.3848;0.0157;
81725103511325;0.0756;-0.1877;0.0115;
81725113617315;0.0586;-0.0514;0.0242;
81725123684711;0.0650;-0.0834;0.0210;
81725133790700;0.0788;-0.0695;0.0413;
81725143896690;0.1065;0.0326;0.0541;
81725154016325;0.1023;0.0646;0.0274;
81725164122315;0.0991;0.0859;0.0360;
81725174228304;0.0799;0.0571;0.0763;
81725184337732;0.0810;0.0039;0.0784;
81725194443721;0.0799;0.1200;0.0636;
81725204549711;0.1023;0.1871;0.0583;
81725214645752;0.0426;0.0465;0.0455;
81725224751742;0.0224;-0.0620;0.0530;
81725234857732;0.0256;-0.0599;0.0722;
81725244965336;0.0628;-0.0503;0.0732;
81725255071325;0.0756;-0.1206;0.0668;
81725265177315;0.0703;-0.1111;0.1221;
81725275279815;0.1012;-0.0015;0.1370;
81725285385804;0.0362;-0.0142;0.0891;
81725295491794;0.0415;-0.0111;0.0987;
81725305602940;0.0075;-0.0525;0.1051;
81725315708929;0.0288;-0.0589;0.0763;
81725325814919;-0.0128;-0.0525;0.0869;
81725335932315;0.0021;-0.0759;0.1019;
81725346038304;0.0245;-0.0631;0.0848;
81725356144294;0.0895;-0.0281;0.0838;
81725366220857;0.0703;0.0710;0.1051;
81725376326846;0.0607;0.1338;0.1328;
81725386432836;0.0128;0.0230;0.0955;
81725396562211;0.0192;-0.0471;0.0690;
81725406668200;0.0309;0.0060;0.0754;
81725416774190;0.0458;0.0241;0.0743;
81725426869502;0.0181;0.0198;0.0636;
81725436975492;0.0224;0.0166;0.0498;
81725447081482;0.0586;0.0358;0.0381;
81725457192315;0.0660;0.1189;0.0551;
81725467298304;0.0852;0.0358;0.0859;
81725477404294;0.0692;-0.1217;0.1253;
81725487509190;0.0341;-0.1292;0.0658;
81725497615179;0.0628;-0.0557;0.0732;
81725507721169;0.0202;-0.0876;0.0901;
81725517831690;0.0138;-0.0929;0.0562;
81725527937679;0.0202;0.0028;0.0636;
81725538043669;0.0202;0.0944;0.0838;
81725548151690;0.0202;0.0933;0.0806;
81725558257679;0.0554;0.1562;0.0901;
81725568363669;0.0479;0.1168;0.1519;
81725578483252;0.0032;0.0603;0.1562;
81725588589242;0.0266;0.1636;0.1072;
81725598695232;-0.0298;0.1008;0.1530;
81725608776794;-0.0607;-0.0663;0.1509;
81725618882784;-0.0192;-0.0249;0.1402;
81725628988773;-0.0298;0.0475;0.1317;
81725639119294;-0.0362;-0.0121;0.1423;
81725649225284;-0.0724;-0.0345;0.1466;
81725659331273;-0.0298;-0.0132;0.1573;
81725669403461;-0.0170;-0.0153;0.1860;
81725679509450;-0.0394;-0.0238;0.1732;
81725689615440;-0.0522;0.0188;0.1647;
81725699743148;-0.0735;-0.0089;0.1722;
81725709849138;-0.0735;-0.0684;0.1573;
81725719955127;-0.0863;-0.0089;0.1146;
81725730054815;-0.1001;0.0465;0.1083;
81725740160804;-0.1470;0.0262;0.1221;
81725750266794;-0.1726;-0.0132;0.1232;
81725760375544;-0.1545;0.0433;0.1210;
81725770481534;-0.1332;0.0550;0.1093;
81725780587523;-0.1491;-0.0270;0.0754;
81725790692002;-0.1353;-0.0398;0.0391;
81725800797992;-0.1459;0.0465;0.0658;
81725810903929;-0.1513;-0.0111;0.0391;
81725820991273;-0.1342;-0.0546;0.0104;
81725831097263;-0.1310;0.0017;-0.0141;
81725841203200;-0.1182;0.0454;-0.0152;
81725851316586;-0.1353;0.0273;-0.0237;
81725861422575;-0.1332;0.0039;-0.0418;
81725871528513;-0.0767;0.0039;-0.0375;
81725881634607;-0.0831;-0.0334;-0.0397;
81725891740596;-0.1087;-0.0281;-0.1079;
81725901846534;-0.0916;-0.0121;-0.0748;
81725911959815;-0.1065;-0.0663;-0.0620;
81725922065804;-0.0927;-0.0578;-0.0866;
81725932171742;-0.0895;0.0081;-0.1164;
81725942291065;-0.0724;-0.0493;-0.1079;
81725952397054;-0.0735;-0.0642;-0.0823;
81725962502992;-0.0202;0.0752;-0.0567;
81725972598773;-0.0266;0.0997;-0.0493;
81725982704763;-0.0437;-0.0844;-0.0642;
81725992810700;-0.0415;0.0262;-0.0919;
81726002915648;-0.0586;0.0965;-0.0791;
81726013021638;-0.1033;-0.0631;-0.0312;
81726023127575;-0.0650;-0.1004;-0.0439;
81726033231273;-0.0394;-0.0578;-0.0620;
81726043337263;-0.0724;-0.1142;-0.0727;
81726053443252;-0.0852;-0.0546;-0.0674;
81726063543357;-0.0533;0.0017;-0.0546;
81726073649346;-0.0490;0.0582;-0.0152;
81726083755284;-0.0490;-0.0908;-0.0109;
81726093885804;-0.0756;-0.2144;-0.0429;
81726103991794;-0.0085;0.0401;-0.0375;
81726114097732;-0.0330;0.0784;-0.0194;
81726124196586;-0.1033;0.0177;-0.0312;
81726134302575;-0.0671;0.0944;-0.0375;
81726144408513;-0.0842;0.0593;-0.0269;
81726154508252;-0.0735;0.1051;-0.0290;
81726164614242;-0.0522;0.1210;-0.0237;
81726174720179;-0.0383;-0.0557;0.0051;
81726184823148;-0.0064;-0.0451;0.0189;
81726194929138;-0.0075;-0.0652;-0.0120;
81726205035075;0.0138;0.0401;-0.0375;
81726215145492;-0.0437;0.0869;-0.0088;
81726225251482;-0.1087;-0.0983;-0.0173;
81726235357419;-0.0746;-0.1398;-0.0344;
81726245442107;-0.0788;-0.0759;-0.0535;
81726255548096;-0.0469;-0.0356;-0.0599;
81726265654086;-0.0692;-0.0514;-0.0375;
81726275774242;-0.0383;-0.0684;-0.0322;
81726285880232;-0.0075;-0.0015;-0.0237;
81726295986169;0.0245;0.0763;-0.0386;
81726306095544;-0.0234;0.1200;-0.0940;
81726316201534;-0.0288;0.0145;-0.0834;
81726326307471;-0.0437;-0.0228;-0.0663;
81726336406273;0.0160;0.0710;-0.0929;
81726346512263;-0.0394;0.0081;-0.0695;
81726356618200;-0.0181;-0.0993;-0.0855;
81726366743148;-0.0128;-0.0631;-0.0887;
81726376849138;0.0021;0.0145;-0.0951;
81726386955075;0.0117;0.0177;-0.0770;
81726397062107;0.0149;-0.0292;-0.0503;
81726407168096;0.0415;-0.0132;-0.0823;
81726417274034;0.0415;0.0358;-0.1015;
81726427355596;-0.0309;-0.0759;-0.1174;
81726437461586;0.0224;-0.0834;-0.1366;
81726447567575;0.0522;0.0688;-0.1015;
81726457684711;-0.0309;-0.0535;-0.1100;
81726467790700;0.0128;-0.1079;-0.1387;
81726477896638;0.0362;0.0294;-0.1313;
81726488000023;0.0309;-0.0249;-0.1068;
81726498106013;0.0202;-0.2016;-0.0919;
81726508211950;0.0618;-0.2080;-0.0866;
81726518317315;0.1523;-0.1888;-0.1451;
81726528423304;0.3675;0.0891;-0.1451;
81726538529242;0.2812;0.3000;-0.0866;
81726548632211;0.1683;0.2201;-0.0695;
81726558738200;0.1385;0.1945;-0.0418;
81726568844138;0.1257;0.1881;0.0008;
81726578961690;0.1321;0.1285;0.0168;
81726589067679;0.1129;0.1221;0.0019;
81726599173617;0.1161;-0.0164;0.0093;
81726609259502;0.1353;-0.0441;0.0125;
81726619365492;0.2013;0.0475;0.0189;
81726629471429;0.1971;0.0177;0.0008;
81726639608773;0.1726;0.1306;0.0285;
81726649714763;0.0820;-0.0727;0.0349;
81726659820700;0.0181;-0.4541;0.0551;
81726669888357;0.0650;-0.2272;0.0466;
81726679994346;0.0959;-0.0525;0.0615;
81726690100336;0.0224;-0.2091;0.0519;
81726700218148;0.0522;-0.0802;0.0658;
81726710324138;0.1065;0.0933;0.0923;
81726720430075;0.0937;0.0656;0.0732;
81726730531273;0.0810;0.0614;0.0349;
81726740637263;0.1044;0.1381;0.0093;
81726750743200;0.1012;0.1029;0.0242;
81726760838565;0.0714;-0.0461;0.0296;
81726770944554;0.0714;-0.0706;0.0221;
81726781050544;0.0927;0.0326;0.0423;
81726791172940;0.0778;-0.0451;0.0573;
81726801278877;0.0682;-0.1228;0.0530;
81726811384867;0.1023;0.0230;0.0647;
81726821496169;0.0991;0.0316;0.0880;
81726831602107;0.0842;-0.0684;0.1051;
81726841708096;0.0895;-0.0132;0.0530;
81726851797940;0.0991;0.1104;0.0221;
81726861903877;0.0671;0.0358;0.0455;
81726872009867;0.0692;-0.0196;0.0583;
81726882110909;0.0714;0.0422;0.0402;
81726892216846;0.0511;0.0348;0.0391;
81726902322836;0.0362;-0.0589;0.0605;
81726912444815;0.0554;-0.0589;0.0774;
81726922550752;0.0916;0.0081;0.0997;
81726932656742;0.0873;0.0124;0.1264;
81726942759607;0.0405;-0.0631;0.1306;
81726952865544;0.0522;-0.0132;0.0806;
81726962971534;0.0639;0.0550;0.0806;
81726973059398;0.0192;0.0124;0.1115;
81726983165336;0.0234;0.0134;0.0827;
81726993271325;0.0320;0.0507;0.0848;
81727003388565;-0.0309;0.0465;0.1072;
81727013494502;-0.0394;-0.0260;0.1125;
81727023600492;-0.0320;-0.0345;0.1029;
81727033713357;0.0021;-0.0451;0.1200;
81727043819294;0.0405;-0.0695;0.1732;
81727053925284;0.0181;-0.0387;0.1594;
81727064025492;0.0447;0.0284;0.1072;
81727074131429;0.0234;0.0571;0.0816;
81727084237419;-0.0117;0.0230;0.1040;
81727094333877;-0.0117;-0.0068;0.1157;
81727104439815;-0.0128;-0.0025;0.0955;
81727114545804;-0.0128;0.0593;0.0816;
81727124666742;-0.0170;0.0188;0.1115;
81727134772679;-0.0298;-0.0791;0.1402;
81727144878669;-0.0117;-0.0015;0.1562;
81727154991065;0.0224;0.1370;0.1594;
81727165097002;-0.0011;0.1711;0.1168;
81727175202992;-0.0820;0.0017;0.0901;
81727185302992;-0.0980;-0.0834;0.1019;
81727195408929;-0.0064;0.0933;0.1083;
81727205514919;-0.0021;0.1562;0.0722;
81727215613825;-0.0692;-0.0015;0.0562;
81727225719763;-0.0916;0.0071;0.0658;
81727235825752;-0.0383;0.0933;0.0848;
81727245920961;-0.0405;-0.0025;0.0754;
81727256026898;-0.0437;-0.0823;0.0763;
81727266132888;-0.0373;-0.0366;0.0965;
81727276255336;0.0160;0.0369;0.1051;
81727286361273;-0.0479;-0.0727;0.0816;
81727296467263;-0.0362;-0.1142;0.0445;
81727306565492;-0.0085;0.0284;0.0647;
81727316671429;-0.0160;0.0838;0.0763;
81727326777367;-0.0288;0.0188;0.0338;
81727336893252;-0.0565;-0.0089;0.0381;
81727346999190;-0.0597;0.0028;0.0541;
81727357105179;-0.0660;-0.0185;0.0413;
81727367224086;-0.0149;0.1221;0.0754;
81727377330023;-0.0522;-0.0047;0.1136;
81727387436013;-0.0682;-0.1643;0.1391;
81727397540336;-0.0202;0.0166;0.0763;
81727407646273;-0.0149;0.1328;0.0125;
81727417752263;-0.1076;-0.0599;0.0487;
81727427847107;-0.1044;-0.1015;0.0668;
81727437953044;-0.0447;0.0348;0.0477;
81727448059034;-0.0671;0.0667;0.0434;
81727458164398;-0.1736;-0.0345;0.0306;
81727468270336;-0.1545;0.0475;0.0178;
81727478376325;-0.1555;0.1040;0.0136;
81727488486898;-0.2459;-0.0674;0.0541;
81727498592836;-0.3120;-0.2005;0.0551;
81727508698825;-0.2130;0.0007;-0.0109;
81727518800232;-0.1662;0.1157;-0.0557;
81727528906169;-0.3940;-0.3145;-0.0248;
81727539012159;-0.3130;-0.1867;-0.0514;
81727549112627;-0.0778;0.3245;-0.1302;
81727559218565;-0.1097;0.2989;-0.1068;
81727569324554;-0.2225;0.0848;-0.0834;
81727579447627;-0.1917;0.1573;-0.0876;
81727589553565;-0.1342;0.3032;-0.0738;
81727599659502;-0.2067;0.0720;-0.0631;
81727609743461;-0.2045;-0.1238;-0.0738;
81727619849398;-0.0756;0.1562;-0.1164;
81727629955388;-0.1140;0.2329;-0.1728;
81727640054138;-0.1832;-0.0525;-0.1569;
81727650160075;-0.1289;-0.0121;-0.1537;
81727660266065;-0.0533;0.3075;-0.1537;
81727670387523;-0.1427;-0.0345;-0.1814;
81727680493461;-0.1491;-0.4146;-0.1824;
81727690599450;-0.0873;-0.1909;-0.2101;
81727700738669;-0.0714;-0.0185;-0.1569;
81727710844607;-0.1257;-0.1760;-0.1249;
81727720950596;-0.0905;-0.1622;-0.1302;
81727731020857;-0.0533;0.1583;-0.1569;
81727741126794;-0.0724;0.1381;-0.1920;
81727751232784;-0.1150;-0.1206;-0.1675;
81727761331273;-0.0607;0.0550;-0.1771;
81727771437211;-0.0128;0.2180;-0.2186;
81727781543200;-0.0597;0.0646;-0.2336;
81727791669919;-0.0660;-0.0471;-0.2314;
81727801775909;0.0043;-0.0451;-0.2005;
81727811881846;0.0202;-0.0546;-0.1611;
81727821975127;-0.0032;-0.0993;-0.1217;
81727832081117;0.0053;-0.0716;-0.1185;
81727842187054;0.0224;-0.0738;-0.1249;
81727852275961;0.0703;-0.0855;-0.1505;
81727862381950;0.0799;0.0241;-0.1632;
81727872487888;0.0618;0.1221;-0.1526;
81727882607315;0.0266;0.0337;-0.1515;
81727892713304;-0.0181;-0.0695;-0.1515;
81727902819242;0.0256;0.0145;-0.1579;
81727912912732;0.0181;0.0326;-0.1547;
81727923018721;-0.0064;-0.0461;-0.1728;
81727933124659;0.0607;0.0720;-0.1483;
81727943246690;0.0533;0.0422;-0.1025;
81727953352679;0.0352;-0.1622;-0.0983;
81727963458617;0.0991;-0.1111;-0.1324;
81727973547575;0.1907;0.0337;-0.1590;
81727983653565;0.2482;0.0379;-0.1196;
81727993759502;0.1555;-0.0855;-0.0961;
81728003885440;0.1278;-0.0663;-0.0823;
81728013991429;0.1779;0.0369;-0.1206;
81728024097367;0.2269;0.0379;-0.1068;
81728034184294;0.1587;-0.0036;-0.0748;
81728044290284;0.1854;0.0720;-0.0599;
81728054396221;0.2439;0.2095;-0.0365;
81728064523565;0.1960;0.1647;-0.0024;
81728074629554;0.1055;0.0923;0.0168;
81728084735492;0.1427;0.1594;-0.0120;
81728094824502;0.1715;0.1860;-0.0375;
81728104930492;0.0959;0.0198;-0.0322;
81728115036429;0.0948;-0.0377;-0.0184;
81728125161273;0.1172;-0.0876;-0.0407;
81728135267211;0.1044;-0.1622;-0.0663;
81728145373200;0.0969;-0.1824;-0.0599;
81728155480023;0.1140;-0.1238;-0.0354;
81728165586013;0.1097;-0.0919;-0.0269;
81728175691950;0.1310;-0.1302;-0.0077;
81728185785857;0.1268;-0.3252;0.0189;
81728195891846;0.1225;-0.3710;0.0200;
81728205997784;0.1246;-0.1686;-0.0194;
81728216109190;0.1619;-0.0164;-0.0216;
81728226215179;0.1640;-0.0260;-0.0024;
81728236321117;0.1438;0.0166;0.0093;
81728246417002;0.1438;0.0848;-0.0056;
81728256522992;0.1481;0.1402;0.0040;
81728266628929;0.1523;0.1200;0.0115;
81728276739502;0.1374;0.0965;0.0264;
81728286845492;0.1118;0.0784;0.0413;
81728296951429;0.1001;-0.0025;0.0722;
81728307054815;0.0927;0.0103;0.0838;
81728317160804;0.1097;0.0784;0.0816;
81728327266742;0.1150;0.1242;0.0541;
81728337379086;0.0820;0.0220;0.0711;
81728347485075;0.0533;-0.0897;0.0583;
81728357591013;0.0842;-0.0409;0.0487;
81728367709554;0.0607;-0.1100;0.0530;
81728377815544;0.0905;-0.1366;0.0774;
81728387921482;0.0969;-0.0620;0.0743;
81728398015857;0.0415;-0.2229;0.0253;
81728408121846;0.0426;-0.1185;0.0200;
81728418227784;0.1012;0.2830;0.0901;
81728428332836;0.1545;0.2553;0.1146;
81728438438825;0.0639;-0.1100;0.1104;
81728448544763;0.0362;-0.0684;0.0338;
81728458644607;0.1161;0.1658;0.0784;
81728468750596;0.0735;0.0518;0.1210;
81728478856534;0.0778;0.0188;0.0700;
81728488958669;0.1012;0.1935;0.0732;
81728499064659;0.0895;0.1115;0.0647;
81728509170596;0.0842;0.0774;0.0795;
81728519273357;0.0799;0.1146;0.0912;
81728529379346;0.1044;0.2020;0.1083;
81728539485284;0.1172;0.2265;0.1296;
81728549612419;0.0756;-0.1632;0.1551;
81728559718409;0.0107;-0.4359;0.1349;
81728569824346;0.0362;-0.0663;0.0679;
81728579914502;0.0224;0.1221;0.0732;
81728590020492;-0.0288;-0.0089;0.1125;
81728600126429;0.0021;0.0795;0.0987;
81728610271377;0.0341;0.2020;0.0679;
81728620377367;-0.0660;-0.0142;0.0605;
81728630483304;-0.1087;-0.1547;0.0296;
81728640564711;0.0256;0.0955;0.0306;
81728650670700;0.0298;0.1232;0.0743;
81728660776638;-0.0618;-0.1526;0.0912;
81728670869502;0.0160;-0.0589;0.0743;
81728680975492;0.0224;0.1455;0.0434;
81728691081429;-0.0085;0.0134;0.0285;
81728701212211;0.0128;-0.1036;0.0605;
81728711318200;0.0426;0.0060;0.0562;
81728721424138;0.0096;0.0593;0.0083;
81728731525648;-0.0394;-0.0972;0.0178;
81728741631638;-0.0330;-0.0780;0.0253;
81728751737575;0.0011;0.0795;0.0040;
81728761833044;-0.0053;0.0401;0.0008;
81728771939034;-0.0053;-0.0398;0.0328;
81728782044971;0.0032;-0.0567;0.0690;
81728792138982;0.0447;0.0316;0.0583;
81728802245782;0.0458;0.0827;0.0349;
81728812351720;-0.0511;-0.0121;0.0168;
81728822452240;0.0053;-0.0206;0.0338;
81728832558178;0.0245;0.0880;0.0455;
81728842664115;0.0138;0.0795;0.0466;
81728852773178;-0.0064;-0.0015;0.0626;
81728862879115;-0.0320;-0.0292;0.0509;
81728872985001;0.0192;0.0667;0.0509;
81728883091303;0.0117;0.0156;0.0743;
81728893197240;-0.0788;-0.0451;0.1104;
81728903303178;-0.0075;0.0433;0.0933;
81728913400157;0.0266;0.0848;0.1019;
81728923506095;-0.0905;-0.0206;0.1157;
81728933612032;-0.0575;-0.1004;0.1072;
81728943728282;-0.0501;-0.0503;0.0901;
81728953834220;-0.0170;0.0582;0.0636;
81728963940157;-0.0373;0.0561;0.0912;
81728974060001;-0.1257;-0.0356;0.0774;
81728984165938;-0.0884;-0.0270;0.0976;
81728994271876;-0.0245;0.0838;0.0955;
81729004359688;-0.0234;0.0497;0.1093;
81729014465626;-0.0565;-0.0366;0.1530;
81729024571563;-0.0053;0.0113;0.1732;
81729034676928;-0.0362;-0.0047;0.1903;
81729044782865;-0.0671;-0.0791;0.1498;
81729054888803;-0.0586;-0.0897;0.1445;
81729064996720;-0.0586;-0.0748;0.1583;
81729075102657;-0.0597;-0.0802;0.1381;
81729085208595;-0.0799;-0.0759;0.0955;
81729095316095;-0.1310;-0.0983;0.1051;
81729105422032;-0.2045;-0.1664;0.1178;
81729115527970;-0.2099;-0.2612;0.0976;
81729125626928;-0.0607;0.0230;0.0455;
81729135732865;-0.0362;0.3426;0.0274;
81729145838803;-0.2694;0.1871;0.0869;
81729155956199;-0.4909;0.0017;0.1402;
81729166062136;-0.4600;0.1253;0.0859;
81729176168074;-0.3993;0.1658;0.0136;
81729186274845;-0.4387;0.0060;-0.0354;
81729196380782;-0.4025;0.0124;-0.0738;
81729206486720;-0.2130;0.1775;-0.1270;
81729216585782;-0.2130;0.1477;-0.1270;
81729226691720;-0.3748;-0.0620;-0.1398;
81729236797657;-0.1939;-0.0313;-0.1387;
81729246919011;-0.0522;0.1306;-0.1675;
81729257024949;-0.1087;0.1807;-0.1526;
81729267130834;-0.2130;-0.1068;-0.1196;
81729277236355;-0.2088;-0.4232;-0.1047;
81729287342292;-0.0746;-0.2005;-0.1675;
81729297448230;0.0565;0.0390;-0.1984;
81729307539636;-0.1928;-0.0812;-0.1824;
81729317645574;-0.2427;-0.1270;-0.1750;
81729327751511;-0.1172;0.0827;-0.1909;
81729337863855;-0.1055;0.2585;-0.2154;
81729347969792;-0.1768;0.1945;-0.2176;
81729358075730;-0.1864;-0.0068;-0.2229;
81729368192501;-0.0937;0.0284;-0.2346;
81729378298438;-0.0415;0.0997;-0.2282;
81729388404324;-0.0575;-0.0356;-0.1686;
81729398509949;0.0298;-0.1238;-0.1515;
81729408615886;0.2035;-0.0441;-0.1792;
81729418721824;0.2130;0.0369;-0.1952;
81729428822345;0.0842;-0.0441;-0.1260;
81729438928282;-0.0618;-0.1782;-0.1036;
81729449034220;0.0469;-0.0706;-0.1387;
81729459133907;0.1332;0.0891;-0.1707;
81729469239845;0.0586;0.0220;-0.1664;
81729479345782;-0.0703;-0.0503;-0.1441;
81729489443699;-0.0192;0.0007;-0.1537;
81729499549636;0.0660;0.1242;-0.1228;
81729509655522;0.0266;0.0603;-0.1004;
81729519754949;0.0128;-0.1302;-0.0471;
81729529860886;0.1204;-0.0759;-0.0620;
81729539966824;0.3110;0.0859;-0.1121;
81729550043803;0.2812;-0.0292;-0.0695;
81729560149740;0.1513;-0.2378;-0.0024;
81729570255678;0.2961;-0.0461;-0.0035;
81729580398334;0.4909;0.1636;-0.0077;
81729590504272;0.3909;0.0465;0.0253;
81729600610209;0.1214;-0.0620;0.0594;
81729610738178;0.0884;0.0326;0.0763;
81729620844115;0.1449;0.0156;0.0722;
81729630950053;0.0969;-0.1057;0.0774;
81729641030157;0.1225;-0.0993;0.0976;
81729651136095;0.1236;-0.0377;0.1093;
81729661242032;0.0873;-0.0302;0.1040;
81729671352970;0.0714;0.0369;0.1115;
81729681458907;0.0501;0.0379;0.1178;
81729691564845;0.0128;-0.0557;0.1008;
81729701673074;0.0266;0.0039;0.0668;
81729711779011;0.0650;0.1253;0.0487;
81729721884897;-0.0170;-0.0004;0.0774;
81729731983490;-0.0799;-0.0802;0.0955;
81729742089428;-0.0021;-0.0036;0.0838;
81729752195365;-0.0160;0.0720;0.0615;
81729762297605;-0.1161;-0.0100;0.0519;
81729772403542;-0.1395;-0.0706;0.0711;
81729782509480;-0.1033;-0.0503;0.0019;
81729792619636;-0.0053;0.0092;-0.0152;
81729802725574;-0.0298;0.1338;-0.0386;
81729812831459;-0.0852;0.1381;-0.0248;
81729822933803;-0.2130;-0.0951;0.0040;
81729833039740;-0.2120;-0.0281;-0.0418;
81729843145626;-0.0650;0.1562;-0.0983;
81729853271199;-0.0341;0.0124;-0.0823;
81729863377084;-0.1161;-0.0802;-0.0919;
81729873483022;0.0256;0.0869;-0.0940;
81729883566928;0.0469;0.1115;-0.0802;
81729893672865;0.0213;-0.0057;-0.0567;
81729903778751;0.0075;-0.0652;-0.0674;
81729913895522;0.1087;0.0284;-0.0866;
81729924001407;0.1715;0.1093;-0.0855;
81729934107345;0.1502;0.0550;-0.0503;
81729944232657;0.0405;-0.0652;-0.0322;
81729954338595;0.0586;-0.1153;-0.0589;
81729964444480;0.1736;-0.0260;-0.1174;
81729974516095;0.2684;0.1679;-0.1164;
81729984621980;0.0490;0.1317;-0.0855;
81729994727917;0.0053;0.0411;-0.0397;
81730004846303;0.0873;0.0177;-0.0258;
81730014952188;0.0437;-0.0983;-0.0823;
81730025058126;0.1118;-0.1121;-0.0727;
81730035163803;0.2024;0.0475;-0.0940;
81730045269740;0.2418;0.0294;-0.0834;
81730055375626;0.0916;-0.1217;-0.0887;
81730065478699;0.0863;-0.0441;-0.0983;
81730075584584;0.1342;0.0987;-0.0812;
81730085690522;0.1300;0.0869;-0.0322;
81730095807136;0.0511;-0.0441;-0.1004;
81730105913022;0.1055;-0.0185;-0.0791;
81730116018959;0.1044;0.0049;-0.1004;
81730126130261;0.1087;-0.1004;-0.1004;
81730136236199;0.0895;-0.1057;-0.0929;
81730146342084;0.1246;0.0284;-0.0887;
81730156434115;0.1097;0.0593;-0.0866;
81730166540053;0.1310;0.0518;-0.0812;
81730176645938;0.1513;0.0358;-0.0834;
81730186752032;0.1257;0.0209;-0.1036;
81730196857917;0.1672;0.0742;-0.1228;
81730206963855;0.1726;0.0933;-0.0812;
81730217060470;0.0937;-0.0409;-0.0695;
81730227166355;0.1150;-0.1515;-0.0802;
81730237272292;0.1278;-0.0759;-0.1047;
81730247376511;0.2194;0.0646;-0.1047;
81730257482397;0.2109;0.0113;-0.0961;
81730267588334;0.0788;-0.1356;-0.0961;
81730277701824;0.1481;-0.0493;-0.0834;
81730287807709;0.1630;-0.0025;-0.0674;
81730297913647;0.1758;-0.0727;-0.0471;
81730308027553;0.2194;0.0571;-0.0120;
81730318133438;0.2173;0.1232;-0.0439;
81730328239376;0.1449;0.0443;-0.0791;
81730338344636;0.0873;0.0284;-0.0706;
81730348450522;0.1449;0.0401;-0.0365;
81730358556459;0.1523;-0.0493;-0.0077;
81730368675001;0.1459;-0.0780;-0.0407;
81730378780886;0.2578;0.0390;-0.0450;
81730388886824;0.2226;0.0635;-0.0525;
81730398992970;0.1257;-0.0313;-0.0589;
81730409098855;0.1523;-0.0366;-0.0642;
81730419204792;0.2024;0.0081;-0.0301;
81730429289845;0.1758;0.0390;-0.0312;
81730439395730;0.1992;0.0198;-0.0216;
81730449501720;0.2141;0.0134;-0.0067;
81730459631824;0.2141;0.0209;-0.0237;
81730469737709;0.2333;0.0827;-0.0056;
81730479843647;0.2024;0.1700;0.0264;
81730489924220;0.1694;0.0049;0.0296;
81730500030157;0.2088;-0.0780;0.0072;
81730510136042;0.2663;0.0827;0.0115;
81730520309428;0.2418;0.0624;0.0125;
81730530415313;0.1640;-0.0876;0.0242;
81730540521251;0.1981;-0.0770;0.0083;
81730550571824;0.2450;0.0060;0.0051;
81730560677709;0.1939;0.0390;0.0115;
81730570783647;0.1864;0.0539;0.0296;
81730580873386;0.2045;0.0134;0.0477;
81730590979272;0.1758;-0.0823;-0.0056;
81730601085209;0.2226;-0.0079;-0.0365;
81730611219324;0.1822;0.0603;0.0008;
81730621325209;0.1459;-0.0663;-0.0067;
81730631431147;0.1310;-0.1707;-0.0461;
81730641515990;0.1427;-0.0866;-0.1079;
81730651621876;0.1640;0.0124;-0.1356;
81730661727813;0.1236;-0.0866;-0.1047;
81730671836511;0.1854;-0.0652;-0.0727;
81730681942397;0.2461;0.0550;-0.0759;
81730692048334;0.2205;0.0390;-0.0546;
81730702154636;0.2173;0.0177;-0.0429;
81730712260574;0.3142;0.0284;-0.0194;
81730722366459;0.3238;0.0071;-0.0312;
81730732448595;0.3494;-0.0249;-0.0802;
81730742554532;0.4164;-0.0100;-0.0344;
81730752660417;0.4281;0.0411;0.0402;
81730762788855;0.4153;0.0880;0.0732;
81730772851772;0.3686;0.0731;0.0178;
81730782957657;0.3675;0.0124;-0.0045;
81730793063595;0.3174;0.0422;0.0008;
81730803218386;0.3089;0.0646;0.0349;
81730813324324;0.3142;0.0252;0.0679;
81730823430209;0.3047;0.0007;0.1178;
81730833524220;0.3409;-0.0409;0.1083;
81730843630105;0.3515;-0.0652;0.1423;
81730853736042;0.2642;-0.1707;0.1498;
81730863838595;0.2887;-0.2623;0.1360;
81730873944480;0.3707;-0.1856;0.1146;
81730884050417;0.4174;-0.0493;0.1125;
81730894156772;0.3025;0.1413;0.1115;
81730904262657;0.2631;0.3778;0.1530;
81730914368595;0.2248;0.4268;0.1828;
81730924488699;0.2248;0.2915;0.2148;
81730934594636;0.1811;0.1690;0.2585;
81730944700522;0.2035;0.1019;0.2329;
81730954810261;0.2450;0.0220;0.2414;
81730964916147;0.2258;-0.0855;0.2638;
81730975022084;0.2727;-0.0610;0.2574;
81730985121720;0.2855;0.0252;0.2830;
81730995227657;0.2375;0.0933;0.2776;
81731005333542;0.2173;0.0561;0.2840;
81731015432761;0.2333;0.0635;0.2691;
81731025538647;0.2567;0.2766;0.2957;
81731035644584;0.2067;0.3383;0.3533;
81731045772397;0.1012;0.2808;0.3277;
81731055878282;0.0810;0.0816;0.3192;
81731065984220;-0.0298;-0.1569;0.3362;
81731076071615;-0.1140;-0.2985;0.3501;
81731086177501;0.0075;-0.2218;0.3639;
81731096283438;0.0895;-0.1153;0.3245;
81731106384636;0.1310;0.0017;0.3362;
81731116490574;-0.0107;0.1519;0.3362;
81731126596459;-0.1289;0.1370;0.3511;
81731136707657;-0.2140;-0.0132;0.3224;
81731146813542;-0.0724;0.0401;0.2776;
81731156919480;0.0192;0.1434;0.2244;
81731167030470;-0.0586;0.0742;0.2830;
81731177136355;-0.2161;0.0124;0.2957;
81731187242292;-0.1236;0.0997;0.2616;
81731197350522;-0.1598;-0.0015;0.2350;
81731207456407;-0.3035;-0.1632;0.2286;
81731217562345;-0.2491;-0.1132;0.1988;
81731227663438;-0.2374;-0.1270;0.1605;
81731237769324;-0.3407;-0.1718;0.1264;
81731247875261;-0.3216;-0.0823;0.1285;
81731257976615;-0.3652;-0.0206;0.0700;
81731268082501;-0.3961;-0.1057;0.0923;
81731278188438;-0.4537;-0.1473;0.0573;
81731288291355;-0.2981;-0.0844;0.0487;
81731298397240;-0.1609;0.0763;0.0189;
81731308503178;-0.2406;0.1061;-0.0056;
81731318610782;-0.3216;-0.0079;0.0115;
81731328716667;-0.2225;0.0475;0.0051;
81731338822605;-0.1225;0.0656;-0.0290;
81731348936615;-0.1790;-0.0461;-0.0280;
81731359042553;-0.1854;-0.1111;-0.0290;
81731369148438;-0.0969;0.0220;-0.0301;
81731379214584;-0.1214;0.0806;-0.0045;
81731389320470;-0.2449;-0.0525;-0.0045;
81731399426459;-0.1811;-0.0887;-0.0099;
81731409609324;-0.0756;0.0198;-0.0173;
81731419715209;-0.1427;0.0081;-0.0216;
81731429821147;-0.1385;-0.0834;-0.0248;
81731439867865;-0.0671;-0.0111;0.0040;
81731449973803;-0.0724;0.0891;-0.0184;
81731460079688;-0.1310;0.0571;0.0189;
81731470208803;-0.1406;-0.0079;0.0210;
81731480314688;-0.0714;0.0017;0.0008;
81731490420626;-0.1023;0.0092;-0.0003;
81731500494167;-0.1598;-0.0471;0.0125;
81731510600053;-0.1363;-0.0270;0.0253;
81731520705990;-0.1278;-0.0036;0.0306;
81731530855261;-0.1800;-0.0503;0.0370;
81731540961147;-0.1843;-0.0780;0.0157;
81731551067084;-0.1268;-0.0461;0.0253;
81731561153022;-0.1023;0.0593;0.0562;
81731571258959;-0.1193;0.1668;0.0562;
81731581364845;-0.1523;0.0901;0.0296;
81731591466615;-0.1513;-0.0578;0.0285;
81731601572553;-0.1033;0.0273;0.0061;
81731611678438;-0.1150;0.0987;0.0029;
81731621779063;-0.1864;-0.1111;-0.0088;
81731631884949;-0.1087;-0.1782;-0.0269;
81731641990886;-0.0149;0.0188;-0.0205;
81731652135886;-0.1012;0.0912;-0.0312;
81731662241824;-0.2077;-0.0153;-0.0439;
81731672347709;-0.0842;-0.0387;-0.0354;
81731682431720;-0.0820;0.1083;-0.0056;
81731692537605;-0.1310;0.1668;-0.0312;
81731702643542;-0.1182;0.0774;-0.0620;
81731712746407;-0.1065;0.0028;-0.0557;
81731722852345;-0.0352;0.0337;-0.0386;
81731732958230;-0.0724;0.0156;-0.0557;
81731743062761;-0.0565;-0.0876;-0.1025;
81731753168699;0.0256;-0.0217;-0.1057;
81731763274584;0.0298;0.1115;-0.0866;
81731773400678;-0.0575;0.0678;-0.0439;
81731783506720;-0.0565;-0.0409;-0.0557;
81731793612761;0.0735;0.0656;-0.0951;
81731803689740;0.1672;0.2244;-0.1089;
81731813795782;-0.0341;0.0976;-0.0525;
81731823901824;-0.0650;-0.0546;-0.0322;
81731834004428;0.1204;0.0678;-0.0439;
81731844110470;0.1150;0.1232;-0.0557;
81731854216511;-0.1268;-0.0461;-0.0535;
81731864312553;-0.0543;-0.1217;-0.0610;
81731874418595;0.0394;-0.0493;-0.0184;
81731884524636;0.0256;-0.0068;-0.0280;
81731894632449;0.0192;-0.0356;-0.0471;
81731904738490;-0.0075;0.0092;-0.0503;
81731914844532;-0.0256;0.0869;-0.0855;
81731924975886;-0.0288;0.0390;-0.0972;
81731935081928;-0.0234;-0.0589;-0.0535;
81731945187970;0.0490;0.0071;-0.0546;
81731955292865;0.1715;0.1498;-0.0471;
81731965398907;-0.0362;0.0944;-0.0407;
81731975504949;-0.0352;-0.0356;-0.0620;
81731985607449;0.0405;-0.0100;-0.0429;
81731995713490;0.0202;0.0720;-0.0546;
81732005819532;-0.0245;0.0433;-0.0897;
81732015918386;-0.0501;-0.1089;-0.0620;
81732026024428;0.0181;-0.1174;-0.0365;
81732036130470;0.0597;-0.0132;-0.0450;
81732046228282;0.0511;-0.0068;-0.0695;
81732056334324;0.0245;-0.0174;-0.0759;
81732066440365;0.0501;0.0443;-0.1025;
81732076561199;0.0501;0.0784;-0.0748;
81732086667240;0.0043;0.0454;-0.0834;
81732096773282;0.0650;0.0497;-0.0876;
81732106887761;0.0533;0.0486;-0.0993;
81732116993803;0.0575;0.0411;-0.1057;
81732127099845;0.0117;0.0252;-0.0844;
81732137140886;0.0256;-0.0153;-0.0983;
81732147246928;0.0692;-0.0153;-0.0844;
81732157352970;0.0682;0.0241;-0.0674;
81732167508386;0.0021;-0.0079;-0.0866;
81732177614428;-0.0032;-0.0791;-0.0759;
81732187720470;0.0554;-0.0844;-0.0620;
81732197828178;0.1257;-0.0153;-0.0461;
81732207934220;0.1854;0.0688;-0.0322;
81732218040261;0.0842;0.0348;-0.0610;
81732228142553;0.0575;0.0209;-0.0844;
81732238248595;0.0937;0.0465;-0.0759;
81732248354636;0.0948;0.0145;-0.0312;
81732258482240;0.0884;-0.0398;-0.0269;
81732268588282;0.1204;-0.0631;-0.0386;
81732278694324;0.1310;-0.0111;-0.0706;
81732288774011;0.1438;-0.0377;-0.0375;
81732298880053;0.0511;-0.0780;-0.0301;
81732308986095;0.1055;-0.0471;-0.0280;
81732319087605;0.1087;0.0007;-0.0237;
81732329193647;0.0905;0.0465;-0.0173;
81732339299688;0.0831;0.0582;0.0029;
81732349410470;0.0735;-0.0142;0.0242;
81732359516511;0.0692;-0.0578;0.0093;
81732369622553;0.1225;-0.0589;0.0061;
81732379748907;0.1779;-0.0471;0.0168;
81732389854949;0.1555;-0.0663;0.0157;
81732399960990;0.1800;-0.1025;-0.0290;
81732410039011;0.1864;-0.1132;-0.0173;
81732420145053;0.1907;-0.0823;0.0157;
81732430251095;0.1651;-0.0366;0.0349;
81732440347657;0.1140;-0.0525;0.0083;
81732450453699;0.1353;-0.0535;-0.0226;
81732460559740;0.1214;0.0422;-0.0290;
81732470716095;0.0873;0.0901;-0.0194;
81732480822136;0.0724;0.0081;-0.0354;
81732490928178;0.0927;-0.0503;-0.0525;
81732500983282;0.0724;0.0156;-0.0194;
81732511089324;0.0969;0.0635;-0.0237;
81732521195365;0.0980;0.0454;-0.0130;
81732531333074;0.1289;-0.0324;-0.0077;
81732541439115;0.1044;-0.0802;0.0051;
81732551545157;0.0884;-0.0802;0.0040;
81732561636615;0.1353;-0.0940;-0.0120;
81732571742657;0.1449;0.0007;-0.0067;
81732581848699;0.1161;0.1423;-0.0418;
81732591938178;0.1118;0.1850;-0.0418;
81732602044220;0.1044;0.1722;-0.0333;
81732612150261;0.1257;0.1232;-0.0130;
81732622262032;0.0991;0.0699;0.0146;
81732632368074;0.1108;0.0742;0.0008;
81732642474115;0.1087;0.0145;-0.0173;
81732652576095;0.0895;-0.0546;-0.0077;
81732662682136;0.1076;-0.0567;0.0296;
81732672788178;0.1044;-0.0345;0.0445;
81732682921772;0.0852;0.0166;0.0519;
81732693027813;0.0778;0.0411;0.0221;
81732703133855;0.0778;0.0529;0.0008;
81732713214324;0.0927;0.1296;0.0360;
81732723320365;0.0927;0.1189;0.0848;
81732733426407;0.0842;0.0955;0.0743;
81732743531772;0.1001;0.1445;0.0519;
81732753637813;0.0788;0.0486;0.0498;
81732763743855;0.0810;-0.0121;0.0509;
81732773871303;0.0820;0.0710;0.0466;
81732783977292;0.0724;0.0891;0.0562;
81732794083282;0.0671;0.0092;0.0722;
81732804166511;0.0916;-0.0057;0.0795;
81732814272501;0.0767;0.0518;0.0519;
81732824378490;0.0735;0.0390;0.0306;
81732834483490;0.0490;-0.0015;0.0434;
81732844589480;0.1001;0.0603;0.0743;
81732854695470;0.0905;0.0763;0.0997;
81732864803386;0.0714;0.0582;0.0455;
81732874909376;0.0714;0.1125;0.0296;
81732885015365;0.0586;0.1093;0.0573;
81732895150678;0.0831;0.0923;0.0869;
81732905256667;0.0682;0.0838;0.0901;
81732915362657;0.0597;0.0103;0.0880;
81732925450678;0.0522;-0.0142;0.0806;
81732935556667;0.0618;0.0017;0.0658;
81732945662657;0.0309;-0.0238;0.0848;
81732955771824;0.0756;-0.0004;0.0859;
81732965877813;0.0671;0.0241;0.0838;
81732975983803;-0.0032;-0.0047;0.0466;
81732986076720;0.0565;0.0433;0.0700;
81732996182709;0.0277;0.1296;0.0605;
81733006288699;-0.0831;0.0348;0.0328;
81733016393022;-0.1609;-0.0716;0.0711;
81733026499011;-0.0724;0.0177;0.0573;
81733036605001;0.0437;0.0443;0.0242;
81733046700678;-0.0021;-0.0196;0.0264;
81733056806667;-0.0288;-0.0238;0.0317;
81733066912657;0.0138;0.0241;0.0413;
81733077047865;-0.0053;-0.0036;0.0605;
81733087153855;-0.1033;-0.0823;0.0466;
81733097259845;-0.0554;-0.0079;0.0413;
81733107352188;0.0394;0.0635;0.0562;
81733117458178;-0.0948;-0.0493;0.0328;
81733127564167;-0.1385;-0.0791;0.0636;
81733137683490;0.0245;0.0326;0.0816;
81733147789480;0.0224;0.0326;0.0658;
81733157895470;0.0138;0.0326;0.0754;
81733167990157;0.0533;0.1306;0.0923;
81733178096147;-0.0597;0.1509;0.0795;
81733188202136;-0.1981;0.0358;0.0434;
81733198304532;-0.3035;-0.0514;0.0349;
81733208410522;-0.1545;0.0198;0.0583;
81733218516511;-0.0075;0.0784;0.0827;
81733228610782;-0.1129;0.0081;0.0636;
81733238716772;-0.1204;-0.0599;0.0594;
81733248822761;-0.0469;-0.0228;0.0498;
81733258941199;-0.0405;-0.0142;0.0423;
81733269047188;-0.0107;0.0134;0.0732;
81733279153178;-0.0479;0.0401;0.0690;
81733289246355;-0.0831;0.0379;0.0477;
81733299352345;-0.1268;0.0273;0.0381;
81733309458334;-0.1800;-0.0270;0.0551;
81733319605470;-0.1449;-0.0238;0.0658;
81733329711459;-0.0842;0.0039;0.0413;
81733339817449;-0.1321;-0.0132;0.0360;
81733349874532;-0.2587;-0.0535;0.0423;
81733359980522;-0.2289;-0.0185;0.0253;
81733370086511;-0.1907;-0.0185;0.0317;
81733380210365;-0.2109;-0.0482;0.0562;
81733390316355;-0.2003;-0.0313;0.0423;
81733400422345;-0.0810;-0.0387;0.0349;
81733410535313;-0.0352;0.0049;0.0519;
81733420641303;-0.0628;0.0635;0.0296;
81733430747292;-0.0969;-0.0068;0.0061;
81733440837136;-0.0756;-0.1292;0.0178;
81733450943126;-0.0831;-0.1324;0.0519;
81733461049115;-0.0703;-0.0196;0.0445;
81733471150522;-0.1257;-0.0004;0.0210;
81733481256511;-0.1449;-0.0345;0.0274;
81733491362501;-0.1502;0.0124;0.0157;
81733501471928;-0.1651;0.0103;0.0285;
81733511577917;-0.2045;-0.0270;-0.0035;
81733521683907;-0.1012;-0.0047;-0.0035;
81733531787865;-0.1353;0.0358;-0.0141;
81733541893855;-0.1449;0.0422;0.0168;
81733551999845;-0.1470;0.0763;0.0019;
81733562146199;-0.1150;0.0582;0.0115;
81733572252188;-0.1449;0.0465;0.0104;
81733582358178;-0.0948;0.0465;0.0274;
81733592426720;-0.1065;-0.0047;0.0221;
81733602532709;-0.0863;-0.0196;0.0232;
81733612638699;-0.0618;0.0678;-0.0003;
81733622744220;-0.0895;0.0678;-0.0003;
81733632850209;-0.0756;0.0049;0.0072;
81733642956199;-0.0746;-0.0292;0.0402;
81733653082449;-0.0660;-0.0004;0.0328;
81733663188438;-0.0788;0.0699;0.0317;
81733673294428;-0.0820;0.0550;0.0093;
81733683388022;-0.0746;0.0678;0.0210;
81733693494011;-0.0788;0.1083;0.0381;
81733703600001;-0.0820;0.1732;0.0434;
81733713717032;-0.1023;0.1999;0.0083;
81733723823022;-0.1065;0.1636;-0.0035;
81733733929011;-0.1172;0.0209;0.0157;
81733744024220;-0.0746;-0.0441;0.0487;
81733754130209;-0.0756;-0.0025;0.0349;
81733764236199;-0.0991;-0.0185;0.0232;
81733774330574;-0.1097;-0.0302;0.0306;
81733784436511;-0.1012;-0.0238;0.0242;
81733794542397;-0.1065;0.0209;-0.0024;
81733804651303;-0.1332;0.0582;-0.0120;
81733814757240;-0.1300;0.1306;-0.0003;
81733824863126;-0.1214;0.1605;0.0125;
81733834969949;-0.1289;0.1573;0.0051;
81733845075834;-0.0810;0.1690;-0.0461;
81733855181772;-0.1001;0.0784;-0.0333;
81733865296928;-0.0671;-0.0047;-0.0152;
81733875402865;-0.0511;0.0134;-0.0099;
81733885508751;-0.0767;-0.0079;-0.0322;
81733895611303;-0.0511;-0.0025;-0.0599;
81733905717240;-0.0746;-0.0377;-0.0269;
81733915823126;-0.0533;-0.0206;-0.0162;
81733925937397;-0.0660;0.0071;-0.0077;
81733936043334;-0.0586;0.0305;-0.0418;
81733946149220;-0.0266;0.0678;-0.0514;
81733956240261;-0.0533;0.0720;-0.0173;
81733966346199;-0.0309;0.0624;-0.0439;
81733976452084;-0.0309;0.0422;-0.0354;
81733986552032;-0.0458;0.0007;-0.0290;
81733996657970;0.0000;0.0465;-0.0280;
81734006763855;0.0245;0.0507;-0.0035;
81734016874532;-0.0149;0.0007;0.0051;
81734026980470;0.0383;0.0177;0.0029;
81734037086355;0.0682;-0.0324;0.0040;
81734047208907;0.0575;-0.0377;-0.0003;
81734057314845;0.1129;0.0209;0.0232;
81734067420730;0.0639;0.0294;0.0466;
81734077520365;-0.0202;0.0039;0.0562;
81734087626303;0.0149;0.0017;0.0795;
81734097732188;0.0213;0.0337;0.0679;
81734107831199;-0.0277;0.0582;0.0626;
81734117937136;-0.0682;0.0209;0.0647;
81734128043022;-0.0479;-0.0164;0.0551;
81734138138803;-0.0085;0.0337;0.0658;
81734148244740;0.0085;0.0784;0.0700;
81734158350626;-0.0714;0.0124;0.0859;
81734168466459;-0.0341;0.0060;0.0806;
81734178572397;0.0011;0.0752;0.0827;
81734188678282;-0.0682;0.0220;0.0594;
81734198780470;-0.0597;-0.0174;0.0615;
81734208886407;-0.0160;0.0316;0.0722;
81734218992292;-0.0075;0.0571;0.0594;
81734229091199;-0.0533;0.0401;0.0551;
81734239197136;-0.0575;0.0401;0.0445;
81734249303022;-0.0607;0.0177;0.0242;
81734259428855;-0.0511;0.0241;0.0093;
81734269534792;-0.0277;0.0316;0.0285;
81734279640678;-0.0107;0.0156;0.0274;
81734289737240;0.0309;0.0593;0.0168;
81734299843178;0.0533;0.1072;0.0093;
81734309949063;-0.0373;0.0550;-0.0099;
81734320078647;-0.0543;0.0198;-0.0120;
81734330184584;-0.0234;-0.0004;0.0104;
81734340290470;-0.0181;-0.0387;0.0115;
81734350358282;0.0011;-0.0217;0.0200;
81734360464220;-0.0266;-0.0164;0.0466;
81734370570105;0.0660;0.0550;0.0413;
81734380696824;0.0618;0.1509;0.0072;
81734390802761;-0.0756;0.0507;-0.0194;
81734400908647;-0.0607;-0.0004;0.0136;
81734411015261;0.0128;0.1647;0.0317;
81734421121199;-0.0458;0.1157;0.0104;
81734431227084;-0.1491;-0.0419;-0.0056;
81734441319011;-0.1001;0.0369;-0.0056;
81734451424949;-0.0586;0.0965;0.0040;
81734461530834;-0.0820;0.0177;-0.0088;
81734471646303;-0.1768;-0.0398;-0.0184;
81734481752240;-0.2459;-0.0153;-0.0439;
81734491858126;-0.2736;-0.0249;-0.0503;
81734501955522;-0.3429;-0.0313;-0.0407;
81734512061459;-0.3684;-0.0004;-0.0503;
81734522167345;-0.3024;0.0252;-0.0514;
81734532267032;-0.1747;0.0411;-0.0397;
81734542372970;-0.0916;0.0465;-0.0173;
81734552478855;-0.0277;0.0774;0.0072;
81734562593699;-0.0320;0.0838;0.0274;
81734572699636;-0.0341;0.0284;0.0455;
81734582805522;0.0735;0.0134;0.0519;
81734592904532;0.0692;0.1029;0.0743;
81734603010470;-0.0256;0.1285;0.1115;
81734613116355;-0.0575;0.0561;0.1189;
81734623218595;-0.0788;0.0539;0.1051;
81734633324532;-0.0948;0.0976;0.1221;
81734643430417;-0.0671;0.1040;0.1498;
81734653562553;-0.0533;0.0646;0.1977;
81734663668490;-0.0501;0.0092;0.1999;
81734673774376;-0.0948;-0.0047;0.1636;
81734683863595;-0.1129;0.0294;0.1285;
81734693969532;-0.1278;0.0092;0.1221;
81734704075417;-0.2182;-0.0174;0.1242;
81734714181511;-0.2864;0.0071;0.1115;
81734724287449;-0.3514;-0.0174;0.0859;
81734734393334;-0.4238;-0.0430;0.0668;
81734744502657;-0.4558;0.0134;0.0434;
81734754608595;-0.5016;0.0220;0.0125;
81734764714480;-0.5218;-0.0228;-0.0152;
81734774815990;-0.5027;0.0071;-0.0418;
81734784921928;-0.5570;0.0188;-0.0578;
81734795027813;-0.5847;-0.0004;-0.0748;
81734805130574;-0.5165;0.0284;-0.1036;
81734815236511;-0.4419;0.0465;-0.1345;
81734825342397;-0.4121;0.0401;-0.1462;
81734835439949;-0.3897;0.0518;-0.1345;
81734845545886;-0.3418;0.0497;-0.1345;
81734855651772;-0.2109;0.0284;-0.1483;
81734865775470;-0.0618;0.0134;-0.1569;
81734875881407;-0.0501;-0.0121;-0.1526;
81734885987292;-0.0501;0.0092;-0.1451;
81734896105782;-0.0405;0.0699;-0.1430;
81734906211720;-0.0309;0.0603;-0.1494;
81734916317605;-0.0138;0.0635;-0.1579;
81734926385626;0.0277;0.0710;-0.1590;
81734936491563;0.0650;0.0305;-0.1632;
81734946597449;0.0927;0.0497;-0.1622;
81734956716928;0.1182;0.0891;-0.1547;
81734966822865;0.1363;0.0710;-0.1494;
81734976928751;0.1800;0.0752;-0.1547;
81734987047553;0.2077;0.0901;-0.1579;
81734997153490;0.2333;0.0273;-0.1569;
81735007259376;0.2727;-0.0121;-0.1419;
81735017355470;0.2738;-0.0004;-0.1196;
81735027461407;0.2344;-0.0079;-0.1100;
81735037567292;0.1854;-0.0217;-0.1206;
81735047671720;0.1598;-0.0121;-0.1377;
81735057777657;0.1332;0.0220;-0.1409;
81735067883542;0.0554;0.0635;-0.1409;
81735077993438;-0.0394;0.0742;-0.1345;
81735088099376;-0.0181;0.0678;-0.1313;
81735098205261;0.0021;0.0848;-0.1302;
81735108299324;0.0085;0.0891;-0.1345;
81735118405261;-0.0043;0.0401;-0.1430;
81735128511147;-0.0192;-0.0015;-0.1462;
81735138614740;-0.0330;-0.0132;-0.1302;
81735148720678;-0.0383;-0.0313;-0.1079;
81735158826563;-0.0085;-0.0185;-0.0844;
81735168948490;0.0075;-0.0079;-0.0823;
81735179054428;-0.0021;-0.0482;-0.0961;
81735189160313;-0.0021;-0.0514;-0.1025;
81735199262761;0.0011;0.0103;-0.0961;
81735209368699;-0.0117;0.0348;-0.0866;
81735219474584;-0.0128;0.0220;-0.0897;
81735229614011;-0.0192;0.0241;-0.1047;
81735239719949;-0.0192;0.0252;-0.1111;
81735249825834;-0.0128;0.0198;-0.0983;
81735259884115;-0.0085;0.0092;-0.0823;
81735269990053;-0.0075;0.0081;-0.0748;
81735280095938;-0.0053;0.0241;-0.0738;
81735290219845;-0.0107;0.0348;-0.0770;
81735300325782;-0.0138;0.0156;-0.0802;
81735310431667;-0.0075;-0.0004;-0.0706;
81735320535313;-0.0032;0.0060;-0.0642;
81735330641251;-0.0075;0.0145;-0.0599;
81735340747136;-0.0160;0.0358;-0.0620;
81735350828282;-0.0320;0.0230;-0.0642;
81735360934220;-0.0277;-0.0079;-0.0610;
81735371040105;-0.0128;0.0166;-0.0471;
81735381182240;-0.0096;0.0518;-0.0429;
81735391288178;-0.0128;0.0369;-0.0429;
81735401394063;-0.0128;0.0273;-0.0439;
81735411497865;-0.0149;0.0241;-0.0365;
81735421603803;-0.0160;-0.0057;-0.0290;
81735431709688;-0.0117;-0.0228;-0.0184;
81735441782970;-0.0128;-0.0196;-0.0141;
81735451888907;-0.0160;-0.0079;-0.0120;
81735461994792;-0.0202;0.0188;-0.0035;
81735472117449;-0.0256;0.0262;0.0040;
81735482223386;-0.0256;0.0134;0.0093;
81735492329272;-0.0288;0.0145;0.0115;
81735502422345;-0.0320;0.0071;0.0168;
81735512528282;-0.0256;-0.0025;0.0317;
81735522634167;-0.0266;0.0113;0.0423;
81735532772240;-0.0330;0.0145;0.0530;
81735542878126;-0.0341;0.0134;0.0626;
81735552984063;-0.0352;0.0294;0.0754;
81735563077240;-0.0405;0.0326;0.0827;
81735573183178;-0.0415;0.0220;0.0891;
81735583289063;-0.0426;0.0134;0.0987;
81735593399845;-0.0458;-0.0015;0.1104;
81735603505782;-0.0447;-0.0121;0.1210;
81735613611667;-0.0426;-0.0047;0.1274;
81735623693282;-0.0426;-0.0036;0.1285;
81735633799220;-0.0383;-0.0004;0.1285;
81735643905105;-0.0362;0.0166;0.1274;
81735654036199;-0.0458;0.0198;0.1221;
81735664142136;-0.0490;0.0156;0.1178;
81735674248022;-0.0469;0.0188;0.1146;
81735684345261;-0.0469;0.0134;0.1093;
81735694451199;-0.0437;0.0049;0.1051;
81735704557084;-0.0405;0.0071;0.1019;
81735714657761;-0.0362;0.0071;0.0976;
81735724763647;-0.0298;0.0028;0.0933;
81735734869584;-0.0256;0.0017;0.0880;
81735744985261;-0.0288;-0.0068;0.0795;
81735755091199;-0.0234;-0.0079;0.0700;
81735765197084;-0.0213;-0.0025;0.0647;
81735775300157;-0.0202;-0.0068;0.0583;
81735785406095;-0.0117;-0.0015;0.0498;
81735795511980;-0.0096;0.0081;0.0423;
81735805607449;-0.0128;0.0039;0.0306;
81735815713386;-0.0085;0.0007;0.0242;
81735825819272;0.0096;0.0017;0.0200;
81735835926095;0.0320;-0.0036;0.0125;
81735846032032;0.0660;-0.0036;0.0051;
81735856137917;0.1087;0.0028;-0.0035;
81735866262345;0.1406;0.0007;-0.0130;
81735876368230;0.1694;0.0017;-0.0205;
81735886474167;0.1917;0.0060;-0.0301;
81735896574636;0.1917;0.0017;-0.0407;
81735906680574;0.1822;0.0007;-0.0535;
81735916786459;0.1672;-0.0004;-0.0674;
81735926891615;0.1417;-0.0068;-0.0802;
81735936997553;0.1150;-0.0089;-0.0929;
81735947103438;0.1044;-0.0057;-0.1047;
81735957192032;0.1012;-0.0100;-0.1164;
81735967297970;0.1087;-0.0068;-0.1260;
81735977403855;0.1225;-0.0036;-0.1334;
81735987512605;0.1246;-0.0047;-0.1366;
81735997618542;0.1289;-0.0025;-0.1409;
81736007724428;0.1363;0.0017;-0.1441;
81736017828907;0.1427;-0.0025;-0.1451;
81736027934845;0.1449;-0.0047;-0.1430;
81736038040730;0.1523;-0.0068;-0.1366;
81736048159272;0.1662;-0.0079;-0.1356;
81736058265209;0.1800;-0.0079;-0.1281;
81736068371095;0.2056;-0.0025;-0.1228;
81736078463490;0.2194;0.0007;-0.1196;
81736088569428;0.2130;0.0028;-0.1153;
81736098675313;0.1939;-0.0004;-0.1100;
81736108775522;0.1619;-0.0057;-0.1057;
81736118881459;0.1300;-0.0079;-0.1057;
81736128987345;0.0948;-0.0068;-0.1057;
81736139090157;0.0597;-0.0089;-0.1068;
81736149196095;0.0383;-0.0068;-0.1025;
81736159301980;0.0202;-0.0047;-0.0951;
81736169410053;0.0128;-0.0047;-0.0908;
81736179515938;0.0170;-0.0025;-0.0866;
81736189621876;0.0149;-0.0004;-0.0834;
81736199735678;0.0149;-0.0015;-0.0802;
81736209841615;0.0213;0.0007;-0.0780;
81736219947501;0.0245;0.0007;-0.0759;
81736230072865;0.0277;-0.0004;-0.0748;
81736240178803;0.0341;-0.0004;-0.0748;
81736250284688;0.0373;-0.0004;-0.0748;
81736260370990;0.0352;-0.0036;-0.0738;
81736270476928;0.0373;-0.0015;-0.0770;
81736280582813;0.0405;0.0017;-0.0791;
81736290711407;0.0373;0.0017;-0.0780;
81736300817345;0.0383;0.0028;-0.0780;
81736310923230;0.0415;0.0039;-0.0780;
81736320989115;0.0437;0.0028;-0.0748;
81736331095001;0.0469;0.0028;-0.0727;
81736341200938;0.0533;0.0028;-0.0706;
81736351322240;0.0554;0.0007;-0.0652;
81736361428178;0.0660;0.0028;-0.0610;
81736371534063;0.0735;0.0028;-0.0514;
81736381622761;0.0831;0.0007;-0.0439;
81736391728699;0.0948;0.0028;-0.0375;
81736401834584;0.1055;0.0039;-0.0301;
81736411952032;0.1140;0.0049;-0.0226;
81736422057970;0.1225;0.0103;-0.0152;
81736432163855;0.1172;0.0124;-0.0088;
81736442273699;0.0905;0.0092;-0.0035;
81736452379636;0.0586;0.0081;-0.0003;
81736462485522;0.0192;0.0092;-0.0003;
81736472584845;-0.0160;0.0092;-0.0003;
81736482690782;-0.0138;0.0103;0.0040;
81736492796667;-0.0096;0.0081;0.0115;
81736502905470;-0.0096;0.0049;0.0146;
81736513011407;-0.0096;0.0039;0.0168;
81736523117292;-0.0096;-0.0015;0.0157;
81736533229845;-0.0096;-0.0025;0.0168;
81736543335730;-0.0085;-0.0015;0.0189;
81736553441667;-0.0064;-0.0015;0.0178;
81736563539220;-0.0064;-0.0025;0.0157;
81736573645157;-0.0064;-0.0004;0.0104;
81736583751042;-0.0064;-0.0004;0.0051;
81736593854949;-0.0043;-0.0004;0.0019;
81736603960886;-0.0021;0.0007;-0.0024;
81736614066772;0.0011;-0.0004;-0.0056;
81736624175365;0.0011;0.0007;-0.0109;
81736634281303;0.0021;-0.0015;-0.0162;
81736644387188;0.0032;-0.0047;-0.0184;
81736654487136;0.0085;-0.0057;-0.0205;
81736664593074;0.0096;-0.0057;-0.0258;
81736674698959;0.0107;-0.0068;-0.0290;
81736684815053;0.0117;-0.0057;-0.0290;
81736694920990;0.0117;-0.0057;-0.0322;
81736705026876;0.0138;-0.0047;-0.0344;
81736715131511;0.0192;-0.0036;-0.0354;
81736725237449;0.0330;-0.0036;-0.0354;
81736735343334;0.0522;-0.0047;-0.0333;
81736745447865;0.0746;-0.0025;-0.0301;
81736755553803;0.0927;-0.0015;-0.0301;
81736765659688;0.1065;-0.0025;-0.0280;
81736775755470;0.1150;-0.0036;-0.0269;
81736785861407;0.1214;-0.0025;-0.0269;
81736795967292;0.1214;-0.0036;-0.0280;
81736806087449;0.1182;-0.0036;-0.0301;
81736816193386;0.1118;-0.0025;-0.0312;
81736826299272;0.1044;-0.0047;-0.0333;
81736836392553;0.1023;-0.0047;-0.0354;
81736846498490;0.1012;-0.0047;-0.0344;
81736856604376;0.0916;-0.0057;-0.0365;
81736866717761;0.0842;-0.0047;-0.0375;
81736876823699;0.0735;-0.0036;-0.0407;
81736886929584;0.0575;-0.0047;-0.0429;
81736897043490;0.0383;-0.0057;-0.0450;
81736907149428;0.0213;-0.0057;-0.0471;
81736917255313;0.0107;-0.0047;-0.0482;
81736927345157;0.0064;-0.0036;-0.0471;
81736937451095;0.0085;-0.0025;-0.0471;
81736947556980;0.0085;-0.0025;-0.0471;
81736957666720;0.0117;-0.0015;-0.0461;
81736967772657;0.0085;-0.0025;-0.0429;
81736977878542;0.0085;-0.0025;-0.0418;
81736987988178;0.0075;-0.0015;-0.0397;
81736998094115;0.0075;-0.0025;-0.0375;
81737008200001;0.0075;-0.0015;-0.0365;
81737018307605;0.0064;-0.0004;-0.0344;
81737028413542;0.0064;-0.0015;-0.0333;
81737038519428;0.0064;-0.0004;-0.0354;
81737048627553;0.0043;-0.0015;-0.0344;
81737058733490;0.0021;-0.0004;-0.0301;
81737068839376;-0.0011;-0.0015;-0.0301;
81737078935470;-0.0021;-0.0025;-0.0301;
81737089041407;-0.0021;-0.0015;-0.0301;
81737099147292;0.0213;0.0060;-0.0301;
81737109253282;0.0373;0.0039;-0.0375;
81737119359220;0.0298;-0.0015;-0.0375;
81737129465105;0.0085;-0.0079;-0.0301;
81737139609272;-0.0032;-0.0079;-0.0290;
81737149715157;-0.0021;-0.0047;-0.0312;
81737159821095;0.0011;-0.0004;-0.0322;
81737169871199;-0.0021;0.0039;-0.0333;
81737179977136;-0.0064;0.0028;-0.0333;
81737190083022;-0.0075;0.0007;-0.0333;
81737200212657;-0.0043;-0.0025;-0.0312;
81737210318595;-0.0032;-0.0047;-0.0301;
81737220424480;0.0021;-0.0025;-0.0269;
81737230532970;0.0149;-0.0004;-0.0237;
81737240638855;0.0181;-0.0004;-0.0226;
81737250744792;0.0138;-0.0025;-0.0184;
81737260840470;0.0128;-0.0015;-0.0173;
81737270946407;0.0107;-0.0004;-0.0162;
81737281052292;0.0085;0.0007;-0.0152;
