Sensor: bmi160 Gyroscope Non-wakeup
Vendor: BOSCH
TimestampGyro [ns]; GyroX [rad/s]; GyroY [rad/s]; GyroZ [rad/s]
688346114089871;-0.0007;0.0019;-0.0387;
688346119142059;0.0047;-0.0088;-0.0366;
688346124205705;0.0142;-0.0024;-0.0366;
688346129262267;0.0100;-0.0045;-0.0377;
688346134299663;0.0079;-0.0045;-0.0387;
688346139366121;0.0089;-0.0045;-0.0387;
688346144429403;0.0089;-0.0045;-0.0398;
688346149492736;0.0111;-0.0045;-0.0398;
688346154536121;0.0089;-0.0045;-0.0419;
688346159581226;0.0089;-0.0056;-0.0419;
688346164640757;0.0142;-0.0067;-0.0409;
688346169679715;0.0153;-0.0067;-0.0398;
688346174742736;0.0132;-0.0056;-0.0419;
688346179779507;0.0111;-0.0067;-0.0419;
688346184873726;0.0100;-0.0056;-0.0409;
688346189922892;0.0132;-0.0024;-0.0430;
688346194959767;0.0100;-0.0035;-0.0451;
688346200009976;0.0100;-0.0045;-0.0451;
688346205067580;0.0142;-0.0056;-0.0451;
688346210114455;0.0142;-0.0067;-0.0483;
688346215177371;0.0132;-0.0056;-0.0473;
688346220254976;0.0142;-0.0056;-0.0494;
688346225278101;0.0153;-0.0045;-0.0505;
688346230333517;0.0121;-0.0045;-0.0505;
688346235400965;0.0121;-0.0067;-0.0494;
688346240443361;0.0121;-0.0045;-0.0494;
688346245522215;0.0132;-0.0056;-0.0505;
688346250554038;0.0100;-0.0003;-0.0515;
688346255615861;0.0089;-0.0003;-0.0494;
688346260670601;0.0111;-0.0013;-0.0494;
688346265727944;0.0132;-0.0013;-0.0494;
688346270777892;0.0111;-0.0024;-0.0537;
688346275834611;0.0111;0.0008;-0.0526;
688346280903465;0.0142;0.0008;-0.0526;
688346285943986;0.0132;-0.0024;-0.0515;
688346290998101;0.0121;-0.0045;-0.0505;
688346296020809;0.0121;-0.0035;-0.0505;
688346301074298;0.0142;-0.0045;-0.0515;
688346306169767;0.0111;-0.0045;-0.0515;
688346311220653;0.0100;-0.0056;-0.0494;
688346316275601;0.0132;-0.0056;-0.0483;
688346321330653;0.0132;-0.0056;-0.0494;
688346326381017;0.0132;-0.0035;-0.0483;
688346331458882;0.0121;-0.0045;-0.0483;
688346336496278;0.0111;-0.0035;-0.0483;
688346341535184;0.0121;-0.0013;-0.0462;
688346346606434;0.0111;-0.0024;-0.0451;
688346351657736;0.0121;-0.0024;-0.0451;
688346356711226;0.0100;-0.0024;-0.0430;
688346361768309;0.0100;-0.0024;-0.0409;
688346366822059;0.0111;-0.0024;-0.0409;
688346371878621;0.0100;-0.0035;-0.0387;
688346376916955;0.0100;-0.0045;-0.0377;
688346381970653;0.0068;-0.0045;-0.0387;
688346387037892;0.0068;-0.0056;-0.0366;
688346392095705;0.0079;-0.0045;-0.0334;
688346397145444;0.0057;-0.0024;-0.0334;
688346402203309;0.0068;-0.0045;-0.0313;
688346407257736;0.0079;-0.0013;-0.0302;
688346412312371;0.0068;0.0008;-0.0281;
688346417364663;0.0047;0.0008;-0.0270;
688346422472580;0.0047;0.0008;-0.0249;
688346427474767;0.0057;0.0008;-0.0228;
688346432532319;0.0068;-0.0003;-0.0174;
688346437586955;0.0089;-0.0024;-0.0174;
688346442639246;0.0047;-0.0024;-0.0164;
688346447693830;0.0025;-0.0013;-0.0153;
688346452748778;0.0036;-0.0013;-0.0142;
688346457809142;0.0036;-0.0013;-0.0121;
688346462881746;0.0025;0.0008;-0.0100;
688346467900392;0.0004;0.0008;-0.0079;
688346472964611;-0.0007;0.0019;-0.0079;
688346478008621;-0.0017;0.0051;-0.0057;
688346483076434;-0.0007;0.0061;-0.0047;
688346488118101;-0.0028;0.0029;-0.0036;
688346493184351;-0.0017;0.0029;-0.0004;
688346498228517;-0.0071;0.0019;0.0017;
688346503305080;-0.0103;0.0019;0.0007;
688346508333309;-0.0134;-0.0013;0.0039;
688346513420340;-0.0230;-0.0003;0.0060;
688346518441851;-0.0262;-0.0013;0.0071;
688346523512476;-0.0273;-0.0013;0.0103;
688346528552788;-0.0305;0.0008;0.0113;
688346533621851;-0.0305;0.0008;0.0103;
688346538688882;-0.0273;0.0019;0.0103;
688346543740444;-0.0252;0.0019;0.0145;
688346548810184;-0.0241;0.0061;0.0177;
688346553847996;-0.0220;0.0061;0.0198;
688346558905757;-0.0188;0.0072;0.0198;
688346563949455;-0.0145;0.0061;0.0220;
688346569009351;-0.0145;0.0061;0.0241;
688346574066642;-0.0145;0.0029;0.0262;
688346579107892;-0.0145;0.0019;0.0284;
688346584177007;-0.0156;0.0008;0.0316;
688346589230548;-0.0156;-0.0013;0.0316;
688346594277892;-0.0145;0.0008;0.0337;
688346599341538;-0.0166;0.0019;0.0369;
688346604384871;-0.0134;0.0019;0.0358;
688346609446851;-0.0124;0.0019;0.0390;
688346614494351;-0.0124;0.0040;0.0411;
688346619534142;-0.0113;0.0061;0.0433;
688346624624819;-0.0103;0.0051;0.0454;
688346629672788;-0.0145;0.0051;0.0486;
688346634714038;-0.0188;0.0083;0.0486;
688346639783726;-0.0188;0.0061;0.0518;
688346644826121;-0.0220;0.0040;0.0561;
688346649892944;-0.0230;0.0040;0.0550;
688346654933517;-0.0252;0.0040;0.0561;
688346659982892;-0.0284;0.0061;0.0614;
688346665034038;-0.0305;0.0072;0.0635;
688346670114715;-0.0284;0.0051;0.0656;
688346675156538;-0.0262;0.0040;0.0688;
688346680194767;-0.0230;0.0040;0.0710;
688346685258934;-0.0209;0.0061;0.0774;
688346690336434;-0.0145;0.0061;0.0784;
688346695369194;-0.0134;0.0040;0.0795;
688346700417476;-0.0230;0.0061;0.0827;
688346705480392;-0.0241;0.0061;0.0859;
688346710524871;-0.0177;0.0019;0.0859;
688346715586851;-0.0273;0.0083;0.0912;
688346720642371;-0.0284;0.0157;0.0912;
688346725698205;-0.0198;0.0115;0.0944;
688346730760757;-0.0262;0.0115;0.0987;
688346735805809;-0.0305;0.0104;0.0987;
688346740865184;-0.0262;0.0125;0.1029;
688346745919767;-0.0209;0.0125;0.1051;
688346750992892;-0.0294;0.0125;0.1072;
688346756025184;-0.0262;0.0093;0.1093;
688346761079559;-0.0252;0.0051;0.1104;
688346766133101;-0.0294;0.0061;0.1104;
688346771190809;-0.0241;0.0061;0.1093;
688346776244559;-0.0252;0.0061;0.1104;
688346781302371;-0.0316;0.0083;0.1083;
688346786359142;-0.0284;0.0104;0.1040;
688346791408830;-0.0241;0.0104;0.1061;
688346796429663;-0.0262;0.0115;0.1051;
688346801524455;-0.0294;0.0146;0.1051;
688346806574455;-0.0262;0.0125;0.1029;
688346811630601;-0.0241;0.0104;0.1008;
688346816683934;-0.0252;0.0093;0.0955;
688346821728101;-0.0284;0.0083;0.0944;
688346826792580;-0.0262;0.0061;0.0923;
688346831853934;-0.0262;0.0029;0.0923;
688346836905288;-0.0284;0.0040;0.0912;
688346841962788;-0.0273;0.0029;0.0891;
688346847012163;-0.0220;0.0051;0.0880;
688346852073726;-0.0241;0.0072;0.0869;
688346857120444;-0.0252;0.0083;0.0869;
688346862167892;-0.0230;0.0061;0.0838;
688346867235705;-0.0241;0.0093;0.0816;
688346872291851;-0.0241;0.0104;0.0816;
688346877342788;-0.0284;0.0072;0.0795;
688346882397788;-0.0294;0.0051;0.0763;
688346887452267;-0.0305;0.0051;0.0742;
688346892511434;-0.0337;0.0061;0.0731;
688346897556746;-0.0337;0.0061;0.0699;
688346902581434;-0.0316;0.0061;0.0667;
688346907671017;-0.0273;0.0008;0.0656;
688346912723569;-0.0188;0.0029;0.0635;
688346917772059;-0.0124;0.0029;0.0614;
688346922829142;-0.0092;0.0051;0.0593;
688346927883309;-0.0134;0.0029;0.0582;
688346932943830;-0.0166;0.0008;0.0561;
688346937979559;-0.0113;0.0019;0.0539;
688346943076121;-0.0081;0.0019;0.0507;
688346948094038;-0.0103;0.0019;0.0433;
688346953159871;-0.0103;0.0019;0.0411;
688346958199871;-0.0092;0.0040;0.0422;
688346963268621;-0.0103;0.0029;0.0401;
688346968306851;-0.0081;0.0008;0.0390;
688346973373309;-0.0081;0.0040;0.0358;
688346978421121;-0.0092;0.0008;0.0348;
688346983487059;-0.0071;-0.0003;0.0316;
688346988525444;-0.0060;-0.0003;0.0284;
688346993597684;-0.0071;-0.0024;0.0262;
688346998642788;-0.0049;-0.0013;0.0252;
688347003714455;-0.0039;0.0008;0.0220;
688347008741538;-0.0039;0.0019;0.0198;
688347013810705;-0.0060;-0.0013;0.0177;
688347018888621;-0.0039;-0.0003;0.0166;
688347023942528;0.0004;0.0019;0.0145;
688347028984403;0.0025;-0.0024;0.0124;
688347034027788;0.0015;-0.0045;0.0103;
688347039095861;0.0015;-0.0035;0.0103;
688347044162736;0.0057;-0.0045;0.0092;
688347049171226;0.0121;-0.0067;0.0060;
688347054252267;0.0164;-0.0077;0.0060;
688347059351590;0.0292;-0.0056;0.0060;
688347064369403;0.0430;-0.0035;0.0049;
688347069442580;0.0579;-0.0035;0.0081;
688347074467944;0.0739;-0.0035;0.0103;
688347079551538;0.0866;-0.0013;0.0113;
688347084574559;0.0961;-0.0013;0.0113;
688347089617111;0.1036;0.0008;0.0124;
688347094687892;0.1100;-0.0013;0.0113;
688347099721434;0.1079;-0.0024;0.0113;
688347104780496;0.1100;-0.0024;0.0145;
688347109830653;0.1121;-0.0045;0.0145;
688347114904559;0.1132;-0.0067;0.0166;
688347119994142;0.1164;-0.0067;0.0166;
688347125013309;0.1185;-0.0056;0.0177;
688347130062007;0.1217;-0.0045;0.0177;
688347135129455;0.1249;-0.0067;0.0188;
688347140200132;0.1270;-0.0024;0.0220;
688347145227684;0.1217;-0.0035;0.0209;
688347150309403;0.1164;-0.0013;0.0230;
688347155342788;0.1079;0.0019;0.0230;
688347160391434;0.1004;0.0029;0.0220;
688347165451434;0.0983;-0.0003;0.0230;
688347170501642;0.0876;-0.0013;0.0241;
688347175559038;0.0707;-0.0003;0.0220;
688347180633673;0.0473;0.0019;0.0220;
688347185673934;0.0249;-0.0003;0.0220;
688347190729559;0.0057;-0.0003;0.0209;
688347195779559;-0.0145;-0.0003;0.0188;
688347200834038;-0.0230;0.0040;0.0166;
688347205887267;-0.0049;0.0083;0.0177;
688347210956226;0.0025;0.0072;0.0198;
688347216001121;-0.0124;0.0072;0.0177;
688347221056851;-0.0145;0.0072;0.0177;
688347226114767;-0.0071;0.0061;0.0220;
688347231178726;-0.0028;0.0083;0.0220;
688347236221017;-0.0092;0.0093;0.0209;
688347241280288;-0.0113;0.0051;0.0209;
688347246329559;-0.0124;0.0019;0.0188;
688347251387371;-0.0156;0.0008;0.0188;
688347256428621;-0.0177;-0.0013;0.0188;
688347261487371;-0.0166;-0.0013;0.0188;
688347266552476;-0.0177;0.0008;0.0209;
688347271607996;-0.0166;0.0008;0.0209;
688347276659142;-0.0145;0.0040;0.0188;
688347281710496;-0.0081;0.0029;0.0188;
688347286772996;-0.0092;0.0029;0.0188;
688347291820392;-0.0081;0.0061;0.0166;
688347296864298;-0.0092;0.0061;0.0156;
688347301935028;-0.0124;0.0051;0.0145;
688347306990757;-0.0177;0.0040;0.0113;
688347312046538;-0.0230;0.0029;0.0092;
688347317102319;-0.0273;-0.0003;0.0081;
688347322158048;-0.0305;-0.0003;0.0092;
688347327213830;-0.0326;-0.0013;0.0081;
688347332263778;-0.0348;0.0008;0.0028;
688347337319507;-0.0358;-0.0003;0.0017;
688347342375288;-0.0348;0.0019;-0.0004;
688347347431069;-0.0358;0.0019;-0.0015;
688347352486798;-0.0337;0.0029;-0.0015;
688347357542580;-0.0358;0.0008;-0.0057;
688347362587111;-0.0316;0.0029;-0.0068;
688347367642840;-0.0294;0.0019;-0.0100;
688347372698621;-0.0241;0.0019;-0.0100;
688347377754403;-0.0188;0.0008;-0.0100;
688347382810184;-0.0166;-0.0003;-0.0121;
688347387865913;-0.0166;-0.0003;-0.0153;
688347392915444;-0.0134;-0.0013;-0.0185;
688347397971173;-0.0092;-0.0056;-0.0196;
688347403026955;-0.0092;-0.0045;-0.0217;
688347408082684;-0.0049;-0.0024;-0.0228;
688347413138465;-0.0028;-0.0024;-0.0238;
688347418194246;-0.0007;-0.0013;-0.0270;
688347423214819;0.0036;-0.0045;-0.0281;
688347428270548;0.0111;-0.0024;-0.0292;
688347433326330;0.0142;-0.0024;-0.0302;
688347438382111;0.0100;-0.0024;-0.0334;
688347443437892;0.0057;-0.0035;-0.0377;
688347448493621;0.0100;-0.0024;-0.0398;
688347453568673;0.0132;-0.0045;-0.0409;
688347458624455;0.0111;-0.0088;-0.0419;
688347463680184;0.0111;-0.0088;-0.0451;
688347468735965;0.0132;-0.0056;-0.0451;
688347473791694;0.0121;-0.0056;-0.0473;
688347478847476;0.0142;-0.0045;-0.0473;
688347483899298;0.0132;-0.0045;-0.0462;
688347488955080;0.0121;-0.0056;-0.0526;
688347494010809;0.0142;-0.0067;-0.0537;
688347499066590;0.0142;-0.0056;-0.0526;
688347504122319;0.0164;-0.0056;-0.0569;
688347509178101;0.0142;-0.0056;-0.0579;
688347514220444;0.0132;-0.0056;-0.0569;
688347519276173;0.0142;-0.0056;-0.0569;
688347524331955;0.0132;-0.0035;-0.0601;
688347529387736;0.0153;-0.0024;-0.0579;
688347534443465;0.0132;-0.0035;-0.0579;
688347539499246;0.0132;-0.0024;-0.0569;
688347544575653;0.0142;-0.0045;-0.0579;
688347549631434;0.0132;-0.0035;-0.0569;
688347554687163;0.0111;-0.0024;-0.0558;
688347559742944;0.0121;-0.0035;-0.0569;
688347564798726;0.0111;-0.0056;-0.0558;
688347569854455;0.0132;-0.0056;-0.0558;
688347574883517;0.0132;-0.0045;-0.0537;
688347579939246;0.0121;-0.0056;-0.0526;
688347584995028;0.0132;-0.0067;-0.0515;
688347590050757;0.0132;-0.0056;-0.0505;
688347595106538;0.0121;-0.0035;-0.0515;
688347600162319;0.0111;-0.0045;-0.0494;
688347605206382;0.0111;-0.0035;-0.0473;
688347610262111;0.0121;-0.0024;-0.0462;
688347615317892;0.0121;-0.0024;-0.0451;
688347620373673;0.0079;-0.0003;-0.0430;
688347625429403;0.0079;-0.0013;-0.0430;
688347630485184;0.0079;-0.0035;-0.0419;
688347635534090;0.0121;-0.0035;-0.0409;
688347640589819;0.0068;-0.0035;-0.0409;
688347645645601;0.0100;-0.0045;-0.0377;
688347650701382;0.0100;-0.0045;-0.0366;
688347655757111;0.0089;-0.0056;-0.0334;
688347660812892;0.0079;-0.0035;-0.0356;
688347665867319;0.0100;-0.0045;-0.0345;
688347670923048;0.0100;-0.0045;-0.0324;
688347675978830;0.0100;-0.0035;-0.0313;
688347681034559;0.0100;-0.0045;-0.0292;
688347686090340;0.0079;-0.0056;-0.0292;
688347691146121;0.0068;-0.0035;-0.0292;
688347696187684;0.0089;-0.0045;-0.0302;
688347701243413;0.0057;-0.0035;-0.0302;
688347706299194;0.0068;-0.0013;-0.0292;
688347711354976;0.0079;-0.0013;-0.0292;
688347716410705;0.0057;-0.0024;-0.0292;
688347721466486;0.0057;-0.0024;-0.0292;
688347726521278;0.0079;-0.0013;-0.0292;
688347731577007;0.0089;-0.0013;-0.0292;
688347736632788;0.0057;-0.0013;-0.0281;
688347741688569;0.0068;-0.0003;-0.0292;
688347746744298;0.0079;-0.0035;-0.0313;
688347751800080;0.0079;-0.0024;-0.0292;
688347756848257;0.0079;-0.0035;-0.0281;
688347761903986;0.0079;-0.0045;-0.0302;
688347766959767;0.0089;-0.0045;-0.0281;
688347772015548;0.0068;-0.0045;-0.0292;
688347777071278;0.0057;-0.0035;-0.0292;
688347782127059;0.0068;-0.0056;-0.0292;
688347787183882;0.0079;-0.0045;-0.0281;
688347792239611;0.0089;-0.0024;-0.0249;
688347797295392;0.0111;-0.0024;-0.0292;
688347802351173;0.0079;0.0019;-0.0302;
688347807406903;0.0068;-0.0013;-0.0292;
688347812462684;0.0057;-0.0013;-0.0281;
688347817505028;0.0068;-0.0024;-0.0270;
688347822560809;0.0079;-0.0024;-0.0281;
688347827616538;0.0079;-0.0013;-0.0260;
688347832672319;0.0079;-0.0013;-0.0260;
688347837728048;0.0047;-0.0045;-0.0260;
688347842783830;0.0057;-0.0045;-0.0270;
688347847835601;0.0079;-0.0024;-0.0270;
688347852891330;0.0068;-0.0035;-0.0270;
688347857947111;0.0068;-0.0024;-0.0249;
688347863002840;0.0057;-0.0024;-0.0260;
688347868058621;0.0047;-0.0024;-0.0228;
688347873114403;0.0057;-0.0013;-0.0228;
688347878145496;0.0068;-0.0013;-0.0238;
688347883201278;0.0079;-0.0024;-0.0217;
688347888257059;0.0068;-0.0024;-0.0217;
688347893312840;0.0057;-0.0003;-0.0217;
688347898368569;0.0057;-0.0024;-0.0228;
688347903424351;0.0068;-0.0024;-0.0228;
688347908478048;0.0089;-0.0013;-0.0196;
688347913533778;0.0100;-0.0024;-0.0185;
688347918589559;0.0089;-0.0035;-0.0196;
688347923645340;0.0089;-0.0035;-0.0174;
688347928701069;0.0079;-0.0035;-0.0174;
688347933756851;0.0100;-0.0045;-0.0196;
688347938869715;0.0111;-0.0024;-0.0185;
688347943925444;0.0132;-0.0013;-0.0174;
688347948981226;0.0142;-0.0013;-0.0174;
688347954037007;0.0132;-0.0024;-0.0142;
688347959092736;0.0132;-0.0013;-0.0142;
688347964148517;0.0174;-0.0024;-0.0142;
688347969139507;0.0164;-0.0013;-0.0132;
688347974195236;0.0132;-0.0035;-0.0111;
688347979251017;0.0142;-0.0024;-0.0111;
688347984306746;0.0132;-0.0024;-0.0111;
688347989362528;0.0132;-0.0045;-0.0100;
688347994418309;0.0132;-0.0035;-0.0089;
688347999500965;0.0153;-0.0045;-0.0089;
688348004556746;0.0142;-0.0013;-0.0057;
688348009612476;0.0142;-0.0003;-0.0057;
688348014668309;0.0079;-0.0013;-0.0057;
688348019724038;0.0079;-0.0003;-0.0057;
688348024779767;0.0068;-0.0003;-0.0047;
688348029785965;0.0036;-0.0003;-0.0047;
688348034841746;0.0015;-0.0003;-0.0047;
688348039897476;-0.0017;0.0019;-0.0036;
688348044953257;-0.0007;0.0008;-0.0036;
688348050009038;0.0004;0.0019;-0.0015;
688348055064767;-0.0007;-0.0003;-0.0004;
688348060120757;0.0004;-0.0024;-0.0004;
688348065176538;0.0004;-0.0013;0.0039;
688348070232267;-0.0028;-0.0024;0.0028;
688348075288048;-0.0007;-0.0045;0.0017;
688348080343778;-0.0017;-0.0024;0.0028;
688348085399559;-0.0007;-0.0003;0.0039;
688348090447528;-0.0017;0.0008;0.0028;
688348095503257;0.0004;-0.0003;0.0039;
688348100559038;-0.0017;-0.0003;0.0039;
688348105614819;-0.0017;-0.0003;0.0060;
688348110670548;-0.0017;-0.0003;0.0060;
688348115726330;-0.0017;0.0019;0.0071;
688348120784819;-0.0017;0.0019;0.0071;
688348125840548;-0.0017;0.0040;0.0049;
688348130896330;-0.0007;0.0019;0.0071;
688348135952111;-0.0028;-0.0003;0.0081;
688348141007840;-0.0049;-0.0003;0.0071;
688348146063621;-0.0060;-0.0013;0.0092;
688348151119819;-0.0039;-0.0003;0.0071;
688348156175548;-0.0017;0.0008;0.0071;
688348161231330;-0.0007;0.0008;0.0092;
688348166287111;-0.0017;0.0008;0.0113;
688348171342840;-0.0039;0.0008;0.0081;
688348176398621;-0.0039;0.0019;0.0071;
688348181436278;-0.0039;0.0019;0.0092;
688348186492007;-0.0028;0.0019;0.0103;
688348191547788;-0.0007;0.0019;0.0113;
688348196603569;-0.0007;0.0008;0.0124;
688348201659298;0.0004;0.0008;0.0124;
688348206715080;0.0036;-0.0003;0.0134;
688348211768569;0.0121;-0.0013;0.0145;
688348216824298;0.0196;-0.0013;0.0166;
688348221880080;0.0270;-0.0024;0.0177;
688348226935861;0.0356;-0.0013;0.0198;
688348231991590;0.0419;-0.0003;0.0230;
688348237047371;0.0451;0.0008;0.0241;
688348242102215;0.0451;-0.0003;0.0230;
688348247157996;0.0451;0.0019;0.0230;
688348252213726;0.0430;0.0040;0.0262;
688348257269507;0.0377;0.0040;0.0252;
688348262325236;0.0324;0.0040;0.0252;
688348267381017;0.0281;0.0019;0.0273;
688348272426694;0.0217;0.0008;0.0273;
688348277482423;0.0174;0.0008;0.0273;
688348282538205;0.0164;0.0008;0.0294;
688348287593986;0.0142;0.0019;0.0273;
688348292649715;0.0132;0.0008;0.0284;
688348297705496;0.0153;0.0008;0.0326;
688348302754559;0.0153;0.0019;0.0326;
688348307809403;0.0121;0.0029;0.0337;
688348312864246;0.0153;0.0029;0.0337;
688348317919142;0.0206;0.0029;0.0348;
688348322973986;0.0217;0.0029;0.0348;
688348328028882;0.0228;0.0019;0.0358;
688348333081017;0.0260;0.0040;0.0348;
688348338135861;0.0238;0.0040;0.0348;
688348343190757;0.0196;0.0040;0.0369;
688348348245601;0.0153;0.0029;0.0390;
688348353300444;0.0153;0.0019;0.0390;
688348358355340;0.0111;0.0029;0.0379;
688348363407267;0.0057;0.0029;0.0358;
688348368462111;0.0025;0.0019;0.0369;
688348373517007;-0.0049;0.0040;0.0379;
688348378571851;-0.0103;0.0051;0.0411;
688348383626746;-0.0124;0.0051;0.0401;
688348388681590;-0.0124;0.0061;0.0369;
688348393735601;-0.0092;0.0072;0.0422;
688348398790444;-0.0092;0.0061;0.0422;
688348403845340;-0.0134;0.0061;0.0422;
688348408900184;-0.0113;0.0051;0.0443;
688348413955028;-0.0156;0.0061;0.0454;
688348419009923;-0.0145;0.0040;0.0475;
688348424068205;-0.0113;0.0051;0.0475;
688348429123048;-0.0124;0.0051;0.0497;
688348434177944;-0.0156;0.0029;0.0529;
688348439232840;-0.0156;0.0029;0.0550;
688348444287684;-0.0177;0.0040;0.0582;
688348449342528;-0.0177;0.0061;0.0614;
688348454390913;-0.0188;0.0051;0.0656;
688348459445757;-0.0198;0.0083;0.0710;
688348464500601;-0.0177;0.0093;0.0742;
688348469555496;-0.0177;0.0093;0.0763;
688348474610340;-0.0209;0.0093;0.0816;
688348479665236;-0.0230;0.0093;0.0838;
688348484716121;-0.0209;0.0072;0.0880;
688348489770965;-0.0230;0.0072;0.0923;
688348494825861;-0.0262;0.0083;0.0955;
688348499880705;-0.0262;0.0061;0.1019;
688348504935548;-0.0230;0.0040;0.1051;
688348509990444;-0.0230;0.0040;0.1104;
688348515046486;-0.0220;0.0061;0.1168;
688348520101382;-0.0124;0.0061;0.1189;
688348525156226;0.0036;0.0072;0.1221;
688348530211121;0.0153;0.0093;0.1274;
688348535265913;0.0249;0.0115;0.1317;
688348540320809;0.0377;0.0136;0.1360;
688348545377528;0.0505;0.0136;0.1391;
688348550432319;0.0590;0.0104;0.1423;
688348555487163;0.0707;0.0125;0.1487;
688348560542059;0.0823;0.0146;0.1509;
688348565596903;0.0908;0.0157;0.1519;
688348570651746;0.0940;0.0125;0.1550;
688348575706642;0.1004;0.0072;0.1550;
688348580773101;0.1068;0.0093;0.1582;
688348585827944;0.1121;0.0104;0.1571;
688348590882840;0.1206;0.0083;0.1561;
688348595937684;0.1324;0.0093;0.1593;
688348600992580;0.1451;0.0125;0.1582;
688348606047423;0.1569;0.0136;0.1539;
688348611090809;0.1622;0.0136;0.1561;
688348616145653;0.1664;0.0168;0.1519;
688348621200548;0.1643;0.0168;0.1498;
688348626255392;0.1611;0.0168;0.1455;
688348631310236;0.1537;0.0136;0.1402;
688348636365132;0.1409;0.0125;0.1381;
688348641419246;0.1260;0.0115;0.1328;
688348646474090;0.1100;0.0104;0.1274;
688348651528986;0.0866;0.0104;0.1232;
688348656583830;0.0643;0.0072;0.1168;
688348661638673;0.0473;0.0072;0.1083;
688348666693569;0.0260;0.0072;0.1040;
688348671748413;0.0047;0.0104;0.0965;
688348676803257;-0.0113;0.0104;0.0880;
688348681858153;-0.0273;0.0104;0.0827;
688348686912996;-0.0369;0.0093;0.0816;
688348691967840;-0.0252;0.0125;0.0763;
688348697022736;-0.0124;0.0136;0.0731;
688348702064976;-0.0209;0.0136;0.0688;
688348707119819;-0.0273;0.0125;0.0656;
688348712174663;-0.0166;0.0104;0.0624;
688348717229559;-0.0124;0.0072;0.0571;
688348722284403;-0.0156;0.0093;0.0550;
688348727339298;-0.0177;0.0072;0.0518;
688348732404246;-0.0145;0.0051;0.0486;
688348737459090;-0.0156;0.0029;0.0465;
688348742513986;-0.0188;0.0029;0.0443;
688348747568830;-0.0188;0.0040;0.0390;
688348752623673;-0.0209;0.0029;0.0379;
688348757678569;-0.0209;0.0051;0.0369;
688348762739819;-0.0177;0.0061;0.0326;
688348767794663;-0.0145;0.0040;0.0305;
688348772849559;-0.0156;0.0051;0.0284;
688348777904403;-0.0134;0.0072;0.0273;
688348782959246;-0.0134;0.0029;0.0262;
688348788014142;-0.0156;0.0029;0.0273;
688348793057996;-0.0188;0.0040;0.0230;
688348798112840;-0.0209;0.0029;0.0220;
688348803167736;-0.0252;0.0040;0.0198;
688348808222580;-0.0284;0.0029;0.0188;
688348813277423;-0.0252;0.0019;0.0177;
688348818332319;-0.0252;0.0029;0.0166;
688348823359871;-0.0230;0.0019;0.0188;
688348828414715;-0.0156;0.0019;0.0177;
688348833469611;-0.0092;0.0008;0.0188;
688348838524455;-0.0028;0.0008;0.0209;
688348843579298;0.0015;0.0019;0.0209;
688348848634246;-0.0039;0.0019;0.0198;
688348853714455;-0.0081;0.0019;0.0209;
688348858769298;-0.0049;0.0029;0.0198;
688348863824194;-0.0039;0.0008;0.0188;
688348868879038;-0.0049;-0.0013;0.0177;
688348873933882;-0.0049;0.0008;0.0177;
688348878988778;-0.0039;0.0019;0.0188;
688348884039038;-0.0028;-0.0003;0.0209;
688348889093882;-0.0039;-0.0003;0.0198;
688348894148778;-0.0049;0.0019;0.0166;
688348899203673;-0.0028;0.0019;0.0166;
688348904258465;-0.0028;0.0019;0.0177;
688348909313361;-0.0028;0.0040;0.0145;
688348914366486;-0.0028;0.0008;0.0145;
688348919421330;-0.0049;-0.0003;0.0145;
688348924476226;-0.0039;0.0008;0.0134;
688348929531069;-0.0028;-0.0003;0.0124;
688348934585913;-0.0028;0.0008;0.0134;
688348939640809;-0.0039;0.0029;0.0103;
688348944714559;-0.0060;0.0040;0.0103;
688348949769403;-0.0049;0.0040;0.0103;
688348954824298;-0.0049;0.0019;0.0113;
688348959879142;-0.0028;0.0008;0.0113;
688348964934038;-0.0017;0.0008;0.0124;
688348969988882;-0.0039;0.0029;0.0103;
688348975027476;-0.0039;0.0029;0.0103;
688348980082319;-0.0039;0.0040;0.0124;
688348985137215;-0.0039;-0.0003;0.0103;
688348990192059;-0.0060;0.0008;0.0113;
688348995246903;-0.0017;0.0029;0.0103;
688349000301798;-0.0017;0.0029;0.0092;
688349005354559;-0.0017;0.0008;0.0081;
688349010409403;-0.0017;0.0019;0.0092;
688349015464298;-0.0039;-0.0003;0.0092;
688349020519142;-0.0017;-0.0003;0.0071;
688349025573986;0.0015;-0.0013;0.0049;
688349030628882;-0.0007;-0.0003;0.0060;
688349035679767;0.0025;-0.0013;0.0071;
688349040734611;0.0004;-0.0013;0.0060;
688349045789507;-0.0007;-0.0003;0.0049;
688349050844351;0.0025;-0.0013;0.0039;
688349055899194;0.0025;-0.0013;0.0028;
688349060954090;0.0015;0.0008;0.0028;
688349066018048;0.0004;0.0019;0.0028;
688349071072944;0.0047;-0.0013;-0.0004;
688349076127788;0.0100;-0.0035;0.0007;
688349081182684;0.0164;-0.0003;0.0017;
688349086237528;0.0238;-0.0013;0.0007;
688349091292423;0.0313;-0.0035;0.0007;
688349096340601;0.0356;-0.0024;-0.0004;
688349101395444;0.0398;-0.0035;0.0017;
688349106450340;0.0430;-0.0035;0.0017;
688349111505184;0.0409;-0.0035;0.0007;
688349116560028;0.0398;-0.0035;0.0017;
688349121614923;0.0398;-0.0024;-0.0015;
688349126670288;0.0441;-0.0013;-0.0036;
688349131725132;0.0473;-0.0024;-0.0025;
688349136780028;0.0515;-0.0024;-0.0015;
688349141834871;0.0547;-0.0024;-0.0015;
688349146889715;0.0579;-0.0024;-0.0015;
688349151944611;0.0643;-0.0013;0.0007;
688349156995184;0.0654;-0.0024;-0.0015;
688349162050028;0.0664;-0.0024;-0.0015;
688349167104923;0.0675;-0.0003;-0.0015;
688349172159767;0.0622;-0.0003;-0.0025;
688349177214611;0.0579;-0.0013;-0.0036;
688349182269507;0.0569;-0.0003;-0.0057;
688349187321851;0.0505;-0.0003;-0.0025;
688349192376694;0.0409;-0.0013;-0.0047;
688349197431590;0.0334;-0.0035;-0.0068;
688349202486434;0.0270;-0.0013;-0.0100;
688349207541278;0.0174;-0.0003;-0.0111;
688349212596173;0.0121;-0.0013;-0.0121;
688349217648621;0.0036;-0.0035;-0.0121;
688349222703465;-0.0039;-0.0045;-0.0111;
688349227758361;-0.0049;-0.0003;-0.0111;
688349232813205;0.0036;-0.0003;-0.0100;
688349237868048;0.0047;-0.0003;-0.0121;
688349242922944;-0.0007;0.0008;-0.0100;
688349247963778;0.0004;0.0008;-0.0089;
688349253018673;0.0036;0.0008;-0.0079;
688349258073569;0.0004;-0.0003;-0.0111;
688349263128413;-0.0049;-0.0003;-0.0089;
688349268183257;0.0015;-0.0013;-0.0079;
688349273238153;0.0004;0.0008;-0.0047;
688349278293153;0.0004;-0.0035;-0.0036;
688349283348048;-0.0007;-0.0024;-0.0025;
688349288402892;0.0025;-0.0013;-0.0015;
688349293457788;0.0036;-0.0013;-0.0047;
688349298512684;0.0015;0.0019;-0.0015;
688349303567528;0.0015;-0.0003;0.0007;
688349308620601;-0.0017;-0.0013;0.0007;
688349313675340;0.0015;0.0008;0.0017;
688349318729976;0.0015;-0.0013;0.0007;
688349323784663;0.0036;0.0008;-0.0004;
688349328839246;0.0015;-0.0003;-0.0004;
688349333893934;0.0015;-0.0003;0.0007;
688349338974298;-0.0007;-0.0003;0.0017;
688349344028986;-0.0007;-0.0003;0.0049;
688349349083621;0.0015;-0.0003;0.0039;
688349354138309;0.0025;-0.0013;0.0039;
688349359192996;0.0004;-0.0003;0.0028;
688349364247632;-0.0007;-0.0003;0.0028;
688349369336538;0.0004;0.0008;0.0017;
688349374391226;0.0004;0.0019;0.0007;
688349379445861;0.0036;-0.0003;0.0017;
688349384500548;0.0057;-0.0003;0.0028;
688349389555184;0.0057;-0.0003;0.0007;
688349394609871;0.0089;0.0008;0.0017;
688349399599455;0.0100;-0.0003;0.0007;
688349404654142;0.0100;-0.0013;-0.0015;
688349409708778;0.0142;-0.0013;-0.0004;
688349414763465;0.0153;-0.0024;-0.0025;
688349419818101;0.0164;-0.0013;-0.0057;
688349424872736;0.0164;-0.0013;-0.0047;
688349429961538;0.0132;-0.0013;-0.0068;
688349435016226;0.0142;-0.0024;-0.0089;
688349440070861;0.0142;-0.0024;-0.0100;
688349445125496;0.0100;-0.0003;-0.0121;
688349450180184;0.0111;-0.0003;-0.0142;
688349455234871;0.0100;-0.0024;-0.0132;
688349460255705;0.0100;-0.0024;-0.0142;
688349465310392;0.0121;-0.0013;-0.0174;
688349470365028;0.0142;-0.0035;-0.0185;
688349475419715;0.0132;-0.0045;-0.0206;
688349480474351;0.0164;-0.0045;-0.0185;
688349485528986;0.0217;-0.0045;-0.0196;
688349490593830;0.0228;-0.0045;-0.0206;
688349495648517;0.0249;-0.0035;-0.0217;
688349500703153;0.0270;-0.0024;-0.0217;
688349505757840;0.0270;-0.0013;-0.0206;
688349510812423;0.0249;-0.0013;-0.0228;
688349515867111;0.0260;-0.0013;-0.0217;
688349520935184;0.0249;-0.0035;-0.0249;
688349525989871;0.0249;-0.0013;-0.0270;
688349531044507;0.0238;-0.0024;-0.0249;
688349536099194;0.0228;-0.0024;-0.0260;
688349541153830;0.0196;-0.0035;-0.0249;
688349546208465;0.0217;-0.0035;-0.0249;
688349551271746;0.0196;-0.0045;-0.0260;
688349556326434;0.0164;-0.0035;-0.0238;
688349561381069;0.0153;-0.0024;-0.0238;
688349566435757;0.0142;-0.0024;-0.0238;
688349571490392;0.0132;-0.0024;-0.0228;
688349576545028;0.0121;-0.0024;-0.0238;
688349581577163;0.0111;-0.0003;-0.0217;
688349586631851;0.0100;-0.0013;-0.0206;
688349591686486;0.0079;-0.0013;-0.0196;
688349596741173;0.0079;-0.0013;-0.0164;
688349601795809;0.0047;-0.0024;-0.0164;
688349606850444;0.0047;-0.0024;-0.0164;
688349611920653;0.0025;-0.0013;-0.0164;
688349616975340;0.0047;-0.0024;-0.0153;
688349622029976;0.0015;-0.0013;-0.0153;
688349627084663;0.0004;-0.0013;-0.0121;
688349632139298;0.0015;-0.0003;-0.0121;
688349637193934;0.0004;-0.0013;-0.0100;
688349642251017;0.0004;-0.0003;-0.0068;
688349647305705;0.0004;-0.0003;-0.0079;
688349652360288;0.0004;-0.0003;-0.0068;
688349657415028;-0.0007;0.0019;-0.0036;
688349662469611;-0.0007;-0.0003;-0.0036;
688349667524298;0.0004;0.0008;-0.0036;
688349672576017;0.0004;-0.0003;-0.0004;
688349677630705;0.0015;-0.0003;-0.0004;
688349682685340;-0.0007;-0.0003;0.0028;
688349687740028;-0.0007;-0.0013;0.0028;
688349692794663;-0.0007;-0.0013;0.0039;
688349697849298;0.0015;0.0008;0.0039;
688349702917528;0.0004;-0.0013;0.0049;
688349707972215;0.0047;0.0008;0.0081;
688349713026903;0.0100;-0.0003;0.0103;
688349718081538;0.0164;0.0008;0.0103;
688349723136173;0.0217;-0.0003;0.0134;
688349728190861;0.0260;0.0029;0.0166;
688349733234142;0.0313;0.0040;0.0177;
688349738288778;0.0345;0.0019;0.0166;
688349743343465;0.0366;0.0029;0.0177;
688349748398101;0.0387;0.0029;0.0188;
688349753452736;0.0398;0.0019;0.0198;
688349758507423;0.0430;0.0008;0.0220;
688349763557580;0.0430;-0.0003;0.0230;
688349768612215;0.0451;0.0008;0.0220;
688349773666903;0.0473;0.0019;0.0252;
688349778721538;0.0537;0.0019;0.0284;
688349783776226;0.0622;0.0019;0.0262;
688349788830861;0.0675;0.0019;0.0262;
688349793884455;0.0750;0.0008;0.0284;
688349798939090;0.0812;0.0019;0.0294;
688349803993778;0.0844;0.0051;0.0294;
688349809048413;0.0887;0.0040;0.0284;
688349814103101;0.0908;0.0029;0.0294;
688349819157736;0.0919;0.0019;0.0273;
688349824221955;0.0940;0.0029;0.0284;
688349829276590;0.0897;0.0029;0.0284;
688349834331278;0.0897;0.0019;0.0284;
688349839385965;0.0908;0.0008;0.0284;
688349844440548;0.0866;0.0008;0.0316;
688349849495236;0.0844;0.0008;0.0294;
688349854549611;0.0812;-0.0003;0.0262;
688349859604298;0.0802;-0.0013;0.0241;
688349864658986;0.0780;-0.0003;0.0241;
688349869713621;0.0728;0.0019;0.0241;
688349874768309;0.0675;0.0019;0.0220;
688349879822944;0.0643;0.0008;0.0209;
688349884868101;0.0569;-0.0003;0.0198;
688349889922736;0.0515;0.0008;0.0166;
688349894977423;0.0441;0.0019;0.0156;
688349900032059;0.0366;-0.0003;0.0134;
688349905086746;0.0302;0.0008;0.0113;
688349910141382;0.0217;-0.0003;0.0092;
688349915199351;0.0142;0.0008;0.0092;
688349920253986;0.0068;-0.0013;0.0060;
688349925308673;0.0057;-0.0003;0.0039;
688349930363309;0.0025;-0.0024;0.0049;
688349935417996;0.0015;-0.0013;0.0028;
688349940472632;0.0004;-0.0003;0.0028;
688349945532267;0.0015;0.0008;0.0039;
688349950586955;-0.0028;0.0029;0.0007;
688349955641538;-0.0007;0.0029;0.0007;
688349960696226;0.0004;-0.0003;0.0007;
688349965750913;0.0015;0.0008;0.0007;
688349970805548;-0.0007;0.0008;-0.0004;
688349975854871;-0.0017;-0.0003;-0.0004;
688349980909507;0.0015;-0.0013;0.0017;
688349985964194;0.0004;-0.0035;-0.0004;
688349991018882;0.0036;-0.0067;0.0017;
688349996073517;0.0079;-0.0035;0.0017;
688350001128153;0.0111;-0.0013;0.0028;
688350006179351;0.0111;-0.0013;0.0028;
688350011234038;0.0153;0.0008;0.0039;
688350016288673;0.0185;0.0008;0.0049;
688350021343309;0.0196;0.0008;0.0049;
688350026397996;0.0217;0.0029;0.0049;
688350031452632;0.0260;0.0029;0.0049;
688350036514455;0.0270;0.0008;0.0060;
688350041569142;0.0238;0.0008;0.0060;
688350046623778;0.0228;0.0008;0.0071;
688350051678465;0.0249;0.0019;0.0092;
688350056733048;0.0249;0.0008;0.0103;
688350061787736;0.0217;-0.0013;0.0113;
688350066838309;0.0164;-0.0003;0.0103;
688350071892996;0.0164;-0.0024;0.0124;
688350076947632;0.0089;-0.0013;0.0134;
688350082002319;0.0057;0.0040;0.0134;
688350087056955;0.0047;0.0029;0.0134;
688350092111642;-0.0007;0.0029;0.0134;
688350097175913;-0.0028;0.0051;0.0145;
688350102230548;-0.0039;0.0040;0.0156;
688350107285236;-0.0060;0.0040;0.0166;
688350112339871;-0.0060;0.0051;0.0166;
688350117394559;-0.0049;0.0040;0.0177;
688350122449194;-0.0060;0.0040;0.0188;
688350127497059;-0.0071;0.0051;0.0177;
688350132551746;-0.0060;0.0040;0.0188;
688350137606382;-0.0060;0.0019;0.0241;
688350142661017;-0.0060;0.0061;0.0220;
688350147715705;-0.0081;0.0072;0.0241;
688350152770340;-0.0060;0.0051;0.0241;
688350157839715;-0.0049;0.0019;0.0241;
688350162894403;-0.0060;0.0019;0.0252;
688350167949090;-0.0071;0.0040;0.0252;
688350173003726;-0.0039;0.0008;0.0262;
688350178058413;-0.0039;0.0029;0.0262;
688350183113048;-0.0049;0.0008;0.0262;
688350188142684;-0.0049;0.0040;0.0273;
688350193197371;-0.0081;0.0040;0.0284;
688350198252007;-0.0071;0.0029;0.0262;
688350203306694;-0.0071;0.0051;0.0284;
688350208361330;-0.0049;0.0040;0.0262;
688350213415965;-0.0049;0.0029;0.0241;
688350218460705;-0.0060;0.0051;0.0262;
688350223515340;-0.0071;0.0040;0.0273;
688350228569976;-0.0081;0.0029;0.0273;
688350233624715;-0.0049;0.0019;0.0252;
688350238679298;-0.0039;0.0051;0.0241;
688350243733986;-0.0071;0.0029;0.0241;
688350248856851;-0.0071;0.0040;0.0252;
688350253911538;-0.0039;0.0029;0.0241;
688350258966173;-0.0039;0.0029;0.0252;
688350264020809;-0.0049;0.0040;0.0273;
688350269075444;-0.0049;0.0051;0.0252;
688350274130132;-0.0060;0.0008;0.0252;
688350279113830;-0.0049;0.0040;0.0262;
688350284168465;-0.0060;0.0051;0.0241;
688350289223153;-0.0049;0.0051;0.0252;
688350294277788;-0.0060;0.0029;0.0241;
688350299332476;-0.0049;0.0051;0.0262;
688350304387111;-0.0049;0.0040;0.0241;
688350309504559;-0.0060;0.0019;0.0230;
688350314559455;-0.0039;0.0008;0.0241;
688350319614351;-0.0039;0.0019;0.0241;
688350324669298;-0.0071;0.0051;0.0252;
688350329724194;-0.0060;0.0029;0.0230;
688350334779090;-0.0071;0.0029;0.0209;
688350339804298;-0.0060;0.0051;0.0209;
688350344859194;-0.0071;0.0029;0.0198;
688350349914090;-0.0060;0.0029;0.0198;
688350354969038;-0.0071;0.0051;0.0209;
688350360023934;-0.0060;0.0051;0.0198;
688350365078830;-0.0049;0.0029;0.0188;
688350370138048;-0.0060;0.0040;0.0188;
688350375192944;-0.0060;0.0061;0.0177;
688350380247840;-0.0060;0.0040;0.0188;
688350385302788;-0.0060;0.0029;0.0156;
688350390357684;-0.0060;0.0040;0.0177;
688350395412580;-0.0071;0.0019;0.0177;
688350400448153;-0.0060;0.0029;0.0156;
688350405503048;-0.0039;0.0040;0.0166;
688350410557944;-0.0028;0.0029;0.0166;
688350415612840;-0.0049;0.0029;0.0156;
688350420667788;-0.0060;0.0040;0.0156;
688350425722684;-0.0071;0.0029;0.0177;
688350430789871;-0.0049;-0.0013;0.0177;
688350435844767;-0.0017;0.0029;0.0156;
688350440899663;-0.0028;0.0019;0.0145;
688350445954559;-0.0017;0.0029;0.0134;
688350451009507;-0.0028;0.0051;0.0145;
688350456064403;-0.0039;0.0051;0.0134;
688350461088101;-0.0039;0.0008;0.0113;
688350466143048;-0.0028;0.0008;0.0103;
688350471197944;-0.0017;0.0040;0.0103;
688350476252840;-0.0017;0.0008;0.0103;
688350481307736;-0.0039;0.0019;0.0081;
688350486362684;-0.0049;0.0029;0.0060;
688350491439142;-0.0028;0.0040;0.0039;
688350496494038;-0.0007;0.0019;0.0039;
688350501548934;-0.0007;0.0029;0.0039;
688350506603830;-0.0007;0.0029;0.0017;
688350511658726;0.0025;0.0008;0.0017;
688350516713673;-0.0007;0.0029;-0.0015;
688350521765913;-0.0007;-0.0003;-0.0036;
688350526820809;0.0004;0.0019;-0.0057;
688350531875705;0.0004;0.0008;-0.0047;
688350536930601;0.0004;-0.0003;-0.0036;
688350541985548;-0.0007;-0.0003;-0.0047;
688350547040444;-0.0007;-0.0003;-0.0068;
688350552107892;0.0025;0.0008;-0.0089;
688350557162788;0.0015;0.0008;-0.0079;
688350562217684;0.0025;-0.0024;-0.0079;
688350567272580;0.0025;-0.0045;-0.0100;
688350572327528;0.0036;-0.0045;-0.0100;
688350577382423;0.0047;-0.0056;-0.0089;
688350582478673;0.0025;-0.0056;-0.0100;
688350587533621;0.0015;-0.0035;-0.0111;
688350592588517;0.0047;-0.0024;-0.0100;
688350597643413;0.0057;-0.0024;-0.0111;
688350602698361;0.0047;-0.0013;-0.0100;
688350607753257;0.0025;-0.0024;-0.0100;
688350612753153;0.0015;0.0019;-0.0100;
688350617808048;0.0015;0.0029;-0.0111;
688350622862944;0.0015;0.0029;-0.0089;
688350627917840;0.0015;0.0040;-0.0089;
688350632972788;-0.0007;0.0019;-0.0079;
688350638027684;0.0004;-0.0003;-0.0079;
688350643082267;0.0004;-0.0003;-0.0047;
688350648137163;-0.0007;-0.0003;-0.0047;
688350653192059;-0.0007;-0.0024;-0.0025;
688350658246955;-0.0007;-0.0013;-0.0004;
688350663301903;0.0004;-0.0013;-0.0025;
688350668356798;0.0015;-0.0003;-0.0015;
688350673408934;-0.0007;-0.0003;0.0017;
688350678463830;-0.0017;0.0008;0.0028;
688350683518726;0.0004;0.0019;0.0039;
688350688573673;-0.0017;0.0029;0.0039;
688350693628569;-0.0007;0.0029;0.0049;
688350698683413;-0.0017;0.0040;0.0081;
688350703749559;-0.0017;0.0040;0.0092;
688350708804455;0.0004;0.0019;0.0103;
688350713859351;-0.0039;0.0019;0.0124;
688350718914246;-0.0017;0.0019;0.0166;
688350723969194;-0.0017;0.0008;0.0177;
688350729024038;-0.0049;-0.0003;0.0145;
688350734067996;-0.0028;-0.0003;0.0145;
688350739122892;-0.0039;0.0008;0.0166;
688350744177788;-0.0007;0.0019;0.0166;
688350749232684;-0.0007;0.0019;0.0188;
688350754287632;-0.0060;0.0019;0.0188;
688350759342528;-0.0049;0.0029;0.0198;
688350764390184;-0.0028;0.0019;0.0177;
688350769445080;-0.0028;0.0008;0.0188;
688350774499976;-0.0049;0.0029;0.0177;
688350779554871;-0.0039;0.0029;0.0166;
688350784609819;-0.0049;0.0029;0.0177;
688350789664663;-0.0039;0.0029;0.0166;
688350794701069;-0.0060;0.0008;0.0177;
688350799756017;-0.0028;0.0008;0.0166;
688350804810913;-0.0028;0.0029;0.0145;
688350809865809;-0.0039;0.0029;0.0134;
688350814920757;-0.0028;0.0008;0.0124;
688350819975601;-0.0028;0.0019;0.0113;
688350825043621;-0.0028;0.0008;0.0113;
688350830098517;-0.0017;-0.0003;0.0081;
688350835153413;-0.0028;0.0008;0.0071;
688350840208309;-0.0028;-0.0003;0.0071;
688350845263205;-0.0007;-0.0035;0.0060;
688350850318101;-0.0007;-0.0013;0.0049;
688350855378726;0.0036;-0.0013;0.0039;
688350860433621;0.0025;-0.0035;0.0028;
688350865488517;0.0015;-0.0013;0.0017;
688350870543413;0.0068;-0.0003;0.0049;
688350875598361;0.0089;0.0019;0.0017;
688350880653257;0.0142;-0.0003;-0.0004;
688350885702163;0.0132;-0.0003;-0.0015;
688350890757059;0.0121;-0.0003;-0.0015;
688350895811955;0.0111;-0.0013;-0.0015;
688350900866851;0.0100;0.0008;-0.0025;
688350905921798;0.0089;0.0008;-0.0036;
688350910976694;0.0068;0.0008;-0.0057;
688350916030809;0.0047;0.0008;-0.0079;
688350921085705;0.0057;-0.0003;-0.0057;
688350926140601;0.0047;-0.0024;-0.0057;
688350931195496;0.0047;-0.0035;-0.0057;
688350936250444;0.0068;-0.0024;-0.0079;
688350941305340;0.0079;-0.0024;-0.0068;
688350946373517;0.0089;-0.0045;-0.0057;
688350951428413;0.0100;-0.0024;-0.0068;
688350956483309;0.0111;-0.0013;-0.0057;
688350961538205;0.0111;-0.0003;-0.0079;
688350966593153;0.0132;-0.0024;-0.0079;
688350971648048;0.0185;-0.0024;-0.0047;
688350976690236;0.0185;-0.0035;-0.0057;
688350981745132;0.0174;-0.0013;-0.0068;
688350986800028;0.0174;-0.0024;-0.0057;
688350991854923;0.0164;-0.0013;-0.0057;
688350996909871;0.0174;-0.0024;-0.0047;
688351001964767;0.0121;-0.0013;-0.0057;
688351007027319;0.0100;-0.0013;-0.0068;
688351012082215;0.0057;-0.0003;-0.0057;
688351017137111;0.0036;-0.0003;-0.0057;
688351022192059;0.0025;-0.0013;-0.0057;
688351027246955;-0.0007;-0.0013;-0.0068;
688351032301851;0.0036;0.0008;-0.0057;
688351037347580;0.0025;-0.0003;-0.0036;
688351042402476;0.0004;-0.0003;-0.0047;
688351047457371;-0.0007;0.0008;-0.0036;
688351052512267;0.0004;0.0008;-0.0025;
688351057567163;0.0004;0.0008;-0.0025;
688351062622059;-0.0007;0.0019;-0.0015;
688351067664246;0.0015;0.0008;-0.0004;
688351072719142;0.0025;0.0008;0.0007;
688351077774038;0.0015;-0.0013;0.0028;
688351082828934;0.0015;-0.0003;0.0017;
688351087883882;-0.0017;0.0008;0.0007;
688351092938778;-0.0017;-0.0003;0.0017;
688351097986173;-0.0017;-0.0003;0.0060;
688351103041121;-0.0007;-0.0003;0.0039;
688351108096017;-0.0007;0.0008;0.0039;
688351113150913;-0.0028;0.0008;0.0049;
688351118205809;-0.0017;0.0008;0.0071;
688351123260757;0.0025;0.0019;0.0060;
688351128314819;0.0015;0.0029;0.0060;
688351133369767;-0.0039;0.0019;0.0092;
688351138424663;-0.0028;0.0019;0.0081;
688351143479559;-0.0017;0.0029;0.0071;
688351148534507;-0.0017;0.0029;0.0060;
688351153589403;-0.0028;0.0019;0.0039;
688351158647215;-0.0007;-0.0003;0.0071;
688351163702163;-0.0007;-0.0003;0.0060;
688351168757059;-0.0007;0.0008;0.0071;
688351173811955;-0.0028;-0.0003;0.0060;
688351178866903;-0.0017;0.0008;0.0071;
688351183921746;-0.0007;0.0019;0.0060;
688351188981903;-0.0017;-0.0003;0.0071;
688351194036798;-0.0007;-0.0003;0.0060;
688351199091746;-0.0017;-0.0003;0.0049;
688351204146642;-0.0007;-0.0003;0.0028;
688351209201538;0.0004;0.0008;0.0039;
688351214256434;0.0015;-0.0003;-0.0004;
688351219304663;0.0015;0.0008;-0.0025;
688351224359559;0.0004;0.0008;-0.0047;
688351229414455;-0.0007;-0.0013;-0.0047;
688351234469403;0.0025;-0.0003;-0.0057;
688351239524298;0.0004;0.0008;-0.0079;
688351244579194;-0.0007;-0.0003;-0.0100;
688351249620080;0.0015;-0.0003;-0.0111;
688351254674976;0.0036;-0.0013;-0.0132;
688351259729871;0.0047;-0.0003;-0.0164;
688351264784767;0.0047;-0.0013;-0.0142;
688351269839663;0.0057;-0.0024;-0.0164;
688351274894611;0.0025;-0.0013;-0.0164;
688351279945548;0.0068;-0.0013;-0.0185;
688351285000496;0.0068;-0.0035;-0.0206;
688351290055392;0.0047;-0.0056;-0.0206;
688351295110288;0.0057;-0.0035;-0.0217;
688351300165236;0.0068;-0.0035;-0.0228;
688351305220132;0.0057;-0.0024;-0.0228;
688351310288726;0.0047;-0.0024;-0.0249;
688351315343309;0.0079;-0.0056;-0.0238;
688351320397840;0.0100;-0.0045;-0.0238;
688351325452371;0.0079;-0.0056;-0.0249;
688351330506955;0.0100;-0.0077;-0.0249;
688351335561486;0.0132;-0.0045;-0.0249;
688351340624559;0.0153;-0.0035;-0.0238;
688351345679142;0.0164;-0.0056;-0.0228;
688351350733673;0.0164;-0.0056;-0.0228;
688351355788205;0.0153;-0.0045;-0.0217;
688351360842788;0.0164;-0.0035;-0.0217;
688351365897319;0.0206;-0.0024;-0.0206;
688351370974246;0.0238;-0.0024;-0.0206;
688351376028830;0.0238;-0.0024;-0.0153;
688351381083361;0.0238;-0.0024;-0.0153;
688351386137892;0.0196;-0.0024;-0.0153;
688351391192476;0.0153;-0.0003;-0.0132;
688351396247007;0.0121;-0.0024;-0.0111;
688351401300653;0.0111;-0.0035;-0.0079;
688351406355236;0.0121;-0.0024;-0.0089;
688351411409767;0.0121;-0.0024;-0.0057;
688351416464298;0.0111;-0.0013;-0.0057;
688351421518882;0.0142;-0.0013;-0.0015;
688351426573413;0.0142;-0.0013;-0.0004;
688351431614871;0.0132;-0.0013;0.0028;
688351436669455;0.0153;-0.0003;0.0039;
688351441723986;0.0174;-0.0003;0.0049;
688351446778517;0.0206;0.0029;0.0060;
688351451833101;0.0238;0.0008;0.0071;
688351456887632;0.0260;0.0029;0.0081;
688351461949976;0.0270;0.0019;0.0081;
688351467004507;0.0281;0.0029;0.0103;
688351472059090;0.0292;0.0040;0.0092;
688351477113621;0.0270;0.0019;0.0145;
688351482168205;0.0260;0.0019;0.0156;
688351487222736;0.0228;0.0029;0.0166;
688351492281903;0.0196;0.0019;0.0145;
688351497336486;0.0217;0.0019;0.0134;
688351502391017;0.0164;-0.0003;0.0156;
688351507445548;0.0132;0.0008;0.0177;
688351512500132;0.0142;0.0019;0.0166;
688351517554663;0.0121;0.0019;0.0145;
688351522601851;0.0089;0.0019;0.0177;
688351527656434;0.0036;0.0040;0.0188;
688351532710965;0.0036;0.0019;0.0166;
688351537765496;0.0057;0.0008;0.0166;
688351542820080;0.0025;0.0040;0.0156;
688351547874611;0.0004;0.0040;0.0166;
688351552937892;-0.0007;0.0019;0.0166;
688351557992476;-0.0039;0.0019;0.0156;
688351563047007;-0.0039;-0.0003;0.0156;
688351568101538;-0.0007;-0.0003;0.0156;
688351573156121;-0.0007;0.0019;0.0145;
688351578210653;-0.0028;0.0008;0.0134;
688351583250496;-0.0007;0.0019;0.0124;
688351588305080;0.0004;-0.0003;0.0124;
688351593359611;-0.0028;0.0019;0.0145;
688351598414194;-0.0028;-0.0003;0.0113;
688351603468726;-0.0028;-0.0003;0.0081;
688351608523257;-0.0017;0.0008;0.0103;
688351613582163;-0.0017;0.0019;0.0081;
688351618636746;-0.0028;0.0008;0.0071;
688351623691278;-0.0028;0.0019;0.0081;
688351628745809;-0.0017;0.0008;0.0060;
688351633800392;-0.0007;0.0008;0.0071;
688351638854923;-0.0017;-0.0003;0.0028;
688351643898101;-0.0017;0.0029;0.0049;
688351648952684;-0.0039;0.0019;0.0060;
688351654007215;-0.0017;0.0008;0.0028;
688351659061746;-0.0007;-0.0013;0.0028;
688351664116330;-0.0028;0.0019;0.0049;
688351669170861;-0.0007;-0.0003;0.0007;
688351674235184;0.0004;0.0008;-0.0004;
688351679289715;-0.0017;0.0019;0.0017;
688351684344298;-0.0007;-0.0013;0.0039;
688351689398830;-0.0028;-0.0013;0.0007;
688351694453413;-0.0017;0.0008;0.0007;
688351699507944;0.0004;0.0008;-0.0004;
688351704582788;0.0004;-0.0024;-0.0004;
688351709637371;-0.0007;-0.0013;-0.0015;
688351714691903;0.0015;0.0008;-0.0015;
688351719746434;0.0004;0.0019;-0.0015;
688351724801017;0.0025;-0.0013;-0.0036;
688351729855548;0.0025;-0.0013;-0.0047;
688351734896017;0.0015;0.0029;-0.0036;
688351739950548;0.0025;0.0019;-0.0036;
688351745005132;0.0004;-0.0003;-0.0057;
688351750059663;0.0004;-0.0024;-0.0047;
688351755114246;0.0004;-0.0013;-0.0057;
688351760168778;-0.0007;0.0008;-0.0057;
688351765205288;-0.0007;-0.0003;-0.0057;
688351770259819;-0.0007;-0.0003;-0.0057;
688351775314403;0.0004;0.0029;-0.0079;
688351780368934;0.0015;0.0008;-0.0057;
688351785423517;0.0004;0.0008;-0.0057;
688351790478048;0.0025;0.0008;-0.0068;
688351795536538;0.0004;0.0008;-0.0068;
688351800591121;0.0004;-0.0003;-0.0068;
688351805645653;0.0004;-0.0013;-0.0036;
688351810700184;0.0015;-0.0013;-0.0036;
688351815754767;0.0025;-0.0003;-0.0057;
688351820809298;-0.0007;-0.0024;-0.0057;
688351825863882;0.0004;-0.0024;-0.0057;
688351830918309;0.0004;-0.0013;-0.0068;
688351835972892;-0.0017;-0.0013;-0.0047;
688351841027423;0.0004;-0.0003;-0.0057;
688351846081955;0.0015;0.0019;-0.0047;
688351851136538;0.0025;-0.0003;-0.0047;
688351856191069;0.0015;0.0008;-0.0068;
688351861274246;0.0004;-0.0003;-0.0057;
688351866328778;-0.0017;-0.0013;-0.0057;
688351871383361;0.0025;-0.0003;-0.0047;
688351876437892;0.0015;-0.0003;-0.0036;
688351881492476;0.0015;-0.0024;-0.0036;
688351886547007;0.0025;-0.0013;-0.0036;
688351891599246;0.0015;-0.0013;-0.0036;
688351896653830;-0.0007;-0.0024;-0.0047;
688351901708361;0.0004;-0.0013;-0.0057;
688351906762892;0.0004;-0.0003;-0.0036;
688351911817476;-0.0007;-0.0003;-0.0036;
688351916872007;0.0004;-0.0003;-0.0025;
688351921921434;0.0004;-0.0003;-0.0057;
688351926976017;0.0004;-0.0003;-0.0057;
688351932030548;-0.0007;0.0019;-0.0025;
688351937085080;0.0004;0.0008;-0.0025;
688351942139663;0.0004;0.0008;-0.0036;
688351947194194;-0.0007;0.0008;-0.0047;
688351952258934;0.0004;-0.0003;-0.0004;
688351957313517;-0.0017;-0.0024;-0.0015;
688351962368048;-0.0017;-0.0013;0.0007;
688351967422580;-0.0007;-0.0035;0.0007;
688351972477163;0.0004;-0.0067;0.0017;
688351977531694;0.0025;-0.0067;0.0081;
688351982578413;0.0004;-0.0099;0.0092;
688351987632944;0.0004;-0.0067;0.0060;
688351992687528;0.0004;-0.0056;0.0081;
688351997742059;-0.0017;-0.0035;0.0103;
688352002796642;-0.0017;-0.0013;0.0113;
688352007851173;0.0025;-0.0003;0.0113;
688352012907684;0.0111;0.0029;0.0113;
688352017962215;0.0174;0.0051;0.0134;
688352023016798;0.0249;0.0029;0.0156;
688352028071330;0.0356;0.0019;0.0156;
688352033125913;0.0483;0.0029;0.0177;
688352038180444;0.0601;0.0029;0.0188;
688352043236069;0.0686;0.0029;0.0188;
688352048290653;0.0739;-0.0013;0.0198;
688352053345184;0.0812;-0.0045;0.0198;
688352058399715;0.0855;-0.0024;0.0220;
688352063454298;0.0919;-0.0003;0.0209;
688352068508830;0.0951;-0.0003;0.0209;
688352073567267;0.0983;-0.0013;0.0177;
688352078621851;0.0972;0.0029;0.0166;
688352083676382;0.0972;0.0051;0.0166;
688352088730913;0.0940;0.0029;0.0145;
688352093785496;0.0887;0.0051;0.0113;
688352098840028;0.0823;0.0040;0.0092;
688352103876121;0.0707;0.0019;0.0071;
688352108930705;0.0547;0.0029;0.0039;
688352113985236;0.0366;0.0008;0.0007;
688352119039767;0.0174;-0.0013;-0.0036;
688352124094351;-0.0028;-0.0003;-0.0111;
688352129148882;-0.0177;-0.0003;-0.0142;
688352134217996;-0.0049;-0.0003;-0.0164;
688352139272528;0.0153;-0.0003;-0.0196;
688352144327111;0.0036;0.0008;-0.0206;
688352149381642;-0.0103;0.0040;-0.0238;
688352154436226;-0.0017;0.0029;-0.0270;
688352159490757;-0.0039;0.0019;-0.0302;
688352164542163;-0.0209;0.0040;-0.0345;
688352169596694;-0.0443;0.0019;-0.0387;
688352174651278;-0.0624;-0.0003;-0.0441;
688352179705809;-0.0848;-0.0045;-0.0494;
688352184760392;-0.1115;-0.0067;-0.0537;
688352189814923;-0.1296;-0.0067;-0.0590;
688352194877736;-0.1487;-0.0077;-0.0643;
688352199932267;-0.1658;-0.0077;-0.0686;
688352204986851;-0.1764;-0.0077;-0.0728;
688352210041382;-0.1881;-0.0077;-0.0760;
688352215095965;-0.1988;-0.0035;-0.0824;
688352220150496;-0.2063;-0.0024;-0.0888;
688352225196434;-0.2052;-0.0035;-0.0941;
688352230251017;-0.2084;-0.0013;-0.0973;
688352235305548;-0.2073;-0.0024;-0.1016;
688352240360080;-0.1988;-0.0045;-0.1059;
688352245414663;-0.1892;-0.0045;-0.1069;
688352250469194;-0.1850;-0.0067;-0.1122;
688352255532788;-0.1786;-0.0077;-0.1133;
688352260587371;-0.1732;-0.0088;-0.1133;
688352265641903;-0.1690;-0.0099;-0.1165;
688352270696434;-0.1615;-0.0099;-0.1197;
688352275751017;-0.1615;-0.0120;-0.1208;
688352280805548;-0.1743;-0.0056;-0.1229;
688352285855184;-0.1871;-0.0035;-0.1250;
688352290909767;-0.1860;-0.0077;-0.1272;
688352295964298;-0.1881;-0.0120;-0.1293;
688352301018830;-0.1999;-0.0099;-0.1293;
688352306073413;-0.2105;-0.0099;-0.1304;
688352311127944;-0.2222;-0.0099;-0.1336;
688352316196278;-0.2286;-0.0109;-0.1336;
688352321251069;-0.2276;-0.0162;-0.1378;
688352326305809;-0.2478;-0.0109;-0.1367;
688352331360601;-0.2648;-0.0088;-0.1389;
688352336415340;-0.2648;-0.0067;-0.1410;
688352341470080;-0.2606;-0.0056;-0.1410;
688352346533517;-0.2553;-0.0035;-0.1399;
688352351588309;-0.2361;-0.0035;-0.1410;
688352356643048;-0.2137;-0.0088;-0.1378;
688352361697840;-0.1988;-0.0045;-0.1346;
688352366752580;-0.1647;-0.0269;-0.1346;
688352371807319;-0.1935;-0.0024;-0.1304;
688352376833465;-0.2638;0.0178;-0.1272;
688352381888257;-0.2563;0.0029;-0.1325;
688352386942996;-0.1871;-0.0184;-0.1346;
688352391997788;-0.1892;-0.0248;-0.1304;
688352397052528;-0.2222;-0.0067;-0.1304;
688352402107267;-0.1924;-0.0088;-0.1314;
688352407182528;-0.1551;-0.0141;-0.1229;
688352412237319;-0.1434;-0.0141;-0.1229;
688352417292059;-0.1487;-0.0130;-0.1186;
688352422346851;-0.1200;-0.0109;-0.1154;
688352427401590;-0.0976;-0.0109;-0.1176;
688352432456330;-0.0891;-0.0035;-0.1197;
688352437498934;-0.0763;0.0029;-0.1197;
688352442553726;-0.0646;0.0051;-0.1186;
688352447608465;-0.0614;0.0019;-0.1176;
688352452663257;-0.0720;0.0008;-0.1154;
688352457717996;-0.0752;-0.0035;-0.1144;
688352462772736;-0.0774;-0.0109;-0.1154;
688352467832111;-0.0795;-0.0099;-0.1165;
688352472886903;-0.0806;-0.0099;-0.1144;
688352477941642;-0.0806;-0.0099;-0.1133;
688352482996434;-0.0784;-0.0109;-0.1144;
688352488051173;-0.0710;-0.0120;-0.1144;
688352493105913;-0.0656;-0.0130;-0.1144;
688352498150444;-0.0582;-0.0077;-0.1144;
688352503205236;-0.0422;-0.0045;-0.1133;
688352508259976;-0.0284;-0.0013;-0.1112;
688352513314767;-0.0177;0.0019;-0.1101;
688352518369559;-0.0060;-0.0003;-0.1091;
688352523424246;0.0015;-0.0024;-0.1122;
688352528472528;0.0047;-0.0056;-0.1112;
688352533527319;0.0121;-0.0099;-0.1080;
688352538582059;0.0196;-0.0088;-0.1122;
688352543636851;0.0217;-0.0088;-0.1112;
688352548691590;0.0260;-0.0120;-0.1112;
688352553746330;0.0292;-0.0120;-0.1133;
688352558883309;0.0292;-0.0130;-0.1101;
688352563938048;0.0313;-0.0141;-0.1122;
688352568992788;0.0292;-0.0120;-0.1154;
688352574047580;0.0281;-0.0067;-0.1165;
688352579102319;0.0292;-0.0035;-0.1165;
688352584157111;0.0260;-0.0056;-0.1165;
688352589119507;0.0292;-0.0077;-0.1176;
688352594174298;0.0313;-0.0099;-0.1197;
688352599229090;0.0292;-0.0099;-0.1197;
688352604283778;0.0270;-0.0077;-0.1240;
688352609338569;0.0281;-0.0088;-0.1250;
688352614393309;0.0302;-0.0099;-0.1240;
688352619519976;0.0324;-0.0109;-0.1293;
688352624574715;0.0313;-0.0109;-0.1282;
688352629629507;0.0313;-0.0120;-0.1304;
688352634684246;0.0334;-0.0088;-0.1325;
688352639739038;0.0334;-0.0077;-0.1325;
688352644793830;0.0302;-0.0088;-0.1336;
688352649782059;0.0302;-0.0088;-0.1336;
688352654836798;0.0334;-0.0099;-0.1357;
688352659891590;0.0356;-0.0099;-0.1389;
688352664946330;0.0345;-0.0099;-0.1378;
688352670001121;0.0345;-0.0130;-0.1389;
688352675055861;0.0366;-0.0120;-0.1431;
688352680133205;0.0356;-0.0130;-0.1431;
688352685187944;0.0356;-0.0130;-0.1453;
688352690242736;0.0356;-0.0141;-0.1453;
688352695297476;0.0366;-0.0141;-0.1463;
688352700352215;0.0366;-0.0141;-0.1463;
688352705407007;0.0377;-0.0120;-0.1463;
688352710444923;0.0398;-0.0109;-0.1517;
688352715499715;0.0419;-0.0120;-0.1549;
688352720554455;0.0387;-0.0099;-0.1559;
688352725609246;0.0387;-0.0088;-0.1570;
688352730664038;0.0387;-0.0109;-0.1591;
688352735718726;0.0398;-0.0109;-0.1602;
688352740791069;0.0398;-0.0120;-0.1612;
688352745845861;0.0387;-0.0109;-0.1612;
688352750900601;0.0387;-0.0141;-0.1612;
688352755955392;0.0387;-0.0120;-0.1612;
688352761010132;0.0398;-0.0130;-0.1644;
688352766064871;0.0398;-0.0130;-0.1655;
688352771119194;0.0419;-0.0141;-0.1644;
688352776173986;0.0430;-0.0152;-0.1644;
688352781228778;0.0398;-0.0141;-0.1666;
688352786283517;0.0409;-0.0109;-0.1666;
688352791338257;0.0430;-0.0141;-0.1666;
688352796393048;0.0387;-0.0152;-0.1666;
688352801427736;0.0398;-0.0141;-0.1666;
688352806482528;0.0441;-0.0141;-0.1676;
688352811537267;0.0398;-0.0130;-0.1666;
688352816592059;0.0398;-0.0173;-0.1666;
688352821646798;0.0409;-0.0141;-0.1666;
688352826701538;0.0409;-0.0152;-0.1676;
688352831755340;0.0441;-0.0162;-0.1655;
688352836810132;0.0419;-0.0152;-0.1655;
688352841864871;0.0441;-0.0152;-0.1666;
688352846919611;0.0430;-0.0130;-0.1655;
688352851974403;0.0419;-0.0141;-0.1676;
688352857029142;0.0430;-0.0152;-0.1655;
688352862093673;0.0430;-0.0152;-0.1676;
688352867148465;0.0441;-0.0152;-0.1687;
688352872203205;0.0430;-0.0162;-0.1698;
688352877257996;0.0419;-0.0152;-0.1698;
688352882312736;0.0430;-0.0141;-0.1676;
688352887367476;0.0409;-0.0152;-0.1676;
688352892437111;0.0430;-0.0184;-0.1698;
688352897491903;0.0409;-0.0152;-0.1676;
688352902546642;0.0419;-0.0141;-0.1676;
688352907601434;0.0430;-0.0130;-0.1676;
688352912656226;0.0419;-0.0130;-0.1687;
688352917710913;0.0398;-0.0141;-0.1698;
688352922760601;0.0419;-0.0141;-0.1676;
688352927815392;0.0419;-0.0120;-0.1676;
688352932870132;0.0409;-0.0120;-0.1666;
688352937924923;0.0409;-0.0141;-0.1708;
688352942979715;0.0409;-0.0141;-0.1666;
688352948034403;0.0419;-0.0130;-0.1687;
688352953088153;0.0419;-0.0152;-0.1666;
688352958142944;0.0419;-0.0152;-0.1666;
688352963197684;0.0409;-0.0130;-0.1666;
688352968252476;0.0398;-0.0141;-0.1666;
688352973307215;0.0409;-0.0120;-0.1634;
688352978362007;0.0430;-0.0141;-0.1655;
688352983415080;0.0398;-0.0130;-0.1655;
688352988469819;0.0398;-0.0120;-0.1634;
688352993524559;0.0409;-0.0130;-0.1623;
688352998579351;0.0398;-0.0120;-0.1612;
688353003634090;0.0387;-0.0141;-0.1612;
688353008688882;0.0377;-0.0141;-0.1602;
688353013747111;0.0387;-0.0130;-0.1581;
688353018801903;0.0409;-0.0141;-0.1570;
688353023856694;0.0387;-0.0130;-0.1549;
688353028911434;0.0366;-0.0130;-0.1549;
688353033966173;0.0398;-0.0130;-0.1538;
688353039020965;0.0377;-0.0109;-0.1527;
688353044059559;0.0366;-0.0130;-0.1495;
688353049114298;0.0366;-0.0130;-0.1474;
688353054169038;0.0377;-0.0120;-0.1442;
688353059223830;0.0345;-0.0130;-0.1442;
688353064278621;0.0345;-0.0120;-0.1431;
688353069333361;0.0356;-0.0120;-0.1378;
688353074397111;0.0366;-0.0120;-0.1378;
688353079451955;0.0334;-0.0120;-0.1378;
688353084506642;0.0324;-0.0109;-0.1357;
688353089561434;0.0313;-0.0088;-0.1357;
688353094616173;0.0324;-0.0088;-0.1325;
688353099670965;0.0292;-0.0099;-0.1304;
688353104710288;0.0313;-0.0120;-0.1282;
688353109765080;0.0302;-0.0109;-0.1261;
688353114819767;0.0281;-0.0099;-0.1229;
688353119874559;0.0270;-0.0099;-0.1218;
688353124929298;0.0281;-0.0109;-0.1197;
688353129984090;0.0270;-0.0120;-0.1165;
688353135051382;0.0260;-0.0099;-0.1176;
688353140106226;0.0238;-0.0088;-0.1154;
688353145160913;0.0228;-0.0099;-0.1122;
688353150181642;0.0217;-0.0077;-0.1101;
688353155236382;0.0196;-0.0067;-0.1059;
688353160291121;0.0217;-0.0077;-0.1059;
688353165345913;0.0217;-0.0077;-0.1016;
688353170400705;0.0206;-0.0077;-0.1016;
688353175455392;0.0206;-0.0088;-0.0995;
688353180562215;0.0174;-0.0077;-0.0984;
688353185616955;0.0196;-0.0088;-0.0963;
688353190671694;0.0217;-0.0077;-0.0952;
688353195726486;0.0249;-0.0088;-0.0920;
688353200781226;0.0185;-0.0099;-0.0888;
688353205836017;0.0228;-0.0088;-0.0888;
688353210875340;0.0238;-0.0067;-0.0856;
688353215930132;0.0238;-0.0067;-0.0877;
688353220984871;0.0228;-0.0067;-0.0856;
688353226039663;0.0217;-0.0067;-0.0814;
688353231094455;0.0196;-0.0056;-0.0814;
688353236149142;0.0196;-0.0067;-0.0814;
688353241210444;0.0185;-0.0056;-0.0792;
688353246265288;0.0196;-0.0045;-0.0760;
688353251319976;0.0185;-0.0077;-0.0739;
688353256374767;0.0196;-0.0056;-0.0728;
688353261429507;0.0185;-0.0035;-0.0728;
688353266484246;0.0185;-0.0056;-0.0728;
688353271538778;0.0174;-0.0067;-0.0718;
688353276593569;0.0164;-0.0067;-0.0675;
688353281648309;0.0164;-0.0045;-0.0664;
688353286703048;0.0142;-0.0056;-0.0643;
688353291757840;0.0142;-0.0056;-0.0643;
688353296812632;0.0153;-0.0045;-0.0632;
688353301846694;0.0164;-0.0045;-0.0611;
688353306901486;0.0164;-0.0056;-0.0579;
688353311956226;0.0111;-0.0067;-0.0569;
688353317011017;0.0111;-0.0056;-0.0558;
688353322065757;0.0111;-0.0045;-0.0537;
688353327120496;0.0121;-0.0056;-0.0547;
688353332186278;0.0142;-0.0067;-0.0526;
688353337241069;0.0132;-0.0056;-0.0505;
688353342295861;0.0132;-0.0056;-0.0494;
688353347350601;0.0132;-0.0045;-0.0494;
688353352405340;0.0111;-0.0045;-0.0494;
688353357460080;0.0121;-0.0045;-0.0451;
688353362524090;0.0100;-0.0056;-0.0430;
688353367578882;0.0089;-0.0045;-0.0430;
688353372633673;0.0089;-0.0035;-0.0430;
688353377688413;0.0089;-0.0045;-0.0409;
688353382743153;0.0068;-0.0035;-0.0387;
688353387797892;0.0079;-0.0045;-0.0398;
688353392838153;0.0111;-0.0056;-0.0366;
688353397892944;0.0100;-0.0056;-0.0366;
688353402947684;0.0100;-0.0035;-0.0345;
688353408002476;0.0057;-0.0013;-0.0356;
688353413057215;0.0057;-0.0013;-0.0345;
688353418111955;0.0089;-0.0035;-0.0324;
688353423168048;0.0100;-0.0056;-0.0324;
688353428222788;0.0068;-0.0024;-0.0302;
688353433277528;0.0047;-0.0056;-0.0292;
688353438332371;0.0068;-0.0013;-0.0292;
688353443387059;0.0068;-0.0003;-0.0238;
688353448441851;0.0079;-0.0035;-0.0260;
688353453502632;0.0068;-0.0024;-0.0249;
688353458557423;0.0057;-0.0013;-0.0238;
688353463612215;0.0079;-0.0003;-0.0228;
688353468666955;0.0047;-0.0024;-0.0217;
688353473721694;0.0036;-0.0013;-0.0228;
688353478776486;0.0036;-0.0024;-0.0185;
688353483827840;0.0047;-0.0035;-0.0174;
688353488882632;0.0036;-0.0013;-0.0174;
688353493937371;0.0015;0.0019;-0.0174;
688353498992163;0.0036;-0.0013;-0.0142;
688353504046955;0.0025;-0.0003;-0.0111;
688353509101694;0.0036;-0.0003;-0.0100;
688353514160340;0.0025;-0.0013;-0.0089;
688353519215132;0.0015;-0.0013;-0.0089;
688353524269871;0.0004;-0.0003;-0.0079;
688353529324663;-0.0007;0.0008;-0.0057;
688353534379403;0.0004;-0.0003;-0.0036;
688353539434142;0.0015;-0.0003;-0.0025;
688353544500809;-0.0017;-0.0003;-0.0004;
688353549555548;-0.0017;-0.0013;0.0007;
688353554610288;-0.0017;0.0008;0.0007;
688353559665132;-0.0007;0.0019;0.0028;
688353564719819;-0.0017;0.0008;0.0039;
688353569774611;-0.0007;-0.0003;0.0049;
688353574799923;-0.0028;0.0019;0.0071;
688353579854663;-0.0007;0.0029;0.0092;
688353584909455;-0.0039;0.0019;0.0092;
688353589964194;-0.0028;0.0019;0.0092;
688353595018986;-0.0028;0.0019;0.0124;
688353600073778;-0.0039;0.0019;0.0134;
688353605148882;-0.0049;0.0008;0.0145;
688353610203673;-0.0039;0.0029;0.0156;
688353615258413;-0.0039;0.0019;0.0166;
688353620313205;-0.0049;0.0008;0.0209;
688353625367944;-0.0039;0.0029;0.0198;
688353630422684;-0.0060;0.0029;0.0188;
688353635476590;-0.0071;0.0040;0.0198;
688353640531434;-0.0060;0.0019;0.0198;
688353645586121;-0.0060;0.0019;0.0241;
688353650640913;-0.0049;0.0019;0.0230;
688353655695653;-0.0049;0.0019;0.0252;
688353660750444;-0.0071;0.0019;0.0241;
688353665810965;-0.0039;0.0008;0.0252;
688353670865809;-0.0049;0.0008;0.0230;
688353675920496;-0.0081;0.0019;0.0230;
688353680975288;-0.0071;0.0029;0.0230;
688353686030028;-0.0049;0.0029;0.0230;
688353691084767;-0.0049;0.0029;0.0230;
688353696129715;-0.0049;0.0019;0.0230;
688353701184507;-0.0071;0.0019;0.0209;
688353706239246;-0.0049;-0.0003;0.0198;
688353711294038;-0.0049;0.0019;0.0209;
688353716348778;-0.0060;0.0019;0.0198;
688353721403517;-0.0071;0.0029;0.0220;
688353726468465;-0.0060;0.0029;0.0166;
688353731523257;-0.0060;0.0019;0.0156;
688353736577996;-0.0028;0.0029;0.0177;
688353741632788;-0.0028;0.0029;0.0166;
688353746687528;-0.0049;0.0019;0.0145;
688353751742267;-0.0071;0.0019;0.0156;
688353756786278;-0.0049;-0.0013;0.0145;
688353761841069;-0.0028;0.0008;0.0113;
688353766895809;-0.0060;0.0029;0.0113;
688353771950601;-0.0039;0.0019;0.0124;
688353777005340;-0.0060;0.0008;0.0124;
688353782060080;-0.0060;0.0008;0.0103;
688353787118153;-0.0071;0.0008;0.0103;
688353792172944;-0.0071;0.0019;0.0103;
688353797227736;-0.0103;0.0008;0.0081;
688353802282476;-0.0081;0.0019;0.0092;
688353807337215;-0.0103;0.0008;0.0092;
688353812392007;-0.0113;0.0008;0.0081;
688353817448101;-0.0124;-0.0003;0.0081;
688353822502892;-0.0134;0.0008;0.0081;
688353827557632;-0.0103;-0.0003;0.0071;
688353832612423;-0.0103;-0.0003;0.0071;
688353837667163;-0.0113;0.0008;0.0039;
688353842721903;-0.0092;0.0008;0.0028;
688353847767007;-0.0113;0.0008;0.0039;
688353852821798;-0.0092;0.0008;0.0039;
688353857876538;-0.0103;-0.0013;0.0017;
688353862931330;-0.0103;0.0008;0.0017;
688353867986069;-0.0145;0.0008;0.0007;
688353873040809;-0.0156;0.0008;0.0007;
688353878097736;-0.0134;0.0008;-0.0004;
688353883152528;-0.0145;-0.0013;-0.0004;
688353888207267;-0.0177;-0.0003;-0.0025;
688353893262007;-0.0124;-0.0003;-0.0036;
688353898316798;-0.0156;-0.0003;-0.0036;
688353903371538;-0.0166;-0.0013;-0.0036;
688353908413934;-0.0166;-0.0003;-0.0057;
688353913468673;-0.0134;-0.0013;-0.0068;
688353918523413;-0.0156;-0.0024;-0.0047;
688353923578205;-0.0177;-0.0013;-0.0079;
688353928632944;-0.0177;-0.0003;-0.0111;
688353933687684;-0.0198;-0.0035;-0.0068;
688353938780080;-0.0209;-0.0024;-0.0089;
688353943834871;-0.0220;-0.0013;-0.0100;
688353948889559;-0.0273;-0.0003;-0.0121;
688353953944351;-0.0316;-0.0003;-0.0111;
688353958999090;-0.0358;-0.0003;-0.0100;
688353964053830;-0.0433;-0.0013;-0.0111;
688353969079298;-0.0475;-0.0003;-0.0121;
688353974134038;-0.0550;0.0019;-0.0132;
688353979188830;-0.0635;-0.0003;-0.0142;
688353984243621;-0.0678;0.0008;-0.0142;
688353989298361;-0.0763;0.0019;-0.0153;
688353994353101;-0.0827;0.0008;-0.0164;
688353999427684;-0.0880;0.0019;-0.0132;
688354004482423;-0.0923;0.0029;-0.0142;
688354009537215;-0.0987;0.0019;-0.0153;
688354014591955;-0.1008;-0.0003;-0.0164;
688354019646746;-0.1061;0.0008;-0.0132;
688354024701486;-0.1093;0.0008;-0.0132;
688354029715757;-0.1136;-0.0003;-0.0132;
688354034770548;-0.1178;0.0008;-0.0111;
688354039825340;-0.1200;0.0019;-0.0089;
688354044880080;-0.1200;0.0008;-0.0079;
688354049934819;-0.1189;0.0029;-0.0068;
688354054989559;-0.1157;0.0008;-0.0047;
688354060050080;-0.1104;0.0029;-0.0015;
688354065104819;-0.1040;0.0051;0.0007;
688354070159559;-0.0944;0.0040;0.0039;
688354075214351;-0.0901;0.0029;0.0071;
688354080269090;-0.0763;0.0029;0.0113;
688354085323830;-0.0614;0.0040;0.0156;
688354090387319;-0.0443;0.0019;0.0177;
688354095442111;-0.0305;0.0029;0.0220;
688354100496851;-0.0156;0.0008;0.0262;
688354105551642;0.0004;0.0008;0.0305;
688354110606382;0.0068;0.0008;0.0337;
688354115659795;-0.0103;0.0008;0.0390;
688354120721202;-0.0188;0.0008;0.0422;
688354125775994;-0.0071;0.0008;0.0454;
688354130830733;-0.0039;0.0029;0.0497;
688354135885525;-0.0166;0.0008;0.0539;
688354140940265;-0.0198;0.0019;0.0571;
688354145995004;-0.0113;0.0029;0.0635;
688354151016254;-0.0103;0.0019;0.0667;
688354156070994;-0.0198;0.0051;0.0699;
688354161125733;-0.0209;0.0061;0.0742;
688354166180525;-0.0177;0.0083;0.0784;
688354171235265;-0.0166;0.0051;0.0806;
688354176290056;-0.0241;0.0040;0.0838;
688354181394171;-0.0241;0.0040;0.0880;
688354186448910;-0.0252;0.0061;0.0923;
688354191503650;-0.0230;0.0040;0.0965;
688354196558442;-0.0273;0.0072;0.0987;
688354201613181;-0.0284;0.0083;0.1040;
688354206667973;-0.0262;0.0061;0.1051;
688354211709744;-0.0262;0.0083;0.1072;
688354216764535;-0.0262;0.0061;0.1083;
688354221819275;-0.0273;0.0051;0.1104;
688354226874067;-0.0284;0.0083;0.1115;
688354231928806;-0.0294;0.0083;0.1136;
688354236983546;-0.0305;0.0104;0.1168;
688354242030369;-0.0294;0.0083;0.1178;
688354247085160;-0.0284;0.0083;0.1189;
688354252139900;-0.0316;0.0083;0.1210;
688354257194692;-0.0316;0.0115;0.1221;
688354262249431;-0.0316;0.0104;0.1242;
688354267304171;-0.0348;0.0061;0.1242;
688354272368806;-0.0337;0.0093;0.1264;
688354277423598;-0.0358;0.0115;0.1306;
688354282478338;-0.0348;0.0083;0.1317;
688354287533129;-0.0348;0.0093;0.1328;
688354292587869;-0.0358;0.0104;0.1360;
688354297642660;-0.0348;0.0104;0.1391;
688354302688494;-0.0358;0.0115;0.1391;
688354307743233;-0.0358;0.0125;0.1413;
688354312798025;-0.0348;0.0104;0.1434;
688354317852765;-0.0358;0.0104;0.1445;
688354322907556;-0.0379;0.0104;0.1445;
688354327962348;-0.0369;0.0104;0.1477;
688354333030473;-0.0369;0.0125;0.1487;
688354338085317;-0.0390;0.0125;0.1498;
688354343140004;-0.0401;0.0104;0.1498;
688354348194796;-0.0390;0.0125;0.1519;
688354353249535;-0.0379;0.0125;0.1519;
688354358304327;-0.0401;0.0115;0.1539;
688354363353806;-0.0379;0.0125;0.1529;
688354368408650;-0.0390;0.0125;0.1529;
688354373463338;-0.0422;0.0115;0.1529;
688354378518129;-0.0443;0.0093;0.1550;
688354383572869;-0.0443;0.0072;0.1539;
688354388627660;-0.0454;0.0061;0.1550;
688354393681723;-0.0443;0.0104;0.1539;
688354398736515;-0.0465;0.0104;0.1561;
688354403791254;-0.0454;0.0115;0.1571;
688354408846046;-0.0433;0.0136;0.1582;
688354413900785;-0.0433;0.0093;0.1593;
688354418955577;-0.0443;0.0093;0.1593;
688354424013650;-0.0443;0.0115;0.1603;
688354429068390;-0.0443;0.0115;0.1635;
688354434123129;-0.0422;0.0104;0.1614;
688354439177921;-0.0443;0.0146;0.1624;
688354444232713;-0.0433;0.0146;0.1646;
688354449287452;-0.0443;0.0146;0.1656;
688354454332296;-0.0443;0.0104;0.1688;
688354459387088;-0.0443;0.0115;0.1720;
688354464441879;-0.0465;0.0125;0.1731;
688354469496619;-0.0465;0.0136;0.1742;
688354474551358;-0.0443;0.0136;0.1774;
688354479606150;-0.0433;0.0136;0.1784;
688354484661931;-0.0465;0.0115;0.1816;
688354489716775;-0.0443;0.0125;0.1827;
688354494771463;-0.0443;0.0136;0.1838;
688354499826254;-0.0507;0.0146;0.1880;
688354504881046;-0.0475;0.0146;0.1891;
688354509935785;-0.0465;0.0125;0.1901;
688354514990056;-0.0475;0.0136;0.1923;
688354520044848;-0.0486;0.0125;0.1923;
688354525099588;-0.0497;0.0125;0.1955;
688354530154379;-0.0475;0.0136;0.1944;
688354535209119;-0.0486;0.0136;0.1944;
688354540263910;-0.0486;0.0115;0.1955;
688354545312660;-0.0465;0.0115;0.1965;
688354550367452;-0.0465;0.0157;0.1955;
688354555422192;-0.0475;0.0125;0.1955;
688354560476983;-0.0486;0.0115;0.1955;
688354565531723;-0.0475;0.0146;0.1912;
688354570586463;-0.0486;0.0146;0.1912;
688354575650890;-0.0475;0.0146;0.1912;
688354580705681;-0.0497;0.0125;0.1891;
688354585760421;-0.0486;0.0136;0.1869;
688354590815213;-0.0454;0.0125;0.1838;
688354595869952;-0.0465;0.0104;0.1816;
688354600924692;-0.0454;0.0093;0.1806;
688354605985265;-0.0433;0.0093;0.1763;
688354611040056;-0.0433;0.0083;0.1752;
688354616094796;-0.0443;0.0083;0.1742;
688354621149588;-0.0433;0.0104;0.1688;
688354626204327;-0.0411;0.0115;0.1678;
688354631259119;-0.0422;0.0125;0.1646;
688354636305160;-0.0422;0.0115;0.1635;
688354641359952;-0.0401;0.0136;0.1624;
688354646414744;-0.0411;0.0115;0.1593;
688354651469483;-0.0390;0.0115;0.1561;
688354656524223;-0.0401;0.0104;0.1539;
688354661578963;-0.0390;0.0083;0.1519;
688354666632556;-0.0369;0.0104;0.1477;
688354671687348;-0.0358;0.0104;0.1434;
688354676742088;-0.0358;0.0104;0.1413;
688354681796879;-0.0337;0.0104;0.1370;
688354686851619;-0.0316;0.0104;0.1338;
688354691906358;-0.0316;0.0083;0.1306;
688354696964431;-0.0348;0.0072;0.1274;
688354702019223;-0.0326;0.0072;0.1242;
688354707073963;-0.0305;0.0104;0.1210;
688354712128754;-0.0294;0.0083;0.1157;
688354717183494;-0.0273;0.0061;0.1104;
688354722238233;-0.0284;0.0061;0.1061;
688354727289640;-0.0252;0.0051;0.1051;
688354732344431;-0.0230;0.0061;0.1008;
688354737399171;-0.0220;0.0061;0.0955;
688354742453963;-0.0209;0.0019;0.0912;
688354747508702;-0.0230;0.0019;0.0880;
688354752563442;-0.0209;0.0019;0.0838;
688354757620681;-0.0209;0.0029;0.0784;
688354762675473;-0.0220;0.0029;0.0742;
688354767730213;-0.0209;0.0051;0.0731;
688354772785004;-0.0177;0.0051;0.0678;
688354777839744;-0.0177;0.0072;0.0646;
688354782894535;-0.0166;0.0072;0.0593;
688354787934119;-0.0166;0.0072;0.0571;
688354792988910;-0.0145;0.0072;0.0507;
688354798043650;-0.0166;0.0061;0.0475;
688354803098442;-0.0177;0.0051;0.0411;
688354808153181;-0.0145;0.0040;0.0390;
688354813207921;-0.0198;0.0061;0.0326;
688354818264952;-0.0262;0.0040;0.0284;
688354823319796;-0.0316;0.0008;0.0230;
688354828374483;-0.0326;-0.0003;0.0177;
688354833429275;-0.0401;-0.0003;0.0113;
688354838484015;-0.0443;-0.0003;0.0081;
688354843538754;-0.0465;-0.0013;0.0028;
688354848588650;-0.0507;-0.0024;-0.0004;
688354853643390;-0.0507;0.0019;-0.0036;
688354858698181;-0.0529;0.0029;-0.0089;
688354863752921;-0.0507;0.0008;-0.0089;
688354868807660;-0.0475;0.0008;-0.0121;
688354873862400;-0.0465;0.0029;-0.0121;
688354878925160;-0.0443;-0.0003;-0.0164;
688354883979952;-0.0379;-0.0013;-0.0185;
688354889034692;-0.0294;-0.0035;-0.0206;
688354894089431;-0.0241;-0.0035;-0.0206;
688354899144223;-0.0156;-0.0024;-0.0206;
688354904199015;-0.0049;-0.0013;-0.0206;
688354909265838;0.0025;-0.0024;-0.0206;
688354914320577;0.0089;-0.0024;-0.0196;
688354919375369;0.0111;-0.0045;-0.0217;
688354924430108;0.0047;-0.0035;-0.0217;
688354929484900;0.0036;-0.0024;-0.0228;
688354934539640;0.0111;-0.0024;-0.0238;
688354939570525;0.0100;-0.0013;-0.0228;
688354944625317;0.0047;-0.0013;-0.0206;
688354949680056;0.0036;-0.0024;-0.0206;
688354954734796;0.0079;-0.0035;-0.0228;
688354959789588;0.0089;-0.0024;-0.0196;
688354964844327;0.0079;-0.0024;-0.0185;
688354969926358;0.0089;-0.0024;-0.0185;
688354974981098;0.0111;-0.0024;-0.0228;
688354980035890;0.0068;-0.0024;-0.0206;
688354985090629;0.0047;-0.0035;-0.0196;
688354990145421;0.0057;-0.0035;-0.0217;
688354995200160;0.0068;-0.0024;-0.0206;
688355000233806;0.0068;-0.0013;-0.0196;
688355005288598;0.0068;-0.0013;-0.0206;
688355010343338;0.0057;-0.0003;-0.0206;
688355015398129;0.0047;-0.0003;-0.0185;
688355020452921;0.0036;-0.0013;-0.0185;
688355025507608;0.0057;-0.0013;-0.0196;
688355030584275;0.0057;-0.0013;-0.0196;
688355035639015;0.0047;-0.0003;-0.0174;
688355040693754;0.0057;-0.0013;-0.0185;
688355045748598;0.0047;-0.0003;-0.0174;
688355050803285;0.0004;-0.0003;-0.0153;
688355055858077;0.0036;-0.0013;-0.0142;
688355060889952;0.0036;-0.0024;-0.0132;
688355065944744;0.0047;-0.0024;-0.0121;
688355070999483;0.0036;-0.0013;-0.0111;
688355076054275;0.0025;-0.0003;-0.0100;
688355081109067;0.0004;-0.0003;-0.0100;
688355086163754;-0.0039;0.0008;-0.0079;
688355091237140;-0.0028;-0.0003;-0.0036;
688355096291931;-0.0017;0.0008;-0.0025;
688355101346671;-0.0007;-0.0003;-0.0025;
688355106401463;-0.0028;0.0019;0.0017;
688355111456254;-0.0017;0.0051;0.0028;
688355116510942;-0.0007;0.0040;0.0028;
688355121561879;-0.0039;0.0040;0.0071;
688355126616671;-0.0060;0.0008;0.0103;
688355131671410;-0.0039;-0.0024;0.0113;
688355136726202;-0.0017;-0.0003;0.0124;
688355141780942;-0.0017;0.0008;0.0134;
688355146835681;0.0004;-0.0003;0.0166;
688355151899796;-0.0007;-0.0024;0.0166;
688355156954692;-0.0007;-0.0024;0.0177;
688355162009640;-0.0007;-0.0045;0.0220;
688355167064535;-0.0017;-0.0013;0.0198;
688355172119483;-0.0039;0.0029;0.0209;
688355177174379;-0.0071;0.0019;0.0220;
688355182205160;-0.0039;-0.0003;0.0230;
688355187260108;-0.0007;-0.0003;0.0230;
688355192315004;-0.0071;0.0008;0.0262;
688355197369952;-0.0071;0.0019;0.0241;
688355202424900;-0.0060;0.0008;0.0262;
688355207479796;-0.0081;0.0019;0.0262;
688355212552400;-0.0081;0.0029;0.0273;
688355217607296;-0.0071;0.0029;0.0284;
688355222662192;-0.0071;-0.0003;0.0294;
688355227717140;-0.0060;0.0008;0.0316;
688355232772088;-0.0049;0.0008;0.0369;
688355237827035;0.0004;-0.0003;0.0369;
688355242870629;0.0079;0.0019;0.0369;
688355247925525;0.0164;0.0008;0.0379;
688355252980473;0.0228;0.0008;0.0422;
688355258035421;0.0302;-0.0003;0.0433;
688355263090317;0.0356;0.0008;0.0433;
688355268145265;0.0345;0.0019;0.0443;
688355273203025;0.0302;0.0040;0.0486;
688355278257921;0.0196;0.0040;0.0497;
688355283312869;0.0004;0.0029;0.0486;
688355288367765;-0.0252;0.0061;0.0475;
688355293422713;-0.0433;0.0104;0.0486;
688355298477660;-0.0198;0.0136;0.0475;
688355303511775;-0.0071;0.0136;0.0507;
688355308566723;-0.0337;0.0168;0.0497;
688355313621619;-0.0561;0.0146;0.0518;
688355318676515;-0.0774;0.0104;0.0550;
688355323731463;-0.1083;0.0083;0.0539;
688355328786410;-0.1338;0.0051;0.0518;
688355333858858;-0.1477;0.0040;0.0507;
688355338913754;-0.1605;0.0019;0.0486;
688355343968702;-0.1711;-0.0013;0.0507;
688355349023598;-0.1786;-0.0035;0.0507;
688355354078546;-0.1743;-0.0035;0.0550;
688355359133494;-0.1658;0.0019;0.0593;
688355364182348;-0.1519;0.0061;0.0624;
688355369237244;-0.1306;0.0093;0.0624;
688355374292192;-0.1083;0.0104;0.0635;
688355379347088;-0.0869;0.0115;0.0646;
688355384402035;-0.0635;0.0115;0.0656;
688355389456931;-0.0390;0.0072;0.0688;
688355394511098;-0.0124;0.0051;0.0710;
688355399565994;0.0100;0.0019;0.0731;
688355404620942;-0.0039;-0.0045;0.0710;
688355409675838;-0.0262;-0.0067;0.0688;
688355414730785;-0.0049;-0.0077;0.0624;
688355419785733;0.0121;-0.0120;0.0603;
688355424850525;0.0068;-0.0109;0.0571;
688355429905421;0.0196;-0.0056;0.0550;
688355434960369;0.0579;-0.0077;0.0507;
688355440015265;0.0791;-0.0003;0.0518;
688355445070213;0.0908;0.0061;0.0475;
688355450125108;0.1164;0.0072;0.0454;
688355455166515;0.1324;0.0061;0.0433;
688355460221410;0.1356;0.0083;0.0390;
688355465276358;0.1366;0.0072;0.0305;
688355470331254;0.1324;0.0029;0.0230;
688355475386202;0.1228;-0.0056;0.0166;
688355480441150;0.1057;-0.0099;0.0103;
688355485512296;0.0866;-0.0130;0.0028;
688355490567192;0.0675;-0.0120;-0.0036;
688355495622140;0.0505;-0.0120;-0.0079;
688355500677035;0.0387;-0.0120;-0.0121;
688355505731983;0.0345;-0.0067;-0.0174;
688355510786931;0.0324;-0.0045;-0.0238;
688355515823858;0.0292;-0.0003;-0.0292;
688355520878754;0.0292;0.0008;-0.0345;
688355525933702;0.0270;0.0019;-0.0356;
688355530988598;0.0249;0.0040;-0.0409;
688355536043546;0.0238;0.0040;-0.0451;
688355541098494;0.0238;-0.0013;-0.0462;
688355546151306;0.0206;-0.0056;-0.0473;
688355551206254;0.0206;-0.0099;-0.0505;
688355556261150;0.0217;-0.0120;-0.0526;
688355561316098;0.0270;-0.0120;-0.0526;
688355566370994;0.0398;-0.0099;-0.0537;
688355571425942;0.0558;-0.0120;-0.0547;
688355576480838;0.0654;-0.0109;-0.0526;
688355581526358;0.0802;-0.0099;-0.0515;
688355586581254;0.0940;-0.0088;-0.0505;
688355591636202;0.1057;-0.0035;-0.0494;
688355596691098;0.1100;0.0008;-0.0462;
688355601746046;0.1121;-0.0045;-0.0473;
688355606800994;0.1164;-0.0045;-0.0483;
688355611875265;0.1111;-0.0035;-0.0483;
688355616930160;0.1036;-0.0056;-0.0462;
688355621985108;0.0951;-0.0088;-0.0473;
688355627040004;0.0876;-0.0077;-0.0483;
688355632094952;0.0802;-0.0099;-0.0483;
688355637149900;0.0728;-0.0099;-0.0473;
688355642202192;0.0622;-0.0088;-0.0451;
688355647257088;0.0611;-0.0088;-0.0430;
688355652312035;0.0590;-0.0056;-0.0441;
688355657366983;0.0569;-0.0045;-0.0451;
688355662421879;0.0569;-0.0045;-0.0441;
688355667476827;0.0526;-0.0013;-0.0430;
688355672526254;0.0473;-0.0013;-0.0419;
688355677581150;0.0398;-0.0003;-0.0419;
688355682636098;0.0228;0.0008;-0.0430;
688355687691046;-0.0007;0.0008;-0.0441;
688355692745942;-0.0145;0.0029;-0.0441;
688355697800890;0.0004;0.0072;-0.0441;
688355702840525;0.0079;0.0072;-0.0419;
688355707895421;-0.0262;0.0093;-0.0419;
688355712950369;-0.0635;0.0115;-0.0387;
688355718005265;-0.0923;0.0072;-0.0387;
688355723060213;-0.1210;0.0040;-0.0409;
688355728115160;-0.1391;0.0019;-0.0387;
688355733185525;-0.1434;-0.0013;-0.0409;
688355738240421;-0.1391;-0.0045;-0.0409;
688355743295369;-0.1264;-0.0088;-0.0387;
688355748350265;-0.1019;-0.0130;-0.0345;
688355753405213;-0.0678;-0.0120;-0.0238;
688355758460160;-0.0294;-0.0088;-0.0164;
688355763509275;0.0185;-0.0035;-0.0089;
688355768564171;0.0526;-0.0013;-0.0025;
688355773619119;0.0313;-0.0077;-0.0015;
688355778674067;0.0100;-0.0045;0.0017;
688355783728963;0.0590;-0.0045;0.0028;
688355788783858;0.0972;-0.0109;0.0028;
688355793838338;0.1036;-0.0056;0.0060;
688355798893233;0.1217;-0.0067;0.0145;
688355803948181;0.1430;-0.0099;0.0209;
688355809003077;0.1483;-0.0067;0.0241;
688355814058025;0.1494;-0.0024;0.0252;
688355819112973;0.1643;-0.0003;0.0262;
688355824177088;0.1750;0.0008;0.0262;
688355829231983;0.1750;0.0008;0.0273;
688355834286931;0.1760;0.0019;0.0220;
688355839341827;0.1782;-0.0013;0.0230;
688355844396775;0.1835;-0.0035;0.0252;
688355849451723;0.1846;-0.0056;0.0262;
688355854491775;0.1899;-0.0045;0.0262;
688355859546671;0.1984;-0.0056;0.0252;
688355864601619;0.2005;-0.0067;0.0273;
688355869656515;0.2027;-0.0045;0.0273;
688355874711463;0.2016;-0.0045;0.0252;
688355879766358;0.2016;-0.0056;0.0230;
688355884822608;0.2005;-0.0067;0.0230;
688355889877504;0.1995;-0.0056;0.0220;
688355894932452;0.1995;-0.0045;0.0209;
688355899987348;0.1931;-0.0035;0.0188;
688355905042296;0.1856;-0.0024;0.0177;
688355910097192;0.1803;-0.0077;0.0145;
688355915150733;0.1718;-0.0109;0.0124;
688355920205629;0.1632;-0.0077;0.0081;
688355925260577;0.1547;-0.0067;0.0049;
688355930315473;0.1462;-0.0045;0.0007;
688355935370421;0.1387;-0.0035;-0.0025;
688355940425369;0.1302;-0.0056;-0.0057;
688355945482817;0.1228;-0.0067;-0.0079;
688355950537713;0.1185;-0.0056;-0.0121;
688355955592660;0.1153;-0.0045;-0.0153;
688355960647556;0.1164;-0.0024;-0.0185;
688355965702504;0.1249;-0.0045;-0.0196;
688355970757452;0.1334;-0.0056;-0.0217;
688355975805838;0.1483;-0.0088;-0.0238;
688355980860733;0.1675;-0.0099;-0.0228;
688355985915681;0.1899;-0.0099;-0.0217;
688355990970577;0.2186;-0.0099;-0.0206;
688355996025525;0.2506;-0.0109;-0.0174;
688356001080473;0.2847;-0.0099;-0.0153;
688356006136098;0.3145;-0.0099;-0.0111;
688356011190994;0.3422;-0.0099;-0.0068;
688356016245942;0.3646;-0.0088;-0.0047;
688356021300838;0.3720;-0.0077;-0.0025;
688356026355785;0.3624;-0.0035;-0.0025;
688356031410681;0.3454;-0.0024;-0.0036;
688356036460942;0.3177;-0.0013;-0.0047;
688356041515838;0.2900;-0.0013;-0.0100;
688356046570785;0.2623;-0.0035;-0.0153;
688356051625681;0.2357;-0.0024;-0.0142;
688356056680629;0.2091;-0.0045;-0.0153;
688356061735577;0.1835;-0.0056;-0.0164;
688356066806567;0.1569;-0.0045;-0.0174;
688356071861463;0.1292;-0.0067;-0.0196;
688356076916410;0.1121;-0.0077;-0.0164;
688356081971358;0.0929;-0.0067;-0.0174;
688356087026254;0.0718;-0.0088;-0.0185;
688356092081202;0.0494;-0.0056;-0.0217;
688356097125213;0.0292;-0.0045;-0.0238;
688356102180108;0.0079;-0.0045;-0.0260;
688356107235056;-0.0081;-0.0045;-0.0249;
688356112289952;-0.0071;-0.0024;-0.0206;
688356117344900;0.0132;0.0008;-0.0217;
688356122399848;0.0132;-0.0013;-0.0174;
688356127452608;-0.0071;0.0008;-0.0142;
688356132507504;-0.0071;0.0019;-0.0121;
688356137562452;0.0047;-0.0003;-0.0111;
688356142617348;0.0015;0.0040;-0.0121;
688356147672296;-0.0103;0.0040;-0.0100;
688356152727244;-0.0124;-0.0003;-0.0111;
688356157781306;-0.0188;-0.0013;-0.0089;
688356162836046;-0.0284;-0.0013;-0.0079;
688356167890785;-0.0358;-0.0035;-0.0079;
688356172945525;-0.0422;-0.0003;-0.0057;
688356178000265;-0.0475;0.0008;-0.0057;
688356183055004;-0.0465;-0.0024;-0.0047;
688356188095890;-0.0465;-0.0013;-0.0015;
688356193150629;-0.0486;0.0029;-0.0004;
688356198205421;-0.0465;0.0061;0.0007;
688356203260108;-0.0433;0.0051;0.0028;
688356208314848;-0.0369;0.0061;0.0028;
688356213369588;-0.0348;0.0051;0.0060;
688356218418754;-0.0284;0.0029;0.0092;
688356223473442;-0.0230;0.0029;0.0103;
688356228528181;-0.0145;0.0029;0.0134;
688356233582921;-0.0039;0.0019;0.0166;
688356238637660;0.0079;-0.0003;0.0166;
688356243692400;0.0036;-0.0013;0.0198;
688356248742608;-0.0060;-0.0035;0.0241;
688356253797296;0.0015;-0.0045;0.0262;
688356258852035;0.0111;-0.0035;0.0273;
688356263906775;0.0185;-0.0045;0.0284;
688356268961515;0.0409;-0.0035;0.0316;
688356274016254;0.0750;-0.0013;0.0348;
688356279073702;0.0983;-0.0003;0.0369;
688356284128442;0.1100;0.0029;0.0411;
688356289183181;0.1196;0.0061;0.0433;
688356294237869;0.1260;0.0093;0.0422;
688356299292660;0.1217;0.0115;0.0411;
688356304347400;0.1111;0.0125;0.0401;
688356309438598;0.0993;0.0125;0.0369;
688356314493285;0.0834;0.0104;0.0337;
688356319548025;0.0643;0.0072;0.0305;
688356324602713;0.0430;0.0029;0.0294;
688356329657504;0.0260;-0.0003;0.0294;
688356334712192;0.0089;0.0008;0.0273;
688356339720369;-0.0007;-0.0003;0.0252;
688356344775108;-0.0092;-0.0003;0.0220;
688356349829848;-0.0145;-0.0013;0.0198;
688356354884588;-0.0039;0.0008;0.0177;
688356359939327;-0.0017;0.0019;0.0177;
688356364994067;-0.0103;0.0029;0.0177;
688356370090577;-0.0103;0.0061;0.0156;
688356375145265;-0.0017;0.0072;0.0156;
688356380200056;-0.0007;0.0061;0.0134;
688356385254744;-0.0060;0.0072;0.0134;
688356390309483;-0.0071;0.0061;0.0145;
688356395364223;-0.0017;0.0040;0.0124;
688356400398285;-0.0017;0.0008;0.0103;
688356405453025;-0.0049;0.0008;0.0134;
688356410507817;0.0004;-0.0003;0.0134;
688356415562504;-0.0017;-0.0035;0.0156;
688356420617244;-0.0028;-0.0035;0.0177;
688356425671983;-0.0017;-0.0013;0.0177;
688356430723338;-0.0007;-0.0003;0.0156;
688356435778025;0.0025;-0.0003;0.0145;
688356440832765;0.0111;0.0029;0.0177;
688356445887504;0.0260;0.0019;0.0156;
688356450942296;0.0377;-0.0003;0.0177;
688356455996983;0.0579;0.0019;0.0220;
688356461063910;0.0823;0.0040;0.0262;
688356466118650;0.1068;0.0019;0.0305;
688356471173390;0.1356;0.0040;0.0369;
688356476228129;0.1707;0.0008;0.0390;
688356481282869;0.2080;-0.0003;0.0443;
688356486337608;0.2421;-0.0013;0.0486;
688356491397713;0.2740;-0.0024;0.0550;
688356496452452;0.3071;-0.0013;0.0603;
688356501507192;0.3411;-0.0024;0.0667;
688356506561931;0.3731;-0.0013;0.0731;
688356511616671;0.4083;0.0008;0.0795;
688356516671410;0.4455;0.0051;0.0869;
688356521714744;0.4818;0.0083;0.0933;
688356526769483;0.5148;0.0083;0.0965;
688356531824223;0.5403;0.0093;0.1061;
688356536878963;0.5435;0.0189;0.1125;
688356541933702;0.5553;0.0093;0.1093;
688356546988442;0.5595;0.0051;0.1146;
688356552062556;0.5414;0.0083;0.1200;
688356557117296;0.5244;0.0083;0.1168;
688356562172035;0.5371;0.0083;0.1178;
688356567226775;0.5467;0.0019;0.1178;
688356572281515;0.5297;0.0019;0.1210;
688356577336254;0.5020;0.0072;0.1221;
688356582392296;0.4743;0.0093;0.1200;
688356587446983;0.4391;0.0104;0.1178;
688356592501723;0.3997;0.0125;0.1125;
688356597556463;0.3774;0.0178;0.1051;
688356602611202;0.3592;0.0178;0.0997;
688356607665942;0.3305;0.0200;0.0933;
688356612711306;0.2996;0.0200;0.0912;
688356617766046;0.2676;0.0168;0.0859;
688356622820838;0.2336;0.0146;0.0816;
688356627875525;0.1963;0.0157;0.0784;
688356632930265;0.1547;0.0146;0.0720;
688356637985004;0.1132;0.0104;0.0656;
688356643023963;0.0750;0.0083;0.0561;
688356648078702;0.0334;0.0072;0.0475;
688356653133442;-0.0007;0.0029;0.0422;
688356658188181;-0.0294;0.0029;0.0379;
688356663242921;-0.0379;0.0029;0.0316;
688356668297660;-0.0092;0.0083;0.0305;
688356673358285;-0.0007;0.0093;0.0316;
688356678413077;-0.0284;0.0157;0.0294;
688356683467765;-0.0316;0.0200;0.0294;
688356688522504;-0.0198;0.0136;0.0262;
688356693577244;-0.0198;0.0125;0.0230;
688356698631983;-0.0241;0.0115;0.0188;
688356703657088;-0.0166;0.0115;0.0177;
688356708711827;-0.0081;0.0072;0.0188;
688356713766515;-0.0071;0.0008;0.0188;
688356718821254;-0.0017;-0.0024;0.0209;
688356723875994;0.0047;-0.0077;0.0209;
688356728930733;0.0004;-0.0045;0.0220;
688356734020994;-0.0017;-0.0024;0.0209;
688356739075785;0.0057;-0.0024;0.0188;
688356744130525;0.0089;-0.0003;0.0188;
688356749185265;0.0228;0.0019;0.0166;
688356754239952;0.0430;0.0008;0.0188;
688356759294692;0.0622;0.0029;0.0166;
688356764346202;0.0802;0.0040;0.0198;
688356769400942;0.1015;0.0072;0.0220;
688356774455681;0.1281;0.0040;0.0220;
688356779510473;0.1547;0.0029;0.0209;
688356784565160;0.1814;0.0008;0.0230;
688356789619900;0.2059;-0.0024;0.0230;
688356794674327;0.2336;-0.0045;0.0230;
688356799729119;0.2623;-0.0067;0.0241;
688356804783806;0.2953;-0.0067;0.0241;
688356809838598;0.3326;-0.0067;0.0252;
688356814893285;0.3742;-0.0056;0.0262;
688356819948025;0.4178;-0.0024;0.0273;
688356824988129;0.4679;-0.0035;0.0326;
688356830042817;0.5158;-0.0035;0.0316;
688356835097556;0.5648;-0.0035;0.0326;
688356840152348;0.6064;-0.0035;0.0358;
688356845207035;0.6362;-0.0045;0.0369;
688356850261775;0.6469;-0.0045;0.0337;
688356855335473;0.6522;-0.0056;0.0316;
688356860390213;0.6756;-0.0067;0.0316;
688356865444952;0.6989;-0.0077;0.0273;
688356870499692;0.7043;-0.0035;0.0230;
688356875554431;0.6872;0.0008;0.0241;
688356880609171;0.6511;0.0008;0.0188;
688356885656619;0.6106;-0.0003;0.0113;
688356890711410;0.5776;-0.0013;0.0071;
688356895766098;0.5627;-0.0045;0.0049;
688356900820890;0.5382;-0.0077;0.0007;
688356905875577;0.4977;-0.0077;-0.0047;
688356910930317;0.4487;-0.0120;-0.0089;
688356915981723;0.3859;-0.0173;-0.0132;
688356921036463;0.3198;-0.0162;-0.0196;
688356926091202;0.2527;-0.0162;-0.0270;
688356931145942;0.1952;-0.0173;-0.0334;
688356936200681;0.1419;-0.0173;-0.0419;
688356941255421;0.0929;-0.0162;-0.0505;
688356946320629;0.0441;-0.0152;-0.0547;
688356951366879;-0.0039;-0.0162;-0.0579;
688356956421567;-0.0316;-0.0109;-0.0579;
688356961476254;-0.0113;-0.0056;-0.0569;
688356966530994;0.0111;-0.0088;-0.0558;
688356971585681;-0.0262;-0.0045;-0.0569;
688356976640421;-0.0539;0.0008;-0.0537;
688356981695160;-0.0593;-0.0077;-0.0547;
688356986757765;-0.0699;-0.0088;-0.0547;
688356991812504;-0.0827;-0.0099;-0.0547;
688356996867244;-0.0880;-0.0130;-0.0558;
688357001921983;-0.0869;-0.0130;-0.0505;
688357006976723;-0.0923;-0.0152;-0.0473;
688357012031463;-0.0891;-0.0141;-0.0441;
688357017083285;-0.0774;-0.0109;-0.0366;
688357022138025;-0.0635;-0.0067;-0.0281;
688357027192765;-0.0486;-0.0024;-0.0238;
688357032247504;-0.0305;0.0008;-0.0206;
688357037302244;-0.0103;0.0051;-0.0164;
688357042356983;0.0047;0.0061;-0.0111;
688357047411150;0.0089;0.0061;-0.0057;
688357052465890;-0.0049;0.0051;-0.0015;
688357057520629;-0.0134;0.0029;0.0039;
688357062575317;0.0015;0.0008;0.0081;
688357067630056;0.0036;-0.0024;0.0124;
688357072684796;-0.0103;-0.0003;0.0166;
688357077740785;-0.0124;0.0019;0.0209;
688357082795525;-0.0049;0.0008;0.0262;
688357087850265;-0.0081;-0.0003;0.0316;
688357092905004;-0.0113;0.0029;0.0358;
688357097959744;-0.0124;0.0051;0.0390;
688357103014483;-0.0060;0.0093;0.0411;
688357108053129;0.0015;0.0115;0.0465;
688357113107921;0.0100;0.0146;0.0507;
688357118162660;0.0185;0.0136;0.0539;
688357123217348;0.0281;0.0115;0.0582;
688357128272088;0.0334;0.0125;0.0635;
688357133326827;0.0366;0.0115;0.0688;
688357138379275;0.0409;0.0146;0.0742;
688357143433963;0.0462;0.0178;0.0774;
688357148488754;0.0526;0.0178;0.0806;
688357153543442;0.0601;0.0146;0.0859;
688357158598181;0.0643;0.0146;0.0880;
688357163652921;0.0643;0.0146;0.0901;
688357168733754;0.0654;0.0178;0.0933;
688357173788442;0.0622;0.0221;0.0923;
688357178843181;0.0579;0.0232;0.0901;
688357183897973;0.0505;0.0253;0.0891;
688357188952660;0.0345;0.0264;0.0880;
688357194007400;0.0153;0.0264;0.0869;
688357199065577;-0.0007;0.0285;0.0838;
688357204120317;-0.0166;0.0274;0.0816;
688357209175056;-0.0284;0.0253;0.0816;
688357214229744;-0.0348;0.0242;0.0795;
688357219284535;-0.0252;0.0221;0.0784;
688357224339275;-0.0134;0.0200;0.0774;
688357229382608;-0.0252;0.0189;0.0774;
688357234437348;-0.0294;0.0200;0.0763;
688357239492088;-0.0145;0.0178;0.0752;
688357244546827;-0.0103;0.0178;0.0731;
688357249601567;-0.0220;0.0200;0.0699;
688357254656254;-0.0198;0.0221;0.0699;
688357259702556;-0.0103;0.0221;0.0656;
688357264757296;-0.0113;0.0221;0.0635;
688357269812035;-0.0198;0.0221;0.0624;
688357274866723;-0.0145;0.0210;0.0624;
688357279921515;-0.0145;0.0200;0.0603;
688357284976202;-0.0166;0.0200;0.0561;
688357290031463;-0.0177;0.0168;0.0550;
688357295086202;-0.0134;0.0146;0.0561;
688357300140942;-0.0145;0.0136;0.0539;
688357305195681;-0.0145;0.0146;0.0518;
688357310250421;-0.0113;0.0157;0.0475;
688357315305160;-0.0103;0.0157;0.0486;
688357320359535;-0.0092;0.0146;0.0465;
688357325414275;-0.0081;0.0125;0.0465;
688357330469015;-0.0113;0.0125;0.0454;
688357335523754;-0.0092;0.0146;0.0411;
688357340578494;-0.0092;0.0146;0.0390;
688357345633233;-0.0103;0.0146;0.0401;
688357350699796;-0.0081;0.0125;0.0401;
688357355754535;-0.0103;0.0104;0.0411;
688357360809275;-0.0124;0.0104;0.0390;
688357365864015;-0.0103;0.0136;0.0390;
688357370918754;-0.0092;0.0125;0.0390;
688357375973494;-0.0092;0.0146;0.0411;
688357381012348;-0.0092;0.0146;0.0379;
688357386067088;-0.0103;0.0136;0.0337;
688357391121827;-0.0081;0.0146;0.0337;
688357396176567;-0.0081;0.0146;0.0348;
688357401231306;-0.0103;0.0115;0.0337;
688357406286046;-0.0113;0.0125;0.0337;
688357411354848;-0.0113;0.0115;0.0326;
688357416409588;-0.0156;0.0104;0.0326;
688357421464327;-0.0166;0.0083;0.0358;
688357426519067;-0.0177;0.0093;0.0337;
688357431573806;-0.0209;0.0083;0.0326;
688357436628546;-0.0166;0.0093;0.0358;
688357441678494;-0.0124;0.0104;0.0326;
688357446733233;-0.0113;0.0115;0.0316;
688357451787973;-0.0092;0.0093;0.0316;
688357456842713;-0.0103;0.0093;0.0294;
688357461897452;-0.0081;0.0093;0.0305;
688357466952192;-0.0060;0.0104;0.0305;
688357472015056;-0.0071;0.0061;0.0294;
688357477069796;-0.0103;0.0083;0.0294;
688357482124535;-0.0113;0.0104;0.0241;
688357487179275;-0.0081;0.0083;0.0220;
688357492234015;-0.0071;0.0083;0.0230;
688357497288754;-0.0092;0.0093;0.0241;
688357502379848;-0.0081;0.0072;0.0230;
688357507434535;-0.0071;0.0083;0.0230;
688357512489275;-0.0071;0.0072;0.0198;
688357517544015;-0.0060;0.0083;0.0198;
688357522598754;-0.0049;0.0072;0.0188;
688357527653494;-0.0060;0.0029;0.0177;
688357532667765;-0.0081;0.0040;0.0166;
688357537722504;-0.0060;0.0040;0.0145;
688357542777244;-0.0060;0.0040;0.0145;
688357547832035;-0.0081;0.0029;0.0113;
688357552886723;-0.0071;0.0029;0.0113;
688357557941463;-0.0039;0.0008;0.0092;
688357563008077;-0.0060;0.0019;0.0103;
688357568062817;-0.0060;0.0029;0.0081;
688357573117556;-0.0049;0.0008;0.0081;
688357578172348;-0.0071;0.0051;0.0039;
688357583227035;-0.0049;0.0061;0.0017;
688357588281775;-0.0017;0.0019;0.0007;
688357593325577;-0.0049;0.0019;-0.0015;
688357598380317;-0.0071;0.0008;-0.0025;
688357603435056;-0.0017;-0.0003;-0.0015;
688357608489796;0.0015;0.0008;-0.0004;
688357613544535;-0.0039;-0.0003;-0.0025;
688357618599275;-0.0028;-0.0013;-0.0068;
688357623633442;0.0004;-0.0035;-0.0079;
688357628688181;-0.0017;-0.0056;-0.0068;
688357633742869;-0.0007;-0.0067;-0.0079;
688357638797608;0.0015;-0.0035;-0.0079;
688357643852348;0.0036;-0.0045;-0.0089;
688357648907088;0.0025;-0.0013;-0.0111;
688357653977973;-0.0007;-0.0003;-0.0100;
688357659032765;-0.0007;-0.0024;-0.0111;
688357664087504;0.0015;-0.0013;-0.0142;
688357669142192;-0.0028;-0.0013;-0.0121;
688357674196931;-0.0028;-0.0013;-0.0153;
688357679251671;0.0004;-0.0013;-0.0142;
688357684313390;0.0025;-0.0035;-0.0153;
688357689368181;-0.0007;-0.0035;-0.0174;
688357694422869;0.0015;-0.0067;-0.0153;
688357699477608;0.0015;-0.0056;-0.0142;
688357704532348;0.0004;-0.0067;-0.0164;
688357709587088;0.0015;-0.0045;-0.0174;
688357714640577;0.0025;-0.0067;-0.0174;
688357719695369;0.0025;-0.0067;-0.0174;
688357724750056;0.0025;-0.0077;-0.0185;
688357729804796;0.0047;-0.0067;-0.0174;
688357734859535;0.0015;-0.0067;-0.0164;
688357739914275;0.0015;-0.0056;-0.0196;
688357744950838;0.0025;-0.0045;-0.0196;
688357750005525;0.0036;-0.0056;-0.0196;
688357755060265;0.0036;-0.0056;-0.0185;
688357760115056;0.0025;-0.0045;-0.0174;
688357765169744;0.0025;-0.0045;-0.0174;
688357770224483;0.0036;-0.0045;-0.0185;
688357775290994;0.0047;-0.0045;-0.0174;
688357780345785;0.0015;-0.0045;-0.0185;
688357785400473;-0.0017;-0.0035;-0.0174;
688357790455213;0.0025;-0.0035;-0.0164;
688357795509952;0.0025;-0.0045;-0.0153;
688357800564692;0.0025;-0.0067;-0.0132;
688357805627869;0.0015;-0.0056;-0.0111;
688357810682660;0.0025;-0.0077;-0.0132;
688357815737348;0.0025;-0.0088;-0.0132;
688357820792088;0.0004;-0.0088;-0.0100;
688357825846827;0.0025;-0.0056;-0.0100;
688357830901567;0.0057;-0.0045;-0.0111;
688357835956723;0.0025;-0.0045;-0.0100;
688357841011463;0.0015;-0.0035;-0.0079;
688357846066254;0.0004;-0.0003;-0.0079;
688357851120942;-0.0028;0.0008;-0.0057;
688357856175681;-0.0007;-0.0003;-0.0068;
688357861230421;-0.0017;0.0008;-0.0068;
688357866276410;-0.0017;-0.0003;-0.0036;
688357871331150;-0.0017;-0.0013;-0.0015;
688357876385890;-0.0007;-0.0003;-0.0025;
688357881440629;-0.0007;0.0008;-0.0036;
688357886495369;0.0015;-0.0024;-0.0025;
688357891550108;-0.0017;-0.0024;-0.0025;
688357896610056;-0.0007;-0.0013;-0.0025;
688357901664796;0.0015;-0.0013;-0.0036;
688357906719535;-0.0007;-0.0013;-0.0015;
688357911774275;-0.0017;0.0008;0.0007;
688357916829015;-0.0007;0.0019;0.0017;
688357921883754;-0.0028;0.0019;0.0007;
688357926935785;0.0015;-0.0003;-0.0015;
688357931990525;0.0015;-0.0003;0.0007;
688357937045265;-0.0017;-0.0003;0.0017;
688357942100004;-0.0017;-0.0003;0.0007;
688357947154744;0.0015;-0.0013;0.0007;
688357952209483;-0.0007;-0.0013;0.0017;
688357957258910;-0.0007;-0.0024;-0.0004;
688357962313650;-0.0007;0.0008;-0.0015;
688357967368390;-0.0007;0.0019;-0.0015;
688357972423129;-0.0039;0.0008;-0.0004;
688357977477869;-0.0017;-0.0003;-0.0004;
688357982532608;0.0004;-0.0003;-0.0015;
688357987587973;0.0025;0.0029;-0.0004;
688357992642713;-0.0007;0.0029;-0.0004;
688357997697452;-0.0028;0.0019;-0.0036;
688358002752192;-0.0017;0.0029;-0.0025;
688358007806931;-0.0007;0.0019;-0.0004;
688358012861671;-0.0017;-0.0003;-0.0015;
688358017907869;-0.0017;-0.0003;-0.0025;
688358022962660;-0.0017;-0.0024;-0.0015;
688358028017348;-0.0028;-0.0003;-0.0047;
688358033072088;-0.0060;0.0019;-0.0025;
688358038126879;-0.0166;0.0008;-0.0015;
688358043181567;-0.0252;0.0029;-0.0004;
688358048236983;-0.0252;0.0019;-0.0025;
688358053291671;-0.0273;0.0029;-0.0025;
688358058346410;-0.0262;0.0029;-0.0004;
688358063401150;-0.0252;0.0029;-0.0004;
688358068455942;-0.0209;0.0019;0.0007;
688358073510629;-0.0177;0.0008;0.0039;
688358078555838;-0.0166;0.0019;0.0071;
688358083610525;-0.0092;0.0008;0.0081;
688358088665317;-0.0049;0.0029;0.0092;
688358093720004;0.0004;0.0008;0.0124;
688358098774744;-0.0017;0.0019;0.0124;
688358103829535;-0.0060;0.0029;0.0124;
688358108906567;-0.0049;0.0040;0.0134;
688358113961254;0.0004;0.0040;0.0156;
688358119015994;-0.0049;0.0040;0.0177;
688358124070733;-0.0081;0.0061;0.0198;
688358129125473;-0.0028;0.0061;0.0209;
688358134180213;-0.0028;0.0029;0.0220;
688358139233546;-0.0103;0.0051;0.0252;
688358144288285;-0.0081;0.0072;0.0262;
688358149343025;-0.0049;0.0051;0.0284;
688358154397713;-0.0049;0.0040;0.0284;
688358159452504;-0.0113;0.0040;0.0273;
688358164507192;-0.0081;0.0040;0.0262;
688358169538858;-0.0060;0.0051;0.0294;
688358174593546;-0.0071;0.0061;0.0294;
688358179648338;-0.0060;0.0051;0.0305;
688358184703077;-0.0039;0.0072;0.0284;
688358189757765;-0.0049;0.0061;0.0284;
688358194812504;-0.0039;0.0051;0.0284;
688358199896879;-0.0060;0.0061;0.0273;
688358204951567;-0.0071;0.0061;0.0284;
688358210006306;-0.0017;0.0061;0.0273;
688358215061046;-0.0039;0.0072;0.0262;
688358220115838;-0.0049;0.0072;0.0252;
688358225170577;-0.0071;0.0061;0.0198;
688358230232088;-0.0071;0.0040;0.0177;
688358235286775;-0.0049;0.0051;0.0166;
688358240341567;-0.0060;0.0040;0.0166;
688358245396306;-0.0049;0.0029;0.0156;
688358250451046;-0.0039;0.0019;0.0092;
688358255505733;-0.0028;0.0019;0.0092;
688358260531515;-0.0007;0.0019;0.0071;
688358265586202;-0.0028;-0.0003;0.0039;
688358270640942;-0.0049;-0.0003;0.0028;
688358275695681;-0.0007;-0.0003;-0.0025;
688358280750421;0.0004;-0.0013;-0.0047;
688358285805160;-0.0007;-0.0013;-0.0047;
688358290885004;0.0015;-0.0024;-0.0079;
688358295939692;0.0047;-0.0013;-0.0100;
688358300994431;0.0047;-0.0035;-0.0121;
688358306049171;0.0036;-0.0035;-0.0153;
688358311103963;0.0089;-0.0056;-0.0164;
688358316158650;0.0079;-0.0077;-0.0206;
688358321200160;0.0025;-0.0099;-0.0206;
688358326254900;0.0068;-0.0077;-0.0238;
688358331309640;0.0089;-0.0099;-0.0249;
688358336364379;0.0068;-0.0088;-0.0260;
688358341419119;0.0068;-0.0077;-0.0292;
688358346473858;0.0079;-0.0077;-0.0302;
688358351514848;0.0079;-0.0099;-0.0302;
688358356569588;0.0089;-0.0077;-0.0334;
688358361624327;0.0089;-0.0067;-0.0356;
688358366679067;0.0089;-0.0099;-0.0366;
688358371733806;0.0079;-0.0109;-0.0398;
688358376788598;0.0111;-0.0120;-0.0387;
688358381850994;0.0089;-0.0099;-0.0398;
688358386905733;0.0100;-0.0109;-0.0409;
688358391960473;0.0100;-0.0130;-0.0430;
688358397015213;0.0089;-0.0130;-0.0409;
688358402069952;0.0089;-0.0120;-0.0398;
688358407124692;0.0089;-0.0109;-0.0409;
688358412197244;0.0079;-0.0099;-0.0419;
688358417251983;0.0068;-0.0120;-0.0419;
688358422306775;0.0089;-0.0109;-0.0441;
688358427361463;0.0036;-0.0099;-0.0451;
688358432416202;-0.0007;-0.0088;-0.0451;
688358437470942;-0.0049;-0.0120;-0.0430;
688358442517452;-0.0039;-0.0109;-0.0430;
688358447572192;-0.0071;-0.0109;-0.0441;
688358452626931;-0.0103;-0.0120;-0.0441;
688358457681671;-0.0124;-0.0130;-0.0441;
688358462736410;-0.0124;-0.0109;-0.0419;
688358467791150;-0.0156;-0.0109;-0.0430;
688358472849015;-0.0145;-0.0109;-0.0430;
688358477903754;-0.0134;-0.0120;-0.0441;
688358482958494;-0.0156;-0.0120;-0.0430;
688358488013233;-0.0145;-0.0109;-0.0430;
688358493067973;-0.0081;-0.0109;-0.0430;
688358498122765;0.0004;-0.0120;-0.0419;
688358503168077;0.0057;-0.0088;-0.0398;
688358508222765;0.0132;-0.0088;-0.0398;
688358513277504;0.0185;-0.0099;-0.0398;
688358518332296;0.0100;-0.0141;-0.0398;
688358523386983;0.0079;-0.0141;-0.0419;
688358528441775;0.0153;-0.0152;-0.0398;
688358533499431;0.0174;-0.0162;-0.0419;
688358538554171;0.0079;-0.0162;-0.0430;
688358543608963;0.0100;-0.0162;-0.0441;
688358548663702;0.0174;-0.0184;-0.0451;
688358553718390;0.0185;-0.0194;-0.0462;
688358558773129;0.0153;-0.0173;-0.0462;
688358563833129;0.0142;-0.0152;-0.0483;
688358568887869;0.0174;-0.0141;-0.0515;
688358573942608;0.0217;-0.0152;-0.0537;
688358578997348;0.0217;-0.0152;-0.0526;
688358584052140;0.0206;-0.0120;-0.0537;
688358589106827;0.0174;-0.0141;-0.0547;
688358594160369;0.0121;-0.0141;-0.0558;
688358599215160;0.0121;-0.0120;-0.0569;
688358604269848;0.0142;-0.0120;-0.0579;
688358609324640;0.0153;-0.0130;-0.0569;
688358614379327;0.0100;-0.0152;-0.0558;
688358619434067;0.0111;-0.0184;-0.0547;
688358624491775;0.0164;-0.0173;-0.0558;
688358629546515;0.0174;-0.0162;-0.0547;
688358634601202;0.0132;-0.0152;-0.0537;
688358639655994;0.0132;-0.0152;-0.0526;
688358644710733;0.0142;-0.0141;-0.0537;
688358649765421;0.0132;-0.0130;-0.0547;
688358654810213;0.0132;-0.0141;-0.0515;
688358659864952;0.0121;-0.0141;-0.0494;
688358664919692;0.0121;-0.0120;-0.0473;
688358669974483;0.0121;-0.0088;-0.0483;
688358675029171;0.0132;-0.0109;-0.0473;
688358680083910;0.0089;-0.0109;-0.0462;
688358685140577;0.0111;-0.0077;-0.0462;
688358690195369;0.0079;-0.0099;-0.0419;
688358695250056;0.0068;-0.0099;-0.0409;
688358700304796;0.0057;-0.0088;-0.0409;
688358705359535;0.0057;-0.0099;-0.0377;
688358710414275;0.0079;-0.0109;-0.0366;
688358715467348;0.0068;-0.0088;-0.0334;
688358720522140;0.0025;-0.0088;-0.0324;
688358725576827;-0.0039;-0.0099;-0.0313;
688358730631567;-0.0049;-0.0067;-0.0281;
688358735686306;-0.0103;-0.0067;-0.0270;
688358740741046;-0.0145;-0.0067;-0.0238;
688358745801463;-0.0188;-0.0045;-0.0206;
688358750856254;-0.0220;-0.0056;-0.0185;
688358755910942;-0.0252;-0.0056;-0.0153;
688358760965681;-0.0241;-0.0077;-0.0111;
688358766020421;-0.0230;-0.0067;-0.0068;
688358771075160;-0.0198;-0.0067;-0.0025;
688358776130890;-0.0124;-0.0067;0.0017;
688358781185629;-0.0028;-0.0077;0.0028;
688358786240369;0.0047;-0.0077;0.0071;
688358791295108;0.0036;-0.0077;0.0145;
688358796349848;-0.0049;-0.0035;0.0177;
688358801404588;-0.0071;-0.0003;0.0166;
688358806452244;0.0004;-0.0003;0.0188;
688358811506983;-0.0017;0.0040;0.0252;
688358816561723;-0.0071;0.0051;0.0294;
688358821616515;-0.0060;0.0051;0.0316;
688358826671202;-0.0028;0.0072;0.0316;
688358831725942;-0.0071;0.0072;0.0337;
688358836787035;-0.0081;0.0061;0.0337;
688358841841775;-0.0092;0.0072;0.0379;
688358846896567;-0.0092;0.0061;0.0369;
688358851951254;-0.0092;0.0093;0.0379;
688358857005994;-0.0103;0.0083;0.0390;
688358862060733;-0.0071;0.0115;0.0379;
688358867116879;-0.0092;0.0125;0.0390;
688358872171619;-0.0103;0.0115;0.0390;
688358877226358;-0.0124;0.0125;0.0390;
688358882281098;-0.0103;0.0136;0.0379;
688358887335838;-0.0071;0.0146;0.0401;
688358892390577;-0.0103;0.0136;0.0411;
688358897439431;-0.0134;0.0136;0.0422;
688358902494223;-0.0113;0.0136;0.0433;
688358907548910;-0.0124;0.0136;0.0433;
688358912603650;-0.0166;0.0146;0.0433;
688358917658390;-0.0220;0.0125;0.0411;
688358922713129;-0.0273;0.0136;0.0411;
688358927766410;-0.0369;0.0146;0.0401;
688358932821150;-0.0465;0.0157;0.0390;
688358937875890;-0.0539;0.0136;0.0369;
688358942930681;-0.0603;0.0146;0.0369;
688358947985369;-0.0678;0.0146;0.0358;
688358953040108;-0.0752;0.0189;0.0337;
688358958081254;-0.0806;0.0146;0.0358;
688358963135890;-0.0827;0.0157;0.0358;
688358968190629;-0.0891;0.0178;0.0358;
688358973245265;-0.0901;0.0157;0.0348;
688358978299952;-0.0933;0.0146;0.0326;
688358983354640;-0.0933;0.0136;0.0326;
688358988411150;-0.0987;0.0146;0.0305;
688358993465785;-0.1029;0.0125;0.0294;
688358998520473;-0.1040;0.0125;0.0284;
688359003575160;-0.1051;0.0125;0.0262;
688359008629796;-0.1072;0.0125;0.0273;
688359013684483;-0.1061;0.0125;0.0273;
688359018778025;-0.1051;0.0125;0.0262;
688359023832713;-0.1061;0.0136;0.0252;
688359028887348;-0.1051;0.0146;0.0220;
688359033942035;-0.1051;0.0115;0.0220;
688359038996671;-0.1040;0.0104;0.0209;
688359044051358;-0.1040;0.0093;0.0177;
688359049062817;-0.1061;0.0093;0.0166;
688359054117452;-0.1083;0.0083;0.0156;
688359059172140;-0.1136;0.0061;0.0124;
688359064226827;-0.1178;0.0051;0.0092;
688359069281515;-0.1221;0.0061;0.0071;
688359074336150;-0.1253;0.0051;0.0039;
688359079425160;-0.1338;0.0061;-0.0004;
688359084479744;-0.1455;0.0061;-0.0025;
688359089534483;-0.1594;0.0029;-0.0079;
688359094589119;-0.1786;0.0051;-0.0111;
688359099643806;-0.1988;0.0040;-0.0153;
688359104698494;-0.2297;0.0008;-0.0217;
688359109719640;-0.2670;0.0019;-0.0260;
688359114774327;-0.3064;0.0008;-0.0345;
688359119829067;-0.3490;-0.0024;-0.0430;
688359124883702;-0.3916;-0.0045;-0.0515;
688359129938390;-0.4342;-0.0056;-0.0590;
688359134993025;-0.4694;-0.0056;-0.0664;
688359140075108;-0.4992;-0.0056;-0.0728;
688359145129744;-0.5248;-0.0077;-0.0760;
688359150184431;-0.5566;-0.0067;-0.0846;
688359155239119;-0.6013;-0.0077;-0.0909;
688359160293754;-0.6546;-0.0088;-0.0963;
688359165348442;-0.7078;-0.0088;-0.1037;
688359170381671;-0.7505;-0.0067;-0.1122;
688359175436306;-0.7739;-0.0088;-0.1186;
688359180491046;-0.7877;-0.0088;-0.1261;
688359185545681;-0.8122;-0.0109;-0.1336;
688359190600317;-0.8623;-0.0109;-0.1410;
688359195655004;-0.9188;-0.0109;-0.1431;
688359200737608;-0.9529;-0.0088;-0.1453;
688359205792244;-0.9646;-0.0099;-0.1538;
688359210846931;-0.9848;-0.0130;-0.1581;
688359215901619;-1.0381;-0.0120;-0.1623;
688359220956254;-1.0924;-0.0120;-0.1687;
688359226010942;-1.1009;-0.0099;-0.1740;
688359231062192;-1.0945;-0.0088;-0.1794;
688359236116827;-1.1265;-0.0120;-0.1836;
688359241171515;-1.1636;-0.0056;-0.1858;
688359246226254;-1.1466;-0.0045;-0.1868;
688359251280838;-1.1180;-0.0045;-0.1868;
688359256335577;-1.1361;-0.0067;-0.1879;
688359261376827;-1.1530;-0.0024;-0.1879;
688359266431515;-1.1062;0.0019;-0.1868;
688359271486202;-1.0540;-0.0003;-0.1836;
688359276540890;-1.0551;-0.0024;-0.1836;
688359281595525;-1.0519;0.0029;-0.1858;
688359286650213;-0.9944;0.0029;-0.1836;
688359291708702;-0.9422;-0.0013;-0.1815;
688359296763390;-0.9305;0.0008;-0.1783;
688359301818077;-0.9113;0.0019;-0.1740;
688359306872765;-0.8485;0.0019;-0.1708;
688359311927452;-0.7718;0.0019;-0.1676;
688359316982088;-0.7132;0.0040;-0.1634;
688359322046202;-0.6674;0.0019;-0.1591;
688359327100890;-0.6248;0.0008;-0.1549;
688359332155577;-0.5768;-0.0013;-0.1538;
688359337210265;-0.5162;-0.0003;-0.1463;
688359342264952;-0.4481;0.0019;-0.1410;
688359347319588;-0.3873;-0.0003;-0.1336;
688359352376619;-0.3405;-0.0003;-0.1282;
688359357431306;-0.2979;-0.0035;-0.1240;
688359362485994;-0.2648;-0.0045;-0.1165;
688359367540681;-0.2371;-0.0035;-0.1133;
688359372595317;-0.2105;-0.0024;-0.1112;
688359377650004;-0.1850;0.0008;-0.1080;
688359382673077;-0.1647;-0.0013;-0.1037;
688359387727765;-0.1477;-0.0013;-0.1027;
688359392782400;-0.1317;-0.0035;-0.1005;
688359397837088;-0.1178;-0.0045;-0.0973;
688359402891775;-0.1061;-0.0024;-0.0931;
688359407946463;-0.0997;0.0008;-0.0899;
688359413026723;-0.0997;0.0019;-0.0867;
688359418081463;-0.1040;0.0019;-0.0835;
688359423136098;-0.1125;0.0008;-0.0814;
688359428190785;-0.1274;-0.0003;-0.0814;
688359433245421;-0.1445;0.0008;-0.0814;
688359438300160;-0.1722;0.0029;-0.0814;
688359443346410;-0.1988;0.0040;-0.0835;
688359448401150;-0.2329;0.0040;-0.0835;
688359453455785;-0.2648;0.0029;-0.0846;
688359458510473;-0.3000;0.0008;-0.0856;
688359463565160;-0.3373;0.0019;-0.0856;
688359468619796;-0.3820;0.0008;-0.0856;
688359473685056;-0.4225;-0.0013;-0.0888;
688359478739744;-0.4598;0.0029;-0.0899;
688359483794431;-0.5003;0.0029;-0.0899;
688359488849119;-0.5322;0.0029;-0.0909;
688359493903754;-0.5545;0.0061;-0.0931;
688359498958442;-0.5715;0.0072;-0.0909;
688359504019588;-0.5832;0.0093;-0.0899;
688359509074275;-0.6067;0.0125;-0.0909;
688359514128910;-0.6461;0.0146;-0.0920;
688359519183598;-0.6972;0.0115;-0.0920;
688359524238233;-0.7473;0.0146;-0.0941;
688359529292973;-0.7760;0.0178;-0.0973;
688359534334535;-0.7760;0.0189;-0.0995;
688359539389275;-0.7664;0.0168;-0.0984;
688359544443963;-0.7728;0.0136;-0.0973;
688359549498598;-0.8005;0.0115;-0.0941;
688359554553233;-0.8218;0.0115;-0.0877;
688359559607973;-0.8218;0.0136;-0.0856;
688359564661931;-0.7973;0.0168;-0.0835;
688359569716671;-0.7707;0.0178;-0.0782;
688359574771306;-0.7568;0.0168;-0.0782;
688359579825994;-0.7494;0.0157;-0.0760;
688359584880629;-0.7366;0.0157;-0.0728;
688359589935369;-0.7025;0.0168;-0.0675;
688359594995994;-0.6525;0.0157;-0.0632;
688359600050681;-0.6088;0.0157;-0.0569;
688359605105369;-0.5779;0.0157;-0.0515;
688359610160056;-0.5587;0.0115;-0.0473;
688359615214692;-0.5385;0.0072;-0.0409;
688359620269431;-0.5173;0.0061;-0.0377;
688359625327660;-0.4832;0.0104;-0.0345;
688359630382348;-0.4363;0.0104;-0.0334;
688359635437035;-0.3884;0.0115;-0.0270;
688359640491723;-0.3437;0.0061;-0.0238;
688359645546410;-0.3138;0.0072;-0.0174;
688359650601046;-0.2872;0.0061;-0.0079;
688359655644223;-0.2627;0.0051;-0.0025;
688359660698963;-0.2414;0.0072;0.0007;
688359665753598;-0.2201;0.0072;0.0028;
688359670808285;-0.2020;0.0061;0.0039;
688359675862921;-0.1881;0.0051;0.0049;
688359680917660;-0.1764;0.0019;0.0049;
688359685977660;-0.1668;-0.0013;0.0081;
688359691032348;-0.1562;-0.0035;0.0124;
688359696087035;-0.1487;-0.0024;0.0156;
688359701141723;-0.1360;0.0040;0.0198;
688359706196358;-0.1242;0.0051;0.0252;
688359711251046;-0.1168;0.0029;0.0284;
688359716308077;-0.1061;0.0029;0.0284;
688359721362765;-0.0944;-0.0003;0.0305;
688359726417452;-0.0806;-0.0003;0.0348;
688359731472140;-0.0667;0.0019;0.0379;
688359736526775;-0.0571;0.0029;0.0379;
688359741581463;-0.0486;0.0029;0.0379;
688359746644119;-0.0411;-0.0003;0.0401;
688359751698806;-0.0348;-0.0045;0.0411;
688359756753494;-0.0316;-0.0056;0.0443;
688359761808181;-0.0209;-0.0067;0.0465;
688359766862817;-0.0092;-0.0045;0.0465;
688359771917504;-0.0017;-0.0056;0.0486;
688359776949744;0.0004;-0.0035;0.0518;
688359782004431;-0.0017;-0.0056;0.0518;
688359787059119;-0.0039;-0.0056;0.0486;
688359792113806;-0.0017;-0.0035;0.0497;
688359797168494;-0.0007;-0.0056;0.0507;
688359802223129;-0.0039;-0.0035;0.0507;
688359807303702;-0.0060;-0.0003;0.0507;
688359812358390;-0.0049;-0.0024;0.0497;
688359817413077;-0.0039;-0.0045;0.0497;
688359822467765;-0.0049;-0.0024;0.0497;
688359827522400;-0.0049;-0.0035;0.0475;
688359832577088;-0.0028;-0.0056;0.0465;
688359837621046;-0.0028;-0.0045;0.0475;
688359842675733;-0.0007;-0.0045;0.0475;
688359847730421;-0.0017;-0.0045;0.0433;
688359852785108;-0.0017;-0.0045;0.0401;
688359857839796;-0.0039;-0.0067;0.0411;
688359862894483;-0.0039;-0.0045;0.0411;
688359867936515;-0.0028;-0.0013;0.0390;
688359872991202;-0.0007;-0.0035;0.0379;
688359878045942;0.0004;-0.0024;0.0369;
688359883100577;-0.0007;-0.0013;0.0358;
688359888155265;0.0015;0.0008;0.0348;
688359893209900;0.0015;0.0008;0.0316;
688359898264119;0.0025;-0.0003;0.0305;
688359903318858;-0.0007;-0.0024;0.0294;
688359908373494;-0.0007;-0.0013;0.0294;
688359913428181;0.0004;-0.0013;0.0252;
688359918482817;0.0057;-0.0024;0.0252;
688359923537504;0.0015;-0.0013;0.0230;
688359928588129;0.0015;-0.0013;0.0198;
688359933642765;0.0057;-0.0035;0.0188;
688359938697452;0.0025;-0.0013;0.0177;
688359943752140;0.0025;-0.0003;0.0166;
688359948806827;0.0047;0.0008;0.0134;
688359953861463;0.0036;0.0008;0.0134;
688359958936619;0.0025;0.0019;0.0124;
688359963991410;0.0036;0.0008;0.0113;
688359969046254;0.0025;0.0008;0.0081;
688359974100994;0.0047;-0.0003;0.0049;
688359979155785;0.0068;0.0019;0.0028;
688359984210577;0.0079;0.0019;0.0017;
688359989268390;0.0057;0.0019;0.0007;
688359994323181;0.0079;0.0019;-0.0025;
688359999378025;0.0079;0.0029;-0.0047;
688360004432765;0.0068;0.0008;-0.0068;
688360009487556;0.0079;0.0008;-0.0089;
688360014542348;0.0068;0.0019;-0.0111;
688360019574431;0.0068;0.0029;-0.0132;
688360024629275;0.0100;0.0061;-0.0164;
688360029684067;0.0121;0.0040;-0.0185;
688360034738858;0.0089;0.0051;-0.0164;
688360039793650;0.0100;0.0040;-0.0185;
688360044848494;0.0089;0.0040;-0.0174;
688360049936254;0.0079;0.0040;-0.0174;
688360054991046;0.0111;0.0019;-0.0174;
688360060045838;0.0121;0.0029;-0.0164;
688360065100629;0.0100;0.0029;-0.0174;
688360070155421;0.0089;0.0029;-0.0174;
688360075210213;0.0132;0.0051;-0.0164;
688360080227660;0.0079;0.0051;-0.0174;
688360085282504;0.0068;0.0029;-0.0142;
688360090337244;0.0100;0.0019;-0.0174;
688360095392088;0.0079;0.0040;-0.0164;
688360100446879;0.0111;0.0029;-0.0132;
688360105501671;0.0089;0.0019;-0.0121;
688360110587556;0.0079;0.0019;-0.0100;
688360115642400;0.0057;0.0019;-0.0079;
688360120697192;0.0079;0.0008;-0.0047;
688360125751983;0.0079;0.0008;-0.0047;
688360130806775;0.0068;0.0019;-0.0047;
688360135861567;0.0068;0.0019;-0.0068;
688360140901619;0.0068;-0.0003;-0.0057;
688360145956463;0.0068;-0.0024;-0.0057;
688360151011202;0.0079;0.0008;-0.0057;
688360156066046;0.0079;-0.0003;-0.0047;
688360161120838;0.0079;0.0019;-0.0047;
688360166175629;0.0079;-0.0003;-0.0047;
688360171234119;0.0079;0.0008;-0.0036;
688360176288963;0.0068;0.0008;-0.0047;
688360181343754;0.0057;0.0019;-0.0057;
688360186398546;0.0068;0.0040;-0.0036;
688360191453338;0.0068;0.0019;-0.0047;
688360196508129;0.0057;0.0029;-0.0036;
688360201551619;0.0057;0.0019;-0.0057;
688360206606463;0.0047;-0.0013;-0.0068;
688360211661254;0.0057;-0.0013;-0.0057;
688360216716046;0.0079;0.0019;-0.0068;
688360221770838;0.0079;0.0008;-0.0089;
688360226825629;0.0057;0.0019;-0.0068;
688360231884744;0.0057;0.0019;-0.0047;
688360236939588;0.0068;-0.0013;-0.0068;
688360241994379;0.0079;-0.0013;-0.0089;
688360247049171;0.0089;0.0029;-0.0100;
688360252103963;0.0100;0.0019;-0.0089;
688360257158754;0.0079;-0.0003;-0.0100;
688360262205421;0.0089;0.0019;-0.0121;
688360267260213;0.0068;0.0040;-0.0111;
688360272315004;0.0079;0.0008;-0.0121;
688360277369796;0.0057;-0.0003;-0.0132;
688360282424588;0.0057;0.0008;-0.0132;
688360287479379;0.0068;0.0029;-0.0142;
688360292555473;0.0079;0.0029;-0.0164;
688360297610265;0.0089;0.0008;-0.0174;
688360302665108;0.0079;0.0019;-0.0164;
688360307719900;0.0079;0.0019;-0.0174;
688360312774692;0.0100;0.0029;-0.0174;
688360317829483;0.0068;0.0019;-0.0174;
688360322877452;0.0068;0.0019;-0.0164;
688360327932244;0.0057;0.0008;-0.0164;
688360332987088;0.0068;0.0019;-0.0185;
688360338041879;0.0047;0.0008;-0.0185;
688360343096671;0.0057;-0.0003;-0.0174;
688360348151463;0.0047;-0.0003;-0.0153;
688360353204952;0.0068;0.0008;-0.0164;
688360358259744;0.0068;0.0040;-0.0196;
688360363314588;0.0057;0.0008;-0.0174;
688360368369379;0.0079;-0.0003;-0.0174;
688360373424171;0.0089;0.0008;-0.0196;
688360378478963;0.0068;0.0019;-0.0185;
688360383523181;0.0047;0.0019;-0.0174;
688360388578025;0.0057;0.0008;-0.0196;
688360393632817;0.0057;0.0008;-0.0196;
688360398687608;0.0068;0.0008;-0.0174;
688360403742400;0.0100;0.0019;-0.0185;
688360408797192;0.0057;0.0040;-0.0185;
688360413857765;0.0047;0.0040;-0.0185;
688360418912608;0.0068;0.0019;-0.0185;
688360423967348;0.0068;-0.0003;-0.0174;
688360429022192;0.0057;0.0008;-0.0153;
688360434076983;0.0057;0.0029;-0.0174;
688360439131775;0.0057;0.0019;-0.0185;
688360444228963;0.0047;-0.0003;-0.0174;
688360449283754;0.0068;0.0008;-0.0164;
688360454338546;0.0047;0.0008;-0.0164;
688360459393338;0.0057;0.0008;-0.0174;
688360464448129;0.0047;0.0008;-0.0164;
688360469502921;0.0036;0.0019;-0.0142;
688360474511410;0.0057;0.0008;-0.0132;
688360479566202;0.0068;-0.0003;-0.0164;
688360484621046;0.0047;0.0019;-0.0142;
688360489675785;0.0047;0.0008;-0.0132;
688360494730629;0.0047;0.0008;-0.0153;
688360499785421;0.0036;-0.0003;-0.0142;
688360504825994;0.0015;-0.0003;-0.0121;
688360509880838;0.0025;0.0008;-0.0132;
688360514935629;0.0057;0.0029;-0.0142;
688360519990369;0.0047;0.0029;-0.0132;
688360525045213;0.0004;0.0008;-0.0121;
688360530100004;0.0025;0.0029;-0.0121;
688360535166515;0.0015;0.0019;-0.0100;
688360540221306;0.0025;0.0008;-0.0100;
688360545276150;0.0025;0.0019;-0.0111;
688360550330942;0.0004;0.0019;-0.0121;
688360555385733;0.0015;0.0008;-0.0111;
688360560440525;0.0025;0.0008;-0.0089;
688360565503598;0.0047;0.0008;-0.0079;
688360570558442;0.0025;0.0008;-0.0068;
688360575613233;0.0025;-0.0003;-0.0079;
688360580667973;0.0025;0.0008;-0.0079;
688360585722817;0.0025;0.0008;-0.0100;
688360590777608;0.0025;0.0019;-0.0068;
688360595835577;0.0015;0.0008;-0.0068;
688360600890369;0.0004;-0.0003;-0.0079;
688360605945213;0.0004;0.0019;-0.0068;
688360611000004;0.0015;0.0019;-0.0057;
688360616054796;0.0025;-0.0013;-0.0068;
688360621109588;-0.0007;-0.0013;-0.0057;
688360626165473;-0.0017;0.0008;-0.0068;
688360631220317;0.0015;-0.0003;-0.0036;
688360636275108;0.0004;-0.0003;-0.0047;
688360641329900;-0.0017;0.0019;-0.0047;
688360646384692;-0.0007;-0.0003;-0.0057;
688360651439483;0.0015;-0.0003;-0.0047;
688360656472869;0.0015;-0.0003;-0.0047;
688360661527713;0.0015;-0.0013;-0.0025;
688360666582504;0.0015;-0.0003;-0.0047;
688360671637296;0.0004;0.0008;-0.0025;
688360676692088;0.0004;-0.0003;-0.0004;
688360681746879;0.0025;-0.0003;-0.0047;
688360686816619;0.0025;-0.0003;-0.0047;
688360691871410;-0.0007;-0.0013;-0.0057;
688360696926254;-0.0007;-0.0003;-0.0025;
688360701981046;-0.0007;-0.0013;-0.0036;
688360707035838;-0.0007;0.0008;-0.0025;
688360712090629;-0.0049;0.0008;-0.0036;
688360717144640;-0.0007;0.0008;-0.0036;
688360722199483;0.0025;-0.0003;-0.0004;
688360727254275;0.0015;-0.0024;0.0007;
688360732309067;0.0015;-0.0003;0.0007;
688360737363858;0.0025;0.0008;-0.0004;
688360742418650;0.0004;0.0008;-0.0004;
688360747481515;-0.0007;0.0008;-0.0015;
688360752536358;0.0004;-0.0013;-0.0015;
688360757591150;-0.0007;-0.0003;-0.0015;
688360762645942;-0.0007;0.0019;-0.0004;
688360767700733;-0.0007;0.0019;0.0017;
688360772755525;0.0004;-0.0003;0.0007;
688360777797452;0.0004;-0.0003;0.0007;
688360782852244;0.0004;0.0019;0.0007;
688360787907035;-0.0007;0.0019;-0.0015;
688360792961827;-0.0028;-0.0003;-0.0004;
688360798016619;-0.0007;-0.0024;0.0007;
688360803071410;0.0015;-0.0013;0.0007;
688360808118077;-0.0007;-0.0013;-0.0004;
688360813172921;0.0015;-0.0003;0.0007;
688360818227713;0.0004;-0.0013;0.0017;
688360823282452;0.0015;-0.0013;0.0017;
688360828337296;0.0036;0.0008;0.0017;
688360833392088;0.0015;0.0008;0.0017;
688360838435890;-0.0017;-0.0003;0.0028;
688360843490733;-0.0007;0.0008;0.0017;
688360848545525;-0.0007;0.0008;0.0017;
688360853600317;-0.0028;0.0019;-0.0004;
688360858655108;-0.0028;0.0008;0.0028;
688360863709900;-0.0017;0.0019;-0.0004;
688360868798025;0.0015;0.0019;-0.0004;
688360873852817;0.0004;0.0008;-0.0004;
688360878907608;-0.0007;0.0008;0.0028;
688360883962400;-0.0007;-0.0013;-0.0004;
688360889017192;0.0004;-0.0013;-0.0004;
688360894071983;0.0015;-0.0024;0.0028;
688360899086515;0.0015;-0.0013;-0.0015;
688360904141306;-0.0007;0.0008;-0.0015;
688360909196150;-0.0017;0.0019;-0.0025;
688360914250890;-0.0007;-0.0003;0.0017;
688360919305733;0.0004;-0.0013;-0.0004;
688360924360473;-0.0007;-0.0013;-0.0036;
688360929455317;0.0015;0.0019;-0.0057;
688360934510108;0.0015;0.0029;-0.0068;
688360939564900;0.0004;-0.0013;-0.0057;
688360944619692;-0.0007;0.0008;-0.0057;
688360949674483;-0.0017;0.0008;-0.0068;
688360954729275;0.0004;-0.0003;-0.0079;
688360959765577;0.0015;0.0008;-0.0100;
688360964820265;0.0036;0.0008;-0.0100;
688360969875004;0.0015;0.0008;-0.0100;
688360974929692;0.0025;0.0019;-0.0121;
688360979984431;0.0047;-0.0003;-0.0121;
688360985039119;0.0047;-0.0003;-0.0132;
688360990086150;0.0036;-0.0003;-0.0142;
688360995140838;0.0036;-0.0003;-0.0111;
688361000195577;0.0025;0.0008;-0.0153;
688361005250265;0.0015;0.0019;-0.0164;
688361010305004;0.0057;0.0019;-0.0153;
688361015359692;0.0068;0.0008;-0.0153;
688361020417973;0.0036;0.0019;-0.0164;
688361025472713;0.0025;0.0019;-0.0196;
688361030527400;0.0047;0.0019;-0.0196;
688361035582140;0.0079;0.0019;-0.0206;
688361040636827;0.0068;0.0008;-0.0217;
688361045691619;0.0015;0.0019;-0.0238;
688361050754327;0.0036;0.0019;-0.0238;
688361055809067;0.0068;0.0019;-0.0260;
688361060863754;0.0079;0.0019;-0.0249;
688361065918494;0.0057;0.0019;-0.0249;
688361070973181;0.0068;0.0008;-0.0281;
688361076027921;0.0079;-0.0003;-0.0292;
688361081083390;0.0068;0.0019;-0.0292;
688361086138129;0.0057;0.0029;-0.0292;
688361091192817;0.0068;0.0029;-0.0292;
688361096247556;0.0068;0.0040;-0.0324;
688361101302244;0.0079;0.0029;-0.0345;
688361106356983;0.0079;0.0008;-0.0334;
688361111410838;0.0079;0.0040;-0.0324;
688361116465525;0.0079;0.0051;-0.0334;
688361121520265;0.0089;0.0040;-0.0334;
688361126574952;0.0089;0.0029;-0.0366;
688361131629692;0.0079;0.0019;-0.0334;
688361136684379;0.0089;0.0040;-0.0345;
688361141732140;0.0089;0.0029;-0.0366;
688361146786879;0.0100;0.0019;-0.0366;
688361151841567;0.0079;0.0029;-0.0377;
688361156896306;0.0079;0.0040;-0.0356;
688361161950994;0.0089;0.0040;-0.0356;
688361167005733;0.0111;0.0040;-0.0387;
688361172076723;0.0111;0.0040;-0.0377;
688361177131463;0.0089;0.0051;-0.0398;
688361182186202;0.0068;0.0029;-0.0387;
688361187240890;0.0100;0.0040;-0.0387;
688361192295577;0.0100;0.0051;-0.0387;
688361197350317;0.0079;0.0040;-0.0377;
688361202406306;0.0089;0.0029;-0.0366;
688361207461046;0.0100;0.0019;-0.0387;
688361212515733;0.0089;0.0029;-0.0409;
688361217570473;0.0089;0.0040;-0.0398;
688361222625213;0.0089;0.0040;-0.0387;
688361227679900;0.0100;0.0029;-0.0387;
688361232722556;0.0089;0.0040;-0.0377;
688361237777296;0.0079;0.0029;-0.0366;
688361242831983;0.0089;0.0029;-0.0377;
688361247886723;0.0111;0.0040;-0.0377;
688361252941410;0.0079;0.0029;-0.0377;
688361257996150;0.0057;0.0029;-0.0387;
688361263080473;0.0111;0.0051;-0.0366;
688361268135213;0.0079;0.0029;-0.0377;
688361273189900;0.0068;0.0029;-0.0366;
688361278244640;0.0079;0.0040;-0.0377;
688361283299327;0.0100;0.0029;-0.0377;
688361288354067;0.0100;0.0019;-0.0356;
688361293380213;0.0068;0.0019;-0.0356;
688361298434952;0.0079;0.0029;-0.0366;
688361303489640;0.0100;0.0040;-0.0377;
688361308544379;0.0068;0.0040;-0.0366;
688361313599119;0.0047;0.0051;-0.0345;
688361318653806;0.0089;0.0040;-0.0387;
688361323717140;0.0079;0.0029;-0.0356;
688361328771879;0.0057;0.0019;-0.0345;
688361333826567;0.0089;0.0051;-0.0334;
688361338881306;0.0100;0.0040;-0.0334;
688361343936046;0.0079;0.0029;-0.0324;
688361348990733;0.0068;0.0029;-0.0313;
688361354041827;0.0047;0.0040;-0.0292;
688361359096567;0.0079;0.0029;-0.0281;
688361364151254;0.0089;0.0029;-0.0302;
688361369205994;0.0079;0.0008;-0.0281;
688361374260681;0.0057;0.0008;-0.0260;
688361379315421;0.0068;0.0019;-0.0260;
688361384376046;0.0079;0.0040;-0.0260;
688361389430733;0.0068;0.0008;-0.0228;
688361394485473;0.0068;0.0019;-0.0228;
688361399540213;0.0057;0.0008;-0.0217;
688361404594900;0.0057;0.0019;-0.0196;
688361409649640;0.0036;0.0008;-0.0206;
688361414695681;0.0068;0.0008;-0.0206;
688361419750473;0.0079;0.0029;-0.0185;
688361424805160;0.0057;0.0019;-0.0164;
688361429859900;0.0036;0.0008;-0.0142;
688361434914535;0.0025;0.0008;-0.0121;
688361439969327;0.0025;-0.0003;-0.0132;
688361445026879;0.0036;0.0008;-0.0132;
688361450081619;0.0025;0.0008;-0.0100;
688361455136306;0.0015;0.0008;-0.0100;
