Sensor: bmi160 Gyroscope Non-wakeup
Vendor: BOSCH
TimestampGyro [ns]; GyroX [rad/s]; GyroY [rad/s]; GyroZ [rad/s]
5252249524159084;-0.1545;-0.0003;0.0302;
5252249534270542;-0.1640;-0.0003;0.0292;
5252249544376167;-0.1896;0.0019;0.0281;
5252249554479188;-0.2130;0.0040;0.0260;
5252249564581844;-0.2194;0.0051;0.0270;
5252249574685907;-0.2130;0.0040;0.0302;
5252249584770959;-0.2067;0.0040;0.0324;
5252249594865594;-0.2077;0.0029;0.0334;
5252249604972469;-0.2226;0.0008;0.0324;
5252249615092990;-0.2407;0.0019;0.0313;
5252249625203250;-0.2407;0.0083;0.0260;
5252249635305178;-0.2333;0.0115;0.0260;
5252249645379813;-0.2205;0.0146;0.0260;
5252249655473198;-0.2045;0.0178;0.0238;
5252249665575646;-0.1960;0.0146;0.0206;
5252249675744865;-0.1939;0.0040;0.0217;
5252249685809032;-0.1928;-0.0013;0.0206;
5252249695934657;-0.2003;-0.0003;0.0196;
5252249705989813;-0.2088;-0.0003;0.0153;
5252249716111948;-0.1896;0.0061;0.0100;
5252249726204292;-0.1459;0.0178;0.0025;
5252249736303355;-0.1204;0.0232;0.0025;
5252249746404657;-0.1363;0.0157;0.0047;
5252249756507730;-0.1640;0.0051;0.0015;
5252249766608823;-0.1726;0.0029;-0.0113;
5252249776712573;-0.1651;0.0051;-0.0220;
5252249786836063;-0.1502;0.0115;-0.0241;
5252249796933459;-0.1353;0.0242;-0.0230;
5252249807021740;-0.1342;0.0296;-0.0273;
5252249817139761;-0.1491;0.0306;-0.0358;
5252249827232365;-0.1672;0.0328;-0.0433;
5252249837361584;-0.1896;0.0296;-0.0518;
5252249847434084;-0.2162;0.0232;-0.0571;
5252249857539032;-0.2269;0.0221;-0.0614;
5252249867637261;-0.2173;0.0242;-0.0624;
5252249877739344;-0.1928;0.0210;-0.0635;
5252249887845594;-0.1438;0.0221;-0.0646;
5252249897944761;-0.0703;0.0328;-0.0624;
5252249908049448;-0.0138;0.0370;-0.0571;
5252249918147417;-0.0170;0.0253;-0.0529;
5252249928251844;-0.0202;0.0157;-0.0518;
5252249938356115;-0.0192;0.0083;-0.0497;
5252249948459865;-0.0202;-0.0013;-0.0497;
5252249958564969;-0.0192;-0.0056;-0.0443;
5252249968658928;-0.0202;0.0029;-0.0411;
5252249978759969;-0.0288;0.0178;-0.0390;
5252249988870178;-0.0352;0.0253;-0.0358;
5252249998970698;-0.0373;0.0232;-0.0294;
5252250009069500;-0.0405;0.0189;-0.0220;
5252250019169032;-0.0415;0.0168;-0.0134;
5252250029278615;-0.0447;0.0125;-0.0028;
5252250039392365;-0.0511;0.0029;0.0047;
5252250049486948;-0.0511;0.0040;0.0089;
5252250059588094;-0.0479;0.0146;0.0153;
5252250069722521;-0.0565;0.0200;0.0228;
5252250079797678;-0.0916;0.0168;0.0281;
5252250089898511;-0.1310;0.0178;0.0292;
5252250099996532;-0.1640;0.0221;0.0270;
5252250110116011;-0.2109;0.0189;0.0281;
5252250120208823;-0.2578;0.0136;0.0292;
5252250130312990;-0.2908;0.0136;0.0228;
5252250140415907;-0.3110;0.0168;0.0164;
5252250150514969;-0.3260;0.0189;0.0174;
5252250160616115;-0.3334;0.0221;0.0206;
5252250170713615;-0.3324;0.0264;0.0217;
5252250180884032;-0.3345;0.0221;0.0228;
5252250190923615;-0.3324;0.0168;0.0238;
5252250201022000;-0.3228;0.0125;0.0249;
5252250211127990;-0.3142;0.0061;0.0260;
5252250221194709;-0.3100;0.0008;0.0249;
5252250231325282;-0.2897;0.0061;0.0292;
5252250241434032;-0.2557;0.0157;0.0334;
5252250251544084;-0.2258;0.0274;0.0345;
5252250261619292;-0.2045;0.0381;0.0334;
5252250271739344;-0.2077;0.0349;0.0302;
5252250281844865;-0.2652;0.0115;0.0217;
5252250291937365;-0.3260;-0.0067;0.0174;
5252250302041844;-0.3260;-0.0003;0.0142;
5252250312145594;-0.2887;0.0115;0.0164;
5252250322249761;-0.2557;0.0200;0.0196;
5252250332359344;-0.2482;0.0200;0.0174;
5252250342469188;-0.2812;0.0093;0.0079;
5252250352525021;-0.3462;-0.0067;-0.0007;
5252250362671115;-0.3856;-0.0088;-0.0049;
5252250372766115;-0.3718;0.0072;-0.0039;
5252250382890125;-0.3324;0.0221;-0.0007;
5252250392974448;-0.3132;0.0242;-0.0039;
5252250403098042;-0.3121;0.0168;-0.0081;
5252250413182573;-0.3068;0.0136;-0.0060;
5252250423267886;-0.3047;0.0072;-0.0039;
5252250433382365;-0.3142;-0.0056;-0.0028;
5252250443482886;-0.3025;-0.0099;-0.0017;
5252250453579032;-0.2450;-0.0045;0.0057;
5252250463695334;-0.1630;-0.0024;0.0142;
5252250473787678;-0.0937;-0.0056;0.0228;
5252250483876740;-0.0533;-0.0109;0.0324;
5252250493990334;-0.0447;-0.0173;0.0356;
5252250504100490;-0.0533;-0.0237;0.0377;
5252250514194448;-0.0533;-0.0248;0.0398;
5252250524297157;-0.0533;-0.0216;0.0430;
5252250534398198;-0.0533;-0.0141;0.0451;
5252250544503823;-0.0543;-0.0088;0.0473;
5252250554599032;-0.0554;-0.0035;0.0505;
5252250564702886;-0.0597;-0.0077;0.0526;
5252250574800750;-0.0575;-0.0152;0.0515;
5252250584916740;-0.0543;-0.0173;0.0494;
5252250595012157;-0.0479;-0.0152;0.0473;
5252250605113459;-0.0437;-0.0162;0.0462;
5252250615238875;-0.0447;-0.0162;0.0483;
5252250625339553;-0.0469;-0.0141;0.0473;
5252250635440178;-0.0479;-0.0141;0.0441;
5252250645529865;-0.0490;-0.0141;0.0419;
5252250655630542;-0.0469;-0.0109;0.0398;
5252250665731167;-0.0426;-0.0077;0.0398;
5252250675877365;-0.0426;-0.0088;0.0387;
5252250685978042;-0.0437;-0.0099;0.0377;
5252250696078719;-0.0415;-0.0130;0.0366;
5252250706147625;-0.0415;-0.0130;0.0377;
5252250716248355;-0.0405;-0.0162;0.0377;
5252250726348980;-0.0383;-0.0152;0.0398;
5252250736431948;-0.0373;-0.0141;0.0398;
5252250746532678;-0.0373;-0.0109;0.0387;
5252250756633303;-0.0394;-0.0088;0.0398;
5252250766746271;-0.0415;-0.0088;0.0409;
5252250776846948;-0.0394;-0.0088;0.0409;
5252250786947573;-0.0383;-0.0077;0.0409;
5252250797059292;-0.0383;-0.0077;0.0419;
5252250807159969;-0.0373;-0.0099;0.0430;
5252250817260594;-0.0383;-0.0099;0.0419;
5252250827387678;-0.0405;-0.0088;0.0430;
5252250837488355;-0.0383;-0.0077;0.0430;
5252250847588980;-0.0373;-0.0077;0.0419;
5252250857686636;-0.0383;-0.0088;0.0409;
5252250867787313;-0.0394;-0.0099;0.0430;
5252250877887990;-0.0383;-0.0099;0.0441;
5252250887986375;-0.0373;-0.0120;0.0462;
5252250898087053;-0.0373;-0.0130;0.0473;
5252250908187678;-0.0373;-0.0109;0.0451;
5252250918289865;-0.0373;-0.0120;0.0441;
5252250928390594;-0.0373;-0.0141;0.0430;
5252250938491219;-0.0373;-0.0141;0.0441;
5252250948603719;-0.0373;-0.0141;0.0451;
5252250958704396;-0.0362;-0.0141;0.0441;
5252250968805073;-0.0362;-0.0109;0.0419;
5252250978910073;-0.0362;-0.0088;0.0398;
5252250989010803;-0.0362;-0.0067;0.0377;
5252250999111428;-0.0352;-0.0045;0.0366;
5252251009218823;-0.0362;-0.0024;0.0366;
5252251019319500;-0.0341;-0.0035;0.0345;
5252251029420178;-0.0330;-0.0056;0.0313;
5252251039523511;-0.0330;-0.0077;0.0281;
5252251049624188;-0.0320;-0.0088;0.0249;
5252251059724865;-0.0320;-0.0077;0.0238;
5252251069814553;-0.0330;-0.0067;0.0238;
5252251079915230;-0.0309;-0.0067;0.0228;
5252251090015855;-0.0320;-0.0045;0.0196;
5252251100152938;-0.0320;-0.0035;0.0196;
5252251110253615;-0.0341;-0.0045;0.0206;
5252251120354240;-0.0373;-0.0056;0.0206;
5252251130454657;-0.0394;-0.0045;0.0206;
5252251140555386;-0.0415;-0.0045;0.0217;
5252251150656011;-0.0437;-0.0067;0.0249;
5252251160747886;-0.0426;-0.0067;0.0270;
5252251170848563;-0.0437;-0.0045;0.0292;
5252251180949240;-0.0490;-0.0024;0.0270;
5252251191068980;-0.0511;-0.0024;0.0281;
5252251201169657;-0.0511;-0.0013;0.0324;
5252251211270282;-0.0490;-0.0013;0.0387;
5252251221360855;-0.0522;-0.0035;0.0398;
5252251231461532;-0.0554;-0.0035;0.0377;
5252251241562209;-0.0575;-0.0088;0.0409;
5252251251668719;-0.0565;-0.0120;0.0451;
5252251261769396;-0.0554;-0.0141;0.0483;
5252251271870073;-0.0533;-0.0162;0.0526;
5252251281977782;-0.0458;-0.0141;0.0515;
5252251292078459;-0.0415;-0.0099;0.0558;
5252251302179136;-0.0522;-0.0109;0.0579;
5252251312284032;-0.0724;-0.0184;0.0590;
5252251322384709;-0.0735;-0.0226;0.0590;
5252251332485386;-0.0724;-0.0184;0.0590;
5252251342607365;-0.0692;-0.0088;0.0611;
5252251352708042;-0.0597;-0.0045;0.0643;
5252251362808667;-0.0575;-0.0077;0.0632;
5252251372905386;-0.0586;-0.0067;0.0643;
5252251383006063;-0.0597;-0.0088;0.0675;
5252251393106740;-0.0671;-0.0194;0.0643;
5252251403228719;-0.0692;-0.0248;0.0654;
5252251413329396;-0.0543;-0.0269;0.0686;
5252251423430021;-0.0277;-0.0248;0.0686;
5252251433527157;0.0011;-0.0152;0.0739;
5252251443627834;0.0298;-0.0067;0.0739;
5252251453728511;0.0458;-0.0013;0.0686;
5252251463819136;0.0415;-0.0013;0.0686;
5252251473919813;0.0160;-0.0035;0.0707;
5252251484020490;-0.0245;-0.0056;0.0675;
5252251494122521;-0.0671;-0.0024;0.0579;
5252251504223198;-0.1001;0.0051;0.0473;
5252251514323823;-0.1065;0.0061;0.0419;
5252251524437365;-0.0948;0.0019;0.0430;
5252251534538094;-0.0905;0.0029;0.0451;
5252251544638719;-0.0905;0.0008;0.0398;
5252251554728875;-0.0959;-0.0109;0.0313;
5252251564829553;-0.0916;-0.0194;0.0302;
5252251574930178;-0.0767;-0.0205;0.0324;
5252251585047678;-0.0341;-0.0141;0.0356;
5252251595148303;0.0330;-0.0045;0.0345;
5252251605248980;0.1012;0.0115;0.0356;
5252251615361115;0.1310;0.0146;0.0377;
5252251625463042;0.1161;0.0040;0.0366;
5252251635564969;0.1076;0.0040;0.0302;
5252251645679292;0.1332;0.0157;0.0270;
5252251655781219;0.1395;0.0115;0.0238;
5252251665883146;0.1417;0.0008;0.0217;
5252251675964396;0.1799;0.0083;0.0292;
5252251686066375;0.2417;0.0157;0.0377;
5252251696168303;0.2907;0.0061;0.0334;
5252251706299813;0.2395;-0.0216;0.0142;
5252251716401740;0.0415;-0.0578;-0.0071;
5252251726503667;-0.1097;-0.0546;-0.0156;
5252251736576948;-0.0426;-0.0035;0.0142;
5252251746678875;0.2523;0.0732;0.0579;
5252251756780803;0.5602;0.1148;0.0760;
5252251766884448;0.6273;0.0871;0.0718;
5252251776986375;0.5218;0.0285;0.0611;
5252251787088303;0.3184;-0.0546;0.0547;
5252251797202053;0.1513;-0.1174;0.0558;
5252251807303980;0.1692;-0.0897;0.0707;
5252251817405907;0.3652;-0.0088;0.1016;
5252251827515073;0.6028;0.0391;0.1357;
5252251837617000;0.7626;0.0551;0.1655;
5252251847718928;0.7987;0.0498;0.1868;
5252251857818303;0.7072;0.0019;0.1900;
5252251867920230;0.4899;-0.0642;0.1783;
5252251878022157;0.2875;-0.0855;0.1751;
5252251888119969;0.2012;-0.0642;0.1836;
5252251898221896;0.1980;-0.0354;0.1932;
5252251908323823;0.2374;-0.0035;0.1975;
5252251918431636;0.2779;0.0274;0.1943;
5252251928533563;0.2619;0.0306;0.1879;
5252251938635490;0.1640;-0.0013;0.1858;
5252251948740073;0.0320;-0.0301;0.1655;
5252251958842000;-0.0533;-0.0407;0.1229;
5252251968943928;-0.0415;-0.0471;0.0846;
5252251979039344;0.0650;-0.0280;0.0739;
5252251989141271;-0.0021;-0.0237;0.1229;
5252251999243198;-0.2802;-0.0312;0.1389;
5252252009353407;-0.3888;0.0146;0.1122;
5252252019455334;-0.3036;0.0391;0.0505;
5252252029557261;-0.2194;0.0274;0.0185;
5252252039655959;-0.1736;0.0541;0.0228;
5252252049757886;-0.1257;0.0796;0.0206;
5252252059859813;-0.0969;0.0999;0.0057;
5252252069972000;-0.1640;0.1542;-0.0443;
5252252080073928;-0.3345;0.1670;-0.0891;
5252252090175855;-0.3249;0.0988;-0.1381;
5252252100266323;-0.0767;-0.0056;-0.1296;
5252252110368250;-0.0501;-0.0620;-0.0667;
5252252120470178;-0.0746;-0.0461;0.0047;
5252252130575073;-0.1076;0.0296;0.0292;
5252252140677053;-0.1363;0.1180;0.0206;
5252252150778928;-0.1704;0.1776;0.0164;
5252252160878459;-0.2589;0.1286;0.0079;
5252252170980386;-0.2035;-0.0184;-0.0039;
5252252181082313;-0.0256;-0.0919;0.0164;
5252252191187573;-0.0756;-0.0386;0.0728;
5252252201289500;-0.1310;0.0370;0.1048;
5252252211391428;-0.1268;0.0977;0.0899;
5252252221502886;-0.1353;0.1201;0.0707;
5252252231604761;-0.1310;0.1126;0.0750;
5252252241706688;-0.1012;0.0583;0.0888;
5252252251791740;-0.1023;-0.0439;0.0728;
5252252261893667;-0.1225;-0.0514;0.0505;
5252252271995594;-0.1363;0.0956;0.0441;
5252252282112209;-0.1246;0.1606;0.0206;
5252252292214136;-0.1459;0.0636;-0.0134;
5252252302316063;-0.0842;0.0019;-0.0124;
5252252312418250;-0.0501;-0.0205;-0.0156;
5252252322520178;-0.0352;-0.0322;-0.0593;
5252252332622105;-0.0320;0.0168;-0.1317;
5252252342734292;-0.0554;0.0605;-0.1956;
5252252352836271;-0.0330;0.0594;-0.2361;
5252252362938146;-0.0511;0.0381;-0.2659;
5252252373033719;-0.1087;0.0306;-0.3032;
5252252383135646;-0.1363;0.0647;-0.3309;
5252252393237573;-0.0831;0.0871;-0.3531;
5252252403342105;0.0394;0.0732;-0.3616;
5252252413444084;0.0447;0.0583;-0.3638;
5252252423546011;0.1012;0.0487;-0.3478;
5252252433660803;0.2406;0.0455;-0.3181;
5252252443762730;0.3439;0.0551;-0.2893;
5252252453864657;0.3908;0.0370;-0.2787;
5252252463957469;0.4206;-0.0003;-0.2670;
5252252474059396;0.4899;0.0104;-0.2361;
5252252484161323;0.5506;0.0264;-0.2020;
5252252494264448;0.5250;0.0200;-0.1786;
5252252504366375;0.4505;0.0285;-0.1551;
5252252514468303;0.3674;0.0072;-0.1423;
5252252524565594;0.3226;-0.0322;-0.1317;
5252252534667521;0.3375;-0.0024;-0.1200;
5252252544769448;0.3290;0.0157;-0.1051;
5252252554872886;0.3077;0.0189;-0.0965;
5252252564974813;0.2885;0.0125;-0.0901;
5252252575076792;0.2800;-0.0216;-0.0763;
5252252585169865;0.3482;-0.0024;-0.0507;
5252252595271792;0.4419;0.0338;-0.0273;
5252252605373771;0.4675;0.0072;-0.0145;
5252252615483355;0.4387;-0.0162;0.0047;
5252252625585282;0.4164;-0.0035;0.0334;
5252252635687157;0.4196;0.0146;0.0547;
5252252645819709;0.4441;0.0189;0.0654;
5252252655921636;0.4803;-0.0173;0.0728;
5252252666023563;0.5144;-0.0280;0.0814;
5252252676116063;0.5133;-0.0120;0.0920;
5252252686217990;0.4909;-0.0397;0.1005;
5252252696319969;0.4622;-0.0429;0.1112;
5252252706408928;0.4025;-0.0130;0.1144;
5252252716510855;0.3109;-0.0003;0.1069;
5252252726612782;0.2204;-0.0194;0.1005;
5252252736732990;0.1236;-0.0109;0.0952;
5252252746834917;0.0064;0.0125;0.0899;
5252252756936844;-0.0490;-0.0120;0.0877;
5252252767032782;-0.0341;-0.0429;0.0909;
5252252777134709;0.0437;-0.0152;0.0995;
5252252787236636;0.1630;0.0466;0.1069;
5252252797373511;0.2577;0.0455;0.1154;
5252252807475438;0.3045;0.0413;0.1304;
5252252817577313;0.2672;0.0083;0.1229;
5252252827638094;0.2172;-0.0290;0.1176;
5252252837740021;0.1991;-0.0088;0.1389;
5252252847841948;0.2470;0.0019;0.1549;
5252252857959969;0.3226;0.0253;0.1602;
5252252868061896;0.3162;0.0477;0.1570;
5252252878163823;0.2672;0.0242;0.1666;
5252252888264553;0.2491;-0.0173;0.1623;
5252252898366480;0.2779;-0.0375;0.1506;
5252252908468407;0.3429;-0.0109;0.1581;
5252252918579865;0.3802;0.0328;0.1644;
5252252928681792;0.3226;0.0477;0.1634;
5252252938783719;0.1873;0.0200;0.1421;
5252252948878094;0.0575;-0.0013;0.1154;
5252252958980021;-0.0011;0.0093;0.0963;
5252252969081948;-0.0032;0.0029;0.0984;
5252252979186532;-0.0053;-0.0045;0.1080;
5252252989288459;0.0011;0.0264;0.0963;
5252252999390386;0.0266;0.0636;0.0728;
5252253009491844;0.0053;0.0360;0.0558;
5252253019593771;-0.1172;-0.0067;0.0302;
5252253029695698;-0.2514;0.0242;0.0036;
5252253039797886;-0.3728;0.0413;-0.0166;
5252253049899813;-0.5272;0.0519;-0.0145;
5252253060001740;-0.6891;0.0881;-0.0198;
5252253070107261;-0.7647;0.0658;-0.0614;
5252253080209188;-0.6901;0.0210;-0.1136;
5252253090311115;-0.5250;0.0008;-0.1349;
5252253100437053;-0.3366;-0.0162;-0.1168;
5252253110538980;-0.1321;-0.0067;-0.0891;
5252253120640907;0.0426;0.0391;-0.0859;
5252253130721792;0.0660;0.0477;-0.1253;
5252253140823771;0.0522;-0.0152;-0.1658;
5252253150925646;0.0692;-0.0567;-0.1796;
5252253161027678;0.0863;-0.0152;-0.1668;
5252253171129605;0.0905;0.0541;-0.1381;
5252253181231532;0.0895;0.0700;-0.1157;
5252253191337209;0.0682;0.0455;-0.1146;
5252253201439136;0.0330;-0.0099;-0.1232;
5252253211541063;0.0181;-0.0791;-0.1061;
5252253221623355;0.0085;-0.0514;-0.0603;
5252253231725334;-0.0053;0.0413;-0.0103;
5252253241827209;0.0213;0.0562;0.0004;
5252253251951792;0.0245;-0.0173;-0.0305;
5252253262054292;-0.0383;-0.0578;-0.0497;
5252253272156740;-0.2120;-0.0365;-0.0252;
5252253282258511;-0.4973;0.0338;-0.0007;
5252253292360959;-0.5730;0.0818;-0.0273;
5252253302463459;-0.6347;0.0658;-0.0955;
5252253312564448;-0.6720;0.0328;-0.1381;
5252253322666896;-0.6337;0.0189;-0.1423;
5252253332769396;-0.5442;-0.0109;-0.1466;
5252253342888511;-0.3004;0.0136;-0.1615;
5252253352990959;-0.0107;0.0168;-0.1796;
5252253363093459;0.0746;-0.0205;-0.2116;
5252253373180386;0.0991;0.0104;-0.2116;
5252253383282886;0.0650;0.0381;-0.1828;
5252253393385334;-0.0192;0.0370;-0.1690;
5252253403501219;-0.0138;0.0722;-0.1988;
5252253413603667;-0.0522;0.0423;-0.2254;
5252253423706167;-0.0735;0.0285;-0.2073;
5252253433805542;-0.0778;0.0562;-0.1711;
5252253443907990;-0.0458;0.0210;-0.2041;
5252253454010490;0.0383;0.0168;-0.2776;
5252253464100959;0.0341;0.0125;-0.3075;
5252253474203407;0.0586;0.0285;-0.2798;
5252253484305907;0.1289;0.0935;-0.2702;
5252253494404553;0.2129;0.0850;-0.3414;
5252253504507053;0.2779;-0.0003;-0.4011;
5252253514609500;0.2459;-0.0056;-0.3734;
5252253524708303;0.1310;0.0178;-0.2989;
5252253534810750;0.1321;0.0242;-0.3085;
5252253544913250;0.3184;0.0360;-0.3915;
5252253555010698;0.4931;0.0072;-0.3798;
5252253565113198;0.5378;-0.0418;-0.2830;
5252253575215646;0.6582;-0.0961;-0.2659;
5252253585342209;0.9766;-0.1345;-0.2968;
5252253595444657;1.1981;-0.0834;-0.2638;
5252253605547157;1.1630;-0.0503;-0.1818;
5252253615649032;1.0192;-0.0397;-0.1370;
5252253625751480;0.8754;0.0349;-0.1764;
5252253635853928;0.6529;0.0668;-0.1818;
5252253645938511;0.3269;-0.0205;-0.1178;
5252253656040959;0.0788;-0.0525;-0.0944;
5252253666143459;0.0032;0.0115;-0.1232;
5252253676239344;-0.1246;0.0615;-0.1093;
5252253686341792;-0.2205;0.0605;-0.0646;
5252253696444292;-0.1843;0.0328;-0.0390;
5252253706577938;-0.1555;0.0115;-0.0305;
5252253716680386;-0.2013;-0.0397;-0.0177;
5252253726782886;-0.2908;-0.1228;0.0238;
5252253736876011;-0.1992;-0.0929;0.0782;
5252253746978459;0.0810;0.0168;0.1005;
5252253757080959;0.1640;0.0455;0.1165;
5252253767172157;0.0916;0.0040;0.1506;
5252253777274657;0.0085;-0.0045;0.2134;
5252253787377105;0.0234;0.0200;0.2326;
5252253797470386;0.0192;0.0232;0.2145;
5252253807572886;-0.0266;0.0136;0.2220;
5252253817675334;-0.0501;0.0040;0.2678;
5252253827788407;-0.0138;0.0264;0.3081;
5252253837890907;0.0011;0.0296;0.2740;
5252253847993355;-0.0202;0.0189;0.2198;
5252253858115907;-0.0298;0.0008;0.2209;
5252253868218355;-0.0170;-0.0312;0.2539;
5252253878320855;0.0277;-0.0141;0.2390;
5252253888408407;0.0117;-0.0120;0.1538;
5252253898510855;-0.0192;-0.0099;0.0888;
5252253908613355;-0.0256;-0.0067;0.1005;
5252253918719865;0.1587;0.0242;0.1240;
5252253928822313;0.5708;0.1063;0.0835;
5252253938924813;0.5165;0.0349;0.0547;
5252253949026532;0.2800;-0.0663;0.0643;
5252253959128980;0.3471;-0.0407;0.0782;
5252253969231480;0.5314;-0.0322;0.0462;
5252253979327365;0.6145;-0.0439;0.0366;
5252253989429813;0.5453;-0.0663;0.0579;
5252253999532313;0.4462;-0.0631;0.0334;
5252254009645073;0.4142;-0.0610;-0.0188;
5252254019747521;0.3461;-0.0525;-0.0305;
5252254029850021;0.2236;-0.0535;-0.0156;
5252254039949136;0.2033;-0.0397;-0.0518;
5252254050051584;0.2577;-0.0013;-0.0933;
5252254060154084;0.2044;-0.0003;-0.0763;
5252254070254709;0.1895;0.0200;-0.0912;
5252254080357157;0.2214;0.0583;-0.1509;
5252254090459657;0.1257;0.0115;-0.1274;
5252254100573563;0.1587;-0.0077;-0.0688;
5252254110676063;0.1873;-0.0184;-0.0699;
5252254120778563;0.1630;-0.0599;-0.0710;
5252254130868094;0.2118;-0.0642;-0.0475;
5252254140970542;0.3375;-0.0844;-0.0326;
5252254151073042;0.4995;-0.0961;0.0111;
5252254161165282;0.7327;-0.0344;0.0601;
5252254171267730;1.0064;0.0434;0.0931;
5252254181370230;1.1033;0.0487;0.1570;
5252254191488303;1.1268;0.0306;0.1794;
5252254201590750;1.1662;0.0466;0.2060;
5252254211693250;1.2269;0.0636;0.2518;
5252254221786271;1.2716;0.0700;0.2411;
5252254231888719;1.2514;0.0658;0.2603;
5252254241991219;1.2461;0.0786;0.2688;
5252254252099136;1.2248;0.0764;0.2571;
5252254262201636;1.1278;0.0903;0.2720;
5252254272304136;1.0128;0.1457;0.2305;
5252254282414657;0.8786;0.0860;0.2252;
5252254292517157;0.7370;0.0146;0.1975;
5252254302619657;0.6369;0.1148;0.1314;
5252254312710125;0.5304;0.1137;0.1048;
5252254322812625;0.4547;0.0200;0.0590;
5252254332915125;0.4089;0.0455;0.0260;
5252254343033511;0.3098;0.0754;-0.0443;
5252254353135959;0.2427;0.0008;-0.0497;
5252254363238459;0.2193;-0.0035;-0.0593;
5252254373338719;0.2885;0.0487;-0.1178;
5252254383441219;0.4483;0.0008;-0.0635;
5252254393543719;0.5346;-0.0684;-0.0571;
5252254403635073;0.5485;-0.0791;-0.0443;
5252254413737573;0.6049;-0.0993;0.0057;
5252254423840073;0.5815;-0.1036;-0.0134;
5252254433935386;0.5378;-0.0759;-0.0209;
5252254444037886;0.6113;-0.0642;-0.0113;
5252254454140386;0.6795;-0.0834;-0.0039;
5252254464254657;0.7146;-0.0652;0.0505;
5252254474357157;0.7264;-0.0067;0.0505;
5252254484459657;0.7114;-0.0035;0.0494;
5252254494552053;0.7082;-0.0258;0.0909;
5252254504654553;0.6816;-0.0024;0.1091;
5252254514757053;0.6284;0.0168;0.1250;
5252254524847157;0.6422;-0.0099;0.1570;
5252254534949657;0.6752;-0.0184;0.1740;
5252254545052157;0.6912;-0.0482;0.2316;
5252254555178042;0.6784;-0.0802;0.2710;
5252254565280542;0.5751;-0.0397;0.2614;
5252254575383042;0.4728;0.0061;0.2720;
5252254585470021;0.4185;0.0168;0.3039;
5252254595572521;0.3738;0.0423;0.3294;
5252254605675021;0.3450;0.0754;0.3774;
5252254615790073;0.2683;0.0668;0.3965;
5252254625892521;0.1545;0.0338;0.4328;
5252254635995021;0.0383;0.0423;0.4700;
5252254646069605;-0.0820;0.0711;0.4402;
5252254656172105;-0.2077;0.0541;0.4754;
5252254666274605;-0.3047;0.0370;0.4956;
5252254676387209;-0.4718;0.0413;0.4881;
5252254686489709;-0.6497;0.0466;0.5190;
5252254696592209;-0.7104;0.0658;0.4818;
5252254706706844;-0.8648;0.0850;0.4626;
5252254716809344;-0.9905;0.1233;0.4647;
5252254726911844;-1.0735;0.1116;0.4349;
5252254737025907;-1.1875;0.0881;0.4317;
5252254747128355;-1.2972;0.1340;0.3923;
5252254757230907;-1.4570;0.1425;0.3571;
5252254767350594;-1.6827;0.0977;0.3060;
5252254777453042;-1.8243;0.1041;0.2561;
5252254787555542;-1.8275;0.1574;0.2177;
5252254797649032;-1.8148;0.1616;0.1325;
5252254807751532;-1.8531;0.1403;0.1250;
5252254817853980;-1.7189;0.1212;0.1176;
5252254827928303;-1.5358;0.1350;0.0846;
5252254838030803;-1.3483;0.1691;0.0451;
5252254848133303;-1.3121;0.1020;0.0345;
5252254858263303;-1.1853;0.1340;0.0334;
5252254868365803;-0.9554;0.1446;0.0270;
5252254878468303;-0.8094;0.1063;0.0249;
5252254888540750;-0.6976;0.0487;0.0153;
5252254898643250;-0.4483;0.0274;0.0185;
5252254908745750;-0.1939;0.0924;0.0100;
5252254918869969;-0.1395;0.0690;0.0238;
5252254928972469;-0.0820;0.0935;0.0356;
5252254939074969;0.0277;0.1180;0.0537;
5252254949161532;-0.0181;0.1244;0.0526;
5252254959264032;-0.1108;0.1105;0.0707;
5252254969366532;-0.1832;0.0913;0.0217;
5252254979483094;-0.2844;0.0807;0.0004;
5252254989585594;-0.4027;0.0956;-0.0241;
5252254999688094;-0.5730;0.0487;-0.0241;
5252255009781532;-0.6710;0.0338;-0.0443;
5252255019884032;-0.6901;0.0360;-0.0859;
5252255029986532;-0.7594;0.0360;-0.1306;
5252255040091532;-0.7658;0.0583;-0.1487;
5252255050194032;-0.7764;0.0754;-0.1711;
5252255060296532;-0.7604;0.1052;-0.1775;
5252255070381115;-0.7157;0.1148;-0.1913;
5252255080483615;-0.6997;0.0743;-0.1818;
5252255090586115;-0.6294;0.1052;-0.1786;
5252255100735698;-0.6273;0.0541;-0.1562;
5252255110838198;-0.5357;0.0551;-0.1690;
5252255120940646;-0.4675;0.0594;-0.1370;
5252255131021636;-0.4282;0.0146;-0.1360;
5252255141124136;-0.4144;0.0072;-0.1381;
5252255151226636;-0.4346;-0.0620;-0.1413;
5252255161314448;-0.4293;-0.0695;-0.1338;
5252255171416948;-0.4707;-0.0759;-0.1615;
5252255181519448;-0.4218;-0.0663;-0.1498;
5252255191623928;-0.4122;0.0189;-0.1583;
5252255201726428;-0.3920;0.0594;-0.1743;
5252255211828928;-0.3835;0.1212;-0.1850;
5252255221929240;-0.3856;0.1265;-0.1956;
5252255232031740;-0.3909;0.1371;-0.2137;
5252255242134240;-0.3824;0.0999;-0.2371;
5252255252240282;-0.3611;0.0477;-0.2574;
5252255262342730;-0.3515;0.0732;-0.2574;
5252255272445178;-0.3696;0.0775;-0.2830;
5252255282539448;-0.3366;0.0860;-0.2787;
5252255292641896;-0.3579;0.0402;-0.2947;
5252255302744344;-0.3068;0.0178;-0.3149;
5252255312845490;-0.2887;0.0296;-0.3256;
5252255322947938;-0.2184;0.0232;-0.3224;
5252255333050386;-0.1491;0.0413;-0.3266;
5252255343151844;-0.0735;0.1052;-0.2947;
5252255353254292;-0.0597;0.1073;-0.2648;
5252255363356740;-0.0064;0.0743;-0.2830;
5252255373470282;0.0501;0.0658;-0.3425;
5252255383572730;0.0873;0.0754;-0.3341;
5252255393675178;0.1534;0.0828;-0.3149;
5252255403777365;0.2715;0.0807;-0.2254;
5252255413879813;0.3727;0.0658;-0.1434;
5252255423982261;0.3589;0.0125;-0.1136;
5252255434089553;0.3919;-0.0642;-0.1157;
5252255444192000;0.4142;-0.0866;-0.0646;
5252255454294448;0.4387;-0.0748;0.0132;
5252255464384865;0.4643;-0.0834;0.1389;
5252255474487313;0.4632;-0.1004;0.2262;
5252255484589761;0.4579;-0.1142;0.2975;
5252255494690907;0.3844;-0.1079;0.3369;
5252255504793355;0.3035;-0.0866;0.3848;
5252255514895803;0.1927;-0.0706;0.4093;
5252255524994969;0.0959;-0.0695;0.4466;
5252255535097417;-0.0181;-0.0493;0.4487;
5252255545199865;-0.1214;-0.0354;0.4455;
5252255555315021;-0.1971;-0.0184;0.4146;
5252255565417417;-0.2450;-0.0312;0.3987;
5252255575519917;-0.2344;-0.0439;0.3933;
5252255585599136;-0.2610;-0.0194;0.3592;
5252255595701584;-0.2738;0.0296;0.3145;
5252255605803980;-0.2386;0.0487;0.2603;
5252255615970438;-0.2248;0.0338;0.2571;
5252255626072886;-0.2525;0.0700;0.2198;
5252255636175386;-0.2844;0.0722;0.1975;
5252255646237209;-0.2812;0.0668;0.1474;
5252255656339709;-0.2929;0.0690;0.0718;
5252255666442157;-0.2450;0.0594;0.0196;
5252255676556532;-0.1971;0.0178;-0.0273;
5252255686658928;-0.1811;-0.0205;-0.0561;
5252255696761428;-0.1427;-0.0610;-0.1370;
5252255706846323;-0.1118;-0.1228;-0.1999;
5252255716948771;-0.0650;-0.1696;-0.2350;
5252255727051219;0.0256;0.0913;-0.2457;
5252255737172521;0.2726;0.4758;-0.2095;
5252255747274969;0.4835;0.6643;-0.1679;
5252255757377365;0.5133;0.5865;-0.1434;
5252255767466219;0.4206;0.4608;-0.1551;
5252255777568667;0.2406;0.2670;-0.1477;
5252255787671115;0.0586;0.0242;-0.1349;
5252255797778615;-0.0341;-0.1302;-0.1530;
5252255807881063;-0.1150;-0.1867;-0.1498;
5252255817983511;-0.1949;-0.1899;-0.1061;
5252255828089553;-0.2876;-0.1579;-0.1104;
5252255838192000;-0.3909;-0.1260;-0.1360;
5252255848294448;-0.4473;-0.0237;-0.1519;
5252255858407053;-0.4931;0.0551;-0.1700;
5252255868509500;-0.4473;0.1052;-0.1711;
5252255878611948;-0.4112;0.1851;-0.1541;
5252255888705907;-0.3483;0.2222;-0.1423;
5252255898808355;-0.2535;0.1979;-0.1115;
5252255908910803;-0.2035;0.0935;-0.1072;
5252255919002365;-0.1268;0.0349;-0.0955;
5252255929104813;-0.1310;0.0200;-0.0561;
5252255939207261;-0.1577;0.0253;-0.0550;
5252255949326792;-0.1736;0.0636;-0.0497;
5252255959429240;-0.1992;0.1308;-0.0806;
5252255969531688;-0.2099;-0.1451;-0.0987;
5252255979627157;-0.1332;-0.5828;-0.0486;
5252255989729605;-0.0810;-0.4486;-0.0369;
5252255999832053;-0.1076;-0.2165;0.0366;
5252256009934865;-0.1598;-0.1654;0.1197;
5252256020037313;-0.2439;-0.0418;0.1240;
5252256030139761;-0.3185;0.1063;0.0899;
5252256040247469;-0.4483;0.1989;-0.0113;
5252256050349917;-0.5304;0.1084;-0.1402;
5252256060452365;-0.5825;0.0391;-0.2148;
5252256070562209;-0.6284;0.0647;-0.2840;
5252256080664657;-0.6081;-0.0674;-0.3467;
5252256090767105;-0.5197;-0.1313;-0.4181;
5252256100915803;-0.4208;-0.0929;-0.4746;
5252256111018198;-0.2684;-0.1281;-0.4746;
5252256121120646;-0.1257;-0.1473;-0.4628;
5252256131161375;-0.0426;-0.0791;-0.4511;
5252256141263823;0.0873;-0.0173;-0.4884;
5252256151366271;0.1449;0.0115;-0.5023;
5252256161462053;0.0671;-0.0716;-0.4863;
5252256171564500;0.0511;-0.3901;-0.4628;
5252256181666948;0.3929;-0.4156;-0.3925;
5252256191776844;0.8306;0.0189;-0.3787;
5252256201879292;1.0490;0.3628;-0.3521;
5252256211981740;0.7997;0.4353;-0.2340;
5252256222105490;0.4632;0.2648;-0.1338;
5252256232207886;0.2981;0.1606;-0.1189;
5252256242310334;0.3013;0.1105;-0.1455;
5252256252387573;0.2928;0.0115;-0.1338;
5252256262490073;0.2395;-0.0716;-0.1146;
5252256272592521;0.2395;-0.2027;-0.0763;
5252256282694448;0.2683;-0.2602;-0.0241;
5252256292796896;0.3258;-0.2208;0.0324;
5252256302899448;0.3375;-0.1164;0.0526;
5252256312997990;0.2758;-0.0226;0.0632;
5252256323100438;0.1087;0.0445;0.0622;
5252256333202990;-0.0341;0.0690;0.0654;
5252256343293303;-0.1108;0.1190;0.0451;
5252256353395803;-0.1843;0.1776;-0.0007;
5252256363498250;-0.2375;0.1766;-0.0092;
5252256373613303;-0.3121;0.1233;0.0153;
5252256383715750;-0.2130;0.2478;0.0068;
5252256393818250;-0.0149;0.5098;-0.0507;
5252256403937521;-0.3643;0.2382;-0.1168;
5252256414039969;-0.6987;-0.4262;-0.0656;
5252256424142469;-0.4282;-0.3656;-0.0316;
5252256434228875;0.2694;-0.0141;-0.0614;
5252256444331323;0.5783;-0.0663;-0.0284;
5252256454433875;0.3450;-0.0897;0.0611;
5252256464539553;0.2662;0.0850;0.0664;
5252256474642053;0.1672;0.1712;0.0228;
5252256484744553;-0.0746;0.0977;-0.0348;
5252256494844292;-0.1097;0.0743;-0.0603;
5252256504946740;-0.0703;0.1478;-0.0997;
5252256515049240;-0.0927;0.1371;-0.1498;
5252256525162209;-0.1076;0.0743;-0.1381;
5252256535264709;-0.0799;0.0498;-0.1477;
5252256545367209;-0.0437;-0.0333;-0.1519;
5252256555449605;0.0064;-0.0908;-0.1328;
5252256565552053;0.0778;-0.0695;-0.1296;
5252256575654553;0.1662;-0.0844;-0.1306;
5252256585788980;0.1916;-0.0450;-0.1402;
5252256595891480;0.1598;-0.0056;-0.1583;
5252256605993980;0.1363;-0.0130;-0.1402;
5252256616060386;0.1289;-0.0503;-0.1328;
5252256626162886;0.1225;-0.0557;-0.1360;
5252256636265386;0.1097;-0.0461;-0.1519;
5252256646396636;0.1087;-0.0866;-0.1360;
5252256656499084;0.1044;-0.0897;-0.1178;
5252256666601584;0.1236;-0.0812;-0.1232;
5252256676704136;0.1438;-0.0727;-0.0987;
5252256686806584;0.0959;-0.0365;-0.1029;
5252256696909084;0.0341;-0.0493;-0.1221;
5252256706999865;0.0021;-0.0493;-0.1338;
5252256717102313;-0.0075;-0.0067;-0.1519;
5252256727204865;-0.0096;-0.0152;-0.1796;
5252256737329553;-0.0053;-0.0344;-0.1786;
5252256747432000;0.0192;-0.0162;-0.1945;
5252256757534500;0.0479;-0.0344;-0.2084;
5252256767605386;0.0788;-0.0620;-0.1828;
5252256777707834;0.0927;-0.0525;-0.2009;
5252256787810334;0.1012;-0.0759;-0.2009;
5252256797920490;0.1193;-0.0748;-0.1924;
5252256808022938;0.1609;-0.0503;-0.1818;
5252256818125438;0.1778;-0.0418;-0.1786;
5252256828233928;0.2055;-0.0354;-0.1818;
5252256838336428;0.2683;-0.0130;-0.1636;
5252256848438928;0.2917;0.0072;-0.1807;
5252256858553198;0.3450;0.0093;-0.1700;
5252256868655698;0.3589;0.0317;-0.1317;
5252256878758146;0.3748;0.0306;-0.1381;
5252256888842157;0.4217;-0.0077;-0.1445;
5252256898944605;0.4206;-0.0397;-0.1370;
5252256909047105;0.4185;-0.0035;-0.1328;
5252256919143563;0.4526;-0.0035;-0.1264;
5252256929246063;0.4760;-0.0535;-0.1253;
5252256939348563;0.4164;-0.0610;-0.1232;
5252256949461219;0.3897;-0.0429;-0.1157;
5252256959563667;0.4047;-0.0099;-0.0891;
5252256969666167;0.4110;-0.0077;-0.0965;
5252256979773719;0.4547;-0.0280;-0.1040;
5252256989876167;0.4462;-0.0578;-0.0742;
5252256999978667;0.4324;-0.0674;-0.0561;
5252257010082625;0.4355;-0.0748;-0.0475;
5252257020185125;0.4025;-0.0312;-0.0166;
5252257030287573;0.3972;0.0019;-0.0103;
5252257040387365;0.4590;-0.0248;-0.0198;
5252257050489813;0.5005;-0.0248;-0.0007;
5252257060592365;0.5122;-0.0557;0.0366;
5252257070689969;0.5218;-0.0940;0.0345;
5252257080792417;0.4398;-0.0674;0.0398;
5252257090894969;0.3578;-0.0194;0.0505;
5252257100970230;0.3525;0.0146;0.0473;
5252257111072730;0.3908;-0.0184;0.0632;
5252257121175230;0.4355;-0.0109;0.0814;
5252257131306948;0.4622;-0.0077;0.0963;
5252257141409448;0.4782;-0.0237;0.0952;
5252257151511896;0.4835;-0.0407;0.0941;
5252257161611792;0.4387;-0.0386;0.1133;
5252257171714292;0.3855;0.0221;0.1410;
5252257181816740;0.3940;0.0530;0.1410;
5252257191929657;0.4228;0.0402;0.1676;
5252257202032157;0.4121;0.0200;0.1570;
5252257212134657;0.3269;0.0807;0.1304;
5252257222216948;0.4260;0.1893;0.1932;
5252257232319396;0.5453;0.0935;0.2092;
5252257242421896;0.5112;-0.0205;0.2081;
5252257252534448;0.2843;0.0360;0.1996;
5252257262636948;0.2097;0.1478;0.1751;
5252257272739396;0.2406;0.1425;0.1921;
5252257282838615;0.3045;0.0668;0.2103;
5252257292941115;0.2395;0.0732;0.2156;
5252257303043615;0.1948;0.1212;0.2017;
5252257313143511;0.2449;0.0434;0.2166;
5252257323246011;0.2140;0.0051;0.2241;
5252257333348459;0.1193;0.0658;0.2262;
5252257343455803;0.0799;0.1031;0.2358;
5252257353558303;0.1545;0.0807;0.2422;
5252257363660750;0.2087;0.0370;0.2433;
5252257373769032;0.1587;0.0605;0.2284;
5252257383871532;0.1321;0.0775;0.2401;
5252257393973980;0.1724;-0.0205;0.2646;
5252257404058198;0.1065;-0.0130;0.2656;
5252257414160698;-0.0607;0.0722;0.2529;
5252257424263198;-0.1300;0.1457;0.2113;
5252257434376375;-0.0895;0.0988;0.1953;
5252257444478875;-0.1161;0.0477;0.1581;
5252257454581323;-0.2130;0.0445;0.1314;
5252257464681740;-0.2791;0.0551;0.1229;
5252257474784240;-0.3121;0.0051;0.0984;
5252257484886740;-0.3760;-0.0056;0.0632;
5252257494982678;-0.4664;0.0487;0.0292;
5252257505085178;-0.4899;0.0573;0.0121;
5252257515187678;-0.4197;0.0370;-0.0326;
5252257525311584;-0.3334;0.0200;-0.0529;
5252257535414084;-0.2599;-0.0226;-0.0571;
5252257545516584;-0.2088;0.0317;-0.0944;
5252257555607469;-0.2013;0.0594;-0.0955;
5252257565709969;-0.1214;0.0264;-0.0891;
5252257575812417;-0.0266;-0.0067;-0.0891;
5252257585922678;0.0117;0.0008;-0.1040;
5252257596025178;0.0192;0.0136;-0.0838;
5252257606127625;0.0181;-0.0067;-0.0624;
5252257616227365;0.0437;-0.0407;-0.0294;
5252257626329813;0.0948;-0.0567;0.0036;
5252257636432313;0.1852;-0.0812;0.0025;
5252257646542157;0.2971;-0.0961;0.0441;
5252257656644657;0.3620;-0.0876;0.1027;
5252257666747157;0.4110;-0.0770;0.1485;
5252257676858719;0.4696;-0.0535;0.1889;
5252257686961219;0.4835;-0.0450;0.2571;
5252257697063667;0.4707;-0.0312;0.3081;
5252257707150594;0.4345;0.0242;0.3316;
5252257717253094;0.3802;0.0818;0.3582;
5252257727355594;0.3301;0.0818;0.3838;
5252257737474761;0.2992;0.0605;0.4040;
5252257747577209;0.2129;0.0722;0.4274;
5252257757679709;0.1204;0.0700;0.4445;
5252257767756428;0.0692;0.0391;0.4583;
5252257777858928;-0.0149;0.0285;0.4573;
5252257787961375;-0.0778;0.0061;0.4647;
5252257798066323;-0.1236;-0.0258;0.4732;
5252257808168823;-0.1800;0.0019;0.4679;
5252257818271271;-0.2003;0.0019;0.4711;
5252257828385698;-0.2216;-0.0003;0.4807;
5252257838488198;-0.2631;-0.0109;0.4818;
5252257848590646;-0.2983;-0.0152;0.4711;
5252257858698042;-0.3473;-0.0088;0.4498;
5252257868800542;-0.4059;-0.0184;0.4317;
5252257878902990;-0.4186;-0.0567;0.4242;
5252257888988615;-0.4494;-0.0503;0.4019;
5252257899091115;-0.5059;-0.0237;0.3656;
5252257909193563;-0.5069;0.0104;0.3582;
5252257919304657;-0.5101;0.0253;0.3273;
5252257929407157;-0.5069;-0.0141;0.3145;
5252257939509605;-0.5442;-0.0141;0.2804;
5252257949611219;-0.5655;-0.0035;0.2550;
5252257959713719;-0.5644;-0.0589;0.2273;
5252257969816167;-0.5698;-0.1004;0.2017;
5252257979922365;-0.5687;-0.1260;0.1687;
5252257990024865;-0.5389;-0.1089;0.1506;
5252258000127313;-0.4963;-0.0620;0.1442;
5252258010218823;-0.4537;0.0051;0.1229;
5252258020321323;-0.3952;0.0711;0.0963;
5252258030423771;-0.3292;0.0967;0.1165;
5252258040543719;-0.2876;0.1318;0.0995;
5252258050646219;-0.2812;0.1659;0.0782;
5252258060748719;-0.2823;0.1531;0.0611;
5252258070848303;-0.2844;0.1680;0.0324;
5252258080950803;-0.2929;0.1521;0.0302;
5252258091053303;-0.3015;0.0786;0.0473;
5252258101157573;-0.3174;0.0296;0.0398;
5252258111260021;-0.3302;0.0051;0.0217;
5252258121362521;-0.3142;0.0370;-0.0039;
5252258131462365;-0.2961;0.0786;-0.0060;
5252258141564865;-0.2929;0.0828;-0.0145;
5252258151667313;-0.2716;0.0690;-0.0124;
5252258161763042;-0.2642;0.0360;-0.0220;
5252258171865542;-0.2450;-0.0035;-0.0273;
5252258181968042;-0.2407;-0.0386;-0.0156;
5252258192070907;-0.2322;-0.0631;-0.0177;
5252258202173407;-0.2173;-0.0652;-0.0081;
5252258212275855;-0.2290;-0.0173;-0.0156;
5252258222393719;-0.2194;0.0210;-0.0177;
5252258232496167;-0.2333;-0.0013;-0.0177;
5252258242598667;-0.2450;-0.0290;-0.0273;
5252258252678823;-0.2578;0.0189;-0.0262;
5252258262781271;-0.2695;0.0679;-0.0497;
5252258272883771;-0.2471;0.0711;-0.0497;
5252258282993198;-0.2514;0.0445;-0.0656;
5252258293095646;-0.2461;0.0306;-0.0806;
5252258303198146;-0.2557;0.0530;-0.0912;
5252258313302365;-0.2461;0.0083;-0.1040;
5252258323404813;-0.2322;0.0157;-0.1146;
5252258333507313;-0.2226;0.0466;-0.1221;
5252258343607990;-0.2003;0.0423;-0.1328;
5252258353710438;-0.1736;0.0360;-0.1391;
5252258363812938;-0.1609;0.0360;-0.1583;
5252258373915594;-0.1374;0.0274;-0.1626;
5252258384018042;-0.1033;0.0093;-0.1413;
5252258394120542;-0.1182;0.0455;-0.1349;
5252258404223875;-0.1204;0.1084;-0.1477;
5252258414326323;-0.0724;0.0690;-0.1232;
5252258424428823;-0.0565;0.0541;-0.1093;
5252258434529292;-0.1023;0.0903;-0.1019;
5252258444631740;-0.1300;0.1212;-0.1168;
5252258454734240;-0.1108;0.0786;-0.1306;
5252258464831792;-0.1278;0.0626;-0.1296;
5252258474934240;-0.1907;0.0754;-0.1200;
5252258485036740;-0.1800;0.1052;-0.1594;
5252258495153303;-0.1523;0.1435;-0.1828;
5252258505255803;-0.1640;0.1595;-0.1754;
5252258515358250;-0.1715;0.1105;-0.1732;
5252258525468459;-0.1385;0.0413;-0.1562;
5252258535570907;-0.1534;0.0115;-0.1732;
5252258545673407;-0.1417;-0.0237;-0.1743;
5252258555774084;-0.1140;-0.0940;-0.1541;
5252258565876532;-0.1129;-0.0418;-0.1498;
5252258575978980;-0.1289;0.0083;-0.1296;
5252258586044553;-0.0873;0.0115;-0.1338;
5252258596147000;-0.0224;0.0264;-0.1317;
5252258606249500;-0.0181;0.1084;-0.1328;
5252258616386740;-0.0469;0.1670;-0.1264;
5252258626489188;-0.0021;0.1510;-0.1274;
5252258636591688;0.0256;0.0881;-0.1391;
5252258646697573;-0.0181;0.0487;-0.1573;
5252258656800021;-0.0724;-0.0045;-0.1636;
5252258666902521;-0.0820;-0.0684;-0.1626;
5252258676993303;-0.0607;-0.0876;-0.1722;
5252258687095750;-0.0565;-0.0929;-0.1764;
5252258697198250;-0.0373;-0.0887;-0.1647;
5252258707297573;-0.0128;-0.0876;-0.1690;
5252258717400021;0.0075;-0.0897;-0.1583;
5252258727502521;0.0383;-0.1089;-0.1668;
5252258737601636;0.0831;-0.0993;-0.1658;
5252258747704084;0.1065;-0.0258;-0.1434;
5252258757806584;0.1193;0.0221;-0.1338;
5252258767911428;0.1724;0.0402;-0.1391;
5252258778013875;0.1788;0.0509;-0.1317;
5252258788116375;0.1289;0.0956;-0.1360;
5252258798226428;0.0916;0.0860;-0.1413;
5252258808328875;0.0628;0.0306;-0.1690;
5252258818431375;0.0277;0.0285;-0.2031;
5252258828544709;0.0394;0.0977;-0.2148;
5252258838647105;0.0266;0.0626;-0.1764;
5252258848749605;0.0394;0.0296;-0.1658;
5252258858857990;0.0447;0.0242;-0.1636;
5252258868960438;0.0628;-0.0077;-0.1818;
5252258879062938;0.0788;-0.0258;-0.1860;
5252258889148719;0.1001;-0.0386;-0.1754;
5252258899251167;0.1363;-0.0802;-0.1615;
5252258909353667;0.1545;-0.0557;-0.1498;
5252258919456740;0.1385;0.0349;-0.1583;
5252258929559240;0.1523;0.0796;-0.1274;
5252258939661688;0.2087;0.0530;-0.1008;
5252258949766532;0.2268;0.0573;-0.1072;
5252258959868980;0.1810;0.0700;-0.1029;
5252258969971480;0.1545;0.0008;-0.0699;
5252258980074032;0.1204;0.0349;-0.0582;
5252258990176480;0.0618;-0.0141;-0.0614;
5252259000278980;0.0618;-0.0684;-0.0667;
5252259010374865;0.0394;-0.0887;-0.0571;
5252259020477313;0.0149;-0.0642;-0.0667;
5252259030579813;0.0149;-0.0290;-0.0699;
5252259040690803;0.0309;-0.0375;-0.0678;
5252259050793250;0.0554;-0.0280;-0.0667;
5252259060895750;0.0490;-0.0642;-0.0497;
5252259070982469;0.0746;-0.0887;-0.0348;
5252259081084917;0.0810;-0.0280;-0.0294;
5252259091187417;0.0799;0.0178;-0.0081;
5252259101319448;0.0863;0.0125;0.0324;
5252259111421948;0.0746;0.0796;0.0228;
5252259121524396;0.0575;0.0903;0.0164;
5252259131613667;0.0511;0.0146;0.0121;
5252259141716063;0.0192;0.0423;-0.0209;
5252259151818563;-0.0117;0.0764;-0.0273;
5252259161911532;-0.0096;-0.0226;-0.0262;
5252259172013980;0.0011;-0.0844;-0.0475;
5252259182116480;-0.0096;-0.0663;-0.0507;
5252259192227573;-0.0117;-0.0663;-0.0603;
5252259202330021;0.0426;-0.0834;-0.0401;
5252259212432521;0.0607;-0.0844;-0.0209;
5252259222542053;0.0714;-0.0855;0.0015;
5252259232644553;0.0916;-0.0727;0.0302;
5252259242746948;0.0554;-0.0205;0.0483;
5252259252847625;0.0501;-0.0248;0.0664;
5252259262950073;0.0501;-0.0290;0.0579;
5252259273052573;0.0096;0.0338;0.0238;
5252259283150125;-0.0298;0.0615;0.0174;
5252259293252573;-0.0479;0.0477;-0.0007;
5252259303355073;-0.0714;0.0956;-0.0454;
5252259313449240;-0.0863;0.1297;-0.0539;
5252259323551688;-0.0554;0.0413;-0.0518;
5252259333654188;-0.0075;-0.0525;-0.0475;
5252259343757365;-0.0309;-0.0546;-0.0720;
5252259353859813;-0.0075;-0.0620;-0.0624;
5252259363962313;0.0213;-0.0983;-0.0177;
5252259374067157;0.0170;-0.0482;-0.0071;
5252259384169605;0.0426;-0.0333;0.0270;
5252259394272105;0.0426;-0.0674;0.0206;
5252259404373198;0.0586;-0.0237;0.0015;
5252259414475646;0.0138;0.0423;-0.0081;
5252259424578146;0.0277;0.0850;-0.0230;
5252259434672678;0.0266;0.0924;-0.0273;
5252259444775178;0.0128;0.0413;-0.0241;
5252259454877625;0.0160;-0.0067;-0.0379;
5252259464984448;0.0043;-0.0216;-0.0443;
5252259475086948;-0.0224;-0.1068;-0.0465;
5252259485189396;-0.0021;-0.1675;-0.0390;
5252259495290855;-0.0075;-0.1313;-0.0166;
5252259505393303;-0.0075;-0.1025;0.0047;
5252259515495803;0.0064;-0.1132;0.0292;
5252259525595803;-0.0043;-0.0567;0.0100;
5252259535698250;0.0053;0.0722;0.0004;
5252259545800698;0.0053;0.0700;0.0132;
5252259555941167;0.0352;0.0658;-0.0092;
5252259566043667;0.0149;0.1073;-0.0145;
5252259576146167;-0.0138;0.1254;-0.0220;
5252259586217261;-0.0011;0.1158;-0.0422;
5252259596319709;-0.0107;0.0977;-0.0411;
5252259606422157;-0.0202;0.0796;-0.0539;
5252259616520803;-0.0085;0.0796;-0.0497;
5252259626623250;-0.0160;0.0636;-0.0358;
5252259636725750;0.0064;0.0178;-0.0497;
5252259646853719;0.0405;-0.0429;-0.0316;
5252259656956167;0.0330;-0.0546;-0.0337;
5252259667058667;0.0288;-0.0056;-0.0294;
5252259677159761;0.0415;-0.0003;-0.0134;
5252259687262209;0.0330;0.0178;-0.0316;
5252259697364657;0.0256;0.0498;-0.0348;
5252259707451740;0.0160;0.0605;-0.0401;
5252259717554188;0.0266;0.0189;-0.0571;
5252259727656688;0.0096;-0.0024;-0.0550;
5252259737748303;-0.0064;-0.0088;-0.0699;
5252259747850750;-0.0064;-0.0120;-0.0550;
5252259757953250;-0.0000;-0.0429;-0.0561;
5252259768060073;0.0192;-0.0919;-0.0390;
5252259778162521;-0.0000;-0.0652;-0.0465;
5252259788265021;-0.0021;-0.0461;-0.0593;
5252259798372886;0.0202;-0.0620;-0.0497;
5252259808475334;0.0192;-0.0631;-0.0656;
5252259818577834;0.0277;-0.0418;-0.0763;
5252259828689240;0.0202;-0.0226;-0.0891;
5252259838791688;0.0181;-0.0461;-0.0944;
5252259848894188;0.0256;-0.0876;-0.0923;
5252259859007573;0.0245;-0.0514;-0.1115;
5252259869110073;0.0437;0.0008;-0.1093;
5252259879212521;0.0415;-0.0322;-0.0806;
5252259889303875;0.0458;-0.0290;-0.0763;
5252259899406323;0.0607;-0.0280;-0.0763;
5252259909508823;0.0554;-0.0258;-0.0997;
5252259919611115;0.0554;0.0093;-0.0997;
5252259929713563;0.0479;0.0146;-0.0923;
5252259939816063;0.0597;0.0136;-0.0912;
5252259949914865;0.0533;0.0466;-0.1242;
5252259960017313;0.0671;0.0423;-0.1061;
5252259970119813;0.0671;0.0360;-0.0816;
5252259980220907;0.0501;-0.0067;-0.1274;
5252259990323355;0.0543;-0.0088;-0.1178;
5252260000425855;0.0543;-0.0141;-0.0880;
5252260010534136;0.0714;-0.0535;-0.0827;
5252260020636636;0.0873;-0.0301;-0.0742;
5252260030739084;0.0682;-0.0130;-0.0806;
5252260040833875;0.0959;0.0104;-0.0763;
5252260050936323;0.0959;0.0519;-0.0518;
5252260061038823;0.1055;0.0977;-0.0731;
5252260071142573;0.1300;0.1095;-0.0635;
5252260081245021;0.1065;0.0818;-0.0656;
5252260091347521;0.1065;0.0818;-0.0656;
5252260101474292;0.0884;0.0860;-0.0742;
5252260111576792;0.0565;0.0636;-0.0891;
5252260121679240;0.0650;0.0019;-0.0742;
5252260131764032;0.0724;-0.0866;-0.0635;
5252260141866480;0.0852;-0.0929;-0.0603;
5252260151968980;0.0586;-0.0791;-0.0869;
5252260162074344;0.0852;-0.1100;-0.0806;
5252260172176792;0.0937;-0.1153;-0.0603;
5252260182279292;0.1204;-0.0727;-0.0710;
5252260192376375;0.1278;-0.0567;-0.0646;
5252260202478823;0.1321;-0.0322;-0.0358;
5252260212581323;0.1427;-0.0024;-0.0316;
5252260222696428;0.1545;0.0104;-0.0262;
5252260232798875;0.1459;0.0764;-0.0326;
5252260242901323;0.1310;0.1180;-0.0198;
5252260252993303;0.1001;0.1105;-0.0241;
5252260263095750;0.1257;0.1180;-0.0518;
5252260273198250;0.1023;0.0924;-0.0784;
5252260283301532;0.0948;0.0935;-0.0891;
5252260293403980;0.0842;0.0679;-0.1093;
5252260303506480;0.1044;0.0391;-0.1083;
5252260313604136;0.1225;-0.0322;-0.0912;
5252260323706584;0.1150;-0.0866;-0.0901;
5252260333809084;0.1204;-0.0557;-0.0742;
5252260343930490;0.1236;-0.0301;-0.0454;
5252260354032938;0.1587;-0.0450;-0.0497;
5252260364135438;0.2108;-0.0876;-0.0241;
5252260374214344;0.1969;-0.0354;-0.0007;
5252260384316792;0.1778;0.0306;0.0142;
5252260394419292;0.1778;0.0786;-0.0188;
5252260404523615;0.1905;0.1222;-0.0188;
5252260414626115;0.1662;0.1244;-0.0401;
5252260424728563;0.1714;0.0999;-0.0667;
5252260434829657;0.1534;0.0999;-0.0720;
5252260444932105;0.1204;0.0732;-0.0699;
5252260455034657;0.1363;0.0019;-0.0582;
5252260465160125;0.1342;-0.0599;-0.0614;
5252260475262625;0.1236;-0.1132;-0.0401;
5252260485365125;0.1374;-0.1451;-0.0358;
5252260495439500;0.1577;-0.1345;-0.0177;
5252260505541948;0.1545;-0.1505;-0.0198;
5252260515644448;0.1810;-0.1228;-0.0252;
5252260525775282;0.1873;-0.0674;-0.0209;
5252260535877730;0.2321;-0.0674;-0.0081;
5252260545980230;0.2715;-0.0280;-0.0081;
5252260556083355;0.2577;-0.0226;-0.0081;
5252260566185855;0.2491;-0.0855;0.0121;
5252260576288355;0.2150;-0.0834;-0.0039;
5252260586372365;0.1724;-0.0812;-0.0177;
5252260596474813;0.1831;-0.0897;-0.0039;
5252260606577313;0.2033;-0.0514;0.0132;
5252260616701532;0.2225;-0.0099;0.0260;
5252260626803980;0.2225;0.0189;0.0153;
5252260636906480;0.2395;0.0115;0.0164;
5252260647008928;0.2747;-0.0184;0.0356;
5252260657111375;0.2768;-0.0035;0.0302;
5252260667213875;0.2779;0.0253;0.0387;
5252260677300490;0.2822;0.0328;0.0675;
5252260687402990;0.2758;0.0828;0.0846;
5252260697505438;0.2619;0.1009;0.1016;
5252260707609292;0.2502;0.0743;0.0899;
5252260717711740;0.2481;0.0615;0.1208;
5252260727814240;0.2246;0.0605;0.1208;
5252260737919761;0.2598;0.0573;0.1229;
5252260748022209;0.2278;0.0477;0.1389;
5252260758124709;0.2204;0.0541;0.1559;
5252260768226948;0.2268;0.0541;0.1570;
5252260778329396;0.2225;0.0828;0.1463;
5252260788431896;0.2065;0.1031;0.1570;
5252260798532678;0.2150;0.0860;0.1740;
5252260808635125;0.1820;0.0807;0.2028;
5252260818737625;0.1640;0.0551;0.2017;
5252260828855386;0.1714;0.0583;0.2166;
5252260838957834;0.1481;0.1063;0.2060;
5252260849060334;0.1662;0.0967;0.2103;
5252260859155907;0.1619;0.1126;0.1932;
5252260869258407;0.1502;0.1276;0.2071;
5252260879360855;0.1342;0.0807;0.2188;
5252260889446896;0.1395;0.0850;0.1911;
5252260899549344;0.1555;0.0636;0.2113;
5252260909651844;0.1321;0.0328;0.2326;
5252260919763615;0.1140;0.0391;0.2358;
5252260929866063;0.0969;0.0072;0.2454;
5252260939968563;0.0927;-0.0077;0.2411;
5252260950073615;0.0788;0.0242;0.2326;
5252260960176115;0.0980;0.0349;0.2497;
5252260970278563;0.1044;0.0466;0.2379;
5252260980372053;0.1204;0.0189;0.2539;
5252260990474500;0.0937;0.0210;0.2772;
5252261000577000;0.0650;0.0828;0.2497;
5252261010678303;0.1065;0.0498;0.2603;
5252261020780803;0.0895;0.0008;0.2731;
5252261030883250;0.0469;0.0381;0.2943;
5252261041001948;0.0330;0.0072;0.3028;
5252261051104396;0.0160;-0.0439;0.3188;
5252261061206948;-0.0277;0.0093;0.3241;
5252261071294969;-0.0660;0.0157;0.3262;
5252261081397417;-0.0628;0.0093;0.3145;
5252261091499917;-0.0852;0.0306;0.3039;
5252261101618771;-0.1278;0.0477;0.3134;
5252261111721271;-0.1534;0.0679;0.2889;
5252261121823719;-0.1523;0.0466;0.2710;
5252261131915282;-0.1672;0.0360;0.2624;
5252261142017782;-0.1896;0.0157;0.2762;
5252261152120230;-0.1992;-0.0461;0.2762;
5252261162228094;-0.1939;-0.1025;0.2804;
5252261172330542;-0.1800;-0.0535;0.2879;
5252261182433042;-0.1747;-0.0173;0.2720;
5252261192531948;-0.1417;-0.0162;0.2847;
5252261202634448;-0.1246;0.0072;0.2751;
5252261212736896;-0.1385;0.0264;0.2900;
5252261222863303;-0.1332;0.0541;0.2678;
5252261232965750;-0.1225;0.0828;0.2550;
5252261243068250;-0.1363;0.0562;0.2731;
5252261253148615;-0.1736;0.0828;0.2751;
5252261263251167;-0.1811;0.0690;0.2710;
5252261273353719;-0.1790;0.0072;0.2635;
5252261283454292;-0.1928;0.0253;0.2614;
5252261293556844;-0.1949;0.0178;0.2624;
5252261303659396;-0.1747;-0.0248;0.2772;
5252261313758459;-0.1917;-0.0375;0.2571;
5252261323861011;-0.1843;-0.0546;0.2688;
5252261333963563;-0.1939;-0.0141;0.2614;
5252261344070594;-0.2067;0.0093;0.2475;
5252261354173146;-0.2130;0.0093;0.2443;
5252261364275698;-0.2567;0.0274;0.2358;
5252261374379761;-0.2929;-0.0280;0.2550;
5252261384482313;-0.3153;-0.0248;0.2284;
5252261394584865;-0.3302;0.0498;0.2369;
5252261404680490;-0.3909;0.0370;0.2348;
5252261414783042;-0.3899;-0.0099;0.2198;
5252261424885594;-0.4080;0.0242;0.1847;
5252261434989709;-0.4451;0.0306;0.1719;
5252261445092313;-0.4526;0.0445;0.1293;
5252261455194865;-0.4240;0.0434;0.0931;
5252261465284657;-0.4304;0.0487;0.0750;
5252261475387209;-0.4430;0.0690;0.0739;
5252261485489761;-0.4314;0.0477;0.0643;
5252261495598928;-0.3931;0.0626;0.0441;
5252261505701480;-0.3845;0.0541;0.0462;
5252261515804032;-0.3537;0.0423;0.0334;
5252261525907261;-0.3281;0.0509;0.0111;
5252261536009813;-0.2951;0.0402;-0.0007;
5252261546112365;-0.2919;0.0690;-0.0113;
5252261556214969;-0.2716;0.0711;-0.0422;
5252261566317521;-0.2514;0.0605;-0.0571;
5252261576420073;-0.2791;0.0594;-0.0571;
5252261586524553;-0.2716;0.0626;-0.0486;
5252261596627105;-0.2567;0.0317;-0.0433;
5252261606729657;-0.2418;0.0402;-0.0497;
5252261616840907;-0.2514;0.0722;-0.0486;
5252261626943459;-0.2589;0.0583;-0.0507;
5252261637046011;-0.2397;0.0573;-0.0582;
5252261647161219;-0.2535;0.0583;-0.0880;
5252261657263771;-0.2290;0.0210;-0.1072;
5252261667366323;-0.2205;-0.0205;-0.1178;
5252261677436636;-0.2109;-0.0088;-0.1391;
5252261687539188;-0.2216;0.0157;-0.1434;
5252261697641740;-0.2045;0.0040;-0.1317;
5252261707765490;-0.1704;-0.0312;-0.1210;
5252261717868042;-0.1822;0.0072;-0.1445;
5252261727970594;-0.1981;0.0253;-0.1391;
5252261738077886;-0.1822;0.0391;-0.1360;
5252261748180438;-0.1907;0.0210;-0.1541;
5252261758282990;-0.2077;0.0168;-0.1924;
5252261768379136;-0.2099;0.0583;-0.2031;
5252261778481688;-0.2088;0.0764;-0.2286;
5252261788584240;-0.2109;0.0850;-0.2329;
5252261798686115;-0.2290;0.0881;-0.2425;
5252261808788667;-0.1981;0.0083;-0.2489;
5252261818891219;-0.1822;-0.0610;-0.2627;
5252261829012313;-0.1811;-0.0226;-0.2712;
5252261839114917;-0.1928;-0.0035;-0.2766;
5252261849217469;-0.1747;-0.0152;-0.2510;
5252261859300490;-0.1822;-0.0056;-0.2925;
5252261869403042;-0.1672;0.1233;-0.3202;
5252261879505594;-0.1726;0.1798;-0.3245;
5252261889603459;-0.1246;0.0775;-0.3256;
5252261899706011;-0.0437;0.0700;-0.3277;
5252261909808563;-0.0831;0.0903;-0.3371;
5252261919911636;-0.1342;-0.0162;-0.3256;
5252261930014188;-0.0842;-0.0290;-0.3553;
5252261940116740;-0.0660;-0.0024;-0.3744;
5252261950233928;-0.0746;-0.0365;-0.3659;
5252261960336480;-0.0415;-0.0589;-0.3638;
5252261970439032;-0.0138;-0.0887;-0.3659;
5252261980538146;0.0085;-0.1196;-0.3563;
5252261990640750;0.0437;-0.1611;-0.3585;
5252262000743303;0.0628;-0.1302;-0.3648;
5252262010836115;0.0660;-0.0461;-0.3616;
5252262020938667;0.0692;-0.0727;-0.3202;
5252262031041219;0.1012;-0.0695;-0.3032;
5252262041144969;0.1257;0.0402;-0.3256;
5252262051247521;0.1214;0.0690;-0.3224;
5252262061350125;0.1481;0.0455;-0.2979;
5252262071462625;0.2055;0.0775;-0.3117;
5252262081565178;0.2332;0.0764;-0.3085;
5252262091667730;0.2310;0.0498;-0.2734;
5252262101744553;0.2332;0.0264;-0.2830;
5252262111847105;0.2726;0.0573;-0.2819;
5252262121949657;0.2662;0.0881;-0.2499;
5252262132083042;0.2662;-0.0099;-0.2084;
5252262142185594;0.2853;-0.0194;-0.2169;
5252262152288146;0.2726;0.0232;-0.1967;
5252262162379240;0.2577;0.0072;-0.1487;
5252262172481792;0.2577;0.0093;-0.1136;
5252262182584344;0.2502;-0.0013;-0.1317;
5252262192686844;0.2438;0.0168;-0.1381;
5252262202789396;0.1991;0.0615;-0.1274;
5252262212891948;0.1692;0.0743;-0.1317;
5252262222980073;0.1799;0.0296;-0.1296;
5252262233082625;0.1788;-0.0099;-0.1232;
5252262243185178;0.1502;0.0168;-0.0933;
5252262253306428;0.1342;0.0700;-0.1040;
5252262263409032;0.1692;0.0168;-0.0933;
5252262273511584;0.1513;-0.0088;-0.0838;
5252262283611219;0.1470;0.0370;-0.0912;
5252262293713823;0.1491;0.0253;-0.1253;
5252262303816375;0.1714;-0.0024;-0.1136;
5252262313915386;0.1459;0.0040;-0.1029;
5252262324017990;0.1353;0.0679;-0.1242;
5252262334120542;0.1395;0.0360;-0.1296;
5252262344230178;0.1714;-0.0716;-0.1083;
5252262354332782;0.1672;-0.0759;-0.1125;
5252262364435334;0.1459;-0.0919;-0.1019;
5252262374519657;0.1619;-0.1356;-0.0901;
5252262384622261;0.1587;-0.1462;-0.0742;
5252262394724813;0.1619;-0.1505;-0.0742;
5252262404841948;0.1609;-0.0716;-0.0965;
5252262414944553;0.1640;-0.0109;-0.0774;
5252262425047105;0.1735;-0.0237;-0.0582;
5252262435153459;0.1820;0.0221;-0.0539;
5252262445256063;0.1842;0.0125;-0.0454;
5252262455358615;0.1884;-0.0162;-0.0390;
5252262465444865;0.1672;-0.0003;-0.0571;
5252262475547469;0.1438;0.0093;-0.0667;
5252262485650073;0.1310;0.0370;-0.0422;
5252262495774917;0.1438;0.0242;-0.0390;
5252262505877521;0.1523;-0.0248;-0.0518;
5252262515980125;0.1703;-0.0216;-0.0230;
5252262526054032;0.1534;-0.0578;0.0089;
5252262536156636;0.1427;-0.0493;0.0164;
5252262546259188;0.1246;-0.0674;0.0302;
5252262556379553;0.1278;-0.1430;0.0451;
5252262566482105;0.1257;-0.0940;0.0462;
5252262576584709;0.1065;0.0083;0.0419;
5252262586677990;0.1076;0.0317;0.0739;
5252262596780594;0.1161;0.0264;0.0920;
5252262606883146;0.1278;0.0317;0.0739;
5252262616989969;0.1257;0.0551;0.0814;
5252262627092573;0.1033;0.0839;0.1037;
5252262637195125;0.0895;0.0977;0.1005;
5252262647299448;0.0916;0.0690;0.1048;
5252262657402053;0.0767;0.0786;0.1144;
5252262667504657;0.0639;0.1329;0.1027;
5252262677595698;0.0565;0.1148;0.0909;
5252262687698303;0.0959;0.0796;0.1176;
5252262697800855;0.0852;0.1084;0.1325;
5252262707922782;0.0884;0.1393;0.1378;
5252262718025386;0.1023;0.1478;0.1144;
5252262728127938;0.1023;0.1329;0.1474;
5252262738220073;0.0714;0.1553;0.1453;
5252262748322625;0.0639;0.1478;0.1367;
5252262758425230;0.0447;0.0626;0.1463;
5252262768534969;0.0522;0.0274;0.1431;
5252262778637573;0.0320;-0.0429;0.1378;
5252262788740125;-0.0085;-0.1622;0.1261;
5252262798852678;-0.0128;-0.2069;0.1272;
5252262808955282;0.0085;-0.2506;0.1453;
5252262819057834;0.0256;-0.2485;0.1314;
5252262829159240;0.0309;-0.1963;0.1336;
5252262839261844;0.0266;-0.1835;0.1676;
5252262849364396;-0.0181;-0.1931;0.1517;
5252262859461948;-0.0075;-0.1920;0.1389;
5252262869564553;-0.0266;-0.1569;0.1346;
5252262879667105;-0.0628;-0.1015;0.1165;
5252262889765907;-0.0905;0.0029;0.0888;
5252262899868511;-0.0905;0.1276;0.0835;
5252262909971115;-0.0650;0.1680;0.0654;
5252262920074657;0.0085;0.1457;0.0398;
5252262930177261;0.0394;0.1414;0.0132;
5252262940279813;0.0373;0.1063;0.0377;
5252262950384136;0.0234;0.0818;0.0398;
5252262960486740;0.0085;0.0999;0.0281;
5252262970589344;-0.0011;0.1084;0.0377;
5252262980705698;0.0075;0.0658;0.0260;
5252262990808303;0.0309;0.0349;0.0015;
5252263000910855;0.0575;0.0626;0.0292;
5252263011003928;0.0778;0.0445;0.0611;
5252263021106480;0.1023;0.0093;0.0877;
5252263031209084;0.0895;-0.0333;0.0803;
5252263041304032;0.0628;-0.1015;0.0931;
5252263051406584;0.0224;-0.1047;0.1016;
5252263061509188;-0.0053;-0.0993;0.0984;
5252263071602469;-0.0320;-0.1888;0.0909;
5252263081705073;-0.0639;-0.1952;0.0654;
5252263091807678;-0.0842;-0.1920;0.0451;
5252263101922990;-0.0905;-0.1664;0.0473;
5252263112025542;-0.0937;-0.2154;0.0792;
5252263122128146;-0.0660;-0.2772;0.0909;
5252263132230698;-0.0533;-0.2122;0.0771;
5252263142325490;-0.0660;-0.1526;0.0750;
5252263152428042;-0.0703;-0.0610;0.0771;
5252263162530646;-0.0660;0.0871;0.0558;
5252263172633615;-0.0469;0.0807;0.0441;
5252263182736219;-0.0245;0.1382;0.0345;
5252263192838771;-0.0149;0.2499;0.0132;
5252263202974292;-0.0075;0.2043;0.0111;
5252263213076896;-0.0000;0.1478;0.0366;
5252263223179500;0.0064;0.1382;0.0238;
5252263233251844;0.0213;0.1020;0.0174;
5252263243354448;0.0032;0.0306;0.0196;
5252263253457000;0.0479;0.0274;0.0537;
5252263263565073;0.0703;0.0402;0.0590;
5252263273667625;0.0724;0.0157;0.0675;
5252263283770230;0.0607;0.0434;0.0888;
5252263293865490;0.0234;0.0423;0.1133;
5252263303968042;0.0149;0.0146;0.1261;
5252263314070646;0.0043;0.0115;0.1527;
5252263324175542;-0.0288;0.0711;0.1495;
5252263334278094;-0.0533;0.1052;0.1346;
5252263344380698;-0.0703;0.0562;0.1250;
5252263354505282;-0.0746;0.0881;0.1133;
5252263364607886;-0.0884;0.0423;0.1048;
5252263374710438;-0.0831;-0.0589;0.1005;
5252263384809657;-0.0703;-0.0152;0.0867;
5252263394912209;-0.0852;-0.0471;0.1016;
5252263405014813;-0.0905;-0.1004;0.1016;
5252263415092365;-0.0735;-0.0972;0.1016;
5252263425194917;-0.0756;-0.1270;0.0867;
5252263435297521;-0.0469;-0.1206;0.0856;
5252263445411323;-0.0501;-0.0940;0.0718;
5252263455513928;-0.0682;-0.0162;0.0632;
5252263465616480;-0.0575;0.0019;0.0515;
5252263475756792;-0.0245;-0.0258;0.0526;
5252263485859396;-0.0138;0.0221;0.0324;
5252263495962000;-0.0256;-0.0067;0.0228;
5252263506014553;-0.0373;-0.0322;0.0260;
5252263516117105;-0.0138;-0.0045;0.0398;
5252263526219709;-0.0202;-0.0024;0.0419;
5252263536338980;-0.0107;-0.0322;0.0419;
5252263546441584;-0.0234;-0.0844;0.0153;
5252263556544188;-0.0266;-0.0727;0.0111;
5252263566626792;-0.0383;-0.1398;0.0142;
5252263576729344;-0.0234;-0.1505;0.0164;
5252263586831948;-0.0298;-0.0088;0.0068;
5252263596939448;-0.0192;0.0200;0.0430;
5252263607042000;-0.0320;0.0423;0.0579;
5252263617144605;-0.0032;0.1265;0.0601;
5252263627257261;-0.0202;0.1595;0.0728;
5252263637359813;-0.0192;0.2085;0.0728;
5252263647462417;-0.0394;0.2648;0.0505;
5252263657566115;-0.0501;0.3266;0.0409;
5252263667668667;-0.0533;0.3202;0.0292;
5252263677771271;-0.0373;0.2915;0.0196;
5252263687880750;-0.0362;0.2585;0.0036;
5252263697983355;-0.0330;0.1648;0.0164;
5252263708085959;-0.0479;0.0317;0.0302;
5252263718175282;-0.0213;-0.0620;0.0505;
5252263728277834;0.0011;-0.0844;0.0750;
5252263738380438;-0.0256;-0.1356;0.0909;
5252263748499969;-0.0469;-0.1473;0.0814;
5252263758602521;-0.0575;-0.1142;0.1005;
5252263768705125;-0.0767;-0.1068;0.0952;
5252263778792157;-0.0650;-0.0663;0.0760;
5252263788894709;-0.0810;-0.0407;0.0654;
5252263798997313;-0.1087;-0.0514;0.0718;
5252263809110907;-0.1289;-0.0056;0.0494;
5252263819213459;-0.1438;0.0338;0.0441;
5252263829316063;-0.1406;0.0328;0.0334;
5252263839395698;-0.1108;0.0008;0.0174;
5252263849498303;-0.1214;0.0402;-0.0273;
5252263859600855;-0.1342;0.0083;-0.0198;
5252263869711428;-0.1268;-0.0993;-0.0369;
5252263879813980;-0.0980;-0.0738;-0.0593;
5252263889916584;-0.1161;-0.0738;-0.0859;
5252263900027469;-0.1087;-0.1430;-0.0859;
5252263910130021;-0.0937;-0.1867;-0.0774;
5252263920232625;-0.0639;-0.1611;-0.0774;
5252263930334865;-0.0458;-0.1174;-0.0688;
5252263940437417;-0.0501;-0.1089;-0.0795;
5252263950540021;-0.0469;-0.0557;-0.0731;
5252263960640698;-0.0309;-0.0269;-0.0401;
5252263970743250;-0.0298;0.0051;-0.0699;
5252263980845855;-0.0213;0.1723;-0.0891;
5252263990939969;-0.0266;0.2659;-0.0976;
5252264001042521;-0.0128;0.2489;-0.0561;
5252264011145125;-0.0117;0.2201;-0.0720;
5252264021278980;0.0138;0.2478;-0.0774;
5252264031381584;-0.0128;0.2233;-0.0838;
5252264041484188;-0.0405;0.1371;-0.0827;
5252264051559657;-0.0277;0.1329;-0.0901;
5252264061662261;-0.0192;0.0690;-0.0795;
5252264071764813;-0.0107;0.0178;-0.0784;
5252264081881740;-0.0085;-0.0844;-0.0699;
5252264091984292;-0.0202;-0.2826;-0.0667;
5252264102086896;-0.0021;-0.3443;-0.0646;
5252264112186115;0.0170;-0.2964;-0.0411;
5252264122288667;0.0117;-0.1899;-0.0198;
5252264132391271;-0.0107;-0.1824;0.0132;
5252264142473719;-0.0149;-0.0695;-0.0103;
5252264152576271;-0.0160;0.0402;-0.0113;
5252264162678875;-0.0426;-0.0397;-0.0039;
5252264172802782;-0.0075;0.0029;-0.0337;
5252264182905334;-0.0277;0.1371;-0.0742;
5252264193007938;-0.0554;0.1616;-0.0869;
5252264203077625;-0.0394;0.1414;-0.1083;
5252264213180178;-0.0202;0.0786;-0.1178;
5252264223282782;0.0053;0.0466;-0.0880;
5252264233413407;-0.0064;0.0541;-0.0955;
5252264243515959;-0.0288;-0.0035;-0.1104;
5252264253618563;-0.0149;-0.0663;-0.0987;
5252264263732261;0.0043;-0.1036;-0.0955;
5252264273834917;0.0213;-0.0184;-0.0944;
5252264283937625;-0.0021;0.0115;-0.1051;
5252264294021323;-0.0043;-0.0567;-0.0880;
5252264304123980;0.0117;-0.0897;-0.0869;
5252264314226688;0.0383;-0.0301;-0.0731;
5252264324332573;0.0128;-0.0013;-0.0667;
5252264334435230;0.0117;-0.0429;-0.0507;
5252264344537938;0.0021;0.0168;-0.0774;
5252264354630282;0.0011;-0.0003;-0.0635;
5252264364732938;0.0224;-0.0045;-0.0656;
5252264374835646;0.0117;0.0860;-0.0859;
5252264384952053;0.0064;0.0860;-0.0848;
5252264395054709;-0.0032;0.0626;-0.0944;
5252264405157417;0.0170;0.0498;-0.0933;
5252264415317886;0.0341;0.0178;-0.0944;
5252264425420542;0.0277;-0.0162;-0.0901;
5252264435523198;0.0181;-0.0226;-0.0901;
5252264445563303;0.0234;-0.0397;-0.0965;
5252264455665959;0.0533;-0.0759;-0.0901;
5252264465768667;0.0692;-0.0333;-0.1029;
5252264475987730;0.0724;0.0115;-0.1040;
5252264486090438;0.0628;-0.0567;-0.0891;
5252264496193094;0.0873;-0.1153;-0.0667;
5252264506177469;0.1246;-0.0130;-0.0710;
5252264516280125;0.0969;0.0850;-0.0603;
5252264526382834;0.0650;0.0360;-0.0337;
5252264536489865;0.0575;0.0146;-0.0603;
5252264546592573;0.0735;0.0210;-0.0869;
5252264556695230;0.0810;-0.0024;-0.0827;
5252264566790282;0.0575;0.0509;-0.1370;
5252264576892938;0.0522;0.0391;-0.1434;
5252264586995646;0.0543;-0.0652;-0.1093;
5252264597098198;0.0565;-0.1047;-0.1242;
5252264607200855;0.0820;-0.1803;-0.1296;
5252264617303563;0.0916;-0.2293;-0.1189;
5252264627402469;0.1353;-0.0908;-0.0880;
5252264637505178;0.1342;0.0338;-0.0912;
5252264647607834;0.1225;-0.0248;-0.0848;
5252264657723094;0.1852;-0.0216;-0.0838;
5252264667825803;0.2172;0.1340;-0.0891;
5252264677928459;0.1672;0.1457;-0.0901;
5252264688011011;0.1438;0.0807;-0.0593;
5252264698113667;0.1374;0.1233;-0.0646;
5252264708216375;0.1523;0.1616;-0.1040;
5252264718322573;0.1598;0.0786;-0.0731;
5252264728425282;0.1278;0.0391;-0.0379;
5252264738527938;0.1406;0.0956;-0.0475;
5252264748654761;0.1630;0.0956;-0.0103;
5252264758757417;0.1502;0.1371;-0.0262;
5252264768860125;0.1545;0.1308;-0.0124;
5252264778952886;0.1257;0.0679;0.0196;
5252264789055542;0.1033;-0.0056;0.0356;
5252264799158250;0.1108;0.0146;0.0185;
5252264809260073;0.0905;-0.0045;0.0409;
5252264819362730;0.0852;-0.0397;0.0547;
5252264829465438;0.0714;-0.0834;0.0643;
5252264839553042;0.0810;-0.1803;0.0814;
5252264849655750;0.0788;-0.2112;0.1165;
5252264859758355;0.0778;-0.1462;0.0995;
5252264869878615;0.0458;-0.1643;0.1005;
5252264879981271;0.0458;-0.1654;0.1378;
5252264890083928;0.0458;-0.0525;0.1229;
5252264900180386;0.0714;0.0381;0.1208;
5252264910283094;0.0597;0.0636;0.1314;
5252264920385750;0.0362;0.1190;0.1389;
5252264930479865;0.0277;0.0658;0.1133;
5252264940582521;0.0522;0.1350;0.1048;
5252264950685230;0.0160;0.1595;0.0856;
5252264960791740;0.0064;0.0626;0.0920;
5252264970894448;0.0075;0.0466;0.1144;
5252264980997105;0.0469;0.0253;0.1091;
5252264991101428;0.0724;-0.0365;0.0984;
5252265001204084;0.0628;-0.1260;0.1485;
5252265011306792;0.0628;-0.1164;0.1932;
5252265021413407;0.0650;-0.0759;0.2039;
5252265031516063;0.0543;-0.1068;0.2007;
5252265041618719;0.0522;-0.0375;0.2081;
5252265051718303;0.0202;0.0381;0.1762;
5252265061820959;0.0149;0.0796;0.1666;
5252265071923667;-0.0107;0.0626;0.1900;
5252265082018094;-0.0330;0.0445;0.1911;
5252265092120803;-0.0341;0.0690;0.1783;
5252265102223459;-0.0330;0.0722;0.1911;
5252265112337469;-0.0245;0.0530;0.2103;
5252265122440125;-0.0362;-0.0354;0.2028;
5252265132542834;-0.0128;-0.0514;0.2209;
5252265142634448;0.0021;-0.0184;0.2071;
5252265152737105;-0.0075;-0.0109;0.2113;
5252265162839761;-0.0138;-0.0056;0.1921;
5252265172952886;-0.0117;-0.0269;0.2124;
5252265183055542;-0.0298;-0.0109;0.2071;
5252265193158250;-0.0362;-0.0312;0.2177;
5252265203242053;-0.0469;-0.0003;0.2273;
5252265213344709;-0.0650;-0.0003;0.2284;
5252265223447417;-0.0628;-0.0503;0.2326;
5252265233569136;-0.0490;0.0668;0.2348;
5252265243671792;-0.0607;0.0956;0.1996;
5252265253774500;-0.0842;0.0668;0.1964;
5252265263886896;-0.1044;0.0413;0.2177;
5252265273989500;-0.0873;0.0178;0.1985;
5252265284092105;-0.0639;0.0349;0.1953;
5252265294187365;-0.0714;0.0690;0.2252;
5252265304289969;-0.0842;0.1126;0.2422;
5252265314392521;-0.0842;0.0711;0.2284;
5252265324477053;-0.1076;0.0796;0.2273;
5252265334579657;-0.1513;0.0530;0.2017;
5252265344682209;-0.1609;-0.0546;0.1751;
5252265354792782;-0.1534;-0.0993;0.1719;
5252265364895334;-0.1449;-0.1164;0.1815;
5252265374997938;-0.1118;-0.1366;0.1953;
5252265385121532;-0.0820;-0.0972;0.2124;
5252265395224084;-0.0937;-0.0333;0.2369;
5252265405326688;-0.1033;0.0136;0.2656;
5252265415412678;-0.1150;0.0743;0.2656;
5252265425515282;-0.1140;0.2158;0.2454;
5252265435617834;-0.1598;0.3000;0.2401;
5252265445760282;-0.2429;0.3032;0.2230;
5252265455862886;-0.2951;0.2766;0.1889;
5252265465965490;-0.3142;0.2201;0.1549;
5252265476007886;-0.2876;0.1222;0.1378;
5252265486110438;-0.2471;0.0221;0.1666;
5252265496213094;-0.2130;-0.0897;0.1730;
5252265506344188;-0.1683;-0.2165;0.1772;
5252265516446792;-0.1470;-0.2346;0.1996;
5252265526549344;-0.1438;-0.2208;0.1985;
5252265536646844;-0.1704;-0.1888;0.2081;
5252265546749396;-0.1779;-0.0961;0.2028;
5252265556852000;-0.1832;-0.0610;0.2039;
5252265566961740;-0.2333;0.0083;0.1847;
5252265577064344;-0.2546;0.0722;0.1900;
5252265587166896;-0.2770;0.1180;0.2007;
5252265597256323;-0.2770;0.1489;0.1911;
5252265607358928;-0.3036;0.1553;0.1687;
5252265617461532;-0.2887;0.1989;0.1453;
5252265627576532;-0.2663;0.1425;0.1357;
5252265637679136;-0.2620;0.0924;0.1176;
5252265647781688;-0.2301;0.0913;0.1346;
5252265657875698;-0.2248;-0.0152;0.1378;
5252265667978303;-0.2152;-0.0397;0.1325;
5252265678080855;-0.2312;-0.0599;0.1453;
5252265688168303;-0.2450;-0.1089;0.1474;
5252265698270907;-0.2386;-0.1558;0.1389;
5252265708373511;-0.2514;-0.0919;0.1208;
5252265718484969;-0.2748;-0.0418;0.1112;
5252265728587573;-0.3281;-0.0620;0.1048;
5252265738690125;-0.3622;-0.0226;0.0750;
5252265748812573;-0.3590;-0.0088;0.0846;
5252265758915178;-0.3867;-0.0152;0.0899;
5252265769017730;-0.4069;0.0487;0.0718;
5252265779107625;-0.3995;0.0732;0.0505;
5252265789210230;-0.3877;0.0285;0.0260;
5252265799312782;-0.3632;0.0370;0.0174;
5252265809415125;-0.3473;0.0967;-0.0017;
5252265819517730;-0.3462;0.0945;-0.0262;
5252265829620282;-0.3079;0.0668;-0.0401;
5252265839733719;-0.2961;0.0892;-0.0305;
5252265849836323;-0.3153;0.0360;-0.0337;
5252265859938875;-0.2961;0.0157;-0.0326;
5252265870030073;-0.3121;0.0732;-0.0454;
5252265880132678;-0.3057;0.0509;-0.0411;
5252265890235230;-0.3142;0.0615;-0.0593;
5252265900333198;-0.3292;0.0988;-0.0667;
5252265910435803;-0.3505;0.1105;-0.0944;
5252265920538355;-0.3590;0.0903;-0.1072;
5252265930653407;-0.3739;0.0189;-0.1232;
5252265940756011;-0.3398;-0.0301;-0.1221;
5252265950858563;-0.3047;0.0242;-0.1466;
5252265960942990;-0.3121;0.0732;-0.1157;
5252265971045594;-0.3260;-0.0184;-0.1093;
5252265981148198;-0.2951;-0.0599;-0.1541;
5252265991253615;-0.2876;0.0040;-0.1754;
5252266001356219;-0.3089;0.0509;-0.1807;
5252266011458823;-0.3057;0.0658;-0.2126;
5252266021560959;-0.2961;0.0519;-0.2446;
5252266031663563;-0.2759;0.0636;-0.2595;
5252266041766167;-0.2663;0.0636;-0.2446;
5252266051872886;-0.2471;0.0274;-0.2371;
5252266061975490;-0.2141;-0.0077;-0.2308;
5252266072078042;-0.2312;0.0083;-0.2691;
5252266082174865;-0.2450;0.1052;-0.3192;
5252266092277469;-0.2333;0.1286;-0.3149;
5252266102380021;-0.2450;0.0935;-0.3192;
5252266112500073;-0.2631;0.0210;-0.3361;
5252266122602678;-0.2312;0.0455;-0.3872;
5252266132705230;-0.2077;0.1350;-0.4213;
5252266142815490;-0.2365;0.1968;-0.4351;
5252266152918042;-0.2003;0.1787;-0.4160;
5252266163020646;-0.1907;0.0903;-0.3840;
5252266173105698;-0.1704;0.1371;-0.4543;
5252266183208303;-0.0692;0.2128;-0.4596;
5252266193310855;-0.1321;0.1606;-0.4596;
5252266203393823;-0.0937;0.1585;-0.4841;
5252266213496428;-0.0522;0.1872;-0.5129;
5252266223598980;-0.0469;0.0274;-0.5204;
5252266233733928;0.0383;-0.0706;-0.4863;
5252266243836532;0.0426;-0.0866;-0.4735;
5252266253939084;0.0682;-0.0844;-0.4586;
5252266264019657;0.0692;-0.0578;-0.4778;
5252266274122053;0.0554;0.0296;-0.4607;
5252266284224448;0.0383;0.0115;-0.4778;
5252266294349865;0.0628;0.0317;-0.5023;
5252266304452261;0.0543;0.0370;-0.4905;
5252266314554657;0.0309;-0.0599;-0.4469;
5252266324627573;0.0085;-0.2655;-0.4458;
5252266334729969;0.0224;-0.4582;-0.4415;
5252266344832365;0.1150;-0.5221;-0.4586;
5252266354948198;0.2353;-0.5178;-0.4618;
5252266365050594;0.3514;-0.4145;-0.4469;
5252266375152990;0.4196;-0.2069;-0.3968;
5252266385329865;0.3397;-0.1366;-0.3616;
5252266395432261;0.2129;-0.2091;-0.3202;
5252266405534657;0.2193;-0.1505;-0.2957;
5252266415541011;0.2971;-0.1334;-0.2840;
5252266425643459;0.2651;0.0125;-0.3128;
5252266435745855;0.3226;0.6270;-0.3181;
5252266445934709;0.3098;0.9774;-0.3213;
5252266456037105;0.1959;0.8209;-0.2883;
5252266466139500;0.1449;0.5258;-0.2659;
5252266476149500;0.2406;0.3852;-0.2542;
5252266486251948;0.2960;0.3128;-0.2521;
5252266496354344;0.3077;0.0935;-0.2190;
5252266506504761;0.3312;-0.0770;-0.1754;
5252266516607157;0.3983;-0.1473;-0.1423;
5252266526709553;0.3237;-0.0429;-0.1285;
5252266536791271;0.3003;-0.4997;-0.0145;
5252266546893667;0.3439;-0.7043;0.0483;
5252266556996063;0.2246;-0.3422;0.0334;
5252266567085490;0.0618;-0.1867;0.0441;
5252266577187886;-0.0075;-0.0674;0.0632;
5252266587290282;-0.0202;-0.0184;0.0387;
5252266597402886;0.0213;0.1031;-0.0390;
5252266607505282;-0.0405;0.3096;-0.0923;
5252266617607678;-0.0788;0.2361;-0.1306;
5252266627704448;0.0288;0.1201;-0.1615;
5252266637806844;0.0490;0.2776;-0.1977;
5252266647909240;-0.0256;0.0871;-0.2031;
5252266658025282;0.0245;-0.0620;-0.2095;
5252266668127678;0.0533;-0.0589;-0.2403;
5252266678230073;0.0426;-0.2240;-0.2638;
5252266688332365;0.1055;-0.2581;-0.2212;
5252266698434761;0.0842;-0.2272;-0.2425;
5252266708537157;0.0948;-0.2698;-0.2499;
5252266718634761;0.1385;-0.2016;-0.2403;
5252266728737157;0.1873;-0.0397;-0.2371;
5252266738839553;0.1937;0.0317;-0.2489;
5252266748944657;0.2523;0.0647;-0.2499;
5252266759047053;0.3109;0.1031;-0.2478;
5252266769149448;0.3152;0.0807;-0.2382;
5252266779262469;0.2736;0.1787;-0.2819;
5252266789364865;0.2853;0.1073;-0.2563;
5252266799467261;0.2726;0.0264;-0.2510;
5252266809555959;0.2949;0.1734;-0.2457;
5252266819658355;0.2896;0.0306;-0.1871;
5252266829760750;0.2960;-0.1047;-0.1700;
5252266839886948;0.2992;-0.0727;-0.1668;
5252266849989344;0.2992;-0.0844;-0.1477;
5252266860091688;0.3035;-0.0642;-0.1498;
5252266870165282;0.2907;-0.0429;-0.1338;
5252266880267678;0.2651;-0.0312;-0.1168;
5252266890370073;0.2747;0.0573;-0.1221;
5252266900479917;0.2939;0.1084;-0.1029;
5252266910582313;0.2800;-0.0589;-0.0337;
5252266920684709;0.2747;-0.0003;-0.0348;
5252266930812782;0.2587;0.1137;-0.0316;
5252266940915178;0.2257;0.0903;-0.0284;
5252266951017573;0.2374;0.0541;-0.0209;
5252266961097573;0.2129;0.0956;-0.0262;
5252266971199969;0.1884;0.0541;-0.0316;
5252266981302365;0.1735;-0.0493;-0.0241;
5252266991417625;0.1767;-0.0823;-0.0145;
5252267001520021;0.1651;-0.0770;0.0174;
5252267011622417;0.1513;-0.1409;0.0356;
5252267021742938;0.1374;-0.1590;0.0111;
5252267031845334;0.1523;-0.1057;-0.0092;
5252267041947730;0.1842;-0.0770;-0.0049;
5252267052013928;0.1735;-0.0216;-0.0049;
5252267062116323;0.1609;0.0487;0.0068;
5252267072218719;0.1746;0.0626;0.0398;
5252267082333042;0.1788;0.0903;0.0249;
5252267092435438;0.1895;0.1521;0.0313;
5252267102537834;0.1714;0.1670;0.0515;
5252267112654448;0.1619;0.1989;0.0270;
5252267122756844;0.1703;0.2180;0.0068;
5252267132859240;0.1449;0.1883;0.0015;
5252267142910594;0.1310;0.0455;-0.0241;
5252267153012990;0.1481;-0.0429;-0.0401;
5252267163115386;0.1692;-0.0290;-0.0134;
5252267173261792;0.1714;-0.0141;0.0089;
5252267183364136;0.1799;-0.0631;0.0441;
5252267193466532;0.1735;-0.1356;0.0835;
5252267203566115;0.1662;-0.1356;0.0696;
5252267213668511;0.1927;-0.1142;0.0526;
5252267223770907;0.1810;0.0221;0.0569;
5252267233895490;0.1566;0.1084;0.0366;
5252267243997886;0.1598;0.1936;0.0164;
5252267254100282;0.1682;0.1861;0.0004;
5252267264192886;0.1481;0.0583;0.0228;
5252267274295542;0.1459;0.0328;0.0153;
5252267284398250;0.1534;-0.0397;0.0292;
5252267294479969;0.1513;-0.0301;0.0387;
5252267304582625;0.1523;0.0956;-0.0039;
5252267314685334;0.0916;0.0253;-0.0401;
5252267324780490;0.0192;-0.4710;0.0185;
5252267334883146;0.1342;-0.5242;0.0185;
5252267344985855;0.4675;0.0722;-0.0284;
5252267355106323;0.4164;0.2425;-0.0198;
5252267365208980;0.1236;0.0892;0.0686;
5252267375311688;0.1640;0.0146;0.1527;
5252267385411011;0.2651;0.1489;0.1293;
5252267395513667;0.2694;0.2723;0.0601;
5252267405616375;0.1682;0.2222;0.0579;
5252267415763511;0.0863;0.2403;0.0153;
5252267425866167;0.1076;0.8293;-0.0848;
5252267435968875;0.0703;0.5418;-0.1434;
5252267446011636;0.1353;-0.5157;-0.0252;
5252267456114292;0.2342;-0.4039;0.0057;
5252267466217000;0.2470;0.0232;0.0121;
5252267476323771;0.1852;-0.1920;0.0995;
5252267486426428;0.1895;-0.3561;0.1027;
5252267496529136;0.2033;-0.1718;0.0718;
5252267506624865;0.1735;-0.0088;0.0664;
5252267516727573;0.1395;-0.0897;0.0590;
5252267526830230;0.1566;-0.0897;0.0409;
5252267536958303;0.1577;0.1095;0.0068;
5252267547060959;0.1703;0.1276;0.0260;
5252267557163667;0.1724;0.0573;0.0451;
5252267567264448;0.1937;0.2265;0.0228;
5252267577367105;0.2076;0.1787;0.0462;
5252267587469813;0.1852;0.0402;0.0409;
5252267597550125;0.2044;0.1893;0.0206;
5252267607652782;0.1884;0.1627;0.0366;
5252267617755490;0.1873;0.0626;0.0441;
5252267627870386;0.1577;0.1095;0.0483;
5252267637973042;0.1491;-0.0194;0.0632;
5252267648075750;0.1672;-0.2378;0.0920;
5252267658174344;0.2140;-0.1632;0.1165;
5252267668277053;0.2214;-0.0077;0.1314;
5252267678379709;0.1810;-0.0429;0.1517;
5252267688476011;0.1895;0.0136;0.1389;
5252267698578667;0.2193;0.0445;0.1676;
5252267708681375;0.1852;0.0072;0.1698;
5252267718794709;0.1746;0.0700;0.2071;
5252267728897365;0.1055;0.0434;0.2209;
5252267739000073;0.1246;0.2106;0.1889;
5252267749101948;0.1289;0.2638;0.1826;
5252267759204605;0.1225;0.1244;0.1858;
5252267769307313;0.1427;0.0413;0.2113;
5252267779411948;0.1193;0.0040;0.2092;
5252267789514605;0.0980;-0.0290;0.2049;
5252267799617313;0.0969;-0.1079;0.2039;
5252267809720803;0.1033;-0.1877;0.2028;
5252267819823459;0.0820;-0.2730;0.2230;
5252267829926167;0.0820;-0.1121;0.2177;
5252267840024709;0.0895;-0.2549;0.2401;
5252267850127365;0.0969;-0.2559;0.2889;
5252267860230073;0.0831;0.0264;0.3049;
5252267870322573;0.0277;0.0818;0.3017;
5252267880425230;0.0575;0.1148;0.2710;
5252267890527938;0.1055;0.1702;0.2688;
5252267900639969;0.0746;0.2840;0.2284;
5252267910742625;0.0565;0.3458;0.2177;
5252267920845334;0.0426;0.2830;0.2081;
5252267930943094;0.0426;0.2766;0.1815;
5252267941045750;0.0192;0.1361;0.1868;
5252267951148459;0.0202;-0.0173;0.2124;
5252267961254240;0.0277;0.0093;0.2241;
5252267971356896;0.0075;-0.0439;0.1953;
5252267981459605;0.0543;-0.1526;0.2273;
5252267991558459;0.0522;-0.1537;0.2134;
5252268001661167;0.0383;-0.1451;0.1996;
5252268011763823;0.0234;-0.1792;0.2316;
5252268021876948;0.0128;-0.1451;0.2305;
5252268031979605;0.0107;-0.0929;0.2316;
5252268042082313;-0.0192;-0.0620;0.2134;
5252268052175073;-0.0799;0.0402;0.1623;
5252268062277730;-0.1395;-0.2857;0.1836;
5252268072380438;-0.1864;-0.6041;0.1378;
5252268082491948;-0.0533;-0.2623;0.0803;
5252268092594605;-0.0895;0.0285;0.0281;
5252268102697313;-0.1406;0.1435;0.0846;
5252268112811740;-0.1545;0.1883;0.1272;
5252268122914448;-0.0565;0.1095;0.1186;
5252268133017105;0.0096;0.1158;0.1091;
5252268143092469;-0.0597;0.1830;0.0984;
5252268153195125;-0.1449;0.2808;0.0558;
5252268163297834;-0.1534;0.5535;-0.0156;
5252268173409292;-0.1790;1.0732;-0.0742;
5252268183511948;-0.0927;0.5056;-0.1040;
5252268193614657;0.2172;0.0807;-0.1083;
5252268203730803;0.1012;0.3746;-0.0603;
5252268213833459;-0.0660;0.2000;0.0494;
5252268223936167;0.0842;0.0125;0.0963;
5252268234033303;0.0692;0.0210;0.0867;
5252268244135959;0.0138;0.0605;0.0632;
5252268254238667;0.0117;0.0594;0.0142;
5252268264342886;0.0181;-0.2186;0.0377;
5252268274445542;0.0138;-0.2229;0.0132;
5252268284548198;-0.0277;-0.1632;0.0015;
5252268294639865;-0.0533;-0.4102;0.0462;
5252268304742521;-0.0405;-0.3592;0.0579;
5252268314845178;-0.0554;-0.2186;0.0419;
5252268324967261;-0.0937;-0.2783;0.0728;
5252268335069917;-0.0799;-0.1558;0.0558;
5252268345172573;-0.0799;-0.0525;0.0270;
5252268355297573;-0.0959;-0.0812;0.0068;
5252268365400282;-0.0767;0.0647;-0.0252;
5252268375502886;-0.0959;0.0850;-0.0486;
5252268385562782;-0.0714;-0.0482;-0.0571;
5252268395665386;-0.0352;-0.0269;-0.0593;
5252268405768042;-0.0543;-0.0674;-0.0752;
5252268415929813;-0.0096;-0.2240;-0.0550;
5252268426032469;0.0373;-0.2037;-0.0401;
5252268436135125;0.0501;-0.1728;-0.0401;
5252268446177990;0.0373;-0.2783;-0.0401;
5252268456280646;0.0746;-0.3081;-0.0241;
5252268466383250;0.0660;-0.2197;-0.0241;
5252268476484761;0.0149;-0.2442;-0.0017;
5252268486587417;-0.0181;-0.2804;0.0079;
5252268496690073;-0.0298;-0.3347;0.0089;
5252268506789553;-0.0298;-0.4411;0.0313;
5252268516892209;-0.0352;-0.3273;-0.0007;
5252268526994865;-0.0266;-0.1739;0.0142;
5252268537110490;-0.0256;-0.3518;0.0547;
5252268547213146;0.0959;-0.0024;0.0387;
5252268557315750;0.1076;0.6366;0.0313;
5252268567409240;0.0650;0.8559;0.0622;
5252268577511896;0.0202;0.8188;0.1261;
5252268587614553;0.0639;0.8282;0.1208;
5252268597707625;0.0820;0.9166;0.0473;
5252268607810282;-0.0181;0.9294;0.0121;
5252268617912938;-0.0767;0.6451;0.0057;
5252268628030282;0.0021;0.2606;-0.0134;
5252268638132938;0.1140;0.3660;-0.0454;
5252268648235594;0.1310;-0.2495;-0.0060;
5252268658337573;0.3908;-1.1430;0.1463;
5252268668440230;0.4835;-0.7767;0.1879;
5252268678542834;0.3429;-0.6031;0.2847;
5252268688651219;0.1842;-0.5573;0.3550;
5252268698753875;0.0586;-0.2698;0.3369;
5252268708856532;-0.0149;-0.0205;0.3305;
5252268718953407;-0.0852;0.3138;0.2497;
5252268729056063;-0.0096;0.3320;0.1698;
5252268739158719;0.0778;0.2478;0.1186;
5252268749263407;-0.0096;0.4981;0.0462;
5252268759366063;-0.1949;0.4033;0.0164;
5252268769468719;-0.1662;0.1244;-0.0092;
5252268779555386;-0.1619;0.1265;-0.0624;
5252268789658042;-0.3249;-0.0109;-0.0720;
5252268799760698;-0.3334;-0.1792;-0.0869;
5252268809869344;-0.2951;-0.1164;-0.1253;
5252268819972000;-0.3100;-0.2804;-0.1381;
5252268830074657;-0.2290;-0.3369;-0.1391;
5252268840181219;-0.2226;-0.1430;-0.1860;
5252268850283875;-0.2269;-0.1473;-0.2063;
5252268860386532;-0.1140;-0.1334;-0.1913;
5252268870517053;-0.0501;0.0072;-0.2126;
5252268880619657;0.0149;-0.0312;-0.2063;
5252268890722313;0.1577;-0.0226;-0.1690;
5252268900866115;0.2076;0.1680;-0.1775;
5252268910968771;0.1916;0.1467;-0.1722;
5252268921071428;0.2150;0.1393;-0.1445;
5252268931101115;0.1969;0.2478;-0.1668;
5252268941203719;0.1353;0.1382;-0.1722;
5252268951306428;0.1044;0.1233;-0.1594;
5252268961411011;0.0767;0.0477;-0.1381;
5252268971513667;0.0660;-0.1238;-0.1285;
5252268981616323;0.0905;-0.0706;-0.1157;
5252268991714448;0.1268;-0.1057;-0.0891;
5252269001817053;0.1534;-0.2250;-0.0763;
5252269011919761;0.1863;-0.1675;-0.0539;
5252269022016323;0.2353;-0.0961;-0.0220;
5252269032118980;0.2385;-0.0631;0.0079;
5252269042221584;0.1735;-0.0162;0.0324;
5252269052330490;0.1651;0.0136;0.0611;
5252269062433146;0.1385;0.0083;0.0377;
5252269072535803;0.1108;0.0477;0.0249;
5252269082649813;0.1076;0.1222;0.0302;
5252269092752469;0.1023;0.1478;0.0387;
5252269102855125;0.1087;0.0881;0.0334;
5252269112968303;0.1129;0.0530;0.0451;
5252269123070959;0.1012;0.0764;0.0164;
5252269133173615;0.0842;0.0445;0.0228;
5252269143254969;0.0597;0.0019;0.0228;
5252269153357625;0.0660;-0.1217;0.0292;
5252269163460282;0.0650;-0.1579;0.0121;
5252269173567209;0.0735;-0.0972;0.0036;
5252269183669813;0.0937;-0.0823;0.0238;
5252269193772521;0.0991;-0.1260;0.0260;
5252269203906896;0.1033;-0.0674;0.0164;
5252269214009553;0.1150;0.0722;-0.0071;
5252269224112209;0.1065;0.0051;-0.0198;
5252269234179553;0.1353;-0.0216;0.0079;
5252269244282209;0.1193;0.1265;-0.0007;
5252269254384865;0.1001;0.0562;-0.0369;
5252269264494136;0.1161;-0.0344;-0.0465;
5252269274596740;0.1225;0.0189;-0.0454;
5252269284699396;0.0788;-0.0620;-0.0635;
5252269294789709;0.1225;-0.1771;-0.0912;
5252269304892313;0.1481;-0.0748;-0.0816;
5252269314994969;0.1395;-0.0418;-0.0806;
5252269325098615;0.1268;-0.1292;-0.0752;
5252269335201219;0.1481;-0.0961;-0.0497;
5252269345303875;0.1534;-0.1398;-0.0188;
5252269355398928;0.1724;-0.0162;-0.0369;
5252269365501584;0.1778;0.1808;-0.0667;
5252269375604188;0.1735;0.1126;-0.0827;
5252269385730750;0.1523;-0.1718;-0.0859;
5252269395833407;0.2534;-0.1185;-0.0656;
5252269405936063;0.2683;0.0658;-0.1146;
5252269416014865;0.1831;0.0924;-0.0880;
5252269426117469;0.1969;0.2925;-0.0401;
5252269436220125;0.2449;0.1872;0.0174;
5252269446360698;0.2662;0.0775;0.0132;
5252269456463303;0.2023;0.1787;0.0281;
5252269466565959;0.1682;0.0509;0.0419;
5252269476639969;0.1566;0.0615;0.0398;
5252269486742573;0.1332;0.3671;-0.0326;
5252269496845230;0.1682;0.0317;0.0004;
5252269506949969;0.1756;-0.1771;0.0324;
5252269517052625;0.1609;0.0818;0.0324;
5252269527155230;0.1427;-0.1494;0.0941;
5252269537245282;0.1523;-0.1142;0.1016;
5252269547347886;0.1246;-0.2517;0.1506;
5252269557450542;0.1374;-0.2687;0.1527;
5252269567562782;0.1491;0.0871;0.0792;
5252269577665438;0.1555;0.1819;0.1442;
5252269587768042;0.1481;0.2340;0.1634;
5252269597862209;0.1778;0.2371;0.1453;
5252269607964813;0.1395;0.1073;0.1527;
5252269618067469;0.0650;0.1638;0.1378;
5252269628186011;0.0032;0.2254;0.1186;
5252269638288615;-0.0980;-0.1068;0.1016;
5252269648391271;-0.0011;-0.1079;0.1133;
5252269658481948;0.1236;0.0466;0.0664;
5252269668584553;0.0948;-0.2857;0.1410;
5252269678687209;0.0756;-0.0482;0.1794;
5252269688798615;0.1150;-0.0610;0.2113;
5252269698901271;0.0980;-0.2091;0.2198;
5252269709003875;0.0756;-0.0940;0.1996;
5252269719102990;0.0469;-0.0993;0.1953;
5252269729205594;0.0415;-0.0184;0.1879;
5252269739308250;0.0352;0.1798;0.1517;
5252269749413198;0.0224;0.3991;0.0931;
5252269759515803;0.0021;-0.0290;0.1367;
5252269769618459;-0.0192;-0.4433;0.0941;
5252269779717157;0.0181;-0.1451;0.0771;
5252269789819761;-0.0277;-0.1015;0.0760;
5252269799922417;-0.0458;-0.3592;0.1197;
5252269810035959;-0.0234;-0.4646;0.1016;
5252269820138615;-0.0277;-0.4987;0.0909;
5252269830241219;0.0170;-0.6616;0.0877;
5252269840334448;0.3642;-0.4806;0.1549;
5252269850437105;0.4057;0.1329;0.2230;
5252269860539709;0.2545;0.3479;0.2762;
5252269870646948;0.4292;0.2021;0.3603;
5252269880749553;0.6539;0.3117;0.4061;
5252269890852209;0.5176;0.7772;0.3699;
5252269900949344;0.3365;0.9475;0.4178;
5252269911052000;0.3141;0.8378;0.4296;
5252269921154605;0.2523;1.0466;0.3806;
5252269931250282;0.1470;1.2351;0.2996;
5252269941352886;0.0533;0.4300;0.4338;
5252269951455542;-0.1981;-0.4294;0.5276;
5252269961560386;-0.3100;-0.1313;0.4999;
5252269971663042;-0.3409;-0.2091;0.4924;
5252269981765646;-0.3142;-0.6201;0.5318;
5252269991880959;-0.3632;-0.6861;0.5094;
5252270001983615;-0.5357;-0.5711;0.4860;
5252270012086219;-0.6092;-0.3880;0.4349;
5252270022203928;-0.5879;-0.4379;0.4093;
5252270032306532;-0.5783;-0.3912;0.3656;
5252270042409188;-0.6252;-0.0706;0.2932;
5252270052488198;-0.6742;0.0413;0.1975;
5252270062590855;-0.5463;0.0892;0.1474;
5252270072693459;-0.5282;0.3575;0.0558;
5252270082804865;-0.5666;0.3192;0.0057;
5252270092907469;-0.5453;0.1638;-0.0379;
5252270103010125;-0.5165;0.2861;-0.1061;
5252270113113719;-0.4931;0.1925;-0.1636;
5252270123216323;-0.3803;0.0381;-0.2095;
5252270133318980;-0.2471;0.0583;-0.2158;
5252270143413823;-0.2013;-0.0706;-0.2414;
5252270153516428;-0.0341;-0.1888;-0.2329;
5252270163619084;0.1459;-0.1430;-0.2308;
5252270173730386;0.2577;-0.1590;-0.1881;
5252270183832990;0.3429;-0.1419;-0.1168;
5252270193935646;0.4015;0.0019;-0.0635;
5252270204050178;0.4238;0.0125;-0.0166;
5252270214152782;0.4057;0.0594;0.0473;
5252270224255438;0.3599;0.1840;0.0909;
5252270234331532;0.3322;0.1723;0.1091;
5252270244434136;0.2662;0.1947;0.1240;
5252270254536792;0.2033;0.1893;0.1740;
5252270264644761;0.1118;0.1180;0.1698;
5252270274747365;0.0575;0.0466;0.2049;
5252270284849969;0.0298;-0.0035;0.2348;
5252270294952157;0.0192;-0.0471;0.2465;
5252270305054761;0.0192;-0.0631;0.2667;
5252270315157365;0.0053;-0.0866;0.2996;
5252270325312573;-0.0064;-0.1856;0.3166;
5252270335415178;-0.0117;-0.1835;0.3166;
5252270345517782;-0.0362;-0.0674;0.3326;
5252270355546740;-0.0873;-0.0610;0.3401;
5252270365649344;-0.0991;-0.0312;0.3539;
5252270375751948;-0.1513;0.0487;0.3507;
5252270385919917;-0.2493;0.0306;0.3443;
5252270396022573;-0.3387;0.0061;0.3220;
5252270406125178;-0.3909;0.0093;0.2996;
5252270416182886;-0.4367;0.0168;0.2772;
5252270426285542;-0.4909;0.0583;0.2166;
5252270436388146;-0.4952;0.0796;0.1783;
5252270446483407;-0.5037;0.0498;0.1367;
5252270456586011;-0.5133;0.0189;0.1059;
5252270466688615;-0.5059;-0.0141;0.0877;
5252270476809448;-0.5080;-0.0897;0.0377;
5252270486912053;-0.4430;-0.0237;0.0174;
5252270497014657;-0.4229;0.0945;-0.0081;
5252270507102157;-0.4059;0.0328;-0.0134;
5252270517204761;-0.3526;0.0466;-0.0635;
5252270527307365;-0.2972;0.0850;-0.1061;
5252270537399553;-0.2706;0.0839;-0.1061;
5252270547502157;-0.2940;0.1286;-0.1136;
5252270557604761;-0.2780;0.0636;-0.1349;
5252270567712209;-0.2482;0.0541;-0.1381;
5252270577814813;-0.2056;0.0690;-0.1658;
5252270587917417;-0.1736;0.0253;-0.1573;
5252270598023615;-0.1513;-0.0003;-0.1349;
5252270608126219;-0.0873;-0.0173;-0.1381;
5252270618228823;-0.0085;0.0029;-0.1647;
5252270628338823;0.0543;0.0636;-0.1423;
5252270638441428;0.0362;0.0935;-0.0965;
5252270648544032;-0.0064;0.0977;-0.0955;
5252270658642157;-0.0234;0.0892;-0.0656;
5252270668744761;-0.0447;0.0658;-0.0763;
5252270678847365;-0.0543;0.0168;-0.0838;
5252270688951011;-0.0490;-0.0035;-0.0624;
5252270699053615;-0.0415;-0.0184;-0.0465;
5252270709156219;-0.0554;-0.0109;-0.0678;
5252270719266584;-0.0415;-0.0365;-0.0358;
5252270729369188;-0.0490;-0.0546;-0.0252;
5252270739471792;-0.0618;-0.0972;-0.0134;
5252270749572365;-0.0703;-0.0706;-0.0049;
5252270759674969;-0.0969;-0.0045;-0.0081;
5252270769777573;-0.1129;0.0083;0.0057;
5252270779880907;-0.1140;0.0157;0.0089;
5252270789983511;-0.1150;0.0945;-0.0166;
5252270800086115;-0.1363;0.0977;-0.0401;
5252270810177365;-0.1417;0.0573;-0.0348;
5252270820279969;-0.1630;0.0764;-0.0465;
5252270830382573;-0.1715;0.0541;-0.0667;
5252270840504605;-0.1726;0.0477;-0.0774;
5252270850607209;-0.1779;0.0328;-0.0752;
5252270860709813;-0.1683;-0.0056;-0.0752;
5252270870796115;-0.1470;0.0328;-0.0816;
5252270880898719;-0.1321;0.0242;-0.0827;
5252270891001323;-0.1172;-0.0035;-0.0869;
5252270901086011;-0.1129;-0.0237;-0.1040;
5252270911188667;-0.1342;-0.0418;-0.1019;
5252270921291271;-0.1449;-0.0344;-0.1242;
5252270931417053;-0.1332;-0.0013;-0.1285;
5252270941519657;-0.1300;-0.0663;-0.1200;
5252270951622261;-0.0948;0.0178;-0.1264;
5252270961727990;-0.1108;0.1105;-0.1434;
5252270971830594;-0.1257;-0.0503;-0.1210;
5252270981933198;-0.0884;-0.0407;-0.1264;
5252270992045282;-0.0820;0.0818;-0.1690;
5252271002147886;-0.0778;0.0967;-0.1562;
5252271012250542;-0.0937;0.1585;-0.1573;
5252271022333928;-0.1140;0.0690;-0.1594;
5252271032436532;-0.1001;0.0157;-0.1881;
5252271042539136;-0.0724;0.0296;-0.1999;
5252271052664136;-0.0788;-0.0322;-0.1839;
5252271062766740;-0.0075;-0.0461;-0.1296;
5252271072869344;-0.0075;0.0754;-0.1711;
5252271082972678;-0.0362;-0.0194;-0.1903;
5252271093075282;0.0320;-0.1142;-0.1764;
5252271103177886;0.1076;0.0360;-0.1700;
5252271113273823;0.0756;0.0999;-0.1594;
5252271123376428;-0.0064;0.0786;-0.1391;
5252271133479032;-0.0107;0.0743;-0.1477;
5252271143582573;0.0181;0.0967;-0.1711;
5252271153685178;0.0053;0.1180;-0.1679;
5252271163787782;-0.0064;0.0083;-0.1477;
5252271173887886;0.0298;-0.0407;-0.1487;
5252271183990490;0.0160;0.0743;-0.1818;
5252271194093094;0.0032;-0.0290;-0.1487;
5252271204184448;0.0160;-0.0940;-0.1445;
5252271214287053;0.0309;-0.0461;-0.1541;
5252271224389657;0.0181;-0.0450;-0.1445;
5252271234498823;0.0245;-0.0503;-0.1360;
5252271244601428;0.0522;0.0317;-0.1360;
5252271254704032;0.0597;0.0285;-0.1285;
5252271264817938;0.0660;0.0370;-0.1061;
5252271274920542;0.0554;0.0317;-0.1434;
5252271285023198;0.0650;-0.0088;-0.1349;
5252271295113511;0.0522;0.0115;-0.1285;
5252271305216115;0.0479;0.0061;-0.1274;
5252271315318771;0.0469;-0.0535;-0.1338;
5252271325414136;0.0565;-0.0280;-0.1360;
5252271335516792;0.0543;-0.0365;-0.1264;
5252271345619396;0.0746;-0.0695;-0.1072;
5252271355729292;0.0980;-0.0067;-0.0838;
5252271365831948;0.0756;0.0189;-0.0688;
5252271375934605;0.0778;0.0466;-0.0752;
5252271386020386;0.0991;0.0530;-0.0784;
5252271396122990;0.0788;0.0423;-0.0891;
5252271406225646;0.0533;0.1286;-0.0933;
5252271416372990;0.0522;0.0924;-0.0880;
5252271426475594;0.0469;0.0232;-0.0795;
5252271436578250;0.0607;-0.0226;-0.0784;
5252271446663511;0.0778;-0.1015;-0.0827;
5252271456766115;0.0756;-0.1409;-0.0720;
5252271466868771;0.0597;-0.1579;-0.0720;
5252271476965386;0.0650;-0.1430;-0.0518;
5252271487067990;0.0628;-0.1505;-0.0443;
5252271497170646;0.0628;-0.1409;-0.0443;
5252271507261636;0.0810;-0.0887;-0.0273;
5252271517364292;0.0799;-0.0610;-0.0284;
5252271527466948;0.0842;0.0051;-0.0252;
5252271537559032;0.1033;0.1052;-0.0103;
5252271547661636;0.1310;0.1723;0.0111;
5252271557764292;0.1001;0.1648;-0.0252;
5252271567878719;0.0895;0.1744;-0.0156;
5252271577981323;0.0703;0.1574;-0.0039;
5252271588083980;0.0543;0.0551;-0.0145;
5252271598188823;0.0650;0.0125;-0.0273;
5252271608291428;0.0607;0.0061;-0.0348;
5252271618394084;0.0277;-0.1132;-0.0209;
5252271628499553;0.0458;-0.1846;-0.0209;
5252271638602209;0.0863;-0.2154;0.0206;
5252271648704865;0.0905;-0.2410;0.0419;
5252271658820178;0.1097;-0.1611;0.0611;
5252271668922782;0.1012;-0.0461;0.0995;
5252271679025438;0.1055;-0.0162;0.0963;
5252271689123303;0.1225;0.0828;0.0771;
5252271699225959;0.1172;0.1510;0.0835;
5252271709328615;0.0778;0.1734;0.0920;
5252271719421323;0.0756;0.1787;0.0867;
5252271729523928;0.0799;0.1393;0.0707;
5252271739626584;0.0628;0.1286;0.0590;
5252271749736115;0.0575;0.1052;0.0792;
5252271759838719;0.0458;-0.0077;0.0909;
5252271769941375;0.0639;-0.0759;0.0995;
5252271780036948;0.0447;-0.0951;0.0846;
5252271790139553;0.0394;-0.1206;0.1048;
5252271800242209;0.0234;-0.0961;0.1282;
5252271810342261;0.0394;-0.0802;0.1293;
5252271820444865;0.0181;-0.1185;0.1527;
5252271830547521;0.0362;-0.0738;0.1708;
5252271840667990;0.0533;-0.0003;0.1559;
5252271850770594;0.0447;0.0115;0.1644;
5252271860873250;0.0245;0.0328;0.1666;
5252271870958198;0.0394;0.0594;0.1517;
5252271881060803;0.0309;0.0903;0.1431;
5252271891163459;0.0256;0.1169;0.1421;
5252271901240855;0.0032;0.0722;0.1644;
5252271911343511;-0.0075;0.0306;0.1900;
5252271921446167;-0.0096;0.0487;0.1921;
5252271931575073;-0.0234;-0.0067;0.1943;
5252271941677730;-0.0671;0.0157;0.1730;
5252271951780386;-0.0628;0.0115;0.1740;
5252271961874136;-0.0905;-0.0770;0.1740;
5252271971976740;-0.0927;-0.0578;0.1581;
5252271982079396;-0.0820;-0.0354;0.1442;
5252271992186428;-0.0671;-0.0812;0.1687;
5252272002289032;-0.0714;-0.0866;0.1804;
5252272012391740;-0.0256;-0.0280;0.1975;
5252272022509969;-0.0277;0.0008;0.2156;
5252272032612573;-0.0618;-0.0173;0.2028;
5252272042715230;-0.0522;0.0253;0.1921;
5252272052796636;-0.0618;0.0210;0.1985;
5252272062899292;-0.0639;0.0455;0.1868;
5252272073001948;-0.0820;0.0775;0.1847;
5252272083123771;-0.1076;0.0626;0.1900;
5252272093226375;-0.1268;0.0338;0.1815;
5252272103329032;-0.1225;-0.0056;0.1932;
5252272113427886;-0.1268;0.0072;0.1975;
5252272123530542;-0.1438;0.0200;0.1996;
5252272133633146;-0.1800;0.0509;0.1943;
5252272143736115;-0.1843;0.0264;0.1985;
5252272153838719;-0.2162;0.0125;0.1804;
5252272163941375;-0.2439;0.0722;0.1602;
5252272174029969;-0.2802;0.0200;0.1250;
5252272184132573;-0.3174;-0.0706;0.1240;
5252272194235230;-0.3249;-0.0684;0.1027;
5252272204342886;-0.2961;-0.0418;0.0856;
5252272214445490;-0.3036;-0.0450;0.0739;
5252272224548146;-0.2908;-0.0280;0.0632;
5252272234658459;-0.2589;0.0391;0.0760;
5252272244761115;-0.2503;0.0881;0.0611;
5252272254863771;-0.2919;0.1158;0.0324;
5252272264954813;-0.3132;0.1340;0.0111;
5252272275057417;-0.3281;0.1297;-0.0124;
5252272285160073;-0.3334;0.1286;-0.0422;
5252272295318823;-0.3196;0.1222;-0.0678;
5252272305421375;-0.3110;0.0487;-0.0752;
5252272315523980;-0.3100;-0.0418;-0.1242;
5252272325562053;-0.2589;-0.1142;-0.1391;
5252272335664605;-0.2269;-0.1622;-0.1530;
5252272345767209;-0.2269;-0.2261;-0.1519;
5252272355913042;-0.2152;-0.2112;-0.1594;
5252272366015698;-0.1928;-0.1867;-0.1636;
5252272376118250;-0.1683;-0.1505;-0.1658;
5252272386182782;-0.0703;0.0040;-0.1530;
5252272396285386;-0.0298;0.0850;-0.1381;
5252272406387938;-0.1118;0.0764;-0.1200;
5252272416492157;-0.1726;0.1680;-0.1242;
5252272426594761;-0.1640;0.2201;-0.1296;
5252272436697313;-0.1598;0.2648;-0.1850;
5252272446807157;-0.1651;0.3543;-0.1935;
5252272456909761;-0.2035;0.3660;-0.1892;
5252272467012365;-0.2375;0.2403;-0.2073;
5252272477120907;-0.2525;0.0594;-0.2126;
5252272487223511;-0.1289;0.0072;-0.2180;
5252272497326063;-0.0501;-0.0152;-0.2031;
5252272507426792;-0.0437;-0.0141;-0.1967;
5252272517529396;-0.0373;-0.0162;-0.1445;
5252272527632000;-0.0341;-0.0461;-0.1445;
5252272537741740;0.0011;0.0264;-0.1743;
5252272547844292;0.0011;0.0871;-0.1658;
5252272557946896;-0.1023;0.0541;-0.1157;
5252272568031740;-0.1662;0.0360;-0.1168;
5252272578134344;-0.1257;0.1308;-0.1487;
5252272588236896;-0.1694;0.1158;-0.1700;
5252272598324657;-0.2269;-0.0035;-0.1839;
5252272608427261;-0.2503;-0.0791;-0.2063;
5252272618529865;-0.2141;-0.2091;-0.1999;
5252272628669657;-0.2333;-0.5477;-0.2233;
5252272638772261;-0.2003;-0.6382;-0.3256;
5252272648874813;0.0873;-0.1079;-0.3170;
5252272658953303;0.4142;0.3213;-0.2510;
5252272669055907;0.2182;0.2329;-0.1605;
5252272679158459;-0.1150;-0.0887;-0.0859;
5252272689273094;-0.0703;-0.1419;-0.1072;
5252272699375646;0.0852;0.1563;-0.2169;
5252272709478250;0.0831;0.2638;-0.2169;
5252272719571115;-0.0447;0.2244;-0.2308;
5252272729673719;-0.0011;0.5237;-0.2702;
5252272739776271;-0.0011;0.7538;-0.3361;
5252272749893823;-0.1875;-0.2762;-0.3489;
5252272759996428;-0.0415;-0.8907;-0.2851;
5252272770098980;0.2044;-0.2399;-0.2563;
5252272780195386;0.2385;-0.1153;-0.2233;
5252272790297990;0.2459;-0.3752;-0.1775;
5252272800400542;0.2928;-0.3134;-0.1445;
5252272810510386;0.3109;-0.0375;-0.1594;
5252272820612938;0.2630;0.1403;-0.1850;
5252272830715542;0.1459;0.0040;-0.1466;
5252272840792053;0.0618;-0.0088;-0.1221;
5252272850894657;0.0905;0.0999;-0.1562;
5252272860997261;0.0884;0.0370;-0.1466;
5252272871108407;0.0597;0.1446;-0.1391;
5252272881211011;0.0533;0.2425;-0.1466;
5252272891313563;0.0586;0.0913;-0.1413;
5252272901434032;0.0650;0.1009;-0.1242;
5252272911536636;0.0660;0.1595;-0.1264;
5252272921639240;0.0735;0.0466;-0.1072;
5252272931724344;0.0724;0.0605;-0.0901;
5252272941826948;0.0714;0.0818;-0.0838;
5252272951929553;0.0660;-0.0141;-0.0806;
5252272962025907;0.0724;-0.0194;-0.0699;
5252272972128511;0.0927;-0.0013;-0.0539;
5252272982231115;0.0628;-0.0205;-0.0561;
5252272992341219;0.0575;0.0157;-0.0539;
5252273002443771;0.0597;0.0285;-0.0486;
5252273012546375;0.0490;-0.0035;-0.0465;
5252273022669136;0.0330;0.0423;-0.0656;
5252273032771688;0.0277;-0.0194;-0.0603;
5252273042874292;0.0320;-0.0780;-0.0337;
5252273052968823;0.0192;-0.0024;-0.0443;
5252273063071428;-0.0085;0.0296;-0.0507;
5252273073173980;0.0128;-0.0312;-0.0539;
5252273083281115;0.0320;-0.0397;-0.0561;
5252273093383719;0.0256;0.0306;-0.0475;
5252273103486271;0.0245;0.1329;-0.0838;
5252273113567886;0.0522;0.1936;-0.0752;
5252273123670490;0.0554;0.1361;-0.0646;
5252273133773042;0.0767;0.0381;-0.0827;
5252273143885907;0.0873;0.0146;-0.1104;
5252273153988511;0.0565;-0.0141;-0.1136;
5252273164091063;0.0426;-0.0557;-0.0955;
5252273174189761;0.0320;-0.1121;-0.1104;
5252273184292365;0.0650;-0.1973;-0.1040;
5252273194394917;0.0852;-0.2186;-0.1083;
5252273204502365;0.0991;-0.2261;-0.1093;
5252273214604969;0.1012;-0.3294;-0.0816;
5252273224707521;0.1087;-0.3326;-0.0593;
5252273234797209;0.0703;-0.2357;-0.0848;
5252273244899813;0.0575;-0.1750;-0.0720;
5252273255002365;0.0650;-0.0972;-0.0624;
5252273265125282;0.0597;-0.0248;-0.0678;
5252273275227886;0.0746;0.0136;-0.0859;
5252273285330490;0.0873;0.0573;-0.1051;
5252273295421323;0.0884;0.1116;-0.1296;
5252273305523980;0.0927;0.1425;-0.1317;
5252273315626584;0.0959;0.1265;-0.1242;
5252273325731792;0.1278;0.1084;-0.1200;
5252273335834396;0.1513;0.1457;-0.1136;
5252273345937053;0.1395;0.1755;-0.0678;
5252273356031688;0.1246;0.1712;-0.0284;
5252273366134292;0.1300;0.0999;-0.0497;
5252273376236896;0.1937;0.0221;-0.0294;
5252273386373198;0.2257;0.0509;-0.0071;
5252273396475803;0.1630;0.1031;0.0281;
5252273406578407;0.1118;0.0786;0.0430;
5252273416669240;0.1321;0.0328;0.0686;
5252273426771844;0.1257;0.0104;0.0718;
5252273436874448;0.0948;-0.0184;0.0973;
5252273446966115;0.0788;0.0008;0.1282;
5252273457068719;0.0490;0.0306;0.1399;
5252273467171375;0.0107;0.0285;0.1367;
5252273477279032;-0.0032;0.0722;0.1399;
5252273487381636;-0.0298;0.0668;0.1112;
5252273497484240;-0.0437;0.0658;0.0750;
5252273507584865;-0.0607;0.0104;0.0739;
5252273517687469;-0.0682;-0.0109;0.0632;
5252273527790125;-0.0458;-0.0589;0.0515;
5252273537898198;-0.0192;-0.1217;0.0675;
5252273548000803;-0.0043;-0.0940;0.0696;
5252273558103407;0.0011;-0.1590;0.0643;
5252273568194761;0.0256;-0.1675;0.0611;
5252273578297365;0.0192;-0.0866;0.0505;
5252273588399969;0.0373;-0.0099;0.0505;
5252273598511428;0.0181;0.0008;0.0494;
5252273608614032;0.0352;-0.0035;0.0419;
5252273618716636;0.0778;0.0626;0.0515;
5252273628802157;0.0682;0.1041;0.0377;
5252273638904761;0.0969;0.1893;0.0601;
5252273649007365;0.0927;0.2872;0.0771;
5252273659129969;0.0692;0.3000;0.0515;
5252273669232573;0.0618;0.2744;0.0473;
5252273679335178;0.0554;0.2011;0.0292;
5252273689428407;0.0554;0.1031;0.0302;
5252273699531011;0.0575;0.0221;0.0483;
5252273709633615;0.0490;-0.0013;0.0462;
5252273719730594;0.0458;-0.0663;0.0654;
5252273729833198;0.0383;-0.1270;0.0877;
5252273739935803;0.0650;-0.0983;0.1314;
5252273750044448;0.0447;-0.1366;0.1431;
5252273760147053;0.0490;-0.1356;0.1463;
5252273770249657;0.0383;-0.0418;0.1282;
5252273780342990;-0.0064;0.0477;0.1208;
5252273790445594;-0.0959;0.0775;0.0867;
5252273800548198;-0.1289;0.0423;0.0675;
5252273810668198;-0.1023;0.0498;0.0526;
5252273820770803;-0.0863;0.0828;0.0579;
5252273830873407;-0.1182;0.0519;0.0430;
5252273840980178;-0.1065;-0.1025;0.0334;
5252273851082782;-0.0170;-0.1292;0.0345;
5252273861185386;-0.0032;-0.0471;0.0409;
5252273871276323;-0.0192;-0.0375;0.0366;
5252273881378928;-0.0309;0.0178;0.0217;
5252273891481532;-0.0245;-0.0173;0.0132;
5252273901591219;-0.0011;-0.0940;0.0249;
5252273911693875;-0.0043;-0.0610;0.0206;
5252273921796480;-0.0128;0.0029;0.0206;
5252273931885490;-0.0224;0.0093;0.0238;
5252273941988094;-0.0117;-0.0024;0.0036;
5252273952090698;0.0011;0.0360;0.0185;
5252273962199553;-0.0000;0.0881;0.0025;
5252273972302157;-0.0011;0.0775;0.0132;
5252273982404813;-0.0170;-0.0077;0.0324;
5252273992510073;0.0128;0.0360;0.0292;
5252274002612678;-0.0107;0.0466;0.0142;
5252274012715282;-0.0149;-0.0354;0.0313;
5252274022819448;-0.0202;-0.0162;0.0292;
5252274032922053;-0.0192;-0.0589;0.0196;
5252274043024657;-0.0085;-0.0407;0.0111;
5252274053119292;0.0011;0.0391;0.0153;
5252274063221896;-0.0181;0.0051;0.0100;
5252274073324500;-0.0138;-0.0312;0.0121;
5252274083433198;-0.0064;-0.0226;0.0238;
5252274093535803;-0.0107;-0.0205;0.0196;
5252274103638459;-0.0117;-0.0099;0.0281;
5252274113742886;-0.0234;0.0146;0.0356;
5252274123845490;-0.0192;-0.0130;0.0409;
5252274133948094;-0.0053;0.0008;0.0121;
5252274144034136;-0.0021;0.0040;0.0217;
5252274154136740;-0.0202;-0.0035;0.0057;
5252274164239344;-0.0181;-0.0056;-0.0103;
5252274174347886;-0.0107;-0.0205;0.0068;
5252274184450490;-0.0117;-0.0301;0.0100;
5252274194553146;-0.0213;-0.0535;-0.0007;
5252274204655594;-0.0320;-0.0269;0.0111;
5252274214758198;-0.0341;-0.0067;0.0281;
5252274224860803;-0.0266;-0.0407;0.0089;
5252274234966584;-0.0107;-0.0077;-0.0028;
5252274245069240;-0.0138;0.0317;-0.0113;
5252274255171896;-0.0181;0.0573;-0.0145;
5252274265352573;-0.0373;0.0466;-0.0273;
5252274275455334;-0.0224;0.0221;-0.0188;
5252274285558094;-0.0160;0.0040;-0.0209;
5252274295567469;-0.0096;-0.0088;-0.0039;
5252274305670178;-0.0202;0.0125;0.0015;
5252274315772990;-0.0160;-0.0471;-0.0134;
5252274325919657;-0.0043;-0.0589;-0.0262;
5252274336022365;-0.0075;0.0061;-0.0294;
5252274346125125;-0.0160;-0.0024;-0.0497;
5252274356175386;-0.0138;-0.0503;-0.0593;
5252274366278146;-0.0000;-0.0567;-0.0550;
5252274376380907;0.0032;-0.0780;-0.0486;
5252274386484032;0.0021;-0.0887;-0.0518;
5252274396586792;-0.0053;-0.0290;-0.0401;
5252274406689500;-0.0064;-0.0663;-0.0134;
5252274416807157;0.0032;-0.0802;-0.0348;
5252274426909917;0.0160;-0.0003;-0.0603;
5252274437012678;-0.0021;0.0072;-0.0731;
5252274447116792;-0.0021;-0.0088;-0.0933;
5252274457219553;0.0181;0.0221;-0.0731;
5252274467322313;0.0266;0.0423;-0.0624;
5252274477445178;0.0288;0.0051;-0.0720;
5252274487547938;0.0373;0.0338;-0.0550;
5252274497650646;0.0213;0.0093;-0.0326;
5252274507730282;0.0341;-0.0290;-0.0465;
5252274517833042;0.0554;-0.0024;-0.0752;
5252274527935803;0.0469;0.0189;-0.0561;
5252274538061428;0.0309;0.0232;-0.0731;
5252274548164136;0.0383;-0.0205;-0.0614;
5252274558266896;0.0415;-0.0418;-0.0699;
5252274568353823;0.0373;-0.0993;-0.0699;
5252274578456584;0.0479;-0.1100;-0.0411;
5252274588559344;0.0447;-0.0535;-0.0284;
5252274598671636;0.0362;-0.0439;-0.0188;
5252274608774344;0.0352;-0.0439;-0.0348;
5252274618877157;0.0458;-0.0173;-0.0337;
5252274628972886;0.0277;-0.0141;-0.0358;
5252274639075646;0.0224;-0.0152;-0.0614;
5252274649178407;0.0277;-0.0056;-0.0869;
5252274659260125;0.0288;-0.0344;-0.0816;
5252274669362886;0.0277;-0.0663;-0.0731;
5252274679465646;0.0383;-0.0162;-0.0614;
5252274689599969;0.0469;-0.0301;-0.0561;
5252274699702678;0.0724;-0.0780;-0.0497;
5252274709805438;0.0799;-0.0152;-0.0614;
5252274719888407;0.0820;0.0796;-0.0582;
5252274729991167;0.0714;0.0594;-0.0710;
5252274740093928;0.0714;0.0115;-0.0710;
5252274750197782;0.0873;0.0146;-0.0955;
5252274760300542;0.0746;-0.0258;-0.0912;
5252274770403303;0.0799;-0.0333;-0.0720;
5252274780516792;0.0916;-0.0280;-0.0497;
5252274790619553;0.1087;-0.0919;-0.0294;
5252274800722313;0.0991;-0.1153;-0.0486;
5252274810820594;0.1129;-0.1121;-0.0379;
5252274820923355;0.1300;-0.1185;-0.0369;
5252274831026115;0.1609;-0.0674;-0.0188;
5252274841134605;0.1598;0.0519;-0.0241;
5252274851237365;0.1651;0.1180;0.0015;
5252274861340073;0.1820;0.2075;0.0270;
5252274871432469;0.2236;0.2936;0.0728;
5252274881535230;0.2768;0.3351;0.1218;
5252274891637990;0.2683;0.5386;0.0824;
5252274901716688;0.2928;0.6238;0.1005;
5252274911819396;0.2395;0.7612;0.1101;
5252274921922157;0.1545;0.5610;0.0803;
5252274932044448;0.1033;0.1361;0.0782;
5252274942147209;0.0905;-0.2027;0.0569;
5252274952249969;0.0224;-0.5072;0.0505;
5252274962353615;0.0181;-0.7277;0.0654;
5252274972456375;0.0842;-0.8843;0.0867;
5252274982559136;0.1001;-0.9695;0.1378;
5252274992664136;0.0873;-1.0077;0.1804;
5252275002766896;0.1129;-0.7469;0.2113;
5252275012869605;0.0831;-0.8065;0.2571;
5252275022951115;0.0873;-0.4901;0.2635;
5252275033053875;0.1236;0.2851;0.2518;
5252275043156636;0.0831;0.3991;0.2699;
5252275053276636;0.0735;0.4960;0.2252;
5252275063379396;0.0980;0.7879;0.1740;
5252275073482157;0.0639;0.7847;0.1133;
5252275083600282;0.0053;0.7559;0.0387;
5252275093703042;-0.1076;0.4236;-0.0305;
5252275103805750;-0.3260;-0.0397;-0.0923;
5252275113908719;-0.4462;-0.2080;-0.1306;
5252275124011480;-0.4240;-0.5913;-0.1658;
5252275134114240;-0.0458;-0.7138;-0.1072;
5252275144192157;0.0639;-0.4411;-0.0518;
5252275154294917;0.0075;-0.4774;0.0675;
5252275164397678;0.1799;-0.5445;0.1826;
5252275174504969;0.4110;-0.2857;0.2443;
5252275184607730;0.2832;0.1244;0.2017;
5252275194710490;0.1969;0.3639;0.2241;
5252275204805282;0.1672;0.7346;0.1442;
5252275214907990;0.1108;0.7133;0.0984;
5252275225010750;0.0852;0.4704;0.0771;
5252275235122521;0.0597;0.3905;0.0643;
5252275245225282;-0.0234;0.2883;0.0718;
5252275255328042;-0.0884;0.1606;0.1027;
5252275265426532;-0.0586;-0.0493;0.1101;
5252275275529084;0.0011;-0.2527;0.0963;
5252275285631688;0.0160;-0.1931;0.1027;
5252275295735750;0.0107;-0.2698;0.1272;
5252275305838250;0.0362;-0.3241;0.1367;
5252275315940855;0.0107;-0.1068;0.1399;
5252275326032886;0.0021;-0.1249;0.1762;
5252275336135438;0.0405;-0.1601;0.1953;
5252275346237990;0.0660;-0.0130;0.1847;
5252275356395542;0.0565;0.0061;0.2060;
5252275366498146;0.0479;-0.0280;0.2007;
5252275376600698;0.0362;0.0967;0.1527;
5252275386647365;0.0064;0.0913;0.1378;
5252275396749917;0.0138;-0.0301;0.1240;
5252275406852469;-0.0021;0.0136;0.1133;
5252275416982990;-0.0575;-0.0248;0.1357;
5252275427085542;-0.0586;-0.0429;0.1261;
5252275437188094;-0.0458;0.0264;0.1485;
5252275447274761;-0.0767;0.0242;0.1612;
5252275457377313;-0.0650;0.0328;0.1559;
5252275467479865;-0.0873;0.0860;0.1197;
5252275477571740;-0.0863;0.0924;0.0984;
5252275487674292;-0.0586;0.0541;0.0750;
5252275497776844;-0.0437;0.1265;0.0824;
5252275507888511;-0.0479;0.0722;0.0814;
5252275517991063;-0.0245;-0.0056;0.0909;
5252275528093615;-0.0341;-0.0248;0.0941;
5252275538201948;-0.0256;-0.1004;0.1218;
5252275548304500;-0.0053;-0.1068;0.1485;
5252275558407053;-0.0447;-0.0503;0.1336;
5252275568507990;-0.0852;-0.0535;0.1314;
5252275578610542;-0.0863;-0.0290;0.1101;
5252275588713094;-0.0746;0.0775;0.1059;
5252275598815698;-0.0959;0.1435;0.1016;
5252275608918250;-0.1129;0.0892;0.1005;
5252275619020803;-0.1065;0.1020;0.1016;
5252275629115230;-0.1097;0.0967;0.1367;
5252275639217782;-0.1278;0.1020;0.1261;
5252275649320334;-0.1353;0.1126;0.0728;
5252275659429448;-0.1363;0.1031;0.0675;
5252275669532000;-0.1417;0.1499;0.0622;
5252275679634553;-0.1545;0.0945;0.0366;
5252275689739136;-0.1427;0.0178;0.0238;
5252275699841688;-0.1129;0.0093;0.0430;
5252275709944240;-0.1097;-0.0237;0.0590;
5252275720042886;-0.1097;-0.1015;0.0686;
5252275730145438;-0.0884;-0.1419;0.0899;
5252275740247990;-0.0746;-0.0961;0.0782;
5252275750348198;-0.0884;-0.0748;0.0537;
5252275760450750;-0.0937;-0.0589;0.0601;
5252275770553303;-0.0852;-0.0226;0.0483;
5252275780660959;-0.0916;-0.0109;0.0409;
5252275790763511;-0.1065;-0.0248;0.0451;
5252275800866063;-0.1214;-0.0461;0.0632;
5252275810962782;-0.1108;-0.0322;0.0590;
5252275821065334;-0.0980;-0.0045;0.0675;
5252275831167886;-0.1097;0.0242;0.0814;
5252275841292365;-0.1193;0.0402;0.0249;
5252275851394917;-0.0895;0.0636;0.0249;
5252275861497469;-0.1033;0.0551;0.0185;
5252275871591927;-0.0927;0.0274;0.0089;
5252275881694479;-0.0905;0.0306;0.0292;
5252275891797031;-0.1246;-0.0429;0.0334;
5252275901886875;-0.1023;-0.0748;0.0451;
5252275911989479;-0.0842;-0.0312;0.0601;
5252275922092031;-0.0415;0.1329;0.0494;
5252275932207031;-0.0447;0.2403;0.0579;
5252275942309583;-0.1289;0.1627;0.0877;
5252275952412135;-0.1598;0.0945;0.0792;
5252275962512968;-0.1683;0.0956;0.0430;
5252275972615520;-0.1822;0.0903;0.0505;
5252275982718073;-0.2024;0.0306;0.0473;
5252275992820520;-0.1864;0.0434;0.0377;
5252276002923073;-0.1619;0.0477;0.0398;
5252276013025625;-0.1555;0.0083;0.0366;
5252276023112343;-0.1449;-0.0173;0.0409;
5252276033214895;-0.1417;-0.0077;0.0068;
5252276043317448;-0.1268;0.0402;0.0569;
5252276053424635;-0.1619;0.0732;0.0696;
5252276063527187;-0.1875;0.1308;0.0345;
5252276073629739;-0.2397;0.1276;0.0132;
5252276083721927;-0.2748;0.1425;0.0089;
5252276093824479;-0.2770;0.1201;-0.0358;
5252276103927083;-0.2386;0.0764;-0.0177;
5252276114043802;-0.2439;0.0658;-0.0284;
5252276124146354;-0.2365;-0.0162;-0.0593;
5252276134248906;-0.2003;-0.1324;-0.0561;
5252276144344323;-0.1481;-0.1238;-0.0710;
5252276154446875;-0.1427;-0.0727;-0.0752;
5252276164549427;-0.1768;-0.0993;-0.0827;
5252276174655937;-0.1800;-0.0631;-0.0880;
5252276184758489;-0.1779;-0.0418;-0.1019;
5252276194861041;-0.1513;-0.0429;-0.1072;
5252276204965104;-0.1236;-0.0013;-0.1115;
5252276215067708;-0.1513;0.0072;-0.1338;
5252276225170260;-0.1459;0.0381;-0.1615;
5252276235300833;-0.1385;0.0391;-0.1700;
5252276245403437;-0.1150;0.0391;-0.1988;
5252276255505989;-0.1108;0.0306;-0.1903;
5252276265572552;-0.1204;-0.0130;-0.2126;
5252276275675104;-0.0607;-0.0471;-0.1999;
5252276285777656;-0.0202;-0.0631;-0.1871;
5252276295929375;0.0096;-0.0397;-0.1679;
5252276306031927;0.0075;-0.0642;-0.1690;
5252276316134479;0.0181;-0.0620;-0.1850;
5252276326202239;0.0447;-0.0226;-0.1850;
5252276336304791;0.0469;-0.0045;-0.1988;
5252276346407343;0.0224;-0.0301;-0.2063;
5252276356524531;0.0138;-0.0205;-0.1913;
5252276366627083;0.0117;0.0093;-0.1807;
5252276376729583;0.0138;-0.0312;-0.1594;
5252276386803281;0.0128;-0.0067;-0.1349;
5252276396905833;0.0128;0.0264;-0.1455;
5252276407008385;0.0075;0.0317;-0.1583;
5252276417110104;-0.0064;0.0434;-0.1413;
5252276427212656;-0.0149;0.0466;-0.1605;
5252276437315156;-0.0085;0.0583;-0.1668;
5252276447443385;-0.0341;0.0498;-0.1636;
5252276457545937;-0.0352;0.0338;-0.1423;
5252276467648437;-0.0309;-0.0344;-0.1328;
5252276477739427;-0.0085;-0.0866;-0.1402;
5252276487841979;-0.0096;-0.0716;-0.1530;
5252276497944531;-0.0266;-0.0589;-0.1477;
5252276508049270;-0.0213;-0.1089;-0.1562;
5252276518151770;0.0170;-0.0919;-0.1466;
5252276528254323;0.0213;0.0338;-0.1647;
5252276538358385;-0.0160;0.0455;-0.1573;
5252276548460937;-0.0554;0.0455;-0.1296;
5252276558563437;-0.0426;0.0402;-0.1381;
5252276568672448;-0.0128;0.0487;-0.1360;
5252276578775000;-0.0096;0.1510;-0.1541;
5252276588877500;-0.0202;0.1819;-0.1690;
5252276598987083;-0.0202;0.1542;-0.1924;
5252276609089583;-0.0032;0.1798;-0.2031;
5252276619192135;0.0021;0.1446;-0.2371;
5252276629283385;-0.0064;-0.0045;-0.2212;
5252276639385937;0.0053;-0.0599;-0.1924;
5252276649488437;0.0639;-0.0961;-0.1722;
5252276659586093;0.1065;-0.1409;-0.1498;
5252276669688645;0.1236;-0.0727;-0.1477;
5252276679791145;0.1246;-0.0546;-0.1338;
5252276689908750;0.0671;-0.0929;-0.1594;
5252276700011250;0.0628;-0.0983;-0.1551;
5252276710113802;0.0831;-0.0567;-0.1541;
5252276720215260;0.0565;-0.0237;-0.1796;
5252276730317812;0.0341;-0.0439;-0.1722;
5252276740420364;0.0405;-0.0482;-0.1487;
5252276750516614;0.0639;-0.0013;-0.1583;
5252276760619166;0.0905;0.0551;-0.1455;
5252276770721666;0.0948;0.0647;-0.1381;
5252276780891302;0.0671;0.0775;-0.1573;
5252276790993854;0.0639;0.1254;-0.1573;
5252276801096354;0.0810;0.1105;-0.1541;
5252276811127448;0.0873;0.0860;-0.1764;
5252276821230000;0.0927;0.1105;-0.1828;
5252276831332552;0.1118;0.1254;-0.1679;
5252276841446666;0.1150;0.0636;-0.1487;
5252276851549218;0.1193;-0.0035;-0.1274;
5252276861651718;0.1449;-0.0205;-0.1221;
5252276871740677;0.1767;-0.0429;-0.1317;
5252276881843229;0.1831;-0.1142;-0.1200;
5252276891945729;0.1937;-0.1121;-0.0816;
5252276902039635;0.2012;-0.0130;-0.0944;
5252276912142135;0.1820;-0.0237;-0.0827;
5252276922244687;0.1097;-0.0344;-0.0667;
5252276932358177;0.0884;-0.0237;-0.0379;
5252276942460729;0.1204;-0.0290;-0.0369;
5252276952563229;0.1182;0.0221;-0.0454;
5252276962666406;0.1193;0.0722;-0.0465;
5252276972768958;0.0916;0.0573;-0.0699;
5252276982871458;0.1140;0.0487;-0.0614;
5252276992977239;0.0991;0.0541;-0.0806;
5252277003079791;0.0980;0.0104;-0.0806;
5252277013182291;0.0852;-0.0290;-0.0497;
5252277023270625;0.0959;-0.0695;-0.0401;
5252277033373177;0.1076;-0.0876;-0.0411;
5252277043475729;0.1161;-0.0397;-0.0337;
5252277053582604;0.1236;-0.0194;-0.0220;
5252277063685156;0.1108;-0.0205;-0.0209;
5252277073787708;0.1193;0.0210;-0.0454;
5252277083908073;0.1268;0.0413;-0.0422;
5252277094010625;0.1204;0.0104;-0.0348;
5252277104113125;0.1044;0.0317;-0.0369;
5252277114204427;0.0937;0.0594;-0.0316;
5252277124306927;0.1023;0.0200;-0.0294;
5252277134409479;0.1225;0.0306;-0.0092;
5252277144499948;0.1140;0.0711;-0.0007;
5252277154602500;0.1118;0.0413;-0.0103;
5252277164705052;0.1182;0.0104;-0.0241;
5252277174804010;0.1193;0.0083;-0.0124;
5252277184906562;0.1087;0.0019;-0.0188;
5252277195009062;0.0980;0.0093;-0.0252;
5252277205127135;0.0842;-0.0056;-0.0252;
5252277215229635;0.0852;-0.0706;-0.0039;
5252277225332239;0.1108;-0.0557;0.0025;
5252277235420260;0.1172;-0.0205;-0.0103;
5252277245522812;0.1150;-0.0450;0.0217;
5252277255625416;0.0980;-0.0557;0.0047;
5252277265756145;0.1204;-0.0397;-0.0049;
5252277275858750;0.1001;-0.0173;-0.0103;
5252277285961406;0.1108;-0.0056;-0.0177;
5252277296037031;0.0852;-0.0130;-0.0049;
5252277306139635;0.0820;-0.0439;0.0057;
5252277316242239;0.0873;-0.0620;0.0036;
5252277326376823;0.1193;-0.0280;0.0089;
5252277336479427;0.1204;0.0210;0.0238;
5252277346581979;0.1076;0.0189;0.0121;
5252277356682343;0.1033;-0.0173;-0.0017;
5252277366784948;0.1065;-0.0375;0.0089;
5252277376887552;0.1033;-0.0418;0.0089;
5252277386987864;0.0980;-0.0088;0.0004;
5252277397090468;0.0948;-0.0194;0.0217;
5252277407193073;0.0948;-0.1015;0.0324;
5252277417300625;0.1065;-0.0099;0.0387;
5252277427403281;0.1289;0.1148;0.0643;
5252277437505885;0.1353;0.0679;0.0899;
5252277447584843;0.1065;-0.0109;0.0707;
5252277457687448;0.0863;0.0913;0.0569;
5252277467790052;0.0937;0.1276;0.0334;
5252277477891354;0.0948;0.0562;0.0377;
5252277487993958;0.0724;0.0445;0.0462;
5252277498096562;0.0820;-0.0120;0.0505;
5252277508196302;0.0884;-0.0567;0.0441;
5252277518298906;0.1033;-0.1068;0.0718;
5252277528401510;0.1076;-0.1292;0.0920;
5252277538512864;0.1033;-0.1079;0.0952;
5252277548615468;0.0969;-0.0578;0.0941;
5252277558718073;0.0863;0.0274;0.0995;
5252277568819531;0.0778;0.0551;0.0973;
5252277578922135;0.0565;0.1031;0.0888;
5252277589024739;0.0597;0.0988;0.0803;
5252277599143906;0.0597;0.0786;0.0750;
5252277609246510;0.0170;0.1148;0.0632;
5252277619349114;0.0138;0.0860;0.0814;
5252277629439114;0.0426;-0.0045;0.0675;
5252277639541718;0.0575;-0.0684;0.0473;
5252277649644323;0.0533;-0.0759;0.0547;
5252277659742239;0.0543;-0.0780;0.0601;
5252277669844843;0.0469;-0.0716;0.0803;
5252277679947448;0.0426;-0.0940;0.1016;
5252277690056406;0.0309;-0.1206;0.1037;
5252277700159010;0.0383;-0.0652;0.1048;
5252277710261614;0.0160;0.0115;0.1112;
5252277720355260;0.0213;0.0519;0.1048;
5252277730457864;0.0490;0.0434;0.0707;
5252277740560468;0.0479;0.0647;0.0547;
5252277750661614;0.0266;0.0583;0.0675;
5252277760764218;0.0298;0.0200;0.0622;
5252277770866823;0.0128;-0.0013;0.0739;
5252277780970156;0.0213;-0.0035;0.0782;
5252277791072760;0.0320;-0.0333;0.0877;
5252277801175364;0.0437;-0.0557;0.1048;
5252277811276093;0.0501;-0.0514;0.1122;
5252277821378698;0.0479;-0.0812;0.1154;
5252277831481302;0.0533;-0.0823;0.1037;
5252277841591198;0.0405;-0.0226;0.1101;
5252277851693802;0.0245;0.0008;0.1037;
5252277861796406;0.0149;0.0455;0.0973;
5252277871899531;0.0149;0.0391;0.1218;
5252277882002135;0.0075;0.0338;0.1367;
5252277892104739;-0.0032;0.0754;0.1431;
5252277902194635;-0.0362;0.0647;0.1421;
5252277912297239;-0.0362;0.0370;0.1367;
5252277922399843;-0.0522;0.0573;0.1069;
5252277932499948;-0.0479;0.0881;0.1101;
5252277942602552;-0.0490;0.0402;0.1091;
5252277952705156;-0.0426;0.0264;0.0995;
5252277962829531;-0.0554;-0.0035;0.1027;
5252277972932135;-0.0458;-0.1025;0.1186;
5252277983034739;-0.0277;-0.1057;0.1122;
5252277993136093;-0.0320;-0.0823;0.1346;
5252278003238698;-0.0479;-0.0557;0.1389;
5252278013341302;-0.0522;-0.0525;0.1112;
5252278023439218;-0.0383;-0.0578;0.0920;
5252278033541823;-0.0447;0.0029;0.0984;
5252278043644427;-0.0607;0.0690;0.0899;
5252278053750573;-0.0618;0.0764;0.1027;
5252278063853177;-0.0565;0.0605;0.0995;
5252278073955781;-0.0575;0.0807;0.0888;
5252278084047864;-0.0607;0.1041;0.0867;
5252278094150468;-0.0597;0.0999;0.0963;
5252278104253073;-0.0575;0.0605;0.0973;
5252278114370156;-0.0522;0.0370;0.0718;
5252278124472760;-0.0415;0.0274;0.0686;
5252278134575364;-0.0447;-0.0056;0.0579;
5252278144664427;-0.0554;-0.0557;0.0601;
5252278154767031;-0.0490;-0.1324;0.0696;
5252278164869635;-0.0405;-0.1952;0.0707;
5252278174955364;-0.0341;-0.1686;0.0526;
5252278185057968;-0.0352;-0.0961;0.0654;
5252278195160573;-0.0341;-0.0951;0.1016;
5252278205295364;-0.0447;-0.0578;0.0632;
5252278215397968;-0.0288;0.0807;0.0558;
5252278225500573;-0.0714;0.0860;0.0643;
5252278235561354;-0.0810;0.0658;0.0441;
5252278245663906;-0.0895;0.0615;0.0409;
5252278255766510;-0.1033;0.0850;0.0345;
5252278265937083;-0.1150;0.1563;0.0047;
5252278276039739;-0.1044;0.1435;0.0015;
5252278286142395;-0.0969;0.0328;-0.0071;
5252278296213020;-0.0554;-0.0269;-0.0262;
5252278306315729;-0.0192;-0.0099;-0.0348;
5252278316418385;-0.0021;-0.0642;-0.0124;
5252278326518593;0.0085;-0.0684;-0.0113;
5252278336621250;0.0043;0.0019;-0.0145;
5252278346723906;-0.0117;-0.0173;0.0004;
5252278356816510;-0.0128;-0.0333;-0.0060;
5252278366919166;0.0096;0.0008;-0.0071;
5252278377021823;-0.0064;0.0413;-0.0039;
5252278387145364;-0.0128;0.0391;-0.0007;
5252278397248020;-0.0053;0.0402;-0.0284;
5252278407350625;-0.0064;0.0519;-0.0209;
5252278417454114;-0.0202;0.0455;-0.0390;
5252278427556718;-0.0277;0.0253;-0.0529;
5252278437659427;-0.0128;-0.0450;-0.0326;
5252278447770468;0.0064;-0.0599;-0.0241;
5252278457873125;0.0160;-0.0152;-0.0369;
5252278467975781;0.0288;0.0008;-0.0177;
5252278478054010;0.0309;-0.0162;-0.0156;
5252278488156666;0.0362;-0.0045;-0.0475;
5252278498259323;0.0479;0.0274;-0.0571;
5252278508360677;0.0490;0.0146;-0.0624;
5252278518463333;0.0565;0.0338;-0.0475;
5252278528565937;0.0437;0.0509;-0.0337;
5252278538662031;0.0394;0.0221;-0.0316;
5252278548764687;0.0415;0.0242;-0.0401;
5252278558867343;0.0373;0.0370;-0.0305;
5252278568970468;0.0479;0.0051;-0.0188;
5252278579073125;0.0511;-0.0344;-0.0369;
5252278589175781;0.0628;0.0008;-0.0433;
5252278599292552;0.0714;0.0455;-0.0220;
5252278609395156;0.0671;0.0466;-0.0230;
5252278619497812;0.0575;0.0381;-0.0209;
5252278629604739;0.0597;0.0413;-0.0060;
5252278639707395;0.0479;0.0626;-0.0060;
5252278649810052;0.0458;0.0881;-0.0071;
5252278659887656;0.0437;0.0594;0.0036;
5252278669990312;0.0479;-0.0013;0.0089;
5252278680092968;0.0554;0.0157;-0.0177;
5252278690212239;0.0447;-0.0035;-0.0049;
5252278700314895;0.0202;-0.0397;0.0004;
5252278710417552;0.0213;-0.0482;0.0100;
5252278720516198;0.0256;-0.0866;0.0206;
5252278730618802;0.0479;-0.0812;0.0206;
5252278740721510;0.0543;-0.0493;0.0238;
5252278750831198;0.0511;-0.0130;0.0505;
5252278760933854;0.0458;-0.0173;0.0505;
5252278771036510;0.0373;-0.0109;0.0334;
5252278781107864;0.0415;0.0296;0.0356;
5252278791210520;0.0341;0.0530;0.0387;
5252278801313177;0.0032;0.0700;0.0345;
5252278811435260;-0.0053;0.0423;0.0217;
5252278821537916;0.0064;0.0360;0.0270;
5252278831640520;0.0021;0.0210;0.0217;
5252278841757760;0.0277;0.0029;0.0483;
5252278851860364;0.0138;-0.0120;0.0590;
5252278861963020;0.0479;-0.0194;0.0483;
5252278872067864;0.0362;0.0019;0.0334;
5252278882170468;0.0138;0.0157;0.0473;
5252278892273125;0.0043;0.0104;0.0387;
5252278902343385;0.0128;-0.0184;0.0569;
5252278912446041;0.0160;-0.0056;0.0728;
5252278922548698;0.0266;0.0242;0.0537;
5252278932672968;0.0256;0.0093;0.0782;
5252278942775625;0.0245;0.0008;0.0984;
5252278952878281;0.0320;0.0274;0.0888;
5252278962983698;0.0277;0.0370;0.0622;
5252278973086354;-0.0107;-0.0088;0.0601;
5252278983189010;-0.0415;-0.0344;0.0547;
5252278993287031;-0.0788;-0.0972;0.0473;
5252279003389687;-0.1065;-0.1569;0.0398;
5252279013492343;-0.0405;-0.1451;0.0366;
5252279023590677;0.0288;-0.0663;0.0217;
5252279033693281;0.0213;-0.0589;0.0356;
5252279043795989;0.0298;-0.0972;0.0569;
5252279053910885;0.0362;-0.0631;0.0494;
5252279064013541;0.0341;-0.0258;0.0526;
5252279074116198;0.0064;-0.0099;0.0558;
5252279084188698;-0.0170;0.0743;0.0441;
5252279094291354;-0.0266;0.0860;0.0441;
5252279104394010;-0.0160;0.0892;0.0387;
5252279114527760;-0.0597;0.0903;0.0174;
5252279124630416;-0.0565;0.0583;0.0281;
5252279134733020;-0.0458;0.0210;0.0292;
5252279144818854;-0.0405;-0.0162;0.0377;
5252279154921510;-0.0107;-0.0386;0.0270;
5252279165024114;0.0128;-0.0471;0.0558;
5252279175135052;0.0064;-0.0162;0.0601;
5252279185237708;-0.0064;-0.0439;0.0494;
5252279195340312;0.0075;-0.0482;0.0686;
5252279205439114;0.0064;0.0051;0.0728;
5252279215541770;0.0096;0.0519;0.0824;
5252279225644427;-0.0224;0.0402;0.0899;
5252279235745520;-0.0245;0.0232;0.1027;
5252279245848177;-0.0490;0.0722;0.0803;
5252279255950833;-0.0501;0.0956;0.0856;
5252279266044010;-0.0735;0.0754;0.0814;
5252279276146510;-0.1087;0.0360;0.0760;
5252279286249062;-0.1268;0.0466;0.0675;
5252279296375364;-0.1065;0.0626;0.0643;
5252279306477916;-0.0746;0.0115;0.0696;
5252279316580416;-0.0618;0.0210;0.0675;
5252279326680000;-0.0447;0.0210;0.0792;
5252279336782552;-0.0628;-0.0162;0.0611;
5252279346885052;-0.0671;-0.0461;0.0345;
5252279356959948;-0.0852;-0.0312;0.0515;
5252279367062500;-0.0873;-0.0365;0.0430;
5252279377165052;-0.0756;-0.0844;0.0228;
5252279387275104;-0.0756;-0.0834;0.0249;
5252279397377656;-0.1012;-0.0674;0.0068;
5252279407480156;-0.0820;-0.0514;0.0089;
5252279417621093;-0.0383;-0.0770;0.0377;
5252279427723593;-0.0394;-0.0866;0.0217;
5252279437826145;-0.0533;-0.0397;-0.0060;
5252279447889531;-0.0565;-0.0173;0.0068;
5252279457992083;-0.0703;0.0349;0.0015;
5252279468094635;-0.0597;0.0636;-0.0145;
5252279478203906;-0.0426;0.0786;-0.0294;
