Sensor: bmi160 Gyroscope Non-wakeup
Vendor: BOSCH
TimestampGyro [ns]; GyroX [rad/s]; GyroY [rad/s]; GyroZ [rad/s]
2802091531534;-0.0108;0.0169;0.0441;
2802101640128;-0.0097;0.0222;0.0430;
2802111747211;-0.0076;0.0158;0.0377;
2802121855336;-0.0087;0.0148;0.0377;
2802131964503;-0.0087;0.0126;0.0398;
2802142018044;-0.0076;0.0126;0.0387;
2802152178409;-0.0097;0.0116;0.0356;
2802162322992;-0.0097;0.0116;0.0345;
2802172386221;-0.0076;0.0116;0.0324;
2802182494659;-0.0087;0.0126;0.0281;
2802192602471;-0.0087;0.0105;0.0270;
2802202711534;-0.0087;0.0105;0.0260;
2802212820180;-0.0076;0.0063;0.0249;
2802222933513;-0.0076;0.0041;0.0249;
2802233040076;-0.0076;0.0052;0.0249;
2802243157888;-0.0076;0.0084;0.0238;
2802253265388;-0.0076;0.0095;0.0217;
2802263378617;-0.0087;0.0105;0.0228;
2802273482992;-0.0087;0.0095;0.0228;
2802283591846;-0.0087;0.0095;0.0249;
2802293697471;-0.0087;0.0073;0.0281;
2802303806326;-0.0087;0.0073;0.0302;
2802313916742;-0.0108;0.0095;0.0313;
2802324034555;-0.0097;0.0116;0.0313;
2802334134659;-0.0097;0.0105;0.0366;
2802344241482;-0.0108;0.0158;0.0398;
2802354351482;-0.0129;0.0158;0.0430;
2802364469971;-0.0119;0.0148;0.0473;
2802374583201;-0.0140;0.0169;0.0547;
2802384685388;-0.0150;0.0169;0.0622;
2802394802263;-0.0119;0.0180;0.0728;
2802404897888;-0.0055;0.0222;0.0803;
2802415039294;0.0020;0.0244;0.0909;
2802425125544;0.0052;0.0306;0.1015;
2802435237159;0.0063;0.0370;0.1121;
2802445356742;-0.0001;0.0434;0.1238;
2802455455805;-0.0087;0.0487;0.1345;
2802465557628;-0.0214;0.0551;0.1483;
2802475679451;-0.0332;0.0605;0.1632;
2802485787576;-0.0417;0.0679;0.1792;
2802495901117;-0.0332;0.0700;0.1973;
2802506003149;0.0009;0.0743;0.2186;
2802516116951;0.0435;0.0796;0.2453;
2802526229555;0.0627;0.0871;0.2676;
2802536339138;0.0776;0.0956;0.2826;
2802546463669;0.0862;0.1020;0.2921;
2802556550753;0.0766;0.1095;0.3028;
2802566665909;0.0499;0.1116;0.3124;
2802576782680;0.0169;0.1105;0.3177;
2802586903461;-0.0225;0.1126;0.3209;
2802596999763;-0.0640;0.1116;0.3198;
2802607105076;-0.0854;0.1148;0.3209;
2802617216482;-0.0736;0.1212;0.3241;
2802627318826;-0.0726;0.1233;0.3262;
2802637444971;-0.0715;0.1244;0.3252;
2802647551899;-0.0704;0.1233;0.3241;
2802657662992;-0.0704;0.1212;0.3252;
2802667772159;-0.0704;0.1212;0.3252;
2802677879971;-0.0694;0.1233;0.3220;
2802687987471;-0.0651;0.1244;0.3188;
2802698095701;-0.0640;0.1233;0.3166;
2802708216638;-0.0619;0.1233;0.3156;
2802718313930;-0.0630;0.1212;0.3134;
2802728425492;-0.0630;0.1169;0.3145;
2802738532471;-0.0619;0.1137;0.3177;
2802748658044;-0.0630;0.1137;0.3188;
2802758767680;-0.0598;0.1158;0.3166;
2802768878930;-0.0598;0.1180;0.3113;
2802778956951;-0.0566;0.1169;0.3102;
2802789096742;-0.0534;0.1180;0.3092;
2802799188044;-0.0523;0.1180;0.3102;
2802809307211;-0.0523;0.1126;0.3113;
2802819431690;-0.0523;0.1095;0.3071;
2802829585128;-0.0502;0.1095;0.3007;
2802839623096;-0.0481;0.1052;0.2921;
2802849726794;-0.0417;0.1031;0.2826;
2802859831846;-0.0364;0.1041;0.2708;
2802869952680;-0.0321;0.1009;0.2612;
2802880062576;-0.0257;0.0913;0.2559;
2802890174294;-0.0225;0.0818;0.2495;
2802900277784;-0.0236;0.0711;0.2389;
2802910415076;-0.0193;0.0636;0.2272;
2802920516117;-0.0065;0.0626;0.2165;
2802930618409;0.0308;0.0636;0.2069;
2802940753305;0.0851;0.0722;0.1963;
2802950844555;0.1437;0.0775;0.1877;
2802960950909;0.1937;0.0722;0.1814;
2802971055701;0.2001;0.0594;0.1707;
2802981178930;0.1394;0.0349;0.1579;
2802991297576;0.0499;0.0137;0.1611;
2803001391846;0.0531;0.0084;0.1409;
2803011492680;0.1107;0.0190;0.1377;
2803021605284;0.1660;0.0328;0.1334;
2803031722055;0.2108;0.0541;0.1270;
2803041825388;0.2353;0.0668;0.1249;
2803051941221;0.2332;0.0615;0.1206;
2803062049399;0.2023;0.0370;0.1196;
2803072168305;0.1426;0.0031;0.1068;
2803082265388;0.0744;-0.0353;0.0972;
2803092376846;0.0734;-0.0566;0.0899;
2803102485180;0.1032;-0.0545;0.0899;
2803112597992;0.1064;-0.0545;0.0856;
2803122707888;0.1128;-0.0534;0.0782;
2803132813096;0.1362;-0.0310;0.0632;
2803142933409;0.1405;-0.0044;0.0430;
2803153057419;0.1383;0.0148;0.0398;
2803163154971;0.1437;0.0254;0.0451;
2803173268513;0.1479;0.0116;0.0590;
2803183388201;0.1447;-0.0108;0.0654;
2803193501742;0.1437;-0.0172;0.0569;
2803203615284;0.1341;-0.0310;0.0441;
2803213693513;0.1352;-0.0534;0.0441;
2803223807107;0.1522;-0.0587;0.0483;
2803233920596;0.1607;-0.0406;0.0387;
2803244025284;0.1586;-0.0246;0.0217;
2803254138826;0.1565;-0.0161;0.0142;
2803264252315;0.1522;-0.0236;0.0068;
2803274351117;0.1575;-0.0438;0.0057;
2803284464659;0.1714;-0.0545;0.0132;
2803294578201;0.1852;-0.0417;0.0153;
2803304681534;0.1927;-0.0172;0.0079;
2803314795076;0.1895;-0.0225;0.0036;
2803324908617;0.1863;-0.0449;0.0057;
2803335015701;0.1863;-0.0523;0.0025;
2803345129242;0.1969;-0.0609;0.0057;
2803355242784;0.2172;-0.0811;0.0142;
2803365349242;0.2459;-0.0811;0.0057;
2803375462784;0.2619;-0.0630;-0.0145;
2803385576326;0.2374;-0.0672;-0.0220;
2803395668201;0.2182;-0.0843;-0.0113;
2803405781742;0.2363;-0.0747;-0.0103;
2803415895284;0.2662;-0.0470;-0.0145;
2803426025388;0.2651;-0.0332;-0.0220;
2803436138982;0.2534;-0.0204;-0.0305;
2803446252471;0.2438;-0.0172;-0.0369;
2803456329034;0.2417;-0.0374;-0.0337;
2803466442576;0.2747;-0.0726;-0.0209;
2803476556117;0.3557;-0.1035;0.0004;
2803486658513;0.4632;-0.1120;0.0281;
2803496772055;0.5515;-0.1067;0.0558;
2803506885544;0.6037;-0.1003;0.0718;
2803516999659;0.6527;-0.0651;0.0739;
2803527113201;0.6868;-0.0385;0.0824;
2803537226742;0.7028;-0.0300;0.0961;
2803547292888;0.7422;-0.0182;0.1079;
2803557406482;0.7816;-0.0097;0.1206;
2803567519971;0.8082;-0.0023;0.1366;
2803577646534;0.8370;0.0041;0.1696;
2803587760076;0.8232;0.0116;0.1995;
2803597873617;0.7901;0.0423;0.2080;
2803607975076;0.7465;0.0743;0.1856;
2803618088617;0.6730;0.1020;0.1707;
2803628202159;0.5984;0.0956;0.1792;
2803638304242;0.4931;0.0360;0.2176;
2803648417784;0.4068;0.0052;0.2474;
2803658531274;0.3940;0.0201;0.2474;
2803668622576;0.3844;0.0095;0.2485;
2803678736117;0.3897;0.0116;0.2399;
2803688849607;0.4260;0.0498;0.2091;
2803698966430;0.4505;0.0775;0.2091;
2803709080024;0.4036;0.0668;0.2442;
2803719193513;0.3461;0.0519;0.2666;
2803729261169;0.3429;0.0286;0.2698;
2803739374711;0.3503;0.0095;0.2623;
2803749488201;0.3919;0.0126;0.2442;
2803759618096;0.4228;0.0434;0.2367;
2803769731638;0.4079;0.0722;0.2495;
2803779845180;0.3525;0.0711;0.2740;
2803789966117;0.3269;0.0615;0.2900;
2803800079659;0.3322;0.0562;0.2772;
2803810193201;0.3173;0.0233;0.2708;
2803820275284;0.3098;0.0116;0.2815;
2803830388826;0.3322;0.0786;0.2783;
2803840502315;0.3461;0.1286;0.2996;
2803850600076;0.3258;0.1276;0.3209;
2803860713565;0.3418;0.1457;0.2996;
2803870827107;0.3269;0.1350;0.2698;
2803880971065;0.3024;0.0818;0.2762;
2803891084607;0.3184;0.0679;0.2900;
2803901198149;0.3429;0.0551;0.3102;
2803911299242;0.2981;-0.0108;0.3497;
2803921412784;0.2726;-0.0364;0.3443;
2803931526274;0.2758;0.0020;0.2889;
2803941606638;0.2502;0.0244;0.2485;
2803951720180;0.1831;0.0105;0.2421;
2803961833669;0.0627;-0.0119;0.2527;
2803971948201;0.0031;-0.0065;0.2378;
2803982061794;0.0137;-0.0087;0.2165;
2803992175284;-0.0172;-0.0417;0.1952;
2804002263305;-0.0937;-0.0364;0.1558;
2804012376846;-0.1353;-0.0023;0.1260;
2804022490336;-0.1587;0.0126;0.1228;
2804032593826;-0.2162;0.0126;0.1228;
2804042707367;-0.2429;-0.0023;0.1111;
2804052820909;-0.2535;-0.0332;0.0951;
2804062914346;-0.2503;-0.0960;0.1025;
2804073027888;-0.2386;-0.1407;0.1047;
2804083141378;-0.2407;-0.1216;0.0888;
2804093250284;-0.2578;-0.0662;0.0686;
2804103363826;-0.2663;-0.0332;0.0547;
2804113477367;-0.2812;-0.0459;0.0569;
2804123576794;-0.3238;-0.0747;0.0622;
2804133690336;-0.3782;-0.0747;0.0505;
2804143803826;-0.4197;-0.0640;0.0292;
2804153924034;-0.4517;-0.0662;0.0196;
2804164037576;-0.5188;-0.0609;0.0079;
2804174151117;-0.6061;-0.0609;0.0004;
2804184244919;-0.6562;-0.0854;-0.0039;
2804194355336;-0.7253;-0.0875;-0.0124;
2804204465805;-0.8062;-0.0864;-0.0156;
2804214591326;-0.8499;-0.1120;-0.0156;
2804224701742;-0.9192;-0.1088;-0.0294;
2804234812211;-0.9746;-0.0981;-0.0369;
2804244898878;-1.0108;-0.1109;-0.0358;
2804255009294;-1.0363;-0.1013;-0.0401;
2804265119815;-1.0555;-0.0939;-0.0497;
2804275236899;-1.0789;-0.0992;-0.0656;
2804285347315;-1.1098;-0.0960;-0.0827;
2804295457784;-1.1248;-0.0939;-0.0965;
2804305557055;-1.1003;-0.0395;-0.1029;
2804315667471;-1.0150;0.0126;-0.0933;
2804325777940;-0.9096;-0.0119;-0.0944;
2804335889294;-0.7647;-0.0140;-0.0976;
2804345999711;-0.5837;-0.0534;-0.0955;
2804356110180;-0.3835;-0.1290;-0.0795;
2804366217367;-0.1640;-0.1130;-0.0667;
2804376327784;0.0883;-0.0587;-0.0614;
2804386438253;0.2214;-0.0374;-0.0497;
2804396547836;0.3067;0.0009;-0.0497;
2804406658253;0.4324;0.0605;-0.0582;
2804416768721;0.4739;0.0360;-0.0465;
2804426892471;0.4398;-0.0257;-0.0337;
2804437002888;0.4750;-0.0427;-0.0518;
2804447113305;0.5505;-0.0427;-0.0869;
2804457207732;0.5664;-0.0481;-0.1157;
2804467318201;0.5334;-0.0417;-0.1242;
2804477428617;0.4750;-0.0427;-0.1264;
2804487533774;0.4132;-0.0577;-0.1541;
2804497644190;0.3663;-0.1248;-0.1956;
2804507754659;0.3109;-0.1897;-0.2276;
2804517857159;0.3098;-0.1503;-0.2403;
2804527967576;0.2640;-0.0928;-0.2499;
2804538077992;0.2278;-0.1365;-0.2510;
2804548227159;0.2289;-0.2292;-0.2531;
2804558337576;0.2449;-0.1897;-0.2808;
2804568447992;0.2790;-0.0683;-0.2904;
2804578522524;0.2662;-0.0577;-0.2648;
2804588632992;0.2683;-0.0683;-0.2574;
2804598743461;0.3045;-0.0012;-0.2755;
2804608871378;0.3631;0.0276;-0.2723;
2804618981846;0.3354;-0.0374;-0.2371;
2804629092263;0.3503;-0.0289;-0.2222;
2804639176482;0.4824;0.0487;-0.2403;
2804649286899;0.5174;0.0041;-0.2286;
2804659397367;0.4718;-0.0779;-0.1924;
2804669519451;0.5494;-0.0640;-0.1530;
2804679629919;0.6580;-0.0353;-0.1093;
2804689740336;0.6868;-0.0779;-0.0667;
2804699844242;0.5973;-0.1248;-0.0273;
2804709954711;0.5005;-0.0939;-0.0039;
2804720065128;0.4558;-0.0300;-0.0103;
2804730167680;0.3429;-0.0300;0.0047;
2804740278096;0.1895;-0.0236;0.0345;
2804750388513;0.1895;0.0434;0.0654;
2804760492159;0.1522;0.0328;0.1100;
2804770602524;0.0041;-0.0172;0.1377;
2804780712992;-0.1310;-0.0513;0.1579;
2804790816274;-0.2471;-0.0236;0.1803;
2804800926690;-0.3899;0.0031;0.1899;
2804811037159;-0.5252;-0.0662;0.1973;
2804821163878;-0.6402;-0.1162;0.2037;
2804831274346;-0.5635;-0.1173;0.2293;
2804841384763;-0.4804;-0.0896;0.2634;
2804851490544;-0.5795;0.0020;0.2410;
2804861601013;-0.6668;0.0413;0.2165;
2804871711430;-0.6807;-0.0513;0.2272;
2804881831534;-0.7551;-0.0534;0.2399;
2804891941951;-0.7977;0.0477;0.2421;
2804902052367;-0.7796;0.0935;0.2314;
2804912138253;-0.8734;0.0349;0.2218;
2804922248669;-0.9501;-0.0278;0.2122;
2804932359138;-0.9820;-0.0236;0.2037;
2804942482263;-1.0118;-0.0087;0.1750;
2804952592680;-1.0001;-0.0491;0.1814;
2804962703201;-0.9884;-0.0822;0.1846;
2804972810649;-0.8957;-0.0470;0.1782;
2804982921065;-0.8244;-0.0012;0.1526;
2804993031534;-0.8254;0.0233;0.1153;
2805003147628;-0.7860;-0.0609;0.1238;
2805013258044;-0.7338;-0.1407;0.1366;
2805023368565;-0.6274;-0.0928;0.1366;
2805033459659;-0.5166;-0.0353;0.1345;
2805043570024;-0.4687;-0.0555;0.1260;
2805053680492;-0.4644;-0.0672;0.1185;
2805063805596;-0.4080;-0.0076;0.1089;
2805073916013;-0.3238;0.0391;0.0972;
2805084026482;-0.3217;0.0063;0.0993;
2805094123096;-0.3632;-0.0502;0.1111;
2805104233513;-0.3483;-0.0108;0.0951;
2805114343982;-0.3025;0.0286;0.0473;
2805124429503;-0.3270;-0.0385;0.0249;
2805134539919;-0.4335;-0.1386;0.0004;
2805144650388;-0.4463;-0.0960;-0.0305;
2805154767055;-0.4250;-0.0395;-0.0806;
2805164877419;-0.4964;-0.0928;-0.1285;
2805174987888;-0.5955;-0.1205;-0.1615;
2805185098305;-0.6391;-0.0971;-0.1764;
2805195226169;-0.6445;-0.0768;-0.2329;
2805205336586;-0.6700;-0.0640;-0.2968;
2805215447107;-0.6743;-0.0001;-0.3192;
2805225572888;-0.6743;0.0530;-0.3245;
2805235683305;-0.6285;0.0360;-0.3479;
2805245793774;-0.5134;0.0265;-0.3618;
2805255888669;-0.3909;0.0839;-0.3458;
2805265999138;-0.2844;0.1031;-0.3501;
2805276109555;-0.1875;0.0626;-0.3415;
2805286206013;-0.1246;0.0775;-0.3447;
2805296316378;-0.1502;0.1403;-0.3650;
2805306426899;-0.1417;0.1957;-0.3873;
2805316544399;-0.1300;0.1680;-0.3873;
2805326654815;-0.1033;0.1553;-0.4118;
2805336765284;-0.0150;0.1585;-0.4449;
2805346926846;0.0276;0.1265;-0.4150;
2805357037263;0.0979;0.1478;-0.4055;
2805367147784;0.1671;0.0530;-0.4417;
2805377203513;0.2513;-0.0800;-0.4598;
2805387313982;0.4537;0.0265;-0.4662;
2805397424399;0.4036;0.1883;-0.4864;
2805407519086;0.3269;0.0988;-0.4939;
2805417629503;0.5292;0.0903;-0.5310;
2805427739971;0.5771;0.3257;-0.5385;
2805437862524;0.3929;0.4663;-0.5374;
2805447972940;0.5313;0.3726;-0.5587;
2805458083409;0.7805;0.0988;-0.5587;
2805468181221;1.0650;0.0212;-0.5162;
2805478291586;1.1586;0.1190;-0.4853;
2805488402107;1.2129;0.0052;-0.4342;
2805498514607;1.5261;-0.0534;-0.4023;
2805508625076;1.5793;0.0222;-0.3170;
2805518735544;1.6358;0.0711;-0.2521;
2805528868774;1.7816;0.0338;-0.1967;
2805538979242;1.7869;0.0190;-0.1466;
2805549089659;1.7571;0.1041;-0.0859;
2805559180649;1.7274;0.1563;-0.0166;
2805569291117;1.7263;0.1499;0.0707;
2805579401534;1.6592;0.1265;0.1153;
2805589539659;1.5676;0.1670;0.2027;
2805599650128;1.4835;0.1989;0.2581;
2805609760596;1.3620;0.1084;0.3316;
2805619814399;1.1735;0.0818;0.3624;
2805629924867;0.8999;0.1148;0.3699;
2805640035336;0.6133;0.1403;0.3955;
2805650162003;0.3152;0.1318;0.3901;
2805660272419;0.1192;0.0977;0.3678;
2805670382888;-0.1363;0.0573;0.3699;
2805680489555;-0.3654;-0.0278;0.3507;
2805690599971;-0.5614;-0.0545;0.3411;
2805700710388;-0.7754;-0.0214;0.2964;
2805710837524;-0.9074;-0.0129;0.2240;
2805720947940;-0.9937;-0.0406;0.1973;
2805731058461;-1.0513;-0.0364;0.1846;
2805741168461;-0.9884;-0.0960;0.1473;
2805751278878;-0.9437;-0.1407;0.1206;
2805761389346;-0.9341;-0.0971;0.0824;
2805771484399;-0.8031;-0.0672;0.0601;
2805781594815;-0.6509;-0.1908;0.0569;
2805791705284;-0.5837;-0.2068;0.0441;
2805801827992;-0.4953;-0.0694;0.0100;
2805811938409;-0.2887;-0.0278;-0.0039;
2805822048826;-0.1001;-0.0992;0.0100;
2805832151169;0.0116;-0.0928;-0.0113;
2805842261638;0.1245;-0.0491;-0.0337;
2805852372055;0.1447;-0.0150;-0.0262;
2805862474503;0.1650;-0.0268;-0.0401;
2805872584919;0.2321;-0.0236;-0.0763;
2805882695388;0.2087;-0.0076;-0.0720;
2805892804294;0.1916;0.0020;-0.0838;
2805902914711;0.2534;-0.0534;-0.1019;
2805913025180;0.2172;-0.0395;-0.1072;
2805923134919;0.1799;-0.0108;-0.1146;
2805933245336;0.1831;0.0009;-0.1413;
2805943355805;0.1245;-0.0332;-0.1232;
2805953467263;0.1149;-0.1067;-0.1136;
2805963577680;0.0766;-0.1237;-0.1136;
2805973688149;0.0009;-0.0694;-0.1093;
2805983804294;-0.0076;-0.0481;-0.1125;
2805993914711;-0.0513;-0.0172;-0.1146;
2806004025180;-0.0427;0.0605;-0.0912;
2806014097471;-0.0055;0.0605;-0.1115;
2806024207888;-0.0001;0.0743;-0.0838;
2806034318305;-0.0065;0.0860;-0.0646;
2806044447992;-0.0459;0.0286;-0.0507;
2806054558409;-0.0214;0.0041;-0.0252;
2806064668826;-0.0214;-0.0204;-0.0316;
2806074782107;-0.0651;-0.0225;0.0068;
2806084892524;-0.0513;-0.0065;0.0206;
2806095002992;-0.0715;-0.0044;0.0441;
2806105104919;-0.0257;0.0306;0.0494;
2806115215336;-0.0854;0.0775;0.0334;
2806125325753;-0.0555;0.0711;0.0537;
2806135445388;-0.0875;0.0306;0.0750;
2806145555544;-0.1609;0.1169;0.1068;
2806155665805;-0.2003;0.1872;0.0877;
2806165776013;-0.1491;0.0967;0.0940;
2806175886169;-0.1609;0.0244;0.0877;
2806185996430;-0.3600;0.1830;0.1079;
2806196102471;-0.3771;0.1467;0.1132;
2806206212680;-0.3228;0.0349;0.1057;
2806216322888;-0.4634;0.0988;0.0867;
2806226449867;-0.6498;0.1574;0.0686;
2806236560076;-0.5678;0.0583;0.0473;
2806246670284;-0.5976;-0.0513;0.0654;
2806256753149;-0.7668;0.0190;0.0334;
2806266863357;-0.8968;0.0977;0.0249;
2806276973513;-0.8808;0.0498;0.0164;
2806287088513;-0.9341;0.0413;-0.0017;
2806297198721;-1.0417;0.0786;-0.0422;
2806307308930;-1.0960;0.0892;-0.0752;
2806317418096;-1.0299;0.0009;-0.0976;
2806327528305;-1.0086;-0.0491;-0.1115;
2806337638513;-1.0353;-0.0044;-0.1242;
2806347763878;-1.0033;-0.0332;-0.1519;
2806357874086;-0.8776;-0.0246;-0.1988;
2806367984294;-0.8371;0.0519;-0.1956;
2806378079190;-0.6796;0.0509;-0.2148;
2806388189451;-0.4197;-0.0097;-0.2169;
2806398299659;-0.2471;-0.0342;-0.2063;
2806408413409;-0.2557;-0.0044;-0.2126;
2806418523617;-0.2077;-0.0150;-0.2254;
2806428633826;-0.0225;-0.0619;-0.2233;
2806438734190;0.0968;-0.0736;-0.2233;
2806448844399;0.1937;-0.0427;-0.1924;
2806458954607;0.3280;-0.0246;-0.1711;
2806469067888;0.4931;-0.0864;-0.1402;
2806479178044;0.6059;-0.0758;-0.1178;
2806489288253;0.6218;-0.0374;-0.1093;
2806499392888;0.7326;-0.0907;-0.0891;
2806509503149;0.7987;-0.0854;-0.0603;
2806519613305;0.7731;-0.0960;-0.0539;
2806529713305;0.7507;-0.1067;-0.0411;
2806539823513;0.7007;-0.0438;-0.0039;
2806549933721;0.6325;-0.0385;0.0121;
2806560050492;0.5643;-0.0854;0.0015;
2806570160701;0.4899;-0.1152;0.0249;
2806580270909;0.3471;-0.1375;0.0537;
2806590399659;0.2055;-0.1344;0.0430;
2806600509867;0.1192;-0.1312;0.0356;
2806610620076;0.0095;-0.1067;0.0260;
2806620708149;-0.0555;-0.0822;0.0004;
2806630818357;0.0031;-0.0481;0.0079;
2806640928565;-0.0438;-0.0864;-0.0028;
2806651057628;0.0009;-0.0907;-0.0071;
2806661167836;0.0073;-0.0822;-0.0220;
2806671278044;0.0403;-0.0726;0.0025;
2806681364034;0.0329;-0.1130;-0.0220;
2806691474242;0.0510;-0.0662;-0.0294;
2806701584451;0.0595;-0.0193;-0.0720;
2806711711221;0.0712;-0.0939;-0.0774;
2806721821430;0.0531;-0.1280;-0.0987;
2806731931638;0.0563;-0.1077;-0.0859;
2806742035388;0.0659;-0.0704;-0.1221;
2806752145596;0.1373;-0.0555;-0.1146;
2806762255805;0.1213;-0.1024;-0.1583;
2806772364971;0.1330;-0.0971;-0.1349;
2806782475180;0.1852;-0.0470;-0.1498;
2806792585388;0.2587;-0.0523;-0.1573;
2806802699815;0.3003;-0.0566;-0.1562;
2806812810024;0.3652;-0.0385;-0.1541;
2806822920232;0.4142;-0.0246;-0.1328;
2806833039242;0.4217;-0.0140;-0.1413;
2806843149451;0.4462;-0.0481;-0.1125;
2806853259659;0.4867;-0.0896;-0.1146;
2806863357159;0.5206;-0.0353;-0.1072;
2806873467367;0.5675;0.0711;-0.1008;
2806883577576;0.6474;0.1403;-0.0571;
2806893681899;0.7102;0.1329;-0.0454;
2806903792107;0.7614;0.0317;-0.0401;
2806913902315;0.8210;-0.0076;0.0313;
2806924014242;0.8359;0.0084;0.0505;
2806934124451;0.8786;-0.0193;0.1089;
2806944234659;0.8434;-0.0928;0.1047;
2806954349815;0.8530;-0.0704;0.1132;
2806964460024;0.8519;0.0519;0.1494;
2806974570232;0.8562;-0.0768;0.1814;
2806984669399;0.8956;-0.1354;0.2176;
2806994779659;0.7667;0.1329;0.1877;
2807004889867;0.5228;0.2607;0.1952;
2807014989971;0.4995;0.1265;0.1888;
2807025100128;0.6623;0.0084;0.1792;
2807035210388;0.5611;-0.0470;0.1483;
2807045326013;0.3599;-0.0545;0.1334;
2807055436221;0.3493;-0.1216;0.1174;
2807065546430;0.2928;-0.0885;0.0856;
2807075654138;0.1543;0.0647;0.0345;
2807085764346;0.0553;0.0233;0.0643;
2807095874555;0.0776;-0.0385;0.0430;
2807106004034;0.1522;-0.0033;-0.0252;
2807116114242;0.0638;0.0020;-0.0220;
2807126224503;0.0361;-0.0214;-0.0390;
2807136317159;0.0180;0.0158;-0.0933;
2807146427003;0.0968;-0.0353;-0.1253;
2807156536899;0.1394;-0.1450;-0.1274;
2807166652263;0.2055;-0.1503;-0.1232;
2807176762159;0.2406;-0.2047;-0.0965;
2807186872003;0.3546;-0.2569;-0.0816;
2807196979034;0.3493;-0.1961;-0.0901;
2807207088930;0.3844;-0.0417;-0.1008;
2807217198826;0.5153;-0.0140;-0.0976;
2807227297992;0.6335;-0.0545;-0.0859;
2807237407888;0.6676;-0.0385;-0.0720;
2807247517784;0.7134;-0.0193;-0.0880;
2807257634763;0.8679;-0.0300;-0.0955;
2807267744659;0.9691;-0.0768;-0.0411;
2807277854555;0.9744;-0.0353;0.0302;
2807287960573;1.0394;-0.0012;0.0835;
2807298070261;1.0948;-0.0939;0.1079;
2807308180157;1.1351;-0.1706;0.1015;
2807318281459;1.0714;-0.0630;0.1047;
2807328391355;0.9851;0.1031;0.0961;
2807338501251;0.9680;0.1425;0.1111;
2807348636199;0.9957;0.1553;0.1249;
2807358746042;0.9766;0.2149;0.1345;
2807368855990;0.9116;0.1851;0.1569;
2807378948907;0.8722;0.0828;0.1888;
2807389058803;0.7763;0.0158;0.2101;
2807399168647;0.6570;0.0455;0.2431;
2807409279897;0.5112;0.0222;0.2304;
2807419389792;0.5133;-0.0854;0.2730;
2807429499740;0.4771;-0.1035;0.2644;
2807439608907;0.4963;-0.0161;0.2815;
2807449718803;0.5059;0.0328;0.3007;
2807459828699;0.5302;0.0105;0.3529;
2807469974376;0.4888;0.0732;0.3316;
2807480084272;0.5238;0.1585;0.3539;
2807490194167;0.5090;0.1371;0.3901;
2807500253178;0.5005;0.1297;0.4423;
2807510363126;0.4867;0.1244;0.4498;
2807520472969;0.4686;0.1308;0.4583;
2807530613126;0.4004;0.1329;0.4690;
2807540723022;0.4079;0.1041;0.5254;
2807550832917;0.2790;0.1158;0.5638;
2807560919584;0.2065;0.1627;0.5776;
2807571029480;0.0840;0.0977;0.5915;
2807581139376;-0.0214;0.1116;0.6064;
2807591261824;-0.2152;0.1446;0.6064;
2807601371667;-0.3281;0.1137;0.5936;
2807611481563;-0.4751;0.1020;0.5680;
2807621581042;-0.6509;0.0913;0.5403;
2807631690938;-0.7786;0.0541;0.5521;
2807641800834;-0.9106;0.0402;0.5084;
2807651928907;-0.9660;0.0306;0.4509;
2807662038803;-1.0523;-0.0758;0.3891;
2807672148699;-1.0704;-0.0971;0.3752;
2807682256511;-1.1130;-0.0747;0.3475;
2807692366407;-1.1812;-0.1226;0.2719;
2807702476303;-1.1791;-0.1258;0.1707;
2807712583178;-1.1141;-0.1045;0.0824;
2807722693074;-1.0672;-0.1184;0.0601;
2807732802969;-1.0214;-0.1312;0.0217;
2807742904219;-0.9596;-0.1429;-0.0049;
2807753014115;-0.8489;-0.1088;-0.0465;
2807763124011;-0.7359;-0.0619;-0.0518;
2807773239844;-0.6849;-0.0619;-0.0774;
2807783349740;-0.5039;-0.0385;-0.1253;
2807793459636;-0.3302;0.0370;-0.1338;
2807803574011;-0.1651;0.1222;-0.1008;
2807813683855;-0.0545;0.1744;-0.0742;
2807823793803;-0.0321;0.1553;-0.0507;
2807833904897;-0.0097;0.0967;-0.0539;
2807844014792;0.0627;0.0233;-0.0475;
2807854124688;0.0563;-0.0662;-0.0443;
2807864223178;0.0457;-0.1013;-0.0241;
2807874333074;0.0009;-0.0896;0.0121;
2807884442969;-0.0928;-0.0534;0.0377;
2807894553178;-0.1481;-0.0182;-0.0230;
2807904663022;-0.1353;-0.0672;-0.1008;
2807914772969;-0.1438;-0.1120;-0.1360;
2807924890990;-0.2269;-0.1514;-0.0965;
2807935000886;-0.2322;-0.0289;-0.0603;
2807945110730;-0.3270;0.1148;0.0228;
2807955219949;-0.4687;0.1318;0.0057;
2807965329844;-0.4431;0.1457;-0.0369;
2807975439740;-0.4112;0.1563;-0.0614;
2807985567553;-0.4506;0.1425;-0.1146;
2807995677449;-0.3622;0.0871;-0.1317;
2808005787344;-0.2727;0.0509;-0.1360;
2808015875313;-0.2695;-0.0385;-0.1306;
2808025985157;-0.1896;-0.1035;-0.0731;
2808036095105;-0.2258;-0.1067;-0.0326;
2808046196355;-0.2695;-0.0981;-0.0411;
2808056306303;-0.1694;-0.0459;-0.0358;
2808066416147;-0.1662;0.0063;-0.0113;
2808076526667;-0.1779;0.0084;0.0430;
2808086636615;-0.2194;0.0148;0.0856;
2808096746511;-0.2684;0.0391;0.0929;
2808106875886;-0.2844;0.0434;0.1036;
2808116985782;-0.3153;0.0690;0.0664;
2808127095678;-0.3089;0.0903;0.0579;
2808137193803;-0.3334;0.0711;0.0824;
2808147303647;-0.3686;0.0413;0.0387;
2808157413542;-0.3217;0.0084;0.0441;
2808167523386;-0.3558;-0.0172;0.0238;
2808177633230;-0.3515;-0.0193;-0.0145;
2808187743126;-0.3941;-0.0055;-0.0390;
2808197844636;-0.4027;0.0668;-0.0720;
2808207954532;-0.4154;0.1020;-0.0667;
2808218064428;-0.4868;0.0679;-0.1072;
2808228181511;-0.4836;0.0690;-0.1466;
2808238291355;-0.3590;0.1212;-0.1381;
2808248401251;-0.4069;0.1371;-0.1487;
2808258500209;-0.3803;0.0615;-0.1690;
2808268610105;-0.3313;0.0254;-0.2052;
2808278720001;-0.2897;-0.0172;-0.2297;
2808288849688;-0.2418;-0.0055;-0.2084;
2808298959584;-0.1992;0.0063;-0.2148;
2808309069480;-0.2237;-0.0214;-0.2116;
2808319170730;-0.1278;0.0105;-0.2073;
2808329280626;-0.1214;0.0148;-0.2020;
2808339390522;-0.0598;-0.0225;-0.2126;
2808349568594;-0.0087;-0.0395;-0.1860;
2808359678490;-0.0694;-0.0619;-0.1999;
2808369788334;-0.0321;-0.0119;-0.2382;
2808379829219;-0.0566;-0.0577;-0.2563;
2808389939063;-0.0694;-0.1535;-0.3181;
2808400048959;0.0137;-0.1173;-0.3320;
2808410177136;-0.0268;-0.0779;-0.3565;
2808420286980;0.0680;-0.1035;-0.3895;
2808430396876;0.2577;-0.1312;-0.3565;
2808440496719;0.3961;-0.1312;-0.3245;
2808450606563;0.5739;-0.1589;-0.2957;
2808460716459;0.8061;-0.2015;-0.2712;
2808470824428;1.0522;-0.2228;-0.2201;
2808480934272;1.2321;-0.2324;-0.1221;
2808491044167;1.3173;-0.2483;-0.1285;
2808501145886;1.4228;-0.1727;-0.0891;
2808511255730;1.4089;-0.1077;-0.0539;
2808521365626;1.3524;-0.1173;-0.0145;
2808531467084;1.2949;-0.1152;0.0111;
2808541576980;1.1596;-0.0864;0.0324;
2808551686876;0.9861;-0.0417;0.0324;
2808561809844;0.8391;-0.0726;-0.0039;
2808571919688;0.6240;-0.1493;-0.0060;
2808582029584;0.3929;-0.1802;-0.0337;
2808592139740;0.2321;-0.1844;-0.0145;
2808602249584;0.1266;-0.1514;-0.0071;
2808612359480;-0.0587;-0.1141;-0.0060;
2808622468490;-0.1246;-0.0768;-0.0230;
2808632578334;-0.1395;-0.0353;-0.0379;
2808642688230;-0.1236;-0.0065;-0.0252;
2808652810261;-0.0630;-0.0459;-0.0284;
2808662920157;0.0840;-0.0513;-0.0134;
2808673030001;0.3109;0.0244;0.0036;
2808683124636;0.3205;-0.0172;0.0260;
2808693234480;0.5324;-0.0736;0.0590;
2808703344376;0.6517;-0.0736;0.0675;
2808713465053;0.7582;-0.0310;0.0972;
2808723574897;0.8338;0.0009;0.1132;
2808733684792;0.8690;-0.0108;0.1249;
2808743786303;0.9084;0.0063;0.1569;
2808753896147;0.8200;0.0338;0.1675;
2808764006042;0.8093;0.0381;0.1941;
2808774111303;0.7305;-0.0310;0.2112;
2808784221147;0.6357;-0.0449;0.2048;
2808794331042;0.5366;-0.0598;0.2069;
2808804444532;0.3535;-0.0939;0.2091;
2808814554376;0.3162;-0.0864;0.1909;
2808824664272;0.2704;-0.0854;0.1909;
2808834774063;0.0648;-0.0822;0.1782;
2808844883907;-0.0321;-0.0459;0.1718;
2808854993803;-0.1193;-0.0204;0.1739;
2808865105001;-0.2663;-0.0278;0.1409;
2808875214897;-0.3079;-0.0449;0.1260;
2808885324792;-0.4144;-0.0768;0.1302;
2808895424376;-0.4762;-0.0822;0.0993;
2808905534272;-0.4165;-0.0822;0.0792;
2808915644167;-0.3217;-0.0949;0.0728;
2808925765261;-0.1917;-0.0864;0.0707;
2808935875105;-0.0161;-0.0704;0.0899;
2808945985001;0.1447;-0.0268;0.0940;
2808956086980;0.2172;-0.0523;0.0846;
2808966196824;0.2459;-0.0896;0.0835;
2808976306719;0.2619;-0.0875;0.0951;
2808986433803;0.3141;-0.0917;0.1281;
2808996543647;0.3333;-0.1194;0.1537;
2809006653542;0.3067;-0.1088;0.1558;
2809016751303;0.2928;-0.0694;0.1803;
2809026861147;0.1501;-0.0672;0.1877;
2809036971042;0.0862;-0.1258;0.2176;
2809047080990;0.1138;-0.0917;0.2644;
2809057190834;-0.0193;-0.0555;0.2602;
2809067300730;-0.1523;-0.0758;0.2399;
2809077409740;-0.2280;-0.0736;0.2612;
2809087519584;-0.3611;-0.0566;0.2591;
2809097629480;-0.4399;-0.0534;0.2666;
2809107734636;-0.5848;-0.0928;0.2719;
2809117844480;-0.6690;-0.1045;0.2506;
2809127954376;-0.6551;-0.0822;0.2644;
2809138062917;-0.7338;-0.0513;0.2378;
2809148172761;-0.7615;-0.0566;0.2240;
2809158282553;-0.7402;-0.0790;0.2005;
2809168398386;-0.6477;-0.0236;0.1973;
2809178508178;-0.6306;-0.0055;0.2080;
2809188617969;-0.6636;0.0041;0.1707;
2809198714428;-0.6168;0.0169;0.1814;
2809208824219;-0.6157;0.0244;0.2240;
2809218934011;-0.6722;0.0190;0.1931;
2809229043282;-0.6146;0.0244;0.1654;
2809239153126;-0.6604;0.0413;0.1473;
2809249262917;-0.7029;0.1095;0.1206;
2809259387449;-0.6860;0.1041;0.1004;
2809269497240;-0.7903;0.0338;0.1142;
2809279607032;-0.9501;-0.0150;0.0972;
2809289711928;-0.9309;0.0084;0.0537;
2809299821719;-0.9106;0.1052;0.0121;
2809309931511;-1.1429;0.0265;-0.0007;
2809320065469;-1.2142;-0.0321;-0.0774;
2809330175261;-1.0939;0.0297;-0.1381;
2809340285053;-1.0534;0.0999;-0.2073;
2809350381928;-0.9277;0.1190;-0.2563;
2809360491719;-0.8094;0.0764;-0.2776;
2809370601511;-0.5518;0.0999;-0.3032;
2809380720053;-0.3984;0.0615;-0.2979;
2809390829844;-0.3707;-0.0129;-0.3213;
2809400939636;-0.2130;-0.0577;-0.3415;
2809411026303;-0.0534;-0.0960;-0.3309;
2809421136094;-0.0076;-0.1439;-0.2830;
2809431245886;0.0350;-0.1727;-0.2425;
2809441359428;0.1032;-0.2121;-0.2382;
2809451469219;0.0244;-0.3485;-0.2606;
2809461579011;0.1149;-0.1471;-0.3426;
2809471698282;0.1032;0.4770;-0.4108;
2809481808074;-0.0204;0.7272;-0.3320;
2809491917865;-0.1108;0.4652;-0.2563;
2809502027657;0.2608;0.2607;-0.1807;
2809512137449;0.6005;0.0690;-0.0731;
2809522247240;0.4675;-0.2867;0.0718;
2809532355678;0.2012;-0.4987;0.1079;
2809542465469;-0.0406;-0.5200;0.1302;
2809552575261;-0.3110;-0.4827;0.1728;
2809562684844;-0.4027;-0.5391;0.1260;
2809572794636;-0.4581;-0.7116;-0.0507;
2809582904428;-0.3036;-0.6626;-0.1668;
2809593025574;-0.2184;-0.4795;-0.1626;
2809603135365;-0.2312;-0.1109;-0.1487;
2809613245157;-0.1332;0.2937;-0.1828;
2809623348803;0.1288;0.5643;-0.2190;
2809633458594;0.4888;0.6547;-0.1658;
2809643568386;0.5249;0.4546;-0.1786;
2809653659011;0.5579;0.7495;-0.2723;
2809663768855;0.6346;1.4269;-0.4385;
2809673878647;0.5101;1.5707;-0.3671;
2809684008699;0.6016;1.2490;-0.1881;
2809694118490;0.8423;1.1224;-0.1083;
2809704228282;0.7774;0.9082;-0.1242;
2809714337657;0.6719;0.3214;-0.1253;
2809724447449;0.8583;-0.2015;-0.0443;
2809734557240;0.8817;-0.2355;0.0111;
2809744668907;0.8391;0.0935;0.1164;
2809754778699;0.6101;0.2256;0.2133;
2809764888490;0.3972;0.2298;0.1196;
2809775003074;0.1639;0.6261;-0.0017;
2809785112813;-0.0843;1.4940;-0.0475;
2809795222657;0.4856;2.4929;-0.0997;
2809805322657;0.1554;2.1543;-0.0742;
2809815432449;-0.5443;1.2490;0.0686;
2809825542240;-0.3473;1.4855;0.0940;
2809835665157;0.1671;1.4972;0.0760;
2809845774949;-0.1023;0.5004;0.0217;
2809855884740;-0.0800;-0.3985;-0.0007;
2809866001407;-0.0087;-0.9513;-0.0752;
2809876111199;0.0617;-0.7361;-0.1349;
2809886220990;-0.1534;-0.4592;-0.2915;
2809896306303;-0.2738;-0.6061;-0.3810;
2809906416094;-0.0885;-0.4454;-0.3895;
2809916525886;-0.0427;-0.1077;-0.3682;
2809926647761;-0.0033;0.1670;-0.3298;
2809936757553;0.1628;0.3662;-0.2702;
2809946867344;0.1394;0.2916;-0.1690;
2809956966980;0.1501;0.1585;-0.0880;
2809967076772;0.1671;0.0647;-0.0401;
2809977186563;0.0680;-0.1354;-0.0081;
2809987290678;0.0755;-0.1152;-0.0550;
2809997400522;0.1671;0.4493;-0.0379;
2810007510313;0.2566;1.1256;-0.0166;
2810017620626;-0.1513;-0.3634;0.1089;
2810027730469;-0.4644;-1.4891;0.0228;
2810037840261;-0.7860;-1.1281;-0.0369;
2810047952813;-1.0587;-0.8202;-0.2308;
2810058062657;-0.6796;-0.4379;-0.3490;
2810068172449;-0.3281;-0.4518;-0.4150;
2810078276772;-0.0747;-0.3261;-0.3043;
2810088386615;0.0659;0.1393;-0.1818;
2810098496407;0.2161;0.1691;-0.0348;
2810108611928;0.4814;-0.0161;-0.0092;
2810118721719;0.5069;0.0413;-0.0113;
2810128831511;0.3706;0.0626;-0.0060;
2810138933594;0.4558;-0.0704;-0.0060;
2810149043386;0.4675;-0.0896;0.0228;
2810159153126;0.3812;-0.1194;0.0728;
2810169259897;0.3738;-0.2888;0.0601;
2810179369740;0.3855;-0.2345;0.0739;
2810189479532;0.3482;-0.1897;0.0803;
2810199634011;0.4664;-0.2057;0.1409;
2810209743803;0.5005;-0.0939;0.1707;
2810219853647;0.5228;-0.0470;0.1814;
2810229961615;0.6911;-0.0545;0.1718;
2810240071407;0.7241;0.0636;0.1920;
2810250181199;0.7369;0.0690;0.2399;
2810260255105;0.7667;0.0190;0.2815;
2810270364949;0.7486;0.0583;0.2868;
2810280474740;0.6346;0.0903;0.2911;
2810290591094;0.5654;-0.0076;0.3007;
2810300700886;0.3802;-0.0300;0.3284;
2810310810678;0.1692;-0.0747;0.3561;
2810320923699;0.0936;-0.1535;0.3465;
2810331033490;0.0734;-0.0822;0.3198;
2810341143282;-0.0204;-0.0055;0.2975;
2810351256563;-0.0246;-0.0811;0.3262;
2810361366355;-0.1758;-0.0491;0.3007;
2810371476147;-0.2631;0.0903;0.3049;
2810381576459;-0.3377;0.0573;0.2911;
2810391686303;-0.4090;0.0116;0.2762;
2810401796094;-0.6317;0.0148;0.2069;
2810411926407;-0.7029;0.0402;0.1451;
2810422036199;-0.7743;-0.0119;0.1334;
2810432145990;-0.8307;-0.1099;0.1132;
2810442256094;-0.8840;-0.1482;0.0888;
2810452365886;-0.7881;-0.1397;0.0462;
2810462475678;-0.6200;-0.1269;-0.0017;
2810472580053;-0.4410;-0.1876;-0.0081;
2810482689844;-0.2365;-0.1674;0.0121;
2810492799636;-0.0395;-0.0736;-0.0017;
2810502893855;0.1373;-0.0566;-0.0060;
2810513003699;0.2555;-0.0459;0.0111;
2810523113490;0.2907;-0.1216;0.0260;
2810533242397;0.3557;-0.1812;0.0632;
2810543352188;0.3322;-0.2068;0.0441;
2810553461980;0.4260;-0.1983;0.0771;
2810563559063;0.4707;-0.1823;0.0601;
2810573668855;0.5473;-0.1589;0.0718;
2810583778647;0.5387;-0.0694;0.0951;
2810593902136;0.5877;-0.0065;0.1036;
2810604011928;0.6335;0.0105;0.1366;
2810614121719;0.5931;0.0201;0.1558;
2810624215105;0.5792;-0.0044;0.1782;
2810634324949;0.4920;-0.0385;0.1888;
2810644434740;0.3652;-0.0822;0.1995;
2810654565574;0.2523;-0.1280;0.2069;
2810664675365;0.1277;-0.0811;0.2101;
2810674785157;0.1192;-0.0332;0.2080;
2810684871303;0.1298;-0.0225;0.2080;
2810694981147;0.0446;-0.0555;0.2069;
2810705090938;-0.0438;-0.0023;0.2027;
2810715207240;-0.1310;-0.0033;0.2165;
2810725317032;-0.2067;-0.0459;0.2091;
2810735426824;-0.3164;-0.0257;0.2027;
2810745531094;-0.4506;-0.0119;0.1814;
2810755640886;-0.5316;-0.0097;0.1590;
2810765750678;-0.6370;-0.0193;0.1675;
2810775877553;-0.7796;-0.0491;0.1590;
2810785987344;-0.8521;-0.0204;0.1164;
2810796097136;-0.8915;0.0711;0.0867;
2810806196303;-0.8659;0.0487;0.0419;
2810816306094;-0.8489;0.0349;-0.0081;
2810826415886;-0.8510;0.0647;-0.0507;
2810836535469;-0.8052;0.0636;-0.0561;
2810846645261;-0.7604;0.1265;-0.0443;
2810856755053;-0.7445;0.1169;-0.0497;
2810866879219;-0.6519;0.0871;-0.0688;
2810876989011;-0.6232;0.0860;-0.1115;
2810887098803;-0.5688;0.1041;-0.1349;
2810897185990;-0.5230;0.0594;-0.1445;
2810907295782;-0.4495;-0.0108;-0.1328;
2810917405574;-0.4165;-0.0545;-0.1296;
2810927520469;-0.3579;-0.0427;-0.1274;
2810937630261;-0.3345;-0.0289;-0.1285;
2810947740053;-0.3004;-0.0630;-0.1168;
2810957848699;-0.3238;-0.0651;-0.1264;
2810967958490;-0.2908;0.0180;-0.1253;
2810978068282;-0.3089;0.0764;-0.1115;
2810988177344;-0.3036;0.0413;-0.1157;
2810998287136;-0.2961;0.0349;-0.1083;
2811008396928;-0.2716;0.0679;-0.1104;
2811018508178;-0.2759;0.0956;-0.1083;
2811028617969;-0.3174;0.0541;-0.1083;
2811038727761;-0.3750;-0.0619;-0.1232;
2811048827553;-0.4453;-0.0779;-0.1146;
2811058937344;-0.5561;-0.0854;-0.1200;
2811069047136;-0.5997;-0.1546;-0.1040;
2811079171042;-0.6327;-0.1088;-0.1061;
2811089280834;-0.6775;-0.0523;-0.1349;
2811099390626;-0.6359;-0.0513;-0.1445;
2811109529844;-0.6040;-0.0140;-0.1551;
2811119639636;-0.5837;0.0573;-0.1402;
2811129749428;-0.5166;0.0551;-0.0912;
2811139836199;-0.4644;0.0328;-0.0869;
2811149946251;-0.4165;0.0935;-0.1072;
2811160056303;-0.3952;0.1968;-0.1104;
2811170165678;-0.3931;0.2064;-0.1061;
2811180275730;-0.3888;0.0658;-0.0848;
2811190385782;-0.3707;0.0116;-0.0891;
2811200494949;-0.3025;0.0222;-0.0912;
2811210605001;-0.2013;-0.0055;-0.0763;
2811220715053;-0.0959;-0.0001;-0.0784;
2811230820469;0.0105;0.0212;-0.1061;
2811240930522;0.1533;0.0381;-0.1008;
2811251040574;0.2800;0.0913;-0.0422;
2811261141303;0.3344;0.0764;-0.0103;
2811271251355;0.3844;0.0658;-0.0103;
2811281361407;0.4142;0.0722;-0.0092;
2811291467449;0.4387;0.0935;-0.0049;
2811301577449;0.4345;0.0636;0.0356;
2811311687553;0.3759;0.0116;0.0803;
2811321804636;0.2523;-0.0364;0.1004;
2811331914688;0.1415;-0.1354;0.1015;
2811342024740;0.0606;-0.0481;0.1174;
2811352134428;-0.1268;0.0700;0.1132;
2811362244480;-0.1907;-0.1013;0.0856;
2811372354532;-0.2301;-0.2643;0.0569;
2811382462761;-0.3313;-0.1865;0.0387;
2811392572813;-0.3547;-0.0555;0.0121;
2811402682865;-0.3174;-0.0332;-0.0113;
2811412807136;-0.2961;-0.1205;-0.0401;
2811422917188;-0.2897;-0.0630;-0.0497;
2811433027240;-0.3089;0.0222;-0.0656;
2811443123386;-0.2514;-0.0609;-0.0891;
2811453233438;-0.2429;-0.1205;-0.1019;
2811463343490;-0.2088;-0.0609;-0.1221;
2811473463074;-0.1864;0.0052;-0.1381;
2811483573126;-0.1630;-0.0172;-0.1317;
2811493683178;-0.1449;-0.0960;-0.1125;
2811503774532;-0.1438;-0.0811;-0.1509;
2811513884584;-0.1172;0.0095;-0.1605;
2811523994636;0.0105;0.0871;-0.1349;
2811534113647;0.1064;0.0711;-0.1051;
2811544223699;0.2055;0.0084;-0.0965;
2811554333751;0.3077;0.0297;-0.0603;
2811564439428;0.3535;0.0487;-0.0284;
2811574549480;0.3770;0.0306;-0.0007;
2811584659532;0.3525;-0.0129;0.0409;
2811594778594;0.3344;-0.0694;0.0281;
2811604888594;0.3280;-0.0470;0.0483;
2811614998699;0.2523;0.0063;0.0739;
2811625100001;0.1597;-0.0236;0.0782;
2811635210105;0.1064;-0.0065;0.0888;
2811645320157;0.0180;0.0722;0.0760;
2811655439272;-0.0172;0.1361;0.0718;
2811665549272;-0.0555;0.0807;0.0601;
2811675659324;-0.1076;0.0063;0.0771;
2811685770365;-0.1907;0.0190;0.0771;
2811695880417;-0.2525;0.0551;0.0877;
2811705990469;-0.3547;-0.0289;0.0728;
2811716089219;-0.3920;-0.0875;0.0558;
2811726199272;-0.4410;-0.0374;0.0398;
2811736309324;-0.4581;0.0338;0.0281;
2811746420886;-0.4612;0.0850;0.0238;
2811756530938;-0.4037;0.1414;-0.0039;
2811766641042;-0.3824;0.1393;-0.0369;
2811776751511;-0.3569;0.1244;-0.0390;
2811786861563;-0.3153;0.1585;-0.0177;
2811796971615;-0.2674;0.0839;0.0057;
2811807086042;-0.1971;-0.0278;-0.0049;
2811817196147;-0.1747;-0.0481;0.0015;
2811827306199;-0.1672;-0.0513;0.0015;
2811837416303;-0.1715;-0.0491;0.0111;
2811847526355;-0.1704;-0.0055;0.0206;
2811857636407;-0.1715;0.0881;0.0345;
2811867736980;-0.1800;0.1585;0.0622;
2811877847032;-0.1949;0.1563;0.0728;
2811887957084;-0.1768;0.1531;0.0590;
2811898066824;-0.1800;0.1872;0.0558;
2811908176876;-0.1779;0.1467;0.0899;
2811918286928;-0.2280;0.0413;0.1047;
2811928388699;-0.2919;-0.0023;0.0961;
2811938498751;-0.4101;-0.0044;0.0867;
2811948608803;-0.4889;0.0370;0.0654;
2811958724376;-0.5944;0.0466;0.0622;
2811968834428;-0.6711;0.1095;0.0313;
2811978944532;-0.6977;0.2202;0.0196;
2811989069272;-0.7146;0.1883;0.0036;
2811999179324;-0.7370;0.1180;-0.0209;
2812009289428;-0.7583;0.1137;-0.0401;
2812019381407;-0.7849;0.1393;-0.0944;
2812029491511;-0.7572;0.1052;-0.1125;
2812039601563;-0.7423;0.1340;-0.1487;
2812049697032;-0.6509;0.2032;-0.1796;
2812059807084;-0.5411;0.1819;-0.2063;
2812069917136;-0.4474;0.1212;-0.2244;
2812080069324;-0.3707;0.1126;-0.2616;
2812090179376;-0.4037;0.1276;-0.3085;
2812100289428;-0.3782;0.0839;-0.3064;
2812110387136;-0.3569;-0.0129;-0.3085;
2812120497188;-0.3249;-0.0033;-0.3703;
2812130607240;-0.2237;0.0615;-0.4395;
2812140694688;-0.1129;0.1510;-0.4587;
2812150804480;-0.0140;0.2224;-0.4289;
2812160914219;0.0947;0.1595;-0.3767;
2812171036615;0.2033;0.1574;-0.3117;
2812181146355;0.2917;0.1276;-0.2233;
2812191256094;0.3929;-0.0609;-0.1498;
2812201365053;0.4430;-0.2047;-0.0507;
2812211474792;0.4707;-0.0981;0.0324;
2812221584532;0.5473;-0.0087;0.1249;
2812231690365;0.6623;-0.0289;0.1941;
2812241800105;0.6815;-0.0268;0.2687;
2812251909844;0.6293;0.0796;0.3124;
2812262025261;0.5569;0.1148;0.3699;
2812272135001;0.4579;0.0562;0.3976;
2812282244740;0.3418;0.0244;0.4445;
2812292353178;0.1266;0.0116;0.4423;
2812302462917;-0.0342;-0.0374;0.4061;
2812312572657;-0.0959;-0.0523;0.3816;
2812322686094;-0.2035;-0.0449;0.3443;
2812332795834;-0.3334;-0.0289;0.2815;
2812342905574;-0.4304;-0.0523;0.2272;
2812353018907;-0.5294;-0.1088;0.1601;
2812363128647;-0.6253;-0.0640;0.0867;
2812373238386;-0.6551;0.0306;0.0121;
2812383340782;-0.5923;0.0265;-0.0901;
2812393450522;-0.5592;0.0913;-0.2020;
2812403560261;-0.5369;0.2394;-0.2585;
2812413656355;-0.3419;0.3033;-0.3351;
2812423766094;-0.2056;0.1883;-0.3714;
2812433875886;-0.1672;0.1340;-0.4523;
2812444001303;-0.1385;0.1808;-0.4630;
2812454111042;-0.0758;0.1137;-0.4502;
2812464220782;-0.0790;0.0466;-0.4395;
2812474337397;-0.0864;0.0413;-0.4459;
2812484447136;-0.0640;0.0370;-0.4577;
2812494556876;-0.0310;0.0041;-0.4385;
2812504650261;0.0073;0.0084;-0.4257;
2812514760001;0.0574;0.0317;-0.4044;
2812524869740;0.1341;0.0190;-0.3863;
2812535000365;0.1735;-0.0321;-0.3714;
2812545110105;0.1415;-0.0896;-0.3714;
2812555219844;0.1298;-0.1461;-0.3554;
2812565320730;0.0755;-0.1194;-0.3724;
2812575430469;0.0563;-0.0939;-0.3948;
2812585540209;0.0670;-0.0257;-0.4108;
2812595649115;0.0158;-0.0087;-0.3831;
2812605758855;0.0116;-0.0129;-0.3714;
2812615868594;0.0350;0.0169;-0.3575;
2812626021303;0.0265;-0.0012;-0.3660;
2812636131042;0.0489;-0.0640;-0.3618;
2812646240834;0.0659;-0.0992;-0.3650;
2812656328751;0.1032;-0.0832;-0.3650;
2812666438438;0.1575;-0.0939;-0.3650;
2812676548230;0.2481;-0.0736;-0.3490;
2812686633022;0.3067;0.0041;-0.3149;
2812696742813;0.3120;0.0487;-0.3245;
2812706852553;0.3599;0.0636;-0.2819;
2812716969949;0.3503;0.0711;-0.2766;
2812727079688;0.3620;0.0233;-0.2830;
2812737189428;0.3557;-0.0630;-0.2606;
2812747293907;0.3205;-0.1684;-0.2254;
2812757403647;0.3088;-0.1706;-0.2063;
2812767513438;0.2790;-0.1120;-0.1924;
2812777631407;0.2491;-0.1450;-0.1903;
2812787741147;0.2374;-0.1525;-0.1807;
2812797850886;0.1980;-0.0268;-0.1722;
2812807966303;0.2832;0.0881;-0.1732;
2812818076042;0.3248;0.0391;-0.1722;
2812828185834;0.4057;0.1510;-0.1605;
2812838278126;0.4728;0.3321;-0.2009;
2812848387917;0.5643;0.3353;-0.1807;
2812858497657;0.5718;0.2905;-0.1423;
2812868615261;0.5206;0.2064;-0.0529;
2812878725001;0.4110;0.1180;0.0079;
2812888834792;0.2907;-0.0055;0.0281;
2812898934324;0.2161;-0.1312;0.0707;
2812909044063;0.1618;-0.1589;0.0867;
2812919153803;0.1692;-0.1461;0.0803;
2812929283490;0.1788;-0.1354;0.0803;
2812939393230;0.2065;-0.0747;0.0899;
2812949503022;0.2257;-0.0268;0.0951;
2812959598490;0.2619;-0.0214;0.1111;
2812969708230;0.3013;0.0180;0.1260;
2812979817969;0.2960;0.1915;0.0899;
2812989941094;0.3386;-0.0033;0.1249;
2813000050834;0.3141;-0.2782;0.1494;
2813010160626;0.1714;-0.1514;0.1462;
2813020281407;0.2108;-0.0513;0.1419;
2813030391147;0.2182;-0.0289;0.1696;
2813040500886;0.1714;-0.0044;0.1835;
2813050596407;0.1628;0.0498;0.1814;
2813060706147;0.1948;0.1116;0.2059;
2813070815886;0.2417;0.0796;0.2282;
2813080924011;0.2353;0.0338;0.2176;
2813091033751;0.2385;0.0807;0.2154;
2813101143542;0.2545;0.0892;0.2431;
2813111256980;0.2640;0.0818;0.2357;
2813121366719;0.2172;0.0860;0.2272;
2813131476459;0.2172;-0.0033;0.2687;
2813141573438;0.2225;-0.0662;0.3028;
2813151683334;0.2076;-0.1226;0.2900;
2813161793178;0.1724;-0.1876;0.2857;
2813171924324;0.2278;-0.2217;0.3433;
2813182034167;0.0158;-0.5317;0.3358;
2813192144011;-0.2109;-0.3378;0.2687;
2813202240157;-0.2461;0.4280;0.1494;
2813212350001;0.0723;0.6973;0.0664;
2813222459844;0.2768;0.3108;0.1419;
2813232581719;0.2928;0.0903;0.2059;
2813242691563;0.2864;0.1883;0.2027;
2813252801407;0.0872;0.1329;0.1963;
2813262908386;0.1660;-0.0001;0.1941;
2813273018230;0.1959;-0.0534;0.2176;
2813283128074;0.1863;-0.0736;0.2208;
2813293235574;0.1756;-0.0779;0.2112;
2813303345417;0.1724;-0.0161;0.2357;
2813313455313;0.1479;0.0477;0.2623;
2813323564844;0.1842;0.1201;0.2815;
2813333674688;0.2822;0.6462;0.2815;
2813343784532;0.1032;0.2682;0.3113;
2813353893803;-0.0087;-1.0780;0.4487;
2813364003647;0.1043;-0.7638;0.3252;
2813374113490;-0.1459;-0.2430;0.2794;
2813384220990;-0.3238;-0.1397;0.2804;
2813394330834;-0.3590;-0.0129;0.2559;
2813404440678;-0.4985;0.1095;0.2091;
2813414553178;-0.6051;0.2447;0.1643;
2813424663022;-0.6679;0.1840;0.0760;
2813434772865;-0.6466;0.0084;0.0430;
2813444900678;-0.5486;-0.0427;0.0004;
2813455010522;-0.4027;-0.0640;0.0015;
2813465120417;-0.3611;-0.1035;0.0185;
2813475212761;-0.3238;-0.0555;-0.0198;
2813485322605;-0.2493;0.0009;-0.0039;
2813495432449;-0.2557;0.0041;-0.0092;
2813505550678;-0.1843;0.0615;-0.0028;
2813515660574;-0.1182;0.0605;-0.0145;
2813525770417;-0.1172;0.0244;-0.0284;
2813535882449;-0.1449;-0.0012;-0.0454;
2813545992292;-0.1342;-0.0939;-0.0465;
2813556102136;-0.1236;-0.1152;-0.0454;
2813566197969;-0.1001;-0.1035;-0.0806;
2813576307813;-0.1023;-0.1109;-0.1328;
2813586417657;-0.1065;-0.0981;-0.1115;
2813596539897;-0.1044;-0.0353;-0.1093;
2813606649740;-0.0140;-0.0087;-0.1157;
2813616759636;-0.0236;-0.0332;-0.1264;
2813626889376;-0.0395;-0.0640;-0.0976;
2813636999219;0.0158;-0.0310;-0.1029;
2813647109115;0.1597;0.0041;-0.1125;
2813657142553;0.1543;-0.0523;-0.1093;
2813667252397;0.1671;-0.0342;-0.1029;
2813677362292;0.2640;0.0466;-0.0742;
2813687525990;0.2566;0.0360;-0.0284;
2813697635834;0.1458;-0.0225;-0.0081;
2813707745678;0.1533;-0.0140;-0.0145;
2813717845782;0.2012;0.0233;-0.0081;
2813727955626;0.1618;0.0116;0.0760;
2813738065469;0.0574;-0.0214;0.0951;
2813748183907;0.0499;0.0009;0.0961;
2813758293751;0.0031;0.0158;0.1206;
2813768403647;-0.0980;-0.0534;0.1654;
2813778500001;-0.1118;-0.0939;0.1888;
2813788609897;-0.0555;-0.0758;0.1963;
2813798719740;-0.0513;-0.0917;0.1494;
2813808825990;-0.0449;0.0148;0.1366;
2813818935782;-0.0651;0.0786;0.1366;
2813829045730;-0.2109;0.0391;0.1739;
2813839173647;-0.3217;0.0201;0.1462;
2813849283490;-0.2716;0.0084;0.1270;
2813859393386;-0.2663;-0.0150;0.1387;
2813869533386;-0.1875;-0.0470;0.1547;
2813879643230;-0.0694;-0.0321;0.1750;
2813889753074;-0.0470;-0.0001;0.1718;
2813899826824;-0.0609;-0.0087;0.1675;
2813909936667;-0.0672;-0.0715;0.1856;
2813920046511;0.0265;-0.0268;0.2154;
2813930163803;0.1192;0.0541;0.2367;
2813940273647;-0.0001;0.0265;0.1846;
2813950383490;-0.1182;-0.0321;0.1920;
2813960499740;-0.0917;-0.0758;0.2282;
2813970609584;-0.0959;-0.0896;0.2261;
2813980719428;-0.1182;-0.1269;0.2048;
2813990817449;-0.1630;-0.1216;0.1835;
2814000927292;-0.1960;-0.1077;0.1792;
2814011037136;-0.2205;-0.0374;0.1856;
2814021129480;-0.3110;0.0967;0.1569;
2814031239376;-0.4080;0.0913;0.1451;
2814041349219;-0.5198;-0.0065;0.1142;
2814051483907;-0.5529;-0.0917;0.1100;
2814061593751;-0.4740;-0.0736;0.0824;
2814071703594;-0.4101;-0.0278;0.0025;
2814081817553;-0.3600;-0.0161;-0.0561;
2814091927397;-0.3089;0.0297;-0.0177;
2814102037292;-0.2525;0.1116;-0.0081;
2814112135157;-0.2130;0.0818;-0.0262;
2814122244949;-0.1662;0.0583;-0.0401;
2814132329584;-0.1885;0.1169;-0.0678;
2814142439428;-0.1896;0.0562;-0.0688;
2814152549324;-0.1800;0.0413;-0.0092;
2814162691303;-0.1523;0.0924;-0.0688;
2814172801147;-0.1768;-0.0150;-0.0731;
2814182910990;-0.1704;-0.0864;-0.0784;
2814193020990;-0.1097;-0.0140;-0.0433;
2814203130834;-0.1427;0.0116;-0.0401;
2814213240730;-0.1619;-0.0076;-0.0742;
2814223353178;-0.1640;0.0105;-0.1402;
2814233463022;-0.1800;0.0423;-0.1381;
2814243572865;-0.1704;0.0116;-0.1168;
2814253672136;-0.2184;-0.0715;-0.1189;
2814263781980;-0.2280;-0.1652;-0.1051;
2814273891824;-0.1289;0.0626;-0.1541;
2814284014740;-0.1555;0.3406;-0.1988;
2814294124584;-0.1854;0.4184;-0.1924;
2814304234428;-0.2045;0.4003;-0.1754;
2814314338699;-0.2482;0.2682;-0.1690;
2814324448542;-0.3100;0.1073;-0.1764;
2814334558386;-0.2940;-0.0332;-0.2009;
2814344664324;-0.1832;-0.0609;-0.2073;
2814354774167;-0.0885;0.0349;-0.2606;
2814364884011;-0.1225;0.1169;-0.2585;
2814374993074;-0.1481;0.1340;-0.2457;
2814385102917;-0.1065;0.1084;-0.2510;
2814395212761;-0.0055;0.1830;-0.2798;
2814405291772;0.0020;0.2394;-0.2723;
2814415401615;-0.0108;0.3044;-0.2393;
2814425511459;-0.1012;0.1702;-0.2478;
2814435621303;-0.2152;-0.3069;-0.2478;
2814445763647;-0.0747;-0.3463;-0.2595;
2814455873490;0.0744;-0.1993;-0.2691;
2814465983334;0.0819;-0.2217;-0.2691;
2814476093907;0.1405;-0.1109;-0.2712;
2814486203751;0.2257;0.0169;-0.2734;
2814496313594;0.2545;0.1095;-0.3096;
2814506433907;0.1660;0.1276;-0.3021;
2814516543751;0.1213;0.0222;-0.2574;
2814526653647;0.1330;-0.0385;-0.2883;
2814536746719;0.1778;-0.0161;-0.3106;
2814546856563;0.1479;-0.0364;-0.2883;
2814556966407;0.1085;-0.1130;-0.2606;
2814567077813;0.1618;-0.1322;-0.2201;
2814577187657;0.2470;-0.0534;-0.2031;
2814587297501;0.3024;0.0169;-0.2222;
2814597426980;0.2704;-0.1045;-0.1679;
2814607536824;0.2374;-0.1429;-0.1498;
2814617646667;0.2928;-0.0630;-0.1477;
2814627729063;0.3471;-0.0268;-0.1786;
2814637838959;0.3525;-0.0481;-0.1605;
2814647948803;0.3557;-0.0268;-0.1338;
2814658085886;0.3642;-0.0108;-0.1136;
2814668195730;0.3503;-0.0342;-0.0827;
2814678305574;0.3525;-0.0001;-0.0901;
2814688400678;0.3418;0.0126;-0.0997;
2814698510522;0.3312;-0.0928;-0.0742;
2814708620417;0.3077;-0.0896;-0.0688;
2814718731251;0.2832;-0.0087;-0.0379;
2814728841147;0.2363;-0.0246;-0.0145;
2814738951042;0.2513;-0.0278;-0.0103;
2814749069740;0.2502;0.0360;-0.0252;
2814759179584;0.2662;0.0647;0.0036;
2814769289428;0.2374;0.0286;0.0004;
2814779385365;0.2161;0.0402;0.0004;
2814789495209;0.2118;0.0530;0.0238;
2814799605105;0.1948;0.0095;0.0366;
2814809710053;0.1916;0.0244;0.0079;
2814819819897;0.1991;0.0860;0.0025;
2814829929740;0.1884;0.1095;0.0121;
2814840038126;0.2225;0.0967;0.0494;
2814850148022;0.2076;0.0786;0.0590;
2814860257865;0.2033;0.0743;0.0537;
2814870383386;0.2172;0.0530;0.0846;
2814880493230;0.2182;0.0073;0.1079;
2814890603074;0.2736;0.0349;0.1015;
2814900708490;0.3024;0.0594;0.1025;
2814910818334;0.3194;0.0668;0.0877;
2814920928178;0.3940;0.1126;0.1260;
2814931060574;0.4228;0.0913;0.1473;
2814941170417;0.4419;0.0265;0.1995;
2814951280313;0.4334;0.0169;0.2208;
2814961365313;0.4270;0.0158;0.2112;
2814971475157;0.4089;-0.0406;0.2591;
2814981585001;0.3258;-0.1333;0.3124;
2814991700782;0.2438;-0.1120;0.3284;
2815001810626;0.1895;-0.0087;0.3401;
2815011920469;0.1650;-0.0055;0.3720;
2815022031563;0.0862;-0.0182;0.3838;
2815032141407;0.0137;-0.0278;0.4051;
2815042251251;-0.0651;-0.0406;0.3656;
2815052359063;-0.0449;-0.0225;0.3614;
2815062468907;-0.1087;-0.0332;0.3955;
2815072578751;-0.1928;-0.0960;0.4019;
2815082694532;-0.1960;-0.0683;0.3827;
2815092804376;-0.2599;-0.0214;0.3294;
2815102914219;-0.2855;0.0009;0.3145;
2815113024219;-0.2695;-0.0310;0.3454;
2815123111407;-0.2322;0.0477;0.3358;
2815133221251;-0.2162;0.0807;0.3294;
2815143331094;-0.2748;-0.0555;0.3624;
2815153470053;-0.2620;-0.0971;0.3166;
2815163579897;-0.1555;-0.0193;0.2783;
2815173689740;-0.1854;-0.0214;0.2783;
2815183790990;-0.2365;-0.1067;0.2559;
2815193900834;-0.1715;-0.0545;0.2506;
2815204010678;-0.1992;0.0148;0.2293;
2815214132032;-0.2620;0.0031;0.2165;
2815224241876;-0.2972;0.0084;0.1782;
2815234351772;-0.2525;0.0509;0.1707;
2815244449949;-0.2770;0.0201;0.1718;
2815254559792;-0.3228;-0.0800;0.1611;
2815264669688;-0.2876;-0.0278;0.1153;
2815274785053;-0.3047;0.0754;0.0929;
2815284894897;-0.4282;-0.0012;0.1281;
2815295004740;-0.4602;-0.0406;0.1111;
2815305098126;-0.3760;0.0594;0.0483;
2815315208022;-0.4197;0.0509;-0.0230;
2815325317865;-0.4176;0.0477;-0.0326;
2815335438282;-0.3995;0.0306;-0.0198;
2815345548126;-0.3760;-0.0534;-0.0369;
2815355657969;-0.3036;-0.0001;-0.0880;
2815365766147;-0.3206;-0.0108;-0.1146;
2815375875990;-0.2855;-0.0129;-0.1008;
2815385985834;-0.1875;0.0466;-0.0912;
2815396087188;-0.2205;0.0297;-0.0774;
2815406197084;-0.1971;0.0935;-0.0965;
2815416306928;-0.2194;0.0413;-0.0646;
2815426416042;-0.2280;-0.0949;-0.0880;
2815436525938;-0.1214;-0.0385;-0.0827;
2815446635782;-0.1300;0.0605;-0.1232;
2815456753907;-0.1907;0.0317;-0.1626;
2815466863751;-0.2301;-0.0289;-0.1168;
2815476973594;-0.1374;0.0084;-0.1115;
2815487078594;-0.1332;0.0201;-0.1115;
2815497188438;-0.1736;0.0254;-0.1296;
2815507298282;-0.1406;0.0317;-0.1498;
2815517414636;-0.0917;0.0391;-0.1178;
2815527524480;-0.0758;0.0850;-0.0976;
2815537634324;-0.1076;0.0881;-0.0763;
2815547769428;-0.1758;0.0711;-0.0593;
2815557879272;-0.1800;0.0116;-0.0358;
2815567989167;-0.1236;-0.0129;-0.0348;
2815578087032;-0.0268;0.0306;-0.0454;
2815588196876;-0.0001;0.0956;-0.0646;
2815598306719;-0.1502;0.0265;-0.0401;
2815608392292;-0.1779;-0.0534;-0.0166;
2815618502188;-0.0937;0.0052;-0.0379;
2815628612084;-0.1065;0.0391;-0.0390;
2815638746667;-0.1960;0.0562;-0.0465;
2815648856563;-0.1736;0.0551;-0.0486;
2815658966407;-0.1779;0.0455;-0.0273;
2815669060365;-0.1768;0.0615;-0.0518;
2815679170261;-0.2056;0.1169;-0.0603;
2815689280105;-0.3132;-0.1471;0.0260;
2815699390261;-0.2557;-0.2771;-0.0071;
2815709500105;-0.0587;-0.0523;-0.1136;
2815719610001;-0.1758;0.0212;-0.1519;
2815729718126;-0.2386;-0.0672;-0.1338;
2815739827969;-0.1640;-0.0491;-0.1370;
2815749937865;-0.1321;0.0455;-0.1455;
2815760040730;-0.1928;0.0402;-0.1892;
2815770150626;-0.1321;0.0116;-0.2009;
2815780260469;-0.1342;0.0860;-0.2244;
2815790366042;-0.1108;0.1446;-0.2872;
2815800475938;-0.1087;0.1041;-0.2670;
2815810585782;-0.0800;0.0573;-0.2489;
2815820730261;-0.0140;0.0413;-0.2435;
2815830840105;0.0137;-0.0236;-0.2798;
2815840950001;0.0521;-0.1748;-0.2766;
2815851036824;0.2257;-0.0438;-0.2393;
2815861146667;0.1895;-0.0875;-0.2478;
2815871256511;0.1533;-0.2238;-0.2361;
2815881361459;0.1746;-0.1972;-0.2329;
2815891471355;0.1554;-0.2760;-0.2190;
2815901581199;0.2449;-0.1375;-0.2393;
2815911725157;0.2214;0.2852;-0.3032;
2815921835001;0.2747;0.5334;-0.3106;
2815931944844;0.2608;0.4429;-0.2616;
2815942041094;0.1873;0.3225;-0.2126;
2815952150938;0.1607;0.2628;-0.2158;
2815962260782;0.0979;0.1148;-0.2020;
2815972365053;0.0627;-0.0683;-0.1999;
2815982474897;0.1011;-0.1493;-0.2063;
2815992584740;0.1298;-0.1333;-0.2158;
2816002705365;0.2246;-0.0534;-0.2403;
2816012815209;0.2417;0.0413;-0.1988;
2816022925053;0.2726;0.2128;-0.2084;
2816033023334;0.2236;0.0764;-0.1988;
2816043133178;0.2981;0.2479;-0.1668;
2816053243022;0.4100;0.6250;-0.1988;
2816063352865;0.0233;-0.0992;-0.1530;
2816073462709;-0.0406;-0.5880;-0.1146;
2816083572553;0.2214;-0.2110;-0.1711;
2816093676928;0.2257;-0.1333;-0.1551;
2816103786772;0.1309;-0.3165;-0.1232;
2816113896615;0.1884;-0.2611;-0.0901;
2816123987813;0.2917;-0.1024;-0.1274;
2816134097657;0.4100;-0.0811;-0.1647;
2816144207501;0.3589;-0.0694;-0.2222;
2816154317397;0.3855;0.0126;-0.1796;
2816164449167;0.3589;0.0370;-0.1296;
2816174559011;0.4164;0.0212;-0.1210;
2816184668855;0.4718;0.0402;-0.1636;
2816194772397;0.5144;0.0850;-0.1349;
2816204882292;0.4995;0.0297;-0.0571;
2816214992136;0.4632;-0.0193;-0.0337;
2816225113542;0.5206;-0.0012;-0.0529;
2816235223438;0.5611;-0.0385;-0.0294;
2816245333282;0.5845;-0.0630;0.0121;
2816255436824;0.6090;-0.0417;0.0483;
2816265546667;0.6059;-0.0971;0.1111;
2816275656511;0.6325;-0.0843;0.1036;
2816285766511;0.6453;0.0297;0.0929;
2816295876355;0.6708;0.1105;0.1164;
2816305986199;0.6751;0.0839;0.1622;
2816316089063;0.6357;0.0487;0.1760;
2816326198959;0.5920;0.0530;0.1941;
2816336308803;0.5845;0.0573;0.1995;
2816346442344;0.5430;0.0276;0.2314;
2816356552188;0.5164;-0.0289;0.2591;
2816366662084;0.5814;-0.0832;0.2911;
2816376754636;0.5398;-0.0960;0.3390;
2816386864480;0.4728;-0.0364;0.3390;
2816396974324;0.4686;-0.0055;0.3539;
2816407061407;0.5005;-0.0204;0.3816;
2816417171251;0.4739;0.0222;0.3912;
2816427281147;0.4345;0.0967;0.3731;
2816437424324;0.4473;0.0807;0.4232;
2816447534167;0.4313;-0.0097;0.4626;
2816457644011;0.4004;-0.0566;0.4690;
2816467752761;0.3599;-0.0108;0.4956;
2816477862605;0.3887;-0.0246;0.5297;
2816487972449;0.3642;-0.1130;0.5393;
2816498074480;0.3280;-0.1237;0.5393;
2816508184324;0.2981;-0.0513;0.5574;
2816518294167;0.2097;0.0244;0.5553;
2816528407344;0.1341;0.0158;0.6170;
2816538517188;-0.0758;-0.1109;0.6426;
2816548627032;-0.2354;-0.0555;0.6383;
2816558737709;-0.3824;0.0360;0.5702;
2816568847605;-0.5614;0.0265;0.5180;
2816578957501;-0.7157;0.0509;0.5031;
2816589065834;-0.8403;0.0370;0.4764;
2816599175678;-0.9628;0.0031;0.4040;
2816609285522;-1.0587;0.0519;0.3624;
2816619392605;-1.2366;0.0519;0.2953;
2816629502449;-1.2313;0.0391;0.2421;
2816639612344;-1.1471;0.0700;0.1824;
2816649704324;-1.1013;0.1052;0.1398;
2816659814167;-0.9959;0.1425;0.1068;
2816669924011;-0.9319;0.0519;0.1079;
2816680086094;-0.7849;-0.0012;0.0972;
2816690195938;-0.5561;0.0286;0.0867;
2816700305782;-0.3441;0.0903;0.0579;
2816710400053;-0.3441;0.0180;0.0292;
2816720509897;-0.2876;-0.0683;0.0505;
2816730619740;-0.1864;-0.0587;0.0601;
2816740714219;-0.1481;-0.1120;0.0260;
2816750824063;-0.0694;-0.0651;-0.0071;
2816760933907;-0.0779;0.0391;0.0100;
2816771042969;-0.1619;-0.0065;0.0302;
2816781152813;-0.1204;0.0434;0.0377;
2816791262657;-0.0959;0.1457;0.0206;
2816801374324;-0.2258;0.0722;-0.0113;
2816811484167;-0.2194;-0.0140;-0.0134;
2816821594011;-0.2205;-0.0427;-0.0007;
2816831698074;-0.2067;0.0180;0.0089;
2816841807917;-0.2130;0.0254;-0.0007;
2816851917761;-0.2748;-0.0481;-0.0465;
2816862017605;-0.2216;-0.0076;-0.0720;
2816872127501;-0.2503;0.0903;-0.1083;
2816882237344;-0.2589;0.0455;-0.1381;
2816892363490;-0.2610;-0.0502;-0.1328;
2816902473334;-0.2333;0.0413;-0.1413;
2816912583178;-0.2280;0.1435;-0.1764;
2816922702032;-0.2482;-0.0310;-0.1945;
2816932811876;-0.1672;-0.0651;-0.1807;
2816942921719;-0.1427;0.0722;-0.1956;
2816953031928;-0.1236;0.1329;-0.2180;
2816963141772;-0.1310;0.0722;-0.2286;
2816973251615;-0.0779;-0.0076;-0.2393;
2816983367553;-0.0023;-0.0289;-0.2212;
2816993477397;-0.0800;-0.0534;-0.2542;
2817003587240;0.0393;-0.0364;-0.2776;
2817013673959;0.1277;0.0967;-0.3320;
2817023783855;0.1639;0.1691;-0.3160;
2817033893699;0.1405;0.1105;-0.2819;
2817044017344;0.2150;0.1435;-0.3117;
2817054127188;0.3280;0.2415;-0.2925;
2817064237032;0.2534;0.1254;-0.2702;
2817074345313;0.2278;-0.0619;-0.2382;
2817084455157;0.2736;0.0541;-0.2510;
2817094565001;0.2491;0.1457;-0.2329;
2817104666719;0.1192;-0.0800;-0.1807;
2817114776563;0.0414;-0.2313;-0.1828;
2817124886407;0.0499;-0.0609;-0.1722;
2817135015105;0.0148;0.1148;-0.2009;
2817145125313;-0.0108;0.0924;-0.1924;
2817155235522;0.0126;0.1020;-0.2212;
2817165322917;-0.0108;0.1276;-0.2521;
2817175433126;-0.0651;0.0105;-0.2595;
2817185543334;-0.0758;-0.0278;-0.2585;
2817195664844;-0.0630;0.0360;-0.2435;
2817205775053;-0.0800;-0.0332;-0.2425;
2817215885209;0.0190;-0.0928;-0.2265;
2817226019740;0.0435;-0.0747;-0.2521;
2817236129897;0.0510;-0.0992;-0.2041;
2817246240157;0.0766;-0.2164;-0.1775;
2817256322032;-0.0119;-0.2505;-0.1509;
2817266432188;-0.1768;0.0084;-0.1573;
2817276542397;-0.4122;0.4258;-0.2510;
2817286646928;-0.2269;0.4365;-0.2574;
2817296757136;0.3450;0.2330;-0.2308;
2817306867292;0.8061;0.2064;-0.2265;
2817316974949;0.6857;0.2277;-0.2148;
2817327085157;0.4068;0.3033;-0.1157;
2817337195313;0.2779;0.1989;-0.0603;
2817347329844;0.2917;0.0839;-0.0507;
2817357440053;0.2076;0.1212;-0.0656;
2817367550261;0.1064;0.0977;-0.0007;
2817377640261;0.0840;0.0169;0.0387;
2817387750469;0.0883;0.0903;0.0505;
2817397860626;0.0574;0.1723;0.0462;
2817407990417;0.1053;0.3598;0.0441;
2817418100678;0.1170;0.0967;0.0632;
2817428210834;0.1788;-0.3357;0.0739;
2817438298647;0.0766;-0.3208;0.0462;
2817448408855;-0.1321;-0.2792;0.0079;
2817458519063;-0.1438;-0.1248;-0.0156;
2817468627917;-0.0246;-0.0140;0.0174;
2817478738126;0.0073;-0.2302;0.0196;
2817488848334;0.0883;0.1020;-0.0561;
2817498950417;0.0723;0.2799;-0.0688;
2817509060626;0.1437;0.0276;-0.0252;
2817519170834;0.2513;-0.0150;-0.0241;
2817529284272;0.2491;0.0423;-0.0305;
2817539394480;0.2513;0.0137;-0.0177;
2817549504688;0.3546;-0.1365;0.0089;
2817559607240;0.3844;-0.1770;0.0345;
2817569717449;0.2726;-0.1557;0.0643;
2817579827657;0.1959;-0.1226;0.0206;
2817589981824;0.1767;-0.1301;-0.0198;
2817600092032;0.1469;-0.0640;0.0089;
2817610202240;0.0957;-0.0523;-0.0134;
2817620266094;0.1245;-0.1642;0.0121;
2817630376303;0.0819;-0.1205;-0.0134;
2817640486459;0.1277;0.0551;-0.0550;
2817650600261;0.1064;0.0020;-0.0241;
2817660710417;0.0766;-0.0694;-0.0188;
2817670820626;0.1117;0.0297;-0.0422;
2817680940053;0.0574;0.0137;-0.0710;
2817691050261;0.0776;-0.0001;-0.0539;
2817701160469;0.0617;-0.0364;-0.0188;
2817711272344;0.0403;-0.0502;-0.0209;
2817721382553;0.0435;-0.0726;-0.0475;
2817731492709;0.0510;-0.0726;-0.0326;
2817741607344;0.0190;-0.0822;-0.0550;
2817751717553;-0.0119;-0.1503;-0.0507;
2817761827709;0.0052;-0.1056;-0.0784;
2817771936980;0.0659;0.0158;-0.0752;
2817782047188;0.0244;0.0158;-0.0486;
2817792157344;-0.0321;-0.0694;-0.0220;
2817802266147;0.0180;-0.0321;-0.0635;
2817812376355;0.0723;0.0679;-0.0763;
2817822486511;0.0126;-0.0044;-0.0827;
2817832600990;0.0553;-0.0992;-0.0614;
2817842711199;0.0904;-0.0449;-0.0518;
2817852821407;0.1032;-0.0289;-0.0507;
2817862927344;0.1149;-0.0395;-0.0763;
2817873037553;0.1288;-0.0076;-0.0518;
2817883147709;0.1298;-0.0268;-0.0379;
2817893228490;0.1522;-0.1067;-0.0188;
2817903338647;0.1724;-0.1013;-0.0220;
2817913448855;0.1277;-0.1344;0.0015;
2817923587813;0.0798;-0.2206;0.0345;
2817933698022;0.0883;-0.2238;0.0505;
2817943808178;0.0521;-0.2174;0.0174;
2817953918594;0.0148;-0.2292;0.0185;
2817964028803;-0.0427;-0.2569;0.0270;
2817974138959;-0.0545;-0.2324;0.0260;
2817984249740;-0.0523;-0.2664;0.0185;
2817994359949;-0.0662;-0.3218;0.0100;
2818004470105;-0.0023;-0.5029;0.1025;
2818014600209;0.0084;-0.8884;0.1302;
2818024710365;-0.1758;-0.9662;0.0217;
2818034820626;0.1138;-0.2590;-0.0550;
2818044899063;1.1852;0.5153;-0.1487;
2818055009272;0.7635;0.4269;-0.0646;
2818065119428;-0.1534;-0.1269;0.1185;
2818075220053;-0.0811;0.1063;0.1260;
2818085330261;0.3322;0.5025;0.0643;
2818095440417;0.4430;0.3577;0.0494;
2818105557240;0.2640;0.0647;0.0983;
2818115667449;0.2087;0.1446;0.1345;
2818125756147;0.4004;0.2873;0.1196;
2818135866303;0.4899;0.1883;0.1292;
2818145976511;0.4292;0.1318;0.1771;
2818156092240;0.5899;0.6314;0.2048;
2818166202344;0.9094;1.3193;0.2122;
2818176312605;0.2587;0.4674;0.3092;
2818186422761;-0.2865;-1.0514;0.4679;
2818196545469;0.2758;-0.6146;0.4104;
2818206655678;0.2236;0.0126;0.3529;
2818216765834;-0.1470;-0.3442;0.4008;
2818226891407;-0.1854;-0.3559;0.3965;
2818237001615;-0.1939;0.0158;0.3401;
2818247111824;-0.3579;0.1467;0.2857;
2818257213699;-0.4176;0.1499;0.2314;
2818267323907;-0.4517;0.1648;0.1632;
2818277434063;-0.3611;0.2064;0.1569;
2818287542761;-0.3217;0.1616;0.1675;
2818297652969;-0.2248;0.0423;0.1547;
2818307763126;-0.0481;0.0860;0.1473;
2818317866615;0.0020;0.1425;0.1707;
2818327976824;0.0105;0.0391;0.2091;
2818338086980;0.0521;0.0126;0.2655;
2818348212553;0.0201;-0.0033;0.2421;
2818358322761;-0.0172;-0.0172;0.2112;
2818368432917;-0.0364;0.0009;0.2346;
2818378510782;-0.0545;-0.0555;0.2463;
2818388620938;-0.0800;-0.1045;0.2399;
2818398731147;-0.1875;-0.0715;0.1526;
2818408841876;-0.2578;-0.0577;0.1238;
2818418952084;-0.4282;-0.0917;0.1036;
2818429062292;-0.4762;-0.0598;0.0782;
2818439179428;-0.4815;0.0286;0.0185;
2818449289584;-0.5134;0.0477;-0.0262;
2818459399740;-0.4911;-0.0385;-0.0209;
2818469567761;-0.4304;-0.0992;-0.0486;
2818479677969;-0.2620;-0.1109;-0.0635;
2818489788178;-0.1427;-0.0513;-0.1029;
2818499843803;-0.1672;-0.0129;-0.1349;
2818509954011;-0.1896;-0.1162;-0.1328;
2818520064167;-0.0790;-0.1162;-0.1285;
2818530175365;-0.0395;-0.0502;-0.1466;
2818540285574;-0.0108;-0.0300;-0.1466;
2818550395782;-0.0044;-0.0630;-0.1402;
2818560503074;0.0169;-0.0843;-0.1509;
2818570613282;0.0329;-0.0875;-0.1668;
2818580723438;0.0372;-0.0768;-0.1562;
2818590829844;0.0712;-0.1173;-0.1285;
2818600940053;0.1011;-0.1099;-0.0784;
2818611050209;0.1501;-0.0523;-0.0976;
2818621174219;0.2246;-0.0150;-0.1008;
2818631284428;0.2758;0.0477;-0.1317;
2818641394584;0.2225;0.0530;-0.0614;
2818651480886;0.1032;-0.0140;-0.0316;
2818661591042;0.2097;0.0254;-0.0571;
2818671701251;0.2321;0.1169;-0.0987;
2818681805469;0.0883;0.0402;-0.0848;
2818691915678;0.0201;-0.0182;-0.0049;
2818702025834;0.0372;0.0041;-0.0124;
2818712160157;0.0286;-0.0033;-0.0241;
2818722270365;-0.0119;0.0254;-0.0241;
2818732380522;-0.0033;0.0020;-0.0156;
2818742489688;0.0169;-0.0182;0.0249;
2818752599897;0.0126;0.0052;0.0270;
2818762710105;-0.0395;-0.0012;-0.0465;
2818772818074;-0.0704;-0.0065;-0.0284;
2818782928282;-0.1363;-0.0225;-0.0230;
2818793038438;-0.2141;-0.1120;-0.0454;
2818803139011;-0.0948;-0.0300;-0.1061;
2818813249167;-0.1513;0.0360;-0.0901;
2818823359376;-0.2216;0.0233;-0.0656;
2818833454480;-0.1885;0.0169;-0.0838;
2818843564688;-0.0875;0.0711;-0.1232;
2818853674897;-0.0598;0.1148;-0.1647;
2818863812136;-0.0449;0.0573;-0.1189;
2818873922344;-0.0427;0.0105;-0.0859;
2818884032501;0.0553;0.0658;-0.1083;
2818894140990;0.0308;0.0381;-0.1551;
2818904251199;0.0052;-0.0108;-0.1423;
2818914361407;0.0137;-0.0491;-0.1285;
2818924476303;0.1256;-0.0406;-0.1413;
2818934586511;0.2023;0.0180;-0.1466;
2818944696615;0.1842;-0.0161;-0.1136;
2818954787449;0.2129;-0.0012;-0.1072;
2818964897657;0.2608;0.0306;-0.0965;
2818975007813;0.2470;0.0190;-0.0646;
2818985111563;0.2225;0.0041;-0.0550;
2818995221772;0.2651;0.0105;-0.0220;
2819005331980;0.2193;0.0073;-0.0230;
2819015459740;0.1991;-0.0342;-0.0379;
2819025569949;0.1820;-0.0246;-0.0198;
2819035680157;0.1170;-0.0481;-0.0017;
2819045769532;0.0968;-0.0513;0.0174;
2819055879688;0.0883;-0.0087;-0.0209;
2819065989897;0.1117;0.0445;-0.0529;
2819076097969;0.0947;0.0031;-0.0134;
2819086208126;0.1011;-0.0055;0.0132;
2819096318334;0.0670;-0.0502;-0.0028;
2819106444792;0.0883;-0.0534;-0.0081;
2819116555001;0.1245;-0.0001;0.0153;
2819126649167;0.1277;-0.0193;0.0419;
2819136759376;0.1149;-0.0981;0.0494;
2819146869480;0.0787;-0.1099;0.0164;
2819156960313;0.0553;-0.0438;-0.0103;
2819167070469;0.0627;-0.0140;0.0004;
2819177180678;0.0617;0.0306;-0.0241;
2819187306094;0.0617;0.0977;-0.0507;
2819197416303;0.0585;0.0903;-0.0763;
2819207526459;0.0840;0.1297;-0.0433;
2819217639219;0.0734;0.2170;-0.0241;
2819227749428;0.0595;0.1616;-0.0411;
2819237859584;0.0670;0.1212;-0.0230;
2819247961407;0.0883;0.1244;-0.0507;
2819258071563;0.1362;0.0423;-0.0198;
2819268181772;0.1117;-0.0119;-0.0198;
2819278296147;0.1735;0.0434;-0.0145;
2819288406303;0.1820;0.0509;0.0111;
2819298516511;0.1479;-0.0609;0.0111;
2819308623022;0.1959;-0.0364;0.0089;
2819318733230;0.2204;0.0286;0.0121;
2819328843438;0.1277;-0.0491;0.0249;
2819338948959;0.1256;-0.0214;0.0292;
2819349059167;0.1053;-0.0172;0.0249;
2819359169376;0.0862;-0.0491;0.0558;
2819369298594;0.1064;-0.0704;0.0515;
2819379408751;0.1415;-0.0672;0.0728;
2819389519011;0.1415;-0.0012;0.0728;
2819399619219;0.0787;-0.0321;0.0377;
2819409729428;0.0808;-0.0832;0.0590;
2819419839636;0.1117;-0.0310;0.0877;
2819429953282;0.1107;-0.1035;0.0771;
2819440063490;0.1032;-0.1365;0.0601;
2819450173647;0.1266;-0.0353;0.0728;
2819460302240;0.0744;-0.0598;0.0888;
2819470412449;0.0755;-0.0875;0.1036;
2819480522605;0.0808;-0.0502;0.1281;
2819490604897;0.0936;-0.0427;0.1387;
2819500715053;0.0776;-0.0694;0.1281;
2819510825261;0.1107;-0.0704;0.1356;
2819520937969;0.0510;-0.0481;0.1089;
2819531048126;0.0478;-0.0236;0.1004;
2819541158334;0.0212;0.0233;0.1611;
2819551267553;-0.0374;0.0116;0.1430;
2819561377761;-0.0055;0.0201;0.1121;
2819571487917;-0.0129;0.0796;0.1174;
2819581621042;-0.0959;0.0668;0.1142;
2819591731251;-0.0747;0.0881;0.1132;
2819601841407;-0.0800;0.1670;0.0951;
2819611925886;-0.1374;0.1137;0.1334;
2819622036094;-0.1843;0.0775;0.1217;
2819632146251;-0.0715;0.0871;0.1100;
2819642243074;-0.0619;0.0754;0.0940;
2819652353282;-0.1161;0.0402;0.0782;
2819662463438;-0.0832;0.0434;0.0920;
2819672585990;-0.0875;0.0297;0.1079;
2819682696199;-0.1395;-0.0427;0.0760;
2819692806355;-0.0726;0.0116;0.0334;
2819702914480;-0.0779;0.0711;0.0430;
2819713024688;-0.1885;-0.0012;0.0292;
2819723134844;-0.1758;-0.0534;0.0228;
2819733249740;-0.1012;-0.0395;0.0292;
2819743359949;-0.1268;-0.0672;0.0462;
2819753470105;-0.1108;-0.0342;0.0206;
2819763578282;-0.0214;-0.0459;0.0068;
2819773688438;-0.0672;-0.1013;-0.0209;
2819783798647;-0.0545;-0.0736;0.0068;
2819793911094;-0.0246;-0.0023;0.0068;
2819804021303;-0.0587;-0.0321;0.0047;
2819814131459;-0.0555;-0.0598;-0.0124;
2819824226407;-0.0321;0.0244;-0.0550;
2819834336615;-0.0353;0.0722;-0.0603;
2819844446772;-0.0555;0.0679;-0.0273;
2819854557553;-0.0587;0.0498;-0.0241;
2819864667709;-0.0055;0.0455;0.0111;
2819874777917;0.0126;0.0148;0.0164;
2819884899011;0.0233;-0.0651;0.0004;
2819895009219;0.0904;-0.0214;-0.0348;
2819905119376;0.0979;0.0498;-0.0252;
2819915237449;-0.0332;-0.0023;-0.0049;
2819925347657;-0.0513;-0.0609;0.0100;
2819935457813;-0.0182;-0.0417;-0.0166;
2819945558594;-0.0768;-0.0896;-0.0284;
2819955668803;-0.1161;-0.3410;0.0121;
2819965779011;0.0648;-0.2814;-0.0103;
2819975887657;0.1991;0.0924;-0.0497;
2819985997813;0.0329;0.2053;-0.0305;
2819996108022;-0.1353;0.0764;0.0153;
2820006210053;-0.0704;0.0903;0.0174;
2820016320209;0.0595;0.1680;-0.0007;
2820026430417;-0.0662;0.1009;-0.0262;
2820036544740;-0.0875;-0.0790;-0.0198;
2820046654949;-0.0268;-0.0875;-0.0262;
2820056765105;0.0073;-0.0672;-0.0326;
2820066886303;-0.0278;-0.0992;-0.0316;
2820076996511;-0.0129;-0.0640;-0.0284;
2820087106719;0.0553;0.0423;-0.0284;
2820097204428;0.1937;0.4162;-0.0209;
2820107314584;-0.0715;0.1340;0.0047;
2820117424792;-0.2993;-0.3208;0.0345;
2820127534011;-0.0001;-0.0928;-0.0103;
2820137644011;0.1639;0.0764;-0.0656;
2820147753959;-0.0257;-0.0427;-0.0688;
2820157875365;-0.1097;0.0116;-0.0134;
2820167985365;-0.0449;0.0924;-0.0284;
2820178095365;-0.0609;0.0551;-0.0539;
2820188184376;-0.0683;0.0095;-0.0774;
2820198294376;-0.0001;0.0402;-0.0784;
2820208404428;-0.0044;0.0892;-0.0923;
2820218513022;-0.0087;0.0158;-0.0933;
2820228623074;0.0169;-0.0364;-0.0656;
2820238733022;0.0425;-0.0214;-0.0561;
2820248865782;0.0403;-0.0726;-0.0454;
2820258975782;0.0617;-0.0790;-0.0869;
2820269085782;0.0712;0.0137;-0.1072;
2820279171772;0.0052;-0.0385;-0.1264;
2820289281772;0.0084;-0.0619;-0.0880;
2820299391824;0.0041;-0.0097;-0.0976;
2820309523490;-0.0065;0.0020;-0.1157;
2820319633490;0.0212;0.0254;-0.1019;
2820329743490;0.0063;0.0477;-0.1455;
2820339842136;0.0190;0.0700;-0.1881;
2820349952136;0.0489;0.1297;-0.1221;
2820360062136;0.0606;0.1425;-0.1125;
2820370173699;0.0499;0.0786;-0.1168;
2820380283699;0.0308;0.0328;-0.1605;
2820390393699;0.0862;0.0509;-0.1871;
2820400496563;0.0744;0.0052;-0.1381;
2820410606615;0.0510;-0.0385;-0.1296;
2820420716563;0.1181;-0.0044;-0.1775;
2820430839011;0.1181;0.0148;-0.1796;
2820440949011;0.1021;0.0370;-0.1594;
2820451059011;0.1117;0.0615;-0.1413;
2820461161303;0.1117;0.0605;-0.1487;
2820471271303;0.1447;0.0828;-0.1349;
2820481381251;0.1266;0.0509;-0.1168;
2820491487917;0.1277;0.0041;-0.0774;
2820501597969;0.1096;-0.0300;-0.1125;
2820511707969;0.1501;-0.0193;-0.1200;
2820521818074;0.2076;0.0190;-0.1040;
2820531928074;0.2193;0.0212;-0.0784;
2820542038022;0.1884;-0.0023;-0.0891;
2820552153178;0.2385;-0.0033;-0.0539;
2820562263178;0.2310;-0.0001;-0.0262;
2820572373126;0.2246;-0.0065;-0.0369;
2820582470209;0.2577;0.0126;-0.0071;
2820592580261;0.2481;0.0201;0.0377;
2820602690209;0.2246;-0.0065;0.0622;
2820612803022;0.2363;-0.0065;0.0686;
2820622913022;0.2108;-0.0033;0.0558;
2820633023074;0.1959;0.0381;0.0558;
2820643154219;0.1842;0.0754;0.0760;
2820653264219;0.1383;0.0413;0.0983;
2820663374219;0.1149;-0.0108;0.0888;
2820673461459;0.1075;-0.0065;0.1015;
2820683571511;0.1288;0.0265;0.0961;
2820693681511;0.1160;0.0679;0.1004;
2820703796303;0.1490;0.0828;0.1206;
2820713906303;0.1330;0.0658;0.1526;
2820724016251;0.1405;-0.0651;0.1792;
2820734134897;0.1085;-0.0598;0.1270;
2820744244844;0.1639;0.0126;0.1142;
2820754354897;0.1128;-0.0214;0.1441;
2820764458282;0.1394;0.0084;0.1515;
2820774568230;0.0830;-0.0278;0.1206;
2820784678282;0.1021;-0.0800;0.1324;
2820794782605;0.0734;-0.0459;0.1473;
2820804892605;0.1160;-0.0087;0.1505;
2820815002605;0.1064;0.0009;0.1174;
2820825101667;0.1170;-0.0449;0.1441;
2820835211667;0.0936;-0.0619;0.1792;
2820845321667;0.1213;-0.0672;0.1803;
2820855443334;0.1256;-0.0087;0.1611;
2820865553334;0.1479;0.0615;0.1643;
2820875663334;0.1000;0.0286;0.1707;
2820885778386;0.0936;-0.0438;0.1867;
2820895888334;0.0723;0.0052;0.1547;
2820905998334;0.0691;0.0169;0.1824;
2820916114844;0.0542;-0.0406;0.2112;
2820926224844;0.0851;-0.0609;0.2250;
2820936334844;0.0989;-0.0694;0.2282;
2820946456615;0.0862;-0.0896;0.2559;
2820956566615;0.0989;-0.0800;0.2634;
2820966676615;0.1330;0.0360;0.2506;
2820976763022;0.1128;0.1276;0.2421;
2820986873022;0.0265;0.0690;0.2453;
2820996983074;-0.0193;0.0541;0.2517;
2821007093751;0.0084;0.0498;0.2517;
2821017203803;-0.0278;0.0073;0.2623;
2821027313751;-0.0747;-0.0683;0.2314;
2821037423022;-0.0150;-0.0768;0.2953;
2821047533074;-0.0012;0.0306;0.2932;
2821057643074;-0.0332;0.0052;0.2708;
2821067758282;-0.0662;-0.0427;0.3017;
2821077868282;-0.0353;0.0328;0.3188;
2821087978230;-0.0502;0.0477;0.2538;
2821098082397;-0.0214;0.0509;0.2208;
2821108192397;-0.0928;0.0700;0.2783;
2821118302397;-0.1694;-0.0001;0.3241;
2821128407292;-0.2088;-0.0364;0.2517;
2821138517188;-0.1726;0.0466;0.2059;
2821148627032;-0.2940;0.0201;0.2229;
2821158795626;-0.3696;-0.0971;0.2336;
2821168905574;-0.3281;-0.0150;0.2101;
2821179015417;-0.2610;0.1084;0.2091;
2821189074167;-0.3686;0.0807;0.2197;
2821199184063;-0.3110;0.0370;0.1824;
2821209293907;-0.2716;0.0860;0.1430;
2821219415469;-0.2961;0.0913;0.1270;
2821229525365;-0.3643;-0.0332;0.1398;
2821239635209;-0.3537;-0.0907;0.1238;
2821249713230;-0.2919;-0.0172;0.0654;
2821259823126;-0.2652;0.0466;0.0814;
2821269932969;-0.4367;-0.1077;0.0664;
2821280087397;-0.3696;-0.1418;0.0260;
2821290197240;-0.2503;0.0690;0.0174;
2821300307084;-0.3260;0.1798;0.0313;
2821310388230;-0.3324;0.1084;0.0100;
2821320498126;-0.2354;0.1318;-0.0092;
2821330607969;-0.2546;0.0690;-0.0379;
2821340716563;-0.2429;-0.0129;-0.0348;
2821350826459;-0.2056;0.0041;-0.0848;
2821360936303;-0.2045;-0.0481;-0.1168;
2821371049272;-0.2429;-0.2100;-0.1104;
2821381159167;-0.2130;-0.1439;-0.1338;
2821391269011;-0.1278;0.0233;-0.1317;
2821401384011;-0.1854;0.1798;-0.1775;
2821411493855;-0.2162;0.2543;-0.1796;
2821421603699;-0.1683;0.2405;-0.1487;
2821431706459;-0.1854;0.1467;-0.1296;
2821441816355;-0.2130;-0.0065;-0.1999;
2821451926199;-0.2162;-0.0928;-0.2659;
2821462043803;-0.1545;-0.0822;-0.1956;
2821472153647;-0.1236;-0.1972;-0.1583;
2821482263490;-0.0449;-0.0534;-0.1913;
2821492370574;0.0403;0.3289;-0.2350;
2821502480417;-0.0087;0.5004;-0.2435;
2821512590261;-0.2461;0.2383;-0.2553;
2821522692605;-0.1587;0.1925;-0.2254;
2821532802501;-0.1385;0.1979;-0.1818;
2821542912344;-0.1790;-0.1258;-0.1967;
2821553036407;-0.1246;-0.1887;-0.2254;
2821563146251;-0.1097;-0.0534;-0.2712;
2821573256094;-0.1385;0.0084;-0.2606;
2821583359636;-0.0811;0.0871;-0.2531;
2821593469480;-0.0225;0.2714;-0.2499;
2821603579324;-0.0843;0.2383;-0.2659;
2821613683490;-0.1790;-0.2419;-0.2585;
2821623793334;-0.0928;-0.2473;-0.2616;
2821633903178;-0.0513;-0.0459;-0.2830;
2821644015834;-0.0768;-0.0843;-0.2670;
2821654125730;0.0084;-0.1471;-0.2382;
2821664235574;0.0648;-0.0246;-0.2095;
2821674346147;0.0574;0.1457;-0.2489;
2821684456042;0.1309;0.0796;-0.2723;
2821694565886;0.2502;-0.0289;-0.2627;
2821704672969;0.3173;-0.2579;-0.2137;
2821714782813;0.1650;-0.4827;-0.1945;
2821724892657;0.2161;-0.0268;-0.2105;
2821735008074;0.3770;0.4024;-0.1945;
2821745117917;0.4696;0.3683;-0.1807;
2821755227761;0.4569;0.3363;-0.1189;
2821765338022;0.3876;0.3385;-0.0965;
2821775447917;0.3535;0.2820;-0.0486;
2821785557761;0.2555;0.1723;-0.0571;
2821795663126;0.2481;0.1276;-0.0667;
2821805773022;0.2449;0.0370;-0.0646;
2821815882865;0.2193;-0.0193;-0.0774;
2821826005886;0.1767;-0.0023;-0.0539;
2821836115730;0.2363;0.6718;-0.0507;
2821846225626;0.1447;0.0349;0.0111;
2821856327917;0.2949;-0.9971;0.0835;
2821866437813;0.1746;-0.4912;0.0260;
2821876547657;0.0169;-0.1525;0.0292;
2821886654063;0.1660;-0.1652;0.0664;
2821896763959;0.2417;-0.0609;0.0494;
2821906873803;0.1597;0.1158;0.0121;
2821916991615;0.1948;0.2437;0.0377;
2821927101459;0.2289;0.1851;-0.0113;
2821937211303;0.2417;0.1393;0.0025;
2821947297188;0.1554;0.1851;0.0228;
2821957407084;0.1298;0.0668;0.0366;
2821967516928;0.1618;-0.0577;0.0654;
2821977648803;0.1224;-0.1184;0.0515;
2821987758647;0.0872;-0.1439;0.0750;
2821997868490;0.0712;-0.1258;0.0867;
2822007979324;0.0403;-0.1003;0.0814;
2822018089167;0.0009;-0.0939;0.0558;
2822028199011;0.0073;-0.0417;0.0579;
2822038309740;0.0489;-0.0832;0.0622;
2822048419584;0.0553;-0.0598;0.0462;
2822058529480;0.0393;-0.0193;0.0430;
2822068638074;0.0372;-0.0364;0.0174;
2822078747917;0.0510;-0.0609;0.0494;
2822088857813;0.0340;-0.0395;0.0451;
2822098962501;0.0457;0.0073;0.0377;
2822109072344;0.0574;0.0190;0.0451;
2822119182188;0.0414;0.0084;0.0228;
2822129309011;0.0276;0.0180;0.0079;
2822139419063;0.0169;0.0434;0.0462;
2822149529167;0.0499;0.0148;0.0238;
2822159645105;0.0361;-0.0406;0.0302;
2822169755209;-0.0001;-0.0204;0.0121;
2822179865261;-0.0204;-0.0577;0.0206;
2822189972032;-0.0523;-0.1248;0.0313;
2822200082084;-0.0577;-0.0577;0.0494;
2822210192136;-0.0875;-0.0033;0.0292;
2822220275365;-0.0651;-0.0119;0.0409;
2822230385417;-0.0619;0.0349;0.0164;
2822240495469;-0.0545;0.1158;-0.0198;
2822250616511;-0.0353;0.1233;-0.0252;
2822260726563;-0.0246;0.0530;-0.0209;
2822270836615;-0.0534;0.0254;-0.0422;
2822280957032;-0.0662;0.0041;-0.0145;
2822291067084;-0.1097;-0.0140;-0.0305;
2822301177136;-0.0640;0.0009;-0.0039;
2822311282449;-0.1044;0.0158;0.0111;
2822321392501;-0.0726;0.0349;-0.0273;
2822331502553;-0.0300;0.0148;-0.0092;
2822341604740;-0.0438;0.0009;-0.0433;
2822351714792;-0.0278;-0.0864;-0.0294;
2822361824844;-0.0214;-0.1386;-0.0454;
2822371933647;-0.0268;-0.0491;-0.0475;
2822382043699;-0.0545;0.0020;-0.0518;
2822392153751;-0.0609;0.0381;-0.0422;
2822402267397;-0.0577;0.0594;-0.0188;
2822412377449;-0.0278;0.0487;-0.0177;
2822422487501;-0.0534;0.0265;-0.0252;
2822432599324;-0.0385;0.0041;-0.0507;
2822442709376;-0.0353;-0.0683;-0.0241;
2822452819428;-0.0321;-0.1088;-0.0198;
2822462948178;0.0084;-0.0854;-0.0348;
2822473058230;0.0020;0.0743;-0.0593;
2822483168282;-0.0417;0.0084;-0.0699;
2822493266719;-0.0129;-0.1429;-0.0284;
2822503376772;-0.0417;-0.1067;-0.0081;
2822513486824;-0.0449;-0.0875;-0.0124;
2822523601511;-0.0289;-0.0694;-0.0060;
2822533711563;0.0084;-0.0395;-0.0081;
2822543821615;-0.0246;0.0084;-0.0241;
2822553928594;-0.0108;0.0775;-0.0763;
2822564038594;0.0126;0.1201;-0.0294;
2822574148699;0.0116;0.1148;-0.0507;
2822584254219;0.0148;0.0892;-0.0667;
2822594364272;-0.0087;-0.0001;-0.0433;
2822604474324;-0.0246;0.0020;-0.0667;
2822614573386;-0.0406;-0.0300;-0.0316;
2822624683386;-0.0108;-0.0417;-0.0294;
2822634793490;-0.0076;0.0041;-0.0454;
2822644924115;0.0020;0.0349;-0.0411;
2822655034167;0.0009;0.0137;-0.0667;
2822665144272;0.0041;0.0626;-0.0933;
2822675239532;0.0521;0.1201;-0.1104;
2822685349584;0.0648;0.0605;-0.0901;
2822695459636;0.0819;0.0063;-0.0582;
2822705558074;0.0425;-0.0246;-0.0507;
2822715668126;0.0180;-0.0395;-0.0731;
2822725778230;0.0244;-0.0758;-0.0720;
2822735895678;0.0148;-0.0992;-0.0593;
2822746005730;0.0435;-0.1099;-0.0369;
2822756115782;0.0393;-0.1695;-0.0390;
2822766237292;0.0617;-0.1397;-0.0763;
2822776347397;0.0904;-0.1152;-0.0880;
2822786457449;0.1117;-0.2025;-0.0539;
2822796561303;0.1128;-0.1972;-0.0486;
2822806671355;0.0766;-0.0992;-0.0103;
2822816781407;0.0606;-0.0992;-0.0294;
2822826899428;0.0691;-0.1152;-0.0443;
2822837009480;0.0563;-0.0097;-0.0529;
2822847119584;0.1000;0.1435;-0.0443;
2822857211407;0.0734;0.0850;-0.0507;
2822867321459;0.0968;0.0828;-0.0678;
2822877431511;0.1277;0.2032;-0.0720;
2822887558490;0.1170;0.1393;-0.0699;
2822897668542;0.1309;0.1222;-0.0816;
2822907778594;0.1170;0.1276;-0.0710;
2822917885053;0.0489;0.0063;-0.0614;
2822927995105;0.0830;0.0063;-0.0465;
2822938105157;0.0989;0.0338;-0.0411;
2822948210990;0.1298;-0.0055;-0.0348;
2822958321042;0.1224;-0.0012;-0.0316;
2822968431094;0.1383;-0.0172;-0.0518;
2822978525157;0.1586;0.0180;-0.0198;
2822988635157;0.1330;0.0137;-0.0731;
2822998745261;0.1618;-0.0289;-0.0614;
2823008881772;0.1447;-0.0023;-0.0358;
2823018991824;0.1043;-0.0182;-0.0124;
2823029101928;0.1320;0.0254;-0.0049;
2823039210574;0.1820;0.1063;-0.0049;
2823049320574;0.1746;0.0286;0.0174;
2823059430678;0.1948;0.0306;0.0387;
2823069516719;0.1671;0.0626;0.0047;
2823079626772;0.1905;0.0850;0.0334;
2823089736824;0.1714;0.0434;0.0356;
2823099852969;0.1618;-0.0300;0.0739;
2823109963022;0.1362;-0.3506;0.1430;
2823120073126;0.0670;-0.5349;0.1718;
2823130176824;0.0638;0.1105;0.0940;
2823140286615;0.1863;0.6272;0.1015;
2823150396511;0.2257;0.2437;0.1302;
2823160516094;0.2513;0.0306;0.1622;
2823170625886;0.2736;0.2767;0.1015;
2823180735730;0.1660;0.3417;0.1537;
2823190850678;0.0553;0.0180;0.1611;
2823200960469;0.0925;-0.0342;0.1867;
2823211070313;-0.0119;0.0679;0.1856;
2823221178386;0.1192;0.5750;0.1462;
2823231288178;0.1128;0.8166;0.1579;
2823241398022;0.0702;-0.9161;0.3081;
2823251508647;0.1639;-1.0184;0.3124;
2823261618438;-0.1523;-0.2068;0.2559;
2823271728282;-0.2450;-0.0577;0.2506;
2823281853178;0.1543;-0.1706;0.3028;
2823291963022;0.0521;-0.1333;0.2261;
2823302072865;-0.0875;0.1776;0.2336;
2823312178178;-0.1640;0.3555;0.2101;
2823322287969;-0.0704;-0.0214;0.2186;
2823332397813;-0.0268;-0.0449;0.1846;
2823342497761;-0.1928;0.1446;0.1888;
2823352607553;-0.1278;0.0244;0.2272;
2823362717397;-0.0214;-0.1461;0.1909;
2823372835157;-0.1609;-0.1802;0.1909;
2823382944949;-0.2354;-0.1535;0.1377;
2823393054792;-0.1609;-0.1141;0.1324;
2823403171615;-0.1481;-0.1120;0.1324;
2823413281407;-0.1193;-0.0704;0.1302;
2823423391303;-0.1214;0.0084;0.1132;
2823433491719;-0.0854;0.0402;0.1281;
2823443601511;-0.0182;0.0541;0.0909;
2823453711355;-0.0353;0.0626;0.0909;
2823463829740;-0.0385;0.0509;0.0451;
2823473939532;-0.0683;0.0530;0.0142;
2823484049376;-0.0747;0.0722;-0.0326;
2823494149115;-0.0937;0.0402;-0.0060;
2823504258907;-0.1374;-0.0108;0.0025;
2823514368751;-0.1800;0.0009;-0.0071;
2823524473699;-0.1449;0.0423;-0.0284;
2823534583490;-0.0651;0.0977;-0.0390;
2823544693386;-0.0044;0.1201;-0.0230;
2823554810261;-0.0278;0.0466;-0.0316;
2823564920053;-0.0417;-0.0023;-0.0454;
2823575029897;-0.0481;0.0541;-0.0646;
2823585107188;-0.0726;0.0116;-0.0603;
2823595217084;-0.0694;0.0265;-0.0859;
2823605326928;-0.0864;0.0360;-0.0838;
2823615490886;-0.0928;-0.0630;-0.0603;
2823625600678;-0.0864;-0.1013;-0.0593;
2823635710574;-0.0619;-0.0939;-0.0624;
2823645791303;-0.0321;-0.1194;-0.0539;
2823655901094;-0.0278;-0.1450;-0.1051;
2823666010938;-0.0012;-0.0182;-0.0699;
2823676135886;0.0180;0.0434;-0.0891;
2823686245678;0.0563;-0.0097;-0.0880;
2823696355522;0.0297;0.0222;-0.0571;
2823706464115;0.0095;0.0487;-0.0699;
2823716573959;-0.0012;0.0360;-0.0646;
2823726683803;0.0073;0.0455;-0.0284;
2823736806563;0.0126;-0.0364;0.0036;
2823746916355;0.0148;-0.1003;-0.0166;
2823757026199;0.0680;-0.0481;-0.0124;
2823767116199;0.0883;-0.0225;0.0089;
2823777225990;0.1149;-0.0683;-0.0039;
2823787335834;0.1660;-0.0459;0.0292;
2823797443386;0.0968;-0.0395;0.0664;
2823807553178;0.0286;-0.0726;0.0760;
2823817663022;0.0446;-0.0108;0.0940;
2823827787344;0.0329;0.0583;0.0835;
2823837897136;0.0350;0.1020;0.0611;
2823848006980;-0.0087;0.1521;0.0515;
2823858102865;-0.0374;0.1212;0.0951;
2823868212657;-0.0459;0.0530;0.0686;
2823878322501;-0.0406;0.0073;0.0494;
2823888418022;-0.0832;0.0306;0.0324;
2823898527865;-0.1193;-0.0193;0.0483;
2823908637709;-0.1161;-0.0087;0.0590;
2823918765105;-0.0864;0.1169;0.0398;
2823928875001;-0.0832;0.0786;0.0249;
2823938984844;-0.0619;-0.1450;0.0419;
2823949080001;-0.0704;-0.1812;-0.0198;
2823959189844;-0.0523;0.0306;-0.0795;
2823969299636;-0.0534;0.1979;-0.0699;
2823979401459;-0.0758;0.1510;-0.0699;
2823989511355;-0.0854;0.0031;-0.0337;
2823999621147;-0.0353;0.0700;-0.0497;
2824009732449;-0.0321;0.1989;-0.0401;
2824019842240;-0.0374;0.1222;-0.0593;
2824029952084;-0.0385;0.0711;-0.0987;
2824040061094;0.0148;0.1691;-0.0742;
2824050170938;0.0084;0.3449;-0.1264;
2824060280782;-0.0087;0.0743;-0.0912;
2824070402761;-0.0491;-0.1780;-0.0624;
2824080512605;0.0531;-0.0822;-0.0720;
2824090622449;0.0425;-0.0811;-0.0678;
2824100749219;0.0137;-0.1312;-0.0518;
2824110859063;0.0531;-0.1897;-0.0103;
2824120968907;0.0372;-0.2249;-0.0507;
2824131082553;0.0670;-0.1525;-0.0720;
2824141192657;0.0968;-0.0598;-0.0284;
2824151302761;0.0712;-0.0790;-0.0411;
2824161413230;0.0851;-0.0683;-0.0561;
2824171523334;0.1298;0.0306;-0.0337;
2824181633386;0.1426;0.0338;0.0004;
2824191725678;0.0968;0.0201;0.0345;
2824201835782;0.1298;0.1222;0.0462;
2824211945834;0.1320;0.1382;0.0601;
2824222057240;0.0542;0.0615;0.0462;
2824232167344;0.0648;0.0434;0.0611;
2824242277397;0.0862;0.0338;0.0324;
2824252394219;0.0499;-0.0225;0.0206;
2824262504324;0.0222;-0.0917;0.0356;
2824272614376;0.0244;-0.1961;0.0835;
2824282723594;0.0201;-0.2622;0.0983;
2824292833699;0.0563;-0.2909;0.1164;
2824302943751;0.0606;-0.2590;0.1153;
2824313068230;0.0286;-0.1365;0.0313;
2824323178334;0.0254;-0.0683;0.0324;
2824333288386;-0.0555;-0.0832;0.0356;
2824343383647;-0.0033;-0.0087;0.0121;
2824353493751;-0.0182;0.0498;0.0015;
2824363603803;0.0052;0.0636;0.0206;
2824373708022;0.0403;0.1659;0.0430;
2824383818126;0.0840;0.1691;0.0664;
2824393928230;0.0712;0.1233;0.0632;
2824404051928;0.0851;0.1254;0.0473;
2824414162032;0.0137;0.0148;0.0366;
2824424272136;0.0254;-0.1013;0.0622;
2824434376928;0.0137;-0.0928;0.0324;
2824444487032;0.0222;-0.1024;0.0196;
2824454597084;0.0126;-0.1248;0.0526;
2824464693438;0.0084;-0.0385;0.0622;
2824474803542;0.0297;-0.0172;0.0993;
2824484913647;0.0489;-0.0534;0.1377;
2824495023282;0.0382;-0.0108;0.1121;
2824505133334;0.0265;0.0860;0.0664;
2824515243438;0.0222;0.1659;0.0643;
2824525357032;0.0254;0.1712;0.0483;
2824535467136;0.0158;0.1425;0.0611;
2824545577188;-0.0342;0.1031;0.0771;
2824555690782;-0.0214;0.0391;0.0654;
2824565800886;-0.0161;-0.0704;0.0961;
2824575910938;-0.0289;-0.1333;0.1100;
2824585999844;-0.0119;-0.0832;0.0951;
2824596109949;-0.0055;-0.0811;0.0877;
2824606220001;-0.0108;-0.0854;0.0993;
2824616352344;-0.0257;-0.1141;0.0846;
2824626462397;-0.0204;-0.0044;0.0249;
2824636572501;-0.0097;0.0445;0.0324;
2824646674740;-0.0087;-0.0566;0.0590;
2824656784792;-0.0726;-0.0087;0.0430;
2824666894897;-0.1055;0.0977;0.0387;
2824677022605;-0.0321;0.0434;0.0601;
2824687132709;-0.0023;-0.0513;0.0356;
2824697242813;-0.0651;-0.0342;0.0196;
2824707320365;-0.1704;-0.0385;0.0121;
2824717430469;-0.1704;-0.0630;-0.0103;
2824727540522;-0.1577;-0.0417;-0.0465;
2824737676824;-0.0969;-0.0278;-0.0518;
2824747786928;-0.0427;0.0786;-0.0593;
2824757896980;-0.0395;0.0850;-0.0103;
2824767993699;-0.0268;-0.0353;0.0185;
2824778103751;-0.0364;-0.0161;-0.0316;
2824788213855;-0.0310;0.1595;-0.0486;
2824798308386;-0.0321;0.2394;-0.0518;
2824808418438;-0.0417;0.1105;-0.0720;
2824818528542;-0.0321;0.0519;-0.0710;
2824828662084;-0.0683;-0.0598;-0.0688;
2824838772188;-0.0790;-0.3921;-0.0220;
2824848882240;-0.0672;-0.3474;-0.0337;
2824858992397;-0.0406;0.0052;-0.0071;
2824869102501;0.0595;0.1542;-0.0081;
2824879212553;0.1256;0.1126;-0.0284;
2824889311928;0.1607;0.1031;0.0015;
2824899422032;0.0137;0.1105;-0.0198;
2824909532136;-0.0353;0.0796;-0.0369;
2824919647865;-0.0246;0.0381;-0.0209;
2824929757969;-0.0449;-0.0044;-0.0177;
2824939868074;0.0435;0.2948;-0.0252;
2824949967032;0.0340;0.3470;0.0334;
2824960077136;0.0180;-0.3581;0.0824;
2824970187188;0.0659;-0.4209;0.0260;
2824980294011;0.0009;-0.0726;0.0228;
2824990404115;-0.0108;-0.1013;0.0196;
2825000514167;0.0126;-0.1897;0.0387;
2825010625782;-0.0779;-0.0928;0.0079;
2825020735834;-0.0566;0.0945;0.0249;
2825030845938;-0.0779;0.1957;0.0111;
2825040954063;-0.0587;0.1553;-0.0081;
2825051064167;0.0084;0.0764;-0.0039;
2825061174219;-0.0502;0.0913;-0.0103;
2825071299636;-0.0481;0.0370;-0.0294;
2825081409740;-0.0150;-0.0214;-0.0081;
2825091519792;-0.0481;-0.0353;-0.0518;
2825101621147;-0.0577;-0.1099;-0.0465;
2825111731251;-0.0385;-0.0917;-0.0379;
2825121841303;-0.0481;-0.0566;-0.0337;
2825131939844;-0.0044;-0.0651;-0.0337;
2825142049844;-0.0214;-0.0619;-0.0103;
2825152159844;0.0084;-0.0204;-0.0358;
2825162307397;-0.0012;0.1233;-0.0816;
2825172417397;0.0041;0.1680;-0.0859;
2825182527397;-0.0204;0.0668;-0.0933;
2825192617813;-0.0289;0.0509;-0.1253;
2825202727813;-0.0225;0.1371;-0.1455;
2825212837813;-0.0161;0.1297;-0.1061;
2825222935990;-0.0044;0.0818;-0.0912;
2825233045990;-0.0108;0.0498;-0.0720;
2825243155990;0.0031;-0.0182;-0.0891;
2825253280053;0.0084;-0.0310;-0.1242;
2825263390053;0.0052;-0.0268;-0.1317;
2825273500053;0.0180;-0.0651;-0.1221;
2825283604324;-0.0044;-0.0907;-0.1349;
2825293714324;0.0063;-0.0971;-0.1562;
2825303824324;0.0095;-0.1578;-0.1402;
2825313927344;0.0254;-0.1748;-0.1221;
2825324037344;0.0105;-0.1322;-0.0763;
2825334147344;0.0276;-0.1770;-0.0635;
2825344253490;0.0382;-0.1088;-0.1146;
2825354363490;0.0744;0.0668;-0.1317;
2825364473490;0.0979;0.0679;-0.1136;
2825374597344;0.0830;0.0254;-0.1019;
2825384707344;0.0691;0.0850;-0.1253;
2825394817344;0.0893;0.1222;-0.1104;
2825404920678;0.0712;0.0636;-0.0955;
2825415030678;0.0883;0.0317;-0.0230;
2825425140678;0.0680;0.0455;-0.0241;
2825435246980;0.0691;-0.0513;-0.0188;
2825445356980;0.0542;-0.1503;-0.0443;
2825455466980;0.0563;-0.1812;-0.0262;
2825465576928;0.0531;-0.1759;-0.0145;
2825475686928;0.0638;-0.1471;0.0047;
2825485796928;0.0851;-0.0885;-0.0124;
2825495910313;0.1490;-0.0555;0.0153;
2825506020313;0.1149;0.0041;0.0590;
2825516130313;0.0808;0.0786;0.0846;
2825526244063;0.0403;0.0562;0.0771;
2825536354063;0.0318;0.0615;0.0419;
2825546464063;0.0425;0.1499;0.0430;
2825556567344;0.0617;0.1798;0.0462;
2825566677344;-0.0321;-0.0630;0.0686;
2825576787344;0.0265;-0.0971;0.0547;
2825586916199;0.0723;-0.0268;0.0622;
2825597026199;0.0457;-0.0779;0.1004;
2825607136199;0.0063;-0.1248;0.1547;
2825617237969;0.0361;-0.1226;0.1345;
2825627347969;0.0254;-0.0917;0.0899;
2825637457969;0.0276;-0.0332;0.0940;
2825647560678;0.0254;-0.0076;0.1047;
2825657670678;-0.0129;0.1031;0.0579;
2825667780626;-0.1044;-0.0246;0.0260;
2825677889011;-0.1662;-0.0832;0.0601;
2825687999011;-0.0980;0.0297;0.0632;
2825698109011;-0.0374;-0.0129;0.0760;
2825708216719;-0.0991;-0.1791;0.0675;
2825718326719;-0.0854;-0.1407;0.0057;
2825728436719;0.0382;0.0169;0.0281;
2825738537397;-0.0097;0.0105;0.0111;
2825748647344;-0.0055;-0.0406;-0.0039;
2825758757397;-0.0012;-0.0076;-0.0220;
2825768943855;0.0084;0.0317;-0.0220;
2825779053855;0.0126;-0.0055;-0.0071;
2825789163855;-0.0055;-0.0864;0.0366;
2825799200261;0.0467;-0.0609;0.0505;
2825809310209;0.0489;-0.0395;0.0025;
2825819420209;0.0989;0.0498;-0.0145;
2825829578074;0.0808;0.0935;-0.0103;
2825839688074;-0.0055;0.0201;-0.0017;
2825849798074;-0.0395;-0.0257;-0.0071;
2825859857657;0.0180;-0.0278;-0.0145;
2825869967657;0.0531;-0.0065;-0.0103;
2825880077657;0.0553;0.0148;0.0377;
2825890190313;0.0798;0.0509;0.0494;
2825900300313;0.0787;0.1190;0.0483;
2825910410313;0.0276;0.1105;0.0260;
2825920534584;-0.0172;0.0052;0.0409;
2825930644584;0.0244;-0.0971;0.0494;
2825940754584;0.0276;-0.0502;0.0387;
2825950861928;0.0617;-0.0140;0.0345;
2825960971928;0.0105;0.0148;0.0196;
2825971081928;0.0254;0.0871;0.0441;
2825981172136;0.0095;-0.0012;0.0940;
2825991282136;-0.0204;-0.0917;0.0664;
2826001392136;0.0233;-0.0662;0.0377;
2826011513594;0.0052;0.0254;0.0707;
2826021623594;-0.0108;0.0690;0.0281;
2826031733594;-0.0193;0.0381;0.0451;
2826041846094;-0.0332;0.0626;0.0590;
2826051956094;0.0158;0.1308;0.0601;
2826062066094;-0.0236;0.0413;0.0505;
2826072177240;-0.0257;-0.0896;0.0782;
2826082287240;0.0180;-0.0438;0.0696;
2826092397240;-0.0225;0.0306;0.0281;
2826102499428;-0.0937;-0.0800;0.0174;
2826112609428;-0.1406;-0.3740;0.0569;
2826122719428;-0.0747;-0.4806;0.0047;
2826132833647;0.2310;-0.0023;-0.0326;
2826142943647;0.2822;0.2959;-0.0529;
2826153053647;0.0648;0.2724;0.0068;
2826163150730;-0.1640;0.1957;0.1164;
2826173260782;-0.1534;0.2522;0.1537;
2826183370730;-0.0609;0.2181;0.0877;
2826193496719;-0.0236;0.0668;0.0675;
2826203606719;-0.0364;0.0126;0.0441;
2826213716719;0.0627;0.0679;0.0494;
2826223826511;0.1810;0.3939;0.0451;
2826233936511;-0.0726;0.0276;0.0696;
2826244046511;-0.3515;-0.7307;0.1004;
2826254166980;0.0499;-0.4731;0.0877;
2826264276980;0.3983;-0.1652;0.0803;
2826274386980;0.2417;-0.2888;0.1324;
2826284475574;-0.0832;-0.3091;0.1441;
2826294585574;-0.0907;-0.0523;0.1366;
2826304695574;-0.0948;0.2160;0.0877;
2826314807032;-0.2173;0.2170;0.0632;
2826324917032;-0.2610;0.2181;0.0451;
2826335027032;-0.2003;0.2969;0.0494;
2826345143803;-0.2290;0.2138;0.0505;
2826355253855;-0.2919;0.0116;0.0451;
2826365363855;-0.1534;-0.0342;0.0675;
2826375469844;-0.0609;0.0009;0.0100;
2826385579844;-0.1321;-0.1003;0.0004;
2826395689844;-0.1161;-0.1365;-0.0071;
2826405808594;-0.0523;-0.0534;-0.0411;
2826415918594;-0.0736;-0.0161;-0.0316;
2826426028594;-0.0822;-0.0172;-0.0049;
2826436140053;-0.0715;0.0190;-0.0145;
2826446250053;-0.0481;0.0881;-0.0507;
2826456360053;-0.0555;0.0605;-0.0262;
2826466449636;-0.0907;0.0020;-0.0369;
2826476559636;-0.0768;0.0073;-0.0678;
2826486669636;-0.0980;-0.0427;-0.0880;
2826496798803;-0.0779;-0.1109;-0.1274;
2826506908803;-0.0768;-0.1375;-0.1498;
2826517018803;-0.0864;-0.1514;-0.1455;
2826527126511;-0.0598;-0.1514;-0.1157;
2826537236511;-0.0225;-0.1013;-0.1541;
2826547346511;0.0372;-0.0726;-0.1466;
2826557450261;0.0212;-0.0374;-0.1519;
2826567560261;0.0617;0.0700;-0.1796;
2826577670261;0.0627;0.0850;-0.1594;
2826587793334;-0.0097;-0.0087;-0.1818;
2826597903386;0.0638;0.0286;-0.2095;
2826608013386;0.0893;0.0530;-0.1967;
2826618110782;0.0158;-0.0385;-0.1839;
2826628220782;0.0382;-0.0949;-0.1679;
2826638330782;0.1138;-0.0875;-0.1605;
2826648429324;0.1607;-0.1099;-0.1466;
2826658539324;0.2172;-0.0619;-0.1498;
2826668649324;0.2278;0.0116;-0.1455;
2826678783438;0.1969;-0.0076;-0.1232;
2826688893490;0.1714;-0.0310;-0.1146;
2826699003490;0.1490;0.0063;-0.1178;
2826709100105;0.1852;0.1031;-0.0816;
2826719210105;0.1533;0.1702;-0.0656;
2826729320105;0.0925;0.0818;-0.0294;
2826739440469;0.1479;0.0286;0.0100;
2826749550469;0.1085;0.0551;-0.0198;
2826759660522;0.1256;0.0519;-0.0305;
2826769743282;0.0776;-0.0459;0.0047;
2826779853282;0.0808;-0.1589;0.0068;
2826789963282;0.0872;-0.1003;-0.0007;
2826800099897;0.1064;-0.0225;-0.0039;
2826810209897;0.0957;-0.0332;0.0601;
2826820319897;0.0712;-0.0736;0.0643;
2826830433699;0.1277;-0.0257;0.0803;
2826840543699;0.1309;0.0233;0.0782;
2826850653699;0.0872;-0.1375;0.0377;
2826860745053;0.0989;-0.0928;0.0632;
2826870855053;0.1128;0.1595;0.0856;
2826880965053;0.0872;0.1510;0.0824;
2826891100209;0.0478;0.0519;0.0929;
2826901210209;0.0659;0.0658;0.1079;
2826911320261;0.0510;0.1361;0.1015;
2826921406094;0.0744;0.0487;0.1238;
2826931516094;0.0361;-0.0790;0.1526;
2826941626094;0.0659;-0.0395;0.1270;
2826951745574;0.1202;0.1095;0.1366;
2826961855574;0.0425;0.1350;0.1356;
2826971965574;-0.0257;-0.1642;0.1153;
2826982075782;-0.0513;-0.2089;0.1377;
2826992185782;0.0606;0.0786;0.1473;
2827002295782;0.0329;0.0668;0.1398;
2827012398074;0.0073;-0.0342;0.1814;
2827022508074;-0.0332;-0.0172;0.1611;
2827032618074;0.0201;0.0402;0.1579;
2827042723594;-0.0182;0.0286;0.1249;
2827052833594;-0.0321;-0.0406;0.1345;
2827062943594;0.0137;0.0360;0.1057;
2827073065574;-0.0342;0.0892;0.1174;
2827083175574;-0.0459;0.0116;0.1505;
2827093285574;-0.1044;-0.0246;0.1025;
2827103381824;-0.0278;0.0190;0.1068;
2827113491824;-0.0768;-0.0129;0.1292;
2827123601824;-0.0427;-0.0587;0.1398;
2827133710574;0.0031;0.0063;0.0993;
2827143820522;0.0137;0.0487;0.1142;
2827153930522;-0.0246;0.0212;0.1260;
2827164035001;-0.0513;-0.0704;0.1025;
2827174144949;-0.0555;-0.0353;0.0951;
2827184254949;-0.0119;0.0626;0.0972;
2827194375886;-0.0672;-0.0268;0.0867;
2827204485834;-0.0395;-0.0182;0.1292;
2827214595834;-0.0406;0.0519;0.1366;
2827224726407;-0.0161;0.0743;0.0803;
2827234836407;-0.0651;0.0031;0.0537;
2827244946355;-0.0598;-0.0193;0.0611;
2827255043647;-0.0715;0.0700;0.0664;
2827265153647;-0.0959;0.0148;0.0675;
2827275263594;-0.1300;-0.0864;0.0739;
2827285369636;-0.1161;-0.0055;0.0206;
2827295479584;-0.0800;0.0807;0.0537;
2827305589584;-0.1289;-0.0459;0.0451;
2827315702397;-0.0630;-0.0662;0.0206;
2827325812344;-0.0406;0.0212;0.0079;
2827335922344;-0.0790;0.0297;-0.0007;
2827346003022;-0.0491;0.0903;-0.0209;
2827356113022;-0.0991;-0.0065;-0.0113;
2827366223022;-0.0937;-0.1205;0.0100;
2827376352657;-0.0534;0.0105;0.0366;
2827386462605;-0.0119;0.1190;0.0345;
2827396572605;-0.0481;0.0668;0.0462;
2827406665678;-0.0268;-0.0012;0.0505;
2827416775574;-0.0225;0.0265;0.0356;
2827426885574;-0.0150;0.0647;0.0228;
2827436995522;-0.0864;-0.0150;0.0047;
2827447117709;-0.1012;-0.1141;0.0334;
2827457227709;-0.0768;-0.1354;0.0686;
2827467337709;-0.0055;0.0466;0.0846;
2827477468074;0.0212;0.1222;0.0824;
2827487578022;-0.0108;0.0148;0.1387;
2827497688022;-0.0481;-0.0683;0.1387;
2827507791147;-0.0076;-0.0193;0.1015;
2827517901094;0.0116;0.0562;0.1334;
2827528011094;-0.0640;0.0573;0.1206;
2827538112136;-0.0694;0.0222;0.1366;
2827548222084;-0.1055;-0.0097;0.1196;
2827558332084;-0.0832;-0.0001;0.1473;
2827568443803;-0.0768;-0.0204;0.1643;
2827578553751;-0.1140;-0.1375;0.2037;
2827588663751;-0.0928;-0.1354;0.2240;
2827598782397;-0.0736;-0.0289;0.1622;
2827608892397;-0.0545;0.0711;0.1430;
2827619002397;-0.1513;0.1446;0.1451;
2827629108386;-0.1683;0.1776;0.1313;
2827639218386;-0.2855;0.1095;0.1366;
2827649328334;-0.3984;-0.0289;0.1292;
2827659450053;-0.3952;0.0498;0.0526;
2827669560053;-0.3473;0.1936;0.0334;
2827679670001;-0.4495;0.0786;0.0334;
2827689750626;-0.4644;-0.0513;0.0174;
2827699860574;-0.3600;-0.0598;-0.0433;
2827709970574;-0.2897;-0.0055;-0.0944;
2827720100365;-0.3260;-0.0800;-0.1253;
2827730210313;-0.3068;-0.1748;-0.1509;
2827740320313;-0.2397;-0.1620;-0.1519;
2827750423594;-0.2258;-0.0438;-0.1828;
2827760533542;-0.1843;0.1563;-0.2009;
2827770643542;-0.3228;-0.0694;-0.1913;
2827780761459;-0.2897;-0.3346;-0.1977;
2827790871459;0.0606;0.1872;-0.2915;
2827800981407;0.2193;0.5505;-0.3138;
2827811076407;-0.2003;0.1723;-0.2861;
2827821186355;-0.2716;0.0541;-0.2670;
2827831296355;-0.0214;0.1979;-0.2457;
2827841409636;0.0180;0.1318;-0.2393;
2827851519584;-0.0768;0.1212;-0.2457;
2827861629584;-0.0619;0.0828;-0.2276;
2827871765469;0.0372;0.0381;-0.1775;
2827881875417;0.1490;0.4035;-0.2244;
2827891985417;-0.1545;-0.1088;-0.2371;
2827902070157;-0.2226;-0.5700;-0.2222;
2827912180105;0.1671;-0.1961;-0.2254;
2827922290105;0.1905;-0.0204;-0.2233;
2827932405886;0.0105;-0.1546;-0.1786;
2827942515834;0.0340;-0.0896;-0.1349;
2827952625834;0.1628;-0.0023;-0.1115;
2827962731928;0.2704;0.0668;-0.0752;
2827972841876;0.2161;0.1041;-0.1306;
2827982951876;0.2853;0.0551;-0.0401;
2827993069167;0.2577;0.0658;-0.0305;
2828003179115;0.2758;0.0413;-0.0358;
2828013289115;0.3152;0.0254;0.0292;
2828023400990;0.3141;-0.0449;0.0929;
2828033510938;0.2651;-0.1482;0.1281;
2828043620938;0.2055;-0.1812;0.1718;
2828053719011;0.1490;-0.0555;0.2069;
2828063828959;0.1277;0.0084;0.2250;
2828073938959;0.0734;0.0063;0.2336;
2828084063074;0.0968;0.1137;0.2762;
2828094173074;0.0020;0.1180;0.2655;
2828104283022;-0.1417;-0.0321;0.2591;
2828114378647;-0.2248;0.0402;0.2730;
2828124488594;-0.3686;0.1009;0.2304;
2828134598594;-0.4804;0.0583;0.2453;
2828144699480;-0.5667;0.2288;0.1931;
2828154809480;-0.6178;0.2288;0.1164;
2828164919480;-0.8052;-0.0875;0.0611;
2828175055053;-0.8276;-0.0907;-0.0145;
2828185165001;-0.7455;-0.0438;-0.1029;
2828195275001;-0.7647;-0.1375;-0.1615;
2828205367657;-0.6391;-0.0300;-0.1892;
2828215477605;-0.5869;-0.0310;-0.2233;
2828225587553;-0.4921;-0.0065;-0.2531;
2828235702657;-0.3324;0.0551;-0.2851;
2828245812605;-0.2738;0.0073;-0.3426;
2828255922553;-0.2280;0.0455;-0.4023;
2828266000001;-0.0790;0.0903;-0.4118;
2828276110001;-0.0097;0.0700;-0.4289;
2828286219949;0.1011;0.0913;-0.4459;
2828296356928;0.1479;0.0381;-0.4385;
2828306466876;0.2118;-0.0257;-0.4044;
2828316576824;0.3578;-0.0108;-0.3501;
2828326684219;0.3972;-0.0321;-0.2893;
2828336794167;0.4611;-0.0395;-0.2627;
2828346904167;0.5451;0.0020;-0.2393;
2828357024324;0.4835;-0.0768;-0.1818;
2828367134272;0.4707;-0.0992;-0.1668;
2828377244219;0.5515;-0.0640;-0.1658;
2828387342136;0.5016;-0.1258;-0.0763;
2828397452084;0.4196;-0.1546;-0.0124;
2828407562032;0.4984;-0.0683;0.0281;
2828417680990;0.3961;-0.0619;0.1238;
2828427790938;0.2385;-0.0981;0.1313;
2828437900886;0.2129;-0.0694;0.1036;
2828448004324;0.1959;0.0095;0.0951;
2828458114272;0.1288;0.0222;0.1366;
2828468224219;0.0585;-0.0449;0.1537;
2828478351928;-0.0023;-0.0609;0.1302;
2828488461876;0.0244;0.0349;0.1462;
2828498571876;-0.0321;0.0764;0.1483;
2828508660782;-0.1875;-0.0459;0.1888;
2828518770730;-0.2695;-0.0672;0.1558;
2828528880730;-0.1342;0.0466;0.0877;
2828538995261;-0.1875;0.0487;0.0494;
2828549105157;-0.2855;-0.0353;0.0590;
2828559215157;-0.2290;0.0573;-0.0188;
2828569328282;-0.1438;0.1670;-0.0720;
2828579438230;-0.2407;0.1041;-0.0550;
2828589548230;-0.2684;0.0105;-0.0507;
2828599652240;-0.1555;0.0052;-0.0571;
2828609762188;-0.0651;0.0338;-0.0912;
2828619872136;-0.0140;-0.0278;-0.0912;
2828629997657;-0.0587;0.0265;-0.1445;
2828640107605;-0.1459;-0.1844;-0.1370;
2828650217553;0.0435;-0.5816;-0.0997;
2828660323230;0.6762;0.1073;-0.1764;
2828670433178;0.6186;0.5654;-0.2105;
2828680543126;-0.0991;0.2245;-0.0997;
2828690644324;-0.2716;0.0180;0.0111;
2828700754272;0.0254;0.2000;0.0292;
2828710864219;0.1362;0.2554;-0.0316;
2828720967136;-0.0427;0.0222;-0.0923;
2828731077136;-0.0033;-0.0896;-0.0859;
2828741187084;0.0435;-0.0832;-0.1221;
2828751301094;0.3695;0.6835;-0.1136;
2828761411042;-0.1150;-0.0119;-0.1040;
2828771520990;-0.6594;-1.1473;-0.0103;
2828781632032;-0.0236;-0.3463;-0.1083;
2828791741980;0.5622;0.1606;-0.1104;
2828801851928;0.1969;-0.2185;-0.0891;
2828811954272;-0.2173;-0.2185;-0.0667;
2828822064272;-0.1289;0.1052;-0.1008;
2828832174219;-0.0332;0.2224;-0.1306;
2828842308386;-0.1257;0.1148;-0.1956;
2828852418334;-0.0854;0.0690;-0.2190;
2828862528282;0.0798;0.2245;-0.2158;
2828872651615;-0.0119;0.0977;-0.1562;
2828882761563;-0.0427;-0.1344;-0.1157;
2828892871511;0.1852;-0.0619;-0.1146;
2828902972449;0.3450;-0.1237;-0.1573;
2828913082397;0.4142;-0.2324;-0.1434;
2828923192397;0.5345;-0.0800;-0.0987;
2828933305053;0.6612;-0.0268;-0.0784;
2828943415001;0.6069;0.0041;-0.0379;
2828953524949;0.4206;0.0360;0.0494;
2828963624428;0.2182;-0.0300;0.0972;
2828973734376;0.1778;-0.0566;0.1111;
2828983844324;0.2001;0.0041;0.1324;
2828993947397;0.1703;-0.0065;0.1441;
2829004057344;0.1969;0.0148;0.1398;
2829014167292;0.1543;0.0487;0.1654;
2829024272969;0.1373;0.0668;0.1483;
2829034382917;0.1000;0.0562;0.1430;
2829044492865;0.0776;-0.0087;0.1846;
2829054602032;0.0254;-0.0694;0.2357;
2829064711980;0.0617;-0.0587;0.2474;
2829074821928;0.0744;0.0148;0.2314;
2829084933594;0.0446;0.0265;0.2250;
2829095043542;-0.0662;0.0487;0.1931;
2829105153542;-0.1118;0.1340;0.2122;
2829115253542;-0.2088;0.0658;0.1973;
2829125363542;-0.2887;0.0137;0.1696;
2829135473490;-0.2301;0.1158;0.1760;
2829145583803;-0.2578;0.0381;0.1217;
2829155693751;-0.3110;-0.0587;0.1270;
2829165803751;-0.2844;-0.0268;0.1324;
2829175916824;-0.1598;-0.0087;0.1377;
2829186026772;-0.2184;-0.1439;0.0920;
2829196136719;-0.1502;-0.1258;0.0515;
2829206245053;-0.0481;0.0095;0.0356;
2829216355001;-0.1172;0.0265;0.0068;
2829226464949;-0.1332;0.0137;0.0196;
2829236571876;-0.1257;0.0095;0.0249;
2829246681876;-0.0672;0.0956;0.0462;
2829256791824;-0.1001;0.1286;0.0686;
2829266925053;-0.1374;-0.0129;0.0675;
2829277035001;-0.0502;0.0338;0.0419;
2829287144949;-0.0140;0.1510;0.0292;
2829297245157;-0.1033;0.0509;0.0377;
2829307355105;-0.1129;-0.0395;-0.0028;
2829317465053;-0.0619;-0.0438;-0.0124;
2829327565574;-0.0704;-0.0790;-0.0220;
2829337675522;-0.0438;-0.1109;0.0228;
2829347785469;-0.0289;-0.1109;0.0569;
2829357898490;-0.0300;-0.1045;0.0643;
2829368008438;-0.0864;-0.0896;0.0185;
2829378118386;-0.0566;-0.1589;-0.0049;
2829388221303;0.0095;-0.1599;0.0100;
2829398331251;0.2246;0.1148;-0.0337;
2829408441199;0.2268;0.3608;-0.0369;
2829418557553;-0.1651;0.2447;0.0100;
2829428667501;-0.3281;0.0690;0.0196;
2829438777449;-0.1129;0.1723;0.0313;
2829448912397;0.0158;0.2554;0.0441;
2829459022344;-0.1129;0.0477;0.0483;
2829469132292;-0.0875;-0.0726;-0.0060;
2829479201199;0.1394;0.0487;-0.0337;
2829489311147;0.3386;0.2895;-0.0241;
2829499421147;-0.0980;0.0360;-0.0252;
2829509585365;-0.3835;-0.4518;0.0025;
2829519695313;-0.0214;-0.2963;0.0047;
2829529805261;0.2864;-0.0236;-0.0358;
2829539868594;0.0680;-0.1077;-0.0220;
2829549978542;-0.1268;-0.2334;0.0441;
2829560088490;-0.0033;-0.1077;0.0047;
2829570195105;0.0531;0.1606;-0.0358;
2829580305105;-0.0896;0.1808;-0.0774;
2829590415053;-0.1609;0.0487;-0.0582;
2829600552553;-0.0758;0.0807;-0.0486;
2829610662501;-0.0150;0.1073;-0.0624;
2829620772449;-0.0214;0.0668;-0.0433;
2829630848803;0.0031;0.0137;-0.0092;
2829640958751;0.0148;-0.0406;0.0217;
2829651068699;0.1021;-0.0140;-0.0007;
2829661204844;0.1266;0.0020;-0.0166;
2829671314792;0.0478;-0.0374;0.0121;
2829681424740;-0.0119;-0.0747;-0.0081;
2829691526928;0.0180;-0.0843;-0.0198;
2829701636876;-0.0001;-0.0651;0.0398;
2829711746824;0.0137;-0.0587;0.0473;
2829721846094;0.0478;-0.0044;0.0675;
2829731956094;0.0180;0.0009;0.1047;
2829742066042;0.0318;0.0073;0.1153;
2829752191094;0.0084;0.0148;0.0929;
2829762301042;-0.0182;0.0254;0.1217;
2829772410990;0.0084;0.1276;0.0993;
2829782510261;-0.0427;0.0413;0.1015;
2829792620209;-0.0715;-0.0609;0.0909;
2829802730157;-0.0129;0.0073;0.1238;
2829812841615;-0.0108;0.0711;0.1260;
2829822951563;-0.0108;0.0391;0.1814;
2829833061511;-0.0087;-0.0065;0.1984;
2829843183386;-0.0289;0.0338;0.1718;
2829853293334;-0.0651;0.0519;0.1569;
2829863403282;-0.0811;-0.0214;0.1537;
2829873507761;-0.1055;-0.0332;0.1430;
2829883617709;-0.1438;0.0137;0.1377;
2829893727657;-0.1981;0.0317;0.1302;
2829903845365;-0.2344;0.0615;0.1164;
2829913955313;-0.2503;0.0212;0.1270;
2829924065261;-0.2834;-0.0715;0.0983;
2829934164949;-0.2631;-0.0513;0.0771;
2829944274897;-0.3153;0.0137;0.0185;
2829954384844;-0.3419;-0.0044;0.0015;
2829964488074;-0.3025;-0.0513;-0.0305;
2829974598022;-0.3057;-0.0321;-0.0582;
2829984707969;-0.3089;0.0276;-0.0944;
2829994818386;-0.2961;0.0541;-0.1200;
2830004928334;-0.2684;0.0212;-0.1402;
2830015038282;-0.2067;0.0105;-0.1338;
2830025131876;-0.1523;0.0775;-0.1498;
2830035241824;-0.1907;0.0265;-0.2073;
2830045351824;-0.2013;-0.0651;-0.2031;
2830055476459;-0.1598;-0.0726;-0.2435;
2830065586459;-0.1300;-0.0172;-0.2627;
2830075696407;-0.1502;0.0212;-0.2925;
2830085808386;-0.0959;-0.0289;-0.2776;
2830095918334;-0.0630;-0.0577;-0.2755;
2830106028282;0.0126;-0.0033;-0.2691;
2830116132709;0.0627;-0.0140;-0.2659;
2830126242709;0.1096;-0.0321;-0.2734;
2830136352657;0.1831;0.0370;-0.2542;
2830146483490;0.2321;0.0881;-0.2457;
2830156593490;0.2161;0.0360;-0.2403;
2830166703490;0.2534;0.0169;-0.2425;
2830176801303;0.2885;0.0063;-0.1796;
2830186911251;0.2587;-0.0214;-0.1509;
2830197021251;0.3109;0.0020;-0.1093;
2830207126615;0.3024;0.0276;-0.0784;
2830217236563;0.3184;0.0031;-0.0326;
2830227346563;0.2385;-0.0055;-0.0358;
2830237462136;0.1660;-0.0491;-0.0092;
2830247572136;0.0904;-0.0822;-0.0124;
2830257682084;0.0830;-0.0481;0.0089;
2830267794063;0.0808;0.0041;0.0089;
2830277904063;0.0670;-0.0023;0.0260;
2830288014011;0.0403;0.0116;0.0441;
2830298113647;0.0031;0.0169;0.0601;
2830308223699;-0.0065;-0.0087;0.0515;
2830318333647;-0.0150;-0.0087;0.0260;
2830328440001;-0.0619;-0.0076;0.0473;
2830338550053;-0.1118;-0.0289;0.0324;
2830348660053;-0.1118;0.0222;0.0153;
2830358791355;-0.1172;0.0668;-0.0124;
2830368901355;-0.1385;0.0222;-0.0092;
2830379011407;-0.1417;-0.0353;-0.0156;
2830389094272;-0.1140;-0.0374;0.0164;
2830399204272;-0.1214;-0.0470;-0.0092;
2830409314219;-0.0513;-0.0800;-0.0539;
2830419447136;-0.0449;-0.0758;-0.0294;
2830429557136;-0.0481;-0.0364;0.0004;
2830439667136;-0.0246;0.0233;-0.0571;
2830449774532;-0.0278;0.0509;-0.0561;
2830459884532;-0.0108;0.0679;-0.0593;
2830469994532;-0.0214;0.0276;-0.0337;
2830480104115;0.0031;-0.0150;-0.0337;
2830490214115;0.0350;0.0126;0.0228;
2830500324115;0.0137;-0.0076;-0.0092;
2830510422917;0.0617;0.0509;0.0068;
2830520532969;0.0020;0.0541;-0.0113;
2830530642917;0.0041;0.0073;-0.0422;
2830540751459;-0.0097;0.0244;-0.0422;
2830550861511;-0.0129;-0.0300;-0.0028;
2830560971459;-0.0097;-0.1013;0.0132;
2830571079584;0.0414;-0.0491;-0.0007;
2830581189584;0.0595;0.0306;0.0174;
2830591299584;0.0393;0.0212;0.0334;
2830601414636;-0.0023;0.0498;-0.0081;
2830611524636;-0.0161;0.0903;0.0292;
2830621634584;-0.0481;0.0317;-0.0039;
2830631748074;-0.0268;-0.0001;0.0004;
2830641858074;-0.0214;-0.0119;-0.0092;
2830651968022;-0.0225;-0.0182;-0.0230;
2830662085469;0.0073;-0.0395;0.0196;
2830672195469;-0.0300;-0.0534;0.0142;
2830682305417;0.0574;-0.0182;0.0217;
2830692415990;0.0063;-0.0119;-0.0007;
2830702525990;-0.0385;-0.0023;-0.0060;
2830712635938;-0.0150;0.0509;-0.0028;
2830722732969;-0.0427;0.0754;-0.0198;
2830732842969;-0.0193;0.0988;-0.0156;
2830742952917;-0.0300;0.1755;0.0057;
2830753073386;-0.0374;0.2149;-0.0230;
2830763183386;-0.0651;0.1286;-0.0071;
2830773293334;-0.0523;0.0222;-0.0049;
2830783402032;-0.0087;-0.0289;-0.0550;
2830793512032;-0.0449;-0.1312;-0.0284;
2830803621980;-0.0937;-0.4837;0.0302;
2830813703126;-0.0119;-0.4784;-0.0337;
2830823813126;0.1181;-0.0577;-0.0656;
2830833923126;0.1756;0.0956;-0.0624;
2830844051719;-0.1204;-0.0907;-0.0103;
2830854161719;-0.1257;-0.0140;0.0419;
2830864271667;0.0435;0.1563;-0.0017;
2830874385990;0.0222;0.1616;-0.0678;
2830884495990;-0.0459;0.1350;-0.0358;
2830894605938;-0.0300;0.1308;-0.0497;
2830904732657;0.0425;0.2852;-0.0646;
2830914842657;0.0318;0.3747;-0.0422;
2830924952657;-0.2525;-0.3431;-0.0241;
2830935048386;-0.1023;-0.4944;0.0174;
2830945158386;0.1682;-0.1397;-0.0337;
2830955268334;0.1117;-0.1738;-0.0358;
2830965369063;-0.0119;-0.2973;-0.0230;
2830975479063;0.0084;-0.1663;-0.0220;
2830985589011;0.0670;-0.0001;-0.0624;
2830995697761;0.0041;-0.0364;-0.0838;
2831005807813;-0.0768;-0.1045;-0.0635;
2831015917761;0.0212;0.0381;-0.0827;
2831026002709;0.0276;0.1201;-0.0827;
2831036112761;-0.0055;0.0084;-0.0561;
2831046222709;0.0563;0.0338;-0.0049;
2831056358230;0.1138;0.1169;-0.0443;
2831066468178;0.0489;0.0626;-0.0880;
2831076578178;0.0286;0.0722;-0.0529;
2831086691303;0.0521;0.1148;-0.0465;
2831096801303;0.0073;0.0434;-0.0390;
2831106911251;0.0286;0.0519;-0.0369;
2831117017136;0.1096;0.1201;-0.0241;
2831127127084;0.0947;0.0977;0.0111;
2831137237084;0.0712;0.0818;0.0419;
2831147353074;0.0766;0.0796;0.0387;
2831157463022;0.0457;0.0722;0.0111;
2831167572969;-0.0044;0.0605;0.0473;
2831177674688;-0.0449;-0.0587;0.0356;
2831187784688;-0.0747;-0.1386;0.0430;
2831197894636;-0.0736;-0.1056;0.0004;
2831208004844;-0.0736;-0.3410;-0.0103;
2831218114844;0.2193;-0.2494;0.0004;
2831228224792;0.7081;0.1883;0.0238;
2831238330730;0.6666;0.2213;0.0249;
2831248440730;-0.1118;-0.0374;0.0643;
2831258550678;-0.4304;-0.1546;0.1718;
2831268659897;-0.3814;-0.1141;0.1356;
2831278769792;0.0467;0.0095;0.0654;
2831288879792;0.1149;0.0573;0.0526;
2831299000157;0.0222;0.0349;0.0569;
2831309110105;0.0957;0.2373;0.0686;
2831319220001;0.2289;0.6048;0.1015;
2831329334011;-0.3292;-0.1067;0.1068;
2831339443959;-0.4634;-0.4358;0.1515;
2831349553907;0.2981;0.1819;0.0940;
2831359647657;0.6772;0.2948;0.0622;
2831369757605;-0.0566;-0.0481;0.0983;
2831379867553;-0.2631;-0.0438;0.1771;
2831390003907;0.0350;0.1286;0.1483;
2831400113855;-0.0044;0.0850;0.1398;
2831410223803;-0.2514;-0.1791;0.1387;
2831420311511;-0.1204;-0.1684;0.1515;
2831430421459;0.0819;-0.1003;0.0867;
2831440531459;-0.0321;-0.2121;0.1015;
2831450641667;-0.0854;-0.2206;0.0718;
2831460751667;-0.0449;-0.1919;0.0547;
2831470861615;-0.1172;-0.2526;0.0537;
2831480964740;-0.0715;-0.1141;0.0537;
2831491074688;0.0222;0.0999;0.0366;
2831501184636;-0.0481;0.1361;0.0622;
2831511306407;-0.2226;0.1638;0.0846;
2831521416355;-0.1917;0.2703;0.0409;
2831531526303;-0.1992;0.2064;0.0153;
2831541633803;-0.2312;0.0977;0.0270;
2831551743751;-0.1427;0.0860;-0.0230;
2831561853699;-0.0491;0.0679;-0.0134;
2831571964636;-0.0289;0.0126;-0.0156;
2831582074584;0.0798;-0.0236;0.0270;
2831592184532;0.1192;-0.0640;0.0334;
2831602294636;0.2097;-0.0598;0.0558;
2831612404584;0.2278;-0.0577;0.0867;
2831622514532;0.1607;-0.0172;0.0760;
2831632633907;0.0915;0.0286;0.0664;
2831642743855;0.0126;0.0445;0.0664;
2831652853803;-0.0843;0.0668;0.0888;
2831662970990;-0.1012;0.0690;0.0877;
2831673080938;-0.1683;-0.0193;0.0782;
2831683190886;-0.1214;-0.0374;0.1025;
2831693280782;-0.0289;0.0063;0.0929;
2831703390730;-0.0278;-0.0736;0.1132;
2831713500678;0.0041;-0.0417;0.0824;
2831723609011;-0.0150;0.0233;0.0686;
2831733718959;-0.0427;0.0169;0.0569;
2831743828907;-0.1097;0.0413;0.0334;
2831753945157;-0.1427;-0.0023;0.0441;
2831764055105;-0.1491;-0.0332;0.0696;
2831774165053;-0.0917;0.0265;0.0728;
2831784274219;-0.0214;0.0850;0.0888;
2831794384167;-0.0704;0.0338;0.0643;
2831804494115;-0.0917;-0.0055;0.0164;
2831814594272;-0.0598;-0.0097;0.0132;
2831824704219;-0.0513;-0.0662;0.0377;
2831834814219;-0.0928;-0.1216;0.0345;
2831844930990;-0.1076;-0.2121;0.0111;
2831855040938;-0.0736;-0.2142;0.0036;
2831865150886;-0.0875;-0.2760;-0.0071;
2831875269324;0.0563;-0.1567;-0.0220;
2831885379272;0.1852;0.1712;0.0004;
2831895489219;0.0595;0.3577;-0.0177;
2831905604792;-0.1832;0.3087;0.0025;
2831915714740;-0.3515;0.1968;-0.0039;
2831925824688;-0.3089;0.2245;-0.0305;
2831935931511;-0.1662;0.2746;-0.0284;
2831946041407;-0.1971;0.1318;-0.0284;
2831956151407;-0.1939;0.0031;-0.0475;
2831966254532;-0.0033;0.1222;-0.0390;
2831976364480;0.0925;0.2277;-0.0593;
2831986474428;-0.1960;-0.2164;-0.0923;
2831996584324;-0.2397;-0.4901;-0.0944;
2832006694272;0.0435;-0.2270;-0.0848;
2832016804219;0.0947;-0.1045;-0.1338;
2832026934792;-0.0555;-0.1578;-0.1391;
2832037044740;-0.1662;-0.0768;-0.1296;
2832047154688;-0.1342;0.0977;-0.1360;
2832057238074;-0.1864;0.2426;-0.1189;
2832067348022;-0.3238;0.1798;-0.1189;
2832077457969;-0.3409;0.0658;-0.1402;
2832087575574;-0.2759;0.0254;-0.1658;
2832097685522;-0.1598;-0.0864;-0.1647;
2832107795469;-0.0747;-0.2068;-0.1743;
2832117896772;0.0340;-0.1322;-0.1764;
2832128006772;0.1575;-0.1258;-0.2020;
2832138116667;0.1352;-0.2281;-0.1690;
2832148217917;0.1469;-0.2345;-0.1157;
2832158327865;0.2257;-0.1780;-0.0731;
2832168437761;0.2949;-0.1631;-0.0433;
2832178552657;0.3088;-0.0555;-0.0955;
2832188662553;0.2470;0.0732;-0.0614;
2832198772449;0.0957;0.1148;-0.0401;
2832208942344;0.0084;0.0828;-0.0294;
2832219052240;0.0510;0.1350;-0.0145;
2832229162136;0.1149;0.1616;0.0111;
2832239207344;0.1543;0.1265;0.0142;
2832249317240;0.1746;0.1180;0.0686;
2832259427188;0.1959;0.2320;0.1196;
2832269585678;0.0936;0.2607;0.0441;
2832279695574;0.0435;0.1830;0.0877;
2832289805469;0.0329;0.1606;0.0856;
2832299868699;0.0222;0.2426;0.0515;
2832309978594;-0.0204;0.1680;0.0664;
2832320088490;-0.0917;0.0732;0.0601;
2832330192969;-0.0822;0.0743;0.0632;
2832340302865;-0.0822;0.0605;0.0728;
2832350412761;-0.0736;0.0052;0.0675;
2832360534167;-0.0959;-0.0949;0.0164;
2832370644115;-0.1683;-0.2206;-0.0369;
2832380754011;-0.0907;-0.2419;-0.0348;
2832390881511;0.0222;-0.1173;-0.0987;
2832400991407;-0.0119;-0.1152;-0.0784;
2832411101303;-0.1129;-0.2196;-0.0742;
2832421186511;-0.0438;-0.1130;-0.1019;
2832431296459;0.0020;-0.0481;-0.0944;
2832441406355;-0.0332;-0.1386;-0.0593;
2832451530157;0.0766;-0.1280;-0.0614;
2832461640053;0.2023;0.0126;-0.0816;
2832471749949;0.2694;0.0988;-0.0784;
2832481875157;0.1501;0.0306;-0.0752;
2832491985053;0.0318;-0.0619;-0.0316;
2832502094949;0.0776;-0.0811;0.0079;
2832512174272;0.2555;-0.0491;0.0419;
2832522284219;0.4196;0.0370;0.0505;
2832532394115;0.4611;0.0276;0.1100;
2832542511928;0.4366;0.0265;0.1984;
2832552621876;0.3951;0.1105;0.1931;
2832562731772;0.2917;0.1020;0.2112;
2832572841928;0.0361;-0.0364;0.2602;
2832582951824;-0.0129;-0.0332;0.2485;
2832593061719;-0.0694;-0.0321;0.2410;
2832603172397;-0.1310;-0.0800;0.2165;
2832613282240;-0.1481;-0.0491;0.2154;
2832623392188;-0.2407;-0.0374;0.2122;
2832633512657;-0.3515;-0.0875;0.2272;
2832643622553;-0.3419;-0.0310;0.2027;
2832653732449;-0.3707;0.0391;0.1068;
2832663852344;-0.4847;-0.0129;0.0972;
2832673962240;-0.5028;-0.0385;0.0526;
2832684072136;-0.3856;0.0244;-0.0007;
2832694172449;-0.2237;0.1169;-0.0124;
2832704282344;-0.2802;0.1137;-0.0220;
2832714392240;-0.2812;0.0945;-0.0209;
2832724496303;-0.2258;0.0594;0.0068;
2832734606199;-0.1236;0.0073;0.0121;
2832744716094;-0.1193;-0.0108;-0.0220;
2832754822657;-0.0108;0.0180;-0.0507;
2832764932553;0.0372;0.0381;-0.0465;
2832775042449;-0.0310;-0.0214;-0.0465;
2832785136772;0.0254;0.0031;-0.0422;
2832795246667;0.0723;0.0360;-0.0305;
2832805356563;0.0244;-0.0140;-0.0049;
2832815508594;-0.0119;-0.0108;0.0419;
2832825618490;-0.0470;-0.0342;0.0771;
2832835728386;-0.0353;-0.0332;0.0611;
2832845812240;-0.0225;0.0402;-0.0071;
2832855922136;-0.0672;0.0466;0.0185;
2832866032032;-0.0937;-0.0129;0.0047;
2832876143490;-0.0896;-0.0513;-0.0017;
2832886253386;-0.0651;-0.0001;-0.0188;
2832896363282;-0.0651;0.0063;-0.0209;
2832906456980;-0.0811;-0.0108;-0.0134;
2832916566824;-0.0937;-0.0076;0.0068;
2832926676719;-0.1129;-0.0300;0.0185;
2832936786667;-0.1033;-0.0246;-0.0443;
2832946920261;-0.0980;0.0084;-0.0869;
2832957030157;-0.1257;-0.0001;-0.0614;
2832967140053;-0.1566;-0.0268;-0.1019;
2832977259428;-0.1289;-0.0012;-0.1370;
2832987369324;-0.0832;0.0402;-0.1668;
2832997479219;-0.0843;0.0276;-0.1605;
2833007586147;-0.1001;0.0126;-0.1349;
2833017696042;-0.0969;-0.0534;-0.1221;
2833027805938;-0.0481;-0.0822;-0.1178;
2833037924063;-0.0353;0.0041;-0.1754;
2833048033959;0.0276;0.0977;-0.1850;
2833058143855;0.0009;0.0711;-0.1967;
2833068239844;-0.0406;0.0105;-0.1956;
2833078349740;-0.0300;0.0169;-0.1892;
2833088459636;0.0329;0.0276;-0.1913;
2833098559740;0.0041;-0.0545;-0.1988;
2833108669636;-0.0108;-0.1226;-0.1541;
2833118779532;0.0776;-0.0949;-0.1349;
2833128947344;0.2214;-0.0438;-0.1317;
2833139057292;0.2278;-0.0630;-0.1498;
2833149167188;0.1682;-0.0651;-0.1477;
2833159231407;0.0830;-0.0332;-0.1274;
2833169341303;0.0116;-0.0193;-0.1274;
2833179451251;0.0212;0.0031;-0.1040;
2833189587344;0.0648;0.0381;-0.0944;
2833199697292;0.0563;0.0328;-0.0710;
2833209807240;0.0489;0.0690;-0.0348;
2833219894219;0.1011;0.1041;-0.0081;
2833230004167;0.0372;0.0233;-0.0411;
2833240114115;0.0648;0.0116;0.0004;
2833250229219;0.1032;0.0839;0.0132;
2833260339167;0.0766;0.0126;0.0174;
2833270449115;-0.0097;-0.0630;0.0228;
2833280538074;0.0382;0.0041;0.0473;
2833290648074;0.0158;-0.0268;0.0451;
2833300758022;-0.1672;-0.1887;0.0846;
2833310865522;-0.3973;-0.7446;0.1569;
2833320975522;0.2779;-0.3719;0.1782;
2833331085469;1.6891;0.6707;0.0601;
2833341194792;2.2013;0.7964;0.0643;
2833351304792;0.5526;0.1787;0.3092;
2833361414740;-0.4772;-0.0779;0.5414;
2833371519688;-0.5571;0.0626;0.5808;
2833381629688;-0.5017;0.1137;0.4690;
2833391739636;-0.2461;0.0956;0.3720;
2833401858126;-0.0822;0.1659;0.3518;
2833411968126;0.0116;0.2170;0.4051;
2833422078074;0.2172;0.8315;0.3912;
2833432191719;-0.1939;0.7101;0.3933;
2833442301667;-1.0800;-0.9385;0.4871;
2833452411615;-1.1290;-0.9587;0.4008;
2833462519011;-0.2471;-0.0097;0.2197;
2833472628959;-0.0055;0.0594;0.1302;
2833482738907;-0.5827;-0.3847;0.2027;
2833492849636;-0.9298;-0.2228;0.2016;
2833502959584;-0.8915;0.1616;0.1121;
2833513069532;-0.8787;0.1031;0.0473;
2833523173022;-1.0736;-0.0907;-0.0646;
2833533283022;-0.9256;0.0828;-0.2169;
2833543392969;-0.7370;0.1851;-0.2883;
2833553512449;-0.7967;0.0190;-0.3767;
2833563622397;-0.6860;-0.0129;-0.3969;
2833573732344;-0.4623;0.0615;-0.4481;
2833583839636;-0.3792;-0.0651;-0.4928;
2833593949584;-0.2951;-0.0459;-0.5214;
2833604059532;-0.0854;0.1052;-0.5374;
2833614155365;0.0585;0.0477;-0.5310;
2833624265313;0.1799;0.0423;-0.5363;
2833634375261;0.3589;0.1084;-0.5331;
2833644492292;0.4409;0.1095;-0.5268;
2833654602292;0.5238;0.1318;-0.5088;
2833664712240;0.5249;0.1009;-0.4939;
2833674833386;0.5080;-0.0076;-0.4534;
2833684943334;0.6101;-0.0587;-0.3575;
2833695053282;0.7614;-0.0704;-0.2702;
2833705136251;0.8381;-0.1205;-0.2137;
2833715246199;0.9574;-0.0726;-0.1391;
2833725356199;0.9563;-0.0672;-0.0571;
2833735486407;0.9094;-0.0790;0.0441;
2833745596355;0.8402;-0.0087;0.1345;
2833755706303;0.7273;0.0148;0.1686;
2833765810834;0.5973;0.0583;0.2197;
2833775920834;0.4355;0.1212;0.2666;
2833786030782;0.3269;0.1350;0.3326;
2833796141251;0.3216;0.1222;0.3571;
2833806251251;0.2747;0.0605;0.3901;
2833816361199;0.1597;-0.0055;0.4381;
2833826495469;-0.0204;0.0233;0.4178;
2833836605417;-0.1747;0.0137;0.4136;
2833846715365;-0.2748;0.0084;0.3859;
2833856815261;-0.3995;0.0265;0.3092;
2833866925209;-0.5039;0.0052;0.2836;
2833877035157;-0.6413;-0.0534;0.2453;
2833887141719;-0.7509;-0.1184;0.1707;
2833897251667;-0.7924;-0.1226;0.1142;
2833907361615;-0.7306;-0.1024;0.0430;
2833917478022;-0.6541;-0.0236;-0.0433;
2833927587969;-0.5923;0.1095;-0.1051;
2833937697917;-0.5667;0.1297;-0.1370;
2833947781824;-0.4996;0.0935;-0.2041;
2833957891772;-0.4218;0.1126;-0.2787;
2833968001719;-0.4027;0.0892;-0.3128;
2833978119844;-0.4495;-0.0587;-0.3746;
2833988229792;-0.3877;-0.1152;-0.4289;
2833998339740;-0.1960;-0.0076;-0.4459;
2834008443126;-0.1395;0.0338;-0.4491;
2834018553126;-0.0790;-0.0012;-0.4822;
2834028663074;0.1554;-0.0044;-0.4704;
2834038790626;0.3024;-0.0289;-0.4438;
2834048900574;0.4047;-0.0225;-0.4523;
2834059010574;0.5069;0.0052;-0.4193;
2834069101876;0.5112;-0.0236;-0.3479;
2834079211824;0.5260;-0.0172;-0.2872;
2834089321772;0.6240;0.0988;-0.2190;
2834099445053;0.6549;0.1691;-0.1690;
2834109555001;0.6506;0.0871;-0.1189;
2834119664949;0.6080;0.0169;-0.0688;
2834129761511;0.5515;-0.0289;0.0100;
2834139871459;0.3908;-0.2025;0.0537;
2834149981407;0.2747;-0.1791;0.0929;
2834160113647;0.2715;0.0391;0.1185;
2834170223542;0.2715;0.1798;0.1579;
2834180333490;0.2246;0.1904;0.1281;
2834190431094;0.2193;0.1734;0.1899;
2834200540990;0.1511;0.1105;0.2133;
2834210650990;0.1053;0.0615;0.2325;
2834220763594;-0.0108;0.0626;0.2250;
2834230873490;-0.0864;0.0466;0.2197;
2834240983490;-0.1278;0.0935;0.1824;
2834251088438;-0.1363;0.2522;0.1302;
2834261198438;-0.2620;-0.0087;0.1664;
2834271308386;-0.4218;-0.3218;0.1558;
2834281422032;-0.2727;-0.1429;0.1025;
2834291531980;-0.1491;0.0434;0.0547;
2834301641876;-0.2642;-0.0598;0.0569;
2834311745834;-0.3739;-0.0822;0.0196;
2834321855834;-0.3025;0.0445;-0.0284;
2834331965782;-0.2205;0.0988;-0.0678;
2834342085678;-0.3270;0.0573;-0.1072;
2834352195626;-0.4357;0.0063;-0.1349;
2834362305574;-0.4080;0.0041;-0.1818;
2834372411147;-0.3089;-0.0278;-0.1988;
2834382521094;-0.2663;-0.0843;-0.2105;
2834392630990;-0.1278;-0.1237;-0.2031;
2834402742136;-0.0811;-0.1226;-0.2340;
