Sensor: bmi160 Accelerometer Non-wakeup
Vendor: BOSCH
TimestampAcc [ns]; AccX [m/s^2]; AccY [m/s^2]; AccZ [m/s^2]
2802030896586;-9.0048;-2.3462;-3.2572;
2802040990336;-9.0096;-2.2792;-3.2285;
2802051117315;-9.0407;-2.2193;-3.2022;
2802061188461;-9.0646;-2.1616;-3.1687;
2802071315440;-9.0598;-2.0587;-3.1062;
2802081416690;-9.0479;-1.9965;-3.0751;
2802091531534;-9.0503;-1.9268;-3.1591;
2802101640128;-9.0933;-1.9316;-3.1854;
2802111747211;-9.0359;-1.9340;-3.2572;
2802121855336;-9.0359;-1.8933;-3.2788;
2802131964503;-9.0479;-1.8311;-3.2572;
2802142018044;-9.0383;-1.8072;-3.1663;
2802152178409;-9.0670;-1.7617;-3.1086;
2802162322992;-9.1029;-1.6875;-3.0775;
2802172386221;-9.1101;-1.7091;-3.1229;
2802182494659;-9.0622;-1.7521;-3.1711;
2802192602471;-9.0263;-1.8311;-3.2381;
2802202711534;-9.0359;-1.8598;-3.3171;
2802212820180;-9.0311;-1.8168;-3.2812;
2802222933513;-9.0359;-1.8096;-3.1902;
2802233040076;-9.0407;-1.8383;-3.1496;
2802243157888;-9.0311;-1.8479;-3.1472;
2802253265388;-9.0407;-1.8742;-3.2046;
2802263378617;-9.0335;-1.9220;-3.2955;
2802273482992;-9.0311;-1.9941;-3.3218;
2802283591846;-9.0144;-2.0731;-3.3769;
2802293697471;-8.9973;-2.0898;-3.3601;
2802303806326;-9.0120;-2.0635;-3.3147;
2802313916742;-9.0383;-2.1090;-3.2118;
2802324034555;-9.0526;-2.1688;-3.1783;
2802334134659;-9.0168;-2.2193;-3.2166;
2802344241482;-9.0072;-2.2839;-3.2764;
2802354351482;-9.0215;-2.3533;-3.2716;
2802364469971;-9.0096;-2.4610;-3.2692;
2802374583201;-9.0120;-2.5403;-3.2572;
2802384685388;-8.9925;-2.6336;-3.1998;
2802394802263;-8.9662;-2.7727;-3.1567;
2802404897888;-9.0120;-2.8612;-3.0775;
2802415039294;-9.0503;-2.9354;-3.0224;
2802425125544;-9.0215;-2.9545;-3.0009;
2802435237159;-8.9973;-2.9593;-2.9698;
2802445356742;-9.0072;-2.9737;-2.9770;
2802455455805;-9.0120;-3.0601;-2.9578;
2802465557628;-8.9973;-3.1032;-2.9339;
2802475679451;-9.0670;-3.1965;-2.8908;
2802485787576;-9.0838;-3.4146;-2.8331;
2802495901117;-9.0239;-3.7211;-2.7948;
2802506003149;-8.9901;-4.1022;-2.6249;
2802516116951;-9.0000;-4.1166;-2.4739;
2802526229555;-8.9973;-3.5919;-2.5050;
2802536339138;-9.0407;-3.0147;-2.6752;
2802546463669;-9.0096;-2.5834;-2.9243;
2802556550753;-9.0383;-2.2911;-3.2477;
2802566665909;-9.0383;-2.0444;-3.5183;
2802576782680;-9.0024;-1.8503;-3.6069;
2802586903461;-8.9638;-1.7163;-3.5758;
2802596999763;-8.9112;-1.6804;-3.5160;
2802607105076;-8.9471;-1.8718;-3.2094;
2802617216482;-8.9973;-1.6947;-3.4346;
2802627318826;-8.9734;-1.5221;-3.7842;
2802637444971;-8.9207;-1.4073;-3.8704;
2802647551899;-8.9136;-1.3352;-3.9039;
2802657662992;-8.9136;-1.1821;-3.8776;
2802667772159;-8.9136;-1.0549;-3.8058;
2802677879971;-8.9207;-0.9808;-3.7651;
2802687987471;-8.9662;-0.9903;-3.7771;
2802698095701;-8.9160;-1.1148;-3.7771;
2802708216638;-8.8442;-1.1605;-3.8489;
2802718313930;-8.8777;-1.1725;-3.9616;
2802728425492;-8.9518;-1.1629;-4.0071;
2802738532471;-8.9327;-1.0860;-3.9278;
2802748658044;-8.8777;-0.9138;-3.7771;
2802758767680;-8.8705;-0.7603;-3.7795;
2802768878930;-8.7796;-0.7316;-3.8800;
2802778956951;-8.6979;-0.7220;-3.8824;
2802789096742;-8.7556;-0.7005;-4.0310;
2802799188044;-8.8442;-0.6646;-4.1650;
2802809307211;-8.7963;-0.4920;-4.0837;
2802819431690;-8.7290;-0.2429;-3.9326;
2802829585128;-8.8394;-0.0535;-4.0358;
2802839623096;-8.9040;0.1140;-4.1387;
2802849726794;-8.7867;0.2602;-4.1602;
2802859831846;-8.7796;0.2578;-4.3831;
2802869952680;-8.8753;0.1834;-4.6035;
2802880062576;-8.9088;0.2267;-4.7016;
2802890174294;-8.7700;0.3368;-4.8359;
2802900277784;-8.6883;0.4588;-4.7351;
2802910415076;-8.8968;0.5931;-4.5317;
2802920516117;-9.0838;0.6123;-4.3304;
2802930618409;-8.9877;0.4421;-4.1315;
2802940753305;-8.8705;0.3153;-4.2706;
2802950844555;-8.7532;0.2483;-4.6346;
2802960950909;-8.3267;0.3799;-5.3414;
2802971055701;-8.1374;0.7343;-6.0817;
2802981178930;-8.1206;1.0603;-7.2003;
2802991297576;-8.5137;0.2411;-5.5762;
2803001391846;-8.9016;-0.1854;-4.4118;
2803011492680;-8.9040;-0.1759;-4.2538;
2803021605284;-8.6524;0.0111;-4.1770;
2803031722055;-8.4607;0.0685;-4.8503;
2803041825388;-8.4583;-0.0368;-5.7365;
2803051941221;-8.5304;-0.0583;-6.6709;
2803062049399;-8.3698;0.0613;-7.3032;
2803072168305;-8.5065;0.2411;-7.4423;
2803082265388;-8.6166;0.0541;-6.4217;
2803092376846;-8.8394;-0.1256;-4.9531;
2803102485180;-9.1890;0.2530;-4.7809;
2803112597992;-9.6634;0.5883;-4.7255;
2803122707888;-9.6203;0.7585;-3.7101;
2803132813096;-9.5749;0.7801;-3.4896;
2803142933409;-9.5916;0.3823;-3.9302;
2803153057419;-9.0239;-0.2500;-4.3998;
2803163154971;-8.6142;-0.7340;-4.9005;
2803173268513;-8.2406;-0.6407;-4.9890;
2803183388201;-7.5960;-0.1567;-4.5269;
2803193501742;-7.7351;0.0589;-4.8718;
2803203615284;-8.3052;-0.1352;-4.8670;
2803213693513;-8.5519;-0.0105;-4.0047;
2803223807107;-8.4440;0.4854;-3.3960;
2803233920596;-8.9518;0.7343;-3.6356;
2803244025284;-9.8073;0.3511;-4.0645;
2803254138826;-10.0804;0.0015;-4.7976;
2803264252315;-10.0490;-0.3314;-5.0539;
2803274351117;-9.6826;-0.3290;-4.4309;
2803284464659;-8.5376;0.1475;-3.5877;
2803294578201;-7.3899;0.2052;-3.4968;
2803304681534;-7.6511;-0.2142;-4.3519;
2803314795076;-8.3530;-0.4872;-4.8096;
2803324908617;-8.0082;-0.4944;-4.6896;
2803335015701;-8.4607;-0.5207;-4.9244;
2803345129242;-10.2981;-0.4753;-4.9531;
2803355242784;-10.5497;0.0350;-4.3519;
2803365349242;-9.3784;0.2483;-4.2562;
2803375462784;-8.8825;0.1307;-5.0803;
2803385576326;-8.7748;-0.0631;-4.9890;
2803395668201;-8.0489;-0.0706;-3.7914;
2803405781742;-7.4477;-0.0849;-3.2740;
2803415895284;-8.2454;0.0781;-3.9401;
2803426025388;-9.2130;0.0613;-4.6059;
2803436138982;-9.5988;-0.2261;-5.4251;
2803446252471;-9.2369;-0.6933;-6.3257;
2803456329034;-8.8059;-1.4432;-6.2252;
2803466442576;-8.4033;-2.0850;-5.3844;
2803476556117;-7.9265;-2.4108;-4.4862;
2803486658513;-7.8069;-2.2792;-4.2060;
2803496772055;-8.7748;-1.6513;-4.1865;
2803506885544;-8.0465;-1.5030;-3.5686;
2803516999659;-8.2813;-1.5532;-3.9206;
2803527113201;-9.3473;-1.7378;-4.6490;
2803537226742;-9.6467;-2.1066;-4.5174;
2803547292888;-9.9748;-2.2624;-4.6848;
2803557406482;-9.3018;-2.2241;-4.8239;
2803567519971;-8.6142;-2.3701;-4.6250;
2803577646534;-8.5041;-1.7115;-4.0884;
2803587760076;-7.3636;-0.7053;-3.1950;
2803597873617;-6.9182;-0.2644;-3.0631;
2803607975076;-7.6609;-0.4250;-4.0262;
2803618088617;-8.8896;-1.3878;-5.8445;
2803628202159;-12.1020;-2.0013;-7.2673;
2803638304242;-11.9513;-1.0549;-6.2994;
2803648417784;-9.0215;-0.7292;-4.5293;
2803658531274;-7.5075;-0.5423;-3.7579;
2803668622576;-6.4798;-0.1089;-2.4954;
2803678736117;-5.7323;-0.0464;-1.4438;
2803688849607;-7.7734;-0.9903;-2.8331;
2803698966430;-10.5760;-1.1892;-5.0515;
2803709080024;-11.0169;-0.4896;-5.9019;
2803719193513;-10.6217;-0.7651;-5.6240;
2803729261169;-9.8934;-0.5686;-4.2634;
2803739374711;-8.6859;-0.5351;-2.7589;
2803749488201;-7.8165;-0.5877;-1.8344;
2803759618096;-7.3325;-0.5710;-2.3471;
2803769731638;-8.0800;-0.7005;-3.6885;
2803779845180;-9.0670;-0.8465;-4.2084;
2803789966117;-8.7317;-1.2251;-3.8106;
2803800079659;-10.5903;-1.3926;-4.1626;
2803810193201;-11.7332;-0.7795;-2.9243;
2803820275284;-9.1843;-0.0826;-0.9144;
2803830388826;-8.1637;-0.2955;-1.3768;
2803840502315;-7.8811;0.1020;-2.6130;
2803850600076;-7.4166;-0.0682;-2.0210;
2803860713565;-8.7123;-0.2500;-3.5662;
2803870827107;-11.1174;-0.6909;-5.2887;
2803880971065;-11.0958;-0.6550;-4.3926;
2803891084607;-10.0298;-1.2419;-4.3424;
2803901198149;-10.3415;-0.6814;-5.2693;
2803911299242;-8.3100;0.6338;-3.0200;
2803921412784;-6.2139;1.7931;-0.4065;
2803931526274;-6.8557;1.9848;-1.7288;
2803941606638;-8.6189;1.2808;-4.0047;
2803951720180;-10.5042;1.5344;-4.7351;
2803961833669;-10.7845;1.7716;-4.1076;
2803971948201;-10.6122;0.9069;-3.9473;
2803982061794;-10.8156;1.1010;-4.2467;
2803992175284;-9.3640;2.2412;-2.8980;
2804002263305;-7.8835;2.2555;-1.9229;
2804012376846;-8.7075;1.5754;-2.6536;
2804022490336;-9.2369;1.5873;-3.7220;
2804032593826;-9.2898;0.9954;-4.2371;
2804042707367;-8.5831;0.0230;-4.6801;
2804052820909;-9.0814;-0.6311;-5.1162;
2804062914346;-10.0732;-0.3508;-3.7579;
2804073027888;-9.7591;0.8231;-1.5179;
2804083141378;-8.4559;1.5105;-1.1755;
2804093250284;-8.3148;0.8590;-2.5959;
2804103363826;-9.5366;-0.1974;-4.3041;
2804113477367;-10.7198;-0.1998;-4.5915;
2804123576794;-9.9820;0.5692;-3.4131;
2804133690336;-8.7700;0.8136;-3.0511;
2804143803826;-8.7437;0.6266;-3.3793;
2804153924034;-9.1531;0.8183;-3.4490;
2804164037576;-9.1436;0.8710;-4.0430;
2804174151117;-9.9820;0.2459;-4.5054;
2804184244919;-9.7735;0.2387;-3.9544;
2804194355336;-9.0335;0.3703;-4.0765;
2804204465805;-9.0335;-0.2094;-4.3519;
2804214591326;-8.1159;0.1116;-3.5997;
2804224701742;-7.8284;0.0470;-3.5495;
2804234812211;-9.2178;-0.1902;-4.3208;
2804244898878;-9.2273;0.1738;-4.2443;
2804255009294;-9.3425;0.3488;-4.4692;
2804265119815;-9.7424;0.4878;-4.6753;
2804275236899;-9.5845;0.7561;-4.2993;
2804285347315;-9.2082;0.8255;-3.8393;
2804295457784;-6.3793;0.5524;-3.4753;
2804305557055;-5.2630;-0.2094;-3.7507;
2804315667471;-10.1067;-0.5806;-6.4074;
2804325777940;-10.0250;-0.7747;-5.9186;
2804335889294;-10.6098;-1.0214;-6.4911;
2804345999711;-11.6420;-1.4408;-6.1223;
2804356110180;-8.7290;-1.0502;-2.8307;
2804366217367;-6.5037;-1.5173;-1.4103;
2804376327784;-7.9795;-0.8970;-2.5720;
2804386438253;-8.7748;0.4516;-3.1998;
2804396547836;-8.6548;0.2913;-3.7890;
2804406658253;-9.8192;0.7513;-7.0445;
2804416768721;-10.9475;1.7501;-8.4891;
2804426892471;-8.5519;1.9035;-6.5677;
2804437002888;-6.6260;1.8820;-4.9029;
2804447113305;-6.8557;2.4712;-5.0034;
2804457207732;-6.5348;2.8711;-5.3198;
2804467318201;-7.3660;3.1923;-6.0622;
2804477428617;-7.6056;3.3909;-7.2864;
2804487533774;-9.1388;2.7419;-8.3596;
2804497644190;-10.2742;2.4927;-6.8097;
2804507754659;-8.7891;2.3177;-2.9411;
2804517857159;-8.1159;2.4616;-3.7507;
2804527967576;-9.5028;1.4841;-7.2912;
2804538077992;-11.5750;0.2148;-6.9129;
2804548227159;-9.2874;0.7729;-1.9612;
2804558337576;-6.0078;0.5261;-0.0162;
2804568447992;-7.8715;0.6410;-3.2501;
2804578522524;-9.3233;0.3535;-3.4729;
2804588632992;-7.2129;-0.0033;-1.4725;
2804598743461;-6.5539;-0.9497;-2.6393;
2804608871378;-11.8959;-0.7220;-4.7809;
2804618981846;-12.0781;-0.1232;-3.2524;
2804629092263;-8.7509;-1.5485;-1.2090;
2804639176482;-9.1173;-2.2576;-4.3352;
2804649286899;-10.3029;-2.0180;-5.4873;
2804659397367;-8.4607;-2.7966;-2.3590;
2804669519451;-7.6825;-3.3356;-1.7961;
2804679629919;-8.9877;-3.7020;-4.1100;
2804689740336;-11.8744;-2.8708;-3.8010;
2804699844242;-11.1197;-1.6705;-1.9373;
2804709954711;-9.0933;-1.7019;-0.3251;
2804720065128;-11.3450;-1.9534;-1.7671;
2804730167680;-11.6181;-1.6298;-2.1482;
2804740278096;-6.8103;-3.0505;-0.7301;
2804750388513;-7.0929;-3.6900;-2.4260;
2804760492159;-8.9351;-2.9210;-4.4548;
2804770602524;-9.5749;-2.6432;-3.9087;
2804780712992;-7.8643;-2.0874;-2.2989;
2804790816274;-3.7920;-1.4216;-3.3123;
2804800926690;-7.0116;-1.9798;-5.5881;
2804811037159;-11.6181;-1.9029;-5.2478;
2804821163878;-12.7705;-3.2372;-2.6967;
2804831274346;-12.8614;-2.5642;-0.1669;
2804841384763;-8.8944;0.3272;0.6882;
2804851490544;-7.7949;-0.1184;-1.8583;
2804861601013;-13.3932;-1.8287;-5.0300;
2804871711430;-12.4517;-1.2682;-2.8140;
2804881831534;-6.9494;-0.2812;0.5755;
2804891941951;-6.0485;-0.3700;-1.0510;
2804902052367;-9.3712;0.0852;-5.3294;
2804912138253;-12.1618;-0.0081;-5.9521;
2804922248669;-9.4908;-0.0969;-3.9616;
2804932359138;-6.5109;0.1618;-3.3505;
2804942482263;-9.3425;-0.0559;-4.2754;
2804952592680;-12.4397;0.0254;-3.9350;
2804962703201;-10.6433;-0.2070;-1.7288;
2804972810649;-7.2392;0.3272;-1.5302;
2804982921065;-6.2139;0.9619;-3.8871;
2804993031534;-10.5568;-0.2955;-7.2841;
2805003147628;-12.6003;-0.6694;-6.6948;
2805013258044;-8.6955;-0.5542;-2.1290;
2805023368565;-6.4032;-0.2046;-1.5374;
2805033459659;-7.9412;0.3799;-4.3543;
2805043570024;-9.8192;0.8375;-4.2754;
2805053680492;-8.4607;0.5955;-2.1817;
2805063805596;-7.3397;0.3224;-2.8956;
2805073916013;-9.4214;0.5501;-6.0239;
2805084026482;-12.0278;1.1106;-6.7427;
2805094123096;-8.7242;1.8126;-3.7268;
2805104233513;-6.9733;1.8700;-3.6742;
2805114343982;-8.5232;2.1766;-7.5595;
2805124429503;-10.1976;3.2641;-7.8278;
2805134539919;-8.4392;3.4774;-2.8813;
2805144650388;-6.9398;3.9251;-2.7039;
2805154767055;-8.8705;4.4859;-6.3401;
2805164877419;-9.3377;4.4593;-5.8301;
2805174987888;-7.9699;3.6544;-3.2429;
2805185098305;-9.4813;3.8246;-2.9554;
2805195226169;-10.9475;3.5300;-3.4992;
2805205336586;-10.0131;2.4114;-2.3997;
2805215447107;-7.8117;1.9298;-3.0272;
2805225572888;-8.7796;1.2541;-4.9029;
2805235683305;-10.2526;-0.2094;-4.1195;
2805245793774;-8.1302;-0.2094;-2.6943;
2805255888669;-9.2970;-0.0706;-4.3376;
2805265999138;-11.7500;-0.2237;-5.7532;
2805276109555;-10.3487;0.0733;-3.5973;
2805286206013;-9.4693;1.4219;-2.3228;
2805296316378;-8.4153;1.5897;-3.0583;
2805306426899;-8.7796;1.5009;-5.4060;
2805316544399;-8.5591;1.9633;-5.4682;
2805326654815;-7.0307;0.8495;-5.0324;
2805336765284;-9.1771;0.5022;-5.6695;
2805346926846;-5.6892;1.2206;-5.5256;
2805357037263;-7.5099;0.9787;-8.6949;
2805367147784;-8.6309;0.8112;-7.3247;
2805377203513;-5.7179;-0.1161;1.8619;
2805387313982;-1.9786;2.1144;0.1493;
2805397424399;-8.4057;3.2163;-7.0684;
2805407519086;-12.4062;1.3860;-1.7961;
2805417629503;-8.3339;1.6113;3.8719;
2805427739971;-7.2057;3.4128;-4.1411;
2805437862524;-10.1689;1.6902;-11.2678;
2805447972940;-14.5502;0.0039;-13.5963;
2805458083409;-13.6113;-1.7641;-4.7450;
2805468181221;-4.5778;-3.1487;-1.2377;
2805478291586;-6.1684;-2.8110;-7.5021;
2805488402107;-11.0934;-5.2017;-1.9516;
2805498514607;-7.1025;-3.9846;-0.9670;
2805508625076;-6.9565;-3.3691;-2.2869;
2805518735544;-11.2182;-4.6747;-3.1615;
2805528868774;-14.0782;-4.0062;-2.4835;
2805538979242;-10.7031;-3.5967;-0.4232;
2805549089659;-8.3770;-4.2386;-1.3720;
2805559180649;-9.8240;-4.1309;-2.2582;
2805569291117;-11.2397;-4.1261;-2.2558;
2805579401534;-9.2731;-3.3715;-1.1946;
2805589539659;-6.3649;-3.9751;-3.1376;
2805599650128;-9.5267;-4.0469;-4.7426;
2805609760596;-10.6720;-2.4514;-2.5265;
2805619814399;-8.2430;-1.1171;-2.0091;
2805629924867;-7.3708;-0.4490;-2.5457;
2805640035336;-8.9303;0.6075;-3.1038;
2805650162003;-8.9375;0.1738;-3.6933;
2805660272419;-9.5677;0.3392;-4.3687;
2805670382888;-11.0910;0.9188;-4.9531;
2805680489555;-10.7175;1.2685;-2.7900;
2805690599971;-8.1278;2.7658;-1.9875;
2805700710388;-7.5242;1.7668;-1.9540;
2805710837524;-9.8288;1.0986;-2.3710;
2805720947940;-8.8466;1.1154;-2.5959;
2805731058461;-10.0681;-0.1519;-3.5279;
2805741168461;-11.4410;0.0302;-1.6881;
2805751278878;-9.6754;1.1967;-0.9766;
2805761389346;-7.7734;-0.2835;-2.9052;
2805771484399;-11.5463;-0.9114;-4.2969;
2805781594815;-11.5415;0.2650;-0.7947;
2805791705284;-5.1383;0.9954;0.5827;
2805801827992;-6.5659;-0.4729;-1.6307;
2805811938409;-12.0183;-0.7244;-4.3424;
2805822048826;-11.1847;0.5835;-2.6584;
2805832151169;-8.9877;-0.0706;-2.8594;
2805842261638;-9.0981;0.7513;-3.6885;
2805852372055;-9.7496;1.1704;-4.2586;
2805862474503;-8.8561;0.3153;-4.1267;
2805872584919;-8.7365;0.7657;-4.4022;
2805882695388;-7.9388;1.1752;-5.3509;
2805892804294;-9.2946;0.4301;-5.8421;
2805902914711;-9.2345;0.9906;-5.0707;
2805913025180;-7.6582;0.8686;-4.7856;
2805923134919;-6.1229;0.3440;-5.2744;
2805933245336;-8.5854;0.0398;-6.9440;
2805943355805;-11.6372;-0.6622;-7.8398;
2805953467263;-11.0408;-0.9114;-5.9210;
2805963577680;-7.5817;-0.4561;-4.2009;
2805973688149;-8.5232;-1.1195;-4.0884;
2805983804294;-10.1234;-1.3161;-3.4513;
2805993914711;-7.5529;-1.3304;-2.7398;
2806004025180;-8.4607;-2.2576;-4.9292;
2806014097471;-9.6969;-2.0539;-4.7521;
2806024207888;-7.9531;-1.9005;-5.3844;
2806034318305;-8.0871;-1.8096;-7.5069;
2806044447992;-8.5256;-2.1592;-6.0359;
2806054558409;-8.8729;-2.6432;-5.5451;
2806064668826;-8.7891;-2.5666;-5.3821;
2806074782107;-9.0742;-3.1152;-4.1411;
2806084892524;-9.2994;-2.7918;-4.7856;
2806095002992;-8.9495;-2.8181;-3.6188;
2806105104919;-7.9843;-1.3161;-4.4596;
2806115215336;-9.3616;-2.2071;-5.5857;
2806125325753;-11.8959;-2.4156;-5.8373;
2806135445388;-8.9806;-1.4910;-3.1974;
2806145555544;-5.1407;-1.3472;-4.1889;
2806155665805;-8.3602;-2.4538;-8.0578;
2806165776013;-13.0914;-2.5403;-5.5953;
2806175886169;-7.1192;0.1092;-1.8966;
2806185996430;-6.2067;-1.3280;-6.8480;
2806196102471;-11.6683;-2.1640;-7.3798;
2806206212680;-8.4993;-0.5495;-3.0583;
2806216322888;-6.2952;0.8064;-3.9975;
2806226449867;-8.6883;-1.6875;-7.8087;
2806236560076;-12.1403;-1.6466;-7.4710;
2806246670284;-8.7580;0.1881;-2.2726;
2806256753149;-6.3960;-0.3796;-2.0258;
2806266863357;-9.4214;-1.4240;-4.2132;
2806276973513;-10.5401;-0.6144;-3.5016;
2806287088513;-9.2632;0.4926;-2.6704;
2806297198721;-8.1015;0.0996;-4.3089;
2806307308930;-8.8729;-1.1462;-6.4026;
2806317418096;-10.3196;-0.9568;-4.6083;
2806327528305;-7.9002;-0.5327;-2.1840;
2806337638513;-9.1005;-0.6335;-3.6718;
2806347763878;-9.3233;-1.6947;-1.7169;
2806357874086;-7.7399;-0.7579;-1.0415;
2806367984294;-8.1829;-1.1100;-3.7507;
2806378079190;-10.7533;-2.6432;-4.7641;
2806388189451;-9.4286;-1.9678;-3.7101;
2806398299659;-8.3674;-0.3963;-3.3912;
2806408413409;-8.5950;-0.2668;-3.7316;
2806418523617;-10.5209;-2.0731;-4.2371;
2806428633826;-9.1412;-1.8024;-3.6742;
2806438734190;-9.1484;-2.0444;-2.1290;
2806448844399;-7.4764;-2.0994;-3.5590;
2806458954607;-9.6730;-2.7173;-4.9627;
2806469067888;-9.5892;-1.3878;-2.4667;
2806479178044;-7.5458;-0.4585;-3.3434;
2806489288253;-8.8657;-1.1629;-4.8000;
2806499392888;-8.7676;-1.4647;-4.1219;
2806509503149;-9.0957;-0.1041;-4.4405;
2806519613305;-10.0466;-0.9425;-3.4394;
2806529713305;-8.1709;-0.3027;-2.3734;
2806539823513;-7.1794;-0.2381;-4.7088;
2806549933721;-8.6285;0.3224;-5.6527;
2806560050492;-9.4741;-0.5471;-5.2693;
2806570160701;-10.0083;0.0182;-5.1616;
2806580270909;-8.9973;0.4014;-4.1363;
2806590399659;-8.8131;0.4998;-3.3075;
2806600509867;-8.5854;0.6793;-2.7494;
2806610620076;-9.3018;1.3119;-2.4882;
2806620708149;-8.1517;-0.8273;-2.8837;
2806630818357;-9.8958;0.5907;-5.2310;
2806640928565;-10.2359;-0.1831;-3.6694;
2806651057628;-8.4368;0.0159;-3.5830;
2806661167836;-8.1757;-0.5231;-3.2979;
2806671278044;-12.1810;0.6888;-3.4059;
2806681364034;-10.1091;0.2626;-2.5170;
2806691474242;-5.7876;1.0890;-3.2477;
2806701584451;-7.5051;0.2387;-5.9402;
2806711711221;-9.5988;0.9882;-4.3878;
2806721821430;-10.1665;1.0771;-2.1888;
2806731931638;-8.1948;0.8662;-3.1110;
2806742035388;-8.0967;0.5405;-3.0679;
2806752145596;-9.9413;0.3081;-5.7006;
2806762255805;-10.3077;0.1522;-3.1950;
2806772364971;-7.2990;-0.2309;-2.1218;
2806782475180;-8.9830;-0.1854;-3.3338;
2806792585388;-9.5148;-0.7436;-4.4094;
2806802699815;-7.7423;-0.4968;-3.1831;
2806812810024;-8.4009;-0.8441;-3.3458;
2806822920232;-8.0776;-0.1974;-3.9497;
2806833039242;-9.3664;-0.6718;-5.2214;
2806843149451;-11.9680;-1.1462;-3.7962;
2806853259659;-12.8854;-0.5853;-0.5503;
2806863357159;-9.9820;-1.1076;0.3625;
2806873467367;-6.6284;-1.2538;-1.6953;
2806883577576;-4.6208;-2.0204;-4.8024;
2806893681899;-9.6395;-2.1401;-6.7881;
2806903792107;-12.0206;-2.2457;-4.9675;
2806913902315;-7.4142;-1.1219;-3.3984;
2806924014242;-9.2608;-1.6035;-3.9544;
2806934124451;-13.3837;-1.3902;-4.6729;
2806944234659;-11.0097;-0.5949;-1.5302;
2806954349815;-5.1479;-1.3400;-0.1238;
2806964460024;-11.4362;-1.8550;-4.5174;
2806974570232;-17.0297;-1.1462;-0.8833;
2806984669399;-6.6308;2.2675;6.1499;
2806994779659;-1.6528;2.9408;1.6032;
2807004889867;-7.9002;0.5596;-6.3425;
2807014989971;-11.7930;0.0900;-5.9856;
2807025100128;-11.3330;2.5573;-3.5638;
2807035210388;-10.3173;3.7624;-2.1840;
2807045326013;-11.6635;1.2422;-1.3313;
2807055436221;-11.0886;2.1120;1.6944;
2807065546430;-5.9312;2.9767;4.2694;
2807075654138;-10.2431;2.0590;-1.0893;
2807085764346;-12.5931;2.0327;-2.8669;
2807095874555;-10.3606;1.4554;0.7792;
2807106004034;-9.7041;2.2364;-0.3754;
2807116114242;-10.0274;1.7907;-0.7178;
2807126224503;-8.3554;2.5573;-0.0736;
2807136317159;-9.3784;1.0866;-2.5959;
2807146427003;-11.1847;0.2171;-4.4668;
2807156536899;-8.6572;-0.1831;-1.8679;
2807166652263;-8.4634;-0.8345;-2.7254;
2807176762159;-9.5124;-1.7330;-1.6187;
2807186872003;-9.3425;-0.9042;-0.2868;
2807196979034;-7.7088;-0.0655;1.7375;
2807207088930;-9.0407;-2.0659;-2.3228;
2807217198826;-12.0876;-1.9989;-4.8144;
2807227297992;-10.0322;-1.4886;-3.6284;
2807237407888;-9.2489;-0.7316;-3.1205;
2807247517784;-9.6419;-2.7293;-3.6885;
2807257634763;-10.2215;-3.0024;-4.6155;
2807267744659;-6.4630;-2.0611;-2.7541;
2807277854555;-6.2521;-1.9510;-2.4595;
2807287960365;-12.2291;-2.0420;-6.6398;
2807298070261;-12.5285;-1.1557;-5.3868;
2807308180157;-7.1650;0.4902;0.7289;
2807318281459;-5.3013;1.3789;2.0512;
2807328391355;-9.2850;-0.3365;-2.0354;
2807338501251;-12.2794;-0.3003;-3.0511;
2807348636199;-9.4358;-0.3123;-3.1325;
2807358746042;-9.0335;-0.4753;-5.9282;
2807368855990;-10.9666;-1.2658;-6.6852;
2807378948907;-9.8121;-0.8827;-4.2993;
2807389058803;-7.6439;-0.2213;-1.5084;
2807399168647;-6.3697;-0.0535;-3.8536;
2807409279897;-10.0899;-2.2289;-4.8239;
2807419389792;-10.9714;-0.7077;-2.5887;
2807429499740;-9.4525;-1.3280;0.4654;
2807439608907;-6.6882;-1.9029;-1.7336;
2807449718803;-11.5463;-2.7607;-1.9301;
2807459828699;-10.6720;-0.7507;-0.3514;
2807469974376;-7.9146;-2.7221;-0.3491;
2807480084272;-9.9820;-3.0505;-3.6595;
2807490194167;-9.1795;-3.0482;-3.4920;
2807500253178;-9.0909;-1.9364;-2.6967;
2807510363126;-8.7266;-2.4829;-2.6082;
2807520472969;-6.6547;-2.1018;-3.6428;
2807530613126;-7.9050;-3.6661;-3.5542;
2807540723022;-8.3483;-2.0898;-2.4811;
2807550832917;-7.6463;-2.2337;-1.7001;
2807560919584;-10.2957;-2.4610;-4.1841;
2807571029480;-10.5377;-2.0946;-1.3385;
2807581139376;-8.9399;-0.4490;-1.7384;
2807591261824;-10.4133;-1.1291;-2.6871;
2807601371667;-9.9126;0.1451;-2.7996;
2807611481563;-9.4956;0.3942;-3.0200;
2807621581042;-8.2884;0.4807;-4.0789;
2807631690938;-7.7303;1.9250;-3.0655;
2807641800834;-10.1210;2.1120;-3.8345;
2807651928907;-10.7486;1.4171;-6.9440;
2807662038803;-10.4683;1.9801;-3.6885;
2807672148699;-10.2622;2.0088;-3.2357;
2807682256511;-10.5903;2.8905;-6.0479;
2807692366407;-7.8021;2.3297;-4.3831;
2807702476303;-6.4726;1.5272;-2.9459;
2807712583178;-9.8958;1.2470;-4.0023;
2807722693074;-11.9967;1.3406;-4.1124;
2807732802969;-13.1345;0.5812;-4.6202;
2807742904219;-11.6348;0.4349;-2.9530;
2807753014115;-10.9714;0.5285;-2.5241;
2807763124011;-9.5124;0.8255;-4.0262;
2807773239844;-8.5519;-0.4466;-0.5886;
2807783349740;-6.2785;-1.8885;0.0894;
2807793459636;-4.0292;-3.0505;0.1516;
2807803574011;-4.1800;-2.5020;-1.5829;
2807813683855;-5.9360;-2.1305;-5.2190;
2807823793803;-7.7853;-0.6479;-7.1234;
2807833904897;-10.0346;-1.7880;-8.0148;
2807844014792;-11.2612;-1.4503;-8.3716;
2807854124688;-6.7600;-2.0731;-6.6398;
2807864223178;-2.0506;-1.4767;-3.1014;
2807874333074;-0.2874;0.9212;0.2713;
2807884442969;-1.1593;1.4339;-0.3778;
2807894553178;-9.1986;0.4564;-2.7302;
2807904663022;-18.5004;-1.4288;-3.9999;
2807914772969;-23.0614;-1.2060;-4.1195;
2807924890990;-15.1490;-2.5116;1.3134;
2807935000886;-11.0192;-0.8779;2.1829;
2807945110730;-11.6563;1.0866;-1.8727;
2807955219949;-10.6241;0.5142;-2.2869;
2807965329844;-7.9747;0.6936;-3.3410;
2807975439740;-7.1001;1.3262;-4.7498;
2807985567553;-8.3052;-0.1711;-5.0133;
2807995677449;-8.0106;-2.0611;-5.9426;
2808005787344;-10.4372;-2.7078;-6.3018;
2808015875313;-12.4421;-4.3968;-4.5939;
2808025985157;-9.9245;-3.4839;-3.4872;
2808036095105;-9.2178;-1.9606;-1.4821;
2808046196355;-8.6070;-3.4457;0.5683;
2808056306303;-9.8169;-4.0038;-0.7660;
2808066416147;-11.6516;-3.9176;-2.2822;
2808076526667;-10.3125;-3.0171;-2.5839;
2808086636615;-8.5232;-1.2419;-2.8164;
2808096746511;-8.7700;-0.7723;-2.4954;
2808106875886;-7.8356;-0.4250;-2.2510;
2808116985782;-6.6954;-0.7938;-3.0751;
2808127095678;-8.0513;-0.3915;-4.5078;
2808137193803;-9.3353;0.1092;-4.9555;
2808147303647;-8.8825;-0.5518;-4.7856;
2808157413542;-8.7509;0.2961;-4.8790;
2808167523386;-8.9973;0.6003;-2.7159;
2808177633230;-8.9160;1.2613;-2.4835;
2808187743126;-7.5314;0.3990;-1.2763;
2808197844636;-9.5557;1.1130;-2.3590;
2808207954532;-11.3856;1.2206;-4.9627;
2808218064428;-12.2100;0.5213;-3.4226;
2808228181511;-9.7567;-0.9951;-2.1290;
2808238291355;-7.4261;-0.3075;-4.6801;
2808248401251;-10.4037;0.3081;-5.4658;
2808258500209;-10.7486;0.2506;-4.3639;
2808268610105;-11.6228;-0.1878;-4.5508;
2808278720001;-9.8599;0.0326;-3.1158;
2808288849688;-7.1411;-0.8827;-2.7326;
2808298959584;-8.9399;-0.5303;-2.7900;
2808309069480;-8.0034;-1.2299;-0.4376;
2808319170730;-8.5472;-1.1195;-2.5289;
2808329280626;-8.9806;-1.0932;-2.6632;
2808339390522;-9.1938;-0.5614;-1.4031;
2808349568594;-10.3534;1.1943;-1.3433;
2808359678490;-8.4634;1.6184;0.7839;
2808369788334;-9.2827;2.4592;-3.0870;
2808379829219;-11.5199;2.5286;-2.9148;
2808389939063;-11.1440;1.5897;2.0728;
2808400048959;-7.9388;2.1574;-0.1190;
2808410177136;-8.2573;0.6960;-0.6676;
2808420286980;-10.1593;-0.8225;-0.1047;
2808430396876;-8.7123;-1.3902;-0.1669;
2808440496719;-9.2731;-1.4982;-0.6269;
2808450606563;-10.8829;-3.3571;-0.6796;
2808460716459;-11.3115;-3.8865;-0.5168;
2808470824428;-10.4611;-3.0072;-2.0812;
2808480934272;-10.2215;-1.1701;-0.7059;
2808491044167;-8.4440;-1.2323;1.4668;
2808501145886;-6.9254;-0.1567;0.4582;
2808511255730;-10.0756;1.2398;-1.8918;
2808521365626;-10.1330;0.4540;-2.1505;
2808531467084;-9.1508;1.9585;-1.8081;
2808541576980;-6.8656;3.2210;-2.1075;
2808551686876;-9.1005;2.1215;-3.5160;
2808561809844;-11.2516;2.4688;-5.3868;
2808571919688;-9.9604;1.8939;-4.3304;
2808582029584;-9.7041;1.1154;-3.0081;
2808592139740;-9.3664;0.1020;-1.9038;
2808602249584;-9.8862;1.1967;-2.5193;
2808612359480;-9.4908;0.2530;-2.4715;
2808622468490;-8.3195;-0.3461;-1.9995;
2808632578334;-7.1650;-0.3242;-2.9243;
2808642688230;-10.5664;-1.3783;-3.6332;
2808652810261;-11.5965;-1.7163;-3.3099;
2808662920157;-4.4243;-3.3715;-1.5132;
2808673030001;-8.8705;-1.6513;-4.1028;
2808683124636;-11.2588;-3.4050;-4.1818;
2808693234480;-10.3678;-2.8253;-3.0607;
2808703344376;-7.8954;-1.8191;-2.0907;
2808713465053;-7.2033;-1.3113;-2.2941;
2808723574897;-9.8288;-0.5447;-2.2822;
2808733684792;-10.5999;-0.6933;-2.7063;
2808743786303;-8.1565;1.0866;-3.4633;
2808753896147;-7.7471;0.1187;-3.0440;
2808764006042;-10.4013;0.7681;-5.3366;
2808774111303;-8.3842;0.8686;-4.0549;
2808784221147;-8.2095;0.8064;-3.4418;
2808794331042;-10.5473;1.7477;-4.3089;
2808804444532;-8.4153;0.7729;-2.9363;
2808814554376;-7.8212;0.1905;-2.6082;
2808824664272;-9.6993;1.9250;-2.1721;
2808834774063;-9.4645;0.6697;-1.2233;
2808844883907;-8.5496;0.9141;-2.1482;
2808854993803;-8.7676;1.2398;-3.0870;
2808865105001;-8.6812;0.2315;-2.6512;
2808875214897;-9.7591;0.8207;-3.2453;
2808885324792;-9.6036;0.5261;-1.8535;
2808895424376;-8.6166;-0.1280;-1.4749;
2808905534272;-11.2851;-1.3208;-1.1946;
2808915644167;-11.2732;-1.9487;-0.1406;
2808925765261;-10.3244;-2.1879;-0.2294;
2808935875105;-7.8715;-2.6886;-0.1143;
2808945985001;-10.0035;-1.6274;-1.5227;
2808956086980;-10.6098;-1.1916;-2.8355;
2808966196824;-8.2119;-1.1414;-2.1003;
2808976306719;-8.6716;-0.8874;-1.4246;
2808986433803;-10.6074;-1.9606;-2.0931;
2808996543647;-10.2335;-1.7498;-1.1133;
2809006653542;-7.5171;-1.6780;-0.7708;
2809016751303;-7.2009;-1.1267;-2.5887;
2809026861147;-11.4793;-1.3184;-2.6752;
2809036971042;-10.5449;-2.6934;-0.4953;
2809047080990;-7.5529;-0.6144;-1.3481;
2809057190834;-8.9495;-0.3676;-3.2620;
2809067300730;-9.1843;-1.6202;-2.3877;
2809077409740;-9.4190;-0.6455;-1.6570;
2809087519584;-8.2693;-1.0095;-2.7374;
2809097629480;-9.4095;-1.1052;-3.8465;
2809107734636;-10.1306;-0.5806;-1.8392;
2809117844480;-9.9126;-2.4634;-1.7886;
2809127954376;-7.5290;-1.2395;-1.9397;
2809138062917;-8.2860;-1.2562;-2.3157;
2809148172761;-12.6601;-2.2337;-2.3109;
2809158282553;-9.1101;-2.7365;-0.7732;
2809168398386;-9.1986;-1.8837;-2.2223;
2809178508178;-10.5162;-1.2323;-2.4308;
2809188617969;-10.6361;-2.4179;-2.0210;
2809198714428;-9.3329;-1.9125;-3.3840;
2809208824219;-9.6251;-0.6144;-2.9650;
2809218934011;-9.1029;-1.9388;-1.9947;
2809229043282;-9.8599;-0.6694;-2.7111;
2809239153126;-6.2904;-0.7125;-2.9650;
2809249262917;-4.3908;-1.7450;-4.5006;
2809259387449;-9.6347;-1.0334;-6.1869;
2809269497240;-13.3525;0.4181;-5.9737;
2809279607032;-10.8156;-0.4633;-3.5662;
2809289711928;-4.6472;-0.7914;-2.3853;
2809299821719;-9.8288;2.7179;-6.9057;
2809309931511;-13.2302;2.2723;-4.4839;
2809320065469;-12.4564;1.1106;-0.2246;
2809330175261;-7.2153;1.3310;-2.1434;
2809340285053;-5.2893;0.1953;-2.0668;
2809350381928;-10.9283;0.3846;-2.7733;
2809360491719;-7.9364;-1.2227;-2.2032;
2809370601511;-6.9685;-1.1892;-3.0081;
2809380720053;-8.4272;0.2243;-3.7651;
2809390829844;-8.3195;-0.9281;-2.1649;
2809400939636;-8.9925;-1.9534;-1.4318;
2809411026303;-8.5735;-1.8814;-1.8966;
2809421136094;-8.1613;-1.1124;-0.3347;
2809431245886;-12.9188;-1.7306;1.2296;
2809441359428;-33.1107;-0.4226;5.9438;
2809451469219;-34.8736;2.5502;11.9997;
2809461579011;7.6705;0.5740;8.6486;
2809471698282;20.1652;1.9896;-1.7456;
2809481808074;-1.4587;-1.8885;-10.6810;
2809491917865;-9.4334;-8.5026;-2.5911;
2809502027657;-5.1742;-10.1411;-3.1831;
2809512137449;-8.5878;-4.8159;-12.4367;
2809522247240;-7.3899;-1.3161;-6.5533;
2809532355678;-2.9297;0.2267;0.3455;
2809542465469;-0.6419;1.8820;-0.6628;
2809552575261;-10.4181;0.9954;-0.1813;
2809562684844;-22.8147;1.6878;0.0823;
2809572794636;-27.8860;0.3583;7.8314;
2809582904428;-35.7912;1.7022;13.4345;
2809593025574;-27.8285;3.1493;12.4334;
2809603135365;-5.0928;0.6625;4.2072;
2809613245157;-7.5793;-1.5197;4.0801;
2809623348803;-19.3292;-3.5584;6.1738;
2809633458594;-40.5895;0.2794;1.4067;
2809643568386;-25.1815;5.6309;9.7840;
2809653659011;13.7477;2.2149;10.7468;
2809663768855;7.4285;0.7008;-0.7923;
2809673878647;-16.2464;-1.9316;-10.5491;
2809684008699;-11.8552;-3.4409;-9.0159;
2809694118490;3.5237;-0.8656;-21.9948;
2809704228282;-2.5726;-0.7938;-24.8982;
2809714337657;-13.1249;-3.0529;-11.4930;
2809724447449;-0.1774;-2.0539;0.0508;
2809734557240;10.8326;-2.3868;6.7008;
2809744668907;0.3906;-1.4958;7.2111;
2809754778699;-35.7216;2.1622;17.7224;
2809764888490;-45.6174;2.4879;22.5206;
2809775003074;-11.6635;4.7542;21.7253;
2809785112813;14.8546;-1.9869;25.5392;
2809795222657;-2.7476;-3.1032;-19.1154;
2809805322657;-23.6842;3.6664;-30.9948;
2809815432449;-2.1176;-4.5093;-2.2869;
2809825542240;10.7198;-3.2444;-14.3988;
2809835665157;-4.8078;4.3110;-44.2011;
2809845774949;-20.9151;2.0016;-33.9509;
2809855884740;-22.8290;4.6845;-20.4568;
2809866001407;-4.1922;8.0073;-7.1907;
2809876111199;6.7528;10.7357;-3.2548;
2809886220990;-18.8429;5.3722;-1.8703;
2809896306303;-22.0265;-0.9497;8.0279;
2809906416094;-8.5065;-1.9798;9.2689;
2809916525886;-5.4162;-3.9009;8.9264;
2809926647761;-3.5070;-7.9469;5.9175;
2809936757553;-9.5749;-7.5179;-1.9038;
2809946867344;-12.4854;-6.2653;-3.3553;
2809956966980;-8.1254;-4.1572;-4.9077;
2809967076772;-8.7242;-0.9712;-4.7231;
2809977186563;-9.7663;-0.9520;8.6845;
2809987290678;2.7404;-1.7856;22.0056;
2809997400522;17.5137;-2.3174;1.2559;
2810007510313;-12.2554;-1.3711;-55.7809;
2810017620626;-37.5063;3.0245;-30.9156;
2810027730469;-21.9093;7.8275;17.1930;
2810037840261;-0.7690;9.2623;5.8002;
2810047952813;1.3391;2.1766;13.1064;
2810058062657;-18.5196;-7.1468;8.3536;
2810068172449;-24.4316;-9.8680;11.7841;
2810078276772;-7.0020;-7.2736;12.5913;
2810088386615;-3.4974;-6.5791;-3.6523;
2810098496407;-13.5320;-5.3142;-4.7016;
2810108611928;-11.0192;-3.6733;0.6954;
2810118721719;-6.4152;-0.4155;-3.0129;
2810128831511;-10.1426;-1.1892;-5.1377;
2810138933594;-9.3760;-1.8646;-3.2309;
2810149043386;-6.1421;-0.6215;-5.1520;
2810159153126;-12.9332;-1.7282;-4.3424;
2810169259897;-10.4181;-2.5714;0.0341;
2810179369740;-6.9996;-1.6059;-2.0139;
2810189479532;-10.4611;-2.7894;0.4630;
2810199634011;-10.4516;-2.5379;2.4368;
2810209743803;-9.4597;-1.9172;-1.3289;
2810219853647;-10.0490;-2.8158;-0.8354;
2810229961615;-9.0168;-1.5293;0.9015;
2810240071407;-8.9112;-0.8560;-3.4322;
2810250181199;-9.4502;-0.6718;-4.2706;
2810260255105;-7.5577;-0.5518;-1.8607;
2810270364949;-5.0785;-0.1974;-4.4309;
2810280474740;-7.6008;-1.0143;-6.4720;
2810290591094;-8.1517;-0.1376;-5.7317;
2810300700886;-8.4488;0.3966;-7.0804;
2810310810678;-9.8551;-0.6598;-6.3787;
2810320923699;-7.9675;-0.6502;-1.8846;
2810331033490;-6.3529;-0.3652;-3.8680;
2810341143282;-10.2455;-0.9784;-5.5953;
2810351256563;-10.0923;0.4711;-2.2750;
2810361366355;-5.3659;0.8279;-2.1027;
2810371476147;-8.2741;0.1092;-6.7881;
2810381576459;-10.8972;0.6793;-6.3547;
2810391686303;-8.3100;2.4425;-6.2755;
2810401796094;-5.9025;1.4411;-5.6886;
2810411926407;-9.0550;0.8088;-8.6853;
2810422036199;-10.9546;1.2760;-8.5298;
2810432145990;-9.4238;1.3502;-6.8288;
2810442256094;-7.4381;0.2435;-4.8431;
2810452365886;-7.1315;-1.3878;-4.4596;
2810462475678;-12.8303;-1.9606;-4.3783;
2810472580053;-11.6539;-1.6202;-2.3252;
2810482689844;-6.4917;-1.5724;-1.4174;
2810492799636;-6.9948;-1.6394;-2.8693;
2810502893855;-7.3253;-0.9784;-3.6212;
2810513003699;-9.9461;-0.2189;-6.2707;
2810523113490;-10.0657;-0.3939;-6.4146;
2810533242397;-9.8767;0.1116;-5.1497;
2810543352188;-9.1914;-0.7436;-2.7972;
2810553461980;-8.0560;-0.4059;-2.4595;
2810563559063;-10.1976;-1.2634;-0.8043;
2810573668855;-8.0728;-0.0153;-0.8282;
2810583778647;-7.6534;-0.6957;-0.7612;
2810593902136;-9.3879;-0.7603;-2.9841;
2810604011928;-7.4788;-0.1113;-4.1698;
2810614121719;-8.5711;-0.6311;-4.5867;
2810624215105;-8.5663;-0.0272;-5.7676;
2810634324949;-8.5232;0.1905;-5.2549;
2810644434740;-9.2584;0.7585;-4.6394;
2810654565574;-8.7003;0.6553;-2.3037;
2810664675365;-7.0953;0.0637;-2.2702;
2810674785157;-8.0154;-0.8225;-3.3171;
2810684871303;-11.3498;-0.0754;-3.5303;
2810694981147;-9.4095;0.3272;-2.7494;
2810705090938;-8.0943;0.1881;-4.8646;
2810715207240;-10.5832;-0.1208;-3.9760;
2810725317032;-11.1607;0.3057;-3.2883;
2810735426824;-8.8226;0.4205;-4.6872;
2810745531094;-9.1531;-0.0248;-3.5997;
2810755640886;-8.9447;0.3799;-4.3376;
2810765750678;-10.5185;0.5094;-4.2802;
2810775877553;-10.4276;0.9284;-1.9158;
2810785987344;-7.4022;0.6362;-2.5720;
2810796097136;-10.8586;-0.6215;-4.3854;
2810806196303;-11.8911;-0.3867;-3.1229;
2810816306094;-9.3951;-0.1519;-4.1530;
2810826415886;-10.1904;-1.0047;-2.8693;
2810836535469;-6.1732;-0.5877;-2.0859;
2810846645261;-8.4200;-0.3843;-4.3280;
2810856755053;-8.9590;-1.4551;-3.6332;
2810866879219;-7.6872;-0.2620;-4.4118;
2810876989011;-6.4893;-0.5016;-4.0143;
2810887098803;-6.7648;-1.3184;-6.2515;
2810897185990;-8.9901;-1.7785;-4.9005;
2810907295782;-8.5065;-1.8981;-5.5161;
2810917405574;-7.9771;-2.2098;-3.2692;
2810927520469;-6.8943;-1.7019;-4.3711;
2810937630261;-11.0647;-2.2863;-3.4992;
2810947740053;-12.9667;-1.9606;-2.8618;
2810957848699;-9.6084;-1.6394;-1.2018;
2810967958490;-7.6176;-0.6598;-3.2046;
2810978068282;-11.5750;-0.9999;-3.1400;
2810988177344;-10.8610;-1.2371;-3.1086;
2810998287136;-10.1545;-1.4432;-2.7781;
2811008396928;-7.6511;-0.9784;-4.4166;
2811018508178;-8.0847;-0.8058;-5.4538;
2811028617969;-11.4290;-1.1844;-6.3090;
2811038727761;-10.1258;-1.4312;-4.0765;
2811048827553;-7.5482;-0.8273;-5.5475;
2811058937344;-11.0839;-1.6035;-2.8860;
2811069047136;-9.5462;-1.8933;-1.3122;
2811079171042;-7.8715;-1.6298;-1.0056;
2811089280834;-11.5032;-2.8062;-1.5012;
2811099390626;-9.1555;-2.6838;-1.5084;
2811109529844;-5.7323;-3.1630;-1.7432;
2811119639636;-11.8050;-3.5608;-1.6259;
2811129749428;-13.6496;-3.1822;-3.5949;
2811139836199;-9.5291;-2.2552;-2.5098;
2811149946251;-6.2665;-1.7115;-1.5278;
2811160056303;-6.2210;-1.3041;-5.3414;
2811170165678;-11.6587;-1.9316;-7.0971;
2811180275730;-11.3569;-1.8191;-5.8756;
2811190385782;-7.3899;-1.5628;-4.9627;
2811200494949;-8.9255;-1.8837;-3.6957;
2811210605001;-9.5486;-1.6035;-3.0057;
2811220715053;-8.4969;-1.7234;-3.2477;
2811230820469;-9.1819;-2.4805;-2.1075;
2811240930522;-7.6128;-2.0420;-2.4595;
2811251040574;-9.4693;-1.0956;-3.9087;
2811261141303;-10.3846;-1.2156;-3.8943;
2811271251355;-9.6730;-0.6120;-3.8560;
2811281361407;-7.3086;-0.5638;-4.1626;
2811291467449;-7.3612;-0.7292;-5.0563;
2811301577449;-9.2297;-0.6957;-4.9651;
2811311687553;-8.5591;0.2148;-6.5892;
2811321804636;-10.0756;0.3751;-5.5232;
2811331914688;-7.6582;0.4469;1.0786;
2811342024740;-2.2660;2.1814;-5.1592;
2811352134428;-10.0756;0.8590;-8.4867;
2811362244480;-17.1398;0.5046;-3.7914;
2811372354532;-10.0298;1.5610;-1.5852;
2811382462761;-5.1359;2.0375;-0.9622;
2811392572813;-7.4524;0.7104;-1.4127;
2811402682865;-13.9633;-0.0631;-2.1170;
2811412807136;-11.4386;0.4878;-1.0487;
2811422917188;-4.6854;1.7381;-2.9985;
2811433027240;-9.6347;-0.3194;-4.2538;
2811443123386;-13.3956;-0.1878;-3.0751;
2811453233438;-8.8944;0.4325;-1.2811;
2811463343490;-7.3205;0.4636;-2.4643;
2811473463074;-8.4535;-0.2429;-4.0884;
2811483573126;-12.2148;-0.2046;-2.4595;
2811493683178;-11.9632;-0.1256;-1.9851;
2811503774532;-8.5519;-0.1711;-0.3754;
2811513884584;-6.4822;-1.1267;-1.3959;
2811523994636;-8.4634;-2.1568;-3.3888;
2811534113647;-11.9776;-2.7511;-2.8908;
2811544223699;-9.0000;-2.5403;-3.2309;
2811554333751;-5.9527;-1.7713;-4.1291;
2811564439428;-7.8787;-1.5221;-4.3041;
2811574549480;-9.6682;-1.0214;-5.8349;
2811584659532;-10.1186;-0.7842;-5.2190;
2811594778594;-9.8647;-1.2514;-3.4250;
2811604888594;-7.1746;-0.0849;-3.7914;
2811614998699;-10.2838;0.2387;-5.2238;
2811625100001;-11.7308;-0.0730;-1.9660;
2811635210105;-8.6453;0.8327;-2.3638;
2811645320157;-5.7658;0.7199;-3.7627;
2811655439272;-8.8011;-0.5901;-6.2204;
2811665549272;-11.5917;-0.6814;-5.8229;
2811675659324;-9.7854;-0.0105;-3.8512;
2811685770365;-6.3673;-0.3891;-4.3591;
2811695880417;-10.0418;0.2913;-6.8025;
2811705990469;-13.1225;-0.4537;-4.5556;
2811716089219;-9.6036;0.0015;-2.5504;
2811726199272;-8.3195;-0.2644;-1.4079;
2811736309324;-9.7639;-0.3099;-1.4270;
2811746420886;-9.8839;-0.8584;-1.2715;
2811756530938;-9.6132;-0.7220;-3.4896;
2811766641042;-9.6275;-1.0143;-4.1794;
2811776751511;-5.2582;-1.1219;-4.6944;
2811786861563;-6.9781;-1.3663;-6.3882;
2811796971615;-11.4936;-2.5738;-6.0263;
2811807086042;-10.8757;-2.1018;-4.6848;
2811817196147;-10.2431;-1.6442;-4.1985;
2811827306199;-11.0527;-1.7689;-2.6680;
2811837416303;-11.5319;-1.6609;-0.5145;
2811847526355;-9.9844;-2.0468;0.2809;
2811857636407;-9.2946;-1.8407;-1.3409;
2811867736980;-10.2383;-0.9497;-3.2285;
2811877847032;-9.9772;-1.1964;-2.8140;
2811887957084;-7.7590;-1.1533;-3.4059;
2811898066824;-8.0776;-2.1018;-5.7820;
2811908176876;-12.4950;-1.5126;-6.2874;
2811918286928;-11.7260;-1.7593;-4.8096;
2811928388699;-10.2957;-0.2692;-3.7364;
2811938498751;-7.3229;-0.5877;-2.1482;
2811948608803;-8.2597;-0.1304;-1.5422;
2811958724376;-8.7676;-0.3700;0.4319;
2811968834428;-6.5396;-1.2443;-1.4940;
2811978944532;-10.3053;-0.8994;-5.7413;
2811989069272;-14.0952;-0.5614;-5.9641;
2811999179324;-12.6553;-0.0754;-5.5570;
2812009289428;-8.2430;0.4950;-5.4036;
2812019381407;-9.6299;0.1044;-4.0645;
2812029491511;-8.2478;0.7968;-2.4141;
2812039601563;-5.5047;-0.1759;-3.0320;
2812049697032;-7.4405;-0.8680;-5.1760;
2812059807084;-10.9522;-0.7484;-5.5113;
2812069917136;-9.5486;-0.7699;-5.4491;
2812080069324;-8.4248;0.8112;-6.0526;
2812090179376;-10.5808;0.6721;-6.8240;
2812100289428;-14.5310;0.7295;-6.6757;
2812110387136;-10.8108;1.1489;-3.4705;
2812120497188;-10.5425;-0.3051;-0.9502;
2812130607240;-9.2850;-1.3113;-0.8856;
2812140694688;-6.7552;-2.2361;-2.5648;
2812150804480;-11.2373;-3.5632;-4.5102;
2812160914219;-10.4324;-4.7560;-5.0180;
2812171036615;-8.2478;-4.9765;-8.0100;
2812181146355;-11.2636;-5.7263;-9.9048;
2812191256094;-12.4421;-5.8579;-5.8205;
2812201365053;-5.4712;-5.5107;-0.4594;
2812211474792;-3.2985;-5.5968;-0.7756;
2812221584532;-6.8967;-6.1908;-1.6977;
2812231690365;-10.1593;-5.3381;-0.5432;
2812241800105;-8.7509;-3.3093;-0.3682;
2812251909844;-8.6070;-2.1473;-4.0789;
2812262025261;-10.7773;-1.0813;-6.4863;
2812272135001;-10.8132;-0.2692;-4.4453;
2812282244740;-7.3158;2.2172;-4.1291;
2812292353178;-7.7782;2.8161;-3.0990;
2812302462917;-7.0331;2.9623;-1.4438;
2812312572657;-6.5228;3.9323;-1.6905;
2812322686094;-5.8929;5.1422;-2.5098;
2812332795834;-8.6644;5.3530;-3.6933;
2812342905574;-12.4854;5.3602;-3.8752;
2812353018907;-12.2315;5.9710;-1.8703;
2812363128647;-12.0829;5.4607;-1.3385;
2812373238386;-13.9250;5.0871;-2.2367;
2812383340782;-14.5908;4.7324;0.4822;
2812393450522;-9.5533;5.2642;1.2392;
2812403560261;-6.4534;3.3096;-1.2787;
2812413656355;-12.7657;3.3120;-5.1305;
2812423766094;-13.4435;3.8701;-4.2969;
2812433875886;-5.3611;2.4999;-3.8847;
2812444001303;-6.4271;1.0842;-5.2549;
2812454111042;-10.2933;0.9667;-4.3472;
2812464220782;-7.5888;0.8327;-4.3280;
2812474337397;-5.9767;-0.1041;-4.0262;
2812484447136;-6.7074;-0.9257;-3.9278;
2812494556876;-7.4620;-1.4599;-2.4571;
2812504650261;-6.5396;-2.2385;-3.0440;
2812514760001;-7.3612;-2.7317;-3.8680;
2812524869740;-9.1005;-2.2552;-4.7713;
2812535000365;-11.0934;-1.2179;-5.3342;
2812545110105;-12.6912;-1.0980;-4.0478;
2812555219844;-12.2387;0.0781;-1.9947;
2812565320730;-9.9652;-0.3987;-1.5326;
2812575430469;-8.2406;-0.9162;-0.1406;
2812585540209;-9.5892;-0.7651;-1.5422;
2812595649115;-10.5544;-0.8297;-1.6451;
2812605758855;-8.6453;-0.7125;-1.8990;
2812615868594;-8.0082;0.0565;-3.9377;
2812626021303;-9.0144;-0.0849;-4.5891;
2812636131042;-9.3951;-0.2357;-3.5853;
2812646240834;-7.5960;-0.8058;-2.5241;
2812656328751;-8.9423;-1.5365;-2.3542;
2812666438438;-9.7089;-2.4371;-1.2811;
2812676548230;-9.3425;-2.0898;-0.4328;
2812686633022;-7.7303;-1.3639;-2.8837;
2812696742813;-8.9207;-1.7186;-2.8499;
2812706852553;-9.4860;-0.8010;-4.5532;
2812716969949;-9.3185;-1.5843;-6.9272;
2812727079688;-9.4980;-1.4623;-7.8709;
2812737189428;-10.1426;-0.9497;-7.2147;
2812747293907;-8.3578;-0.6861;-3.6814;
2812757403647;-5.4592;-0.4513;-2.6154;
2812767513438;-8.9375;-0.8249;-3.7340;
2812777631407;-13.3837;-0.8608;-1.1444;
2812787741147;-10.6337;-0.1089;0.4534;
2812797850886;-5.9097;-0.4585;-0.8282;
2812807966303;-17.8056;-1.1653;-1.5685;
2812818076042;-18.3302;-0.9473;1.7088;
2812828185834;-5.6749;-0.8082;-0.7995;
2812838278126;-4.0579;-0.8034;-5.6145;
2812848387917;-6.0054;-1.4288;-5.8923;
2812858497657;-9.1077;-3.2492;-7.0493;
2812868615261;-7.5362;-2.4491;-8.4075;
2812878725001;-6.5348;-2.1066;-9.7944;
2812888834792;-8.5807;-2.2959;-7.4495;
2812898934324;-7.2942;-1.6226;-4.6513;
2812909044063;-6.8847;-1.8694;-2.8741;
2812919153803;-8.4873;-1.2108;-1.8320;
2812929283490;-10.2861;-0.7914;-0.2509;
2812939393230;-9.5629;-1.0669;-1.4605;
2812949503022;-11.4386;-1.5939;-2.4667;
2812959598490;-12.8495;-1.1004;-0.8450;
2812969708230;-7.2655;-0.3338;-1.8870;
2812979817969;-7.7471;-1.5078;-12.6165;
2812989941094;-17.5445;-1.4958;-9.1693;
2813000050834;-9.8910;0.9571;1.5912;
2813010160626;-4.2449;-0.9042;-0.4618;
2813020281407;-6.9302;-1.9678;-2.0186;
2813030391147;-10.8203;-0.4202;-0.7923;
2813040500886;-10.7510;-0.2477;-1.6738;
2813050596407;-7.9316;-0.7914;-3.3769;
2813060706147;-7.1169;-0.9712;-5.2549;
2813070815886;-10.0490;-0.2094;-4.3950;
2813080924011;-8.9590;-0.9520;-2.7876;
2813091033751;-8.1975;-1.2586;-4.5245;
2813101143542;-8.3459;-0.6479;-4.1770;
2813111256980;-6.7313;-0.2692;-4.7545;
2813121366719;-6.5228;-1.0956;-7.4061;
2813131476459;-7.1387;-0.6885;-5.7293;
2813141573438;-5.1503;-0.2644;-5.9019;
2813151683334;-4.7480;-0.7053;-6.5653;
2813161793178;0.5964;-1.9702;-5.4323;
2813171924324;-32.1906;0.9787;-4.1554;
2813182034167;-49.9292;5.1111;12.7567;
2813192144011;-3.2148;5.9590;18.4412;
2813202240157;17.5926;-0.5638;1.9409;
2813212350001;-0.8216;-3.4385;-18.2961;
2813222459844;-13.5344;-1.5197;-9.9885;
2813232581719;-13.0938;1.4171;2.5687;
2813242691563;-9.7041;3.6520;-5.3103;
2813252801407;-7.3708;-0.9903;-10.7121;
2813262908386;-6.3024;-0.8034;-5.5714;
2813273018230;-6.6978;-0.4466;-3.6045;
2813283128074;-7.9241;-1.2586;-3.1543;
2813293235574;-7.9388;-1.5820;-0.5121;
2813303345417;-8.9686;-0.9281;0.1708;
2813313455313;-10.6074;-1.5724;2.5041;
2813323564844;1.3893;-1.1916;5.0336;
2813333674688;-0.8982;-2.8277;-31.3517;
2813343784532;-31.7163;-3.9535;-41.1422;
2813353893803;-21.1834;2.9910;15.5282;
2813364003647;2.0411;6.2608;16.9080;
2813374113490;-1.8805;1.7859;2.4272;
2813384220990;-10.4037;1.0340;5.3928;
2813394330834;-14.4449;2.5765;4.7342;
2813404440678;-10.9977;2.8089;1.0283;
2813414553178;-8.3052;1.9848;-7.4207;
2813424663022;-9.8288;-0.2620;-11.0545;
2813434772865;-8.6620;-1.1581;-6.0622;
2813444900678;-8.7963;-1.8096;-2.2080;
2813455010522;-11.1847;-1.2826;-2.7709;
2813465120417;-8.8179;-1.5963;-1.2715;
2813475212761;-8.2621;-1.4791;-0.2318;
2813485322605;-9.7256;-1.0597;-1.4653;
2813495432449;-8.2047;-1.2969;-0.9096;
2813505550678;-8.0847;-1.3615;-3.0248;
2813515660574;-9.3090;-1.0645;-4.4429;
2813525770417;-8.6477;-0.0945;-5.7843;
2813535882449;-8.7867;-0.3194;-6.8937;
2813545992292;-8.9088;0.1834;-3.1831;
2813556102136;-9.3425;0.6912;-1.8200;
2813566197969;-9.2130;0.6458;-2.5839;
2813576307813;-9.8862;0.0015;-0.8593;
2813586417657;-10.2718;0.2554;-0.2773;
2813596539897;-10.2933;-0.6694;-1.7671;
2813606649740;-9.5940;-0.1113;-3.1086;
2813616759636;-10.9475;-0.3290;-2.9841;
2813626889376;-10.5353;-0.6072;-1.7216;
2813636999219;-7.1889;-1.8861;-1.0965;
2813647109115;-10.8586;-1.2395;-2.9411;
2813657142553;-10.9570;-1.2873;-1.7910;
2813667252397;-6.7241;-1.8550;-0.4065;
2813677362292;-8.2908;-1.5987;-3.2524;
2813687525990;-10.2957;-0.7555;-4.7016;
2813697635834;-9.8862;-1.7402;-2.4380;
2813707745678;-7.8045;-2.8038;-0.9215;
2813717845782;-10.1234;-2.5427;-2.6776;
2813727955626;-10.5520;-1.3902;-3.8154;
2813738065469;-8.4897;-1.9292;-2.1123;
2813748183907;-6.3984;-1.7234;-2.2175;
2813758293751;-8.6046;-1.5915;-4.4743;
2813768403647;-11.3761;-1.9845;-3.0583;
2813778500001;-12.8160;-1.6202;-1.0367;
2813788609897;-12.8064;-1.2443;-0.4714;
2813798719740;-10.5568;-0.5686;1.7183;
2813808825990;-6.4439;-0.7579;-0.6341;
2813818935782;-8.9925;0.2459;-2.7494;
2813829045730;-9.9867;0.0805;-3.4274;
2813839173647;-8.4105;-1.9292;-3.1878;
2813849283490;-8.9447;-1.3615;-2.8594;
2813859393386;-9.9652;-2.2887;-2.4571;
2813869533386;-12.3631;-1.8646;-0.7469;
2813879643230;-9.3568;-0.9736;-1.8990;
2813889753074;-5.4018;-0.9999;-3.5040;
2813899826824;-10.2598;-1.0167;-2.6058;
2813909936667;-10.0732;-1.8024;0.0102;
2813920046511;-8.1999;-1.5987;-0.4137;
2813930163803;-7.8356;0.4277;-4.4309;
2813940273647;-9.5390;0.0015;-5.5017;
2813950383490;-10.4204;-0.8010;-4.3974;
2813960499740;-8.4057;0.0135;-3.0272;
2813970609584;-10.4827;0.0039;-2.7852;
2813980719428;-10.0131;0.5070;-1.4294;
2813990817449;-12.4660;0.4134;-0.4113;
2814000927292;-11.2828;0.5644;0.7672;
2814011037136;-4.4868;0.9356;0.1588;
2814021129480;-6.5396;0.5548;-3.2022;
2814031239376;-9.7926;1.0484;-4.9603;
2814041349219;-13.2063;1.2784;-4.2443;
2814051483907;-12.1235;0.5907;-1.6379;
2814061593751;-8.7242;0.7199;-1.3313;
2814071703594;-9.9030;-1.1004;-1.2449;
2814081817553;-10.5185;-0.6718;0.1325;
2814091927397;-6.5731;-0.4633;-0.5432;
2814102037292;-9.3975;-0.5782;-2.0019;
2814112135157;-12.3200;-0.5064;-2.3447;
2814122244949;-7.2248;0.2961;-2.4308;
2814132329584;-11.5056;-0.5877;-4.4046;
2814142439428;-12.7152;0.1977;-3.8752;
2814152549324;-4.8556;-0.6431;-3.3362;
2814162691303;-9.4884;-0.4537;-5.9665;
2814172801147;-9.2178;-0.2429;-3.6236;
2814182910990;-6.2139;-0.8632;-0.7851;
2814193020990;-7.8787;0.2746;-2.4356;
2814203130834;-12.4517;0.5812;-3.4155;
2814213240730;-9.7687;-0.0464;-3.6790;
2814223353178;-6.6763;0.1403;-2.7709;
2814233463022;-9.3114;-0.0607;-4.2060;
2814243572865;-10.6528;-0.0607;-4.5317;
2814253672136;-26.3216;0.8399;-0.6317;
2814263781980;-17.2164;0.4735;5.1679;
2814273891824;-2.2660;-0.8441;3.4621;
2814284014740;-4.6807;-0.6502;2.7434;
2814294124584;-8.1948;-0.7555;-2.1242;
2814304234428;-8.2573;0.0709;-8.0267;
2814314338699;-8.5065;0.5501;-9.7466;
2814324448542;-10.8371;0.6888;-7.5476;
2814334558386;-12.6386;0.2818;-3.0200;
2814344664324;-8.4129;-0.8106;-0.4208;
2814354774167;-5.1335;-0.6909;-1.6499;
2814364884011;-7.0857;-0.8345;-3.1038;
2814374993074;-12.4684;-1.0884;-2.0474;
2814385102917;-10.1498;-1.5173;-0.7107;
2814395212761;-6.1564;-1.1028;-1.7961;
2814405291772;-5.8427;-0.3242;-3.7388;
2814415401615;-8.6118;0.0613;-12.5854;
2814425511459;-17.0776;0.7223;-18.6724;
2814435621303;-12.3177;-0.4202;-1.7336;
2814445763647;-3.6772;-0.9497;3.8910;
2814455873490;-8.1565;-0.0488;-0.7325;
2814465983334;-9.2656;0.1810;3.4406;
2814476093907;-11.5415;-0.3867;3.6156;
2814486203751;-8.7461;-0.0129;-0.3036;
2814496313594;-6.3215;0.4735;-3.9712;
2814506433907;-11.3474;0.8542;-6.0694;
2814516543751;-11.2660;0.4950;-4.6346;
2814526653647;-8.0393;-0.5638;-3.1448;
2814536746719;-5.4784;-0.4394;-5.3868;
2814546856563;-8.7844;-0.4872;-5.3940;
2814556966407;-11.1583;-1.4097;-1.9253;
2814567077813;-7.9122;-1.4527;0.6954;
2814577187657;-3.8471;-1.3352;-2.1290;
2814587297501;-10.3487;-0.8441;-6.6948;
2814597426980;-13.5344;-0.2261;-3.0416;
2814607536824;-9.1890;-0.6311;-0.1959;
2814617646667;-6.8800;-0.8874;-2.3351;
2814627729063;-9.1005;-1.0406;-2.4619;
2814637838959;-9.4693;-0.8201;-1.2739;
2814647948803;-9.0550;-0.4394;-2.2128;
2814658085886;-10.2646;-0.3099;-3.1496;
2814668195730;-9.3688;0.1164;-1.8416;
2814678305574;-7.4261;0.3153;-3.9278;
2814688400678;-11.1583;-0.8082;-5.3868;
2814698510522;-11.2134;-0.3939;-1.8703;
2814708620417;-7.0810;-0.4442;-1.1803;
2814718731251;-9.3401;0.0039;-3.6838;
2814728841147;-11.3761;-0.3075;-1.9325;
2814738951042;-7.6176;-0.4537;-1.3839;
2814749069740;-7.6176;-0.4131;-2.5289;
2814759179584;-11.3067;-0.3700;-4.1913;
2814769289428;-10.2909;-0.7244;-3.9159;
2814779385365;-8.4778;-0.7555;-3.5853;
2814789495209;-11.0599;-0.4370;-3.8680;
2814799605105;-10.4204;0.0350;-2.1482;
2814809710053;-9.4549;-0.3170;-1.2954;
2814819819897;-8.3291;-0.4729;-2.8331;
2814829929740;-9.3329;-1.0382;-3.7412;
2814840038126;-9.0574;-0.2524;-3.8847;
2814850148022;-8.9447;0.0302;-3.2812;
2814860257865;-9.2656;-1.0286;-4.6657;
2814870383386;-10.8805;-0.0631;-4.7665;
2814880493230;-9.2608;-0.5638;-1.7001;
2814890603074;-8.0943;-0.9114;-2.9865;
2814900708490;-9.7519;-0.6311;-2.6919;
2814910818334;-7.4477;-1.6442;-1.7719;
2814920928178;-7.5769;-1.6370;-4.9962;
2814931060574;-11.0408;-1.4216;-4.5724;
2814941170417;-9.0646;-0.7436;-4.2945;
2814951280313;-7.2272;-0.6383;-4.6035;
2814961365313;-7.9962;-1.6947;-5.1425;
2814971475157;-11.3450;-1.5987;-6.0598;
2814981585001;-11.2732;-0.2309;-0.6317;
2814991700782;-7.0642;-0.2907;0.6500;
2815001810626;-8.2047;-1.1844;-2.8068;
2815011920469;-9.8599;-0.8680;-2.6632;
2815022031563;-10.3798;-0.3461;-3.1086;
2815032141407;-10.4635;0.3559;-3.2333;
2815042251251;-7.0427;-0.8632;-1.6738;
2815052359063;-7.4309;-1.0884;-3.8297;
2815062468907;-10.6696;-0.0945;-3.6595;
2815072578751;-11.1030;0.5261;-0.5982;
2815082694532;-9.8073;0.6936;-1.4653;
2815092804376;-8.0225;-0.2285;-1.8846;
2815102914219;-10.4133;-1.3854;-1.7312;
2815113024219;-9.6323;-1.1339;0.4128;
2815123111407;-6.4104;-0.6072;-2.3590;
2815133221251;-10.5808;-0.5734;-6.6135;
2815143331094;-11.8122;0.7128;-2.9746;
2815153470053;-7.7064;0.2818;0.8055;
2815163579897;-7.8667;0.0948;-2.8884;
2815173689740;-11.5463;0.4134;-5.1592;
2815183790990;-10.6720;0.1044;1.0857;
2815193900834;-8.9734;0.6864;-0.5264;
2815204010678;-8.4682;0.9165;-3.3386;
2815214132032;-9.6227;0.8830;-1.7671;
2815224241876;-9.1125;0.2100;-1.7575;
2815234351772;-9.1220;0.0565;-4.7136;
2815244449949;-13.6089;0.8997;-4.7016;
2815254559792;-11.8552;0.6769;-0.1023;
2815264669688;-5.2989;0.2291;-0.2366;
2815274785053;-8.2119;0.5213;-5.6743;
2815284894897;-12.1164;0.8949;-2.8140;
2815295004740;-9.3951;0.8447;0.8174;
2815305098126;-8.5687;1.3095;-2.8932;
2815315208022;-6.4845;-0.5853;-3.9254;
2815325317865;-8.9136;-0.4920;-3.7699;
2815335438282;-14.2508;0.3583;-3.6069;
2815345548126;-9.7783;0.1451;-1.3983;
2815355657969;-8.4634;-0.1304;-3.2859;
2815365766147;-11.7117;-0.3796;-1.2281;
2815375875990;-8.9495;-2.0420;-0.5958;
2815385985834;-10.5233;-0.7412;-2.0692;
2815396087188;-6.9900;-0.9616;-1.1157;
2815406197084;-7.7806;-0.6191;-4.6298;
2815416306928;-14.2101;-0.1232;-4.7279;
2815426416042;-12.6697;-0.4178;1.6056;
2815436525938;-6.6787;0.3248;0.8198;
2815446635782;-6.9637;-0.8755;-4.0908;
2815456753907;-9.8767;-0.7196;-3.7747;
2815466863751;-9.9700;-1.5628;0.3407;
2815476973594;-11.0719;-0.8393;-0.8952;
2815487078594;-11.3139;-0.4059;-1.9564;
2815497188438;-11.7858;-1.1076;-2.0545;
2815507298282;-12.0278;-2.3797;-1.0271;
2815517414636;-8.5496;-1.9292;-0.6987;
2815527524480;-7.7016;-1.4791;-1.8248;
2815537634324;-8.3459;-1.0980;-2.7063;
2815547769428;-10.8060;-1.3424;-3.2285;
2815557879272;-12.2698;-1.3400;-1.8559;
2815567989167;-10.4372;-1.6107;0.1995;
2815578087032;-7.1387;-1.7880;-1.5781;
2815588196876;-6.7959;-0.4155;-5.7006;
2815598306719;-11.8050;-0.6766;-3.9999;
2815608392292;-10.3798;-1.6466;0.3024;
2815618502188;-8.5352;-0.9640;-1.5084;
2815628612084;-8.8490;0.3655;-2.8044;
2815638746667;-10.6744;-1.2921;-2.6800;
2815648856563;-11.9871;-0.3987;-2.9913;
2815658966407;-8.6333;-0.8922;-2.9124;
2815669060365;1.1402;-1.1868;-4.8646;
2815679170261;-10.7701;-0.2548;-7.6843;
2815689280105;-25.3445;2.1431;-3.6694;
2815699390261;-5.6151;0.8351;3.1890;
2815709500105;0.0766;0.3009;-1.7695;
2815719610001;-11.8600;0.0876;-3.5758;
2815729718126;-12.6673;0.4158;-0.0951;
2815739827969;-9.1771;0.1546;-0.0090;
2815749937865;-11.0480;1.4937;-2.9052;
2815760040730;-12.7920;0.2195;-2.0210;
2815770150626;-9.2154;2.5645;0.2426;
2815780260469;-7.2368;0.5309;-0.8545;
2815790366042;-10.1426;0.5979;-3.6141;
2815800475938;-8.6788;0.1164;-3.9544;
2815810585782;-7.2775;-0.2979;-3.4107;
2815820730261;-5.0426;-0.0873;-5.8588;
2815830840105;-9.4837;-0.2931;-5.2935;
2815840950001;-5.2173;-1.1291;0.6260;
2815851036824;-10.4157;-0.1591;-5.7604;
2815861146667;-9.6203;0.4373;-10.3071;
2815871256511;-3.4496;-0.0655;0.3311;
2815881361459;-28.8009;0.7418;1.0499;
2815891471355;-29.7353;0.6793;3.5148;
2815901581199;-0.2037;0.4229;6.3248;
2815911725157;3.4543;-1.3615;7.8987;
2815921835001;-12.0518;-1.3735;-0.5886;
2815931944844;-14.9240;0.2889;-6.4863;
2815942041094;-6.0269;0.0422;-8.2783;
2815952150938;-3.4448;0.2459;-9.5934;
2815962260782;-9.4980;0.4974;-9.4304;
2815972365053;-11.0671;0.3057;-5.4849;
2815982474897;-9.3138;0.6338;-2.7135;
2815992584740;-6.5707;-1.3232;-0.2198;
2816002705365;-8.0321;-1.1677;0.7863;
2816012815209;-5.8738;-1.2347;0.2115;
2816022925053;-12.0637;-1.9196;-5.7939;
2816033023334;-12.2315;-0.4513;3.9030;
2816043133178;4.8269;-1.6346;-3.5064;
2816053243022;-14.7778;-0.0368;-30.2952;
2816063352865;-25.0929;0.8542;-14.5496;
2816073462709;-3.0230;-0.5710;11.3363;
2816083572553;1.8924;0.3942;-0.0401;
2816093676928;-8.0441;-0.3748;-7.7297;
2816103786772;-13.1584;0.5548;1.9169;
2816113896615;-10.7677;1.2135;4.3292;
2816123987813;-11.2349;0.4854;-1.4653;
2816134097657;-10.4037;0.7848;-2.0521;
2816144207501;-8.7556;-0.3027;-0.2677;
2816154317397;-9.7424;-0.0248;-2.2558;
2816164449167;-11.7045;-0.5518;-2.9650;
2816174559011;-9.9078;-1.0693;-1.4486;
2816184668855;-7.5266;-1.3519;-1.5179;
2816194772397;-9.1005;-0.5207;-4.0334;
2816204882292;-10.2287;0.5405;-4.0430;
2816214992136;-7.7112;-0.3147;-1.5060;
2816225113542;-7.7949;-0.5830;-3.4896;
2816235223438;-8.0297;-1.0765;-3.2166;
2816245333282;-7.5673;-1.0502;-2.3734;
2816255436824;-11.3426;-0.8177;-3.9425;
2816265546667;-12.5046;-0.1328;-1.6690;
2816275656511;-9.6012;0.1810;1.1650;
2816285766511;-5.1814;-0.1639;-0.8378;
2816295876355;-8.6166;-0.2333;-3.6188;
2816305986199;-12.6194;0.0254;-3.4633;
2816316089063;-11.5702;0.6840;-2.5026;
2816326198959;-7.7806;0.6362;-3.0440;
2816336308803;-6.4869;0.4660;-4.3328;
2816346442344;-7.5673;-0.3700;-5.0611;
2816356552188;-9.8240;-1.1557;-2.8813;
2816366662084;-12.8160;-0.1783;-2.2391;
2816376754636;-9.3497;0.7295;-0.5527;
2816386864480;-8.0919;0.0829;-2.1003;
2816396974324;-9.8456;-1.0406;-3.0416;
2816407061407;-11.3306;0.5596;-0.5886;
2816417171251;-7.1073;0.4711;-1.3648;
2816427281147;-6.3649;-1.0334;-4.3017;
2816437424324;-10.3367;-0.9185;-5.4873;
2816447534167;-11.6611;-0.4920;-3.6885;
2816457644011;-7.0499;0.4421;-1.5829;
2816467752761;-7.0857;-0.3290;-3.2501;
2816477862605;-9.3855;-0.4848;-4.6848;
2816487972449;-11.0121;0.6099;-1.3122;
2816498074480;-9.6849;0.3727;1.3995;
2816508184324;-5.7900;0.0996;0.1014;
2816518294167;-4.5132;-1.3831;-3.6284;
2816528407344;-14.5525;-0.1376;-4.6753;
2816538517188;-16.5003;2.1335;0.4798;
2816548627032;-11.1150;3.1875;0.5827;
2816558737709;-9.1866;1.4722;-2.3423;
2816568847605;-6.2521;0.4493;-2.5193;
2816578957501;-7.3660;0.6099;-2.5409;
2816589065834;-11.9270;1.4339;-1.6283;
2816599175678;-11.8816;1.4243;-0.4543;
2816609285522;-9.6658;2.1215;-2.7805;
2816619392605;-10.7749;0.1762;-1.5685;
2816629502449;-10.0250;-1.0789;-0.2151;
2816639612344;-8.1278;-1.2802;-0.8258;
2816649704324;-5.1431;-2.4730;-1.5757;
2816659814167;-9.9102;-2.7054;-4.3137;
2816669924011;-12.6099;-2.1520;-3.2548;
2816680086094;-9.3473;-2.7150;-0.3562;
2816690195938;-7.0690;-2.8947;-1.0319;
2816700305782;-9.3018;-1.3089;-5.6575;
2816710400053;-11.9584;-1.1052;-5.0850;
2816720509897;-9.9987;-0.5183;-1.7838;
2816730619740;-12.0015;0.0278;-2.7996;
2816740714219;-11.0910;-1.0693;0.8991;
2816750824063;-8.5232;-0.2285;0.8749;
2816760933907;-12.1379;0.1068;-2.6871;
2816771042969;-12.0422;0.2195;0.4415;
2816781152813;-5.0234;-0.2596;-0.2605;
2816791262657;-8.3219;1.0771;-5.0348;
2816801374324;-10.8419;0.2124;-4.8048;
2816811484167;-9.9365;0.5716;-1.7671;
2816821594011;-8.9542;0.5213;-1.8009;
2816831698074;-7.9146;-0.0535;-3.7555;
2816841807917;-11.3091;1.2709;-4.6131;
2816851917761;-8.8825;0.3751;-0.8904;
2816862017605;-3.3727;1.0651;-1.2715;
2816872127501;-9.0550;0.4445;-3.9302;
2816882237344;-18.1579;1.2470;-3.9832;
2816892363490;-11.2325;1.2015;-1.8799;
2816902473334;-0.0766;-0.0344;-2.7087;
2816912583178;-13.0675;0.7920;-4.9531;
2816922702032;-17.9088;0.7343;-0.9455;
2816932811876;-8.6883;1.1704;-0.5527;
2816942921719;-1.2505;-0.2261;-2.8717;
2816953031928;-6.0679;0.7418;-2.8693;
2816963141772;-11.5271;0.8566;-3.8656;
2816973251615;-12.2865;0.3416;-4.1483;
2816983367553;-13.0173;1.7692;-5.6360;
2816993477397;-10.8491;0.8973;-1.7480;
2817003587240;-6.0197;-0.0057;1.1770;
2817013673959;-6.0799;0.2148;-1.3600;
2817023783855;-12.4014;0.2435;-4.0549;
2817033893699;-11.1799;0.0637;-1.7480;
2817044017344;-5.5552;-0.8225;-2.6800;
2817054127188;-8.3459;0.3224;-8.9393;
2817064237032;-14.3178;0.8016;-6.8360;
2817074345313;-7.2894;0.4181;0.0628;
2817084455157;-0.9078;-1.0956;-4.7375;
2817094565001;-9.2946;0.1307;-12.2548;
2817104666719;-17.1446;0.3775;-5.0611;
2817114776563;-11.9103;-0.4131;3.7902;
2817124886407;-3.0733;-0.5231;0.2378;
2817135015105;-6.8656;-0.4944;-4.8072;
2817145125313;-10.5449;0.4038;-3.1878;
2817155235522;-7.5218;0.4759;-4.6896;
2817165322917;-10.9164;0.4998;-7.5428;
2817175433126;-11.3258;0.0063;-4.6944;
2817185543334;-6.6978;-0.0272;-2.3037;
2817195664844;-5.7996;0.2985;-6.7929;
2817205775053;-6.8462;-1.0980;-5.1975;
2817215885209;-5.5289;-0.9257;-3.1950;
2817226019740;-6.4941;-1.5628;-4.5317;
2817236129897;-9.1890;-2.5211;-5.4514;
2817246240157;-25.7611;-1.2491;0.3577;
2817256322032;-29.5508;0.5261;11.0728;
2817266432188;-7.4261;1.6543;9.8127;
2817276542397;0.1032;-3.2830;-3.5901;
2817286646928;-6.2019;-5.8555;-9.4639;
2817296757136;-10.4228;-4.2697;-2.2463;
2817306867292;-13.7237;0.0661;-0.2629;
2817316974949;-4.8221;2.0904;-2.1625;
2817327085157;-7.7830;0.3440;-7.2984;
2817337195313;-10.7533;-1.0071;-6.5414;
2817347329844;-5.2101;-0.5423;-1.9062;
2817357440053;-5.2798;-1.9029;-4.3807;
2817367550261;-12.0111;-2.3533;-3.3362;
2817377640261;-9.4358;-2.3390;-0.0784;
2817387750469;-8.4849;-1.7833;-0.6820;
2817397860626;-3.8183;-1.6995;-1.7551;
2817407990417;-6.8486;-1.7880;-17.2612;
2817418100678;-18.5196;-1.2514;-16.9858;
2817428210834;-13.9944;1.9250;-0.2988;
2817438298647;-9.5916;2.5071;1.0929;
2817448408855;-5.9575;0.5477;3.5124;
2817458519063;-4.2832;-1.1291;1.4883;
2817468627917;-19.6549;0.6601;-2.0354;
2817478738126;-10.7486;1.6376;10.2823;
2817488848334;-0.3257;1.0220;0.0245;
2817498950417;-10.3606;-1.7474;-11.4308;
2817509060626;-13.1178;-0.6957;-3.0559;
2817519170834;-8.7194;0.8590;-0.9909;
2817529284272;-5.4879;-0.5614;-6.7140;
2817539394480;-10.2861;-1.8742;-7.1764;
2817549504688;-9.4645;-0.4920;-2.1984;
2817559607240;-8.7461;1.4554;-1.1013;
2817569717449;-8.8202;1.2637;-1.3648;
2817579827657;-9.8671;0.5333;-1.2930;
2817589981824;-9.2755;0.5572;0.1756;
2817600092032;-8.1589;1.3693;-3.2668;
2817610202240;-13.3525;0.0182;-4.2132;
2817620266094;-12.4086;1.9107;1.1818;
2817630376303;-4.5826;0.7753;2.0967;
2817640486459;-7.4979;-0.3194;-4.1985;
2817650600261;-13.1441;0.2985;-2.9148;
2817660710417;-9.5868;0.7199;1.1121;
2817670820626;-8.5926;0.4926;-3.3793;
2817680940053;-7.5075;-0.4825;-3.7795;
2817691050261;-8.3746;-0.2524;-3.6093;
2817701160469;-8.5400;0.1977;-2.9052;
2817711272344;-8.4634;-0.9688;-3.4968;
2817721382553;-10.2598;-1.2347;-2.6465;
2817731492709;-10.5281;-0.6072;-4.2826;
2817741607344;-12.4878;0.0182;-5.1832;
2817751717553;-10.2670;0.6218;-0.4594;
2817761827709;-5.9480;-0.5351;0.9039;
2817771936980;-7.9962;-0.8946;-4.2036;
2817782047188;-12.3918;-0.5375;-5.3988;
2817792157344;-10.8948;-0.3915;-1.2185;
2817802266147;-5.7586;-0.9449;-0.8713;
2817812376355;-6.9494;-0.0033;-6.9535;
2817822486511;-11.7260;-1.4408;-6.1487;
2817832600990;-7.9795;-0.4131;-1.3289;
2817842711199;-8.0847;-0.3218;-2.4308;
2817852821407;-8.6405;-1.1291;-4.4644;
2817862927344;-6.9182;-1.4671;-3.7484;
2817873037553;-6.4941;-0.9712;-5.1951;
2817883147709;-9.9867;-1.4791;-6.2731;
2817893228490;-7.8835;-1.6322;-4.3639;
2817903338647;-5.7419;-1.2419;-5.6097;
2817913448855;-8.0680;-1.2251;-5.9426;
2817923587813;-7.2296;-1.2227;-3.5662;
2817933698022;-8.4682;-0.5638;-2.7685;
2817943808178;-7.7662;-1.0143;-4.0310;
2817953918594;-6.2617;-0.4107;-4.8311;
2817964028803;-3.0446;-0.1926;-3.0057;
2817974138959;-3.2937;-0.4346;-4.0860;
2817984249740;3.9526;-1.4623;-8.4338;
2817994359949;5.8427;-2.3151;-11.1096;
2818004470105;-21.5907;-1.7402;-9.9861;
2818014600209;-52.3200;2.4257;7.8194;
2818024710365;-32.4518;3.1875;28.1166;
2818034820626;10.0612;-2.4996;20.9133;
2818044899063;4.6208;-1.7569;-4.5221;
2818055009272;-21.3006;-0.6455;-21.8704;
2818065119428;-12.5955;0.0541;0.3793;
2818075220053;-1.6433;-1.7186;12.2369;
2818085330261;-6.5683;-3.2109;-5.9282;
2818095440417;-13.8844;-0.4872;-12.6571;
2818105557240;-9.2656;1.6017;-1.5613;
2818115667449;-3.1741;-0.9975;2.0536;
2818125756147;-8.1948;-2.8325;-4.1411;
2818135866303;-11.7188;-1.0908;1.5745;
2818145976511;-2.9465;-0.6766;18.4914;
2818156092240;10.3104;-3.5390;5.9294;
2818166202344;-7.4716;-3.3978;-49.9816;
2818176312605;-33.1155;-1.9654;-51.1409;
2818186422761;-17.3937;-2.5642;12.3494;
2818196545469;2.7933;1.5826;23.5460;
2818206655678;-10.1689;0.4711;-7.9140;
2818216765834;-17.9303;0.6697;0.6571;
2818226891407;-10.3534;3.7911;14.9127;
2818237001615;-11.2158;3.9323;5.3067;
2818247111824;-11.1727;1.7022;-2.1817;
2818257213699;-10.0226;0.6027;-2.9219;
2818267323907;-7.7997;-0.7460;-2.8355;
2818277434063;-8.6189;-0.8034;-4.7112;
2818287542761;-11.6348;-1.0525;-5.0659;
2818297652969;-10.1306;-1.8144;0.6715;
2818307763126;-5.4568;-2.0133;-1.2257;
2818317866615;-7.4453;-2.5810;-6.1080;
2818327976824;-9.3233;-2.2696;-2.2822;
2818338086980;-10.9786;-0.4035;-2.6776;
2818348212553;-9.6419;-0.4298;-3.1277;
2818358322761;-6.8462;-0.3075;-2.8594;
2818368432917;-9.1005;0.3775;-4.4692;
2818378510782;-12.6194;1.1871;-2.5911;
2818388620938;-9.9365;2.9456;-0.9191;
2818398731147;-8.4344;2.3010;-1.7336;
2818408841876;-11.2828;2.5669;-2.3949;
2818418952084;-11.7356;2.8591;0.6667;
2818429062292;-7.3950;1.7596;1.0044;
2818439179428;-5.7706;0.9428;-1.9277;
2818449289584;-8.5232;-0.5566;-4.9938;
2818459399740;-10.4085;-0.5088;-4.1698;
2818469567761;-11.7165;-0.8946;-0.2342;
2818479677969;-11.0480;-0.1998;1.3875;
2818489788178;-6.4032;0.3368;-3.5782;
2818499843803;-8.4849;0.3248;-5.8995;
2818509954011;-11.4673;-0.5806;-0.8737;
2818520064167;-9.0694;-0.0559;0.1493;
2818530175365;-8.2765;-0.8680;-2.3133;
2818540285574;-8.8155;-0.4753;-3.8441;
2818550395782;-10.1713;-0.6861;-3.2955;
2818560503074;-9.4908;0.0398;-2.8211;
2818570613282;-8.5950;-0.1735;-2.6321;
2818580723438;-10.3316;-1.0525;-2.7805;
2818590829844;-11.2780;-0.5327;-1.8105;
2818600940053;-9.4238;-0.7077;-0.1071;
2818611050209;-10.8781;-1.0478;-0.2677;
2818621174219;-8.4224;-1.8574;-0.9383;
2818631284428;-7.5960;-1.0478;-3.9616;
2818641394584;-12.2865;0.8518;-5.0659;
2818651480886;-10.1521;-0.7005;-1.0295;
2818661591042;-3.9574;-0.7077;-1.7719;
2818671701251;-7.2870;-0.1615;-6.0311;
2818681805469;-13.0531;-0.0344;-5.1879;
2818691915678;-10.0995;-0.3413;-3.2620;
2818702025834;-7.8165;-0.5877;-3.7507;
2818712160157;-6.0245;-0.0655;-3.1472;
2818722270365;-9.3999;-1.2323;-3.5207;
2818732380522;-11.8146;-1.4264;-3.5518;
2818742489688;-9.5366;-0.5447;-3.0153;
2818752599897;-9.4095;-0.1089;-4.1195;
2818762710105;-7.8763;-0.5830;-3.9951;
2818772818074;-7.6199;0.6721;-4.0382;
2818782928282;-13.6735;1.1082;-3.8106;
2818793038438;-10.0490;-0.4896;-0.8833;
2818803139011;-7.1818;-0.0129;-1.7985;
2818813249167;-8.7389;0.3081;-3.2788;
2818823359376;-12.7176;0.5213;-1.9516;
2818833454480;-9.1579;-0.6646;-1.1731;
2818843564688;-5.8499;-0.2668;-2.3109;
2818853674897;-9.0191;-1.2467;-4.6633;
2818863812136;-11.9560;-0.4083;-4.1291;
2818873922344;-8.9686;-0.7699;-1.4844;
2818884032501;-7.5003;-0.4035;-5.0252;
2818894140990;-8.2884;-0.0511;-5.4419;
2818904251199;-9.5148;0.0661;-3.9975;
2818914361407;-9.5916;-0.6718;-1.4605;
2818924476303;-7.6896;-1.2467;-1.6905;
2818934586511;-12.1283;-0.8946;-3.8010;
2818944696615;-9.9796;-0.7914;-3.0368;
2818954787449;-6.6356;-1.3089;-2.2726;
2818964897657;-9.2683;-0.7196;-2.4954;
2818975007813;-10.3606;-0.3796;-2.8307;
2818985111563;-9.8719;-0.7627;-2.5241;
2818995221772;-8.8561;-0.1950;-3.8177;
2819005331980;-10.2598;-0.5518;-3.9784;
2819015459740;-7.9265;-0.5255;-2.7494;
2819025569949;-8.5424;-0.1113;-3.1253;
2819035680157;-11.1870;0.4062;-2.0210;
2819045769532;-9.4047;0.5213;-0.8880;
2819055879688;-6.9039;-0.1639;-1.4318;
2819065989897;-9.4837;-1.0956;-3.5806;
2819076097969;-9.4525;-0.7196;-3.0535;
2819086208126;-10.6935;0.1953;-3.4346;
2819096318334;-10.0011;-0.1878;-1.2811;
2819106444792;-7.7447;-0.3461;-0.1238;
2819116555001;-7.2990;-0.9209;-3.2812;
2819126649167;-10.4228;-0.5686;-3.8680;
2819136759376;-13.3645;0.5118;-0.6437;
2819146869480;-10.8805;1.0866;0.8725;
2819156960313;-12.1211;0.4735;0.3072;
2819167070469;-11.5439;0.4684;0.1732;
2819177180678;-10.1378;0.7442;0.7528;
2819187306094;-11.3713;0.2363;-1.0391;
2819197416303;-11.8265;-0.5231;0.0724;
2819207526459;-7.8021;0.6482;0.0846;
2819217639219;-7.6271;0.4516;-3.9039;
2819227749428;-10.3292;-0.3461;-3.4011;
2819237859584;-7.6463;0.1451;-2.7446;
2819247961407;-10.2263;-1.2826;-4.3687;
2819258071563;-11.6683;-0.4131;-3.8441;
2819268181772;-7.1865;-1.1486;-1.4174;
2819278296147;-5.8283;-1.4456;-3.5710;
2819288406303;-12.5166;-0.3843;-5.6743;
2819298516511;-11.2182;-0.6622;-2.1123;
2819308623022;-6.4678;-0.9377;-1.3217;
2819318733230;-11.3091;0.0829;-5.2071;
2819328843438;-9.8264;-0.2022;-2.7135;
2819338948959;-8.4583;-0.2572;-2.8307;
2819349059167;-8.8394;-0.2716;-3.5399;
2819359169376;-9.9891;-0.2788;-1.7743;
2819369298594;-10.7749;-0.8994;-1.4605;
2819379408751;-5.8810;-0.4705;-1.6786;
2819389519011;-8.3794;-0.4896;-4.1387;
2819399619219;-10.7462;-0.9616;-4.1267;
2819409729428;-7.7495;-0.4083;-2.3037;
2819419839636;-9.9461;-0.8417;-5.1209;
2819429953282;-11.5654;-0.5423;-3.5016;
2819440063490;-6.2856;-1.0310;-0.7011;
2819450173647;-7.6391;-0.5040;-3.7627;
2819460302240;-10.6959;-1.0621;-2.9961;
2819470412449;-9.2731;-0.4178;-1.0439;
2819480522605;-8.2789;-0.7962;-2.7948;
2819490604897;-10.1450;-0.1639;-2.7924;
2819500715053;-11.2540;-1.2826;-1.8942;
2819510825261;-10.2096;0.0972;-1.3481;
2819520937969;-8.9853;-1.3065;-1.9493;
2819531048126;-8.5519;-0.2548;-0.7756;
2819541158334;-11.1799;0.5668;-2.3710;
2819551267553;-11.2732;-0.4107;-1.5733;
2819561377761;-8.9375;-0.4059;-0.9694;
2819571487917;-11.4793;0.2650;-2.4858;
2819581621042;-11.3282;-0.5303;-1.0917;
2819591731251;-6.3290;-0.4011;-0.7708;
2819601841407;-9.3592;-0.5279;-3.5997;
2819611925886;-11.4194;0.6242;-4.1435;
2819622036094;-9.5653;-1.7952;-1.9875;
2819632146251;-7.1578;-0.7316;-3.9159;
2819642243074;-10.1641;-0.4107;-4.2730;
2819652353282;-8.8490;-0.7986;-2.7996;
2819662463438;-8.0943;-0.1711;-3.7460;
2819672585990;-12.6936;0.4277;-4.2873;
2819682696199;-8.6524;-0.4777;-0.9837;
2819692806355;-5.5313;-0.2859;-1.7121;
2819702914480;-9.1460;1.0220;-5.0420;
2819713024688;-11.3234;-0.4107;-3.5399;
2819723134844;-10.2120;-0.6502;-2.4069;
2819733249740;-9.2082;0.0996;-2.9052;
2819743359949;-7.9579;0.2985;-1.4844;
2819753470105;-10.2311;-1.1797;-1.9349;
2819763578282;-10.5855;-0.1161;-3.9182;
2819773688438;-9.1340;-0.3748;-0.4519;
2819783798647;-8.5184;-0.4777;-0.0903;
2819793911094;-10.9187;-0.0873;-3.1062;
2819804021303;-13.5200;0.1857;-2.3518;
2819814131459;-9.3281;-0.1065;0.5803;
2819824226407;-7.0379;-0.6191;-1.4079;
2819834336615;-8.2167;-0.7675;-2.0764;
2819844446772;-8.8322;-0.4657;-2.3590;
2819854557553;-8.9375;-1.3017;-2.2630;
2819864667709;-9.7807;-0.4585;-3.9182;
2819874777917;-13.6232;-0.3820;-4.7279;
2819884899011;-9.1603;-1.1821;-1.0965;
2819895009219;-3.3009;-1.3232;-1.0271;
2819905119376;-6.3338;0.1068;-4.0047;
2819915237449;-10.5879;-0.2142;-3.7292;
2819925347657;-6.1134;-0.4059;-3.1783;
2819935457813;-0.9126;0.2100;-6.9488;
2819945558594;-24.1346;0.1762;-5.8923;
2819955668803;-27.6177;-0.0583;4.2885;
2819965779011;-2.6662;-0.6120;7.1130;
2819975887657;1.3989;-0.9257;-0.3538;
2819985997813;-11.0169;-0.1783;-3.6212;
2819996108022;-12.4205;-0.5590;0.0532;
2820006210053;-8.6812;-1.4719;-0.0114;
2820016320209;-6.9637;0.3607;-7.5882;
2820026430417;-10.4611;-0.6335;-8.7093;
2820036544740;-8.6070;-0.1878;-2.6967;
2820046654949;-7.4955;0.0685;-1.5948;
2820056765105;-9.4119;0.1283;-3.5327;
2820066886303;-9.2489;-0.6239;-0.1190;
2820076996511;-12.9188;-0.7364;4.2550;
2820087106719;-4.0292;-1.7378;4.2766;
2820097204428;-9.5605;-0.7149;-18.0374;
2820107314584;-20.0360;1.0699;-15.9269;
2820117424792;-11.0121;-0.9138;7.8796;
2820127534011;-5.0306;-0.9377;5.6539;
2820137644011;-6.9948;-0.0368;-6.2587;
2820147753959;-8.1374;0.9356;-1.2162;
2820157875365;-8.4559;-0.0488;1.1674;
2820167985365;-10.9618;-0.0655;-3.6452;
2820178095365;-10.3702;0.2028;-4.3017;
2820188184376;-9.3855;-0.4083;-1.3504;
2820198294376;-6.3386;0.2650;-3.0368;
2820208404428;-8.4033;-0.7268;-6.3906;
2820218513022;-11.6635;-0.8560;-4.5078;
2820228623074;-8.9495;-0.6909;-3.1110;
2820238733022;-10.5784;0.1020;-3.6380;
2820248865782;-12.2794;0.0781;-2.1769;
2820258975782;-6.6428;0.0422;-0.6102;
2820269085782;-7.0307;-0.2309;-3.9832;
2820279171772;-12.1762;-0.3915;-2.1482;
2820289281772;-9.4406;0.3105;-0.3203;
2820299391824;-9.2536;0.4783;-1.8894;
2820309523490;-9.9006;0.1570;-1.4079;
2820319633490;-11.8505;1.0053;-1.9301;
2820329743490;-10.4635;-0.1328;-2.0859;
2820339842136;-8.0441;-0.8273;-1.3289;
2820349952136;-7.8787;-0.3194;-2.9148;
2820360062136;-9.6562;-0.1184;-4.5939;
2820370173699;-10.7653;0.6242;-4.4862;
2820380283699;-7.8141;-0.5088;-3.1950;
2820390393699;-7.5123;-0.8707;-5.2382;
2820400496563;-11.2229;0.2961;-3.5518;
2820410606615;-10.8036;-0.7125;-1.7719;
2820420716563;-8.3554;-0.4035;-2.4954;
2820430839011;-8.8944;-0.3604;-2.4404;
2820440949011;-8.7509;-0.4992;-2.4691;
2820451059011;-11.0408;-0.4466;-2.5122;
2820461161303;-9.8958;-1.1219;-3.3123;
2820471271303;-7.2488;-1.1004;-5.4419;
2820481381251;-9.3592;-0.9401;-4.6059;
2820491487917;-9.9317;-0.1950;-3.7412;
2820501597969;-9.4382;-1.0214;-2.2822;
2820511707969;-8.8083;-1.8646;-1.8272;
2820521818074;-8.7748;-1.3783;-2.8116;
2820531928074;-9.7376;-0.8560;-4.0837;
2820542038022;-9.4502;-1.3783;-3.1519;
2820552153178;-9.7041;-0.9066;-2.6512;
2820562263178;-10.1498;-0.8489;-2.5672;
2820572373126;-9.1914;-1.4480;-1.7743;
2820582470209;-8.8059;-1.5556;-2.6441;
2820592580261;-9.9652;-0.7890;-2.9052;
2820602690209;-9.7711;-0.8465;-2.2080;
2820612803022;-9.7639;-0.5399;-1.0558;
2820622913022;-9.8288;-0.5949;-0.8665;
2820633023074;-9.2178;-0.9616;-1.5422;
2820643154219;-9.9604;-0.6909;-4.1339;
2820653264219;-10.2622;-0.5877;-3.6523;
2820663374219;-10.7246;-0.3820;-1.0367;
2820673461459;-10.7318;-0.4418;-0.1262;
2820683571511;-8.5974;0.0924;-1.3193;
2820693681511;-6.7193;-1.1988;-1.7192;
2820703796303;-6.0532;-0.5566;-3.6981;
2820713906303;-11.9776;-0.9520;-4.9699;
2820724016251;-13.8509;1.1680;-1.1683;
2820734134897;-8.2765;-0.1950;0.3048;
2820744244844;-8.6046;-0.2429;-3.0966;
2820754354897;-7.4094;-0.7555;-1.9756;
2820764458282;-9.4908;0.3942;-3.0392;
2820774568230;-12.9165;-0.8465;-2.0402;
2820784678282;-10.6672;0.4540;-0.9383;
2820794782605;-9.9078;0.1020;-0.8833;
2820804892605;-6.8270;0.1379;-2.3375;
2820815002605;-7.9292;-1.2658;-3.3434;
2820825101667;-9.1364;-0.3027;-2.0378;
2820835211667;-12.0135;-0.3242;-0.2605;
2820845321667;-11.5654;0.5429;0.1780;
2820855443334;-7.2488;-0.2788;-0.8210;
2820865553334;-8.9303;-0.6383;-4.5341;
2820875663334;-12.1786;-1.1749;-4.5126;
2820885778386;-7.8141;-0.2788;-1.5900;
2820895888334;-6.6356;-1.1052;-2.2008;
2820905998334;-8.9973;-0.2979;-3.9808;
2820916114844;-9.9939;-0.6383;-2.3686;
2820926224844;-10.9738;-0.6191;-1.8751;
2820936334844;-11.0575;-0.1902;-1.4988;
2820946456615;-13.3884;-0.4011;0.1349;
2820956566615;-9.0885;0.0063;2.2860;
2820966676615;-5.6055;-0.5853;0.4295;
2820976763022;-9.2898;-0.4513;-4.7136;
2820986873022;-11.1870;-0.2477;-3.0799;
2820996983074;-10.0828;-1.1773;-2.5887;
2821007093751;-8.1039;-0.3123;-4.6729;
2821017203803;-10.0681;0.0685;-4.1195;
2821027313751;-10.4133;-0.5160;-0.7971;
2821037423022;-5.5863;0.3033;0.8198;
2821047533074;-10.1904;-0.6311;-2.9459;
2821057643074;-12.6242;-0.5495;-3.4298;
2821067758282;-10.3941;-0.4872;0.6380;
2821077868282;-11.4984;0.7609;-1.4342;
2821087978230;-9.3664;-1.5485;-2.6273;
2821098082397;-5.0115;-0.9281;-2.4284;
2821108192397;-10.5616;0.5501;-2.9985;
2821118302397;-13.2350;1.2087;-2.3276;
2821128407292;-6.7170;-0.3461;-0.9144;
2821138517188;-6.6547;0.2865;-4.3352;
2821148627032;-14.7323;0.8662;-3.7986;
2821158795626;-12.3177;0.5548;0.7816;
2821168905574;-3.9574;-1.6732;0.1780;
2821179015417;-8.5065;-0.0607;-2.5098;
2821189074167;-14.2579;-0.8946;-2.8355;
2821199184063;-7.6223;-0.4490;-2.0545;
2821209293907;-6.2186;-0.3772;-3.3649;
2821219415469;-12.0972;0.6673;-6.8456;
2821229525365;-10.9905;0.4783;-3.9182;
2821239635209;-5.6270;-0.6550;-0.3682;
2821249713230;-5.9862;-0.8201;-1.9804;
2821259823126;-15.4295;1.3932;-7.4423;
2821269932969;-16.2799;0.6673;-1.7791;
2821280087397;-7.5793;-1.0095;3.5315;
2821290197240;-5.0067;-0.2692;-1.8990;
2821300307084;-10.1569;-0.6455;-4.2802;
2821310388230;-6.3793;-0.5327;-1.2185;
2821320498126;-11.7978;0.6051;-5.4347;
2821330607969;-9.5797;0.4062;-7.6074;
2821340716563;-2.3381;1.2736;-3.6814;
2821350826459;-5.1933;0.3416;-5.0539;
2821360936303;-18.1316;0.9643;-6.5127;
2821371049272;-16.9146;0.5955;-1.2042;
2821381159167;-10.0537;-0.6766;1.3421;
2821391269011;-5.9456;-0.5949;1.3995;
2821401384011;-6.7241;0.2626;-0.1765;
2821411493855;-8.1975;-1.1339;-2.9674;
2821421603699;-9.3425;0.5166;-7.2314;
2821431706459;-9.8360;0.7801;-9.6126;
2821441816355;-3.7801;0.4540;-6.3547;
2821451926199;-7.9843;-0.2213;-1.7073;
2821462043803;-23.8208;-0.0081;-2.6369;
2821472153647;-16.6654;-0.4705;2.7652;
2821482263490;-1.0851;-2.1329;8.9862;
2821492370574;-2.5582;-2.2193;-0.1645;
2821502480417;-17.1254;0.6338;-10.8724;
2821512590261;-9.6754;-1.4862;-6.3763;
2821522692605;0.3520;-0.1735;-6.4361;
2821532802501;-11.4123;0.1618;-11.1598;
2821542912344;-15.6042;0.3655;-3.2142;
2821553036407;-7.3445;-0.1017;0.5635;
2821563146251;-5.9360;-0.1543;-1.1348;
2821573256094;-8.4658;-1.9510;1.4620;
2821583359636;-6.1301;-1.6035;1.7877;
2821593469480;-6.1804;-0.8680;-10.9014;
2821603579324;-19.4659;-1.0669;-16.7725;
2821613683490;-15.6784;-0.4394;-1.5829;
2821623793334;-1.7127;-0.2740;1.5290;
2821633903178;-3.0494;-0.6742;-5.0707;
2821644015834;-10.5305;-1.4862;-0.5001;
2821654125730;-12.2363;-0.8512;4.8610;
2821664235574;-5.1144;0.8136;-0.3897;
2821674346147;-4.2281;-0.7579;-7.4183;
2821684456042;-2.9871;-1.3232;-8.7236;
2821694565886;-9.5291;-2.4371;-7.9573;
2821704672969;-42.4050;-0.6168;-0.9502;
2821714782813;-20.7544;-0.1974;13.3914;
2821724892657;4.0220;-1.8550;6.8088;
2821735008074;-1.8852;-2.5762;-5.4969;
2821745117917;-9.5219;-0.0802;-1.4246;
2821755227761;-10.9020;0.6769;-0.7226;
2821765338022;-9.9126;0.5357;-5.0276;
2821775447917;-8.0201;1.2975;-8.1559;
2821785557761;-4.6711;0.6625;-6.9033;
2821795663126;-5.5935;0.2052;-6.4098;
2821805773022;-8.2071;-0.3987;-3.1926;
2821815882865;-11.6133;-0.3194;3.3951;
2821826005886;3.4998;-0.5423;5.2421;
2821836115730;-7.1363;-2.5570;-33.4406;
2821846225626;-35.8822;-5.3381;-25.8467;
2821856327917;-11.6061;1.8939;14.7497;
2821866437813;6.3338;3.4869;7.0265;
2821876547657;-6.1038;-1.5413;1.1961;
2821886654063;-16.0116;0.1403;6.2794;
2821896763959;-13.6639;2.6701;4.0825;
2821906873803;-7.5003;0.8734;-0.0162;
2821916991615;-8.2286;0.1355;-5.3366;
2821927101459;-10.8467;-0.5136;-3.2022;
2821937211303;-7.1387;0.7920;-4.5197;
2821947297188;-8.1039;0.3655;-9.3706;
2821957407084;-9.1508;-0.7292;-7.8948;
2821967516928;-8.5017;0.0709;-5.0034;
2821977648803;-8.3219;0.0709;-3.0224;
2821987758647;-8.6070;-0.3987;-1.2739;
2821997868490;-8.1159;0.1403;-2.0426;
2822007979324;-9.4860;0.2794;-2.1577;
2822018089167;-8.3315;0.2100;-1.5733;
2822028199011;-10.1833;-0.8755;-3.4107;
2822038309740;-10.1593;-0.4513;-2.2008;
2822048419584;-8.8681;0.3966;-2.6106;
2822058529480;-8.5256;0.4735;-3.9063;
2822068638074;-11.1870;0.5955;-2.8211;
2822078747917;-10.2263;1.2254;-1.5781;
2822088857813;-7.9819;0.2578;-1.5709;
2822098962501;-9.0048;-0.2500;-2.1218;
2822109072344;-10.3101;0.0637;-2.7996;
2822119182188;-9.5124;-0.3604;-2.6393;
2822129309011;-8.2741;-0.2524;-3.1424;
2822139419063;-8.0321;-0.9592;-4.3639;
2822149529167;-9.7591;-0.9616;-4.9962;
2822159645105;-8.0034;-0.1280;-3.2166;
2822169755209;-7.8165;-0.3170;-5.2047;
2822179865261;-11.6539;-0.2716;-4.2132;
2822189972032;-10.1976;0.3081;-0.0305;
2822200082084;-8.4105;0.1905;-2.5217;
2822210192136;-12.2100;-1.2945;-2.1099;
2822220275365;-12.1738;-0.2357;-0.1334;
2822230385417;-7.2009;-0.0009;-1.5132;
2822240495469;-7.8763;-0.5853;-3.1735;
2822250616511;-9.3377;-1.0717;-5.1832;
2822260726563;-9.2994;-0.0081;-4.4022;
2822270836615;-10.4516;-0.4537;-3.5518;
2822280957032;-9.1579;0.1307;-3.9784;
2822291067084;-7.5171;-1.0382;-2.7230;
2822301177136;-8.9183;0.1762;-2.2893;
2822311282449;-8.4778;-0.9616;-2.7039;
2822321392501;-10.1043;-1.4408;-4.1985;
2822331502553;-6.5587;-0.3389;-5.3079;
2822341604740;-10.5377;-0.6814;-4.8981;
2822351714792;-14.8953;-0.7795;-3.4178;
2822361824844;-8.9925;-0.9449;-0.8880;
2822371933647;-7.3397;-0.7196;-1.3481;
2822382043699;-9.4310;-0.9688;-1.3289;
2822392153751;-8.7171;-0.7579;-2.2630;
2822402267397;-8.5017;-1.0023;-3.1950;
2822412377449;-8.1565;-0.1567;-3.7436;
2822422487501;-7.7183;-0.8874;-4.2897;
2822432599324;-9.8073;-1.0358;-5.6910;
2822442709376;-10.3511;-0.5064;-3.5088;
2822452819428;-9.9245;-1.1124;-1.5132;
2822462948178;-6.2641;-0.9018;0.1205;
2822473058230;-6.0174;-1.4360;-6.9272;
2822483168282;-14.2627;-2.5977;-5.9737;
2822493266719;-11.6204;-0.6239;-1.0032;
2822503376772;-7.3062;-0.3413;-2.6489;
2822513486824;-8.8370;-0.5997;-1.6570;
2822523601511;-9.9724;-0.9832;-0.2964;
2822533711563;-10.4085;0.2698;-0.5145;
2822543821615;-10.1450;-0.1208;-0.4543;
2822553928594;-8.6213;-0.7723;-2.1601;
2822564038594;-9.1843;-0.3314;-3.8297;
2822574148699;-8.4682;-1.1533;-4.9675;
2822584254219;-10.5353;-0.7890;-5.6982;
2822594364272;-9.5581;-0.4585;-3.3362;
2822604474324;-9.0646;-0.3266;-4.2658;
2822614573386;-9.9365;-0.6455;-2.7733;
2822624683386;-9.1866;-0.4729;-1.0726;
2822634793490;-7.9217;-0.5351;-2.2941;
2822644924115;-12.5955;-0.0033;-2.1410;
2822655034167;-9.9030;0.7223;-1.7360;
2822665144272;-6.4893;-0.4418;-2.6991;
2822675239532;-8.3889;-1.1267;-5.1951;
2822685349584;-9.6419;-1.3567;-4.8861;
2822695459636;-9.0263;-0.3218;-3.9063;
2822705558074;-7.1961;0.3655;-3.8704;
2822715668126;-7.2248;-0.5590;-4.7255;
2822725778230;-8.6788;-0.5566;-3.9015;
2822735895678;-7.2488;-0.9999;-3.4490;
2822746005730;-10.6672;-0.4585;-3.9568;
2822756115782;-8.7317;-0.3772;-2.3447;
2822766237292;-5.5863;-0.8898;-2.5217;
2822776347397;-11.4048;-1.8239;-4.5485;
2822786457449;-11.7165;-1.5197;-1.4868;
2822796561303;-8.1206;-0.2237;0.5731;
2822806671355;-10.4611;-0.0754;-2.2845;
2822816781407;-13.1393;-0.1902;-1.3959;
2822826899428;-11.0097;-0.0105;1.7662;
2822837009480;-6.6117;-0.2189;1.6606;
2822847119584;-11.2445;0.5070;-4.0956;
2822857211407;-12.2507;0.2794;-2.8765;
2822867321459;-5.8020;0.3535;-0.1334;
2822877431511;-8.2860;-0.0248;-4.8790;
2822887558490;-9.2273;-0.7412;-4.1794;
2822897668542;-7.0403;-0.2094;-4.0310;
2822907778594;-11.4984;0.2770;-6.7283;
2822917885053;-12.0613;-0.8946;-3.0057;
2822927995105;-7.1192;0.2387;-3.0511;
2822938105157;-9.6036;-1.3017;-3.7029;
2822948210990;-10.2335;-0.1089;-3.1301;
2822958321042;-8.8753;-0.4920;-2.8669;
2822968431094;-9.1364;-0.0248;-1.8033;
2822978525157;-7.7997;0.5070;-4.4405;
2822988635157;-10.9451;-1.3161;-2.9602;
2822998745261;-10.5712;-0.3290;-1.6714;
2823008881772;-10.6050;-0.5614;-3.5590;
2823018991824;-11.7906;-0.3772;-0.7851;
2823029101928;-6.7481;-0.7053;-1.4055;
2823039210574;-10.9618;-1.2203;-5.0779;
2823049320574;-12.5548;-0.9520;-2.0354;
2823059430678;-7.0522;0.0015;-2.7230;
2823069516719;-3.3993;-0.9592;-3.3242;
2823079626772;-3.2602;-0.9664;-5.3605;
2823089736824;4.5778;-1.7354;-9.3682;
2823099852969;-16.2102;-2.6551;-8.1368;
2823109963022;-52.6170;-0.9401;2.4511;
2823120073126;-19.0514;2.4162;17.1189;
2823130176824;17.8155;-1.0836;6.9332;
2823140286615;-1.7031;-4.0134;-16.2841;
2823150396511;-16.0546;-0.5877;-8.9871;
2823160516094;-9.3544;0.8231;7.8362;
2823170625886;-3.7059;1.6878;-2.0593;
2823180735730;-10.1282;-0.0105;-14.2573;
2823190850678;-12.6721;-1.2634;-2.5098;
2823200960469;-6.9996;1.1441;4.3220;
2823211070313;-0.7044;-0.0754;11.6524;
2823221178386;11.4194;-2.7150;-21.9876;
2823231288178;-34.4522;-6.2222;-48.2495;
2823241398022;-38.8191;-2.5762;4.8491;
2823251508647;6.7528;5.8513;17.3560;
2823261618438;11.2325;-0.5566;0.4534;
2823271728282;-8.7987;-6.0305;-0.4905;
2823281853178;-17.3172;0.6984;5.2445;
2823291963022;-12.0374;3.3048;9.0532;
2823302072865;-2.4123;1.2903;-5.5834;
2823312178178;-14.5980;-0.9185;-13.8308;
2823322287969;-15.1756;-0.7268;-1.0822;
2823332397813;-2.2804;1.8485;-1.7192;
2823342497761;-4.7264;-0.9927;-9.7729;
2823352607553;-10.7342;-1.7952;-6.1678;
2823362717397;-9.7208;1.4291;-3.9377;
2823372835157;-7.3974;0.8399;-2.4978;
2823382944949;-7.0810;-1.0262;-1.1396;
2823393054792;-9.7735;-1.0047;-0.8617;
2823403171615;-11.9222;-0.5758;-0.0999;
2823413281407;-9.4382;0.0159;-0.3467;
2823423391303;-10.0804;0.7801;-1.3959;
2823433491719;-10.8156;-0.0248;-2.1505;
2823443601511;-10.3463;1.3908;-2.9841;
2823453711355;-9.6180;1.4363;-3.4011;
2823463829740;-7.9531;1.8126;-2.4069;
2823473939532;-6.6619;1.1489;-2.8427;
2823484049376;-10.3869;0.2865;-3.7364;
2823494149115;-12.0996;-0.0631;-4.3543;
2823504258907;-12.8877;0.8088;-1.9469;
2823514368751;-9.5315;-0.6598;-2.0043;
2823524473699;-8.4057;-0.9760;-1.0295;
2823534583490;-7.0690;-1.2610;-2.3109;
2823544693386;-10.4133;-0.0682;-5.0180;
2823554810261;-11.7763;0.1905;-3.6141;
2823564920053;-6.6428;0.1499;-3.2189;
2823575029897;-7.9890;-0.0993;-4.0741;
2823585107188;-8.2406;-0.0511;-1.7767;
2823595217084;-7.5458;-0.5853;-4.0214;
2823605326928;-11.3856;-0.6383;-5.9450;
2823615490886;-11.7954;-0.6407;-4.1722;
2823625600678;-7.6705;-0.6646;-3.0248;
2823635710574;-9.5076;-0.8441;-2.8594;
2823645791303;-11.5343;-0.6048;-1.7073;
2823655901094;-8.3483;-0.1328;1.6534;
2823666010938;-7.1985;-0.2668;-1.3816;
2823676135886;-11.5391;-2.0850;-3.4059;
2823686245678;-11.5271;-0.6766;-0.9526;
2823696355522;-7.2368;-0.5112;-2.9530;
2823706464115;-8.0847;-0.9592;-3.9087;
2823716573959;-6.7552;-1.3089;-3.6595;
2823726683803;-10.1569;-1.3496;-4.6537;
2823736806563;-12.5046;-1.1076;-4.0119;
2823746916355;-9.1173;-1.7952;-1.7312;
2823757026199;-7.2679;-1.2873;-3.5207;
2823767116199;-9.1268;-1.9822;-4.3232;
2823777225990;-10.1115;-2.2887;-1.6522;
2823787335834;-9.0981;-0.8441;-3.2548;
2823797443386;-12.4277;0.0661;-3.0153;
2823807553178;-10.3798;-0.5590;0.3239;
2823817663022;-9.2058;-0.1759;-0.2438;
2823827787344;-9.7974;-0.4155;-1.5996;
2823837897136;-8.4778;-0.2740;-3.3123;
2823848006980;-7.4142;-0.3437;-5.1712;
2823858102865;-11.1703;-0.5303;-5.3103;
2823868212657;-11.0695;-0.9114;-4.2730;
2823878322501;-7.1216;0.2387;-3.6476;
2823888418022;-10.5281;0.1499;-3.9879;
2823898527865;-12.1546;0.4540;-1.1707;
2823908637709;-4.1632;0.5070;-1.1755;
2823918765105;-1.0828;-0.7795;-7.1692;
2823928875001;-12.5692;-0.8010;-8.1248;
2823938984844;-22.3932;1.2230;-0.9694;
2823949080001;-13.5440;2.0976;5.9680;
2823959189844;-5.2869;0.3727;1.6487;
2823969299636;-3.4807;-1.2802;-7.0229;
2823979401459;-13.4172;-1.1028;-5.6647;
2823989511355;-15.2641;0.2483;1.6654;
2823999621147;-8.7194;1.5802;1.8476;
2824009732449;-8.3889;0.2650;-5.6623;
2824019842240;-9.6921;-0.2213;-3.3482;
2824029952084;-8.9877;-0.0754;3.1627;
2824040061094;-3.0948;1.0531;-0.8952;
2824050170938;-9.9509;-2.3318;-14.2190;
2824060280782;-15.9132;-1.9316;-10.6137;
2824070402761;-7.8380;-0.8850;0.8198;
2824080512605;-3.2483;-0.1639;-1.3863;
2824090622449;-6.9757;-0.9855;-4.6178;
2824100749219;-10.5353;-0.9114;-3.9039;
2824110859063;-13.0173;0.8040;-1.3289;
2824120968907;-9.4789;-0.5112;1.1240;
2824131082553;-7.3828;-0.7149;1.7399;
2824141192657;-11.5606;-0.8584;-1.5060;
2824151302761;-14.5478;-1.0430;-0.2533;
2824161413230;-11.2253;-1.3926;1.2751;
2824171523334;-9.9867;-1.2227;-1.0822;
2824181633386;-8.7939;-0.4657;-1.1133;
2824191725678;-6.9398;-0.8058;1.8523;
2824201835782;-7.7471;-0.5614;-1.2162;
2824211945834;-9.6945;0.0470;-5.1233;
2824222057240;-8.8035;-0.0607;-3.3147;
2824232167344;-7.1339;-0.3266;-2.7446;
2824242277397;-6.8318;-0.4394;-4.9340;
2824252394219;-7.7853;-0.9090;-5.7748;
2824262504324;-10.1880;-1.5413;-5.7867;
2824272614376;-9.7735;-0.0224;-3.8369;
2824282723594;-10.9762;-0.2979;-0.6724;
2824292833699;-12.8949;1.0531;2.0560;
2824302943751;-9.3784;2.3058;3.5004;
2824313068230;-7.5984;0.3033;0.8653;
2824323178334;-11.0958;0.7681;-1.7671;
2824333288386;-10.6385;0.0398;1.1169;
2824343383647;-11.1631;0.0398;1.1722;
2824353493751;-14.2029;-0.3891;-0.0855;
2824363603803;-8.2478;-0.3796;0.4702;
2824373708022;-6.6667;-1.0860;-1.9828;
2824383818126;-9.0885;0.0422;-3.4705;
2824393928230;-6.1110;-0.5566;-3.1783;
2824404051928;-7.2153;0.1092;-7.1668;
2824414162032;-11.9103;-0.3987;-5.9402;
2824424272136;-9.9748;0.8207;-2.9100;
2824434376928;-9.6802;-0.8898;-3.6595;
2824444487032;-12.2195;-1.2108;-2.8956;
2824454597084;-8.0106;-0.4107;-0.5288;
2824464693438;-8.7099;-1.5867;-1.4318;
2824474803542;-13.0074;-0.8608;-2.3686;
2824484913647;-13.2398;0.3344;0.5109;
2824495023282;-8.0345;-0.1472;-0.8282;
2824505133334;-4.4677;0.2339;0.0628;
2824515243438;-9.1316;0.1570;-1.5685;
2824525357032;-10.8634;-0.5016;-5.2167;
2824535467136;-8.2502;0.3081;-6.6685;
2824545577188;-9.1460;-0.5088;-6.4385;
2824555690782;-8.8896;-0.9233;-7.5165;
2824565800886;-8.8825;0.2602;-4.5796;
2824575910938;-7.2272;-0.2118;-2.1745;
2824585999844;-8.6118;-0.6981;-3.2812;
2824596109949;-9.1771;0.2291;-3.8608;
2824606220001;-11.7715;0.9882;-2.2199;
2824616352344;-7.5171;0.7657;0.3529;
2824626462397;-6.2115;-0.0873;-1.8631;
2824636572501;-13.9298;-0.3772;-3.9832;
2824646674740;-12.7968;1.3980;-0.8713;
2824656784792;-3.6748;0.8542;-1.2281;
2824666894897;-5.6629;-0.6933;-4.0478;
2824677022605;-10.7103;0.0039;-3.3529;
2824687132709;-9.9580;0.4325;-2.0474;
2824697242813;-9.2178;1.6831;-3.2859;
2824707320365;-11.4314;0.5213;-2.4093;
2824717430469;-10.7797;0.0852;-1.2042;
2824727540522;-11.1679;-0.9305;-0.2892;
2824737676824;-7.6777;-1.1605;1.4285;
2824747786928;-7.0738;-1.0836;-2.0907;
2824757896980;-14.5549;-0.3389;-3.7029;
2824767993699;-14.6868;0.4684;1.1097;
2824778103751;-5.1838;-0.0224;3.0766;
2824788213855;-2.6734;0.1044;-1.6140;
2824798308386;-8.3746;-0.6383;-7.2745;
2824808418438;-5.3898;-0.1591;-5.0827;
2824818528542;-1.5930;-0.5447;-8.3477;
2824828662084;-26.0366;-0.9209;-7.1716;
2824838772188;-28.1614;-0.7723;4.1378;
2824848882240;-4.8652;0.2243;7.4937;
2824858992397;0.9870;-2.7126;1.5099;
2824869102501;-7.7183;-2.6767;-2.8283;
2824879212553;-12.0541;-0.7316;0.2713;
2824889311928;-10.5090;2.3515;-1.2353;
2824899422032;-7.9460;0.6697;-4.4668;
2824909532136;-8.6620;-0.2524;-3.9159;
2824919647865;-10.9211;0.1116;-0.4496;
2824929757969;-4.2832;-1.1653;4.5449;
2824939868074;-1.2072;-1.5437;-11.0713;
2824949967032;-24.9778;-2.4996;-22.7495;
2824960077136;-20.2852;-0.4561;0.3455;
2824970187188;1.2170;1.4530;6.7032;
2824980294011;0.4385;-2.0109;-4.8359;
2824990404115;-11.4649;-1.5317;-1.9828;
2825000514167;-16.2126;2.2053;5.2995;
2825010625782;-11.1317;0.2698;3.4214;
2825020735834;-6.4463;0.0494;-2.0019;
2825030845938;-7.5601;0.1379;-4.7136;
2825040954063;-12.7466;-0.6598;-3.1950;
2825051064167;-11.2158;1.0002;-3.1158;
2825061174219;-7.8978;-0.2261;-6.3667;
2825071299636;-8.4658;-0.5590;-4.4501;
2825081409740;-6.2569;0.6984;-3.8321;
2825091519792;-10.0851;-0.0802;-3.8130;
2825101621147;-10.0274;-0.3652;-1.3169;
2825111731251;-8.8705;0.4373;-1.9158;
2825121841303;-10.3726;-1.0765;-2.5744;
2825131939844;-12.4660;0.3320;-1.7360;
2825142049844;-12.9523;0.1834;0.5013;
2825152159844;-7.5386;0.8231;1.0905;
2825162307397;-6.3577;0.3464;-2.2606;
2825172417397;-13.4650;0.5381;-4.4309;
2825182527397;-13.1465;1.3190;-1.7527;
2825192617813;-6.8198;-0.0272;-1.1468;
2825202727813;-7.1363;-0.6335;-3.4920;
2825212837813;-8.8992;-0.6168;-3.9999;
2825222935990;-8.6046;0.1546;-4.2754;
2825233045990;-10.0851;-0.1663;-4.6011;
2825243155990;-9.2779;-0.1878;-3.8776;
2825253280053;-7.0355;-0.0200;-3.8082;
2825263390053;-7.6944;-0.1902;-3.7819;
2825273500053;-8.3865;0.2818;-3.2405;
2825283604324;-7.7255;-0.1807;-2.9650;
2825293714324;-10.0609;-0.4848;-4.1818;
2825303824324;-9.9341;-0.9592;-2.1147;
2825313927344;-9.0120;-0.5806;-0.8737;
2825324037344;-12.7032;-0.5423;-1.3911;
2825334147344;-13.8796;-0.0921;2.1924;
2825344253490;-6.9206;-0.2213;3.0766;
2825354363490;-8.6405;-1.1533;-2.1242;
2825364473490;-12.4038;-0.7531;-2.9076;
2825374597344;-9.1675;0.1068;0.1875;
2825384707344;-6.7337;-0.7651;-1.5156;
2825394817344;-6.6882;-1.6466;-4.3783;
2825404920678;-9.6969;-1.9292;-3.1062;
2825415030678;-5.7610;-0.5662;-3.8895;
2825425140678;-5.9527;-0.4394;-6.6446;
2825435246980;-11.3043;-1.0430;-5.8205;
2825445356980;-12.2554;-1.1028;-2.9578;
2825455466980;-11.5846;-0.9162;-1.6881;
2825465576928;-11.1679;-0.9497;-0.6485;
2825475686928;-9.8384;-0.9138;0.3482;
2825485796928;-9.2417;-1.7091;0.3912;
2825495910313;-9.3688;-1.4503;0.8629;
2825506020313;-9.6180;-0.2620;0.8605;
2825516130313;-9.3664;-0.1400;-2.8499;
2825526244063;-8.2238;-0.6622;-2.5600;
2825536354063;-5.7538;-0.0296;0.8318;
2825546464063;-6.7337;-1.3472;-5.1592;
2825556567344;-13.8197;-0.5207;-10.8652;
2825566677344;-12.6434;-1.4647;-4.4719;
2825576787344;-8.3985;-0.8850;0.0772;
2825586916199;-7.5673;-1.3400;-4.3687;
2825597026199;-7.7183;-0.7053;-3.7244;
2825607136199;-10.0804;-0.0897;-0.4208;
2825617237969;-10.1067;0.7490;0.1923;
2825627347969;-8.3052;0.2746;0.6882;
2825637457969;-9.2536;0.0637;-0.2151;
2825647560678;-6.9948;1.2470;-0.3132;
2825657670678;-12.3583;0.0494;-6.3715;
2825667780626;-13.9466;-0.2357;-4.1770;
2825677889011;-4.4411;-0.6048;0.1851;
2825687999011;-6.3168;-1.5437;-3.4059;
2825698109011;-13.1489;-0.3772;-6.0287;
2825708216719;-12.7176;1.4076;0.8246;
2825718326719;-6.6715;0.3703;4.3750;
2825728436719;-7.1387;1.3478;-2.1769;
2825738537397;-10.6074;-0.2716;-3.2596;
2825748647344;-9.8049;0.1116;-0.8450;
2825758757397;-9.2994;0.1259;-1.1611;
2825768943855;-8.2621;-0.9951;-4.2491;
2825779053855;-11.1942;-1.0238;-3.6838;
2825789163855;-11.8313;-0.2955;0.0990;
2825799200261;-13.0149;1.1824;0.4989;
2825809310209;-7.5386;0.0422;0.7720;
2825819420209;-5.7036;-0.4825;-1.2667;
2825829578074;-9.6562;-0.4370;-4.4692;
2825839688074;-10.0875;0.5094;-3.8632;
2825849798074;-11.1823;-0.5088;-1.3672;
2825859857657;-11.9680;-0.5064;-0.6748;
2825869967657;-10.1521;-0.6718;-0.9407;
2825880077657;-11.0791;-0.9903;-0.3179;
2825890190313;-7.9265;-0.2405;-1.0295;
2825900300313;-5.7948;-0.6957;-3.8871;
2825910410313;-9.1962;-0.8273;-6.4816;
2825920534584;-12.8973;-1.3424;-4.4237;
2825930644584;-10.2526;0.7056;-0.3921;
2825940754584;-9.7424;0.0805;-0.3371;
2825950861928;-9.5052;0.5788;-1.4557;
2825960971928;-4.2401;-1.1749;-1.5900;
2825971081928;-10.0633;-1.4121;-4.6801;
2825981172136;-16.9696;0.1307;-4.6513;
2825991282136;-11.7165;-0.3556;-0.8737;
2826001392136;-6.4726;0.0996;0.0030;
2826011513594;-4.9394;0.1738;-0.6987;
2826021623594;-12.0254;-0.4178;-0.9048;
2826031733594;-11.2469;0.3033;-2.3518;
2826041846094;-5.9815;-0.9281;-2.2534;
2826051956094;-8.1494;-0.6861;-5.7078;
2826062066094;-12.0206;-1.0430;-5.2621;
2826072177240;-7.8811;0.0757;-0.8928;
2826082287240;-2.5343;0.4588;-2.6824;
2826092397240;0.1582;0.1499;-9.8498;
2826102499428;-13.5730;-0.8225;-8.6758;
2826112609428;-41.7272;2.1957;2.9231;
2826122719428;-14.5549;1.8341;14.4479;
2826132833647;4.5514;-1.9845;3.3951;
2826142943647;-3.7131;-3.8746;0.2330;
2826153053647;-12.2363;-0.2405;-1.6522;
2826163150730;-7.8284;-0.3820;-1.5781;
2826173260782;-7.3062;-1.2873;-3.5207;
2826183370730;-10.9140;-1.2849;-6.6108;
2826193496719;-8.4057;1.0747;-3.6957;
2826203606719;-5.6868;0.0278;2.2140;
2826213716719;1.2960;-0.4513;2.5256;
2826223826511;-10.3869;-0.8922;-21.9230;
2826233936511;-28.0226;0.0613;-24.3640;
2826244046511;-8.6237;-2.1257;6.7630;
2826254166980;2.1296;-3.0434;12.2297;
2826264276980;-10.1641;-1.0741;-1.5924;
2826274386980;-17.5014;3.1540;-0.3945;
2826284475574;-11.5702;1.7357;8.6581;
2826294585574;-5.0043;-0.3051;6.5979;
2826304695574;-11.5223;-0.6622;-1.3911;
2826314807032;-12.2049;0.7442;-0.0616;
2826324917032;-6.7648;-0.0272;0.3144;
2826335027032;-6.0365;-0.2213;-7.1019;
2826345143803;-11.9366;-0.3652;-8.8220;
2826355253855;-12.4974;-0.3075;-2.7876;
2826365363855;-5.9767;-0.7005;-2.6249;
2826375469844;-9.3090;0.0781;-5.5977;
2826385579844;-13.0026;0.2219;-2.5409;
2826395689844;-9.6251;0.0685;0.6380;
2826405808594;-6.7576;-1.0980;-1.3696;
2826415918594;-10.4181;-0.5590;-1.4988;
2826426028594;-8.9207;0.0111;-0.3419;
2826436140053;-6.1253;0.2195;0.4606;
2826446250053;-10.2048;-0.2907;-2.7924;
2826456360053;-13.3717;0.7295;-5.1329;
2826466449636;-7.7255;0.1762;-3.8776;
2826476559636;-7.4501;0.9404;-4.0717;
2826486669636;-8.9877;0.9045;-4.5245;
2826496798803;-9.9341;1.1489;-2.8642;
2826506908803;-10.4157;0.2961;-3.2429;
2826517018803;-8.6381;0.2698;-1.7527;
2826527126511;-7.4070;0.5501;0.0317;
2826537236511;-10.2574;-0.3820;0.6284;
2826547346511;-11.6635;0.9452;-0.4256;
2826557450261;-7.1865;-0.2859;0.5539;
2826567560261;-8.9064;-0.2381;-2.2774;
2826577670261;-12.2267;1.6400;-4.5820;
2826587793334;-7.5888;-0.0296;-1.0223;
2826597903386;-6.8246;-0.1519;-2.0234;
2826608013386;-10.0179;0.1235;-6.0120;
2826618110782;-9.4765;0.2746;-3.8632;
2826628220782;-9.2513;-0.4777;-1.3768;
2826638330782;-12.2722;-1.1315;-1.8631;
2826648429324;-10.0732;-1.3591;-0.2151;
2826658539324;-6.3410;-1.2323;-0.2127;
2826668649324;-10.7031;-0.3413;-2.0282;
2826678783438;-12.8542;-0.4298;-1.6451;
2826688893490;-11.7858;-0.0993;0.0461;
2826699003490;-9.5243;-1.1148;0.5563;
2826709100105;-5.4855;-0.7484;-1.0319;
2826719210105;-9.5124;-0.4035;-3.8417;
2826729320105;-12.7271;-1.5724;-2.7924;
2826739440469;-8.2502;0.3153;-2.2558;
2826749550469;-5.5119;-1.9606;-4.5508;
2826759660522;-9.4597;-0.3003;-5.7843;
2826769743282;-12.5907;-0.2261;-4.4477;
2826779853282;-9.6634;-0.1232;-0.4400;
2826789963282;-6.3458;-1.2395;-0.5958;
2826800099897;-9.4382;-0.6718;-2.8642;
2826810209897;-13.1919;-0.1208;-2.2726;
2826820319897;-7.4070;-0.7388;-0.6796;
2826830433699;-3.1693;-0.6024;-1.5132;
2826840543699;-18.0595;-0.2931;-2.9291;
2826850653699;-17.9160;-0.0057;0.0870;
2826860745053;-2.8146;-0.1926;2.8107;
2826870855053;-4.6496;-0.9808;-1.9851;
2826880965053;-13.6256;-0.0200;-2.4476;
2826891100209;-11.8552;-0.3389;-0.8043;
2826901210209;-5.2941;0.2889;-2.3686;
2826911320261;-8.8107;-1.5556;-5.2959;
2826921406094;-13.6902;0.2411;-4.8144;
2826931516094;-9.5124;0.1355;-0.0138;
2826941626094;-4.2425;-1.3687;1.7136;
2826951745574;-4.1345;0.3918;-5.1832;
2826961855574;-18.5100;-0.5949;-10.6161;
2826971965574;-17.2403;0.5524;-1.5685;
2826982075782;-1.1665;-0.1017;4.8347;
2826992185782;-4.4701;-1.4934;-2.6393;
2827002295782;-12.0900;-0.4968;-4.2203;
2827012398074;-11.9270;1.5419;-0.3754;
2827022508074;-9.3257;0.2243;-1.5326;
2827032618074;-8.2358;-0.5303;-4.4791;
2827042723594;-13.4195;0.5429;-3.1181;
2827052833594;-8.4033;-0.6981;-0.5216;
2827062943594;-5.6222;0.1857;-2.2678;
2827073065574;-10.6768;-0.2142;-5.1927;
2827083175574;-10.6170;1.0627;-3.5279;
2827093285574;-6.4798;-1.1462;-1.5613;
2827103381824;-8.8322;0.3392;-3.9832;
2827113491824;-12.4783;0.1714;-2.7326;
2827123601824;-8.8968;-0.1472;-0.7971;
2827133710574;-5.8403;-1.0047;-1.7145;
2827143820522;-10.1545;-0.0105;-4.1195;
2827153930522;-13.1656;-0.2931;-4.5628;
2827164035001;-9.3281;0.9188;-0.9670;
2827174144949;-6.8991;-0.1352;-0.0114;
2827184254949;-10.2431;-0.2405;-4.8981;
2827194375886;-9.6754;-0.2620;-1.0056;
2827204485834;-9.7017;0.8686;0.5157;
2827214595834;-8.8274;0.2363;-2.1194;
2827224726407;-9.8839;0.0015;-5.2597;
2827234836407;-10.5281;-0.5088;-2.3109;
2827244946355;-6.5396;0.1929;0.1110;
2827255043647;-8.1805;-0.0248;-4.2514;
2827265153647;-13.4315;0.6721;-4.2921;
2827275263594;-9.6586;0.7825;1.4883;
2827285369636;-5.6629;0.2315;-0.7202;
2827295479584;-9.5486;-0.0057;-6.3114;
2827305589584;-13.1728;-0.3266;-0.3323;
2827315702397;-11.1440;0.2626;1.4979;
2827325812344;-10.1067;0.3464;-1.1492;
2827335922344;-3.7705;-1.2084;-1.9828;
2827346003022;-8.4296;-0.2620;-4.6609;
2827356113022;-16.9217;-0.6550;-2.7159;
2827366223022;-12.4540;0.0326;3.0165;
2827376352657;-4.5562;-0.9425;0.4534;
2827386462605;-7.7877;-1.1148;-4.0669;
2827396572605;-10.9044;-0.9832;-3.0846;
2827406665678;-10.2861;0.1068;-0.5216;
2827416775574;-8.2525;-0.7627;-2.2893;
2827426885574;-7.4261;-0.8827;-6.3667;
2827436995522;-11.5128;-1.0621;-4.6777;
2827447117709;-15.1083;-0.6814;0.4463;
2827457227709;-10.3340;-0.9042;4.1139;
2827467337709;-4.0914;-2.3031;-2.0788;
2827477468074;-8.5280;-1.9292;-6.3257;
2827487578022;-12.2794;-0.4825;-3.9568;
2827497688022;-11.7045;-0.1687;1.0594;
2827507791147;-6.8438;-0.7914;-0.0209;
2827517901094;-7.8619;-0.5518;-3.8824;
2827528011094;-8.8274;-1.3424;-3.9664;
2827538112136;-8.0536;-0.2022;-3.9879;
2827548222084;-9.9891;-0.6502;-1.7169;
2827558332084;-9.0431;-1.5102;-4.7303;
2827568443803;-13.8867;-0.8707;-5.6551;
2827578553751;-13.4291;-0.4370;-1.2329;
2827588663751;-8.9207;0.9452;2.5711;
2827598782397;-10.0947;-1.4767;1.8906;
2827608892397;-9.1579;0.4038;-1.2978;
2827619002397;-5.1503;-0.7268;-3.6667;
2827629108386;-6.5779;0.6075;-5.6958;
2827639218386;-13.4315;1.8963;-5.2645;
2827649328334;-12.8471;2.1790;1.3684;
2827659450053;-5.2702;0.6147;-0.7612;
2827669560053;-5.9456;0.4158;-8.8555;
2827679670001;-12.3129;0.3990;-6.3090;
2827689750626;-12.2578;0.5070;-1.8870;
2827699860574;-6.4630;0.1283;-2.1027;
2827709970574;-8.1781;0.3535;-5.6767;
2827720100365;-10.0274;-0.1759;-4.8191;
2827730210313;-10.2718;0.2291;1.1025;
2827740320313;-9.1149;1.6639;3.1842;
2827750423594;1.6313;0.5788;-0.0808;
2827760533542;-9.9245;0.8136;-8.2086;
2827770643542;-43.6436;1.4865;-2.8307;
2827780761459;-13.0986;0.9906;15.1451;
2827790871459;14.6605;-4.3825;2.8585;
2827800981407;-6.9972;-0.3891;-14.3749;
2827811076407;-16.9146;0.5572;-4.4477;
2827821186355;-11.8648;-1.4910;4.3101;
2827831296355;-11.2014;-0.6455;-3.3458;
2827841409636;-4.6543;0.0565;-5.8158;
2827851519584;-5.1239;-1.0119;-3.4370;
2827861629584;-12.3009;-1.7474;0.7002;
2827871765469;-1.6361;-1.0262;0.1469;
2827881875417;-9.1843;-0.6646;-23.8011;
2827891985417;-23.6076;-0.5040;-12.6882;
2827902070157;-8.6955;-2.8086;12.9628;
2827912180105;0.3138;-1.0813;4.2024;
2827922290105;-10.2503;-1.3232;-5.3246;
2827932405886;-12.8806;-0.9616;1.1288;
2827942515834;-12.3416;-1.4623;3.3401;
2827952625834;-10.8610;-1.9487;1.2153;
2827962731928;-5.2774;-1.2156;-2.1338;
2827972841876;-12.2937;-1.6899;-2.1769;
2827982951876;-9.5438;-0.3123;-2.7757;
2827993069167;-6.8991;-1.7545;-4.2921;
2828003179115;-7.7303;-2.8325;-3.4657;
2828013289115;-6.6643;-1.9630;-5.4084;
2828023400990;-7.9460;-1.2108;-5.1066;
2828033510938;-15.5851;-1.4647;0.2665;
2828043620938;-14.3659;-0.1137;2.1589;
2828053719011;-8.9782;-1.1509;-0.4953;
2828063828959;-8.0560;-1.5461;-2.3276;
2828073938959;-7.2416;-1.6561;1.3708;
2828084063074;-9.6491;-0.2620;-1.9110;
2828094173074;-14.9384;-0.2094;-5.6839;
2828104283022;-10.7940;0.7705;0.2856;
2828114378647;-7.2129;2.0542;-0.6772;
2828124488594;-13.7836;0.9428;-1.4318;
2828134598594;-2.2038;2.5190;0.0823;
2828144699480;-4.0005;0.2578;-5.4467;
2828154809480;-15.1131;0.7896;-12.4008;
2828164919480;-13.1249;2.4592;-3.2357;
2828175055053;-7.3373;1.1058;-0.9936;
2828185165001;-10.6720;0.0015;-4.7016;
2828195275001;-8.0249;-1.0119;1.1985;
2828205367657;-10.9092;-0.2477;-1.4868;
2828215477605;-8.6931;-0.5423;-1.1587;
2828225587553;-7.6343;-0.8680;0.9374;
2828235702657;-13.5296;-0.0105;-2.0474;
2828245812605;-11.0169;0.9571;-1.6235;
2828255922553;-7.4692;-0.6215;-0.8450;
2828266000001;-9.1914;-0.5231;-2.5672;
2828276110001;-8.4535;-1.1629;-1.8655;
2828286219949;-10.6648;-1.0478;-3.8249;
2828296356928;-11.8600;-1.2132;-3.7268;
2828306466876;-7.8715;-2.0228;-1.3935;
2828316576824;-7.2224;-1.3950;-2.5839;
2828326684219;-8.5687;-1.3017;-1.0343;
2828336794167;-7.0307;-1.5604;-1.6235;
2828346904167;-9.8097;-0.8680;-5.1736;
2828357024324;-10.0250;-0.2166;-3.1759;
2828367134272;-6.7744;-1.9630;-1.1085;
2828377244219;-10.4803;-2.2385;-3.8417;
2828387342136;-14.4329;-0.1232;-2.6106;
2828397452084;-8.0201;-2.0683;0.1804;
2828407562032;-6.9876;-0.9592;-1.7671;
2828417680990;-11.2636;0.7442;-2.4811;
2828427790938;-10.3558;0.4014;0.0485;
2828437900886;-6.7313;-0.5112;0.3239;
2828448004324;-6.7433;-0.3604;-2.3013;
2828458114272;-11.8983;-0.0511;-3.7603;
2828468224219;-14.1550;0.6003;-1.3863;
2828478351928;-10.2670;0.1905;1.4907;
2828488461876;-6.4654;0.2913;-2.4906;
2828498571876;-9.1412;0.7319;-6.4768;
2828508660782;-12.5955;1.9466;-1.3265;
2828518770730;-9.6945;1.3190;3.0646;
2828528880730;-7.2990;0.4902;-3.1567;
2828538995261;-11.8840;1.2470;-3.8943;
2828549105157;-11.4338;1.8389;1.5673;
2828559215157;-5.4975;0.2889;-0.0736;
2828569328282;-9.0909;-0.1711;-5.5280;
2828579438230;-13.4243;0.4831;-5.7054;
2828589548230;-9.2465;-0.1567;-2.1960;
2828599652240;-6.0078;0.0326;-1.8057;
2828609762188;-8.2358;-0.5686;-4.4022;
2828619872136;1.6050;1.4076;-5.6169;
2828629997657;-1.1737;-0.5471;-8.1607;
2828640107605;-61.0828;0.0230;-0.7469;
2828650217553;-15.6616;2.7897;18.9921;
2828660323230;25.5242;-4.0756;2.5926;
2828670433178;-4.6543;-2.0970;-13.0188;
2828680543126;-21.1546;1.3884;-4.6561;
2828690644324;-9.6778;-0.9640;3.4047;
2828700754272;-2.4625;-0.3987;-2.2271;
2828710864219;-8.8585;1.3023;-11.1000;
2828720967136;-10.9475;0.1810;-5.7843;
2828731077136;-11.4673;1.5969;5.1628;
2828741187084;6.8321;-0.3147;10.8547;
2828751301094;-8.4320;-1.3448;-36.0709;
2828761411042;-38.1386;0.4301;-31.8524;
2828771520990;-7.6104;-0.9903;26.5451;
2828781632032;7.2177;-2.6862;19.5215;
2828791741980;-10.9570;0.1618;-11.7781;
2828801851928;-13.4626;3.9156;-4.2969;
2828811954272;-7.2918;1.7237;9.9730;
2828822064272;-8.3483;0.5788;2.3195;
2828832174219;-12.8949;0.5524;-6.2228;
2828842308386;-15.6233;-0.0464;-1.8009;
2828852418334;-4.2808;-1.3137;0.1851;
2828862528282;-3.0972;-1.0214;-9.1334;
2828872651615;-11.6539;-1.2586;-8.9656;
2828882761563;-8.2789;-1.6947;-0.0736;
2828892871511;-9.0000;-0.6861;-2.9770;
2828902972449;-12.2124;-1.4408;-3.1902;
2828913082397;-9.3114;-0.2142;4.2694;
2828923192397;-9.3832;-1.4360;1.2846;
2828933305053;-10.6792;-0.7938;-0.6485;
2828943415001;-8.1446;-0.2213;-3.6766;
2828953524949;-9.5845;0.2267;-4.9914;
2828963624428;-10.6074;-0.3389;-2.0282;
2828973734376;-8.4033;-1.0214;0.7624;
2828983844324;-10.6457;0.4564;-0.3275;
2828993947397;-9.9437;-0.5997;-1.0558;
2829004057344;-11.0815;0.1187;-0.6796;
2829014167292;-8.4464;0.3176;-1.2906;
2829024272969;-9.4262;-0.9066;-3.4705;
2829034382917;-10.7845;-1.4527;-4.6777;
2829044492865;-8.4826;-1.1677;-4.0717;
2829054602032;-11.4745;-0.9162;1.1025;
2829064711980;-10.7342;0.5620;0.6066;
2829074821928;-9.0000;0.4134;-1.0606;
2829084933594;-9.4908;0.5692;-1.2257;
2829095043542;-7.1554;0.2650;-0.6245;
2829105153542;-11.5343;0.4038;-4.2562;
2829115253542;-13.1967;0.9547;-3.2716;
2829125363542;-5.0569;-0.4490;-0.8976;
2829135473490;-8.7844;-0.4872;-4.4982;
2829145583803;-10.6122;-0.5877;-5.3821;
2829155693751;-6.7122;-0.2668;-1.2667;
2829165803751;-8.0489;-0.8898;-1.4868;
2829175916824;-13.4195;0.8016;-5.5137;
2829186026772;-13.4650;0.1403;0.0748;
2829196136719;-9.1531;-0.3461;2.0560;
2829206245053;-8.2071;0.1666;-2.5457;
2829216355001;-10.1210;-1.1629;-1.8224;
2829226464949;-11.1269;-1.0813;-0.9024;
2829236571876;-8.1159;-1.2514;1.3253;
2829246681876;-6.9470;-0.5734;-2.3303;
2829256791824;-13.7931;-0.4346;-5.4275;
2829266925053;-11.0647;-0.3242;0.6236;
2829277035001;-3.1717;-0.6311;-0.6221;
2829287144949;-8.4706;-0.2692;-5.4993;
2829297245157;-11.9465;-0.1496;-4.9962;
2829307355105;-10.5425;-0.3748;-2.4835;
2829317465053;-7.2296;-0.0945;-3.7627;
2829327565574;-9.3473;-1.4551;-2.7709;
2829337675522;-9.2369;-0.6407;-0.7373;
2829347785469;-7.7255;-0.5997;-1.4725;
2829357898490;-7.9603;1.0603;-2.4619;
2829368008438;-12.2073;-0.6239;-1.9134;
2829378118386;-25.2245;0.6505;3.1603;
2829388221303;-13.2685;0.1834;7.9298;
2829398331251;1.3487;-1.5030;3.4669;
2829408441199;-6.9230;0.1834;-6.8794;
2829418557553;-16.1192;0.1475;-5.8253;
2829428667501;-9.9604;-1.9965;1.4067;
2829438777449;-1.3367;-2.1784;-0.5264;
2829448912397;-10.8156;-0.0631;-9.1789;
2829459022344;-14.1933;0.8925;-4.8885;
2829469132292;-8.2286;0.2602;4.3364;
2829479201199;-1.2096;-1.3400;1.6223;
2829489311147;-7.7997;1.9585;-16.5476;
2829499421147;-19.4563;0.6769;-17.5968;
2829509585365;-11.5678;-1.1291;5.7308;
2829519695313;-2.3094;-1.0884;9.5157;
2829529805261;-5.6677;0.6697;-3.9449;
2829539868594;-17.1900;1.2422;-4.5987;
2829549978542;-16.6199;0.7319;5.3545;
2829560088490;-4.3358;0.6697;5.9438;
2829570195105;-4.9561;0.7705;-2.7374;
2829580305105;-13.5153;-1.2778;-5.4179;
2829590415053;-12.5979;-1.1124;-0.1310;
2829600552553;-7.2248;-0.5423;-2.2630;
2829610662501;-6.7696;-1.1291;-3.9592;
2829620772449;-9.6395;-1.4695;-3.7962;
2829630848803;-11.1221;-0.6168;-3.2501;
2829640958751;-9.6227;-0.6861;-1.2619;
2829651068699;-6.4606;-0.9042;-2.3853;
2829661204844;-8.6764;-0.4705;-4.0789;
2829671314792;-9.3257;0.0613;-3.5064;
2829681424740;-9.6634;-1.2682;-2.1458;
2829691526928;-9.8647;-0.7412;-1.2042;
2829701636876;-11.4048;-1.0095;-1.1348;
2829711746824;-8.4897;-1.6875;-0.6245;
2829721846094;-9.6706;-1.2227;-1.1898;
2829731956094;-12.9356;-1.3448;-0.6843;
2829742066042;-11.0743;-1.2036;-2.7661;
2829752191094;-7.9388;-0.8608;-1.3528;
2829762301042;-5.1479;-0.1448;0.2186;
2829772410990;-8.8346;-0.8850;-5.4897;
2829782510261;-12.8877;-0.1878;-4.5652;
2829792620209;-10.9259;-1.1964;0.1373;
2829802730157;-6.4510;-0.7196;-2.2917;
2829812841615;-8.1589;-1.9654;-3.8943;
2829822951563;-11.8600;-0.8393;-2.8379;
2829833061511;-11.0575;-0.3437;-1.5685;
2829843183386;-7.0810;-0.3843;-3.7316;
2829853293334;-9.0526;-0.5447;-4.3711;
2829863403282;-10.1450;0.3153;-1.7503;
2829873507761;-8.6764;0.6051;-0.7540;
2829883617709;-9.8839;0.6290;-2.0330;
2829893727657;-6.8632;0.5046;-2.4978;
2829903845365;-7.3708;0.2459;-4.3926;
2829913955313;-13.4722;0.3894;-4.4501;
2829924065261;-13.0843;0.5237;-1.3648;
2829934164949;-6.3936;0.9236;-1.6164;
2829944274897;-6.3864;0.9811;-3.2189;
2829954384844;-11.1221;0.0685;-2.6106;
2829964488074;-11.6806;0.9547;-0.9239;
2829974598022;-9.5004;1.1991;-0.2844;
2829984707969;-7.6247;0.5668;-1.9708;
2829994818386;-9.3999;-0.0969;-2.7876;
2830004928334;-10.0609;-0.1902;-1.2449;
2830015038282;-7.2129;0.0302;-0.4448;
2830025131876;-8.9566;0.4301;-5.1712;
2830035241824;-11.0049;0.5548;-5.2693;
2830045351824;-10.4898;0.8064;-1.4844;
2830055476459;-9.4669;0.2243;0.5611;
2830065586459;-7.8069;0.7175;-1.5661;
2830075696407;-10.0394;-0.8946;-3.4561;
2830085808386;-10.5449;-0.5901;-2.3590;
2830095918334;-8.8035;-0.3676;0.5396;
2830106028282;-10.0155;-1.4145;-1.4821;
2830116132709;-12.6625;-0.9903;-1.3504;
2830126242709;-9.3090;-1.1821;0.2234;
2830136352657;-6.1038;-0.6790;-0.8617;
2830146483490;-9.4071;-0.7316;-3.7771;
2830156593490;-10.2526;-1.2084;-2.4930;
2830166703490;-11.5965;-1.2514;-2.5265;
2830176801303;-10.9522;-0.7268;-3.5399;
2830186911251;-8.3554;-1.3759;-1.3911;
2830197021251;-7.1913;-1.5676;-1.8894;
2830207126615;-9.3736;-1.7067;-2.2989;
2830217236563;-9.0407;-0.8345;-3.6909;
2830227346563;-9.9963;-0.2740;-4.2443;
2830237462136;-11.0001;0.0087;-2.8594;
2830247572136;-10.0011;-0.3987;-0.8139;
2830257682084;-9.2513;-0.1902;-0.5121;
2830267794063;-10.7175;-0.9688;-2.5792;
2830277904063;-8.8801;-0.3461;-2.2606;
2830288014011;-8.5089;-0.1974;-1.9253;
2830298113647;-10.4970;-0.6096;-3.3793;
2830308223699;-9.3808;-0.6287;-2.0426;
2830318333647;-8.2573;0.1403;-2.7781;
2830328440001;-11.5032;0.6218;-2.4882;
2830338550053;-9.5797;0.0470;-0.9120;
2830348660053;-7.2703;-0.0129;-1.9756;
2830358791355;-8.4921;-0.4418;-4.8574;
2830368901355;-10.0609;-0.3987;-4.1195;
2830379011407;-9.5533;-0.2213;-2.2798;
2830389094272;-8.7437;0.3129;-2.7709;
2830399204272;-9.9461;-1.3831;-2.7422;
2830409314219;-10.5473;-1.3137;-1.6714;
2830419447136;-10.9379;0.0039;-0.7301;
2830429557136;-10.2239;-0.2070;-0.3778;
2830439667136;-9.1651;-0.5830;-2.0210;
2830449774532;-7.2703;-0.6335;-3.2166;
2830459884532;-8.9877;-0.2764;-3.6571;
2830469994532;-10.0804;-0.9784;-3.0775;
2830480104115;-10.9522;-0.7579;-0.8641;
2830490214115;-11.0456;-0.5495;-2.5409;
2830500324115;-7.9627;-1.2395;-1.6211;
2830510422917;-8.1350;0.1546;-3.2596;
2830520532969;-10.1521;-0.7914;-4.0190;
2830530642917;-7.8571;-0.3556;-2.6345;
2830540751459;-9.7304;-0.8417;-4.3448;
2830550861511;-11.6109;-0.4657;-3.7651;
2830560971459;-9.9221;-0.7747;0.3383;
2830571079584;-8.4754;-0.7029;0.2952;
2830581189584;-11.5080;-0.3700;-2.3949;
2830591299584;-10.2335;-0.5112;-1.9181;
2830601414636;-7.7327;-0.7005;-1.9636;
2830611524636;-8.1733;-0.2716;-4.5006;
2830621634584;-8.9806;-0.3218;-3.2381;
2830631748074;-8.8466;0.0374;-2.4380;
2830641858074;-9.1220;0.4660;-2.5768;
2830651968022;-9.4023;-0.9042;-3.1158;
2830662085469;-10.7868;0.3655;-2.3518;
2830672195469;-12.9500;-1.2610;-0.4881;
2830682305417;-11.5774;-0.2142;-2.0716;
2830692415990;-11.1488;-0.7029;-1.9540;
2830702525990;-8.3507;-0.7555;-0.4232;
2830712635938;-8.9471;0.2722;-0.3873;
2830722732969;-11.9198;-0.4226;0.0197;
2830732842969;-8.4488;0.2937;0.3529;
2830742952917;-3.6700;0.0685;-2.9148;
2830753073386;-6.7289;-0.0778;-6.1367;
2830763183386;-9.3784;-0.3003;-7.1426;
2830773293334;-5.5528;-0.7172;-6.3667;
2830783402032;1.2051;-1.1148;-10.4749;
2830793512032;-20.3139;-0.8417;-9.8064;
2830803621980;-28.4991;0.3296;3.6132;
2830813703126;-7.5577;1.3549;11.7553;
2830823813126;2.1057;-1.8574;1.1794;
2830833923126;-9.8623;-0.8417;-8.0913;
2830844051719;-13.8915;0.7825;1.9842;
2830854161719;-8.2502;-0.4322;6.4277;
2830864271667;-8.6381;-0.7460;-1.4438;
2830874385990;-10.1976;-0.0176;-3.8608;
2830884495990;-7.7016;0.2674;-2.1386;
2830894605938;-5.5672;-0.3556;2.2238;
2830904732657;0.4098;-1.3328;-9.8904;
2830914842657;-15.2498;-1.0908;-26.1894;
2830924952657;-19.1327;-1.8742;-5.2214;
2830935048386;-4.1656;-0.3556;12.2058;
2830945158386;-4.2353;0.9308;-1.4581;
2830955268334;-10.3893;-0.0081;-5.0300;
2830965369063;-9.9580;0.2818;4.5640;
2830975479063;-10.0250;1.2087;4.6190;
2830985589011;-10.0899;0.2554;-3.2333;
2830995697761;-13.2135;-0.1496;-3.6428;
2831005807813;-9.6562;-0.4418;3.2970;
2831015917761;-7.0881;-0.3413;0.8246;
2831026002709;-13.2661;-0.8779;-5.1808;
2831036112761;-12.5309;-0.6766;-0.7277;
2831046222709;-8.2525;-0.0873;1.0211;
2831056358230;-8.8992;-0.4872;-3.4513;
2831066468178;-9.7950;-0.7723;-2.1218;
2831076578178;-9.6251;-0.8225;-0.6461;
2831086691303;-9.8216;-0.0921;-3.9230;
2831096801303;-11.5941;-0.5662;-1.1850;
2831106911251;-8.6644;-1.4264;0.2258;
2831117017136;-11.4506;-1.2347;-2.2798;
2831127127084;-11.2612;-0.1472;-2.7374;
2831137237084;-10.3415;-0.4537;-2.6249;
2831147353074;-5.8690;-1.1964;-3.0990;
2831157463022;-5.4664;-1.1462;-3.5662;
2831167572969;-8.8059;-1.1701;-6.7164;
2831177674688;-8.2095;-0.0129;-5.3151;
2831187784688;-0.4887;0.7175;-3.9377;
2831197894636;-18.5722;0.4564;-3.6981;
2831208004844;-31.9798;-0.7962;6.1714;
2831218114844;-5.5265;-0.5016;12.2178;
2831228224792;2.6447;-1.7450;-1.7145;
2831238330730;-7.7495;1.9705;-14.9785;
2831248440730;-9.7376;-0.0320;-8.1607;
2831258550678;-10.3101;-0.2572;-0.1478;
2831268659897;-10.7175;-3.2204;4.9379;
2831278769792;-12.3320;-0.8321;1.4139;
2831288879792;-11.7811;0.9954;-1.6738;
2831299000157;-8.1326;-0.6550;4.9929;
2831309110105;1.2888;-2.2720;1.3181;
2831319220001;-19.5927;0.5213;-26.8217;
2831329334011;-27.2010;0.8949;-10.1587;
2831339443959;0.8886;-4.3753;19.4593;
2831349553907;2.6518;-5.3261;4.4922;
2831359647657;-12.8901;3.7026;-14.7006;
2831369757605;-11.2349;2.8615;-4.9364;
2831379867553;-4.3167;-1.5604;2.1135;
2831390003907;-3.2913;-0.1448;-5.0492;
2831400113855;-12.4277;1.1752;-10.4940;
2831410223803;-11.7954;-0.1256;-3.0176;
2831420311511;-6.7624;-1.0789;-0.0544;
2831430421459;-9.9652;0.5764;-5.4586;
2831440531459;-9.2707;0.8303;-3.2931;
2831450641667;-10.5712;-0.5877;-0.5910;
2831460751667;-15.4678;0.7418;-0.7373;
2831470861615;-14.1239;1.0962;4.6887;
2831480964740;-5.7706;-0.0849;7.0484;
2831491074688;-7.8739;-0.9066;-0.2701;
2831501184636;-10.4898;0.8183;-0.2366;
2831511306407;-7.4501;0.0709;0.7959;
2831521416355;-8.0321;-1.3950;-5.3821;
2831531526303;-12.1762;-0.4513;-5.3868;
2831541633803;-8.8179;-0.9497;-3.3410;
2831551743751;-9.9772;-1.3113;-2.7087;
2831561853699;-9.5916;-0.2333;-4.5437;
2831571964636;-10.0202;-1.1438;-3.0918;
2831582074584;-9.9509;-0.8010;-2.3327;
2831592184532;-9.7448;-1.4456;-0.3826;
2831602294636;-10.4970;-0.5255;-0.4690;
2831612404584;-9.7735;0.4181;0.0389;
2831622514532;-9.3951;0.2698;0.6858;
2831632633907;-10.2431;-0.4872;-1.6834;
2831642743855;-9.4549;0.3703;-2.4045;
2831652853803;-7.6609;-0.9592;-2.9818;
2831662970990;-10.8586;-0.2644;-4.3065;
2831673080938;-10.6433;-0.8441;-2.6489;
2831683190886;-7.8308;-1.0693;-0.9096;
2831693280782;-13.0484;0.0374;-2.5241;
2831703390730;-9.7472;-0.0129;-1.3744;
2831713500678;-8.6740;0.7418;-0.2940;
2831723609011;-10.5353;-0.3365;-2.2199;
2831733718959;-7.2918;0.2530;-3.4178;
2831743828907;-9.6443;-0.7555;-3.3721;
2831753945157;-10.1952;-0.1591;-2.3013;
2831764055105;-9.2656;-0.4131;0.3888;
2831774165053;-7.5601;-0.4968;-0.4280;
2831784274219;-9.5028;0.6625;-4.6992;
2831794384167;-10.0202;0.7175;-5.1951;
2831804494115;-5.8475;-0.6885;-3.7938;
2831814594272;-7.0642;-0.7005;-4.1507;
2831824704219;-8.8155;0.5812;-5.3079;
2831834814219;-9.2249;0.4110;-5.3198;
2831844930990;-6.9709;0.9188;-2.3133;
2831855040938;-19.1713;1.2326;0.9709;
2831865150886;-25.7420;1.4291;6.4134;
2831875269324;-10.7031;-0.3820;8.5286;
2831885379272;0.9918;-1.5796;1.6223;
2831895489219;-7.1507;-1.8550;-3.2285;
2831905604792;-13.3645;0.6482;-4.1243;
2831915714740;-9.0981;-0.4011;-1.8655;
2831925824688;-4.0531;-2.2047;-2.1912;
2831935931511;-8.0034;-0.2142;-6.9799;
2831946041407;-11.5032;0.4612;-6.3425;
2831956151407;-7.7925;0.1451;2.3195;
2831966254532;-3.1860;-0.1184;-4.0645;
2831976364480;-14.7060;0.8112;-19.5538;
2831986474428;-16.3612;-0.4729;-10.5347;
2831996584324;-5.8738;-1.2299;8.7754;
2832006694272;-6.3577;0.2554;5.7523;
2832016804219;-13.8485;1.1321;-0.4041;
2832026934792;-15.2665;1.7955;2.0584;
2832037044740;-10.9068;-0.1137;5.6420;
2832047154688;-3.8638;-0.4226;2.1159;
2832057238074;-5.5600;-0.5447;-5.6097;
2832067348022;-8.9901;-1.5437;-6.0455;
2832077457969;-6.4534;-1.9316;-5.6815;
2832087575574;-7.0259;-1.8790;-7.0875;
2832097685522;-12.3248;-1.3400;-4.2227;
2832107795469;-7.5266;-0.1400;0.0990;
2832117896772;-6.7624;-1.0693;-0.8258;
2832128006772;-11.6973;-0.8201;-4.0908;
2832138116667;-11.6707;-0.8130;-1.3983;
2832148217917;-10.5688;-1.0741;1.8117;
2832158327865;-13.6376;-1.1940;1.7782;
2832168437761;-10.6050;-0.0248;3.8504;
2832178552657;-7.9962;-0.5997;4.1545;
2832188662553;-9.0359;0.1355;-0.7178;
2832198772449;-10.6409;-1.1171;-4.1315;
2832208942344;-11.5558;-1.8957;-0.5838;
2832219052240;-11.8959;-1.9388;-0.4232;
2832229162136;-12.2674;-1.6995;-2.8765;
2832239207344;-13.6232;-0.9808;-0.9407;
2832249317240;-10.2144;-0.1448;1.7088;
2832259427188;-8.3794;0.8949;-2.7948;
2832269585678;-10.3340;-1.1868;-4.7856;
2832279695574;-12.4517;-0.2859;-2.6584;
2832289805469;-6.0799;-0.0105;-1.3552;
2832299868699;-7.4572;-0.3075;-5.5041;
2832309978594;-10.8515;0.6769;-5.5738;
2832320088490;-9.9389;0.4301;-2.8044;
2832330192969;-6.8895;1.2230;-4.0071;
2832340302865;-6.7337;0.9212;-5.7461;
2832350412761;-7.1913;1.2879;-6.6589;
2832360534167;-10.1234;1.4770;-6.7020;
2832370644115;-13.1345;1.4746;-0.2198;
2832380754011;-8.0321;1.4387;2.6333;
2832390881511;-6.4750;0.7319;-0.9407;
2832400991407;-11.7404;0.3105;-4.4405;
2832411101303;-8.7820;0.4373;2.4488;
2832421186511;-5.7538;-0.2405;0.9541;
2832431296459;-11.6758;-0.0440;-3.7651;
2832441406355;-14.8759;-0.3003;0.1349;
2832451530157;-8.6955;-0.4131;4.3388;
2832461640053;-4.5706;-1.1195;1.8236;
2832471749949;-7.3899;-1.0789;-5.0252;
2832481875157;-11.2923;-1.1701;-6.2468;
2832491985053;-11.8696;-1.7689;-2.3686;
2832502094949;-12.1164;-2.1042;1.5793;
2832512174272;-8.1063;-2.3581;2.0225;
2832522284219;-9.1866;-2.6982;-0.5599;
2832532394115;-11.8265;-1.4022;-0.3993;
2832542511928;-8.5807;-0.2405;1.0140;
2832552621876;-6.5949;-0.7125;-3.5901;
2832562731772;-9.2850;0.3224;-7.3128;
2832572841928;-8.6859;0.3631;-2.7422;
2832582951824;-9.2441;0.8375;-1.5494;
2832593061719;-12.0805;0.7825;-2.6345;
2832603172397;-10.1928;0.7896;-1.2305;
2832613282240;-9.1029;0.4974;-2.4882;
2832623392188;-12.0470;1.2784;-3.2070;
2832633512657;-10.0899;0.9476;0.1445;
2832643622553;-6.8294;0.4902;0.0293;
2832653732449;-9.2755;0.4854;-3.4083;
2832663852344;-11.7500;0.4158;-2.0378;
2832673962240;-12.6410;0.2913;1.4357;
2832684072136;-8.9686;-1.1988;2.2525;
2832694172449;-8.0010;-0.5853;-2.7422;
2832704282344;-8.1206;-1.3759;-3.7819;
2832714392240;-9.3401;-1.9463;-3.2046;
2832724496303;-10.8203;-1.9268;-3.4848;
2832734606199;-10.9355;0.5046;-1.9469;
2832744716094;-8.7652;-0.5638;-0.9359;
2832754822657;-6.8632;-1.3448;-1.3409;
2832764932553;-10.5018;0.3559;-3.1974;
2832775042449;-11.9704;-0.3724;-0.6939;
2832785136772;-9.2560;-1.1486;-1.1563;
2832795246667;-9.7687;-1.1390;-3.6742;
2832805356563;-9.1005;-1.3854;-1.9588;
2832815508594;-10.3173;-0.4418;-2.2534;
2832825618490;-10.9499;0.5764;-0.5288;
2832835728386;-6.8079;0.1499;0.1181;
2832845812240;-7.3708;-0.2046;-2.2391;
2832855922136;-11.2684;-0.0826;-4.3472;
2832866032032;-11.1054;-0.1041;-2.8693;
2832876143490;-9.3832;0.2028;-0.5647;
2832886253386;-10.3582;-0.0730;-0.8904;
2832896363282;-9.9867;-0.1926;-2.9746;
2832906456980;-8.5998;-0.2261;-1.8224;
2832916566824;-9.9532;0.2889;-2.2247;
2832926676719;-9.8073;1.1441;-0.8354;
2832936786667;-6.6404;0.2865;-1.0439;
2832946920261;-9.0383;0.6410;-1.9564;
2832957030157;-12.0829;1.5224;-2.2319;
2832967140053;-10.8610;1.1393;-0.8282;
2832977259428;-9.4621;0.2028;-0.5647;
2832987369324;-9.0191;-0.2261;-2.5959;
2832997479219;-7.5601;-0.4418;-3.2261;
2833007586147;-12.0661;-0.5542;-4.0214;
2833017696042;-14.6414;-0.0200;-1.0798;
2833027805938;-8.5831;1.2760;1.2607;
2833037924063;-5.3276;-0.2189;1.5362;
2833048033959;-6.5683;0.0350;-3.7364;
2833058143855;-10.5664;-0.2046;-3.6790;
2833068239844;-10.4300;0.0924;-2.3973;
2833078349740;-7.0235;-0.7938;-2.9841;
2833088459636;-8.1999;-0.4226;-4.9316;
2833098559740;-11.1559;-0.9042;-3.7627;
2833108669636;-10.9690;-0.8034;-0.3658;
2833118779532;-10.1833;-1.2849;0.3673;
2833128947344;-10.7653;-0.4322;-0.9694;
2833139057292;-9.9628;0.0015;-2.1864;
2833149167188;-8.0608;0.0733;-0.4376;
2833159231407;-8.8561;-0.3338;-0.8833;
2833169341303;-10.5975;-0.4681;0.1660;
2833179451251;-10.6744;-1.4934;0.0532;
