Sensor: bmi160 Accelerometer Non-wakeup
Vendor: BOSCH
TimestampAcc [ns]; AccX [m/s^2]; AccY [m/s^2]; AccZ [m/s^2]
974686448320816;-9.2560;1.2975;-2.9483;
974686458402379;-9.2417;1.2637;-2.9578;
974686468438629;-9.2489;1.2589;-2.9841;
974686478654775;-9.2755;1.2784;-2.9124;
974686488764098;-9.2707;1.2760;-2.9219;
974686498859931;-9.2731;1.3023;-2.9100;
974686508969254;-9.2755;1.3023;-2.8980;
974686519044618;-9.2513;1.3023;-2.9100;
974686529171650;-9.2560;1.3023;-2.9172;
974686539286389;-9.2513;1.2613;-2.9076;
974686549382639;-9.2731;1.2613;-2.9339;
974686559495660;-9.2803;1.2951;-2.9076;
974686569545452;-9.2755;1.2589;-2.8693;
974686579695139;-9.2707;1.2350;-2.8522;
974686589785556;-9.2683;1.2565;-2.8642;
974686599888993;-9.2560;1.2494;-2.8618;
974686609989723;-9.2850;1.2422;-2.8570;
974686620092431;-9.2874;1.2350;-2.8379;
974686630201806;-9.2755;1.2206;-2.8789;
974686640300348;-9.2850;1.2278;-2.8860;
974686650418212;-9.2874;1.2182;-2.8717;
974686660503368;-9.2874;1.2111;-2.8379;
974686670617223;-9.2779;1.1895;-2.8116;
974686680714879;-9.2584;1.2087;-2.8379;
974686690820973;-9.2803;1.2494;-2.8570;
974686700931754;-9.2755;1.2709;-2.8932;
974686711046493;-9.2922;1.2685;-2.8884;
974686721134358;-9.2683;1.3310;-2.9052;
974686731216754;-9.2683;1.3597;-2.9028;
974686741337014;-9.2608;1.3406;-2.8765;
974686751445660;-9.2755;1.3741;-2.8765;
974686761554723;-9.2465;1.3884;-2.8837;
974686771687848;-9.2417;1.3549;-2.8956;
974686781745087;-9.2656;1.3549;-2.9363;
974686791863108;-9.2608;1.3717;-2.9243;
974686801962952;-9.2608;1.3645;-2.9339;
974686812074202;-9.2273;1.3693;-2.9626;
974686822213004;-9.2273;1.3502;-2.9554;
974686832299410;-9.2345;1.3358;-2.8884;
974686842372743;-9.2731;1.3430;-2.8956;
974686852498681;-9.2707;1.3286;-2.9435;
974686862586025;-9.2369;1.3645;-2.9506;
974686872704202;-9.2656;1.3190;-2.9698;
974686882797118;-9.2560;1.3047;-2.9650;
974686892904202;-9.2249;1.3525;-2.9195;
974686903001441;-9.2489;1.3502;-2.9219;
974686913141754;-9.2465;1.3430;-2.8980;
974686923232223;-9.2513;1.3382;-2.8932;
974686933318056;-9.2465;1.2903;-2.9219;
974686943422275;-9.2393;1.2685;-2.9506;
974686953519827;-9.2465;1.3095;-2.9435;
974686963627848;-9.2584;1.3143;-2.8884;
974686973758785;-9.2608;1.2855;-2.8642;
974686983843420;-9.2827;1.3119;-2.8403;
974686993937431;-9.2707;1.3621;-2.7948;
974687004043993;-9.2656;1.3621;-2.7996;
974687014147639;-9.2731;1.3645;-2.8259;
974687024252691;-9.2755;1.3525;-2.8522;
974687034355973;-9.2707;1.3717;-2.8860;
974687044462639;-9.2513;1.3478;-2.8956;
974687054564827;-9.2465;1.3358;-2.8546;
974687064670608;-9.2465;1.3717;-2.8522;
974687074784775;-9.2608;1.3932;-2.8020;
974687084876806;-9.2898;1.4076;-2.8307;
974687094980660;-9.2560;1.4243;-2.8427;
974687105084358;-9.2608;1.4985;-2.8956;
974687115189410;-9.2393;1.5033;-2.9052;
974687125286910;-9.2417;1.4698;-2.9195;
974687135397275;-9.2321;1.4506;-2.9483;
974687145501389;-9.2178;1.4578;-2.9243;
974687155606806;-9.2154;1.4435;-2.8980;
974687165708368;-9.2683;1.4028;-2.8642;
974687175810452;-9.2584;1.2637;-2.8475;
974687185936389;-9.2393;1.1919;-2.9674;
974687196015816;-9.2034;1.1010;-3.1926;
974687206127223;-9.1890;0.8614;-3.1998;
974687216213837;-9.2683;0.7442;-3.0009;
974687226320348;-9.3377;0.6769;-2.8379;
974687236435764;-9.2994;0.6601;-2.8140;
974687246557483;-9.2273;0.7681;-2.9243;
974687256639618;-9.2130;0.9858;-3.0559;
974687266740608;-9.2707;1.1919;-3.1181;
974687276850191;-9.3162;1.3167;-3.1014;
974687286957639;-9.2898;1.3573;-3.0081;
974687297068004;-9.2632;1.2446;-2.9554;
974687307154045;-9.2417;1.0196;-2.9387;
974687317272014;-9.2130;0.8447;-2.9363;
974687327370348;-9.2656;0.7585;-3.0081;
974687337480973;-9.2970;0.6721;-3.0200;
974687347575243;-9.3042;0.5189;-3.0272;
974687357694306;-9.2946;0.4540;-2.9602;
974687367771389;-9.2994;0.5429;-2.8403;
974687377891806;-9.3209;0.6099;-2.9148;
974687387999306;-9.2779;0.5812;-3.0176;
974687398096806;-9.2850;0.6864;-2.8499;
974687408238785;-9.3497;0.7370;-2.9961;
974687418311598;-9.2994;0.9236;-2.9961;
974687428414618;-9.2154;1.1130;-2.8235;
974687438507431;-9.3209;1.2398;-2.8717;
974687448615868;-9.3377;1.2879;-2.9459;
974687458720243;-9.2465;1.2784;-2.8164;
974687468834098;-9.2560;1.3573;-2.7541;
974687478927535;-9.2970;1.5153;-2.7254;
974687489038368;-9.2994;1.6400;-2.5385;
974687499133993;-9.2513;1.7046;-2.4523;
974687509241598;-9.2827;1.8102;-2.5241;
974687519337431;-9.2803;1.9107;-2.4882;
974687529453941;-9.2106;2.0351;-2.3638;
974687539554827;-9.2560;2.1263;-2.3806;
974687549655660;-9.3090;2.2053;-2.4021;
974687559762691;-9.2683;2.2149;-2.2917;
974687569846650;-9.2345;2.2220;-2.3901;
974687579977118;-9.2106;2.2053;-2.5409;
974687590078525;-9.1340;2.1550;-2.6130;
974687600187535;-9.1675;2.1885;-2.6393;
974687610278577;-9.2536;2.3563;-2.6273;
974687620379410;-9.2632;2.4544;-2.6058;
974687630489098;-9.2465;2.4114;-2.6297;
974687640583368;-9.2297;2.3803;-2.7446;
974687650686493;-9.1699;2.3898;-2.9076;
974687660790608;-9.1866;2.4353;-3.0153;
974687670916441;-9.2249;2.3345;-2.9794;
974687681060660;-9.2827;1.6926;-2.5672;
974687691106493;-9.2683;1.6304;-2.7159;
974687701188941;-9.2297;1.5897;-2.7302;
974687711326858;-9.1890;1.6807;-2.8499;
974687721440452;-9.1938;1.7166;-2.9172;
974687731540139;-9.2130;1.7477;-2.8594;
974687741685556;-9.2731;1.7213;-2.7350;
974687751733577;-9.2994;1.8150;-2.6536;
974687761831910;-9.2707;1.8556;-2.7781;
974687771953681;-8.6477;1.7189;-3.4705;
974687782054202;-5.3348;8.0384;-12.7771;
974687792167170;-8.7290;5.5301;-5.2816;
974687802258785;-13.0364;0.1499;2.6716;
974687812352848;-10.8900;1.0172;0.4032;
974687822457275;-8.6477;1.7907;-0.6389;
974687832581389;-8.3052;1.2302;-2.1147;
974687842670764;-8.6453;1.6567;-4.8742;
974687852760243;-8.9136;1.9202;-5.1999;
974687862898473;-9.0072;1.6232;-3.9664;
974687872976285;-9.2513;1.1321;-2.7589;
974687883115556;-9.1149;1.3023;-2.0521;
974687893173889;-9.0096;1.9011;-2.1242;
974687903291285;-9.4454;2.1072;-2.6608;
974687913400660;-9.7735;2.1670;-3.0368;
974687923499723;-9.3808;1.9513;-2.3877;
974687933610868;-9.0598;1.7285;-1.3624;
974687943717014;-9.3784;1.8867;-1.0056;
974687953811702;-9.6036;1.6759;-1.3217;
974687963913681;-9.3688;1.2808;-3.0870;
974687974037535;-9.1244;1.1728;-4.5652;
974687984115764;-9.1508;1.0316;-3.7460;
974687994242431;-9.3975;0.7825;-2.3013;
974688004348420;-9.4789;0.8877;-1.7985;
974688014433889;-9.3497;0.6170;-1.7551;
974688024546285;-9.3975;0.1355;-2.5289;
974688034661702;-9.4573;0.1187;-3.3577;
974688044734306;-9.2489;0.1834;-3.0200;
974688054873785;-9.2082;0.3153;-2.5504;
974688064967118;-9.4143;0.5477;-2.6441;
974688075074514;-9.3185;0.5572;-2.6106;
974688085160556;-9.2683;0.5524;-2.7733;
974688095281598;-9.4454;0.8160;-3.1543;
974688105376650;-9.2827;1.0771;-2.8884;
974688115479306;-9.1364;1.2589;-2.4739;
974688125579723;-9.2656;1.4171;-2.7302;
974688135689775;-9.2803;1.4626;-2.8642;
974688145797275;-9.1771;1.4506;-2.7757;
974688155893941;-9.2369;1.4841;-2.8403;
974688166010660;-9.2656;1.4985;-2.7063;
974688176100556;-9.1603;1.4483;-2.4667;
974688186201910;-9.2010;1.5802;-2.7039;
974688196308368;-9.2656;1.7931;-2.8837;
974688206396545;-9.2441;1.8604;-2.7326;
974688216514202;-9.2608;1.8628;-2.6225;
974688226621598;-9.2321;1.8843;-2.5863;
974688236724202;-9.0957;1.9729;-2.5887;
974688246827327;-8.8896;2.6605;-2.9698;
974688256928108;-9.1795;3.0054;-3.1472;
974688267030973;-9.2755;3.2210;-2.7924;
974688277141389;-9.0168;3.8677;-2.6273;
974688287274618;-8.9255;4.3636;-2.4835;
974688297347743;-8.8513;4.6343;-2.0955;
974688307453525;-9.0072;4.7468;-1.9421;
974688317570035;-9.2225;4.7853;-2.0186;
974688327680348;-9.1460;4.7542;-2.1745;
974688337767743;-8.9447;4.5386;-2.2152;
974688347870452;-8.8011;4.3229;-2.2750;
974688357978368;-8.8370;3.9227;-2.2630;
974688368093889;-9.0263;3.6066;-2.2630;
974688378189931;-9.2513;3.4005;-2.5887;
974688388289931;-9.3090;3.0030;-3.0129;
974688398389827;-9.0861;2.6103;-3.2620;
974688408485452;-8.9399;2.3946;-3.2189;
974688418601181;-9.1149;1.9920;-2.8693;
974688428699098;-9.2922;1.4076;-2.6560;
974688438800139;-9.2536;1.1943;-2.9554;
974688448907691;-9.1484;1.1536;-3.1519;
974688459005556;-9.0861;1.2927;-3.1158;
974688469118160;-9.1149;1.5706;-2.9004;
974688479214618;-9.1914;1.8963;-2.7087;
974688489322691;-9.2656;2.2388;-2.7757;
974688499435035;-9.1364;2.5956;-2.8594;
974688509527483;-9.0215;2.9551;-2.9961;
974688519631389;-8.9830;3.0461;-2.9530;
974688529745764;-8.9710;2.9575;-2.8570;
974688539845452;-9.0598;3.0006;-2.8813;
974688549948681;-9.0503;3.0293;-2.7948;
974688560050139;-9.0526;3.0054;-2.7278;
974688570126025;-9.0957;2.9145;-2.7589;
974688580264098;-9.0861;2.6629;-2.7182;
974688590364514;-9.1723;2.4329;-2.8499;
974688600451181;-9.2082;2.1670;-2.9267;
974688610556806;-9.1388;1.9681;-2.9219;
974688620665764;-9.1196;1.8724;-2.9961;
974688630767691;-9.1460;1.7453;-3.0105;
974688640890764;-9.1292;1.7166;-3.0009;
974688651004827;-9.1436;1.7740;-3.0081;
974688661094879;-9.1579;1.8700;-2.9148;
974688671181233;-9.1651;2.0064;-2.8618;
974688681278577;-9.1531;2.1479;-2.8594;
974688691402223;-9.1699;2.2077;-2.7996;
974688701496181;-9.1579;2.1670;-2.7135;
974688711606493;-9.1220;2.1861;-2.7781;
974688721704202;-9.1244;2.2460;-2.8259;
974688731793420;-9.1125;2.2914;-2.7781;
974688741924254;-9.1364;2.3369;-2.7829;
974688752015348;-9.1077;2.3779;-2.7661;
974688762131493;-9.1029;2.3177;-2.7517;
974688772217639;-9.1603;2.2364;-2.7805;
974688782325764;-9.2010;2.1239;-2.7350;
974688792432535;-9.2656;1.9298;-2.7254;
974688802558993;-9.3281;1.8102;-2.7685;
974688812663420;-9.3185;1.8532;-2.7087;
974688822756806;-9.2536;1.9633;-2.6895;
974688832861285;-9.1890;1.9107;-2.6800;
974688842961702;-9.1555;1.8724;-2.7254;
974688853074514;-9.2178;1.8652;-2.7326;
974688863166702;-9.2850;1.8341;-2.6871;
974688873298160;-9.3138;1.7285;-2.6273;
974688883375868;-9.2465;1.6113;-2.5672;
974688893485191;-9.2058;1.5009;-2.5648;
974688903587014;-9.2369;1.4148;-2.5887;
974688913686389;-9.2755;1.4985;-2.5959;
974688923798108;-9.3233;1.7548;-2.6201;
974688933899202;-9.3377;1.9298;-2.5720;
974688943999098;-9.3257;1.9944;-2.4787;
974688954101285;-9.2970;2.0518;-2.4212;
974688964205973;-9.2034;2.0279;-2.3925;
974688974316181;-9.1484;1.8891;-2.4332;
974688984418473;-9.2130;1.6902;-2.4835;
974688994523473;-9.2779;1.6304;-2.6034;
974689004623993;-9.2994;1.5081;-2.6106;
974689014733056;-9.3114;1.4076;-2.6465;
974689024839098;-9.1938;1.3334;-2.7470;
974689034934618;-9.1555;1.3789;-2.8717;
974689045034514;-9.2417;1.3023;-2.7494;
974689055142118;-9.3927;1.2637;-2.7900;
974689065246702;-9.3760;1.3190;-2.7470;
974689075354098;-9.2034;1.4722;-2.6225;
974689085462223;-9.0909;1.6831;-2.7470;
974689095568368;-9.0885;1.8843;-2.7805;
974689105664723;-9.1412;2.0880;-2.7206;
974689115775348;-9.2130;2.3393;-2.7541;
974689125872275;-9.1986;2.5382;-2.6752;
974689135978056;-9.1747;2.6246;-2.5170;
974689146086025;-9.1579;2.7108;-2.5193;
974689156184775;-9.1101;2.7849;-2.6297;
974689166279306;-9.0957;2.7562;-2.6847;
974689176396077;-9.1388;2.7323;-2.6034;
974689186497327;-9.2273;2.7562;-2.4858;
974689196600973;-9.1771;2.8687;-2.5026;
974689206707952;-9.0383;3.0245;-2.6106;
974689216804931;-9.1077;3.0437;-2.6225;
974689226917535;-9.1890;2.9169;-2.4787;
974689237017014;-9.1819;2.7945;-2.4906;
974689247114618;-9.1866;2.6533;-2.6010;
974689257225868;-9.2010;2.4377;-2.6824;
974689267330035;-9.1962;2.1598;-2.7087;
974689277435452;-9.2273;1.9657;-2.7206;
974689287540868;-9.2441;1.8341;-2.6393;
974689297641702;-9.1890;1.7644;-2.5816;
974689307747118;-9.1579;1.7836;-2.7374;
974689317852535;-9.2178;1.8293;-2.8594;
974689327947014;-9.2082;1.8365;-2.8211;
974689338052431;-9.1986;1.8027;-2.7876;
974689348157848;-9.1603;1.7596;-2.7900;
974689358274879;-9.1292;1.6615;-2.7996;
974689368380295;-9.1890;1.5754;-2.8283;
974689378485712;-9.2584;1.5443;-2.8642;
974689388581910;-9.3066;1.5778;-2.7541;
974689398687327;-9.2584;1.6161;-2.7159;
974689408792743;-9.1531;1.5826;-2.8669;
974689418888785;-9.1173;1.5658;-2.9219;
974689428994202;-9.1723;1.5826;-2.8211;
974689439099618;-9.2417;1.7070;-2.8475;
974689449200764;-9.1412;1.9920;-2.8642;
974689459306181;-9.0239;2.4042;-2.8307;
974689469411598;-9.0598;2.9336;-2.8307;
974689479515139;-9.0526;3.4247;-2.6967;
974689489620556;-9.1053;3.7457;-2.4978;
974689499725973;-9.1890;3.9060;-2.3758;
974689509827743;-9.1220;4.0475;-2.2869;
974689519933160;-9.0646;4.0259;-2.2893;
974689530038577;-9.1005;3.8342;-2.3734;
974689540134202;-9.0981;3.5372;-2.4715;
974689550239618;-9.0957;3.2043;-2.5433;
974689560345035;-9.1364;2.8256;-2.5839;
974689570444514;-9.1555;2.4712;-2.6177;
974689580549931;-9.1986;2.1837;-2.6034;
974689590655348;-9.1077;2.0231;-2.7446;
974689600753577;-9.1220;1.8987;-2.8789;
974689610858993;-9.2082;1.7429;-2.8499;
974689620964410;-9.1460;1.7070;-2.8570;
974689631064618;-9.1244;1.7668;-2.8594;
974689641170035;-9.1771;1.8820;-2.6489;
974689651275452;-9.2632;1.9513;-2.4595;
974689661392118;-9.3425;2.0207;-2.5433;
974689671497535;-9.2656;2.1766;-2.5959;
974689681602952;-9.1675;2.3803;-2.5911;
974689691690868;-9.1819;2.6342;-2.5744;
974689701796285;-9.2249;2.6653;-2.5193;
974689711901702;-9.1268;2.6533;-2.4906;
974689721996441;-9.0526;2.7084;-2.6536;
974689732101858;-9.0550;2.5430;-2.6800;
974689742207275;-9.1388;2.2986;-2.5696;
974689752307795;-9.2417;2.1191;-2.4404;
974689762413212;-9.1508;2.2531;-2.6393;
974689772518629;-9.0455;2.0904;-2.9818;
974689782618577;-9.3616;1.1393;-2.5146;
974689792723993;-9.5462;1.0651;-2.5986;
974689802829410;-9.1962;1.5057;-3.0583;
974689812957118;-9.1149;1.7237;-2.9937;
974689823062535;-9.3879;1.9298;-2.4763;
974689833167952;-9.2656;2.4377;-2.3447;
974689843239931;-9.0072;2.9862;-2.4691;
974689853345348;-8.9901;3.2809;-2.4858;
974689863450764;-9.1412;3.0867;-2.3157;
974689873548993;-9.2369;2.9001;-2.4739;
974689883654410;-9.1316;2.7586;-2.6632;
974689893759827;-9.1149;2.3539;-2.7589;
974689903878160;-9.1866;1.8221;-2.8164;
974689913983577;-9.2082;1.5682;-2.7063;
974689924088993;-9.2560;1.7788;-2.4069;
974689934184723;-9.3305;2.2364;-2.0788;
974689944290139;-9.3233;2.6052;-2.1170;
974689954395556;-9.1508;2.9743;-2.6106;
974689964502639;-8.9255;3.2904;-2.9459;
974689974608056;-9.0622;3.3407;-2.9746;
974689984713473;-9.3401;3.2641;-3.0870;
974689994818473;-9.0742;2.9288;-3.3362;
974690004923889;-8.7389;3.4005;-2.5887;
974690015029306;-9.3257;3.0030;-1.6690;
974690025119879;-9.4669;3.1756;-2.1314;
974690035225295;-8.8753;3.8390;-2.9195;
974690045330712;-8.8346;3.9996;-3.1543;
974690055438368;-9.2608;3.1322;-2.5146;
974690065543785;-9.2827;2.3539;-2.0306;
974690075649202;-9.0742;2.4185;-2.3614;
974690085740452;-9.0479;3.0915;-2.8211;
974690095845868;-9.0933;2.6246;-2.1984;
974690105951285;-9.2489;2.1957;-2.1266;
974690116058889;-9.2656;1.9681;-2.5265;
974690126164306;-9.1938;1.9155;-2.8789;
974690136269723;-9.1436;1.9370;-2.9985;
974690146374618;-9.1651;1.6543;-2.8020;
974690156480035;-9.3640;1.2736;-2.6010;
974690166585452;-9.3592;1.0292;-2.5146;
974690176675868;-9.2369;0.8782;-2.7063;
974690186781285;-9.2513;0.7633;-2.9650;
974690196886702;-9.2106;0.6003;-2.9483;
974690206975348;-9.2513;0.4445;-2.9219;
974690217080764;-9.3832;0.4062;-3.1062;
974690227186181;-9.3090;0.3153;-3.1014;
974690237306077;-9.2898;0.1953;-3.0440;
974690247411493;-9.3544;0.1020;-3.0966;
974690257516910;-9.2779;0.1307;-3.0966;
974690267611389;-9.2058;0.2387;-3.1376;
974690277715556;-9.2249;0.3105;-3.3553;
974690287819723;-9.2417;0.3081;-3.3888;
974690297928264;-9.2850;0.3583;-3.2764;
974690308032431;-9.3688;0.4588;-3.1807;
974690318136598;-9.3329;0.5812;-3.1086;
974690328280608;-9.2489;0.7394;-3.0966;
974690338384775;-9.2225;0.9260;-3.1807;
974690348488941;-9.1723;1.1082;-3.1831;
974690358553368;-9.1819;1.2951;-3.1325;
974690368657535;-9.1508;1.4722;-3.0583;
974690378761702;-9.1675;1.5682;-2.9435;
974690388869202;-9.2249;1.6208;-2.8884;
974690398973368;-9.2489;1.6902;-2.9028;
974690409077535;-9.1938;1.8365;-2.9004;
974690419170764;-9.1531;1.9944;-2.8980;
974690429274931;-9.1412;2.1120;-2.8789;
974690439379098;-9.1340;2.2101;-2.8980;
974690449486181;-9.1723;2.2579;-2.9483;
974690459590348;-9.2106;2.3010;-2.8908;
974690469694514;-9.2273;2.3898;-2.7852;
974690479803629;-9.2010;2.4377;-2.7087;
974690489907795;-9.1699;2.3249;-2.5768;
974690500011962;-9.2082;2.2364;-2.4739;
974690510113473;-9.2297;2.1574;-2.4739;
974690520217639;-9.2249;2.0809;-2.3925;
974690530321806;-9.2513;2.0471;-2.4284;
974690540416129;-9.2465;2.0423;-2.6201;
974690550520295;-9.1795;2.0761;-2.7494;
974690560624462;-9.2106;2.0399;-2.8331;
974690570714202;-9.2632;1.9609;-2.8379;
974690580818368;-9.2731;1.9083;-2.7398;
974690590922483;-9.2779;1.8796;-2.7230;
974690601045452;-9.2513;1.8269;-2.7709;
974690611149618;-9.2034;1.7261;-2.7637;
974690621253837;-9.2345;1.6472;-2.6632;
974690631353160;-9.2779;1.5706;-2.5744;
974690641457327;-9.2683;1.5153;-2.5720;
974690651561493;-9.2297;1.5081;-2.6632;
974690661668577;-9.2130;1.5682;-2.7709;
974690671772743;-9.2249;1.5873;-2.7948;
974690681876910;-9.2154;1.6902;-2.7230;
974690691977535;-9.2201;1.7955;-2.7039;
974690702081702;-9.2082;1.8652;-2.7015;
974690712185868;-9.2130;1.9418;-2.7446;
974690722317848;-9.2225;2.0160;-2.7254;
974690732422014;-9.2369;2.0351;-2.6584;
974690742526181;-9.2465;1.9801;-2.5122;
974690752623056;-9.2297;1.9466;-2.4906;
974690762727223;-9.2154;1.9394;-2.5217;
974690772831337;-9.1723;2.0112;-2.6536;
974690782936598;-9.1723;2.0136;-2.6919;
974690793040764;-9.2755;2.0303;-2.5816;
974690803144931;-9.2513;2.0785;-2.5050;
974690813235973;-9.2154;2.1287;-2.4811;
974690823340139;-9.1627;2.1981;-2.5241;
974690833444306;-9.1244;2.2699;-2.6034;
974690843549723;-9.1173;2.3731;-2.6824;
974690853653889;-9.1914;2.4377;-2.6297;
974690863758056;-9.1962;2.4760;-2.5433;
974690873868473;-9.1579;2.5597;-2.5504;
974690883972639;-9.1890;2.6004;-2.5337;
974690894076806;-9.1962;2.6246;-2.5337;
974690904170764;-9.1795;2.6103;-2.5504;
974690914274931;-9.1795;2.5621;-2.6273;
974690924379098;-9.0790;2.6151;-2.6824;
974690934487639;-8.9423;2.2771;-2.8451;
974690944591806;-9.0191;0.8686;-2.9578;
974690954695973;-9.6156;1.7189;-3.2979;
974690964795556;-9.1196;1.1273;-2.2822;
974690974899723;-9.5148;0.2746;-2.8331;
974690985003889;-9.3664;0.9021;-3.7101;
974690995105139;-8.6859;1.7692;-2.8956;
974691005209306;-8.9901;2.3225;-3.1158;
974691015313473;-9.1675;2.4138;-3.0727;
974691025428056;-9.0455;2.7706;-2.6058;
974691035532223;-9.1268;3.0843;-2.5074;
974691045636389;-9.1196;3.1442;-2.7613;
974691055712327;-8.9327;3.1107;-3.0942;
974691065816493;-8.7820;2.7467;-3.0894;
974691075920660;-8.9183;2.6103;-3.1424;
974691086056077;-9.1723;2.6052;-3.1062;
974691096160243;-9.0407;2.4688;-2.8164;
974691106264410;-8.9686;2.4520;-3.0440;
974691116349462;-8.9471;2.9982;-3.9544;
974691126453629;-8.7461;3.6760;-2.6704;
974691136557795;-8.9949;4.1551;-1.9229;
974691146668629;-9.3497;4.1456;-2.1218;
974691156772795;-8.8777;4.2078;-2.5313;
974691166876962;-8.7628;3.8725;-2.5863;
974691176974306;-9.1005;3.9924;-2.9291;
974691187078473;-9.1053;4.2966;-1.8272;
974691197182639;-8.8418;3.7792;-2.0115;
974691207299202;-9.0885;2.3297;-4.2419;
974691217403368;-8.8729;2.4353;-3.2740;
974691227507535;-9.3329;3.2378;-2.1218;
974691237603993;-9.6538;2.3393;-2.0617;
974691247708160;-9.0407;2.4377;-2.6800;
974691257812327;-8.6070;2.5621;-3.0344;
974691267899462;-9.0766;3.3024;-3.2596;
974691278003420;-9.3712;3.6835;-2.6895;
974691288107379;-9.0742;3.5563;-2.4523;
974691298226233;-8.7820;3.5970;-2.7924;
974691308330191;-8.6118;4.3038;-3.3936;
974691318434150;-8.5256;4.0427;-2.7135;
974691328530660;-8.7724;3.0867;-2.2128;
974691338634670;-9.4214;3.0939;-3.1567;
974691348738629;-9.4334;3.1322;-3.2405;
974691358851598;-8.8705;2.5765;-2.7661;
974691368955556;-9.0909;2.0734;-3.2572;
974691379059514;-9.8384;1.6759;-2.9387;
974691389166598;-8.7218;1.7788;-2.0692;
974691399270556;-7.9146;0.0015;-3.4705;
974691409374514;-9.1555;1.4124;-3.9760;
974691419473941;-10.0756;3.7313;-4.3472;
974691429577900;-9.4956;3.0341;-3.5064;
974691439681858;-9.3760;2.3034;-3.0440;
974691449778212;-9.7376;3.0245;-4.0645;
974691459882223;-8.1975;2.6414;-1.9181;
974691469986181;-7.8212;3.1178;-1.8679;
974691480097379;-9.3664;4.6080;-4.1483;
974691490201337;-10.0322;4.5673;-4.1052;
974691500305243;-9.4262;3.6712;-2.7039;
974691510398629;-9.0096;3.9443;-3.5590;
974691520502587;-8.7290;3.2761;-3.9377;
974691530606598;-8.1374;2.6844;-3.2955;
974691540713212;-7.8356;2.6701;-3.1376;
974691550817170;-8.3698;2.7179;-3.9544;
974691560921129;-9.1699;2.6174;-4.6920;
974691571062118;-9.5892;2.2795;-4.4815;
974691581166129;-9.2082;2.0136;-3.8465;
974691591270087;-3.7394;-0.4490;-3.1205;
974691601354723;-1.8781;1.1752;-1.0080;
974691611458681;-10.9522;7.0753;-10.3525;
974691621562691;-19.0968;5.5086;-20.6222;
974691631687275;-17.5735;1.3813;-14.9450;
974691641791285;-6.6069;-1.3902;-2.0498;
974691651895243;0.1056;-4.1357;8.9839;
974691661960556;-1.7294;-2.2887;4.7773;
974691672064566;-6.0846;0.2722;-0.5480;
974691682168473;-12.2913;3.5492;-7.4231;
974691692270035;-18.1771;8.8983;-16.0110;
974691702373993;-13.5658;7.5329;-9.8207;
974691712478004;-6.2258;1.6256;0.5850;
974691722596025;-6.8222;0.2530;-1.1874;
974691732699983;-7.8763;0.9691;-2.8499;
974691742803941;-5.3515;-0.1208;1.8380;
974691752897327;-6.2378;0.6577;-0.6772;
974691763001285;-11.4386;4.3493;-11.3707;
974691773105243;-11.6396;5.2403;-11.6773;
974691783213056;-8.4826;1.8532;-0.9502;
974691793317014;-8.1876;-0.6239;1.2296;
974691803420973;-10.2814;1.8150;-3.9712;
974691813522795;-6.6882;2.4042;-3.2931;
974691823626806;-3.6580;2.1311;-3.9760;
974691833730712;-9.2536;4.5338;-11.2223;
974691843841441;-10.8156;3.9494;-10.5778;
974691853945400;-7.6801;0.0015;-1.2233;
974691864049306;-10.5281;0.8279;-0.7373;
974691874169670;-12.9093;1.2302;-1.3457;
974691884273629;-9.5653;0.3799;1.5170;
974691894377587;-7.4189;1.4746;-1.7432;
974691904466181;-8.0034;4.2583;-10.1922;
974691914570139;-6.8390;5.0007;-13.0382;
974691924674098;-5.6701;1.2565;-6.8097;
974691934779045;-9.5076;0.2937;-4.1961;
974691944883004;-13.5368;-0.2094;-1.3863;
974691954986962;-9.3616;0.9236;2.6668;
974691965095295;-7.9771;0.0326;4.1378;
974691975199254;-9.7352;1.0627;-2.4954;
974691985303212;-6.9494;2.9815;-6.0503;
974691995406441;-6.6021;4.0905;-7.4375;
974692005510400;-8.0919;4.6917;-9.6939;
974692015614358;-9.1962;3.6018;-10.3768;
974692025722587;-10.5688;1.1417;-7.1620;
974692035826545;-11.1631;0.4831;-3.8728;
974692045930504;-8.1637;1.1680;-0.8928;
974692056034045;-3.9909;1.7142;-0.8234;
974692066137952;-7.5936;2.7921;-4.9125;
974692076241962;-11.7763;3.7457;-6.1510;
974692086337691;-7.9508;3.7720;-3.9063;
974692096441598;-7.1315;2.3201;-4.7809;
974692106545660;-9.1364;1.4794;-9.9718;
974692116645191;-11.7667;0.5955;-9.4137;
974692126749098;-9.5916;0.5883;-5.2430;
974692136853108;-6.7002;0.5716;-1.7049;
974692146959670;-7.5194;0.6745;-2.4643;
974692157063629;-8.6261;1.4937;-4.9842;
974692167167587;-8.9590;2.0231;-7.0851;
974692177280191;-8.9136;2.0160;-8.7885;
974692187384150;-13.3693;1.8939;-8.1272;
974692197488108;-9.7352;1.6400;-2.7374;
974692207603941;-6.5085;2.9073;-1.3744;
974692217707900;-7.5075;3.4128;-7.9502;
974692227811910;-9.1962;2.4664;-11.2032;
974692237900920;-3.6461;2.3946;-8.4963;
974692248004827;-4.1970;3.1612;-7.4614;
974692258108837;-8.7748;2.6318;-5.7604;
974692268196545;-6.8055;2.8810;-3.1807;
974692278300504;-9.4837;3.4582;-7.2147;
974692288404462;-14.3539;2.8065;-8.8962;
974692298524045;-9.0981;2.0112;-1.3337;
974692308628004;-2.9082;2.9886;-0.1334;
974692318731910;-5.7323;2.6028;-7.4399;
974692328843316;-8.6979;2.7012;-8.0124;
974692338947275;-5.2822;3.6712;-3.8489;
974692349051233;-13.2015;3.1250;-10.7982;
974692359154879;-20.1437;2.5573;-10.1300;
974692369258837;-9.1484;2.6151;4.3244;
974692379362795;0.8910;2.2603;6.9811;
974692389452118;-3.5285;1.6591;-4.9484;
974692399556129;-10.4874;1.8027;-10.0268;
974692409660087;-11.9222;2.0638;-3.4035;
974692419773212;-7.2846;2.6127;0.2019;
974692429877170;-8.7532;0.7008;-0.9191;
974692439981129;-12.9930;-0.4131;-1.8200;
974692450074723;-9.7735;-1.1100;1.2655;
974692460178733;-8.5137;-1.4288;-2.8211;
974692470282691;-10.4946;-2.4108;-4.0262;
974692480384931;-7.1121;-2.1640;-2.8140;
974692490488889;-10.1186;-1.4862;-4.5700;
974692500592848;-10.5736;-2.5618;-3.9182;
974692510693941;-8.7341;-2.4706;-3.3817;
974692520797900;-11.4458;-1.6851;-2.6632;
974692530901858;-9.4789;-1.5987;-2.5935;
974692541069462;-9.8551;-1.3113;-5.4538;
974692551173473;-10.5592;-1.2371;-2.4595;
974692561277431;-5.4760;-1.1797;-1.9708;
974692571295712;-9.6634;-1.0190;-6.6374;
974692581399670;-12.1857;-1.7976;-1.6403;
974692591503629;-5.0330;-1.1195;0.3120;
974692601678629;-10.5138;0.3176;-9.0209;
974692611782639;-10.9714;-1.5461;-5.7341;
974692621886598;-2.4529;-0.8130;-0.5862;
974692631936545;-5.7203;0.1642;-6.6685;
974692642040452;-11.3210;-1.5365;-8.3524;
974692652144462;-15.0891;-2.0707;-5.4873;
974692662262587;-15.8438;-1.6466;-4.0023;
974692672366493;-11.6228;0.1283;-3.0990;
974692682470452;-7.0164;0.2746;-4.8479;
974692692575712;-8.7891;-1.4480;-5.6097;
974692702679670;-8.1685;-1.7163;-0.8210;
974692712783577;-4.7695;0.4735;-1.5446;
974692722906181;-9.9054;0.7992;-6.5725;
974692733010191;-8.4224;1.7070;-5.7365;
974692743114150;-5.1048;2.0183;-5.5810;
974692753196598;-10.0202;1.9322;-8.8819;
974692763300556;-9.2465;1.9011;-5.0348;
974692773404514;-4.4844;2.2771;-6.5414;
974692783514618;-3.7274;3.0461;-10.0436;
974692793618577;-13.3214;2.2531;-7.7560;
974692803722587;-16.0762;1.5658;-3.7651;
974692813821441;-6.4439;4.3014;-3.7029;
974692823925400;-6.8198;3.8605;-8.6064;
974692834029358;-12.1905;1.2063;-9.5453;
974692844140348;-5.9384;1.7285;-4.4815;
974692854244306;-4.4844;2.6964;-5.3366;
974692864348264;-9.3712;0.6817;-9.6485;
974692874454358;-8.5974;1.4483;-6.0694;
974692884558316;-5.2774;1.9131;-3.6523;
974692894662275;-7.5027;2.4544;-7.8924;
974692904763420;-7.7447;1.9992;-6.8264;
974692914867379;-5.0833;2.5525;-5.0515;
974692924971337;-5.7634;2.8543;-6.0144;
974692935078629;-7.1291;1.3358;-6.9511;
974692945182587;-7.4333;1.9250;-7.1620;
974692955286545;-8.7604;0.6888;-6.6852;
974692965382795;-9.2608;0.9141;-4.9914;
974692975486754;-8.5998;-0.2907;-5.4251;
974692985590660;-11.2469;0.5046;-4.6777;
974692995706129;-11.8385;-0.9209;0.3936;
974693005810087;-8.7218;-0.1113;0.9374;
974693015914045;-8.4129;0.1546;0.1708;
974693026014670;-6.7146;1.1321;0.1971;
974693036118629;-5.4401;1.0436;-4.9005;
974693046222587;-8.7194;2.2531;-8.3692;
974693056331389;-13.6615;1.6137;-6.9488;
974693066435348;-15.2833;0.5859;-1.5060;
974693076539358;-5.3444;-0.5016;4.1809;
974693086649358;-5.5047;-0.8273;-6.4576;
974693096753368;-13.6998;-2.1281;-6.1510;
974693106857327;-9.0144;0.5548;2.4033;
974693116996910;-5.6916;0.1834;-2.2295;
974693127100920;-10.1450;-1.3663;-5.8971;
974693137204879;-13.4459;-1.2754;-5.3031;
974693147258941;-11.6013;-1.0334;-0.7325;
974693157362848;-6.0942;-3.8530;-1.0128;
974693167466858;-8.5711;-3.9966;-4.5485;
974693177566441;-8.7724;-5.2065;-1.9205;
974693187670348;-8.9231;-3.9511;-3.7268;
974693197774306;-11.1512;-3.7642;-4.4070;
974693207892691;-9.9820;-2.9761;-3.4705;
974693217996650;-7.3636;-1.4623;-4.1124;
974693228100660;-8.4200;-1.6131;-6.0888;
974693238180660;-10.6265;-2.0563;-2.1051;
974693248284618;-5.9408;-1.0071;-0.6485;
974693258388629;-9.1340;0.6266;-6.0191;
974693268511910;-8.8179;-1.5628;-4.3807;
974693278616077;-14.4879;-0.5638;-9.1430;
974693288720191;-14.6773;-2.4781;-0.9694;
974693298812795;-5.7179;0.7056;-1.7575;
974693308916962;-8.1805;-1.3543;-4.1243;
974693319021129;-6.9852;-1.3256;1.3134;
974693329126285;-5.1359;1.3813;-1.6618;
974693339230452;-10.5688;1.7955;-4.6968;
974693349334566;-11.3904;0.6170;-3.4178;
974693359437952;-8.2573;1.9083;-3.0894;
974693369542066;-10.9140;0.7992;-2.9267;
974693379646233;-12.7271;1.3765;-1.2497;
974693389744045;-9.7472;1.9035;0.2809;
974693399848212;-5.8259;1.6735;-1.8775;
974693409952327;-4.7142;1.4435;-4.7569;
974693420058056;-10.5138;1.9681;-4.8909;
974693430162170;-11.4314;0.5764;-1.1922;
974693440266337;-9.6203;0.7223;-3.3793;
974693450381129;-9.1220;0.1235;-5.5953;
974693460485243;-7.3851;-1.8096;-4.2036;
974693470589358;-9.0909;-1.0167;-3.1229;
974693480678473;-7.9316;0.8734;-4.1124;
974693490782639;-7.0355;1.8317;-5.1425;
974693500886806;-7.0834;0.8566;-6.0598;
974693511055868;-13.8867;0.5429;-6.0769;
974693521160035;-11.7715;0.8614;-1.4486;
974693531264202;-6.5300;0.9332;-1.0822;
974693541315243;-6.2521;1.1034;-3.3362;
974693551419410;-7.7734;1.2685;-3.2955;
974693561523577;-6.9015;1.9777;-5.6599;
974693571579775;-10.6170;0.6817;-6.8551;
974693581683941;-8.0536;-0.0296;-4.7785;
974693591788108;-6.6380;0.1666;-3.1205;
974693601936025;-8.5400;-0.0320;-3.1615;
974693612040139;-10.4755;-0.4585;-3.6742;
974693622144306;-6.2330;0.3224;-4.3711;
974693632243577;-9.0239;-0.6096;-4.0095;
974693642347743;-8.8059;-0.4178;-3.8536;
974693652451910;-9.2536;-0.6718;-2.9004;
974693662558368;-7.6176;-0.6215;-2.3085;
974693672662535;-9.1244;-1.7354;-3.5423;
974693682766650;-7.8476;-0.8608;-4.4910;
974693692861077;-5.2436;-0.0706;-6.9129;
974693702965191;-7.7112;-1.1414;-9.8040;
974693713069358;-16.8404;-2.7703;-6.8527;
974693723208473;-11.1174;-2.9521;0.4463;
974693733312587;-5.5167;0.5764;2.6548;
974693743416754;-5.1311;0.4110;-3.7842;
974693753496545;-14.5286;-3.6494;-6.3281;
974693763600712;-11.3282;-6.3012;-1.5805;
974693773704827;-10.5975;-4.2840;-1.2568;
974693783799879;-10.7175;-3.5728;-2.7805;
974693793903993;-9.1173;-2.9139;-0.6724;
974693804008160;-5.9480;-1.5126;-1.3146;
974693814123681;-9.0024;-1.9534;-3.9497;
974693824227795;-10.6552;-4.6002;-8.4867;
974693834332014;-13.6591;-3.6589;-6.3882;
974693844435660;-10.4181;-1.6756;-1.4701;
974693854539775;-3.5070;0.1187;-2.8451;
974693864643941;-9.6395;0.6577;-6.3739;
974693874752848;-9.6180;-0.3652;-5.3294;
974693884856962;-8.2669;-0.3365;-4.0573;
974693894961129;-10.8060;-0.3147;-3.9855;
974693905043368;-8.0154;0.0637;-5.4203;
974693915147535;-7.9795;0.3344;-5.9139;
974693925251650;-9.1292;0.6314;-5.6384;
974693935365087;-10.2861;-1.0190;-4.9914;
974693945469202;-7.3445;-0.7077;-6.0311;
974693955573316;-6.7744;-1.0478;-4.4166;
974693965671598;-9.8504;-3.0218;-5.9569;
974693975775712;-10.5855;-2.3246;-6.1319;
974693985879879;-8.7003;-0.8441;-1.4940;
974693995988264;-7.4596;-1.5413;-2.0836;
974694006092431;-10.6457;-1.0478;-4.0693;
974694016196545;-12.2554;-0.6096;-2.6895;
974694026300868;-10.2120;-0.9305;-1.4773;
974694036405035;-10.1593;-0.3194;-1.6953;
974694046509202;-4.8102;-0.7149;-2.2367;
974694056619931;-11.5295;-1.1414;-5.3509;
974694066724045;-12.0470;-1.0430;-4.1985;
974694076828212;-9.5581;-0.9568;-2.7446;
974694086933525;-10.9140;-0.9903;-2.4954;
974694097037639;-6.3793;-0.6909;-2.3518;
974694107141806;-7.7040;-0.5518;-2.9841;
974694117237118;-10.3534;-2.0731;-3.1158;
974694127341285;-11.1150;-1.3113;-2.9985;
974694137445452;-7.3062;-0.7436;-2.3276;
974694147554931;-5.0498;-1.0143;-2.4500;
974694157659045;-9.0742;-1.8837;-5.1162;
974694167763212;-9.6108;-1.7450;-5.1808;
974694177865243;-10.5353;-2.0779;-2.3375;
974694187969358;-6.0078;-1.8574;-2.7876;
974694198073525;-9.8647;-2.1999;-3.4178;
974694208202848;-9.4430;-2.6432;-2.8522;
974694218306962;-8.1999;-1.0884;-2.4045;
974694228411129;-9.8312;-1.3711;-3.2237;
974694238495868;-11.8744;-1.3352;-2.6082;
974694248599983;-20.9366;-0.7747;1.2416;
974694258704098;-15.3933;-1.7856;1.5529;
974694268793525;-1.0947;0.7175;1.7997;
974694278897379;-4.8293;-0.2716;-2.6847;
974694289001337;-13.9872;-3.7283;-7.4973;
974694299113837;-10.0561;0.7729;-5.4873;
974694309217743;-4.4797;1.1824;-1.0152;
974694319321650;-6.4534;-1.3017;-4.2730;
974694329431181;-9.3425;-0.3461;-7.6890;
974694339535087;-8.7939;0.6888;-5.5499;
974694349638941;-8.1613;1.1417;-3.5351;
974694359733368;-6.2617;2.4114;-2.5217;
974694369837327;-5.4784;2.0495;-3.0368;
974694379941233;-8.0871;-2.1640;-10.2353;
974694390048004;-14.7826;-5.5322;-9.8183;
974694400151910;-11.9465;-3.0553;-0.5791;
974694410255816;-5.3372;-0.6742;1.1698;
974694420358837;-7.0618;-1.6059;-3.5830;
974694430462743;-9.2489;-1.9439;-4.3280;
974694440566650;-10.0131;-0.6957;-4.8574;
974694450639358;-11.2253;0.7585;-1.4031;
974694460743264;-7.0020;1.9968;-1.2954;
974694470847170;-8.4368;1.0268;-3.7196;
974694481014931;-10.1689;0.5405;-4.0932;
974694491118889;-8.8370;1.4100;-3.0703;
974694501222795;-8.9949;1.6448;-3.1639;
974694511283108;-10.0609;0.7848;-4.1626;
974694521386962;-10.1474;0.4445;-5.0180;
974694531490920;-9.3401;0.6051;-2.1936;
974694541605139;-7.3469;0.8614;-2.7111;
974694551709045;-8.8585;0.5788;-4.4357;
974694561812952;-9.1555;0.6984;-2.1147;
974694571923785;-7.9193;1.2422;-2.8860;
974694582027691;-9.2345;0.4564;-3.9302;
974694592131598;-9.7304;-0.1161;-2.9339;
974694602230608;-8.0943;-0.0897;-3.2883;
974694612334462;-9.7735;-0.6766;-3.8034;
974694622438420;-10.1378;-0.4442;-2.6512;
974694632554098;-8.5376;-0.6359;-2.5002;
974694642658004;-9.4023;-1.0238;-2.4284;
974694652761910;-9.5148;-0.9808;-2.8522;
974694662869514;-8.4706;-0.8850;-2.6130;
974694672973420;-9.3592;-0.7555;-2.4117;
974694683077327;-10.1593;-0.2979;-2.3901;
974694693161493;-9.5940;-0.1041;-1.6618;
974694703265400;-9.5845;-0.3266;-1.6762;
974694713369358;-7.5218;-0.6383;-2.4787;
974694723470868;-7.9316;-0.6407;-3.3314;
974694733574775;-9.2850;-0.2477;-5.0827;
974694743678681;-9.6706;-0.5710;-4.1985;
974694753788368;-7.4524;-0.6383;-3.3601;
974694763892327;-5.9958;-0.4537;-5.5714;
974694773996233;-10.4492;-0.1041;-4.8598;
974694784122327;-11.8911;0.1164;-3.5016;
974694794226233;-11.3450;0.2722;-1.4964;
974694804330139;-10.4276;-0.1639;-0.6652;
974694814410452;-8.7532;-1.0262;-1.7985;
974694824514410;-9.4980;-0.3075;-2.9076;
974694834618316;-10.8610;-0.3724;-2.7422;
974694844736233;-10.0732;-0.0009;-2.9674;
974694854840139;-7.3253;0.0829;-2.2391;
974694864944045;-9.1699;0.5620;-3.4872;
974694875051181;-10.2694;0.0015;-4.0884;
974694885155035;-8.7891;0.0254;-4.2754;
974694895258993;-8.9495;0.3392;-3.7555;
974694905354931;-8.1422;-0.0897;-3.9087;
974694915458837;-9.6371;0.0446;-3.6885;
974694925562691;-9.7591;0.2818;-2.0115;
974694935668108;-7.7542;0.0852;-3.1639;
974694945772014;-9.0861;0.2698;-4.7904;
974694955875920;-10.6887;0.6218;-4.2634;
974694965975868;-9.1555;0.1642;-2.5504;
974694976079827;-9.9126;0.2171;-1.2185;
974694986183733;-9.8527;0.2841;-1.0582;
974694996292275;-7.8978;0.5309;-1.9134;
974695006396181;-8.4849;0.6266;-3.1181;
974695016500087;-8.8107;0.2961;-3.2620;
974695026600816;-7.3950;-0.8082;-5.6240;
974695036704723;-10.1665;-0.2620;-7.0349;
974695046808577;-11.3234;-0.8441;-4.9412;
974695056907587;-9.6203;-1.4599;-2.6656;
974695067011493;-8.2837;-0.6311;-3.1062;
974695077115400;-8.8298;-0.6311;-3.5064;
974695087234306;-8.3746;-0.9257;-3.6694;
974695097338264;-9.5291;0.3272;-3.0057;
974695107442118;-10.7103;0.1857;-0.5910;
974695117523368;-10.5209;0.3607;-2.3351;
974695127627275;-12.5620;0.6577;-1.4940;
974695137731233;-9.3257;-0.0730;0.0846;
974695147849358;-8.0704;-0.4825;-2.4356;
974695157953264;-9.7615;-0.7890;-4.5915;
974695168057118;-12.6960;0.0135;-3.1062;
974695178159670;-11.0432;-0.4896;-0.4666;
974695188263577;-10.1163;-0.5136;-0.9096;
974695198367483;-8.6142;0.4950;-1.7985;
974695208461910;-7.2751;-0.6502;-5.1138;
974695218565816;-8.0847;-0.2596;-5.2454;
974695228669775;-7.7088;-0.7699;-4.5174;
974695238787848;-8.5663;-0.5566;-4.7064;
974695248891754;-6.7983;0.3751;-4.8120;
974695258995660;-9.0287;0.4612;-4.0023;
974695269105139;-8.8825;0.4014;-3.3697;
974695279209254;-8.7461;0.3942;-3.5327;
974695289313368;-9.0239;0.0182;-3.0607;
974695299413681;-9.2225;-0.4226;-3.7196;
974695309517795;-8.4129;-0.3170;-2.7972;
974695319621910;-10.6146;-0.5183;-2.5265;
974695329730348;-10.4827;-1.0884;-0.5815;
974695339834462;-6.3314;-0.8034;-3.1735;
974695349938577;-9.4789;-0.1878;-4.6968;
974695360035556;-7.9265;-1.0645;-6.3906;
974695370139670;-9.9413;-1.5030;-5.0946;
974695380243785;-10.2766;-0.7268;-3.3769;
974695390355295;-9.8719;0.1044;-2.3495;
974695400459410;-9.0263;-0.3724;-3.1735;
974695410563525;-11.1269;-0.0200;-3.3123;
974695420651493;-10.6050;0.5979;-1.9588;
974695430755608;-8.8968;-0.4561;-2.9243;
974695440859723;-10.6648;-0.2524;-2.9100;
974695451005139;-9.5940;0.9212;-1.3720;
974695461109254;-7.9699;0.7537;-0.6221;
974695471213368;-8.5974;0.8399;-2.4858;
974695481287014;-11.0862;0.6123;-1.7312;
974695491391129;-8.7580;0.9428;-0.8163;
974695501495243;-7.9412;0.4831;-2.8860;
974695511589514;-9.3688;0.0613;-4.0167;
974695521693629;-9.1651;-0.0368;-4.0597;
974695531797743;-8.2047;-0.1639;-3.1086;
974695541909045;-9.3209;0.1044;-4.3304;
974695552013108;-9.3808;0.0733;-3.5518;
974695562117223;-7.3301;-0.5997;-4.2491;
974695572194254;-9.0933;-0.5949;-5.9330;
974695582298316;-11.5152;-0.2309;-3.0799;
974695592402431;-8.6166;0.5118;-0.6891;
974695602548160;-7.3229;0.1331;-2.9052;
974695612652275;-8.9255;-0.2237;-2.8499;
974695622756389;-8.8322;0.2076;-2.6130;
974695632862223;-9.3616;-0.1472;-3.9039;
974695642966337;-9.5267;0.1929;-3.9401;
974695653070400;-9.3425;-0.7149;-3.6547;
974695663176598;-8.8633;-0.6024;-3.6284;
974695673280712;-9.7208;-0.6550;-4.8981;
974695683384827;-11.2086;-0.4801;-2.7326;
974695693460868;-9.0455;0.0302;-2.7230;
974695703564983;-8.6501;0.3344;-1.7961;
974695713669098;-9.4071;-0.0320;-3.0870;
974695723775035;-11.0671;-0.8465;-2.7517;
974695733879150;-10.2766;0.0589;-3.2261;
974695743983264;-8.8131;-0.8994;-1.9708;
974695754085868;-8.5759;-0.8707;-2.9363;
974695764189983;-9.2608;-0.4394;-3.2166;
974695774294098;-9.3090;-0.6502;-3.8249;
974695784414306;-9.3066;-1.0573;-3.6236;
974695794518368;-8.2956;-0.6455;-3.7220;
974695804622483;-8.6859;0.4301;-3.2333;
974695814730608;-7.7447;-0.3314;-3.3649;
974695824834723;-8.4658;-0.7196;-3.9975;
974695834938785;-7.5266;0.2961;-4.4596;
974695845023004;-9.7472;-0.2142;-3.0392;
974695855127066;-9.8839;-0.9090;-3.7890;
974695865231181;-8.6644;0.0111;-4.1195;
974695875340243;-8.9183;-0.8994;-3.5830;
974695885444358;-11.4024;-0.8970;-2.7541;
974695895548473;-8.4945;-0.7890;-2.2798;
974695905647639;-9.5486;-0.2285;-2.9004;
974695915751754;-9.9485;-1.3735;-3.0894;
974695925855868;-10.6146;-0.8489;-2.2152;
974695935963889;-9.2058;-0.2189;-3.0631;
974695946068004;-8.6237;-0.8536;-2.0402;
974695956172118;-8.4826;-1.0358;-4.3256;
974695966280920;-9.7352;-0.4083;-4.5030;
974695976384983;-9.7184;-0.4633;-3.5758;
974695986489098;-8.9112;-0.2166;-2.6824;
974695996587639;-7.5817;0.2243;-3.6667;
974696006691754;-8.7580;-0.0105;-4.0262;
974696016795868;-10.1378;-0.0921;-3.5830;
974696026901389;-9.2178;-0.6742;-1.8607;
974696037005504;-8.3052;-0.1711;-2.1314;
974696047109618;-9.7089;0.0135;-2.3949;
974696057209827;-9.6132;-0.5088;-2.4188;
974696067313941;-7.9579;-1.0430;-3.3864;
974696077418056;-9.4549;-0.4992;-4.5221;
974696087518108;-10.1545;-0.9090;-3.8249;
974696097622223;-9.9891;-1.2251;-2.5002;
974696107726285;-10.5305;-1.1052;-2.6034;
974696117864462;-8.9758;-1.1629;-1.6307;
974696127968577;-9.8264;-1.3137;-4.0621;
974696138072691;-9.3975;-1.0765;-3.5830;
974696148150608;-8.1230;-0.6742;-3.1950;
974696158254670;-9.9461;-0.4753;-3.1926;
974696168358785;-12.1379;-0.9209;-3.2764;
974696178460035;-10.6744;-0.8225;-2.0019;
974696188564150;-9.5964;0.3942;-0.3873;
974696198668264;-9.2656;-0.4513;-2.1314;
974696208782535;-7.4453;0.4636;-2.5624;
974696218886650;-6.4534;0.9595;-3.7388;
974696228990764;-10.5305;0.5668;-3.4777;
974696239085452;-10.3534;-0.0320;-3.8704;
974696249189566;-7.6056;-0.2644;-3.0224;
974696259293681;-7.6801;0.3105;-4.5891;
974696269402848;-9.4693;-0.4705;-6.0960;
974696279506858;-11.2828;-0.7531;-4.3783;
974696289610920;-10.0995;-1.1916;-1.8511;
974696299709410;-8.9471;-0.9903;-0.9814;
974696309813420;-9.0622;-1.0334;-3.5877;
974696319917535;-8.9040;-1.3089;-4.6848;
974696330029410;-10.8036;-1.2730;-4.3017;
974696340133420;-11.3019;-1.0478;-1.4390;
974696350237483;-8.3028;-0.7627;-0.8809;
974696360328577;-7.4907;-0.5160;-4.1459;
974696370432587;-7.9603;-0.4848;-5.3462;
974696380536650;-8.9040;-0.3123;-5.1903;
974696390637795;-10.1091;-0.1854;-3.7723;
974696400741806;-11.2636;-0.1543;-2.2654;
974696410845868;-9.6203;-0.0655;-1.7551;
974696420970920;-9.1173;-0.6383;-1.8200;
974696431074931;-8.8920;-0.8154;-3.1567;
974696441178993;-11.5152;-0.2979;-2.6201;
974696451289931;-6.6523;0.2052;-2.6560;
974696461393941;-7.4907;-1.0238;-4.9484;
974696471498004;-10.6170;0.4516;-4.6394;
974696481579618;-10.6935;0.4540;-1.8320;
974696491683629;-9.8145;-0.7699;-1.8990;
974696501787691;-8.6883;-0.9832;-3.8465;
974696511903368;-9.2369;-0.7340;-3.8249;
974696522007379;-10.4803;-0.8512;-2.6632;
974696532111441;-8.8561;-0.8369;-2.6441;
974696542190348;-7.6944;-0.3099;-3.4011;
974696552294358;-8.6285;-0.5112;-4.7952;
974696562398420;-10.0035;-0.5399;-4.6298;
974696572526389;-9.1890;0.5620;-3.3577;
974696582630400;-8.8537;1.1704;-2.5986;
974696592734462;-9.9126;1.4506;-1.8799;
974696602850452;-8.9758;1.2398;-2.6776;
974696612954462;-9.0072;0.6338;-3.1448;
974696623058525;-9.4956;0.2530;-4.2036;
974696633158160;-9.6036;-0.1448;-3.4107;
974696643262170;-8.9351;0.1714;-2.9219;
974696653366233;-6.6117;0.0996;-4.5269;
974696663446181;-11.6707;-0.8130;-4.4261;
974696673550191;-9.6586;0.1642;-1.7408;
974696683654254;-7.4668;1.3836;-2.2367;
974696693769202;-8.9160;0.0876;-4.9460;
974696703873212;-11.6013;-1.7545;-3.7244;
974696713977275;-10.5185;-1.3831;-2.1817;
974696724077223;-8.4583;-0.6263;-2.1888;
974696734181233;-8.5184;-1.1749;-1.9923;
974696744285295;-9.2731;-1.6923;-3.1831;
974696754390348;-8.3195;-1.3735;-3.4992;
974696764494358;-7.7183;-0.6718;-3.3529;
974696774598420;-8.9423;-0.1543;-2.7733;
974696784685035;-10.1641;-0.1472;-2.3614;
974696794789045;-9.7065;-0.2429;-3.1424;
974696804893108;-7.9866;-0.1496;-3.1158;
974696815034202;-8.7724;-0.3413;-3.5136;
974696825138212;-8.5735;-1.6971;-4.6681;
974696835242275;-9.9245;-0.7340;-4.7761;
974696845327848;-9.5892;-0.9784;-3.9425;
974696855431858;-10.4396;-0.9233;-2.6082;
974696865535920;-9.6706;-0.9305;-2.5792;
974696875643160;-8.3100;-0.4777;-2.1003;
974696885747170;-8.2621;-0.4753;-2.0836;
974696895851233;-9.5342;-0.4202;-2.8813;
974696905947535;-10.2885;0.0111;-2.7637;
974696916051545;-9.8456;-0.4250;-3.0535;
974696926155608;-9.8695;-0.2022;-2.8259;
974696936262535;-7.4237;-0.4609;-3.6571;
974696946366545;-10.3149;-0.4226;-4.9316;
974696956470608;-12.4902;0.4636;-2.4308;
974696966569306;-9.2608;0.6314;-0.6006;
974696976673316;-8.5376;1.0101;-1.0463;
974696986777379;-8.6429;0.5070;-2.1003;
974696996882848;-7.3804;0.0135;-2.6871;
974697006986910;-8.8872;0.4205;-3.6667;
974697017090920;-9.3855;0.0206;-4.4046;
974697027198264;-9.7376;0.1451;-4.1219;
974697037302275;-8.6381;-0.0682;-3.9808;
974697047406337;-9.6802;-0.1735;-3.9832;
974697057513629;-9.7519;0.0852;-2.8618;
974697067617639;-8.7266;0.2267;-3.5399;
974697077721754;-8.8274;0.0302;-3.4777;
974697087837743;-9.4717;-0.5614;-3.4035;
974697097941754;-9.3185;0.1331;-2.5576;
974697108045816;-8.7389;0.4998;-2.3399;
974697118138108;-9.6084;0.3488;-2.8908;
974697128242118;-8.9088;0.3464;-3.8345;
974697138346181;-10.8395;-0.0081;-3.9377;
974697148453212;-10.7127;0.9571;-2.7517;
974697158557223;-10.1306;1.1871;-0.9936;
974697168661285;-9.8504;0.7561;-2.3252;
974697178762223;-9.8264;0.1307;-3.3625;
974697188866233;-9.4119;-0.0969;-2.9076;
974697198970295;-10.5640;0.1714;-2.4069;
974697209070139;-46.7312;4.2655;1.8739;
974697219174150;-23.1981;6.7232;8.9022;
974697229278212;44.0821;-11.2669;6.4062;
974697239374879;40.6014;4.3373;-17.2325;
974697249478889;-8.2358;-0.2835;-36.7917;
974697259582952;-46.1013;1.0172;-9.3491;
974697269716962;-39.0802;2.3635;15.8492;
974697279821077;-8.6836;5.5421;11.4751;
974697289925243;6.1995;2.9480;-4.5724;
974697300006077;0.5533;-3.3500;-9.5213;
974697310110243;-10.5712;-5.8340;-3.9087;
974697320214410;-16.2197;-1.8981;-4.3232;
974697330324462;-13.5610;0.7418;-3.7412;
974697340428629;-6.8438;-0.7507;-0.2773;
974697350532795;-6.7361;-0.8731;-1.1396;
974697360627535;-9.9844;-2.1568;-1.1779;
974697370731702;-10.0490;-1.2036;-2.6991;
974697380835868;-9.5773;-0.1567;-3.9760;
974697390931129;-10.0681;-0.1687;-2.5576;
974697401035243;-8.3507;-0.9473;-3.5471;
974697411139358;-8.8202;-0.8803;-5.0898;
974697421245816;-5.2220;-2.4323;-11.7374;
974697431349931;-22.4028;-6.5982;-10.2281;
974697441454098;-21.3679;-2.1927;6.7367;
974697451568108;-2.6782;4.8165;18.5154;
974697461672275;14.8857;4.9409;10.3636;
974697471776441;-2.9943;2.8208;-12.8632;
974697481881806;-29.2418;1.8245;-20.1742;
974697491985920;-16.9720;-2.5738;-2.3686;
974697502090087;0.7116;0.3392;1.2272;
974697512209931;-3.9263;0.7633;-7.9331;
974697522314098;-9.4167;-3.9081;-7.2841;
974697532418212;-12.2554;-4.4255;-5.7437;
974697542500295;-30.6622;-5.2232;-2.3157;
974697552604462;-5.6773;-4.7225;1.7423;
974697562708629;18.9389;4.2320;-1.3026;
974697572826493;8.9498;0.1140;-11.5170;
974697582930660;-23.4470;-4.1955;-10.4031;
974697593034827;-30.9906;-2.3868;-1.2787;
974697603129723;-10.8852;2.7897;0.0724;
974697613233889;-8.2789;3.3742;-2.0330;
974697623338056;-0.4504;0.0422;2.6836;
974697633424879;-1.8613;-0.1783;0.1301;
974697643529045;-16.4282;0.0182;-6.3090;
974697653633160;-15.8533;-1.1390;-4.2467;
974697663737535;-7.3660;1.1154;-0.7397;
974697673841702;-4.9059;1.1465;-2.8211;
974697683945868;-9.9197;-0.4944;-5.1066;
974697694059306;-12.9500;-0.6933;-5.1401;
974697704163473;-11.0432;-0.4801;-3.7101;
974697714267587;-9.6754;-0.0778;-2.5074;
974697724373889;-6.7457;1.3071;-1.9229;
974697734478056;-6.8151;0.4735;-2.6584;
974697744582170;-6.8800;-0.0081;-3.6284;
974697754689462;-8.1135;-2.5786;-8.3620;
974697764793629;-19.2766;-3.3978;-7.3606;
974697774897743;-11.3450;1.1489;4.7773;
974697785000243;-0.1316;5.0465;7.8915;
974697795104410;3.4950;1.8027;-1.9732;
974697805208525;-12.5166;-0.8465;-14.3916;
974697815326806;-18.5196;-1.5772;-9.6915;
974697825430973;-5.7203;-2.8756;-2.6106;
974697835535087;-9.8743;-0.6287;-6.4146;
974697845626389;-9.2417;-0.5040;-0.3132;
974697855730556;-6.1516;-0.0464;-1.8368;
974697865834670;-11.0216;-0.8731;-6.4720;
974697875944879;-12.8303;-1.3687;-2.1888;
974697886049045;-10.6122;2.0761;-0.1669;
974697896153212;-10.0083;1.5538;-0.2797;
974697906248785;-9.1627;-0.8321;-1.2568;
974697916352952;-9.0503;-0.7436;-2.2367;
974697926457066;-10.0828;-0.0057;-1.8846;
974697936558473;-10.3005;0.2411;-3.9302;
974697946662639;-11.3043;0.2267;-2.5552;
974697956766754;-7.8930;0.6362;-1.0008;
974697966875556;-7.2631;0.5692;-3.2094;
974697976979723;-8.8322;-0.7723;-4.6729;
974697987083837;-8.4993;-0.0655;-3.7651;
974697997182848;-8.1829;-0.0416;-3.1277;
974698007287014;-8.9925;0.3224;-4.1937;
974698017391129;-9.5677;0.4181;-3.2285;
974698027498056;-9.8097;-0.2189;-2.4858;
974698037602223;-10.4922;-0.3867;-1.9493;
974698047706389;-10.0011;0.0757;-1.5398;
974698057817483;-8.7075;-0.4490;-2.3901;
974698067921598;-10.0681;-1.3065;-2.8642;
974698078025764;-8.9471;-0.6766;-2.0450;
974698088139931;-7.2799;-0.8946;-3.4992;
974698098244098;-9.0838;-0.9377;-5.2502;
974698108348212;-10.9618;-0.3676;-4.4166;
974698118432952;-10.3846;-0.1807;-3.6236;
974698128537118;-10.8419;-0.0655;-2.1147;
974698138641233;-8.2621;-0.2548;-2.5026;
974698148752118;-7.2607;0.1786;-3.0990;
974698158856285;-8.6022;-0.5662;-2.6034;
974698168960400;-9.7854;0.7585;-3.3577;
974698179058785;-10.3077;1.3406;-2.3973;
974698189162952;-8.4535;0.6697;-1.8559;
974698199267066;-8.2095;-0.0416;-2.7087;
974698209371806;-9.4525;0.4038;-2.7182;
974698219475973;-9.2130;0.1546;-3.1831;
974698229580087;-9.2417;-0.3604;-3.0296;
974698239687014;-9.9820;-0.8273;-3.2644;
974698249791181;-9.2922;-0.2788;-3.6356;
974698259895348;-9.6275;-0.6144;-3.8417;
974698269998629;-10.6552;-0.9999;-4.4309;
974698280102535;-10.7510;-0.4178;-2.6058;
974698290206441;-9.2034;0.1403;-1.5203;
974698300301077;-8.6477;0.6888;-1.7527;
974698310404983;-8.9160;0.0589;-1.9158;
974698320508889;-8.6094;0.6625;-2.3375;
974698330622795;-7.3636;0.8088;-3.2189;
974698340726702;-8.4224;-0.0057;-4.5461;
974698350830608;-8.3913;0.4421;-4.6801;
974698360952431;-9.4190;0.4301;-4.4189;
974698371056389;-9.1460;0.4181;-3.9784;
974698381160295;-7.9843;0.4783;-3.0918;
974698391224879;-9.3305;-0.5471;-3.0655;
974698401328785;-9.3879;0.1235;-3.3099;
974698411432691;-11.1775;0.1283;-2.4523;
974698421568212;-10.4157;-0.2166;-1.1444;
974698431672170;-7.9340;-0.4155;-1.2667;
974698441776077;-8.7099;-0.7771;-2.7829;
974698451853420;-10.6768;-1.0143;-3.5542;
974698461957327;-12.3129;-0.4729;-2.3375;
974698472061181;-10.0947;0.3320;-2.3638;
974698482197848;-8.2406;0.1857;-2.3204;
974698492301754;-9.0526;0.0517;-2.9100;
974698502405660;-9.7687;-0.0248;-3.2477;
974698512505243;-8.8801;0.8399;-3.4035;
974698522609202;-7.3950;0.3440;-3.8465;
974698532713056;-7.3469;0.8399;-4.5867;
974698542796702;-9.5486;0.4301;-4.2108;
974698552900608;-10.3125;0.6697;-3.3697;
974698563004514;-9.3736;1.0866;-2.4595;
974698573131337;-8.0871;0.0398;-2.3566;
974698583235243;-8.7365;-0.2453;-2.5839;
974698593339098;-9.5629;-0.0897;-2.9148;
974698603425816;-9.0909;-0.2883;-2.9267;
974698613529670;-9.1101;-0.3051;-2.7159;
974698623633577;-10.3606;-0.8850;-3.6523;
974698633740712;-9.4669;-1.0549;-4.1578;
974698643844618;-9.7735;-0.7866;-4.0454;
974698653948525;-10.2144;-0.6837;-2.8331;
974698664056441;-10.6600;-0.1711;-2.5624;
974698674160348;-10.1928;-0.6168;-2.6010;
974698684264254;-7.2392;-0.4322;-2.9100;
974698694361025;-8.0321;-0.4011;-3.2237;
974698704464931;-10.0732;-0.7962;-3.6069;
974698714568837;-8.8442;-0.2237;-3.5495;
974698724679358;-8.6357;0.0948;-3.7771;
974698734783264;-9.2297;-0.2812;-2.8884;
974698744887170;-9.3138;-0.0583;-2.3758;
974698754980973;-9.9963;-0.4537;-3.2405;
974698765084931;-10.0250;-0.7005;-3.9664;
974698775188837;-10.5736;-0.5566;-2.5074;
974698785310556;-8.3578;-1.4647;-1.9540;
974698795414514;-6.8007;-0.9377;-3.3338;
974698805518368;-7.9675;-0.8898;-4.3089;
974698815631077;-8.9351;-0.7747;-4.7112;
974698825735035;-7.9723;-1.5245;-5.1018;
974698835838941;-9.5219;-0.0416;-5.7843;
974698845918993;-11.6133;-0.8010;-4.3280;
974698856022952;-9.4837;-0.3290;-2.0043;
974698866126858;-6.9230;-0.7579;-2.7135;
974698876250712;-7.7542;-0.9114;-3.8106;
974698886354618;-10.5473;-0.3700;-3.4872;
974698896458473;-12.1211;-0.6359;-2.9554;
974698906548212;-10.5138;-0.2285;-1.6355;
974698916652118;-9.0287;0.3559;-0.6054;
974698926755973;-8.8490;-0.1065;-1.7312;
974698936859358;-9.7831;-0.5255;-2.8618;
974698946963264;-10.7773;-0.3051;-1.9804;
974698957067170;-8.9423;-0.0559;-2.7398;
974698967182170;-8.4583;-0.6814;-3.9855;
974698977286129;-9.9844;-0.7436;-4.2897;
974698987390087;-9.9293;-0.3314;-3.8536;
974698997487691;-9.1005;-0.6048;-3.8297;
974699007591545;-10.2024;-0.3628;-3.0799;
974699017695504;-9.2632;0.8806;-2.3037;
974699027803212;-7.2224;0.6410;-1.8607;
974699037907118;-8.0154;0.2363;-1.8870;
974699048010973;-9.0168;0.7705;-2.2774;
974699058107275;-10.8733;0.9811;-2.8908;
974699068211181;-11.8552;0.0446;-3.0679;
974699078315087;-8.5639;0.0326;-2.0091;
974699088416545;-6.5707;-0.4848;-2.2080;
974699098520452;-7.6801;-0.8177;-4.7498;
974699108624358;-10.0947;-0.5207;-5.1688;
974699118760660;-9.6849;-0.5064;-4.8909;
974699128864618;-7.9508;-1.0047;-4.9125;
974699138968525;-7.2799;-0.6622;-4.7327;
974699149044931;-8.3507;-0.5566;-4.4453;
974699159148785;-10.6840;-0.4490;-4.3543;
974699169252743;-11.3378;-0.3508;-1.6905;
974699179363629;-10.5879;0.1594;-1.4270;
974699189467535;-9.6754;0.2124;-1.8942;
974699199571441;-11.9031;-0.6144;-1.8105;
974699209678420;-12.1020;-0.1543;0.8773;
974699219782327;-7.7112;-0.9185;-0.0449;
974699229886233;-6.5420;-0.3556;-2.4763;
974699239984045;-9.0790;0.3870;-2.5935;
974699250087900;-8.9853;0.1355;-3.3553;
974699260191806;-6.7289;-0.5566;-6.2372;
974699270295295;-8.0656;-0.7531;-7.5332;
974699280399254;-9.9461;-0.0778;-7.0301;
974699290503264;-9.7256;-0.8850;-4.7833;
974699300598889;-9.2608;-1.2179;-2.3949;
974699310702900;-8.6501;-0.8922;-2.9865;
974699320806910;-9.1292;-0.0682;-2.7302;
974699330965452;-10.1856;-0.4298;-0.9239;
974699341069462;-10.3125;-0.9544;0.1421;
974699351173473;-7.4261;-0.2668;-0.1813;
974699361207275;-7.9723;0.5405;-1.4462;
974699371311233;-8.1135;-0.5088;-3.3123;
974699381415243;-9.2106;-1.3902;-4.3256;
974699391550348;-10.5568;-1.2108;-5.6049;
974699401654306;-10.1809;-1.4910;-5.0085;
974699411758316;-8.6716;-1.8526;-4.5724;
974699421867014;-9.4430;-1.4551;-5.0539;
974699431970973;-11.5654;-0.5662;-3.8058;
974699442074983;-9.6993;-0.4825;-1.3744;
974699452153525;-6.0221;0.5333;-1.8703;
974699462257431;-7.8691;1.4722;-1.5179;
974699472361441;-11.4697;1.0244;-1.5108;
974699482470452;-10.6023;0.5859;-1.2401;
974699492574410;-7.9098;1.5081;-2.3901;
974699502678420;-9.1508;0.7705;-1.8942;
974699512785295;-10.1904;-0.5183;-3.0799;
974699522889254;-9.2154;-0.8369;-4.3519;
974699532993316;-9.4238;-0.9018;-4.0167;
974699543100035;-7.7375;-0.8536;-4.9220;
974699553203993;-6.9541;-0.8154;-5.7867;
974699563308004;-9.2827;-0.6407;-4.2610;
974699573440608;-10.8108;0.3679;-3.7077;
974699583544566;-9.6586;0.7490;-2.8068;
974699593648577;-7.9508;0.6529;-1.2643;
974699603720764;-9.5052;-0.0081;-2.2032;
974699613824775;-11.3210;-0.0993;-1.9780;
974699623928785;-10.8900;0.5022;-0.2557;
974699634046962;-8.1852;-0.1017;-1.6499;
974699644150868;-8.1494;-0.5830;-3.3864;
974699654254931;-10.0681;-0.9257;-2.7589;
974699664357691;-8.4849;-0.2405;-3.3171;
974699674461650;-6.5444;-0.5662;-5.4610;
974699684565660;-10.7318;-0.9329;-5.1903;
974699694669879;-10.5305;-0.5471;-4.6657;
974699704773785;-7.7997;0.3344;-3.2189;
974699714877848;-7.0810;-0.2835;-2.9172;
974699724973733;-8.4033;-1.0597;-4.4767;
974699735077691;-8.5280;-0.4896;-3.9230;
974699745181702;-7.7016;-0.2979;-3.2070;
974699755289045;-10.4946;0.0805;-2.7374;
974699765393004;-11.0719;1.1489;-0.2222;
974699775497014;-8.9518;0.2961;-0.1525;
974699785636181;-8.5424;-0.2812;-3.0918;
974699795740191;-10.1545;-0.7723;-3.4609;
974699805844202;-11.0551;-1.2897;-2.4093;
974699815922848;-12.7801;-1.5963;-3.0344;
974699826026858;-12.6601;-1.2179;-2.1601;
974699836130868;-9.3760;-1.6011;-1.8009;
974699846229566;-7.8595;-0.9544;-2.4643;
974699856333525;-7.4979;-0.7771;-2.2319;
974699866437535;-9.6275;-0.5183;-3.2142;
974699876544098;-11.2062;0.6793;-1.7623;
974699886648004;-8.8059;0.3751;-1.5972;
974699896752014;-8.9016;0.0948;-4.1315;
974699906846077;-10.4803;0.5907;-2.1242;
974699916950087;-9.8480;-0.4944;-1.4079;
974699927054045;-8.8801;-0.4178;-3.6981;
974699937152952;-10.7821;0.3894;-2.1912;
974699947256962;-7.4261;0.7394;-1.6331;
974699957360920;-4.0962;0.4807;-2.6560;
974699967491702;-6.0799;0.4229;-4.4118;
974699977595712;-9.6897;-0.0559;-7.3630;
974699987699723;-10.1115;-0.6263;-7.1501;
974699997788629;-9.7926;-0.4513;-5.5786;
974700007892535;-10.0274;-1.2969;-3.6790;
974700017996545;-13.3597;-1.4169;-3.4322;
974700028104098;-13.5440;-1.9989;-3.8154;
974700038208056;-13.6304;-1.6346;-0.7253;
974700048312014;-12.9835;-1.4599;1.8739;
974700058419462;-10.5090;-0.6407;1.8978;
974700068523420;-7.3950;-0.1854;2.1302;
974700078627431;-7.4477;0.6003;-0.5551;
974700088729983;-8.8250;1.1273;-3.4083;
974700098833941;-9.8743;0.6912;-4.7450;
974700108937952;-8.1781;0.5213;-5.9378;
974700119027118;-8.0895;1.8102;-6.0622;
974700129131129;-8.7652;0.8686;-6.2922;
974700139235139;-9.1675;0.9667;-4.9244;
974700149359462;-9.7376;0.5070;-3.6718;
974700159463420;-8.9064;0.2219;-4.1411;
974700169567431;-7.8978;1.2784;-2.2056;
974700179679254;-6.3215;0.7032;-2.9937;
974700189783212;-8.3865;-0.2572;-3.4466;
974700199887223;-10.1282;-0.0655;-2.9076;
974700209979879;-7.4381;-0.6215;-3.9879;
974700220083837;-7.3493;-0.5160;-6.0694;
974700230187848;-9.1555;-2.1688;-6.7953;
974700240272952;-9.6873;-2.3940;-5.5905;
974700250376962;-8.5424;-3.2324;-5.8923;
974700260480920;-8.2645;-2.2624;-7.5069;
974700270608629;-9.0981;-1.1533;-4.9173;
974700280712743;-10.0923;-1.7833;-3.2357;
974700290816910;-9.8791;0.0326;-1.7767;
974700300914931;-9.4741;1.3262;-0.3634;
974700311019098;-10.3367;1.5009;0.0485;
974700321123212;-9.3353;1.4602;0.0365;
974700331208316;-9.2058;1.2039;0.0197;
974700341312431;-9.3592;-0.1448;-1.3002;
974700351416545;-9.6754;0.2339;-2.3925;
974700361543056;-8.6357;-0.0559;-4.2108;
974700371647170;-8.8131;-0.8536;-4.3567;
974700381751337;-9.5845;-0.4442;-3.7077;
974700391834410;-9.5677;-1.2682;-4.7809;
974700401938525;-9.6132;-0.7005;-3.9736;
974700412042691;-9.6203;-0.6048;-3.4753;
974700422144827;-8.2334;-1.9487;-3.0488;
974700432248941;-6.7002;-0.1878;-1.4127;
974700442353108;-8.3650;-1.3783;-2.8980;
974700452456285;-13.3478;-0.2764;-3.0488;
974700462560400;-10.9857;0.4564;0.2976;
974700472664566;-5.8810;-0.6742;0.1516;
974700482777743;-8.8681;0.3176;-1.5876;
974700492881858;-10.9929;-0.5351;-2.1553;
974700502986025;-7.6391;0.5118;-2.6632;
974700513105608;-8.5902;0.0230;-3.7340;
974700523209723;-11.3234;-1.1390;-5.6456;
974700533313889;-9.0335;-1.4384;-4.2491;
974700543402118;-6.3745;0.1475;-4.8909;
974700553506233;-5.6294;-0.3147;-4.6346;
974700563610400;-11.7978;-0.5925;-5.0707;
974700573737639;-14.4233;-0.2835;-2.1362;
974700583841754;-10.2598;0.0541;-0.2414;
974700593945920;-9.1101;0.1666;-3.3147;
974700604031493;-8.9638;-0.7388;-1.3959;
974700614135608;-7.4333;-1.9244;-1.0463;
974700624239775;-7.5410;-0.0320;-3.0344;
974700634338056;-4.7240;0.1379;-3.3745;
974700644442170;-5.8235;0.7490;-5.9713;
974700654546337;-18.2321;1.4435;-5.3509;
974700664651181;-19.6669;0.1140;-1.1085;
974700674755295;-9.1843;0.4684;2.9423;
974700684859462;0.9559;-0.0081;-2.4954;
974700694969306;-6.9398;-1.8598;-6.0864;
974700705073420;-15.0915;-1.6585;-2.6201;
974700715177587;-11.6276;0.3224;-1.8033;
974700725278681;-8.3028;0.0709;-3.1472;
974700735382795;-10.9451;1.0627;-2.9722;
974700745486962;-10.4420;-0.3843;-0.4089;
974700755589723;-5.7323;0.1427;0.3215;
974700765693837;-4.9923;-0.0368;-5.0348;
974700775798004;-12.4732;-0.7890;-6.8671;
974700785898577;-12.9165;-0.5207;-3.5399;
974700796002691;-8.9327;0.0613;-3.7436;
974700806106910;-6.5901;0.2530;-3.8680;
974700816227639;-5.6701;-1.3448;-4.7426;
974700826331806;-10.8132;0.2148;-3.6933;
974700836435920;-9.0311;2.8017;0.4295;
974700846539098;-4.9298;3.8629;0.0748;
974700856643212;-6.1301;1.3262;-5.4108;
974700866747327;-12.1499;-1.4216;-10.5012;
974700876844202;-13.2350;-2.0228;-6.0960;
974700886948316;-10.1761;0.3344;0.3577;
974700897052483;-7.2894;0.5333;-0.1095;
974700907154723;-8.1135;-1.2514;-3.1158;
974700917258889;-13.5921;-1.1749;-4.7928;
974700927363004;-11.5319;-0.0945;-1.1946;
974700937454827;-7.8691;-0.4848;-2.4500;
974700947558941;-11.8122;-0.5806;-4.4046;
974700957663108;-11.0671;-0.3242;0.8629;
974700967768473;-7.3828;-0.0368;-0.0042;
974700977872587;-7.1411;0.5835;-3.4442;
974700987976754;-9.5486;-0.0464;-4.4381;
974700998088993;-11.3737;0.7657;-5.0994;
974701008193108;-10.5018;1.0819;-1.3169;
974701018297275;-6.6906;1.1728;-1.1109;
974701028401181;-5.9551;0.9260;-3.1831;
974701038505295;-9.2297;0.1379;-3.4801;
974701048609462;-10.0514;0.5692;-3.4490;
974701058728160;-8.4559;0.7199;-2.5002;
974701068832275;-7.7877;0.2626;-5.0372;
974701078936441;-9.7208;-0.6096;-4.9364;
974701089028629;-9.3784;-0.6191;-2.4739;
974701099132743;-8.7317;-1.2227;-4.4285;
974701109236910;-9.9461;-1.3783;-4.3089;
974701119335712;-9.7089;-1.0525;-4.2036;
974701129439827;-9.9532;-1.3232;-3.9640;
974701139543993;-9.5821;-1.8191;-2.0354;
974701149650243;-9.6515;-1.1988;-2.7613;
974701159754358;-9.8886;-0.1448;-2.5098;
974701169858525;-9.6036;-0.6933;-2.9267;
974701179974410;-10.6768;-0.0921;-1.6810;
974701190078525;-9.0239;0.2794;-0.7421;
974701200182691;-7.8069;0.1810;-2.5361;
974701210283056;-10.3750;0.4854;-1.9756;
974701220387170;-7.8069;-0.0344;-2.2822;
974701230491337;-7.0786;0.1522;-3.2501;
974701240584931;-8.4969;0.1140;-4.4166;
974701250689098;-9.8480;-0.2668;-6.2946;
974701260793264;-9.5653;-0.4968;-5.0348;
974701270913889;-8.0871;-1.0358;-3.2381;
974701281018004;-9.5243;-1.2156;-2.3180;
974701291122118;-9.9293;-1.1219;-2.8522;
974701301201962;-10.1976;-1.7593;-4.7327;
974701311306025;-10.7198;-1.0741;-1.4031;
974701321410139;-9.0742;-1.3017;-0.8545;
974701331513056;-9.5390;-0.9377;-2.5026;
974701341617170;-10.7031;-0.5614;-2.2487;
974701351721233;-8.7532;-0.8177;-2.5720;
974701361823785;-8.1975;0.0733;-2.8618;
974701371927848;-7.7662;-0.0921;-2.6895;
974701382032014;-9.1699;0.1092;-4.4022;
974701392168889;-9.8049;1.0747;-3.8273;
974701402273004;-7.2894;0.0996;-3.0894;
974701412377066;-7.9819;0.2411;-3.1902;
974701422467743;-9.9341;0.2459;-3.9302;
974701432571858;-9.4167;0.4564;-3.7914;
974701442675973;-7.9555;0.4854;-2.4619;
974701452775973;-7.6152;-0.0416;-4.0573;
974701462880087;-9.4645;-0.2859;-4.2682;
974701472984202;-10.5257;-0.3338;-2.3973;
974701483075764;-11.1559;-0.9616;-2.7326;
974701493179879;-9.9939;-0.3676;-2.4739;
974701503283993;-9.7639;-0.7484;-1.8799;
974701513395660;-9.3616;-1.5173;-2.1817;
974701523499775;-11.1607;-1.2826;-3.3769;
974701533603889;-12.0494;-0.7842;-3.5064;
974701543707223;-10.9116;-0.6909;-0.6269;
974701553811337;-10.2718;-0.2285;-0.5910;
974701563915400;-9.8839;0.5883;-1.2090;
974701574023160;-7.4357;1.2565;-1.1372;
974701584127275;-6.6021;0.7223;-3.1902;
974701594231337;-7.5027;1.3143;-3.9425;
974701604335868;-8.7891;1.4459;-4.1554;
974701614439983;-8.4200;0.7319;-4.9914;
974701624544045;-9.4597;0.9643;-5.1497;
974701634640868;-9.4908;-0.0802;-4.6657;
974701644744983;-8.9518;0.2100;-2.7039;
974701654849045;-8.7123;-0.9640;-3.4250;
974701664956493;-9.1603;-1.0262;-4.1818;
974701675060608;-8.8585;-0.7651;-3.0894;
974701685164670;-8.1781;-1.1076;-4.2132;
974701695276389;-8.0991;-1.3184;-4.1578;
974701705380504;-10.5736;-1.6971;-4.5461;
974701715484566;-10.3678;-0.9042;-2.7422;
974701725576285;-9.4430;-0.4202;-3.5877;
974701735680400;-9.3592;-0.1184;-3.7938;
974701745784462;-10.7797;-0.3748;-1.9899;
974701755898889;-10.2861;-1.0813;-2.8570;
974701766003004;-9.5315;0.1068;-2.1840;
974701776107066;-9.6849;0.6721;-2.5959;
974701786208993;-10.4252;1.0026;-1.5302;
974701796313108;-9.8527;0.9380;-1.4318;
974701806417223;-7.1216;0.6649;-1.6714;
974701816520556;-6.7361;1.0340;-3.0464;
974701826624670;-8.7509;0.6458;-5.4012;
974701836728733;-9.1460;0.1451;-5.4443;
974701846824618;-8.5974;-0.1902;-5.7221;
974701856928681;-9.0000;0.4158;-4.1052;
974701867032795;-9.6586;-0.3027;-3.8704;
974701877149879;-11.3928;-0.2453;-3.7125;
974701887253993;-10.4324;-0.4131;-1.8272;
974701897358108;-8.9973;-0.5973;-0.9335;
974701907453368;-8.8872;-0.8489;-0.8163;
974701917557483;-9.0120;-1.0502;-2.5385;
974701927661598;-9.2560;-0.1089;-2.0788;
974701937759618;-8.1565;-0.0993;-3.1687;
974701947863733;-7.8571;-0.4490;-3.3194;
974701957967848;-9.6108;-0.4155;-4.4237;
974701968095556;-9.9844;-0.4298;-4.5150;
974701978199670;-9.4645;-0.3508;-3.8895;
974701988303733;-8.6477;-0.4753;-4.1961;
974701998391806;-9.5653;0.3631;-3.0416;
974702008495920;-9.2513;-0.3147;-2.7326;
974702018599983;-9.7759;0.0613;-2.0186;
974702028709618;-8.6429;0.0374;-2.4906;
974702038813733;-8.3483;0.5094;-2.0354;
974702048917795;-8.5902;-0.8297;-3.1807;
974702059012848;-9.2707;-0.5183;-3.3888;
974702069116962;-9.0694;-0.6096;-3.9278;
974702079221077;-9.3640;-0.1304;-4.1315;
974702089340452;-10.3678;-0.3218;-3.3601;
974702099444566;-9.7974;-1.0406;-2.5385;
974702109548629;-10.4803;-0.2453;-1.7001;
974702119646702;-9.6395;-0.6814;-2.2128;
974702129750816;-10.1785;-0.0272;-1.9780;
974702139854879;-10.5975;-0.4394;-2.6106;
974702149953473;-10.2861;0.2506;-0.5097;
974702160057587;-7.6080;-0.2620;-1.3887;
974702170161650;-6.0365;-0.5207;-3.7938;
974702180268004;-7.9388;-0.3700;-5.8564;
974702190372066;-9.9844;0.2626;-5.0324;
974702200476181;-8.8274;0.5596;-3.2692;
974702210569514;-8.5639;-0.0440;-4.1459;
974702220673629;-9.8767;-0.4011;-2.8379;
974702230777743;-11.1464;-1.0645;-3.8656;
974702240896285;-10.4133;-0.0583;-1.6522;
974702251000400;-8.1494;-0.4011;-2.1410;
974702261104514;-9.6180;-0.6144;-1.6020;
974702271198004;-9.4693;-0.6479;-1.2930;
974702281301910;-8.9686;0.1690;-2.8211;
974702291405816;-9.7376;0.1570;-2.4978;
974702301527848;-9.7639;-0.3915;-2.4739;
974702311631754;-9.7280;-1.2132;-2.8116;
974702321735660;-11.5176;-1.7139;-4.3950;
974702331813941;-8.8681;-1.0669;-2.9961;
974702341917848;-8.1613;-1.4169;-3.9015;
974702352021806;-9.5052;-1.0478;-3.4801;
974702362164098;-10.0585;-0.0730;-3.6571;
974702372268004;-9.2707;1.5033;-1.8488;
974702382371910;-9.0742;1.6113;-2.0163;
974702392440556;-7.8691;0.9930;-1.6977;
974702402544514;-6.5563;-0.2189;-4.1530;
974702412648420;-9.8097;0.2052;-3.7699;
974702422781441;-8.9375;0.3368;-3.6260;
974702432885348;-9.4310;-0.1759;-4.7303;
974702442989254;-10.6887;-0.3314;-3.2118;
974702453069775;-9.4071;-0.3676;-3.1854;
974702463173681;-8.3339;-0.6646;-2.1888;
974702473277587;-9.2584;-1.1148;-3.5160;
974702483384045;-9.8599;0.1068;-2.6489;
974702493487952;-10.2000;-0.4920;-3.7196;
974702503591858;-10.3244;-0.3266;-2.3157;
974702513690712;-8.2047;-0.9449;-3.3864;
974702523794670;-9.9126;-0.2692;-3.3266;
974702533898577;-10.5879;0.1738;-2.6034;
974702544003993;-8.5017;0.2626;-2.5122;
974702554107952;-9.8910;0.0589;-1.9349;
974702564211858;-10.1067;0.8877;-2.5600;
974702574345295;-10.0875;0.8662;-2.3734;
974702584449150;-9.6538;-0.0296;-3.6188;
974702594553108;-10.3941;0.7490;-1.9421;
974702604637170;-9.0048;0.5644;-1.4916;
974702614741077;-9.1723;0.6625;-1.6259;
974702624844983;-8.2717;0.8351;-2.5624;
974702634949566;-9.1292;0.9858;-3.7340;
974702645053473;-9.8551;-0.1591;-2.9722;
974702655157379;-9.2393;-0.5064;-3.9808;
974702665266754;-9.6658;0.0350;-3.1950;
974702675370660;-8.7987;-0.5806;-3.6547;
974702685474566;-8.0201;-0.0416;-3.2812;
974702695570764;-8.2358;-0.9951;-5.0779;
974702705674618;-9.5342;-0.3099;-3.7555;
974702715778577;-10.8805;-0.9257;-3.8201;
974702725881077;-10.2479;-0.7196;-2.4093;
974702735985035;-8.5974;-0.5853;-2.0521;
974702746088941;-7.8978;-0.5877;-1.9636;
974702756194670;-9.0766;-1.0621;-4.0980;
974702766298577;-11.3880;-0.9377;-3.8393;
974702776402483;-10.0059;-0.8827;-2.2558;
974702786515087;-7.7231;-0.4896;-2.5720;
974702796618993;-10.6720;-0.8345;-2.7852;
974702806722900;-11.2445;-0.6311;-3.3147;
974702816831910;-10.3053;-0.8058;-1.0175;
974702826935868;-9.1627;-0.5279;-2.0545;
974702837039775;-9.3090;-0.0272;-2.5337;
974702847120452;-10.4779;-1.2873;-3.8154;
974702857224410;-8.9160;-1.0597;-2.2128;
974702867328316;-6.9350;-1.3089;-3.5447;
974702877449670;-8.1135;-0.5542;-4.3567;
974702887553525;-9.1962;-0.8225;-4.3352;
974702897657483;-8.4464;-0.6837;-3.7340;
974702907751077;-7.7447;-0.3532;-3.5542;
974702917854983;-7.3445;-1.0836;-4.6753;
974702927958941;-8.7987;-1.1557;-5.1329;
974702938079045;-13.5129;-2.3868;-4.3113;
974702948182900;-12.1666;-1.2323;-1.5084;
974702958286858;-7.5266;-1.2227;-0.8689;
974702968366545;-7.5745;-0.4513;-0.8809;
974702978470504;-9.7567;-1.2419;-2.5217;
974702988574410;-9.9174;-0.8297;-2.8140;
974702998693212;-8.0178;-1.0813;-2.4093;
974703008797118;-8.4945;-0.2883;-3.5112;
974703018901025;-10.2048;-1.1629;-3.8489;
974703029007795;-11.4075;-0.7244;-4.7088;
974703039111702;-8.7437;-0.9090;-2.9363;
974703049215608;-7.7590;-0.9425;-3.8249;
974703059317379;-9.7137;-0.4035;-2.7470;
974703069421285;-9.0048;-0.9640;-2.8307;
974703079525191;-8.1805;0.5189;-2.0306;
974703089634358;-8.1613;0.6840;-2.7063;
974703099738264;-9.6227;0.2483;-2.8235;
974703109842170;-10.9881;-0.0153;-2.3973;
974703119951650;-8.8202;0.0996;-1.8775;
974703130055556;-6.9182;0.6577;-1.8272;
974703140159462;-8.4200;-1.4336;-5.3414;
974703150254098;-13.2613;-1.1462;-4.1746;
974703160358004;-11.0264;-0.4322;-3.1062;
974703170461910;-8.3339;-0.2070;-1.6331;
974703180572066;-7.6391;-1.0884;-2.6895;
974703190675973;-9.4956;-0.2979;-3.4657;
974703200779879;-10.0875;0.4397;-2.5911;
974703210893577;-8.5113;0.3033;-2.7111;
974703220997535;-8.3650;0.4540;-2.5672;
974703231101441;-8.5496;0.2913;-4.0789;
974703241176025;-10.8515;0.4902;-3.2166;
974703251279931;-10.6840;-0.0993;-2.6345;
974703261383837;-9.5940;0.4421;-1.9158;
974703271478160;-10.2144;0.5429;-2.4763;
974703281582014;-9.6969;0.2028;-2.7111;
974703291685868;-7.1291;0.0541;-2.2487;
974703301806389;-6.3362;-0.0248;-3.8154;
974703311910243;-6.7720;-0.0849;-4.5293;
974703322014150;-6.7337;-0.1711;-6.4265;
974703332121702;-8.3315;1.0723;-4.7327;
974703342225556;-10.1426;0.1594;-4.9962;
974703352329410;-11.2229;0.0900;-4.0621;
974703362452639;-9.4765;-1.0071;-3.2357;
974703372556493;-9.0359;-0.1926;-2.7661;
974703382660400;-10.3487;-0.4585;-1.7862;
974703392775191;-8.3483;-0.9425;-2.2343;
974703402879045;-6.2904;-0.6957;-1.5709;
974703412982900;-8.1494;-0.8417;-3.3888;
974703423088889;-11.7571;-0.1208;-3.1301;
974703433192743;-12.2698;-0.3075;-2.3710;
974703443296650;-12.6242;0.1738;-1.2763;
974703453377691;-12.1283;-0.9162;-1.0463;
974703463481493;-11.0647;-1.8646;-1.6187;
974703473585348;-9.1986;-1.5030;-1.1348;
974703483685035;-7.1001;-0.7388;-2.8044;
974703493788837;-7.0164;-0.2764;-2.7398;
974703503892691;-9.0096;-0.2357;-3.2094;
974703513995660;-9.0550;1.8102;-1.4486;
974703524099566;-8.9231;1.6759;-1.4414;
974703534203420;-9.5916;1.6807;-2.6297;
974703544319462;-7.8858;1.0914;-3.9616;
974703554423316;-6.2641;-0.6120;-5.2669;
974703564527118;-7.3756;-1.5221;-4.6490;
974703574617066;-9.2106;-2.7894;-6.9727;
974703584720868;-11.9848;-1.1052;-5.2214;
974703594824775;-10.5975;-1.8407;-3.0918;
974703604942066;-6.9781;-0.3027;-0.6772;
974703615045920;-3.1214;-1.1219;-1.7815;
974703625149775;-5.9815;-0.3485;-5.6456;
974703635244879;-14.4951;-1.9845;-5.8923;
974703645348733;-17.9949;-0.5303;-4.5102;
974703655452639;-2.3166;-2.5522;-3.2405;
974703665558420;-4.6208;-1.1148;-4.0717;
974703675662275;-18.1675;-1.6490;-2.1601;
974703685766129;-14.9240;-0.6479;-0.5121;
974703695879045;-9.3760;2.2986;3.0861;
974703705982900;-7.4477;0.3464;2.0465;
974703716086754;-11.4697;1.2422;-0.9502;
974703726187691;-14.2603;0.0254;-2.9459;
974703736291545;-10.1665;0.1953;-0.4953;
974703746395348;-2.9991;-0.0535;-2.0378;
974703756498629;-5.9671;-0.4346;-4.5987;
974703766602431;-9.7352;0.1594;-5.9521;
974703776706285;-11.1464;-0.6191;-5.9904;
974703786801545;-8.9973;0.2530;-5.4179;
974703796905400;-8.2597;-0.1328;-3.9159;
974703807009202;-9.2489;0.6960;-3.5351;
974703817115973;-11.3833;-1.0382;-1.9253;
974703827219879;-8.8633;-0.3147;-1.5996;
974703837323733;-7.7686;-0.4848;-3.6428;
974703847444410;-6.7313;0.0206;-2.0354;
974703857548264;-6.4271;-0.9951;-4.2323;
974703867652118;-11.8887;-0.8536;-3.9592;
974703877748108;-10.6600;-0.7771;-4.8407;
974703887851910;-8.1565;-0.5518;-4.4572;
974703897955764;-8.1999;-0.7938;-4.5269;
974703908058004;-11.6252;-1.8622;-4.1746;
974703918161806;-14.5980;-1.1171;-5.6862;
974703928265660;-11.1751;-1.7617;-2.5193;
974703938373525;-7.0953;-0.1759;-1.0463;
974703948477327;-6.9565;1.2541;-0.6389;
974703958581233;-7.9819;1.4148;-1.1874;
974703968676702;-7.4166;1.0795;-2.3423;
974703978780608;-9.6921;1.2302;-4.5413;
974703988884462;-11.0623;0.6649;-4.4261;
974703998991181;-10.2670;-0.0607;-3.3386;
974704009095087;-9.1890;0.7992;-3.7651;
974704019198941;-10.4276;-1.6633;-4.0717;
974704029307900;-13.1728;-1.2251;-2.9794;
974704039411754;-9.2803;-0.4896;-2.2152;
974704049515608;-9.2201;-0.2740;-0.1430;
974704059619514;-7.0116;0.1499;-2.3471;
974704069723368;-7.1985;-0.3266;-1.8679;
974704079827223;-11.6085;0.1187;-3.9999;
974704089939462;-9.0981;0.2554;-2.8522;
974704100043264;-5.6725;0.2961;-3.8154;
974704110147170;-6.5444;-0.6072;-5.1233;
974704120242379;-10.7414;-1.3376;-7.7178;
974704130346233;-12.0470;-0.9688;-4.2467;
974704140450087;-7.7160;0.0829;-2.0593;
974704150550973;-7.9146;-0.0320;-2.6058;
974704160654879;-8.4344;-0.4107;-5.0515;
974704170758733;-9.0024;-0.0320;-2.0450;
974704180880973;-9.2225;0.0015;-1.3720;
974704190984827;-9.6826;0.1355;-2.5552;
974704201088733;-11.2134;-0.6694;-2.9626;
974704211190920;-9.0933;-0.7268;-1.7767;
974704221294775;-9.4765;-0.8680;-2.3686;
974704231398577;-9.4478;-1.4097;-2.5026;
974704241489254;-10.4970;-0.9760;-3.6957;
974704251593108;-10.0442;0.0613;-2.4835;
974704261696962;-9.3401;-0.2070;-2.7589;
974704271801598;-9.2058;-0.2237;-2.9387;
974704281905764;-7.9555;-0.4322;-2.4045;
974704292009983;-9.1196;-0.0440;-3.3840;
974704302121702;-9.1484;0.5213;-2.0234;
974704312225868;-7.7040;-0.6431;-2.9626;
974704322330087;-8.0847;0.6697;-3.3434;
974704332420764;-8.7365;-0.4848;-4.0932;
974704342524983;-9.2707;-0.0129;-3.8728;
974704352629150;-10.2024;-0.2979;-2.5624;
974704362742223;-8.7556;0.2363;-1.7456;
974704372846441;-9.7208;-0.0105;-2.2367;
974704382950608;-9.3832;-0.6694;-2.9291;
974704393079306;-9.3233;0.0422;-1.6881;
974704403183473;-8.7461;-0.5016;-3.1181;
974704413287691;-7.9146;-0.5590;-3.5112;
974704423360295;-8.5496;-1.0334;-3.9832;
974704433464514;-10.1545;-0.4681;-2.9530;
974704443568681;-9.4047;0.2937;-2.8813;
974704453684202;-8.6548;-0.1041;-3.8489;
974704463788420;-8.9853;0.0852;-1.9684;
974704473892587;-9.4023;-0.7747;-3.1567;
974704483987223;-11.0384;-0.3676;-2.3180;
974704494091441;-9.6873;-0.2453;-1.6666;
974704504195608;-9.1149;-0.3676;-2.5217;
974704514298160;-10.1593;-0.3843;-2.1936;
974704524402327;-11.6707;-0.4274;-1.9684;
974704534506545;-9.4502;0.9643;-0.3060;
974704544615973;-8.7461;-0.0921;-1.7264;
974704554720139;-6.7385;0.0805;-3.1448;
974704564824358;-9.4549;-0.4322;-3.4992;
974704574916910;-10.8347;-1.3519;-4.5413;
974704585021129;-10.0561;-0.6359;-3.4178;
974704595125295;-10.6433;-0.6431;-3.9712;
974704605245973;-11.1078;-0.2859;-1.7264;
974704615350139;-11.5463;-0.4944;-1.2763;
974704625454358;-8.3028;-0.5040;-1.0463;
974704635558629;-7.1411;-0.3218;-1.6929;
974704645662795;-6.5396;0.0494;-4.3137;
974704655767014;-8.6836;-0.3123;-2.9818;
974704665862014;-10.2694;-1.0908;-4.2610;
974704675966181;-8.5854;-0.1902;-4.1889;
974704686070400;-9.5195;-0.5542;-5.1832;
974704696178993;-8.8394;-0.6502;-4.9005;
974704706283160;-7.9627;-1.0765;-3.7699;
974704716387379;-9.6108;-0.5207;-4.3567;
974704726466389;-9.7352;-1.1462;-3.2333;
974704736570556;-10.9307;-0.7579;-4.4982;
974704746674775;-10.5185;-0.7723;-2.3375;
974704756794827;-12.1810;0.1499;-0.7660;
974704766899045;-13.6711;0.6314;1.0546;
974704777003212;-7.8882;-0.4107;-0.6293;
974704787114098;-4.3645;0.0135;-1.4222;
974704797218264;-6.9900;-0.2859;-5.6982;
974704807322483;-11.4048;-2.5259;-6.3619;
974704817432118;-7.4070;-2.7102;-5.0539;
974704827536285;-5.7060;-1.3878;-5.5328;
974704837640504;-9.8097;0.6505;-6.6494;
974704847761389;-12.1355;0.5285;-3.1759;
974704857865556;-11.2349;0.0565;-1.7073;
974704867969775;-7.7495;-0.5447;-3.6885;
974704878054879;-8.2884;0.0685;-2.7278;
974704888159098;-12.9308;-0.3820;-0.9766;
974704898263264;-8.3889;0.1857;-0.2390;
974704908364514;-5.9216;-0.6048;-2.1003;
974704918468733;-8.9830;-1.0789;-3.5782;
974704928572900;-14.2460;-1.0956;-1.9564;
974704938682952;-11.9079;-1.4169;-2.7206;
974704948787170;-7.7447;-0.1161;-1.8081;
974704958891337;-7.5434;-1.1821;-4.3472;
974704968991545;-10.3367;-2.4757;-5.0922;
974704979095712;-9.4119;-2.4323;-5.3701;
974704989199931;-9.5701;-0.7101;-3.0846;
974704999305660;-8.2071;0.5357;-1.9516;
974705009409827;-8.4706;2.0904;-1.7192;
974705019514045;-8.5089;1.0172;-1.4390;
974705029610139;-7.9316;0.7466;-1.9612;
974705039714306;-10.3534;1.1656;-3.6332;
974705049818525;-9.7017;-0.1496;-3.6212;
974705059923629;-8.9064;-1.1701;-3.2883;
974705070027795;-9.0287;-2.2672;-5.1401;
974705080132014;-9.8767;-1.7115;-3.8010;
974705090242223;-12.0039;-1.3400;-4.1913;
974705100346441;-10.4109;0.0398;-1.4174;
974705110450608;-5.2965;0.6027;-1.9995;
974705120549514;-4.6543;-0.9042;-3.8943;
974705130653681;-11.0862;-1.7713;-6.9033;
974705140757900;-13.7261;-1.2610;-4.2706;
974705150858473;-10.2359;0.0350;-3.0153;
974705160962639;-8.3148;0.4807;-1.1922;
974705171066858;-8.9040;-0.5925;-1.6738;
974705181176077;-11.0862;-0.4202;-2.0234;
974705191280243;-10.9834;1.1177;-0.7995;
974705201384514;-8.6453;1.2159;-1.9014;
974705211485348;-8.6261;0.2578;-1.2906;
974705221589514;-10.1737;0.3918;-3.4322;
974705231693733;-9.5486;0.1379;-2.8741;
974705241786702;-9.1866;0.3248;-4.1578;
974705251890868;-6.9972;0.2100;-4.3519;
974705261995087;-6.6428;-0.2812;-4.9077;
974705272144827;-9.9006;-0.4155;-4.9914;
974705282249254;-8.5878;1.2350;-2.6154;
974705292353681;-7.5266;1.4052;-5.3055;
974705302409618;-10.3367;0.9643;-4.5580;
974705312514045;-7.8236;-0.6239;-2.2941;
974705322618473;-8.8848;0.3200;-2.9770;
974705332736545;-9.2584;0.5740;-2.5289;
974705342840973;-9.7113;-0.2979;-2.8211;
974705352945400;-9.8145;-0.3290;-2.1529;
974705363045556;-9.2874;-1.0525;-2.3590;
974705373149983;-9.0072;-1.1414;-2.4332;
974705383254410;-8.4921;-1.0023;-3.4490;
974705393364931;-8.8729;-1.0980;-4.5987;
974705403469358;-9.8240;-0.6168;-3.7388;
974705413573785;-10.1210;-0.4274;-3.2453;
974705423667327;-11.0001;0.4325;-1.6331;
974705433771754;-11.8552;0.6817;-2.3157;
974705443876181;-11.9632;0.1786;-1.6618;
974705453986077;-12.4831;-0.2453;1.5147;
974705464090504;-9.9796;0.5548;0.7768;
974705474194931;-7.6801;0.8686;0.2689;
974705484293160;-6.9613;0.1499;-1.8416;
974705494397587;-9.2898;0.0709;-3.6500;
974705504502014;-7.8212;0.1905;-2.8618;
974705514606702;-8.0297;-0.0057;-5.3318;
974705524711129;-7.1025;-0.2644;-5.7676;
974705534815556;-6.9063;-0.0607;-5.1879;
974705544924306;-8.9471;-0.5973;-6.4337;
974705555028733;-11.4266;-0.4537;-4.7474;
974705565133160;-10.4037;-1.2897;-4.3639;
974705575258577;-12.2937;-0.8249;-3.4944;
974705585363004;-12.8231;-0.3051;-0.2486;
974705595467431;-10.3077;-0.1591;1.0522;
974705605547952;-9.7352;0.1642;1.0307;
974705615652379;-7.5817;0.8471;-0.2438;
974705625756806;-3.6915;-0.0826;-2.8044;
974705635856910;-6.7002;-0.9712;-5.3366;
974705645961337;-12.4277;-1.7474;-8.1296;
974705656065764;-10.7629;-2.9474;-6.4959;
974705666170764;-4.7216;-2.0611;-5.2478;
974705676275191;-4.9226;-0.9233;-6.4122;
974705686379618;-10.0250;0.1522;-6.0670;
974705696471077;-12.7825;-0.1591;-3.7723;
974705706575504;-10.9714;0.8997;-0.8498;
974705716679931;-10.5257;0.5309;-0.7971;
974705726812587;-8.5807;1.7668;-1.0822;
974705736917014;-6.0054;0.9643;-0.9742;
974705747021389;-10.0514;0.3344;-3.0918;
974705757097952;-12.1762;-0.3891;-3.5088;
974705767202379;-11.1559;-1.1605;-1.0678;
974705777306806;-8.2717;-0.6790;-2.4093;
974705787417535;-8.1876;-1.9388;-4.3113;
974705797521962;-11.0862;-1.6490;-5.0492;
974705807626389;-10.7533;-2.6886;-5.6934;
974705817732223;-8.8609;-2.4996;-3.6093;
974705827836650;-7.8619;-0.1208;-1.7862;
974705837941077;-5.7467;0.2602;-1.5900;
974705848059827;-5.0904;0.3296;-3.4633;
974705858164254;-10.5185;0.0709;-5.9258;
974705868268681;-12.1834;1.1273;-2.4691;
974705878355243;-8.3148;0.6625;1.2870;
974705888459670;-9.5195;1.3502;0.2019;
974705898564098;-10.9283;1.6878;-3.1543;
974705908659827;-9.6921;-0.8584;-2.5098;
974705918764254;-10.3244;-1.9220;-3.9111;
974705928868681;-10.0466;-2.0970;-4.8359;
974705938988889;-10.4372;-1.6250;-3.3362;
974705949093316;-8.5974;-2.3031;-3.2692;
974705959197743;-9.1747;-1.1486;-3.0966;
974705969290868;-11.3689;-1.3878;-4.0214;
974705979395295;-9.0503;-0.3772;-3.2764;
974705989499723;-5.1120;-0.3218;-2.9722;
974705999604723;-4.0005;-0.0921;-4.8957;
974706009709150;-7.3950;-0.1950;-5.3246;
974706019813577;-11.5223;0.0829;-4.4862;
974706029916702;-12.1522;0.7537;-2.3327;
974706040021129;-12.8973;1.8820;0.3529;
974706050125504;-12.7008;2.1144;1.1432;
974706060228577;-8.9279;1.1082;-0.4594;
974706070333004;-6.6141;0.0470;-1.9732;
974706080437431;-8.3435;-1.0047;-2.5098;
974706090538889;-8.1565;-1.2873;-4.7303;
974706100643316;-12.9643;-1.5389;-5.9354;
974706110747743;-12.7992;-2.1736;-4.8072;
974706120853056;-11.0504;-1.1414;-1.9301;
974706130957483;-10.7055;0.4301;-2.6584;
974706141061910;-8.5854;-0.2333;-2.0764;
974706151171910;-7.7853;0.0182;-1.7671;
974706161276337;-5.5816;0.1690;-3.8393;
974706171380764;-7.5745;-0.0730;-5.0010;
974706181524514;-9.2608;1.0436;-3.7436;
974706191628941;-7.7782;1.2541;-2.4141;
974706201733368;-7.8595;1.1895;-2.8092;
974706211784514;-9.3520;1.7740;-1.0582;
974706221888941;-8.7748;2.2077;-1.7049;
974706231993368;-8.2071;0.3344;-4.0502;
974706242107327;-7.3445;-0.1400;-5.2119;
974706252211754;-6.8943;-1.6442;-7.4973;
974706262316181;-8.6357;-3.5560;-8.5657;
974706272386910;-9.5677;-3.7140;-5.3557;
974706282491129;-9.5291;-2.7317;-3.2812;
974706292595348;-11.0623;-1.2634;-3.7842;
974706302738264;-9.6658;-0.1304;-2.7039;
974706312842483;-9.0287;-0.0921;-2.2415;
974706322946702;-9.4860;-0.3314;-2.0163;
974706333036702;-9.5219;-0.2572;-1.8153;
974706343140920;-9.4741;0.4588;-2.0426;
974706353245139;-10.9642;0.0661;-1.3169;
974706363346598;-12.6697;-0.6885;-0.0425;
974706373450816;-11.6587;1.6400;0.1445;
974706383555087;-8.8250;1.1991;0.9470;
974706393652535;-7.7542;1.0053;-0.6652;
974706403756754;-9.6371;0.4014;-1.7025;
974706413860973;-10.0923;-0.4513;-3.2931;
974706423973212;-9.8336;-0.8321;-4.4094;
974706434077431;-8.3124;-0.7819;-4.4357;
974706444181650;-10.6457;-0.9018;-3.0057;
974706454299879;-9.4717;-1.5532;-3.3625;
974706464404098;-9.8599;-1.5197;-3.5973;
974706474508316;-5.8570;-0.2309;-3.0272;
974706484603368;-4.2640;-0.3652;-4.0908;
974706494707587;-6.4271;-0.7986;-5.2502;
974706504811806;-9.0168;-0.9185;-4.3567;
974706514916702;-10.5784;-0.9568;-4.0741;
974706525020920;-10.7605;-0.4011;-3.4274;
974706535125139;-10.5185;-1.0884;-2.7182;
974706545217795;-8.9901;-1.3184;-1.8224;
974706555322014;-6.9446;-0.9305;-2.5170;
974706565426233;-7.4668;-0.8898;-4.2347;
974706575550295;-10.1330;-2.3581;-3.5925;
974706585654514;-11.3163;-1.7641;-3.4753;
974706595758733;-12.8758;-1.0119;-3.4896;
974706605848785;-13.2951;-0.5518;-1.9493;
974706615953004;-9.3449;-1.1219;-0.9096;
974706626057223;-7.6992;-1.2323;-1.8033;
974706636158993;-8.1398;-0.5949;-2.2534;
974706646263212;-8.2884;-0.6718;-3.1926;
974706656367431;-9.5797;-0.8584;-4.9364;
974706666469723;-11.2014;-0.9832;-4.6825;
974706676573941;-11.1006;0.2961;-1.8846;
974706686678212;-9.5557;-0.3556;-1.4916;
974706696775556;-8.0560;0.4684;-1.5900;
974706706879775;-7.0881;0.3846;-0.7516;
974706716984045;-8.5208;0.6601;-2.1721;
974706727121129;-10.2120;-0.3939;-2.9172;
974706737225400;-9.4908;-1.1701;-4.3113;
974706747329618;-8.5472;-0.4442;-5.0922;
974706757412743;-9.5100;-2.0372;-3.7316;
974706767516962;-9.3951;-1.5700;-2.7565;
974706777621181;-8.1975;-0.6215;-3.1543;
974706787726910;-9.3855;-0.6502;-2.8044;
974706797831129;-9.6586;-1.1315;-4.3902;
974706807935348;-9.9700;-1.1940;-4.3424;
974706818043473;-8.5807;-0.8656;-3.6981;
974706828147691;-10.1976;-1.5221;-3.9520;
974706838251910;-10.6863;-1.6250;-2.9291;
974706848328993;-6.5997;-0.3027;-2.4571;
974706858433212;-6.6547;0.6793;-3.2692;
974706868537431;-7.5242;0.4253;-3.0846;
974706878658264;-8.3172;0.8207;-3.3721;
974706888762483;-9.2656;0.5405;-4.2108;
974706898866702;-10.1426;0.2124;-4.1650;
974706908968368;-9.2536;-0.1974;-3.5806;
974706919072587;-10.5855;-0.4609;-3.0583;
974706929176806;-11.7500;-0.5925;-3.0129;
974706939282952;-12.1881;-1.1509;-2.7015;
974706949387170;-9.6467;-0.7077;-1.1539;
974706959491389;-7.5218;-0.5925;-0.9359;
974706969594514;-8.5304;-0.5375;-2.0644;
974706979698733;-9.4286;-0.5614;-3.3577;
974706989802952;-9.9509;-0.1496;-3.7053;
974706999903889;-9.1268;0.4469;-2.3997;
974707010008108;-8.6812;0.3631;-2.8140;
974707020112327;-9.2154;-0.8249;-4.9723;
974707030226285;-9.2874;-1.1339;-6.0431;
974707040330504;-9.8791;-0.6479;-3.7388;
974707050434723;-10.3149;0.2339;-1.5012;
974707060526910;-7.6801;1.4674;-2.3638;
974707070631129;-7.2320;0.9045;-2.2295;
974707080735400;-8.5161;0.4660;-1.6403;
974707090841181;-8.2358;1.4889;-1.7551;
974707100945400;-7.5075;0.7920;-3.0272;
974707111049618;-9.2827;-0.6120;-4.3974;
974707121164306;-11.6877;-0.5375;-3.4322;
974707131268525;-8.8274;-1.0932;-3.4442;
974707141372795;-7.8141;-1.3400;-4.7064;
974707151516598;-8.5137;-2.3079;-5.4156;
974707161620816;-8.5496;-2.3749;-5.2840;
974707171725035;-10.1665;-1.5006;-3.8441;
974707181773993;-9.0024;-0.2788;-2.7565;
974707191878212;-7.5793;0.3200;-1.8511;
974707201982431;-7.0690;-0.0392;-2.6943;
974707212103681;-10.9068;0.1929;-3.9640;
974707222207900;-13.7333;0.5453;-1.9349;
974707232312118;-10.2407;1.1369;-0.1167;
974707242394410;-7.8188;0.3344;-0.5168;
974707252498629;-10.5999;-0.1759;-2.1529;
974707262602848;-11.4745;-0.0993;-2.0692;
974707272716493;-9.2465;-0.3676;-0.6556;
974707282820712;-8.8250;0.3129;-2.1960;
974707292924983;-8.3961;0.4445;-2.7470;
974707303052223;-10.5185;0.2219;-3.4107;
974707313156441;-10.8012;0.3464;-3.3123;
974707323260712;-7.1554;-0.3338;-2.7613;
974707333335660;-5.1335;-0.1998;-4.7521;
974707343439931;-8.0297;-0.7986;-7.0875;
974707353544150;-12.2435;-0.5686;-4.3400;
974707363657535;-10.0537;0.7585;-2.0764;
974707373761806;-6.4343;0.5261;-1.9373;
974707383866025;-7.6080;0.6362;-3.1615;
974707393958993;-9.8862;-0.2668;-3.0583;
974707404063264;-11.8146;-0.5231;-3.1735;
974707414167483;-11.4936;0.2818;-1.4366;
974707424277535;-7.4333;0.6577;-1.2162;
974707434381806;-10.2766;-0.7388;-2.4643;
974707444486025;-10.8948;-1.3280;-3.4920;
974707454585868;-7.8332;-0.6598;-2.8618;
974707464690087;-9.2130;-0.4442;-3.5782;
974707474794358;-11.4817;-0.4346;-3.8847;
974707484904202;-12.0518;-0.5040;-2.6967;
974707495008420;-10.9379;0.6601;-3.1086;
974707505112691;-9.2536;0.2770;-2.6369;
974707515213889;-7.8787;-0.3266;-1.2715;
974707525318108;-9.4023;-0.2285;-3.8369;
974707535422379;-10.5449;-0.0631;-3.4466;
974707545528264;-9.4789;1.0771;-1.5876;
974707555632483;-6.9422;1.2206;-1.8033;
974707565736754;-8.2454;-0.4370;-3.8800;
974707575865452;-9.4717;0.3990;-3.5327;
974707585969670;-10.3391;0.4110;-3.5949;
974707596073941;-10.9857;-0.6502;-3.7675;
974707606143316;-8.1661;-0.9664;-3.8345;
974707616247535;-8.0297;-0.4394;-4.4357;
974707626351754;-8.9614;-1.5485;-5.0683;
974707636465764;-8.6501;-2.0324;-4.6681;
974707646570035;-9.1460;-1.2251;-3.8297;
974707656674254;-7.4692;-0.2022;-3.5255;
974707666769827;-8.1589;-0.5207;-3.8273;
974707676874045;-11.0097;-0.9927;-3.4681;
974707686978316;-8.8035;-0.6383;-2.8642;
974707697093212;-8.4344;-0.4872;-3.6667;
974707707197431;-9.6108;-0.9855;-4.0071;
974707717301702;-9.7615;-1.4169;-2.7135;
974707727428264;-11.4864;-0.9353;-2.5289;
974707737532483;-9.8815;-0.4681;-2.0330;
974707747636754;-7.7183;-0.3676;-1.5060;
974707757703785;-8.0225;-0.4968;-3.0775;
974707767808056;-10.4468;-0.8608;-3.6236;
974707777912275;-11.1440;-0.3338;-3.1998;
974707788028577;-9.0814;-0.3099;-2.2056;
974707798132848;-9.6849;-0.8225;-2.6560;
974707808237066;-9.0096;-1.1605;-3.8967;
974707818327639;-8.3076;-1.0621;-3.3817;
974707828431858;-10.5042;-0.4370;-2.9698;
974707838536129;-8.2095;-0.9975;-2.7422;
974707848644410;-9.7352;-0.4035;-2.8570;
974707858748629;-8.5998;0.3990;-2.7494;
974707868852900;-5.4832;-0.3628;-1.8799;
974707878973889;-7.6199;0.1953;-3.8728;
974707889078108;-10.5568;-0.5710;-4.3304;
974707899182379;-8.9495;0.6434;-3.6957;
974707909278368;-8.6070;-0.4825;-3.0176;
974707919382639;-9.5172;-1.1486;-3.3314;
974707929486858;-10.6217;-0.8106;-3.5925;
974707939586285;-9.8408;-0.8536;-2.6441;
974707949690504;-7.7662;-0.6287;-2.1482;
974707959794775;-7.9340;-1.3567;-3.4920;
974707969892327;-11.6396;-0.7316;-4.2060;
974707979996545;-13.1489;-0.6957;-1.4462;
974707990100816;-9.5076;-0.1615;-0.7971;
974708000209618;-7.9050;-0.3123;-1.9277;
974708010313837;-8.2095;-0.3772;-2.8116;
974708020418108;-9.9700;-0.0897;-2.5744;
974708030521389;-10.3367;-0.6024;-2.9100;
974708040625608;-8.8059;0.1810;-2.8669;
974708050729879;-9.5581;0.5548;-3.4178;
974708060831545;-10.4228;-0.5806;-3.6356;
974708070935712;-8.7123;-0.4561;-2.5935;
974708081039983;-7.8404;0.7490;-3.0105;
974708091154098;-7.8643;0.1881;-2.2104;
974708101258316;-9.5677;-0.3580;-3.6045;
974708111362587;-10.2885;0.0230;-3.6742;
974708121475139;-9.5462;-0.1448;-3.1400;
974708131579358;-8.4634;-0.3867;-2.0450;
974708141683629;-8.4583;-0.6837;-3.3194;
974708151761493;-9.0359;-1.4791;-4.9292;
974708161865764;-9.7304;-1.1486;-4.1435;
974708171969983;-8.8370;-0.7077;-3.2716;
974708182123160;-8.1613;-0.8321;-3.5351;
974708192227379;-9.2130;-0.3314;-4.4839;
974708202331650;-10.6887;-0.9209;-4.0837;
974708212391285;-3.6123;-0.5758;-3.1062;
974708222495504;-7.9579;-0.3700;-5.3366;
974708232599775;-21.1666;-0.7077;-2.3925;
974708242722431;-12.1020;0.6888;0.6667;
974708252826650;-2.0794;1.1776;-0.8713;
974708262930920;-6.3506;-0.7723;-2.6871;
974708273020452;-11.0049;-0.7244;-3.7053;
974708283124670;-8.0249;-0.6622;-3.9350;
974708293228889;-8.3219;-0.3170;-4.5652;
974708303328473;-13.0627;1.4291;-3.3123;
974708313432691;-9.8288;0.7633;-1.8296;
974708323536910;-6.7624;-0.0488;-2.8765;
974708333649462;-7.9193;-0.7555;-5.2959;
974708343753681;-8.8394;-0.8994;-4.5365;
974708353857900;-10.4372;-0.5016;-4.3783;
974708363964723;-10.7007;-0.3508;-4.0358;
974708374068941;-11.1990;0.1307;-2.2439;
974708384173160;-8.3530;0.5213;-1.1396;
974708394277535;-7.1411;0.2387;-0.9694;
974708404381754;-8.9566;0.1810;-2.1218;
974708414485973;-8.4009;0.2124;-3.1158;
974708424583473;-10.3965;-0.0535;-3.6500;
974708434687691;-10.0155;0.9069;-0.4304;
974708444791910;-3.5189;0.9882;-1.6283;
974708454884566;-9.6826;-1.1557;-11.4667;
974708464988785;-16.3062;-1.7378;-7.2194;
974708475093004;-9.3736;-0.8946;0.9230;
974708485209202;-4.6759;1.2087;-1.1563;
974708495313420;-8.1999;0.4014;-5.1592;
974708505417639;-10.6217;-0.9329;-2.9722;
974708515521702;-7.9484;1.1106;-1.4222;
974708525625920;-4.8556;0.4205;-4.5078;
974708535730139;-10.1282;-0.3748;-5.6647;
974708545827639;-11.0097;-0.1352;-3.8847;
974708555931858;-9.3712;0.2554;-2.4356;
974708566036077;-10.1952;-0.5782;-2.9578;
974708576160243;-9.7783;-0.5734;-2.7733;
974708586264462;-10.4204;-0.4825;-2.0474;
974708596368681;-10.4396;-0.8058;-3.0631;
974708606472379;-10.3244;-0.4466;-1.4821;
974708616576598;-8.1709;-0.5303;-1.5613;
974708626680816;-9.6826;-0.3580;-2.5241;
974708636766806;-9.2034;-0.2022;-2.7087;
974708646871025;-8.9877;-0.1280;-2.6632;
974708656975243;-9.7950;0.3320;-3.1543;
974708667075139;-8.7266;0.1834;-3.3147;
974708677179358;-8.4607;-0.3194;-3.3817;
974708687283577;-8.4200;-0.6909;-4.1530;
974708697386389;-8.6166;-0.0248;-3.7555;
974708707490608;-8.4129;-0.8393;-3.8369;
974708717594827;-9.3927;0.0230;-3.8201;
974708727721077;-8.4897;-0.2692;-3.3936;
974708737825295;-7.5673;0.0182;-3.8321;
974708747929514;-10.7390;-0.0945;-2.8693;
974708758011962;-10.3196;0.0470;-1.8248;
974708768116181;-9.6347;-0.2285;-1.6451;
974708778220400;-8.2119;-0.0057;-3.0105;
974708788329410;-9.8719;0.0111;-2.5409;
974708798433629;-10.2048;-1.6490;-3.1158;
974708808537848;-10.6265;-0.9162;-3.6212;
974708818652535;-8.3746;-0.7890;-3.5614;
974708828756702;-7.1001;-0.8369;-3.7005;
974708838860973;-9.9150;-1.0358;-4.3472;
974708848966077;-11.1269;-0.2070;-3.7507;
974708859070295;-8.2190;0.6170;-1.7985;
974708869174514;-8.4129;0.0972;-3.4633;
974708879277379;-9.4597;-0.4920;-3.4035;
974708889381598;-9.0263;0.2626;-2.9602;
974708899485816;-9.1005;-0.0730;-1.8727;
974708909579723;-9.4980;-0.4226;-2.9052;
974708919683941;-8.0560;0.2746;-2.9626;
974708929788160;-7.9340;0.2243;-2.8765;
974708939893993;-8.9040;-0.7603;-3.4633;
974708949998212;-10.4468;0.2411;-4.0143;
974708960102431;-10.2598;-0.0153;-2.5935;
974708970212795;-9.3185;-0.4992;-2.1793;
974708980317014;-9.9676;-0.7220;-4.1124;
974708990421233;-10.5018;-1.3280;-3.4059;
974709000513473;-8.5543;-1.2371;-2.4404;
974709010617691;-7.7590;-1.2060;-2.7900;
974709020721910;-7.4620;-0.5566;-4.3352;
974709030833785;-9.3568;-0.5758;-4.7569;
974709040938004;-11.4362;-0.3314;-2.5768;
974709051042223;-9.4573;0.4636;-1.1659;
974709061133473;-8.6477;1.1871;-1.9780;
974709071237743;-10.0202;-0.2572;-2.9339;
974709081341910;-10.7031;-0.4346;-2.2726;
974709091468681;-10.0179;0.0996;-1.7336;
974709101572900;-8.2286;0.1044;-2.3495;
974709111677118;-9.3616;-0.2357;-3.0200;
974709121760556;-9.9341;-0.7053;-3.3697;
974709131864775;-9.8934;0.1642;-3.5495;
974709141968993;-8.8968;0.4493;-3.0607;
974709152108993;-8.3602;-0.0754;-2.6776;
974709162213212;-8.4033;-0.5064;-4.1028;
974709172317431;-9.0383;-0.0296;-4.4333;
974709182391493;-9.2345;-0.0176;-3.6694;
974709192495712;-8.2765;-0.8755;-3.9760;
974709202599931;-9.4837;-0.9664;-4.6250;
974709212716702;-9.5219;-0.5183;-4.6155;
974709222820920;-10.3630;-0.6431;-2.3303;
974709232925139;-9.8647;-0.5327;-1.9014;
974709243008681;-10.0107;0.5907;-1.4366;
974709253112900;-11.0982;1.0053;-0.7660;
974709263217118;-10.2311;0.1379;-1.0534;
974709273318993;-9.7807;-0.4202;-1.5326;
974709283423160;-10.7773;0.0852;-2.7135;
974709293527327;-11.0456;-0.8994;-2.0234;
974709303631181;-8.8155;-1.1701;-3.0392;
974709313735348;-7.4764;-0.4442;-4.2323;
974709323839514;-8.7891;-0.8225;-5.1449;
974709333951910;-8.4607;-0.3939;-5.1353;
974709344056077;-8.1637;0.1881;-5.0874;
974709354160243;-8.5041;0.3129;-4.6801;
974709364271285;-8.1876;0.5381;-3.9063;
974709374375452;-7.5171;-0.2309;-4.2562;
974709384479618;-9.7424;-0.3266;-3.5590;
974709394577379;-9.9772;-0.3051;-3.5207;
974709404681545;-9.8791;-0.0583;-2.2295;
974709414785712;-8.7532;-0.2979;-2.2319;
974709424888993;-9.4454;-0.5183;-2.3758;
974709434993160;-8.4224;-0.0826;-2.4763;
974709445097327;-7.3588;-0.5806;-2.9387;
974709455200868;-9.0909;-1.1605;-4.4237;
974709465305035;-8.0321;-1.5915;-5.1090;
974709475409202;-7.5386;-1.5269;-5.2478;
974709485505348;-8.5759;-2.3222;-6.1056;
974709495609514;-10.0179;-1.6756;-5.2502;
974709505713681;-11.2588;-1.1605;-4.4237;
974709515817483;-10.8251;-1.0645;-3.5231;
974709525921650;-10.2550;-0.9042;-2.0210;
974709536025816;-7.9460;-0.0200;-1.0343;
974709546147535;-10.7414;0.4205;-0.4519;
974709556251702;-10.5401;0.3727;-0.9168;
974709566355868;-9.8575;0.8949;-0.3634;
974709576473993;-8.9423;0.6529;-0.0209;
974709586578160;-8.0536;0.1355;-0.2007;
974709596682327;-7.8069;-0.7771;-3.4155;
974709606758056;-9.2731;-0.1567;-4.5102;
974709616862223;-9.2560;-0.8273;-4.9220;
974709626966389;-7.8858;-1.3878;-4.5891;
974709637073473;-8.0393;-1.1438;-5.6647;
974709647177639;-8.5639;-0.9473;-5.3605;
974709657281806;-8.9231;-1.4022;-4.2108;
974709667381389;-8.0297;-1.4073;-3.5255;
974709677485556;-8.6070;-0.0224;-3.2764;
974709687589723;-9.5749;0.3320;-2.1218;
974709697698160;-10.4659;0.3846;-1.0774;
974709707802327;-8.8513;0.1116;-1.3648;
974709717906493;-10.1593;0.1355;-1.8966;
974709728029514;-9.4382;-0.5830;-2.5504;
974709738133681;-10.3316;-1.1653;-2.0907;
974709748237848;-9.9461;-0.7675;-2.3423;
974709758317014;-9.5868;-0.3051;-2.1003;
974709768421181;-8.9949;-0.2835;-3.1134;
974709778525348;-7.8667;-0.6479;-4.6370;
974709788629306;-8.2597;-0.2931;-4.9890;
974709798733473;-9.4837;0.0111;-4.6466;
974709808837639;-10.9594;0.3200;-2.9746;
974709818965868;-10.1617;1.8051;-2.4547;
974709829070035;-10.4922;1.6208;-2.3806;
974709839174202;-11.4745;1.0866;-2.5241;
974709849269879;-10.0035;0.9835;-0.2725;
974709859374045;-8.2430;0.4588;-0.6556;
974709869478212;-7.8212;1.0149;-2.4906;
974709879580973;-10.1785;0.0446;-2.6536;
974709889685139;-10.3893;0.3176;-1.5876;
974709899789306;-7.7183;0.3224;-2.3375;
974709909892118;-7.4333;0.5094;-4.4791;
974709919996285;-8.6548;-0.5447;-6.0912;
974709930100452;-9.5076;-0.1902;-5.6767;
974709940189879;-9.5653;-0.2644;-4.6968;
974709950294045;-8.8035;-0.2405;-4.2754;
974709960398212;-9.6371;0.1044;-3.9879;
974709970509306;-9.2632;0.3751;-4.0693;
974709980613473;-9.8408;-0.0826;-3.0894;
974709990717639;-8.9447;-0.4992;-2.3204;
974710000812223;-9.4765;0.7777;-1.9373;
974710010916389;-8.7290;0.6888;-2.0282;
974710021020608;-8.2860;0.6266;-1.4174;
974710031137743;-8.2023;0.0541;-2.5337;
974710041241910;-8.3865;0.6290;-4.1411;
974710051346129;-8.9710;-0.6335;-4.9484;
974710061442431;-9.2608;-1.2060;-4.9412;
974710071546598;-10.2550;-1.5245;-4.9077;
974710081650764;-11.1583;-0.9329;-3.6045;
974710091756389;-9.9413;-0.3915;-2.2487;
974710101860556;-8.1063;-0.3700;-2.8187;
974710111964723;-9.8671;-0.1974;-4.1148;
974710122103785;-9.9365;-0.7412;-3.1639;
974710132207952;-9.9844;0.2698;-1.8368;
974710142312118;-8.0991;0.2530;-1.6068;
974710152372223;-9.7783;-0.1280;-1.5326;
974710162476389;-9.2608;0.0948;-2.9339;
974710172580556;-8.8729;-0.3338;-2.3423;
974710182707848;-8.6620;-0.3963;-3.3362;
974710192812014;-9.8839;-0.5518;-3.2501;
974710202916181;-9.6658;-1.3807;-3.2477;
974710213023681;-10.6600;-1.1821;-3.6188;
974710223127848;-11.0767;-0.7388;-3.2189;
974710233232014;-9.4143;-0.9712;-1.7456;
974710243302327;-9.0694;-0.7340;-2.7517;
974710253406493;-9.0168;-0.5399;-2.7757;
974710263510660;-8.1541;-0.6861;-2.7111;
974710273632014;-7.6992;-0.4753;-2.3157;
974710283736181;-8.6931;0.0015;-3.1448;
974710293840348;-8.5831;-0.0176;-3.7819;
974710303940452;-9.2683;-0.4920;-4.3663;
974710314044618;-9.7496;-1.2658;-4.9460;
974710324148785;-10.0131;-0.4561;-4.0119;
974710334262743;-7.7566;-0.6718;-3.0033;
974710344366910;-9.2082;-0.7412;-3.5303;
974710354471077;-9.7400;-0.4896;-4.0884;
974710364569827;-10.1354;-0.0730;-2.7446;
974710374673993;-7.7758;-0.0200;-2.4428;
974710384778160;-8.0752;-0.4920;-3.4202;
974710394872327;-9.0431;-0.3051;-4.0621;
974710404976493;-9.1579;0.1977;-2.7470;
974710415080660;-8.9375;-0.4346;-3.4681;
974710425191806;-8.9064;-0.1184;-3.4705;
974710435295973;-9.5486;-0.1400;-3.9975;
974710445400139;-10.5138;-1.1390;-3.2453;
974710455504618;-11.3378;-0.7914;-3.8919;
974710465608785;-9.4478;-0.5207;-2.1314;
974710475712952;-7.2990;-0.6622;-2.2175;
974710485806493;-8.8011;-0.3461;-3.0607;
974710495910660;-9.5028;0.3918;-3.1376;
974710506014827;-9.0168;0.4636;-1.8894;
974710516129827;-8.1733;0.3176;-3.3482;
974710526233993;-8.1302;0.5692;-3.3147;
974710536338160;-9.9461;0.4636;-3.4178;
974710546446181;-10.6409;-0.1424;-2.7039;
974710556550348;-9.8551;-0.3338;-2.9626;
974710566654566;-7.9170;0.4277;-2.5313;
974710576770973;-7.3756;-0.5542;-3.3362;
974710586875139;-10.1761;-0.6670;-3.9568;
974710596979306;-10.3941;-0.2453;-3.4537;
974710607052691;-8.5950;0.1546;-1.9780;
974710617156858;-7.1387;-0.3748;-3.4585;
974710627261025;-8.6596;0.0015;-3.2596;
974710637381545;-10.1019;0.1092;-2.5313;
974710647485712;-9.8839;-0.2405;-2.4093;
974710657589879;-8.4105;0.1642;-3.2405;
974710667697118;-8.8825;-0.0176;-3.0344;
974710677801285;-9.5701;-1.3280;-3.7627;
974710687905452;-11.1631;-0.4777;-3.3721;
974710698000035;-10.7318;0.1475;-2.6154;
974710708104202;-9.5773;-0.4609;-1.6594;
974710718208368;-9.7663;-0.6909;-2.8642;
974710728307431;-9.6730;0.7920;-2.1960;
974710738411598;-9.1675;0.3799;-1.5996;
974710748515764;-7.7638;0.0278;-2.4619;
974710758627743;-5.9599;-0.0129;-3.8225;
974710768731910;-7.9914;-0.0655;-4.2132;
974710778836077;-9.2850;-0.2453;-6.0287;
974710788949827;-10.5257;-0.5782;-4.6585;
974710799053993;-11.2564;-0.0945;-3.3338;
974710809158160;-9.8504;-0.8010;-1.5251;
974710819238212;-8.1182;-0.4585;-4.2802;
974710829342327;-9.8145;-0.2548;-2.9387;
974710839446493;-9.1771;-0.7723;-1.7001;
974710849550660;-9.5868;-0.0897;-1.8966;
974710859675556;-9.3616;0.5453;-2.4858;
974710869779723;-8.0273;-0.3413;-2.5504;
974710879883889;-7.9508;-0.8154;-3.6284;
974710889986077;-9.8575;0.3870;-3.1878;
974710900090243;-8.3985;-0.1735;-3.7412;
974710910194410;-9.5390;-0.7651;-4.7665;
974710920294827;-9.8934;-0.5662;-5.8158;
974710930398993;-11.8074;-0.0440;-3.6694;
974710940503160;-10.4563;-0.9616;-2.1194;
974710950601181;-9.7496;-0.3820;-2.4141;
974710960705348;-9.1101;0.1834;-3.3840;
974710970809514;-9.4047;-0.2859;-1.9397;
974710980931493;-10.1067;0.3057;-1.5757;
974710991035660;-8.5783;0.8686;-0.6054;
974711001139827;-7.5745;0.9978;-1.2595;
974711011220764;-7.3301;0.6314;-2.8522;
974711021324983;-7.2583;0.3200;-5.4203;
974711031429150;-7.3205;0.0637;-5.5857;
974711041555764;-7.8715;-0.5447;-6.8889;
974711051659931;-10.2359;-0.6383;-6.0407;
974711061764098;-11.2708;-0.8321;-4.2849;
974711071837327;-9.6802;-1.2419;-1.9828;
974711081941493;-7.3014;-0.9760;-3.9254;
974711092045660;-9.8504;-0.1902;-3.6547;
974711102186389;-10.7222;-0.4155;-1.3768;
974711112290556;-11.9390;0.4807;-0.8785;
974711122394723;-9.7783;-0.0272;-1.7791;
974711132489306;-8.0943;-0.2189;-1.4749;
974711142593473;-7.2799;-0.2477;-2.2367;
974711152697639;-7.1192;-0.3820;-3.0320;
974711162808577;-8.8633;-0.7938;-5.3486;
974711172912743;-11.9895;-0.9879;-5.3725;
974711183016910;-11.0743;-1.1052;-3.9855;
974711193118525;-10.1569;-1.1390;-2.1673;
974711203222691;-8.4658;-0.7771;-3.8441;
974711213326858;-8.5113;-0.2142;-4.6513;
974711223412743;-8.9351;-0.5901;-3.9159;
974711233516910;-7.5936;-0.1831;-2.0883;
974711243621077;-6.4032;0.3296;-3.5447;
974711253727743;-9.0024;0.4926;-2.9124;
974711263831910;-7.9340;0.5237;-2.1721;
974711273936077;-9.6132;0.5501;-1.6092;
974711284036702;-8.2478;-0.3987;-3.1950;
974711294140868;-10.6768;-0.1352;-3.6814;
974711304244983;-11.1966;-0.9520;-3.4585;
974711314353056;-11.6611;-1.4022;-2.9124;
974711324457170;-10.9857;-1.5843;-3.1376;
974711334561337;-11.0264;-1.4432;-2.4906;
974711344668056;-11.5295;-1.4910;-2.6991;
974711354772223;-10.4037;-1.1315;-1.6738;
974711364876337;-6.5468;-0.0129;-2.0163;
974711374982848;-6.4439;0.3153;-2.0091;
974711385086962;-7.0259;0.5501;-3.3458;
974711395191129;-13.7166;1.5176;-2.7278;
974711405286493;-19.5329;1.3262;-0.7756;
974711415390608;-12.7729;0.8877;-0.0497;
974711425494775;-4.8461;0.6529;-0.4762;
974711435600243;-5.9767;0.2770;-0.7660;
974711445704410;-9.5773;0.0661;-3.5040;
974711455808525;-8.9710;0.8782;-4.3089;
974711465908993;-6.5157;1.0771;-4.0645;
974711476013108;-5.7802;1.5368;-4.5556;
974711486117327;-5.8929;1.5658;-6.0864;
974711496218889;-6.3290;0.8877;-5.0970;
974711506323004;-7.8260;0.7104;-6.3547;
974711516427170;-9.3066;0.1738;-7.2793;
974711526550556;-11.0216;-1.1653;-6.2109;
974711536654670;-8.9160;-0.8369;-4.3615;
974711546758837;-9.4238;-0.6479;-3.9544;
974711556850868;-8.3626;-0.1998;-3.6595;
974711566954983;-9.7567;-0.0993;-4.1865;
974711577059150;-13.0340;-0.9951;-2.3734;
974711587162952;-10.3268;-0.5518;-0.3873;
974711597267066;-8.4607;0.5333;0.4247;
974711607371233;-7.7710;1.7620;-0.8019;
974711617473785;-7.3134;1.3478;-1.2497;
974711627577952;-7.4716;-1.0573;-4.3783;
974711637682066;-11.0097;-1.4719;-9.5429;
974711647797952;-14.7156;-3.3404;-8.5537;
974711657902066;-11.4482;-3.9272;-0.2342;
974711668006285;-8.2238;-0.3820;0.6066;
974711678100035;-8.9518;2.0856;-2.0979;
974711688204150;-9.5052;0.1116;-1.3528;
974711698308316;-8.1302;0.3679;-0.1047;
974711708408368;-7.0331;1.5419;-0.9861;
974711718512535;-9.8839;1.5395;-1.7985;
974711728616650;-9.0550;0.4469;-2.5457;
974711738727535;-8.5783;-0.0344;-3.1639;
974711748831650;-8.1565;-0.0682;-3.1062;
974711758935816;-9.0885;-1.5963;-3.9903;
974711769040868;-8.7413;-1.8861;-5.1688;
974711779144983;-8.4224;-2.1736;-5.2023;
974711789249150;-9.9006;-2.5307;-4.1770;
974711799347223;-8.7772;-2.3486;-3.3410;
974711809451389;-8.1900;-2.0492;-4.3472;
974711819555504;-11.0312;-2.3127;-4.6131;
974711829681858;-8.8609;-1.5700;-2.7494;
974711839785973;-9.4932;-1.1363;-1.8583;
974711849890139;-8.5950;-0.4250;-1.7049;
974711859981285;-9.3329;-0.1376;-2.9028;
974711870085400;-10.0780;-0.3099;-1.9469;
974711880189566;-10.1091;-0.2788;-1.8655;
974711890290868;-8.8633;-0.2644;-1.9014;
974711900395035;-8.0465;-0.3939;-2.9243;
974711910499150;-10.4516;-0.3963;-3.5518;
974711920604098;-10.4324;-0.7268;-4.2060;
974711930708264;-9.1388;-0.4777;-3.5734;
974711940812431;-8.4153;-0.5877;-3.8130;
974711950923160;-9.0981;-0.0559;-3.8632;
974711961027327;-9.0287;-0.0200;-4.6274;
974711971131493;-10.0274;-0.0033;-2.9339;
974711981211858;-7.9074;-0.3604;-2.9028;
974711991315973;-8.5591;0.0302;-4.2634;
974712001420139;-10.2574;0.1283;-3.5830;
974712011544202;-9.6562;-0.0826;-2.0426;
974712021648368;-9.1340;0.3200;-2.6034;
974712031752535;-8.7242;0.2674;-3.1325;
974712041837639;-9.3257;-0.2357;-2.3204;
974712051941754;-9.1555;-0.0033;-2.8259;
974712062045920;-7.8954;0.6673;-3.2620;
974712072168056;-9.9389;-0.4418;-3.8130;
974712082272170;-10.0490;-0.1041;-3.3888;
974712092376337;-8.9375;0.5166;-3.7244;
974712102473577;-7.8906;-0.0033;-2.6130;
974712112577691;-9.1819;-0.4944;-3.9206;
974712122681858;-9.6180;-0.0921;-3.4418;
974712132790139;-9.8839;0.4038;-3.6452;
974712142894254;-11.2780;-0.1137;-2.4356;
974712152998420;-7.1192;0.5883;-2.7374;
974712163091806;-8.5041;0.4493;-2.4236;
974712173195973;-10.8706;-0.7053;-2.8164;
974712183300139;-11.7739;0.5381;-2.2439;
974712193405764;-7.7901;0.9763;-0.8641;
974712203509931;-7.0905;-0.2955;-2.6919;
974712213614045;-9.8480;-0.3242;-4.7474;
974712223723577;-9.7615;-0.0921;-3.7412;
974712233827743;-8.5232;-0.8898;-2.9435;
974712243931858;-8.8370;-0.6287;-5.2935;
974712254033993;-9.7017;-0.1567;-3.1735;
974712264138160;-8.5783;-0.4657;-2.8116;
974712274242275;-9.1866;-0.7962;-3.0464;
974712284346598;-9.1866;-0.8058;-4.2634;
974712294450712;-11.5295;-0.6287;-2.3085;
974712304554879;-10.1880;-0.7316;-1.0654;
974712314657118;-8.0656;-0.3652;-1.6187;
974712324761233;-6.7935;-0.4131;-3.1158;
974712334865400;-9.6156;-0.8656;-4.0190;
974712344976077;-11.2756;-0.4250;-3.2166;
974712355080191;-10.2622;-0.1807;-2.3133;
974712365184358;-7.5266;-0.5375;-2.6249;
974712375290973;-7.5793;-0.4226;-4.3089;
974712385395139;-9.6538;-1.1940;-3.5471;
974712395499254;-10.2096;-0.8608;-3.5471;
974712405592223;-7.2320;-0.6407;-3.3458;
974712415696337;-8.2382;-0.8898;-4.7785;
974712425800504;-13.1848;-1.6466;-3.2979;
974712435908577;-9.0287;-1.0549;-2.0450;
974712446012743;-6.7624;-0.3652;-2.7446;
974712456116858;-9.6802;-1.2897;-3.2309;
974712466216129;-9.7543;-0.7268;-2.2917;
974712476320295;-9.2946;-0.0176;-1.4988;
974712486424410;-9.6203;-0.5997;-2.5986;
974712496531962;-9.7496;-0.5710;-2.8860;
974712506636077;-9.4884;-0.2189;-3.2836;
974712516740295;-10.0418;-0.9497;-2.2582;
974712526854098;-9.5315;-0.7005;-3.2883;
974712536958212;-9.2755;-0.7962;-3.8369;
974712547062379;-7.7327;-0.7986;-3.9999;
974712557159462;-10.0851;-0.4801;-4.1698;
974712567263577;-10.3005;0.2746;-2.7111;
974712577367743;-8.4272;-0.5399;-2.9841;
974712587470712;-8.5998;0.5812;-3.6933;
974712597574827;-8.7341;0.1834;-3.1352;
974712607678993;-8.3889;-0.4705;-2.4643;
974712617781493;-7.8787;-0.2046;-3.4250;
974712627885608;-9.4621;-0.0129;-3.6212;
974712637989775;-9.9030;-0.5112;-3.4442;
974712648119410;-8.8609;0.2459;-2.6608;
974712658223525;-8.1039;-0.0105;-2.9889;
974712668327691;-9.1843;-1.0525;-5.3414;
974712678416129;-11.6109;-0.5973;-4.1100;
974712688520243;-9.2608;0.0852;-1.7934;
974712698624410;-8.0847;-0.4035;-1.6929;
974712708723160;-8.8968;-0.2644;-4.6107;
974712718827327;-11.0719;-0.5423;-3.4107;
974712728931441;-10.1426;0.2124;-1.9971;
974712739033785;-8.9806;-0.3413;-2.2247;
974712749137900;-9.4573;-0.3218;-3.1854;
974712759242066;-8.7820;-0.3266;-4.0214;
974712769354514;-10.2191;-0.4442;-3.3003;
974712779458629;-10.2526;0.1307;-3.4609;
974712789562795;-8.7604;0.0541;-2.4356;
974712799663368;-6.9422;0.0565;-2.7661;
974712809767483;-10.1019;-0.0153;-3.7699;
974712819871702;-7.8141;0.1905;-3.3840;
974712829998264;-8.8968;0.2291;-4.0119;
974712840102327;-9.4406;-0.7340;-3.6476;
974712850206545;-9.1364;-0.1998;-3.1926;
974712860274410;-9.0024;-0.0849;-3.2094;
974712870378577;-9.7352;-0.8560;-3.3147;
974712880482691;-8.8107;-0.7938;-3.3745;
974712890588993;-8.4535;-1.1749;-3.0655;
974712900693160;-9.4095;-0.9808;-3.3697;
974712910797327;-9.5486;-0.8058;-3.6452;
974712920919462;-9.9820;-0.9066;-2.9961;
974712931023629;-9.1651;-0.7125;-2.3351;
974712941127795;-8.9160;-0.5638;-3.3410;
974712951200816;-9.5821;-0.9138;-3.1325;
974712961304931;-8.0824;-1.1052;-4.1028;
974712971409098;-10.3173;-0.6359;-4.5221;
974712981538368;-11.3354;-0.9592;-3.2620;
974712991642483;-10.0298;-0.4035;-1.4773;
974713001746650;-6.8776;0.7753;-2.5911;
974713011839514;-7.3732;-0.1711;-3.4202;
974713021943629;-9.5868;-0.2070;-3.5327;
974713032047795;-9.6538;-0.1113;-3.1325;
974713042141910;-9.1651;0.5692;-2.3085;
974713052246077;-7.8643;-0.0559;-3.7986;
974713062350191;-11.3498;-0.2261;-3.6428;
974713072464514;-9.3281;-1.1438;-2.0163;
974713082568681;-7.5745;0.1762;-2.5098;
974713092672795;-7.2488;0.2530;-4.3759;
974713102779045;-10.2718;-0.8803;-3.9326;
974713112883212;-10.8538;-0.6407;-3.2405;
974713122987327;-9.2827;-0.2644;-2.6273;
974713133128681;-8.3937;-0.1783;-2.5696;
974713143232795;-8.4344;-0.8082;-3.7412;
974713153336962;-10.9929;-0.6263;-3.3745;
974713163405973;-9.4717;0.4181;-1.6570;
974713173510139;-6.0990;-0.0129;-3.0033;
974713183614306;-9.0981;-0.1998;-5.1138;
974713193732639;-11.3761;-0.6168;-4.4142;
974713203836754;-10.8084;0.0541;-1.3600;
974713213940920;-7.0499;0.7944;-2.3638;
974713224040973;-9.5988;0.0924;-3.4920;
974713234145139;-11.7069;-0.4992;-3.6332;
974713244249254;-10.7725;0.1977;-1.4151;
974713254346181;-8.5376;0.3846;-0.5575;
974713264450295;-7.6705;-0.2142;-2.7230;
974713274554462;-8.6070;-0.0009;-3.8106;
974713284651493;-10.3077;-0.3915;-4.0645;
974713294755608;-9.1771;-0.1376;-2.9219;
974713304859775;-7.2823;0.0374;-3.7795;
974713314978577;-9.1388;-0.3891;-4.3161;
974713325082691;-10.5377;-0.6526;-3.6117;
974713335186806;-8.5304;-0.5255;-2.8116;
974713345275973;-7.6848;-0.2907;-3.5375;
974713355380087;-8.5137;-0.9329;-4.7713;
974713365484254;-9.4573;-0.6215;-3.6571;
974713375599618;-10.0250;0.1786;-3.2405;
974713385703733;-9.3592;-0.9185;-2.2439;
974713395807900;-10.1378;0.0230;-4.2921;
974713405897587;-11.3378;-0.3963;-2.6536;
974713416001650;-8.2908;-0.2333;-0.9455;
974713426105816;-8.1948;0.2913;-2.1769;
974713436227483;-9.0885;-0.1208;-2.4188;
974713446331545;-8.0536;-0.3413;-4.0095;
974713456435712;-9.0407;-0.1065;-3.9449;
974713466522743;-8.4512;0.3631;-4.3974;
974713476626858;-10.0179;-1.4121;-5.0109;
974713486731025;-10.2598;-0.4872;-4.5915;
974713496831285;-8.3865;-0.2357;-3.3290;
974713506935400;-9.4238;-1.3017;-3.2189;
974713517039566;-11.6901;-0.3652;-3.3290;
974713527164358;-10.3774;-0.1902;-0.0305;
974713537268577;-8.0584;0.2722;-2.3853;
974713547372639;-9.5148;0.1499;-2.7757;
974713557462118;-8.6716;-0.6120;-1.2544;
974713567566233;-8.7099;-0.2835;-3.2859;
974713577670400;-9.8145;0.5405;-3.3099;
974713587772952;-8.0010;-0.0535;-1.8894;
974713597877066;-8.3267;0.0326;-4.0813;
974713607981233;-8.9710;-0.0802;-5.3366;
974713618092118;-10.7127;-0.1783;-3.9473;
974713628196233;-9.3305;-0.2596;-3.7890;
974713638300400;-8.1613;-0.6024;-4.8407;
974713648395712;-9.2441;-0.3051;-3.9425;
974713658499827;-8.6237;-0.8874;-3.2477;
974713668603993;-8.9423;-0.0200;-3.3577;
974713678717743;-8.8107;-0.1280;-3.2764;
974713688821858;-10.6457;-0.2548;-2.6034;
974713698926025;-9.6658;0.7295;-1.3959;
974713709027327;-9.5076;0.2865;-1.6259;
974713719131441;-9.3688;-0.5255;-2.4739;
974713729235608;-9.2058;-0.0631;-3.4609;
974713739337691;-9.5414;-0.2572;-2.3806;
974713749441754;-9.6778;0.1235;-3.2189;
974713759545920;-9.2632;-0.5901;-3.2357;
974713769660660;-8.8346;-0.4322;-4.4692;
974713779764775;-8.7437;-0.0248;-4.1507;
974713789868941;-7.5218;-0.1089;-3.8417;
974713799965973;-9.3090;-0.2237;-4.8646;
974713810070087;-10.3173;-0.2022;-4.1937;
974713820174254;-9.9867;0.5955;-2.5098;
974713830296806;-8.3459;0.6099;-1.6857;
974713840400973;-5.8068;0.5883;-3.4848;
974713850505087;-9.2536;0.0494;-3.9592;
974713860590035;-10.9020;0.1618;-3.1950;
974713870694150;-11.1392;-0.2357;-2.2965;
974713880798316;-8.5974;0.4493;-1.7985;
974713890909306;-9.2369;-0.2692;-3.2022;
974713901013473;-8.2884;-0.8201;-3.3099;
974713911117587;-4.7240;-0.5638;-3.5303;
974713921202900;-7.3564;-0.6287;-6.2348;
974713931307014;-14.7467;-1.0190;-4.6633;
974713941411129;-15.2809;-0.5423;-0.5192;
974713951533004;-10.3367;0.3703;0.2139;
974713961637118;-6.0679;-0.3051;-3.5638;
974713971741233;-8.3842;-1.4432;-3.4155;
974713981823889;-9.0144;-1.2873;-2.3614;
974713991928004;-9.4478;-0.4418;-2.9937;
974714002032170;-11.3617;0.7729;-3.2716;
974714012171285;-9.3449;0.2001;-2.1912;
974714022275400;-6.9565;-0.0272;-1.8846;
974714032379566;-7.3756;1.0002;-3.8058;
974714042476702;-11.0958;0.3224;-3.8154;
974714052580816;-11.6013;0.0350;-2.8427;
974714062684983;-6.6093;0.1714;-3.3147;
974714072775660;-7.3086;0.1187;-4.0741;
974714082879775;-9.3544;-0.2740;-3.2836;
974714092983941;-8.8394;-0.8321;-3.2309;
974714103120868;-7.7160;0.1259;-4.7809;
974714113224983;-8.7317;-1.1892;-5.2840;
974714123329150;-11.4075;-0.7819;-3.8321;
974714133435139;-9.1508;-0.8512;-2.7637;
974714143539254;-11.1341;-0.4107;-2.3949;
974714153643368;-8.9734;-0.1639;-0.8115;
974714163715452;-7.7040;0.1714;-0.6054;
974714173819566;-7.1650;-0.2070;-3.7101;
974714183923733;-10.2215;-1.5604;-6.7857;
974714194023785;-13.0098;-1.3041;-4.9866;
974714204127900;-10.3053;-2.1042;-0.7540;
974714214232066;-8.8298;0.0972;-1.4462;
974714224357952;-7.8523;0.9117;-3.4705;
974714234462066;-9.2489;0.0422;-2.8283;
974714244566181;-10.1019;-0.0631;-3.1158;
974714254661285;-8.9423;0.6601;-3.9350;
974714264765400;-10.2814;0.9930;-2.3471;
974714274869566;-8.0489;0.6266;-1.6881;
974714284957118;-7.7806;0.4612;-3.5160;
974714295061233;-7.8882;-0.5542;-4.5556;
974714305165400;-10.9187;-0.0248;-3.9159;
974714315284931;-9.8360;0.3033;-1.4462;
974714325389045;-7.4357;-0.2644;-3.1400;
974714335493160;-8.0728;-0.5782;-5.2119;
974714345586077;-8.7341;-0.8560;-3.8776;
974714355690191;-8.3195;-0.6048;-3.5830;
974714365794306;-10.5114;-0.0272;-3.2836;
974714375898993;-10.0490;-0.4920;-2.9459;
974714386003108;-9.4454;-0.7412;-3.4370;
974714396107223;-9.5342;-0.6239;-3.4561;
974714406201650;-9.3425;-0.6790;-2.2798;
974714416305712;-8.7796;-0.9568;-2.4117;
974714426409879;-10.8227;-0.3389;-3.3769;
974714436517848;-11.1197;-0.3413;-1.7862;
974714446621962;-8.1565;0.2554;-1.8200;
974714456726129;-7.9699;0.2195;-3.3601;
974714466829514;-10.0756;-0.4490;-2.9411;
974714476933629;-9.0072;0.3775;-3.3840;
974714487037795;-10.2479;0.7295;-2.8860;
974714497143681;-8.4826;0.0709;-2.8164;
974714507247795;-9.1531;-0.1328;-3.9135;
974714517351962;-9.2154;0.3129;-3.1301;
974714527476389;-8.8513;-0.8536;-2.9124;
974714537580504;-9.1220;0.2794;-3.7316;
974714547684618;-9.1173;-0.6742;-2.5768;
974714557771077;-8.8083;-1.0262;-3.7388;
974714567875191;-9.2731;-0.1280;-4.1770;
974714577979306;-8.9255;-0.3003;-2.8837;
974714588087535;-9.5076;-0.9520;-2.7230;
974714598191650;-9.1316;-0.1711;-2.8403;
974714608295764;-8.2573;-0.0631;-2.2056;
974714618397223;-8.3291;-0.9497;-3.7436;
974714628501337;-8.8992;-0.1831;-5.5642;
974714638605452;-11.2086;-1.9774;-3.4370;
974714648722952;-9.0981;-1.1100;-2.7159;
974714658827066;-8.5974;-0.1567;-3.0057;
974714668931233;-9.9556;-0.3987;-3.5279;
974714679031285;-8.7891;-0.6239;-4.0047;
974714689135400;-10.8299;-0.3461;-3.1448;
974714699239566;-9.0048;0.1499;-2.0163;
974714709337639;-8.7580;0.3918;-2.2271;
974714719441754;-9.4741;0.2435;-2.1793;
974714729545868;-8.8107;-0.2740;-2.9076;
974714739649827;-7.8811;0.4038;-3.1352;
974714749753941;-9.0526;-0.7460;-3.4226;
974714759858056;-10.2431;-1.0214;-4.4743;
974714769967223;-9.3975;-0.6407;-3.4872;
974714780071337;-7.7566;-0.4466;-2.9530;
974714790175452;-8.4464;-1.0214;-4.6825;
974714800269723;-10.9451;-0.7842;-4.1841;
974714810373837;-10.1761;-1.3998;-2.4906;
974714820478004;-8.6261;-0.5710;-2.3471;
974714830609358;-8.6548;-0.3389;-2.7996;
974714840713420;-8.2669;-1.4049;-3.5279;
974714850817535;-10.1450;-0.2189;-3.3075;
974714860919514;-9.9556;-0.6646;-1.5179;
974714871023681;-8.5950;-0.3218;-2.0979;
974714881127795;-9.2827;-0.1304;-3.5471;
974714891207900;-9.9389;-0.7507;-3.9568;
974714901312014;-8.5137;-1.0502;-2.9315;
974714911416129;-8.2238;-0.1926;-3.2836;
974714921530920;-10.9810;-0.3365;-3.9808;
974714931635035;-10.1163;-0.2094;-3.1854;
974714941739150;-6.8704;0.0398;-2.5911;
974714951830243;-7.2846;-0.0511;-4.2802;
974714961934358;-9.9628;-0.7699;-4.5748;
974714972038473;-7.8930;0.2387;-3.3793;
974714982129202;-8.2813;-0.7555;-3.2859;
974714992233316;-8.9877;-0.4155;-4.8168;
974715002337483;-10.2885;-0.5040;-3.4537;
974715012454098;-9.3162;-0.4968;-2.2702;
974715022558212;-8.6046;-0.2572;-3.0799;
974715032662327;-9.6323;-0.3652;-2.8642;
974715042783056;-8.1063;-1.0071;-3.0775;
974715052887170;-7.4524;-0.3604;-3.8154;
974715062991285;-8.2932;-0.8874;-4.1219;
974715073088681;-1.6816;-1.7904;-5.0874;
974715083192795;-0.6491;-0.5614;-8.5274;
974715093296910;-21.2049;-0.8369;-6.8937;
974715103393577;-31.0911;-0.8850;4.1713;
974715113497691;-13.8245;1.5754;8.5047;
974715123601806;0.5366;0.7848;-0.7083;
974715133706962;-5.0880;-1.3950;-4.2706;
974715143811129;-16.9074;-1.8263;-0.3730;
974715153915191;-14.7897;-0.1831;0.7409;
974715164022118;-5.4688;1.3310;-0.5264;
974715174126233;-3.7633;0.4878;-2.1840;
974715184230348;-9.3018;-0.1783;-6.0335;
974715194326493;-8.1876;-0.6598;-6.4409;
974715204430608;-6.2498;-0.4681;-4.8766;
974715214534723;-7.4094;0.4854;-5.3390;
974715224657118;-9.7448;1.5778;-6.1247;
974715234761233;-10.6505;1.6161;-3.9999;
974715244865348;-7.5362;-0.0993;-2.9506;
974715254962535;-7.5912;-0.3003;-6.1128;
974715265066650;-9.1220;-0.9042;-5.4969;
974715275170764;-9.2106;-1.7234;-3.3625;
974715285267952;-9.4214;-0.9592;-2.7805;
974715295372066;-8.2549;-0.5375;-2.5026;
974715305476233;-8.3913;-1.0358;-1.9899;
974715315594827;-9.5100;0.0948;-1.7719;
974715325698941;-11.4482;0.6290;1.1770;
974715335803056;-4.2975;2.2484;2.5400;
974715345902483;-3.8447;-2.3509;-10.0292;
974715356006545;-17.1374;-3.7259;-17.6758;
974715366110764;-16.6080;-6.3754;-6.4935;
974715376208212;-7.9388;-5.6279;2.6309;
974715386312327;-5.4042;-0.9855;-1.9612;
974715396416493;-10.6672;1.6735;-6.6159;
974715406504827;-15.2043;0.6960;-1.6881;
974715416608941;-7.7327;2.0183;3.0694;
974715426713056;-5.9958;2.7897;-0.5192;
974715436825868;-9.4525;3.3383;-3.8584;
974715446930035;-9.8527;1.3119;-1.8033;
974715457034150;-9.2034;0.4469;-1.0941;
974715467143629;-8.4559;1.2374;-2.8908;
974715477247743;-8.8537;0.1164;-4.0884;
974715487351910;-8.7509;-0.6790;-4.2897;
974715497454618;-8.7317;-1.1219;-4.8574;
974715507558733;-7.8667;-1.0023;-3.9159;
974715517662900;-8.3602;-0.6048;-4.0454;
974715527755973;-9.2922;-0.1304;-4.4333;
974715537860087;-8.2310;-0.7914;-3.3123;
974715547964254;-9.8839;-1.4623;-4.6825;
974715558083577;-8.5376;-0.8058;-3.1352;
974715568187691;-7.0570;-1.0262;-1.8129;
974715578291858;-9.2058;-1.0478;-4.4934;
974715588388577;-9.7807;-0.9257;-3.9712;
974715598492691;-9.8671;-1.3089;-2.6106;
974715608596858;-9.7615;-0.9449;-3.2142;
974715618707118;-10.2191;-1.1581;-2.0740;
974715628811233;-10.4420;-0.3413;-1.7456;
974715638915400;-8.6501;0.2001;-1.9564;
974715649026545;-9.3329;-0.2692;-2.0426;
974715659130608;-10.2646;0.1020;-2.6393;
974715669234775;-9.8623;0.6362;-2.4930;
974715679331962;-8.6189;-0.1208;-1.9205;
974715689436077;-8.7317;0.2291;-3.5853;
974715699540243;-9.5315;0.0374;-3.6981;
974715709656285;-9.9150;-1.2395;-3.3123;
974715719760400;-11.4817;-0.9090;-3.6909;
974715729864566;-7.7925;0.1594;-2.2750;
974715739960556;-8.2119;-0.9066;-2.5122;
974715750064723;-8.7891;-0.4178;-4.0190;
974715760168837;-10.0011;0.0135;-3.3075;
974715770270139;-10.3292;-0.0730;-2.8932;
974715780374254;-8.2095;1.0268;-2.5098;
974715790478420;-8.2837;0.5620;-2.5481;
974715800569462;-9.0144;0.3009;-3.7603;
974715810673577;-9.0263;0.0446;-3.1687;
974715820777743;-8.6405;0.3679;-2.7924;
974715830928368;-9.0144;0.1068;-2.9459;
974715841032535;-8.5065;-0.8731;-3.4681;
974715851136650;-7.3998;-2.5044;-4.8646;
974715861205920;-8.8681;-1.3663;-4.9388;
974715871310035;-11.0575;0.4205;-3.6909;
974715881414150;-9.7783;1.2760;-2.6082;
974715891531910;-8.4464;1.6424;-2.3013;
974715901636025;-8.4730;1.0460;-2.7422;
974715911740139;-9.9317;1.3980;-3.9063;
974715921842743;-10.8395;1.0986;-2.5911;
974715931946858;-9.1292;0.7585;-1.7575;
974715942050973;-7.9292;1.3645;-2.9794;
974715952126077;-9.6036;0.6553;-3.1926;
974715962230191;-9.6826;0.7295;-3.6667;
974715972334358;-10.4563;0.5477;-3.5471;
974715982448264;-10.5185;0.8160;-3.3099;
974715992552379;-8.5807;0.2315;-2.7589;
974716002656545;-8.9901;0.9571;-3.0488;
974716012765712;-9.3975;1.0603;-2.9985;
974716022869827;-8.6692;1.2206;-3.2668;
974716032973993;-8.6357;1.3454;-3.1807;
974716043064306;-8.4873;0.4660;-3.8465;
974716053168420;-7.9651;0.4062;-4.1028;
974716063272587;-9.1220;0.4926;-3.5973;
974716073379879;-8.3243;-0.4777;-3.5973;
974716083483941;-9.1292;-0.1328;-3.5973;
974716093588108;-8.5208;-0.7603;-3.8130;
974716103699618;-9.5486;-0.9401;-3.9544;
974716113803733;-9.1053;-0.5160;-3.0894;
974716123907900;-8.8705;-1.0190;-2.6847;
974716134013681;-8.9423;-1.4169;-3.0631;
974716144117795;-8.8705;-0.6646;-3.8297;
974716154221962;-10.1067;-1.7976;-2.7494;
974716164325035;-10.1450;-0.8393;-2.4763;
