Sensor: bmi160 Gyroscope Non-wakeup
Vendor: BOSCH
TimestampGyro [ns]; GyroX [rad/s]; GyroY [rad/s]; GyroZ [rad/s]
691818013869801;0.0121;-0.0003;-0.0064;
691818023978603;0.0100;0.0008;-0.0000;
691818034087353;0.0121;-0.0003;-0.0032;
691818044231572;0.0121;0.0008;-0.0043;
691818054340322;0.0153;0.0040;-0.0021;
691818064449124;0.0174;0.0029;-0.0000;
691818074573655;0.0142;0.0019;-0.0000;
691818084682457;0.0153;0.0008;0.0011;
691818094791207;0.0153;-0.0013;0.0011;
691818104860842;0.0164;-0.0035;0.0032;
691818115014124;0.0174;-0.0035;0.0075;
691818125122874;0.0174;-0.0024;0.0075;
691818135231676;0.0153;-0.0024;0.0096;
691818145324072;0.0142;-0.0035;0.0096;
691818155432822;0.0185;-0.0024;0.0128;
691818165541624;0.0174;-0.0003;0.0128;
691818175646988;0.0174;-0.0013;0.0149;
691818185755790;0.0174;-0.0035;0.0192;
691818195864540;0.0185;-0.0045;0.0202;
691818205972197;0.0196;-0.0056;0.0224;
691818216080999;0.0228;-0.0067;0.0245;
691818226189749;0.0228;-0.0013;0.0245;
691818236294072;0.0206;0.0040;0.0234;
691818246402874;0.0206;0.0083;0.0256;
691818256511624;0.0196;0.0093;0.0277;
691818266617092;0.0174;0.0061;0.0309;
691818276725894;0.0196;0.0029;0.0352;
691818286834644;0.0196;-0.0045;0.0394;
691818296943342;0.0174;-0.0130;0.0405;
691818307052144;0.0079;-0.0173;0.0426;
691818317160894;-0.0039;-0.0173;0.0426;
691818327279176;-0.0081;-0.0120;0.0437;
691818337387978;-0.0081;-0.0056;0.0469;
691818347496728;-0.0071;0.0008;0.0511;
691818357601780;-0.0017;0.0029;0.0543;
691818367710582;-0.0007;0.0029;0.0554;
691818377819332;0.0004;0.0008;0.0565;
691818387932197;0.0068;0.0019;0.0628;
691818398040999;0.0111;0.0029;0.0703;
691818408149749;0.0121;0.0072;0.0767;
691818418254384;0.0111;0.0177;0.0799;
691818428363134;0.0121;0.0262;0.0852;
691818438471936;0.0132;0.0284;0.0895;
691818448581988;0.0153;0.0305;0.0905;
691818458690790;0.0121;0.0326;0.0905;
691818468799540;0.0121;0.0305;0.0980;
691818478913863;0.0132;0.0294;0.1055;
691818489022613;0.0121;0.0316;0.1076;
691818499131415;0.0079;0.0284;0.1076;
691818509237197;0.0036;0.0188;0.1076;
691818519345999;0.0057;0.0136;0.1108;
691818529454749;0.0068;0.0125;0.1161;
691818539560113;0.0047;0.0083;0.1193;
691818549668915;0.0036;0.0008;0.1246;
691818559777665;0.0068;0.0019;0.1246;
691818569888342;0.0079;0.0040;0.1214;
691818579997144;0.0079;-0.0003;0.1225;
691818590105894;0.0089;-0.0035;0.1257;
691818600216363;0.0111;-0.0003;0.1257;
691818610325165;0.0111;-0.0003;0.1257;
691818620433967;0.0121;0.0029;0.1246;
691818630542613;0.0132;0.0156;0.1214;
691818640651363;0.0079;0.0220;0.1182;
691818650760165;0.0057;0.0230;0.1150;
691818660884488;0.0079;0.0241;0.1161;
691818670993290;0.0132;0.0209;0.1214;
691818681102040;0.0185;0.0166;0.1321;
691818691194801;0.0249;0.0125;0.1385;
691818701303551;0.0292;0.0061;0.1427;
691818711412353;0.0473;0.0051;0.1438;
691818721513134;0.0718;0.0093;0.1502;
691818731621884;0.1005;0.0156;0.1587;
691818741730686;0.1218;0.0177;0.1651;
691818751837822;0.1336;0.0177;0.1683;
691818761946624;0.1399;0.0188;0.1662;
691818772055374;0.1463;0.0230;0.1577;
691818782228863;0.1549;0.0294;0.1513;
691818792337665;0.1346;0.0348;0.1502;
691818802446415;0.0952;0.0390;0.1502;
691818812482665;0.0505;0.0348;0.1481;
691818822591467;0.0068;0.0177;0.1491;
691818832700217;0.0132;-0.0003;0.1534;
691818842863134;0.0611;0.0146;0.1683;
691818852971936;0.0281;-0.0035;0.1875;
691818863080686;0.0515;-0.0067;0.1981;
691818873150478;0.1378;0.0369;0.1981;
691818883259280;0.2454;0.0656;0.2077;
691818893368030;0.3071;0.0678;0.2269;
691818903473655;0.3529;0.0806;0.2427;
691818913582405;0.3582;0.0827;0.2619;
691818923691207;0.2815;0.0475;0.2779;
691818933808551;0.1698;0.0115;0.2736;
691818943917301;0.0792;0.0029;0.2427;
691818954026103;-0.0401;-0.0194;0.2024;
691818964134488;-0.1668;-0.0525;0.1864;
691818974243290;-0.3320;-0.0375;0.2077;
691818984352040;-0.2233;0.0326;0.2184;
691818994459332;-0.0358;0.0635;0.2374;
691819004568082;0.0377;0.0465;0.2491;
691819014676884;0.0643;0.0539;0.2321;
691819024785165;0.0366;0.0486;0.2130;
691819034893915;0.0185;-0.0312;0.2226;
691819045002717;0.0387;-0.0919;0.2555;
691819055098759;0.0579;-0.0567;0.2587;
691819065207561;0.0473;-0.0216;0.2470;
691819075316311;0.0462;-0.0226;0.2374;
691819085445322;0.0654;-0.0109;0.2056;
691819095554072;0.0686;0.0241;0.1640;
691819105662874;0.0707;0.0710;0.1395;
691819115771780;0.0760;0.1051;0.1225;
691819125880530;0.0846;0.1083;0.1172;
691819135989280;0.0941;0.1328;0.1108;
691819146093759;0.1016;0.1594;0.1012;
691819156202509;0.1080;0.1860;0.0799;
691819166311259;0.1122;0.2158;0.0575;
691819176431259;0.1272;0.2585;0.0383;
691819186540009;0.1314;0.3053;0.0149;
691819196648759;0.0771;0.1434;0.0256;
691819206745999;0.0004;-0.1718;0.0916;
691819216854749;0.0537;-0.2676;0.1193;
691819226963499;0.2273;-0.0738;0.0724;
691819237077926;0.2454;0.0614;0.0234;
691819247186676;0.1357;0.0188;0.0138;
691819257295426;0.1272;0.0146;0.0256;
691819267409488;0.1612;0.1093;0.0107;
691819277518238;0.0803;0.0944;0.0064;
691819287626988;-0.1509;-0.0738;0.0330;
691819297728655;-0.3330;-0.1803;0.0469;
691819307837405;-0.2542;-0.1185;0.0149;
691819317946155;-0.1583;-0.0674;-0.0043;
691819328062717;-0.2180;-0.1068;0.0043;
691819338171467;-0.2702;-0.1057;0.0192;
691819348280217;-0.2553;-0.0258;0.0107;
691819358413551;-0.3351;-0.0088;-0.0128;
691819368522301;-0.5502;-0.0663;-0.0256;
691819378631051;-0.7036;-0.0887;-0.0138;
691819388719905;-0.7100;-0.0280;-0.0213;
691819398828655;-0.7217;0.0305;-0.0479;
691819408937405;-0.8122;0.0029;-0.0565;
691819419039905;-0.8889;-0.0386;-0.0714;
691819429148655;-0.8602;0.0104;-0.1033;
691819439257405;-0.8218;0.0433;-0.1140;
691819449364488;-0.8740;0.0115;-0.1033;
691819459473238;-0.9039;-0.0088;-0.0980;
691819469581988;-0.8282;-0.0184;-0.0980;
691819479692197;-0.7100;0.0008;-0.0937;
691819489800947;-0.6770;-0.0130;-0.1033;
691819499909697;-0.6972;-0.0993;-0.1055;
691819510014072;-0.6088;-0.0695;-0.1033;
691819520122822;-0.4820;-0.0684;-0.1193;
691819530231572;-0.4533;-0.1398;-0.1363;
691819540349697;-0.4320;-0.1494;-0.1672;
691819550458447;-0.2766;-0.1132;-0.1832;
691819560567197;-0.2489;-0.1238;-0.1747;
691819570661363;-0.2851;-0.0354;-0.1811;
691819580770113;-0.2606;0.2031;-0.2141;
691819590878863;-0.2957;0.2616;-0.2620;
691819601003967;-0.3138;0.0848;-0.2663;
691819611112717;-0.2265;-0.0461;-0.2322;
691819621221519;-0.0337;-0.0503;-0.2162;
691819631316780;0.1112;0.0136;-0.2610;
691819641425530;0.0462;-0.0354;-0.2812;
691819651534280;0.0547;-0.1526;-0.2834;
691819661645061;0.1165;-0.1142;-0.2791;
691819671753811;0.1719;-0.0525;-0.2961;
691819681862561;0.1559;-0.0280;-0.3132;
691819691969488;0.1261;0.1477;-0.3345;
691819702078238;0.0366;0.1274;-0.3430;
691819712186988;0.0558;-0.0993;-0.3387;
691819722302613;0.1240;-0.0578;-0.3164;
691819732411363;0.2390;0.0635;-0.3100;
691819742520113;0.1847;-0.0375;-0.3004;
691819752639592;0.1240;-0.0099;-0.2642;
691819762748342;0.1485;0.0507;-0.2375;
691819772857092;0.1176;-0.0099;-0.2354;
691819782958707;0.0675;-0.0024;-0.2514;
691819793067457;0.0089;-0.0184;-0.2141;
691819803176207;0.0206;0.0486;-0.1928;
691819813295113;-0.0007;0.1764;-0.2237;
691819823403863;-0.2009;0.0156;-0.2397;
691819833512613;-0.3128;-0.2634;-0.2141;
691819843603082;-0.1892;-0.1771;-0.1843;
691819853711832;-0.1892;0.0752;-0.1598;
691819863820582;-0.3447;0.1594;-0.1768;
691819873943551;-0.5726;0.0731;-0.1885;
691819884052301;-0.5949;0.0742;-0.2013;
691819894161051;-0.5300;0.0763;-0.1907;
691819904277717;-0.7100;-0.0876;-0.1470;
691819914386467;-0.7334;-0.1047;-0.1481;
691819924495217;-0.6525;0.1178;-0.2056;
691819934576415;-0.8282;0.0827;-0.2024;
691819944685165;-1.0688;-0.1739;-0.2024;
691819954793915;-0.9582;-0.1025;-0.2035;
691819964907613;-0.9676;0.0582;-0.2301;
691819975016363;-1.1817;0.0752;-0.2407;
691819985125113;-1.1679;0.0859;-0.2525;
691819995239592;-1.0774;0.1242;-0.2461;
691820005348342;-1.0379;0.2137;-0.2525;
691820015457092;-1.2084;0.0891;-0.2546;
691820025558967;-1.2350;-0.1153;-0.2684;
691820035667717;-0.9953;-0.0439;-0.2727;
691820045776467;-1.0049;-0.0056;-0.2461;
691820055890009;-1.0177;-0.1505;-0.2333;
691820065998759;-0.8793;-0.1792;-0.2365;
691820076107509;-0.8090;-0.0301;-0.2141;
691820086218863;-0.7718;0.2020;-0.2216;
691820096327613;-0.9039;0.2126;-0.2631;
691820106436363;-1.0124;0.0072;-0.2567;
691820116550009;-0.7505;0.0093;-0.2216;
691820126658811;-0.7632;0.0348;-0.2194;
691820136767561;-0.8644;0.0816;-0.2482;
691820146885842;-0.7835;0.1029;-0.2716;
691820156994592;-0.7228;-0.0003;-0.3142;
691820167103394;-0.6567;0.0198;-0.3132;
691820177204592;-0.6056;0.0061;-0.2791;
691820187313342;-0.4724;-0.0418;-0.2418;
691820197422144;-0.3064;0.0539;-0.2088;
691820207529905;-0.3064;0.1519;-0.2024;
691820217638655;-0.3415;0.1690;-0.2056;
691820227747457;-0.3510;0.0241;-0.2738;
691820237859488;-0.3426;-0.0344;-0.3089;
691820247968238;-0.3128;0.0029;-0.2759;
691820258077040;-0.2734;0.1019;-0.2354;
691820268181780;-0.2638;0.0561;-0.2333;
691820278290530;-0.2116;-0.0344;-0.2770;
691820288399332;-0.0624;-0.0951;-0.3110;
691820298504332;0.0547;-0.0471;-0.2919;
691820308613082;0.0867;0.1658;-0.2578;
691820318721884;0.0590;0.2308;-0.2365;
691820328828863;0.2602;-0.0322;-0.2567;
691820338937613;0.6511;0.0051;-0.2535;
691820349046415;0.6032;0.1913;-0.2567;
691820359185947;0.5659;0.1498;-0.2759;
691820369294697;0.8301;0.0008;-0.2557;
691820379403499;0.8896;-0.0322;-0.2056;
691820389492197;0.7608;0.0688;-0.1981;
691820399600947;0.8546;0.0774;-0.2088;
691820409709749;0.9801;-0.0844;-0.2333;
691820419807249;0.8407;-0.1462;-0.2354;
691820429916051;0.6426;0.0763;-0.1939;
691820440024801;0.5467;0.1370;-0.2162;
691820450146363;0.6138;0.0593;-0.2439;
691820460255165;0.5979;0.1530;-0.2301;
691820470363915;0.5478;0.1967;-0.2439;
691820480462092;0.5648;0.0646;-0.2706;
691820490570842;0.6319;0.0699;-0.1960;
691820500679644;0.5883;0.1530;-0.1278;
691820510791415;0.6682;0.0784;-0.1193;
691820520900217;0.8672;0.0051;-0.1214;
691820531008967;0.8248;-0.0099;-0.1129;
691820541096884;0.8184;0.0156;-0.1140;
691820551205634;0.9152;0.1487;-0.0788;
691820561314436;0.9951;0.0220;-0.0511;
691820571435322;1.0494;-0.0652;-0.0597;
691820581544072;0.9684;0.0433;-0.0842;
691820591652874;0.9663;0.1061;-0.0639;
691820601759957;1.0483;0.1146;-0.0043;
691820611868759;1.0909;0.0838;0.0160;
691820621977509;1.0462;0.0475;0.0032;
691820632114280;1.0547;0.0316;0.0138;
691820642223030;0.9897;0.0358;0.0277;
691820652331832;0.9311;-0.0312;0.0479;
691820662438759;0.8588;-0.0226;0.0373;
691820672547509;0.7843;0.0571;0.0309;
691820682656311;0.6895;-0.0003;0.0266;
691820692753134;0.5382;-0.0194;0.0011;
691820702861884;0.4008;0.0752;-0.0788;
691820712970686;0.3869;-0.0919;-0.1374;
691820723061051;0.2762;-0.1068;-0.1619;
691820733169801;0.3198;0.0072;-0.1875;
691820743278603;0.3305;-0.0024;-0.2109;
691820753417926;0.3933;-0.0003;-0.2109;
691820763526676;0.3848;-0.0280;-0.1949;
691820773635478;0.4008;-0.0557;-0.1854;
691820783730426;0.4189;-0.0919;-0.1854;
691820793839176;0.4296;-0.0482;-0.2056;
691820803947978;0.5329;-0.0738;-0.1651;
691820814059488;0.6405;-0.1643;-0.1332;
691820824168238;0.7129;-0.0578;-0.1246;
691820834277040;0.8683;-0.0631;-0.0991;
691820844385426;1.1261;-0.0823;-0.0383;
691820854494228;1.2454;0.0104;0.0309;
691820864602978;1.3839;-0.0301;0.0618;
691820874718447;1.5755;0.0072;0.1065;
691820884827197;1.6117;0.0008;0.1523;
691820894935999;1.6234;-0.0045;0.1481;
691820905050009;1.6820;0.1040;0.1832;
691820915158759;1.6500;0.2126;0.2077;
691820925267561;1.6213;0.0731;0.3184;
691820935369384;1.5339;-0.0003;0.3312;
691820945478134;1.3317;0.1945;0.2651;
691820955586936;1.1964;0.2063;0.2513;
691820965689697;1.1666;0.1647;0.2694;
691820975798447;0.9972;0.2254;0.2640;
691820985907249;0.7630;0.1115;0.3482;
691820996025322;0.6490;0.1200;0.3024;
691821006134072;0.5989;0.1168;0.2577;
691821016242874;0.4594;0.1168;0.2427;
691821026353342;0.3411;0.1328;0.2545;
691821036462092;0.2655;0.0614;0.2216;
691821046570894;0.1921;0.0411;0.2216;
691821056675999;0.0909;0.1242;0.1896;
691821066784749;0.0632;0.0710;0.1779;
691821076893551;-0.0198;-0.0727;0.1704;
691821087002822;-0.1860;0.0125;0.1481;
691821097111572;-0.2563;0.0774;0.1055;
691821107220374;-0.2361;-0.0056;0.1001;
691821117326676;-0.2052;-0.0162;0.0501;
691821127435478;-0.2457;0.1296;0.0671;
691821137544280;-0.3011;0.0465;0.0341;
691821147659072;-0.2457;-0.0237;0.0501;
691821157767874;-0.2137;0.0518;0.0224;
691821167876676;-0.2947;-0.0365;0.0011;
691821177985426;-0.1786;-0.0610;0.0202;
691821188094228;-0.1029;0.1029;0.0373;
691821198203030;-0.1040;0.1583;0.0128;
691821208314905;0.0345;0.0678;-0.0021;
691821218423707;0.1133;0.0136;0.0628;
691821228532509;0.0558;-0.0546;0.0831;
691821238643082;0.0526;0.0891;0.0969;
691821248751884;0.1676;0.2095;0.1129;
691821258860686;0.1634;-0.0109;0.1651;
691821268968655;0.2039;0.0443;0.1459;
691821279077457;0.1964;0.1530;0.1917;
691821289186207;0.1122;-0.0120;0.1960;
691821299287926;0.2582;0.1200;0.1960;
691821309396728;0.2571;0.1157;0.2523;
691821319505530;0.2273;0.0401;0.3130;
691821329612197;0.2166;0.0433;0.3290;
691821339720999;0.1815;-0.0067;0.3226;
691821349829801;0.1623;0.0507;0.2981;
691821359924280;0.1069;0.0401;0.2672;
691821370033082;0.0473;-0.0109;0.3152;
691821380141884;0.1250;0.0656;0.3503;
691821390265426;0.2166;0.1445;0.3567;
691821400374228;0.1027;0.0944;0.3450;
691821410483030;0.0270;0.0880;0.3226;
691821420589384;0.0153;0.0742;0.3248;
691821430698186;-0.0401;0.0198;0.2885;
691821440806988;-0.1072;0.0859;0.2513;
691821450922717;-0.1019;0.0923;0.3056;
691821461031519;-0.2105;-0.0972;0.3013;
691821471140322;-0.2297;0.0497;0.2726;
691821481241363;-0.3521;0.0019;0.1960;
691821491350165;-0.3606;-0.1505;0.1928;
691821501458967;-0.3426;-0.0514;0.1523;
691821511567926;-0.4213;-0.0450;0.1534;
691821521676728;-0.4490;-0.0312;0.1491;
691821531785530;-0.4032;0.0125;0.0991;
691821541916155;-0.4447;-0.0802;0.0554;
691821552024957;-0.4032;-0.0407;0.0383;
691821562133759;-0.3936;0.0029;0.0490;
691821572220634;-0.4032;-0.0727;0.0639;
691821582329436;-0.4043;-0.0248;0.0192;
691821592438238;-0.4554;-0.0674;0.0224;
691821602541936;-0.5086;-0.1462;0.0192;
691821612650634;-0.4458;-0.0993;0.0011;
691821622759488;-0.3170;0.0475;-0.0085;
691821632868238;-0.2925;0.0166;-0.0383;
691821642976884;-0.1445;-0.0301;-0.0021;
691821653085686;-0.2190;-0.1909;0.0256;
691821663194488;-0.1210;-0.1047;0.0075;
691821673300530;-0.0316;0.0816;-0.0075;
691821683409332;-0.1029;0.0262;0.0117;
691821693518134;-0.0720;-0.1185;0.0330;
691821703667613;-0.0348;-0.0354;0.0341;
691821713776415;-0.0220;0.0156;0.0277;
691821723885217;-0.0901;-0.0620;0.0245;
691821733980269;-0.0529;-0.0035;0.1023;
691821744089019;-0.0507;0.0593;0.1161;
691821754197874;-0.0614;0.0262;0.1150;
691821764310634;-0.0955;-0.1260;0.1204;
691821774419436;-0.1221;-0.1036;0.1459;
691821784528238;-0.1093;-0.0109;0.1854;
691821794622301;-0.1338;-0.0045;0.1662;
691821804731103;-0.1381;-0.0003;0.1683;
691821814839905;-0.1391;-0.0205;0.2088;
691821824956363;-0.1509;-0.0684;0.2342;
691821835065165;-0.1573;-0.0013;0.2120;
691821845173967;-0.0688;0.0976;0.1832;
691821855224124;-0.1956;-0.0280;0.1843;
691821865332926;-0.3234;-0.0876;0.2173;
691821875441728;-0.2787;-0.0056;0.2523;
691821885627665;-0.1626;0.0624;0.2077;
691821895736467;-0.1136;0.1253;0.1896;
691821905845269;-0.1296;0.0976;0.2141;
691821915913551;-0.1605;-0.0535;0.1779;
691821926022353;-0.2403;0.0198;0.1534;
691821936131155;-0.2403;0.1860;0.1502;
691821946276780;-0.3224;0.1455;0.1300;
691821956385582;-0.5161;0.0125;0.1363;
691821966494384;-0.5449;-0.0173;0.1182;
691821976587301;-0.4724;0.0379;0.0927;
691821986696103;-0.3872;0.0624;0.0788;
691821996804905;-0.3712;0.0656;0.1044;
691822006915947;-0.3904;0.1264;0.0703;
691822017024749;-0.4511;0.0550;0.0288;
691822027133551;-0.4820;-0.0205;0.0202;
691822037231051;-0.5108;0.0072;0.0671;
691822047339853;-0.5363;0.0997;0.0426;
691822057448655;-0.5353;0.1210;-0.0213;
691822067573342;-0.5108;0.0699;-0.0479;
691822077682144;-0.4596;0.1594;-0.0021;
691822087790947;-0.4213;0.2798;-0.0064;
691822097905894;-0.4256;0.1679;-0.0064;
691822108014697;-0.4746;-0.0471;-0.0298;
691822118123499;-0.5193;-0.0887;-0.0831;
691822128225738;-0.4660;0.0518;-0.0820;
691822138334592;-0.4554;0.1913;-0.0799;
691822148443394;-0.5662;-0.0152;-0.1108;
691822158556467;-0.5885;-0.1963;-0.1374;
691822168665322;-0.4948;0.0571;-0.1715;
691822178774124;-0.3766;0.2723;-0.1523;
691822188877822;-0.4192;0.1232;-0.1651;
691822198986676;-0.3755;0.0284;-0.1417;
691822209095478;-0.3851;0.0040;-0.1747;
691822219201155;-0.3947;-0.0706;-0.1683;
691822229310009;-0.3373;-0.0407;-0.1822;
691822239418811;-0.2734;0.0923;-0.1768;
691822249523238;-0.3011;0.0230;-0.1459;
691822259632092;-0.3138;-0.0823;-0.1587;
691822269740894;-0.2606;-0.0780;-0.2088;
691822279855947;-0.3138;-0.0099;-0.2344;
691822289964801;-0.3160;-0.0120;-0.2088;
691822300073655;-0.2798;-0.0748;-0.1822;
691822310179384;-0.2861;-0.0333;-0.1726;
691822320288186;-0.2244;0.0390;-0.1406;
691822330397040;-0.2297;0.0518;-0.1800;
691822340510947;-0.2499;0.0348;-0.1928;
691822350619749;-0.2776;-0.1686;-0.1481;
691822360728603;-0.2446;-0.1111;-0.1523;
691822370852405;-0.1977;0.1146;-0.1459;
691822380961259;-0.3373;-0.0077;-0.1609;
691822391070061;-0.3245;-0.2485;-0.1790;
691822401156832;-0.2553;-0.1632;-0.2045;
691822411265686;-0.1977;0.0603;-0.1587;
691822421374488;-0.2265;-0.0162;-0.1779;
691822431473342;-0.2063;-0.2037;-0.1715;
691822441582197;-0.0603;-0.0993;-0.1758;
691822451690999;0.0079;0.0816;-0.1683;
691822461832926;0.0462;0.0379;-0.2184;
691822471941780;0.1101;0.0656;-0.1768;
691822482050634;0.1261;0.0997;-0.1076;
691822492155582;0.0505;-0.1473;-0.0895;
691822502264436;0.0973;-0.2367;-0.1694;
691822512373238;0.3603;0.0795;-0.1268;
691822522452613;0.2996;0.0166;-0.0554;
691822532561415;0.1975;-0.1494;-0.0873;
691822542670269;0.3678;0.0656;-0.0692;
691822552830947;0.2571;0.0816;-0.1630;
691822562939801;0.0792;-0.2005;-0.0096;
691822573048603;0.1943;-0.1931;-0.0362;
691822583121988;0.6319;0.3117;-0.0618;
691822593230842;0.3774;0.2766;-0.0660;
691822603339697;0.0643;0.0603;0.0554;
691822613448082;0.1250;0.2095;0.0352;
691822623556884;0.3262;0.1764;-0.0969;
691822633665738;0.3497;0.1072;-0.1374;
691822643790634;0.3507;0.3011;-0.0692;
691822653899488;0.2943;0.0358;0.0565;
691822664008290;0.1612;-0.2016;-0.0064;
691822674104905;0.1612;0.0188;-0.0181;
691822684213759;0.0313;0.3884;-0.0320;
691822694322561;0.0260;0.4587;-0.0639;
691822704453342;0.0057;-0.0269;-0.0490;
691822714562197;0.0973;-0.0727;-0.0352;
691822724670999;0.1581;0.4065;-0.0309;
691822734754176;-0.0049;0.3170;-0.0320;
691822744863030;0.0132;-0.1217;-0.0490;
691822754971832;0.1208;0.2755;-0.0735;
691822765068655;0.0632;0.5652;-0.0245;
691822775177509;-0.1242;-0.1451;-0.0224;
691822785286311;0.1272;-0.1494;-0.0479;
691822795404697;0.2836;0.2308;-0.0597;
691822805513551;-0.0348;-0.1526;-0.1129;
691822815622353;-0.0039;-0.0620;-0.1353;
691822825747926;-0.0252;0.3266;-0.0820;
691822835856780;-0.2371;0.0678;-0.0021;
691822845965582;-0.1839;0.0774;-0.0128;
691822856053759;0.1868;0.4459;0.0064;
691822866162613;0.0931;0.1104;0.0256;
691822876271415;0.0100;-0.3678;0.0288;
691822886394697;0.2316;-0.0983;0.0373;
691822896503551;0.2762;0.1029;0.0511;
691822906612353;0.1336;-0.0077;0.1087;
691822916722613;-0.0603;-0.4168;0.0884;
691822926831467;0.0100;-0.3997;0.0714;
691822936940269;0.0313;0.0252;0.1097;
691822947039749;-0.1370;0.0029;0.0916;
691822957148603;-0.2766;-0.2772;0.1300;
691822967257405;-0.1519;-0.0280;0.1193;
691822977370113;-0.0337;-0.1004;0.1289;
691822987478967;-0.0209;-0.2506;0.0724;
691822997587769;0.0611;0.0827;0.0852;
691823007695217;0.0249;0.0051;0.1236;
691823017804072;-0.0326;-0.3933;0.0842;
691823027912874;0.1932;-0.1941;0.1577;
691823038022405;0.1911;-0.0983;0.1214;
691823048131259;0.0654;-0.3294;0.0863;
691823058240061;0.0292;-0.1877;0.1246;
691823068358655;-0.0593;-0.1558;0.1577;
691823078467509;-0.0486;-0.3081;0.1651;
691823088576311;0.0079;-0.1664;0.1683;
691823098692197;-0.0763;-0.1877;0.1726;
691823108801051;-0.2787;0.0337;0.1459;
691823118909853;-0.5736;0.2382;0.1736;
691823129004592;-0.5821;0.0912;0.2194;
691823139113447;-0.1178;-0.1537;0.2300;
691823149222301;0.1474;-0.2048;0.1427;
691823159333915;0.0547;-0.1111;0.0884;
691823169442769;-0.2286;0.0795;0.0969;
691823179551624;-0.4288;0.2137;0.1321;
691823189666780;-0.3585;0.0454;0.1076;
691823199775634;-0.0411;0.0136;0.0341;
691823209884488;-0.0443;0.1189;-0.0160;
691823219982509;-0.0550;0.0529;-0.0032;
691823230091363;0.0185;0.0635;0.0383;
691823240200217;0.0089;0.1732;0.0426;
691823250318238;0.0334;0.1445;0.0490;
691823260427092;0.0909;-0.0589;0.0501;
691823270535947;0.2284;-0.0908;0.0469;
691823280639280;0.1581;0.1093;0.0788;
691823290748134;-0.0454;0.2414;0.1161;
691823300856936;-0.0369;-0.1707;0.1470;
691823310955217;0.1016;-0.4700;0.0980;
691823321064072;0.1570;-0.0823;0.0607;
691823331172874;-0.1839;0.1381;0.0192;
691823341269176;-0.4437;0.0040;0.0586;
691823351378030;-0.3851;-0.0972;0.0479;
691823361486884;-0.0198;-0.1462;-0.0224;
691823371630738;-0.0081;-0.1057;-0.0863;
691823381739592;-0.1189;-0.0535;-0.1193;
691823391848447;-0.0848;-0.0951;-0.1087;
691823401930113;-0.0230;-0.0525;-0.1236;
691823412038967;-0.0326;-0.0429;-0.1087;
691823422147822;0.0142;-0.0290;-0.1023;
691823432263655;0.0505;0.0337;-0.0650;
691823442372509;0.0377;0.0348;-0.0437;
691823452481311;0.0728;-0.0418;-0.0170;
691823462561728;0.0760;0.0083;0.0096;
691823472670582;0.0430;0.0774;0.0330;
691823482779436;0.0132;0.0273;0.0501;
691823492919905;0.0142;0.0454;0.0341;
691823503028759;-0.0017;0.1285;0.0543;
691823513137613;-0.0230;0.0156;0.0937;
691823523276051;0.0036;-0.0791;0.1118;
691823533384905;0.0068;-0.0429;0.1097;
691823543493759;-0.0806;-0.0077;0.0607;
691823553587926;-0.1445;0.0379;0.0213;
691823563696780;-0.2574;0.0507;0.0383;
691823573805582;-0.3437;0.0443;0.0639;
691823583899592;-0.2808;0.0795;0.0160;
691823594008447;-0.1679;0.0688;0.0085;
691823604117301;-0.1221;-0.0056;0.0075;
691823614231259;-0.0987;0.0061;-0.0075;
691823624340113;-0.0550;0.0848;-0.0021;
691823634448967;-0.0635;0.0593;0.0490;
691823644558603;-0.0646;-0.0162;0.0373;
691823654667405;-0.0763;0.0273;0.0096;
691823664776259;-0.1051;0.1072;0.0533;
691823674871207;-0.0997;0.0667;0.0735;
691823684980061;-0.0348;-0.0141;0.0948;
691823695088863;-0.1306;0.0230;0.0426;
691823705225009;-0.2254;0.1296;-0.0011;
691823715333863;-0.2989;0.1583;0.0181;
691823725442717;-0.2840;0.0987;0.0479;
691823735544072;-0.1360;0.0550;0.0543;
691823745652926;-0.1061;0.0710;0.0320;
691823755761728;-0.1466;0.0262;0.0309;
691823765861155;-0.1477;-0.0109;0.0138;
691823775970009;-0.1413;0.0518;0.0309;
691823786078863;-0.1530;0.0624;0.0469;
691823796200947;-0.0848;-0.0130;0.0479;
691823806309801;-0.1061;0.1093;-0.0138;
691823816418655;-0.1178;0.1626;0.0075;
691823826530009;-0.0624;0.0784;0.0692;
691823836638863;0.0675;0.0093;0.0788;
691823846747717;0.0835;0.0083;0.0565;
691823856865530;-0.0145;0.0891;0.0256;
691823866974384;-0.0869;0.1029;0.0330;
691823877083238;-0.0411;-0.0194;0.0352;
691823887176988;0.0313;-0.0333;0.0479;
691823897285842;-0.0433;0.0411;0.0597;
691823907394697;-0.1221;-0.0056;0.0586;
691823917512092;-0.0901;-0.0099;0.0405;
691823927620947;-0.1115;0.0008;0.0692;
691823937729801;-0.1317;0.0433;0.0575;
691823947824697;-0.1242;0.1232;0.0639;
691823957933551;-0.0944;0.1285;0.0405;
691823968042353;-0.0795;0.0720;0.0245;
691823978149280;-0.0827;0.0667;0.0170;
691823988258134;-0.1008;0.0933;0.0117;
691823998366988;-0.1157;0.0720;0.0107;
691824008482509;-0.1328;0.0731;-0.0085;
691824018591363;-0.1146;0.1072;-0.0138;
691824028700217;-0.1274;0.0593;-0.0266;
691824038804697;-0.0710;-0.0290;-0.0117;
691824048913551;-0.1775;0.0230;0.0213;
691824059022405;-0.1786;0.0806;-0.0320;
691824069129592;-0.1264;0.0166;-0.0149;
691824079238447;-0.1328;-0.0152;0.0309;
691824089347249;-0.1413;0.0656;0.0447;
691824099444592;-0.1349;0.0901;0.0447;
691824109553447;-0.1157;0.0019;0.0149;
691824119668186;-0.1253;-0.0216;-0.0000;
691824129777040;-0.1381;0.0443;0.0149;
691824139885894;-0.1828;0.0507;0.0341;
691824150009176;-0.1796;-0.0546;0.0213;
691824160118030;-0.1860;-0.0099;0.0181;
691824170226832;-0.2403;0.0316;0.0288;
691824180321884;-0.1956;-0.0471;0.0543;
691824190430738;-0.1679;-0.0652;0.0650;
691824200539540;-0.2095;-0.0237;0.0714;
691824210657509;-0.2052;-0.0226;0.1001;
691824220766363;-0.1189;-0.0162;0.1353;
691824230875217;-0.0635;-0.1909;0.1672;
691824240979905;0.1005;-0.3475;0.1715;
691824251088759;0.1730;-0.4285;0.1619;
691824261197613;-0.1764;-0.3316;0.1672;
691824271310009;-0.6312;-0.1142;0.1374;
691824281418863;-1.0827;0.1008;0.1491;
691824291527665;-1.1391;0.0827;0.1619;
691824301627717;-0.7387;-0.0620;0.0415;
691824311736572;-0.3798;-0.1100;-0.0692;
691824321845426;-0.4351;-0.0152;-0.0682;
691824331946832;-0.5129;-0.0194;-0.0458;
691824342055686;-0.3256;-0.1025;-0.0405;
691824352164540;-0.3405;-0.1036;-0.0671;
691824362299697;-0.4916;0.0072;-0.1257;
691824372408551;-0.7078;0.1019;-0.1087;
691824382517353;-0.6461;-0.0216;-0.0884;
691824392612249;-0.3851;-0.0205;-0.1300;
691824402721051;-0.4075;0.1445;-0.1726;
691824412829905;-0.5779;0.1754;-0.1609;
691824422937509;-0.5449;0.1434;-0.2173;
691824433046363;-0.5001;0.4811;-0.2312;
691824443155217;-0.4937;0.2787;-0.1864;
691824453298551;0.1687;-0.4221;-0.1843;
691824463407405;0.7193;-0.2389;-0.2162;
691824473516259;0.0473;0.1029;-0.2226;
691824483606884;-0.5566;0.0891;-0.1502;
691824493715738;-0.2499;-0.0461;-0.0884;
691824503824592;-0.0166;0.0008;-0.1214;
691824513939644;-0.0316;0.1807;-0.1268;
691824524048499;-0.0688;0.1700;-0.1118;
691824534157353;0.0569;0.0348;-0.1076;
691824544254072;0.1421;0.0369;-0.0916;
691824554362926;0.1826;-0.0269;-0.0639;
691824564471728;0.2612;-0.1760;-0.0415;
691824574570842;0.1623;-0.0525;-0.0628;
691824584679697;-0.1360;0.0923;-0.0309;
691824594788499;-0.1189;0.0040;0.0043;
691824604926936;0.0973;-0.0248;0.0138;
691824615035738;0.0973;0.0507;0.0170;
691824625144540;-0.0081;-0.0397;0.0192;
691824635228655;0.0451;-0.0493;0.0107;
691824645337509;0.0313;-0.0088;0.0224;
691824655446363;0.0611;-0.1111;0.0437;
691824665563915;0.0792;-0.1739;0.0490;
691824675672769;-0.2233;-0.0525;0.0575;
691824685781624;-0.4117;0.0305;0.0298;
691824695887613;-0.4522;-0.0045;0.0064;
691824705996467;-0.3531;-0.0120;-0.0256;
691824716105322;-0.3330;0.0166;-0.0458;
691824726215842;-0.3798;0.0635;-0.0884;
691824736324697;-0.3245;0.1264;-0.1257;
691824746433551;-0.1881;0.0752;-0.1236;
691824756557092;-0.1157;0.0051;-0.1172;
691824766665947;-0.1615;-0.0535;-0.1342;
691824776774801;-0.2126;-0.1377;-0.1747;
691824786870113;-0.2979;-0.0120;-0.2205;
691824796978967;-0.5449;0.1115;-0.2013;
691824807087822;-0.5790;0.0518;-0.1917;
691824817195947;-0.1722;0.0061;-0.2024;
691824827304801;-0.1072;0.0614;-0.2003;
691824837413655;-0.1253;0.0987;-0.1896;
691824847526988;-0.0475;-0.0099;-0.1502;
691824857635842;-0.0348;-0.0663;-0.1300;
691824867744697;-0.0284;-0.0056;-0.1481;
691824877848655;-0.0422;0.0294;-0.1715;
691824887957509;0.0111;0.0115;-0.1640;
691824898066363;0.0356;-0.0269;-0.1129;
691824908188655;0.0451;0.0507;-0.0959;
691824918297509;0.0622;0.1242;-0.0895;
691824928406363;0.1378;0.0923;-0.0842;
691824938514905;0.2411;0.0997;-0.0426;
691824948623759;0.1666;0.1413;-0.0032;
691824958732613;0.0792;0.1253;0.0298;
691824968820947;0.1144;0.0848;0.0501;
691824978929801;0.1357;0.0742;0.0724;
691824989038655;0.0952;0.0699;0.0937;
691824999151415;-0.0752;0.1296;0.1406;
691825009260269;-0.0763;0.1573;0.1683;
691825019369072;-0.0688;0.1072;0.1566;
691825029485322;-0.0667;0.0827;0.1236;
691825039594176;-0.0699;0.0891;0.1097;
691825049702978;-0.1093;0.0742;0.1140;
691825059811155;-0.1498;0.0731;0.1449;
691825069920009;-0.2702;0.0635;0.1023;
691825080028863;-0.3394;0.0061;0.0756;
691825090155478;-0.3744;0.0475;0.0373;
691825100264332;-0.3861;0.1093;0.0224;
691825110373186;-0.3106;0.0177;0.0053;
691825120460947;-0.2212;-0.0407;-0.0309;
691825130569801;-0.1999;-0.0194;-0.0426;
691825140678707;-0.2308;-0.0056;-0.0511;
691825150795165;-0.1562;-0.0748;-0.0213;
691825160904019;-0.1551;-0.1111;-0.0469;
691825171012926;-0.1786;-0.0855;-0.0980;
691825181095322;-0.2723;-0.0003;-0.1055;
691825191204228;-0.2734;0.0220;-0.0969;
691825201313082;-0.0848;-0.0162;-0.0628;
691825211438863;-0.1061;-0.0280;-0.0810;
691825221547769;-0.1189;-0.0439;-0.0735;
691825231656624;-0.1615;-0.0354;-0.0469;
691825241759801;-0.1317;-0.0120;-0.0479;
691825251868655;-0.1466;-0.0631;0.0021;
691825261977561;-0.1764;-0.0695;-0.0000;
691825272129905;-0.1913;0.0072;0.0181;
691825282238811;-0.2095;-0.0152;0.0692;
691825292347665;-0.1924;-0.0407;0.1023;
691825302406884;-0.2116;-0.0099;0.1161;
691825312515738;-0.2276;-0.0109;0.1140;
691825322624592;-0.2393;-0.0056;0.1342;
691825332742926;-0.3043;0.0316;0.1449;
691825342851780;-0.2830;-0.0194;0.1470;
691825352960686;-0.2446;-0.0503;0.1385;
691825363069801;-0.3266;-0.0834;0.1257;
691825373178655;-0.4224;-0.0589;0.1140;
691825383287561;-0.6216;-0.0280;0.0980;
691825393393238;-0.7856;0.0678;0.0863;
691825403502092;-0.7824;-0.0024;0.0479;
691825413610999;-0.6248;-0.0578;0.0138;
691825423730113;-0.7132;0.0497;-0.0128;
691825433838967;-0.9294;0.0923;-0.0138;
691825443947874;-0.7739;0.0497;-0.0458;
691825454072561;-0.5481;0.0083;-0.1182;
691825464181467;-0.5097;0.0507;-0.1619;
691825474290322;-0.6684;0.1615;-0.1854;
691825484381676;-0.6695;0.1487;-0.1640;
691825494490530;-0.4788;0.0731;-0.1864;
691825504599436;-0.3734;0.1338;-0.2589;
691825514711572;-0.4341;0.1498;-0.3047;
691825524820426;-0.3787;0.1200;-0.2887;
691825534929332;-0.3616;0.0497;-0.2738;
691825545045009;-0.3947;0.1242;-0.3015;
691825555153863;-0.3744;0.1562;-0.3270;
691825565262769;-0.3021;0.0284;-0.2876;
691825575366884;-0.2212;0.0061;-0.2961;
691825585475738;-0.3000;0.0806;-0.2897;
691825595584644;-0.3075;0.0348;-0.2951;
691825605639905;-0.1402;-0.0823;-0.3036;
691825615748811;-0.1338;-0.0887;-0.3270;
691825625857665;-0.3510;0.0869;-0.3462;
691825636022092;-0.3415;0.1146;-0.3249;
691825646130947;-0.2276;-0.0194;-0.3366;
691825656239853;-0.1232;0.0284;-0.3728;
691825666346780;-0.0965;0.0731;-0.3654;
691825676455634;-0.0294;-0.1409;-0.3696;
691825686564540;-0.0710;-0.1473;-0.4142;
691825696671155;-0.4085;0.1253;-0.4260;
691825706780009;-0.4479;0.2840;-0.3897;
691825716888915;0.0100;0.1679;-0.3366;
691825727003967;0.4317;-0.0652;-0.3792;
691825737112822;0.5116;-0.0226;-0.3771;
691825747221728;0.2284;0.0912;-0.3547;
691825757329749;0.0941;0.0784;-0.3302;
691825767438603;0.1932;0.0763;-0.3728;
691825777547509;0.2241;0.1445;-0.4015;
691825787661051;0.3486;0.1434;-0.3451;
691825797769905;0.5180;0.0029;-0.3419;
691825807878811;0.5819;-0.0162;-0.3260;
691825817982509;0.3039;0.0944;-0.3004;
691825828091363;0.2220;0.1051;-0.2663;
691825838200269;0.2230;0.1455;-0.2855;
691825848310009;0.2390;0.2467;-0.2908;
691825858418863;0.4722;0.1349;-0.2141;
691825868527769;0.8269;-0.1079;-0.1811;
691825878635842;0.9397;-0.2336;-0.1321;
691825888744697;0.5851;-0.0908;-0.1065;
691825898853603;0.1612;0.0284;-0.0597;
691825908967509;0.1730;-0.0152;-0.0810;
691825919076363;0.2550;-0.0493;-0.0873;
691825929185269;0.2294;-0.0194;-0.0820;
691825939290009;0.2071;-0.0099;-0.0863;
691825949398863;0.2644;-0.0418;-0.0607;
691825959507769;0.2518;-0.0162;-0.0341;
691825969614384;0.2401;-0.0035;-0.0277;
691825979723238;0.2826;-0.0525;-0.0383;
691825989832144;0.2953;-0.0589;-0.0352;
691825999937249;0.2103;-0.0770;-0.0341;
691826010046103;0.2007;-0.1334;-0.0149;
691826020155009;0.1953;-0.0972;-0.0107;
691826030265322;0.1815;-0.0461;-0.0011;
691826040374176;0.2124;-0.0546;0.0053;
691826050483082;0.2007;-0.0535;-0.0181;
691826060576051;0.2241;-0.0429;0.0011;
691826070684957;0.2103;-0.0067;0.0309;
691826080793811;0.2081;0.0305;0.0138;
691826090924072;0.2454;0.0166;-0.0043;
691826101032926;0.2561;-0.0471;0.0256;
691826111141832;0.2262;-0.0599;0.0447;
691826121253915;0.2007;-0.0120;0.0533;
691826131362822;0.2262;-0.0152;0.0469;
691826141471728;0.2379;-0.0535;0.0788;
691826151569592;0.1985;-0.0354;0.1193;
691826161678499;0.1762;0.0177;0.1193;
691826171787405;0.1889;0.0326;0.1395;
691826181918551;0.1847;-0.0003;0.1502;
691826192027509;0.1730;0.0093;0.1427;
691826202136363;0.1730;0.0848;0.1630;
691826212222926;0.2060;0.0710;0.1758;
691826222331832;0.2049;-0.0237;0.1726;
691826232440738;0.1250;-0.0067;0.2003;
691826242534176;0.0888;0.0040;0.2003;
691826252643082;0.0856;-0.0301;0.1939;
691826262751988;0.0366;0.0795;0.2035;
691826272871051;0.0611;0.0699;0.2258;
691826282979957;0.1314;-0.0003;0.2184;
691826293088863;0.0920;0.0326;0.2427;
691826303244280;0.0366;0.0507;0.2608;
691826313353186;0.0952;0.0061;0.2598;
691826323462092;0.0643;-0.0706;0.2321;
691826333523134;0.0089;-0.0972;0.2141;
691826343632040;-0.0337;-0.0365;0.2363;
691826353740947;-0.0454;-0.0429;0.2173;
691826363856676;0.0228;-0.0386;0.2109;
691826373965582;-0.0252;0.0337;0.2216;
691826384074488;-0.0017;0.0188;0.2216;
691826394221676;0.0803;-0.0013;0.2099;
691826404330582;0.0718;0.0104;0.2130;
691826414439488;0.0462;-0.0386;0.1992;
691826424531259;0.0206;-0.1292;0.2173;
691826434640165;-0.0422;-0.1089;0.2545;
691826444749072;-0.1051;-0.0099;0.2640;
691826454847665;-0.0688;-0.0791;0.2216;
691826464956572;-0.0475;-0.0716;0.1885;
691826475065478;-0.1232;0.0571;0.2088;
691826485171832;-0.1178;0.1008;0.2152;
691826495280738;0.0068;0.0731;0.2173;
691826505389644;-0.0017;0.0411;0.2406;
691826515498030;-0.0646;-0.0418;0.2491;
691826525606936;-0.1274;-0.1292;0.2630;
691826535715842;-0.2158;-0.1153;0.2811;
691826545834697;-0.2702;-0.0897;0.2672;
691826555943603;-0.2499;-0.0983;0.2800;
691826566052509;-0.2521;-0.0237;0.2811;
691826576145999;-0.2521;0.0241;0.2981;
691826586254905;-0.2244;-0.0397;0.2608;
691826596363811;-0.2148;-0.0237;0.2438;
691826606492613;-0.2531;0.1029;0.2502;
691826616601519;-0.2659;0.0646;0.2449;
691826626710426;-0.1636;-0.0109;0.2417;
691826636804280;-0.1903;0.0061;0.2406;
691826646913186;-0.2893;0.0115;0.2406;
691826657022092;-0.3128;0.0944;0.2747;
691826667134697;-0.3341;0.1328;0.3056;
691826677243603;-0.2776;0.0241;0.3301;
691826687352509;-0.2286;-0.0067;0.3205;
691826697463447;-0.2776;0.0422;0.3418;
691826707572353;-0.3627;0.0252;0.3684;
691826717681259;-0.3957;-0.0407;0.3301;
691826727787405;-0.4149;0.0326;0.3109;
691826737896311;-0.5161;0.1146;0.2981;
691826748005217;-0.5481;0.0358;0.2832;
691826758116676;-0.5310;-0.0290;0.2502;
691826768225582;-0.6493;0.0273;0.2141;
691826778334488;-0.7995;0.0699;0.2109;
691826788449072;-0.8144;0.0656;0.1896;
691826798557978;-0.7963;0.1274;0.1332;
691826808666884;-0.8378;0.1338;0.1150;
691826818767717;-0.8272;0.0593;0.1023;
691826828876624;-0.7973;0.0720;0.0767;
691826838985530;-0.8580;0.1146;0.0362;
691826849090582;-0.9007;0.0816;0.0032;
691826859199488;-0.8485;0.0593;-0.0277;
691826869308394;-0.8293;0.1040;-0.0724;
691826879430634;-0.8112;0.1466;-0.1278;
691826889539540;-0.7782;0.1157;-0.1427;
691826899648447;-0.6567;0.1360;-0.1747;
691826909755530;-0.5790;0.1839;-0.1832;
691826919864436;-0.5268;0.1253;-0.1896;
691826929973342;-0.5204;0.0784;-0.1875;
691826940086415;-0.5225;0.0656;-0.1928;
691826950195322;-0.5566;0.0529;-0.2088;
691826960304228;-0.5086;0.1402;-0.1896;
691826970398707;-0.4980;0.2020;-0.2439;
691826980507613;-0.4085;0.0827;-0.2386;
691826990616519;-0.3202;0.0220;-0.2578;
691827000731676;-0.3595;0.0752;-0.2610;
691827010840582;-0.4639;0.0806;-0.2535;
691827020949488;-0.3819;0.0072;-0.2439;
691827031049592;-0.3309;0.0933;-0.2620;
691827041158499;-0.3968;0.1253;-0.2599;
691827051267405;-0.3426;0.0944;-0.2503;
691827061363811;-0.2595;0.1498;-0.2003;
691827071472717;-0.2734;0.1615;-0.1864;
691827081581624;-0.2212;0.1264;-0.1949;
691827091707197;-0.2105;0.0379;-0.2226;
691827101816103;-0.2041;-0.0780;-0.2216;
691827111925009;-0.2435;0.0369;-0.2450;
691827122095374;-0.3064;0.2212;-0.2269;
691827132204436;-0.2361;0.1093;-0.2045;
691827142313499;-0.0252;-0.0897;-0.2088;
691827152364801;-0.0379;-0.0866;-0.2258;
691827162473811;-0.1924;-0.1068;-0.1854;
691827172582822;-0.1977;-0.1079;-0.1811;
691827182702457;-0.2712;-0.0397;-0.2109;
691827192811519;-0.3341;0.0987;-0.2493;
691827202920530;-0.3383;0.1956;-0.2908;
691827213013759;-0.2414;0.1477;-0.3047;
691827223122769;-0.0358;0.0880;-0.2929;
691827233231832;0.1389;0.1594;-0.3142;
691827243364228;0.1698;0.1221;-0.2972;
691827253473238;0.2198;0.0104;-0.2802;
691827263582301;0.2220;-0.0237;-0.2397;
691827273664592;0.0941;0.0795;-0.1907;
691827283773603;0.0132;0.0614;-0.1715;
691827293882665;0.1112;0.0019;-0.1566;
691827304014228;0.1261;0.0252;-0.1427;
691827314123290;0.0270;0.0209;-0.1076;
691827324232301;-0.0188;-0.1111;-0.1342;
691827334346051;-0.0252;-0.1047;-0.1832;
691827344455061;-0.1626;0.0125;-0.1822;
691827354564124;-0.1178;0.0688;-0.2173;
691827364660217;-0.0742;0.0539;-0.2503;
691827374769228;-0.0806;0.0827;-0.2652;
691827384878290;-0.0443;0.1029;-0.2567;
691827394986363;-0.0028;0.1477;-0.2258;
691827405095374;0.0366;0.1274;-0.2045;
691827415204436;0.1421;0.0646;-0.2024;
691827425313915;0.2198;0.0518;-0.1651;
691827435422926;0.1698;0.0104;-0.1140;
691827445531988;0.1229;-0.0706;-0.1108;
691827455642822;0.0569;-0.0748;-0.1214;
691827465751832;-0.0188;-0.0610;-0.0948;
691827475860894;-0.0145;-0.0503;-0.1182;
691827485974697;-0.0145;-0.0216;-0.1353;
691827496083707;-0.0326;-0.0397;-0.1300;
691827506192769;0.0100;-0.0663;-0.1055;
691827516310165;0.0345;-0.0237;-0.1108;
691827526419176;0.0313;-0.0642;-0.1193;
691827536528238;0.0015;-0.0951;-0.1108;
691827546628030;-0.0241;0.0083;-0.0959;
691827556737040;0.0334;0.0976;-0.0554;
691827566846103;0.0015;-0.0748;-0.0905;
691827576948967;-0.1008;0.0582;-0.1385;
691827587057978;-0.1668;0.3160;-0.1587;
691827597167040;0.0366;0.1999;-0.1289;
691827607260634;0.4594;-0.0514;-0.1108;
691827617369644;0.6788;-0.1238;-0.1001;
691827627478707;0.1762;-0.1292;-0.0575;
691827637604332;-0.0284;-0.1387;-0.0256;
691827647713342;0.0995;-0.0834;-0.0032;
691827657822405;0.0877;0.0093;0.0288;
691827667928030;0.1080;0.0040;0.0362;
691827678037040;0.1485;-0.1313;0.0597;
691827688146051;0.0622;-0.2325;0.0181;
691827698254592;-0.0007;-0.0003;0.0149;
691827708363603;-0.0060;0.0166;0.0096;
691827718472665;0.0558;-0.4477;-0.0501;
691827728579488;-0.0369;-0.1387;-0.0831;
691827738688499;-0.2276;0.2382;-0.0905;
691827748797561;-0.1615;0.1093;-0.0362;
691827758903342;0.2039;0.0635;-0.0469;
691827769012353;0.2804;0.0997;-0.0288;
691827779121415;0.1346;0.0624;0.0128;
691827789239176;0.0537;0.0550;0.0660;
691827799348186;0.0153;0.0008;0.0522;
691827809457249;0.0068;0.0348;0.0479;
691827819564280;0.0270;0.0933;0.0788;
691827829673290;0.0174;-0.0375;0.0788;
691827839782353;-0.0124;-0.0929;0.0905;
691827849894905;-0.0443;-0.0631;0.0820;
691827860003915;-0.0944;-0.1877;0.0895;
691827870112978;-0.1093;-0.1366;0.0916;
691827880215113;-0.1040;0.0369;0.0778;
691827890324124;-0.0635;-0.0684;0.1055;
691827900433134;-0.0092;-0.0770;0.0916;
691827910542092;-0.0465;0.0593;0.1150;
691827920651103;-0.0688;-0.0035;0.0863;
691827930760165;-0.0667;-0.0333;0.0756;
691827940877509;-0.0422;0.0774;0.0778;
691827950986572;-0.0252;0.0848;0.0735;
691827961095582;-0.0348;0.0742;0.0873;
691827971182509;-0.0305;0.0646;0.1225;
691827981291519;-0.0561;0.0273;0.1310;
691827991400530;-0.0752;-0.0120;0.1417;
691828001505113;-0.0891;-0.1164;0.1832;
691828011614124;-0.1221;-0.1441;0.1811;
691828021723134;-0.0976;-0.0642;0.2003;
691828031835582;-0.1338;-0.0834;0.1885;
691828041944644;-0.1871;-0.0791;0.1726;
691828052053603;-0.2126;0.0104;0.1300;
691828062254384;-0.2158;0.0220;0.1044;
691828072363447;-0.1967;-0.0003;0.0873;
691828082472457;-0.1871;-0.0035;0.0639;
691828092479592;-0.2105;0.0337;0.0639;
691828102588603;-0.2084;0.0923;0.0724;
691828112697665;-0.1232;0.0720;0.0895;
691828122859280;-0.0955;0.0593;0.0969;
691828132968238;-0.1381;0.0763;0.1523;
691828143077249;-0.1562;0.0093;0.1353;
691828153140009;-0.1530;0.0401;0.1449;
691828163248967;-0.1360;0.0646;0.1310;
691828173357926;-0.1541;-0.0099;0.1065;
691828183488238;-0.1658;-0.0301;0.1097;
691828193597197;-0.2350;0.0220;0.1225;
691828203706155;-0.2499;0.0273;0.1257;
691828213813863;-0.1967;0.0646;0.1278;
691828223922822;-0.1935;0.0029;0.1193;
691828234031780;-0.1871;-0.0514;0.1342;
691828244135426;-0.2031;0.0136;0.1672;
691828254244384;-0.2318;0.0188;0.1672;
691828264353342;-0.2297;-0.0770;0.1694;
691828274454488;-0.2670;-0.0695;0.1651;
691828284563447;-0.3128;-0.0557;0.1363;
691828294672405;-0.3202;-0.0972;0.1310;
691828304780947;-0.3702;-0.0993;0.1342;
691828314889905;-0.4426;-0.0823;0.1321;
691828324998863;-0.4479;-0.0205;0.1332;
691828335111259;-0.4149;0.0136;0.1193;
691828345220217;-0.4053;-0.0237;0.1087;
691828355329228;-0.4160;-0.0418;0.1150;
691828365459280;-0.4405;0.0486;0.0959;
691828375568238;-0.5108;0.2276;0.0863;
691828385677197;-0.5353;0.2798;0.0831;
691828395775738;-0.4011;0.1125;0.0565;
691828405884697;-0.3021;0.0348;0.0426;
691828415993655;-0.4383;0.1615;0.0245;
691828426097405;-0.4937;0.1786;0.0458;
691828436206363;-0.5300;0.1743;0.0032;
691828446315322;-0.3979;0.2297;0.0671;
691828456424072;-0.3341;0.1115;0.0863;
691828466533030;-0.3277;0.1029;0.0522;
691828476641988;-0.3947;0.0774;-0.0394;
691828486753967;-0.3947;-0.0493;-0.0128;
691828496862926;-0.3936;-0.1835;-0.0266;
691828506971884;-0.4202;-0.2059;-0.0948;
691828517083967;-0.4256;-0.0216;-0.1257;
691828527192926;-0.4458;0.1328;-0.1182;
691828537301884;-0.4437;0.0806;-0.1108;
691828547413447;-0.2904;0.1232;-0.1033;
691828557522405;-0.3149;0.1029;-0.1087;
691828567631363;-0.2904;-0.0130;-0.1609;
691828577735113;-0.2542;-0.0269;-0.1694;
691828587844072;-0.2819;-0.0706;-0.1598;
691828597953030;-0.2872;-0.0589;-0.1055;
691828608054697;-0.2659;0.0348;-0.0905;
691828618163655;-0.2734;-0.0141;-0.0842;
691828628272613;-0.2457;-0.0205;-0.0639;
691828638386572;-0.2702;-0.0695;-0.0586;
691828648495530;-0.2776;-0.1952;-0.0810;
691828658604488;-0.3075;-0.1739;-0.1023;
691828668715530;-0.3170;-0.2037;-0.0788;
691828678824488;-0.3458;-0.1877;-0.0778;
691828688933447;-0.4213;0.1338;-0.1534;
691828699035582;-0.6120;0.4076;-0.2130;
691828709144540;-0.7313;0.3458;-0.1864;
691828719253499;-0.3904;0.2265;-0.2141;
691828729370322;-0.0166;0.2095;-0.3057;
691828739479280;0.1399;0.1775;-0.3047;
691828749588238;0.0526;0.2893;-0.2620;
691828759691884;-0.1232;0.3810;-0.2035;
691828769800842;-0.1232;0.2574;-0.1736;
691828779909853;-0.0177;0.1818;-0.1545;
691828790022092;-0.1115;0.2244;-0.1694;
691828800131051;-0.2350;0.0582;-0.1481;
691828810240009;-0.2126;-0.1441;-0.1587;
691828820318655;-0.1786;-0.1611;-0.2269;
691828830427613;-0.2308;-0.1015;-0.2674;
691828840536572;-0.2403;-0.0461;-0.2748;
691828850677509;-0.2095;-0.0823;-0.2535;
691828860786467;-0.1935;0.0241;-0.2802;
691828870895426;-0.1477;0.1754;-0.2812;
691828881002197;-0.0507;0.1040;-0.2397;
691828891111155;0.1666;0.0465;-0.2003;
691828901220113;0.1602;0.1125;-0.2184;
691828911325582;0.0505;0.0987;-0.1694;
691828921434540;0.0622;0.0710;-0.1491;
691828931543499;0.1037;0.0518;-0.1417;
691828941675738;0.0728;0.0156;-0.1332;
691828951784697;0.0004;-0.0322;-0.1065;
691828961893707;-0.0497;-0.0109;-0.1055;
691828971975999;-0.0550;0.0029;-0.1001;
691828982085009;-0.0827;-0.1004;-0.0916;
691828992193915;-0.0923;-0.0620;-0.0937;
691829002301155;-0.1200;0.0390;-0.1204;
691829012410113;-0.1434;0.0115;-0.1310;
691829022519072;-0.0987;0.0166;-0.1214;
691829032687717;-0.1189;0.0029;-0.1481;
691829042796728;-0.1306;-0.0237;-0.1822;
691829052905686;-0.1285;0.0166;-0.1790;
691829062949801;-0.1541;0.0486;-0.1971;
691829073058759;-0.1019;0.1008;-0.1981;
691829083167717;-0.0742;0.0742;-0.1875;
691829093297301;-0.0624;0.0040;-0.1885;
691829103406311;-0.0624;0.0358;-0.2056;
691829113515217;-0.0827;-0.0088;-0.2269;
691829123619332;-0.0497;-0.0855;-0.1971;
691829133728238;-0.0241;-0.0184;-0.2301;
691829143837144;-0.0593;-0.0344;-0.2301;
691829153930426;-0.0848;-0.0887;-0.2375;
691829164039332;-0.0284;-0.0897;-0.2258;
691829174148238;-0.0518;-0.1004;-0.2344;
691829184282613;-0.0358;-0.1483;-0.2184;
691829194391519;-0.0390;-0.1473;-0.2237;
691829204500426;0.0068;-0.0493;-0.2088;
691829214604176;-0.0624;-0.2240;-0.2354;
691829224713082;-0.1732;-0.0791;-0.2535;
691829234821988;-0.4469;0.3117;-0.3334;
691829244923759;-0.7451;0.3309;-0.3196;
691829255032665;-0.4522;0.0987;-0.3047;
691829265141572;0.1644;-0.0024;-0.3600;
691829275256884;0.3316;0.1072;-0.3728;
691829285365790;0.1826;0.1690;-0.3387;
691829295474697;0.1122;0.0806;-0.2759;
691829305590009;0.3337;0.0454;-0.2365;
691829315698915;0.4029;0.0539;-0.2407;
691829325807822;0.1005;0.0305;-0.2535;
691829335914905;-0.0582;0.3245;-0.2120;
691829346023811;0.1048;0.0955;-0.1939;
691829356132717;0.3859;-0.3582;-0.1854;
691829366237249;0.4061;-0.1302;-0.2035;
691829376346155;0.0079;0.0337;-0.1779;
691829386455061;-0.0103;-0.1654;-0.1502;
691829396563342;0.2071;-0.1750;-0.1300;
691829406672249;0.1687;-0.0674;-0.1214;
691829416781155;0.1421;-0.1228;-0.0969;
691829426895217;0.1815;-0.1036;-0.1150;
691829437004124;0.1080;0.0072;-0.0969;
691829447113030;0.1410;-0.0067;-0.0724;
691829457215947;0.2857;-0.1057;-0.0810;
691829467324853;0.3358;-0.1100;-0.0724;
691829477433759;0.2177;-0.0162;-0.0543;
691829487540009;0.1485;-0.1047;-0.0075;
691829497648915;0.1708;-0.1846;0.0011;
691829507757822;0.1112;0.0166;0.0107;
691829517872301;0.1517;0.0699;0.0437;
691829527981207;0.1410;-0.0972;0.0160;
691829538090113;0.1218;-0.0322;0.0213;
691829548196676;0.0984;-0.0109;0.0405;
691829558305582;0.0483;-0.1313;0.0426;
691829568414488;-0.0475;-0.0652;0.0043;
691829578515530;-0.1796;0.0582;-0.0298;
691829588624436;-0.2382;0.0316;-0.0266;
691829598733342;-0.2723;0.0475;-0.0490;
691829608862405;-0.2510;0.1754;-0.0735;
691829618971311;-0.1722;0.2329;-0.0607;
691829629080217;-0.0273;0.0869;-0.0756;
691829639171988;0.0579;-0.0162;-0.1300;
691829649280894;0.1197;0.0188;-0.1310;
691829659389801;0.1463;-0.0589;-0.0873;
691829669506572;0.1325;-0.1441;-0.0991;
691829679615478;-0.0241;-0.0642;-0.1044;
691829689724384;-0.1977;0.0550;-0.0671;
691829699827092;-0.2052;0.0125;-0.0405;
691829709935999;-0.0188;-0.0983;-0.0447;
691829720044905;0.0579;-0.0770;-0.0288;
691829730153863;0.0505;-0.1047;-0.0234;
691829740262769;0.0430;-0.1601;-0.0213;
691829750371676;-0.0262;-0.0429;-0.0873;
691829760484905;0.0441;0.0529;-0.0831;
691829770593811;0.1240;-0.0130;-0.0266;
691829780702717;0.1858;-0.0578;-0.0628;
691829790805738;0.1304;0.0529;-0.1012;
691829800914644;0.0654;0.1125;-0.0554;
691829811023551;0.2454;-0.0546;0.0160;
691829821138707;0.6522;-0.3188;0.0352;
691829831247561;1.0068;-0.3859;0.1065;
691829841356467;0.9940;-0.2698;0.1683;
691829851459072;0.7949;-0.2559;0.2248;
691829861567978;0.3294;-0.6233;0.1065;
691829871676884;-1.8921;0.1775;0.0075;
691829881782613;-4.8027;1.5397;-0.0043;
691829891891519;-4.5131;1.1691;-0.2429;
691829902000426;-1.2776;-0.3124;-0.6614;
691829912141884;1.2742;-0.2698;-0.9682;
691829922250790;1.4329;0.0051;-0.8457;
691829932359697;0.5244;-0.3134;-0.6113;
691829942448655;0.2772;-0.2357;-0.4622;
691829952557509;0.0281;0.4033;-0.5378;
691829962666467;-0.4788;0.6057;-0.6017;
691829972834801;-0.3170;0.1434;-0.5634;
691829982943707;0.4988;0.1146;-0.5815;
691829993052613;1.1282;0.8282;-0.5580;
691830003103967;1.8301;-0.8832;-0.3174;
691830013212874;2.5245;-1.8821;-0.2429;
691830023321780;1.6298;-0.1601;-0.1843;
691830033431676;-0.2595;0.6089;-0.1545;
691830043540582;-0.3351;-0.0780;0.0501;
691830053649488;1.0877;-0.2783;0.1140;
691830063748551;1.4020;0.1125;0.0991;
691830073857457;1.3807;0.2116;0.2269;
691830083966363;1.6085;-0.0642;0.3461;
691830094091988;1.2720;-0.0599;0.4590;
691830104200894;0.6149;0.2467;0.5431;
691830114309801;0.6011;0.0742;0.5943;
691830124391884;0.5446;-0.1952;0.6209;
691830134500790;0.2007;0.0582;0.6017;
691830144609644;0.1911;0.1668;0.6305;
691830154731259;0.3688;-0.0567;0.6923;
691830164840113;0.1591;0.0955;0.7210;
691830174949019;0.0025;0.2925;0.7402;
691830185059697;0.0984;0.1605;0.7221;
691830195168603;-0.0369;0.1828;0.6656;
691830205277457;-0.2499;0.2893;0.6603;
691830215389280;-0.3798;0.0997;0.6401;
691830225498186;-0.5672;0.0104;0.5410;
691830235607040;-0.9943;0.1146;0.4941;
691830245722301;-1.2073;0.0720;0.4089;
691830255831207;-1.1413;0.0411;0.2736;
691830265940061;-1.1381;0.1083;0.1545;
691830276045947;-1.1402;0.0742;0.0948;
691830286154853;-0.9698;0.0125;0.0234;
691830296263707;-0.7739;-0.0610;-0.0575;
691830306374801;-0.6631;-0.0674;-0.1566;
691830316483707;-0.4692;0.0678;-0.1577;
691830326592561;-0.2105;0.0678;-0.1374;
691830336697092;-0.0710;-0.0972;-0.1609;
691830346805999;0.1314;-0.0067;-0.1470;
691830356914853;0.2103;0.1136;-0.0959;
691830367032092;0.2602;-0.0471;-0.0746;
691830377140999;0.4242;-0.0375;-0.0586;
691830387249853;0.5052;0.1551;0.0149;
691830397356363;0.4732;0.1306;0.0948;
691830407465269;0.5158;0.0220;0.1534;
691830417574124;0.5244;0.1029;0.1651;
691830427684801;0.4583;0.2254;0.2194;
691830437793707;0.3784;0.1413;0.3088;
691830447902561;0.2433;0.0125;0.3354;
691830458009176;0.0185;0.0401;0.3418;
691830468118082;-0.0869;0.1104;0.3557;
691830478226936;-0.2446;0.0688;0.3802;
691830488331988;-0.5140;0.0156;0.3844;
691830498440894;-0.6397;0.0997;0.3450;
691830508549801;-0.7110;0.1615;0.3333;
691830518659749;-0.7867;0.0497;0.2960;
691830528768655;-0.8751;-0.0589;0.2067;
691830538877509;-1.0688;0.1509;0.1342;
691830548986572;-1.0518;0.2116;0.1087;
691830559095478;-0.8037;-0.0035;0.0383;
691830569204332;-0.8112;0.0369;-0.0426;
691830579324176;-0.9602;0.2052;-0.0927;
691830589433082;-0.7110;0.0774;-0.0852;
691830599541936;-0.4405;-0.0045;-0.1310;
691830609651415;-0.4213;0.1306;-0.1704;
691830619760322;-0.3521;0.1605;-0.1374;
691830629869176;-0.1850;0.0891;-0.1140;
691830639962613;0.0174;-0.0109;-0.1268;
691830650071519;-0.0060;0.0752;-0.1577;
691830660180426;-0.0007;0.2435;-0.0969;
691830670292822;0.2847;0.0422;-0.0575;
691830680401728;0.4466;-0.0812;-0.0788;
691830690510582;0.1389;0.2126;-0.0298;
691830700630947;0.1506;0.2989;0.0288;
691830710739853;1.0728;-0.1782;0.1491;
691830720848759;1.8045;-0.7852;0.1768;
691830730945322;0.6319;-0.1696;0.2013;
691830741054228;-1.5247;0.6322;0.3120;
691830751163082;-1.5631;0.3831;0.3567;
691830761263499;-0.0912;-0.0876;0.1822;
691830771372405;0.0494;0.1338;0.0383;
691830781481259;-0.1743;0.2350;0.0948;
691830791596676;0.3561;-0.2932;0.1971;
691830801705582;0.8098;-0.4530;0.1640;
691830811814436;0.2230;-0.0194;0.1406;
691830821949384;-0.4852;-0.0162;0.1747;
691830832058290;-0.4660;-0.3859;0.1278;
691830842167197;-0.9326;-0.1174;0.0075;
691830852251936;-2.1062;0.9507;-0.0426;
691830862360842;-2.2744;1.0945;-0.0543;
691830872469697;0.1346;-0.8054;-0.1332;
691830882599384;1.6735;-1.0313;-0.3632;
691830892708290;0.2401;-0.0450;-0.2929;
691830902817197;-0.5768;-0.0887;-0.1300;
691830912912092;-0.1711;-0.4296;-0.1715;
691830923020999;-0.4117;-0.1398;-0.2823;
691830933129853;-1.0220;0.3117;-0.3292;
691830943275634;-0.7877;0.2052;-0.2791;
691830953384540;-0.0017;-0.1675;-0.3036;
691830963493394;0.1304;0.0125;-0.3302;
691830973558342;-0.1541;0.3373;-0.3068;
691830983667249;0.1165;-0.1260;-0.2535;
691830993776103;0.4860;-0.3795;-0.2663;
691831003905947;-0.0656;0.1945;-0.3025;
691831014014853;-0.3979;0.3288;-0.2375;
691831024123759;0.0537;-0.0919;-0.2141;
691831034217092;0.1069;0.0019;-0.2631;
691831044325999;-0.1913;0.2457;-0.2546;
691831054434853;-0.0965;0.1541;-0.2067;
691831064547405;0.0089;0.0976;-0.2237;
691831074656311;-0.0262;0.1455;-0.2322;
691831084765165;-0.0507;0.1658;-0.1864;
691831094878967;0.0569;0.1104;-0.1438;
691831104987874;0.2507;-0.0535;-0.1332;
691831115096728;0.2379;-0.0802;-0.1257;
691831125203499;-0.0379;0.0699;-0.1193;
691831135312457;-0.0103;-0.0248;-0.0873;
691831145421415;0.1240;-0.1377;-0.0820;
691831155517092;-0.0667;0.0379;-0.1001;
691831165626051;-0.2510;0.0136;-0.0330;
691831175735009;-0.2872;0.2148;0.0352;
691831185862509;0.3965;0.1594;-0.1523;
691831195971467;1.0877;-0.3422;-0.0842;
691831206080426;0.8290;-0.3230;0.0192;
691831216179592;0.0281;0.0379;0.0959;
691831226288551;-0.0731;0.0273;0.1374;
691831236397509;0.1389;-0.1089;0.0969;
691831246509280;-0.0156;0.0763;0.0256;
691831256618238;-0.0092;0.1668;0.0724;
691831266727197;0.2422;-0.1313;0.1523;
691831276838447;0.4349;-0.2016;0.1172;
691831286947405;0.3145;-0.0482;0.1129;
691831297056363;0.1644;-0.1164;0.1630;
691831307168030;0.1346;-0.1931;0.1875;
691831317276988;0.0111;-0.1345;0.2077;
691831327385947;-0.0944;-0.2197;0.2141;
691831337495582;-0.1850;-0.0951;0.1758;
691831347604540;-0.4192;0.1146;0.1694;
691831357713499;-0.2457;0.0072;0.1491;
691831367827405;0.0430;-0.1462;0.1001;
691831377936363;-0.0742;-0.0589;0.0618;
691831388045322;-0.1807;-0.0013;0.0703;
691831398148030;-0.1775;-0.0834;0.0575;
691831408256988;-0.1509;-0.2794;0.0202;
691831418365947;-0.6173;-0.2069;-0.0213;
691831428472301;-1.3959;0.1775;-0.0618;
691831438581259;-1.7632;0.3703;-0.0980;
691831448690217;-1.4331;0.2798;-0.1917;
691831458805738;-0.7771;0.1189;-0.2940;
691831468914697;-0.2691;-0.0301;-0.3409;
691831479023655;-0.2361;0.0040;-0.3707;
691831489114905;-0.3458;0.1455;-0.3675;
691831499223863;-0.3245;0.1583;-0.4036;
691831509332822;-0.2478;0.1530;-0.4079;
691831519460113;-0.2265;0.1818;-0.3961;
691831529569072;-0.1850;0.2190;-0.4079;
691831539678030;-0.0081;0.2031;-0.4238;
691831549776780;0.1953;0.2201;-0.4121;
691831559885738;0.3007;0.3330;-0.3611;
691831569994697;0.6895;0.0603;-0.2759;
691831580103863;1.2401;-0.2208;-0.2173;
691831590212822;1.1474;-0.1856;-0.1534;
691831600321780;0.7321;-0.0525;-0.0650;
691831610450113;0.4381;-0.0035;0.0149;
691831620559072;0.3145;-0.0205;0.0107;
691831630668030;0.3443;0.0337;0.0064;
691831640757822;0.2465;0.0710;0.0224;
691831650866780;0.2486;0.0188;0.0234;
691831660975738;0.1314;0.0379;0.0043;
691831671091051;0.0313;0.1807;-0.0256;
691831681200009;0.1357;0.1477;-0.0224;
691831691308967;0.2262;0.0593;-0.0117;
691831701414801;0.2550;0.0593;-0.0256;
691831711523759;0.2486;-0.0471;0.0043;
691831721632717;0.2284;-0.1675;0.0117;
691831731737926;-0.0071;-0.0088;0.0330;
691831741846884;-0.1349;0.1381;0.0277;
691831751955842;0.0270;0.0912;0.0096;
691831762086415;0.1719;0.0859;0.0170;
691831772195374;0.1304;0.1093;0.0362;
691831782304332;0.2284;0.0188;0.0096;
691831792400061;0.3198;-0.0620;0.0170;
691831802508967;0.4402;-0.1601;0.0458;
691831812617926;0.4551;-0.2762;0.0767;
691831822745634;0.1378;-0.2421;0.0969;
691831832854592;-0.0806;-0.1249;0.1161;
691831842963551;-0.2105;-0.0503;0.1342;
691831853055217;-0.2286;0.0539;0.1353;
691831863164176;-0.0518;0.1296;0.1236;
691831873273134;0.2039;0.0742;0.0991;
691831883365426;0.3049;-0.0162;0.1087;
691831893474384;0.2262;-0.0141;0.1587;
691831903583342;0.1495;-0.0461;0.1885;
691831913717092;0.1762;-0.1260;0.1992;
691831923826051;0.0664;-0.1409;0.2024;
691831933935009;-0.0838;-0.0897;0.1896;
691831944034280;-0.3627;-0.0312;0.2088;
691831954143238;-0.5182;0.0593;0.2035;
691831964252197;-0.4202;0.0901;0.1885;
691831974356415;-0.1040;-0.0301;0.1960;
691831984465374;0.0856;-0.1526;0.1917;
691831994574332;-0.0699;-0.1505;0.1875;
691832004699801;-0.2840;-0.0716;0.1310;
691832014808759;-0.4692;-0.0205;0.1055;
691832024917717;-0.5108;0.0273;0.0799;
691832035013499;-0.4703;0.0390;0.0415;
691832045122457;-0.3405;-0.0418;-0.0011;
691832055231415;-0.2276;-0.0908;-0.0437;
691832065335999;-0.3149;-0.0269;-0.0501;
691832075444957;-0.4778;0.0699;-0.0224;
691832085553915;-0.3531;0.0294;-0.0213;
691832095666832;-0.2158;-0.0344;-0.0266;
691832105775790;-0.3234;0.0326;-0.0160;
691832115884749;-0.3734;0.0795;-0.0437;
691832125989801;-0.2925;0.0710;-0.0767;
691832136098759;-0.2947;0.1530;-0.1140;
691832146207717;-0.2755;0.2222;-0.1023;
691832156335217;-0.0049;0.0806;-0.0799;
691832166444176;0.2422;-0.0684;-0.0650;
691832176553134;0.2433;-0.1313;-0.0756;
691832186650426;-0.0305;-0.0866;-0.0362;
691832196759384;-0.2052;0.0008;-0.0085;
691832206868342;-0.1008;0.0209;-0.0277;
691832216972926;-0.1296;0.0220;-0.0266;
691832227081884;-0.1051;0.0008;-0.0447;
691832237190842;-0.0646;-0.0301;-0.0128;
691832247300322;-0.0507;-0.0375;-0.0298;
691832257409280;0.0419;-0.1132;-0.0234;
691832267518238;-0.0177;-0.2133;-0.0607;
691832277627249;-0.1892;-0.1057;-0.0820;
691832287736207;-0.2808;-0.0056;-0.0692;
691832297845165;-0.2925;-0.0301;-0.0852;
691832307959072;-0.1999;-0.0269;-0.1811;
691832318068030;-0.2393;0.0497;-0.1885;
691832328176988;-0.2840;0.1253;-0.1928;
691832338279592;-0.1136;0.0720;-0.2035;
691832348388551;-0.0667;0.0083;-0.2205;
691832358497509;-0.1019;0.0550;-0.2077;
691832368622926;-0.0699;0.0731;-0.2099;
691832378731884;-0.0593;0.0029;-0.1992;
691832388840842;-0.0103;-0.0589;-0.2056;
691832398942405;-0.0976;-0.0312;-0.2365;
691832409051363;-0.1477;0.0742;-0.2546;
691832419160322;-0.0678;0.0976;-0.2216;
691832429269280;-0.0134;0.0678;-0.2194;
691832439378238;0.1144;0.0230;-0.2503;
691832449487197;0.0973;0.0093;-0.2386;
691832459583082;0.0569;0.0443;-0.2056;
691832469692040;0.0782;0.0390;-0.1992;
691832479800999;0.0356;0.0656;-0.2088;
691832489912613;0.0036;0.0838;-0.1885;
691832500021572;0.1655;0.0136;-0.1555;
691832510130530;0.3539;-0.0003;-0.1150;
691832520251467;0.4434;-0.0141;-0.0873;
691832530360426;0.4317;-0.0333;-0.0533;
691832540469384;0.3337;0.0209;-0.0628;
691832550579801;0.1708;0.0763;-0.0458;
691832560688759;0.0611;0.0912;-0.0309;
691832570797717;0.1154;0.0678;-0.0469;
691832580904072;0.2230;0.0220;-0.0575;
691832591013030;0.2273;0.0241;-0.0426;
691832601121988;0.2017;-0.0067;-0.0437;
691832611244801;0.2262;-0.0493;-0.0277;
691832621353759;0.1794;-0.0258;-0.0107;
691832631462717;0.1005;0.0230;-0.0053;
691832641545530;0.1336;-0.0354;0.0064;
691832651654488;0.1559;-0.0130;0.0224;
691832661763447;0.1836;-0.0301;0.0234;
691832671873447;0.2113;-0.1132;-0.0075;
691832681982405;0.0846;-0.0003;-0.0415;
691832692091363;0.0356;0.0678;-0.0096;
691832702232509;0.1794;-0.0471;-0.0107;
691832712341467;0.2507;-0.0908;-0.0394;
691832722450426;0.2943;-0.0589;-0.0266;
691832732511467;0.3475;-0.1941;-0.0181;
691832742620426;0.1804;-0.1664;-0.0128;
691832752729384;-0.2840;0.1029;-0.0437;
691832762855894;-0.5630;0.2318;-0.0362;
691832772964853;-0.2585;0.1200;0.0032;
691832783073811;0.2751;0.0008;-0.0021;
691832793186467;0.4178;-0.0280;0.0138;
691832803295426;0.3763;-0.0535;0.0256;
691832813404384;0.2124;-0.0983;-0.0138;
691832823518030;-0.0411;0.0454;-0.0011;
691832833626988;-0.1093;0.1487;0.0213;
691832843735947;0.1059;0.0188;0.0245;
691832853888238;0.1975;-0.0834;0.0032;
691832863997144;0.0718;0.0146;0.0075;
691832874106103;0.0505;0.0326;0.0405;
691832884215061;0.0920;-0.0482;0.0288;
691832894328342;-0.0784;0.1455;0.0160;
691832904437301;-0.1413;0.2212;0.0628;
691832914546259;0.2433;-0.0812;0.0916;
691832924599592;0.4679;-0.2133;0.0959;
691832934708551;0.3156;-0.0951;0.1044;
691832944817509;0.0558;-0.0695;0.0959;
691832954907144;0.0249;-0.0961;0.0820;
691832965016103;0.0047;-0.0205;0.0831;
691832975125061;0.0771;0.0507;0.0778;
691832985256676;0.1836;-0.0535;0.0788;
691832995365634;0.1112;-0.1760;0.0202;
691833005474592;-0.0071;-0.0471;0.0277;
691833015585426;-0.1477;0.1008;0.0266;
691833025694384;-0.0262;0.0486;0.0415;
691833035803342;0.1250;0.0008;0.0256;
691833045914280;0.1495;0.0720;0.0245;
691833056023238;0.1911;-0.0471;0.0405;
691833066132197;0.1943;-0.1750;0.0628;
691833076242613;0.0302;-0.0951;0.0682;
691833086351572;0.0025;0.0166;0.0597;
691833096460530;0.0015;0.0294;0.0373;
691833106585738;0.0537;0.0443;0.0138;
691833116694697;0.0696;0.0284;0.0181;
691833126803655;0.0622;0.0529;0.0256;
691833136892509;0.0387;0.1125;-0.0043;
691833147001467;0.0238;0.1658;-0.0107;
691833157110426;0.1112;0.2308;-0.0107;
691833167236832;0.2411;0.1146;0.0138;
691833177345790;0.4328;-0.1707;0.0298;
691833187454749;0.2644;-0.1739;0.0213;
691833197545426;-0.0603;0.0083;0.0426;
691833207654384;-0.0976;-0.0013;0.0692;
691833217763342;0.0334;-0.0589;0.0927;
691833227885530;0.0387;0.0358;0.1055;
691833237994488;-0.0177;0.0912;0.1076;
691833248103447;0.0569;0.0083;0.1118;
691833258210426;0.0334;-0.0770;0.1172;
691833268319384;0.0164;0.0348;0.1172;
691833278428342;-0.0294;0.0688;0.1044;
691833288505426;0.0345;-0.0344;0.1012;
691833298614436;0.0260;-0.0546;0.0905;
691833308723394;0.0270;-0.0226;0.0991;
691833318871363;0.0356;-0.0929;0.1289;
691833328980322;0.0217;-0.0333;0.1055;
691833339089280;-0.0071;0.0784;0.1087;
691833349196363;0.0707;0.0465;0.1289;
691833359305322;0.1005;-0.0237;0.1491;
691833369414280;0.0419;0.0198;0.1523;
691833379527509;0.0228;0.0891;0.1310;
691833389636467;0.0537;0.0539;0.1736;
691833399745478;0.0579;-0.0141;0.1822;
691833409848342;0.0345;0.0326;0.1491;
691833419957301;0.0068;0.0891;0.1395;
691833430066259;0.0430;0.0008;0.1609;
691833440173447;0.0036;-0.0503;0.1758;
691833450282405;-0.0923;-0.0333;0.1790;
691833460391415;-0.1743;-0.0184;0.1417;
691833470507613;-0.2563;0.0678;0.1481;
691833480616572;-0.2521;0.0795;0.1406;
691833490725530;-0.0955;-0.0301;0.1300;
691833500827822;-0.0720;-0.0077;0.1246;
691833510936780;-0.2361;0.1019;0.1129;
691833521045738;-0.2158;0.0731;0.1204;
691833531147717;-0.1349;-0.0013;0.1150;
691833541256676;-0.2563;0.1455;0.0575;
691833551365634;-0.2435;0.2680;0.0394;
691833561476051;0.0004;0.0550;0.0597;
691833571585009;0.0260;-0.1664;0.0501;
691833581693967;-0.2169;-0.1888;0.0490;
691833591791259;-0.4256;-0.0844;0.0522;
691833601900269;-0.4767;-0.0173;0.0703;
691833612009176;-0.3213;-0.0386;0.0426;
691833622173134;-0.2616;-0.0205;-0.0021;
691833632282144;-0.3320;0.0273;-0.0075;
691833642391103;-0.4256;0.1296;-0.0160;
691833652449697;-0.3872;0.2425;-0.0288;
691833662558655;-0.0774;0.0061;-0.0277;
691833672667613;-0.0060;-0.2549;-0.0810;
691833682838447;-0.3521;0.0104;-0.1140;
691833692947405;-0.5065;0.0401;-0.1001;
691833703056415;-0.1711;-0.1909;-0.1225;
691833713114644;-0.1786;0.0061;-0.1321;
691833723223603;-0.3075;0.2435;-0.1108;
691833733332561;-0.1381;0.1818;-0.0927;
691833743457509;0.1676;-0.0333;-0.0895;
691833753566467;0.2113;-0.1004;-0.0703;
691833763675426;-0.0390;0.0104;-0.0447;
691833773767926;-0.1178;0.0061;-0.0437;
691833783876884;-0.0134;-0.1153;-0.0437;
691833793985842;-0.0624;-0.1409;-0.0415;
691833804111363;-0.1892;-0.1686;-0.0288;
691833814220322;-0.1338;0.0955;-0.0554;
691833824329332;-0.1615;0.4694;-0.0522;
691833834427926;0.0270;-0.2197;-0.0288;
691833844536884;0.4573;-0.3806;-0.0692;
691833854645842;-0.0379;0.1668;-0.0447;
691833864764801;-0.4000;0.1668;0.0245;
691833874873759;0.0547;-0.0770;0.0309;
691833884982717;0.1495;-0.0525;0.0181;
691833895076988;-0.1136;0.1210;0.0032;
691833905185947;-0.0912;0.1477;0.0149;
691833915294905;0.0441;-0.0216;0.0181;
691833925408134;0.0387;-0.0130;0.0330;
691833935517092;-0.1391;0.1328;0.0160;
691833945626051;-0.0348;0.0177;0.0256;
691833955744801;-0.0220;-0.0844;0.0011;
691833965853759;-0.1168;0.0284;0.0181;
691833975962769;-0.0742;-0.0461;0.0277;
691833986055217;-0.1008;-0.1590;0.0266;
691833996164176;-0.1743;-0.0013;-0.0064;
691834006273134;-0.2180;0.0401;0.0085;
691834016386988;-0.1157;-0.0344;0.0053;
691834026495947;-0.1093;-0.0493;-0.0234;
691834036604905;-0.1988;-0.0226;-0.0426;
691834046708759;-0.2180;0.0146;-0.0447;
691834056817717;-0.2169;0.0061;-0.0788;
691834066926676;-0.1999;-0.0099;-0.1097;
691834077036415;-0.2361;0.0019;-0.1502;
691834087145374;-0.2499;0.0294;-0.1736;
691834097254332;-0.2446;0.0273;-0.1491;
691834107377613;-0.2073;0.0241;-0.1459;
691834117486572;-0.1881;0.0465;-0.1449;
691834127595530;-0.1850;0.0433;-0.1672;
691834137690113;-0.1168;-0.0056;-0.1577;
691834147799124;-0.1061;0.0401;-0.1236;
691834157908082;-0.1178;0.0262;-0.1182;
691834168027509;-0.1391;-0.0855;-0.1534;
691834178136519;-0.1711;-0.0780;-0.1779;
691834188245478;-0.1690;-0.0557;-0.1438;
691834198345582;-0.1402;-0.0748;-0.1768;
691834208454592;-0.1178;0.0051;-0.2120;
691834218563551;-0.1093;0.0422;-0.2056;
691834228683030;-0.0614;0.0177;-0.1949;
691834238792040;-0.0635;-0.0056;-0.1949;
691834248900999;0.0089;-0.0578;-0.1854;
691834259007197;0.0324;-0.0375;-0.1715;
691834269116207;-0.0071;-0.0194;-0.1577;
691834279225165;0.0324;-0.0461;-0.1630;
691834289316155;0.0664;-0.0493;-0.1843;
691834299425165;0.0419;0.0177;-0.1640;
691834309534124;-0.0124;0.0337;-0.1513;
691834319660322;0.0537;-0.0216;-0.1555;
691834329769332;0.0601;-0.0162;-0.1949;
691834339878290;0.0292;0.0710;-0.2013;
691834349990217;0.0132;-0.0152;-0.1598;
691834360099228;0.0281;-0.0109;-0.1779;
691834370208186;0.0089;0.0912;-0.1768;
691834380321988;0.0036;0.0614;-0.1758;
691834390430947;0.0760;0.0571;-0.1609;
691834400539957;0.0696;0.0348;-0.1704;
691834410640738;0.1218;-0.0269;-0.1917;
691834420749697;0.1101;0.0136;-0.2205;
691834430858707;0.0249;0.0262;-0.2205;
691834440969592;0.1112;-0.0546;-0.1981;
691834451078551;0.1698;-0.0375;-0.2088;
691834461187561;0.0782;-0.0024;-0.2493;
691834471285530;0.0632;0.0220;-0.2493;
691834481394488;0.1431;0.0093;-0.2344;
691834491503499;0.2676;-0.0205;-0.2439;
691834501613655;0.3816;-0.0194;-0.2226;
691834511722665;0.4722;-0.0450;-0.1832;
691834521831624;0.5883;-0.1217;-0.1598;
691834531937249;0.6447;-0.1537;-0.1363;
691834542046259;0.5403;-0.0716;-0.1268;
691834552155269;0.4306;-0.0450;-0.0554;
691834562275426;0.4359;-0.0727;-0.0383;
691834572384436;0.4296;-0.0514;-0.0714;
691834582493394;0.3401;-0.0173;-0.0735;
691834592608238;0.2071;0.1019;-0.0724;
691834602717249;0.3145;0.1115;-0.0181;
691834612826207;0.4487;-0.0727;-0.0181;
691834622911884;0.4903;-0.0738;-0.0224;
691834633020842;0.2644;0.0326;0.0075;
691834643129853;0.2783;-0.0162;0.0628;
691834653276884;0.2305;-0.0695;0.0692;
691834663385894;0.1346;0.0987;0.0352;
691834673494853;0.0846;0.2020;0.0415;
691834683575165;0.2602;0.0294;0.0778;
691834693684176;0.2655;-0.0919;0.0298;
691834703793134;0.1282;0.0198;0.0501;
691834713913499;0.0558;0.1115;0.0522;
691834724022509;0.1453;0.0230;0.0724;
691834734131467;0.2188;-0.1526;0.0820;
691834744241363;0.0803;-0.0450;0.0692;
691834754350374;-0.0166;0.1306;0.0714;
691834764459332;0.1165;-0.0162;0.1012;
691834774561259;0.2092;-0.0738;0.0735;
691834784670269;0.1272;0.1381;0.0490;
691834794779228;0.1612;0.1008;0.0511;
691834804923811;0.2550;-0.1132;0.1012;
691834815032822;0.1975;-0.1196;0.0842;
691834825141780;0.0313;0.0390;0.0724;
691834835221363;-0.0401;0.0582;0.0692;
691834845330374;0.0771;-0.0791;0.1033;
691834855439332;0.1431;-0.0791;0.0927;
691834865559280;-0.0571;0.0104;0.0863;
691834875668290;-0.1658;0.0742;0.1406;
691834885777249;-0.0667;0.0220;0.1257;
691834895884592;0.1250;0.0337;0.1353;
691834905993603;0.0952;0.1232;0.1289;
691834916102561;0.0877;-0.0109;0.1257;
691834926204592;0.0750;-0.1547;0.1651;
691834936313603;0.0121;-0.0993;0.1161;
691834946422561;-0.0646;-0.0120;0.1491;
691834956535530;-0.1189;0.0166;0.1289;
691834966644540;-0.0230;0.0166;0.1161;
691834976753499;0.0451;0.0019;0.1236;
691834986858030;0.0185;0.0093;0.1289;
691834996966988;0.0015;0.0379;0.1736;
691835007075999;-0.0049;-0.0620;0.1587;
691835017187197;-0.0252;-0.0674;0.1395;
691835027296207;-0.1754;0.1434;0.1161;
691835037405165;-0.2606;0.1434;0.1363;
691835047518655;-0.0273;0.0529;0.1097;
691835057627665;-0.0177;0.0848;0.0458;
691835067736624;-0.0848;0.0816;0.0266;
691835077842405;-0.1423;-0.0013;0.0660;
691835087951415;-0.1935;-0.0045;0.0863;
691835098060374;-0.2542;0.0029;0.0383;
691835108190217;-0.2893;-0.0631;0.0309;
691835118299228;-0.2787;0.0571;0.0405;
691835128408186;-0.3011;0.1200;0.0234;
691835138503238;-0.1626;-0.0748;-0.0149;
691835148612301;-0.0465;-0.0652;-0.0330;
691835158721311;-0.1157;-0.0514;-0.0234;
691835168824280;-0.1594;-0.1590;-0.0490;
691835178933342;-0.2233;-0.0802;-0.0991;
691835189042353;-0.4128;0.1423;-0.1289;
691835199142874;-0.4256;0.2201;-0.1321;
691835209251936;-0.0337;0.1168;-0.1651;
691835219360947;0.2316;-0.0013;-0.1790;
691835229477926;0.3901;-0.0770;-0.1321;
691835239586988;0.3273;-0.0301;-0.1055;
691835249695999;0.1953;-0.0503;-0.0895;
691835259804280;0.1889;-0.1174;-0.1236;
691835269913342;0.1176;0.0539;-0.1225;
691835280022353;0.0249;0.0603;-0.0586;
691835290116780;0.1943;-0.2133;-0.0948;
691835300225842;0.2698;-0.0929;-0.1214;
691835310334853;-0.0113;0.0040;-0.0352;
691835320449697;0.0121;-0.1611;-0.0778;
691835330558759;-0.0443;-0.0780;-0.1321;
691835340667769;-0.2340;0.0411;-0.0884;
691835350787197;-0.0688;0.0198;-0.0533;
691835360896259;0.3124;0.0401;-0.0639;
691835371005269;0.5329;0.0061;-0.0873;
691835381095738;0.5702;-0.0557;-0.1236;
691835391204801;0.4221;-0.0152;-0.0692;
691835401313811;0.3252;-0.0035;-0.0330;
691835411434592;0.1655;-0.0141;-0.0117;
691835421543655;0.0068;0.0816;-0.0117;
691835431652665;0.1282;0.1423;-0.0788;
691835441761780;0.1943;0.0008;-0.0490;
691835451870842;0.0398;0.0507;0.0170;
691835461979853;0.1549;0.1466;-0.0224;
691835472129332;0.2964;-0.0727;-0.0032;
691835482238394;0.2017;-0.1260;-0.0256;
691835492347405;0.0814;-0.1760;-0.0298;
691835502406467;-0.0497;-0.1164;-0.0128;
691835512515478;-0.1434;0.1200;-0.0320;
691835522624488;-0.0688;0.1423;-0.0341;
691835532747092;0.1027;0.0230;-0.0714;
691835542856155;0.2252;0.1391;-0.0671;
691835552965165;0.1985;0.0635;-0.0895;
691835563050113;0.2369;-0.0791;-0.0309;
691835573159176;0.1826;0.1317;-0.0565;
691835583268186;0.1655;0.2084;-0.0373;
691835593418342;0.2230;-0.0067;-0.0032;
691835603527405;0.3177;0.0316;-0.0064;
691835613636415;0.1623;0.2297;0.0192;
691835623745009;0.1389;0.1700;0.0756;
691835633854072;0.2294;0.0710;0.0852;
691835643963082;0.1943;0.0422;0.0554;
691835654070738;0.1698;0.0390;0.0873;
691835664179801;0.1048;-0.0514;0.0937;
691835674288811;0.0867;-0.1057;0.1097;
691835684383030;0.0654;-0.0397;0.0458;
691835694492092;0.1005;-0.0823;0.0873;
691835704601103;0.0270;-0.2293;0.1268;
691835714712301;0.0643;-0.1047;0.1736;
691835724821363;0.0707;-0.1483;0.0948;
691835734930374;0.1325;-0.1792;0.0692;
691835745040582;0.0718;-0.1387;0.1055;
691835755149592;0.0089;-0.0099;0.1182;
691835765258655;-0.0007;0.0891;0.1140;
691835775356572;0.0654;0.1093;0.0394;
691835785465634;0.0643;0.0838;-0.0011;
691835795574644;-0.0049;0.2446;-0.0160;
691835805693342;0.0196;0.2819;-0.0096;
691835815802405;0.1570;0.2712;0.0117;
691835825911415;0.1549;0.2361;0.0458;
691835836024801;0.0590;0.0305;0.0437;
691835846133863;-0.0220;-0.2304;0.0138;
691835856242874;0.0814;0.2222;0.0373;
691835866360009;0.1069;0.4523;0.0820;
691835876469072;0.0419;-0.2847;0.0852;
691835886578082;0.0558;-0.4722;0.0383;
691835896673082;-0.0678;-0.2847;0.0607;
691835906782144;-0.1253;-0.3475;0.0394;
691835916891155;-0.0113;0.0115;-0.0330;
691835927005426;-0.1072;0.0923;-0.0352;
691835937114488;-0.0209;-0.0908;-0.0128;
691835947223499;0.1975;0.2084;0.0053;
691835957330322;0.1389;0.3170;-0.0288;
691835967439384;0.1964;0.1466;-0.0426;
691835977548394;0.3305;-0.0514;0.0245;
691835987658499;0.1858;0.1136;0.0820;
691835997767509;0.0728;0.2659;0.1129;
691836007876572;0.0952;0.0933;0.1055;
691836017983342;0.0377;-0.0514;0.0948;
691836028092405;0.0068;-0.0269;0.1246;
691836038201415;0.0174;-0.0652;0.1406;
691836048310947;-0.0081;-0.2559;0.1534;
691836058420009;-0.0316;-0.2336;0.1747;
691836068529019;-0.0092;-0.0067;0.1481;
691836078635165;0.0047;-0.0983;0.1268;
691836088744176;0.0206;-0.0929;0.0884;
691836098853238;0.0153;0.1381;0.1193;
691836108955947;0.0174;0.1498;0.1619;
691836119064957;0.0366;-0.1004;0.1587;
691836129174019;0.0718;-0.0652;0.1246;
691836139299488;-0.0316;0.0104;0.1214;
691836149408551;0.0185;-0.0045;0.1321;
691836159517561;0.0707;0.1850;0.1470;
691836169630322;0.0750;0.1732;0.1790;
691836179739384;0.0494;-0.0844;0.1885;
691836189848394;0.0356;-0.0695;0.1885;
691836199945426;0.0217;0.0720;0.1928;
691836210054488;-0.0071;0.0008;0.2003;
691836220163499;-0.0550;-0.0610;0.1790;
691836230275634;-0.0688;-0.0450;0.1832;
691836240384697;-0.1381;-0.1590;0.1555;
691836250493707;-0.1583;-0.1015;0.1502;
691836260595842;-0.2297;-0.0141;0.1118;
691836270704905;-0.2297;-0.0205;0.0810;
691836280813915;-0.1285;0.1317;0.1214;
691836290923967;-0.1189;0.1264;0.1172;
691836301032978;-0.0262;-0.0578;0.0863;
691836311142040;-0.0401;0.0571;0.0426;
691836321255113;-0.1530;0.1349;0.0415;
691836331364176;-0.1157;-0.0216;0.0245;
691836341473186;-0.0720;-0.0067;0.0032;
691836351580999;-0.1253;-0.0184;0.0245;
691836361690061;-0.1104;-0.0397;0.0202;
691836371799072;-0.0529;0.1104;0.0128;
691836381892197;-0.0220;0.0220;0.0330;
691836392001207;-0.0379;-0.1036;0.0352;
691836402110269;-0.0294;-0.0557;0.0639;
691836412228134;-0.0060;-0.0557;0.0320;
691836422337197;-0.0337;-0.0226;-0.0149;
691836432446207;-0.0475;0.0869;0.0064;
691836442574124;-0.0635;0.0209;0.0320;
691836452683186;-0.0838;0.0337;-0.0128;
691836462792249;-0.0678;0.0933;0.0032;
691836472885009;-0.0667;0.0497;-0.0053;
691836482994072;-0.0486;0.0507;-0.0192;
691836493103082;-0.0614;0.0603;-0.0000;
691836503239592;-0.0507;0.1061;0.0298;
691836513348655;-0.0241;0.1178;0.0618;
691836523457665;-0.0230;-0.0045;0.0724;
691836533539176;-0.0401;-0.0099;0.0884;
691836543648238;-0.0294;0.0294;0.1225;
691836553757249;-0.0731;-0.1036;0.0969;
691836563894905;-0.1146;-0.2527;0.1193;
691836574003967;-0.1466;-0.3561;0.1246;
691836584112978;-0.1349;-0.3529;0.1268;
691836594220113;-0.2531;-0.1973;0.0682;
691836604329124;-0.3138;0.1775;0.0778;
691836614438186;-0.4117;0.2105;0.0746;
691836624528134;-0.4011;-0.2229;0.0469;
691836634637197;-0.0571;-0.0695;0.0107;
691836644746207;-0.1636;0.3341;-0.0607;
691836654857197;-0.3925;0.2425;-0.0863;
691836664966259;-0.2265;0.1615;-0.0298;
691836675075269;-0.0827;0.3724;-0.0522;
691836685193551;-0.1115;0.3437;-0.0724;
691836695302613;-0.0869;0.1200;-0.0373;
691836705411624;-0.0507;0.2126;-0.0032;
691836715501884;-0.1029;0.2893;0.0383;
691836725610894;-0.1210;-0.1686;0.0330;
691836735719957;-0.0944;-0.4573;0.0277;
691836745834905;-0.0763;0.0561;0.0107;
691836755943915;-0.1146;0.1232;0.0138;
691836766052978;-0.0827;-0.5094;-0.0021;
691836776165738;0.0707;-0.2666;-0.0426;
691836786274801;-0.1647;0.0241;-0.0458;
691836796383811;-0.1274;-0.2985;-0.0234;
691836806498915;0.1325;-0.2474;0.0043;
691836816607978;0.0419;0.2084;-0.0181;
691836826716988;-0.0454;-0.0141;0.0426;
691836836825113;0.1815;-0.3369;0.0575;
691836846934176;0.3592;0.0273;0.0554;
691836857043186;0.0430;0.4193;0.0543;
691836867151415;-0.0348;0.1583;0.0991;
691836877260478;0.2921;-0.1153;0.1481;
691836887369488;0.6405;0.1477;0.1715;
691836897471363;0.2401;0.1562;0.1992;
691836907580426;-0.0678;-0.1047;0.2438;
691836917689436;-0.0284;0.0029;0.2385;
691836927804280;-0.0816;0.1594;0.2715;
691836937913342;-0.2521;-0.0322;0.2779;
691836948022353;-0.1913;-0.0226;0.3045;
691836958125009;-0.2148;0.1136;0.2566;
691836968234072;-0.4149;-0.2442;0.1609;
691836978343082;-0.3861;-0.2879;0.0937;
691836988453238;-0.5044;-0.0216;0.0383;
691836998562301;-0.7515;-0.0397;0.0192;
691837008671311;-0.7185;-0.0823;-0.0394;
691837018773342;-0.5044;0.1285;-0.1193;
691837028882353;-0.4554;0.2340;-0.1545;
691837038991415;-0.2553;0.1157;-0.1779;
691837049108499;-0.0411;0.0209;-0.1609;
691837059217561;-0.1008;0.0688;-0.1577;
691837069326572;-0.1935;0.1594;-0.1917;
691837079445165;-0.1200;0.1370;-0.2035;
691837089554228;-0.0518;0.0369;-0.2003;
691837099663238;0.0121;-0.0194;-0.2109;
691837109746051;-0.1232;-0.1387;-0.2280;
691837119855061;-0.1764;-0.1409;-0.2663;
691837129964124;-0.1498;-0.0589;-0.2365;
691837140107769;-0.1349;-0.0248;-0.2876;
691837150216884;-0.0624;0.0390;-0.2706;
691837160325947;-0.0188;0.0965;-0.2471;
691837170415999;0.0696;0.0752;-0.2354;
691837180525061;0.1517;0.0848;-0.2620;
691837190634124;0.2294;0.0603;-0.2471;
691837200741155;0.3113;0.0923;-0.1939;
691837210850217;0.2401;0.0923;-0.1587;
691837220959280;0.1740;-0.0652;-0.1001;
691837231064072;0.1410;-0.0631;-0.0746;
691837241173134;0.0419;-0.0013;-0.0554;
691837251282197;0.0494;-0.0663;0.0053;
691837261380009;0.0324;-0.1473;0.0383;
691837271489072;0.0036;-0.1121;0.0011;
691837281598134;-0.0379;-0.0226;-0.0469;
691837291730842;-0.0497;-0.0258;-0.0309;
691837301839905;-0.0571;-0.1196;-0.0330;
691837311949019;-0.0742;-0.0439;-0.0320;
691837322104124;-0.0774;0.1562;-0.0075;
691837332213238;-0.0720;0.1200;0.0096;
691837342322301;0.0249;0.0104;0.0043;
691837352364801;0.0505;0.0752;0.0149;
691837362473863;-0.0145;0.0529;0.0160;
691837372582926;-0.0092;-0.0525;-0.0021;
691837382713030;-0.0326;-0.0450;-0.0128;
691837392822092;-0.0294;0.0166;-0.0234;
691837402931207;-0.0241;-0.0237;-0.0202;
691837413044697;-0.0411;-0.0354;-0.0788;
691837423153811;-0.0731;-0.0003;-0.1055;
691837433262822;-0.0465;-0.0088;-0.0927;
691837443360009;-0.0422;0.0061;-0.0778;
691837453469072;0.0057;0.1051;-0.1204;
691837463578134;0.0398;0.1125;-0.1236;
691837473682822;0.1059;0.0252;-0.0959;
691837483791884;0.1154;0.0156;-0.1044;
691837493900947;0.0579;0.0720;-0.1108;
691837504030426;0.0718;0.0369;-0.0873;
691837514139488;0.0963;-0.0109;-0.0991;
691837524248603;0.0430;0.0166;-0.0852;
691837534343655;-0.0209;-0.0344;-0.0756;
691837544452717;-0.0028;-0.0887;-0.0831;
691837554561832;0.0079;-0.0365;-0.0799;
691837564677926;-0.0081;-0.0173;-0.0735;
691837574786988;0.0153;-0.0162;-0.0628;
691837584896051;0.0206;0.0166;-0.0266;
691837594992249;0.0526;0.1093;-0.0383;
691837605101311;0.0185;0.0411;-0.0394;
691837615210374;0.0473;0.0166;-0.0458;
691837625330530;0.0100;0.1072;-0.0224;
691837635439592;-0.0305;-0.0280;-0.0192;
691837645548655;-0.0230;-0.1654;0.0064;
691837655654384;-0.0124;-0.0876;0.0053;
691837665763447;0.0079;-0.0727;0.0160;
691837675872509;0.0089;-0.0844;0.0298;
691837685982926;0.0132;-0.0695;0.0479;
691837696091988;0.0132;-0.1260;0.0128;
691837706201051;0.0281;-0.0972;0.0032;
691837716309176;-0.0028;-0.0077;0.0011;
691837726418238;-0.0124;-0.0375;-0.0053;
691837736527301;-0.0166;-0.0866;0.0075;
691837746630322;-0.0092;-0.0322;0.0053;
691837756739384;0.0079;0.0571;-0.0064;
691837766848447;0.0302;0.0688;0.0107;
691837776963447;0.0739;-0.0439;0.0256;
691837787072509;0.0771;-0.2676;0.0426;
691837797181572;0.0377;-0.0599;0.0330;
691837807293238;-0.2553;0.3628;0.0149;
691837817402301;-0.4788;0.3852;-0.0107;
691837827511363;0.0132;0.1413;-0.0597;
691837837620426;0.5499;-0.0152;-0.0724;
691837847729488;0.5276;0.0529;-0.0330;
691837857838551;0.0430;0.1743;0.0469;
691837867960322;-0.0316;0.1594;0.0746;
691837878069384;0.0771;0.0923;0.0895;
691837888178447;0.0334;0.0166;0.0575;
691837898271363;0.1229;0.5067;0.0692;
691837908380426;0.0356;0.2276;0.1065;
691837918489488;0.0750;-0.7138;0.1076;
691837928605530;-0.0262;-0.4764;0.0852;
691837938714592;-0.1754;-0.0397;0.0692;
691837948823655;-0.2190;-0.0738;0.0533;
691837958927092;-0.1083;-0.1963;0.0234;
691837969036155;0.0111;-0.1047;0.0341;
691837979145217;0.0590;0.1317;0.0799;
691837989246780;0.0398;0.1008;0.0842;
691837999355842;0.0941;-0.1430;0.0692;
691838009464905;0.0707;0.1328;-0.0245;
691838019575999;0.0377;0.3245;0.0873;
691838029685061;0.0505;-0.0929;0.0756;
691838039794124;0.2177;-0.0684;0.0724;
691838049910842;-0.0071;0.1818;0.0842;
691838060019905;-0.1093;-0.0407;0.0916;
691838070128967;-0.0230;-0.0951;0.1076;
691838080234801;-0.0720;0.1551;0.1278;
691838090343863;-0.1956;0.0976;0.0916;
691838100452926;-0.1764;-0.0759;0.0703;
691838110561572;-0.1285;-0.0120;0.0628;
691838120670634;-0.2734;-0.0951;0.0383;
691838130779697;-0.2680;-0.1515;-0.0053;
691838140905894;-0.2702;-0.0301;-0.0277;
691838151014957;-0.3808;-0.0013;-0.0320;
691838161124072;-0.3521;0.0316;-0.0682;
691838171218499;-0.2659;0.1445;-0.0873;
691838181327561;-0.1924;0.1477;-0.0820;
691838191436624;-0.0688;0.0827;-0.0948;
691838201535113;-0.1104;0.0072;-0.1246;
691838211644176;-0.0955;0.0710;-0.1278;
691838221753238;-0.0880;0.1530;-0.1150;
691838231875426;-0.0848;0.0561;-0.1225;
691838241984488;-0.0816;-0.0620;-0.1246;
691838252093551;-0.1061;-0.1345;-0.1118;
691838262275217;-0.1083;-0.1292;-0.1055;
691838272384280;-0.0667;-0.0706;-0.1140;
691838282493394;-0.0507;-0.1111;-0.0873;
691838292514592;-0.0518;-0.1366;-0.1001;
691838302623655;-0.0390;-0.0663;-0.1278;
691838312732769;-0.0326;0.0433;-0.1406;
691838322846311;0.0515;-0.0162;-0.1374;
691838332955374;0.2198;-0.0951;-0.1225;
691838343064436;0.2655;0.0209;-0.0991;
691838353174019;0.2017;0.0710;-0.0320;
691838363283030;0.2156;-0.0290;-0.0149;
691838373392092;0.3347;-0.0546;0.0202;
691838383501155;0.2857;0.0029;0.0565;
691838393634905;0.2103;0.1104;0.0863;
691838403743967;0.1549;0.0465;0.0735;
691838413853030;0.2081;-0.0248;0.0884;
691838423955582;0.1889;-0.0269;0.0799;
691838434064644;0.0377;-0.0184;0.0852;
691838444173707;0.0068;0.0518;0.1065;
691838454305322;0.0089;-0.0216;0.1204;
691838464414384;0.0068;-0.0759;0.1204;
691838474523499;-0.0358;0.0912;0.1182;
691838484603551;-0.0848;0.0923;0.1097;
691838494712613;0.0111;-0.0397;0.1044;
691838504821676;0.0185;-0.0312;0.0565;
691838514926780;-0.0390;0.0369;0.0575;
691838525035842;-0.0603;-0.0056;0.0394;
691838535144905;-0.0092;-0.0141;0.0256;
691838545263915;-0.0390;-0.0099;0.0320;
691838555372978;-0.0699;-0.1100;0.0330;
691838565482040;-0.0518;-0.0738;0.0213;
691838575581467;-0.0955;0.0136;0.0160;
691838585690530;-0.0582;-0.0045;0.0117;
691838595799592;0.0249;-0.0290;-0.0075;
691838605900374;0.0217;-0.0205;-0.0138;
691838616009436;0.0334;0.0188;-0.0181;
691838626118499;0.0356;0.0284;-0.0479;
691838636225426;-0.0017;0.0093;-0.0469;
691838646334488;-0.0007;0.0040;-0.0085;
691838656443551;-0.0124;-0.0269;-0.0021;
691838666567822;0.0111;-0.0482;0.0160;
691838676676884;0.0153;-0.0322;0.0234;
691838686785947;0.0185;-0.0045;0.0405;
691838696890426;-0.0166;-0.0897;0.0202;
691838706999488;-0.0060;-0.0929;0.0117;
691838717108551;-0.0230;0.0518;0.0181;
691838727212301;-0.0454;0.0912;-0.0085;
691838737321363;-0.0241;-0.0056;0.0053;
691838747430426;-0.0422;-0.0919;0.0277;
691838757541780;-0.0656;-0.1004;0.0266;
691838767650842;-0.0614;-0.0216;0.0469;
691838777759905;-0.0976;0.0008;0.0692;
691838787875165;-0.0539;0.0104;0.0458;
691838797984228;-0.0422;0.0156;0.0107;
691838808093290;-0.0550;0.0337;0.0117;
691838818205009;-0.0369;0.0475;0.0021;
691838828314072;-0.0465;-0.0301;-0.0011;
691838838423134;-0.0688;-0.1313;0.0117;
691838848525634;-0.0774;-0.0706;0.0128;
691838858634697;-0.0752;0.0305;0.0138;
691838868743759;-0.0731;0.0146;0.0213;
691838878861572;-0.0007;0.0051;0.0192;
691838888970634;-0.0220;0.0326;-0.0000;
691838899079697;-0.0379;0.0252;-0.0341;
691838909193030;-0.0230;0.0369;-0.0234;
691838919302092;-0.0166;0.0390;-0.0458;
691838929411207;-0.0316;-0.0056;-0.0501;
691838939500530;-0.0614;0.0040;-0.0437;
691838949609592;-0.0582;0.0646;-0.0192;
691838959718655;-0.0241;0.0699;-0.0000;
691838969829905;0.0089;0.0241;0.0021;
691838979938967;-0.0028;0.0252;-0.0000;
691838990048030;-0.0326;0.0241;-0.0341;
691839000151259;-0.0241;-0.0226;-0.0415;
691839010260322;-0.0209;-0.0141;-0.0501;
691839020369436;-0.0241;0.0115;-0.0639;
691839030479801;-0.0326;-0.0461;-0.0565;
691839040588863;-0.0518;-0.0599;-0.0426;
691839050697926;-0.0454;-0.0514;-0.0266;
691839060806728;-0.0369;-0.1025;-0.0277;
691839070915790;-0.0454;-0.0706;-0.0320;
691839081024853;-0.0007;0.0209;-0.0522;
691839091142926;-0.0198;-0.1185;-0.0437;
691839101251988;0.1506;-0.1324;0.1246;
691839111361051;0.0899;-0.0184;0.0969;
691839121486988;0.0760;0.1668;0.0767;
691839131596051;0.0909;-0.1036;0.0714;
691839141705113;0.0036;-0.1281;-0.0522;
691839151787197;-0.3542;0.5503;-0.0000;
691839161896207;-0.4575;0.5887;0.0618;
691839172005269;0.0750;0.0379;0.0511;
691839182131676;0.6682;-0.0929;-0.0320;
691839192240738;0.5382;0.2265;-0.0724;
691839202349749;-0.0465;0.4417;0.0288;
691839212446572;-0.0561;-0.0216;0.1150;
691839222555582;0.0601;-0.2868;0.0692;
691839232664592;-0.1423;-0.2943;0.1129;
691839242834488;-0.1722;0.0497;0.1055;
691839252943499;-0.2915;-0.0173;0.0980;
691839263052561;-0.4202;-0.9088;0.0447;
691839273113030;-0.1083;-0.3923;-0.0245;
691839283222040;-0.3712;0.3479;-0.1257;
691839293331051;-0.9411;0.0209;-0.1140;
691839303422509;-0.5513;-0.2772;-0.1640;
691839313531519;0.2198;0.0411;-0.2983;
691839323640530;0.1314;0.3596;-0.3132;
691839333762978;-0.1583;0.3085;-0.2237;
691839343871988;-0.0134;-0.0045;-0.1790;
691839353981051;0.2953;0.1349;-0.1949;
691839364110113;0.2241;0.2542;-0.1726;
691839374219124;-0.0124;-0.0770;-0.1513;
691839384328186;0.0792;-0.0961;-0.1864;
691839394406572;0.0047;-0.0120;-0.1885;
691839404515582;-0.0678;-0.2570;-0.2067;
691839414624592;-0.0411;-0.2879;-0.2333;
691839424750842;-0.0220;-0.0855;-0.2184;
691839434859853;-0.0497;-0.0897;-0.2248;
691839444968863;-0.0252;-0.0663;-0.2471;
691839455068759;0.0025;0.1487;-0.2290;
691839465177769;0.0590;0.1072;-0.2280;
691839475286780;0.1794;0.1178;-0.2770;
691839485404332;0.3422;0.2084;-0.2738;
691839495513342;0.4178;0.0731;-0.2503;
691839505622353;0.5457;0.0337;-0.2173;
691839515723499;0.4583;0.0859;-0.1566;
691839525832509;0.2571;-0.0173;-0.0948;
691839535941519;0.2134;-0.0141;-0.0522;
691839546046988;0.1847;0.0518;-0.0362;
691839556155999;0.1889;-0.0375;-0.0138;
691839566265009;0.2081;-0.1302;-0.0256;
691839576375113;0.1474;-0.1015;-0.0479;
691839586484124;0.0846;-0.1473;-0.0341;
691839596593134;0.1069;-0.0876;-0.0511;
691839606743655;0.0835;0.0678;-0.0543;
691839616852665;0.0931;0.0827;-0.0405;
691839626961728;0.1421;0.0880;-0.0288;
691839637035426;0.1570;0.1019;0.0075;
691839647144436;0.1719;0.0614;0.0096;
691839657253447;0.1783;0.0166;-0.0000;
691839667363238;0.1240;-0.0482;-0.0341;
691839677472249;0.0963;-0.0834;-0.0213;
691839687581311;0.0899;-0.0546;-0.0192;
691839697681832;0.0920;-0.0301;-0.0128;
691839707790842;0.0835;-0.1270;-0.0181;
691839717899853;0.0846;-0.1387;-0.0117;
691839728010530;0.0632;0.0209;-0.0064;
691839738119540;0.0547;0.0262;0.0202;
691839748228551;0.1506;-0.0716;0.0085;
691839758334905;0.1261;-0.0290;-0.0426;
691839768443915;0.0718;0.1061;-0.0533;
691839778552926;0.0867;0.1381;-0.0469;
691839788674905;0.1421;0.1146;-0.0692;
691839798783915;0.1506;0.0806;-0.0490;
691839808892926;0.1261;0.0699;-0.0394;
691839818995113;0.1101;0.1477;-0.0032;
691839829104124;0.1570;0.0742;0.0266;
691839839213134;0.1549;-0.1153;0.0362;
691839849321676;0.1037;-0.2112;0.0170;
691839859430686;0.0664;-0.0812;0.0117;
691839869539697;0.0281;0.0273;0.0352;
691839879665530;0.0004;-0.1324;0.0021;
691839889774540;0.1176;-0.1601;-0.0234;
691839899883551;0.0920;0.0507;-0.0224;
691839909990217;0.0963;0.0901;-0.0064;
691839920099228;0.1186;-0.0855;0.0298;
691839930208238;0.1314;-0.2037;0.0469;
691839940328447;0.1463;0.0104;0.0309;
691839950437457;0.1037;0.2478;0.0096;
691839960546467;0.1506;0.1700;0.0277;
691839970633759;0.2113;-0.0280;0.0533;
691839980742769;0.2602;-0.0226;0.0394;
691839990851780;0.1346;0.0294;0.0437;
691840000957613;0.0505;-0.0514;0.0895;
691840011066624;0.0792;-0.0067;0.0927;
691840021175686;0.0931;0.1061;0.1150;
691840031280582;0.1208;-0.0067;0.1310;
691840041389592;0.0995;-0.1185;0.1033;
691840051498603;0.0750;0.0083;0.0937;
691840061612978;0.0387;0.0731;0.1044;
691840071721988;0.0579;-0.0077;0.0778;
691840081831051;0.0984;0.0104;0.0692;
691840091938551;0.0707;0.0273;0.0756;
691840102047613;0.0324;-0.0663;0.0650;
691840112156624;0.0079;-0.1952;0.0916;
691840122271780;-0.0529;-0.0780;0.0991;
691840132380790;-0.1200;0.1360;0.0735;
691840142489801;-0.1136;0.1967;0.0149;
691840152609540;0.0952;0.2393;0.0277;
691840162718655;0.0973;0.1732;0.0266;
691840172827717;0.0814;0.0774;0.0107;
691840182920426;0.0973;0.1541;0.0490;
691840193029488;0.0707;0.1541;0.0831;
691840203138603;0.0760;0.0571;0.0959;
691840213278447;0.0601;0.0390;0.1332;
691840223387509;0.0643;-0.0024;0.1523;
691840233496624;0.0100;-0.2442;0.1182;
691840243568030;-0.0103;-0.2932;0.0980;
691840253677092;-0.0550;-0.1739;0.0852;
691840263786207;-0.1285;-0.1771;0.0437;
691840273908915;-0.1434;-0.1281;0.0096;
691840284017978;-0.1125;-0.0716;-0.0021;
691840294127092;-0.0103;0.0220;0.0138;
691840304258238;0.0324;0.1061;0.0575;
691840314367301;0.0409;-0.0120;0.0767;
691840324476415;0.1474;-0.0461;0.0330;
691840334558238;0.1197;0.0475;0.0192;
691840344667301;-0.0017;0.0848;0.0469;
691840354776415;0.0356;0.0475;0.0522;
691840364901780;0.0419;0.0294;0.0394;
691840375010842;0.0334;0.0019;0.0458;
691840385119957;0.0089;-0.0407;0.0447;
691840395219592;0.0153;-0.0194;0.0842;
691840405328655;0.0100;-0.1132;0.1161;
691840415437769;0.0174;-0.1409;0.0980;
691840425538863;0.0377;0.0646;0.0533;
691840435647978;0.0505;0.1242;0.0724;
691840445757040;0.0579;-0.0120;0.0746;
691840455873863;0.0686;-0.1089;0.0746;
691840465982926;0.0643;-0.0684;0.0852;
691840476092040;0.0142;-0.0610;0.0895;
691840486205999;0.0238;-0.0184;0.1129;
691840496315061;0.0153;0.0188;0.1470;
691840506424176;0.0260;-0.0493;0.1481;
691840516524488;0.0079;-0.0035;0.1172;
691840526633551;0.0334;0.1221;0.1065;
691840536742665;0.0366;0.1349;0.1204;
691840546859905;0.0419;0.0795;0.1332;
691840556968967;0.0334;0.0220;0.1363;
691840567078082;0.0313;0.0401;0.1566;
691840577176676;-0.0039;-0.0216;0.1683;
691840587285738;-0.0103;-0.1622;0.2035;
691840597394853;-0.0443;-0.2112;0.2248;
691840607513707;-0.0784;-0.1622;0.1939;
691840617622769;-0.1626;-0.0823;0.1289;
691840627731884;-0.2702;-0.0077;0.1204;
691840637830217;-0.2052;0.0166;0.0831;
691840647939280;-0.0699;-0.0578;0.0533;
691840658048394;-0.0337;-0.0344;0.0565;
691840668171467;-0.0720;0.0752;0.0682;
691840678280530;-0.0379;0.1200;0.0810;
691840688389644;-0.0017;0.0976;0.1150;
691840698496572;-0.0188;0.0465;0.1289;
691840708605634;-0.0326;0.0550;0.0618;
691840718714749;-0.0454;0.0411;0.0692;
691840728814592;-0.0603;-0.0674;0.0565;
691840738923707;-0.0688;-0.1739;0.0362;
691840749032769;-0.1083;-0.1153;0.0149;
691840759149280;-0.1924;0.0273;0.0160;
691840769258342;-0.2606;0.0411;0.0160;
691840779367457;-0.0997;0.0433;0.0362;
691840789470947;-0.0188;0.0731;0.0181;
691840799580009;-0.0806;0.1136;-0.0309;
691840809689124;-0.0369;0.1551;-0.0234;
691840819793759;-0.0379;0.0816;-0.0320;
691840829902822;-0.0379;-0.0173;-0.0266;
691840840011936;-0.0646;-0.0397;-0.0213;
691840850132092;-0.0390;0.0230;-0.0032;
691840860241155;-0.0284;0.0166;0.0064;
691840870350269;-0.0571;-0.0972;0.0415;
691840880449176;-0.0678;-0.2016;0.0565;
691840890558238;-0.0933;-0.2037;0.0107;
691840900667301;-0.0742;-0.1632;-0.0096;
691840910785009;-0.0710;-0.1292;-0.0053;
691840920894124;-0.0656;-0.0333;-0.0383;
691840931003186;-0.0443;-0.0024;-0.0405;
691840941081676;-0.0465;-0.1569;-0.0181;
691840951190790;-0.0411;-0.1941;-0.0096;
691840961299853;-0.0731;0.1455;-0.0053;
691840971422301;-0.0710;0.3160;0.0288;
691840981531363;-0.0294;0.2063;0.0192;
691840991640478;0.0451;0.2009;-0.0224;
691841001753134;0.0899;0.2148;-0.0160;
691841011862197;0.0164;0.2276;-0.0160;
691841021971311;-0.0593;0.1477;0.0032;
691841032093134;-0.0337;0.0635;0.0170;
691841042202197;-0.0166;0.1818;0.0256;
691841052311311;0.0206;0.3767;0.0671;
691841062400426;-0.0348;0.0198;0.1395;
691841072509488;-0.1551;-0.4828;0.1204;
691841082618551;-0.1125;-0.1526;0.0543;
691841092750426;-0.0635;0.1498;0.0117;
691841102859488;-0.1296;-0.0652;-0.0245;
691841112968603;-0.1306;-0.1739;-0.0426;
691841123086363;-0.0752;-0.0205;-0.0405;
691841133195478;-0.0497;0.1818;-0.0394;
691841143304540;-0.0113;0.1892;-0.0160;
691841153410738;0.0068;0.1221;0.0202;
691841163519801;0.0696;0.1722;0.0245;
691841173628915;0.0324;0.0816;-0.0021;
691841183730322;-0.0422;-0.0706;0.0096;
691841193839384;-0.0550;0.0433;-0.0011;
691841203948499;-0.0284;0.1189;0.0011;
691841214050738;-0.0720;-0.0684;0.0032;
691841224159853;-0.0369;-0.0312;0.0032;
691841234268915;-0.0273;0.0784;0.0138;
691841244401988;-0.0518;-0.1047;0.0415;
691841254511103;-0.0454;-0.1590;0.0565;
691841264620165;-0.0667;-0.1174;0.0245;
691841274702197;-0.0678;-0.1270;0.0021;
691841284811311;-0.0710;-0.0834;-0.0245;
691841294920374;-0.0411;-0.0226;-0.0373;
691841305047092;-0.0262;-0.0418;-0.0075;
691841315156207;-0.0220;-0.1100;-0.0053;
691841325265269;0.0025;-0.0620;-0.0170;
691841335366676;-0.0177;-0.0738;-0.0043;
691841345475790;-0.0177;-0.1419;0.0362;
691841355584853;-0.0667;-0.1899;0.0330;
691841365690947;-0.0603;-0.0567;0.0053;
691841375800061;-0.0838;0.1935;-0.0043;
691841385909124;-0.0944;0.2031;-0.0426;
691841396016155;-0.0369;0.0763;-0.0266;
691841406125269;-0.0497;0.0614;-0.0234;
691841416234332;-0.0198;0.1434;-0.0234;
691841426344280;-0.0369;0.1594;-0.0170;
691841436453394;-0.0294;0.0550;0.0192;
691841446562457;-0.0593;0.0742;0.0234;
691841456669176;-0.0337;0.2308;-0.0053;
691841466778290;-0.0348;0.1573;0.0362;
691841476887353;-0.1189;-0.2623;0.0107;
691841487000842;-0.1178;-0.3369;-0.0288;
691841497109957;-0.1093;-0.1089;-0.0373;
691841507219019;-0.1562;-0.0610;-0.0533;
691841517333238;-0.1594;-0.1419;-0.0586;
691841527442353;-0.0688;-0.0897;-0.0394;
691841537551415;-0.0411;0.0816;-0.0415;
691841547656780;-0.0571;0.1530;-0.0714;
691841557765842;0.0036;0.0774;-0.0607;
691841567874957;0.1080;0.1264;-0.0703;
691841577977197;0.1762;0.2968;-0.0756;
691841588086311;0.0792;0.2105;-0.0501;
691841598195374;0.0505;0.0051;-0.0138;
691841608327405;0.1293;0.0230;0.0245;
691841618436519;0.0217;0.0051;0.0575;
691841628545582;-0.0220;-0.1047;0.0682;
691841638636988;-0.0582;-0.1270;0.0469;
691841648746103;-0.0806;-0.1057;0.0320;
691841658855165;-0.0774;-0.0961;0.0256;
691841668963238;-0.0912;-0.0929;-0.0085;
691841679072353;-0.1200;-0.1292;-0.0320;
691841689181415;-0.1274;-0.0844;-0.0383;
691841699289384;-0.1551;0.0422;-0.0565;
691841709398499;-0.1008;0.0688;-0.0447;
691841719507561;0.0100;0.0710;-0.0341;
691841729618967;-0.0028;0.1370;-0.0373;
691841739728030;-0.0220;0.0965;-0.0479;
691841749837144;-0.0188;-0.0407;-0.0352;
691841759947092;-0.0166;-0.0610;-0.0586;
691841770056155;-0.0720;-0.0226;-0.0511;
691841780165269;-0.0486;-0.0045;-0.0533;
691841790269384;-0.0475;-0.0333;-0.0501;
691841800378447;-0.0273;-0.0482;-0.0447;
691841810487561;-0.0049;-0.0493;-0.0245;
691841820603551;-0.0358;-0.0983;-0.0341;
691841830712665;-0.0976;-0.0269;-0.0895;
691841840821728;-0.0901;0.0827;-0.0895;
691841850926572;-0.0635;0.1296;-0.1182;
691841861035686;-0.0156;0.1328;-0.1395;
691841871144749;-0.0198;0.0806;-0.1406;
691841881247717;-0.0230;0.0401;-0.1289;
691841891356832;0.0153;0.0571;-0.1161;
691841901465894;0.0100;0.0061;-0.0969;
691841911577665;0.0004;-0.0375;-0.0937;
691841921686780;-0.0273;0.0241;-0.1150;
691841931795842;-0.0284;-0.0205;-0.0937;
691841941924488;-0.0497;-0.1920;-0.1118;
691841952033551;-0.0497;-0.1686;-0.1545;
691841962142665;-0.0252;-0.0866;-0.1640;
691841972222092;-0.0188;-0.0652;-0.1417;
691841982331155;-0.0060;-0.1047;-0.1374;
691841992440269;0.0217;-0.0834;-0.1214;
691842002569488;0.0270;-0.0194;-0.1055;
691842012678551;0.0228;-0.0024;-0.1300;
691842022787665;0.0057;-0.0226;-0.1353;
691842032891155;0.0068;-0.0205;-0.1321;
691842043000269;0.0153;0.0305;-0.1449;
691842053109332;-0.0113;0.0475;-0.1438;
691842063248342;0.0153;0.1019;-0.1278;
691842073357457;0.0238;0.0774;-0.1204;
691842083466519;0.0419;-0.0258;-0.1129;
691842093536780;0.0505;0.0125;-0.0842;
691842103645842;0.0196;0.0710;-0.0873;
691842113754957;-0.0071;0.0763;-0.1044;
691842123858655;-0.0028;0.0454;-0.0937;
691842133967717;0.0153;0.0177;-0.1140;
691842144076832;-0.0060;-0.0162;-0.1342;
691842154206884;-0.0124;-0.0194;-0.1332;
691842164315947;0.0004;0.0177;-0.1300;
691842174425061;0.0313;-0.0045;-0.1236;
691842184525947;0.0750;0.0561;-0.0959;
691842194635009;0.0867;0.1083;-0.0788;
691842204744124;0.0899;0.0262;-0.1076;
691842214858967;0.1549;-0.0301;-0.0948;
691842224968030;0.1442;-0.0471;-0.0842;
691842235077144;0.0792;-0.0152;-0.0969;
691842245176780;0.0537;0.0294;-0.0884;
691842255285842;0.0995;-0.0077;-0.0671;
691842265394905;0.0792;-0.1260;-0.0660;
691842275508134;0.0814;-0.1451;-0.0618;
691842285617197;0.0877;-0.0333;-0.0352;
691842295726311;0.0590;-0.0258;-0.0597;
691842305839749;0.0505;-0.0482;-0.0586;
691842315948811;0.0547;-0.0365;-0.0735;
691842326057926;0.0877;-0.0493;-0.0756;
691842336172197;0.0590;-0.0322;-0.0714;
691842346281311;0.0601;0.0177;-0.0831;
691842356390374;0.0728;0.0326;-0.0842;
691842366495322;0.1069;0.0465;-0.0650;
691842376604384;0.1314;0.0869;-0.0533;
691842386713447;0.1442;0.0710;-0.0714;
691842396819592;0.1559;0.0667;-0.0895;
691842406928655;0.1570;0.0944;-0.0490;
691842417037769;0.1794;0.0614;-0.0575;
691842427140947;0.2262;0.0177;-0.0543;
691842437250009;0.2316;-0.0535;-0.0543;
691842447359124;0.1144;-0.2836;-0.0703;
691842457470738;0.1048;-0.5883;-0.0085;
691842467579801;0.1517;-0.3092;0.0415;
691842477688915;-0.0305;0.1679;0.0117;
691842487827509;-0.4799;0.1956;-0.0479;
691842497936572;-0.2073;0.0710;-0.0618;
691842508045686;0.3401;0.0561;-0.1012;
691842518127926;0.4519;0.0784;-0.1118;
691842528236988;0.3497;0.1264;-0.1097;
691842538346103;0.2687;0.2169;-0.0586;
691842548451519;0.2348;0.3746;-0.0341;
691842558560582;0.3230;0.6833;-0.0043;
691842568669644;0.4690;0.6887;0.0597;
691842578793915;0.5936;-0.2314;0.1225;
691842588902978;0.7704;-0.3497;0.1566;
691842599012040;0.2252;0.0475;0.1672;
691842609109280;-0.1530;-0.1686;0.1683;
691842619218342;-0.1104;-0.4764;0.1449;
691842629327457;-0.1402;-0.3955;0.1332;
691842639441780;-0.2989;-0.0823;0.1001;
691842649550842;-0.4160;0.0337;0.0991;
691842659659957;-0.2542;-0.0748;0.0767;
691842669767405;0.1442;0.0646;0.0192;
691842679876467;0.1357;0.2531;-0.0011;
691842689985530;0.1069;-0.0045;0.0320;
691842700105478;0.3358;-0.1877;0.0138;
691842710214592;0.3774;0.1168;-0.0011;
691842720323655;0.0025;0.2265;0.0298;
691842730425113;0.0707;0.1168;0.0479;
691842740534176;0.2103;0.1253;0.0628;
691842750643290;0.1570;0.0678;0.0607;
691842760743030;0.1325;-0.0429;0.0660;
691842770852092;0.0771;-0.1036;0.0362;
691842780961155;0.0345;-0.1356;0.0394;
691842791072092;-0.0039;-0.1601;0.0266;
691842801181155;-0.0081;-0.1558;0.0011;
691842811290269;-0.0049;-0.1526;-0.0213;
691842821391415;-0.0220;-0.0908;-0.0341;
691842831500478;-0.0593;0.0752;-0.0170;
691842841609540;-0.0848;0.0742;0.0096;
691842851720217;0.1399;0.0901;-0.0117;
691842861829280;0.2198;0.1221;-0.0597;
691842871938394;0.2571;0.0284;-0.0650;
691842882074957;0.3252;-0.1196;-0.0501;
691842892184072;0.1911;-0.1771;-0.0479;
691842902293186;-0.0145;0.0156;-0.0170;
691842912378134;-0.0656;0.2521;-0.0075;
691842922487197;-0.0859;0.2308;0.0085;
691842932596259;0.1517;0.0029;0.0383;
691842942719384;0.3241;-0.1622;0.0458;
691842952828499;0.2687;-0.0258;0.0224;
691842962937561;-0.0092;0.0752;0.0224;
691842973050322;0.0270;0.0008;0.0469;
691842983159436;0.0931;0.0136;0.0383;
691842993268499;0.0931;0.1967;0.0341;
691843003355842;0.1218;0.2041;0.0692;
691843013464905;0.0963;-0.1302;0.0810;
691843023573967;0.0941;-0.1952;0.0959;
691843033690842;0.0451;-0.0791;0.1257;
691843043799905;0.0505;-0.0940;0.1118;
691843053908967;0.0249;-0.1249;0.0756;
691843064015582;-0.0166;-0.0706;0.1055;
691843074124644;-0.0454;0.0379;0.0927;
691843084233707;0.0153;0.0731;0.0905;
691843094333915;0.0558;0.0262;0.0884;
691843104442978;0.0601;0.0379;0.0884;
691843114552092;0.0664;0.1115;0.1108;
691843124681780;0.0750;0.1072;0.1459;
691843134790842;0.0739;-0.0375;0.1193;
691843144899957;0.0483;-0.0120;0.0927;
691843154994280;0.0079;0.0710;0.1055;
691843165103342;-0.0358;0.0198;0.1150;
691843175212405;-0.0518;-0.0471;0.1055;
691843185333238;-0.0742;-0.0748;0.0746;
691843195442301;-0.0869;-0.0578;0.0746;
691843205551363;-0.1232;-0.1100;0.0586;
691843215662613;-0.1242;-0.1590;0.0842;
691843225771676;-0.1178;-0.2122;0.0916;
691843235880738;-0.0571;-0.0397;0.0213;
691843245989072;-0.1178;0.2904;-0.0117;
691843256098134;-0.2563;0.1913;0.0341;
691843266207197;-0.0007;-0.0056;0.0096;
691843276329280;0.1868;0.0040;-0.0117;
691843286438342;0.1389;0.0273;-0.0224;
691843296547405;-0.0198;0.0656;-0.0117;
691843306648447;-0.0103;0.1242;0.0224;
691843316757509;0.0356;0.1370;0.0650;
691843326866572;0.0515;0.1328;0.0735;
691843336964488;0.0441;0.1072;0.0490;
691843347073551;-0.0081;-0.0738;0.0671;
691843357182613;-0.0443;-0.1611;0.0522;
691843367293134;-0.0912;-0.1718;0.0554;
691843377402197;-0.1221;-0.2240;0.0394;
691843387511259;-0.1136;-0.1483;0.0394;
691843397628342;-0.1583;-0.0418;0.0181;
691843407737405;-0.1722;-0.0056;0.0245;
691843417846467;-0.0912;0.0699;0.0415;
691843427960999;0.0228;0.0656;-0.0021;
691843438070061;-0.0145;-0.0407;-0.0138;
691843448179124;-0.0443;0.0061;-0.0138;
691843458287301;-0.0561;0.0656;-0.0341;
691843468396363;-0.1040;-0.0216;-0.0362;
691843478505426;-0.0422;0.0273;-0.0277;
691843488599488;-0.0475;0.1019;-0.0224;
691843498708551;-0.0145;0.0486;-0.0128;
691843508817613;-0.0252;0.0040;-0.0064;
691843518938499;-0.0305;-0.0216;-0.0352;
691843529047561;-0.0273;-0.0130;-0.0586;
691843539156624;-0.0358;0.0146;-0.0682;
691843549260322;-0.0465;-0.0258;-0.0703;
691843559369384;-0.0656;-0.1324;-0.0746;
691843569478447;-0.0518;-0.1409;-0.0831;
691843579586415;-0.0316;-0.0620;-0.1001;
691843589695478;0.0047;-0.0375;-0.0980;
691843599804540;0.0132;-0.0514;-0.0937;
691843609930426;0.0526;-0.1100;-0.0916;
691843620039436;0.0057;-0.2272;-0.1619;
691843630148551;0.0601;-0.4136;-0.1449;
691843640235947;0.0366;-0.1803;-0.1715;
691843650345009;-0.3213;0.3192;-0.1854;
691843660454072;-0.4128;0.4278;-0.1342;
691843670568863;0.2348;0.2446;-0.1587;
691843680677926;0.6586;0.1178;-0.2067;
691843690786988;0.8290;0.1881;-0.1587;
691843700892144;0.6564;0.2190;-0.0714;
691843711001207;0.4296;0.1871;-0.0298;
691843721110269;0.3635;0.2563;0.0075;
691843731217405;0.2326;0.4651;0.0160;
691843741326467;0.2985;0.5802;0.0565;
691843751435530;0.3443;-0.3944;0.1609;
691843761548238;0.3273;-0.8566;0.1449;
691843771657301;-0.0326;-0.3326;0.1427;
691843781766363;-0.3458;-0.0940;0.1108;
691843791866988;-0.4383;-0.2826;0.0895;
691843801976051;-0.3341;-0.3156;0.0383;
691843812085113;-0.2883;0.0656;-0.0170;
691843822259384;-0.3766;0.3043;-0.0096;
691843832368447;-0.0838;0.1146;-0.0447;
691843842477509;0.2826;0.0326;-0.0735;
691843852518238;0.2676;0.1381;-0.0501;
691843862627301;0.0728;0.0411;-0.0352;
691843872736363;0.0920;-0.0844;-0.0021;
691843882848967;0.0824;0.0475;-0.0170;
691843892958030;0.0377;0.0838;-0.0330;
691843903067092;-0.1104;0.0166;-0.0724;
691843913171363;-0.0774;0.1509;-0.0597;
691843923280426;-0.0401;0.0550;-0.1087;
691843933389488;-0.0017;-0.2069;-0.1257;
691843943501988;-0.0593;-0.1899;-0.1523;
691843953611051;-0.1594;-0.0631;-0.1395;
691843963720113;-0.2393;-0.0450;-0.1406;
691843973854072;-0.1423;0.0348;-0.1672;
691843983963134;-0.0486;0.1562;-0.1896;
691843994072197;-0.0561;0.1690;-0.2663;
691844004180426;0.0803;0.1221;-0.2961;
691844014289488;0.1304;0.0230;-0.2834;
691844024398551;0.1900;0.0582;-0.2940;
691844034490217;0.1272;0.1466;-0.2599;
691844044599280;0.0281;0.0284;-0.2493;
691844054708342;0.1410;-0.0386;-0.2471;
691844064824749;0.1527;0.0486;-0.2386;
691844074933811;0.0888;0.0901;-0.2322;
691844085042874;0.0888;-0.0557;-0.2386;
691844095149384;0.0909;-0.0961;-0.2578;
691844105258447;0.0835;-0.0407;-0.2684;
691844115367509;0.0632;-0.1334;-0.2695;
691844125477405;0.0686;-0.1526;-0.2802;
691844135586467;0.1112;-0.0791;-0.2770;
691844145695530;0.1133;-0.0503;-0.2770;
691844155797509;0.1517;-0.0578;-0.2812;
691844165906572;0.2454;-0.0802;-0.2567;
691844176015634;0.3188;-0.1324;-0.2567;
691844186137301;0.3092;-0.0993;-0.2759;
691844196246363;0.3369;-0.1238;-0.2865;
691844206355426;0.4434;-0.1547;-0.2855;
691844216465947;0.3039;-0.0003;-0.2631;
691844226575009;0.1346;0.1413;-0.2450;
691844236684072;0.3390;0.0688;-0.2418;
691844246783499;0.5883;0.0603;-0.2333;
691844256892561;0.5659;0.1232;-0.1651;
691844267001624;0.4945;0.0763;-0.1470;
691844277114176;0.4903;0.1434;-0.1598;
691844287223238;0.4455;0.2265;-0.1268;
691844297332301;0.5329;0.1615;-0.1204;
691844307440738;0.5648;0.2499;-0.0937;
691844317549801;0.4636;0.1626;-0.0426;
691844327658863;0.5286;-0.2506;0.0309;
691844337765009;0.4083;-0.2485;0.0682;
691844347874072;0.1879;0.0072;0.0533;
691844357983134;0.1730;-0.0109;0.0778;
691844368120530;0.2879;-0.0589;0.0639;
691844378229592;0.2687;0.1306;0.0426;
691844388338655;0.2209;0.2670;0.0703;
691844398433759;0.3571;0.1924;0.0639;
691844408542822;0.3262;0.0593;0.0565;
691844418651884;0.2443;0.0326;0.0863;
691844428752613;0.2358;0.0752;0.1076;
691844438861676;0.2124;0.0156;0.1193;
691844448970738;0.2156;0.0072;0.1193;
691844459076363;0.2497;-0.0109;0.1087;
691844469185426;0.1953;-0.0088;0.0820;
691844479294488;0.1623;0.0561;0.1172;
691844489426676;0.2039;0.0571;0.1044;
691844499535738;0.2571;-0.0290;0.0692;
691844509644853;0.1921;-0.0045;0.0607;
691844519734592;0.1772;0.1210;0.0703;
691844529843655;0.1847;0.1200;0.0607;
691844539952769;0.2612;0.0603;0.0618;
691844550063915;0.2454;0.1445;0.1076;
691844560172978;0.2772;0.1850;0.0863;
691844570282040;0.2996;0.1487;0.0660;
691844580393811;0.2708;0.0955;0.0650;
691844590502926;0.2762;-0.0067;0.0586;
691844600611988;0.2390;-0.1281;0.0320;
691844610701780;0.1921;-0.2005;0.0149;
691844620810842;0.1378;-0.1313;0.0096;
691844630919905;0.0494;-0.0301;0.0234;
691844641039801;0.0238;0.0646;0.0543;
691844651148863;0.1762;0.1200;0.0213;
691844661257926;0.2401;0.1093;-0.0447;
691844671362197;0.2209;0.1115;-0.0032;
691844681471259;0.2220;0.0720;-0.0096;
691844691580322;0.2358;-0.0194;-0.0117;
691844701713811;0.1794;-0.0333;-0.0096;
691844711822874;0.1762;0.1093;-0.0128;
691844721931988;0.1740;0.1594;-0.0075;
691844732056155;0.2284;0.0156;-0.0021;
691844742165217;0.2220;-0.1622;0.0320;
691844752274332;0.1612;-0.2602;0.0383;
691844762331207;0.1570;-0.2208;-0.0160;
691844772440322;0.1122;-0.1707;-0.0075;
691844782549332;0.0750;-0.2442;-0.0202;
691844792698967;0.1399;-0.1590;-0.0469;
691844802808030;0.0707;0.1274;-0.0394;
691844812917144;0.1314;0.0337;-0.0469;
691844823018238;0.3784;-0.4072;-0.0767;
691844833127301;0.2794;-0.2005;-0.0842;
691844843236415;-0.3043;0.2968;0.0352;
691844853337926;-0.0561;0.3351;0.0597;
691844863446884;0.6160;0.2712;-0.0863;
691844873555947;0.6490;0.2212;-0.0884;
691844883665009;0.3230;0.2382;-0.0341;
691844893760738;0.2220;0.2350;-0.0011;
691844903869801;0.2751;0.0241;0.0149;
691844913978863;0.2348;-0.1164;-0.0160;
691844924101467;0.1570;-0.0727;-0.0362;
691844934210530;0.1783;0.2830;-0.0330;
691844944319592;0.2017;0.2595;0.0373;
691844954487353;0.4136;-0.5169;0.1161;
691844964596467;0.3976;-0.5638;0.0671;
691844974705530;0.1932;0.0603;0.0447;
691844984752197;-0.0454;0.1711;0.0511;
691844994861259;0.1346;-0.0983;0.0107;
691845004970322;0.3624;0.0019;-0.0394;
691845015080426;0.2166;0.3426;0.0011;
691845025189488;0.2518;0.4150;0.0490;
691845035298551;0.3891;0.2403;0.0756;
691845045410322;0.4658;0.1828;0.1257;
691845055519384;0.3720;0.1573;0.1300;
691845065628447;0.2241;0.0166;0.1438;
691845075728447;0.2060;-0.0024;0.1459;
691845085837509;0.2039;0.1019;0.1076;
691845095946572;0.1314;0.0859;0.1332;
691845106054072;0.1719;-0.1206;0.0842;
691845116163134;0.2337;-0.1345;0.0692;
691845126272197;0.1229;0.0008;0.0842;
691845136394592;-0.0028;-0.0322;0.1566;
691845146503655;0.1815;-0.0759;0.1928;
691845156612717;0.2060;0.0156;0.1310;
691845166725322;0.1250;0.1530;0.0586;
691845176834436;0.1751;0.2137;0.0884;
691845186943551;0.2284;0.1487;0.1257;
691845197048551;0.2220;0.1200;0.0756;
691845207157665;0.2198;-0.2091;0.0479;
691845217266780;0.1474;-0.3071;0.0320;
691845227387509;-0.0113;0.3650;-0.0128;
691845237496624;-0.4873;0.4619;0.0959;
691845247605738;0.1985;-0.1260;0.1193;
691845257709905;0.6916;-0.1441;0.0266;
691845267819019;0.1197;0.3490;-0.0096;
691845277928134;-0.2830;0.2861;0.0756;
691845288005165;0.1559;-0.1004;0.0565;
691845298114332;0.2252;0.0093;0.0096;
691845308223394;-0.0081;0.1690;0.0075;
691845318353655;0.0462;0.1370;-0.0192;
691845328462769;0.1463;0.4118;-0.0341;
691845338571884;0.1964;0.2137;0.0075;
691845348683238;0.2847;-0.3188;0.0948;
691845358792353;0.1858;-0.3390;0.0927;
691845368901467;0.0824;-0.0812;0.0309;
691845379023030;0.0494;0.0326;0.0426;
691845389132144;0.1027;-0.1632;0.0714;
691845399241259;0.1847;-0.0354;0.0362;
691845409338863;0.1474;0.1658;-0.0032;
691845419447978;0.1336;-0.3848;-0.0820;
691845429557092;0.2188;-0.3795;-0.0927;
691845439666676;-0.1807;0.3490;-0.0096;
691845449775790;-0.2979;0.3437;0.1087;
691845459884905;0.6351;-0.0429;0.0117;
691845469987509;0.9290;0.0008;-0.0905;
691845480096624;0.2879;0.2425;-0.0266;
691845490205738;0.0888;0.1072;0.0469;
691845500317769;0.3656;-0.0770;0.0309;
691845510426884;0.2582;0.0390;0.0096;
691845520535999;0.1367;0.0795;-0.0447;
691845530644905;0.2007;0.0795;-0.0756;
691845540754019;0.1911;0.6567;-0.1076;
691845550863134;0.3156;0.3937;-0.0234;
691845560967665;0.7587;-0.6691;0.0533;
691845571076780;0.7086;-0.4913;0.0469;
691845581185894;0.1208;0.1615;0.0096;
691845591293967;-0.0475;0.1242;0.0245;
691845601403082;0.3454;-0.1771;0.0352;
691845611512197;0.4530;-0.0162;-0.0597;
691845621657092;0.2060;0.3415;-0.0426;
691845631766207;0.3475;0.1828;-0.0138;
691845641875322;0.5063;-0.0525;0.0075;
691845651951155;0.3443;0.1903;0.0043;
691845662060217;0.2943;0.1945;0.0181;
691845672169332;0.3848;-0.1387;0.0597;
691845682289853;0.3326;0.0848;0.0628;
691845692398967;0.2687;-0.0035;0.0170;
691845702508082;0.2889;-0.3987;0.0245;
691845712605634;0.2166;-0.1313;-0.0085;
691845722714749;-0.1232;0.2212;0.0032;
691845732823863;0.0089;0.0987;0.0053;
691845742925061;0.5212;0.0411;-0.0639;
691845753034176;0.4296;0.1711;-0.0778;
691845763143290;0.2443;0.1668;0.0128;
691845773277561;0.3379;0.0795;0.0948;
691845783386676;0.3774;0.1423;0.0501;
691845793495790;0.3763;0.2009;0.0170;
691845803571363;0.3305;-0.1025;0.0565;
691845813680478;0.3145;0.0997;0.0298;
691845823789592;0.2550;0.6525;0.0181;
691845833914488;0.4604;0.1850;0.0884;
691845844023603;0.6820;-0.3614;0.1001;
691845854132717;0.4818;-0.0067;0.0991;
691845864247092;0.2316;0.1881;0.1246;
691845874356207;0.3326;-0.0663;0.1864;
691845884465322;0.3486;-0.1366;0.1864;
691845894585842;0.2708;0.0688;0.1310;
691845904694957;0.3230;0.1306;0.1672;
691845914804072;0.3007;0.0688;0.1736;
691845924904280;0.3326;0.1668;0.1438;
691845935013394;0.3124;0.2702;0.1545;
691845945122509;0.3294;0.0241;0.1960;
691845955228759;0.2443;-0.1718;0.2310;
691845965337874;0.2539;0.0454;0.1790;
691845975446988;0.1815;0.1051;0.2109;
691845985558238;0.2028;-0.0951;0.2226;
691845995667353;0.2676;-0.0226;0.1843;
691846005776467;0.1602;0.1573;0.1758;
691846015880530;0.1559;0.0752;0.1822;
691846025989644;0.2868;0.0987;0.1715;
691846036098759;0.2369;0.1690;0.1619;
691846046210217;0.2230;0.1221;0.1459;
691846056319332;0.2623;0.0933;0.1587;
691846066428447;0.2305;0.0337;0.1545;
691846076536572;0.2422;0.0710;0.1662;
691846086645686;0.2582;0.1168;0.2045;
691846096754801;0.2655;0.0177;0.1822;
691846106858030;0.2252;0.0294;0.1704;
691846116967144;0.2507;0.1083;0.1981;
691846127076259;0.2252;-0.0674;0.2120;
691846137192249;0.2177;-0.0802;0.1928;
691846147301363;0.1570;0.0880;0.1662;
691846157410478;0.2028;-0.0535;0.1566;
691846167531051;0.1794;-0.2048;0.2024;
691846177640165;0.0526;-0.0344;0.1768;
691846187749280;-0.0220;0.1200;0.1822;
691846197850530;0.1069;0.0497;0.2045;
691846207959644;0.2145;-0.0067;0.1971;
691846218068759;0.0931;-0.0365;0.1427;
691846228182092;0.0249;-0.0344;0.1363;
691846238291207;-0.1232;0.0401;0.1928;
691846248400322;-0.1093;0.0933;0.1449;
691846258503499;-0.0071;0.1242;0.0788;
691846268612613;-0.1200;0.2808;0.0852;
691846278721728;-0.0806;0.3959;0.0820;
691846288861884;0.1463;0.2787;0.0746;
691846298970999;0.1080;0.0188;0.0927;
691846309080113;-0.0294;-0.0035;0.1321;
691846319159592;-0.0571;0.1115;0.1236;
691846329268707;0.0217;0.0507;0.0980;
691846339377822;0.0846;0.0241;0.0724;
691846349489488;0.0835;0.1945;0.0916;
691846359598603;0.0686;0.1221;0.0778;
691846369707717;0.0142;-0.4434;0.0607;
691846379805113;0.0846;-0.5137;0.0415;
691846389914228;0.0963;-0.2197;0.0469;
691846400023342;-0.1498;-0.2218;0.0437;
691846410143082;0.0217;-0.0003;0.0447;
691846420252197;0.2804;0.2233;0.0128;
691846430361311;0.3465;-0.0578;0.0192;
691846440463342;0.4200;-0.1782;0.0075;
691846450572457;0.3337;0.0284;0.0511;
691846460681572;0.1602;0.1498;0.0959;
691846470795686;0.2687;0.1264;0.0671;
691846480904801;0.3987;-0.0152;0.0575;
691846491013915;0.3230;-0.0099;0.0490;
691846501123811;0.1783;0.6174;0.0405;
691846511232874;0.2539;0.6280;0.1044;
691846521341988;0.5233;-0.3092;0.1704;
691846531444749;0.6575;-0.3561;0.1896;
691846541553863;0.2177;0.1168;0.1811;
691846551662978;-0.0411;0.1104;0.1438;
691846561775947;0.0505;-0.0557;0.1630;
691846571885061;0.2358;-0.1164;0.1928;
691846581994176;0.1229;-0.1036;0.1726;
691846592094592;0.0569;0.0125;0.1534;
691846602203707;-0.0156;0.0497;0.1662;
691846612312822;0.0558;0.1200;0.1609;
691846622440842;0.1314;0.2521;0.1587;
691846632549957;0.1485;0.0507;0.1609;
691846642659072;0.1740;-0.0471;0.1651;
691846652752405;0.1357;0.1605;0.1790;
691846662861519;0.1027;0.0529;0.1619;
691846672970634;0.1336;-0.0557;0.1395;
691846683088394;0.1250;0.1019;0.1289;
691846693197509;0.1059;-0.0045;0.1438;
691846703306624;0.0814;-0.1260;0.1225;
691846713434176;0.0782;0.0806;0.0884;
691846723543290;0.0217;0.0624;0.1140;
691846733652405;0.0707;-0.1547;0.1161;
691846743741155;0.1218;-0.0290;0.1204;
691846753850269;-0.0071;0.0955;0.1129;
691846763959384;0.0217;0.0061;0.0937;
691846774067249;0.1410;-0.0109;0.1001;
691846784176363;0.0995;0.0401;0.0671;
691846794285478;0.0696;0.0305;0.0831;
691846804415061;0.0686;0.0454;0.0618;
691846814524176;0.0760;0.0337;0.0639;
691846824633290;0.0728;0.0051;0.0597;
691846834724488;0.0569;0.0454;0.0597;
691846844833603;0.0419;0.1029;0.0671;
691846854942717;0.0206;0.0848;0.0437;
691846865066363;0.0142;-0.2048;0.0117;
691846875175478;0.0324;-0.2762;0.0447;
691846885284592;0.0441;-0.0780;0.0298;
691846895384072;-0.1157;0.0699;-0.0149;
691846905493186;-0.3627;0.1296;-0.0352;
691846915602301;-0.1722;0.2478;-0.0437;
691846925713499;0.0569;0.2979;-0.0682;
691846935822613;0.0483;0.1072;-0.0799;
691846945931728;-0.0060;-0.0397;-0.0735;
691846956058551;-0.0092;0.0827;-0.0905;
691846966167665;-0.0582;0.0891;-0.0873;
691846976276780;-0.1562;-0.2112;-0.0831;
691846986362613;0.0100;0.1647;-0.1268;
691846996471728;0.1495;0.7494;-0.1715;
691847006580842;-0.0284;0.0678;-0.1470;
691847016684801;-0.0379;-0.4136;-0.1214;
691847026793915;0.1431;0.0912;-0.1214;
691847036903030;0.0387;-0.0109;-0.1843;
691847047016572;-0.1029;-0.4498;-0.1981;
691847057125686;0.0558;-0.2346;-0.2194;
691847067234801;0.1133;0.1253;-0.2216;
691847077340634;0.1197;0.1509;-0.2322;
691847087449749;0.1229;-0.0578;-0.2194;
691847097558863;0.2836;0.0422;-0.1992;
691847107688447;0.4083;0.2585;-0.1896;
691847117797561;0.3092;0.0752;-0.2162;
691847127906676;0.2507;-0.1206;-0.1630;
691847137986780;0.2655;-0.0248;-0.1449;
691847148095894;0.2230;-0.0567;-0.1332;
691847158205009;0.1666;-0.1505;-0.1214;
691847168327665;0.2177;-0.0237;-0.1065;
691847178436780;0.2390;0.0507;-0.1076;
691847188545894;0.1975;-0.0184;-0.1172;
691847198655999;0.1889;0.0061;-0.0927;
691847208765113;0.2081;0.0220;-0.1044;
691847218874228;0.2060;-0.0322;-0.1033;
691847228983238;0.2166;0.0072;-0.0863;
691847239092353;0.2369;0.0965;-0.0554;
691847249201467;0.2687;0.0518;-0.0586;
691847259308238;0.3060;0.0146;-0.0437;
691847269417353;0.2985;0.0656;-0.0277;
691847279526467;0.2794;0.0411;-0.0415;
691847289652561;0.3305;0.0294;-0.0405;
691847299761676;0.3379;0.0326;-0.0320;
691847309870790;0.3592;-0.0450;-0.0064;
691847319957405;0.3891;-0.0024;0.0160;
691847330066519;0.4264;0.0763;0.0085;
691847340175634;0.4381;0.0379;-0.0000;
691847350293342;0.4796;0.0273;0.0383;
691847360402457;0.4860;0.0688;0.0618;
691847370511572;0.4573;0.0518;0.0820;
691847380613863;0.3603;0.1636;0.0831;
691847390722978;0.3156;0.0093;0.0458;
691847400832092;0.4157;-0.2485;0.0980;
691847410949072;0.4786;0.0326;0.1459;
691847421058186;0.3284;0.3554;0.1726;
691847431167301;0.3294;0.2936;0.1662;
691847441265009;0.4594;0.0763;0.1577;
691847451374124;0.5020;0.0646;0.1502;
691847461483238;0.3571;0.1924;0.1939;
691847471593863;0.2188;0.1668;0.2035;
691847481702978;0.2730;0.0976;0.2152;
691847491812092;0.2273;0.0923;0.2035;
691847501938655;0.1122;-0.0301;0.2130;
691847512047769;0.0877;0.1977;0.1854;
691847522156884;0.1889;0.6951;0.1811;
691847532256155;0.0782;0.0146;0.2205;
691847542365269;0.0270;-0.5190;0.2280;
691847552474384;0.0334;-0.1047;0.2056;
691847562572144;-0.0326;0.0561;0.1481;
691847572681259;-0.0454;-0.0791;0.1300;
691847582790374;-0.1019;-0.1324;0.1001;
691847592900842;-0.0901;-0.0567;0.0948;
691847603009957;0.0079;0.0763;0.0863;
691847613119072;0.0409;0.0369;0.0565;
691847623243447;0.0409;-0.0120;0.0405;
691847633352561;0.0622;0.0955;0.0692;
691847643461676;0.0270;0.0433;0.0458;
691847653561572;0.0867;0.0146;0.0309;
691847663670686;0.1293;0.1210;0.0053;
691847673779801;0.0771;0.0518;0.0085;
691847683887665;0.0473;-0.0258;0.0064;
691847693996780;0.0846;-0.0205;0.0096;
691847704105894;0.0377;-0.0663;-0.0043;
691847714237301;0.0590;-0.0759;-0.0245;
691847724346415;0.1091;-0.0067;-0.0160;
691847734455530;0.1016;-0.0738;-0.0213;
691847744544332;0.1176;-0.1941;0.0096;
691847754653447;0.1847;-0.0706;0.0138;
691847764762561;0.2443;0.0348;0.0138;
691847774874592;0.2612;-0.0205;-0.0213;
691847784983707;0.3411;0.1690;0.0245;
691847795092822;0.2166;0.4449;0.0277;
691847805193915;0.1389;-0.0088;-0.0181;
691847815303030;0.2401;-0.3177;0.0043;
691847825412144;0.1676;-0.3688;0.0458;
691847835525113;0.3347;-0.1675;0.1363;
691847845634228;0.3007;0.1764;0.0991;
691847855743342;0.0494;0.2031;0.0341;
691847865869176;0.1506;-0.1185;0.0522;
691847875978290;0.3060;-0.1835;0.1055;
691847886087405;0.2582;0.0454;0.1097;
691847896177665;0.0601;0.1615;0.1268;
691847906286780;0.1431;-0.0013;0.1087;
691847916395894;0.1325;-0.2059;0.0820;
691847926516572;0.1666;0.5343;0.0011;
691847936625686;-0.1945;1.2117;0.0543;
691847946734801;-0.1541;0.5493;0.1502;
691847956841051;0.7981;0.1232;0.1555;
691847966950165;1.1698;0.2616;0.1864;
691847977059280;0.4359;0.3064;0.1694;
691847987165947;0.0601;0.4843;0.1822;
691847997275061;0.0068;0.1157;0.2226;
691848007384176;-0.1892;-0.3763;0.2289;
691848017489592;-0.1860;-0.1877;0.2099;
691848027598707;-0.2371;-0.0834;0.1662;
691848037707822;-0.2702;-0.2027;0.1023;
691848047820947;-0.2095;-0.1526;0.0735;
691848057930061;-0.1455;-0.1057;0.0522;
691848068039176;0.0079;-0.0908;0.0543;
691848078137197;0.1314;-0.1174;0.0501;
691848088246311;0.1389;-0.0482;0.0128;
691848098355426;0.1932;0.2009;-0.0085;
691848108491363;0.2889;0.2425;0.0117;
691848118600478;0.3454;-0.0344;0.0266;
691848128709592;0.3422;-0.0194;0.0373;
691848138802613;0.2273;0.1786;0.0597;
691848148911728;0.1240;-0.0088;0.0533;
691848159020842;0.1474;-0.1004;0.0138;
691848169130322;0.1591;-0.0130;0.0426;
691848179239436;0.1442;-0.0716;0.0597;
691848189348551;0.1165;-0.0333;0.0362;
691848199459176;0.1304;0.0635;0.0043;
691848209568290;0.1101;-0.0248;0.0064;
691848219677405;0.1016;0.0241;0.0107;
691848229783863;0.1165;0.1051;0.0256;
691848239892978;0.0856;-0.0056;0.0128;
691848250002092;0.1176;-0.0493;0.0053;
691848260102613;0.1538;-0.0184;0.0181;
691848270211728;0.1559;0.0136;0.0213;
691848280320842;0.1676;-0.0301;0.0117;
691848290436363;0.1783;-0.0631;0.0202;
691848300545478;0.1687;-0.0929;0.0011;
691848310654592;0.1538;-0.0876;-0.0085;
691848320759488;0.1517;0.0093;0.0075;
691848330868603;0.1442;-0.0258;-0.0245;
691848340977717;0.1272;-0.1398;-0.0181;
691848351098238;0.1389;-0.0493;-0.0117;
691848361207353;0.1591;0.0486;-0.0043;
691848371316467;0.1804;0.0284;-0.0298;
691848381423134;0.2103;0.0337;-0.0096;
691848391532249;0.2113;0.0262;0.0085;
691848401641363;0.2454;0.0136;-0.0021;
691848411734905;0.2198;0.0305;-0.0213;
691848421844019;0.2039;0.0115;0.0117;
691848431953134;0.2017;-0.0397;0.0138;
691848442083499;0.1794;-0.0493;0.0085;
691848452192613;0.1591;0.0093;0.0160;
691848462301728;0.1623;0.0688;0.0330;
691848472382613;0.1740;-0.0003;0.0277;
691848482491728;0.1943;0.0136;0.0692;
691848492600790;0.1282;0.0019;0.0021;
691848502731051;0.2134;-0.4072;0.0096;
691848512840165;0.2454;-0.3561;0.0330;
691848522949280;0.0100;0.1551;0.0479;
691848533067301;-0.3234;0.2084;0.0937;
691848543176415;0.1421;-0.0184;0.0405;
691848553285530;0.5787;-0.0812;0.0043;
691848563386155;0.3795;0.0166;0.0298;
691848573495269;0.0792;0.0305;0.1012;
691848583604384;0.1858;-0.0397;0.0991;
691848593723759;0.2518;0.0230;0.1001;
691848603832874;0.1836;0.0763;0.1225;
691848613941988;0.1911;-0.0589;0.1246;
691848624047249;0.1357;0.6887;0.0458;
691848634156363;0.1698;0.7590;0.0895;
691848644265478;0.8226;-0.6968;0.1907;
691848654352249;1.3732;-0.6947;0.1577;
691848664461363;0.3507;0.1274;0.1854;
691848674570478;-0.4905;0.1040;0.2205;
691848684692092;0.0313;-0.2176;0.2162;
691848694801207;0.3454;-0.1036;0.1491;
691848704910322;0.0760;0.2222;0.1694;
691848715025009;0.1911;0.1519;0.1843;
691848725134124;0.4541;-0.1196;0.1619;
691848735243238;0.3731;0.0507;0.1044;
691848745355842;0.1463;0.2244;0.1704;
691848755464957;0.2443;0.0008;0.1630;
691848765574072;0.3188;0.0209;0.1321;
