Sensor: bmi160 Gyroscope Non-wakeup
Vendor: BOSCH
TimestampGyro [ns]; GyroX [rad/s]; GyroY [rad/s]; GyroZ [rad/s]
598103897928357;-0.0064;0.0052;0.0100;
598103908025076;-0.0011;0.0052;0.0025;
598103918139399;0.0000;0.0041;0.0057;
598103928246951;0.0011;0.0020;0.0079;
598103938321951;0.0000;0.0031;0.0068;
598103948459087;0.0011;0.0009;0.0047;
598103958514555;0.0011;0.0009;0.0036;
598103968670337;0.0021;-0.0001;0.0047;
598103978756378;0.0021;0.0020;0.0036;
598103988857107;0.0000;0.0020;0.0015;
598103998961274;0.0011;-0.0001;0.0004;
598104009067889;0.0011;-0.0001;0.0004;
598104019173305;0.0011;-0.0001;0.0004;
598104029272732;0.0011;0.0009;0.0004;
598104039373878;0.0011;-0.0001;-0.0017;
598104049484816;0.0000;-0.0001;-0.0017;
598104059593253;0.0011;-0.0012;-0.0028;
598104069692420;0.0011;-0.0001;-0.0028;
598104079797420;0.0021;-0.0001;-0.0039;
598104089900962;0.0000;-0.0001;-0.0028;
598104100009503;0.0011;-0.0001;-0.0049;
598104110112941;0.0000;-0.0001;-0.0039;
598104120215805;0.0000;-0.0012;-0.0017;
598104130324972;0.0000;-0.0001;-0.0017;
598104140424139;0.0011;-0.0012;-0.0017;
598104150525753;0.0000;-0.0012;-0.0017;
598104160635128;0.0000;0.0009;-0.0007;
598104170738462;0.0011;0.0009;-0.0007;
598104180846795;-0.0011;0.0020;0.0004;
598104190942316;0.0000;0.0020;0.0004;
598104201054816;0.0000;-0.0001;0.0004;
598104211150180;0.0011;-0.0012;0.0015;
598104221263878;0.0011;-0.0001;0.0015;
598104231381118;0.0000;-0.0001;0.0015;
598104241473462;0.0021;0.0009;0.0015;
598104251578566;0.0000;0.0009;0.0015;
598104261682420;-0.0011;-0.0001;0.0004;
598104271852732;0.0000;0.0009;0.0004;
598104281894555;0.0000;-0.0001;0.0004;
598104291995337;-0.0011;0.0009;0.0004;
598104302102837;0.0011;0.0009;0.0004;
598104312186118;0.0000;-0.0001;-0.0007;
598104322315545;0.0000;0.0009;0.0004;
598104332414816;0.0000;0.0020;-0.0007;
598104342516639;0.0000;0.0009;-0.0007;
598104352638045;0.0021;0.0009;0.0004;
598104362723878;0.0000;0.0009;0.0015;
598104372833149;-0.0011;0.0020;0.0015;
598104382937472;0.0000;0.0020;0.0036;
598104393042524;0.0011;0.0020;0.0047;
598104403147316;0.0011;0.0020;0.0057;
598104413244139;0.0032;0.0031;0.0057;
598104423366795;0.0021;0.0041;0.0079;
598104433478409;0.0011;0.0031;0.0089;
598104443564712;0.0043;0.0031;0.0111;
598104453666899;0.0053;0.0063;0.0111;
598104463793722;0.0085;0.0084;0.0132;
598104473915909;0.0426;0.0158;0.0057;
598104483990545;0.0160;0.0052;0.0153;
598104494094399;0.0021;-0.0001;0.0206;
598104504192420;-0.0011;0.0020;0.0249;
598104514289139;-0.0021;0.0052;0.0281;
598104524420024;-0.0011;0.0063;0.0292;
598104534505753;0.0000;0.0073;0.0324;
598104544604816;-0.0053;0.0020;0.0356;
598104554736326;-0.0043;-0.0001;0.0387;
598104564820337;-0.0064;0.0041;0.0441;
598104574911795;-0.0053;0.0084;0.0483;
598104585035128;-0.0096;0.0095;0.0515;
598104595122316;-0.0085;0.0148;0.0558;
598104605239399;-0.0117;0.0158;0.0601;
598104615404191;-0.0149;0.0148;0.0654;
598104625444868;-0.0160;0.0190;0.0707;
598104635565701;-0.0213;0.0244;0.0760;
598104645658826;-0.0234;0.0276;0.0824;
598104655763357;-0.0202;0.0265;0.0909;
598104665869607;-0.0277;0.0244;0.0984;
598104675971014;-0.0394;0.0222;0.1059;
598104686072680;-0.0522;0.0190;0.1101;
598104696174451;-0.0565;0.0190;0.1165;
598104706299191;-0.0565;0.0265;0.1229;
598104716381222;-0.0511;0.0308;0.1282;
598104726534243;-0.0437;0.0329;0.1325;
598104736607003;-0.0352;0.0329;0.1378;
598104746726951;-0.0320;0.0286;0.1410;
598104756826691;-0.0362;0.0233;0.1463;
598104766912889;-0.0362;0.0190;0.1506;
598104777013982;-0.0341;0.0190;0.1527;
598104787120753;-0.0341;0.0212;0.1549;
598104797226899;-0.0352;0.0254;0.1559;
598104807337576;-0.0352;0.0254;0.1570;
598104817452993;-0.0352;0.0254;0.1581;
598104827539191;-0.0352;0.0244;0.1591;
598104837658462;-0.0352;0.0222;0.1602;
598104847743774;-0.0352;0.0222;0.1602;
598104857876847;-0.0341;0.0222;0.1581;
598104867958045;-0.0330;0.0244;0.1581;
598104878064295;-0.0330;0.0254;0.1581;
598104888169920;-0.0341;0.0254;0.1581;
598104898275545;-0.0288;0.0222;0.1591;
598104908378462;-0.0288;0.0180;0.1559;
598104918490649;-0.0309;0.0169;0.1570;
598104928588982;-0.0277;0.0180;0.1581;
598104938700337;-0.0234;0.0137;0.1581;
598104948795962;-0.0181;0.0137;0.1623;
598104958928045;0.0011;0.0137;0.1655;
598104969014399;0.0373;0.0169;0.1698;
598104979122055;0.0767;0.0169;0.1783;
598104989229712;0.1204;0.0180;0.1868;
598104999327212;0.1822;0.0190;0.1985;
598105009434868;0.2567;0.0180;0.2113;
598105019542576;0.3387;0.0158;0.2273;
598105029642107;0.4314;0.0169;0.2443;
598105039749764;0.5049;0.0137;0.2475;
598105049857420;0.5293;0.0105;0.2539;
598105059957680;0.4378;-0.0065;0.2539;
598105070065337;0.3068;-0.0182;0.2624;
598105080172993;0.2045;-0.0087;0.2603;
598105090263149;0.1268;0.0095;0.2603;
598105100370805;0.0128;0.0212;0.2326;
598105110478514;-0.0671;0.0435;0.2103;
598105120578670;-0.0330;0.0776;0.2060;
598105130686326;-0.0415;0.0819;0.2166;
598105140794034;-0.0788;0.0648;0.2209;
598105150889191;-0.0703;0.0585;0.2071;
598105160996847;-0.0277;0.0489;0.1943;
598105171104555;-0.0096;0.0190;0.1932;
598105181207680;0.0107;-0.0023;0.2081;
598105191315337;0.0320;-0.0023;0.2092;
598105201422993;0.0256;-0.0023;0.1900;
598105211537003;0.0298;0.0063;0.1751;
598105221644659;0.0373;0.0286;0.1666;
598105231752368;0.0437;0.0425;0.1538;
598105241844087;0.0341;0.0414;0.1442;
598105251951743;-0.0011;0.0329;0.1357;
598105262059399;0.0000;0.0414;0.1250;
598105272139868;0.0320;0.0457;0.1122;
598105282247472;0.0224;0.0276;0.1048;
598105292355180;0.0362;0.0169;0.0984;
598105302463357;0.0916;0.0297;0.0888;
598105312571014;0.0927;0.0286;0.0888;
598105322678722;0.0991;0.0297;0.0888;
598105332779087;0.1150;0.0446;0.0846;
598105342886743;0.1193;0.0553;0.0771;
598105352994451;0.1012;0.0276;0.0803;
598105363091378;0.1076;-0.0023;0.0856;
598105373199034;0.1140;0.0031;0.0814;
598105383306691;0.1161;-0.0023;0.0750;
598105393422212;0.1140;-0.0438;0.0824;
598105403529868;0.1300;-0.0587;0.0909;
598105413637576;0.1566;-0.0140;0.0846;
598105423724712;0.1715;0.0340;0.0739;
598105433832368;0.1268;0.0403;0.0739;
598105443940024;0.1172;0.0457;0.0782;
598105454053409;0.1321;0.0606;0.0792;
598105464161066;0.1214;0.0340;0.0846;
598105474268774;0.1214;-0.0289;0.0995;
598105484350857;0.1332;-0.0566;0.1048;
598105494458514;0.1353;-0.0523;0.1048;
598105504566222;0.1268;-0.0332;0.1154;
598105514666482;0.1289;0.0126;0.1165;
598105524774139;0.1236;0.0393;0.1165;
598105534881847;0.0724;0.0169;0.1112;
598105544974347;-0.0032;-0.0236;0.1080;
598105555082003;-0.0085;-0.0150;0.1037;
598105565189712;0.0021;0.0105;0.1005;
598105575304087;-0.0458;0.0084;0.1122;
598105585411743;-0.1053;0.0031;0.1208;
598105595519451;-0.1597;0.0265;0.1037;
598105605589972;-0.2214;0.0318;0.0867;
598105615697628;-0.3109;0.0095;0.0814;
598105625805337;-0.3823;0.0148;0.0686;
598105635936795;-0.4505;-0.0055;0.0569;
598105646044451;-0.5314;-0.0459;0.0590;
598105656152159;-0.5900;-0.0459;0.0462;
598105666218982;-0.6369;-0.0332;0.0260;
598105676326639;-0.7124;-0.0268;0.0057;
598105686434347;-0.7763;-0.0044;-0.0166;
598105696556326;-0.8274;-0.0523;-0.0134;
598105706663982;-0.8849;-0.0768;-0.0113;
598105716771691;-0.9361;-0.0491;-0.0422;
598105726862420;-0.9797;-0.0662;-0.0752;
598105736970076;-1.0138;-0.0342;-0.1115;
598105747077784;-1.0383;0.0606;-0.1360;
598105757194503;-1.0809;0.1064;-0.1391;
598105767302159;-1.1022;0.0947;-0.1498;
598105777409868;-1.0437;0.0915;-0.1796;
598105787487680;-0.9542;0.1107;-0.2040;
598105797595337;-0.8466;0.0670;-0.2200;
598105807702993;-0.7017;-0.0640;-0.2072;
598105817793357;-0.5122;-0.1312;-0.1838;
598105827901014;-0.3184;-0.0704;-0.1796;
598105838008722;-0.2577;-0.0406;-0.1869;
598105848138878;-0.2246;-0.0246;-0.2125;
598105858246534;-0.1021;0.0286;-0.2242;
598105868354243;-0.0330;0.0776;-0.1965;
598105878431014;0.0554;0.1447;-0.1711;
598105888538670;0.0479;0.1490;-0.1818;
598105898646378;0.0298;0.0403;-0.2040;
598105908751170;0.0288;-0.0907;-0.2221;
598105918858826;0.1055;-0.0875;-0.1912;
598105928966534;0.1268;0.0095;-0.1754;
598105939074191;0.0469;0.0830;-0.2029;
598105949181847;0.0405;0.0585;-0.2604;
598105959289555;0.0170;-0.0150;-0.2668;
598105969377628;-0.0138;-0.0417;-0.2818;
598105979482889;-0.0053;-0.0534;-0.2945;
598105989588149;0.0064;-0.0694;-0.3222;
598105999693878;-0.0394;-0.1013;-0.3648;
598106009799139;-0.0607;-0.0800;-0.3893;
598106019904399;-0.0234;-0.0353;-0.4138;
598106030008670;0.0256;0.0350;-0.4394;
598106040113930;0.0256;0.1181;-0.4618;
598106050219191;0.0000;0.1330;-0.4565;
598106060327732;0.0692;0.0670;-0.4767;
598106070432993;0.0959;0.0776;-0.4991;
598106080538253;0.0991;0.1767;-0.5449;
598106090635545;0.1289;0.1703;-0.5790;
598106100740805;0.1118;0.0574;-0.5821;
598106110846066;0.1023;0.0084;-0.6184;
598106120937420;0.1363;0.1469;-0.6642;
598106131042680;0.0820;0.1437;-0.6897;
598106141147941;0.1321;-0.0310;-0.7025;
598106151259816;0.1832;-0.0119;-0.7281;
598106161365076;0.2471;0.1000;-0.7153;
598106171470337;0.3824;0.1298;-0.6652;
598106181578982;0.5794;0.0308;-0.6098;
598106191684243;0.7732;-0.0119;-0.5534;
598106201789503;0.8307;0.0670;-0.5214;
598106211908982;0.8734;0.0329;-0.4863;
598106222014243;0.9607;-0.0182;-0.4383;
598106232119503;0.9362;0.0148;-0.3702;
598106242201795;0.8797;0.0340;-0.3222;
598106252307055;0.9277;0.0734;-0.2967;
598106262412316;0.9373;0.0776;-0.2285;
598106272512316;0.9639;0.0648;-0.1391;
598106282617576;0.9362;0.0830;-0.0465;
598106292722837;0.8872;0.0414;-0.0007;
598106302816587;0.8201;-0.0342;0.0238;
598106312921847;0.7061;-0.0065;0.0643;
598106323027159;0.6284;0.0116;0.1165;
598106333141534;0.5463;-0.0236;0.1293;
598106343246795;0.4794;0.0095;0.1410;
598106353352055;0.3845;0.1149;0.1581;
598106363478566;0.3643;0.1330;0.1762;
598106373583826;0.3558;0.0979;0.2092;
598106383689087;0.2812;0.0521;0.2507;
598106393793253;0.2375;0.0276;0.2475;
598106403898514;0.2088;-0.0268;0.2390;
598106414003774;0.2003;-0.0449;0.2465;
598106424101587;0.1726;-0.0193;0.2454;
598106434206847;0.1822;0.0254;0.2486;
598106444312107;0.1790;0.0734;0.2284;
598106454411066;0.1694;0.1362;0.2124;
598106464516326;0.1449;0.0979;0.2262;
598106474621587;0.1055;0.0318;0.2124;
598106484712732;0.0991;0.0350;0.1730;
598106494817993;0.1076;0.0957;0.1612;
598106504923253;0.1001;0.0553;0.1602;
598106515046066;0.0799;-0.0278;0.1719;
598106525151326;0.0224;-0.0076;0.1602;
598106535256587;-0.0021;0.0414;0.1304;
598106545366847;-0.0213;0.0372;0.1165;
598106555472159;-0.0925;-0.0353;0.1229;
598106565577420;-0.2023;-0.0768;0.1101;
598106575667003;-0.3312;-0.0236;0.1027;
598106585772264;-0.4430;0.0158;0.0846;
598106595877524;-0.5517;0.0201;0.0654;
598106606010128;-0.6816;-0.0023;0.0537;
598106616115441;-0.8040;0.0052;0.0782;
598106626220701;-0.9265;0.0212;0.0622;
598106636270701;-1.0245;0.0265;0.0238;
598106646375962;-1.1385;0.0073;0.0089;
598106656481222;-1.2311;-0.0577;0.0185;
598106666607107;-1.3226;-0.0981;0.0260;
598106676712368;-1.3194;-0.0523;-0.0124;
598106686817628;-1.2801;0.0329;-0.0145;
598106696936482;-1.1981;0.0563;-0.0390;
598106707041743;-1.1172;0.0521;-0.0241;
598106717147003;-1.0959;0.0254;-0.0241;
598106727221899;-1.0330;0.0095;-0.0305;
598106737327159;-0.9702;0.0116;-0.0486;
598106747432420;-0.9169;-0.0395;-0.0699;
598106757534295;-0.8072;-0.0332;-0.0667;
598106767639555;-0.6667;-0.0087;-0.0667;
598106777744816;-0.5815;-0.0076;-0.0859;
598106787863566;-0.4334;0.0244;-0.0763;
598106797968826;-0.3322;0.0467;-0.0965;
598106808074087;-0.2768;0.0297;-0.0891;
598106818178670;-0.2150;0.0265;-0.0901;
598106828283930;-0.1810;0.0499;-0.1115;
598106838389191;-0.2023;0.0403;-0.1253;
598106848491222;-0.2140;0.0382;-0.1338;
598106858596534;-0.2001;0.0776;-0.1189;
598106868701795;-0.2044;0.0968;-0.0859;
598106878807628;-0.2236;0.0659;-0.1168;
598106888912889;-0.2438;-0.0140;-0.1328;
598106899018149;-0.2577;-0.0523;-0.1019;
598106909122732;-0.2374;-0.0566;-0.0933;
598106919227993;-0.2118;0.0148;-0.0550;
598106929333253;-0.2108;0.0052;-0.0209;
598106939434712;-0.2385;-0.0140;-0.0348;
598106949539972;-0.2800;0.0105;-0.0284;
598106959645232;-0.2779;0.0169;-0.0262;
598106969752941;-0.3098;0.0318;-0.0124;
598106979858201;-0.3322;0.0201;-0.0049;
598106989963462;-0.3429;-0.0119;-0.0017;
598107000065545;-0.3589;-0.0268;0.0025;
598107010170805;-0.3535;-0.0609;-0.0198;
598107020276066;-0.3248;-0.1130;-0.0241;
598107030395128;-0.2640;-0.0683;0.0153;
598107040500389;-0.2172;-0.0523;0.0292;
598107050605649;-0.2214;-0.0822;0.0313;
598107060694712;-0.2587;-0.1269;0.0228;
598107070799972;-0.2587;-0.1248;0.0079;
598107080905232;-0.2470;-0.1141;0.0249;
598107091003618;-0.2555;-0.1024;0.0260;
598107101108878;-0.2651;-0.1173;0.0132;
598107111214139;-0.2811;-0.1077;0.0345;
598107121339972;-0.2800;-0.1205;0.0281;
598107131445232;-0.2768;-0.1503;-0.0039;
598107141550493;-0.2822;-0.1386;-0.0017;
598107151640597;-0.2747;-0.1013;-0.0220;
598107161745909;-0.2800;-0.0577;-0.0284;
598107171851170;-0.2885;-0.0342;-0.0422;
598107181945753;-0.2736;-0.0119;-0.0646;
598107192051014;-0.3226;-0.0278;-0.0880;
598107202156274;-0.3482;-0.0406;-0.1232;
598107212248566;-0.3567;-0.0268;-0.1328;
598107222353826;-0.3780;-0.0097;-0.1445;
598107232459087;-0.3908;-0.0374;-0.1636;
598107242577941;-0.4451;-0.0268;-0.1519;
598107252683201;-0.4387;-0.0236;-0.1764;
598107262788462;-0.4632;-0.0502;-0.2253;
598107272867107;-0.4377;-0.0150;-0.2253;
598107282972368;-0.4345;-0.0204;-0.2232;
598107293077628;-0.3961;-0.0268;-0.1976;
598107303207576;-0.3333;-0.0182;-0.2008;
598107313312628;-0.3503;-0.0364;-0.2072;
598107323417628;-0.2853;0.0862;-0.2391;
598107333519659;-0.3109;0.1447;-0.2285;
598107343624712;-0.3088;0.1458;-0.2210;
598107353729712;-0.3216;0.1948;-0.2093;
598107363824764;-0.3248;0.1692;-0.2200;
598107373929816;-0.3258;0.1043;-0.2221;
598107384034816;-0.3120;0.0830;-0.2359;
598107394146639;-0.2949;0.0361;-0.2157;
598107404251691;-0.2928;-0.0236;-0.2509;
598107414356691;-0.2864;-0.0278;-0.2349;
598107424457264;-0.3003;-0.0662;-0.2328;
598107434562316;-0.2928;-0.0289;-0.2381;
598107444667316;-0.3077;0.0158;-0.2423;
598107454764816;-0.2960;-0.0076;-0.2306;
598107464869816;-0.2640;0.0254;-0.1955;
598107474974816;-0.2342;0.0734;-0.2232;
598107485087055;-0.2694;0.0393;-0.2423;
598107495192107;-0.3205;0.0425;-0.2296;
598107505297159;-0.3194;0.0382;-0.2317;
598107515428826;-0.3098;0.0084;-0.2700;
598107525533878;-0.3269;0.0052;-0.2711;
598107535638878;-0.3067;0.0265;-0.2711;
598107545709607;-0.2971;0.0041;-0.2434;
598107555814607;-0.2907;0.0276;-0.2871;
598107565919607;-0.3290;-0.0001;-0.3020;
598107576072941;-0.3248;-0.0278;-0.2988;
598107586177993;-0.3248;-0.0150;-0.2988;
598107596282993;-0.3088;-0.0332;-0.3169;
598107606349868;-0.2608;-0.0140;-0.2967;
598107616454920;-0.1959;0.0169;-0.3414;
598107626559920;-0.2140;0.0169;-0.3702;
598107636653045;-0.2246;0.0499;-0.3574;
598107646758045;-0.2161;0.0276;-0.3627;
598107656863045;-0.2694;-0.1045;-0.3755;
598107666974764;-0.2257;-0.1759;-0.4181;
598107677079816;-0.2182;-0.1716;-0.4362;
598107687184816;-0.0671;-0.1226;-0.4192;
598107697283878;0.1726;-0.0992;-0.3606;
598107707388930;0.4240;-0.0172;-0.3819;
598107717493930;0.7093;0.0712;-0.3137;
598107727605805;0.8819;0.0531;-0.2892;
598107737710857;0.9660;0.0798;-0.2029;
598107747815857;1.0832;0.0904;-0.1573;
598107757913826;1.1960;0.0095;-0.1338;
598107768018878;1.2706;0.0009;-0.0582;
598107778123878;1.3036;-0.0204;-0.0113;
598107788237732;1.3132;-0.0129;0.0473;
598107798342784;1.3515;0.0957;0.0888;
598107808447784;1.3281;0.0723;0.1250;
598107818554034;1.2940;0.0308;0.1623;
598107828659087;1.2098;0.0158;0.2241;
598107838764087;1.0470;-0.0555;0.2518;
598107848855076;0.8403;-0.0609;0.2571;
598107858960128;0.5836;-0.0289;0.2529;
598107869065128;0.3451;-0.0012;0.2220;
598107879176951;0.1928;0.0617;0.2007;
598107889282003;0.1917;0.1075;0.1708;
598107899387003;0.1385;0.1053;0.1389;
598107909501639;0.0096;0.1256;0.1154;
598107919606691;-0.1533;0.0830;0.0984;
598107929711691;-0.2704;0.1149;0.0750;
598107939812680;-0.3258;0.1415;0.0505;
598107949917732;-0.3216;0.0755;-0.0017;
598107960022732;-0.3620;0.0372;-0.0731;
598107970125389;-0.2864;-0.0332;-0.0816;
598107980230441;-0.2417;0.0222;-0.0827;
598107990335441;-0.3770;-0.0236;-0.1413;
598108000441639;-0.3727;-0.1557;-0.1722;
598108010546691;-0.2342;-0.1557;-0.2306;
598108020651691;-0.0799;-0.1088;-0.2498;
598108030759451;0.0277;-0.1056;-0.2743;
598108040864503;0.1534;-0.0459;-0.2764;
598108050969503;0.2045;-0.0108;-0.2647;
598108061075076;0.2120;-0.0065;-0.2700;
598108071180128;0.2226;-0.1344;-0.2903;
598108081285128;0.3174;-0.2377;-0.2338;
598108091388514;0.4985;-0.0119;-0.2434;
598108101493566;0.5868;0.1628;-0.1743;
598108111598566;0.6944;0.1447;-0.1413;
598108121710232;0.9011;0.1479;-0.1083;
598108131815284;1.0385;0.1309;-0.0678;
598108141920284;1.0534;0.0403;-0.0017;
598108151999920;1.0353;-0.0257;0.0846;
598108162104920;0.9884;0.0478;0.1304;
598108172209972;0.8691;0.1426;0.1399;
598108182317889;0.7881;0.0787;0.1730;
598108192422941;0.7594;-0.0300;0.2007;
598108202527941;0.7296;-0.0395;0.1953;
598108212624034;0.6252;0.0020;0.2113;
598108222729087;0.4538;0.0329;0.2284;
598108232834087;0.3760;0.0478;0.2305;
598108242949451;0.3771;0.1192;0.2134;
598108253054503;0.3654;0.1628;0.1900;
598108263159503;0.3334;0.1767;0.1751;
598108273252368;0.3600;0.2033;0.2103;
598108283357420;0.3505;0.1277;0.2518;
598108293462420;0.3324;0.1298;0.2667;
598108303580024;0.2652;0.1692;0.2603;
598108313684816;0.1534;0.1501;0.2603;
598108323789659;0.0522;0.1288;0.2507;
598108333894399;-0.0245;0.0979;0.2518;
598108343999243;-0.1469;-0.0204;0.2273;
598108354104034;-0.2491;-0.0523;0.1900;
598108364225128;-0.3045;-0.0065;0.1921;
598108374330024;-0.3674;0.0180;0.1644;
598108384434764;-0.3450;0.0340;0.1229;
598108394515128;-0.3567;0.0148;0.1037;
598108404619972;-0.3919;-0.0076;0.0771;
598108414724764;-0.4249;0.0052;0.0451;
598108424834868;-0.4185;-0.0268;0.0579;
598108434939712;-0.3620;0.0606;0.0057;
598108445044503;-0.3056;0.1032;-0.0060;
598108455133982;-0.3887;-0.0332;-0.0454;
598108465238774;-0.3993;-0.1983;-0.0443;
598108475343618;-0.3280;-0.0364;-0.0742;
598108485471691;-0.2672;0.0084;-0.1189;
598108495576534;-0.1831;0.0041;-0.1157;
598108505681378;-0.1043;0.0521;-0.1413;
598108515786691;-0.0639;-0.0140;-0.1605;
598108525891534;-0.0543;-0.0736;-0.1711;
598108535996378;-0.0053;-0.0310;-0.1509;
598108546080284;0.0458;0.0041;-0.1477;
598108556185128;0.0650;-0.0630;-0.1668;
598108566289920;0.0543;-0.0811;-0.1083;
598108576389347;0.0767;-0.0023;-0.0987;
598108586494191;0.1385;-0.0012;-0.0806;
598108596599034;0.1502;-0.0917;-0.0667;
598108606712576;0.1300;-0.0992;-0.0646;
598108616817420;0.1704;0.0126;-0.0294;
598108626922264;0.1502;-0.0598;0.0015;
598108637050909;0.0682;-0.1972;-0.0316;
598108647155753;0.1023;-0.0449;-0.0028;
598108657260597;0.1619;0.0340;-0.0103;
598108667344555;0.2844;0.0798;-0.0284;
598108677449451;0.5421;0.3108;-0.0316;
598108687554243;0.5049;0.2692;-0.0028;
598108697673357;-0.0234;-0.1887;0.0537;
598108707778149;-0.3727;-0.4304;0.0963;
598108717882993;-0.3450;-0.2366;0.0387;
598108727979607;-0.1160;-0.0459;-0.0475;
598108738084451;0.0895;-0.0598;-0.0880;
598108748189243;0.0767;-0.0566;-0.0390;
598108758311795;0.1310;0.0648;-0.0049;
598108768416639;0.1332;0.0744;0.0015;
598108778521430;0.0628;-0.0236;0.0430;
598108788609191;0.0160;-0.0481;0.0643;
598108798714034;0.0266;-0.0481;0.0505;
598108808818826;0.0362;-0.0598;0.0664;
598108818921587;0.0479;-0.0619;0.0963;
598108829026378;0.0788;-0.0364;0.1186;
598108839131222;0.0831;-0.0417;0.1091;
598108849251430;0.0224;-0.0587;0.0984;
598108859356326;-0.0256;-0.1365;0.0856;
598108869461066;0.0181;-0.1642;0.1336;
598108879551587;0.0128;-0.1716;0.1463;
598108889656430;0.0916;-0.2025;0.1474;
598108899761222;0.3068;-0.1226;0.1772;
598108909862837;0.7413;0.1107;0.1655;
598108919967680;1.0960;0.2332;0.1612;
598108930072472;0.9682;0.1991;0.2486;
598108940178618;0.5591;0.0936;0.2571;
598108950283462;0.3643;0.0489;0.2944;
598108960388253;0.2961;0.0489;0.3136;
598108970495962;0.2354;0.0073;0.2667;
598108980600805;0.2908;0.0126;0.3114;
598108990705597;0.3952;0.0041;0.3509;
598109000805128;0.4474;0.0052;0.3775;
598109010909972;0.5367;0.0979;0.3924;
598109021014764;0.5900;0.1437;0.3849;
598109031133514;0.4325;0.0830;0.4201;
598109041238409;0.1555;0.0052;0.3913;
598109051343201;0.2237;0.0180;0.4031;
598109061445441;0.2620;0.1117;0.4233;
598109071550284;0.2045;0.1543;0.3849;
598109081655076;0.1385;0.1692;0.3871;
598109091748774;-0.0597;0.2044;0.4052;
598109101853618;-0.3940;0.0297;0.3722;
598109111958409;-0.9403;-0.2590;0.2774;
598109122061951;-1.4057;-0.4208;0.1794;
598109132166795;-1.5421;-0.3293;0.1250;
598109142271587;-1.3375;-0.2600;0.0696;
598109152363618;-1.1182;-0.2270;-0.0859;
598109162468514;-0.8572;-0.0119;-0.1360;
598109172573305;-0.6869;0.1266;-0.0987;
598109182685493;-0.8019;0.0798;-0.0955;
598109192790389;-0.9361;-0.1216;-0.0806;
598109202895180;-0.7646;-0.1972;-0.0688;
598109213028357;-0.3429;-0.1077;-0.0401;
598109223133201;-0.1703;-0.0214;-0.0529;
598109233237993;-0.2300;-0.0928;0.0079;
598109243332368;-0.1170;-0.0609;0.0632;
598109253437212;-0.0032;-0.0385;0.1144;
598109263542003;0.0096;-0.0822;0.0782;
598109273621378;-0.0053;-0.0949;0.1304;
598109283726170;0.0096;0.0095;0.1783;
598109293831014;0.0128;0.0254;0.2529;
598109303949295;-0.1405;-0.0971;0.2763;
598109314054087;-0.1575;-0.0630;0.2965;
598109324158826;-0.0330;0.0648;0.3125;
598109334259816;-0.1863;0.0393;0.3221;
598109344364607;-0.3823;-0.1109;0.3349;
598109354469347;-0.3844;-0.1397;0.3029;
598109364588045;-0.3525;-0.0459;0.3104;
598109374692784;-0.5016;-0.0758;0.2316;
598109384797576;-0.5101;-0.1312;0.1900;
598109394884816;-0.4110;-0.0119;0.1996;
598109404989607;-0.4249;-0.0033;0.1730;
598109415094347;-0.4537;-0.1152;0.1293;
598109425193878;-0.3887;-0.0704;0.0622;
598109435298618;-0.3120;-0.0736;0.0419;
598109445403409;-0.2779;-0.1024;-0.0007;
598109455512524;-0.2619;-0.0459;-0.0113;
598109465617264;-0.2374;-0.0076;-0.0209;
598109475722003;-0.1895;0.0382;-0.0326;
598109485882524;-0.1980;0.0542;-0.0518;
598109495987264;-0.1959;0.0233;-0.1040;
598109506092055;-0.1341;0.0659;-0.1083;
598109516139712;-0.1405;0.0925;-0.0880;
598109526244503;-0.2055;-0.0257;-0.0688;
598109536349243;-0.1873;-0.0704;-0.0656;
598109546484816;-0.1437;-0.0055;-0.0891;
598109556589555;-0.1479;0.0286;-0.0806;
598109566694347;-0.1341;0.0510;-0.0571;
598109576787420;-0.1554;0.0031;-0.0550;
598109586892212;-0.2033;-0.0640;-0.0539;
598109596996951;-0.1511;0.0244;-0.0113;
598109607079399;-0.2150;0.0286;-0.0198;
598109617184191;-0.2545;-0.0491;-0.0486;
598109627288930;-0.2044;0.1170;-0.0624;
598109637428149;-0.2395;0.1767;-0.1104;
598109647532941;-0.2545;0.1383;-0.1370;
598109657637680;-0.2534;0.2087;-0.1104;
598109667716534;-0.2566;0.2033;-0.1210;
598109677821326;-0.2555;0.1234;-0.1402;
598109687926066;-0.2161;0.1000;-0.1530;
598109698024034;-0.1969;0.0638;-0.1253;
598109708128826;-0.1682;0.0691;-0.1317;
598109718233566;-0.1735;0.0574;-0.1008;
598109728348774;-0.2363;-0.1099;-0.0795;
598109738453514;-0.1298;0.0169;-0.0603;
598109748558305;-0.1149;0.1650;-0.0379;
598109758666170;-0.1437;0.0925;-0.0667;
598109768770962;-0.0458;0.1724;-0.0624;
598109778875701;-0.1373;0.1213;-0.0614;
598109788975962;-0.2534;-0.0491;-0.0806;
598109799080753;-0.2406;-0.0257;-0.1168;
598109809185493;-0.2736;0.0467;-0.1626;
598109819290701;-0.2800;0.0521;-0.2061;
598109829395441;-0.2736;0.0414;-0.2359;
598109839500232;-0.2513;0.0276;-0.2434;
598109849590962;-0.1735;0.1213;-0.2786;
598109859695753;-0.1341;0.2055;-0.3425;
598109869800493;-0.1117;0.2257;-0.2913;
598109879912837;-0.0447;0.2479;-0.2732;
598109890017628;0.0362;0.2458;-0.2658;
598109900122368;0.0735;0.1820;-0.2402;
598109910228201;0.1076;0.2033;-0.1764;
598109920332993;0.1076;0.1873;-0.1615;
598109930437732;0.1108;0.1266;-0.1647;
598109940537003;0.0703;0.0766;-0.1423;
598109950641795;0.0703;0.1032;-0.0987;
598109960746534;0.0458;0.1181;-0.0774;
598109970858357;-0.0979;-0.0332;-0.0838;
598109980963149;-0.1160;-0.0609;-0.0869;
598109991067889;-0.0788;0.0467;-0.0976;
598110001174712;-0.0628;0.1277;-0.1445;
598110011279503;-0.0447;0.1863;-0.1796;
598110021384243;-0.0213;0.2268;-0.2072;
598110031509191;-0.0266;0.2353;-0.2136;
598110041613930;-0.0213;0.1937;-0.2413;
598110051718722;-0.0128;0.2012;-0.2157;
598110061803774;-0.0479;0.1085;-0.1955;
598110071908566;-0.0341;-0.0023;-0.1583;
598110082013305;-0.0341;-0.0875;-0.1146;
598110092119451;-0.0117;-0.1205;-0.0827;
598110102224243;-0.0053;-0.1003;-0.0923;
598110112328930;0.0043;-0.1386;-0.0518;
598110122428982;0.0320;-0.0726;-0.0390;
598110132533774;0.0628;0.0680;-0.0198;
598110142638514;0.0298;0.0137;-0.0624;
598110152752264;0.0650;-0.0651;-0.0443;
598110162857003;0.0565;-0.0001;-0.0688;
598110172961795;-0.0309;-0.0598;-0.0678;
598110183062732;-0.0810;-0.1844;-0.1317;
598110193167472;-0.0597;-0.0854;-0.1786;
598110203272264;-0.0543;-0.0278;-0.2029;
598110213370962;0.0011;0.0052;-0.1605;
598110223475753;0.0341;0.0872;-0.1679;
598110233580493;0.0948;0.1277;-0.1668;
598110243712837;0.1864;0.1117;-0.1242;
598110253817628;0.2567;0.0766;-0.0497;
598110263922368;0.2940;0.0808;-0.0028;
598110273998357;0.2993;0.0798;0.0164;
598110284103149;0.2397;0.0126;0.0100;
598110294207889;0.1971;0.0276;0.0206;
598110304317732;0.1534;0.0627;0.0260;
598110314422472;0.0703;0.0041;0.0206;
598110324527212;0.0639;-0.0545;-0.0284;
598110334628774;0.1001;0.0893;-0.0379;
598110344733514;0.1055;0.1650;-0.0539;
598110354838253;0.0618;0.0297;-0.0699;
598110364976795;0.0266;-0.0033;-0.0976;
598110375081534;0.0213;0.0180;-0.0933;
598110385186274;0.0117;0.0372;-0.0699;
598110395272941;0.0032;0.0222;-0.0880;
598110405377680;0.0479;0.0425;-0.1029;
598110415482420;0.0937;0.0478;-0.0891;
598110425559503;0.0170;-0.0342;-0.1360;
598110435664243;0.1065;0.1309;-0.1360;
598110445768982;0.0692;0.1192;-0.0816;
598110455904555;0.0788;0.0063;-0.0635;
598110466009347;0.0756;-0.0065;-0.0742;
598110476114087;0.0565;0.0297;-0.1168;
598110486188097;0.0490;-0.0023;-0.1146;
598110496292837;0.0085;-0.1194;-0.0923;
598110506397576;0.0266;-0.1354;-0.0827;
598110516511482;0.0320;-0.0300;-0.0880;
598110526616222;0.0320;-0.0577;-0.0859;
598110536720962;0.0266;-0.0971;-0.0784;
598110546850337;0.0916;-0.0321;-0.0475;
598110556955076;0.0884;-0.0119;-0.0869;
598110567059816;0.0724;-0.0395;-0.1221;
598110577146482;0.0660;-0.0395;-0.0880;
598110587251222;0.1310;-0.0300;-0.0401;
598110597355962;0.0927;-0.0555;-0.0497;
598110607491066;0.1023;-0.0630;-0.0550;
598110617595805;0.1353;-0.0289;-0.0337;
598110627700545;0.1662;-0.0033;-0.0071;
598110637793670;0.1023;-0.0683;0.0079;
598110647898409;0.0724;-0.0907;0.0217;
598110658003149;0.1342;-0.0023;0.0590;
598110668100545;0.1864;0.0041;0.1037;
598110678205284;0.0788;-0.0523;0.1091;
598110688310024;0.0852;-0.0438;0.1165;
598110698407212;0.1001;0.0126;0.1027;
598110708511951;0.0533;-0.0193;0.0707;
598110718616691;0.0692;-0.0342;0.0973;
598110728738878;0.0575;0.0031;0.0973;
598110738843618;0.0682;-0.0097;0.0846;
598110748948357;0.0341;-0.1067;0.0771;
598110759049607;0.0352;-0.1152;0.0515;
598110769154347;0.0628;-0.0449;0.0558;
598110779259087;0.0053;-0.0811;0.0739;
598110789355232;0.0021;-0.1226;0.0718;
598110799459972;0.0234;-0.0406;0.0718;
598110809564712;0.0256;0.0393;0.0941;
598110819662941;-0.0138;0.0084;0.1027;
598110829767680;0.0138;-0.0523;0.0856;
598110839872420;0.0075;-0.0289;0.0664;
598110849981066;0.0266;0.0169;0.0260;
598110860085805;-0.0075;-0.0214;0.0462;
598110870190545;0.0011;-0.0332;0.0142;
598110880291066;0.0415;0.0244;-0.0156;
598110890395805;-0.0064;-0.0172;-0.0475;
598110900500545;0.0160;-0.0619;-0.0624;
598110910619607;0.0469;0.0190;-0.0433;
598110920724347;0.0458;0.0542;-0.0454;
598110930829087;0.0660;0.0212;-0.0561;
598110940925649;0.0852;-0.0001;-0.0656;
598110951030389;0.0895;0.0180;-0.0497;
598110961135128;0.0788;0.0254;-0.0230;
598110971238045;0.1001;-0.0427;-0.0092;
598110981342784;0.0788;-0.1461;-0.0188;
598110991447524;0.0714;-0.1546;-0.0379;
598111001551795;0.0714;-0.1546;-0.0220;
598111011656534;0.0575;-0.2004;0.0206;
598111021761274;0.1118;-0.0097;-0.0273;
598111031869399;0.2003;0.2788;-0.0710;
598111041974139;0.2269;0.4077;-0.0944;
598111052078878;0.1363;0.3907;-0.0763;
598111062181482;0.0927;0.3406;-0.0475;
598111072286170;0.1342;0.2385;-0.0284;
598111082390962;0.1001;0.0915;-0.0028;
598111092488982;0.0884;-0.0566;0.0483;
598111102593722;0.1310;-0.0150;0.0899;
598111112698462;0.1268;-0.0406;0.1133;
598111122822784;0.0873;-0.1738;0.1261;
598111132927524;0.0959;-0.1099;0.0995;
598111143032264;0.1268;0.0489;0.0931;
598111153127628;0.0959;0.0702;0.1346;
598111163232368;0.1055;0.1298;0.1506;
598111173337107;0.1640;0.3087;0.1421;
598111183434607;0.0202;0.2565;0.1474;
598111193539347;-0.1064;-0.1194;0.1336;
598111203644087;-0.1298;-0.2899;0.0728;
598111213772524;-0.1980;-0.1642;0.0174;
598111223877264;-0.3631;-0.1684;-0.0294;
598111233982003;-0.3876;-0.2302;-0.0646;
598111244074295;-0.2065;-0.1173;-0.0827;
598111254179034;-0.0618;0.0190;-0.0806;
598111264283774;0.0383;0.0276;-0.0656;
598111274380441;0.0905;-0.0193;-0.0358;
598111284485180;0.1534;0.0084;-0.0454;
598111294589920;0.2652;0.0627;-0.0571;
598111304692732;0.2397;0.0542;-0.0252;
598111314797524;0.2013;0.0467;0.0121;
598111324902316;0.2471;0.0137;0.0174;
598111335001951;0.2322;-0.0587;-0.0060;
598111345106795;0.1790;-0.0939;-0.0103;
598111355211587;0.1427;-0.0811;-0.0039;
598111365338462;0.1055;-0.0949;-0.0113;
598111375443253;0.1193;-0.0694;-0.0017;
598111385548045;0.1161;-0.0214;0.0057;
598111395615024;0.1065;0.0009;-0.0071;
598111405719816;0.1097;0.0372;-0.0039;
598111415824555;0.1204;0.0851;0.0057;
598111425951691;0.1108;0.0382;0.0281;
598111436056430;0.1087;0.0158;0.0238;
598111446161274;0.0916;0.0776;-0.0262;
598111456270597;0.1182;0.0670;-0.0401;
598111466375441;0.1076;0.0158;0.0132;
598111476480180;0.1129;-0.0065;0.0228;
598111486575701;0.1236;-0.0555;-0.0124;
598111496680493;0.1236;-0.0140;-0.0358;
598111506785284;0.1257;0.0276;-0.0156;
598111516897732;0.0969;0.0148;0.0111;
598111527002524;0.1321;0.0499;0.0302;
598111537107316;0.1289;0.0734;0.0345;
598111547224347;0.0991;0.0478;0.0398;
598111557329139;0.1182;0.0595;0.0643;
598111567433982;0.1108;0.0457;0.0856;
598111577547576;0.0703;-0.0246;0.0931;
598111587652368;0.0852;-0.0108;0.0771;
598111597757212;0.0671;-0.0119;0.0537;
598111607858409;0.0511;-0.0332;0.0345;
598111617963253;0.0650;0.0073;0.0686;
598111628068045;0.0437;0.0073;0.0696;
598111638160649;0.0405;-0.0023;0.0398;
598111648265441;0.0628;0.0254;0.0206;
598111658370232;0.0767;0.0702;0.0174;
598111668465962;0.0554;0.0617;0.0345;
598111678570753;0.0437;0.0382;0.0569;
598111688675493;0.0575;0.0052;0.0664;
598111698778097;0.0746;0.0297;0.0632;
598111708882941;0.0788;0.0659;0.0664;
598111718987732;0.0501;-0.0268;0.0877;
598111729105962;0.0639;-0.0726;0.1112;
598111739210753;0.0810;-0.0065;0.1325;
598111749315545;0.0735;0.0158;0.1378;
598111759415232;0.0554;-0.0001;0.1336;
598111769520024;0.0692;0.0169;0.1197;
598111779624816;0.0373;0.0435;0.1282;
598111789730649;0.0298;0.0425;0.1389;
598111799835441;0.0266;0.0382;0.1389;
598111809940232;0.0053;0.0020;0.1346;
598111820044868;-0.0032;-0.0140;0.1314;
598111830149607;0.0000;0.0190;0.1389;
598111840254451;-0.0181;0.0521;0.1346;
598111850355545;-0.0618;0.0020;0.1378;
598111860460337;-0.0799;-0.0278;0.1506;
598111870565128;-0.0979;0.0180;0.1346;
598111880678357;-0.0852;0.0553;0.0835;
598111890783149;-0.1256;-0.0140;0.0963;
598111900887941;-0.1778;-0.0417;0.1154;
598111910991795;-0.1202;0.0009;0.1091;
598111921096587;-0.0415;0.0308;0.0867;
598111931201378;-0.1117;-0.0278;0.0601;
598111941300441;-0.1043;-0.0140;0.0153;
598111951405232;-0.0767;0.0148;-0.0007;
598111961510024;-0.1639;-0.0427;-0.0060;
598111971622003;-0.1543;-0.0619;-0.0369;
598111981726795;-0.0543;0.0244;-0.0795;
598111991831587;-0.0618;0.0680;-0.1178;
598112001924816;-0.0628;0.0382;-0.1083;
598112012029607;-0.0383;0.0680;-0.1104;
598112022134399;-0.0266;0.0840;-0.1360;
598112032226534;-0.0298;0.0126;-0.1530;
598112042331378;-0.0149;0.0169;-0.1880;
598112052436170;0.1087;0.0979;-0.1807;
598112062558878;0.1353;0.0553;-0.1573;
598112072663618;0.0969;-0.0236;-0.1423;
598112082768462;0.1172;-0.0736;-0.1381;
598112092864555;0.2120;-0.0651;-0.1743;
598112102969399;0.3419;-0.0747;-0.1562;
598112113074139;0.3984;0.0137;-0.0976;
598112123179347;0.3963;0.0499;-0.0561;
598112133284191;0.2620;-0.0225;-0.0081;
598112143388982;0.2109;-0.0651;-0.0071;
598112153536482;0.2610;-0.0129;-0.0028;
598112163641222;0.2333;0.0425;0.0015;
598112173746014;0.1150;-0.0044;0.0345;
598112183817524;0.0597;-0.0470;0.0877;
598112193922264;0.0820;0.0265;0.1144;
598112204027107;-0.0032;-0.0033;0.0846;
598112214116482;-0.0447;-0.0204;0.0877;
598112224221274;-0.0947;-0.0033;0.0941;
598112234326066;-0.1586;-0.0459;0.0984;
598112244457420;-0.1479;-0.0491;0.1016;
598112254562212;-0.0936;-0.0289;0.1101;
598112264667003;-0.1011;-0.0257;0.0963;
598112274759712;-0.1298;0.0073;0.0728;
598112284864451;-0.1682;-0.0023;0.0686;
598112294969243;-0.1692;-0.0630;0.0941;
598112305069087;-0.1767;-0.0960;0.0835;
598112315173878;-0.1458;-0.0811;0.0494;
598112325278722;-0.1277;-0.0672;0.0409;
598112335447212;-0.0778;0.0286;0.0387;
598112345552003;-0.0383;0.1543;0.0228;
598112355656847;-0.0650;0.1458;0.0015;
598112365696014;-0.1330;0.0787;0.0004;
598112375800857;-0.1288;0.0798;0.0121;
598112385905649;-0.0660;0.1309;0.0228;
598112396049555;-0.0735;0.1096;0.0036;
598112406154347;-0.0714;0.0403;0.0015;
598112416259191;-0.0628;0.0329;0.0185;
598112426329555;-0.0533;0.0041;0.0068;
598112436434399;-0.0415;-0.0577;0.0302;
598112446539191;-0.0415;-0.0193;0.0387;
598112456643357;-0.0341;-0.0257;0.0515;
598112466748149;-0.0341;-0.0545;0.0409;
598112476852993;0.0064;-0.0012;0.0590;
598112486958201;0.0224;0.1085;0.0409;
598112497062993;0.0096;0.1447;0.0526;
598112507167837;-0.0639;0.1000;0.0451;
598112517279503;-0.1778;-0.0694;0.0537;
598112527384295;-0.3301;-0.1940;0.0036;
598112537489139;-0.3184;-0.0385;-0.0379;
598112547588618;-0.3173;0.0670;-0.1093;
598112557693409;-0.3610;-0.0246;-0.1317;
598112567798253;-0.3375;-0.0513;-0.1349;
598112577896847;-0.2523;-0.0204;-0.1317;
598112588001691;-0.1479;0.0212;-0.1029;
598112598106534;-0.1053;0.0372;-0.1115;
598112608213982;-0.0979;-0.0001;-0.0976;
598112618318826;-0.0575;0.0382;-0.0912;
598112628423618;-0.0682;-0.0150;-0.0795;
598112638532212;-0.0405;-0.0481;-0.0667;
598112648637055;-0.0628;0.0095;-0.0646;
598112658741847;-0.0915;-0.0523;-0.1093;
598112668847107;-0.0703;-0.0332;-0.0997;
598112678951951;-0.0820;-0.0076;-0.0997;
598112689056743;-0.0842;-0.0481;-0.1221;
598112699158566;-0.0533;-0.0513;-0.1178;
598112709263409;-0.0415;-0.0822;-0.1104;
598112719368201;-0.0309;-0.1269;-0.1317;
598112729474607;0.0192;-0.0758;-0.1541;
598112739579451;0.1023;-0.0023;-0.1189;
598112749684243;0.1896;-0.0406;-0.1168;
598112759787524;0.3196;0.0116;-0.1083;
598112769892368;0.3622;0.0084;-0.0646;
598112779997107;0.3782;-0.0097;-0.0284;
598112790112784;0.4495;-0.0225;0.0196;
598112800217628;0.4154;-0.0779;0.0260;
598112810322420;0.3963;-0.0427;0.0728;
598112820425128;0.4304;0.0638;0.0941;
598112830529972;0.3920;0.0350;0.0995;
598112840634764;0.3036;-0.0108;0.1005;
598112850729295;0.2162;-0.0513;0.1101;
598112860834139;0.1545;0.0095;0.1154;
598112870938878;0.1385;0.0510;0.1027;
598112881051274;0.0991;-0.0161;0.0835;
598112891156118;0.0980;0.0233;0.0984;
598112901260909;0.0820;0.0425;0.0941;
598112911361066;0.0682;-0.0310;0.0654;
598112921465909;0.0522;-0.0843;0.0409;
598112931570649;0.0405;-0.0555;0.0579;
598112941679503;0.0202;-0.0470;0.0505;
598112951784295;0.0138;-0.0470;0.0057;
598112961889139;0.0501;0.0244;0.0004;
598112971988670;0.0341;0.0414;-0.0326;
598112982093462;0.1097;0.0031;-0.0188;
598112992198253;0.0969;-0.0406;-0.0156;
598113002303618;0.0724;-0.0779;-0.0507;
598113012408409;0.0884;-0.0438;-0.0784;
598113022513253;0.1363;0.0372;-0.0752;
598113032639034;0.1491;0.0180;-0.0827;
598113042743878;0.1310;-0.0555;-0.0912;
598113052848670;0.1790;0.0265;-0.0688;
598113062935545;0.2045;0.0872;-0.1232;
598113073040337;0.2056;0.0403;-0.0944;
598113083145180;0.2248;0.0893;-0.0252;
598113093246899;0.2407;0.1362;-0.0113;
598113103351691;0.2908;0.0744;0.0015;
598113113456482;0.3206;0.0499;0.0387;
598113123551899;0.3015;0.0766;0.1154;
598113133656743;0.2045;0.0084;0.1495;
598113143761534;0.1523;-0.0470;0.1527;
598113153907576;0.1843;0.0180;0.1517;
598113164012420;0.1449;0.0361;0.1367;
598113174117264;0.0852;-0.0182;0.1591;
598113184188305;0.0597;-0.0172;0.1676;
598113194293201;0.0320;0.0190;0.1826;
598113204397993;0.0192;-0.0023;0.1687;
598113214528566;-0.0160;-0.0182;0.1708;
598113224633409;-0.0383;0.0137;0.1538;
598113234738201;-0.1096;-0.0566;0.1485;
598113244829399;-0.1309;-0.0449;0.1357;
598113254934243;0.0075;0.0915;0.1410;
598113265039034;0.0245;0.0872;0.1442;
598113275132107;-0.0107;0.0553;0.1612;
598113285236899;-0.0415;0.0254;0.1847;
598113295341743;-0.0522;0.0222;0.2113;
598113305445337;-0.0149;0.0872;0.2103;
598113315550180;-0.0682;-0.0087;0.2124;
598113325654972;-0.1852;-0.1088;0.1996;
598113335732889;-0.1586;-0.0300;0.1783;
598113345837732;-0.0957;0.0276;0.1676;
598113355942576;-0.1011;0.0318;0.1463;
598113366070701;-0.1383;-0.0172;0.1783;
598113376175545;-0.2747;-0.1205;0.1602;
598113386280389;-0.2896;-0.0268;0.1048;
598113396373930;-0.2118;0.0542;0.0515;
598113406478774;-0.1852;0.0201;0.0462;
598113416583566;-0.2885;-0.1013;0.0185;
598113426691066;-0.2630;0.0009;0.0206;
598113436795909;-0.1905;0.0819;0.0345;
598113446900701;-0.1746;0.0329;-0.0092;
598113457031534;-0.1597;0.0403;-0.0305;
598113467136378;-0.1660;0.0244;0.0132;
598113477241118;-0.1533;0.0276;0.0089;
598113487330597;-0.0895;-0.0065;-0.0081;
598113497435441;-0.0714;0.0158;0.0164;
598113507540232;-0.0788;0.0286;-0.0103;
598113517653357;-0.0788;-0.0758;0.0142;
598113527758149;-0.0447;-0.0470;0.0356;
598113537862941;0.0778;0.1628;0.0068;
598113547958566;0.0309;0.0435;-0.0166;
598113558063462;-0.1149;-0.1216;-0.0007;
598113568168201;-0.0192;0.0691;0.0462;
598113578278566;0.0096;0.1234;0.0121;
598113588383357;-0.0947;-0.0470;0.0174;
598113598488201;-0.0746;-0.0268;0.0206;
598113608596482;-0.0511;0.0595;0.0196;
598113618701326;-0.1202;-0.0577;0.0015;
598113628806066;-0.1032;-0.0790;0.0387;
598113638913045;-0.1330;-0.1216;0.0111;
598113649017889;-0.1309;-0.1557;-0.0081;
598113659122680;-0.1266;-0.1429;0.0260;
598113669222055;-0.1138;-0.1770;0.0728;
598113679326951;0.0032;-0.0204;0.0718;
598113689431743;0.1896;0.1937;0.0334;
598113699535962;0.3057;0.1884;-0.0475;
598113709640805;-0.0692;0.0585;-0.0252;
598113719745597;-0.4302;-0.0427;0.0750;
598113729853670;-0.4622;-0.0758;0.0686;
598113739958514;-0.2502;0.0350;-0.0209;
598113750063305;-0.2023;0.0361;-0.0369;
598113760171274;-0.1618;-0.0108;-0.0039;
598113770276118;-0.1586;0.0126;0.0185;
598113780380909;-0.1469;-0.0406;-0.0166;
598113790478462;-0.0501;0.0904;-0.0252;
598113800583305;0.0394;0.2522;-0.0017;
598113810688097;-0.0607;0.1373;0.0537;
598113820795232;-0.0979;0.0020;0.0537;
598113830900024;-0.0628;0.1767;0.0132;
598113841004868;-0.1458;-0.0310;-0.0156;
598113851103618;-0.2587;-0.3165;-0.0390;
598113861208462;-0.1820;-0.1525;-0.0539;
598113871313253;-0.0021;0.0702;-0.0614;
598113881423462;-0.0597;0.0073;-0.0827;
598113891528305;-0.1522;-0.1354;-0.0912;
598113901633097;-0.0979;-0.0885;-0.0720;
598113911750232;-0.0778;-0.0087;-0.0912;
598113921855076;-0.1192;-0.3549;-0.0497;
598113931959816;0.1182;-0.1226;-0.0443;
598113942049555;0.3249;0.3076;-0.0774;
598113952154399;0.0586;0.1522;-0.1168;
598113962259243;-0.1288;-0.0587;-0.1029;
598113972367784;0.0266;0.1330;-0.1178;
598113982472628;0.0767;0.2385;-0.1242;
598113992577420;-0.0064;0.1330;-0.1189;
598114002682941;-0.0586;0.0233;-0.0816;
598114012787784;-0.0607;-0.0619;-0.0763;
598114022892576;-0.0021;-0.0651;-0.0550;
598114032976743;0.0660;-0.0949;-0.0486;
598114043081587;0.1854;-0.0119;-0.0593;
598114053186430;0.2280;0.0308;-0.0379;
598114063304607;0.2706;-0.0204;-0.0379;
598114073409399;0.2770;0.1415;-0.0177;
598114083514243;0.3760;0.4013;0.0622;
598114093623357;0.0298;-0.1514;0.1059;
598114103728201;-0.3088;-0.6178;0.0142;
598114113832941;-0.2928;-0.2015;-0.0529;
598114123953462;-0.1863;0.0222;-0.1455;
598114134058305;-0.0021;-0.1120;-0.1541;
598114144163045;-0.0362;-0.1003;-0.1647;
598114154247472;-0.0957;-0.0449;-0.1434;
598114164352316;-0.0575;-0.0044;-0.1136;
598114174457107;-0.1607;-0.4176;-0.0752;
598114184568982;-0.1011;-0.1684;-0.0646;
598114194673826;0.3015;0.5377;-0.1391;
598114204778618;0.3324;0.4919;-0.2093;
598114214901691;0.0266;0.3204;-0.1381;
598114225006534;-0.1309;0.2129;-0.0518;
598114235111326;-0.1639;0.0723;-0.0827;
598114245193566;-0.0618;0.1607;-0.1274;
598114255298357;0.0256;0.3246;-0.1029;
598114265403201;0.0085;0.2076;-0.0869;
598114275517420;-0.0245;0.1341;-0.0688;
598114285622264;-0.0107;0.0851;-0.0784;
598114295727003;-0.0032;-0.0108;-0.0784;
598114305830701;0.0543;0.0425;-0.0497;
598114315935597;0.1438;0.1330;-0.0316;
598114326040545;0.4208;0.6122;0.0185;
598114336138514;0.2024;0.0435;-0.0134;
598114346243409;-0.2704;-0.8905;-0.0518;
598114356348305;-0.0639;-0.5230;-0.1019;
598114366489139;-0.1447;-0.2057;-0.1997;
598114376594087;-0.2225;-0.1354;-0.2466;
598114386698930;0.0075;-0.0065;-0.2349;
598114396759764;0.1417;0.0638;-0.2200;
598114406864712;0.2333;0.1660;-0.1933;
598114416969555;0.2631;-0.0012;-0.1477;
598114427077680;0.2056;-0.1940;-0.0944;
598114437182628;0.1811;0.0052;-0.0337;
598114447287472;0.0735;-0.0012;-0.0156;
598114457415389;0.0628;-0.1152;0.0217;
598114467520284;0.0959;0.0073;0.0249;
598114477625180;0.0447;-0.0076;0.0387;
598114487718045;0.0138;-0.1184;0.0569;
598114497822889;-0.0064;-0.0332;0.0877;
598114507927837;-0.0501;0.0297;0.0654;
598114518036066;-0.1554;-0.1141;0.0792;
598114528140962;-0.1224;0.1096;0.0281;
598114538245857;0.0714;0.3651;0.0334;
598114548347212;0.0234;0.2374;-0.0316;
598114558452107;-0.1405;0.0052;-0.0103;
598114568557003;-0.2108;-0.0012;-0.0124;
598114578662524;-0.1415;0.1256;0.0036;
598114588767368;0.0586;0.2172;-0.0220;
598114598872316;0.1012;0.1746;0.0089;
598114608986795;0.0799;0.2447;0.0292;
598114619091691;0.1449;0.3427;0.0419;
598114629196587;0.0671;0.2214;0.0483;
598114639294034;0.0479;0.1224;0.0941;
598114649398930;0.1214;0.1266;0.1176;
598114659503826;0.1481;0.0148;0.1581;
598114669603774;0.1097;-0.0459;0.1740;
598114679708618;-0.0426;-0.3952;0.1921;
598114689813566;-0.1437;-0.6626;0.1240;
598114699921482;-0.1490;-0.3814;0.0782;
598114710026378;-0.2225;-0.0768;0.0185;
598114720131274;-0.2150;0.0276;-0.0028;
598114730235545;-0.1373;0.0009;-0.0198;
598114740340441;-0.0543;0.0574;-0.0624;
598114750445337;-0.1213;-0.0555;-0.0774;
598114760557732;-0.1991;-0.2537;-0.0901;
598114770662628;-0.0671;-0.1834;-0.1157;
598114780767524;-0.0149;0.0702;-0.1104;
598114790863462;-0.0522;0.0989;-0.1083;
598114800968357;0.0075;0.0712;-0.0795;
598114811073253;0.0394;0.2257;-0.0422;
598114821180962;0.0117;0.1650;0.0068;
598114831285857;-0.0128;0.0063;0.0302;
598114841390753;-0.0256;0.0073;0.0537;
598114851485909;-0.0181;-0.0150;0.0377;
598114861590857;-0.0820;-0.0843;0.0430;
598114871695753;-0.1288;-0.1802;-0.0028;
598114881800597;-0.1618;-0.2217;-0.0507;
598114891905545;-0.1905;-0.1908;-0.1104;
598114902010389;-0.2012;-0.0353;-0.1933;
598114912096222;-0.2065;-0.0374;-0.2093;
598114922201170;-0.1309;-0.0012;-0.2093;
598114932306014;-0.0597;0.0638;-0.2232;
598114942434868;-0.0383;0.0116;-0.2359;
598114952539764;-0.0149;-0.0076;-0.2264;
598114962644659;0.0873;0.0819;-0.1965;
598114972752941;0.1577;0.1426;-0.1253;
598114982857784;0.2130;0.0542;-0.1093;
598114992962680;0.2631;-0.0598;-0.0710;
598115003061222;0.2652;-0.0310;-0.0220;
598115013166170;0.2386;0.0105;0.0366;
598115023271066;0.2312;0.0126;0.0313;
598115033391326;0.2471;0.0009;0.0515;
598115043496274;0.1917;-0.0374;0.0835;
598115053601118;0.1236;-0.0246;0.0856;
598115063690180;0.1182;0.0105;0.1027;
598115073795076;0.0660;0.0190;0.0803;
598115083899972;0.0277;0.0116;0.0814;
598115094006951;0.0746;0.0361;0.1517;
598115104111847;0.0756;0.0393;0.1559;
598115114216691;0.0586;-0.0225;0.1453;
598115124329816;0.0288;-0.0481;0.1644;
598115134434659;0.0511;0.1533;0.1581;
598115144539607;0.0405;0.2204;0.1836;
598115154643982;-0.0064;0.0403;0.2166;
598115164748826;-0.0714;-0.1056;0.2401;
598115174853722;-0.0543;-0.0566;0.2060;
598115184942993;-0.0671;-0.0907;0.2262;
598115195047941;-0.1181;-0.1258;0.2316;
598115205152837;-0.1320;-0.1141;0.2337;
598115215299816;-0.1756;-0.2036;0.2188;
598115225404712;-0.1671;-0.1333;0.1932;
598115235509607;-0.1618;0.0276;0.1858;
598115245574503;-0.1650;0.0126;0.1964;
598115255679399;-0.1778;-0.0214;0.1644;
598115265784243;-0.2076;0.0020;0.0824;
598115275913357;-0.2118;0.0031;0.0526;
598115286018253;-0.1671;-0.0076;0.0569;
598115296123201;-0.1671;-0.0193;-0.0049;
598115306220701;-0.0788;0.1032;-0.0103;
598115316325649;-0.0618;0.1117;0.0111;
598115326430597;-0.0511;0.1032;0.0409;
598115336544555;-0.0426;0.1085;0.0270;
598115346649503;-0.0011;0.1170;0.0579;
598115356754451;-0.0128;0.0840;0.0920;
598115366832993;-0.0181;-0.0033;0.0867;
598115376937941;-0.0352;-0.1269;0.0462;
598115387042889;-0.0543;-0.1397;0.0728;
598115397146014;-0.1096;-0.0822;-0.0007;
598115407250962;-0.1256;-0.0875;-0.0209;
598115417355909;-0.1224;-0.0630;-0.0518;
598115427460493;-0.1149;-0.0395;-0.0720;
598115437565441;-0.1011;0.0542;-0.1285;
598115447670389;-0.0479;0.0798;-0.1391;
598115457793409;-0.0117;0.0510;-0.1434;
598115467898357;0.0170;0.0553;-0.1083;
598115478003305;0.0298;0.0595;-0.1093;
598115488100805;0.0660;0.0190;-0.0646;
598115498205753;0.0597;-0.0161;-0.0379;
598115508310701;0.0735;-0.0502;-0.0273;
598115518413201;0.0341;0.0233;-0.0241;
598115528518149;0.0192;0.0595;0.0132;
598115538623097;-0.0075;-0.0513;-0.0017;
598115548725701;0.0181;-0.0268;-0.0017;
598115558830649;-0.0160;0.0265;0.0377;
598115568935597;-0.0256;-0.0364;-0.0092;
598115579042316;-0.0447;-0.0545;-0.0337;
598115589147264;-0.0352;-0.0417;-0.0241;
598115599252212;-0.0202;-0.0257;-0.0209;
598115609354764;0.0170;-0.0087;0.0111;
598115619459712;0.0181;0.0403;0.0153;
598115629564712;0.0192;0.1021;0.0228;
598115639677055;0.0202;0.1149;0.0196;
598115649782003;0.0692;0.1064;0.0441;
598115659886951;0.0511;0.0297;0.0664;
598115669985493;0.0426;0.0201;0.0856;
598115680090441;-0.0277;0.0073;0.0814;
598115690195389;-0.0224;-0.0353;0.0728;
598115700316951;-0.0149;0.0265;0.1059;
598115710421899;-0.0160;-0.0481;0.1122;
598115720526847;-0.0096;-0.1365;0.0984;
598115730617680;0.0096;-0.0640;0.1336;
598115740722628;0.0405;-0.0449;0.1687;
598115750827576;0.0138;-0.1599;0.1921;
598115760933409;-0.1000;-0.2782;0.1410;
598115771038409;-0.2023;-0.0885;0.0036;
598115781143305;-0.3610;0.2182;0.0909;
598115791241326;-0.3269;0.2129;0.0675;
598115801346274;0.0490;0.1213;-0.0028;
598115811451222;0.1353;0.1053;-0.0348;
598115821558514;0.0522;0.1085;-0.0113;
598115831663514;-0.0117;0.1383;0.0356;
598115841768409;-0.0320;0.1884;0.0760;
598115851870493;0.0160;0.1905;0.0824;
598115861975441;-0.0011;0.1213;0.1197;
598115872080441;-0.0011;0.0723;0.1666;
598115882177732;-0.0447;0.0489;0.1847;
598115892282680;-0.0501;0.2246;0.1964;
598115902387628;-0.1543;0.1682;0.2252;
598115912502784;-0.2470;-0.3495;0.1474;
598115922607732;-0.1905;-0.3952;0.0441;
598115932712680;-0.4004;-0.1418;-0.0103;
598115942818618;-0.6028;-0.1791;-0.0901;
598115952923566;-0.4707;-0.1333;-0.0923;
598115963028566;-0.3770;-0.0044;-0.1136;
598115973134191;-0.3088;0.1075;-0.1349;
598115983239087;-0.1352;0.0670;-0.1381;
598115993344034;0.0234;0.0872;-0.1423;
598116003445805;0.0778;0.1490;-0.1189;
598116013550753;0.0820;0.1043;-0.0923;
598116023655701;0.0959;-0.0108;-0.0624;
598116033775128;0.1140;0.0105;-0.0358;
598116043880076;-0.0160;-0.0364;-0.0646;
598116053985024;-0.0501;-0.0704;-0.0646;
598116064072732;-0.0820;-0.0321;-0.0593;
598116074177680;-0.0394;-0.0321;-0.0475;
598116084282628;-0.0447;-0.0321;-0.0699;
598116094391222;-0.0309;-0.0385;-0.0369;
598116104496170;-0.0213;-0.1067;-0.0422;
598116114601118;-0.0618;-0.1834;-0.0411;
598116124700649;-0.1085;-0.0758;-0.0795;
598116134805597;-0.1032;0.0627;-0.0795;
598116144910493;-0.0490;-0.0246;-0.0827;
598116155019555;-0.0234;-0.0768;-0.1178;
598116165124555;0.0224;0.1011;-0.1306;
598116175229503;-0.0213;0.1117;-0.1115;
598116185346795;0.0170;0.0521;-0.0923;
598116195451743;0.0511;0.0318;-0.0784;
598116205556639;-0.0043;0.0244;-0.0561;
598116215648670;-0.0192;0.0350;-0.0539;
598116225753618;0.0032;0.0467;-0.0369;
598116235858514;-0.0138;0.0009;-0.0017;
598116245961222;-0.0458;0.0031;-0.0188;
598116256066170;-0.0714;0.0158;0.0164;
598116266171118;-0.0820;-0.0672;-0.0145;
598116276287472;-0.0565;-0.0385;-0.0007;
598116286392420;-0.0724;0.0862;-0.0092;
598116296497368;-0.0820;0.0169;-0.0624;
598116306576170;-0.0735;-0.0097;-0.0433;
598116316681118;-0.0575;0.0680;-0.0326;
598116326786066;-0.0160;0.0276;-0.0049;
598116336922784;0.0053;0.0648;-0.0209;
598116347027732;-0.0288;-0.0023;0.0249;
598116357132680;-0.0925;-0.0353;-0.0316;
598116367238878;-0.0852;0.0723;-0.0134;
598116377343826;-0.0842;0.0531;0.0249;
598116387448774;-0.0682;0.0276;0.0196;
598116397541743;-0.0692;-0.0001;-0.0092;
598116407646691;-0.0724;-0.0044;-0.0177;
598116417751639;-0.0628;0.0563;-0.0049;
598116427853409;-0.0458;0.0095;0.0111;
598116437958357;-0.0447;-0.0481;0.0121;
598116448063305;-0.0330;-0.0182;0.0089;
598116458150909;-0.0160;-0.0076;0.0015;
598116468255857;-0.0096;-0.0076;0.0153;
598116478360805;-0.0522;0.0233;0.0121;
598116488493201;-0.0447;-0.0012;0.0079;
598116498598149;-0.0692;-0.1184;-0.0071;
598116508703097;-0.0884;-0.1514;-0.0369;
598116518803514;-0.1032;-0.0896;-0.0646;
598116528908462;-0.1107;-0.0598;-0.0806;
598116539013409;-0.0692;-0.0438;-0.0571;
598116549110597;-0.0533;-0.0321;-0.0720;
598116559215545;-0.0149;-0.0246;-0.0742;
598116569320493;-0.0266;-0.0364;-0.0795;
598116579427055;-0.0224;-0.0811;-0.1029;
598116589532003;-0.0373;-0.1130;-0.0859;
598116599636951;-0.0842;-0.0395;-0.1200;
598116609739243;-0.0660;-0.0055;-0.1051;
598116619844191;-0.0437;-0.0225;-0.1136;
598116629949139;-0.0064;0.0126;-0.1498;
598116640057784;-0.0181;0.0808;-0.1647;
598116650162732;0.0053;0.1011;-0.1349;
598116660267680;0.0309;0.0297;-0.1466;
598116670366430;0.0948;-0.0001;-0.1242;
598116680471378;0.0714;0.0297;-0.1242;
598116690576326;0.0810;0.0222;-0.1125;
598116700689399;0.1087;0.0446;-0.1115;
598116710794347;0.1598;0.0467;-0.1029;
598116720899347;0.1875;0.0329;-0.0816;
598116731003722;0.1587;-0.0300;-0.0859;
598116741108670;0.1758;-0.0630;-0.0806;
598116751213618;0.1001;-0.0225;-0.0774;
598116761322993;0.0490;0.0063;-0.0710;
598116771427941;0.1076;0.0105;-0.0454;
598116781532889;0.0895;-0.0140;-0.0518;
598116791639034;0.0948;0.0084;-0.0582;
598116801743930;0.1044;0.0595;-0.0422;
598116811848878;0.1332;0.0627;-0.0177;
598116821944555;0.1747;0.0542;-0.0081;
598116832049555;0.1587;0.0595;-0.0220;
598116842154451;0.1427;0.0957;0.0260;
598116852249816;0.1214;0.0915;0.0047;
598116862354764;0.1481;0.0361;0.0185;
598116872459712;0.1257;0.0457;0.0430;
598116882568305;0.0852;0.0862;0.0782;
598116892673253;0.0831;-0.0246;0.0814;
598116902778201;0.1161;-0.1130;0.1133;
598116912867316;0.0980;-0.0683;0.1282;
598116922972264;0.0597;-0.1003;0.1176;
598116933077212;0.0522;-0.1514;0.1378;
598116943195493;-0.0011;-0.1035;0.1304;
598116953300441;-0.0628;-0.0651;0.1059;
598116963405389;-0.1043;-0.0907;0.1101;
598116973524139;-0.0936;-0.0513;0.0569;
598116983629087;-0.0575;0.0169;0.0505;
598116993734034;-0.0447;0.0244;0.0718;
598117003829399;0.0170;-0.0087;0.1027;
598117013934347;0.0021;-0.0214;0.0750;
598117024039295;-0.0298;0.0872;0.0760;
598117034150493;-0.0352;0.1948;0.0782;
598117044255441;0.0053;0.1032;0.0846;
598117054360389;0.0469;0.0595;0.0877;
598117064454555;-0.0053;0.1373;0.1101;
598117074559503;-0.0149;0.0957;0.1357;
598117084664451;0.0043;-0.0268;0.1293;
598117094760389;-0.0309;-0.0577;0.1037;
598117104865337;-0.1085;-0.0193;0.0537;
598117114970284;-0.1778;-0.0278;0.0739;
598117125086430;-0.2182;0.0499;0.0622;
598117135191430;-0.2118;0.1107;0.0558;
598117145296378;-0.1234;-0.0023;0.0238;
598117155447316;0.0085;-0.1205;-0.0039;
598117165552212;-0.0607;-0.0832;-0.0348;
598117175657212;-0.1181;0.0254;-0.0401;
598117185715805;-0.0989;-0.0438;-0.0486;
598117195820753;-0.0234;-0.0726;-0.0603;
598117205925701;-0.0298;0.0361;-0.0731;
598117216089555;-0.0298;0.0297;-0.0763;
598117226194503;0.0245;0.0095;-0.0390;
598117236299451;0.0192;-0.0076;-0.0475;
598117246343305;0.0330;-0.0939;-0.0145;
598117256448253;0.0352;-0.1290;-0.0252;
598117266553201;0.0149;-0.1823;0.0089;
598117276655701;-0.0383;-0.2324;-0.0028;
598117286760649;-0.0724;0.0190;-0.0433;
598117296865597;-0.2640;0.3033;-0.0518;
598117306990284;-0.3237;0.2385;-0.0731;
598117317095441;-0.0053;0.0574;-0.0901;
598117327200597;0.1609;0.1138;-0.1285;
598117337306951;0.1566;0.1799;-0.1200;
598117347412107;0.0170;0.1224;-0.0731;
598117357517264;-0.0021;0.0382;-0.0422;
598117367626118;0.0021;0.0595;-0.0326;
598117377731274;-0.0234;0.0489;0.0025;
598117387836430;-0.0320;0.0606;-0.0103;
598117397918097;-0.0075;0.2225;0.0228;
598117408023253;-0.0873;0.0862;0.0547;
598117418128409;-0.1533;-0.3495;0.0100;
598117428227316;-0.1618;-0.3314;-0.0379;
598117438332420;-0.2971;-0.1471;-0.0965;
598117448437576;-0.3461;-0.0917;-0.1349;
598117458538409;-0.2896;-0.1003;-0.1636;
598117468643566;-0.1032;-0.0534;-0.1594;
598117478748722;-0.0160;0.0670;-0.1477;
598117488865232;0.0043;0.0776;-0.1136;
598117498970389;0.0628;0.0382;-0.0933;
598117509075545;0.1427;0.1192;-0.0710;
598117519191743;0.0927;0.0670;-0.0348;
598117529296899;0.0607;-0.0854;-0.0241;
598117539402055;0.0714;-0.0587;-0.0273;
598117549492993;-0.0362;-0.0609;-0.0582;
598117559598149;-0.0341;-0.0875;-0.0507;
598117569703305;-0.0309;-0.0491;-0.0134;
598117579802420;-0.0234;-0.0800;0.0015;
598117589907576;0.0053;-0.0758;-0.0220;
598117600012732;0.0170;-0.0119;-0.0241;
598117610117628;0.0288;-0.0119;-0.0390;
598117620222732;0.1055;0.0521;-0.0443;
598117630327889;0.1800;0.0702;-0.0220;
598117640435493;0.2514;-0.0204;0.0025;
598117650540649;0.2951;0.0137;-0.0156;
598117660645805;0.2386;0.0691;-0.0049;
598117670756014;0.1864;0.0744;0.0292;
598117680861170;0.1790;0.0553;0.0505;
598117690966326;0.1928;-0.0246;0.0547;
598117701073930;0.1374;0.0009;0.0963;
598117711179087;0.0905;0.0883;0.1325;
598117721284243;0.0969;-0.0055;0.0867;
598117731379972;0.0863;-0.0278;0.0654;
598117741485128;0.0170;-0.0246;0.0824;
598117751590337;-0.0032;-0.0598;0.0888;
598117761709399;-0.0128;-0.0150;0.0441;
598117771814555;-0.0234;0.0425;0.0356;
598117781919712;0.0266;0.0457;0.0260;
598117792009972;0.0991;0.0659;0.0356;
598117802115128;0.0852;0.0031;0.0632;
598117812220284;0.1193;-0.0257;0.0707;
598117822322784;0.1087;0.0009;0.0771;
598117832427941;0.0298;-0.0427;0.0302;
598117842533097;0.0767;0.0712;0.0387;
598117852640180;0.1033;0.0489;0.0526;
598117862745337;0.1609;-0.1088;0.0664;
598117872850493;0.1310;-0.0854;0.0228;
598117882951899;0.0437;-0.0150;0.0473;
598117893057003;0.0639;-0.0364;0.0324;
598117903162159;0.0842;-0.0470;0.0739;
598117913260649;0.0778;-0.0417;0.0856;
598117923365753;0.1140;-0.0172;0.1016;
598117933470909;0.1278;0.0819;0.1208;
598117943587159;0.0682;0.0446;0.0973;
598117953692316;0.0863;0.0553;0.0920;
598117963797472;-0.0064;-0.0587;0.1186;
598117973892680;-0.0043;-0.1141;0.1091;
598117983997837;0.0138;0.0872;0.1378;
598117994102993;-0.0936;0.0755;0.1229;
598118004213305;-0.0660;-0.0193;0.1410;
598118014318462;-0.0234;0.0734;0.1602;
598118024423618;-0.0979;0.0595;0.1772;
598118034528097;-0.1149;-0.0097;0.1794;
598118044633253;-0.0936;0.0350;0.1783;
598118054738409;-0.2470;-0.0949;0.1133;
598118064843618;-0.2289;-0.0928;0.0899;
598118074948774;-0.1799;0.0968;0.1325;
598118085053930;-0.3248;-0.0108;0.1005;
598118095151639;-0.2523;0.0105;0.0728;
598118105256795;-0.2214;0.0883;0.0377;
598118115361951;-0.2097;0.0403;0.0664;
598118125476587;-0.1810;0.0403;0.0611;
598118135581743;-0.1788;-0.0150;0.0760;
598118145686899;-0.1692;-0.0672;0.0696;
598118155748045;-0.1597;-0.0406;0.0334;
598118165853149;-0.1714;-0.0300;0.0079;
598118175958305;-0.1597;-0.0310;0.0185;
598118186129347;-0.1256;0.0041;0.0228;
598118196234503;-0.1437;-0.0545;0.0057;
598118206339659;-0.1234;-0.0609;-0.0060;
598118216426951;-0.1288;0.0340;-0.0241;
598118226532107;-0.1245;-0.0182;-0.0284;
598118236637264;-0.0989;-0.0044;-0.0454;
598118246724399;-0.0692;0.0425;-0.0156;
598118256829503;-0.0543;-0.1706;0.0185;
598118266934659;-0.0873;-0.1450;0.0206;
598118277053462;-0.1842;0.1991;-0.0539;
598118287158618;-0.2118;0.2724;-0.0475;
598118297263774;-0.1000;0.1000;-0.0422;
598118307383826;-0.0149;0.0851;-0.0720;
598118317488878;-0.0213;0.1309;-0.0965;
598118327593878;-0.1522;0.0968;-0.0752;
598118337670128;-0.1447;0.0340;-0.0688;
598118347775128;-0.1032;-0.0087;-0.0624;
598118357880128;-0.1352;-0.0150;-0.0454;
598118367985337;-0.1522;-0.0129;-0.0603;
598118378090337;-0.0799;0.2863;-0.0688;
598118388195337;-0.1213;0.2831;-0.0593;
598118398304764;-0.1533;-0.1951;-0.0678;
598118408409816;-0.0256;-0.2238;-0.1093;
598118418514816;-0.1618;-0.0577;-0.1370;
598118428613045;-0.2182;-0.0928;-0.1594;
598118438718045;-0.1043;-0.0885;-0.1636;
598118448823045;-0.0533;-0.0012;-0.1786;
598118458903045;-0.0288;0.0105;-0.1242;
598118469008045;0.0490;-0.0001;-0.1125;
598118479113045;0.1310;-0.0598;-0.1157;
598118489218045;0.1481;-0.0204;-0.1242;
598118499358826;0.0991;-0.0406;-0.0827;
598118509463878;0.0959;-0.1834;-0.0316;
598118519568878;0.1236;-0.0065;-0.1125;
598118529669347;0.0309;0.0254;-0.0965;
598118539774399;0.0352;-0.1013;-0.0965;
598118549879399;0.1172;0.0052;-0.0678;
598118559981534;-0.0043;0.0372;-0.0475;
598118570086587;0.0192;-0.0129;-0.0475;
598118580191587;0.1076;0.1117;-0.0326;
598118590303149;0.0628;0.0862;-0.0422;
598118600408201;0.0533;0.0095;-0.0624;
598118610513201;0.0565;0.0691;-0.0443;
598118620611847;-0.0234;0.0478;-0.0411;
598118630716899;-0.0149;-0.0119;-0.0699;
598118640821899;-0.0107;-0.0896;-0.0901;
598118650925493;-0.0309;-0.0598;-0.1072;
598118661030545;-0.0873;0.1288;-0.1115;
598118671135545;-0.0746;0.0691;-0.0752;
598118681231795;0.0288;-0.0811;-0.0646;
598118691336795;0.0554;-0.0385;-0.1019;
598118701441795;-0.0021;-0.0321;-0.1690;
598118711554764;0.0000;-0.0438;-0.1509;
598118721659816;-0.0107;-0.0129;-0.1413;
598118731764816;0.0138;-0.0843;-0.1530;
598118741870232;0.0149;-0.0683;-0.1306;
598118751975284;0.0288;0.0840;-0.1764;
598118762080284;0.0778;0.1362;-0.1583;
598118772177941;0.0916;0.0702;-0.1562;
598118782282941;0.1704;-0.0715;-0.1051;
598118792387941;0.1694;-0.0417;-0.0997;
598118802496534;0.0831;0.0212;-0.0880;
598118812601587;0.0650;-0.0225;-0.1168;
598118822706587;0.0778;-0.0161;-0.0635;
598118832824868;0.0543;0.0350;-0.0838;
598118842929920;0.0543;-0.0150;-0.0880;
598118853034920;0.0746;0.0105;-0.0901;
598118863127524;0.0245;-0.0129;-0.0912;
598118873232524;0.0309;-0.0640;-0.1083;
598118883337524;0.0383;0.0052;-0.0923;
598118893445180;0.0746;0.0499;-0.1093;
598118903550232;0.0905;0.0425;-0.0806;
598118913655232;0.0724;0.0393;-0.0997;
598118923762159;0.1044;0.0659;-0.0997;
598118933867212;0.0937;0.0776;-0.0688;
598118943972212;0.0980;0.0190;-0.0507;
598118954059712;0.0810;-0.0300;-0.0401;
598118964164712;0.0682;-0.0225;-0.0529;
598118974269712;0.0490;0.0105;-0.0571;
598118984388514;0.0309;0.0073;-0.0774;
598118994493566;0.0607;-0.0491;-0.0401;
598119004598566;0.0692;-0.0800;-0.0422;
598119014698774;0.0991;-0.0523;-0.0475;
598119024803774;0.0469;0.0126;-0.0965;
598119034908774;0.0352;0.0308;-0.0869;
598119045010597;0.0810;0.0073;-0.0880;
598119055115649;0.0810;-0.0012;-0.0678;
598119065220701;0.0618;0.0212;-0.0880;
598119075339972;0.0820;0.0180;-0.0656;
598119085445024;0.0575;-0.0065;-0.0742;
598119095550024;0.0831;-0.0300;-0.0720;
598119105655493;0.0959;-0.0704;-0.0593;
598119115760545;0.0937;-0.0854;-0.0241;
598119125865545;0.0746;-0.0651;-0.0603;
598119135960128;0.0575;-0.1823;-0.0742;
598119146065180;0.0256;-0.2611;-0.0656;
598119156170180;-0.0735;-0.1375;-0.0731;
598119166274034;-0.2385;0.0883;-0.0955;
598119176379087;-0.1447;0.2278;-0.1349;
598119186484087;0.1672;0.1405;-0.2157;
598119196596326;0.2301;0.0851;-0.2168;
598119206701378;0.2056;0.1501;-0.1658;
598119216806378;0.1555;0.1607;-0.1370;
598119226905180;0.1417;0.1756;-0.1242;
598119237010232;0.1790;0.1522;-0.1562;
598119247115232;0.2173;0.0862;-0.1413;
598119257236326;0.2535;0.2437;-0.1264;
598119267341378;0.1779;0.1628;-0.0390;
598119277446378;0.1055;-0.4186;-0.0273;
598119287521795;0.0831;-0.3973;-0.1029;
598119297626795;-0.0288;-0.1834;-0.1306;
598119307731795;-0.1692;-0.1738;-0.1732;
598119317858357;-0.0863;-0.1663;-0.1965;
598119327963149;0.1289;-0.0417;-0.1413;
598119338067993;0.1736;0.1085;-0.1955;
598119348167784;0.2503;0.0851;-0.2189;
598119358272576;0.4314;0.0414;-0.1743;
598119368377420;0.5081;0.1469;-0.1477;
598119378477732;0.4549;0.2140;-0.1093;
598119388582576;0.4218;0.1554;-0.0614;
598119398687420;0.4772;0.1842;-0.0614;
598119408798774;0.4666;0.1511;-0.0124;
598119418903566;0.4250;0.0169;0.0441;
598119429008357;0.3600;0.0126;0.0707;
598119439111587;0.2461;-0.0321;0.0611;
598119449216378;0.1939;-0.1152;0.0888;
598119459321170;0.1683;-0.0502;0.0867;
598119469428149;0.1651;-0.1013;0.0856;
598119479532941;0.1619;-0.1770;0.0846;
598119489637732;0.1225;-0.1003;0.0601;
598119499736274;0.1257;-0.0236;0.0771;
598119509841066;0.1523;-0.1077;0.0505;
598119519945857;0.1939;-0.3367;0.0899;
598119530052264;0.1800;-0.2121;0.1304;
598119540157107;0.0671;0.2193;0.1186;
598119550261899;-0.1021;0.3481;0.0941;
598119560367732;0.2237;0.1628;0.0909;
598119570472524;0.5208;0.0883;0.0835;
598119580577316;0.5687;0.1085;0.0877;
598119590676482;0.4261;0.1575;0.1218;
598119600781274;0.1907;0.0862;0.1591;
598119610886066;0.2056;-0.0087;0.2017;
598119620994659;0.1832;-0.0161;0.2550;
598119631099503;0.1044;-0.0087;0.2486;
598119641204347;0.1417;0.2469;0.2667;
598119651299139;-0.0160;-0.0278;0.2816;
598119661403982;-0.0618;-0.3506;0.2624;
598119671508774;-0.0234;-0.1706;0.2262;
598119681620284;-0.2204;-0.1652;0.1740;
598119691725128;-0.3322;-0.2196;0.1112;
598119701829920;-0.3674;-0.0736;0.0590;
598119711945337;-0.4377;0.0819;0.0004;
598119722050128;-0.3716;0.2417;0.0196;
598119732154920;-0.0852;0.2374;0.0643;
598119742255753;0.2493;0.1511;0.0728;
598119752360545;0.3707;0.2118;0.0569;
598119762465337;0.2162;0.1415;0.0654;
598119772568409;0.0969;0.0659;0.1282;
598119782673253;0.0096;0.0574;0.1112;
598119792778045;-0.0309;-0.0310;0.0632;
598119802879972;-0.0437;-0.0204;0.0558;
598119812984816;-0.1298;0.0489;0.0505;
598119823089607;-0.1618;-0.0417;0.0537;
598119833194139;-0.1085;-0.1312;0.0590;
598119843298930;-0.0957;-0.0640;0.0142;
598119853403774;-0.1309;-0.0332;-0.0230;
598119863507889;-0.0778;-0.0300;-0.0134;
598119873612732;-0.0277;0.0382;-0.0124;
598119883717524;-0.0511;-0.0161;-0.0869;
598119893819139;0.0192;-0.0619;-0.1029;
598119903923930;0.0245;0.0105;-0.0880;
598119914028722;0.0149;0.0052;-0.0923;
598119924149087;0.1214;0.0553;-0.0774;
598119934253878;0.0863;0.0116;-0.0774;
598119944358670;0.1332;-0.0704;-0.0646;
598119954456951;0.1417;-0.0182;-0.0507;
598119964561795;0.0501;-0.0491;-0.0518;
598119974666639;0.0234;-0.0545;-0.0763;
598119984765909;0.0138;0.0403;-0.0784;
598119994870753;-0.0053;-0.0214;-0.1040;
598120004975545;0.0426;-0.0129;-0.1413;
598120015077316;0.0714;0.0489;-0.1466;
598120025182107;0.1129;0.0627;-0.1296;
598120035286899;0.1662;0.0798;-0.0976;
598120045445024;0.2194;0.0691;-0.0955;
598120055549816;0.3164;0.1224;-0.0848;
598120065654607;0.3387;0.1607;-0.1040;
598120075732628;0.3995;0.0776;-0.0582;
598120085837472;0.4879;0.0638;-0.0209;
598120095942264;0.4410;-0.0268;0.0111;
598120106063930;0.3558;-0.1077;0.0260;
598120116168722;0.2631;-0.0502;0.0313;
598120126273566;0.1864;-0.0278;0.0079;
598120136338201;0.2162;-0.0236;0.0451;
598120146442993;0.2493;-0.0427;0.0771;
598120156547837;0.2439;-0.0523;0.0984;
598120166654659;0.2344;-0.0364;0.0579;
598120176759451;0.2013;-0.0055;0.0899;
598120186864295;0.2226;-0.0044;0.1133;
598120196972316;0.2280;-0.0300;0.1304;
598120207077159;0.1992;-0.0662;0.1517;
598120217182003;0.1587;-0.0768;0.1570;
598120227292316;0.1587;-0.0268;0.1250;
598120237397107;0.1577;0.0169;0.1421;
598120247501899;0.1651;-0.0289;0.1911;
598120257619139;0.1864;-0.0555;0.1740;
598120267723930;0.1672;0.0009;0.1517;
598120277828774;0.1342;0.0041;0.1581;
598120287917680;0.1289;0.0350;0.1964;
598120298022524;0.0959;0.0190;0.1612;
598120308127368;0.0905;-0.0182;0.1506;
598120318232472;0.0863;0.0031;0.1698;
598120328337264;0.0352;0.0169;0.1762;
598120338442055;0.0405;0.0329;0.1783;
598120348547159;-0.0138;0.0169;0.1517;
598120358652003;0.0117;-0.0513;0.1591;
598120368756743;0.0181;0.0563;0.1655;
598120378860493;-0.0394;0.1149;0.1485;
598120388965284;0.0107;0.0276;0.1506;
598120399070076;0.0714;-0.0140;0.1314;
598120409177264;0.0149;-0.0268;0.1197;
598120419282055;-0.0479;0.0308;0.1357;
598120429386899;-0.1011;0.0340;0.1186;
598120439492889;-0.0234;0.0318;0.0899;
598120449597680;0.0288;0.0308;0.1229;
598120459702524;-0.0128;0.0265;0.1325;
598120469807732;-0.0202;0.0222;0.0824;
598120479912524;0.0117;0.0041;0.0750;
598120490017316;0.0202;0.0041;0.1005;
598120500121430;-0.0213;0.0158;0.0920;
598120510226222;-0.0352;0.0158;0.0579;
598120520331014;-0.0298;0.0340;0.0515;
598120530429243;-0.0469;0.0350;0.0483;
598120540534087;-0.0352;0.0766;0.0579;
598120550638826;-0.0298;0.1138;0.0409;
598120560749764;0.0309;0.0329;0.0515;
598120570854555;0.0394;0.0126;0.0803;
598120580959347;0.0234;0.0904;0.0366;
598120591067889;0.0330;0.0734;0.0739;
598120601172732;0.0213;-0.0278;0.0643;
598120611277472;-0.0107;-0.1003;0.0643;
598120621377159;-0.0554;-0.1557;0.0398;
598120631481951;-0.0735;-0.0598;-0.0092;
598120641586743;-0.1522;0.0063;0.0483;
598120651697055;-0.1522;0.0041;0.0228;
598120661801847;0.0341;0.0212;0.0132;
598120671906691;0.0373;0.0276;-0.0049;
598120682005701;0.0256;0.0893;-0.0294;
598120692110493;0.0394;0.0883;-0.0156;
598120702215284;0.0426;0.0041;-0.0007;
598120712331326;0.0575;0.0031;-0.0103;
598120722436170;0.0213;0.1096;0.0228;
598120732540909;0.0277;0.0393;0.0430;
598120742645701;0.0628;-0.0822;0.0196;
598120752750493;0.0277;-0.1375;0.0057;
598120762855284;0.0202;-0.2100;0.0356;
598120772954139;0.0224;-0.2899;0.0430;
598120783058930;0.0362;-0.2238;0.0036;
598120793163722;0.0096;-0.1173;0.0249;
598120803267889;0.0096;0.0105;0.0121;
598120813372680;-0.0053;0.0350;-0.0294;
598120823477472;0.0479;-0.0406;-0.0081;
598120833597993;0.2386;-0.0001;-0.0166;
598120843702784;0.3313;-0.0108;0.0142;
598120853807576;0.3100;-0.0587;0.0611;
598120863896639;0.2525;0.0126;0.0856;
598120874001430;0.1811;0.0585;0.0931;
598120884106222;0.1640;0.0723;0.0867;
598120894208722;0.2354;0.1394;0.1069;
598120904313514;0.3270;0.0318;0.1517;
598120914418305;0.3600;-0.0822;0.1559;
598120924534295;0.2865;-0.1024;0.2103;
598120934639087;0.0927;-0.1120;0.1932;
598120944743826;0.0405;-0.0619;0.1985;
598120954844347;0.0192;0.0435;0.1868;
598120964949139;0.0107;0.0276;0.1975;
598120975053982;0.0639;0.0158;0.2060;
598120985161326;0.1193;0.0766;0.1868;
598120995266118;0.0873;0.0467;0.1975;
598121005370909;0.1182;0.0393;0.1932;
598121015472889;0.1459;-0.0651;0.2443;
598121025577680;0.1044;-0.1397;0.2422;
598121035682472;-0.0011;-0.1099;0.2369;
598121045812472;-0.1256;0.0393;0.2230;
598121055917264;-0.2363;0.0712;0.2411;
598121066022055;-0.1202;0.0084;0.2475;
598121076106743;0.0426;-0.0055;0.2742;
598121086211534;0.0000;-0.0150;0.1623;
598121096316378;-0.0320;-0.0534;0.1325;
598121106446222;-0.0490;-0.1056;0.1602;
598121116551014;-0.1213;-0.1056;0.1655;
598121126655805;-0.1501;0.0052;0.1900;
598121136759555;-0.2023;0.0233;0.1517;
598121146864347;-0.1639;0.0041;0.1591;
598121156969191;-0.1117;-0.0385;0.1474;
598121167042472;-0.1479;-0.1024;0.1719;
598121177147264;-0.2257;-0.0928;0.1687;
598121187252055;-0.3067;0.0318;0.1069;
598121197376118;-0.2843;0.0766;0.0941;
598121207480909;-0.1959;0.0222;0.0718;
598121217585753;-0.0947;0.0585;0.0462;
598121227677837;-0.1501;0.0425;0.0238;
598121237782628;-0.1895;0.0180;0.0324;
598121247887420;-0.1575;0.2012;0.0377;
598121258019295;-0.1117;0.2437;0.0366;
598121268124087;-0.0799;0.0830;0.0632;
598121278228878;-0.0650;0.0329;0.0515;
598121288303357;-0.1458;-0.0023;0.0334;
598121298408149;-0.1511;0.0425;0.0260;
598121308512993;-0.1352;0.0254;0.0260;
598121318622264;-0.1490;-0.0236;-0.0316;
598121328727212;-0.1522;-0.0395;-0.0071;
598121338832107;-0.1575;-0.0150;-0.0017;
598121348928409;-0.1405;-0.0065;-0.0156;
598121359033357;-0.1543;0.0308;-0.0571;
598121369138253;-0.1021;0.0457;-0.0486;
598121379248618;-0.0788;0.0659;-0.0124;
598121389353566;-0.0778;0.1991;-0.0433;
598121399458462;-0.0968;0.0744;-0.0475;
598121409572472;-0.0554;0.0585;-0.0731;
598121419677420;-0.0501;0.0521;-0.0241;
598121429782316;-0.1437;-0.0300;-0.0379;
598121439885649;-0.1107;-0.0470;0.0089;
598121449990597;-0.0884;0.0233;-0.0390;
598121460095493;-0.0746;-0.0033;0.0100;
598121470196014;-0.0746;-0.0715;0.0174;
598121480300962;-0.0607;-0.0885;0.0025;
598121490405857;-0.0479;0.0340;-0.0379;
598121500510493;-0.0522;0.0585;-0.0603;
598121510615441;-0.0533;0.0201;-0.0284;
598121520720337;-0.0575;-0.0182;-0.0262;
598121530823930;-0.0607;-0.0214;-0.0188;
598121540928878;-0.0842;0.0180;-0.0284;
598121551033774;-0.0352;-0.0055;0.0079;
598121561140805;-0.0266;-0.0704;0.0356;
598121571245753;-0.0021;-0.2398;0.0867;
598121581350649;-0.0479;-0.4101;0.0750;
598121591451326;-0.0756;-0.4335;0.0654;
598121601556274;-0.1266;-0.5965;0.1059;
598121611661170;-0.2278;-0.6125;0.0238;
598121621774139;-0.3450;-0.0087;-0.0859;
598121631879139;-0.8477;0.4280;-0.2061;
598121641983982;-0.8253;0.2395;-0.1965;
598121652084764;0.0639;0.0286;-0.2189;
598121662189712;0.3728;0.1799;-0.2402;
598121672294607;0.3824;0.5334;-0.2445;
598121682395805;0.3387;0.6048;-0.1807;
598121692500753;0.3462;0.5068;-0.0806;
598121702605701;0.5538;0.6005;-0.0134;
598121712699034;0.7317;0.7710;0.0771;
598121722803982;0.6113;0.5036;0.1911;
598121732908878;0.3451;-0.4410;0.2603;
598121743025284;0.1545;-0.6008;0.2209;
598121753130232;-0.2044;-0.1407;0.1953;
598121763235128;-0.2619;-0.0928;0.1506;
598121773339816;-0.1288;-0.3538;0.1165;
598121783444764;-0.0703;-0.4048;0.0590;
598121793549659;-0.1149;0.0265;0.0100;
598121803659139;-0.0905;0.3214;0.0654;
598121813764087;-0.0330;0.1288;0.0569;
598121823868982;0.1087;0.1213;0.1027;
598121833998097;0.1353;0.1916;0.1581;
598121844103045;0.0490;-0.0278;0.1975;
598121854207941;0.0043;-0.1173;0.2411;
598121864284764;-0.0628;-0.0875;0.2582;
598121874389712;-0.1873;-0.2537;0.2379;
598121884494607;-0.2289;-0.1823;0.1698;
598121894593097;-0.3237;0.0766;0.1485;
598121904698045;-0.4739;0.0031;0.1154;
598121914802941;-0.3397;-0.0630;0.0728;
598121924916899;-0.1991;0.0893;0.0601;
598121935021847;-0.2843;0.1075;0.0537;
598121945126743;-0.3258;-0.0300;0.0696;
598121955235857;-0.2300;-0.0598;0.0281;
598121965340805;-0.2087;-0.0119;0.0100;
598121975445701;-0.2736;0.0254;-0.0113;
598121985529034;-0.2598;0.0595;-0.0827;
598121995633930;-0.1415;0.0105;-0.1168;
598122005738826;-0.1128;-0.0491;-0.1658;
598122015861222;-0.1820;-0.0704;-0.1818;
598122025966170;-0.1831;-0.0949;-0.1583;
598122036071066;-0.1969;-0.0555;-0.1923;
598122046164712;-0.2044;0.0052;-0.2328;
598122056269659;-0.1053;0.1107;-0.1838;
598122066374555;-0.1117;0.1458;-0.1519;
598122076501222;-0.1160;0.0521;-0.2125;
598122086606170;-0.1043;0.0276;-0.1944;
598122096711066;-0.0746;0.0755;-0.1722;
598122106781534;-0.0490;0.0691;-0.2200;
598122116886482;-0.0469;0.0340;-0.1901;
598122126991378;-0.0458;0.0329;-0.1328;
598122137118305;-0.0957;-0.0236;-0.1274;
598122147223253;-0.0957;-0.0374;-0.1306;
598122157328149;-0.0925;-0.0065;-0.0955;
598122167460493;-0.1075;-0.0523;-0.0752;
598122177565441;0.0149;0.0595;-0.0646;
598122187670337;-0.0394;0.0808;-0.1732;
598122197776222;-0.1128;-0.0885;-0.1455;
598122207881170;-0.0682;-0.0353;-0.1210;
598122217986066;-0.1181;-0.0481;-0.1168;
598122228084034;-0.1138;-0.0321;-0.1423;
598122238188982;-0.0873;-0.0236;-0.0997;
598122248293878;-0.0490;0.0542;-0.0933;
598122258384243;0.0138;0.1447;-0.0465;
598122268489191;-0.0202;0.0862;-0.0337;
598122278594087;-0.0682;-0.1152;-0.0124;
598122288701430;-0.0458;-0.0917;-0.0518;
598122298806378;-0.0415;-0.0779;0.0089;
598122308911274;-0.1224;-0.2973;0.0366;
598122319016222;-0.1650;-0.2920;-0.0092;
598122329121170;-0.1469;0.0329;-0.0177;
598122339226118;-0.0565;0.2097;-0.0678;
598122349324816;-0.0543;0.1394;-0.0742;
598122359429764;-0.0905;0.1011;-0.0465;
598122369534712;-0.0682;0.0712;-0.0646;
598122379650389;-0.0842;0.0702;-0.1189;
598122389755337;0.0469;0.2458;-0.0646;
598122399860284;0.0479;0.2257;-0.0688;
598122409958514;0.1129;0.1085;-0.0209;
598122420063462;0.2397;0.3065;0.0569;
598122430168409;0.0937;0.1213;0.0750;
598122440277784;-0.0213;-0.3410;0.1037;
598122450382732;-0.0064;-0.2505;0.0771;
598122460487680;-0.0957;-0.1280;0.0356;
598122470584816;-0.0842;-0.2100;0.0601;
598122480689764;-0.1075;-0.1983;-0.0411;
598122490794712;-0.0320;0.0212;-0.0369;
598122500900701;-0.0469;0.1298;-0.0550;
598122511005649;-0.0597;-0.0555;-0.0869;
598122521110597;0.0501;0.0222;-0.0156;
598122531215389;0.0778;0.2268;0.0036;
598122541320337;0.0128;0.0382;0.0228;
598122551425284;0.1055;-0.1983;0.0760;
598122561528305;0.1023;-0.0896;0.0846;
598122571633253;-0.0703;-0.1067;0.0760;
598122581738201;-0.0767;-0.1716;0.0153;
598122591827264;-0.0905;-0.0065;-0.0273;
598122601932212;-0.1266;-0.0001;-0.0124;
598122612037159;-0.1650;-0.0236;-0.0422;
598122622159555;-0.1224;0.0830;-0.0497;
598122632264503;-0.0628;0.0989;-0.0646;
598122642369451;-0.0660;-0.0332;-0.0731;
598122652476639;0.0075;0.0499;-0.0720;
598122662581587;-0.0043;0.2182;-0.0454;
598122672686534;-0.0085;0.1266;-0.0752;
598122682789659;0.0288;0.0212;-0.0731;
598122692894607;0.0735;0.0766;-0.0571;
598122702999555;0.0181;0.0126;-0.0603;
598122713128305;0.0330;-0.2760;-0.0475;
598122723233253;0.0479;-0.6999;-0.0028;
598122733338201;-0.1969;-0.8575;-0.0358;
598122743432159;-0.3461;-0.4676;-0.1072;
598122753537107;-0.4217;0.0521;-0.1711;
598122763642055;-0.5794;0.0744;-0.1891;
598122773745180;-0.3759;-0.1407;-0.1487;
598122783850128;0.1864;0.1224;-0.2690;
598122793955076;0.5953;0.6197;-0.4565;
598122804063566;0.4826;0.7624;-0.4266;
598122814168514;0.2120;0.4439;-0.2626;
598122824273462;0.3803;0.4897;-0.1551;
598122834375597;0.9437;1.2502;-0.0720;
598122844480545;0.8244;0.9104;0.0302;
598122854585493;0.3324;-0.2355;0.2518;
598122864677472;0.3515;-0.2345;0.3061;
598122874782420;0.2258;0.0499;0.3264;
598122884887368;0.0234;-0.1919;0.3466;
598122894987784;-0.2023;-0.7467;0.2603;
598122905092784;-0.3738;-0.9991;0.1644;
598122915197680;-0.5996;-0.7222;0.0803;
598122925346899;-0.6710;-0.1929;0.0281;
598122935451795;-0.7252;-0.1418;-0.0475;
598122945556743;-0.4760;-0.1450;-0.0848;
598122955616899;-0.2193;0.0670;-0.0933;
598122965721847;-0.1447;0.2012;-0.0901;
598122975826743;-0.0735;0.2543;-0.0678;
598122985936639;-0.0181;0.2565;-0.0284;
598122996041587;-0.0075;0.1415;-0.0209;
598123006146534;0.0820;0.0435;-0.0028;
598123016269972;0.0799;-0.0225;0.0249;
598123026374920;-0.0607;-0.0800;0.0430;
598123036479816;-0.0788;0.0510;0.0654;
598123046573097;-0.0075;0.1501;0.0366;
598123056678045;0.0224;0.0435;0.0654;
598123066782993;0.0096;0.0403;0.0505;
598123076882889;0.0011;0.0893;0.0483;
598123086987837;-0.0618;-0.0214;0.0664;
598123097092784;-0.0799;-0.1099;0.0473;
598123107220284;-0.0925;-0.0438;0.0526;
598123117325232;-0.1671;-0.0566;0.0505;
598123127430180;-0.1703;-0.1035;0.0153;
598123137513514;-0.1447;-0.1130;0.0142;
598123147618462;-0.1490;-0.1024;-0.0145;
598123157723409;-0.0831;-0.0502;-0.0539;
598123167830701;-0.0820;-0.0917;-0.1040;
598123177935649;-0.0479;-0.0214;-0.1210;
598123188040597;-0.0298;0.0521;-0.0901;
598123198145909;-0.0682;-0.0044;-0.0859;
598123208250857;-0.0714;0.0521;-0.0752;
598123218355805;-0.0724;0.1138;-0.0561;
598123228467993;-0.0511;0.0606;-0.0071;
598123238572941;-0.0458;0.0531;-0.0039;
598123248677889;-0.0330;0.0840;-0.0145;
598123258780389;-0.0522;0.0052;0.0153;
598123268885337;-0.0799;-0.1194;-0.0230;
598123278990284;-0.0543;-0.0683;-0.0326;
598123289098722;-0.0968;-0.0491;-0.0241;
598123299203670;-0.0979;-0.0747;-0.0326;
598123309308618;-0.0873;0.0553;-0.0454;
598123319410389;-0.1085;0.0265;-0.0561;
598123329515337;-0.0543;-0.1194;-0.0252;
598123339620284;0.0043;-0.1865;0.0217;
598123349720909;-0.0671;-0.4826;0.0228;
598123359825857;-0.2172;-0.4122;-0.0795;
598123369930805;-0.2140;0.3246;-0.1668;
598123380035076;-0.0426;0.4929;-0.1827;
598123390140024;0.1076;0.2076;-0.1859;
598123400244972;0.0778;0.1170;-0.1668;
598123410344503;0.1800;0.1586;-0.1381;
598123420449451;0.3409;0.1266;-0.0806;
598123430554399;0.3025;0.2023;-0.0379;
598123440675232;0.2269;0.2628;0.0025;
598123450780180;0.3441;0.3534;0.0846;
598123460885128;0.4751;0.6506;0.1314;
598123470981951;0.2333;0.1671;0.1442;
598123481086899;0.1502;-0.6413;0.1325;
598123491191847;0.1640;-0.4357;0.1133;
598123501294139;-0.2108;-0.1471;0.0824;
598123511399087;-0.3482;-0.1216;0.0505;
598123521504034;-0.3013;-0.0928;0.0483;
598123531610389;-0.1639;0.0318;0.0260;
598123541715337;-0.0639;0.0872;0.0270;
598123551820337;-0.0522;-0.0555;0.0249;
598123561921326;0.0021;-0.0545;0.0025;
598123572026274;0.0447;0.1607;0.0270;
598123582131222;0.0000;0.1085;0.0142;
598123592239764;-0.0213;-0.0587;0.0047;
598123602344712;-0.0170;0.0776;0.0356;
598123612449659;-0.0554;0.1245;0.0696;
598123622559139;-0.0181;-0.0246;0.0782;
598123632664087;-0.0053;0.0499;0.0952;
598123642769034;-0.0936;0.1064;0.0760;
598123652869659;-0.1639;0.0563;0.0292;
598123662974607;-0.0905;0.1937;0.0249;
598123673079555;-0.0968;0.1831;0.0153;
598123683187784;-0.1000;0.0308;-0.0241;
598123693292732;-0.0842;0.0659;-0.0156;
598123703397680;-0.1533;0.0712;-0.0177;
598123713524139;-0.1916;-0.0342;-0.0422;
598123723629087;-0.0957;0.0308;-0.0284;
598123733734034;-0.0373;0.0563;-0.0294;
598123743824139;-0.0181;0.0031;-0.0092;
598123753929087;-0.0735;-0.0651;-0.0529;
598123764034034;-0.0522;-0.1610;-0.0838;
598123774131743;-0.0586;-0.1802;-0.0752;
598123784236691;-0.0778;-0.1461;-0.0944;
598123794341639;-0.0979;-0.1386;-0.1200;
598123804455076;-0.0692;-0.0065;-0.1093;
598123814560076;-0.0522;0.0936;-0.1221;
598123824664972;0.0117;0.0606;-0.1146;
598123834769972;0.0373;0.0137;-0.0731;
598123844874920;0.0756;0.0510;-0.0923;
598123854979868;0.0309;0.0872;-0.0955;
598123865066639;0.0160;0.0787;-0.0720;
598123875171587;0.0469;0.0766;-0.0827;
598123885276587;0.0394;0.0457;-0.0806;
598123895448774;0.0266;-0.0055;-0.0646;
598123905553722;0.0043;-0.0395;-0.0401;
598123915658670;-0.0309;-0.1620;-0.0017;
598123925728722;-0.0085;-0.1802;-0.0284;
598123935833670;0.0000;-0.0747;-0.0454;
598123945938618;-0.0107;-0.0193;-0.0699;
598123956063826;-0.0085;-0.0758;-0.0656;
598123966168774;0.0298;-0.1045;-0.0656;
598123976273722;-0.0053;-0.1205;-0.0816;
598123986351534;-0.0501;-0.1599;-0.0614;
598123996456482;-0.0522;-0.0651;-0.0678;
598124006561430;0.0032;0.1160;-0.0635;
598124016653930;0.0820;0.2193;-0.0838;
598124026758878;0.1097;0.2097;-0.0656;
598124036863826;0.0810;0.1969;-0.0593;
598124046965180;0.0373;0.1873;-0.0838;
598124057070128;0.0778;0.1703;-0.0411;
598124067175076;0.1225;0.2076;-0.0241;
598124077275076;0.0788;0.2182;0.0047;
598124087380024;0.0501;0.1288;0.0760;
598124097484972;0.0298;0.0915;0.0909;
598124107616743;-0.0341;-0.0555;0.1016;
598124117721691;-0.0873;-0.2355;0.0984;
598124127826639;-0.1543;-0.2718;0.0611;
598124137919399;-0.2182;-0.2185;0.0068;
598124148024347;-0.2853;-0.1642;-0.0614;
598124158129295;-0.2672;-0.0854;-0.0880;
598124168233982;-0.1383;0.0095;-0.1509;
598124178338930;-0.0256;0.0478;-0.1445;
598124188443878;-0.0277;0.0169;-0.0838;
598124198544139;0.0096;-0.0012;-0.0614;
598124208649139;0.0724;0.0137;-0.0539;
598124218754034;0.0820;-0.0087;-0.0017;
598124228854659;0.0831;-0.0555;0.0036;
598124238959607;0.1129;-0.0353;-0.0049;
598124249064555;0.0799;0.0105;-0.0028;
598124259180493;0.0586;0.0340;-0.0348;
598124269285441;0.0831;0.0158;-0.0390;
598124279390389;0.1012;-0.0332;-0.0156;
598124289487264;0.0820;-0.0332;0.0451;
598124299592212;0.0437;-0.0449;0.0675;
598124309697159;0.0170;-0.1322;0.0707;
598124319797732;0.0170;-0.1887;0.0952;
598124329902680;-0.0288;-0.1738;0.0846;
598124340007628;-0.0703;0.0031;0.0100;
598124350114243;-0.0522;0.0893;0.0174;
598124360219191;-0.0192;-0.0427;-0.0134;
598124370324139;0.0117;-0.0779;-0.0465;
598124380431430;-0.0107;0.0233;-0.0614;
598124390536378;-0.0256;0.0574;-0.0422;
598124400641326;0.0043;0.0659;-0.0326;
598124410744555;0.0245;0.1266;-0.0092;
598124420849503;0.0660;0.2161;0.0025;
598124430954451;0.0597;0.2097;0.0068;
598124441063722;0.0383;0.1565;0.0196;
598124451168670;-0.0032;-0.1003;0.0324;
598124461273618;-0.0043;-0.1908;-0.0177;
598124471387055;-0.0501;-0.0577;-0.0422;
598124481492003;-0.0479;-0.2483;-0.0177;
598124491596951;-0.1501;-0.7062;-0.0028;
598124501693930;-0.3237;-0.2483;-0.0731;
598124511798930;-0.5804;0.4695;-0.1210;
598124521903878;-0.3599;0.3513;-0.1626;
598124532009139;0.0746;0.0329;-0.1944;
598124542114087;0.0160;0.0318;-0.2338;
598124552219034;0.0117;0.2161;-0.2679;
598124562314347;0.1044;0.2863;-0.2317;
598124572419295;0.0756;0.1405;-0.1923;
598124582524243;0.1257;-0.0236;-0.1200;
598124592620805;0.2844;0.3055;-0.0901;
598124602725753;0.4389;1.0787;-0.0294;
598124612830701;-0.0192;-0.3877;0.0686;
598124622953982;0.0501;-1.1599;-0.0358;
598124633058930;0.0842;-0.1897;-0.0965;
598124643163878;-0.1671;0.1383;-0.0944;
598124653262993;-0.2395;-0.1120;-0.1306;
598124663367941;-0.0905;-0.2760;-0.1743;
598124673472889;0.0767;0.0190;-0.1818;
598124683579659;0.0682;0.2735;-0.1455;
598124693684607;0.0075;-0.0097;-0.0944;
598124703789555;0.1033;-0.0417;-0.0507;
598124713900909;0.2088;0.2236;-0.0209;
598124724005857;0.1023;0.0222;-0.0177;
598124734110805;0.0756;-0.0289;-0.0326;
598124744211951;0.1150;0.1969;-0.0017;
598124754316899;0.0447;-0.0065;0.0036;
598124764421847;0.0682;-0.1557;0.0079;
598124774525389;0.1044;0.0883;0.0174;
598124784630337;0.0245;-0.0065;0.0324;
598124794735284;0.0298;-0.1727;0.0451;
598124804844139;0.0820;-0.0044;0.0995;
598124814949087;0.0575;0.0095;0.0846;
598124825054034;0.0511;-0.0854;0.0707;
598124835151691;0.0469;0.0670;0.0387;
598124845256639;0.0554;0.0286;0.0611;
598124855361587;0.0703;-0.0140;0.0409;
598124865472837;0.0905;0.0020;0.0441;
598124875577784;0.0671;-0.0768;0.0505;
598124885682680;0.0607;-0.0417;0.0824;
598124895787784;0.0256;-0.0055;0.0877;
598124905892732;0.0138;-0.0875;0.0611;
598124915997680;0.0554;-0.0949;0.0473;
598124926089555;0.0245;0.0553;0.0292;
598124936194503;0.0107;0.0872;0.0515;
598124946299451;0.0075;-0.0566;0.0142;
598124956436222;0.0884;-0.0076;0.0121;
598124966541170;0.0298;0.0126;-0.0358;
598124976646118;0.0352;-0.0630;-0.0007;
598124986723722;0.0543;-0.0236;0.0505;
598124996828670;0.0405;-0.0992;0.0675;
598125006933618;0.0501;-0.0726;0.0334;
598125017069243;0.0320;0.0009;-0.0113;
598125027174191;0.0320;-0.0342;-0.0582;
598125037279139;0.0405;-0.0470;-0.0454;
598125047358930;0.0522;-0.0662;-0.0593;
598125057463878;0.0586;-0.0917;-0.0859;
598125067568826;0.0575;0.0766;-0.1157;
598125077673409;0.0937;0.1756;-0.1072;
598125087778357;0.1385;0.0414;-0.0742;
598125097883305;0.2248;-0.0076;-0.0358;
598125107981847;0.2961;0.1181;0.0121;
598125118086795;0.2120;0.1032;-0.0124;
598125128191743;0.2024;0.0276;-0.0028;
598125138307055;0.2567;0.0830;0.0206;
598125148412003;0.2152;0.0712;0.0302;
598125158516951;0.1843;-0.0012;0.0537;
598125168624347;0.1278;-0.0832;0.0686;
598125178729295;0.0831;-0.1205;0.0483;
598125188834243;0.0746;-0.0822;0.0739;
598125198935493;0.0160;-0.0577;0.0824;
598125209040441;0.0458;-0.0236;0.0909;
598125219145389;0.0437;-0.0119;0.0537;
598125229263878;0.0256;0.0158;0.0750;
598125239368774;0.0778;0.0510;0.0707;
598125249473722;0.0927;-0.0023;0.0569;
598125259571014;0.0756;-0.0683;0.0569;
598125269675962;0.0618;0.0052;0.0569;
598125279780909;0.0767;-0.0087;0.1208;
598125289873722;0.0682;-0.1993;0.1410;
598125299978670;0.0916;-0.2174;0.1399;
598125310083618;-0.0320;-0.2814;0.1357;
598125320205337;-0.1426;-0.0981;0.0814;
598125330310284;-0.3823;0.2842;0.0196;
598125340415284;-0.3929;0.2575;0.0249;
598125350522472;-0.0117;0.0968;-0.0103;
598125360627472;0.0597;0.0553;-0.0646;
598125370732420;0.0096;0.0414;-0.0145;
598125380824555;0.0192;0.0510;0.0036;
598125390929555;0.0202;0.0489;0.0515;
598125401034503;0.0043;0.1266;0.0739;
598125411136326;0.0053;0.0989;0.0611;
598125421241326;0.0426;0.2671;0.0398;
598125431346326;-0.0692;0.0691;0.0696;
598125441458305;-0.1128;-0.4868;0.0292;
598125451563305;-0.0288;-0.2952;-0.0198;
598125461668253;-0.1991;-0.1631;-0.0379;
598125471835649;-0.3152;-0.2174;-0.0571;
598125481940597;-0.2108;-0.1205;-0.0582;
598125492045545;-0.1543;-0.0481;-0.0390;
598125502093097;-0.0746;0.1298;-0.0443;
598125512198097;-0.0192;0.1842;-0.0550;
598125522303097;-0.0117;0.1085;-0.0497;
598125532397680;0.0426;0.1554;-0.0422;
598125542502680;0.0820;0.1181;-0.0561;
598125552607680;0.0842;-0.0055;-0.0518;
598125562729295;0.0969;0.0276;-0.0518;
598125572834243;0.0245;0.0435;-0.0411;
598125582939191;-0.0266;0.0276;0.0100;
598125593059868;-0.0160;0.0542;0.0260;
598125603164868;0.0107;0.0105;-0.0124;
598125613269816;-0.0298;-0.0704;-0.0486;
598125623346066;-0.0170;0.0148;-0.0507;
598125633451014;-0.0373;-0.0438;-0.0699;
598125643556014;-0.0021;-0.1865;-0.1104;
598125653657993;-0.0245;-0.0928;-0.1221;
598125663762993;-0.0607;-0.0001;-0.1423;
598125673867993;-0.0224;0.0265;-0.1434;
598125683977680;0.0394;0.0169;-0.1360;
598125694082680;0.1193;-0.0321;-0.1146;
598125704187680;0.1427;-0.0087;-0.1402;
598125714293305;0.0895;0.0830;-0.1573;
598125724398357;0.0597;0.0510;-0.1615;
598125734503253;0.1268;-0.0332;-0.1658;
598125744600805;0.1310;-0.0023;-0.1658;
598125754705805;0.0554;0.0691;-0.1487;
598125764810753;0.0075;-0.0353;-0.1668;
598125774928409;0.0362;-0.0843;-0.1562;
598125785033409;0.0501;-0.0715;-0.1125;
598125795138409;0.0767;-0.0459;-0.1253;
598125805246691;0.0937;0.0340;-0.1679;
598125815351639;0.1193;0.0670;-0.1551;
598125825456639;0.1651;0.0414;-0.1487;
598125835553253;0.2280;-0.0225;-0.1668;
598125845658201;0.2844;0.0009;-0.1700;
598125855763201;0.2929;0.0808;-0.1274;
598125865867472;0.2929;0.0276;-0.1104;
598125875972472;0.3664;0.0073;-0.0411;
598125886077420;0.3451;0.0233;-0.0060;
598125896196691;0.3398;-0.0044;0.0132;
598125906301639;0.3377;-0.0023;-0.0145;
598125916406639;0.3569;0.0308;0.0430;
598125926526743;0.3132;0.0393;0.0441;
598125936631743;0.3004;0.0286;0.0569;
598125946736691;0.2865;0.0190;0.0814;
598125956796951;0.2162;-0.0342;0.0952;
598125966901951;0.1917;-0.0640;0.1197;
598125977006951;0.1800;-0.0523;0.1772;
598125987136951;0.1715;-0.0065;0.1847;
598125997241951;0.1896;0.0009;0.1751;
598126007346899;0.1619;-0.0374;0.1485;
598126017483097;0.1672;-0.0204;0.1911;
598126027588097;0.1417;-0.0928;0.2092;
598126037693045;0.0991;-0.3218;0.1772;
598126047747264;-0.0011;-0.2419;0.1879;
598126057852264;-0.2736;0.1320;0.1474;
598126067957212;-0.3652;0.3172;0.1346;
598126078070076;-0.1256;0.1128;0.1250;
598126088175076;0.1055;-0.0864;0.1474;
598126098280076;0.0852;-0.0704;0.0835;
598126108388514;0.0746;0.0925;0.0909;
598126118493514;0.0011;0.1511;0.1112;
598126128598462;-0.0160;0.0691;0.1059;
598126138703722;0.0628;0.1032;0.1570;
598126148808722;0.0937;0.3321;0.1879;
598126158913670;0.0224;0.1170;0.2348;
598126169021118;-0.0565;-0.4112;0.2316;
598126179126118;-0.0373;-0.3686;0.1634;
598126189231066;-0.1288;-0.1770;0.1485;
598126199352784;-0.2790;-0.0992;0.0590;
598126209457784;-0.2545;-0.0129;0.0515;
598126219562732;-0.1852;0.0244;0.0419;
598126229631170;-0.0554;0.0744;0.0324;
598126239736118;0.0138;0.1234;0.0217;
598126249841118;0.0256;0.0819;0.0622;
598126259967055;0.0682;0.1213;0.0835;
598126270072055;0.0692;0.0798;0.1122;
598126280177055;0.0383;-0.0726;0.1538;
598126290280493;-0.0085;-0.0055;0.0792;
598126300385493;-0.0362;0.1266;0.0590;
598126310490441;-0.0266;0.0606;0.0611;
598126320609347;0.0075;-0.0289;0.0760;
598126330714347;-0.0224;-0.0566;0.0483;
598126340819347;-0.0277;-0.0800;0.0377;
598126350909816;-0.0650;-0.0704;0.0121;
598126361014816;-0.0788;-0.0779;0.0089;
598126371119816;-0.0799;-0.0704;0.0217;
598126381222472;-0.0405;0.0403;0.0153;
598126391327472;-0.0383;0.0574;-0.0379;
598126401432472;-0.0117;0.0308;-0.0593;
598126411531430;0.0628;0.1170;-0.0497;
598126421636430;0.0511;0.0872;-0.0795;
598126431741482;0.0778;0.0084;-0.1051;
598126441853149;0.0660;0.1256;-0.0816;
598126451958149;0.0341;0.1842;-0.0699;
598126462063149;0.0905;0.0872;-0.0550;
598126472173357;0.2631;-0.0800;-0.0326;
598126482278357;0.2972;-0.2824;-0.0209;
598126492383357;0.0767;-0.3474;-0.0166;
598126502486014;-0.0915;-0.1333;-0.0582;
598126512591014;-0.2001;0.0830;-0.0976;
598126522696014;-0.3088;-0.0044;-0.1509;
598126532806743;-0.0202;-0.0246;-0.1423;
598126542911743;0.2141;0.0585;-0.1434;
598126553016743;0.1896;-0.1003;-0.1594;
598126563125597;0.2631;-0.1887;-0.1242;
598126573230597;0.2759;0.0467;-0.1083;
598126583335597;0.2301;0.2756;-0.0806;
598126593418409;0.2567;0.2714;-0.0113;
598126603523409;0.3228;0.1628;0.0015;
598126613628409;0.4240;0.0329;0.0228;
598126623748305;0.4921;-0.2185;0.0196;
598126633853305;0.4485;-0.1823;0.0579;
598126643958305;0.0799;-0.1120;0.0675;
598126654073826;0.0341;-0.0300;0.0899;
598126664178826;0.0320;0.0276;0.1240;
598126674283826;-0.0075;-0.0119;0.1016;
598126684370076;0.1278;0.0254;0.0814;
598126694475076;0.1427;0.0041;0.0814;
598126704580076;0.1481;-0.0758;0.0920;
598126714701847;0.1523;0.0276;0.1154;
598126724806847;0.1321;-0.0044;0.1367;
598126734911847;0.1523;-0.0481;0.1847;
598126744997368;0.1577;0.0712;0.1581;
598126755102420;0.1289;0.0478;0.1985;
598126765207420;0.1097;-0.0193;0.2369;
598126775350337;0.0671;-0.0193;0.1964;
598126785455284;0.0490;-0.0332;0.1527;
598126795560337;0.0714;0.0595;0.1644;
598126805615753;0.0394;0.0755;0.1826;
598126815720753;0.0128;-0.0630;0.1570;
598126825825753;0.0298;-0.0566;0.1261;
598126835954972;-0.0309;0.1469;0.1431;
598126846059972;-0.1820;0.1426;0.1336;
598126856164972;-0.1192;-0.0161;0.1591;
598126866270180;0.0405;-0.0438;0.1868;
598126876375180;-0.0053;0.0382;0.1197;
598126886480180;-0.1522;0.0744;0.0718;
598126896553409;-0.1937;-0.0204;0.0505;
598126906658409;-0.1320;-0.0864;0.0132;
598126916763409;-0.1107;-0.0364;0.0174;
598126926912993;-0.2182;0.0084;-0.0124;
598126937017993;-0.2310;0.0212;0.0292;
598126947122993;-0.1011;0.0212;0.0686;
598126957198409;0.0000;-0.0832;0.0441;
598126967303409;-0.0202;-0.1120;0.0547;
598126977408409;-0.0767;0.0329;-0.0188;
598126987515597;-0.0724;0.0925;-0.0209;
598126997620597;-0.0703;0.0372;-0.0156;
598127007725597;-0.0288;-0.0182;-0.0156;
598127017838566;-0.0245;0.0915;-0.0678;
598127027943566;-0.0565;0.0862;-0.0593;
598127038048566;-0.0447;-0.0470;-0.0358;
598127048155232;-0.0288;0.0020;0.0473;
598127058260232;-0.0522;-0.0502;0.0601;
598127068365232;-0.0362;-0.2164;0.0015;
598127078474399;0.0458;-0.0502;0.0419;
598127088579399;-0.0692;0.0531;-0.0316;
598127098684399;-0.0639;0.0201;-0.0827;
598127108791430;-0.0256;-0.0310;-0.0188;
598127118896430;-0.1213;-0.3367;0.0068;
598127129001430;-0.1256;-0.2995;-0.0699;
598127139098930;0.0128;0.2895;-0.1157;
598127149203930;0.3174;0.5355;-0.0742;
598127159308930;0.1704;0.1884;-0.0348;
598127169415232;-0.1309;0.0755;-0.0273;
598127179520232;-0.0202;0.4343;0.0047;
598127189625232;-0.0820;0.0702;0.0313;
598127199748878;-0.1735;-0.2771;0.0430;
598127209853930;-0.0415;-0.0065;0.0206;
598127219958878;0.1300;0.2927;0.0217;
598127230017055;0.1758;0.4418;0.0260;
598127240122055;-0.1820;-0.1035;0.0888;
598127250227055;-0.3961;-0.7020;0.0771;
598127260366326;-0.2502;-0.3941;-0.0710;
598127270471326;-0.0915;-0.0619;-0.1786;
598127280576326;-0.1586;-0.1312;-0.1944;
598127290675909;-0.2268;-0.1972;-0.1732;
598127300780909;-0.2651;-0.1333;-0.2232;
598127310885909;-0.1437;0.1138;-0.2040;
598127321005909;-0.1213;0.0734;-0.1743;
598127331110909;-0.0383;-0.1216;-0.1807;
598127341215962;0.0309;0.0372;-0.1615;
598127351295649;0.0064;0.0680;-0.1891;
598127361400649;-0.0373;-0.1013;-0.2083;
598127371505649;0.0628;0.0308;-0.1912;
598127381617784;0.1640;0.1107;-0.2232;
598127391722784;0.1097;0.0233;-0.2264;
598127401827837;0.0873;0.1064;-0.2136;
598127411934764;0.0692;0.0499;-0.2104;
598127422039764;0.0565;-0.1099;-0.2040;
598127432144816;0.1811;0.0201;-0.1594;
598127442251118;0.2322;0.0872;-0.1541;
598127452356118;0.2173;-0.1184;-0.1232;
598127462461170;0.2887;-0.0790;-0.0742;
598127472569139;0.4165;0.0862;-0.1146;
598127482674139;0.4581;0.0670;-0.1370;
598127492779139;0.5124;0.0542;-0.0433;
598127502884764;0.5102;0.0712;-0.1083;
598127512989816;0.6667;0.2300;0.0739;
598127523094816;0.4048;0.1352;0.1336;
598127533195076;0.2887;-0.1045;0.1879;
598127543300128;0.4080;-0.1205;0.2284;
598127553405128;0.4080;-0.0427;0.2220;
598127563504295;0.3409;-0.0140;0.2305;
598127573609295;0.2056;-0.0502;0.2326;
598127583714295;0.1971;-0.0193;0.2529;
598127593851639;0.1172;0.0041;0.2784;
598127603956639;-0.0213;-0.0758;0.2518;
598127614061639;0.0192;-0.0395;0.2092;
598127624137055;-0.0660;-0.0811;0.2699;
598127634242055;-0.1778;-0.0204;0.2443;
598127644347107;-0.1149;0.0691;0.2241;
598127654454816;-0.1756;-0.0033;0.1783;
598127664559816;-0.1469;0.0531;0.1591;
598127674664868;-0.1117;0.1107;0.1218;
598127684755128;-0.1543;0.0009;0.0963;
598127694860128;-0.1341;-0.0907;0.0899;
598127704965128;-0.0788;-0.0981;0.0792;
598127715098097;-0.0703;-0.0609;0.0409;
598127725203149;0.0298;0.0041;0.0153;
598127735308149;0.0639;-0.0300;0.0356;
598127745451743;0.0767;-0.0246;0.0505;
598127755556743;0.1065;-0.0023;0.0313;
598127765661743;0.1715;0.0542;0.0185;
598127775713774;0.1779;0.1032;0.0260;
598127785818774;0.2226;0.0872;0.0142;
598127795923774;0.1800;0.0489;0.0483;
598127806068514;0.1332;0.0585;0.0782;
598127816173514;0.1438;0.0254;0.0888;
598127826278514;0.1140;-0.0353;0.1389;
598127836344972;0.0852;-0.0385;0.1772;
598127846449972;0.0628;-0.0119;0.1879;
598127856555024;-0.0085;-0.0470;0.1325;
598127866653670;-0.0426;-0.0182;0.1357;
598127876758618;-0.1256;0.0425;0.1091;
598127886863670;-0.1799;-0.0225;0.0856;
598127896968201;-0.2172;-0.0971;0.0867;
598127907073201;-0.2033;0.0787;0.1091;
598127917178201;-0.3354;0.0052;0.1059;
598127927288566;-0.3461;-0.1109;0.0632;
598127937393566;-0.2363;0.0585;0.0419;
598127947498618;-0.2300;0.1256;0.0686;
598127957625909;-0.2960;0.0563;0.0409;
598127967730909;-0.2225;0.0893;0.0206;
598127977835909;-0.2236;0.1309;0.0100;
598127987911743;-0.2481;0.0787;-0.0433;
598127998016691;-0.1969;0.0212;-0.0497;
598128008121743;-0.1479;0.0595;-0.0252;
598128018239347;-0.1415;0.0201;0.0068;
598128028344347;-0.1320;-0.1429;-0.0454;
598128038449399;-0.0575;-0.0097;-0.0465;
598128048556639;-0.0405;0.0041;0.0036;
598128058661639;-0.0533;-0.2004;-0.0017;
598128068766691;-0.0128;-0.1226;-0.0348;
598128078871430;0.0075;-0.0097;-0.0603;
598128088976430;-0.0810;-0.1003;-0.0763;
598128099081482;-0.0692;-0.1237;-0.1125;
598128109197784;-0.0288;-0.0406;-0.0997;
598128119302784;-0.0352;0.0116;-0.0699;
598128129407837;-0.0224;-0.0033;-0.0795;
598128139507368;0.0000;-0.0300;-0.0667;
598128149612368;0.0959;0.0052;-0.0230;
598128159717420;0.1395;-0.0225;-0.0156;
598128169819451;0.1960;0.0084;-0.0134;
598128179924451;0.1875;0.0691;-0.0028;
598128190029503;0.0820;-0.0406;-0.0092;
598128200147368;0.0660;-0.0896;-0.0262;
598128210252368;0.1214;0.0531;-0.0667;
598128220357368;0.0277;0.0297;-0.0699;
598128230471743;0.0011;0.0073;-0.0369;
598128240576743;0.0714;0.0329;0.0089;
598128250681743;0.0138;-0.0555;0.0015;
598128260758618;0.0991;-0.0491;-0.0177;
598128270863618;0.1161;0.0340;-0.0092;
598128280968670;0.0842;0.0329;-0.0092;
598128291067055;0.0341;-0.0523;0.0089;
598128301172055;0.0128;-0.1333;-0.0103;
598128311277107;0.0096;-0.1897;-0.0358;
598128321396430;0.0213;-0.1035;-0.0944;
598128331501430;0.0330;0.0308;-0.0859;
598128341606430;0.0149;-0.0001;-0.0880;
598128351720337;0.0607;-0.0065;-0.0411;
598128361825284;0.1023;0.1096;-0.0134;
598128371930284;0.1555;0.2321;-0.0049;
598128382010389;0.1150;0.1085;-0.0166;
598128392115389;0.0863;-0.0598;-0.0092;
598128402220389;0.1758;-0.0459;-0.0039;
598128412340232;0.1555;-0.0278;-0.0049;
598128422445232;0.1566;-0.0427;-0.0071;
598128432550232;0.1395;-0.0257;0.0079;
598128442661847;0.1513;0.0222;0.0079;
598128452766847;0.0692;-0.0129;0.0238;
598128462871847;0.0863;-0.0332;0.0505;
598128472978201;0.1129;0.0702;0.0824;
598128483083201;0.0895;0.0712;0.0835;
598128493188201;0.0575;-0.0438;0.0547;
598128503278305;0.1534;0.1298;0.0867;
598128513383305;0.1321;0.2820;0.1048;
598128523488305;-0.0043;0.0435;0.1112;
598128533593097;-0.0064;-0.0534;0.1154;
598128543698097;0.0746;0.1064;0.1144;
598128553803097;0.0192;0.0627;0.1048;
598128563877732;-0.0107;-0.0736;0.1421;
598128573982732;-0.0575;-0.1003;0.1762;
598128584087732;-0.0362;-0.0193;0.1698;
598128594211222;-0.0053;-0.0332;0.1421;
598128604316222;-0.0501;-0.0981;0.1208;
598128614421222;-0.0831;0.0116;0.1154;
598128624529139;-0.0320;0.0925;0.1229;
598128634634139;-0.0565;-0.0023;0.1101;
598128644739139;-0.1064;0.0403;0.1016;
598128654852889;-0.1075;0.1415;0.0888;
598128664957889;-0.1085;0.0787;0.0877;
598128675062889;-0.1330;0.0595;0.0792;
598128685154503;-0.1362;0.0755;0.0824;
598128695259503;-0.1415;-0.0619;0.1048;
598128705364503;-0.1192;-0.1280;0.1197;
598128715456274;-0.0852;-0.1141;0.0835;
598128725561274;-0.1703;-0.3602;0.1154;
598128735666222;-0.3493;-0.5848;0.1794;
598128745812993;0.0522;0.1831;0.1336;
598128755917993;0.3270;0.6815;-0.0848;
598128766022993;0.3217;0.7923;-0.1104;
598128776114295;0.0543;0.6463;-0.0337;
598128786219295;-0.0979;0.4716;-0.0060;
598128796324295;-0.0405;0.6059;-0.0198;
598128806445284;-0.0852;0.3608;0.0206;
598128816550284;-0.0895;0.0286;0.0707;
598128826655284;0.0724;0.1288;0.0707;
598128836754139;0.0245;0.0893;0.1218;
598128846859139;-0.0437;-0.1173;0.1527;
598128856964139;0.1257;0.3885;0.1304;
598128867064139;0.0245;0.2586;0.1399;
598128877169139;-0.3482;-1.5583;0.1815;
598128887274139;-0.1778;-1.4209;-0.0081;
598128897358097;-0.1852;-0.2537;-0.0774;
598128907463097;-0.5517;-0.1642;-0.0965;
598128917568097;-0.7742;-0.5326;-0.0731;
598128927685805;-0.4249;-0.4719;-0.1306;
598128937790857;0.0490;0.2001;-0.2242;
598128947895805;-0.0085;0.3875;-0.2349;
598128958005389;-0.1234;-0.1503;-0.1104;
598128968110389;0.0948;-0.0843;-0.0965;
598128978215389;0.2077;0.2406;-0.0742;
598128988311899;-0.0788;-0.0960;-0.0433;
598128998416899;-0.1107;-0.2196;-0.0198;
598129008521899;-0.0490;0.0787;-0.0145;
598129018634868;-0.0957;0.0979;-0.0284;
598129028739868;-0.1085;-0.0683;-0.0241;
598129038844920;-0.0628;0.0244;-0.0252;
598129048949034;-0.0575;0.0403;-0.0603;
598129059054034;-0.0767;0.0585;-0.0561;
598129069159034;-0.1107;0.0180;-0.0422;
598129079253253;-0.1043;-0.1226;-0.0028;
598129089358253;-0.1149;-0.1120;0.0036;
598129099463253;-0.1288;-0.1823;0.0398;
598129109592784;-0.3312;-0.6466;0.0579;
598129119697784;-0.4430;-0.6349;-0.0177;
598129129802784;-0.2704;0.6208;-0.1551;
598129139907472;-0.1607;0.7901;-0.3702;
598129150012420;-0.0181;0.3704;-0.3979;
598129160117420;-0.1320;0.3385;-0.3585;
598129170207055;-0.0607;0.4375;-0.4075;
598129180312055;0.0320;0.5121;-0.3723;
598129190417055;0.0575;0.3790;-0.2594;
598129200543045;0.1417;0.1991;-0.1445;
598129210648097;0.2173;0.2575;-0.0710;
598129220753045;0.2514;0.4514;-0.0039;
598129230852993;0.2919;0.6932;0.0356;
598129240958045;0.3025;0.9295;0.0356;
598129251062993;0.0458;-0.6029;0.2742;
598129261155284;-0.0224;-1.7499;0.1623;
598129271260284;0.0522;-0.7584;0.0430;
598129281365284;-0.2736;-0.0960;0.0281;
598129291464972;-0.5889;-0.4602;0.0100;
598129301569972;-0.2502;-0.3176;-0.0177;
598129311675024;-0.0245;0.2820;-0.0731;
598129321782941;-0.1554;0.4610;-0.0497;
598129331887889;-0.2395;0.0031;-0.0294;
598129341992941;-0.0288;-0.1706;0.0228;
598129352069243;0.0458;0.1639;0.0675;
598129362174243;-0.0820;0.0478;0.1080;
598129372279243;-0.0692;-0.1162;0.1059;
598129382406326;-0.0170;0.1607;0.0718;
598129392511326;-0.0842;0.1383;0.1059;
598129402616326;-0.0884;-0.0662;0.1538;
598129412715180;-0.0394;0.1341;0.1804;
598129422820180;-0.0767;0.1565;0.2188;
598129432925180;-0.1192;-0.0981;0.2092;
598129443044816;-0.0863;-0.0332;0.2230;
598129453149764;-0.1117;0.0638;0.2273;
598129463254764;-0.1362;-0.0481;0.2177;
598129473368722;-0.1415;-0.0907;0.1826;
598129483473722;-0.1660;-0.1674;0.1602;
598129493578670;-0.1927;-0.1589;0.0654;
598129503674972;-0.2459;0.0478;-0.0113;
598129513779972;-0.3727;0.0925;-0.0720;
598129523884972;-0.4132;0.1213;-0.0891;
598129533990909;-0.2896;0.2458;-0.1274;
598129544095962;-0.0863;0.2671;-0.1541;
598129554200909;0.0628;0.1852;-0.1530;
598129564309868;0.2301;0.1660;-0.1391;
598129574414868;0.3600;0.0723;-0.0465;
598129584519868;0.4176;-0.0236;-0.0039;
598129594620597;0.3600;-0.0257;0.0260;
598129604725597;0.2301;-0.0523;0.0356;
598129614830597;0.1715;-0.0108;0.0579;
598129624927264;0.0873;0.0233;0.0569;
598129635032264;0.0192;-0.0353;0.0473;
598129645137264;-0.0288;-0.1450;0.0132;
598129655264816;-0.0362;-0.1674;-0.0475;
598129665369816;-0.0767;-0.0981;-0.0678;
598129675474764;-0.0799;-0.0257;-0.1072;
598129685556587;-0.0256;-0.0172;-0.0827;
598129695661639;0.0575;-0.0353;-0.0806;
598129705766587;0.0842;0.0265;-0.0646;
598129715843826;0.0458;0.1799;-0.1093;
598129725948826;0.0554;0.2118;-0.0720;
598129736053826;0.0469;0.0734;-0.0348;
598129746181430;0.0543;-0.0087;-0.0593;
598129756286430;0.0447;-0.0065;-0.0593;
598129766391430;-0.0032;0.0020;-0.0220;
598129776514451;-0.0202;-0.0619;-0.0475;
598129786619451;-0.0192;-0.1024;-0.0624;
598129796724451;-0.0671;-0.0619;-0.0326;
598129806814868;-0.0873;-0.0427;-0.0358;
598129816919868;-0.0810;0.0084;-0.0422;
598129827024868;-0.0543;0.1373;-0.1051;
598129837124139;-0.0117;0.2001;-0.1306;
598129847229139;-0.0352;0.0318;-0.1477;
598129857334139;0.0202;0.0158;-0.0869;
598129867469555;0.0320;0.1245;-0.0987;
598129877574555;0.0415;0.1373;-0.1221;
598129887679503;0.0927;0.1234;-0.1168;
598129897751743;0.1619;0.0830;-0.0539;
598129907856743;0.1758;0.0755;0.0100;
598129917961743;0.1044;0.0521;0.0462;
598129928082472;0.0735;0.0318;0.0601;
598129938187472;0.0692;-0.0204;0.0824;
598129948292472;0.0394;-0.1471;0.1304;
598129958397680;-0.0149;-0.2750;0.1112;
598129968502680;-0.0107;-0.1897;0.1016;
598129978607680;-0.0628;-0.1578;0.1250;
598129988700649;-0.0820;-0.2803;0.0984;
598129998805649;-0.0597;-0.1908;0.0824;
598130008910649;-0.0842;-0.0395;0.1027;
598130019032055;-0.0703;-0.0182;0.1442;
598130029137107;-0.0490;-0.1429;0.1847;
598130039242055;-0.0746;-0.1429;0.1655;
598130049340805;-0.1394;0.1245;0.1367;
598130059445805;-0.1692;0.3939;0.1080;
598130069550805;-0.0405;0.2991;0.1176;
598130079649139;-0.0032;0.1543;0.1336;
598130089754139;-0.0394;0.1288;0.1581;
598130099859139;-0.0554;0.1107;0.1506;
598130109974868;-0.0597;0.1660;0.1644;
598130120079868;-0.0873;0.1756;0.2039;
598130130184868;-0.1501;0.1160;0.2390;
598130140286014;-0.1639;0.1490;0.2571;
598130150391014;-0.1362;0.2692;0.2529;
598130160496014;-0.2129;0.1692;0.2582;
598130170609764;-0.4057;-0.2899;0.2337;
598130180714764;-0.3493;-0.4517;0.1559;
598130190819764;-0.4473;-0.2909;0.0664;
598130200936639;-0.6262;-0.1897;0.0089;
598130211041639;-0.6070;-0.1354;-0.0635;
598130221146587;-0.3834;-0.0193;-0.0901;
598130231249659;-0.2332;0.1053;-0.1093;
598130241354659;-0.1597;0.0925;-0.0784;
598130251459659;-0.1309;0.0723;-0.1019;
598130261542889;-0.0341;0.1234;-0.0763;
598130271647941;0.0085;0.1469;-0.0326;
598130281752889;0.0075;0.0382;0.0025;
598130291867368;-0.0256;-0.0939;0.0121;
598130301972368;-0.0884;-0.0662;-0.0103;
598130312077368;-0.1373;0.0340;-0.0124;
598130322195389;-0.1075;0.1064;-0.0113;
598130332300441;-0.0979;0.0457;0.0483;
598130342405441;-0.1170;-0.0459;0.0494;
598130352504034;-0.0968;-0.0310;0.0174;
598130362609034;-0.1117;0.0585;-0.0561;
598130372714087;-0.1426;0.0489;-0.0326;
598130382801118;-0.1565;0.0222;-0.0316;
598130392906118;-0.1650;0.0712;-0.0582;
598130403011118;-0.1991;0.0052;-0.0656;
598130413118618;-0.1405;0.0766;-0.0614;
598130423223670;-0.1873;-0.0204;-0.0752;
598130433328670;-0.1799;-0.2281;-0.1008;
598130443435389;-0.1256;0.0244;-0.0944;
598130453540441;-0.1671;0.1362;-0.0965;
598130463645441;-0.1075;-0.0427;-0.1317;
598130473767472;-0.0341;-0.0065;-0.1328;
598130483872524;-0.0426;0.0638;-0.1466;
598130493977524;-0.0224;0.0403;-0.1647;
598130504071743;0.0085;-0.0619;-0.1306;
598130514176795;0.0565;0.0041;-0.1253;
598130524281847;0.0501;0.0446;-0.0806;
598130534377264;0.0075;-0.0182;-0.0933;
598130544482316;0.0703;0.1415;-0.0699;
598130554587316;-0.0479;0.0031;-0.0582;
598130564734451;-0.0213;-0.1109;-0.0838;
598130574839503;-0.0533;0.1011;-0.1764;
598130584944503;-0.0639;0.1671;-0.1827;
598130595008930;-0.0597;0.0350;-0.1690;
598130605113982;-0.0096;-0.0012;-0.1530;
598130615219034;-0.0128;0.0190;-0.1541;
598130625318149;-0.0522;-0.0438;-0.1125;
598130635423201;-0.0181;-0.1525;-0.1210;
598130645528201;-0.0288;-0.1514;-0.0667;
598130655633253;-0.0788;-0.3027;-0.0358;
598130665738253;-0.0947;-0.2686;-0.0443;
598130675843305;-0.1170;0.2023;-0.1455;
598130685954555;-0.0714;0.3587;-0.1848;
598130696059555;-0.0522;0.0020;-0.1976;
598130706164607;-0.0852;-0.0694;-0.2264;
598130716256743;0.0224;0.1181;-0.2253;
598130726361795;0.0735;0.1149;-0.1933;
598130736466795;0.0671;0.0648;-0.1413;
598130746571014;0.0213;0.1181;-0.0880;
598130756676066;0.0032;0.1671;-0.0752;
598130766781066;0.0479;0.1980;-0.0348;
598130776906014;0.0842;0.3577;0.0047;
598130787011066;-0.0415;-0.1748;0.0185;
598130797116066;-0.0565;-0.6210;-0.0081;
598130807211743;-0.0947;-0.4154;-0.0688;
598130817316795;-0.2491;-0.2515;-0.1754;
598130827421795;-0.2513;-0.3165;-0.1679;
598130837546743;-0.0692;-0.1684;-0.0997;
598130847651795;-0.0330;0.1213;-0.1189;
598130857756795;0.0298;0.2778;-0.1912;
598130867835753;0.0469;0.1671;-0.1498;
598130877940753;0.0618;0.0957;-0.1125;
598130888045753;0.1140;0.1724;-0.1146;
598130898160232;0.1044;0.1309;-0.1200;
598130908265284;0.1310;0.0755;-0.1200;
598130918370284;0.1694;0.1053;-0.0816;
598130928473097;0.0810;0.0659;-0.0433;
598130938578149;-0.0096;-0.0896;-0.0518;
598130948683149;0.0415;0.0201;-0.0326;
598130958776014;0.0543;0.1820;-0.0230;
598130968880962;-0.0085;-0.0577;-0.0273;
598130978985962;0.0298;-0.1759;-0.0028;
598130989090962;-0.0192;-0.1652;-0.0379;
598130999215805;-0.0117;-0.1290;-0.0955;
598131009320857;-0.0224;-0.1130;-0.1125;
598131019425857;0.0000;-0.1354;-0.1019;
598131029528774;-0.0213;-0.0449;-0.1423;
598131039633774;0.0021;0.0606;-0.1445;
598131049738774;0.0288;0.0340;-0.1349;
598131059847993;0.0788;0.0393;-0.1210;
598131069953045;0.0980;0.0840;-0.0720;
598131080058045;0.1332;0.0702;-0.0475;
598131090154139;0.1672;0.0968;-0.0497;
598131100259191;0.1065;0.0819;-0.0848;
598131110364191;0.1395;0.0702;-0.0475;
598131120487368;0.1214;0.0276;-0.0145;
598131130592420;0.0884;0.0382;-0.0209;
598131140697420;0.0107;-0.0214;-0.0198;
598131150785701;0.0107;-0.1088;-0.0103;
598131160890753;0.0288;-0.0268;-0.0113;
598131170995753;0.0650;0.0158;-0.0017;
598131181085024;0.0660;-0.0150;-0.0017;
598131191190024;0.0810;0.0031;-0.0103;
598131201295024;0.0565;-0.0246;-0.0401;
598131211406482;0.0511;-0.0353;-0.0284;
598131221511534;0.0437;-0.0502;-0.0177;
598131231616587;0.0692;-0.0630;-0.0273;
598131241744659;0.0352;-0.0704;-0.0348;
598131251849712;0.0245;-0.1514;-0.0379;
598131261954712;0.0245;-0.3165;0.0174;
598131272029607;-0.0234;-0.3154;0.0015;
598131282134607;-0.0107;0.1011;-0.0039;
598131292239607;0.0916;0.4088;-0.0103;
598131302362316;0.1971;0.2501;-0.0784;
598131312467368;0.1321;0.0766;-0.0933;
598131322572368;0.0043;0.0489;-0.0774;
598131332672264;0.0650;0.0925;-0.0507;
598131342777264;0.0820;0.1650;-0.0401;
598131352882212;0.0873;0.1767;-0.0134;
598131362976639;0.0980;0.1810;0.0228;
598131373081639;0.1395;0.2374;0.0334;
598131383186587;0.2620;0.4280;0.1080;
598131393319139;0.1300;0.1756;0.1538;
598131403424139;-0.0256;-0.5198;0.1655;
598131413529087;0.0128;-0.5262;0.0643;
598131423612316;-0.1107;-0.2739;0.0206;
598131433717316;-0.2182;-0.1397;-0.0145;
598131443822264;-0.0778;-0.0683;-0.0252;
598131453945701;0.0597;0.0158;-0.0688;
598131464050701;0.0426;0.1352;-0.0603;
598131474155649;0.0234;0.0702;-0.0092;
598131484243982;0.0586;-0.0374;0.0196;
598131494348982;0.0533;0.0116;0.0696;
598131504453930;0.0415;-0.0161;0.0771;
598131514561639;0.0160;-0.0917;0.0590;
598131524666639;0.0714;0.0457;0.0899;
598131534771587;0.0096;0.0318;0.0920;
598131544870076;-0.0032;-0.0438;0.0750;
598131554975128;0.0011;0.0276;0.0654;
598131565080024;-0.0277;-0.0012;0.0750;
598131575183982;-0.0957;-0.0917;0.0526;
598131585288930;-0.1245;-0.0928;-0.0071;
598131595393930;-0.0767;-0.0342;0.0292;
598131605501743;-0.0831;-0.0427;0.0100;
598131615606795;-0.0437;-0.0129;-0.0379;
598131625711691;-0.0021;0.0723;-0.0752;
598131635821118;0.0458;0.1565;-0.0337;
598131645926066;0.0064;0.0776;-0.0316;
598131656031066;-0.0181;0.0084;-0.0305;
598131666126534;-0.0852;-0.1258;-0.0497;
598131676231534;-0.0213;-0.1035;-0.0880;
598131686336482;0.0362;0.0254;-0.0593;
598131696460284;0.0362;0.0489;-0.0678;
598131706565232;0.0213;0.0276;-0.0411;
598131716670284;0.0309;-0.0140;-0.0742;
598131726793618;0.0586;0.0712;-0.0859;
598131736898618;0.0479;0.1352;-0.0869;
598131747003566;0.0352;-0.0065;-0.1210;
598131757082055;0.0490;-0.0161;-0.0944;
598131767187055;0.0458;0.0446;-0.0763;
598131777292003;0.0096;-0.0182;-0.0667;
598131787400805;0.0245;-0.0278;-0.0710;
598131797505805;0.0373;0.0020;-0.0667;
598131807610753;0.0320;0.0478;-0.0294;
598131817742889;0.0479;0.0095;-0.0273;
598131827847889;0.0373;-0.0033;-0.0710;
598131837952837;0.0543;0.0063;-0.0593;
598131848028566;0.0277;-0.0214;-0.0561;
598131858133514;0.0128;-0.0672;-0.0710;
598131868238462;0.0043;-0.0438;-0.0603;
598131878346899;0.0298;-0.0044;-0.0539;
598131888451899;0.0320;0.0329;-0.0092;
598131898556847;0.0692;0.0382;-0.0113;
598131908668722;0.0724;-0.0001;0.0185;
598131918773722;0.0309;-0.1120;0.0462;
598131928878670;0.0341;-0.0981;0.0196;
598131938992472;0.0735;0.0414;0.0079;
598131949097472;0.0309;-0.0545;0.0462;
598131959202420;0.0394;-0.1812;0.0643;
598131969304555;0.0511;-0.1706;0.0675;
598131979409555;-0.1021;-0.3208;0.0782;
598131989514503;-0.2023;-0.3272;0.0782;
598131999608930;-0.1000;0.1788;0.0345;
598132009713930;0.1395;0.3065;0.0164;
598132019818878;0.0820;0.0180;0.0004;
598132029918618;-0.0213;-0.0545;-0.0039;
598132040023618;0.0128;0.0787;-0.0198;
598132050128566;0.0256;0.0776;0.0228;
598132060243409;0.0341;0.0553;0.0015;
598132070348409;0.0788;0.1458;0.0473;
598132080453357;0.0320;0.0787;0.0824;
598132090554243;0.1097;0.1735;0.0814;
598132100659243;0.3164;0.4770;0.1442;
598132110764191;-0.0554;-0.0246;0.1250;
598132120886639;-0.2853;-0.4676;0.1165;
598132130991639;-0.0447;-0.1951;0.0547;
598132141096587;-0.0639;0.0031;-0.0443;
598132151181899;-0.0170;0.0734;-0.0039;
598132161286899;0.0383;0.0851;-0.0188;
598132171391847;-0.0085;0.1011;0.0270;
598132181517993;-0.0192;0.0638;0.0345;
598132191622993;-0.0085;0.0808;-0.0124;
598132201727941;0.0660;0.2692;0.0057;
598132211812159;-0.0352;0.0723;0.0750;
598132221917159;-0.0873;-0.2877;0.0973;
598132232022159;-0.0075;-0.1599;0.0909;
598132242118097;-0.0021;0.0254;0.0441;
598132252223097;-0.0202;0.0126;0.0345;
598132262328045;-0.0043;-0.0129;0.0686;
598132272455284;-0.0170;-0.0885;0.0771;
598132282560284;-0.0011;-0.0683;0.0984;
598132292665232;-0.0224;-0.2025;0.1538;
598132302752316;-0.1852;-0.6999;0.2017;
598132312857316;-0.3120;-0.3803;0.1133;
598132322962316;0.1374;0.7156;-0.0443;
598132333066014;1.1523;0.9274;-0.0688;
598132343171014;0.6742;0.1192;-0.0390;
598132353276014;-0.3706;-0.2451;0.0782;
598132363390180;-0.6688;0.0467;0.1261;
598132373495180;-0.5463;0.1320;0.0760;
598132383600128;-0.0362;0.0893;0.0686;
598132393713201;0.0863;0.0372;0.1687;
598132403818201;0.0426;0.0989;0.1730;
598132413923149;0.3803;0.7113;0.2582;
598132424010909;0.4399;0.7039;0.2965;
598132434115909;-0.4600;-1.0459;0.3093;
598132444220857;-0.7039;-1.4156;0.0941;
598132454338826;-0.1501;-0.3654;-0.0156;
598132464443826;-0.2491;0.1373;-0.1083;
598132474548774;-0.3386;-0.1120;-0.1040;
598132484636430;0.1406;0.0734;-0.1338;
598132494741430;0.0043;0.3161;-0.0603;
598132504846378;-0.2513;0.1405;0.0270;
598132514958097;-0.2055;-0.0854;0.0931;
598132525063097;-0.1415;-0.0438;0.0675;
598132535168097;-0.0213;0.2172;0.1282;
598132545288566;-0.1096;-0.0811;0.1197;
598132555393566;-0.0383;-0.0779;0.0643;
598132565498514;0.2013;0.2618;0.0835;
598132575578878;0.1630;0.0723;0.0430;
598132585683826;-0.0925;-0.1684;0.0952;
598132595788826;-0.1117;-0.0332;0.1336;
598132605912055;-0.0597;-0.1045;0.0984;
598132616017055;-0.0597;-0.1716;0.0835;
598132626122003;0.0362;-0.0577;0.0824;
598132636204451;0.1491;0.0073;0.0995;
598132646309451;0.3292;0.1522;0.1176;
598132656414399;0.1875;0.1618;0.0760;
598132666521222;-0.0852;0.0148;0.1144;
598132676626222;-0.1277;-0.0459;0.1442;
598132686731222;-0.1064;-0.1344;0.1112;
598132696869347;-0.0522;-0.1013;0.0803;
598132706974347;-0.0213;-0.0044;0.1059;
598132717079295;-0.0724;-0.0236;0.1154;
598132727184659;-0.0756;-0.0555;0.1240;
598132737289659;-0.0628;0.0489;0.1772;
598132747394607;-0.0650;0.1000;0.1889;
598132757484972;-0.1639;-0.0992;0.1772;
598132767589972;-0.1714;-0.0630;0.0814;
598132777694920;-0.1181;0.0031;0.0462;
598132787795493;-0.2065;-0.1535;0.0409;
598132797900493;-0.1597;-0.1056;0.0228;
598132808005441;-0.0852;0.0787;0.0025;
598132818100909;-0.1405;0.0233;0.0728;
598132828205909;-0.1842;0.0116;-0.0582;
598132838310857;-0.0778;-0.0182;-0.0358;
598132848407420;-0.0597;-0.0459;0.0174;
598132858512368;-0.0277;-0.0150;0.0153;
598132868617368;-0.0490;0.0414;-0.0284;
598132878737055;-0.0383;0.0638;-0.0411;
598132888842055;-0.0639;-0.0609;-0.0816;
598132898947003;0.0394;0.0180;-0.1125;
598132909060649;-0.0053;0.0798;-0.0880;
598132919165649;-0.1085;-0.0609;-0.0316;
598132929270597;-0.0788;-0.1727;-0.0571;
598132939352576;0.0362;-0.0822;-0.0763;
598132949457576;0.0405;0.0521;-0.0561;
598132959562576;-0.0383;0.0222;-0.0241;
598132969693618;-0.0213;0.0137;-0.0742;
598132979798618;0.0660;0.1341;-0.0582;
598132989903566;-0.0085;0.1735;-0.0411;
598133000001326;-0.0724;0.0276;-0.0348;
598133010106326;-0.0810;-0.0843;-0.0379;
598133020211274;-0.0298;-0.0694;-0.0348;
598133030337993;-0.0458;-0.0097;-0.0390;
598133040442993;-0.0213;0.0893;-0.0529;
598133050547941;-0.0405;0.1064;-0.0241;
598133060629972;-0.0383;0.0957;-0.0230;
598133070734920;-0.0628;0.0425;-0.0166;
598133080839920;-0.0565;0.0190;-0.0326;
598133090948618;-0.0905;0.0201;-0.0209;
598133101053618;-0.0842;-0.0300;-0.0614;
598133111158566;-0.0979;-0.0790;-0.0678;
598133121271639;-0.0618;-0.0587;-0.0699;
598133131376639;0.0032;0.0670;-0.0188;
598133141481587;-0.0543;0.0648;-0.0284;
598133151569451;-0.1426;-0.1407;-0.0198;
598133161674451;-0.2193;-0.2121;-0.0305;
598133171779347;-0.0341;-0.0907;-0.0497;
598133181890597;0.0043;-0.0427;-0.0997;
598133191995649;-0.0043;-0.0566;-0.0965;
598133202100545;-0.0309;-0.0672;-0.0507;
598133212188149;0.0383;-0.0854;-0.0763;
598133222293097;0.3132;0.0957;-0.1178;
598133232398097;0.5687;0.1948;-0.0763;
598133242515493;0.3462;0.1085;0.0696;
598133252620493;0.0309;0.0478;0.0877;
598133262725493;0.0597;0.1000;0.0387;
598133272845493;0.0320;0.1437;0.0995;
598133282950493;0.0618;0.1245;0.1602;
598133293055441;0.1342;0.1671;0.1431;
598133303156326;0.1502;0.2023;0.1751;
598133313261326;-0.0192;0.1075;0.1836;
598133323366274;-0.0735;-0.0097;0.1996;
598133333450909;-0.0224;0.0574;0.2294;
598133343555909;-0.0298;0.0137;0.2220;
598133353660857;-0.1479;-0.2494;0.2198;
598133363807993;-0.1320;-0.1120;0.1911;
598133373912941;-0.0586;0.0595;0.1676;
598133384017941;-0.2960;-0.0971;0.1378;
598133394081222;-0.3738;-0.1226;0.1240;
598133404186222;-0.2566;0.0744;0.0909;
598133414291170;-0.3045;0.1895;0.0430;
598133424401743;-0.5666;0.0585;0.0100;
598133434506743;-0.6390;-0.0843;0.0185;
598133444611691;-0.4483;0.0893;-0.0177;
598133454712264;-0.3013;0.2182;-0.0603;
598133464817264;-0.2502;0.1724;-0.0784;
598133474922212;-0.2853;0.1245;-0.0379;
598133485030701;-0.2896;0.1085;-0.0220;
598133495135701;-0.2055;0.0776;-0.0507;
598133505240649;-0.1650;0.0372;-0.0529;
598133515388566;-0.1607;-0.0182;-0.0827;
598133525493514;-0.1650;-0.0491;-0.1146;
598133535598514;-0.1714;-0.1173;-0.1157;
598133545662003;-0.1394;-0.1589;-0.1125;
598133555767003;-0.0437;-0.0619;-0.1615;
598133565871951;0.1097;0.0617;-0.1786;
598133576005805;-0.0107;0.0510;-0.1711;
598133586110805;-0.1937;-0.0790;-0.1423;
598133596215753;-0.1320;-0.1322;-0.1509;
598133606303618;-0.0799;-0.0768;-0.1519;
598133616408618;0.0160;-0.0502;-0.1519;
598133626513566;0.0597;-0.0374;-0.1477;
598133636598982;0.0575;-0.0140;-0.2125;
598133646703982;0.1225;0.0222;-0.1987;
598133656808930;0.1108;0.0702;-0.1455;
598133666936795;0.0852;0.0276;-0.1360;
598133677041795;0.1694;0.0563;-0.1274;
598133687146743;0.2525;0.1639;-0.1093;
598133697234295;0.1545;0.0702;-0.0806;
598133707339295;0.0746;0.0148;-0.0561;
598133717444243;0.1182;0.0403;-0.0252;
598133727573878;0.1300;0.0190;-0.0209;
598133737678826;0.1257;-0.0502;-0.0358;
598133747783826;0.0788;-0.1684;-0.0486;
598133757860805;0.0469;-0.1546;-0.0710;
598133767965805;0.0032;-0.0768;-0.1019;
598133778070753;-0.0309;-0.1418;-0.1402;
598133788187472;-0.1011;-0.3931;-0.1679;
598133798292472;-0.0415;-0.2302;-0.1498;
598133808397420;0.0501;0.1437;-0.2083;
598133818518305;0.0852;0.1884;-0.2391;
598133828623253;0.0128;0.1991;-0.2264;
598133838728253;0.0117;0.1639;-0.2051;
598133848797784;0.0277;-0.0065;-0.1498;
598133858902784;0.0213;-0.0023;-0.1487;
598133869007732;0.0842;-0.0001;-0.1711;
598133879125389;0.1630;0.0041;-0.1754;
598133889230389;0.2663;0.1607;-0.1370;
598133899335337;0.2716;0.1021;-0.0997;
598133909441014;0.2375;-0.0523;-0.1072;
598133919546014;0.2770;0.0244;-0.0848;
598133929650962;0.3153;0.1980;-0.0635;
598133939744972;0.1651;-0.0662;-0.0507;
598133949849972;0.0298;-0.4080;-0.0678;
598133959954920;0.0703;-0.2600;-0.0710;
598133970093826;0.1342;-0.0342;-0.0593;
598133980198826;0.1438;-0.0161;-0.0603;
598133990303774;0.1289;-0.0470;-0.0880;
598134000384659;0.1385;0.0414;-0.1221;
598134010489659;0.1662;0.1628;-0.1029;
598134020594607;0.1193;0.0627;-0.0763;
598134030723826;0.1427;-0.0470;-0.0859;
598134040828774;0.1715;0.0233;-0.0571;
598134050933774;0.1342;-0.0214;-0.0539;
598134061022680;0.1694;-0.0353;-0.0454;
598134071127680;0.2844;0.1000;-0.0284;
598134081232628;0.2258;-0.0225;0.0089;
598134091337472;0.1619;-0.1205;0.0142;
598134101442472;0.2173;-0.0193;0.0686;
598134111547472;0.1822;-0.0907;0.0909;
598134121656170;0.1523;-0.0619;0.0590;
598134131761118;0.1491;0.0680;0.0164;
598134141866066;0.1225;0.0308;0.0174;
598134151964920;0.0905;0.0031;0.0185;
598134162069868;0.0895;0.0244;0.0079;
598134172174816;0.0895;0.0052;0.0206;
598134182268982;0.0927;0.0020;0.0345;
598134192373982;0.0799;0.0148;0.0174;
598134202478930;0.0905;-0.0321;0.0057;
598134212610493;0.0788;-0.0481;0.0387;
598134222715493;0.0916;-0.0055;0.0505;
598134232820441;0.1481;0.0169;0.0526;
598134242913982;0.1097;0.0052;0.0782;
598134253018982;0.0799;-0.0289;0.0387;
598134263123930;0.1044;-0.0172;0.0462;
598134273228618;0.1246;0.0063;0.0675;
598134283333566;0.1236;-0.0278;0.0739;
598134293438566;0.0703;-0.0534;0.0547;
598134303557889;0.1150;0.0340;0.0654;
598134313662889;0.1385;0.0787;0.0707;
598134323767837;0.0991;0.0201;0.0867;
598134333851430;0.0810;0.0318;0.0782;
598134343956430;0.0884;0.0563;0.1186;
598134354061430;0.0810;0.0233;0.1581;
598134364165180;0.0863;0.0063;0.1517;
598134374270180;0.0692;-0.0246;0.1186;
598134384375180;0.0043;-0.0364;0.0696;
598134394481430;-0.0138;-0.0044;0.0750;
598134404586430;-0.0266;-0.0076;0.0877;
598134414691430;-0.0543;-0.0481;0.0846;
598134424786743;-0.0479;0.0254;0.0643;
598134434891743;-0.0234;0.0766;0.0547;
598134444996743;-0.0554;0.0009;0.0526;
598134455110128;-0.0373;-0.0012;0.0409;
598134465215128;-0.0394;0.0297;0.0462;
598134475320076;-0.0820;-0.0555;0.0505;
598134485437993;-0.0863;-0.0928;0.0547;
598134495543045;-0.0309;-0.0619;0.0515;
598134505647993;-0.0107;-0.0513;0.0260;
598134515738409;-0.0053;-0.0214;-0.0369;
598134525843409;0.0096;-0.0108;-0.0305;
598134535948357;0.0075;-0.0150;-0.0156;
598134546055962;0.0533;-0.0097;-0.0166;
598134556160962;0.0309;-0.0076;-0.0262;
598134566265909;0.0288;0.0084;-0.0326;
